loop_instruction.thisRepN,loop_instruction.thisTrialN,loop_instruction.thisN,loop_instruction.thisIndex,loop_rsi_practice.thisRepN,loop_rsi_practice.thisTrialN,loop_rsi_practice.thisN,loop_rsi_practice.thisIndex,loop_practice.thisRepN,loop_practice.thisTrialN,loop_practice.thisN,loop_practice.thisIndex,loop_exp.thisRepN,loop_exp.thisTrialN,loop_exp.thisN,loop_exp.thisIndex,loop_trials.thisRepN,loop_trials.thisTrialN,loop_trials.thisN,loop_trials.thisIndex,map_condition,map_x_key,map_y_key,key_resp_welcome.started,key_resp_welcome.keys,key_resp_welcome.rt,index,text_empty_rsi_practice.started,text_empty_rsi_practice.stopped,rsi,stimulus.started,stimulus,correct,trial_type,key_resp_trial.keys,key_resp_trial.corr,stimulus.stopped,key_resp_trial.rt,key_resp_instruction_rsi.started,key_resp_instruction_rsi.keys,key_resp_instruction_rsi.rt,key_resp_instruction_rsi.stopped,key_resp_instruction_final.started,key_resp_instruction_final.keys,key_resp_instruction_final.rt,key_resp_break.started,key_resp_break.keys,key_resp_break.rt,key_resp_break.stopped,key_resp_end_screen.started,image_end_screen.started,key_resp_end_screen.keys,key_resp_end_screen.rt,participant,session,Alter,Geschlecht (w/m/d/andere),Studiengang,date,expName,psychopyVersion,frameRate,
,,,,0,0,0,0,0,0,0,0,,,,,,,,,0,d,l,1550.7555649723945,j,34.225683056243724,0,1585.007475882412,1586.0223437684072,1,1586.0223437684072,X,d,go,None,0,,,,,,,,,,,,,,,,,,10,001,21,m,Bsc. Psychologie 100%,2023-01-09_14h07.27.419,00_bat_bachelor,2022.2.4,60.03909456626929,
,,,,0,0,0,0,1,0,1,0,,,,,,,,,,,,,,,1,1587.4232874779555,1588.4244302663901,1,1588.4244302663901,Y,l,go,None,0,1589.224838412043,,,,,,,,,,,,,,,,,10,001,21,m,Bsc. Psychologie 100%,2023-01-09_14h07.27.419,00_bat_bachelor,2022.2.4,60.03909456626929,
,,,,0,0,0,0,2,0,2,0,,,,,,,,,,,,,,,2,1589.8251286424857,1590.8258767640618,1,1590.8258767640618,X,d,go,None,0,1591.626851697867,,,,,,,,,,,,,,,,,10,001,21,m,Bsc. Psychologie 100%,2023-01-09_14h07.27.419,00_bat_bachelor,2022.2.4,60.03909456626929,
,,,,0,0,0,0,3,0,3,0,,,,,,,,,,,,,,,3,1592.227038170684,1593.2277596255808,1,1593.2277596255808,X,None,nogo,None,1,1594.0283452258627,,,,,,,,,,,,,,,,,10,001,21,m,Bsc. Psychologie 100%,2023-01-09_14h07.27.419,00_bat_bachelor,2022.2.4,60.03909456626929,
,,,,0,0,0,0,4,0,4,0,,,,,,,,,,,,,,,4,1594.628767335158,1595.6298533962909,1,1595.6298533962909,Y,l,go,None,0,1596.4301926934277,,,,,,,,,,,,,,,,,10,001,21,m,Bsc. Psychologie 100%,2023-01-09_14h07.27.419,00_bat_bachelor,2022.2.4,60.03909456626929,
,,,,0,0,0,0,5,0,5,0,,,,,,,,,,,,,,,5,1597.0308164997878,1598.0313784394566,1,1598.0313784394566,X,d,go,None,0,1598.8321405246752,,,,,,,,,,,,,,,,,10,001,21,m,Bsc. Psychologie 100%,2023-01-09_14h07.27.419,00_bat_bachelor,2022.2.4,60.03909456626929,
,,,,0,0,0,0,6,0,6,0,,,,,,,,,,,,,,,6,1599.4326135430856,1600.433270513102,1,1600.433270513102,Y,l,go,None,0,1601.2337799921333,,,,,,,,,,,,,,,,,10,001,21,m,Bsc. Psychologie 100%,2023-01-09_14h07.27.419,00_bat_bachelor,2022.2.4,60.03909456626929,
,,,,0,0,0,0,7,0,7,0,,,,,,,,,,,,,,,7,1601.8346341016404,1602.8349109502597,1,1602.8349109502597,X,d,go,None,0,,,,,,,,,,,,,,,,,,10,001,21,m,Bsc. Psychologie 100%,2023-01-09_14h07.27.419,00_bat_bachelor,2022.2.4,60.03909456626929,
,,,,0,0,0,0,8,0,8,0,,,,,,,,,,,,,,,8,1604.2358018112973,1605.236648842012,1,1605.236648842012,X,None,nogo,None,1,1606.0371898362137,,,,,,,,,,,,,,,,,10,001,21,m,Bsc. Psychologie 100%,2023-01-09_14h07.27.419,00_bat_bachelor,2022.2.4,60.03909456626929,
,,,,0,0,0,0,9,0,9,0,,,,,,,,,,,,,,,9,1606.6374097635926,1607.6383314610102,1,1607.6383314610102,Y,l,go,None,0,,,,,,,,,,,,,,,,,,10,001,21,m,Bsc. Psychologie 100%,2023-01-09_14h07.27.419,00_bat_bachelor,2022.2.4,60.03909456626929,
,,,,0,0,0,0,10,0,10,0,,,,,,,,,,,,,,,10,1609.0393842615194,1610.0399234132965,1,1610.0399234132965,X,d,go,None,0,1610.8406374984916,,,,,,,,,,,,,,,,,10,001,21,m,Bsc. Psychologie 100%,2023-01-09_14h07.27.419,00_bat_bachelor,2022.2.4,60.03909456626929,
,,,,0,0,0,0,11,0,11,0,,,,,,,,,,,,,,,11,1611.4413097897268,1612.441872699088,1,1612.441872699088,X,None,nogo,d,0,,0.15083695935027208,,,,,,,,,,,,,,,,10,001,21,m,Bsc. Psychologie 100%,2023-01-09_14h07.27.419,00_bat_bachelor,2022.2.4,60.03909456626929,
,,,,0,0,0,0,12,0,12,0,,,,,,,,,,,,,,,12,1613.709403980316,1614.7104706475002,1,1614.7104706475002,Y,l,go,d,0,,0.1867264312968473,,,,,,,,,,,,,,,,10,001,21,m,Bsc. Psychologie 100%,2023-01-09_14h07.27.419,00_bat_bachelor,2022.2.4,60.03909456626929,
,,,,0,0,0,0,13,0,13,0,,,,,,,,,,,,,,,13,1615.6111290235785,1616.611871811816,1,1616.611871811816,X,d,go,d,1,,0.44621795105194906,,,,,,,,,,,,,,,,10,001,21,m,Bsc. Psychologie 100%,2023-01-09_14h07.27.419,00_bat_bachelor,2022.2.4,60.03909456626929,
,,,,0,0,0,0,14,0,14,0,,,,,,,,,,,,,,,14,1617.762469218167,1618.7632154003477,1,1618.7632154003477,X,None,nogo,d,0,,0.35793087794081657,,,,,,,,,,,,,,,,10,001,21,m,Bsc. Psychologie 100%,2023-01-09_14h07.27.419,00_bat_bachelor,2022.2.4,60.03909456626929,
,,,,1,0,1,0,0,0,0,0,,,,,,,,,,,,,,,0,1658.1271884253038,1658.3271793101485,0.2,1658.3271793101485,X,d,go,d,1,,0.345594871960202,1620.2657363712642,j,37.835150503258774,,,,,,,,,,,,,10,001,21,m,Bsc. Psychologie 100%,2023-01-09_14h07.27.419,00_bat_bachelor,2022.2.4,60.03909456626929,
,,,,1,0,1,0,1,0,1,0,,,,,,,,,,,,,,,1,1659.377869274118,1659.5779707044712,0.2,1659.5779707044712,Y,l,go,l,1,,0.3112384916676092,,,,,,,,,,,,,,,,10,001,21,m,Bsc. Psychologie 100%,2023-01-09_14h07.27.419,00_bat_bachelor,2022.2.4,60.03909456626929,
,,,,1,0,1,0,2,0,2,0,,,,,,,,,,,,,,,2,1660.5954320462697,1660.7957085070084,0.2,1660.7957085070084,X,d,go,d,1,,0.1650919965650246,,,,,,,,,,,,,,,,10,001,21,m,Bsc. Psychologie 100%,2023-01-09_14h07.27.419,00_bat_bachelor,2022.2.4,60.03909456626929,
,,,,1,0,1,0,3,0,3,0,,,,,,,,,,,,,,,3,1661.663114988176,1661.863064176032,0.2,1661.863064176032,Y,l,go,l,1,,0.16978727156674722,,,,,,,,,,,,,,,,10,001,21,m,Bsc. Psychologie 100%,2023-01-09_14h07.27.419,00_bat_bachelor,2022.2.4,60.03909456626929,
,,,,1,0,1,0,4,0,4,0,,,,,,,,,,,,,,,4,1662.7472469077547,1662.9472198531985,0.2,1662.9472198531985,X,d,go,d,1,,0.20629298624044168,,,,,,,,,,,,,,,,10,001,21,m,Bsc. Psychologie 100%,2023-01-09_14h07.27.419,00_bat_bachelor,2022.2.4,60.03909456626929,
,,,,1,0,1,0,5,0,5,0,,,,,,,,,,,,,,,5,1663.8648479344702,1664.0649382133015,0.2,1664.0649382133015,X,None,nogo,l,0,,0.20878316926246043,,,,,,,,,,,,,,,,10,001,21,m,Bsc. Psychologie 100%,2023-01-09_14h07.27.419,00_bat_bachelor,2022.2.4,60.03909456626929,
,,,,1,0,1,0,6,0,6,0,,,,,,,,,,,,,,,6,1665.3823555793242,1665.5826514340115,0.2,1665.5826514340115,Y,l,go,l,1,,0.5943775380364968,,,,,,,,,,,,,,,,10,001,21,m,Bsc. Psychologie 100%,2023-01-09_14h07.27.419,00_bat_bachelor,2022.2.4,60.03909456626929,
,,,,1,0,1,0,7,0,7,0,,,,,,,,,,,,,,,7,1666.8835349738329,1667.0836916769404,0.2,1667.0836916769404,X,d,go,d,1,,0.32486952858016593,,,,,,,,,,,,,,,,10,001,21,m,Bsc. Psychologie 100%,2023-01-09_14h07.27.419,00_bat_bachelor,2022.2.4,60.03909456626929,
,,,,1,0,1,0,8,0,8,0,,,,,,,,,,,,,,,8,1668.1178216328808,1668.3180205178287,0.2,1668.3180205178287,Y,l,go,l,1,,0.3064176408443018,,,,,,,,,,,,,,,,10,001,21,m,Bsc. Psychologie 100%,2023-01-09_14h07.27.419,00_bat_bachelor,2022.2.4,60.03909456626929,
,,,,1,0,1,0,9,0,9,0,,,,,,,,,,,,,,,9,1669.335477495988,1669.5353006231744,0.2,1669.5353006231744,X,d,go,d,1,,0.241859064091841,,,,,,,,,,,,,,,,10,001,21,m,Bsc. Psychologie 100%,2023-01-09_14h07.27.419,00_bat_bachelor,2022.2.4,60.03909456626929,
,,,,1,0,1,0,10,0,10,0,,,,,,,,,,,,,,,10,1670.4863464176233,1670.6865031207271,0.2,1670.6865031207271,Y,l,go,l,1,,0.5480613943655044,,,,,,,,,,,,,,,,10,001,21,m,Bsc. Psychologie 100%,2023-01-09_14h07.27.419,00_bat_bachelor,2022.2.4,60.03909456626929,
,,,,1,0,1,0,11,0,11,0,,,,,,,,,,,,,,,11,1671.9374937878747,1672.1373823696376,0.2,1672.1373823696376,X,d,go,d,1,,0.3127274620856042,,,,,,,,,,,,,,,,10,001,21,m,Bsc. Psychologie 100%,2023-01-09_14h07.27.419,00_bat_bachelor,2022.2.4,60.03909456626929,
,,,,1,0,1,0,12,0,12,0,,,,,,,,,,,,,,,12,1673.1550958327716,1673.355060535785,0.2,1673.355060535785,X,None,nogo,None,1,,,,,,,,,,,,,,,,,,10,001,21,m,Bsc. Psychologie 100%,2023-01-09_14h07.27.419,00_bat_bachelor,2022.2.4,60.03909456626929,
,,,,1,0,1,0,13,0,13,0,,,,,,,,,,,,,,,13,1674.756260730308,1674.956387857641,0.2,1674.956387857641,Y,l,go,l,1,,0.43643709782190854,,,,,,,,,,,,,,,,10,001,21,m,Bsc. Psychologie 100%,2023-01-09_14h07.27.419,00_bat_bachelor,2022.2.4,60.03909456626929,
,,,,1,0,1,0,14,0,14,0,,,,,,,,,,,,,,,14,1676.107280536864,1676.3074808763522,0.2,1676.3074808763522,X,d,go,d,1,,0.23758754686423345,,,,,,,,,,,,,,,,10,001,21,m,Bsc. Psychologie 100%,2023-01-09_14h07.27.419,00_bat_bachelor,2022.2.4,60.03909456626929,
,,,,,,,,,,,,,,,,,,,,,,,,,,,,,,,,,,,,,,1677.288034079047,None,,1677.288034079047,1677.288034079047,space,14.683957702683983,,,,,,,,,10,001,21,m,Bsc. Psychologie 100%,2023-01-09_14h07.27.419,00_bat_bachelor,2022.2.4,60.03909456626929,
,,,,,,,,,,,,0,0,0,0,0,0,0,0,,,,,,,0,,,1,1693.003466183498,X,d,go,d,1,,0.3899134389030223,,,,,,,,,,,,,,,,10,001,21,m,Bsc. Psychologie 100%,2023-01-09_14h07.27.419,00_bat_bachelor,2022.2.4,60.03909456626929,
,,,,,,,,,,,,0,0,0,0,1,0,1,0,,,,,,,1,,,1,1694.5046160022357,Y,l,go,l,1,,0.3929359858229873,,,,,,,,,,,,,,,,10,001,21,m,Bsc. Psychologie 100%,2023-01-09_14h07.27.419,00_bat_bachelor,2022.2.4,60.03909456626929,
,,,,,,,,,,,,0,0,0,0,2,0,2,0,,,,,,,2,,,1,1696.0056804876003,X,d,go,d,1,,0.37948482778665493,,,,,,,,,,,,,,,,10,001,21,m,Bsc. Psychologie 100%,2023-01-09_14h07.27.419,00_bat_bachelor,2022.2.4,60.03909456626929,
,,,,,,,,,,,,0,0,0,0,3,0,3,0,,,,,,,3,,,1,1697.4902770861954,Y,l,go,l,1,,0.54373266499897,,,,,,,,,,,,,,,,10,001,21,m,Bsc. Psychologie 100%,2023-01-09_14h07.27.419,00_bat_bachelor,2022.2.4,60.03909456626929,
,,,,,,,,,,,,0,0,0,0,4,0,4,0,,,,,,,4,,,1,1699.141554008027,Y,None,nogo,d,0,,0.42903345786908176,,,,,,,,,,,,,,,,10,001,21,m,Bsc. Psychologie 100%,2023-01-09_14h07.27.419,00_bat_bachelor,2022.2.4,60.03909456626929,
,,,,,,,,,,,,0,0,0,0,5,0,5,0,,,,,,,5,,,1,1700.6760526914186,X,d,go,d,1,,0.46239250434882706,,,,,,,,,,,,,,,,10,001,21,m,Bsc. Psychologie 100%,2023-01-09_14h07.27.419,00_bat_bachelor,2022.2.4,60.03909456626929,
,,,,,,,,,,,,0,0,0,0,6,0,6,0,,,,,,,6,,,1,1702.2438381788306,Y,l,go,l,1,,0.46143686752111535,,,,,,,,,,,,,,,,10,001,21,m,Bsc. Psychologie 100%,2023-01-09_14h07.27.419,00_bat_bachelor,2022.2.4,60.03909456626929,
,,,,,,,,,,,,0,0,0,0,7,0,7,0,,,,,,,7,,,1,1703.8117245147732,X,d,go,d,1,,0.3820419199364551,,,,,,,,,,,,,,,,10,001,21,m,Bsc. Psychologie 100%,2023-01-09_14h07.27.419,00_bat_bachelor,2022.2.4,60.03909456626929,
,,,,,,,,,,,,0,0,0,0,8,0,8,0,,,,,,,8,,,1,1705.296265355766,Y,l,go,l,1,,0.4482664368915721,,,,,,,,,,,,,,,,10,001,21,m,Bsc. Psychologie 100%,2023-01-09_14h07.27.419,00_bat_bachelor,2022.2.4,60.03909456626929,
,,,,,,,,,,,,0,0,0,0,9,0,9,0,,,,,,,9,,,1,1706.8473584714447,Y,None,nogo,d,0,,0.35382954261876876,,,,,,,,,,,,,,,,10,001,21,m,Bsc. Psychologie 100%,2023-01-09_14h07.27.419,00_bat_bachelor,2022.2.4,60.03909456626929,
,,,,,,,,,,,,0,0,0,0,10,0,10,0,,,,,,,10,,,1,1708.3150658497289,X,d,go,None,0,,,,,,,,,,,,,,,,,,10,001,21,m,Bsc. Psychologie 100%,2023-01-09_14h07.27.419,00_bat_bachelor,2022.2.4,60.03909456626929,
,,,,,,,,,,,,0,0,0,0,11,0,11,0,,,,,,,11,,,1,1710.1165033292127,Y,l,go,l,1,,0.36581548782487516,,,,,,,,,,,,,,,,10,001,21,m,Bsc. Psychologie 100%,2023-01-09_14h07.27.419,00_bat_bachelor,2022.2.4,60.03909456626929,
,,,,,,,,,,,,0,0,0,0,12,0,12,0,,,,,,,12,,,1,1711.584284889348,Y,None,nogo,None,1,,,,,,,,,,,,,,,,,,10,001,21,m,Bsc. Psychologie 100%,2023-01-09_14h07.27.419,00_bat_bachelor,2022.2.4,60.03909456626929,
,,,,,,,,,,,,0,0,0,0,13,0,13,0,,,,,,,13,,,1,1713.3862784903176,Y,None,nogo,l,0,,0.5664764335997461,,,,,,,,,,,,,,,,10,001,21,m,Bsc. Psychologie 100%,2023-01-09_14h07.27.419,00_bat_bachelor,2022.2.4,60.03909456626929,
,,,,,,,,,,,,0,0,0,0,14,0,14,0,,,,,,,14,,,1,1715.0874453757315,X,d,go,d,1,,0.6572149018356868,,,,,,,,,,,,,,,,10,001,21,m,Bsc. Psychologie 100%,2023-01-09_14h07.27.419,00_bat_bachelor,2022.2.4,60.03909456626929,
,,,,,,,,,,,,0,0,0,0,15,0,15,0,,,,,,,15,,,1,1716.8721468471012,Y,l,go,l,1,,0.35942857563713915,,,,,,,,,,,,,,,,10,001,21,m,Bsc. Psychologie 100%,2023-01-09_14h07.27.419,00_bat_bachelor,2022.2.4,60.03909456626929,
,,,,,,,,,,,,0,0,0,0,16,0,16,0,,,,,,,16,,,1,1718.3732990900826,X,d,go,d,1,,0.36400166876410367,,,,,,,,,,,,,,,,10,001,21,m,Bsc. Psychologie 100%,2023-01-09_14h07.27.419,00_bat_bachelor,2022.2.4,60.03909456626929,
,,,,,,,,,,,,0,0,0,0,17,0,17,0,,,,,,,17,,,1,1719.8577419916328,Y,l,go,l,1,,0.3347308666925528,,,,,,,,,,,,,,,,10,001,21,m,Bsc. Psychologie 100%,2023-01-09_14h07.27.419,00_bat_bachelor,2022.2.4,60.03909456626929,
,,,,,,,,,,,,0,0,0,0,18,0,18,0,,,,,,,18,,,1,1721.3258566428376,X,d,go,d,1,,0.24256597352359677,,,,,,,,,,,,,,,,10,001,21,m,Bsc. Psychologie 100%,2023-01-09_14h07.27.419,00_bat_bachelor,2022.2.4,60.03909456626929,
,,,,,,,,,,,,0,0,0,0,19,0,19,0,,,,,,,19,,,1,1722.6933002149344,Y,l,go,l,1,,0.31560891802655533,,,,,,,,,,,,,,,,10,001,21,m,Bsc. Psychologie 100%,2023-01-09_14h07.27.419,00_bat_bachelor,2022.2.4,60.03909456626929,
,,,,,,,,,,,,0,0,0,0,20,0,20,0,,,,,,,20,,,1,1724.1444485548818,Y,None,nogo,d,0,,0.24036427548344363,,,,,,,,,,,,,,,,10,001,21,m,Bsc. Psychologie 100%,2023-01-09_14h07.27.419,00_bat_bachelor,2022.2.4,60.03909456626929,
,,,,,,,,,,,,0,0,0,0,21,0,21,0,,,,,,,21,,,1,1725.5123226726391,X,d,go,d,1,,0.4562043801342952,,,,,,,,,,,,,,,,10,001,21,m,Bsc. Psychologie 100%,2023-01-09_14h07.27.419,00_bat_bachelor,2022.2.4,60.03909456626929,
,,,,,,,,,,,,0,0,0,0,22,0,22,0,,,,,,,22,,,1,1727.096612895326,Y,l,go,l,1,,0.1995453466042818,,,,,,,,,,,,,,,,10,001,21,m,Bsc. Psychologie 100%,2023-01-09_14h07.27.419,00_bat_bachelor,2022.2.4,60.03909456626929,
,,,,,,,,,,,,0,0,0,0,23,0,23,0,,,,,,,23,,,1,1728.4312579060643,Y,None,nogo,d,0,,0.20910704820926185,,,,,,,,,,,,,,,,10,001,21,m,Bsc. Psychologie 100%,2023-01-09_14h07.27.419,00_bat_bachelor,2022.2.4,60.03909456626929,
,,,,,,,,,,,,0,0,0,0,24,0,24,0,,,,,,,24,,,1,1729.7823223187006,X,d,go,d,1,,0.3944462895851757,,,,,,,,,,,,,,,,10,001,21,m,Bsc. Psychologie 100%,2023-01-09_14h07.27.419,00_bat_bachelor,2022.2.4,60.03909456626929,
,,,,,,,,,,,,0,0,0,0,25,0,25,0,,,,,,,25,,,1,1731.3001199030878,Y,l,go,l,1,,0.4925171250142739,,,,,,,,,,,,,,,,10,001,21,m,Bsc. Psychologie 100%,2023-01-09_14h07.27.419,00_bat_bachelor,2022.2.4,60.03909456626929,
,,,,,,,,,,,,0,0,0,0,26,0,26,0,,,,,,,26,,,1,1732.9178016571168,Y,None,nogo,None,1,1733.7187751363745,,,,,,,,,,,,,,,,,10,001,21,m,Bsc. Psychologie 100%,2023-01-09_14h07.27.419,00_bat_bachelor,2022.2.4,60.03909456626929,
,,,,,,,,,,,,0,0,0,0,27,0,27,0,,,,,,,27,,,1,1734.719329318461,X,d,go,d,1,,0.5132638017385034,,,,,,,,,,,,,,,,10,001,21,m,Bsc. Psychologie 100%,2023-01-09_14h07.27.419,00_bat_bachelor,2022.2.4,60.03909456626929,
,,,,,,,,,,,,0,0,0,0,28,0,28,0,,,,,,,28,,,1,1736.353663686623,Y,l,go,l,1,,0.41492726921569556,,,,,,,,,,,,,,,,10,001,21,m,Bsc. Psychologie 100%,2023-01-09_14h07.27.419,00_bat_bachelor,2022.2.4,60.03909456626929,
,,,,,,,,,,,,0,0,0,0,29,0,29,0,,,,,,,29,,,1,1737.8882045518549,X,d,go,d,1,,0.6561147800894105,,,,,,,,,,,,,,,,10,001,21,m,Bsc. Psychologie 100%,2023-01-09_14h07.27.419,00_bat_bachelor,2022.2.4,60.03909456626929,
,,,,,,,,,,,,0,0,0,0,30,0,30,0,,,,,,,30,,,1,1739.673118871815,Y,l,go,l,1,,0.37507561352686025,,,,,,,,,,,,,,,,10,001,21,m,Bsc. Psychologie 100%,2023-01-09_14h07.27.419,00_bat_bachelor,2022.2.4,60.03909456626929,
,,,,,,,,,,,,0,0,0,0,31,0,31,0,,,,,,,31,,,1,1741.190691001546,X,d,go,d,1,,0.5058528890549496,,,,,,,,,,,,,,,,10,001,21,m,Bsc. Psychologie 100%,2023-01-09_14h07.27.419,00_bat_bachelor,2022.2.4,60.03909456626929,
,,,,,,,,,,,,0,0,0,0,32,0,32,0,,,,,,,32,,,1,1742.825296400144,X,None,nogo,None,1,1743.625898970131,,,,,,,,,,,,,,,,,10,001,21,m,Bsc. Psychologie 100%,2023-01-09_14h07.27.419,00_bat_bachelor,2022.2.4,60.03909456626929,
,,,,,,,,,,,,0,0,0,0,33,0,33,0,,,,,,,33,,,1,1744.6268929100079,Y,l,go,l,1,,0.47812245136810816,,,,,,,,,,,,,,,,10,001,21,m,Bsc. Psychologie 100%,2023-01-09_14h07.27.419,00_bat_bachelor,2022.2.4,60.03909456626929,
,,,,,,,,,,,,0,0,0,0,34,0,34,0,,,,,,,34,,,1,1746.2281664136572,X,d,go,d,1,,0.41194399503729073,,,,,,,,,,,,,,,,10,001,21,m,Bsc. Psychologie 100%,2023-01-09_14h07.27.419,00_bat_bachelor,2022.2.4,60.03909456626929,
,,,,,,,,,,,,0,0,0,0,35,0,35,0,,,,,,,35,,,1,1747.7625749151885,Y,l,go,l,1,,0.3178135251546337,,,,,,,,,,,,,,,,10,001,21,m,Bsc. Psychologie 100%,2023-01-09_14h07.27.419,00_bat_bachelor,2022.2.4,60.03909456626929,
,,,,,,,,,,,,0,0,0,0,36,0,36,0,,,,,,,36,,,1,1749.2136689520812,Y,None,nogo,d,0,,0.17872351832556888,,,,,,,,,,,,,,,,10,001,21,m,Bsc. Psychologie 100%,2023-01-09_14h07.27.419,00_bat_bachelor,2022.2.4,60.03909456626929,
,,,,,,,,,,,,0,0,0,0,37,0,37,0,,,,,,,37,,,1,1750.5147498253318,X,d,go,d,1,,0.4295100641611498,,,,,,,,,,,,,,,,10,001,21,m,Bsc. Psychologie 100%,2023-01-09_14h07.27.419,00_bat_bachelor,2022.2.4,60.03909456626929,
,,,,,,,,,,,,0,0,0,0,38,0,38,0,,,,,,,38,,,1,1752.0823549490196,Y,l,go,l,1,,0.509289496782003,,,,,,,,,,,,,,,,10,001,21,m,Bsc. Psychologie 100%,2023-01-09_14h07.27.419,00_bat_bachelor,2022.2.4,60.03909456626929,
,,,,,,,,,,,,0,0,0,0,39,0,39,0,,,,,,,39,,,1,1753.7333361131314,X,d,go,d,1,,0.5237821098671702,,,,,,,,,,,,,,,,10,001,21,m,Bsc. Psychologie 100%,2023-01-09_14h07.27.419,00_bat_bachelor,2022.2.4,60.03909456626929,
,,,,,,,,,,,,0,0,0,0,40,0,40,0,,,,,,,40,,,1,1755.3847919441396,Y,l,go,l,1,,0.26426392344001215,,,,,,,,,,,,,,,,10,001,21,m,Bsc. Psychologie 100%,2023-01-09_14h07.27.419,00_bat_bachelor,2022.2.4,60.03909456626929,
,,,,,,,,,,,,0,0,0,0,41,0,41,0,,,,,,,41,,,1,1756.7524730921068,Y,None,nogo,None,1,1757.5530940863464,,,,,,,,,,,,,,,,,10,001,21,m,Bsc. Psychologie 100%,2023-01-09_14h07.27.419,00_bat_bachelor,2022.2.4,60.03909456626929,
,,,,,,,,,,,,0,0,0,0,42,0,42,0,,,,,,,42,,,1,1758.553635662367,X,d,go,d,1,,0.4399391601255047,,,,,,,,,,,,,,,,10,001,21,m,Bsc. Psychologie 100%,2023-01-09_14h07.27.419,00_bat_bachelor,2022.2.4,60.03909456626929,
,,,,,,,,,,,,0,0,0,0,43,0,43,0,,,,,,,43,,,1,1760.1050216266776,Y,l,go,l,1,,0.31197982535741176,,,,,,,,,,,,,,,,10,001,21,m,Bsc. Psychologie 100%,2023-01-09_14h07.27.419,00_bat_bachelor,2022.2.4,60.03909456626929,
,,,,,,,,,,,,0,0,0,0,44,0,44,0,,,,,,,44,,,1,1761.5225631624526,X,d,go,d,1,,0.47835954239417333,,,,,,,,,,,,,,,,10,001,21,m,Bsc. Psychologie 100%,2023-01-09_14h07.27.419,00_bat_bachelor,2022.2.4,60.03909456626929,
,,,,,,,,,,,,0,0,0,0,45,0,45,0,,,,,,,45,,,1,1763.107127809515,Y,l,go,l,1,,0.3173180097655859,,,,,,,,,,,,,,,,10,001,21,m,Bsc. Psychologie 100%,2023-01-09_14h07.27.419,00_bat_bachelor,2022.2.4,60.03909456626929,
,,,,,,,,,,,,0,0,0,0,46,0,46,0,,,,,,,46,,,1,1764.5248521332614,X,d,go,d,1,,0.4684875376042328,,,,,,,,,,,,,,,,10,001,21,m,Bsc. Psychologie 100%,2023-01-09_14h07.27.419,00_bat_bachelor,2022.2.4,60.03909456626929,
,,,,,,,,,,,,0,0,0,0,47,0,47,0,,,,,,,47,,,1,1766.1095952046526,X,None,nogo,l,0,,0.194227525844326,,,,,,,,,,,,,,,,10,001,21,m,Bsc. Psychologie 100%,2023-01-09_14h07.27.419,00_bat_bachelor,2022.2.4,60.03909456626929,
,,,,,,,,,,,,0,0,0,0,48,0,48,0,,,,,,,48,,,1,1767.4270988737444,X,None,nogo,d,0,,0.26930925921624294,,,,,,,,,,,,,,,,10,001,21,m,Bsc. Psychologie 100%,2023-01-09_14h07.27.419,00_bat_bachelor,2022.2.4,60.03909456626929,
,,,,,,,,,,,,0,0,0,0,49,0,49,0,,,,,,,49,,,1,1768.811479181324,Y,l,go,l,1,,0.2618547101446893,,,,,,,,,,,,,,,,10,001,21,m,Bsc. Psychologie 100%,2023-01-09_14h07.27.419,00_bat_bachelor,2022.2.4,60.03909456626929,
,,,,,,,,,,,,0,0,0,0,50,0,50,0,,,,,,,50,,,1,1770.179402753649,X,d,go,d,1,,0.301311214127054,,,,,,,,,,,,,,,,10,001,21,m,Bsc. Psychologie 100%,2023-01-09_14h07.27.419,00_bat_bachelor,2022.2.4,60.03909456626929,
,,,,,,,,,,,,0,0,0,0,51,0,51,0,,,,,,,51,,,1,1771.5969496227626,Y,l,go,l,1,,0.18037830700995983,,,,,,,,,,,,,,,,10,001,21,m,Bsc. Psychologie 100%,2023-01-09_14h07.27.419,00_bat_bachelor,2022.2.4,60.03909456626929,
,,,,,,,,,,,,0,0,0,0,52,0,52,0,,,,,,,52,,,1,1772.881101518109,X,d,go,d,1,,0.2562144649855327,,,,,,,,,,,,,,,,10,001,21,m,Bsc. Psychologie 100%,2023-01-09_14h07.27.419,00_bat_bachelor,2022.2.4,60.03909456626929,
,,,,,,,,,,,,0,0,0,0,53,0,53,0,,,,,,,53,,,1,1774.2485276356492,Y,l,go,l,1,,0.2320951805668301,,,,,,,,,,,,,,,,10,001,21,m,Bsc. Psychologie 100%,2023-01-09_14h07.27.419,00_bat_bachelor,2022.2.4,60.03909456626929,
,,,,,,,,,,,,0,0,0,0,54,0,54,0,,,,,,,54,,,1,1775.5832172524679,X,d,go,d,1,,0.3075003080375609,,,,,,,,,,,,,,,,10,001,21,m,Bsc. Psychologie 100%,2023-01-09_14h07.27.419,00_bat_bachelor,2022.2.4,60.03909456626929,
,,,,,,,,,,,,0,0,0,0,55,0,55,0,,,,,,,55,,,1,1777.0009076368042,Y,l,go,l,1,,0.4725389335108048,,,,,,,,,,,,,,,,10,001,21,m,Bsc. Psychologie 100%,2023-01-09_14h07.27.419,00_bat_bachelor,2022.2.4,60.03909456626929,
,,,,,,,,,,,,0,0,0,0,56,0,56,0,,,,,,,56,,,1,1778.585323435309,X,d,go,d,1,,0.4553806221592822,,,,,,,,,,,,,,,,10,001,21,m,Bsc. Psychologie 100%,2023-01-09_14h07.27.419,00_bat_bachelor,2022.2.4,60.03909456626929,
,,,,,,,,,,,,0,0,0,0,57,0,57,0,,,,,,,57,,,1,1780.1537784987995,Y,l,go,l,1,,0.43804679557069903,,,,,,,,,,,,,,,,10,001,21,m,Bsc. Psychologie 100%,2023-01-09_14h07.27.419,00_bat_bachelor,2022.2.4,60.03909456626929,
,,,,,,,,,,,,0,0,0,0,58,0,58,0,,,,,,,58,,,1,1781.7216168347222,X,d,go,d,1,,0.3423885673764744,,,,,,,,,,,,,,,,10,001,21,m,Bsc. Psychologie 100%,2023-01-09_14h07.27.419,00_bat_bachelor,2022.2.4,60.03909456626929,
,,,,,,,,,,,,0,0,0,0,59,0,59,0,,,,,,,59,,,1,1783.1894677282253,X,None,nogo,l,0,,0.2669718035394908,,,,,,,,,,,,,,,,10,001,21,m,Bsc. Psychologie 100%,2023-01-09_14h07.27.419,00_bat_bachelor,2022.2.4,60.03909456626929,
,,,,,,,,,,,,0,0,0,0,60,0,60,0,,,,,,,60,,,1,1784.5740642783348,Y,l,go,None,0,1785.37484624235,,,,,,,,,,,,,,,,,10,001,21,m,Bsc. Psychologie 100%,2023-01-09_14h07.27.419,00_bat_bachelor,2022.2.4,60.03909456626929,
,,,,,,,,,,,,0,0,0,0,61,0,61,0,,,,,,,61,,,1,1786.3751676970496,X,d,go,d,1,,0.42495975892597926,,,,,,,,,,,,,,,,10,001,21,m,Bsc. Psychologie 100%,2023-01-09_14h07.27.419,00_bat_bachelor,2022.2.4,60.03909456626929,
,,,,,,,,,,,,0,0,0,0,62,0,62,0,,,,,,,62,,,1,1787.9265871159187,Y,l,go,l,1,,0.20163359004072845,,,,,,,,,,,,,,,,10,001,21,m,Bsc. Psychologie 100%,2023-01-09_14h07.27.419,00_bat_bachelor,2022.2.4,60.03909456626929,
,,,,,,,,,,,,0,0,0,0,63,0,63,0,,,,,,,63,,,1,1789.2609751568343,Y,None,nogo,l,0,,0.4996502193826018,,,,,,,,,,,,,,,,10,001,21,m,Bsc. Psychologie 100%,2023-01-09_14h07.27.419,00_bat_bachelor,2022.2.4,60.03909456626929,
,,,,,,,,,,,,0,0,0,0,64,0,64,0,,,,,,,64,,,1,1790.8788227291261,X,d,go,d,1,,0.3861917401300161,,,,,,,,,,,,,,,,10,001,21,m,Bsc. Psychologie 100%,2023-01-09_14h07.27.419,00_bat_bachelor,2022.2.4,60.03909456626929,
,,,,,,,,,,,,0,0,0,0,65,0,65,0,,,,,,,65,,,1,1792.3967429802397,Y,l,go,l,1,,0.29238563403851003,,,,,,,,,,,,,,,,10,001,21,m,Bsc. Psychologie 100%,2023-01-09_14h07.27.419,00_bat_bachelor,2022.2.4,60.03909456626929,
,,,,,,,,,,,,0,0,0,0,66,0,66,0,,,,,,,66,,,1,1793.797517477582,Y,None,nogo,None,1,1794.5985287750445,,,,,,,,,,,,,,,,,10,001,21,m,Bsc. Psychologie 100%,2023-01-09_14h07.27.419,00_bat_bachelor,2022.2.4,60.03909456626929,
,,,,,,,,,,,,0,0,0,0,67,0,67,0,,,,,,,67,,,1,1795.599145987464,X,d,go,d,1,,0.4180957555981877,,,,,,,,,,,,,,,,10,001,21,m,Bsc. Psychologie 100%,2023-01-09_14h07.27.419,00_bat_bachelor,2022.2.4,60.03909456626929,
,,,,,,,,,,,,0,0,0,0,68,0,68,0,,,,,,,68,,,1,1797.1335806708266,Y,l,go,l,1,,0.38710228602576535,,,,,,,,,,,,,,,,10,001,21,m,Bsc. Psychologie 100%,2023-01-09_14h07.27.419,00_bat_bachelor,2022.2.4,60.03909456626929,
,,,,,,,,,,,,0,0,0,0,69,0,69,0,,,,,,,69,,,1,1798.651184800572,X,d,go,d,1,,0.4061602346591826,,,,,,,,,,,,,,,,10,001,21,m,Bsc. Psychologie 100%,2023-01-09_14h07.27.419,00_bat_bachelor,2022.2.4,60.03909456626929,
,,,,,,,,,,,,0,0,0,0,70,0,70,0,,,,,,,70,,,1,1800.1691278395774,X,None,nogo,None,1,1800.9695660458492,,,,,,,,,,,,,,,,,10,001,21,m,Bsc. Psychologie 100%,2023-01-09_14h07.27.419,00_bat_bachelor,2022.2.4,60.03909456626929,
,,,,,,,,,,,,0,0,0,0,71,0,71,0,,,,,,,71,,,1,1801.970321440156,Y,l,go,l,1,,0.5110305885355046,,,,,,,,,,,,,,,,10,001,21,m,Bsc. Psychologie 100%,2023-01-09_14h07.27.419,00_bat_bachelor,2022.2.4,60.03909456626929,
,,,,,,,,,,,,0,0,0,0,72,0,72,0,,,,,,,72,,,1,1803.588062830575,X,d,go,d,1,,0.3167967973931809,,,,,,,,,,,,,,,,10,001,21,m,Bsc. Psychologie 100%,2023-01-09_14h07.27.419,00_bat_bachelor,2022.2.4,60.03909456626929,
,,,,,,,,,,,,0,0,0,0,73,0,73,0,,,,,,,73,,,1,1805.0060528514186,Y,l,go,None,0,1805.806589966829,,,,,,,,,,,,,,,,,10,001,21,m,Bsc. Psychologie 100%,2023-01-09_14h07.27.419,00_bat_bachelor,2022.2.4,60.03909456626929,
,,,,,,,,,,,,0,0,0,0,74,0,74,0,,,,,,,74,,,1,1806.8076420885518,X,d,go,d,1,,0.4421898278851586,,,,,,,,,,,,,,,,10,001,21,m,Bsc. Psychologie 100%,2023-01-09_14h07.27.419,00_bat_bachelor,2022.2.4,60.03909456626929,
,,,,,,,,,,,,0,0,0,0,75,0,75,0,,,,,,,75,,,1,1808.3583778707289,X,None,nogo,l,0,,0.28285835669521475,,,,,,,,,,,,,,,,10,001,21,m,Bsc. Psychologie 100%,2023-01-09_14h07.27.419,00_bat_bachelor,2022.2.4,60.03909456626929,
,,,,,,,,,,,,0,0,0,0,76,0,76,0,,,,,,,76,,,1,1809.7429686026517,Y,l,go,None,0,1810.5435925059828,,,,,,,,,,,,,,,,,10,001,21,m,Bsc. Psychologie 100%,2023-01-09_14h07.27.419,00_bat_bachelor,2022.2.4,60.03909456626929,
,,,,,,,,,,,,0,0,0,0,77,0,77,0,,,,,,,77,,,1,1811.5442533547903,X,d,go,d,1,,0.5036943425548088,,,,,,,,,,,,,,,,10,001,21,m,Bsc. Psychologie 100%,2023-01-09_14h07.27.419,00_bat_bachelor,2022.2.4,60.03909456626929,
,,,,,,,,,,,,0,0,0,0,78,0,78,0,,,,,,,78,,,1,1813.1789974201201,Y,l,go,l,1,,0.6461734419390268,,,,,,,,,,,,,,,,10,001,21,m,Bsc. Psychologie 100%,2023-01-09_14h07.27.419,00_bat_bachelor,2022.2.4,60.03909456626929,
,,,,,,,,,,,,0,0,0,0,79,0,79,0,,,,,,,79,,,1,1814.930236087388,Y,None,nogo,None,1,1815.7306388997022,,,,,,,,,,,,,,,,,10,001,21,m,Bsc. Psychologie 100%,2023-01-09_14h07.27.419,00_bat_bachelor,2022.2.4,60.03909456626929,
,,,,,,,,,,,,0,0,0,0,80,0,80,0,,,,,,,80,,,1,1816.731343869742,Y,None,nogo,None,1,,,,,,,,,,,,,,,,,,10,001,21,m,Bsc. Psychologie 100%,2023-01-09_14h07.27.419,00_bat_bachelor,2022.2.4,60.03909456626929,
,,,,,,,,,,,,0,0,0,0,81,0,81,0,,,,,,,81,,,1,1818.5327629249769,X,d,go,d,1,,0.31691073684123694,,,,,,,,,,,,,,,,10,001,21,m,Bsc. Psychologie 100%,2023-01-09_14h07.27.419,00_bat_bachelor,2022.2.4,60.03909456626929,
,,,,,,,,,,,,0,0,0,0,82,0,82,0,,,,,,,82,,,1,1819.950517309342,Y,l,go,l,1,,0.2753868379186315,,,,,,,,,,,,,,,,10,001,21,m,Bsc. Psychologie 100%,2023-01-09_14h07.27.419,00_bat_bachelor,2022.2.4,60.03909456626929,
,,,,,,,,,,,,0,0,0,0,83,0,83,0,,,,,,,83,,,1,1821.334704647128,X,d,go,d,1,,0.31512552385174786,,,,,,,,,,,,,,,,10,001,21,m,Bsc. Psychologie 100%,2023-01-09_14h07.27.419,00_bat_bachelor,2022.2.4,60.03909456626929,
,,,,,,,,,,,,0,0,0,0,84,0,84,0,,,,,,,84,,,1,1822.7524420617883,Y,l,go,l,1,,0.20914341186289676,,,,,,,,,,,,,,,,10,001,21,m,Bsc. Psychologie 100%,2023-01-09_14h07.27.419,00_bat_bachelor,2022.2.4,60.03909456626929,
,,,,,,,,,,,,0,0,0,0,85,0,85,0,,,,,,,85,,,1,1824.070302094693,Y,None,nogo,d,0,,0.33088019816204906,,,,,,,,,,,,,,,,10,001,21,m,Bsc. Psychologie 100%,2023-01-09_14h07.27.419,00_bat_bachelor,2022.2.4,60.03909456626929,
,,,,,,,,,,,,0,0,0,0,86,0,86,0,,,,,,,86,,,1,1825.5046892143946,Y,None,nogo,None,1,1826.3053703298756,,,,,,,,,,,,,,,,,10,001,21,m,Bsc. Psychologie 100%,2023-01-09_14h07.27.419,00_bat_bachelor,2022.2.4,60.03909456626929,
,,,,,,,,,,,,0,0,0,0,87,0,87,0,,,,,,,87,,,1,1827.3059007543743,X,d,go,d,1,,0.48681724346170085,,,,,,,,,,,,,,,,10,001,21,m,Bsc. Psychologie 100%,2023-01-09_14h07.27.419,00_bat_bachelor,2022.2.4,60.03909456626929,
,,,,,,,,,,,,0,0,0,0,88,0,88,0,,,,,,,88,,,1,1828.9073371671948,Y,l,go,l,1,,0.46989456859228085,,,,,,,,,,,,,,,,10,001,21,m,Bsc. Psychologie 100%,2023-01-09_14h07.27.419,00_bat_bachelor,2022.2.4,60.03909456626929,
,,,,,,,,,,,,0,0,0,0,89,0,89,0,,,,,,,89,,,1,1830.4918877536402,X,d,go,d,1,,0.32573158960440196,,,,,,,,,,,,,,,,10,001,21,m,Bsc. Psychologie 100%,2023-01-09_14h07.27.419,00_bat_bachelor,2022.2.4,60.03909456626929,
,,,,,,,,,,,,0,0,0,0,90,0,90,0,,,,,,,90,,,1,1831.9262991157811,Y,l,go,l,1,,0.2188263256502978,,,,,,,,,,,,,,,,10,001,21,m,Bsc. Psychologie 100%,2023-01-09_14h07.27.419,00_bat_bachelor,2022.2.4,60.03909456626929,
,,,,,,,,,,,,0,0,0,0,91,0,91,0,,,,,,,91,,,1,1833.2601649746248,X,d,go,d,1,,0.2929577555296419,,,,,,,,,,,,,,,,10,001,21,m,Bsc. Psychologie 100%,2023-01-09_14h07.27.419,00_bat_bachelor,2022.2.4,60.03909456626929,
,,,,,,,,,,,,0,0,0,0,92,0,92,0,,,,,,,92,,,1,1834.661471835865,Y,l,go,l,1,,0.28330829630431253,,,,,,,,,,,,,,,,10,001,21,m,Bsc. Psychologie 100%,2023-01-09_14h07.27.419,00_bat_bachelor,2022.2.4,60.03909456626929,
,,,,,,,,,,,,0,0,0,0,93,0,93,0,,,,,,,93,,,1,1836.045625719089,Y,None,nogo,None,1,,,,,,,,,,,,,,,,,,10,001,21,m,Bsc. Psychologie 100%,2023-01-09_14h07.27.419,00_bat_bachelor,2022.2.4,60.03909456626929,
,,,,,,,,,,,,0,0,0,0,94,0,94,0,,,,,,,94,,,1,1837.8470239258277,X,d,go,None,0,,,,,,,,,,,,,,,,,,10,001,21,m,Bsc. Psychologie 100%,2023-01-09_14h07.27.419,00_bat_bachelor,2022.2.4,60.03909456626929,
,,,,,,,,,,,,0,0,0,0,95,0,95,0,,,,,,,95,,,1,1839.6486567993488,Y,l,go,l,1,,0.33687050409207586,,,,,,,,,,,,,,,,10,001,21,m,Bsc. Psychologie 100%,2023-01-09_14h07.27.419,00_bat_bachelor,2022.2.4,60.03909456626929,
,,,,,,,,,,,,0,0,0,0,96,0,96,0,,,,,,,96,,,1,1841.100112048538,X,d,go,d,1,,0.2938920590131602,,,,,,,,,,,,,,,,10,001,21,m,Bsc. Psychologie 100%,2023-01-09_14h07.27.419,00_bat_bachelor,2022.2.4,60.03909456626929,
,,,,,,,,,,,,0,0,0,0,97,0,97,0,,,,,,,97,,,1,1842.5011619399556,X,None,nogo,d,0,,0.5083920418001071,,,,,,,,,,,,,,,,10,001,21,m,Bsc. Psychologie 100%,2023-01-09_14h07.27.419,00_bat_bachelor,2022.2.4,60.03909456626929,
,,,,,,,,,,,,0,0,0,0,98,0,98,0,,,,,,,98,,,1,1844.1188490273198,Y,l,go,l,1,,0.3138086747312627,,,,,,,,,,,,,,,,10,001,21,m,Bsc. Psychologie 100%,2023-01-09_14h07.27.419,00_bat_bachelor,2022.2.4,60.03909456626929,
,,,,,,,,,,,,0,0,0,0,99,0,99,0,,,,,,,99,,,1,1845.5364676540448,X,d,go,d,1,,0.35289087549972464,,,,,,,,,,,,,,,,10,001,21,m,Bsc. Psychologie 100%,2023-01-09_14h07.27.419,00_bat_bachelor,2022.2.4,60.03909456626929,
,,,,,,,,,,,,0,0,0,0,100,0,100,0,,,,,,,100,,,1,1847.0043044869344,Y,l,go,l,1,,0.2940147257395438,,,,,,,,,,,,,,,,10,001,21,m,Bsc. Psychologie 100%,2023-01-09_14h07.27.419,00_bat_bachelor,2022.2.4,60.03909456626929,
,,,,,,,,,,,,0,0,0,0,101,0,101,0,,,,,,,101,,,1,1848.4053306207643,X,d,go,d,1,,0.20383383352964302,,,,,,,,,,,,,,,,10,001,21,m,Bsc. Psychologie 100%,2023-01-09_14h07.27.419,00_bat_bachelor,2022.2.4,60.03909456626929,
,,,,,,,,,,,,0,0,0,0,102,0,102,0,,,,,,,102,,,1,1849.7230898051348,Y,l,go,l,1,,0.3109902491232788,,,,,,,,,,,,,,,,10,001,21,m,Bsc. Psychologie 100%,2023-01-09_14h07.27.419,00_bat_bachelor,2022.2.4,60.03909456626929,
,,,,,,,,,,,,0,0,0,0,103,0,103,0,,,,,,,103,,,1,1851.1407709773412,X,d,go,d,1,,0.3653461542671721,,,,,,,,,,,,,,,,10,001,21,m,Bsc. Psychologie 100%,2023-01-09_14h07.27.419,00_bat_bachelor,2022.2.4,60.03909456626929,
,,,,,,,,,,,,0,0,0,0,104,0,104,0,,,,,,,104,,,1,1852.6082592040038,X,None,nogo,l,0,,0.2724088970826415,,,,,,,,,,,,,,,,10,001,21,m,Bsc. Psychologie 100%,2023-01-09_14h07.27.419,00_bat_bachelor,2022.2.4,60.03909456626929,
,,,,,,,,,,,,0,0,0,0,105,0,105,0,,,,,,,105,,,1,1853.9929856935669,Y,l,go,None,0,,,,,,,,,,,,,,,,,,10,001,21,m,Bsc. Psychologie 100%,2023-01-09_14h07.27.419,00_bat_bachelor,2022.2.4,60.03909456626929,
,,,,,,,,,,,,0,0,0,0,106,0,106,0,,,,,,,106,,,1,1855.7943305669469,X,d,go,d,1,,0.4153059360651241,,,,,,,,,,,,,,,,10,001,21,m,Bsc. Psychologie 100%,2023-01-09_14h07.27.419,00_bat_bachelor,2022.2.4,60.03909456626929,
,,,,,,,,,,,,0,0,0,0,107,0,107,0,,,,,,,107,,,1,1857.31204960584,Y,l,go,l,1,,0.3687396104578511,,,,,,,,,,,,,,,,10,001,21,m,Bsc. Psychologie 100%,2023-01-09_14h07.27.419,00_bat_bachelor,2022.2.4,60.03909456626929,
,,,,,,,,,,,,0,0,0,0,108,0,108,0,,,,,,,108,,,1,1858.7970767500956,X,d,go,d,1,,0.46702426416959497,,,,,,,,,,,,,,,,10,001,21,m,Bsc. Psychologie 100%,2023-01-09_14h07.27.419,00_bat_bachelor,2022.2.4,60.03909456626929,
,,,,,,,,,,,,0,0,0,0,109,0,109,0,,,,,,,109,,,1,1860.3817228517437,Y,l,go,l,1,,0.3225015274292673,,,,,,,,,,,,,,,,10,001,21,m,Bsc. Psychologie 100%,2023-01-09_14h07.27.419,00_bat_bachelor,2022.2.4,60.03909456626929,
,,,,,,,,,,,,0,0,0,0,110,0,110,0,,,,,,,110,,,1,1861.832959919011,X,d,go,d,1,,0.27872405166272074,,,,,,,,,,,,,,,,10,001,21,m,Bsc. Psychologie 100%,2023-01-09_14h07.27.419,00_bat_bachelor,2022.2.4,60.03909456626929,
,,,,,,,,,,,,0,0,0,0,111,0,111,0,,,,,,,111,,,1,1863.2338473861055,X,None,nogo,l,0,,0.22323311566287884,,,,,,,,,,,,,,,,10,001,21,m,Bsc. Psychologie 100%,2023-01-09_14h07.27.419,00_bat_bachelor,2022.2.4,60.03909456626929,
,,,,,,,,,,,,0,0,0,0,112,0,112,0,,,,,,,112,,,1,1864.5681820936625,Y,l,go,l,1,,0.4890315475677198,,,,,,,,,,,,,,,,10,001,21,m,Bsc. Psychologie 100%,2023-01-09_14h07.27.419,00_bat_bachelor,2022.2.4,60.03909456626929,
,,,,,,,,,,,,0,0,0,0,113,0,113,0,,,,,,,113,,,1,1866.1693741427262,X,d,go,d,1,,0.19862413403825485,,,,,,,,,,,,,,,,10,001,21,m,Bsc. Psychologie 100%,2023-01-09_14h07.27.419,00_bat_bachelor,2022.2.4,60.03909456626929,
,,,,,,,,,,,,0,0,0,0,114,0,114,0,,,,,,,114,,,1,1867.487286054442,Y,l,go,l,1,,0.3368239586161508,,,,,,,,,,,,,,,,10,001,21,m,Bsc. Psychologie 100%,2023-01-09_14h07.27.419,00_bat_bachelor,2022.2.4,60.03909456626929,
,,,,,,,,,,,,0,0,0,0,115,0,115,0,,,,,,,115,,,1,1868.954790765958,X,d,go,d,1,,0.24499845955142519,,,,,,,,,,,,,,,,10,001,21,m,Bsc. Psychologie 100%,2023-01-09_14h07.27.419,00_bat_bachelor,2022.2.4,60.03909456626929,
,,,,,,,,,,,,0,0,0,0,116,0,116,0,,,,,,,116,,,1,1870.3226193079354,X,None,nogo,None,1,1871.1227210291981,,,,,,,,,,,,,,,,,10,001,21,m,Bsc. Psychologie 100%,2023-01-09_14h07.27.419,00_bat_bachelor,2022.2.4,60.03909456626929,
,,,,,,,,,,,,0,0,0,0,117,0,117,0,,,,,,,117,,,1,1872.1236679387475,Y,l,go,l,1,,0.4691983258271648,,,,,,,,,,,,,,,,10,001,21,m,Bsc. Psychologie 100%,2023-01-09_14h07.27.419,00_bat_bachelor,2022.2.4,60.03909456626929,
,,,,,,,,,,,,0,0,0,0,118,0,118,0,,,,,,,118,,,1,1873.7080439796555,X,d,go,d,1,,0.27740429344339645,,,,,,,,,,,,,,,,10,001,21,m,Bsc. Psychologie 100%,2023-01-09_14h07.27.419,00_bat_bachelor,2022.2.4,60.03909456626929,
,,,,,,,,,,,,0,0,0,0,119,0,119,0,,,,,,,119,,,1,1875.0923976205559,X,None,nogo,d,0,,0.38136749536352,,,,,,,,,,,,,,,,10,001,21,m,Bsc. Psychologie 100%,2023-01-09_14h07.27.419,00_bat_bachelor,2022.2.4,60.03909456626929,
,,,,,,,,,,,,0,0,0,0,120,0,120,0,,,,,,,120,,,1,1876.5768560372635,Y,l,go,l,1,,0.46422135371904005,,,,,,,,,,,,,,,,10,001,21,m,Bsc. Psychologie 100%,2023-01-09_14h07.27.419,00_bat_bachelor,2022.2.4,60.03909456626929,
,,,,,,,,,,,,0,0,0,0,121,0,121,0,,,,,,,121,,,1,1878.1443981306184,X,d,go,d,1,,0.5454495143130771,,,,,,,,,,,,,,,,10,001,21,m,Bsc. Psychologie 100%,2023-01-09_14h07.27.419,00_bat_bachelor,2022.2.4,60.03909456626929,
,,,,,,,,,,,,0,0,0,0,122,0,122,0,,,,,,,122,,,1,1879.796788749958,X,None,nogo,l,0,,0.365480942211434,,,,,,,,,,,,,,,,10,001,21,m,Bsc. Psychologie 100%,2023-01-09_14h07.27.419,00_bat_bachelor,2022.2.4,60.03909456626929,
,,,,,,,,,,,,0,0,0,0,123,0,123,0,,,,,,,123,,,1,1881.2643031584485,X,None,nogo,d,0,,0.41631005776071106,,,,,,,,,,,,,,,,10,001,21,m,Bsc. Psychologie 100%,2023-01-09_14h07.27.419,00_bat_bachelor,2022.2.4,60.03909456626929,
,,,,,,,,,,,,0,0,0,0,124,0,124,0,,,,,,,124,,,1,1882.798732993324,Y,l,go,l,1,,0.37036967185122194,,,,,,,,,,,,,,,,10,001,21,m,Bsc. Psychologie 100%,2023-01-09_14h07.27.419,00_bat_bachelor,2022.2.4,60.03909456626929,
,,,,,,,,,,,,0,0,0,0,125,0,125,0,,,,,,,125,,,1,1884.283411046501,X,d,go,d,1,,0.35755754443016485,,,,,,,,,,,,,,,,10,001,21,m,Bsc. Psychologie 100%,2023-01-09_14h07.27.419,00_bat_bachelor,2022.2.4,60.03909456626929,
,,,,,,,,,,,,0,0,0,0,126,0,126,0,,,,,,,126,,,1,1885.7846190470882,X,None,nogo,None,1,1886.5853835565504,,,,,,,,,,,,,,,,,10,001,21,m,Bsc. Psychologie 100%,2023-01-09_14h07.27.419,00_bat_bachelor,2022.2.4,60.03909456626929,
,,,,,,,,,,,,0,0,0,0,127,0,127,0,,,,,,,127,,,1,1887.5856948294277,Y,l,go,l,1,,0.3827478596685978,,,,,,,,,,,,,,,,10,001,21,m,Bsc. Psychologie 100%,2023-01-09_14h07.27.419,00_bat_bachelor,2022.2.4,60.03909456626929,
,,,,,,,,,,,,0,0,0,0,128,0,128,0,,,,,,,128,,,1,1889.0868591936269,X,d,go,d,1,,0.481770937985857,,,,,,,,,,,,,,,,10,001,21,m,Bsc. Psychologie 100%,2023-01-09_14h07.27.419,00_bat_bachelor,2022.2.4,60.03909456626929,
,,,,,,,,,,,,0,0,0,0,129,0,129,0,,,,,,,129,,,1,1890.6880623942125,Y,l,go,l,1,,0.4326712778165529,,,,,,,,,,,,,,,,10,001,21,m,Bsc. Psychologie 100%,2023-01-09_14h07.27.419,00_bat_bachelor,2022.2.4,60.03909456626929,
,,,,,,,,,,,,0,0,0,0,130,0,130,0,,,,,,,130,,,1,1892.222656592803,Y,None,nogo,d,0,,0.35353330005455064,,,,,,,,,,,,,,,,10,001,21,m,Bsc. Psychologie 100%,2023-01-09_14h07.27.419,00_bat_bachelor,2022.2.4,60.03909456626929,
,,,,,,,,,,,,0,0,0,0,131,0,131,0,,,,,,,131,,,1,1893.7239770782908,X,d,go,d,1,,0.4685622043070907,,,,,,,,,,,,,,,,10,001,21,m,Bsc. Psychologie 100%,2023-01-09_14h07.27.419,00_bat_bachelor,2022.2.4,60.03909456626929,
,,,,,,,,,,,,0,0,0,0,132,0,132,0,,,,,,,132,,,1,1895.324950460581,Y,l,go,l,1,,0.35581160418951185,,,,,,,,,,,,,,,,10,001,21,m,Bsc. Psychologie 100%,2023-01-09_14h07.27.419,00_bat_bachelor,2022.2.4,60.03909456626929,
,,,,,,,,,,,,0,0,0,0,133,0,133,0,,,,,,,133,,,1,1896.8096513016499,X,d,go,d,1,,0.35947415141708916,,,,,,,,,,,,,,,,10,001,21,m,Bsc. Psychologie 100%,2023-01-09_14h07.27.419,00_bat_bachelor,2022.2.4,60.03909456626929,
,,,,,,,,,,,,0,0,0,0,134,0,134,0,,,,,,,134,,,1,1898.2936379605526,X,None,nogo,None,1,,,,,,,,,,,,,,,,,,10,001,21,m,Bsc. Psychologie 100%,2023-01-09_14h07.27.419,00_bat_bachelor,2022.2.4,60.03909456626929,
,,,,,,,,,,,,0,0,0,0,135,0,135,0,,,,,,,135,,,1,1900.0954526523383,Y,l,go,l,1,,0.5142160446266644,,,,,,,,,,,,,,,,10,001,21,m,Bsc. Psychologie 100%,2023-01-09_14h07.27.419,00_bat_bachelor,2022.2.4,60.03909456626929,
,,,,,,,,,,,,0,0,0,0,136,0,136,0,,,,,,,136,,,1,1901.7130248305584,X,d,go,d,1,,0.49538064155422035,,,,,,,,,,,,,,,,10,001,21,m,Bsc. Psychologie 100%,2023-01-09_14h07.27.419,00_bat_bachelor,2022.2.4,60.03909456626929,
,,,,,,,,,,,,0,0,0,0,137,0,137,0,,,,,,,137,,,1,1903.314456394888,Y,l,go,l,1,,0.35049766221709433,,,,,,,,,,,,,,,,10,001,21,m,Bsc. Psychologie 100%,2023-01-09_14h07.27.419,00_bat_bachelor,2022.2.4,60.03909456626929,
,,,,,,,,,,,,0,0,0,0,138,0,138,0,,,,,,,138,,,1,1904.765396249888,X,d,go,d,1,,0.32386734627289115,,,,,,,,,,,,,,,,10,001,21,m,Bsc. Psychologie 100%,2023-01-09_14h07.27.419,00_bat_bachelor,2022.2.4,60.03909456626929,
,,,,,,,,,,,,0,0,0,0,139,0,139,0,,,,,,,139,,,1,1906.1999113696547,Y,l,go,l,1,,0.393052349514619,,,,,,,,,,,,,,,,10,001,21,m,Bsc. Psychologie 100%,2023-01-09_14h07.27.419,00_bat_bachelor,2022.2.4,60.03909456626929,
,,,,,,,,,,,,0,0,0,0,140,0,140,0,,,,,,,140,,,1,1907.7009016731645,Y,None,nogo,d,0,,0.30112454736809013,,,,,,,,,,,,,,,,10,001,21,m,Bsc. Psychologie 100%,2023-01-09_14h07.27.419,00_bat_bachelor,2022.2.4,60.03909456626929,
,,,,,,,,,,,,0,0,0,0,141,0,141,0,,,,,,,141,,,1,1909.1188383606495,X,d,go,d,1,,0.4665321427200979,,,,,,,,,,,,,,,,10,001,21,m,Bsc. Psychologie 100%,2023-01-09_14h07.27.419,00_bat_bachelor,2022.2.4,60.03909456626929,
,,,,,,,,,,,,0,0,0,0,142,0,142,0,,,,,,,142,,,1,1910.6865157267966,Y,l,go,l,1,,0.5786194697902829,,,,,,,,,,,,,,,,10,001,21,m,Bsc. Psychologie 100%,2023-01-09_14h07.27.419,00_bat_bachelor,2022.2.4,60.03909456626929,
,,,,,,,,,,,,0,0,0,0,143,0,143,0,,,,,,,143,,,1,1912.3713698770262,Y,None,nogo,None,1,1913.1719608106469,,,,,,,,,,,,,,,,,10,001,21,m,Bsc. Psychologie 100%,2023-01-09_14h07.27.419,00_bat_bachelor,2022.2.4,60.03909456626929,
,,,,,,,,,,,,0,0,0,0,144,0,144,0,,,,,,,144,,,1,1914.1727021443403,X,d,go,d,1,,0.3247551042804844,,,,,,,,,,,,,,,,10,001,21,m,Bsc. Psychologie 100%,2023-01-09_14h07.27.419,00_bat_bachelor,2022.2.4,60.03909456626929,
,,,,,,,,,,,,0,0,0,0,145,0,145,0,,,,,,,145,,,1,1915.607299203537,Y,l,go,l,1,,0.3616244554905279,,,,,,,,,,,,,,,,10,001,21,m,Bsc. Psychologie 100%,2023-01-09_14h07.27.419,00_bat_bachelor,2022.2.4,60.03909456626929,
,,,,,,,,,,,,0,0,0,0,146,0,146,0,,,,,,,146,,,1,1917.0749241575395,X,d,go,d,1,,0.3654334270358959,,,,,,,,,,,,,,,,10,001,21,m,Bsc. Psychologie 100%,2023-01-09_14h07.27.419,00_bat_bachelor,2022.2.4,60.03909456626929,
,,,,,,,,,,,,0,0,0,0,147,0,147,0,,,,,,,147,,,1,1918.5592288772023,Y,l,go,l,1,,0.2427822160498181,,,,,,,,,,,,,,,,10,001,21,m,Bsc. Psychologie 100%,2023-01-09_14h07.27.419,00_bat_bachelor,2022.2.4,60.03909456626929,
,,,,,,,,,,,,0,0,0,0,148,0,148,0,,,,,,,148,,,1,1919.9102321989012,Y,None,nogo,None,1,1920.7110107689732,,,,,,,,,,,,,,,,,10,001,21,m,Bsc. Psychologie 100%,2023-01-09_14h07.27.419,00_bat_bachelor,2022.2.4,60.03909456626929,
,,,,,,,,,,,,0,0,0,0,149,0,149,0,,,,,,,149,,,1,1921.7118437390745,Y,None,nogo,l,0,,0.5456245447021502,,,,,,,,,,,,,,,,10,001,21,m,Bsc. Psychologie 100%,2023-01-09_14h07.27.419,00_bat_bachelor,2022.2.4,60.03909456626929,
,,,,,,,,,,,,0,0,0,0,150,0,150,0,,,,,,,150,,,1,1923.3628729032098,X,d,go,d,1,,0.38176313192161615,,,,,,,,,,,,,,,,10,001,21,m,Bsc. Psychologie 100%,2023-01-09_14h07.27.419,00_bat_bachelor,2022.2.4,60.03909456626929,
,,,,,,,,,,,,0,0,0,0,151,0,151,0,,,,,,,151,,,1,1924.8475461078997,Y,l,go,l,1,,0.3853102851535368,,,,,,,,,,,,,,,,10,001,21,m,Bsc. Psychologie 100%,2023-01-09_14h07.27.419,00_bat_bachelor,2022.2.4,60.03909456626929,
,,,,,,,,,,,,0,0,0,0,152,0,152,0,,,,,,,152,,,1,1926.3651681770498,Y,None,nogo,None,1,1927.1654682014378,,,,,,,,,,,,,,,,,10,001,21,m,Bsc. Psychologie 100%,2023-01-09_14h07.27.419,00_bat_bachelor,2022.2.4,60.03909456626929,
,,,,,,,,,,,,0,0,0,0,153,0,153,0,,,,,,,153,,,1,1928.1664703837414,X,d,go,d,1,,0.34762881234200904,,,,,,,,,,,,,,,,10,001,21,m,Bsc. Psychologie 100%,2023-01-09_14h07.27.419,00_bat_bachelor,2022.2.4,60.03909456626929,
,,,,,,,,,,,,0,0,0,0,154,0,154,0,,,,,,,154,,,1,1929.6174737539259,Y,l,go,l,1,,0.22370535831942107,,,,,,,,,,,,,,,,10,001,21,m,Bsc. Psychologie 100%,2023-01-09_14h07.27.419,00_bat_bachelor,2022.2.4,60.03909456626929,
,,,,,,,,,,,,0,0,0,0,155,0,155,0,,,,,,,155,,,1,1930.9519907646027,X,d,go,d,1,,0.2653286512249906,,,,,,,,,,,,,,,,10,001,21,m,Bsc. Psychologie 100%,2023-01-09_14h07.27.419,00_bat_bachelor,2022.2.4,60.03909456626929,
,,,,,,,,,,,,0,0,0,0,156,0,156,0,,,,,,,156,,,1,1932.31941009426,X,None,nogo,l,0,,0.21091068544774316,,,,,,,,,,,,,,,,10,001,21,m,Bsc. Psychologie 100%,2023-01-09_14h07.27.419,00_bat_bachelor,2022.2.4,60.03909456626929,
,,,,,,,,,,,,0,0,0,0,157,0,157,0,,,,,,,157,,,1,1933.6368017632958,Y,l,go,l,1,,0.428530669749307,,,,,,,,,,,,,,,,10,001,21,m,Bsc. Psychologie 100%,2023-01-09_14h07.27.419,00_bat_bachelor,2022.2.4,60.03909456626929,
,,,,,,,,,,,,0,0,0,0,158,0,158,0,,,,,,,158,,,1,1935.1716374165517,X,d,go,d,1,,0.6369011950191634,,,,,,,,,,,,,,,,10,001,21,m,Bsc. Psychologie 100%,2023-01-09_14h07.27.419,00_bat_bachelor,2022.2.4,60.03909456626929,
,,,,,,,,,,,,0,0,0,0,159,0,159,0,,,,,,,159,,,1,1936.922874629272,Y,l,go,l,1,,0.38973646911836113,,,,,,,,,,,,,,,,10,001,21,m,Bsc. Psychologie 100%,2023-01-09_14h07.27.419,00_bat_bachelor,2022.2.4,60.03909456626929,
,,,,,,,,,,,,0,0,0,0,160,0,160,0,,,,,,,160,,,1,1938.4240593571194,X,d,go,d,1,,0.49047833614531555,,,,,,,,,,,,,,,,10,001,21,m,Bsc. Psychologie 100%,2023-01-09_14h07.27.419,00_bat_bachelor,2022.2.4,60.03909456626929,
,,,,,,,,,,,,0,0,0,0,161,0,161,0,,,,,,,161,,,1,1940.0252717698277,X,None,nogo,None,1,,,,,,,,,,,,,,,,,,10,001,21,m,Bsc. Psychologie 100%,2023-01-09_14h07.27.419,00_bat_bachelor,2022.2.4,60.03909456626929,
,,,,,,,,,,,,0,0,0,0,162,0,162,0,,,,,,,162,,,1,1941.8266282795776,Y,l,go,l,1,,0.28648938875994645,,,,,,,,,,,,,,,,10,001,21,m,Bsc. Psychologie 100%,2023-01-09_14h07.27.419,00_bat_bachelor,2022.2.4,60.03909456626929,
,,,,,,,,,,,,0,0,0,0,163,0,163,0,,,,,,,163,,,1,1943.227689807365,X,d,go,d,1,,0.3251982560104807,,,,,,,,,,,,,,,,10,001,21,m,Bsc. Psychologie 100%,2023-01-09_14h07.27.419,00_bat_bachelor,2022.2.4,60.03909456626929,
,,,,,,,,,,,,0,0,0,0,164,0,164,0,,,,,,,164,,,1,1944.6618951087985,X,None,nogo,None,1,,,,,,,,,,,,,,,,,,10,001,21,m,Bsc. Psychologie 100%,2023-01-09_14h07.27.419,00_bat_bachelor,2022.2.4,60.03909456626929,
,,,,,,,,,,,,0,0,0,0,165,0,165,0,,,,,,,165,,,1,1946.4632375579313,Y,l,go,l,1,,0.465596384688979,,,,,,,,,,,,,,,,10,001,21,m,Bsc. Psychologie 100%,2023-01-09_14h07.27.419,00_bat_bachelor,2022.2.4,60.03909456626929,
,,,,,,,,,,,,0,0,0,0,166,0,166,0,,,,,,,166,,,1,1948.031359530356,X,d,go,d,1,,0.5306107192409399,,,,,,,,,,,,,,,,10,001,21,m,Bsc. Psychologie 100%,2023-01-09_14h07.27.419,00_bat_bachelor,2022.2.4,60.03909456626929,
,,,,,,,,,,,,0,0,0,0,167,0,167,0,,,,,,,167,,,1,1949.6656686863826,X,None,nogo,None,1,,,,,,,,,,,,,,,,,,10,001,21,m,Bsc. Psychologie 100%,2023-01-09_14h07.27.419,00_bat_bachelor,2022.2.4,60.03909456626929,
,,,,,,,,,,,,0,0,0,0,168,0,168,0,,,,,,,168,,,1,1951.468056469359,Y,l,go,l,1,,0.26030125484612654,,,,,,,,,,,,,,,,10,001,21,m,Bsc. Psychologie 100%,2023-01-09_14h07.27.419,00_bat_bachelor,2022.2.4,60.03909456626929,
,,,,,,,,,,,,0,0,0,0,169,0,169,0,,,,,,,169,,,1,1952.8521715646893,X,d,go,d,1,,0.3157490393095941,,,,,,,,,,,,,,,,10,001,21,m,Bsc. Psychologie 100%,2023-01-09_14h07.27.419,00_bat_bachelor,2022.2.4,60.03909456626929,
,,,,,,,,,,,,0,0,0,0,170,0,170,0,,,,,,,170,,,1,1954.3035206320092,Y,l,go,l,1,,0.38541404278294067,,,,,,,,,,,,,,,,10,001,21,m,Bsc. Psychologie 100%,2023-01-09_14h07.27.419,00_bat_bachelor,2022.2.4,60.03909456626929,
,,,,,,,,,,,,0,0,0,0,171,0,171,0,,,,,,,171,,,1,1955.8210976102273,X,d,go,d,1,,0.33977426308047143,,,,,,,,,,,,,,,,10,001,21,m,Bsc. Psychologie 100%,2023-01-09_14h07.27.419,00_bat_bachelor,2022.2.4,60.03909456626929,
,,,,,,,,,,,,0,0,0,0,172,0,172,0,,,,,,,172,,,1,1957.2722318895649,Y,l,go,l,1,,0.24815724895961466,,,,,,,,,,,,,,,,10,001,21,m,Bsc. Psychologie 100%,2023-01-09_14h07.27.419,00_bat_bachelor,2022.2.4,60.03909456626929,
,,,,,,,,,,,,0,0,0,0,173,0,173,0,,,,,,,173,,,1,1958.656876439698,Y,None,nogo,d,0,,0.3515095414950338,,,,,,,,,,,,,,,,10,001,21,m,Bsc. Psychologie 100%,2023-01-09_14h07.27.419,00_bat_bachelor,2022.2.4,60.03909456626929,
,,,,,,,,,,,,0,0,0,0,174,0,174,0,,,,,,,174,,,1,1960.141127826002,Y,None,nogo,l,0,,0.6441841076411947,,,,,,,,,,,,,,,,10,001,21,m,Bsc. Psychologie 100%,2023-01-09_14h07.27.419,00_bat_bachelor,2022.2.4,60.03909456626929,
,,,,,,,,,,,,0,0,0,0,175,0,175,0,,,,,,,175,,,1,1961.9093972894043,X,d,go,d,1,,0.3475192365294788,,,,,,,,,,,,,,,,10,001,21,m,Bsc. Psychologie 100%,2023-01-09_14h07.27.419,00_bat_bachelor,2022.2.4,60.03909456626929,
,,,,,,,,,,,,0,0,0,0,176,0,176,0,,,,,,,176,,,1,1963.3601800534198,Y,l,go,l,1,,0.46500147530969116,,,,,,,,,,,,,,,,10,001,21,m,Bsc. Psychologie 100%,2023-01-09_14h07.27.419,00_bat_bachelor,2022.2.4,60.03909456626929,
,,,,,,,,,,,,0,0,0,0,177,0,177,0,,,,,,,177,,,1,1964.9614574358566,Y,None,nogo,None,1,1965.7621918846999,,,,,,,,,,,,,,,,,10,001,21,m,Bsc. Psychologie 100%,2023-01-09_14h07.27.419,00_bat_bachelor,2022.2.4,60.03909456626929,
,,,,,,,,,,,,0,0,0,0,178,0,178,0,,,,,,,178,,,1,1966.7627310364733,X,d,go,d,1,,0.2781024756041006,,,,,,,,,,,,,,,,10,001,21,m,Bsc. Psychologie 100%,2023-01-09_14h07.27.419,00_bat_bachelor,2022.2.4,60.03909456626929,
,,,,,,,,,,,,0,0,0,0,179,0,179,0,,,,,,,179,,,1,1968.1638522006542,Y,l,go,l,1,,0.4121878739424574,,,,,,,,,,,,,,,,10,001,21,m,Bsc. Psychologie 100%,2023-01-09_14h07.27.419,00_bat_bachelor,2022.2.4,60.03909456626929,
,,,,,,,,,,,,0,0,0,0,180,0,180,0,,,,,,,180,,,1,1969.698324702218,X,d,go,d,1,,0.5264575051078282,,,,,,,,,,,,,,,,10,001,21,m,Bsc. Psychologie 100%,2023-01-09_14h07.27.419,00_bat_bachelor,2022.2.4,60.03909456626929,
,,,,,,,,,,,,0,0,0,0,181,0,181,0,,,,,,,181,,,1,1971.3498275635538,Y,l,go,l,1,,0.23521857602099772,,,,,,,,,,,,,,,,10,001,21,m,Bsc. Psychologie 100%,2023-01-09_14h07.27.419,00_bat_bachelor,2022.2.4,60.03909456626929,
,,,,,,,,,,,,0,0,0,0,182,0,182,0,,,,,,,182,,,1,1972.7006505215286,X,d,go,d,1,,0.27566465623749536,,,,,,,,,,,,,,,,10,001,21,m,Bsc. Psychologie 100%,2023-01-09_14h07.27.419,00_bat_bachelor,2022.2.4,60.03909456626929,
,,,,,,,,,,,,0,0,0,0,183,0,183,0,,,,,,,183,,,1,1974.1014206552354,Y,l,go,l,1,,0.33123413772773347,,,,,,,,,,,,,,,,10,001,21,m,Bsc. Psychologie 100%,2023-01-09_14h07.27.419,00_bat_bachelor,2022.2.4,60.03909456626929,
,,,,,,,,,,,,0,0,0,0,184,0,184,0,,,,,,,184,,,1,1975.5358509264734,X,d,go,d,1,,0.4973268243156781,,,,,,,,,,,,,,,,10,001,21,m,Bsc. Psychologie 100%,2023-01-09_14h07.27.419,00_bat_bachelor,2022.2.4,60.03909456626929,
,,,,,,,,,,,,0,0,0,0,185,0,185,0,,,,,,,185,,,1,1977.1367840663188,X,None,nogo,l,0,,0.3036123061501712,,,,,,,,,,,,,,,,10,001,21,m,Bsc. Psychologie 100%,2023-01-09_14h07.27.419,00_bat_bachelor,2022.2.4,60.03909456626929,
,,,,,,,,,,,,0,0,0,0,186,0,186,0,,,,,,,186,,,1,1978.5547663295838,Y,l,go,l,1,,0.5500929105073737,,,,,,,,,,,,,,,,10,001,21,m,Bsc. Psychologie 100%,2023-01-09_14h07.27.419,00_bat_bachelor,2022.2.4,60.03909456626929,
,,,,,,,,,,,,0,0,0,0,187,0,187,0,,,,,,,187,,,1,1980.2059448271248,X,d,go,d,1,,0.2592840422366862,,,,,,,,,,,,,,,,10,001,21,m,Bsc. Psychologie 100%,2023-01-09_14h07.27.419,00_bat_bachelor,2022.2.4,60.03909456626929,
,,,,,,,,,,,,0,0,0,0,188,0,188,0,,,,,,,188,,,1,1981.573326338581,X,None,nogo,d,0,,0.4279386694615823,,,,,,,,,,,,,,,,10,001,21,m,Bsc. Psychologie 100%,2023-01-09_14h07.27.419,00_bat_bachelor,2022.2.4,60.03909456626929,
,,,,,,,,,,,,0,0,0,0,189,0,189,0,,,,,,,189,,,1,1983.1081624766848,Y,l,go,l,1,,0.3011880625526828,,,,,,,,,,,,,,,,10,001,21,m,Bsc. Psychologie 100%,2023-01-09_14h07.27.419,00_bat_bachelor,2022.2.4,60.03909456626929,
,,,,,,,,,,,,0,0,0,0,190,0,190,0,,,,,,,190,,,1,1984.5259508004601,X,d,go,d,1,,0.45104268066279474,,,,,,,,,,,,,,,,10,001,21,m,Bsc. Psychologie 100%,2023-01-09_14h07.27.419,00_bat_bachelor,2022.2.4,60.03909456626929,
,,,,,,,,,,,,0,0,0,0,191,0,191,0,,,,,,,191,,,1,1986.0934914392674,X,None,nogo,None,1,,,,,,,,,,,,,,,,,,10,001,21,m,Bsc. Psychologie 100%,2023-01-09_14h07.27.419,00_bat_bachelor,2022.2.4,60.03909456626929,
,,,,,,,,,,,,0,0,0,0,192,0,192,0,,,,,,,192,,,1,1987.8951422521895,Y,l,go,l,1,,0.4108933278621407,,,,,,,,,,,,,,,,10,001,21,m,Bsc. Psychologie 100%,2023-01-09_14h07.27.419,00_bat_bachelor,2022.2.4,60.03909456626929,
,,,,,,,,,,,,0,0,0,0,193,0,193,0,,,,,,,193,,,1,1989.4129054123187,X,d,go,d,1,,0.2362551825826813,,,,,,,,,,,,,,,,10,001,21,m,Bsc. Psychologie 100%,2023-01-09_14h07.27.419,00_bat_bachelor,2022.2.4,60.03909456626929,
,,,,,,,,,,,,0,0,0,0,194,0,194,0,,,,,,,194,,,1,1990.7640183098265,Y,l,go,l,1,,0.35780530212286976,,,,,,,,,,,,,,,,10,001,21,m,Bsc. Psychologie 100%,2023-01-09_14h07.27.419,00_bat_bachelor,2022.2.4,60.03909456626929,
,,,,,,,,,,,,0,0,0,0,195,0,195,0,,,,,,,195,,,1,1992.2318134457273,X,d,go,d,1,,0.2340496057549899,,,,,,,,,,,,,,,,10,001,21,m,Bsc. Psychologie 100%,2023-01-09_14h07.27.419,00_bat_bachelor,2022.2.4,60.03909456626929,
,,,,,,,,,,,,0,0,0,0,196,0,196,0,,,,,,,196,,,1,1993.582505979397,X,None,nogo,l,0,,0.17880788200272946,,,,,,,,,,,,,,,,10,001,21,m,Bsc. Psychologie 100%,2023-01-09_14h07.27.419,00_bat_bachelor,2022.2.4,60.03909456626929,
,,,,,,,,,,,,0,0,0,0,197,0,197,0,,,,,,,197,,,1,1994.867153390136,Y,l,go,l,1,,0.5422563006468408,,,,,,,,,,,,,,,,10,001,21,m,Bsc. Psychologie 100%,2023-01-09_14h07.27.419,00_bat_bachelor,2022.2.4,60.03909456626929,
,,,,,,,,,,,,0,0,0,0,198,0,198,0,,,,,,,198,,,1,1996.5182969785674,X,d,go,d,1,,0.28274344754754566,,,,,,,,,,,,,,,,10,001,21,m,Bsc. Psychologie 100%,2023-01-09_14h07.27.419,00_bat_bachelor,2022.2.4,60.03909456626929,
,,,,,,,,,,,,0,0,0,0,199,0,199,0,,,,,,,199,,,1,1997.902705892222,Y,l,go,l,1,,0.3542600882865372,,,,,,,,,,,,,,,,10,001,21,m,Bsc. Psychologie 100%,2023-01-09_14h07.27.419,00_bat_bachelor,2022.2.4,60.03909456626929,
,,,,,,,,,,,,0,0,0,0,200,0,200,0,,,,,,,200,,,1,1999.3705723008825,X,d,go,d,1,,0.3438358408056956,,,,,,,,,,,,,,,,10,001,21,m,Bsc. Psychologie 100%,2023-01-09_14h07.27.419,00_bat_bachelor,2022.2.4,60.03909456626929,
,,,,,,,,,,,,0,0,0,0,201,0,201,0,,,,,,,201,,,1,2000.8215557922704,Y,l,go,l,1,,0.36367051709021325,,,,,,,,,,,,,,,,10,001,21,m,Bsc. Psychologie 100%,2023-01-09_14h07.27.419,00_bat_bachelor,2022.2.4,60.03909456626929,
,,,,,,,,,,,,0,0,0,0,202,0,202,0,,,,,,,202,,,1,2002.2891778371777,Y,None,nogo,d,0,,0.33561426106098224,,,,,,,,,,,,,,,,10,001,21,m,Bsc. Psychologie 100%,2023-01-09_14h07.27.419,00_bat_bachelor,2022.2.4,60.03909456626929,
,,,,,,,,,,,,0,0,0,0,203,0,203,0,,,,,,,203,,,1,2003.7404192680806,X,d,go,None,0,2004.5410611108164,,,,,,,,,,,,,,,,,10,001,21,m,Bsc. Psychologie 100%,2023-01-09_14h07.27.419,00_bat_bachelor,2022.2.4,60.03909456626929,
,,,,,,,,,,,,0,0,0,0,204,0,204,0,,,,,,,204,,,1,2005.5418009899622,Y,l,go,l,1,,0.44448704112073756,,,,,,,,,,,,,,,,10,001,21,m,Bsc. Psychologie 100%,2023-01-09_14h07.27.419,00_bat_bachelor,2022.2.4,60.03909456626929,
,,,,,,,,,,,,0,0,0,0,205,0,205,0,,,,,,,205,,,1,2007.092942590516,Y,None,nogo,l,0,,0.41299029857691494,,,,,,,,,,,,,,,,10,001,21,m,Bsc. Psychologie 100%,2023-01-09_14h07.27.419,00_bat_bachelor,2022.2.4,60.03909456626929,
,,,,,,,,,,,,0,0,0,0,206,0,206,0,,,,,,,206,,,1,2008.6108987204352,X,d,go,d,1,,0.3021563054426224,,,,,,,,,,,,,,,,10,001,21,m,Bsc. Psychologie 100%,2023-01-09_14h07.27.419,00_bat_bachelor,2022.2.4,60.03909456626929,
,,,,,,,,,,,,0,0,0,0,207,0,207,0,,,,,,,207,,,1,2010.0286312866083,Y,l,go,l,1,,0.3256806804856751,,,,,,,,,,,,,,,,10,001,21,m,Bsc. Psychologie 100%,2023-01-09_14h07.27.419,00_bat_bachelor,2022.2.4,60.03909456626929,
,,,,,,,,,,,,0,0,0,0,208,0,208,0,,,,,,,208,,,1,2011.4627721031611,Y,None,nogo,None,1,,,,,,,,,,,,,,,,,,10,001,21,m,Bsc. Psychologie 100%,2023-01-09_14h07.27.419,00_bat_bachelor,2022.2.4,60.03909456626929,
,,,,,,,,,,,,0,0,0,0,209,0,209,0,,,,,,,209,,,1,2013.2644267948745,X,d,go,d,1,,0.22537663185357815,,,,,,,,,,,,,,,,10,001,21,m,Bsc. Psychologie 100%,2023-01-09_14h07.27.419,00_bat_bachelor,2022.2.4,60.03909456626929,
,,,,,,,,,,,,0,0,0,0,210,0,210,0,,,,,,,210,,,1,2014.598891441885,Y,l,go,l,1,,0.2986173946374038,,,,,,,,,,,,,,,,10,001,21,m,Bsc. Psychologie 100%,2023-01-09_14h07.27.419,00_bat_bachelor,2022.2.4,60.03909456626929,
,,,,,,,,,,,,0,0,0,0,211,0,211,0,,,,,,,211,,,1,2015.99990884844,X,d,go,d,1,,0.5308870830122032,,,,,,,,,,,,,,,,10,001,21,m,Bsc. Psychologie 100%,2023-01-09_14h07.27.419,00_bat_bachelor,2022.2.4,60.03909456626929,
,,,,,,,,,,,,0,0,0,0,212,0,212,0,,,,,,,212,,,1,2017.6344109742604,Y,l,go,l,1,,0.49579470236130874,,,,,,,,,,,,,,,,10,001,21,m,Bsc. Psychologie 100%,2023-01-09_14h07.27.419,00_bat_bachelor,2022.2.4,60.03909456626929,
,,,,,,,,,,,,0,0,0,0,213,0,213,0,,,,,,,213,,,1,2019.2357053264022,Y,None,nogo,None,1,,,,,,,,,,,,,,,,,,10,001,21,m,Bsc. Psychologie 100%,2023-01-09_14h07.27.419,00_bat_bachelor,2022.2.4,60.03909456626929,
,,,,,,,,,,,,0,0,0,0,214,0,214,0,,,,,,,214,,,1,2021.0369546845832,X,d,go,d,1,,0.3078130354624591,,,,,,,,,,,,,,,,10,001,21,m,Bsc. Psychologie 100%,2023-01-09_14h07.27.419,00_bat_bachelor,2022.2.4,60.03909456626929,
,,,,,,,,,,,,0,0,0,0,215,0,215,0,,,,,,,215,,,1,2022.4546891901518,Y,l,go,l,1,,0.6182141556564602,,,,,,,,,,,,,,,,10,001,21,m,Bsc. Psychologie 100%,2023-01-09_14h07.27.419,00_bat_bachelor,2022.2.4,60.03909456626929,
,,,,,,,,,,,,0,0,0,0,216,0,216,0,,,,,,,216,,,1,2024.1891501523132,X,d,go,d,1,,0.40360362736100797,,,,,,,,,,,,,,,,10,001,21,m,Bsc. Psychologie 100%,2023-01-09_14h07.27.419,00_bat_bachelor,2022.2.4,60.03909456626929,
,,,,,,,,,,,,0,0,0,0,217,0,217,0,,,,,,,217,,,1,2025.7075930703468,Y,l,go,l,1,,0.5017447658501624,,,,,,,,,,,,,,,,10,001,21,m,Bsc. Psychologie 100%,2023-01-09_14h07.27.419,00_bat_bachelor,2022.2.4,60.03909456626929,
,,,,,,,,,,,,0,0,0,0,218,0,218,0,,,,,,,218,,,1,2027.3252922789288,X,d,go,d,1,,0.37203173326633987,,,,,,,,,,,,,,,,10,001,21,m,Bsc. Psychologie 100%,2023-01-09_14h07.27.419,00_bat_bachelor,2022.2.4,60.03909456626929,
,,,,,,,,,,,,0,0,0,0,219,0,219,0,,,,,,,219,,,1,2028.8096183319358,Y,l,go,l,1,,0.45505819776371936,,,,,,,,,,,,,,,,10,001,21,m,Bsc. Psychologie 100%,2023-01-09_14h07.27.419,00_bat_bachelor,2022.2.4,60.03909456626929,
,,,,,,,,,,,,0,0,0,0,220,0,220,0,,,,,,,220,,,1,2030.3777980013547,X,d,go,None,0,2031.1783826319443,,,,,,,,,,,,,,,,,10,001,21,m,Bsc. Psychologie 100%,2023-01-09_14h07.27.419,00_bat_bachelor,2022.2.4,60.03909456626929,
,,,,,,,,,,,,0,0,0,0,221,0,221,0,,,,,,,221,,,1,2032.1792005717325,Y,l,go,l,1,,0.33381838140121545,,,,,,,,,,,,,,,,10,001,21,m,Bsc. Psychologie 100%,2023-01-09_14h07.27.419,00_bat_bachelor,2022.2.4,60.03909456626929,
,,,,,,,,,,,,0,0,0,0,222,0,222,0,,,,,,,222,,,1,2033.6133506004116,X,d,go,d,1,,0.3880792561976705,,,,,,,,,,,,,,,,10,001,21,m,Bsc. Psychologie 100%,2023-01-09_14h07.27.419,00_bat_bachelor,2022.2.4,60.03909456626929,
,,,,,,,,,,,,0,0,0,0,223,0,223,0,,,,,,,223,,,1,2035.1144800555048,Y,l,go,l,1,,0.2961073328151542,,,,,,,,,,,,,,,,10,001,21,m,Bsc. Psychologie 100%,2023-01-09_14h07.27.419,00_bat_bachelor,2022.2.4,60.03909456626929,
,,,,,,,,,,,,0,0,0,0,224,0,224,0,,,,,,,224,,,1,2036.5154892196297,X,d,go,d,1,,0.4305350343565806,,,,,,,,,,,,,,,,10,001,21,m,Bsc. Psychologie 100%,2023-01-09_14h07.27.419,00_bat_bachelor,2022.2.4,60.03909456626929,
,,,,,,,,,,,,0,0,0,0,225,0,225,0,,,,,,,225,,,1,2038.0499849939297,X,None,nogo,None,1,,,,,,,,,,,,,,,,,,10,001,21,m,Bsc. Psychologie 100%,2023-01-09_14h07.27.419,00_bat_bachelor,2022.2.4,60.03909456626929,
,,,,,,,,,,,,0,0,0,0,226,0,226,0,,,,,,,226,,,1,2039.8520299888623,Y,l,go,l,1,,0.3879187712664134,,,,,,,,,,,,,,,,10,001,21,m,Bsc. Psychologie 100%,2023-01-09_14h07.27.419,00_bat_bachelor,2022.2.4,60.03909456626929,
,,,,,,,,,,,,0,0,0,0,227,0,227,0,,,,,,,227,,,1,2041.3696738762046,X,d,go,d,1,,0.35821160535124363,,,,,,,,,,,,,,,,10,001,21,m,Bsc. Psychologie 100%,2023-01-09_14h07.27.419,00_bat_bachelor,2022.2.4,60.03909456626929,
,,,,,,,,,,,,0,0,0,0,228,0,228,0,,,,,,,228,,,1,2042.870858119204,X,None,nogo,d,0,,0.6662529668246862,,,,,,,,,,,,,,,,10,001,21,m,Bsc. Psychologie 100%,2023-01-09_14h07.27.419,00_bat_bachelor,2022.2.4,60.03909456626929,
,,,,,,,,,,,,0,0,0,0,229,0,229,0,,,,,,,229,,,1,2044.6391397038242,Y,l,go,l,1,,0.2898925419249281,,,,,,,,,,,,,,,,10,001,21,m,Bsc. Psychologie 100%,2023-01-09_14h07.27.419,00_bat_bachelor,2022.2.4,60.03909456626929,
,,,,,,,,,,,,0,0,0,0,230,0,230,0,,,,,,,230,,,1,2046.0399849890819,X,d,go,d,1,,0.47218256969790673,,,,,,,,,,,,,,,,10,001,21,m,Bsc. Psychologie 100%,2023-01-09_14h07.27.419,00_bat_bachelor,2022.2.4,60.03909456626929,
,,,,,,,,,,,,0,0,0,0,231,0,231,0,,,,,,,231,,,1,2047.6411256441825,Y,l,go,l,1,,0.27988041585922474,,,,,,,,,,,,,,,,10,001,21,m,Bsc. Psychologie 100%,2023-01-09_14h07.27.419,00_bat_bachelor,2022.2.4,60.03909456626929,
,,,,,,,,,,,,0,0,0,0,232,0,232,0,,,,,,,232,,,1,2049.0255006184234,X,d,go,d,1,,0.4153282391052926,,,,,,,,,,,,,,,,10,001,21,m,Bsc. Psychologie 100%,2023-01-09_14h07.27.419,00_bat_bachelor,2022.2.4,60.03909456626929,
,,,,,,,,,,,,0,0,0,0,233,0,233,0,,,,,,,233,,,1,2050.5602397867806,Y,l,go,l,1,,0.40214762665345916,,,,,,,,,,,,,,,,10,001,21,m,Bsc. Psychologie 100%,2023-01-09_14h07.27.419,00_bat_bachelor,2022.2.4,60.03909456626929,
,,,,,,,,,,,,0,0,0,0,234,0,234,0,,,,,,,234,,,1,2052.0778502195644,Y,None,nogo,None,1,2052.8787742442546,,,,,,,,,,,,,,,,,10,001,21,m,Bsc. Psychologie 100%,2023-01-09_14h07.27.419,00_bat_bachelor,2022.2.4,60.03909456626929,
,,,,,,,,,,,,0,0,0,0,235,0,235,0,,,,,,,235,,,1,2053.8793822445477,X,d,go,None,0,2054.680033784258,,,,,,,,,,,,,,,,,10,001,21,m,Bsc. Psychologie 100%,2023-01-09_14h07.27.419,00_bat_bachelor,2022.2.4,60.03909456626929,
,,,,,,,,,,,,0,0,0,0,236,0,236,0,,,,,,,236,,,1,2055.6805986330182,Y,l,go,l,1,,0.2713116844315664,,,,,,,,,,,,,,,,10,001,21,m,Bsc. Psychologie 100%,2023-01-09_14h07.27.419,00_bat_bachelor,2022.2.4,60.03909456626929,
,,,,,,,,,,,,0,0,0,0,237,0,237,0,,,,,,,237,,,1,2057.0818899790975,X,d,go,d,1,,0.5349370243675367,,,,,,,,,,,,,,,,10,001,21,m,Bsc. Psychologie 100%,2023-01-09_14h07.27.419,00_bat_bachelor,2022.2.4,60.03909456626929,
,,,,,,,,,,,,0,0,0,0,238,0,238,0,,,,,,,238,,,1,2058.749663393777,X,None,nogo,l,0,,0.30743921709654387,,,,,,,,,,,,,,,,10,001,21,m,Bsc. Psychologie 100%,2023-01-09_14h07.27.419,00_bat_bachelor,2022.2.4,60.03909456626929,
,,,,,,,,,,,,0,0,0,0,239,0,239,0,,,,,,,239,,,1,2060.1674444448217,Y,l,go,None,0,2060.9682879846223,,,,,,,,,,,,,,,,,10,001,21,m,Bsc. Psychologie 100%,2023-01-09_14h07.27.419,00_bat_bachelor,2022.2.4,60.03909456626929,
,,,,,,,,,,,,0,0,0,0,240,0,240,0,,,,,,,240,,,1,2061.9687291969603,X,d,go,d,1,,0.28766805599661893,,,,,,,,,,,,,,,,10,001,21,m,Bsc. Psychologie 100%,2023-01-09_14h07.27.419,00_bat_bachelor,2022.2.4,60.03909456626929,
,,,,,,,,,,,,0,0,0,0,241,0,241,0,,,,,,,241,,,1,2063.3867017632474,Y,l,go,l,1,,0.26221980123227695,,,,,,,,,,,,,,,,10,001,21,m,Bsc. Psychologie 100%,2023-01-09_14h07.27.419,00_bat_bachelor,2022.2.4,60.03909456626929,
,,,,,,,,,,,,0,0,0,0,242,0,242,0,,,,,,,242,,,1,2064.7543480021086,X,d,go,d,1,,0.26989253222564,,,,,,,,,,,,,,,,10,001,21,m,Bsc. Psychologie 100%,2023-01-09_14h07.27.419,00_bat_bachelor,2022.2.4,60.03909456626929,
,,,,,,,,,,,,0,0,0,0,243,0,243,0,,,,,,,243,,,1,2066.1554298935407,Y,l,go,l,1,,0.2776995663152775,,,,,,,,,,,,,,,,10,001,21,m,Bsc. Psychologie 100%,2023-01-09_14h07.27.419,00_bat_bachelor,2022.2.4,60.03909456626929,
,,,,,,,,,,,,0,0,0,0,244,0,244,0,,,,,,,244,,,1,2067.5398615950835,X,d,go,d,1,,0.30143291115382453,,,,,,,,,,,,,,,,10,001,21,m,Bsc. Psychologie 100%,2023-01-09_14h07.27.419,00_bat_bachelor,2022.2.4,60.03909456626929,
,,,,,,,,,,,,0,0,0,0,245,0,245,0,,,,,,,245,,,1,2068.9571466458874,X,None,nogo,l,0,,0.18005491291114595,,,,,,,,,,,,,,,,10,001,21,m,Bsc. Psychologie 100%,2023-01-09_14h07.27.419,00_bat_bachelor,2022.2.4,60.03909456626929,
,,,,,,,,,,,,0,0,0,0,246,0,246,0,,,,,,,246,,,1,2070.241286904864,Y,l,go,d,0,,0.6243314919556724,,,,,,,,,,,,,,,,10,001,21,m,Bsc. Psychologie 100%,2023-01-09_14h07.27.419,00_bat_bachelor,2022.2.4,60.03909456626929,
,,,,,,,,,,,,0,0,0,0,247,0,247,0,,,,,,,247,,,1,2071.975947624702,X,d,go,d,1,,0.39356871340351063,,,,,,,,,,,,,,,,10,001,21,m,Bsc. Psychologie 100%,2023-01-09_14h07.27.419,00_bat_bachelor,2022.2.4,60.03909456626929,
,,,,,,,,,,,,0,0,0,0,248,0,248,0,,,,,,,248,,,1,2073.476947625186,X,None,nogo,d,0,,0.4757360259682173,,,,,,,,,,,,,,,,10,001,21,m,Bsc. Psychologie 100%,2023-01-09_14h07.27.419,00_bat_bachelor,2022.2.4,60.03909456626929,
,,,,,,,,,,,,0,0,0,0,249,0,249,0,,,,,,,249,,,1,2075.0616300904876,Y,l,go,None,0,,,,,,,,,,,,,,,,,,10,001,21,m,Bsc. Psychologie 100%,2023-01-09_14h07.27.419,00_bat_bachelor,2022.2.4,60.03909456626929,
,,,,,,,,,,,,1,0,1,0,0,0,0,0,,,,,,,0,,,0.2,2119.329323311187,X,d,go,d,1,,0.6079668779602798,,,,,,,,2075.8662278139273,space,43.24313518591953,,,,,,10,001,21,m,Bsc. Psychologie 100%,2023-01-09_14h07.27.419,00_bat_bachelor,2022.2.4,60.03909456626929,
,,,,,,,,,,,,1,0,1,0,1,0,1,0,,,,,,,1,,,0.2,2120.2798503175036,Y,l,go,l,1,,0.3443580228740757,,,,,,,,,,,,,,,,10,001,21,m,Bsc. Psychologie 100%,2023-01-09_14h07.27.419,00_bat_bachelor,2022.2.4,60.03909456626929,
,,,,,,,,,,,,1,0,1,0,2,0,2,0,,,,,,,2,,,0.2,2120.9472707623136,X,d,go,d,1,,0.3167454034301045,,,,,,,,,,,,,,,,10,001,21,m,Bsc. Psychologie 100%,2023-01-09_14h07.27.419,00_bat_bachelor,2022.2.4,60.03909456626929,
,,,,,,,,,,,,1,0,1,0,3,0,3,0,,,,,,,3,,,0.2,2121.5975702291253,Y,l,go,l,1,,0.3068244289206632,,,,,,,,,,,,,,,,10,001,21,m,Bsc. Psychologie 100%,2023-01-09_14h07.27.419,00_bat_bachelor,2022.2.4,60.03909456626929,
,,,,,,,,,,,,1,0,1,0,4,0,4,0,,,,,,,4,,,0.2,2122.248103877868,Y,None,nogo,None,1,2123.048747175151,,,,,,,,,,,,,,,,,10,001,21,m,Bsc. Psychologie 100%,2023-01-09_14h07.27.419,00_bat_bachelor,2022.2.4,60.03909456626929,
,,,,,,,,,,,,1,0,1,0,5,0,5,0,,,,,,,5,,,0.2,2123.2490726056094,X,d,go,d,1,,0.3358658975448634,,,,,,,,,,,,,,,,10,001,21,m,Bsc. Psychologie 100%,2023-01-09_14h07.27.419,00_bat_bachelor,2022.2.4,60.03909456626929,
,,,,,,,,,,,,1,0,1,0,6,0,6,0,,,,,,,6,,,0.2,2123.899480193686,Y,l,go,l,1,,0.4211813328511198,,,,,,,,,,,,,,,,10,001,21,m,Bsc. Psychologie 100%,2023-01-09_14h07.27.419,00_bat_bachelor,2022.2.4,60.03909456626929,
,,,,,,,,,,,,1,0,1,0,7,0,7,0,,,,,,,7,,,0.2,2124.649946496942,Y,None,nogo,None,1,2125.4507609458233,,,,,,,,,,,,,,,,,10,001,21,m,Bsc. Psychologie 100%,2023-01-09_14h07.27.419,00_bat_bachelor,2022.2.4,60.03909456626929,
,,,,,,,,,,,,1,0,1,0,8,0,8,0,,,,,,,8,,,0.2,2125.6508410428323,X,d,go,d,1,,0.31817910109384684,,,,,,,,,,,,,,,,10,001,21,m,Bsc. Psychologie 100%,2023-01-09_14h07.27.419,00_bat_bachelor,2022.2.4,60.03909456626929,
,,,,,,,,,,,,1,0,1,0,9,0,9,0,,,,,,,9,,,0.2,2126.301305843055,Y,l,go,l,1,,0.4025500510906568,,,,,,,,,,,,,,,,10,001,21,m,Bsc. Psychologie 100%,2023-01-09_14h07.27.419,00_bat_bachelor,2022.2.4,60.03909456626929,
,,,,,,,,,,,,1,0,1,0,10,0,10,0,,,,,,,10,,,0.2,2127.035343532287,Y,None,nogo,None,1,2127.8357065870077,,,,,,,,,,,,,,,,,10,001,21,m,Bsc. Psychologie 100%,2023-01-09_14h07.27.419,00_bat_bachelor,2022.2.4,60.03909456626929,
,,,,,,,,,,,,1,0,1,0,11,0,11,0,,,,,,,11,,,0.2,2128.0358181991833,X,d,go,d,1,,0.3490532978794363,,,,,,,,,,,,,,,,10,001,21,m,Bsc. Psychologie 100%,2023-01-09_14h07.27.419,00_bat_bachelor,2022.2.4,60.03909456626929,
,,,,,,,,,,,,1,0,1,0,12,0,12,0,,,,,,,12,,,0.2,2128.7029530680993,Y,l,go,l,1,,0.3217757088968938,,,,,,,,,,,,,,,,10,001,21,m,Bsc. Psychologie 100%,2023-01-09_14h07.27.419,00_bat_bachelor,2022.2.4,60.03909456626929,
,,,,,,,,,,,,1,0,1,0,13,0,13,0,,,,,,,13,,,0.2,2129.370121391574,X,d,go,d,1,,0.45457431874092435,,,,,,,,,,,,,,,,10,001,21,m,Bsc. Psychologie 100%,2023-01-09_14h07.27.419,00_bat_bachelor,2022.2.4,60.03909456626929,
,,,,,,,,,,,,1,0,1,0,14,0,14,0,,,,,,,14,,,0.2,2130.170765173705,Y,l,go,l,1,,0.3413155971575179,,,,,,,,,,,,,,,,10,001,21,m,Bsc. Psychologie 100%,2023-01-09_14h07.27.419,00_bat_bachelor,2022.2.4,60.03909456626929,
,,,,,,,,,,,,1,0,1,0,15,0,15,0,,,,,,,15,,,0.2,2130.8549541114917,X,d,go,d,1,,0.39456992601117236,,,,,,,,,,,,,,,,10,001,21,m,Bsc. Psychologie 100%,2023-01-09_14h07.27.419,00_bat_bachelor,2022.2.4,60.03909456626929,
,,,,,,,,,,,,1,0,1,0,16,0,16,0,,,,,,,16,,,0.2,2131.5887915582025,Y,l,go,l,1,,0.39647877541938215,,,,,,,,,,,,,,,,10,001,21,m,Bsc. Psychologie 100%,2023-01-09_14h07.27.419,00_bat_bachelor,2022.2.4,60.03909456626929,
,,,,,,,,,,,,1,0,1,0,17,0,17,0,,,,,,,17,,,0.2,2132.32267118675,Y,None,nogo,l,0,,0.6537758698650578,,,,,,,,,,,,,,,,10,001,21,m,Bsc. Psychologie 100%,2023-01-09_14h07.27.419,00_bat_bachelor,2022.2.4,60.03909456626929,
,,,,,,,,,,,,1,0,1,0,18,0,18,0,,,,,,,18,,,0.2,2133.3065179667974,X,d,go,d,1,,0.4692725076820352,,,,,,,,,,,,,,,,10,001,21,m,Bsc. Psychologie 100%,2023-01-09_14h07.27.419,00_bat_bachelor,2022.2.4,60.03909456626929,
,,,,,,,,,,,,1,0,1,0,19,0,19,0,,,,,,,19,,,0.2,2134.107281021712,Y,l,go,l,1,,0.48568027321380214,,,,,,,,,,,,,,,,10,001,21,m,Bsc. Psychologie 100%,2023-01-09_14h07.27.419,00_bat_bachelor,2022.2.4,60.03909456626929,
,,,,,,,,,,,,1,0,1,0,20,0,20,0,,,,,,,20,,,0.2,2134.907939349305,X,d,go,d,1,,0.292468543171708,,,,,,,,,,,,,,,,10,001,21,m,Bsc. Psychologie 100%,2023-01-09_14h07.27.419,00_bat_bachelor,2022.2.4,60.03909456626929,
,,,,,,,,,,,,1,0,1,0,21,0,21,0,,,,,,,21,,,0.2,2135.541551777722,Y,l,go,l,1,,0.36397985056828475,,,,,,,,,,,,,,,,10,001,21,m,Bsc. Psychologie 100%,2023-01-09_14h07.27.419,00_bat_bachelor,2022.2.4,60.03909456626929,
,,,,,,,,,,,,1,0,1,0,22,0,22,0,,,,,,,22,,,0.2,2136.225425078992,Y,None,nogo,d,0,,0.41475320852259756,,,,,,,,,,,,,,,,10,001,21,m,Bsc. Psychologie 100%,2023-01-09_14h07.27.419,00_bat_bachelor,2022.2.4,60.03909456626929,
,,,,,,,,,,,,1,0,1,0,23,0,23,0,,,,,,,23,,,0.2,2136.9759427762147,X,d,go,None,0,2137.7770151646146,,,,,,,,,,,,,,,,,10,001,21,m,Bsc. Psychologie 100%,2023-01-09_14h07.27.419,00_bat_bachelor,2022.2.4,60.03909456626929,
,,,,,,,,,,,,1,0,1,0,24,0,24,0,,,,,,,24,,,0.2,2137.976930897905,Y,l,go,l,1,,0.5839920784565038,,,,,,,,,,,,,,,,10,001,21,m,Bsc. Psychologie 100%,2023-01-09_14h07.27.419,00_bat_bachelor,2022.2.4,60.03909456626929,
,,,,,,,,,,,,1,0,1,0,25,0,25,0,,,,,,,25,,,0.2,2138.8604139929266,Y,None,nogo,None,1,2139.6612546236393,,,,,,,,,,,,,,,,,10,001,21,m,Bsc. Psychologie 100%,2023-01-09_14h07.27.419,00_bat_bachelor,2022.2.4,60.03909456626929,
,,,,,,,,,,,,1,0,1,0,26,0,26,0,,,,,,,26,,,0.2,2139.8614472055488,X,d,go,d,1,,0.348096206504124,,,,,,,,,,,,,,,,10,001,21,m,Bsc. Psychologie 100%,2023-01-09_14h07.27.419,00_bat_bachelor,2022.2.4,60.03909456626929,
,,,,,,,,,,,,1,0,1,0,27,0,27,0,,,,,,,27,,,0.2,2140.5118581875686,Y,l,go,l,1,,0.40227271762341843,,,,,,,,,,,,,,,,10,001,21,m,Bsc. Psychologie 100%,2023-01-09_14h07.27.419,00_bat_bachelor,2022.2.4,60.03909456626929,
,,,,,,,,,,,,1,0,1,0,28,0,28,0,,,,,,,28,,,0.2,2141.2286415654016,X,d,go,d,1,,0.5163988335625618,,,,,,,,,,,,,,,,10,001,21,m,Bsc. Psychologie 100%,2023-01-09_14h07.27.419,00_bat_bachelor,2022.2.4,60.03909456626929,
,,,,,,,,,,,,1,0,1,0,29,0,29,0,,,,,,,29,,,0.2,2142.045857961628,Y,l,go,l,1,,0.6430485919372586,,,,,,,,,,,,,,,,10,001,21,m,Bsc. Psychologie 100%,2023-01-09_14h07.27.419,00_bat_bachelor,2022.2.4,60.03909456626929,
,,,,,,,,,,,,1,0,1,0,30,0,30,0,,,,,,,30,,,0.2,2142.996672483234,X,d,go,d,1,,0.6522490812494652,,,,,,,,,,,,,,,,10,001,21,m,Bsc. Psychologie 100%,2023-01-09_14h07.27.419,00_bat_bachelor,2022.2.4,60.03909456626929,
,,,,,,,,,,,,1,0,1,0,31,0,31,0,,,,,,,31,,,0.2,2143.9641284674544,Y,l,go,l,1,,0.5489084250839369,,,,,,,,,,,,,,,,10,001,21,m,Bsc. Psychologie 100%,2023-01-09_14h07.27.419,00_bat_bachelor,2022.2.4,60.03909456626929,
,,,,,,,,,,,,1,0,1,0,32,0,32,0,,,,,,,32,,,0.2,2144.8148920314634,X,d,go,d,1,,0.4981704610872839,,,,,,,,,,,,,,,,10,001,21,m,Bsc. Psychologie 100%,2023-01-09_14h07.27.419,00_bat_bachelor,2022.2.4,60.03909456626929,
,,,,,,,,,,,,1,0,1,0,33,0,33,0,,,,,,,33,,,0.2,2145.6155668439096,X,None,nogo,l,0,,0.45045165007104515,,,,,,,,,,,,,,,,10,001,21,m,Bsc. Psychologie 100%,2023-01-09_14h07.27.419,00_bat_bachelor,2022.2.4,60.03909456626929,
,,,,,,,,,,,,1,0,1,0,34,0,34,0,,,,,,,34,,,0.2,2146.3660947229546,Y,l,go,None,0,2147.166689050515,,,,,,,,,,,,,,,,,10,001,21,m,Bsc. Psychologie 100%,2023-01-09_14h07.27.419,00_bat_bachelor,2022.2.4,60.03909456626929,
,,,,,,,,,,,,1,0,1,0,35,0,35,0,,,,,,,35,,,0.2,2147.3666455111015,X,d,go,d,1,,0.4914402760077792,,,,,,,,,,,,,,,,10,001,21,m,Bsc. Psychologie 100%,2023-01-09_14h07.27.419,00_bat_bachelor,2022.2.4,60.03909456626929,
,,,,,,,,,,,,1,0,1,0,36,0,36,0,,,,,,,36,,,0.2,2148.1672892932293,X,None,nogo,None,1,2148.968072226944,,,,,,,,,,,,,,,,,10,001,21,m,Bsc. Psychologie 100%,2023-01-09_14h07.27.419,00_bat_bachelor,2022.2.4,60.03909456626929,
,,,,,,,,,,,,1,0,1,0,37,0,37,0,,,,,,,37,,,0.2,2149.1682633543096,X,None,nogo,None,1,,,,,,,,,,,,,,,,,,10,001,21,m,Bsc. Psychologie 100%,2023-01-09_14h07.27.419,00_bat_bachelor,2022.2.4,60.03909456626929,
,,,,,,,,,,,,1,0,1,0,38,0,38,0,,,,,,,38,,,0.2,2150.169266021461,Y,l,go,l,1,,0.3115439463617804,,,,,,,,,,,,,,,,10,001,21,m,Bsc. Psychologie 100%,2023-01-09_14h07.27.419,00_bat_bachelor,2022.2.4,60.03909456626929,
,,,,,,,,,,,,1,0,1,0,39,0,39,0,,,,,,,39,,,0.2,2150.786465835863,X,d,go,d,1,,0.4312550347058277,,,,,,,,,,,,,,,,10,001,21,m,Bsc. Psychologie 100%,2023-01-09_14h07.27.419,00_bat_bachelor,2022.2.4,60.03909456626929,
,,,,,,,,,,,,1,0,1,0,40,0,40,0,,,,,,,40,,,0.2,2151.520005585455,Y,l,go,l,1,,0.4821137260332762,,,,,,,,,,,,,,,,10,001,21,m,Bsc. Psychologie 100%,2023-01-09_14h07.27.419,00_bat_bachelor,2022.2.4,60.03909456626929,
,,,,,,,,,,,,1,0,1,0,41,0,41,0,,,,,,,41,,,0.2,2152.3038483897435,X,d,go,d,1,,0.5778912270143337,,,,,,,,,,,,,,,,10,001,21,m,Bsc. Psychologie 100%,2023-01-09_14h07.27.419,00_bat_bachelor,2022.2.4,60.03909456626929,
,,,,,,,,,,,,1,0,1,0,42,0,42,0,,,,,,,42,,,0.2,2153.1879491820364,X,None,nogo,None,1,,,,,,,,,,,,,,,,,,10,001,21,m,Bsc. Psychologie 100%,2023-01-09_14h07.27.419,00_bat_bachelor,2022.2.4,60.03909456626929,
,,,,,,,,,,,,1,0,1,0,43,0,43,0,,,,,,,43,,,0.2,2154.188673061173,Y,l,go,l,1,,0.3086382479814347,,,,,,,,,,,,,,,,10,001,21,m,Bsc. Psychologie 100%,2023-01-09_14h07.27.419,00_bat_bachelor,2022.2.4,60.03909456626929,
,,,,,,,,,,,,1,0,1,0,44,0,44,0,,,,,,,44,,,0.2,2154.8064328758446,X,d,go,d,1,,0.393785925629345,,,,,,,,,,,,,,,,10,001,21,m,Bsc. Psychologie 100%,2023-01-09_14h07.27.419,00_bat_bachelor,2022.2.4,60.03909456626929,
,,,,,,,,,,,,1,0,1,0,45,0,45,0,,,,,,,45,,,0.2,2155.5403905650383,X,None,nogo,l,0,,0.34828044901951216,,,,,,,,,,,,,,,,10,001,21,m,Bsc. Psychologie 100%,2023-01-09_14h07.27.419,00_bat_bachelor,2022.2.4,60.03909456626929,
,,,,,,,,,,,,1,0,1,0,46,0,46,0,,,,,,,46,,,0.2,2156.223985563145,X,None,nogo,d,0,,0.5761554685959709,,,,,,,,,,,,,,,,10,001,21,m,Bsc. Psychologie 100%,2023-01-09_14h07.27.419,00_bat_bachelor,2022.2.4,60.03909456626929,
,,,,,,,,,,,,1,0,1,0,47,0,47,0,,,,,,,47,,,0.2,2157.1413411594367,Y,l,go,l,1,,0.39572192656851257,,,,,,,,,,,,,,,,10,001,21,m,Bsc. Psychologie 100%,2023-01-09_14h07.27.419,00_bat_bachelor,2022.2.4,60.03909456626929,
,,,,,,,,,,,,1,0,1,0,48,0,48,0,,,,,,,48,,,0.2,2157.858747083028,X,d,go,d,1,,0.3656486998661421,,,,,,,,,,,,,,,,10,001,21,m,Bsc. Psychologie 100%,2023-01-09_14h07.27.419,00_bat_bachelor,2022.2.4,60.03909456626929,
,,,,,,,,,,,,1,0,1,0,49,0,49,0,,,,,,,49,,,0.2,2158.5593365136156,X,None,nogo,None,1,2159.3598571441726,,,,,,,,,,,,,,,,,10,001,21,m,Bsc. Psychologie 100%,2023-01-09_14h07.27.419,00_bat_bachelor,2022.2.4,60.03909456626929,
,,,,,,,,,,,,1,0,1,0,50,0,50,0,,,,,,,50,,,0.2,2159.5595236652225,Y,l,go,l,1,,0.24924282524443697,,,,,,,,,,,,,,,,10,001,21,m,Bsc. Psychologie 100%,2023-01-09_14h07.27.419,00_bat_bachelor,2022.2.4,60.03909456626929,
,,,,,,,,,,,,1,0,1,0,51,0,51,0,,,,,,,51,,,0.2,2160.126751091757,X,d,go,d,1,,0.5310819921942311,,,,,,,,,,,,,,,,10,001,21,m,Bsc. Psychologie 100%,2023-01-09_14h07.27.419,00_bat_bachelor,2022.2.4,60.03909456626929,
,,,,,,,,,,,,1,0,1,0,52,0,52,0,,,,,,,52,,,0.2,2160.960600708171,X,None,nogo,None,1,2161.761169338748,,,,,,,,,,,,,,,,,10,001,21,m,Bsc. Psychologie 100%,2023-01-09_14h07.27.419,00_bat_bachelor,2022.2.4,60.03909456626929,
,,,,,,,,,,,,1,0,1,0,53,0,53,0,,,,,,,53,,,0.2,2161.9613304054947,Y,l,go,l,1,,0.32807583316389355,,,,,,,,,,,,,,,,10,001,21,m,Bsc. Psychologie 100%,2023-01-09_14h07.27.419,00_bat_bachelor,2022.2.4,60.03909456626929,
,,,,,,,,,,,,1,0,1,0,54,0,54,0,,,,,,,54,,,0.2,2162.5952691370985,X,d,go,d,1,,0.43022327663129545,,,,,,,,,,,,,,,,10,001,21,m,Bsc. Psychologie 100%,2023-01-09_14h07.27.419,00_bat_bachelor,2022.2.4,60.03909456626929,
,,,,,,,,,,,,1,0,1,0,55,0,55,0,,,,,,,55,,,0.2,2163.328842826104,Y,l,go,l,1,,0.4167624216170225,,,,,,,,,,,,,,,,10,001,21,m,Bsc. Psychologie 100%,2023-01-09_14h07.27.419,00_bat_bachelor,2022.2.4,60.03909456626929,
,,,,,,,,,,,,1,0,1,0,56,0,56,0,,,,,,,56,,,0.2,2164.0461847496663,Y,None,nogo,d,0,,0.45115322617130005,,,,,,,,,,,,,,,,10,001,21,m,Bsc. Psychologie 100%,2023-01-09_14h07.27.419,00_bat_bachelor,2022.2.4,60.03909456626929,
,,,,,,,,,,,,1,0,1,0,57,0,57,0,,,,,,,57,,,0.2,2164.8130830608898,X,d,go,l,0,,0.4035405970244028,,,,,,,,,,,,,,,,10,001,21,m,Bsc. Psychologie 100%,2023-01-09_14h07.27.419,00_bat_bachelor,2022.2.4,60.03909456626929,
,,,,,,,,,,,,1,0,1,0,58,0,58,0,,,,,,,58,,,0.2,2165.5306324997,Y,l,go,d,0,,0.5343765392499336,,,,,,,,,,,,,,,,10,001,21,m,Bsc. Psychologie 100%,2023-01-09_14h07.27.419,00_bat_bachelor,2022.2.4,60.03909456626929,
,,,,,,,,,,,,1,0,1,0,59,0,59,0,,,,,,,59,,,0.2,2166.381329154585,X,d,go,None,0,2167.181539481957,,,,,,,,,,,,,,,,,10,001,21,m,Bsc. Psychologie 100%,2023-01-09_14h07.27.419,00_bat_bachelor,2022.2.4,60.03909456626929,
,,,,,,,,,,,,1,0,1,0,60,0,60,0,,,,,,,60,,,0.2,2167.3820195791595,Y,l,go,l,1,,0.3960845934088866,,,,,,,,,,,,,,,,10,001,21,m,Bsc. Psychologie 100%,2023-01-09_14h07.27.419,00_bat_bachelor,2022.2.4,60.03909456626929,
,,,,,,,,,,,,1,0,1,0,61,0,61,0,,,,,,,61,,,0.2,2168.0997120483444,Y,None,nogo,l,0,,0.3972792606582516,,,,,,,,,,,,,,,,10,001,21,m,Bsc. Psychologie 100%,2023-01-09_14h07.27.419,00_bat_bachelor,2022.2.4,60.03909456626929,
,,,,,,,,,,,,1,0,1,0,62,0,62,0,,,,,,,62,,,0.2,2168.8335732526393,X,d,go,d,1,,0.415138178406778,,,,,,,,,,,,,,,,10,001,21,m,Bsc. Psychologie 100%,2023-01-09_14h07.27.419,00_bat_bachelor,2022.2.4,60.03909456626929,
,,,,,,,,,,,,1,0,1,0,63,0,63,0,,,,,,,63,,,0.2,2169.5846461016445,Y,l,go,l,1,,0.3044389732203854,,,,,,,,,,,,,,,,10,001,21,m,Bsc. Psychologie 100%,2023-01-09_14h07.27.419,00_bat_bachelor,2022.2.4,60.03909456626929,
,,,,,,,,,,,,1,0,1,0,64,0,64,0,,,,,,,64,,,0.2,2170.2350915079223,Y,None,nogo,None,1,2171.0352722595235,,,,,,,,,,,,,,,,,10,001,21,m,Bsc. Psychologie 100%,2023-01-09_14h07.27.419,00_bat_bachelor,2022.2.4,60.03909456626929,
,,,,,,,,,,,,1,0,1,0,65,0,65,0,,,,,,,65,,,0.2,2171.2356432657652,X,d,go,d,1,,0.30193327503366163,,,,,,,,,,,,,,,,10,001,21,m,Bsc. Psychologie 100%,2023-01-09_14h07.27.419,00_bat_bachelor,2022.2.4,60.03909456626929,
,,,,,,,,,,,,1,0,1,0,66,0,66,0,,,,,,,66,,,0.2,2171.852546837599,Y,l,go,l,1,,0.4518111658835551,,,,,,,,,,,,,,,,10,001,21,m,Bsc. Psychologie 100%,2023-01-09_14h07.27.419,00_bat_bachelor,2022.2.4,60.03909456626929,
,,,,,,,,,,,,1,0,1,0,67,0,67,0,,,,,,,67,,,0.2,2172.6365249146766,Y,None,nogo,None,1,2173.43742906057,,,,,,,,,,,,,,,,,10,001,21,m,Bsc. Psychologie 100%,2023-01-09_14h07.27.419,00_bat_bachelor,2022.2.4,60.03909456626929,
,,,,,,,,,,,,1,0,1,0,68,0,68,0,,,,,,,68,,,0.2,2173.637474248473,X,d,go,d,1,,0.25204961448253016,,,,,,,,,,,,,,,,10,001,21,m,Bsc. Psychologie 100%,2023-01-09_14h07.27.419,00_bat_bachelor,2022.2.4,60.03909456626929,
,,,,,,,,,,,,1,0,1,0,69,0,69,0,,,,,,,69,,,0.2,2174.204319614215,Y,l,go,l,1,,0.3880807107416331,,,,,,,,,,,,,,,,10,001,21,m,Bsc. Psychologie 100%,2023-01-09_14h07.27.419,00_bat_bachelor,2022.2.4,60.03909456626929,
,,,,,,,,,,,,1,0,1,0,70,0,70,0,,,,,,,70,,,0.2,2174.9384707580466,X,d,go,d,1,,0.3909616818345967,,,,,,,,,,,,,,,,10,001,21,m,Bsc. Psychologie 100%,2023-01-09_14h07.27.419,00_bat_bachelor,2022.2.4,60.03909456626929,
,,,,,,,,,,,,1,0,1,0,71,0,71,0,,,,,,,71,,,0.2,2175.655722984593,Y,l,go,None,0,2176.4560942817407,,,,,,,,,,,,,,,,,10,001,21,m,Bsc. Psychologie 100%,2023-01-09_14h07.27.419,00_bat_bachelor,2022.2.4,60.03909456626929,
,,,,,,,,,,,,1,0,1,0,72,0,72,0,,,,,,,72,,,0.2,2176.6562311060516,Y,None,nogo,l,0,,0.43199491385166766,,,,,,,,,,,,,,,,10,001,21,m,Bsc. Psychologie 100%,2023-01-09_14h07.27.419,00_bat_bachelor,2022.2.4,60.03909456626929,
,,,,,,,,,,,,1,0,1,0,73,0,73,0,,,,,,,73,,,0.2,2177.406933530634,Y,None,nogo,None,1,2178.2076796158435,,,,,,,,,,,,,,,,,10,001,21,m,Bsc. Psychologie 100%,2023-01-09_14h07.27.419,00_bat_bachelor,2022.2.4,60.03909456626929,
,,,,,,,,,,,,1,0,1,0,74,0,74,0,,,,,,,74,,,0.2,2178.4077888037755,X,d,go,d,1,,0.29651315119554056,,,,,,,,,,,,,,,,10,001,21,m,Bsc. Psychologie 100%,2023-01-09_14h07.27.419,00_bat_bachelor,2022.2.4,60.03909456626929,
,,,,,,,,,,,,1,0,1,0,75,0,75,0,,,,,,,75,,,0.2,2179.0413493533815,Y,l,go,l,1,,0.3033373969265085,,,,,,,,,,,,,,,,10,001,21,m,Bsc. Psychologie 100%,2023-01-09_14h07.27.419,00_bat_bachelor,2022.2.4,60.03909456626929,
,,,,,,,,,,,,1,0,1,0,76,0,76,0,,,,,,,76,,,0.2,2179.6755140244895,Y,None,nogo,d,0,,0.34108044552704087,,,,,,,,,,,,,,,,10,001,21,m,Bsc. Psychologie 100%,2023-01-09_14h07.27.419,00_bat_bachelor,2022.2.4,60.03909456626929,
,,,,,,,,,,,,1,0,1,0,77,0,77,0,,,,,,,77,,,0.2,2180.359042113476,X,d,go,d,1,,0.37697912960356916,,,,,,,,,,,,,,,,10,001,21,m,Bsc. Psychologie 100%,2023-01-09_14h07.27.419,00_bat_bachelor,2022.2.4,60.03909456626929,
,,,,,,,,,,,,1,0,1,0,78,0,78,0,,,,,,,78,,,0.2,2181.0764427037284,Y,l,go,l,1,,0.3813316165615106,,,,,,,,,,,,,,,,10,001,21,m,Bsc. Psychologie 100%,2023-01-09_14h07.27.419,00_bat_bachelor,2022.2.4,60.03909456626929,
,,,,,,,,,,,,1,0,1,0,79,0,79,0,,,,,,,79,,,0.2,2181.7770122555194,Y,None,nogo,None,1,2182.5777830680163,,,,,,,,,,,,,,,,,10,001,21,m,Bsc. Psychologie 100%,2023-01-09_14h07.27.419,00_bat_bachelor,2022.2.4,60.03909456626929,
,,,,,,,,,,,,1,0,1,0,80,0,80,0,,,,,,,80,,,0.2,2182.777740983147,X,d,go,d,1,,0.3591691815745435,,,,,,,,,,,,,,,,10,001,21,m,Bsc. Psychologie 100%,2023-01-09_14h07.27.419,00_bat_bachelor,2022.2.4,60.03909456626929,
,,,,,,,,,,,,1,0,1,0,81,0,81,0,,,,,,,81,,,0.2,2183.4783551410183,Y,l,go,l,1,,0.28238611403867253,,,,,,,,,,,,,,,,10,001,21,m,Bsc. Psychologie 100%,2023-01-09_14h07.27.419,00_bat_bachelor,2022.2.4,60.03909456626929,
,,,,,,,,,,,,1,0,1,0,82,0,82,0,,,,,,,82,,,0.2,2184.095345500773,Y,None,nogo,None,1,2184.8958297676727,,,,,,,,,,,,,,,,,10,001,21,m,Bsc. Psychologie 100%,2023-01-09_14h07.27.419,00_bat_bachelor,2022.2.4,60.03909456626929,
,,,,,,,,,,,,1,0,1,0,83,0,83,0,,,,,,,83,,,0.2,2185.09643059221,X,d,go,d,1,,0.584788684904197,,,,,,,,,,,,,,,,10,001,21,m,Bsc. Psychologie 100%,2023-01-09_14h07.27.419,00_bat_bachelor,2022.2.4,60.03909456626929,
,,,,,,,,,,,,1,0,1,0,84,0,84,0,,,,,,,84,,,0.2,2186.0133522488977,Y,l,go,l,1,,0.19566364775164402,,,,,,,,,,,,,,,,10,001,21,m,Bsc. Psychologie 100%,2023-01-09_14h07.27.419,00_bat_bachelor,2022.2.4,60.03909456626929,
,,,,,,,,,,,,1,0,1,0,85,0,85,0,,,,,,,85,,,0.2,2186.5307095906464,X,d,go,d,1,,0.3021761842428532,,,,,,,,,,,,,,,,10,001,21,m,Bsc. Psychologie 100%,2023-01-09_14h07.27.419,00_bat_bachelor,2022.2.4,60.03909456626929,
,,,,,,,,,,,,1,0,1,0,86,0,86,0,,,,,,,86,,,0.2,2187.1642008068848,Y,l,go,l,1,,0.21186777682305546,,,,,,,,,,,,,,,,10,001,21,m,Bsc. Psychologie 100%,2023-01-09_14h07.27.419,00_bat_bachelor,2022.2.4,60.03909456626929,
,,,,,,,,,,,,1,0,1,0,87,0,87,0,,,,,,,87,,,0.2,2187.7146432555855,Y,None,nogo,d,0,,0.38141549539068365,,,,,,,,,,,,,,,,10,001,21,m,Bsc. Psychologie 100%,2023-01-09_14h07.27.419,00_bat_bachelor,2022.2.4,60.03909456626929,
,,,,,,,,,,,,1,0,1,0,88,0,88,0,,,,,,,88,,,0.2,2188.4318436033172,X,d,go,l,0,,0.3681800950325851,,,,,,,,,,,,,,,,10,001,21,m,Bsc. Psychologie 100%,2023-01-09_14h07.27.419,00_bat_bachelor,2022.2.4,60.03909456626929,
,,,,,,,,,,,,1,0,1,0,89,0,89,0,,,,,,,89,,,0.2,2189.1326051552023,Y,l,go,None,0,2189.9333124525147,,,,,,,,,,,,,,,,,10,001,21,m,Bsc. Psychologie 100%,2023-01-09_14h07.27.419,00_bat_bachelor,2022.2.4,60.03909456626929,
,,,,,,,,,,,,1,0,1,0,90,0,90,0,,,,,,,90,,,0.2,2190.1334512162175,Y,None,nogo,None,1,2190.9340639680304,,,,,,,,,,,,,,,,,10,001,21,m,Bsc. Psychologie 100%,2023-01-09_14h07.27.419,00_bat_bachelor,2022.2.4,60.03909456626929,
,,,,,,,,,,,,1,0,1,0,91,0,91,0,,,,,,,91,,,0.2,2191.1339283073576,X,d,go,d,1,,0.2902678148348059,,,,,,,,,,,,,,,,10,001,21,m,Bsc. Psychologie 100%,2023-01-09_14h07.27.419,00_bat_bachelor,2022.2.4,60.03909456626929,
,,,,,,,,,,,,1,0,1,0,92,0,92,0,,,,,,,92,,,0.2,2191.751289576383,Y,l,go,l,1,,0.24912306760961656,,,,,,,,,,,,,,,,10,001,21,m,Bsc. Psychologie 100%,2023-01-09_14h07.27.419,00_bat_bachelor,2022.2.4,60.03909456626929,
,,,,,,,,,,,,1,0,1,0,93,0,93,0,,,,,,,93,,,0.2,2192.3349688896815,Y,None,nogo,d,0,,0.22517881357634906,,,,,,,,,,,,,,,,10,001,21,m,Bsc. Psychologie 100%,2023-01-09_14h07.27.419,00_bat_bachelor,2022.2.4,60.03909456626929,
,,,,,,,,,,,,1,0,1,0,94,0,94,0,,,,,,,94,,,0.2,2192.8852959443866,X,d,go,d,1,,0.5714223753930128,,,,,,,,,,,,,,,,10,001,21,m,Bsc. Psychologie 100%,2023-01-09_14h07.27.419,00_bat_bachelor,2022.2.4,60.03909456626929,
,,,,,,,,,,,,1,0,1,0,95,0,95,0,,,,,,,95,,,0.2,2193.8028992983745,Y,l,go,l,1,,0.4071279927047726,,,,,,,,,,,,,,,,10,001,21,m,Bsc. Psychologie 100%,2023-01-09_14h07.27.419,00_bat_bachelor,2022.2.4,60.03909456626929,
,,,,,,,,,,,,1,0,1,0,96,0,96,0,,,,,,,96,,,0.2,2194.5365893510716,X,d,go,None,0,2195.3371390725515,,,,,,,,,,,,,,,,,10,001,21,m,Bsc. Psychologie 100%,2023-01-09_14h07.27.419,00_bat_bachelor,2022.2.4,60.03909456626929,
,,,,,,,,,,,,1,0,1,0,97,0,97,0,,,,,,,97,,,0.2,2195.5374858363575,X,None,nogo,d,0,,0.287813025766809,,,,,,,,,,,,,,,,10,001,21,m,Bsc. Psychologie 100%,2023-01-09_14h07.27.419,00_bat_bachelor,2022.2.4,60.03909456626929,
,,,,,,,,,,,,1,0,1,0,98,0,98,0,,,,,,,98,,,0.2,2196.15441122638,Y,l,go,l,1,,0.5346053878420207,,,,,,,,,,,,,,,,10,001,21,m,Bsc. Psychologie 100%,2023-01-09_14h07.27.419,00_bat_bachelor,2022.2.4,60.03909456626929,
,,,,,,,,,,,,1,0,1,0,99,0,99,0,,,,,,,99,,,0.2,2197.0387142005893,X,d,go,d,1,,0.29111484554596245,,,,,,,,,,,,,,,,10,001,21,m,Bsc. Psychologie 100%,2023-01-09_14h07.27.419,00_bat_bachelor,2022.2.4,60.03909456626929,
,,,,,,,,,,,,1,0,1,0,100,0,100,0,,,,,,,100,,,0.2,2197.6556003178666,X,None,nogo,l,0,,0.15305368769986671,,,,,,,,,,,,,,,,10,001,21,m,Bsc. Psychologie 100%,2023-01-09_14h07.27.419,00_bat_bachelor,2022.2.4,60.03909456626929,
,,,,,,,,,,,,1,0,1,0,101,0,101,0,,,,,,,101,,,0.2,2198.155961287739,Y,l,go,None,0,2198.9567820396514,,,,,,,,,,,,,,,,,10,001,21,m,Bsc. Psychologie 100%,2023-01-09_14h07.27.419,00_bat_bachelor,2022.2.4,60.03909456626929,
,,,,,,,,,,,,1,0,1,0,102,0,102,0,,,,,,,102,,,0.2,2199.1567608032783,X,d,go,d,1,,0.5248332618975837,,,,,,,,,,,,,,,,10,001,21,m,Bsc. Psychologie 100%,2023-01-09_14h07.27.419,00_bat_bachelor,2022.2.4,60.03909456626929,
,,,,,,,,,,,,1,0,1,0,103,0,103,0,,,,,,,103,,,0.2,2199.990858662233,Y,l,go,l,1,,0.39429744102744735,,,,,,,,,,,,,,,,10,001,21,m,Bsc. Psychologie 100%,2023-01-09_14h07.27.419,00_bat_bachelor,2022.2.4,60.03909456626929,
,,,,,,,,,,,,1,0,1,0,104,0,104,0,,,,,,,104,,,0.2,2200.7245700482745,Y,None,nogo,None,1,2201.5254329820273,,,,,,,,,,,,,,,,,10,001,21,m,Bsc. Psychologie 100%,2023-01-09_14h07.27.419,00_bat_bachelor,2022.2.4,60.03909456626929,
,,,,,,,,,,,,1,0,1,0,105,0,105,0,,,,,,,105,,,0.2,2201.725600836653,Y,None,nogo,None,1,2202.525887285279,,,,,,,,,,,,,,,,,10,001,21,m,Bsc. Psychologie 100%,2023-01-09_14h07.27.419,00_bat_bachelor,2022.2.4,60.03909456626929,
,,,,,,,,,,,,1,0,1,0,106,0,106,0,,,,,,,106,,,0.2,2202.7260396247475,X,d,go,d,1,,0.4595556544882129,,,,,,,,,,,,,,,,10,001,21,m,Bsc. Psychologie 100%,2023-01-09_14h07.27.419,00_bat_bachelor,2022.2.4,60.03909456626929,
,,,,,,,,,,,,1,0,1,0,107,0,107,0,,,,,,,107,,,0.2,2203.4932879967455,Y,l,go,None,0,2204.293720384834,,,,,,,,,,,,,,,,,10,001,21,m,Bsc. Psychologie 100%,2023-01-09_14h07.27.419,00_bat_bachelor,2022.2.4,60.03909456626929,
,,,,,,,,,,,,1,0,1,0,108,0,108,0,,,,,,,108,,,0.2,2204.494085088041,Y,None,nogo,l,0,,0.49867130981510854,,,,,,,,,,,,,,,,10,001,21,m,Bsc. Psychologie 100%,2023-01-09_14h07.27.419,00_bat_bachelor,2022.2.4,60.03909456626929,
,,,,,,,,,,,,1,0,1,0,109,0,109,0,,,,,,,109,,,0.2,2205.3281747045694,Y,None,nogo,l,0,,0.6080953628697898,,,,,,,,,,,,,,,,10,001,21,m,Bsc. Psychologie 100%,2023-01-09_14h07.27.419,00_bat_bachelor,2022.2.4,60.03909456626929,
,,,,,,,,,,,,1,0,1,0,110,0,110,0,,,,,,,110,,,0.2,2206.2790556504515,X,d,go,None,0,2207.0797862205,,,,,,,,,,,,,,,,,10,001,21,m,Bsc. Psychologie 100%,2023-01-09_14h07.27.419,00_bat_bachelor,2022.2.4,60.03909456626929,
,,,,,,,,,,,,1,0,1,0,111,0,111,0,,,,,,,111,,,0.2,2207.2798134689983,Y,l,go,l,1,,0.6256391289534804,,,,,,,,,,,,,,,,10,001,21,m,Bsc. Psychologie 100%,2023-01-09_14h07.27.419,00_bat_bachelor,2022.2.4,60.03909456626929,
,,,,,,,,,,,,1,0,1,0,112,0,112,0,,,,,,,112,,,0.2,2208.2138168309393,Y,None,nogo,None,1,2209.0142550372148,,,,,,,,,,,,,,,,,10,001,21,m,Bsc. Psychologie 100%,2023-01-09_14h07.27.419,00_bat_bachelor,2022.2.4,60.03909456626929,
,,,,,,,,,,,,1,0,1,0,113,0,113,0,,,,,,,113,,,0.2,2209.2144233766885,X,d,go,d,1,,0.24244621589241433,,,,,,,,,,,,,,,,10,001,21,m,Bsc. Psychologie 100%,2023-01-09_14h07.27.419,00_bat_bachelor,2022.2.4,60.03909456626929,
,,,,,,,,,,,,1,0,1,0,114,0,114,0,,,,,,,114,,,0.2,2209.798398932555,Y,l,go,l,1,,0.5382931472086057,,,,,,,,,,,,,,,,10,001,21,m,Bsc. Psychologie 100%,2023-01-09_14h07.27.419,00_bat_bachelor,2022.2.4,60.03909456626929,
,,,,,,,,,,,,1,0,1,0,115,0,115,0,,,,,,,115,,,0.2,2210.665682746996,X,d,go,d,1,,0.518511319438403,,,,,,,,,,,,,,,,10,001,21,m,Bsc. Psychologie 100%,2023-01-09_14h07.27.419,00_bat_bachelor,2022.2.4,60.03909456626929,
,,,,,,,,,,,,1,0,1,0,116,0,116,0,,,,,,,116,,,0.2,2211.5164215837176,X,None,nogo,l,0,,0.3886901655823749,,,,,,,,,,,,,,,,10,001,21,m,Bsc. Psychologie 100%,2023-01-09_14h07.27.419,00_bat_bachelor,2022.2.4,60.03909456626929,
,,,,,,,,,,,,1,0,1,0,117,0,117,0,,,,,,,117,,,0.2,2212.250036484864,Y,l,go,d,0,,0.4379314015786804,,,,,,,,,,,,,,,,10,001,21,m,Bsc. Psychologie 100%,2023-01-09_14h07.27.419,00_bat_bachelor,2022.2.4,60.03909456626929,
,,,,,,,,,,,,1,0,1,0,118,0,118,0,,,,,,,118,,,0.2,2213.034153713528,X,d,go,d,1,,0.5988589947555738,,,,,,,,,,,,,,,,10,001,21,m,Bsc. Psychologie 100%,2023-01-09_14h07.27.419,00_bat_bachelor,2022.2.4,60.03909456626929,
,,,,,,,,,,,,1,0,1,0,119,0,119,0,,,,,,,119,,,0.2,2213.9680082269115,Y,l,go,None,0,2214.768987524356,,,,,,,,,,,,,,,,,10,001,21,m,Bsc. Psychologie 100%,2023-01-09_14h07.27.419,00_bat_bachelor,2022.2.4,60.03909456626929,
,,,,,,,,,,,,1,0,1,0,120,0,120,0,,,,,,,120,,,0.2,2214.969050166812,Y,None,nogo,None,1,2215.7694326154815,,,,,,,,,,,,,,,,,10,001,21,m,Bsc. Psychologie 100%,2023-01-09_14h07.27.419,00_bat_bachelor,2022.2.4,60.03909456626929,
,,,,,,,,,,,,1,0,1,0,121,0,121,0,,,,,,,121,,,0.2,2215.9695243488604,X,d,go,d,1,,0.27134562383798766,,,,,,,,,,,,,,,,10,001,21,m,Bsc. Psychologie 100%,2023-01-09_14h07.27.419,00_bat_bachelor,2022.2.4,60.03909456626929,
,,,,,,,,,,,,1,0,1,0,122,0,122,0,,,,,,,122,,,0.2,2216.5866897390006,Y,l,go,l,1,,0.533408296356356,,,,,,,,,,,,,,,,10,001,21,m,Bsc. Psychologie 100%,2023-01-09_14h07.27.419,00_bat_bachelor,2022.2.4,60.03909456626929,
,,,,,,,,,,,,1,0,1,0,123,0,123,0,,,,,,,123,,,0.2,2217.437559969727,Y,None,nogo,None,1,2218.237933691118,,,,,,,,,,,,,,,,,10,001,21,m,Bsc. Psychologie 100%,2023-01-09_14h07.27.419,00_bat_bachelor,2022.2.4,60.03909456626929,
,,,,,,,,,,,,1,0,1,0,124,0,124,0,,,,,,,124,,,0.2,2218.438121909392,X,d,go,d,1,,0.36315027441378334,,,,,,,,,,,,,,,,10,001,21,m,Bsc. Psychologie 100%,2023-01-09_14h07.27.419,00_bat_bachelor,2022.2.4,60.03909456626929,
,,,,,,,,,,,,1,0,1,0,125,0,125,0,,,,,,,125,,,0.2,2219.105542354202,Y,l,go,l,1,,0.5587605510700087,,,,,,,,,,,,,,,,10,001,21,m,Bsc. Psychologie 100%,2023-01-09_14h07.27.419,00_bat_bachelor,2022.2.4,60.03909456626929,
,,,,,,,,,,,,1,0,1,0,126,0,126,0,,,,,,,126,,,0.2,2219.9894841161113,X,d,go,d,1,,0.5242979889080743,,,,,,,,,,,,,,,,10,001,21,m,Bsc. Psychologie 100%,2023-01-09_14h07.27.419,00_bat_bachelor,2022.2.4,60.03909456626929,
,,,,,,,,,,,,1,0,1,0,127,0,127,0,,,,,,,127,,,0.2,2220.8401827103917,X,None,nogo,None,1,2221.640771704617,,,,,,,,,,,,,,,,,10,001,21,m,Bsc. Psychologie 100%,2023-01-09_14h07.27.419,00_bat_bachelor,2022.2.4,60.03909456626929,
,,,,,,,,,,,,1,0,1,0,128,0,128,0,,,,,,,128,,,0.2,2221.8409056198325,X,None,nogo,None,1,2222.641718129318,,,,,,,,,,,,,,,,,10,001,21,m,Bsc. Psychologie 100%,2023-01-09_14h07.27.419,00_bat_bachelor,2022.2.4,60.03909456626929,
,,,,,,,,,,,,1,0,1,0,129,0,129,0,,,,,,,129,,,0.2,2222.8416164080554,Y,l,go,l,1,,0.343811598369939,,,,,,,,,,,,,,,,10,001,21,m,Bsc. Psychologie 100%,2023-01-09_14h07.27.419,00_bat_bachelor,2022.2.4,60.03909456626929,
,,,,,,,,,,,,1,0,1,0,130,0,130,0,,,,,,,130,,,0.2,2223.508572852639,X,d,go,None,0,2224.3096665743833,,,,,,,,,,,,,,,,,10,001,21,m,Bsc. Psychologie 100%,2023-01-09_14h07.27.419,00_bat_bachelor,2022.2.4,60.03909456626929,
,,,,,,,,,,,,1,0,1,0,131,0,131,0,,,,,,,131,,,0.2,2224.50980436839,Y,l,go,l,1,,0.38738349828054197,,,,,,,,,,,,,,,,10,001,21,m,Bsc. Psychologie 100%,2023-01-09_14h07.27.419,00_bat_bachelor,2022.2.4,60.03909456626929,
,,,,,,,,,,,,1,0,1,0,132,0,132,0,,,,,,,132,,,0.2,2225.226803988753,X,d,go,d,1,,0.5974669940806052,,,,,,,,,,,,,,,,10,001,21,m,Bsc. Psychologie 100%,2023-01-09_14h07.27.419,00_bat_bachelor,2022.2.4,60.03909456626929,
,,,,,,,,,,,,1,0,1,0,133,0,133,0,,,,,,,133,,,0.2,2226.160866017388,Y,l,go,l,1,,0.3517364506951708,,,,,,,,,,,,,,,,10,001,21,m,Bsc. Psychologie 100%,2023-01-09_14h07.27.419,00_bat_bachelor,2022.2.4,60.03909456626929,
,,,,,,,,,,,,1,0,1,0,134,0,134,0,,,,,,,134,,,0.2,2226.8446486519497,X,d,go,d,1,,0.5641971597688098,,,,,,,,,,,,,,,,10,001,21,m,Bsc. Psychologie 100%,2023-01-09_14h07.27.419,00_bat_bachelor,2022.2.4,60.03909456626929,
,,,,,,,,,,,,1,0,1,0,135,0,135,0,,,,,,,135,,,0.2,2227.745482543265,X,None,nogo,None,1,2228.546248992119,,,,,,,,,,,,,,,,,10,001,21,m,Bsc. Psychologie 100%,2023-01-09_14h07.27.419,00_bat_bachelor,2022.2.4,60.03909456626929,
,,,,,,,,,,,,1,0,1,0,136,0,136,0,,,,,,,136,,,0.2,2228.7461855739093,Y,l,go,l,1,,0.3432952344810474,,,,,,,,,,,,,,,,10,001,21,m,Bsc. Psychologie 100%,2023-01-09_14h07.27.419,00_bat_bachelor,2022.2.4,60.03909456626929,
,,,,,,,,,,,,1,0,1,0,137,0,137,0,,,,,,,137,,,0.2,2229.4134416550005,X,d,go,d,1,,0.4274290934554301,,,,,,,,,,,,,,,,10,001,21,m,Bsc. Psychologie 100%,2023-01-09_14h07.27.419,00_bat_bachelor,2022.2.4,60.03909456626929,
,,,,,,,,,,,,1,0,1,0,138,0,138,0,,,,,,,138,,,0.2,2230.180574148155,Y,l,go,l,1,,0.5403450269914174,,,,,,,,,,,,,,,,10,001,21,m,Bsc. Psychologie 100%,2023-01-09_14h07.27.419,00_bat_bachelor,2022.2.4,60.03909456626929,
,,,,,,,,,,,,1,0,1,0,139,0,139,0,,,,,,,139,,,0.2,2231.0643937281893,X,d,go,d,1,,0.5038819790097477,,,,,,,,,,,,,,,,10,001,21,m,Bsc. Psychologie 100%,2023-01-09_14h07.27.419,00_bat_bachelor,2022.2.4,60.03909456626929,
,,,,,,,,,,,,1,0,1,0,140,0,140,0,,,,,,,140,,,0.2,2231.915362868054,X,None,nogo,None,1,2232.7156963470043,,,,,,,,,,,,,,,,,10,001,21,m,Bsc. Psychologie 100%,2023-01-09_14h07.27.419,00_bat_bachelor,2022.2.4,60.03909456626929,
,,,,,,,,,,,,1,0,1,0,141,0,141,0,,,,,,,141,,,0.2,2232.916090141134,Y,l,go,l,1,,0.20456110660961713,,,,,,,,,,,,,,,,10,001,21,m,Bsc. Psychologie 100%,2023-01-09_14h07.27.419,00_bat_bachelor,2022.2.4,60.03909456626929,
,,,,,,,,,,,,1,0,1,0,142,0,142,0,,,,,,,142,,,0.2,2233.466438044332,X,d,go,None,0,2234.266843280893,,,,,,,,,,,,,,,,,10,001,21,m,Bsc. Psychologie 100%,2023-01-09_14h07.27.419,00_bat_bachelor,2022.2.4,60.03909456626929,
,,,,,,,,,,,,1,0,1,0,143,0,143,0,,,,,,,143,,,0.2,2234.46718568106,Y,l,go,l,1,,0.6066204530652612,,,,,,,,,,,,,,,,10,001,21,m,Bsc. Psychologie 100%,2023-01-09_14h07.27.419,00_bat_bachelor,2022.2.4,60.03909456626929,
,,,,,,,,,,,,1,0,1,0,144,0,144,0,,,,,,,144,,,0.2,2235.4010222550387,X,d,go,d,1,,0.43925988707269426,,,,,,,,,,,,,,,,10,001,21,m,Bsc. Psychologie 100%,2023-01-09_14h07.27.419,00_bat_bachelor,2022.2.4,60.03909456626929,
,,,,,,,,,,,,1,0,1,0,145,0,145,0,,,,,,,145,,,0.2,2236.1849610593745,X,None,nogo,None,1,2236.9857842355304,,,,,,,,,,,,,,,,,10,001,21,m,Bsc. Psychologie 100%,2023-01-09_14h07.27.419,00_bat_bachelor,2022.2.4,60.03909456626929,
,,,,,,,,,,,,1,0,1,0,146,0,146,0,,,,,,,146,,,0.2,2237.185732453687,Y,l,go,l,1,,0.20739747162224376,,,,,,,,,,,,,,,,10,001,21,m,Bsc. Psychologie 100%,2023-01-09_14h07.27.419,00_bat_bachelor,2022.2.4,60.03909456626929,
,,,,,,,,,,,,1,0,1,0,147,0,147,0,,,,,,,147,,,0.2,2237.719692470153,X,d,go,d,1,,0.48911009305811604,,,,,,,,,,,,,,,,10,001,21,m,Bsc. Psychologie 100%,2023-01-09_14h07.27.419,00_bat_bachelor,2022.2.4,60.03909456626929,
,,,,,,,,,,,,1,0,1,0,148,0,148,0,,,,,,,148,,,0.2,2238.553430571359,Y,l,go,l,1,,0.37561331075630733,,,,,,,,,,,,,,,,10,001,21,m,Bsc. Psychologie 100%,2023-01-09_14h07.27.419,00_bat_bachelor,2022.2.4,60.03909456626929,
,,,,,,,,,,,,1,0,1,0,149,0,149,0,,,,,,,149,,,0.2,2239.270985343508,Y,None,nogo,None,1,2240.0716359135185,,,,,,,,,,,,,,,,,10,001,21,m,Bsc. Psychologie 100%,2023-01-09_14h07.27.419,00_bat_bachelor,2022.2.4,60.03909456626929,
,,,,,,,,,,,,1,0,1,0,150,0,150,0,,,,,,,150,,,0.2,2240.2715855862225,X,d,go,d,1,,0.2581107083315146,,,,,,,,,,,,,,,,10,001,21,m,Bsc. Psychologie 100%,2023-01-09_14h07.27.419,00_bat_bachelor,2022.2.4,60.03909456626929,
,,,,,,,,,,,,1,0,1,0,151,0,151,0,,,,,,,151,,,0.2,2240.871886483339,Y,l,go,l,1,,0.42462133452136186,,,,,,,,,,,,,,,,10,001,21,m,Bsc. Psychologie 100%,2023-01-09_14h07.27.419,00_bat_bachelor,2022.2.4,60.03909456626929,
,,,,,,,,,,,,1,0,1,0,152,0,152,0,,,,,,,152,,,0.2,2241.6227091504043,Y,None,nogo,None,1,2242.423152205163,,,,,,,,,,,,,,,,,10,001,21,m,Bsc. Psychologie 100%,2023-01-09_14h07.27.419,00_bat_bachelor,2022.2.4,60.03909456626929,
,,,,,,,,,,,,1,0,1,0,153,0,153,0,,,,,,,153,,,0.2,2242.6232473324817,X,d,go,d,1,,0.25743288982266677,,,,,,,,,,,,,,,,10,001,21,m,Bsc. Psychologie 100%,2023-01-09_14h07.27.419,00_bat_bachelor,2022.2.4,60.03909456626929,
,,,,,,,,,,,,1,0,1,0,154,0,154,0,,,,,,,154,,,0.2,2243.207199130764,Y,l,go,l,1,,0.5863528068730375,,,,,,,,,,,,,,,,10,001,21,m,Bsc. Psychologie 100%,2023-01-09_14h07.27.419,00_bat_bachelor,2022.2.4,60.03909456626929,
,,,,,,,,,,,,1,0,1,0,155,0,155,0,,,,,,,155,,,0.2,2244.1076858703927,X,d,go,d,1,,0.46853699217535905,,,,,,,,,,,,,,,,10,001,21,m,Bsc. Psychologie 100%,2023-01-09_14h07.27.419,00_bat_bachelor,2022.2.4,60.03909456626929,
,,,,,,,,,,,,1,0,1,0,156,0,156,0,,,,,,,156,,,0.2,2244.908547349598,X,None,nogo,None,1,2245.709227495383,,,,,,,,,,,,,,,,,10,001,21,m,Bsc. Psychologie 100%,2023-01-09_14h07.27.419,00_bat_bachelor,2022.2.4,60.03909456626929,
,,,,,,,,,,,,1,0,1,0,157,0,157,0,,,,,,,157,,,0.2,2245.9090346225603,Y,l,go,l,1,,0.20344013637077296,,,,,,,,,,,,,,,,10,001,21,m,Bsc. Psychologie 100%,2023-01-09_14h07.27.419,00_bat_bachelor,2022.2.4,60.03909456626929,
,,,,,,,,,,,,1,0,1,0,158,0,158,0,,,,,,,158,,,0.2,2246.459494525814,X,d,go,d,1,,0.5182548344637325,,,,,,,,,,,,,,,,10,001,21,m,Bsc. Psychologie 100%,2023-01-09_14h07.27.419,00_bat_bachelor,2022.2.4,60.03909456626929,
,,,,,,,,,,,,1,0,1,0,159,0,159,0,,,,,,,159,,,0.2,2247.293436263484,Y,l,go,l,1,,0.5307251435369835,,,,,,,,,,,,,,,,10,001,21,m,Bsc. Psychologie 100%,2023-01-09_14h07.27.419,00_bat_bachelor,2022.2.4,60.03909456626929,
,,,,,,,,,,,,1,0,1,0,160,0,160,0,,,,,,,160,,,0.2,2248.160761774914,X,d,go,d,1,,0.38374034500156995,,,,,,,,,,,,,,,,10,001,21,m,Bsc. Psychologie 100%,2023-01-09_14h07.27.419,00_bat_bachelor,2022.2.4,60.03909456626929,
,,,,,,,,,,,,1,0,1,0,161,0,161,0,,,,,,,161,,,0.2,2248.877948546884,X,None,nogo,l,0,,0.30694661079905927,,,,,,,,,,,,,,,,10,001,21,m,Bsc. Psychologie 100%,2023-01-09_14h07.27.419,00_bat_bachelor,2022.2.4,60.03909456626929,
,,,,,,,,,,,,1,0,1,0,162,0,162,0,,,,,,,162,,,0.2,2249.528475407744,Y,l,go,d,0,,0.4235696976465988,,,,,,,,,,,,,,,,10,001,21,m,Bsc. Psychologie 100%,2023-01-09_14h07.27.419,00_bat_bachelor,2022.2.4,60.03909456626929,
,,,,,,,,,,,,1,0,1,0,163,0,163,0,,,,,,,163,,,0.2,2250.29591481014,X,d,go,l,0,,0.3285568030914874,,,,,,,,,,,,,,,,10,001,21,m,Bsc. Psychologie 100%,2023-01-09_14h07.27.419,00_bat_bachelor,2022.2.4,60.03909456626929,
,,,,,,,,,,,,1,0,1,0,164,0,164,0,,,,,,,164,,,0.2,2250.9630923457407,Y,l,go,d,0,,0.5266655052073475,,,,,,,,,,,,,,,,10,001,21,m,Bsc. Psychologie 100%,2023-01-09_14h07.27.419,00_bat_bachelor,2022.2.4,60.03909456626929,
,,,,,,,,,,,,1,0,1,0,165,0,165,0,,,,,,,165,,,0.2,2251.8304527662804,X,d,go,d,1,,0.5063857378008834,,,,,,,,,,,,,,,,10,001,21,m,Bsc. Psychologie 100%,2023-01-09_14h07.27.419,00_bat_bachelor,2022.2.4,60.03909456626929,
,,,,,,,,,,,,1,0,1,0,166,0,166,0,,,,,,,166,,,0.2,2252.6808468755626,Y,l,go,l,1,,0.5192099864398187,,,,,,,,,,,,,,,,10,001,21,m,Bsc. Psychologie 100%,2023-01-09_14h07.27.419,00_bat_bachelor,2022.2.4,60.03909456626929,
,,,,,,,,,,,,1,0,1,0,167,0,167,0,,,,,,,167,,,0.2,2253.5314935910283,X,d,go,d,1,,0.5496196981548565,,,,,,,,,,,,,,,,10,001,21,m,Bsc. Psychologie 100%,2023-01-09_14h07.27.419,00_bat_bachelor,2022.2.4,60.03909456626929,
,,,,,,,,,,,,1,0,1,0,168,0,168,0,,,,,,,168,,,0.2,2254.41549935297,X,None,nogo,None,1,2255.216226529079,,,,,,,,,,,,,,,,,10,001,21,m,Bsc. Psychologie 100%,2023-01-09_14h07.27.419,00_bat_bachelor,2022.2.4,60.03909456626929,
,,,,,,,,,,,,1,0,1,0,169,0,169,0,,,,,,,169,,,0.2,2255.416642141401,Y,l,go,None,0,2256.216971256712,,,,,,,,,,,,,,,,,10,001,21,m,Bsc. Psychologie 100%,2023-01-09_14h07.27.419,00_bat_bachelor,2022.2.4,60.03909456626929,
,,,,,,,,,,,,1,0,1,0,170,0,170,0,,,,,,,170,,,0.2,2256.4170426264427,X,d,go,d,1,,0.38403949666098924,,,,,,,,,,,,,,,,10,001,21,m,Bsc. Psychologie 100%,2023-01-09_14h07.27.419,00_bat_bachelor,2022.2.4,60.03909456626929,
,,,,,,,,,,,,1,0,1,0,171,0,171,0,,,,,,,171,,,0.2,2257.1345537622074,X,None,nogo,None,1,2257.9351888170604,,,,,,,,,,,,,,,,,10,001,21,m,Bsc. Psychologie 100%,2023-01-09_14h07.27.419,00_bat_bachelor,2022.2.4,60.03909456626929,
,,,,,,,,,,,,1,0,1,0,172,0,172,0,,,,,,,172,,,0.2,2258.135134126125,Y,l,go,l,1,,0.45687153197286534,,,,,,,,,,,,,,,,10,001,21,m,Bsc. Psychologie 100%,2023-01-09_14h07.27.419,00_bat_bachelor,2022.2.4,60.03909456626929,
,,,,,,,,,,,,1,0,1,0,173,0,173,0,,,,,,,173,,,0.2,2258.9354734232584,X,d,go,d,1,,0.6336236176721286,,,,,,,,,,,,,,,,10,001,21,m,Bsc. Psychologie 100%,2023-01-09_14h07.27.419,00_bat_bachelor,2022.2.4,60.03909456626929,
,,,,,,,,,,,,1,0,1,0,174,0,174,0,,,,,,,174,,,0.2,2259.869495209452,X,None,nogo,None,1,2260.6701913552424,,,,,,,,,,,,,,,,,10,001,21,m,Bsc. Psychologie 100%,2023-01-09_14h07.27.419,00_bat_bachelor,2022.2.4,60.03909456626929,
,,,,,,,,,,,,1,0,1,0,175,0,175,0,,,,,,,175,,,0.2,2260.8700828461006,Y,l,go,l,1,,0.5233040490311396,,,,,,,,,,,,,,,,10,001,21,m,Bsc. Psychologie 100%,2023-01-09_14h07.27.419,00_bat_bachelor,2022.2.4,60.03909456626929,
,,,,,,,,,,,,1,0,1,0,176,0,176,0,,,,,,,176,,,0.2,2261.703965917073,X,d,go,d,1,,0.40975441822229186,,,,,,,,,,,,,,,,10,001,21,m,Bsc. Psychologie 100%,2023-01-09_14h07.27.419,00_bat_bachelor,2022.2.4,60.03909456626929,
