loop_instruction.thisRepN,loop_instruction.thisTrialN,loop_instruction.thisN,loop_instruction.thisIndex,loop_rsi_practice.thisRepN,loop_rsi_practice.thisTrialN,loop_rsi_practice.thisN,loop_rsi_practice.thisIndex,loop_practice.thisRepN,loop_practice.thisTrialN,loop_practice.thisN,loop_practice.thisIndex,loop_exp.thisRepN,loop_exp.thisTrialN,loop_exp.thisN,loop_exp.thisIndex,loop_trials.thisRepN,loop_trials.thisTrialN,loop_trials.thisN,loop_trials.thisIndex,map_condition,map_x_key,map_y_key,key_resp_welcome.started,key_resp_welcome.keys,key_resp_welcome.rt,index,text_empty_rsi_practice.started,text_empty_rsi_practice.stopped,rsi,stimulus.started,stimulus,correct,trial_type,key_resp_trial.keys,key_resp_trial.corr,key_resp_trial.rt,stimulus.stopped,key_resp_instruction_rsi.started,key_resp_instruction_rsi.keys,key_resp_instruction_rsi.rt,key_resp_instruction_rsi.stopped,key_resp_instruction_final.started,key_resp_instruction_final.keys,key_resp_instruction_final.rt,key_resp_break.started,key_resp_break.keys,key_resp_break.rt,key_resp_break.stopped,key_resp_end_screen.started,image_end_screen.started,key_resp_end_screen.keys,key_resp_end_screen.rt,participant,session,Alter,Geschlecht (w/m/d/andere),Studiengang,date,expName,psychopyVersion,frameRate,
,,,,0,0,0,0,0,0,0,0,,,,,,,,,1,l,d,735.9944940579298,j,23.93150624683767,0,759.9505614305672,760.9652935589256,1,760.9652935589256,X,l,go,l,1,0.5725766182586085,,,,,,,,,,,,,,,,,11,001,20,w,Psychologie,2023-01-10_10h30.21.266,00_bat_bachelor,2022.2.4,59.982695888699986,
,,,,0,0,0,0,1,0,1,0,,,,,,,,,,,,,,,1,762.2669252203195,763.2690057061845,1,763.2690057061845,Y,d,go,d,1,0.5586580660601612,,,,,,,,,,,,,,,,,11,001,20,w,Psychologie,2023-01-10_10h30.21.266,00_bat_bachelor,2022.2.4,59.982695888699986,
,,,,0,0,0,0,2,0,2,0,,,,,,,,,,,,,,,2,764.5519634191296,765.5526111770159,1,765.5526111770159,X,l,go,None,0,,766.3528152013605,,,,,,,,,,,,,,,,11,001,20,w,Psychologie,2023-01-10_10h30.21.266,00_bat_bachelor,2022.2.4,59.982695888699986,
,,,,0,0,0,0,3,0,3,0,,,,,,,,,,,,,,,3,766.9534899168357,767.9540610686236,1,767.9540610686236,X,None,nogo,None,1,,768.7541593959468,,,,,,,,,,,,,,,,11,001,20,w,Psychologie,2023-01-10_10h30.21.266,00_bat_bachelor,2022.2.4,59.982695888699986,
,,,,0,0,0,0,4,0,4,0,,,,,,,,,,,,,,,4,769.3545892628317,770.355167202506,1,770.355167202506,Y,d,go,d,1,0.6391924081399338,,,,,,,,,,,,,,,,,11,001,20,w,Psychologie,2023-01-10_10h30.21.266,00_bat_bachelor,2022.2.4,59.982695888699986,
,,,,0,0,0,0,5,0,5,0,,,,,,,,,,,,,,,5,771.7066117365321,772.7073642217438,1,772.7073642217438,X,l,go,None,0,,,,,,,,,,,,,,,,,,11,001,20,w,Psychologie,2023-01-10_10h30.21.266,00_bat_bachelor,2022.2.4,59.982695888699986,
,,,,0,0,0,0,6,0,6,0,,,,,,,,,,,,,,,6,774.108094597861,775.1091632044408,1,775.1091632044408,Y,d,go,None,0,,775.9094666227611,,,,,,,,,,,,,,,,11,001,20,w,Psychologie,2023-01-10_10h30.21.266,00_bat_bachelor,2022.2.4,59.982695888699986,
,,,,0,0,0,0,7,0,7,0,,,,,,,,,,,,,,,7,776.5102770958911,777.5110761265823,1,777.5110761265823,X,l,go,l,1,0.3959316841355758,,,,,,,,,,,,,,,,,11,001,20,w,Psychologie,2023-01-10_10h30.21.266,00_bat_bachelor,2022.2.4,59.982695888699986,
,,,,0,0,0,0,8,0,8,0,,,,,,,,,,,,,,,8,778.6115270843729,779.6131304790906,1,779.6131304790906,X,None,nogo,l,0,0.46841656776086893,,,,,,,,,,,,,,,,,11,001,20,w,Psychologie,2023-01-10_10h30.21.266,00_bat_bachelor,2022.2.4,59.982695888699986,
,,,,0,0,0,0,9,0,9,0,,,,,,,,,,,,,,,9,781.230874778601,782.231316960635,1,782.231316960635,Y,d,go,None,0,,783.0319331063802,,,,,,,,,,,,,,,,11,001,20,w,Psychologie,2023-01-10_10h30.21.266,00_bat_bachelor,2022.2.4,59.982695888699986,
,,,,0,0,0,0,10,0,10,0,,,,,,,,,,,,,,,10,783.6325064884877,784.6327867310465,1,784.6327867310465,X,l,go,l,1,0.6490818674647016,,,,,,,,,,,,,,,,,11,001,20,w,Psychologie,2023-01-10_10h30.21.266,00_bat_bachelor,2022.2.4,59.982695888699986,
,,,,0,0,0,0,11,0,11,0,,,,,,,,,,,,,,,11,785.9841570832214,786.984910538129,1,786.984910538129,X,None,nogo,None,1,,,,,,,,,,,,,,,,,,11,001,20,w,Psychologie,2023-01-10_10h30.21.266,00_bat_bachelor,2022.2.4,59.982695888699986,
,,,,0,0,0,0,12,0,12,0,,,,,,,,,,,,,,,12,788.3856777627516,789.3867725511518,1,789.3867725511518,Y,d,go,None,0,,,,,,,,,,,,,,,,,,11,001,20,w,Psychologie,2023-01-10_10h30.21.266,00_bat_bachelor,2022.2.4,59.982695888699986,
,,,,0,0,0,0,13,0,13,0,,,,,,,,,,,,,,,13,790.7877865637711,791.7884638974356,1,791.7884638974356,X,l,go,None,0,,,,,,,,,,,,,,,,,,11,001,20,w,Psychologie,2023-01-10_10h30.21.266,00_bat_bachelor,2022.2.4,59.982695888699986,
,,,,0,0,0,0,14,0,14,0,,,,,,,,,,,,,,,14,793.1896316070925,794.190415122619,1,794.190415122619,Y,d,go,None,0,,794.9907195106498,,,,,,,,,,,,,,,,11,001,20,w,Psychologie,2023-01-10_10h30.21.266,00_bat_bachelor,2022.2.4,59.982695888699986,
,,,,1,0,1,0,0,0,0,0,,,,,,,,,,,,,,,0,814.906001893818,815.1062996879045,0.2,815.1062996879045,X,l,go,l,1,0.48109633148123976,,795.6117971451022,j,19.273760958225466,,,,,,,,,,,,,11,001,20,w,Psychologie,2023-01-10_10h30.21.266,00_bat_bachelor,2022.2.4,59.982695888699986,
,,,,1,0,1,0,1,0,1,0,,,,,,,,,,,,,,,1,816.2906304439384,816.4907953894726,0.2,816.4907953894726,Y,d,go,d,1,0.4242298796598334,,,,,,,,,,,,,,,,,11,001,20,w,Psychologie,2023-01-10_10h30.21.266,00_bat_bachelor,2022.2.4,59.982695888699986,
,,,,1,0,1,0,2,0,2,0,,,,,,,,,,,,,,,2,817.6249346060213,817.8248828241776,0.2,817.8248828241776,X,l,go,l,1,0.48198408947791904,,,,,,,,,,,,,,,,,11,001,20,w,Psychologie,2023-01-10_10h30.21.266,00_bat_bachelor,2022.2.4,59.982695888699986,
,,,,1,0,1,0,3,0,3,0,,,,,,,,,,,,,,,3,819.0093512772582,819.2095026470197,0.2,819.2095026470197,Y,d,go,None,0,,,,,,,,,,,,,,,,,,11,001,20,w,Psychologie,2023-01-10_10h30.21.266,00_bat_bachelor,2022.2.4,59.982695888699986,
,,,,1,0,1,0,4,0,4,0,,,,,,,,,,,,,,,4,820.6104996899376,820.8106656051677,0.2,820.8106656051677,X,l,go,l,1,0.6647356932517141,,,,,,,,,,,,,,,,,11,001,20,w,Psychologie,2023-01-10_10h30.21.266,00_bat_bachelor,2022.2.4,59.982695888699986,
,,,,1,0,1,0,5,0,5,0,,,,,,,,,,,,,,,5,822.1784126925631,822.3785984865826,0.2,822.3785984865826,X,None,nogo,None,1,,,,,,,,,,,,,,,,,,11,001,20,w,Psychologie,2023-01-10_10h30.21.266,00_bat_bachelor,2022.2.4,59.982695888699986,
,,,,1,0,1,0,6,0,6,0,,,,,,,,,,,,,,,6,823.7800474085088,823.9799728387734,0.2,823.9799728387734,Y,d,go,d,1,0.45463231865142006,,,,,,,,,,,,,,,,,11,001,20,w,Psychologie,2023-01-10_10h30.21.266,00_bat_bachelor,2022.2.4,59.982695888699986,
,,,,1,0,1,0,7,0,7,0,,,,,,,,,,,,,,,7,825.1475399503106,825.3478498656186,0.2,825.3478498656186,X,l,go,l,1,0.39891932194586843,,,,,,,,,,,,,,,,,11,001,20,w,Psychologie,2023-01-10_10h30.21.266,00_bat_bachelor,2022.2.4,59.982695888699986,
,,,,1,0,1,0,8,0,8,0,,,,,,,,,,,,,,,8,826.4485078538128,826.6488458903477,0.2,826.6488458903477,Y,d,go,d,1,0.4895710022537969,,,,,,,,,,,,,,,,,11,001,20,w,Psychologie,2023-01-10_10h30.21.266,00_bat_bachelor,2022.2.4,59.982695888699986,
,,,,1,0,1,0,9,0,9,0,,,,,,,,,,,,,,,9,827.8663281776098,828.066433486747,0.2,828.066433486747,X,l,go,l,1,0.5121610738133313,,,,,,,,,,,,,,,,,11,001,20,w,Psychologie,2023-01-10_10h30.21.266,00_bat_bachelor,2022.2.4,59.982695888699986,
,,,,1,0,1,0,10,0,10,0,,,,,,,,,,,,,,,10,829.2841780771705,829.4841461741307,0.2,829.4841461741307,Y,d,go,None,0,,830.2850842594344,,,,,,,,,,,,,,,,11,001,20,w,Psychologie,2023-01-10_10h30.21.266,00_bat_bachelor,2022.2.4,59.982695888699986,
,,,,1,0,1,0,11,0,11,0,,,,,,,,,,,,,,,11,830.8853730353294,831.0855617384514,0.2,831.0855617384514,Y,None,nogo,d,0,0.5651026752457255,,,,,,,,,,,,,,,,,11,001,20,w,Psychologie,2023-01-10_10h30.21.266,00_bat_bachelor,2022.2.4,59.982695888699986,
,,,,1,0,1,0,12,0,12,0,,,,,,,,,,,,,,,12,832.7700716460968,832.9704775614373,0.2,832.9704775614373,X,l,go,None,0,,833.7708488585922,,,,,,,,,,,,,,,,11,001,20,w,Psychologie,2023-01-10_10h30.21.266,00_bat_bachelor,2022.2.4,59.982695888699986,
,,,,1,0,1,0,13,0,13,0,,,,,,,,,,,,,,,13,834.3714668467728,834.5711639132933,0.2,834.5711639132933,Y,d,go,None,0,,835.3719696348853,,,,,,,,,,,,,,,,11,001,20,w,Psychologie,2023-01-10_10h30.21.266,00_bat_bachelor,2022.2.4,59.982695888699986,
,,,,1,0,1,0,14,0,14,0,,,,,,,,,,,,,,,14,835.9724184108636,836.1725659018412,0.2,836.1725659018412,Y,None,nogo,d,0,0.630911191998166,,,,,,,,,,,,,,,,,11,001,20,w,Psychologie,2023-01-10_10h30.21.266,00_bat_bachelor,2022.2.4,59.982695888699986,
,,,,,,,,,,,,,,,,,,,,,,,,,,,,,,,,,,,,,,837.9391796068667,None,,837.9391796068667,837.9391796068667,space,13.345838084074785,,,,,,,,,11,001,20,w,Psychologie,2023-01-10_10h30.21.266,00_bat_bachelor,2022.2.4,59.982695888699986,
,,,,,,,,,,,,0,0,0,0,0,0,0,0,,,,,,,0,,,1,852.318102457255,X,l,go,None,0,,853.1187476939376,,,,,,,,,,,,,,,,11,001,20,w,Psychologie,2023-01-10_10h30.21.266,00_bat_bachelor,2022.2.4,59.982695888699986,
,,,,,,,,,,,,0,0,0,0,1,0,1,0,,,,,,,1,,,1,854.1193969063752,Y,d,go,None,0,,854.9197875974642,,,,,,,,,,,,,,,,11,001,20,w,Psychologie,2023-01-10_10h30.21.266,00_bat_bachelor,2022.2.4,59.982695888699986,
,,,,,,,,,,,,0,0,0,0,2,0,2,0,,,,,,,2,,,1,855.9208799616317,X,l,go,None,0,,,,,,,,,,,,,,,,,,11,001,20,w,Psychologie,2023-01-10_10h30.21.266,00_bat_bachelor,2022.2.4,59.982695888699986,
,,,,,,,,,,,,0,0,0,0,3,0,3,0,,,,,,,3,,,1,857.7222408350208,Y,d,go,None,0,,,,,,,,,,,,,,,,,,11,001,20,w,Psychologie,2023-01-10_10h30.21.266,00_bat_bachelor,2022.2.4,59.982695888699986,
,,,,,,,,,,,,0,0,0,0,4,0,4,0,,,,,,,4,,,1,859.52363322358,Y,None,nogo,None,1,,860.3242391875101,,,,,,,,,,,,,,,,11,001,20,w,Psychologie,2023-01-10_10h30.21.266,00_bat_bachelor,2022.2.4,59.982695888699986,
,,,,,,,,,,,,0,0,0,0,5,0,5,0,,,,,,,5,,,1,861.3249247635977,X,l,go,None,0,,,,,,,,,,,,,,,,,,11,001,20,w,Psychologie,2023-01-10_10h30.21.266,00_bat_bachelor,2022.2.4,59.982695888699986,
,,,,,,,,,,,,0,0,0,0,6,0,6,0,,,,,,,6,,,1,863.126271091518,Y,d,go,d,1,0.6201422170852311,,,,,,,,,,,,,,,,,11,001,20,w,Psychologie,2023-01-10_10h30.21.266,00_bat_bachelor,2022.2.4,59.982695888699986,
,,,,,,,,,,,,0,0,0,0,7,0,7,0,,,,,,,7,,,1,864.8609880538133,X,l,go,l,1,0.5495807283150498,,,,,,,,,,,,,,,,,11,001,20,w,Psychologie,2023-01-10_10h30.21.266,00_bat_bachelor,2022.2.4,59.982695888699986,
,,,,,,,,,,,,0,0,0,0,8,0,8,0,,,,,,,8,,,1,866.5119231572899,X,None,nogo,d,0,0.4497343768744031,,,,,,,,,,,,,,,,,11,001,20,w,Psychologie,2023-01-10_10h30.21.266,00_bat_bachelor,2022.2.4,59.982695888699986,
,,,,,,,,,,,,0,0,0,0,9,0,9,0,,,,,,,9,,,1,868.0631471821252,Y,d,go,l,0,0.33958547498332337,,,,,,,,,,,,,,,,,11,001,20,w,Psychologie,2023-01-10_10h30.21.266,00_bat_bachelor,2022.2.4,59.982695888699986,
,,,,,,,,,,,,0,0,0,0,10,0,10,0,,,,,,,10,,,1,869.5142276432598,X,l,go,d,0,0.6650605418835767,,,,,,,,,,,,,,,,,11,001,20,w,Psychologie,2023-01-10_10h30.21.266,00_bat_bachelor,2022.2.4,59.982695888699986,
,,,,,,,,,,,,0,0,0,0,11,0,11,0,,,,,,,11,,,1,871.2825756521488,Y,d,go,None,0,,,,,,,,,,,,,,,,,,11,001,20,w,Psychologie,2023-01-10_10h30.21.266,00_bat_bachelor,2022.2.4,59.982695888699986,
,,,,,,,,,,,,0,0,0,0,12,0,12,0,,,,,,,12,,,1,873.083623798113,X,l,go,None,0,,,,,,,,,,,,,,,,,,11,001,20,w,Psychologie,2023-01-10_10h30.21.266,00_bat_bachelor,2022.2.4,59.982695888699986,
,,,,,,,,,,,,0,0,0,0,13,0,13,0,,,,,,,13,,,1,874.8853958232212,Y,d,go,None,0,,875.685869908295,,,,,,,,,,,,,,,,11,001,20,w,Psychologie,2023-01-10_10h30.21.266,00_bat_bachelor,2022.2.4,59.982695888699986,
,,,,,,,,,,,,0,0,0,0,14,0,14,0,,,,,,,14,,,1,876.6871479695255,X,l,go,None,0,,877.4882062973047,,,,,,,,,,,,,,,,11,001,20,w,Psychologie,2023-01-10_10h30.21.266,00_bat_bachelor,2022.2.4,59.982695888699986,
,,,,,,,,,,,,0,0,0,0,15,0,15,0,,,,,,,15,,,1,878.4880773275509,X,None,nogo,l,0,0.49119476063060574,,,,,,,,,,,,,,,,,11,001,20,w,Psychologie,2023-01-10_10h30.21.266,00_bat_bachelor,2022.2.4,59.982695888699986,
,,,,,,,,,,,,0,0,0,0,16,0,16,0,,,,,,,16,,,1,880.0892688917666,Y,d,go,None,0,,,,,,,,,,,,,,,,,,11,001,20,w,Psychologie,2023-01-10_10h30.21.266,00_bat_bachelor,2022.2.4,59.982695888699986,
,,,,,,,,,,,,0,0,0,0,17,0,17,0,,,,,,,17,,,1,881.890547825722,X,l,go,l,1,0.4160907242039684,,,,,,,,,,,,,,,,,11,001,20,w,Psychologie,2023-01-10_10h30.21.266,00_bat_bachelor,2022.2.4,59.982695888699986,
,,,,,,,,,,,,0,0,0,0,18,0,18,0,,,,,,,18,,,1,883.4084074707353,Y,d,go,d,1,0.5465833935304545,,,,,,,,,,,,,,,,,11,001,20,w,Psychologie,2023-01-10_10h30.21.266,00_bat_bachelor,2022.2.4,59.982695888699986,
,,,,,,,,,,,,0,0,0,0,19,0,19,0,,,,,,,19,,,1,885.0598235441576,X,l,go,l,1,0.5591123693156987,,,,,,,,,,,,,,,,,11,001,20,w,Psychologie,2023-01-10_10h30.21.266,00_bat_bachelor,2022.2.4,59.982695888699986,
,,,,,,,,,,,,0,0,0,0,20,0,20,0,,,,,,,20,,,1,886.7280997469497,Y,d,go,d,1,0.5065596165513853,,,,,,,,,,,,,,,,,11,001,20,w,Psychologie,2023-01-10_10h30.21.266,00_bat_bachelor,2022.2.4,59.982695888699986,
,,,,,,,,,,,,0,0,0,0,21,0,21,0,,,,,,,21,,,1,888.3458290161507,Y,None,nogo,None,1,,889.1462638284866,,,,,,,,,,,,,,,,11,001,20,w,Psychologie,2023-01-10_10h30.21.266,00_bat_bachelor,2022.2.4,59.982695888699986,
,,,,,,,,,,,,0,0,0,0,22,0,22,0,,,,,,,22,,,1,890.1472117077356,X,l,go,l,1,0.5599031575693516,,,,,,,,,,,,,,,,,11,001,20,w,Psychologie,2023-01-10_10h30.21.266,00_bat_bachelor,2022.2.4,59.982695888699986,
,,,,,,,,,,,,0,0,0,0,23,0,23,0,,,,,,,23,,,1,891.8151296073338,Y,d,go,d,1,0.4757848137523979,,,,,,,,,,,,,,,,,11,001,20,w,Psychologie,2023-01-10_10h30.21.266,00_bat_bachelor,2022.2.4,59.982695888699986,
,,,,,,,,,,,,0,0,0,0,24,0,24,0,,,,,,,24,,,1,893.3996777695284,X,l,go,l,1,0.4901809419388883,,,,,,,,,,,,,,,,,11,001,20,w,Psychologie,2023-01-10_10h30.21.266,00_bat_bachelor,2022.2.4,59.982695888699986,
,,,,,,,,,,,,0,0,0,0,25,0,25,0,,,,,,,25,,,1,895.000676363954,X,None,nogo,d,0,0.4429983736190479,,,,,,,,,,,,,,,,,11,001,20,w,Psychologie,2023-01-10_10h30.21.266,00_bat_bachelor,2022.2.4,59.982695888699986,
,,,,,,,,,,,,0,0,0,0,26,0,26,0,,,,,,,26,,,1,896.5517840250977,Y,d,go,l,0,0.6187584588333266,,,,,,,,,,,,,,,,,11,001,20,w,Psychologie,2023-01-10_10h30.21.266,00_bat_bachelor,2022.2.4,59.982695888699986,
,,,,,,,,,,,,0,0,0,0,27,0,27,0,,,,,,,27,,,1,898.2864980782906,X,l,go,None,0,,,,,,,,,,,,,,,,,,11,001,20,w,Psychologie,2023-01-10_10h30.21.266,00_bat_bachelor,2022.2.4,59.982695888699986,
,,,,,,,,,,,,0,0,0,0,28,0,28,0,,,,,,,28,,,1,900.0878987092728,Y,d,go,d,1,0.5389615716558183,,,,,,,,,,,,,,,,,11,001,20,w,Psychologie,2023-01-10_10h30.21.266,00_bat_bachelor,2022.2.4,59.982695888699986,
,,,,,,,,,,,,0,0,0,0,29,0,29,0,,,,,,,29,,,1,901.7390587825648,X,l,go,l,1,0.5507424258539686,,,,,,,,,,,,,,,,,11,001,20,w,Psychologie,2023-01-10_10h30.21.266,00_bat_bachelor,2022.2.4,59.982695888699986,
,,,,,,,,,,,,0,0,0,0,30,0,30,0,,,,,,,30,,,1,903.4071008034371,X,None,nogo,None,1,,,,,,,,,,,,,,,,,,11,001,20,w,Psychologie,2023-01-10_10h30.21.266,00_bat_bachelor,2022.2.4,59.982695888699986,
,,,,,,,,,,,,0,0,0,0,31,0,31,0,,,,,,,31,,,1,905.2084451919654,Y,d,go,None,0,,906.009030792251,,,,,,,,,,,,,,,,11,001,20,w,Psychologie,2023-01-10_10h30.21.266,00_bat_bachelor,2022.2.4,59.982695888699986,
,,,,,,,,,,,,0,0,0,0,32,0,32,0,,,,,,,32,,,1,907.0095117621822,X,l,go,None,0,,,,,,,,,,,,,,,,,,11,001,20,w,Psychologie,2023-01-10_10h30.21.266,00_bat_bachelor,2022.2.4,59.982695888699986,
,,,,,,,,,,,,0,0,0,0,33,0,33,0,,,,,,,33,,,1,908.81131433275,X,None,nogo,l,0,0.15099968657887075,,,,,,,,,,,,,,,,,11,001,20,w,Psychologie,2023-01-10_10h30.21.266,00_bat_bachelor,2022.2.4,59.982695888699986,
,,,,,,,,,,,,0,0,0,0,34,0,34,0,,,,,,,34,,,1,910.0788548261044,Y,d,go,None,0,,,,,,,,,,,,,,,,,,11,001,20,w,Psychologie,2023-01-10_10h30.21.266,00_bat_bachelor,2022.2.4,59.982695888699986,
,,,,,,,,,,,,0,0,0,0,35,0,35,0,,,,,,,35,,,1,911.8802234570758,X,l,go,l,1,0.5382895713264588,,,,,,,,,,,,,,,,,11,001,20,w,Psychologie,2023-01-10_10h30.21.266,00_bat_bachelor,2022.2.4,59.982695888699986,
,,,,,,,,,,,,0,0,0,0,36,0,36,0,,,,,,,36,,,1,913.5314203788585,Y,d,go,None,0,,,,,,,,,,,,,,,,,,11,001,20,w,Psychologie,2023-01-10_10h30.21.266,00_bat_bachelor,2022.2.4,59.982695888699986,
,,,,,,,,,,,,0,0,0,0,37,0,37,0,,,,,,,37,,,1,915.3328627068404,Y,None,nogo,None,1,,,,,,,,,,,,,,,,,,11,001,20,w,Psychologie,2023-01-10_10h30.21.266,00_bat_bachelor,2022.2.4,59.982695888699986,
,,,,,,,,,,,,0,0,0,0,38,0,38,0,,,,,,,38,,,1,917.1342342468997,X,l,go,l,1,0.3416034153633518,,,,,,,,,,,,,,,,,11,001,20,w,Psychologie,2023-01-10_10h30.21.266,00_bat_bachelor,2022.2.4,59.982695888699986,
,,,,,,,,,,,,0,0,0,0,39,0,39,0,,,,,,,39,,,1,918.5853268292412,Y,d,go,d,1,0.34551662938611116,,,,,,,,,,,,,,,,,11,001,20,w,Psychologie,2023-01-10_10h30.21.266,00_bat_bachelor,2022.2.4,59.982695888699986,
,,,,,,,,,,,,0,0,0,0,40,0,40,0,,,,,,,40,,,1,920.0364194115973,X,l,go,l,1,0.49485342905973084,,,,,,,,,,,,,,,,,11,001,20,w,Psychologie,2023-01-10_10h30.21.266,00_bat_bachelor,2022.2.4,59.982695888699986,
,,,,,,,,,,,,0,0,0,0,41,0,41,0,,,,,,,41,,,1,921.6373224908166,X,None,nogo,d,0,0.49324276160041336,,,,,,,,,,,,,,,,,11,001,20,w,Psychologie,2023-01-10_10h30.21.266,00_bat_bachelor,2022.2.4,59.982695888699986,
,,,,,,,,,,,,0,0,0,0,42,0,42,0,,,,,,,42,,,1,923.2388723582408,Y,d,go,l,0,0.6198634290631162,,,,,,,,,,,,,,,,,11,001,20,w,Psychologie,2023-01-10_10h30.21.266,00_bat_bachelor,2022.2.4,59.982695888699986,
,,,,,,,,,,,,0,0,0,0,43,0,43,0,,,,,,,43,,,1,924.9734521083301,X,l,go,d,0,0.5170323489001021,,,,,,,,,,,,,,,,,11,001,20,w,Psychologie,2023-01-10_10h30.21.266,00_bat_bachelor,2022.2.4,59.982695888699986,
,,,,,,,,,,,,0,0,0,0,44,0,44,0,,,,,,,44,,,1,926.5914160443208,X,None,nogo,l,0,0.5796272883453639,,,,,,,,,,,,,,,,,11,001,20,w,Psychologie,2023-01-10_10h30.21.266,00_bat_bachelor,2022.2.4,59.982695888699986,
,,,,,,,,,,,,0,0,0,0,45,0,45,0,,,,,,,45,,,1,928.2760718914215,Y,d,go,d,1,0.49578239920083433,,,,,,,,,,,,,,,,,11,001,20,w,Psychologie,2023-01-10_10h30.21.266,00_bat_bachelor,2022.2.4,59.982695888699986,
,,,,,,,,,,,,0,0,0,0,46,0,46,0,,,,,,,46,,,1,929.8769167888095,X,l,go,l,1,0.47810675426444504,,,,,,,,,,,,,,,,,11,001,20,w,Psychologie,2023-01-10_10h30.21.266,00_bat_bachelor,2022.2.4,59.982695888699986,
,,,,,,,,,,,,0,0,0,0,47,0,47,0,,,,,,,47,,,1,931.4618266481557,Y,d,go,d,1,0.5248010799405165,,,,,,,,,,,,,,,,,11,001,20,w,Psychologie,2023-01-10_10h30.21.266,00_bat_bachelor,2022.2.4,59.982695888699986,
,,,,,,,,,,,,0,0,0,0,48,0,48,0,,,,,,,48,,,1,933.0960509556608,Y,None,nogo,None,1,,,,,,,,,,,,,,,,,,11,001,20,w,Psychologie,2023-01-10_10h30.21.266,00_bat_bachelor,2022.2.4,59.982695888699986,
,,,,,,,,,,,,0,0,0,0,49,0,49,0,,,,,,,49,,,1,934.8985046780581,X,l,go,l,1,0.463950626202859,,,,,,,,,,,,,,,,,11,001,20,w,Psychologie,2023-01-10_10h30.21.266,00_bat_bachelor,2022.2.4,59.982695888699986,
,,,,,,,,,,,,0,0,0,0,50,0,50,0,,,,,,,50,,,1,936.4993476360396,Y,d,go,d,1,0.5270556264877087,,,,,,,,,,,,,,,,,11,001,20,w,Psychologie,2023-01-10_10h30.21.266,00_bat_bachelor,2022.2.4,59.982695888699986,
,,,,,,,,,,,,0,0,0,0,51,0,51,0,,,,,,,51,,,1,938.1507157094311,Y,None,nogo,None,1,,938.9512707642425,,,,,,,,,,,,,,,,11,001,20,w,Psychologie,2023-01-10_10h30.21.266,00_bat_bachelor,2022.2.4,59.982695888699986,
,,,,,,,,,,,,0,0,0,0,52,0,52,0,,,,,,,52,,,1,939.9519810676284,X,l,go,l,1,0.5631298257940216,,,,,,,,,,,,,,,,,11,001,20,w,Psychologie,2023-01-10_10h30.21.266,00_bat_bachelor,2022.2.4,59.982695888699986,
,,,,,,,,,,,,0,0,0,0,53,0,53,0,,,,,,,53,,,1,941.6198509671958,Y,d,go,None,0,,942.4203774159396,,,,,,,,,,,,,,,,11,001,20,w,Psychologie,2023-01-10_10h30.21.266,00_bat_bachelor,2022.2.4,59.982695888699986,
,,,,,,,,,,,,0,0,0,0,54,0,54,0,,,,,,,54,,,1,943.4211415375175,Y,None,nogo,None,1,,944.2219142894028,,,,,,,,,,,,,,,,11,001,20,w,Psychologie,2023-01-10_10h30.21.266,00_bat_bachelor,2022.2.4,59.982695888699986,
,,,,,,,,,,,,0,0,0,0,55,0,55,0,,,,,,,55,,,1,945.2226333200524,X,l,go,l,1,0.47660566263948567,,,,,,,,,,,,,,,,,11,001,20,w,Psychologie,2023-01-10_10h30.21.266,00_bat_bachelor,2022.2.4,59.982695888699986,
,,,,,,,,,,,,0,0,0,0,56,0,56,0,,,,,,,56,,,1,946.8072706944222,Y,d,go,d,1,0.2033686816721456,,,,,,,,,,,,,,,,,11,001,20,w,Psychologie,2023-01-10_10h30.21.266,00_bat_bachelor,2022.2.4,59.982695888699986,
,,,,,,,,,,,,0,0,0,0,57,0,57,0,,,,,,,57,,,1,948.1247132725839,X,l,go,None,0,,948.9255640851188,,,,,,,,,,,,,,,,11,001,20,w,Psychologie,2023-01-10_10h30.21.266,00_bat_bachelor,2022.2.4,59.982695888699986,
,,,,,,,,,,,,0,0,0,0,58,0,58,0,,,,,,,58,,,1,949.9260411762516,Y,d,go,d,1,0.46092856411996763,,,,,,,,,,,,,,,,,11,001,20,w,Psychologie,2023-01-10_10h30.21.266,00_bat_bachelor,2022.2.4,59.982695888699986,
,,,,,,,,,,,,0,0,0,0,59,0,59,0,,,,,,,59,,,1,951.4940831486456,Y,None,nogo,None,1,,952.2947831732163,,,,,,,,,,,,,,,,11,001,20,w,Psychologie,2023-01-10_10h30.21.266,00_bat_bachelor,2022.2.4,59.982695888699986,
,,,,,,,,,,,,0,0,0,0,60,0,60,0,,,,,,,60,,,1,953.295497355386,X,l,go,l,1,0.38702307375206146,,,,,,,,,,,,,,,,,11,001,20,w,Psychologie,2023-01-10_10h30.21.266,00_bat_bachelor,2022.2.4,59.982695888699986,
,,,,,,,,,,,,0,0,0,0,61,0,61,0,,,,,,,61,,,1,954.7967116590007,Y,d,go,None,0,,955.5973510774929,,,,,,,,,,,,,,,,11,001,20,w,Psychologie,2023-01-10_10h30.21.266,00_bat_bachelor,2022.2.4,59.982695888699986,
,,,,,,,,,,,,0,0,0,0,62,0,62,0,,,,,,,62,,,1,956.5978344716714,Y,None,nogo,None,1,,957.3986726781441,,,,,,,,,,,,,,,,11,001,20,w,Psychologie,2023-01-10_10h30.21.266,00_bat_bachelor,2022.2.4,59.982695888699986,
,,,,,,,,,,,,0,0,0,0,63,0,63,0,,,,,,,63,,,1,958.3992957087466,X,l,go,l,1,0.2105182608938776,,,,,,,,,,,,,,,,,11,001,20,w,Psychologie,2023-01-10_10h30.21.266,00_bat_bachelor,2022.2.4,59.982695888699986,
,,,,,,,,,,,,0,0,0,0,64,0,64,0,,,,,,,64,,,1,959.7335557495971,Y,d,go,None,0,,960.5344128651632,,,,,,,,,,,,,,,,11,001,20,w,Psychologie,2023-01-10_10h30.21.266,00_bat_bachelor,2022.2.4,59.982695888699986,
,,,,,,,,,,,,0,0,0,0,65,0,65,0,,,,,,,65,,,1,961.5349020775175,Y,None,nogo,None,1,,962.3358178597846,,,,,,,,,,,,,,,,11,001,20,w,Psychologie,2023-01-10_10h30.21.266,00_bat_bachelor,2022.2.4,59.982695888699986,
,,,,,,,,,,,,0,0,0,0,66,0,66,0,,,,,,,66,,,1,963.3368791936373,X,l,go,l,1,0.4416781305480981,,,,,,,,,,,,,,,,,11,001,20,w,Psychologie,2023-01-10_10h30.21.266,00_bat_bachelor,2022.2.4,59.982695888699986,
,,,,,,,,,,,,0,0,0,0,67,0,67,0,,,,,,,67,,,1,964.8876110970159,Y,d,go,d,1,0.6023671781586017,,,,,,,,,,,,,,,,,11,001,20,w,Psychologie,2023-01-10_10h30.21.266,00_bat_bachelor,2022.2.4,59.982695888699986,
,,,,,,,,,,,,0,0,0,0,68,0,68,0,,,,,,,68,,,1,966.6055222329742,X,l,go,l,1,0.6451933807402384,,,,,,,,,,,,,,,,,11,001,20,w,Psychologie,2023-01-10_10h30.21.266,00_bat_bachelor,2022.2.4,59.982695888699986,
,,,,,,,,,,,,0,0,0,0,69,0,69,0,,,,,,,69,,,1,968.3568423548277,X,None,nogo,l,0,0.5265024140971946,,,,,,,,,,,,,,,,,11,001,20,w,Psychologie,2023-01-10_10h30.21.266,00_bat_bachelor,2022.2.4,59.982695888699986,
,,,,,,,,,,,,0,0,0,0,70,0,70,0,,,,,,,70,,,1,969.9916159959248,Y,d,go,d,1,0.5703487383871106,,,,,,,,,,,,,,,,,11,001,20,w,Psychologie,2023-01-10_10h30.21.266,00_bat_bachelor,2022.2.4,59.982695888699986,
,,,,,,,,,,,,0,0,0,0,71,0,71,0,,,,,,,71,,,1,971.6760085701826,X,l,go,l,1,0.5826391685841372,,,,,,,,,,,,,,,,,11,001,20,w,Psychologie,2023-01-10_10h30.21.266,00_bat_bachelor,2022.2.4,59.982695888699986,
,,,,,,,,,,,,0,0,0,0,72,0,72,0,,,,,,,72,,,1,973.3605960536224,Y,d,go,None,0,,974.1614657752507,,,,,,,,,,,,,,,,11,001,20,w,Psychologie,2023-01-10_10h30.21.266,00_bat_bachelor,2022.2.4,59.982695888699986,
,,,,,,,,,,,,0,0,0,0,73,0,73,0,,,,,,,73,,,1,975.1619748664089,Y,None,nogo,None,1,,975.9628193759127,,,,,,,,,,,,,,,,11,001,20,w,Psychologie,2023-01-10_10h30.21.266,00_bat_bachelor,2022.2.4,59.982695888699986,
,,,,,,,,,,,,0,0,0,0,74,0,74,0,,,,,,,74,,,1,976.9635427702015,X,l,go,None,0,,977.7639737037389,,,,,,,,,,,,,,,,11,001,20,w,Psychologie,2023-01-10_10h30.21.266,00_bat_bachelor,2022.2.4,59.982695888699986,
,,,,,,,,,,,,0,0,0,0,75,0,75,0,,,,,,,75,,,1,978.7649880072568,Y,d,go,None,0,,979.5656225772691,,,,,,,,,,,,,,,,11,001,20,w,Psychologie,2023-01-10_10h30.21.266,00_bat_bachelor,2022.2.4,59.982695888699986,
,,,,,,,,,,,,0,0,0,0,76,0,76,0,,,,,,,76,,,1,980.5663770018728,X,l,go,None,0,,981.3668481778586,,,,,,,,,,,,,,,,11,001,20,w,Psychologie,2023-01-10_10h30.21.266,00_bat_bachelor,2022.2.4,59.982695888699986,
,,,,,,,,,,,,0,0,0,0,77,0,77,0,,,,,,,77,,,1,982.3679875723465,Y,d,go,None,0,,983.1681140208966,,,,,,,,,,,,,,,,11,001,20,w,Psychologie,2023-01-10_10h30.21.266,00_bat_bachelor,2022.2.4,59.982695888699986,
,,,,,,,,,,,,0,0,0,0,78,0,78,0,,,,,,,78,,,1,984.1688635970204,X,l,go,None,0,,984.9692441062944,,,,,,,,,,,,,,,,11,001,20,w,Psychologie,2023-01-10_10h30.21.266,00_bat_bachelor,2022.2.4,59.982695888699986,
,,,,,,,,,,,,0,0,0,0,79,0,79,0,,,,,,,79,,,1,985.969999500594,X,None,nogo,l,0,0.304617215617327,,,,,,,,,,,,,,,,,11,001,20,w,Psychologie,2023-01-10_10h30.21.266,00_bat_bachelor,2022.2.4,59.982695888699986,
,,,,,,,,,,,,0,0,0,0,80,0,80,0,,,,,,,80,,,1,987.387874127453,Y,d,go,d,1,0.5511996381974313,,,,,,,,,,,,,,,,,11,001,20,w,Psychologie,2023-01-10_10h30.21.266,00_bat_bachelor,2022.2.4,59.982695888699986,
,,,,,,,,,,,,0,0,0,0,81,0,81,0,,,,,,,81,,,1,989.0556005117978,X,l,go,l,1,0.4986153702775482,,,,,,,,,,,,,,,,,11,001,20,w,Psychologie,2023-01-10_10h30.21.266,00_bat_bachelor,2022.2.4,59.982695888699986,
,,,,,,,,,,,,0,0,0,0,82,0,82,0,,,,,,,82,,,1,990.6569612882158,X,None,nogo,None,1,,991.457223009551,,,,,,,,,,,,,,,,11,001,20,w,Psychologie,2023-01-10_10h30.21.266,00_bat_bachelor,2022.2.4,59.982695888699986,
,,,,,,,,,,,,0,0,0,0,83,0,83,0,,,,,,,83,,,1,992.4582896767388,Y,d,go,l,0,0.5360403581289575,,,,,,,,,,,,,,,,,11,001,20,w,Psychologie,2023-01-10_10h30.21.266,00_bat_bachelor,2022.2.4,59.982695888699986,
,,,,,,,,,,,,0,0,0,0,84,0,84,0,,,,,,,84,,,1,994.1095971440373,X,l,go,None,0,,,,,,,,,,,,,,,,,,11,001,20,w,Psychologie,2023-01-10_10h30.21.266,00_bat_bachelor,2022.2.4,59.982695888699986,
,,,,,,,,,,,,0,0,0,0,85,0,85,0,,,,,,,85,,,1,995.9106234718056,X,None,nogo,None,1,,,,,,,,,,,,,,,,,,11,001,20,w,Psychologie,2023-01-10_10h30.21.266,00_bat_bachelor,2022.2.4,59.982695888699986,
,,,,,,,,,,,,0,0,0,0,86,0,86,0,,,,,,,86,,,1,997.7123091938411,Y,d,go,l,0,0.22649838986399118,,,,,,,,,,,,,,,,,11,001,20,w,Psychologie,2023-01-10_10h30.21.266,00_bat_bachelor,2022.2.4,59.982695888699986,
,,,,,,,,,,,,0,0,0,0,87,0,87,0,,,,,,,87,,,1,999.0466967499087,X,l,go,None,0,,999.8473065926228,,,,,,,,,,,,,,,,11,001,20,w,Psychologie,2023-01-10_10h30.21.266,00_bat_bachelor,2022.2.4,59.982695888699986,
,,,,,,,,,,,,0,0,0,0,88,0,88,0,,,,,,,88,,,1,1000.8480624717777,Y,d,go,None,0,,,,,,,,,,,,,,,,,,11,001,20,w,Psychologie,2023-01-10_10h30.21.266,00_bat_bachelor,2022.2.4,59.982695888699986,
,,,,,,,,,,,,0,0,0,0,89,0,89,0,,,,,,,89,,,1,1002.6494189815276,Y,None,nogo,l,0,0.553000851199613,,,,,,,,,,,,,,,,,11,001,20,w,Psychologie,2023-01-10_10h30.21.266,00_bat_bachelor,2022.2.4,59.982695888699986,
,,,,,,,,,,,,0,0,0,0,90,0,90,0,,,,,,,90,,,1,1004.3348297380871,Y,None,nogo,None,1,,1005.1355477020843,,,,,,,,,,,,,,,,11,001,20,w,Psychologie,2023-01-10_10h30.21.266,00_bat_bachelor,2022.2.4,59.982695888699986,
,,,,,,,,,,,,0,0,0,0,91,0,91,0,,,,,,,91,,,1,1006.1360727932479,X,l,go,l,1,0.6188728831330081,,,,,,,,,,,,,,,,,11,001,20,w,Psychologie,2023-01-10_10h30.21.266,00_bat_bachelor,2022.2.4,59.982695888699986,
,,,,,,,,,,,,0,0,0,0,92,0,92,0,,,,,,,92,,,1,1007.8705958160426,Y,d,go,d,1,0.5146842265530722,,,,,,,,,,,,,,,,,11,001,20,w,Psychologie,2023-01-10_10h30.21.266,00_bat_bachelor,2022.2.4,59.982695888699986,
,,,,,,,,,,,,0,0,0,0,93,0,93,0,,,,,,,93,,,1,1009.5218063135981,Y,None,nogo,None,1,,1010.3228704595676,,,,,,,,,,,,,,,,11,001,20,w,Psychologie,2023-01-10_10h30.21.266,00_bat_bachelor,2022.2.4,59.982695888699986,
,,,,,,,,,,,,0,0,0,0,94,0,94,0,,,,,,,94,,,1,1011.3234227022622,X,l,go,l,1,0.21479656601150054,,,,,,,,,,,,,,,,,11,001,20,w,Psychologie,2023-01-10_10h30.21.266,00_bat_bachelor,2022.2.4,59.982695888699986,
,,,,,,,,,,,,0,0,0,0,95,0,95,0,,,,,,,95,,,1,1012.6575566824467,Y,d,go,d,1,0.5124728315422544,,,,,,,,,,,,,,,,,11,001,20,w,Psychologie,2023-01-10_10h30.21.266,00_bat_bachelor,2022.2.4,59.982695888699986,
,,,,,,,,,,,,0,0,0,0,96,0,96,0,,,,,,,96,,,1,1014.2924631720962,X,l,go,l,1,0.47950166404189076,,,,,,,,,,,,,,,,,11,001,20,w,Psychologie,2023-01-10_10h30.21.266,00_bat_bachelor,2022.2.4,59.982695888699986,
,,,,,,,,,,,,0,0,0,0,97,0,97,0,,,,,,,97,,,1,1015.8935737665743,X,None,nogo,None,1,,1016.6943479730107,,,,,,,,,,,,,,,,11,001,20,w,Psychologie,2023-01-10_10h30.21.266,00_bat_bachelor,2022.2.4,59.982695888699986,
,,,,,,,,,,,,0,0,0,0,98,0,98,0,,,,,,,98,,,1,1017.6949753672525,Y,d,go,l,0,0.41904199836426415,,,,,,,,,,,,,,,,,11,001,20,w,Psychologie,2023-01-10_10h30.21.266,00_bat_bachelor,2022.2.4,59.982695888699986,
,,,,,,,,,,,,0,0,0,0,99,0,99,0,,,,,,,99,,,1,1019.2626212182367,X,l,go,l,1,0.4511176502710441,,,,,,,,,,,,,,,,,11,001,20,w,Psychologie,2023-01-10_10h30.21.266,00_bat_bachelor,2022.2.4,59.982695888699986,
,,,,,,,,,,,,0,0,0,0,100,0,100,0,,,,,,,100,,,1,1020.8469429560937,X,None,nogo,d,0,0.3715947026357753,,,,,,,,,,,,,,,,,11,001,20,w,Psychologie,2023-01-10_10h30.21.266,00_bat_bachelor,2022.2.4,59.982695888699986,
,,,,,,,,,,,,0,0,0,0,101,0,101,0,,,,,,,101,,,1,1022.3316297365382,Y,d,go,l,0,0.39035834808601066,,,,,,,,,,,,,,,,,11,001,20,w,Psychologie,2023-01-10_10h30.21.266,00_bat_bachelor,2022.2.4,59.982695888699986,
,,,,,,,,,,,,0,0,0,0,102,0,102,0,,,,,,,102,,,1,1023.8325647673046,X,l,go,None,0,,,,,,,,,,,,,,,,,,11,001,20,w,Psychologie,2023-01-10_10h30.21.266,00_bat_bachelor,2022.2.4,59.982695888699986,
,,,,,,,,,,,,0,0,0,0,103,0,103,0,,,,,,,103,,,1,1025.6339712164627,Y,d,go,l,0,0.30358545754279476,,,,,,,,,,,,,,,,,11,001,20,w,Psychologie,2023-01-10_10h30.21.266,00_bat_bachelor,2022.2.4,59.982695888699986,
,,,,,,,,,,,,0,0,0,0,104,0,104,0,,,,,,,104,,,1,1027.0685542150459,X,l,go,None,0,,1027.8690021182992,,,,,,,,,,,,,,,,11,001,20,w,Psychologie,2023-01-10_10h30.21.266,00_bat_bachelor,2022.2.4,59.982695888699986,
,,,,,,,,,,,,0,0,0,0,105,0,105,0,,,,,,,105,,,1,1028.8699451490538,X,None,nogo,None,1,,1029.670388688668,,,,,,,,,,,,,,,,11,001,20,w,Psychologie,2023-01-10_10h30.21.266,00_bat_bachelor,2022.2.4,59.982695888699986,
,,,,,,,,,,,,0,0,0,0,106,0,106,0,,,,,,,106,,,1,1030.6713060224429,Y,d,go,None,0,,1031.4717539256962,,,,,,,,,,,,,,,,11,001,20,w,Psychologie,2023-01-10_10h30.21.266,00_bat_bachelor,2022.2.4,59.982695888699986,
,,,,,,,,,,,,0,0,0,0,107,0,107,0,,,,,,,107,,,1,1032.4724875018,X,l,go,l,1,0.45752880489453673,,,,,,,,,,,,,,,,,11,001,20,w,Psychologie,2023-01-10_10h30.21.266,00_bat_bachelor,2022.2.4,59.982695888699986,
,,,,,,,,,,,,0,0,0,0,108,0,108,0,,,,,,,108,,,1,1034.0404838984105,Y,d,go,d,1,0.4891986384463962,,,,,,,,,,,,,,,,,11,001,20,w,Psychologie,2023-01-10_10h30.21.266,00_bat_bachelor,2022.2.4,59.982695888699986,
,,,,,,,,,,,,0,0,0,0,109,0,109,0,,,,,,,109,,,1,1035.6584604404634,X,l,go,None,0,,1036.4592535559932,,,,,,,,,,,,,,,,11,001,20,w,Psychologie,2023-01-10_10h30.21.266,00_bat_bachelor,2022.2.4,59.982695888699986,
,,,,,,,,,,,,0,0,0,0,110,0,110,0,,,,,,,110,,,1,1037.459993919998,X,None,nogo,None,1,,1038.26042436868,,,,,,,,,,,,,,,,11,001,20,w,Psychologie,2023-01-10_10h30.21.266,00_bat_bachelor,2022.2.4,59.982695888699986,
,,,,,,,,,,,,0,0,0,0,111,0,111,0,,,,,,,111,,,1,1039.2613373388303,Y,d,go,l,0,0.5652427965105744,,,,,,,,,,,,,,,,,11,001,20,w,Psychologie,2023-01-10_10h30.21.266,00_bat_bachelor,2022.2.4,59.982695888699986,
,,,,,,,,,,,,0,0,0,0,112,0,112,0,,,,,,,112,,,1,1040.9291088141035,X,l,go,None,0,,1041.7295775658567,,,,,,,,,,,,,,,,11,001,20,w,Psychologie,2023-01-10_10h30.21.266,00_bat_bachelor,2022.2.4,59.982695888699986,
,,,,,,,,,,,,0,0,0,0,113,0,113,0,,,,,,,113,,,1,1042.7303668995737,Y,d,go,l,0,0.39177265179750975,,,,,,,,,,,,,,,,,11,001,20,w,Psychologie,2023-01-10_10h30.21.266,00_bat_bachelor,2022.2.4,59.982695888699986,
,,,,,,,,,,,,0,0,0,0,114,0,114,0,,,,,,,114,,,1,1044.231603506225,Y,None,nogo,None,1,,1045.0320606215973,,,,,,,,,,,,,,,,11,001,20,w,Psychologie,2023-01-10_10h30.21.266,00_bat_bachelor,2022.2.4,59.982695888699986,
,,,,,,,,,,,,0,0,0,0,115,0,115,0,,,,,,,115,,,1,1046.032867409871,X,l,go,l,1,0.30559370093396865,,,,,,,,,,,,,,,,,11,001,20,w,Psychologie,2023-01-10_10h30.21.266,00_bat_bachelor,2022.2.4,59.982695888699986,
,,,,,,,,,,,,0,0,0,0,116,0,116,0,,,,,,,116,,,1,1047.4505660366267,Y,d,go,d,1,0.5186575618135976,,,,,,,,,,,,,,,,,11,001,20,w,Psychologie,2023-01-10_10h30.21.266,00_bat_bachelor,2022.2.4,59.982695888699986,
,,,,,,,,,,,,0,0,0,0,117,0,117,0,,,,,,,117,,,1,1049.1018536251358,Y,None,nogo,None,1,,1049.9024654072564,,,,,,,,,,,,,,,,11,001,20,w,Psychologie,2023-01-10_10h30.21.266,00_bat_bachelor,2022.2.4,59.982695888699986,
,,,,,,,,,,,,0,0,0,0,118,0,118,0,,,,,,,118,,,1,1050.9033880743664,X,l,go,l,1,0.666568906250177,,,,,,,,,,,,,,,,,11,001,20,w,Psychologie,2023-01-10_10h30.21.266,00_bat_bachelor,2022.2.4,59.982695888699986,
,,,,,,,,,,,,0,0,0,0,119,0,119,0,,,,,,,119,,,1,1052.688219000338,Y,d,go,d,1,0.3702570050081704,,,,,,,,,,,,,,,,,11,001,20,w,Psychologie,2023-01-10_10h30.21.266,00_bat_bachelor,2022.2.4,59.982695888699986,
,,,,,,,,,,,,0,0,0,0,120,0,120,0,,,,,,,120,,,1,1054.1723579017416,Y,None,nogo,None,1,,1054.973197562751,,,,,,,,,,,,,,,,11,001,20,w,Psychologie,2023-01-10_10h30.21.266,00_bat_bachelor,2022.2.4,59.982695888699986,
,,,,,,,,,,,,0,0,0,0,121,0,121,0,,,,,,,121,,,1,1055.9738302903424,X,l,go,l,1,0.2522777963022236,,,,,,,,,,,,,,,,,11,001,20,w,Psychologie,2023-01-10_10h30.21.266,00_bat_bachelor,2022.2.4,59.982695888699986,
,,,,,,,,,,,,0,0,0,0,122,0,122,0,,,,,,,122,,,1,1057.3411657411634,Y,d,go,None,0,,1058.1419166748674,,,,,,,,,,,,,,,,11,001,20,w,Psychologie,2023-01-10_10h30.21.266,00_bat_bachelor,2022.2.4,59.982695888699986,
,,,,,,,,,,,,0,0,0,0,123,0,123,0,,,,,,,123,,,1,1059.142520796362,X,l,go,l,1,0.6519502324954374,,,,,,,,,,,,,,,,,11,001,20,w,Psychologie,2023-01-10_10h30.21.266,00_bat_bachelor,2022.2.4,59.982695888699986,
,,,,,,,,,,,,0,0,0,0,124,0,124,0,,,,,,,124,,,1,1060.910782502193,Y,d,go,d,1,0.5318090833461611,,,,,,,,,,,,,,,,,11,001,20,w,Psychologie,2023-01-10_10h30.21.266,00_bat_bachelor,2022.2.4,59.982695888699986,
,,,,,,,,,,,,0,0,0,0,125,0,125,0,,,,,,,125,,,1,1062.5447832944337,X,l,go,None,0,,,,,,,,,,,,,,,,,,11,001,20,w,Psychologie,2023-01-10_10h30.21.266,00_bat_bachelor,2022.2.4,59.982695888699986,
,,,,,,,,,,,,0,0,0,0,126,0,126,0,,,,,,,126,,,1,1064.346474834645,X,None,nogo,l,0,0.32800437847618014,,,,,,,,,,,,,,,,,11,001,20,w,Psychologie,2023-01-10_10h30.21.266,00_bat_bachelor,2022.2.4,59.982695888699986,
,,,,,,,,,,,,0,0,0,0,127,0,127,0,,,,,,,127,,,1,1065.7809448634798,Y,d,go,None,0,,,,,,,,,,,,,,,,,,11,001,20,w,Psychologie,2023-01-10_10h30.21.266,00_bat_bachelor,2022.2.4,59.982695888699986,
,,,,,,,,,,,,0,0,0,0,128,0,128,0,,,,,,,128,,,1,1067.5828371310636,X,l,go,d,0,0.2749386557698017,,,,,,,,,,,,,,,,,11,001,20,w,Psychologie,2023-01-10_10h30.21.266,00_bat_bachelor,2022.2.4,59.982695888699986,
,,,,,,,,,,,,0,0,0,0,129,0,129,0,,,,,,,129,,,1,1068.9838225376006,Y,d,go,None,0,,1069.7848571078066,,,,,,,,,,,,,,,,11,001,20,w,Psychologie,2023-01-10_10h30.21.266,00_bat_bachelor,2022.2.4,59.982695888699986,
,,,,,,,,,,,,0,0,0,0,130,0,130,0,,,,,,,130,,,1,1070.7852013504016,X,l,go,l,1,0.3213842540571932,,,,,,,,,,,,,,,,,11,001,20,w,Psychologie,2023-01-10_10h30.21.266,00_bat_bachelor,2022.2.4,59.982695888699986,
,,,,,,,,,,,,0,0,0,0,131,0,131,0,,,,,,,131,,,1,1072.2363744176255,X,None,nogo,None,1,,1073.0373886241869,,,,,,,,,,,,,,,,11,001,20,w,Psychologie,2023-01-10_10h30.21.266,00_bat_bachelor,2022.2.4,59.982695888699986,
,,,,,,,,,,,,0,0,0,0,132,0,132,0,,,,,,,132,,,1,1074.037660624308,Y,d,go,d,1,0.31604849388531875,,,,,,,,,,,,,,,,,11,001,20,w,Psychologie,2023-01-10_10h30.21.266,00_bat_bachelor,2022.2.4,59.982695888699986,
,,,,,,,,,,,,0,0,0,0,133,0,133,0,,,,,,,133,,,1,1075.4889815704082,X,l,go,l,1,0.46483208116842434,,,,,,,,,,,,,,,,,11,001,20,w,Psychologie,2023-01-10_10h30.21.266,00_bat_bachelor,2022.2.4,59.982695888699986,
,,,,,,,,,,,,0,0,0,0,134,0,134,0,,,,,,,134,,,1,1077.0902638013358,Y,d,go,None,0,,1077.8911378866032,,,,,,,,,,,,,,,,11,001,20,w,Psychologie,2023-01-10_10h30.21.266,00_bat_bachelor,2022.2.4,59.982695888699986,
,,,,,,,,,,,,0,0,0,0,135,0,135,0,,,,,,,135,,,1,1078.8913003109337,X,l,go,l,1,0.5978828123479616,,,,,,,,,,,,,,,,,11,001,20,w,Psychologie,2023-01-10_10h30.21.266,00_bat_bachelor,2022.2.4,59.982695888699986,
,,,,,,,,,,,,0,0,0,0,136,0,136,0,,,,,,,136,,,1,1080.6093942348525,X,None,nogo,None,1,,1081.4103255322698,,,,,,,,,,,,,,,,11,001,20,w,Psychologie,2023-01-10_10h30.21.266,00_bat_bachelor,2022.2.4,59.982695888699986,
,,,,,,,,,,,,0,0,0,0,137,0,137,0,,,,,,,137,,,1,1082.410699350643,Y,d,go,d,1,0.5514323655806947,,,,,,,,,,,,,,,,,11,001,20,w,Psychologie,2023-01-10_10h30.21.266,00_bat_bachelor,2022.2.4,59.982695888699986,
,,,,,,,,,,,,0,0,0,0,138,0,138,0,,,,,,,138,,,1,1084.0786904623965,X,l,go,None,0,,1084.8796901234746,,,,,,,,,,,,,,,,11,001,20,w,Psychologie,2023-01-10_10h30.21.266,00_bat_bachelor,2022.2.4,59.982695888699986,
,,,,,,,,,,,,0,0,0,0,139,0,139,0,,,,,,,139,,,1,1085.880050366075,Y,d,go,None,0,,1086.6810092998785,,,,,,,,,,,,,,,,11,001,20,w,Psychologie,2023-01-10_10h30.21.266,00_bat_bachelor,2022.2.4,59.982695888699986,
,,,,,,,,,,,,0,0,0,0,140,0,140,0,,,,,,,140,,,1,1087.6816759668727,X,l,go,l,1,0.6570062349637737,,,,,,,,,,,,,,,,,11,001,20,w,Psychologie,2023-01-10_10h30.21.266,00_bat_bachelor,2022.2.4,59.982695888699986,
,,,,,,,,,,,,0,0,0,0,141,0,141,0,,,,,,,141,,,1,1089.4497927029297,Y,d,go,d,1,0.6002037831640337,,,,,,,,,,,,,,,,,11,001,20,w,Psychologie,2023-01-10_10h30.21.266,00_bat_bachelor,2022.2.4,59.982695888699986,
,,,,,,,,,,,,0,0,0,0,142,0,142,0,,,,,,,142,,,1,1091.1841280892695,Y,None,nogo,None,1,,1091.9851078715583,,,,,,,,,,,,,,,,11,001,20,w,Psychologie,2023-01-10_10h30.21.266,00_bat_bachelor,2022.2.4,59.982695888699986,
,,,,,,,,,,,,0,0,0,0,143,0,143,0,,,,,,,143,,,1,1092.985536477834,X,l,go,l,1,0.4408354634651914,,,,,,,,,,,,,,,,,11,001,20,w,Psychologie,2023-01-10_10h30.21.266,00_bat_bachelor,2022.2.4,59.982695888699986,
,,,,,,,,,,,,0,0,0,0,144,0,144,0,,,,,,,144,,,1,1094.5533588137478,Y,d,go,d,1,0.6004612378310412,,,,,,,,,,,,,,,,,11,001,20,w,Psychologie,2023-01-10_10h30.21.266,00_bat_bachelor,2022.2.4,59.982695888699986,
,,,,,,,,,,,,0,0,0,0,145,0,145,0,,,,,,,145,,,1,1096.2880442608584,Y,None,nogo,None,1,,1097.0890696189308,,,,,,,,,,,,,,,,11,001,20,w,Psychologie,2023-01-10_10h30.21.266,00_bat_bachelor,2022.2.4,59.982695888699986,
,,,,,,,,,,,,0,0,0,0,146,0,146,0,,,,,,,146,,,1,1098.0893949524325,X,l,go,l,1,0.4566837135789683,,,,,,,,,,,,,,,,,11,001,20,w,Psychologie,2023-01-10_10h30.21.266,00_bat_bachelor,2022.2.4,59.982695888699986,
,,,,,,,,,,,,0,0,0,0,147,0,147,0,,,,,,,147,,,1,1099.657281773223,Y,d,go,None,0,,1100.4583323434344,,,,,,,,,,,,,,,,11,001,20,w,Psychologie,2023-01-10_10h30.21.266,00_bat_bachelor,2022.2.4,59.982695888699986,
,,,,,,,,,,,,0,0,0,0,148,0,148,0,,,,,,,148,,,1,1101.4588841012737,X,l,go,l,1,0.6553412644425407,,,,,,,,,,,,,,,,,11,001,20,w,Psychologie,2023-01-10_10h30.21.266,00_bat_bachelor,2022.2.4,59.982695888699986,
,,,,,,,,,,,,0,0,0,0,149,0,149,0,,,,,,,149,,,1,1103.2435472695943,Y,d,go,d,1,0.45447474281536415,,,,,,,,,,,,,,,,,11,001,20,w,Psychologie,2023-01-10_10h30.21.266,00_bat_bachelor,2022.2.4,59.982695888699986,
,,,,,,,,,,,,0,0,0,0,150,0,150,0,,,,,,,150,,,1,1104.844585621613,X,l,go,l,1,0.5173082278342918,,,,,,,,,,,,,,,,,11,001,20,w,Psychologie,2023-01-10_10h30.21.266,00_bat_bachelor,2022.2.4,59.982695888699986,
,,,,,,,,,,,,0,0,0,0,151,0,151,0,,,,,,,151,,,1,1106.4794668991235,Y,d,go,d,1,0.4346308544045314,,,,,,,,,,,,,,,,,11,001,20,w,Psychologie,2023-01-10_10h30.21.266,00_bat_bachelor,2022.2.4,59.982695888699986,
,,,,,,,,,,,,0,0,0,0,152,0,152,0,,,,,,,152,,,1,1108.0470002652,X,l,go,l,1,0.3704523990454618,,,,,,,,,,,,,,,,,11,001,20,w,Psychologie,2023-01-10_10h30.21.266,00_bat_bachelor,2022.2.4,59.982695888699986,
,,,,,,,,,,,,0,0,0,0,153,0,153,0,,,,,,,153,,,1,1109.5481573566794,X,None,nogo,None,1,,1110.349185138999,,,,,,,,,,,,,,,,11,001,20,w,Psychologie,2023-01-10_10h30.21.266,00_bat_bachelor,2022.2.4,59.982695888699986,
,,,,,,,,,,,,0,0,0,0,154,0,154,0,,,,,,,154,,,1,1111.3498862302367,Y,d,go,d,1,0.6357039215945406,,,,,,,,,,,,,,,,,11,001,20,w,Psychologie,2023-01-10_10h30.21.266,00_bat_bachelor,2022.2.4,59.982695888699986,
,,,,,,,,,,,,0,0,0,0,155,0,155,0,,,,,,,155,,,1,1113.1174856327125,X,l,go,l,1,0.4848248181369854,,,,,,,,,,,,,,,,,11,001,20,w,Psychologie,2023-01-10_10h30.21.266,00_bat_bachelor,2022.2.4,59.982695888699986,
,,,,,,,,,,,,0,0,0,0,156,0,156,0,,,,,,,156,,,1,1114.7189608334302,X,None,nogo,l,0,0.5153722268878482,,,,,,,,,,,,,,,,,11,001,20,w,Psychologie,2023-01-10_10h30.21.266,00_bat_bachelor,2022.2.4,59.982695888699986,
,,,,,,,,,,,,0,0,0,0,157,0,157,0,,,,,,,157,,,1,1116.3700244218198,Y,d,go,d,1,0.5135201047814917,,,,,,,,,,,,,,,,,11,001,20,w,Psychologie,2023-01-10_10h30.21.266,00_bat_bachelor,2022.2.4,59.982695888699986,
,,,,,,,,,,,,0,0,0,0,158,0,158,0,,,,,,,158,,,1,1117.9879340547486,X,l,go,None,0,,1118.7890020795166,,,,,,,,,,,,,,,,11,001,20,w,Psychologie,2023-01-10_10h30.21.266,00_bat_bachelor,2022.2.4,59.982695888699986,
,,,,,,,,,,,,0,0,0,0,159,0,159,0,,,,,,,159,,,1,1119.789342928154,Y,d,go,d,1,0.56488255392469,,,,,,,,,,,,,,,,,11,001,20,w,Psychologie,2023-01-10_10h30.21.266,00_bat_bachelor,2022.2.4,59.982695888699986,
,,,,,,,,,,,,0,0,0,0,160,0,160,0,,,,,,,160,,,1,1121.4907856924983,Y,None,nogo,l,0,0.4968975512601901,,,,,,,,,,,,,,,,,11,001,20,w,Psychologie,2023-01-10_10h30.21.266,00_bat_bachelor,2022.2.4,59.982695888699986,
,,,,,,,,,,,,0,0,0,0,161,0,161,0,,,,,,,161,,,1,1123.0920305900654,X,l,go,l,1,0.5903894753864734,,,,,,,,,,,,,,,,,11,001,20,w,Psychologie,2023-01-10_10h30.21.266,00_bat_bachelor,2022.2.4,59.982695888699986,
,,,,,,,,,,,,0,0,0,0,162,0,162,0,,,,,,,162,,,1,1124.809792877466,Y,d,go,d,1,0.48805730455205776,,,,,,,,,,,,,,,,,11,001,20,w,Psychologie,2023-01-10_10h30.21.266,00_bat_bachelor,2022.2.4,59.982695888699986,
,,,,,,,,,,,,0,0,0,0,163,0,163,0,,,,,,,163,,,1,1126.4443425184581,X,l,go,None,0,,1127.245347512886,,,,,,,,,,,,,,,,11,001,20,w,Psychologie,2023-01-10_10h30.21.266,00_bat_bachelor,2022.2.4,59.982695888699986,
,,,,,,,,,,,,0,0,0,0,164,0,164,0,,,,,,,164,,,1,1128.245885694967,X,None,nogo,l,0,0.46061195791116916,,,,,,,,,,,,,,,,,11,001,20,w,Psychologie,2023-01-10_10h30.21.266,00_bat_bachelor,2022.2.4,59.982695888699986,
,,,,,,,,,,,,0,0,0,0,165,0,165,0,,,,,,,165,,,1,1129.8135669399053,Y,d,go,d,1,0.6354421032883693,,,,,,,,,,,,,,,,,11,001,20,w,Psychologie,2023-01-10_10h30.21.266,00_bat_bachelor,2022.2.4,59.982695888699986,
,,,,,,,,,,,,0,0,0,0,166,0,166,0,,,,,,,166,,,1,1131.5818732518092,X,l,go,l,1,0.2766753838805016,,,,,,,,,,,,,,,,,11,001,20,w,Psychologie,2023-01-10_10h30.21.266,00_bat_bachelor,2022.2.4,59.982695888699986,
,,,,,,,,,,,,0,0,0,0,167,0,167,0,,,,,,,167,,,1,1132.98288338563,X,None,nogo,None,1,,1133.7831887433567,,,,,,,,,,,,,,,,11,001,20,w,Psychologie,2023-01-10_10h30.21.266,00_bat_bachelor,2022.2.4,59.982695888699986,
,,,,,,,,,,,,0,0,0,0,168,0,168,0,,,,,,,168,,,1,1134.7839329861454,Y,d,go,d,1,0.41819205855426844,,,,,,,,,,,,,,,,,11,001,20,w,Psychologie,2023-01-10_10h30.21.266,00_bat_bachelor,2022.2.4,59.982695888699986,
,,,,,,,,,,,,0,0,0,0,169,0,169,0,,,,,,,169,,,1,1136.3182440330856,X,l,go,l,1,0.6116777281131363,,,,,,,,,,,,,,,,,11,001,20,w,Psychologie,2023-01-10_10h30.21.266,00_bat_bachelor,2022.2.4,59.982695888699986,
,,,,,,,,,,,,0,0,0,0,170,0,170,0,,,,,,,170,,,1,1138.0362705630396,Y,d,go,d,1,0.3338186843175208,,,,,,,,,,,,,,,,,11,001,20,w,Psychologie,2023-01-10_10h30.21.266,00_bat_bachelor,2022.2.4,59.982695888699986,
,,,,,,,,,,,,0,0,0,0,171,0,171,0,,,,,,,171,,,1,1139.4708976828551,Y,None,nogo,l,0,0.41935278638266027,,,,,,,,,,,,,,,,,11,001,20,w,Psychologie,2023-01-10_10h30.21.266,00_bat_bachelor,2022.2.4,59.982695888699986,
,,,,,,,,,,,,0,0,0,0,172,0,172,0,,,,,,,172,,,1,1141.0054104268638,X,l,go,None,0,,1141.8059940877429,,,,,,,,,,,,,,,,11,001,20,w,Psychologie,2023-01-10_10h30.21.266,00_bat_bachelor,2022.2.4,59.982695888699986,
,,,,,,,,,,,,0,0,0,0,173,0,173,0,,,,,,,173,,,1,1142.8066840274842,Y,d,go,d,1,0.45960444226511754,,,,,,,,,,,,,,,,,11,001,20,w,Psychologie,2023-01-10_10h30.21.266,00_bat_bachelor,2022.2.4,59.982695888699986,
,,,,,,,,,,,,0,0,0,0,174,0,174,0,,,,,,,174,,,1,1144.3746333937597,Y,None,nogo,d,0,0.5881965046282858,,,,,,,,,,,,,,,,,11,001,20,w,Psychologie,2023-01-10_10h30.21.266,00_bat_bachelor,2022.2.4,59.982695888699986,
,,,,,,,,,,,,0,0,0,0,175,0,175,0,,,,,,,175,,,1,1146.07590452164,X,l,go,l,1,0.37423373422643635,,,,,,,,,,,,,,,,,11,001,20,w,Psychologie,2023-01-10_10h30.21.266,00_bat_bachelor,2022.2.4,59.982695888699986,
,,,,,,,,,,,,0,0,0,0,176,0,176,0,,,,,,,176,,,1,1147.5770863404032,Y,d,go,d,1,0.5203521080838982,,,,,,,,,,,,,,,,,11,001,20,w,Psychologie,2023-01-10_10h30.21.266,00_bat_bachelor,2022.2.4,59.982695888699986,
,,,,,,,,,,,,0,0,0,0,177,0,177,0,,,,,,,177,,,1,1149.2283239894896,X,l,go,l,1,0.278767021256499,,,,,,,,,,,,,,,,,11,001,20,w,Psychologie,2023-01-10_10h30.21.266,00_bat_bachelor,2022.2.4,59.982695888699986,
,,,,,,,,,,,,0,0,0,0,178,0,178,0,,,,,,,178,,,1,1150.6127091455564,X,None,nogo,None,1,,1151.413301048873,,,,,,,,,,,,,,,,11,001,20,w,Psychologie,2023-01-10_10h30.21.266,00_bat_bachelor,2022.2.4,59.982695888699986,
,,,,,,,,,,,,0,0,0,0,179,0,179,0,,,,,,,179,,,1,1152.4138707461098,Y,d,go,d,1,0.46845632535405457,,,,,,,,,,,,,,,,,11,001,20,w,Psychologie,2023-01-10_10h30.21.266,00_bat_bachelor,2022.2.4,59.982695888699986,
,,,,,,,,,,,,0,0,0,0,180,0,180,0,,,,,,,180,,,1,1153.9983767264785,X,l,go,None,0,,,,,,,,,,,,,,,,,,11,001,20,w,Psychologie,2023-01-10_10h30.21.266,00_bat_bachelor,2022.2.4,59.982695888699986,
,,,,,,,,,,,,0,0,0,0,181,0,181,0,,,,,,,181,,,1,1155.7997468119866,X,None,nogo,None,1,,1156.6001370182494,,,,,,,,,,,,,,,,11,001,20,w,Psychologie,2023-01-10_10h30.21.266,00_bat_bachelor,2022.2.4,59.982695888699986,
,,,,,,,,,,,,0,0,0,0,182,0,182,0,,,,,,,182,,,1,1157.6011382308498,Y,d,go,d,1,0.48185124092560727,,,,,,,,,,,,,,,,,11,001,20,w,Psychologie,2023-01-10_10h30.21.266,00_bat_bachelor,2022.2.4,59.982695888699986,
,,,,,,,,,,,,0,0,0,0,183,0,183,0,,,,,,,183,,,1,1159.1855501505634,X,l,go,l,1,0.33680729182378855,,,,,,,,,,,,,,,,,11,001,20,w,Psychologie,2023-01-10_10h30.21.266,00_bat_bachelor,2022.2.4,59.982695888699986,
,,,,,,,,,,,,0,0,0,0,184,0,184,0,,,,,,,184,,,1,1160.636538005594,Y,d,go,d,1,0.5666435244784225,,,,,,,,,,,,,,,,,11,001,20,w,Psychologie,2023-01-10_10h30.21.266,00_bat_bachelor,2022.2.4,59.982695888699986,
,,,,,,,,,,,,0,0,0,0,185,0,185,0,,,,,,,185,,,1,1162.3045611173584,X,l,go,l,1,0.5304801129968837,,,,,,,,,,,,,,,,,11,001,20,w,Psychologie,2023-01-10_10h30.21.266,00_bat_bachelor,2022.2.4,59.982695888699986,
,,,,,,,,,,,,0,0,0,0,186,0,186,0,,,,,,,186,,,1,1163.9388261521526,X,None,nogo,l,0,0.6075366352015408,,,,,,,,,,,,,,,,,11,001,20,w,Psychologie,2023-01-10_10h30.21.266,00_bat_bachelor,2022.2.4,59.982695888699986,
,,,,,,,,,,,,0,0,0,0,187,0,187,0,,,,,,,187,,,1,1165.6568008032918,X,None,nogo,l,0,0.5224393818207318,,,,,,,,,,,,,,,,,11,001,20,w,Psychologie,2023-01-10_10h30.21.266,00_bat_bachelor,2022.2.4,59.982695888699986,
,,,,,,,,,,,,0,0,0,0,188,0,188,0,,,,,,,188,,,1,1167.2917111717397,Y,d,go,None,0,,,,,,,,,,,,,,,,,,11,001,20,w,Psychologie,2023-01-10_10h30.21.266,00_bat_bachelor,2022.2.4,59.982695888699986,
,,,,,,,,,,,,0,0,0,0,189,0,189,0,,,,,,,189,,,1,1169.0927515601215,X,l,go,l,1,0.4948393684462644,,,,,,,,,,,,,,,,,11,001,20,w,Psychologie,2023-01-10_10h30.21.266,00_bat_bachelor,2022.2.4,59.982695888699986,
,,,,,,,,,,,,0,0,0,0,190,0,190,0,,,,,,,190,,,1,1170.6941879729275,X,None,nogo,l,0,0.49281367048388347,,,,,,,,,,,,,,,,,11,001,20,w,Psychologie,2023-01-10_10h30.21.266,00_bat_bachelor,2022.2.4,59.982695888699986,
,,,,,,,,,,,,0,0,0,0,191,0,191,0,,,,,,,191,,,1,1172.2959662040957,Y,d,go,d,1,0.6021989356522681,,,,,,,,,,,,,,,,,11,001,20,w,Psychologie,2023-01-10_10h30.21.266,00_bat_bachelor,2022.2.4,59.982695888699986,
,,,,,,,,,,,,0,0,0,0,192,0,192,0,,,,,,,192,,,1,1174.0139219461416,X,l,go,l,1,0.37141627829987556,,,,,,,,,,,,,,,,,11,001,20,w,Psychologie,2023-01-10_10h30.21.266,00_bat_bachelor,2022.2.4,59.982695888699986,
,,,,,,,,,,,,0,0,0,0,193,0,193,0,,,,,,,193,,,1,1175.5153030377114,X,None,nogo,d,0,0.5022139174689073,,,,,,,,,,,,,,,,,11,001,20,w,Psychologie,2023-01-10_10h30.21.266,00_bat_bachelor,2022.2.4,59.982695888699986,
,,,,,,,,,,,,0,0,0,0,194,0,194,0,,,,,,,194,,,1,1177.1496946180268,Y,d,go,None,0,,1177.9507194912585,,,,,,,,,,,,,,,,11,001,20,w,Psychologie,2023-01-10_10h30.21.266,00_bat_bachelor,2022.2.4,59.982695888699986,
,,,,,,,,,,,,0,0,0,0,195,0,195,0,,,,,,,195,,,1,1178.951301794572,X,l,go,None,0,,1179.751939758513,,,,,,,,,,,,,,,,11,001,20,w,Psychologie,2023-01-10_10h30.21.266,00_bat_bachelor,2022.2.4,59.982695888699986,
,,,,,,,,,,,,0,0,0,0,196,0,196,0,,,,,,,196,,,1,1180.7526743043272,X,None,nogo,d,0,0.3374453527358128,,,,,,,,,,,,,,,,,11,001,20,w,Psychologie,2023-01-10_10h30.21.266,00_bat_bachelor,2022.2.4,59.982695888699986,
,,,,,,,,,,,,0,0,0,0,197,0,197,0,,,,,,,197,,,1,1182.2034434925736,Y,d,go,d,1,0.6145586992060998,,,,,,,,,,,,,,,,,11,001,20,w,Psychologie,2023-01-10_10h30.21.266,00_bat_bachelor,2022.2.4,59.982695888699986,
,,,,,,,,,,,,0,0,0,0,198,0,198,0,,,,,,,198,,,1,1183.9548668872012,X,l,go,l,1,0.3350230485375505,,,,,,,,,,,,,,,,,11,001,20,w,Psychologie,2023-01-10_10h30.21.266,00_bat_bachelor,2022.2.4,59.982695888699986,
,,,,,,,,,,,,0,0,0,0,199,0,199,0,,,,,,,199,,,1,1185.4059458937845,Y,d,go,d,1,0.5643943112663692,,,,,,,,,,,,,,,,,11,001,20,w,Psychologie,2023-01-10_10h30.21.266,00_bat_bachelor,2022.2.4,59.982695888699986,
,,,,,,,,,,,,0,0,0,0,200,0,200,0,,,,,,,200,,,1,1187.0741357935185,X,l,go,None,0,,1187.8749720605847,,,,,,,,,,,,,,,,11,001,20,w,Psychologie,2023-01-10_10h30.21.266,00_bat_bachelor,2022.2.4,59.982695888699986,
,,,,,,,,,,,,0,0,0,0,201,0,201,0,,,,,,,201,,,1,1188.8752435758652,Y,d,go,d,1,0.45408298504480626,,,,,,,,,,,,,,,,,11,001,20,w,Psychologie,2023-01-10_10h30.21.266,00_bat_bachelor,2022.2.4,59.982695888699986,
,,,,,,,,,,,,0,0,0,0,202,0,202,0,,,,,,,202,,,1,1190.4767289584124,X,l,go,l,1,0.37399712804472074,,,,,,,,,,,,,,,,,11,001,20,w,Psychologie,2023-01-10_10h30.21.266,00_bat_bachelor,2022.2.4,59.982695888699986,
,,,,,,,,,,,,0,0,0,0,203,0,203,0,,,,,,,203,,,1,1191.9608935567958,Y,d,go,d,1,0.5209664114227053,,,,,,,,,,,,,,,,,11,001,20,w,Psychologie,2023-01-10_10h30.21.266,00_bat_bachelor,2022.2.4,59.982695888699986,
,,,,,,,,,,,,0,0,0,0,204,0,204,0,,,,,,,204,,,1,1193.6123023574764,X,l,go,l,1,0.5024907660845201,,,,,,,,,,,,,,,,,11,001,20,w,Psychologie,2023-01-10_10h30.21.266,00_bat_bachelor,2022.2.4,59.982695888699986,
,,,,,,,,,,,,0,0,0,0,205,0,205,0,,,,,,,205,,,1,1195.2304141723143,Y,d,go,d,1,0.34007177824969403,,,,,,,,,,,,,,,,,11,001,20,w,Psychologie,2023-01-10_10h30.21.266,00_bat_bachelor,2022.2.4,59.982695888699986,
,,,,,,,,,,,,0,0,0,0,206,0,206,0,,,,,,,206,,,1,1196.6812924515252,Y,None,nogo,d,0,0.392655076488154,,,,,,,,,,,,,,,,,11,001,20,w,Psychologie,2023-01-10_10h30.21.266,00_bat_bachelor,2022.2.4,59.982695888699986,
,,,,,,,,,,,,0,0,0,0,207,0,207,0,,,,,,,207,,,1,1198.1823680884117,X,l,go,l,1,0.347402690895251,,,,,,,,,,,,,,,,,11,001,20,w,Psychologie,2023-01-10_10h30.21.266,00_bat_bachelor,2022.2.4,59.982695888699986,
,,,,,,,,,,,,0,0,0,0,208,0,208,0,,,,,,,208,,,1,1199.650441527483,Y,d,go,d,1,0.5270721113338368,,,,,,,,,,,,,,,,,11,001,20,w,Psychologie,2023-01-10_10h30.21.266,00_bat_bachelor,2022.2.4,59.982695888699986,
,,,,,,,,,,,,0,0,0,0,209,0,209,0,,,,,,,209,,,1,1201.301351418835,X,l,go,l,1,0.3646637901838403,,,,,,,,,,,,,,,,,11,001,20,w,Psychologie,2023-01-10_10h30.21.266,00_bat_bachelor,2022.2.4,59.982695888699986,
,,,,,,,,,,,,0,0,0,0,210,0,210,0,,,,,,,210,,,1,1202.7860061992687,X,None,nogo,l,0,0.6394086506625172,,,,,,,,,,,,,,,,,11,001,20,w,Psychologie,2023-01-10_10h30.21.266,00_bat_bachelor,2022.2.4,59.982695888699986,
,,,,,,,,,,,,0,0,0,0,211,0,211,0,,,,,,,211,,,1,1204.5539590564586,Y,d,go,d,1,0.2955214536195854,,,,,,,,,,,,,,,,,11,001,20,w,Psychologie,2023-01-10_10h30.21.266,00_bat_bachelor,2022.2.4,59.982695888699986,
,,,,,,,,,,,,0,0,0,0,212,0,212,0,,,,,,,212,,,1,1205.9884964792727,X,l,go,l,1,0.3010007290140493,,,,,,,,,,,,,,,,,11,001,20,w,Psychologie,2023-01-10_10h30.21.266,00_bat_bachelor,2022.2.4,59.982695888699986,
,,,,,,,,,,,,0,0,0,0,213,0,213,0,,,,,,,213,,,1,1207.4228045686323,X,None,nogo,l,0,0.6274881600256776,,,,,,,,,,,,,,,,,11,001,20,w,Psychologie,2023-01-10_10h30.21.266,00_bat_bachelor,2022.2.4,59.982695888699986,
,,,,,,,,,,,,0,0,0,0,214,0,214,0,,,,,,,214,,,1,1209.1739292964485,Y,d,go,d,1,0.4931220342841698,,,,,,,,,,,,,,,,,11,001,20,w,Psychologie,2023-01-10_10h30.21.266,00_bat_bachelor,2022.2.4,59.982695888699986,
,,,,,,,,,,,,0,0,0,0,215,0,215,0,,,,,,,215,,,1,1210.7748532241676,X,l,go,l,1,0.4911913666728651,,,,,,,,,,,,,,,,,11,001,20,w,Psychologie,2023-01-10_10h30.21.266,00_bat_bachelor,2022.2.4,59.982695888699986,
,,,,,,,,,,,,0,0,0,0,216,0,216,0,,,,,,,216,,,1,1212.3758930307376,Y,d,go,d,1,0.4920243367814692,,,,,,,,,,,,,,,,,11,001,20,w,Psychologie,2023-01-10_10h30.21.266,00_bat_bachelor,2022.2.4,59.982695888699986,
,,,,,,,,,,,,0,0,0,0,217,0,217,0,,,,,,,217,,,1,1213.9773134435382,X,l,go,l,1,0.47337657016760204,,,,,,,,,,,,,,,,,11,001,20,w,Psychologie,2023-01-10_10h30.21.266,00_bat_bachelor,2022.2.4,59.982695888699986,
,,,,,,,,,,,,0,0,0,0,218,0,218,0,,,,,,,218,,,1,1215.5616366359463,Y,d,go,d,1,0.5368932070268784,,,,,,,,,,,,,,,,,11,001,20,w,Psychologie,2023-01-10_10h30.21.266,00_bat_bachelor,2022.2.4,59.982695888699986,
,,,,,,,,,,,,0,0,0,0,219,0,219,0,,,,,,,219,,,1,1217.213120103319,Y,None,nogo,l,0,0.29512824131234083,,,,,,,,,,,,,,,,,11,001,20,w,Psychologie,2023-01-10_10h30.21.266,00_bat_bachelor,2022.2.4,59.982695888699986,
,,,,,,,,,,,,0,0,0,0,220,0,220,0,,,,,,,220,,,1,1218.6142015099176,Y,None,nogo,d,0,0.31699976706295274,,,,,,,,,,,,,,,,,11,001,20,w,Psychologie,2023-01-10_10h30.21.266,00_bat_bachelor,2022.2.4,59.982695888699986,
,,,,,,,,,,,,0,0,0,0,221,0,221,0,,,,,,,221,,,1,1220.0323447429546,X,l,go,l,1,0.4340897632355336,,,,,,,,,,,,,,,,,11,001,20,w,Psychologie,2023-01-10_10h30.21.266,00_bat_bachelor,2022.2.4,59.982695888699986,
,,,,,,,,,,,,0,0,0,0,222,0,222,0,,,,,,,222,,,1,1221.5668482748297,Y,d,go,None,0,,1222.367546360023,,,,,,,,,,,,,,,,11,001,20,w,Psychologie,2023-01-10_10h30.21.266,00_bat_bachelor,2022.2.4,59.982695888699986,
,,,,,,,,,,,,0,0,0,0,223,0,223,0,,,,,,,223,,,1,1223.3680952087743,Y,None,nogo,d,0,0.5708171022561146,,,,,,,,,,,,,,,,,11,001,20,w,Psychologie,2023-01-10_10h30.21.266,00_bat_bachelor,2022.2.4,59.982695888699986,
,,,,,,,,,,,,0,0,0,0,224,0,224,0,,,,,,,224,,,1,1225.0527452376846,X,l,go,l,1,0.5819002591451863,,,,,,,,,,,,,,,,,11,001,20,w,Psychologie,2023-01-10_10h30.21.266,00_bat_bachelor,2022.2.4,59.982695888699986,
,,,,,,,,,,,,0,0,0,0,225,0,225,0,,,,,,,225,,,1,1226.7373608423513,Y,d,go,d,1,0.512783134719939,,,,,,,,,,,,,,,,,11,001,20,w,Psychologie,2023-01-10_10h30.21.266,00_bat_bachelor,2022.2.4,59.982695888699986,
,,,,,,,,,,,,0,0,0,0,226,0,226,0,,,,,,,226,,,1,1228.355264172249,X,l,go,l,1,0.526669686922105,,,,,,,,,,,,,,,,,11,001,20,w,Psychologie,2023-01-10_10h30.21.266,00_bat_bachelor,2022.2.4,59.982695888699986,
,,,,,,,,,,,,0,0,0,0,227,0,227,0,,,,,,,227,,,1,1230.0066913971823,X,None,nogo,None,1,,1230.8071140882967,,,,,,,,,,,,,,,,11,001,20,w,Psychologie,2023-01-10_10h30.21.266,00_bat_bachelor,2022.2.4,59.982695888699986,
,,,,,,,,,,,,0,0,0,0,228,0,228,0,,,,,,,228,,,1,1231.808044512989,Y,d,go,None,0,,1232.6084769010777,,,,,,,,,,,,,,,,11,001,20,w,Psychologie,2023-01-10_10h30.21.266,00_bat_bachelor,2022.2.4,59.982695888699986,
,,,,,,,,,,,,0,0,0,0,229,0,229,0,,,,,,,229,,,1,1233.6093239317852,X,l,go,l,1,0.489330517288181,,,,,,,,,,,,,,,,,11,001,20,w,Psychologie,2023-01-10_10h30.21.266,00_bat_bachelor,2022.2.4,59.982695888699986,
,,,,,,,,,,,,0,0,0,0,230,0,230,0,,,,,,,230,,,1,1235.210478162655,Y,d,go,d,1,0.6486469581723213,,,,,,,,,,,,,,,,,11,001,20,w,Psychologie,2023-01-10_10h30.21.266,00_bat_bachelor,2022.2.4,59.982695888699986,
,,,,,,,,,,,,0,0,0,0,231,0,231,0,,,,,,,231,,,1,1236.9618356178544,X,l,go,l,1,0.2880528439418413,,,,,,,,,,,,,,,,,11,001,20,w,Psychologie,2023-01-10_10h30.21.266,00_bat_bachelor,2022.2.4,59.982695888699986,
,,,,,,,,,,,,0,0,0,0,232,0,232,0,,,,,,,232,,,1,1238.3795788506977,Y,d,go,d,1,0.5672738278080942,,,,,,,,,,,,,,,,,11,001,20,w,Psychologie,2023-01-10_10h30.21.266,00_bat_bachelor,2022.2.4,59.982695888699986,
,,,,,,,,,,,,0,0,0,0,233,0,233,0,,,,,,,233,,,1,1240.047719780705,X,l,go,l,1,0.4184912102064118,,,,,,,,,,,,,,,,,11,001,20,w,Psychologie,2023-01-10_10h30.21.266,00_bat_bachelor,2022.2.4,59.982695888699986,
,,,,,,,,,,,,0,0,0,0,234,0,234,0,,,,,,,234,,,1,1241.598674714507,X,None,nogo,l,0,0.5630730984994443,,,,,,,,,,,,,,,,,11,001,20,w,Psychologie,2023-01-10_10h30.21.266,00_bat_bachelor,2022.2.4,59.982695888699986,
,,,,,,,,,,,,0,0,0,0,235,0,235,0,,,,,,,235,,,1,1243.2834789253247,Y,d,go,d,1,0.43162915598077234,,,,,,,,,,,,,,,,,11,001,20,w,Psychologie,2023-01-10_10h30.21.266,00_bat_bachelor,2022.2.4,59.982695888699986,
,,,,,,,,,,,,0,0,0,0,236,0,236,0,,,,,,,236,,,1,1244.8179766390094,X,l,go,l,1,0.6083080295211403,,,,,,,,,,,,,,,,,11,001,20,w,Psychologie,2023-01-10_10h30.21.266,00_bat_bachelor,2022.2.4,59.982695888699986,
,,,,,,,,,,,,0,0,0,0,237,0,237,0,,,,,,,237,,,1,1246.552616510351,Y,d,go,d,1,0.3624596679001115,,,,,,,,,,,,,,,,,11,001,20,w,Psychologie,2023-01-10_10h30.21.266,00_bat_bachelor,2022.2.4,59.982695888699986,
,,,,,,,,,,,,0,0,0,0,238,0,238,0,,,,,,,238,,,1,1248.0202564946667,Y,None,nogo,d,0,0.4305251554469578,,,,,,,,,,,,,,,,,11,001,20,w,Psychologie,2023-01-10_10h30.21.266,00_bat_bachelor,2022.2.4,59.982695888699986,
,,,,,,,,,,,,0,0,0,0,239,0,239,0,,,,,,,239,,,1,1249.554822087186,X,l,go,l,1,0.6231322791281855,,,,,,,,,,,,,,,,,11,001,20,w,Psychologie,2023-01-10_10h30.21.266,00_bat_bachelor,2022.2.4,59.982695888699986,
,,,,,,,,,,,,0,0,0,0,240,0,240,0,,,,,,,240,,,1,1251.2895831706992,Y,d,go,d,1,0.45786238081927877,,,,,,,,,,,,,,,,,11,001,20,w,Psychologie,2023-01-10_10h30.21.266,00_bat_bachelor,2022.2.4,59.982695888699986,
,,,,,,,,,,,,0,0,0,0,241,0,241,0,,,,,,,241,,,1,1252.8574729005923,Y,None,nogo,None,1,,1253.6579057735216,,,,,,,,,,,,,,,,11,001,20,w,Psychologie,2023-01-10_10h30.21.266,00_bat_bachelor,2022.2.4,59.982695888699986,
,,,,,,,,,,,,0,0,0,0,242,0,242,0,,,,,,,242,,,1,1254.6588109860895,X,l,go,l,1,0.30406400322681293,,,,,,,,,,,,,,,,,11,001,20,w,Psychologie,2023-01-10_10h30.21.266,00_bat_bachelor,2022.2.4,59.982695888699986,
,,,,,,,,,,,,0,0,0,0,243,0,243,0,,,,,,,243,,,1,1256.076727309919,Y,d,go,d,1,0.42247133336786646,,,,,,,,,,,,,,,,,11,001,20,w,Psychologie,2023-01-10_10h30.21.266,00_bat_bachelor,2022.2.4,59.982695888699986,
,,,,,,,,,,,,0,0,0,0,244,0,244,0,,,,,,,244,,,1,1257.6108861143584,Y,None,nogo,None,1,,1258.4117097753624,,,,,,,,,,,,,,,,11,001,20,w,Psychologie,2023-01-10_10h30.21.266,00_bat_bachelor,2022.2.4,59.982695888699986,
,,,,,,,,,,,,0,0,0,0,245,0,245,0,,,,,,,245,,,1,1259.4122605635202,X,l,go,l,1,0.4296640641114209,,,,,,,,,,,,,,,,,11,001,20,w,Psychologie,2023-01-10_10h30.21.266,00_bat_bachelor,2022.2.4,59.982695888699986,
,,,,,,,,,,,,0,0,0,0,246,0,246,0,,,,,,,246,,,1,1260.9469653076085,Y,d,go,d,1,0.5110614369186806,,,,,,,,,,,,,,,,,11,001,20,w,Psychologie,2023-01-10_10h30.21.266,00_bat_bachelor,2022.2.4,59.982695888699986,
,,,,,,,,,,,,0,0,0,0,247,0,247,0,,,,,,,247,,,1,1262.581540645595,X,l,go,l,1,0.364780153875472,,,,,,,,,,,,,,,,,11,001,20,w,Psychologie,2023-01-10_10h30.21.266,00_bat_bachelor,2022.2.4,59.982695888699986,
,,,,,,,,,,,,0,0,0,0,248,0,248,0,,,,,,,248,,,1,1264.0488591751928,Y,d,go,None,0,,1264.8493885330245,,,,,,,,,,,,,,,,11,001,20,w,Psychologie,2023-01-10_10h30.21.266,00_bat_bachelor,2022.2.4,59.982695888699986,
,,,,,,,,,,,,0,0,0,0,249,0,249,0,,,,,,,249,,,1,1265.8503863516962,Y,None,nogo,None,1,,1266.6654175347358,,,,,,,,,,,,,,,,11,001,20,w,Psychologie,2023-01-10_10h30.21.266,00_bat_bachelor,2022.2.4,59.982695888699986,
,,,,,,,,,,,,1,0,1,0,0,0,0,0,,,,,,,0,,,0.2,1270.9704673796223,X,l,go,None,0,,1271.771318676998,,,,,,,,1266.6654175347358,space,4.076263650349574,,,,,,11,001,20,w,Psychologie,2023-01-10_10h30.21.266,00_bat_bachelor,2022.2.4,59.982695888699986,
,,,,,,,,,,,,1,0,1,0,1,0,1,0,,,,,,,1,,,0.2,1271.9715185316454,Y,d,go,None,0,,,,,,,,,,,,,,,,,,11,001,20,w,Psychologie,2023-01-10_10h30.21.266,00_bat_bachelor,2022.2.4,59.982695888699986,
,,,,,,,,,,,,1,0,1,0,2,0,2,0,,,,,,,2,,,0.2,1272.9722002289345,X,l,go,None,0,,,,,,,,,,,,,,,,,,11,001,20,w,Psychologie,2023-01-10_10h30.21.266,00_bat_bachelor,2022.2.4,59.982695888699986,
,,,,,,,,,,,,1,0,1,0,3,0,3,0,,,,,,,3,,,0.2,1273.9731786536577,X,None,nogo,None,1,,1274.7736517690355,,,,,,,,,,,,,,,,11,001,20,w,Psychologie,2023-01-10_10h30.21.266,00_bat_bachelor,2022.2.4,59.982695888699986,
,,,,,,,,,,,,1,0,1,0,4,0,4,0,,,,,,,4,,,0.2,1274.9735262901959,Y,d,go,None,0,,,,,,,,,,,,,,,,,,11,001,20,w,Psychologie,2023-01-10_10h30.21.266,00_bat_bachelor,2022.2.4,59.982695888699986,
,,,,,,,,,,,,1,0,1,0,5,0,5,0,,,,,,,5,,,0.2,1275.9745948967611,X,l,go,None,0,,,,,,,,,,,,,,,,,,11,001,20,w,Psychologie,2023-01-10_10h30.21.266,00_bat_bachelor,2022.2.4,59.982695888699986,
,,,,,,,,,,,,1,0,1,0,6,0,6,0,,,,,,,6,,,0.2,1276.9750753818516,Y,d,go,None,0,,,,,,,,,,,,,,,,,,11,001,20,w,Psychologie,2023-01-10_10h30.21.266,00_bat_bachelor,2022.2.4,59.982695888699986,
,,,,,,,,,,,,1,0,1,0,7,0,7,0,,,,,,,7,,,0.2,1277.976032958075,Y,None,nogo,None,1,,1278.7767504372023,,,,,,,,,,,,,,,,11,001,20,w,Psychologie,2023-01-10_10h30.21.266,00_bat_bachelor,2022.2.4,59.982695888699986,
,,,,,,,,,,,,1,0,1,0,8,0,8,0,,,,,,,8,,,0.2,1278.9768843524216,X,l,go,l,1,0.14628016913775355,,,,,,,,,,,,,,,,,11,001,20,w,Psychologie,2023-01-10_10h30.21.266,00_bat_bachelor,2022.2.4,59.982695888699986,
,,,,,,,,,,,,1,0,1,0,9,0,9,0,,,,,,,9,,,0.2,1279.4271236010245,Y,d,go,None,0,,,,,,,,,,,,,,,,,,11,001,20,w,Psychologie,2023-01-10_10h30.21.266,00_bat_bachelor,2022.2.4,59.982695888699986,
,,,,,,,,,,,,1,0,1,0,10,0,10,0,,,,,,,10,,,0.2,1280.4277922074107,X,l,go,l,1,0.6153843965876149,,,,,,,,,,,,,,,,,11,001,20,w,Psychologie,2023-01-10_10h30.21.266,00_bat_bachelor,2022.2.4,59.982695888699986,
,,,,,,,,,,,,1,0,1,0,11,0,11,0,,,,,,,11,,,0.2,1281.3454028341366,Y,d,go,None,0,,1282.1460020101804,,,,,,,,,,,,,,,,11,001,20,w,Psychologie,2023-01-10_10h30.21.266,00_bat_bachelor,2022.2.4,59.982695888699986,
,,,,,,,,,,,,1,0,1,0,12,0,12,0,,,,,,,12,,,0.2,1282.3458789555734,X,l,go,None,0,,,,,,,,,,,,,,,,,,11,001,20,w,Psychologie,2023-01-10_10h30.21.266,00_bat_bachelor,2022.2.4,59.982695888699986,
,,,,,,,,,,,,1,0,1,0,13,0,13,0,,,,,,,13,,,0.2,1283.3467701075133,Y,d,go,None,0,,,,,,,,,,,,,,,,,,11,001,20,w,Psychologie,2023-01-10_10h30.21.266,00_bat_bachelor,2022.2.4,59.982695888699986,
,,,,,,,,,,,,1,0,1,0,14,0,14,0,,,,,,,14,,,0.2,1284.3476404109679,X,l,go,None,0,,,,,,,,,,,,,,,,,,11,001,20,w,Psychologie,2023-01-10_10h30.21.266,00_bat_bachelor,2022.2.4,59.982695888699986,
,,,,,,,,,,,,1,0,1,0,15,0,15,0,,,,,,,15,,,0.2,1285.3484656234941,Y,d,go,None,0,,,,,,,,,,,,,,,,,,11,001,20,w,Psychologie,2023-01-10_10h30.21.266,00_bat_bachelor,2022.2.4,59.982695888699986,
,,,,,,,,,,,,1,0,1,0,16,0,16,0,,,,,,,16,,,0.2,1286.3491497450304,Y,None,nogo,l,0,0.3106686124810949,,,,,,,,,,,,,,,,,11,001,20,w,Psychologie,2023-01-10_10h30.21.266,00_bat_bachelor,2022.2.4,59.982695888699986,
,,,,,,,,,,,,1,0,1,0,17,0,17,0,,,,,,,17,,,0.2,1286.9663505291392,X,l,go,None,0,,1287.7669351597142,,,,,,,,,,,,,,,,11,001,20,w,Psychologie,2023-01-10_10h30.21.266,00_bat_bachelor,2022.2.4,59.982695888699986,
,,,,,,,,,,,,1,0,1,0,18,0,18,0,,,,,,,18,,,0.2,1287.9670472567377,Y,d,go,None,0,,,,,,,,,,,,,,,,,,11,001,20,w,Psychologie,2023-01-10_10h30.21.266,00_bat_bachelor,2022.2.4,59.982695888699986,
,,,,,,,,,,,,1,0,1,0,19,0,19,0,,,,,,,19,,,0.2,1288.9675568327511,X,l,go,None,0,,,,,,,,,,,,,,,,,,11,001,20,w,Psychologie,2023-01-10_10h30.21.266,00_bat_bachelor,2022.2.4,59.982695888699986,
,,,,,,,,,,,,1,0,1,0,20,0,20,0,,,,,,,20,,,0.2,1289.9685245907895,Y,d,go,None,0,,,,,,,,,,,,,,,,,,11,001,20,w,Psychologie,2023-01-10_10h30.21.266,00_bat_bachelor,2022.2.4,59.982695888699986,
,,,,,,,,,,,,1,0,1,0,21,0,21,0,,,,,,,21,,,0.2,1290.9693498033157,Y,None,nogo,l,0,0.4099278121284442,,,,,,,,,,,,,,,,,11,001,20,w,Psychologie,2023-01-10_10h30.21.266,00_bat_bachelor,2022.2.4,59.982695888699986,
,,,,,,,,,,,,1,0,1,0,22,0,22,0,,,,,,,22,,,0.2,1291.6865908783366,X,l,go,None,0,,1292.4869999936927,,,,,,,,,,,,,,,,11,001,20,w,Psychologie,2023-01-10_10h30.21.266,00_bat_bachelor,2022.2.4,59.982695888699986,
,,,,,,,,,,,,1,0,1,0,23,0,23,0,,,,,,,23,,,0.2,1292.6870311209786,Y,d,go,None,0,,,,,,,,,,,,,,,,,,11,001,20,w,Psychologie,2023-01-10_10h30.21.266,00_bat_bachelor,2022.2.4,59.982695888699986,
,,,,,,,,,,,,1,0,1,0,24,0,24,0,,,,,,,24,,,0.2,1293.6880779093626,X,l,go,l,1,0.23513257586455438,,,,,,,,,,,,,,,,,11,001,20,w,Psychologie,2023-01-10_10h30.21.266,00_bat_bachelor,2022.2.4,59.982695888699986,
,,,,,,,,,,,,1,0,1,0,25,0,25,0,,,,,,,25,,,0.2,1294.238572236878,Y,d,go,d,1,0.4200213927833829,,,,,,,,,,,,,,,,,11,001,20,w,Psychologie,2023-01-10_10h30.21.266,00_bat_bachelor,2022.2.4,59.982695888699986,
,,,,,,,,,,,,1,0,1,0,26,0,26,0,,,,,,,26,,,0.2,1294.9724077441933,X,l,go,l,1,0.43806358335132245,,,,,,,,,,,,,,,,,11,001,20,w,Psychologie,2023-01-10_10h30.21.266,00_bat_bachelor,2022.2.4,59.982695888699986,
,,,,,,,,,,,,1,0,1,0,27,0,27,0,,,,,,,27,,,0.2,1295.7230112596299,Y,d,go,d,1,0.4876956074149348,,,,,,,,,,,,,,,,,11,001,20,w,Psychologie,2023-01-10_10h30.21.266,00_bat_bachelor,2022.2.4,59.982695888699986,
,,,,,,,,,,,,1,0,1,0,28,0,28,0,,,,,,,28,,,0.2,1296.5235731023276,X,l,go,l,1,0.5513441231159959,,,,,,,,,,,,,,,,,11,001,20,w,Psychologie,2023-01-10_10h30.21.266,00_bat_bachelor,2022.2.4,59.982695888699986,
,,,,,,,,,,,,1,0,1,0,29,0,29,0,,,,,,,29,,,0.2,1297.3909475834807,X,None,nogo,None,1,,,,,,,,,,,,,,,,,,11,001,20,w,Psychologie,2023-01-10_10h30.21.266,00_bat_bachelor,2022.2.4,59.982695888699986,
,,,,,,,,,,,,1,0,1,0,30,0,30,0,,,,,,,30,,,0.2,1298.3914915837522,Y,d,go,d,1,0.6031812391593121,,,,,,,,,,,,,,,,,11,001,20,w,Psychologie,2023-01-10_10h30.21.266,00_bat_bachelor,2022.2.4,59.982695888699986,
,,,,,,,,,,,,1,0,1,0,31,0,31,0,,,,,,,31,,,0.2,1299.3090794225718,X,l,go,l,1,0.40565338580927346,,,,,,,,,,,,,,,,,11,001,20,w,Psychologie,2023-01-10_10h30.21.266,00_bat_bachelor,2022.2.4,59.982695888699986,
,,,,,,,,,,,,1,0,1,0,32,0,32,0,,,,,,,32,,,0.2,1300.0262434066535,Y,d,go,d,1,0.504756949012517,,,,,,,,,,,,,,,,,11,001,20,w,Psychologie,2023-01-10_10h30.21.266,00_bat_bachelor,2022.2.4,59.982695888699986,
,,,,,,,,,,,,1,0,1,0,33,0,33,0,,,,,,,33,,,0.2,1300.8435116816981,Y,None,nogo,None,1,,,,,,,,,,,,,,,,,,11,001,20,w,Psychologie,2023-01-10_10h30.21.266,00_bat_bachelor,2022.2.4,59.982695888699986,
,,,,,,,,,,,,1,0,1,0,34,0,34,0,,,,,,,34,,,0.2,1301.8443732578744,X,l,go,None,0,,,,,,,,,,,,,,,,,,11,001,20,w,Psychologie,2023-01-10_10h30.21.266,00_bat_bachelor,2022.2.4,59.982695888699986,
,,,,,,,,,,,,1,0,1,0,35,0,35,0,,,,,,,35,,,0.2,1302.8451136218646,Y,d,go,None,0,,1303.6453898886684,,,,,,,,,,,,,,,,11,001,20,w,Psychologie,2023-01-10_10h30.21.266,00_bat_bachelor,2022.2.4,59.982695888699986,
,,,,,,,,,,,,1,0,1,0,36,0,36,0,,,,,,,36,,,0.2,1303.8454932584136,X,l,go,l,1,0.3974114424199797,,,,,,,,,,,,,,,,,11,001,20,w,Psychologie,2023-01-10_10h30.21.266,00_bat_bachelor,2022.2.4,59.982695888699986,
,,,,,,,,,,,,1,0,1,0,37,0,37,0,,,,,,,37,,,0.2,1304.5462984466867,Y,d,go,d,1,0.4962439751980128,,,,,,,,,,,,,,,,,11,001,20,w,Psychologie,2023-01-10_10h30.21.266,00_bat_bachelor,2022.2.4,59.982695888699986,
,,,,,,,,,,,,1,0,1,0,38,0,38,0,,,,,,,38,,,0.2,1305.3469223500142,Y,None,nogo,l,0,0.3839011328382185,,,,,,,,,,,,,,,,,11,001,20,w,Psychologie,2023-01-10_10h30.21.266,00_bat_bachelor,2022.2.4,59.982695888699986,
,,,,,,,,,,,,1,0,1,0,39,0,39,0,,,,,,,39,,,0.2,1306.0473217199033,Y,None,nogo,None,1,,1306.8478297443944,,,,,,,,,,,,,,,,11,001,20,w,Psychologie,2023-01-10_10h30.21.266,00_bat_bachelor,2022.2.4,59.982695888699986,
,,,,,,,,,,,,1,0,1,0,40,0,40,0,,,,,,,40,,,0.2,1307.0482982052345,X,l,go,l,1,0.5544917610095581,,,,,,,,,,,,,,,,,11,001,20,w,Psychologie,2023-01-10_10h30.21.266,00_bat_bachelor,2022.2.4,59.982695888699986,
,,,,,,,,,,,,1,0,1,0,41,0,41,0,,,,,,,41,,,0.2,1307.9156794742594,Y,d,go,d,1,0.6476520485884976,,,,,,,,,,,,,,,,,11,001,20,w,Psychologie,2023-01-10_10h30.21.266,00_bat_bachelor,2022.2.4,59.982695888699986,
,,,,,,,,,,,,1,0,1,0,42,0,42,0,,,,,,,42,,,0.2,1308.866361632172,X,l,go,l,1,0.3204383142001461,,,,,,,,,,,,,,,,,11,001,20,w,Psychologie,2023-01-10_10h30.21.266,00_bat_bachelor,2022.2.4,59.982695888699986,
,,,,,,,,,,,,1,0,1,0,43,0,43,0,,,,,,,43,,,0.2,1309.500425454753,X,None,nogo,d,0,0.23031754323164932,,,,,,,,,,,,,,,,,11,001,20,w,Psychologie,2023-01-10_10h30.21.266,00_bat_bachelor,2022.2.4,59.982695888699986,
,,,,,,,,,,,,1,0,1,0,44,0,44,0,,,,,,,44,,,0.2,1310.0341537135246,Y,d,go,l,0,0.2571398592554033,,,,,,,,,,,,,,,,,11,001,20,w,Psychologie,2023-01-10_10h30.21.266,00_bat_bachelor,2022.2.4,59.982695888699986,
,,,,,,,,,,,,1,0,1,0,45,0,45,0,,,,,,,45,,,0.2,1310.6175552085042,X,l,go,None,0,,1311.417959475366,,,,,,,,,,,,,,,,11,001,20,w,Psychologie,2023-01-10_10h30.21.266,00_bat_bachelor,2022.2.4,59.982695888699986,
,,,,,,,,,,,,1,0,1,0,46,0,46,0,,,,,,,46,,,0.2,1311.6183595725306,Y,d,go,None,0,,,,,,,,,,,,,,,,,,11,001,20,w,Psychologie,2023-01-10_10h30.21.266,00_bat_bachelor,2022.2.4,59.982695888699986,
,,,,,,,,,,,,1,0,1,0,47,0,47,0,,,,,,,47,,,0.2,1312.6192696335784,X,l,go,None,0,,,,,,,,,,,,,,,,,,11,001,20,w,Psychologie,2023-01-10_10h30.21.266,00_bat_bachelor,2022.2.4,59.982695888699986,
,,,,,,,,,,,,1,0,1,0,48,0,48,0,,,,,,,48,,,0.2,1313.62000660364,Y,d,go,None,0,,,,,,,,,,,,,,,,,,11,001,20,w,Psychologie,2023-01-10_10h30.21.266,00_bat_bachelor,2022.2.4,59.982695888699986,
,,,,,,,,,,,,1,0,1,0,49,0,49,0,,,,,,,49,,,0.2,1314.6207207857951,X,l,go,None,0,,,,,,,,,,,,,,,,,,11,001,20,w,Psychologie,2023-01-10_10h30.21.266,00_bat_bachelor,2022.2.4,59.982695888699986,
,,,,,,,,,,,,1,0,1,0,50,0,50,0,,,,,,,50,,,0.2,1315.6212497557572,X,None,nogo,l,0,0.19009303888014983,,,,,,,,,,,,,,,,,11,001,20,w,Psychologie,2023-01-10_10h30.21.266,00_bat_bachelor,2022.2.4,59.982695888699986,
,,,,,,,,,,,,1,0,1,0,51,0,51,0,,,,,,,51,,,0.2,1316.121866725749,Y,d,go,None,0,,,,,,,,,,,,,,,,,,11,001,20,w,Psychologie,2023-01-10_10h30.21.266,00_bat_bachelor,2022.2.4,59.982695888699986,
,,,,,,,,,,,,1,0,1,0,52,0,52,0,,,,,,,52,,,0.2,1317.122750120121,X,l,go,l,1,0.31971491989679635,,,,,,,,,,,,,,,,,11,001,20,w,Psychologie,2023-01-10_10h30.21.266,00_bat_bachelor,2022.2.4,59.982695888699986,
,,,,,,,,,,,,1,0,1,0,53,0,53,0,,,,,,,53,,,0.2,1317.7564789122262,X,None,nogo,d,0,0.4380989773053443,,,,,,,,,,,,,,,,,11,001,20,w,Psychologie,2023-01-10_10h30.21.266,00_bat_bachelor,2022.2.4,59.982695888699986,
,,,,,,,,,,,,1,0,1,0,54,0,54,0,,,,,,,54,,,0.2,1318.5070480034192,X,None,nogo,None,1,,,,,,,,,,,,,,,,,,11,001,20,w,Psychologie,2023-01-10_10h30.21.266,00_bat_bachelor,2022.2.4,59.982695888699986,
,,,,,,,,,,,,1,0,1,0,55,0,55,0,,,,,,,55,,,0.2,1319.5074620642117,Y,d,go,None,0,,,,,,,,,,,,,,,,,,11,001,20,w,Psychologie,2023-01-10_10h30.21.266,00_bat_bachelor,2022.2.4,59.982695888699986,
,,,,,,,,,,,,1,0,1,0,56,0,56,0,,,,,,,56,,,0.2,1320.5082494585367,X,l,go,l,1,0.4700126897514565,,,,,,,,,,,,,,,,,11,001,20,w,Psychologie,2023-01-10_10h30.21.266,00_bat_bachelor,2022.2.4,59.982695888699986,
,,,,,,,,,,,,1,0,1,0,57,0,57,0,,,,,,,57,,,0.2,1321.2925262024364,Y,d,go,d,1,0.40654890138830524,,,,,,,,,,,,,,,,,11,001,20,w,Psychologie,2023-01-10_10h30.21.266,00_bat_bachelor,2022.2.4,59.982695888699986,
,,,,,,,,,,,,1,0,1,0,58,0,58,0,,,,,,,58,,,0.2,1322.0097357622872,X,l,go,None,0,,,,,,,,,,,,,,,,,,11,001,20,w,Psychologie,2023-01-10_10h30.21.266,00_bat_bachelor,2022.2.4,59.982695888699986,
,,,,,,,,,,,,1,0,1,0,59,0,59,0,,,,,,,59,,,0.2,1323.0101328533929,Y,d,go,d,1,0.6399788327544229,,,,,,,,,,,,,,,,,11,001,20,w,Psychologie,2023-01-10_10h30.21.266,00_bat_bachelor,2022.2.4,59.982695888699986,
,,,,,,,,,,,,1,0,1,0,60,0,60,0,,,,,,,60,,,0.2,1323.978536716866,X,l,go,None,0,,1324.7793196505809,,,,,,,,,,,,,,,,11,001,20,w,Psychologie,2023-01-10_10h30.21.266,00_bat_bachelor,2022.2.4,59.982695888699986,
,,,,,,,,,,,,1,0,1,0,61,0,61,0,,,,,,,61,,,0.2,1324.9793061717792,Y,d,go,None,0,,1325.7799998933333,,,,,,,,,,,,,,,,11,001,20,w,Psychologie,2023-01-10_10h30.21.266,00_bat_bachelor,2022.2.4,59.982695888699986,
,,,,,,,,,,,,1,0,1,0,62,0,62,0,,,,,,,62,,,0.2,1325.980089202465,X,l,go,l,1,0.5818968652019976,,,,,,,,,,,,,,,,,11,001,20,w,Psychologie,2023-01-10_10h30.21.266,00_bat_bachelor,2022.2.4,59.982695888699986,
,,,,,,,,,,,,1,0,1,0,63,0,63,0,,,,,,,63,,,0.2,1326.8972532835178,Y,d,go,d,1,0.5286158696690109,,,,,,,,,,,,,,,,,11,001,20,w,Psychologie,2023-01-10_10h30.21.266,00_bat_bachelor,2022.2.4,59.982695888699986,
,,,,,,,,,,,,1,0,1,0,64,0,64,0,,,,,,,64,,,0.2,1327.7647969768732,Y,None,nogo,l,0,0.4610691702546319,,,,,,,,,,,,,,,,,11,001,20,w,Psychologie,2023-01-10_10h30.21.266,00_bat_bachelor,2022.2.4,59.982695888699986,
,,,,,,,,,,,,1,0,1,0,65,0,65,0,,,,,,,65,,,0.2,1328.5651770012919,X,l,go,None,0,,1329.366070480508,,,,,,,,,,,,,,,,11,001,20,w,Psychologie,2023-01-10_10h30.21.266,00_bat_bachelor,2022.2.4,59.982695888699986,
,,,,,,,,,,,,1,0,1,0,66,0,66,0,,,,,,,66,,,0.2,1329.5661370017624,Y,d,go,None,0,,1330.3669330263801,,,,,,,,,,,,,,,,11,001,20,w,Psychologie,2023-01-10_10h30.21.266,00_bat_bachelor,2022.2.4,59.982695888699986,
,,,,,,,,,,,,1,0,1,0,67,0,67,0,,,,,,,67,,,0.2,1330.5667760323704,X,l,go,None,0,,1331.367660784308,,,,,,,,,,,,,,,,11,001,20,w,Psychologie,2023-01-10_10h30.21.266,00_bat_bachelor,2022.2.4,59.982695888699986,
,,,,,,,,,,,,1,0,1,0,68,0,68,0,,,,,,,68,,,0.2,1331.5672909417044,Y,d,go,d,1,0.33912002023134846,,,,,,,,,,,,,,,,,11,001,20,w,Psychologie,2023-01-10_10h30.21.266,00_bat_bachelor,2022.2.4,59.982695888699986,
,,,,,,,,,,,,1,0,1,0,69,0,69,0,,,,,,,69,,,0.2,1332.2344820530707,X,l,go,d,0,0.6478450183931272,,,,,,,,,,,,,,,,,11,001,20,w,Psychologie,2023-01-10_10h30.21.266,00_bat_bachelor,2022.2.4,59.982695888699986,
,,,,,,,,,,,,1,0,1,0,70,0,70,0,,,,,,,70,,,0.2,1333.1850454230444,X,None,nogo,None,1,,1333.9858778113266,,,,,,,,,,,,,,,,11,001,20,w,Psychologie,2023-01-10_10h30.21.266,00_bat_bachelor,2022.2.4,59.982695888699986,
,,,,,,,,,,,,1,0,1,0,71,0,71,0,,,,,,,71,,,0.2,1334.1858236052358,Y,d,go,l,0,0.15231556601065677,,,,,,,,,,,,,,,,,11,001,20,w,Psychologie,2023-01-10_10h30.21.266,00_bat_bachelor,2022.2.4,59.982695888699986,
,,,,,,,,,,,,1,0,1,0,72,0,72,0,,,,,,,72,,,0.2,1334.6528153468098,X,l,go,None,0,,1335.4535992502206,,,,,,,,,,,,,,,,11,001,20,w,Psychologie,2023-01-10_10h30.21.266,00_bat_bachelor,2022.2.4,59.982695888699986,
,,,,,,,,,,,,1,0,1,0,73,0,73,0,,,,,,,73,,,0.2,1335.6538984988583,Y,d,go,d,1,0.3644199112750357,,,,,,,,,,,,,,,,,11,001,20,w,Psychologie,2023-01-10_10h30.21.266,00_bat_bachelor,2022.2.4,59.982695888699986,
,,,,,,,,,,,,1,0,1,0,74,0,74,0,,,,,,,74,,,0.2,1336.3210740950599,Y,None,nogo,l,0,0.49721949081867933,,,,,,,,,,,,,,,,,11,001,20,w,Psychologie,2023-01-10_10h30.21.266,00_bat_bachelor,2022.2.4,59.982695888699986,
,,,,,,,,,,,,1,0,1,0,75,0,75,0,,,,,,,75,,,0.2,1337.1382235821657,X,l,go,None,0,,1337.9388470006525,,,,,,,,,,,,,,,,11,001,20,w,Psychologie,2023-01-10_10h30.21.266,00_bat_bachelor,2022.2.4,59.982695888699986,
,,,,,,,,,,,,1,0,1,0,76,0,76,0,,,,,,,76,,,0.2,1338.1390449158935,Y,d,go,None,0,,1338.9392688190273,,,,,,,,,,,,,,,,11,001,20,w,Psychologie,2023-01-10_10h30.21.266,00_bat_bachelor,2022.2.4,59.982695888699986,
,,,,,,,,,,,,1,0,1,0,77,0,77,0,,,,,,,77,,,0.2,1339.1395850373665,Y,None,nogo,None,1,,1339.9402346376883,,,,,,,,,,,,,,,,11,001,20,w,Psychologie,2023-01-10_10h30.21.266,00_bat_bachelor,2022.2.4,59.982695888699986,
,,,,,,,,,,,,1,0,1,0,78,0,78,0,,,,,,,78,,,0.2,1340.1401241891435,X,l,go,None,0,,1340.9408799713274,,,,,,,,,,,,,,,,11,001,20,w,Psychologie,2023-01-10_10h30.21.266,00_bat_bachelor,2022.2.4,59.982695888699986,
,,,,,,,,,,,,1,0,1,0,79,0,79,0,,,,,,,79,,,0.2,1341.1408674622362,Y,d,go,None,0,,,,,,,,,,,,,,,,,,11,001,20,w,Psychologie,2023-01-10_10h30.21.266,00_bat_bachelor,2022.2.4,59.982695888699986,
,,,,,,,,,,,,1,0,1,0,80,0,80,0,,,,,,,80,,,0.2,1342.1417814020679,Y,None,nogo,l,0,0.03691187369986437,,,,,,,,,,,,,,,,,11,001,20,w,Psychologie,2023-01-10_10h30.21.266,00_bat_bachelor,2022.2.4,59.982695888699986,
,,,,,,,,,,,,1,0,1,0,81,0,81,0,,,,,,,81,,,0.2,1342.4916763595975,X,l,go,None,0,,,,,,,,,,,,,,,,,,11,001,20,w,Psychologie,2023-01-10_10h30.21.266,00_bat_bachelor,2022.2.4,59.982695888699986,
,,,,,,,,,,,,1,0,1,0,82,0,82,0,,,,,,,82,,,0.2,1343.4928113904461,Y,d,go,l,0,0.6070634228526615,,,,,,,,,,,,,,,,,11,001,20,w,Psychologie,2023-01-10_10h30.21.266,00_bat_bachelor,2022.2.4,59.982695888699986,
,,,,,,,,,,,,1,0,1,0,83,0,83,0,,,,,,,83,,,0.2,1344.4101587443147,X,l,go,d,0,0.057753580767894164,,,,,,,,,,,,,,,,,11,001,20,w,Psychologie,2023-01-10_10h30.21.266,00_bat_bachelor,2022.2.4,59.982695888699986,
,,,,,,,,,,,,1,0,1,0,84,0,84,0,,,,,,,84,,,0.2,1344.7770277706732,Y,d,go,None,0,,,,,,,,,,,,,,,,,,11,001,20,w,Psychologie,2023-01-10_10h30.21.266,00_bat_bachelor,2022.2.4,59.982695888699986,
,,,,,,,,,,,,1,0,1,0,85,0,85,0,,,,,,,85,,,0.2,1345.7778185589414,X,l,go,l,1,0.015863621069001965,,,,,,,,,,,,,,,,,11,001,20,w,Psychologie,2023-01-10_10h30.21.266,00_bat_bachelor,2022.2.4,59.982695888699986,
,,,,,,,,,,,,1,0,1,0,86,0,86,0,,,,,,,86,,,0.2,1346.1120630846272,X,None,nogo,None,1,,1346.912903715347,,,,,,,,,,,,,,,,11,001,20,w,Psychologie,2023-01-10_10h30.21.266,00_bat_bachelor,2022.2.4,59.982695888699986,
,,,,,,,,,,,,1,0,1,0,87,0,87,0,,,,,,,87,,,0.2,1347.112622115208,Y,d,go,l,0,0.42471618294075597,,,,,,,,,,,,,,,,,11,001,20,w,Psychologie,2023-01-10_10h30.21.266,00_bat_bachelor,2022.2.4,59.982695888699986,
,,,,,,,,,,,,1,0,1,0,88,0,88,0,,,,,,,88,,,0.2,1347.8798443053674,X,l,go,None,0,,1348.6805162087257,,,,,,,,,,,,,,,,11,001,20,w,Psychologie,2023-01-10_10h30.21.266,00_bat_bachelor,2022.2.4,59.982695888699986,
,,,,,,,,,,,,1,0,1,0,89,0,89,0,,,,,,,89,,,0.2,1348.88064479061,Y,d,go,d,1,0.4019753234315431,,,,,,,,,,,,,,,,,11,001,20,w,Psychologie,2023-01-10_10h30.21.266,00_bat_bachelor,2022.2.4,59.982695888699986,
,,,,,,,,,,,,1,0,1,0,90,0,90,0,,,,,,,90,,,0.2,1349.5979212595994,X,l,go,l,1,0.6298784642276587,,,,,,,,,,,,,,,,,11,001,20,w,Psychologie,2023-01-10_10h30.21.266,00_bat_bachelor,2022.2.4,59.982695888699986,
,,,,,,,,,,,,1,0,1,0,91,0,91,0,,,,,,,91,,,0.2,1350.5318688639381,Y,d,go,d,1,0.47851354235899635,,,,,,,,,,,,,,,,,11,001,20,w,Psychologie,2023-01-10_10h30.21.266,00_bat_bachelor,2022.2.4,59.982695888699986,
,,,,,,,,,,,,1,0,1,0,92,0,92,0,,,,,,,92,,,0.2,1351.3157974864444,Y,None,nogo,l,0,0.4473455272382125,,,,,,,,,,,,,,,,,11,001,20,w,Psychologie,2023-01-10_10h30.21.266,00_bat_bachelor,2022.2.4,59.982695888699986,
,,,,,,,,,,,,1,0,1,0,93,0,93,0,,,,,,,93,,,0.2,1352.0664965170872,X,l,go,d,0,0.5929552948073251,,,,,,,,,,,,,,,,,11,001,20,w,Psychologie,2023-01-10_10h30.21.266,00_bat_bachelor,2022.2.4,59.982695888699986,
,,,,,,,,,,,,1,0,1,0,94,0,94,0,,,,,,,94,,,0.2,1352.9669051960664,Y,d,go,l,0,0.5388132079533534,,,,,,,,,,,,,,,,,11,001,20,w,Psychologie,2023-01-10_10h30.21.266,00_bat_bachelor,2022.2.4,59.982695888699986,
,,,,,,,,,,,,1,0,1,0,95,0,95,0,,,,,,,95,,,0.2,1353.8343548287667,X,l,go,d,0,0.40874090246506967,,,,,,,,,,,,,,,,,11,001,20,w,Psychologie,2023-01-10_10h30.21.266,00_bat_bachelor,2022.2.4,59.982695888699986,
,,,,,,,,,,,,1,0,1,0,96,0,96,0,,,,,,,96,,,0.2,1354.551384024904,X,None,nogo,l,0,0.602507784293266,,,,,,,,,,,,,,,,,11,001,20,w,Psychologie,2023-01-10_10h30.21.266,00_bat_bachelor,2022.2.4,59.982695888699986,
,,,,,,,,,,,,1,0,1,0,97,0,97,0,,,,,,,97,,,0.2,1355.4691148941056,Y,d,go,d,1,0.3903758026426658,,,,,,,,,,,,,,,,,11,001,20,w,Psychologie,2023-01-10_10h30.21.266,00_bat_bachelor,2022.2.4,59.982695888699986,
,,,,,,,,,,,,1,0,1,0,98,0,98,0,,,,,,,98,,,0.2,1356.1694352336635,X,l,go,l,1,0.5217222905775998,,,,,,,,,,,,,,,,,11,001,20,w,Psychologie,2023-01-10_10h30.21.266,00_bat_bachelor,2022.2.4,59.982695888699986,
,,,,,,,,,,,,1,0,1,0,99,0,99,0,,,,,,,99,,,0.2,1357.003490910778,Y,d,go,d,1,0.4396485538018169,,,,,,,,,,,,,,,,,11,001,20,w,Psychologie,2023-01-10_10h30.21.266,00_bat_bachelor,2022.2.4,59.982695888699986,
,,,,,,,,,,,,1,0,1,0,100,0,100,0,,,,,,,100,,,0.2,1357.7538078806247,X,l,go,l,1,0.3933775010664249,,,,,,,,,,,,,,,,,11,001,20,w,Psychologie,2023-01-10_10h30.21.266,00_bat_bachelor,2022.2.4,59.982695888699986,
,,,,,,,,,,,,1,0,1,0,101,0,101,0,,,,,,,101,,,0.2,1358.4541621595854,X,None,nogo,None,1,,1359.2547593962372,,,,,,,,,,,,,,,,11,001,20,w,Psychologie,2023-01-10_10h30.21.266,00_bat_bachelor,2022.2.4,59.982695888699986,
,,,,,,,,,,,,1,0,1,0,102,0,102,0,,,,,,,102,,,0.2,1359.455095008525,Y,d,go,d,1,0.3881450136832427,,,,,,,,,,,,,,,,,11,001,20,w,Psychologie,2023-01-10_10h30.21.266,00_bat_bachelor,2022.2.4,59.982695888699986,
,,,,,,,,,,,,1,0,1,0,103,0,103,0,,,,,,,103,,,0.2,1360.1555947421002,X,l,go,l,1,0.36021384863124695,,,,,,,,,,,,,,,,,11,001,20,w,Psychologie,2023-01-10_10h30.21.266,00_bat_bachelor,2022.2.4,59.982695888699986,
,,,,,,,,,,,,1,0,1,0,104,0,104,0,,,,,,,104,,,0.2,1360.8225773685117,Y,d,go,None,0,,1361.6232657567307,,,,,,,,,,,,,,,,11,001,20,w,Psychologie,2023-01-10_10h30.21.266,00_bat_bachelor,2022.2.4,59.982695888699986,
,,,,,,,,,,,,1,0,1,0,105,0,105,0,,,,,,,105,,,0.2,1361.8234302174096,X,l,go,l,1,0.6119085161190014,,,,,,,,,,,,,,,,,11,001,20,w,Psychologie,2023-01-10_10h30.21.266,00_bat_bachelor,2022.2.4,59.982695888699986,
,,,,,,,,,,,,1,0,1,0,106,0,106,0,,,,,,,106,,,0.2,1362.7407319954946,Y,d,go,d,1,0.3824228290905012,,,,,,,,,,,,,,,,,11,001,20,w,Psychologie,2023-01-10_10h30.21.266,00_bat_bachelor,2022.2.4,59.982695888699986,
,,,,,,,,,,,,1,0,1,0,107,0,107,0,,,,,,,107,,,0.2,1363.4246484483156,X,l,go,l,1,0.6106105760845821,,,,,,,,,,,,,,,,,11,001,20,w,Psychologie,2023-01-10_10h30.21.266,00_bat_bachelor,2022.2.4,59.982695888699986,
,,,,,,,,,,,,1,0,1,0,108,0,108,0,,,,,,,108,,,0.2,1364.3419880446017,Y,d,go,d,1,0.46166117054235656,,,,,,,,,,,,,,,,,11,001,20,w,Psychologie,2023-01-10_10h30.21.266,00_bat_bachelor,2022.2.4,59.982695888699986,
,,,,,,,,,,,,1,0,1,0,109,0,109,0,,,,,,,109,,,0.2,1365.1092073256732,Y,None,nogo,None,1,,,,,,,,,,,,,,,,,,11,001,20,w,Psychologie,2023-01-10_10h30.21.266,00_bat_bachelor,2022.2.4,59.982695888699986,
,,,,,,,,,,,,1,0,1,0,110,0,110,0,,,,,,,110,,,0.2,1366.109901629039,X,l,go,None,0,,,,,,,,,,,,,,,,,,11,001,20,w,Psychologie,2023-01-10_10h30.21.266,00_bat_bachelor,2022.2.4,59.982695888699986,
,,,,,,,,,,,,1,0,1,0,111,0,111,0,,,,,,,111,,,0.2,1367.1104878111364,Y,d,go,l,0,0.2360499096394051,,,,,,,,,,,,,,,,,11,001,20,w,Psychologie,2023-01-10_10h30.21.266,00_bat_bachelor,2022.2.4,59.982695888699986,
,,,,,,,,,,,,1,0,1,0,112,0,112,0,,,,,,,112,,,0.2,1367.6611586235813,Y,None,nogo,None,1,,,,,,,,,,,,,,,,,,11,001,20,w,Psychologie,2023-01-10_10h30.21.266,00_bat_bachelor,2022.2.4,59.982695888699986,
,,,,,,,,,,,,1,0,1,0,113,0,113,0,,,,,,,113,,,0.2,1368.6619305027561,Y,None,nogo,None,1,,,,,,,,,,,,,,,,,,11,001,20,w,Psychologie,2023-01-10_10h30.21.266,00_bat_bachelor,2022.2.4,59.982695888699986,
,,,,,,,,,,,,1,0,1,0,114,0,114,0,,,,,,,114,,,0.2,1369.6624478363374,X,l,go,d,0,0.3078516414243495,,,,,,,,,,,,,,,,,11,001,20,w,Psychologie,2023-01-10_10h30.21.266,00_bat_bachelor,2022.2.4,59.982695888699986,
,,,,,,,,,,,,1,0,1,0,115,0,115,0,,,,,,,115,,,0.2,1370.2798609841702,Y,d,go,None,0,,,,,,,,,,,,,,,,,,11,001,20,w,Psychologie,2023-01-10_10h30.21.266,00_bat_bachelor,2022.2.4,59.982695888699986,
,,,,,,,,,,,,1,0,1,0,116,0,116,0,,,,,,,116,,,0.2,1371.2804985602415,X,l,go,None,0,,1372.0813004030497,,,,,,,,,,,,,,,,11,001,20,w,Psychologie,2023-01-10_10h30.21.266,00_bat_bachelor,2022.2.4,59.982695888699986,
,,,,,,,,,,,,1,0,1,0,117,0,117,0,,,,,,,117,,,0.2,1372.2814842576772,Y,d,go,d,1,0.3614216067799134,,,,,,,,,,,,,,,,,11,001,20,w,Psychologie,2023-01-10_10h30.21.266,00_bat_bachelor,2022.2.4,59.982695888699986,
,,,,,,,,,,,,1,0,1,0,118,0,118,0,,,,,,,118,,,0.2,1372.948465429552,X,l,go,l,1,0.6546896277723135,,,,,,,,,,,,,,,,,11,001,20,w,Psychologie,2023-01-10_10h30.21.266,00_bat_bachelor,2022.2.4,59.982695888699986,
,,,,,,,,,,,,1,0,1,0,119,0,119,0,,,,,,,119,,,0.2,1373.9156285651552,Y,d,go,d,1,0.5189940468262648,,,,,,,,,,,,,,,,,11,001,20,w,Psychologie,2023-01-10_10h30.21.266,00_bat_bachelor,2022.2.4,59.982695888699986,
,,,,,,,,,,,,1,0,1,0,120,0,120,0,,,,,,,120,,,0.2,1374.7499809696892,Y,None,nogo,l,0,0.4527511056221556,,,,,,,,,,,,,,,,,11,001,20,w,Psychologie,2023-01-10_10h30.21.266,00_bat_bachelor,2022.2.4,59.982695888699986,
,,,,,,,,,,,,1,0,1,0,121,0,121,0,,,,,,,121,,,0.2,1375.5171958871215,X,l,go,None,0,,1376.3177601540665,,,,,,,,,,,,,,,,11,001,20,w,Psychologie,2023-01-10_10h30.21.266,00_bat_bachelor,2022.2.4,59.982695888699986,
,,,,,,,,,,,,1,0,1,0,122,0,122,0,,,,,,,122,,,0.2,1376.5176458267379,Y,d,go,None,0,,,,,,,,,,,,,,,,,,11,001,20,w,Psychologie,2023-01-10_10h30.21.266,00_bat_bachelor,2022.2.4,59.982695888699986,
,,,,,,,,,,,,1,0,1,0,123,0,123,0,,,,,,,123,,,0.2,1377.518760493942,X,l,go,None,0,,,,,,,,,,,,,,,,,,11,001,20,w,Psychologie,2023-01-10_10h30.21.266,00_bat_bachelor,2022.2.4,59.982695888699986,
,,,,,,,,,,,,1,0,1,0,124,0,124,0,,,,,,,124,,,0.2,1378.5192264335637,X,None,nogo,l,0,0.15602805266098585,,,,,,,,,,,,,,,,,11,001,20,w,Psychologie,2023-01-10_10h30.21.266,00_bat_bachelor,2022.2.4,59.982695888699986,
,,,,,,,,,,,,1,0,1,0,125,0,125,0,,,,,,,125,,,0.2,1378.9861905387515,Y,d,go,None,0,,,,,,,,,,,,,,,,,,11,001,20,w,Psychologie,2023-01-10_10h30.21.266,00_bat_bachelor,2022.2.4,59.982695888699986,
,,,,,,,,,,,,1,0,1,0,126,0,126,0,,,,,,,126,,,0.2,1379.9874482363375,X,l,go,None,0,,,,,,,,,,,,,,,,,,11,001,20,w,Psychologie,2023-01-10_10h30.21.266,00_bat_bachelor,2022.2.4,59.982695888699986,
,,,,,,,,,,,,1,0,1,0,127,0,127,0,,,,,,,127,,,0.2,1380.9883995095151,Y,d,go,None,0,,1381.78902098861,,,,,,,,,,,,,,,,11,001,20,w,Psychologie,2023-01-10_10h30.21.266,00_bat_bachelor,2022.2.4,59.982695888699986,
,,,,,,,,,,,,1,0,1,0,128,0,128,0,,,,,,,128,,,0.2,1381.9891621765564,X,l,go,l,1,0.4137479351920774,,,,,,,,,,,,,,,,,11,001,20,w,Psychologie,2023-01-10_10h30.21.266,00_bat_bachelor,2022.2.4,59.982695888699986,
,,,,,,,,,,,,1,0,1,0,129,0,129,0,,,,,,,129,,,0.2,1382.70618749391,Y,d,go,d,1,0.5608224307361525,,,,,,,,,,,,,,,,,11,001,20,w,Psychologie,2023-01-10_10h30.21.266,00_bat_bachelor,2022.2.4,59.982695888699986,
,,,,,,,,,,,,1,0,1,0,130,0,130,0,,,,,,,130,,,0.2,1383.5735280356457,Y,None,nogo,None,1,,1384.3743196966388,,,,,,,,,,,,,,,,11,001,20,w,Psychologie,2023-01-10_10h30.21.266,00_bat_bachelor,2022.2.4,59.982695888699986,
,,,,,,,,,,,,1,0,1,0,131,0,131,0,,,,,,,131,,,0.2,1384.5744671876164,X,l,go,None,0,,1385.3749170302617,,,,,,,,,,,,,,,,11,001,20,w,Psychologie,2023-01-10_10h30.21.266,00_bat_bachelor,2022.2.4,59.982695888699986,
,,,,,,,,,,,,1,0,1,0,132,0,132,0,,,,,,,132,,,0.2,1385.5754810062936,Y,d,go,None,0,,1386.3759284246917,,,,,,,,,,,,,,,,11,001,20,w,Psychologie,2023-01-10_10h30.21.266,00_bat_bachelor,2022.2.4,59.982695888699986,
,,,,,,,,,,,,1,0,1,0,133,0,133,0,,,,,,,133,,,0.2,1386.575848521621,Y,None,nogo,None,1,,1387.3765786068252,,,,,,,,,,,,,,,,11,001,20,w,Psychologie,2023-01-10_10h30.21.266,00_bat_bachelor,2022.2.4,59.982695888699986,
,,,,,,,,,,,,1,0,1,0,134,0,134,0,,,,,,,134,,,0.2,1387.5768109463243,X,l,go,None,0,,1388.377372789022,,,,,,,,,,,,,,,,11,001,20,w,Psychologie,2023-01-10_10h30.21.266,00_bat_bachelor,2022.2.4,59.982695888699986,
,,,,,,,,,,,,1,0,1,0,135,0,135,0,,,,,,,135,,,0.2,1388.5777045225113,Y,d,go,d,1,0.5452985444280785,,,,,,,,,,,,,,,,,11,001,20,w,Psychologie,2023-01-10_10h30.21.266,00_bat_bachelor,2022.2.4,59.982695888699986,
,,,,,,,,,,,,1,0,1,0,136,0,136,0,,,,,,,136,,,0.2,1389.4281432378775,X,l,go,l,1,0.5591666723630624,,,,,,,,,,,,,,,,,11,001,20,w,Psychologie,2023-01-10_10h30.21.266,00_bat_bachelor,2022.2.4,59.982695888699986,
,,,,,,,,,,,,1,0,1,0,137,0,137,0,,,,,,,137,,,0.2,1390.2953155371215,X,None,nogo,d,0,0.5238982916343957,,,,,,,,,,,,,,,,,11,001,20,w,Psychologie,2023-01-10_10h30.21.266,00_bat_bachelor,2022.2.4,59.982695888699986,
,,,,,,,,,,,,1,0,1,0,138,0,138,0,,,,,,,138,,,0.2,1391.1293052748078,Y,d,go,l,0,0.36215857684146613,,,,,,,,,,,,,,,,,11,001,20,w,Psychologie,2023-01-10_10h30.21.266,00_bat_bachelor,2022.2.4,59.982695888699986,
,,,,,,,,,,,,1,0,1,0,139,0,139,0,,,,,,,139,,,0.2,1391.7965201437619,X,l,go,d,0,0.4138613897957839,,,,,,,,,,,,,,,,,11,001,20,w,Psychologie,2023-01-10_10h30.21.266,00_bat_bachelor,2022.2.4,59.982695888699986,
,,,,,,,,,,,,1,0,1,0,140,0,140,0,,,,,,,140,,,0.2,1392.5306043784658,Y,d,go,l,0,0.3996882920037024,,,,,,,,,,,,,,,,,11,001,20,w,Psychologie,2023-01-10_10h30.21.266,00_bat_bachelor,2022.2.4,59.982695888699986,
,,,,,,,,,,,,1,0,1,0,141,0,141,0,,,,,,,141,,,0.2,1393.2308563543484,X,l,go,d,0,0.3392582021042472,,,,,,,,,,,,,,,,,11,001,20,w,Psychologie,2023-01-10_10h30.21.266,00_bat_bachelor,2022.2.4,59.982695888699986,
,,,,,,,,,,,,1,0,1,0,142,0,142,0,,,,,,,142,,,0.2,1393.8980503748026,Y,d,go,l,0,0.2809522344323341,,,,,,,,,,,,,,,,,11,001,20,w,Psychologie,2023-01-10_10h30.21.266,00_bat_bachelor,2022.2.4,59.982695888699986,
,,,,,,,,,,,,1,0,1,0,143,0,143,0,,,,,,,143,,,0.2,1394.4821961125708,X,l,go,None,0,,1395.2826546824945,,,,,,,,,,,,,,,,11,001,20,w,Psychologie,2023-01-10_10h30.21.266,00_bat_bachelor,2022.2.4,59.982695888699986,
,,,,,,,,,,,,1,0,1,0,144,0,144,0,,,,,,,144,,,0.2,1395.482854537142,X,None,nogo,d,0,0.24734543026715983,,,,,,,,,,,,,,,,,11,001,20,w,Psychologie,2023-01-10_10h30.21.266,00_bat_bachelor,2022.2.4,59.982695888699986,
,,,,,,,,,,,,1,0,1,0,145,0,145,0,,,,,,,145,,,0.2,1396.0499209939007,Y,d,go,l,0,0.3514856019610306,,,,,,,,,,,,,,,,,11,001,20,w,Psychologie,2023-01-10_10h30.21.266,00_bat_bachelor,2022.2.4,59.982695888699986,
,,,,,,,,,,,,1,0,1,0,146,0,146,0,,,,,,,146,,,0.2,1396.73379865881,X,l,go,d,0,0.46917147720523644,,,,,,,,,,,,,,,,,11,001,20,w,Psychologie,2023-01-10_10h30.21.266,00_bat_bachelor,2022.2.4,59.982695888699986,
,,,,,,,,,,,,1,0,1,0,147,0,147,0,,,,,,,147,,,0.2,1397.5176850994758,X,None,nogo,l,0,0.37351518840296194,,,,,,,,,,,,,,,,,11,001,20,w,Psychologie,2023-01-10_10h30.21.266,00_bat_bachelor,2022.2.4,59.982695888699986,
,,,,,,,,,,,,1,0,1,0,148,0,148,0,,,,,,,148,,,0.2,1398.2015550068027,Y,d,go,None,0,,1399.002223031377,,,,,,,,,,,,,,,,11,001,20,w,Psychologie,2023-01-10_10h30.21.266,00_bat_bachelor,2022.2.4,59.982695888699986,
,,,,,,,,,,,,1,0,1,0,149,0,149,0,,,,,,,149,,,0.2,1399.2021116131364,X,l,go,None,0,,1400.0027030316123,,,,,,,,,,,,,,,,11,001,20,w,Psychologie,2023-01-10_10h30.21.266,00_bat_bachelor,2022.2.4,59.982695888699986,
,,,,,,,,,,,,1,0,1,0,150,0,150,0,,,,,,,150,,,0.2,1400.2030522196583,X,None,nogo,l,0,0.6324811321537709,,,,,,,,,,,,,,,,,11,001,20,w,Psychologie,2023-01-10_10h30.21.266,00_bat_bachelor,2022.2.4,59.982695888699986,
,,,,,,,,,,,,1,0,1,0,151,0,151,0,,,,,,,151,,,0.2,1401.1369615209405,X,None,nogo,d,0,0.46548953604360577,,,,,,,,,,,,,,,,,11,001,20,w,Psychologie,2023-01-10_10h30.21.266,00_bat_bachelor,2022.2.4,59.982695888699986,
,,,,,,,,,,,,1,0,1,0,152,0,152,0,,,,,,,152,,,0.2,1401.9043931657652,Y,d,go,l,0,0.5957392961572623,,,,,,,,,,,,,,,,,11,001,20,w,Psychologie,2023-01-10_10h30.21.266,00_bat_bachelor,2022.2.4,59.982695888699986,
,,,,,,,,,,,,1,0,1,0,153,0,153,0,,,,,,,153,,,0.2,1402.805104875195,X,l,go,d,0,0.574283770591137,,,,,,,,,,,,,,,,,11,001,20,w,Psychologie,2023-01-10_10h30.21.266,00_bat_bachelor,2022.2.4,59.982695888699986,
,,,,,,,,,,,,1,0,1,0,154,0,154,0,,,,,,,154,,,0.2,1403.6890563340858,X,None,nogo,l,0,0.39337507681921124,,,,,,,,,,,,,,,,,11,001,20,w,Psychologie,2023-01-10_10h30.21.266,00_bat_bachelor,2022.2.4,59.982695888699986,
,,,,,,,,,,,,1,0,1,0,155,0,155,0,,,,,,,155,,,0.2,1404.4062823787972,Y,d,go,d,1,0.5074730715423357,,,,,,,,,,,,,,,,,11,001,20,w,Psychologie,2023-01-10_10h30.21.266,00_bat_bachelor,2022.2.4,59.982695888699986,
,,,,,,,,,,,,1,0,1,0,156,0,156,0,,,,,,,156,,,0.2,1405.240179995235,X,l,go,l,1,0.4583389871113468,,,,,,,,,,,,,,,,,11,001,20,w,Psychologie,2023-01-10_10h30.21.266,00_bat_bachelor,2022.2.4,59.982695888699986,
,,,,,,,,,,,,1,0,1,0,157,0,157,0,,,,,,,157,,,0.2,1406.007509336967,Y,d,go,d,1,0.47639135949430056,,,,,,,,,,,,,,,,,11,001,20,w,Psychologie,2023-01-10_10h30.21.266,00_bat_bachelor,2022.2.4,59.982695888699986,
,,,,,,,,,,,,1,0,1,0,158,0,158,0,,,,,,,158,,,0.2,1406.7913933534,X,l,go,l,1,0.4280020027072169,,,,,,,,,,,,,,,,,11,001,20,w,Psychologie,2023-01-10_10h30.21.266,00_bat_bachelor,2022.2.4,59.982695888699986,
,,,,,,,,,,,,1,0,1,0,159,0,159,0,,,,,,,159,,,0.2,1407.5253282547055,Y,d,go,None,0,,1408.3259410065075,,,,,,,,,,,,,,,,11,001,20,w,Psychologie,2023-01-10_10h30.21.266,00_bat_bachelor,2022.2.4,59.982695888699986,
,,,,,,,,,,,,1,0,1,0,160,0,160,0,,,,,,,160,,,0.2,1408.526195164217,X,l,go,d,0,0.6609936308232136,,,,,,,,,,,,,,,,,11,001,20,w,Psychologie,2023-01-10_10h30.21.266,00_bat_bachelor,2022.2.4,59.982695888699986,
,,,,,,,,,,,,1,0,1,0,161,0,161,0,,,,,,,161,,,0.2,1409.4932807240111,X,None,nogo,l,0,0.6055424524238333,,,,,,,,,,,,,,,,,11,001,20,w,Psychologie,2023-01-10_10h30.21.266,00_bat_bachelor,2022.2.4,59.982695888699986,
,,,,,,,,,,,,1,0,1,0,162,0,162,0,,,,,,,162,,,0.2,1410.4108239567577,Y,d,go,None,0,,1411.2114139206824,,,,,,,,,,,,,,,,11,001,20,w,Psychologie,2023-01-10_10h30.21.266,00_bat_bachelor,2022.2.4,59.982695888699986,
,,,,,,,,,,,,1,0,1,0,163,0,163,0,,,,,,,163,,,0.2,1411.411407229767,X,l,go,None,0,,1412.21213101194,,,,,,,,,,,,,,,,11,001,20,w,Psychologie,2023-01-10_10h30.21.266,00_bat_bachelor,2022.2.4,59.982695888699986,
,,,,,,,,,,,,1,0,1,0,164,0,164,0,,,,,,,164,,,0.2,1412.4122101392422,Y,d,go,l,0,0.23030833109805826,,,,,,,,,,,,,,,,,11,001,20,w,Psychologie,2023-01-10_10h30.21.266,00_bat_bachelor,2022.2.4,59.982695888699986,
,,,,,,,,,,,,1,0,1,0,165,0,165,0,,,,,,,165,,,0.2,1412.9459776707663,Y,None,nogo,None,1,,1413.7467266650783,,,,,,,,,,,,,,,,11,001,20,w,Psychologie,2023-01-10_10h30.21.266,00_bat_bachelor,2022.2.4,59.982695888699986,
,,,,,,,,,,,,1,0,1,0,166,0,166,0,,,,,,,166,,,0.2,1413.946849428772,X,l,go,None,0,,1414.7474597563414,,,,,,,,,,,,,,,,11,001,20,w,Psychologie,2023-01-10_10h30.21.266,00_bat_bachelor,2022.2.4,59.982695888699986,
,,,,,,,,,,,,1,0,1,0,167,0,167,0,,,,,,,167,,,0.2,1414.9474588836165,Y,d,go,l,0,0.3189769801538205,,,,,,,,,,,,,,,,,11,001,20,w,Psychologie,2023-01-10_10h30.21.266,00_bat_bachelor,2022.2.4,59.982695888699986,
,,,,,,,,,,,,1,0,1,0,168,0,168,0,,,,,,,168,,,0.2,1415.5812778575782,Y,None,nogo,None,1,,1416.382151458005,,,,,,,,,,,,,,,,11,001,20,w,Psychologie,2023-01-10_10h30.21.266,00_bat_bachelor,2022.2.4,59.982695888699986,
,,,,,,,,,,,,1,0,1,0,169,0,169,0,,,,,,,169,,,0.2,1416.5820696155424,X,l,go,l,1,0.6050532400549855,,,,,,,,,,,,,,,,,11,001,20,w,Psychologie,2023-01-10_10h30.21.266,00_bat_bachelor,2022.2.4,59.982695888699986,
,,,,,,,,,,,,1,0,1,0,170,0,170,0,,,,,,,170,,,0.2,1417.499636121036,Y,d,go,d,1,0.5670697064924752,,,,,,,,,,,,,,,,,11,001,20,w,Psychologie,2023-01-10_10h30.21.266,00_bat_bachelor,2022.2.4,59.982695888699986,
,,,,,,,,,,,,1,0,1,0,171,0,171,0,,,,,,,171,,,0.2,1418.3669344809314,Y,None,nogo,None,1,,1419.167586990341,,,,,,,,,,,,,,,,11,001,20,w,Psychologie,2023-01-10_10h30.21.266,00_bat_bachelor,2022.2.4,59.982695888699986,
,,,,,,,,,,,,1,0,1,0,172,0,172,0,,,,,,,172,,,0.2,1419.3675124206056,X,l,go,None,0,,1420.168094626948,,,,,,,,,,,,,,,,11,001,20,w,Psychologie,2023-01-10_10h30.21.266,00_bat_bachelor,2022.2.4,59.982695888699986,
,,,,,,,,,,,,1,0,1,0,173,0,173,0,,,,,,,173,,,0.2,1420.368406481648,Y,d,go,None,0,,1421.1690900213725,,,,,,,,,,,,,,,,11,001,20,w,Psychologie,2023-01-10_10h30.21.266,00_bat_bachelor,2022.2.4,59.982695888699986,
,,,,,,,,,,,,1,0,1,0,174,0,174,0,,,,,,,174,,,0.2,1421.369193875973,Y,None,nogo,None,1,,1422.1696892943874,,,,,,,,,,,,,,,,11,001,20,w,Psychologie,2023-01-10_10h30.21.266,00_bat_bachelor,2022.2.4,59.982695888699986,
,,,,,,,,,,,,1,0,1,0,175,0,175,0,,,,,,,175,,,0.2,1422.3697470883635,X,l,go,d,0,0.1606670852197567,,,,,,,,,,,,,,,,,11,001,20,w,Psychologie,2023-01-10_10h30.21.266,00_bat_bachelor,2022.2.4,59.982695888699986,
,,,,,,,,,,,,1,0,1,0,176,0,176,0,,,,,,,176,,,0.2,1422.836989011863,Y,d,go,l,0,0.39728247266612016,,,,,,,,,,,,,,,,,11,001,20,w,Psychologie,2023-01-10_10h30.21.266,00_bat_bachelor,2022.2.4,59.982695888699986,
,,,,,,,,,,,,1,0,1,0,177,0,177,0,,,,,,,177,,,0.2,1423.554199056569,X,l,go,d,0,0.43292224750621244,,,,,,,,,,,,,,,,,11,001,20,w,Psychologie,2023-01-10_10h30.21.266,00_bat_bachelor,2022.2.4,59.982695888699986,
,,,,,,,,,,,,1,0,1,0,178,0,178,0,,,,,,,178,,,0.2,1424.2882595336996,Y,d,go,None,0,,1425.0887016187626,,,,,,,,,,,,,,,,11,001,20,w,Psychologie,2023-01-10_10h30.21.266,00_bat_bachelor,2022.2.4,59.982695888699986,
,,,,,,,,,,,,1,0,1,0,179,0,179,0,,,,,,,179,,,0.2,1425.288665352069,Y,None,nogo,l,0,0.4268141233478673,,,,,,,,,,,,,,,,,11,001,20,w,Psychologie,2023-01-10_10h30.21.266,00_bat_bachelor,2022.2.4,59.982695888699986,
,,,,,,,,,,,,1,0,1,0,180,0,180,0,,,,,,,180,,,0.2,1426.0227282534324,Y,None,nogo,None,1,,1426.823179550629,,,,,,,,,,,,,,,,11,001,20,w,Psychologie,2023-01-10_10h30.21.266,00_bat_bachelor,2022.2.4,59.982695888699986,
,,,,,,,,,,,,1,0,1,0,181,0,181,0,,,,,,,181,,,0.2,1427.023404617401,X,l,go,l,1,0.3379718984506326,,,,,,,,,,,,,,,,,11,001,20,w,Psychologie,2023-01-10_10h30.21.266,00_bat_bachelor,2022.2.4,59.982695888699986,
,,,,,,,,,,,,1,0,1,0,182,0,182,0,,,,,,,182,,,0.2,1427.690610274236,Y,d,go,None,0,,1428.491159510857,,,,,,,,,,,,,,,,11,001,20,w,Psychologie,2023-01-10_10h30.21.266,00_bat_bachelor,2022.2.4,59.982695888699986,
,,,,,,,,,,,,1,0,1,0,183,0,183,0,,,,,,,183,,,0.2,1428.6914248200774,Y,None,nogo,None,1,,1429.4920443597803,,,,,,,,,,,,,,,,11,001,20,w,Psychologie,2023-01-10_10h30.21.266,00_bat_bachelor,2022.2.4,59.982695888699986,
,,,,,,,,,,,,1,0,1,0,184,0,184,0,,,,,,,184,,,0.2,1429.6923062750575,X,l,go,l,1,0.11822973129164893,,,,,,,,,,,,,,,,,11,001,20,w,Psychologie,2023-01-10_10h30.21.266,00_bat_bachelor,2022.2.4,59.982695888699986,
,,,,,,,,,,,,1,0,1,0,185,0,185,0,,,,,,,185,,,0.2,1430.1423040689842,Y,d,go,d,1,0.5161765909142559,,,,,,,,,,,,,,,,,11,001,20,w,Psychologie,2023-01-10_10h30.21.266,00_bat_bachelor,2022.2.4,59.982695888699986,
,,,,,,,,,,,,1,0,1,0,186,0,186,0,,,,,,,186,,,0.2,1430.959487980348,Y,None,nogo,None,1,,1431.76024182314,,,,,,,,,,,,,,,,11,001,20,w,Psychologie,2023-01-10_10h30.21.266,00_bat_bachelor,2022.2.4,59.982695888699986,
,,,,,,,,,,,,1,0,1,0,187,0,187,0,,,,,,,187,,,0.2,1431.9603820413904,X,l,go,l,1,0.3149546751665184,,,,,,,,,,,,,,,,,11,001,20,w,Psychologie,2023-01-10_10h30.21.266,00_bat_bachelor,2022.2.4,59.982695888699986,
,,,,,,,,,,,,1,0,1,0,188,0,188,0,,,,,,,188,,,0.2,1432.5774834315089,Y,d,go,d,1,0.4976000970491441,,,,,,,,,,,,,,,,,11,001,20,w,Psychologie,2023-01-10_10h30.21.266,00_bat_bachelor,2022.2.4,59.982695888699986,
,,,,,,,,,,,,1,0,1,0,189,0,189,0,,,,,,,189,,,0.2,1433.3781689106254,X,l,go,None,0,,,,,,,,,,,,,,,,,,11,001,20,w,Psychologie,2023-01-10_10h30.21.266,00_bat_bachelor,2022.2.4,59.982695888699986,
,,,,,,,,,,,,1,0,1,0,190,0,190,0,,,,,,,190,,,0.2,1434.3787250321038,Y,d,go,None,0,,1435.1794391173025,,,,,,,,,,,,,,,,11,001,20,w,Psychologie,2023-01-10_10h30.21.266,00_bat_bachelor,2022.2.4,59.982695888699986,
,,,,,,,,,,,,1,0,1,0,191,0,191,0,,,,,,,191,,,0.2,1435.3794891536818,Y,None,nogo,l,0,0.17587436531903222,,,,,,,,,,,,,,,,,11,001,20,w,Psychologie,2023-01-10_10h30.21.266,00_bat_bachelor,2022.2.4,59.982695888699986,
,,,,,,,,,,,,1,0,1,0,192,0,192,0,,,,,,,192,,,0.2,1435.8633216306916,X,l,go,None,0,,,,,,,,,,,,,,,,,,11,001,20,w,Psychologie,2023-01-10_10h30.21.266,00_bat_bachelor,2022.2.4,59.982695888699986,
,,,,,,,,,,,,1,0,1,0,193,0,193,0,,,,,,,193,,,0.2,1436.8641090250167,Y,d,go,None,0,,1437.6647023828846,,,,,,,,,,,,,,,,11,001,20,w,Psychologie,2023-01-10_10h30.21.266,00_bat_bachelor,2022.2.4,59.982695888699986,
,,,,,,,,,,,,1,0,1,0,194,0,194,0,,,,,,,194,,,0.2,1437.8648479344702,Y,None,nogo,d,0,0.041262421262217686,,,,,,,,,,,,,,,,,11,001,20,w,Psychologie,2023-01-10_10h30.21.266,00_bat_bachelor,2022.2.4,59.982695888699986,
,,,,,,,,,,,,1,0,1,0,195,0,195,0,,,,,,,195,,,0.2,1438.215146286122,X,l,go,l,1,0.428813154620002,,,,,,,,,,,,,,,,,11,001,20,w,Psychologie,2023-01-10_10h30.21.266,00_bat_bachelor,2022.2.4,59.982695888699986,
,,,,,,,,,,,,1,0,1,0,196,0,196,0,,,,,,,196,,,0.2,1438.9489847025397,Y,d,go,None,0,,1439.7496478786052,,,,,,,,,,,,,,,,11,001,20,w,Psychologie,2023-01-10_10h30.21.266,00_bat_bachelor,2022.2.4,59.982695888699986,
,,,,,,,,,,,,1,0,1,0,197,0,197,0,,,,,,,197,,,0.2,1439.9498205817217,X,l,go,d,0,0.1980629821337061,,,,,,,,,,,,,,,,,11,001,20,w,Psychologie,2023-01-10_10h30.21.266,00_bat_bachelor,2022.2.4,59.982695888699986,
,,,,,,,,,,,,1,0,1,0,198,0,198,0,,,,,,,198,,,0.2,1440.4501185212575,X,None,nogo,None,1,,,,,,,,,,,,,,,,,,11,001,20,w,Psychologie,2023-01-10_10h30.21.266,00_bat_bachelor,2022.2.4,59.982695888699986,
,,,,,,,,,,,,1,0,1,0,199,0,199,0,,,,,,,199,,,0.2,1441.4507987640245,Y,d,go,None,0,,,,,,,,,,,,,,,,,,11,001,20,w,Psychologie,2023-01-10_10h30.21.266,00_bat_bachelor,2022.2.4,59.982695888699986,
