loop_instruction.thisRepN,loop_instruction.thisTrialN,loop_instruction.thisN,loop_instruction.thisIndex,loop_rsi_practice.thisRepN,loop_rsi_practice.thisTrialN,loop_rsi_practice.thisN,loop_rsi_practice.thisIndex,loop_practice.thisRepN,loop_practice.thisTrialN,loop_practice.thisN,loop_practice.thisIndex,loop_exp.thisRepN,loop_exp.thisTrialN,loop_exp.thisN,loop_exp.thisIndex,loop_trials.thisRepN,loop_trials.thisTrialN,loop_trials.thisN,loop_trials.thisIndex,map_condition,map_x_key,map_y_key,key_resp_welcome.started,key_resp_welcome.keys,key_resp_welcome.rt,index,text_empty_rsi_practice.started,text_empty_rsi_practice.stopped,rsi,stimulus.started,stimulus.stopped,stimulus,correct,trial_type,key_resp_trial.keys,key_resp_trial.corr,key_resp_trial.rt,key_resp_instruction_rsi.started,key_resp_instruction_rsi.keys,key_resp_instruction_rsi.rt,key_resp_instruction_rsi.stopped,key_resp_instruction_final.started,key_resp_instruction_final.keys,key_resp_instruction_final.rt,key_resp_break.started,key_resp_break.keys,key_resp_break.rt,key_resp_break.stopped,key_resp_end_screen.started,image_end_screen.started,key_resp_end_screen.keys,key_resp_end_screen.rt,participant,session,Alter,Geschlecht (w/m/d/andere),Studiengang,date,expName,psychopyVersion,frameRate,
,,,,0,0,0,0,0,0,0,0,,,,,,,,,1,l,d,199.27383770854794,j,20.484743561974028,0,219.78209492465248,220.7965070528444,1,220.7965070528444,221.59688950152486,X,l,go,None,0,,,,,,,,,,,,,,,,,15,001,20,w,Psychologie,2023-01-11_13h32.44.947,00_bat_bachelor,2022.2.4,59.979556050055734,
,,,,0,0,0,0,1,0,1,0,,,,,,,,,,,,,,,1,222.1974211866327,223.19826433857088,1,223.19826433857088,,Y,d,go,d,1,0.38158278467017226,,,,,,,,,,,,,,,,15,001,20,w,Psychologie,2023-01-11_13h32.44.947,00_bat_bachelor,2022.2.4,59.979556050055734,
,,,,0,0,0,0,2,0,2,0,,,,,,,,,,,,,,,2,224.28229589445982,225.28279625833966,1,225.28279625833966,,X,l,go,l,1,0.2801189779129345,,,,,,,,,,,,,,,,15,001,20,w,Psychologie,2023-01-11_13h32.44.947,00_bat_bachelor,2022.2.4,59.979556050055734,
,,,,0,0,0,0,3,0,3,0,,,,,,,,,,,,,,,3,226.26720982653205,227.2679026753467,1,227.2679026753467,,X,None,nogo,l,0,0.42282304709078744,,,,,,,,,,,,,,,,15,001,20,w,Psychologie,2023-01-11_13h32.44.947,00_bat_bachelor,2022.2.4,59.979556050055734,
,,,,0,0,0,0,4,0,4,0,,,,,,,,,,,,,,,4,228.8025138436351,229.80291772264172,1,229.80291772264172,,Y,d,go,None,0,,,,,,,,,,,,,,,,,15,001,20,w,Psychologie,2023-01-11_13h32.44.947,00_bat_bachelor,2022.2.4,59.979556050055734,
,,,,0,0,0,0,5,0,5,0,,,,,,,,,,,,,,,5,231.20428373542381,232.20485779631417,1,232.20485779631417,,X,l,go,l,1,0.5248182480572723,,,,,,,,,,,,,,,,15,001,20,w,Psychologie,2023-01-11_13h32.44.947,00_bat_bachelor,2022.2.4,59.979556050055734,
,,,,0,0,0,0,6,0,6,0,,,,,,,,,,,,,,,6,233.43941984942649,234.44001088000368,1,234.44001088000368,,Y,d,go,d,1,0.30687293026130646,,,,,,,,,,,,,,,,15,001,20,w,Psychologie,2023-01-11_13h32.44.947,00_bat_bachelor,2022.2.4,59.979556050055734,
,,,,0,0,0,0,7,0,7,0,,,,,,,,,,,,,,,7,235.4572559792723,236.45832458586665,1,236.45832458586665,,X,l,go,l,1,0.3199914820725098,,,,,,,,,,,,,,,,15,001,20,w,Psychologie,2023-01-11_13h32.44.947,00_bat_bachelor,2022.2.4,59.979556050055734,
,,,,0,0,0,0,8,0,8,0,,,,,,,,,,,,,,,8,237.4925044812262,238.49312460274086,1,238.49312460274086,,Y,d,go,d,1,0.33296797319781035,,,,,,,,,,,,,,,,15,001,20,w,Psychologie,2023-01-11_13h32.44.947,00_bat_bachelor,2022.2.4,59.979556050055734,
,,,,0,0,0,0,9,0,9,0,,,,,,,,,,,,,,,9,239.52732195265708,240.52820340762264,1,240.52820340762264,,X,l,go,l,1,0.34655537371872924,,,,,,,,,,,,,,,,15,001,20,w,Psychologie,2023-01-11_13h32.44.947,00_bat_bachelor,2022.2.4,59.979556050055734,
,,,,0,0,0,0,10,0,10,0,,,,,,,,,,,,,,,10,241.57887009886326,242.57952609917265,1,242.57952609917265,,Y,d,go,d,1,0.35881525845616125,,,,,,,,,,,,,,,,15,001,20,w,Psychologie,2023-01-11_13h32.44.947,00_bat_bachelor,2022.2.4,59.979556050055734,
,,,,0,0,0,0,11,0,11,0,,,,,,,,,,,,,,,11,243.64705582888564,244.6479178899026,1,244.6479178899026,,X,l,go,l,1,0.3391944004688412,,,,,,,,,,,,,,,,15,001,20,w,Psychologie,2023-01-11_13h32.44.947,00_bat_bachelor,2022.2.4,59.979556050055734,
,,,,0,0,0,0,12,0,12,0,,,,,,,,,,,,,,,12,245.69884688430466,246.69913100564736,1,246.69913100564736,,Y,d,go,d,1,0.3829762398963794,,,,,,,,,,,,,,,,15,001,20,w,Psychologie,2023-01-11_13h32.44.947,00_bat_bachelor,2022.2.4,59.979556050055734,
,,,,0,0,0,0,13,0,13,0,,,,,,,,,,,,,,,13,247.78329783433583,248.78437710757134,1,248.78437710757134,249.58485991993803,Y,None,nogo,None,1,,,,,,,,,,,,,,,,,15,001,20,w,Psychologie,2023-01-11_13h32.44.947,00_bat_bachelor,2022.2.4,59.979556050055734,
,,,,0,0,0,0,14,0,14,0,,,,,,,,,,,,,,,14,250.18554675663472,251.18626578728436,1,251.18626578728436,,X,l,go,l,1,0.3133849334262777,,,,,,,,,,,,,,,,15,001,20,w,Psychologie,2023-01-11_13h32.44.947,00_bat_bachelor,2022.2.4,59.979556050055734,
,,,,1,0,1,0,0,0,0,0,,,,,,,,,,,,,,,0,266.9982419385342,267.19822409612243,0.2,267.19822409612243,,X,l,go,None,0,,252.21386580067337,j,14.75939387694234,,,,,,,,,,,,,15,001,20,w,Psychologie,2023-01-11_13h32.44.947,00_bat_bachelor,2022.2.4,59.979556050055734,
,,,,1,0,1,0,1,0,1,0,,,,,,,,,,,,,,,1,268.59946113915066,268.79957517556613,0.2,268.79957517556613,,Y,d,go,d,1,0.6179562325996812,,,,,,,,,,,,,,,,15,001,20,w,Psychologie,2023-01-11_13h32.44.947,00_bat_bachelor,2022.2.4,59.979556050055734,
,,,,1,0,1,0,2,0,2,0,,,,,,,,,,,,,,,2,270.1339060043101,270.33428670754074,0.2,270.33428670754074,,X,l,go,l,1,0.4129515271342825,,,,,,,,,,,,,,,,15,001,20,w,Psychologie,2023-01-11_13h32.44.947,00_bat_bachelor,2022.2.4,59.979556050055734,
,,,,1,0,1,0,3,0,3,0,,,,,,,,,,,,,,,3,271.4518513705989,271.6517026190122,0.2,271.6517026190122,,X,None,nogo,None,1,,,,,,,,,,,,,,,,,15,001,20,w,Psychologie,2023-01-11_13h32.44.947,00_bat_bachelor,2022.2.4,59.979556050055734,
,,,,1,0,1,0,4,0,4,0,,,,,,,,,,,,,,,4,273.0525881467038,273.2530061832804,0.2,273.2530061832804,,Y,d,go,d,1,0.3415289470576681,,,,,,,,,,,,,,,,15,001,20,w,Psychologie,2023-01-11_13h32.44.947,00_bat_bachelor,2022.2.4,59.979556050055734,
,,,,1,0,1,0,5,0,5,0,,,,,,,,,,,,,,,5,274.3038837836939,274.50411175956833,0.2,274.50411175956833,,X,l,go,l,1,0.43470523465657607,,,,,,,,,,,,,,,,15,001,20,w,Psychologie,2023-01-11_13h32.44.947,00_bat_bachelor,2022.2.4,59.979556050055734,
,,,,1,0,1,0,6,0,6,0,,,,,,,,,,,,,,,6,275.654569044651,275.85501956607914,0.2,275.85501956607914,,Y,d,go,d,1,0.31573305575875565,,,,,,,,,,,,,,,,15,001,20,w,Psychologie,2023-01-11_13h32.44.947,00_bat_bachelor,2022.2.4,59.979556050055734,
,,,,1,0,1,0,7,0,7,0,,,,,,,,,,,,,,,7,276.872450847266,277.072599307925,0.2,277.072599307925,,X,l,go,l,1,0.3631541696668137,,,,,,,,,,,,,,,,15,001,20,w,Psychologie,2023-01-11_13h32.44.947,00_bat_bachelor,2022.2.4,59.979556050055734,
,,,,1,0,1,0,8,0,8,0,,,,,,,,,,,,,,,8,278.1399350981519,278.34039725596085,0.2,278.34039725596085,,Y,d,go,d,1,0.4066596452903468,,,,,,,,,,,,,,,,15,001,20,w,Psychologie,2023-01-11_13h32.44.947,00_bat_bachelor,2022.2.4,59.979556050055734,
,,,,1,0,1,0,9,0,9,0,,,,,,,,,,,,,,,9,279.45774131285725,279.6579198341351,0.2,279.6579198341351,,X,l,go,l,1,0.3361068838275969,,,,,,,,,,,,,,,,15,001,20,w,Psychologie,2023-01-11_13h32.44.947,00_bat_bachelor,2022.2.4,59.979556050055734,
,,,,1,0,1,0,10,0,10,0,,,,,,,,,,,,,,,10,280.70872567695915,280.9088552285393,0.2,280.9088552285393,,Y,d,go,d,1,0.4627183391712606,,,,,,,,,,,,,,,,15,001,20,w,Psychologie,2023-01-11_13h32.44.947,00_bat_bachelor,2022.2.4,59.979556050055734,
,,,,1,0,1,0,11,0,11,0,,,,,,,,,,,,,,,11,282.076450461318,282.27626001273165,0.2,282.27626001273165,,X,l,go,l,1,0.40708437279681675,,,,,,,,,,,,,,,,15,001,20,w,Psychologie,2023-01-11_13h32.44.947,00_bat_bachelor,2022.2.4,59.979556050055734,
,,,,1,0,1,0,12,0,12,0,,,,,,,,,,,,,,,12,283.39378103942727,283.5943038033147,0.2,283.5943038033147,,X,None,nogo,l,0,0.32022760339896195,,,,,,,,,,,,,,,,15,001,20,w,Psychologie,2023-01-11_13h32.44.947,00_bat_bachelor,2022.2.4,59.979556050055734,
,,,,1,0,1,0,13,0,13,0,,,,,,,,,,,,,,,13,285.0286511654267,285.22854459565133,0.2,285.22854459565133,286.02951662038686,Y,d,go,None,0,,,,,,,,,,,,,,,,,15,001,20,w,Psychologie,2023-01-11_13h32.44.947,00_bat_bachelor,2022.2.4,59.979556050055734,
,,,,1,0,1,0,14,0,14,0,,,,,,,,,,,,,,,14,286.62994939635973,286.82981615990866,0.2,286.82981615990866,,X,l,go,l,1,0.41160801134537905,,,,,,,,,,,,,,,,15,001,20,w,Psychologie,2023-01-11_13h32.44.947,00_bat_bachelor,2022.2.4,59.979556050055734,
,,,,,,,,,,,,,,,,,,,,,,,,,,,,,,,,,,,,,,287.9772984132287,None,,287.9772984132287,287.9772984132287,space,7.715916522516636,,,,,,,,,15,001,20,w,Psychologie,2023-01-11_13h32.44.947,00_bat_bachelor,2022.2.4,59.979556050055734,
,,,,,,,,,,,,0,0,0,0,0,0,0,0,,,,,,,0,,,1,296.72100301625323,,X,l,go,l,1,0.28088503889739513,,,,,,,,,,,,,,,,15,001,20,w,Psychologie,2023-01-11_13h32.44.947,00_bat_bachelor,2022.2.4,59.979556050055734,
,,,,,,,,,,,,0,0,0,0,1,0,1,0,,,,,,,1,,,1,298.1054730208416,,Y,d,go,d,1,0.38477211954887025,,,,,,,,,,,,,,,,15,001,20,w,Psychologie,2023-01-11_13h32.44.947,00_bat_bachelor,2022.2.4,59.979556050055734,
,,,,,,,,,,,,0,0,0,0,2,0,2,0,,,,,,,2,,,1,299.60652247589314,,X,l,go,l,1,0.3404923405032605,,,,,,,,,,,,,,,,15,001,20,w,Psychologie,2023-01-11_13h32.44.947,00_bat_bachelor,2022.2.4,59.979556050055734,
,,,,,,,,,,,,0,0,0,0,3,0,3,0,,,,,,,3,,,1,301.0576203915698,,Y,d,go,d,1,0.4560201540880371,,,,,,,,,,,,,,,,15,001,20,w,Psychologie,2023-01-11_13h32.44.947,00_bat_bachelor,2022.2.4,59.979556050055734,
,,,,,,,,,,,,0,0,0,0,4,0,4,0,,,,,,,4,,,1,302.6254199396062,,X,l,go,l,1,0.28229352441849187,,,,,,,,,,,,,,,,15,001,20,w,Psychologie,2023-01-11_13h32.44.947,00_bat_bachelor,2022.2.4,59.979556050055734,
,,,,,,,,,,,,0,0,0,0,5,0,5,0,,,,,,,5,,,1,304.0098225502297,,X,None,nogo,None,1,,,,,,,,,,,,,,,,,15,001,20,w,Psychologie,2023-01-11_13h32.44.947,00_bat_bachelor,2022.2.4,59.979556050055734,
,,,,,,,,,,,,0,0,0,0,6,0,6,0,,,,,,,6,,,1,305.8113914237183,,Y,d,go,d,1,0.35925647080875933,,,,,,,,,,,,,,,,15,001,20,w,Psychologie,2023-01-11_13h32.44.947,00_bat_bachelor,2022.2.4,59.979556050055734,
,,,,,,,,,,,,0,0,0,0,7,0,7,0,,,,,,,7,,,1,307.2796544386365,,X,l,go,l,1,0.29815874420455657,,,,,,,,,,,,,,,,15,001,20,w,Psychologie,2023-01-11_13h32.44.947,00_bat_bachelor,2022.2.4,59.979556050055734,
,,,,,,,,,,,,0,0,0,0,8,0,8,0,,,,,,,8,,,1,308.69715088346857,,Y,d,go,d,1,0.22550852718995884,,,,,,,,,,,,,,,,15,001,20,w,Psychologie,2023-01-11_13h32.44.947,00_bat_bachelor,2022.2.4,59.979556050055734,
,,,,,,,,,,,,0,0,0,0,9,0,9,0,,,,,,,9,,,1,310.0484397810651,,X,l,go,l,1,0.31470808558515273,,,,,,,,,,,,,,,,15,001,20,w,Psychologie,2023-01-11_13h32.44.947,00_bat_bachelor,2022.2.4,59.979556050055734,
,,,,,,,,,,,,0,0,0,0,10,0,10,0,,,,,,,10,,,1,311.4660681047535,,Y,d,go,d,1,0.48007252940442413,,,,,,,,,,,,,,,,15,001,20,w,Psychologie,2023-01-11_13h32.44.947,00_bat_bachelor,2022.2.4,59.979556050055734,
,,,,,,,,,,,,0,0,0,0,11,0,11,0,,,,,,,11,,,1,313.06717821440543,,X,l,go,l,1,0.4303905658889562,,,,,,,,,,,,,,,,15,001,20,w,Psychologie,2023-01-11_13h32.44.947,00_bat_bachelor,2022.2.4,59.979556050055734,
,,,,,,,,,,,,0,0,0,0,12,0,12,0,,,,,,,12,,,1,314.6184769059473,,X,None,nogo,l,0,0.31985523959156126,,,,,,,,,,,,,,,,15,001,20,w,Psychologie,2023-01-11_13h32.44.947,00_bat_bachelor,2022.2.4,59.979556050055734,
,,,,,,,,,,,,0,0,0,0,13,0,13,0,,,,,,,13,,,1,316.05277093467885,,Y,d,go,d,1,0.4686698571895249,,,,,,,,,,,,,,,,15,001,20,w,Psychologie,2023-01-11_13h32.44.947,00_bat_bachelor,2022.2.4,59.979556050055734,
,,,,,,,,,,,,0,0,0,0,14,0,14,0,,,,,,,14,,,1,317.65423352931975,,X,l,go,l,1,0.3079497792641632,,,,,,,,,,,,,,,,15,001,20,w,Psychologie,2023-01-11_13h32.44.947,00_bat_bachelor,2022.2.4,59.979556050055734,
,,,,,,,,,,,,0,0,0,0,15,0,15,0,,,,,,,15,,,1,319.10444562640623,,X,None,nogo,None,1,,,,,,,,,,,,,,,,,15,001,20,w,Psychologie,2023-01-11_13h32.44.947,00_bat_bachelor,2022.2.4,59.979556050055734,
,,,,,,,,,,,,0,0,0,0,16,0,16,0,,,,,,,16,,,1,320.90612746964325,,Y,d,go,d,1,0.3842383010778576,,,,,,,,,,,,,,,,15,001,20,w,Psychologie,2023-01-11_13h32.44.947,00_bat_bachelor,2022.2.4,59.979556050055734,
,,,,,,,,,,,,0,0,0,0,17,0,17,0,,,,,,,17,,,1,322.4071585004567,,X,l,go,l,1,0.3086804462654982,,,,,,,,,,,,,,,,15,001,20,w,Psychologie,2023-01-11_13h32.44.947,00_bat_bachelor,2022.2.4,59.979556050055734,
,,,,,,,,,,,,0,0,0,0,18,0,18,0,,,,,,,18,,,1,323.8249269454391,,Y,d,go,d,1,0.41052922295057215,,,,,,,,,,,,,,,,15,001,20,w,Psychologie,2023-01-11_13h32.44.947,00_bat_bachelor,2022.2.4,59.979556050055734,
,,,,,,,,,,,,0,0,0,0,19,0,19,0,,,,,,,19,,,1,325.34275701467413,,X,l,go,l,1,0.29948674485785887,,,,,,,,,,,,,,,,15,001,20,w,Psychologie,2023-01-11_13h32.44.947,00_bat_bachelor,2022.2.4,59.979556050055734,
,,,,,,,,,,,,0,0,0,0,20,0,20,0,,,,,,,20,,,1,326.74350678472547,,Y,d,go,d,1,0.4025093402597122,,,,,,,,,,,,,,,,15,001,20,w,Psychologie,2023-01-11_13h32.44.947,00_bat_bachelor,2022.2.4,59.979556050055734,
,,,,,,,,,,,,0,0,0,0,21,0,21,0,,,,,,,21,,,1,328.26168303596205,329.0624073029903,Y,None,nogo,None,1,,,,,,,,,,,,,,,,,15,001,20,w,Psychologie,2023-01-11_13h32.44.947,00_bat_bachelor,2022.2.4,59.979556050055734,
,,,,,,,,,,,,0,0,0,0,22,0,22,0,,,,,,,22,,,1,330.06301869722665,,X,l,go,l,1,0.2677407900628168,,,,,,,,,,,,,,,,15,001,20,w,Psychologie,2023-01-11_13h32.44.947,00_bat_bachelor,2022.2.4,59.979556050055734,
,,,,,,,,,,,,0,0,0,0,23,0,23,0,,,,,,,23,,,1,331.44742809573654,,Y,d,go,d,1,0.3230979078216478,,,,,,,,,,,,,,,,15,001,20,w,Psychologie,2023-01-11_13h32.44.947,00_bat_bachelor,2022.2.4,59.979556050055734,
,,,,,,,,,,,,0,0,0,0,24,0,24,0,,,,,,,24,,,1,332.88187048819964,,X,l,go,l,1,0.34510131244314834,,,,,,,,,,,,,,,,15,001,20,w,Psychologie,2023-01-11_13h32.44.947,00_bat_bachelor,2022.2.4,59.979556050055734,
,,,,,,,,,,,,0,0,0,0,25,0,25,0,,,,,,,25,,,1,334.33263240370434,,Y,d,go,d,1,0.3972584286238998,,,,,,,,,,,,,,,,15,001,20,w,Psychologie,2023-01-11_13h32.44.947,00_bat_bachelor,2022.2.4,59.979556050055734,
,,,,,,,,,,,,0,0,0,0,26,0,26,0,,,,,,,26,,,1,335.83428694997565,,X,l,go,l,1,0.3678625355823897,,,,,,,,,,,,,,,,15,001,20,w,Psychologie,2023-01-11_13h32.44.947,00_bat_bachelor,2022.2.4,59.979556050055734,
,,,,,,,,,,,,0,0,0,0,27,0,27,0,,,,,,,27,,,1,337.318586821144,,Y,d,go,d,1,0.3565272573614493,,,,,,,,,,,,,,,,15,001,20,w,Psychologie,2023-01-11_13h32.44.947,00_bat_bachelor,2022.2.4,59.979556050055734,
,,,,,,,,,,,,0,0,0,0,28,0,28,0,,,,,,,28,,,1,338.78629226001794,,X,l,go,l,1,0.5996614358446095,,,,,,,,,,,,,,,,15,001,20,w,Psychologie,2023-01-11_13h32.44.947,00_bat_bachelor,2022.2.4,59.979556050055734,
,,,,,,,,,,,,0,0,0,0,29,0,29,0,,,,,,,29,,,1,340.4873199938447,,Y,d,go,d,1,0.3708782946341671,,,,,,,,,,,,,,,,15,001,20,w,Psychologie,2023-01-11_13h32.44.947,00_bat_bachelor,2022.2.4,59.979556050055734,
,,,,,,,,,,,,0,0,0,0,30,0,30,0,,,,,,,30,,,1,341.97212168347323,,X,l,go,l,1,0.37468872070894577,,,,,,,,,,,,,,,,15,001,20,w,Psychologie,2023-01-11_13h32.44.947,00_bat_bachelor,2022.2.4,59.979556050055734,
,,,,,,,,,,,,0,0,0,0,31,0,31,0,,,,,,,31,,,1,343.4565544031793,,X,None,nogo,None,1,,,,,,,,,,,,,,,,,15,001,20,w,Psychologie,2023-01-11_13h32.44.947,00_bat_bachelor,2022.2.4,59.979556050055734,
,,,,,,,,,,,,0,0,0,0,32,0,32,0,,,,,,,32,,,1,345.257945822028,,Y,d,go,d,1,0.4322189304511994,,,,,,,,,,,,,,,,15,001,20,w,Psychologie,2023-01-11_13h32.44.947,00_bat_bachelor,2022.2.4,59.979556050055734,
,,,,,,,,,,,,0,0,0,0,33,0,33,0,,,,,,,33,,,1,346.7924202629947,,X,l,go,l,1,0.24266005062963814,,,,,,,,,,,,,,,,15,001,20,w,Psychologie,2023-01-11_13h32.44.947,00_bat_bachelor,2022.2.4,59.979556050055734,
,,,,,,,,,,,,0,0,0,0,34,0,34,0,,,,,,,34,,,1,348.14364031207515,,X,None,nogo,None,1,,,,,,,,,,,,,,,,,15,001,20,w,Psychologie,2023-01-11_13h32.44.947,00_bat_bachelor,2022.2.4,59.979556050055734,
,,,,,,,,,,,,0,0,0,0,35,0,35,0,,,,,,,35,,,1,349.94485621570493,,Y,d,go,d,1,0.3374009450490121,,,,,,,,,,,,,,,,15,001,20,w,Psychologie,2023-01-11_13h32.44.947,00_bat_bachelor,2022.2.4,59.979556050055734,
,,,,,,,,,,,,0,0,0,0,36,0,36,0,,,,,,,36,,,1,351.3960574041412,,X,l,go,l,1,0.31155947799561545,,,,,,,,,,,,,,,,15,001,20,w,Psychologie,2023-01-11_13h32.44.947,00_bat_bachelor,2022.2.4,59.979556050055734,
,,,,,,,,,,,,0,0,0,0,37,0,37,0,,,,,,,37,,,1,352.8137793036585,,X,None,nogo,None,1,,,,,,,,,,,,,,,,,15,001,20,w,Psychologie,2023-01-11_13h32.44.947,00_bat_bachelor,2022.2.4,59.979556050055734,
,,,,,,,,,,,,0,0,0,0,38,0,38,0,,,,,,,38,,,1,354.61513581339386,,Y,d,go,d,1,0.37199829518795013,,,,,,,,,,,,,,,,15,001,20,w,Psychologie,2023-01-11_13h32.44.947,00_bat_bachelor,2022.2.4,59.979556050055734,
,,,,,,,,,,,,0,0,0,0,39,0,39,0,,,,,,,39,,,1,356.09942210881854,,X,l,go,l,1,0.31145426581497304,,,,,,,,,,,,,,,,15,001,20,w,Psychologie,2023-01-11_13h32.44.947,00_bat_bachelor,2022.2.4,59.979556050055734,
,,,,,,,,,,,,0,0,0,0,40,0,40,0,,,,,,,40,,,1,357.51728509928216,,Y,d,go,d,1,0.25301302535808645,,,,,,,,,,,,,,,,15,001,20,w,Psychologie,2023-01-11_13h32.44.947,00_bat_bachelor,2022.2.4,59.979556050055734,
,,,,,,,,,,,,0,0,0,0,41,0,41,0,,,,,,,41,,,1,358.8850355806353,,X,l,go,l,1,0.3260390001523774,,,,,,,,,,,,,,,,15,001,20,w,Psychologie,2023-01-11_13h32.44.947,00_bat_bachelor,2022.2.4,59.979556050055734,
,,,,,,,,,,,,0,0,0,0,42,0,42,0,,,,,,,42,,,1,360.31946439732565,,X,None,nogo,d,0,0.23534125919104554,,,,,,,,,,,,,,,,15,001,20,w,Psychologie,2023-01-11_13h32.44.947,00_bat_bachelor,2022.2.4,59.979556050055734,
,,,,,,,,,,,,0,0,0,0,43,0,43,0,,,,,,,43,,,1,361.67054093116894,,Y,d,go,d,1,0.6448769729177002,,,,,,,,,,,,,,,,15,001,20,w,Psychologie,2023-01-11_13h32.44.947,00_bat_bachelor,2022.2.4,59.979556050055734,
,,,,,,,,,,,,0,0,0,0,44,0,44,0,,,,,,,44,,,1,363.422486023017,,X,l,go,l,1,0.3963706706126686,,,,,,,,,,,,,,,,15,001,20,w,Psychologie,2023-01-11_13h32.44.947,00_bat_bachelor,2022.2.4,59.979556050055734,
,,,,,,,,,,,,0,0,0,0,45,0,45,0,,,,,,,45,,,1,364.95700022159144,,Y,d,go,d,1,0.3010964426212013,,,,,,,,,,,,,,,,15,001,20,w,Psychologie,2023-01-11_13h32.44.947,00_bat_bachelor,2022.2.4,59.979556050055734,
,,,,,,,,,,,,0,0,0,0,46,0,46,0,,,,,,,46,,,1,366.3913917049358,367.1922585174616,Y,None,nogo,None,1,,,,,,,,,,,,,,,,,15,001,20,w,Psychologie,2023-01-11_13h32.44.947,00_bat_bachelor,2022.2.4,59.979556050055734,
,,,,,,,,,,,,0,0,0,0,47,0,47,0,,,,,,,47,,,1,368.1925964570255,,X,l,go,l,1,0.2647439401480369,,,,,,,,,,,,,,,,15,001,20,w,Psychologie,2023-01-11_13h32.44.947,00_bat_bachelor,2022.2.4,59.979556050055734,
,,,,,,,,,,,,0,0,0,0,48,0,48,0,,,,,,,48,,,1,369.5936788333056,,Y,d,go,d,1,0.32083996731671505,,,,,,,,,,,,,,,,15,001,20,w,Psychologie,2023-01-11_13h32.44.947,00_bat_bachelor,2022.2.4,59.979556050055734,
,,,,,,,,,,,,0,0,0,0,49,0,49,0,,,,,,,49,,,1,371.02814934699563,,X,l,go,l,1,0.26166612046654336,,,,,,,,,,,,,,,,15,001,20,w,Psychologie,2023-01-11_13h32.44.947,00_bat_bachelor,2022.2.4,59.979556050055734,
,,,,,,,,,,,,0,0,0,0,50,0,50,0,,,,,,,50,,,1,372.4128026243998,373.2133872549748,X,None,nogo,None,1,,,,,,,,,,,,,,,,,15,001,20,w,Psychologie,2023-01-11_13h32.44.947,00_bat_bachelor,2022.2.4,59.979556050055734,
,,,,,,,,,,,,0,0,0,0,51,0,51,0,,,,,,,51,,,1,374.2140393765003,,Y,d,go,d,1,0.4672453716339078,,,,,,,,,,,,,,,,15,001,20,w,Psychologie,2023-01-11_13h32.44.947,00_bat_bachelor,2022.2.4,59.979556050055734,
,,,,,,,,,,,,0,0,0,0,52,0,52,0,,,,,,,52,,,1,375.81529639530345,,X,l,go,l,1,0.25911678589181975,,,,,,,,,,,,,,,,15,001,20,w,Psychologie,2023-01-11_13h32.44.947,00_bat_bachelor,2022.2.4,59.979556050055734,
,,,,,,,,,,,,0,0,0,0,53,0,53,0,,,,,,,53,,,1,377.2160044683842,378.0167728566157,X,None,nogo,None,1,,,,,,,,,,,,,,,,,15,001,20,w,Psychologie,2023-01-11_13h32.44.947,00_bat_bachelor,2022.2.4,59.979556050055734,
,,,,,,,,,,,,0,0,0,0,54,0,54,0,,,,,,,54,,,1,379.0173595235683,,Y,d,go,d,1,0.3046149897563737,,,,,,,,,,,,,,,,15,001,20,w,Psychologie,2023-01-11_13h32.44.947,00_bat_bachelor,2022.2.4,59.979556050055734,
,,,,,,,,,,,,0,0,0,0,55,0,55,0,,,,,,,55,,,1,380.4520588858577,,X,l,go,l,1,0.26203412062022835,,,,,,,,,,,,,,,,15,001,20,w,Psychologie,2023-01-11_13h32.44.947,00_bat_bachelor,2022.2.4,59.979556050055734,
,,,,,,,,,,,,0,0,0,0,56,0,56,0,,,,,,,56,,,1,381.83615216298494,,Y,d,go,d,1,0.31822323877713643,,,,,,,,,,,,,,,,15,001,20,w,Psychologie,2023-01-11_13h32.44.947,00_bat_bachelor,2022.2.4,59.979556050055734,
,,,,,,,,,,,,0,0,0,0,57,0,57,0,,,,,,,57,,,1,383.270251282549,,X,l,go,l,1,0.30817087026662193,,,,,,,,,,,,,,,,15,001,20,w,Psychologie,2023-01-11_13h32.44.947,00_bat_bachelor,2022.2.4,59.979556050055734,
,,,,,,,,,,,,0,0,0,0,58,0,58,0,,,,,,,58,,,1,384.6881414245581,,Y,d,go,d,1,0.26517448580125347,,,,,,,,,,,,,,,,15,001,20,w,Psychologie,2023-01-11_13h32.44.947,00_bat_bachelor,2022.2.4,59.979556050055734,
,,,,,,,,,,,,0,0,0,0,59,0,59,0,,,,,,,59,,,1,386.07260948975454,,X,l,go,l,1,0.4012574608786963,,,,,,,,,,,,,,,,15,001,20,w,Psychologie,2023-01-11_13h32.44.947,00_bat_bachelor,2022.2.4,59.979556050055734,
,,,,,,,,,,,,0,0,0,0,60,0,60,0,,,,,,,60,,,1,387.59049046813743,,Y,d,go,d,1,0.35640071184025146,,,,,,,,,,,,,,,,15,001,20,w,Psychologie,2023-01-11_13h32.44.947,00_bat_bachelor,2022.2.4,59.979556050055734,
,,,,,,,,,,,,0,0,0,0,61,0,61,0,,,,,,,61,,,1,389.0580203917634,,X,l,go,l,1,0.4565845180186443,,,,,,,,,,,,,,,,15,001,20,w,Psychologie,2023-01-11_13h32.44.947,00_bat_bachelor,2022.2.4,59.979556050055734,
,,,,,,,,,,,,0,0,0,0,62,0,62,0,,,,,,,62,,,1,390.6256070912059,,X,None,nogo,None,1,,,,,,,,,,,,,,,,,15,001,20,w,Psychologie,2023-01-11_13h32.44.947,00_bat_bachelor,2022.2.4,59.979556050055734,
,,,,,,,,,,,,0,0,0,0,63,0,63,0,,,,,,,63,,,1,392.4271808131889,,Y,d,go,d,1,0.4801418627612293,,,,,,,,,,,,,,,,15,001,20,w,Psychologie,2023-01-11_13h32.44.947,00_bat_bachelor,2022.2.4,59.979556050055734,
,,,,,,,,,,,,0,0,0,0,64,0,64,0,,,,,,,64,,,1,394.01155055104755,,X,l,go,l,1,0.36641186822089367,,,,,,,,,,,,,,,,15,001,20,w,Psychologie,2023-01-11_13h32.44.947,00_bat_bachelor,2022.2.4,59.979556050055734,
,,,,,,,,,,,,0,0,0,0,65,0,65,0,,,,,,,65,,,1,395.4794862931012,,X,None,nogo,None,1,,,,,,,,,,,,,,,,,15,001,20,w,Psychologie,2023-01-11_13h32.44.947,00_bat_bachelor,2022.2.4,59.979556050055734,
,,,,,,,,,,,,0,0,0,0,66,0,66,0,,,,,,,66,,,1,397.2806861966965,,Y,d,go,d,1,0.31362784263910726,,,,,,,,,,,,,,,,15,001,20,w,Psychologie,2023-01-11_13h32.44.947,00_bat_bachelor,2022.2.4,59.979556050055734,
,,,,,,,,,,,,0,0,0,0,67,0,67,0,,,,,,,67,,,1,398.6986607023864,,X,l,go,l,1,0.2570527848729398,,,,,,,,,,,,,,,,15,001,20,w,Psychologie,2023-01-11_13h32.44.947,00_bat_bachelor,2022.2.4,59.979556050055734,
,,,,,,,,,,,,0,0,0,0,68,0,68,0,,,,,,,68,,,1,400.06614354721387,,Y,d,go,d,1,0.3767512671474833,,,,,,,,,,,,,,,,15,001,20,w,Psychologie,2023-01-11_13h32.44.947,00_bat_bachelor,2022.2.4,59.979556050055734,
,,,,,,,,,,,,0,0,0,0,69,0,69,0,,,,,,,69,,,1,401.5509374792455,,X,l,go,l,1,0.31583875278010964,,,,,,,,,,,,,,,,15,001,20,w,Psychologie,2023-01-11_13h32.44.947,00_bat_bachelor,2022.2.4,59.979556050055734,
,,,,,,,,,,,,0,0,0,0,70,0,70,0,,,,,,,70,,,1,402.9686787727114,,Y,d,go,d,1,0.3373141571355518,,,,,,,,,,,,,,,,15,001,20,w,Psychologie,2023-01-11_13h32.44.947,00_bat_bachelor,2022.2.4,59.979556050055734,
,,,,,,,,,,,,0,0,0,0,71,0,71,0,,,,,,,71,,,1,404.4197883247398,,Y,None,nogo,None,1,,,,,,,,,,,,,,,,,15,001,20,w,Psychologie,2023-01-11_13h32.44.947,00_bat_bachelor,2022.2.4,59.979556050055734,
,,,,,,,,,,,,0,0,0,0,72,0,72,0,,,,,,,72,,,1,406.22119234967977,,X,l,go,l,1,0.38119199659558944,,,,,,,,,,,,,,,,15,001,20,w,Psychologie,2023-01-11_13h32.44.947,00_bat_bachelor,2022.2.4,59.979556050055734,
,,,,,,,,,,,,0,0,0,0,73,0,73,0,,,,,,,73,,,1,407.7054990087345,,Y,d,go,d,1,0.3362460354110226,,,,,,,,,,,,,,,,15,001,20,w,Psychologie,2023-01-11_13h32.44.947,00_bat_bachelor,2022.2.4,59.979556050055734,
,,,,,,,,,,,,0,0,0,0,74,0,74,0,,,,,,,74,,,1,409.15669001537026,409.9570365852269,Y,None,nogo,None,1,,,,,,,,,,,,,,,,,15,001,20,w,Psychologie,2023-01-11_13h32.44.947,00_bat_bachelor,2022.2.4,59.979556050055734,
,,,,,,,,,,,,0,0,0,0,75,0,75,0,,,,,,,75,,,1,410.95806058571907,,X,l,go,l,1,0.20424839566112496,,,,,,,,,,,,,,,,15,001,20,w,Psychologie,2023-01-11_13h32.44.947,00_bat_bachelor,2022.2.4,59.979556050055734,
,,,,,,,,,,,,0,0,0,0,76,0,76,0,,,,,,,76,,,1,412.2757775882492,,Y,d,go,d,1,0.4547042746562511,,,,,,,,,,,,,,,,15,001,20,w,Psychologie,2023-01-11_13h32.44.947,00_bat_bachelor,2022.2.4,59.979556050055734,
,,,,,,,,,,,,0,0,0,0,77,0,77,0,,,,,,,77,,,1,413.8437351969769,,X,l,go,l,1,0.26320745452539995,,,,,,,,,,,,,,,,15,001,20,w,Psychologie,2023-01-11_13h32.44.947,00_bat_bachelor,2022.2.4,59.979556050055734,
,,,,,,,,,,,,0,0,0,0,78,0,78,0,,,,,,,78,,,1,415.21102458715905,,X,None,nogo,None,1,,,,,,,,,,,,,,,,,15,001,20,w,Psychologie,2023-01-11_13h32.44.947,00_bat_bachelor,2022.2.4,59.979556050055734,
,,,,,,,,,,,,0,0,0,0,79,0,79,0,,,,,,,79,,,1,417.0126240061363,,Y,d,go,d,1,0.2621723025222309,,,,,,,,,,,,,,,,15,001,20,w,Psychologie,2023-01-11_13h32.44.947,00_bat_bachelor,2022.2.4,59.979556050055734,
,,,,,,,,,,,,0,0,0,0,80,0,80,0,,,,,,,80,,,1,418.3804186086927,,X,l,go,l,1,0.2217417374777142,,,,,,,,,,,,,,,,15,001,20,w,Psychologie,2023-01-11_13h32.44.947,00_bat_bachelor,2022.2.4,59.979556050055734,
,,,,,,,,,,,,0,0,0,0,81,0,81,0,,,,,,,81,,,1,419.7144813161285,,X,None,nogo,l,0,0.3131017817358952,,,,,,,,,,,,,,,,15,001,20,w,Psychologie,2023-01-11_13h32.44.947,00_bat_bachelor,2022.2.4,59.979556050055734,
,,,,,,,,,,,,0,0,0,0,82,0,82,0,,,,,,,82,,,1,421.1325033369649,,Y,d,go,d,1,0.2863531627226621,,,,,,,,,,,,,,,,15,001,20,w,Psychologie,2023-01-11_13h32.44.947,00_bat_bachelor,2022.2.4,59.979556050055734,
,,,,,,,,,,,,0,0,0,0,83,0,83,0,,,,,,,83,,,1,422.5335566223366,,X,l,go,l,1,0.3567187726148404,,,,,,,,,,,,,,,,15,001,20,w,Psychologie,2023-01-11_13h32.44.947,00_bat_bachelor,2022.2.4,59.979556050055734,
,,,,,,,,,,,,0,0,0,0,84,0,84,0,,,,,,,84,,,1,424.0011200005538,,Y,d,go,d,1,0.31387850939063355,,,,,,,,,,,,,,,,15,001,20,w,Psychologie,2023-01-11_13h32.44.947,00_bat_bachelor,2022.2.4,59.979556050055734,
,,,,,,,,,,,,0,0,0,0,85,0,85,0,,,,,,,85,,,1,425.4192016577872,,X,l,go,l,1,0.4629767635196913,,,,,,,,,,,,,,,,15,001,20,w,Psychologie,2023-01-11_13h32.44.947,00_bat_bachelor,2022.2.4,59.979556050055734,
,,,,,,,,,,,,0,0,0,0,86,0,86,0,,,,,,,86,,,1,426.98663466019207,,Y,d,go,d,1,0.3998189147096127,,,,,,,,,,,,,,,,15,001,20,w,Psychologie,2023-01-11_13h32.44.947,00_bat_bachelor,2022.2.4,59.979556050055734,
,,,,,,,,,,,,0,0,0,0,87,0,87,0,,,,,,,87,,,1,428.48795466084266,,X,l,go,l,1,0.32217621040763333,,,,,,,,,,,,,,,,15,001,20,w,Psychologie,2023-01-11_13h32.44.947,00_bat_bachelor,2022.2.4,59.979556050055734,
,,,,,,,,,,,,0,0,0,0,88,0,88,0,,,,,,,88,,,1,429.92258468974615,,Y,d,go,d,1,0.27919873502105474,,,,,,,,,,,,,,,,15,001,20,w,Psychologie,2023-01-11_13h32.44.947,00_bat_bachelor,2022.2.4,59.979556050055734,
,,,,,,,,,,,,0,0,0,0,89,0,89,0,,,,,,,89,,,1,431.30694511852926,,X,l,go,l,1,0.30327826185384765,,,,,,,,,,,,,,,,15,001,20,w,Psychologie,2023-01-11_13h32.44.947,00_bat_bachelor,2022.2.4,59.979556050055734,
,,,,,,,,,,,,0,0,0,0,90,0,90,0,,,,,,,90,,,1,432.7247179271362,,Y,d,go,d,1,0.2933073479216546,,,,,,,,,,,,,,,,15,001,20,w,Psychologie,2023-01-11_13h32.44.947,00_bat_bachelor,2022.2.4,59.979556050055734,
,,,,,,,,,,,,0,0,0,0,91,0,91,0,,,,,,,91,,,1,434.1254759396252,,Y,None,nogo,None,1,,,,,,,,,,,,,,,,,15,001,20,w,Psychologie,2023-01-11_13h32.44.947,00_bat_bachelor,2022.2.4,59.979556050055734,
,,,,,,,,,,,,0,0,0,0,92,0,92,0,,,,,,,92,,,1,435.9270724495,,X,l,go,l,1,0.2445383545709774,,,,,,,,,,,,,,,,15,001,20,w,Psychologie,2023-01-11_13h32.44.947,00_bat_bachelor,2022.2.4,59.979556050055734,
,,,,,,,,,,,,0,0,0,0,93,0,93,0,,,,,,,93,,,1,437.27815140760504,,Y,d,go,d,1,0.25196090363897383,,,,,,,,,,,,,,,,15,001,20,w,Psychologie,2023-01-11_13h32.44.947,00_bat_bachelor,2022.2.4,59.979556050055734,
,,,,,,,,,,,,0,0,0,0,94,0,94,0,,,,,,,94,,,1,438.6457840706862,,Y,None,nogo,None,1,,,,,,,,,,,,,,,,,15,001,20,w,Psychologie,2023-01-11_13h32.44.947,00_bat_bachelor,2022.2.4,59.979556050055734,
,,,,,,,,,,,,0,0,0,0,95,0,95,0,,,,,,,95,,,1,440.44731027749367,,X,l,go,l,1,0.2509247819252778,,,,,,,,,,,,,,,,15,001,20,w,Psychologie,2023-01-11_13h32.44.947,00_bat_bachelor,2022.2.4,59.979556050055734,
,,,,,,,,,,,,0,0,0,0,96,0,96,0,,,,,,,96,,,1,441.81489687995054,,Y,d,go,d,1,0.2768467338755727,,,,,,,,,,,,,,,,15,001,20,w,Psychologie,2023-01-11_13h32.44.947,00_bat_bachelor,2022.2.4,59.979556050055734,
,,,,,,,,,,,,0,0,0,0,97,0,97,0,,,,,,,97,,,1,443.19906482379884,,Y,None,nogo,None,1,,,,,,,,,,,,,,,,,15,001,20,w,Psychologie,2023-01-11_13h32.44.947,00_bat_bachelor,2022.2.4,59.979556050055734,
,,,,,,,,,,,,0,0,0,0,98,0,98,0,,,,,,,98,,,1,445.00068945490057,,X,l,go,l,1,0.35392265004338697,,,,,,,,,,,,,,,,15,001,20,w,Psychologie,2023-01-11_13h32.44.947,00_bat_bachelor,2022.2.4,59.979556050055734,
,,,,,,,,,,,,0,0,0,0,99,0,99,0,,,,,,,99,,,1,446.4684060452855,,Y,d,go,d,1,0.2627613937074784,,,,,,,,,,,,,,,,15,001,20,w,Psychologie,2023-01-11_13h32.44.947,00_bat_bachelor,2022.2.4,59.979556050055734,
,,,,,,,,,,,,0,0,0,0,100,0,100,0,,,,,,,100,,,1,447.83622101150104,,X,l,go,l,1,0.3663915045617614,,,,,,,,,,,,,,,,15,001,20,w,Psychologie,2023-01-11_13h32.44.947,00_bat_bachelor,2022.2.4,59.979556050055734,
,,,,,,,,,,,,0,0,0,0,101,0,101,0,,,,,,,101,,,1,449.3039637837501,,Y,d,go,d,1,0.22674101262236945,,,,,,,,,,,,,,,,15,001,20,w,Psychologie,2023-01-11_13h32.44.947,00_bat_bachelor,2022.2.4,59.979556050055734,
,,,,,,,,,,,,0,0,0,0,102,0,102,0,,,,,,,102,,,1,450.63837849133415,,Y,None,nogo,None,1,,,,,,,,,,,,,,,,,15,001,20,w,Psychologie,2023-01-11_13h32.44.947,00_bat_bachelor,2022.2.4,59.979556050055734,
,,,,,,,,,,,,0,0,0,0,103,0,103,0,,,,,,,103,,,1,452.4400040921173,,X,l,go,l,1,0.24222514135180973,,,,,,,,,,,,,,,,15,001,20,w,Psychologie,2023-01-11_13h32.44.947,00_bat_bachelor,2022.2.4,59.979556050055734,
,,,,,,,,,,,,0,0,0,0,104,0,104,0,,,,,,,104,,,1,453.7910224441439,,Y,d,go,d,1,0.3152457828109618,,,,,,,,,,,,,,,,15,001,20,w,Psychologie,2023-01-11_13h32.44.947,00_bat_bachelor,2022.2.4,59.979556050055734,
,,,,,,,,,,,,0,0,0,0,105,0,105,0,,,,,,,105,,,1,455.2087957375916,,X,l,go,l,1,0.40120218810625374,,,,,,,,,,,,,,,,15,001,20,w,Psychologie,2023-01-11_13h32.44.947,00_bat_bachelor,2022.2.4,59.979556050055734,
,,,,,,,,,,,,0,0,0,0,106,0,106,0,,,,,,,106,,,1,456.7265821704641,,Y,d,go,d,1,0.2921301352325827,,,,,,,,,,,,,,,,15,001,20,w,Psychologie,2023-01-11_13h32.44.947,00_bat_bachelor,2022.2.4,59.979556050055734,
,,,,,,,,,,,,0,0,0,0,107,0,107,0,,,,,,,107,,,1,458.12715206164285,,Y,None,nogo,None,1,,,,,,,,,,,,,,,,,15,001,20,w,Psychologie,2023-01-11_13h32.44.947,00_bat_bachelor,2022.2.4,59.979556050055734,
,,,,,,,,,,,,0,0,0,0,108,0,108,0,,,,,,,108,,,1,459.92857596537215,,X,l,go,l,1,0.25731460319366306,,,,,,,,,,,,,,,,15,001,20,w,Psychologie,2023-01-11_13h32.44.947,00_bat_bachelor,2022.2.4,59.979556050055734,
,,,,,,,,,,,,0,0,0,0,109,0,109,0,,,,,,,109,,,1,461.2965295983304,,Y,d,go,d,1,0.36293404834577814,,,,,,,,,,,,,,,,15,001,20,w,Psychologie,2023-01-11_13h32.44.947,00_bat_bachelor,2022.2.4,59.979556050055734,
,,,,,,,,,,,,0,0,0,0,110,0,110,0,,,,,,,110,,,1,462.76425055236905,,Y,None,nogo,None,1,,,,,,,,,,,,,,,,,15,001,20,w,Psychologie,2023-01-11_13h32.44.947,00_bat_bachelor,2022.2.4,59.979556050055734,
,,,,,,,,,,,,0,0,0,0,111,0,111,0,,,,,,,111,,,1,464.5653496074374,,X,l,go,l,1,0.24497665782109834,,,,,,,,,,,,,,,,15,001,20,w,Psychologie,2023-01-11_13h32.44.947,00_bat_bachelor,2022.2.4,59.979556050055734,
,,,,,,,,,,,,0,0,0,0,112,0,112,0,,,,,,,112,,,1,465.9167117172037,,Y,d,go,d,1,0.25438466237392277,,,,,,,,,,,,,,,,15,001,20,w,Psychologie,2023-01-11_13h32.44.947,00_bat_bachelor,2022.2.4,59.979556050055734,
,,,,,,,,,,,,0,0,0,0,113,0,113,0,,,,,,,113,,,1,467.28458098648116,,X,l,go,l,1,0.34171561381663196,,,,,,,,,,,,,,,,15,001,20,w,Psychologie,2023-01-11_13h32.44.947,00_bat_bachelor,2022.2.4,59.979556050055734,
,,,,,,,,,,,,0,0,0,0,114,0,114,0,,,,,,,114,,,1,468.7355862960394,,Y,d,go,d,1,0.25059556963969953,,,,,,,,,,,,,,,,15,001,20,w,Psychologie,2023-01-11_13h32.44.947,00_bat_bachelor,2022.2.4,59.979556050055734,
,,,,,,,,,,,,0,0,0,0,115,0,115,0,,,,,,,115,,,1,470.1032131409447,,X,l,go,l,1,0.3717650829348713,,,,,,,,,,,,,,,,15,001,20,w,Psychologie,2023-01-11_13h32.44.947,00_bat_bachelor,2022.2.4,59.979556050055734,
,,,,,,,,,,,,0,0,0,0,116,0,116,0,,,,,,,116,,,1,471.5873690120643,,X,None,nogo,None,1,,,,,,,,,,,,,,,,,15,001,20,w,Psychologie,2023-01-11_13h32.44.947,00_bat_bachelor,2022.2.4,59.979556050055734,
,,,,,,,,,,,,0,0,0,0,117,0,117,0,,,,,,,117,,,1,473.38885934004793,,Y,d,go,d,1,0.3327914882975165,,,,,,,,,,,,,,,,15,001,20,w,Psychologie,2023-01-11_13h32.44.947,00_bat_bachelor,2022.2.4,59.979556050055734,
,,,,,,,,,,,,0,0,0,0,118,0,118,0,,,,,,,118,,,1,474.8231931264163,,X,l,go,l,1,0.41937383328331634,,,,,,,,,,,,,,,,15,001,20,w,Psychologie,2023-01-11_13h32.44.947,00_bat_bachelor,2022.2.4,59.979556050055734,
,,,,,,,,,,,,0,0,0,0,119,0,119,0,,,,,,,119,,,1,476.3582343555172,,Y,d,go,d,1,0.2927686809853185,,,,,,,,,,,,,,,,15,001,20,w,Psychologie,2023-01-11_13h32.44.947,00_bat_bachelor,2022.2.4,59.979556050055734,
,,,,,,,,,,,,0,0,0,0,120,0,120,0,,,,,,,120,,,1,477.7593356409052,478.55989748358843,Y,None,nogo,None,1,,,,,,,,,,,,,,,,,15,001,20,w,Psychologie,2023-01-11_13h32.44.947,00_bat_bachelor,2022.2.4,59.979556050055734,
,,,,,,,,,,,,0,0,0,0,121,0,121,0,,,,,,,121,,,1,479.56067663547583,,X,l,go,l,1,0.2580166641564574,,,,,,,,,,,,,,,,15,001,20,w,Psychologie,2023-01-11_13h32.44.947,00_bat_bachelor,2022.2.4,59.979556050055734,
,,,,,,,,,,,,0,0,0,0,122,0,122,0,,,,,,,122,,,1,480.92780020742794,,Y,d,go,d,1,0.23410344042349607,,,,,,,,,,,,,,,,15,001,20,w,Psychologie,2023-01-11_13h32.44.947,00_bat_bachelor,2022.2.4,59.979556050055734,
,,,,,,,,,,,,0,0,0,0,123,0,123,0,,,,,,,123,,,1,482.2792020747729,,X,l,go,l,1,0.243921142158797,,,,,,,,,,,,,,,,15,001,20,w,Psychologie,2023-01-11_13h32.44.947,00_bat_bachelor,2022.2.4,59.979556050055734,
,,,,,,,,,,,,0,0,0,0,124,0,124,0,,,,,,,124,,,1,483.63019521464594,,Y,d,go,d,1,0.25202732789330184,,,,,,,,,,,,,,,,15,001,20,w,Psychologie,2023-01-11_13h32.44.947,00_bat_bachelor,2022.2.4,59.979556050055734,
,,,,,,,,,,,,0,0,0,0,125,0,125,0,,,,,,,125,,,1,484.997613574611,,X,l,go,l,1,0.2938983785279561,,,,,,,,,,,,,,,,15,001,20,w,Psychologie,2023-01-11_13h32.44.947,00_bat_bachelor,2022.2.4,59.979556050055734,
,,,,,,,,,,,,0,0,0,0,126,0,126,0,,,,,,,126,,,1,486.3989941328473,,Y,d,go,d,1,0.251947327866219,,,,,,,,,,,,,,,,15,001,20,w,Psychologie,2023-01-11_13h32.44.947,00_bat_bachelor,2022.2.4,59.979556050055734,
,,,,,,,,,,,,0,0,0,0,127,0,127,0,,,,,,,127,,,1,487.76671891720616,,X,l,go,l,1,0.2916826198634226,,,,,,,,,,,,,,,,15,001,20,w,Psychologie,2023-01-11_13h32.44.947,00_bat_bachelor,2022.2.4,59.979556050055734,
,,,,,,,,,,,,0,0,0,0,128,0,128,0,,,,,,,128,,,1,489.16775038436754,,Y,d,go,d,1,0.29885498696239665,,,,,,,,,,,,,,,,15,001,20,w,Psychologie,2023-01-11_13h32.44.947,00_bat_bachelor,2022.2.4,59.979556050055734,
,,,,,,,,,,,,0,0,0,0,129,0,129,0,,,,,,,129,,,1,490.5687842757907,,Y,None,nogo,None,1,,,,,,,,,,,,,,,,,15,001,20,w,Psychologie,2023-01-11_13h32.44.947,00_bat_bachelor,2022.2.4,59.979556050055734,
,,,,,,,,,,,,0,0,0,0,130,0,130,0,,,,,,,130,,,1,492.37019508858793,,X,l,go,l,1,0.3929001234937459,,,,,,,,,,,,,,,,15,001,20,w,Psychologie,2023-01-11_13h32.44.947,00_bat_bachelor,2022.2.4,59.979556050055734,
,,,,,,,,,,,,0,0,0,0,131,0,131,0,,,,,,,131,,,1,493.871144664794,,Y,d,go,d,1,0.2508976304088719,,,,,,,,,,,,,,,,15,001,20,w,Psychologie,2023-01-11_13h32.44.947,00_bat_bachelor,2022.2.4,59.979556050055734,
,,,,,,,,,,,,0,0,0,0,132,0,132,0,,,,,,,132,,,1,495.239070661366,,X,l,go,l,1,0.2600845439301338,,,,,,,,,,,,,,,,15,001,20,w,Psychologie,2023-01-11_13h32.44.947,00_bat_bachelor,2022.2.4,59.979556050055734,
,,,,,,,,,,,,0,0,0,0,133,0,133,0,,,,,,,133,,,1,496.6067712032818,,X,None,nogo,None,1,,,,,,,,,,,,,,,,,15,001,20,w,Psychologie,2023-01-11_13h32.44.947,00_bat_bachelor,2022.2.4,59.979556050055734,
,,,,,,,,,,,,0,0,0,0,134,0,134,0,,,,,,,134,,,1,498.40787753110635,,Y,d,go,d,1,0.4497045146417804,,,,,,,,,,,,,,,,15,001,20,w,Psychologie,2023-01-11_13h32.44.947,00_bat_bachelor,2022.2.4,59.979556050055734,
,,,,,,,,,,,,0,0,0,0,135,0,135,0,,,,,,,135,,,1,499.9589876164973,,X,l,go,l,1,0.2919264987576753,,,,,,,,,,,,,,,,15,001,20,w,Psychologie,2023-01-11_13h32.44.947,00_bat_bachelor,2022.2.4,59.979556050055734,
,,,,,,,,,,,,0,0,0,0,136,0,136,0,,,,,,,136,,,1,501.36013253824785,,X,None,nogo,None,1,,,,,,,,,,,,,,,,,15,001,20,w,Psychologie,2023-01-11_13h32.44.947,00_bat_bachelor,2022.2.4,59.979556050055734,
,,,,,,,,,,,,0,0,0,0,137,0,137,0,,,,,,,137,,,1,503.16179401785485,,Y,d,go,d,1,0.27442636908381246,,,,,,,,,,,,,,,,15,001,20,w,Psychologie,2023-01-11_13h32.44.947,00_bat_bachelor,2022.2.4,59.979556050055734,
,,,,,,,,,,,,0,0,0,0,138,0,138,0,,,,,,,138,,,1,504.5458615979878,,X,l,go,l,1,0.29597789465333335,,,,,,,,,,,,,,,,15,001,20,w,Psychologie,2023-01-11_13h32.44.947,00_bat_bachelor,2022.2.4,59.979556050055734,
,,,,,,,,,,,,0,0,0,0,139,0,139,0,,,,,,,139,,,1,505.94721306531574,,X,None,nogo,l,0,0.3676967173232697,,,,,,,,,,,,,,,,15,001,20,w,Psychologie,2023-01-11_13h32.44.947,00_bat_bachelor,2022.2.4,59.979556050055734,
,,,,,,,,,,,,0,0,0,0,140,0,140,0,,,,,,,140,,,1,507.4316748759593,,Y,d,go,d,1,0.4835411371313967,,,,,,,,,,,,,,,,15,001,20,w,Psychologie,2023-01-11_13h32.44.947,00_bat_bachelor,2022.2.4,59.979556050055734,
,,,,,,,,,,,,0,0,0,0,141,0,141,0,,,,,,,141,,,1,509.0158894622582,,X,l,go,l,1,0.4344826891028788,,,,,,,,,,,,,,,,15,001,20,w,Psychologie,2023-01-11_13h32.44.947,00_bat_bachelor,2022.2.4,59.979556050055734,
,,,,,,,,,,,,0,0,0,0,142,0,142,0,,,,,,,142,,,1,510.5670960325515,,X,None,nogo,None,1,,,,,,,,,,,,,,,,,15,001,20,w,Psychologie,2023-01-11_13h32.44.947,00_bat_bachelor,2022.2.4,59.979556050055734,
,,,,,,,,,,,,0,0,0,0,143,0,143,0,,,,,,,143,,,1,512.3687201787834,,Y,d,go,d,1,0.33100918438867666,,,,,,,,,,,,,,,,15,001,20,w,Psychologie,2023-01-11_13h32.44.947,00_bat_bachelor,2022.2.4,59.979556050055734,
,,,,,,,,,,,,0,0,0,0,144,0,144,0,,,,,,,144,,,1,513.8032309348928,,X,l,go,l,1,0.2561058753344696,,,,,,,,,,,,,,,,15,001,20,w,Psychologie,2023-01-11_13h32.44.947,00_bat_bachelor,2022.2.4,59.979556050055734,
,,,,,,,,,,,,0,0,0,0,145,0,145,0,,,,,,,145,,,1,515.170880567719,,X,None,nogo,None,1,,,,,,,,,,,,,,,,,15,001,20,w,Psychologie,2023-01-11_13h32.44.947,00_bat_bachelor,2022.2.4,59.979556050055734,
,,,,,,,,,,,,0,0,0,0,146,0,146,0,,,,,,,146,,,1,516.9720310167468,,Y,d,go,d,1,0.333712216001004,,,,,,,,,,,,,,,,15,001,20,w,Psychologie,2023-01-11_13h32.44.947,00_bat_bachelor,2022.2.4,59.979556050055734,
,,,,,,,,,,,,0,0,0,0,147,0,147,0,,,,,,,147,,,1,518.4064666213235,,X,l,go,l,1,0.2609116958337836,,,,,,,,,,,,,,,,15,001,20,w,Psychologie,2023-01-11_13h32.44.947,00_bat_bachelor,2022.2.4,59.979556050055734,
,,,,,,,,,,,,0,0,0,0,148,0,148,0,,,,,,,148,,,1,519.7744507997413,,Y,d,go,d,1,0.31667463199119084,,,,,,,,,,,,,,,,15,001,20,w,Psychologie,2023-01-11_13h32.44.947,00_bat_bachelor,2022.2.4,59.979556050055734,
,,,,,,,,,,,,0,0,0,0,149,0,149,0,,,,,,,149,,,1,521.1921566992241,,Y,None,nogo,None,1,,,,,,,,,,,,,,,,,15,001,20,w,Psychologie,2023-01-11_13h32.44.947,00_bat_bachelor,2022.2.4,59.979556050055734,
,,,,,,,,,,,,0,0,0,0,150,0,150,0,,,,,,,150,,,1,522.9935728453856,,X,l,go,l,1,0.2822164334356785,,,,,,,,,,,,,,,,15,001,20,w,Psychologie,2023-01-11_13h32.44.947,00_bat_bachelor,2022.2.4,59.979556050055734,
,,,,,,,,,,,,0,0,0,0,151,0,151,0,,,,,,,151,,,1,524.3776918195072,,Y,d,go,d,1,0.3844807254499756,,,,,,,,,,,,,,,,15,001,20,w,Psychologie,2023-01-11_13h32.44.947,00_bat_bachelor,2022.2.4,59.979556050055734,
,,,,,,,,,,,,0,0,0,0,152,0,152,0,,,,,,,152,,,1,525.8790743656282,,Y,None,nogo,None,1,,,,,,,,,,,,,,,,,15,001,20,w,Psychologie,2023-01-11_13h32.44.947,00_bat_bachelor,2022.2.4,59.979556050055734,
,,,,,,,,,,,,0,0,0,0,153,0,153,0,,,,,,,153,,,1,527.6804701481014,,X,l,go,l,1,0.28184649389004335,,,,,,,,,,,,,,,,15,001,20,w,Psychologie,2023-01-11_13h32.44.947,00_bat_bachelor,2022.2.4,59.979556050055734,
,,,,,,,,,,,,0,0,0,0,154,0,154,0,,,,,,,154,,,1,529.0648766375089,,Y,d,go,d,1,0.35351780138444155,,,,,,,,,,,,,,,,15,001,20,w,Psychologie,2023-01-11_13h32.44.947,00_bat_bachelor,2022.2.4,59.979556050055734,
,,,,,,,,,,,,0,0,0,0,155,0,155,0,,,,,,,155,,,1,530.5328395310789,,X,l,go,l,1,0.53434310114244,,,,,,,,,,,,,,,,15,001,20,w,Psychologie,2023-01-11_13h32.44.947,00_bat_bachelor,2022.2.4,59.979556050055734,
,,,,,,,,,,,,0,0,0,0,156,0,156,0,,,,,,,156,,,1,532.1835971799446,,Y,d,go,d,1,0.2919032260251697,,,,,,,,,,,,,,,,15,001,20,w,Psychologie,2023-01-11_13h32.44.947,00_bat_bachelor,2022.2.4,59.979556050055734,
,,,,,,,,,,,,0,0,0,0,157,0,157,0,,,,,,,157,,,1,533.5849922836351,,X,l,go,l,1,0.3142644489707891,,,,,,,,,,,,,,,,15,001,20,w,Psychologie,2023-01-11_13h32.44.947,00_bat_bachelor,2022.2.4,59.979556050055734,
,,,,,,,,,,,,0,0,0,0,158,0,158,0,,,,,,,158,,,1,535.0025459406315,,Y,d,go,d,1,0.2881621333071962,,,,,,,,,,,,,,,,15,001,20,w,Psychologie,2023-01-11_13h32.44.947,00_bat_bachelor,2022.2.4,59.979556050055734,
,,,,,,,,,,,,0,0,0,0,159,0,159,0,,,,,,,159,,,1,536.4038547412783,,Y,None,nogo,None,1,,,,,,,,,,,,,,,,,15,001,20,w,Psychologie,2023-01-11_13h32.44.947,00_bat_bachelor,2022.2.4,59.979556050055734,
,,,,,,,,,,,,0,0,0,0,160,0,160,0,,,,,,,160,,,1,538.2048514932685,,X,l,go,l,1,0.33365354931447655,,,,,,,,,,,,,,,,15,001,20,w,Psychologie,2023-01-11_13h32.44.947,00_bat_bachelor,2022.2.4,59.979556050055734,
,,,,,,,,,,,,0,0,0,0,161,0,161,0,,,,,,,161,,,1,539.6395363100746,,Y,d,go,d,1,0.2590280585573055,,,,,,,,,,,,,,,,15,001,20,w,Psychologie,2023-01-11_13h32.44.947,00_bat_bachelor,2022.2.4,59.979556050055734,
,,,,,,,,,,,,0,0,0,0,162,0,162,0,,,,,,,162,,,1,541.0073115187115,541.8078248765378,Y,None,nogo,None,1,,,,,,,,,,,,,,,,,15,001,20,w,Psychologie,2023-01-11_13h32.44.947,00_bat_bachelor,2022.2.4,59.979556050055734,
,,,,,,,,,,,,0,0,0,0,163,0,163,0,,,,,,,163,,,1,542.8083165131393,,X,l,go,l,1,0.3055972932779696,,,,,,,,,,,,,,,,15,001,20,w,Psychologie,2023-01-11_13h32.44.947,00_bat_bachelor,2022.2.4,59.979556050055734,
,,,,,,,,,,,,0,0,0,0,164,0,164,0,,,,,,,164,,,1,544.2263656855212,,Y,d,go,d,1,0.2809383722487837,,,,,,,,,,,,,,,,15,001,20,w,Psychologie,2023-01-11_13h32.44.947,00_bat_bachelor,2022.2.4,59.979556050055734,
,,,,,,,,,,,,0,0,0,0,165,0,165,0,,,,,,,165,,,1,545.6107362961338,,X,l,go,l,1,0.3363439748354722,,,,,,,,,,,,,,,,15,001,20,w,Psychologie,2023-01-11_13h32.44.947,00_bat_bachelor,2022.2.4,59.979556050055734,
,,,,,,,,,,,,0,0,0,0,166,0,166,0,,,,,,,166,,,1,547.0616785753518,,Y,d,go,d,1,0.2292064683570061,,,,,,,,,,,,,,,,15,001,20,w,Psychologie,2023-01-11_13h32.44.947,00_bat_bachelor,2022.2.4,59.979556050055734,
,,,,,,,,,,,,0,0,0,0,167,0,167,0,,,,,,,167,,,1,548.3959352222737,549.1969639743038,Y,None,nogo,None,1,,,,,,,,,,,,,,,,,15,001,20,w,Psychologie,2023-01-11_13h32.44.947,00_bat_bachelor,2022.2.4,59.979556050055734,
,,,,,,,,,,,,0,0,0,0,168,0,168,0,,,,,,,168,,,1,550.1976204594539,,X,l,go,l,1,0.30947511331760325,,,,,,,,,,,,,,,,15,001,20,w,Psychologie,2023-01-11_13h32.44.947,00_bat_bachelor,2022.2.4,59.979556050055734,
,,,,,,,,,,,,0,0,0,0,169,0,169,0,,,,,,,169,,,1,551.6153307225904,,Y,d,go,d,1,0.20300330413738266,,,,,,,,,,,,,,,,15,001,20,w,Psychologie,2023-01-11_13h32.44.947,00_bat_bachelor,2022.2.4,59.979556050055734,
,,,,,,,,,,,,0,0,0,0,170,0,170,0,,,,,,,170,,,1,552.933052573615,,X,l,go,l,1,0.21432306719361804,,,,,,,,,,,,,,,,15,001,20,w,Psychologie,2023-01-11_13h32.44.947,00_bat_bachelor,2022.2.4,59.979556050055734,
,,,,,,,,,,,,0,0,0,0,171,0,171,0,,,,,,,171,,,1,554.2506920003507,,X,None,nogo,d,0,0.225336405885173,,,,,,,,,,,,,,,,15,001,20,w,Psychologie,2023-01-11_13h32.44.947,00_bat_bachelor,2022.2.4,59.979556050055734,
,,,,,,,,,,,,0,0,0,0,172,0,172,0,,,,,,,172,,,1,555.5851571322128,,Y,d,go,d,1,0.5688260269525927,,,,,,,,,,,,,,,,15,001,20,w,Psychologie,2023-01-11_13h32.44.947,00_bat_bachelor,2022.2.4,59.979556050055734,
,,,,,,,,,,,,0,0,0,0,173,0,173,0,,,,,,,173,,,1,557.2696665549884,,X,l,go,l,1,0.2606712108827196,,,,,,,,,,,,,,,,15,001,20,w,Psychologie,2023-01-11_13h32.44.947,00_bat_bachelor,2022.2.4,59.979556050055734,
,,,,,,,,,,,,0,0,0,0,174,0,174,0,,,,,,,174,,,1,558.6371862483502,,Y,d,go,d,1,0.34858979895943776,,,,,,,,,,,,,,,,15,001,20,w,Psychologie,2023-01-11_13h32.44.947,00_bat_bachelor,2022.2.4,59.979556050055734,
,,,,,,,,,,,,0,0,0,0,175,0,175,0,,,,,,,175,,,1,560.0885285277909,,X,l,go,l,1,0.3067517181043513,,,,,,,,,,,,,,,,15,001,20,w,Psychologie,2023-01-11_13h32.44.947,00_bat_bachelor,2022.2.4,59.979556050055734,
,,,,,,,,,,,,0,0,0,0,176,0,176,0,,,,,,,176,,,1,561.5063173364033,,X,None,nogo,None,1,,,,,,,,,,,,,,,,,15,001,20,w,Psychologie,2023-01-11_13h32.44.947,00_bat_bachelor,2022.2.4,59.979556050055734,
,,,,,,,,,,,,0,0,0,0,177,0,177,0,,,,,,,177,,,1,563.3076297249063,,Y,d,go,d,1,0.33459318612585776,,,,,,,,,,,,,,,,15,001,20,w,Psychologie,2023-01-11_13h32.44.947,00_bat_bachelor,2022.2.4,59.979556050055734,
,,,,,,,,,,,,0,0,0,0,178,0,178,0,,,,,,,178,,,1,564.7585007314046,,X,l,go,l,1,0.27682540053501725,,,,,,,,,,,,,,,,15,001,20,w,Psychologie,2023-01-11_13h32.44.947,00_bat_bachelor,2022.2.4,59.979556050055734,
,,,,,,,,,,,,0,0,0,0,179,0,179,0,,,,,,,179,,,1,566.1431249178713,,X,None,nogo,None,1,,,,,,,,,,,,,,,,,15,001,20,w,Psychologie,2023-01-11_13h32.44.947,00_bat_bachelor,2022.2.4,59.979556050055734,
,,,,,,,,,,,,0,0,0,0,180,0,180,0,,,,,,,180,,,1,567.9442642154172,,Y,d,go,d,1,0.24223095952766016,,,,,,,,,,,,,,,,15,001,20,w,Psychologie,2023-01-11_13h32.44.947,00_bat_bachelor,2022.2.4,59.979556050055734,
,,,,,,,,,,,,0,0,0,0,181,0,181,0,,,,,,,181,,,1,569.2952432946768,,X,l,go,l,1,0.31538832833757624,,,,,,,,,,,,,,,,15,001,20,w,Psychologie,2023-01-11_13h32.44.947,00_bat_bachelor,2022.2.4,59.979556050055734,
,,,,,,,,,,,,0,0,0,0,182,0,182,0,,,,,,,182,,,1,570.7135150126123,571.514160249295,X,None,nogo,None,1,,,,,,,,,,,,,,,,,15,001,20,w,Psychologie,2023-01-11_13h32.44.947,00_bat_bachelor,2022.2.4,59.979556050055734,
,,,,,,,,,,,,0,0,0,0,183,0,183,0,,,,,,,183,,,1,572.5147861889855,,Y,d,go,d,1,0.24689229513751343,,,,,,,,,,,,,,,,15,001,20,w,Psychologie,2023-01-11_13h32.44.947,00_bat_bachelor,2022.2.4,59.979556050055734,
,,,,,,,,,,,,0,0,0,0,184,0,184,0,,,,,,,184,,,1,573.8657890258473,,X,l,go,l,1,0.22428816294996068,,,,,,,,,,,,,,,,15,001,20,w,Psychologie,2023-01-11_13h32.44.947,00_bat_bachelor,2022.2.4,59.979556050055734,
,,,,,,,,,,,,0,0,0,0,185,0,185,0,,,,,,,185,,,1,575.2006910064083,,Y,d,go,d,1,0.20150269733858295,,,,,,,,,,,,,,,,15,001,20,w,Psychologie,2023-01-11_13h32.44.947,00_bat_bachelor,2022.2.4,59.979556050055734,
,,,,,,,,,,,,0,0,0,0,186,0,186,0,,,,,,,186,,,1,576.5351929867757,,Y,None,nogo,l,0,0.17851747409440577,,,,,,,,,,,,,,,,15,001,20,w,Psychologie,2023-01-11_13h32.44.947,00_bat_bachelor,2022.2.4,59.979556050055734,
,,,,,,,,,,,,0,0,0,0,187,0,187,0,,,,,,,187,,,1,577.8360842841794,,X,l,go,l,1,0.5414073470165022,,,,,,,,,,,,,,,,15,001,20,w,Psychologie,2023-01-11_13h32.44.947,00_bat_bachelor,2022.2.4,59.979556050055734,
,,,,,,,,,,,,0,0,0,0,188,0,188,0,,,,,,,188,,,1,579.520769222203,,Y,d,go,d,1,0.5056478145124856,,,,,,,,,,,,,,,,15,001,20,w,Psychologie,2023-01-11_13h32.44.947,00_bat_bachelor,2022.2.4,59.979556050055734,
,,,,,,,,,,,,0,0,0,0,189,0,189,0,,,,,,,189,,,1,581.1383414004231,,X,l,go,l,1,0.2790668561938219,,,,,,,,,,,,,,,,15,001,20,w,Psychologie,2023-01-11_13h32.44.947,00_bat_bachelor,2022.2.4,59.979556050055734,
,,,,,,,,,,,,0,0,0,0,190,0,190,0,,,,,,,190,,,1,582.5397665647324,583.3403332559392,X,None,nogo,None,1,,,,,,,,,,,,,,,,,15,001,20,w,Psychologie,2023-01-11_13h32.44.947,00_bat_bachelor,2022.2.4,59.979556050055734,
,,,,,,,,,,,,0,0,0,0,191,0,191,0,,,,,,,191,,,1,584.3407788318873,,Y,d,go,d,1,0.38899515190860257,,,,,,,,,,,,,,,,15,001,20,w,Psychologie,2023-01-11_13h32.44.947,00_bat_bachelor,2022.2.4,59.979556050055734,
,,,,,,,,,,,,0,0,0,0,192,0,192,0,,,,,,,192,,,1,585.8756023639289,,X,l,go,l,1,0.24573011274333112,,,,,,,,,,,,,,,,15,001,20,w,Psychologie,2023-01-11_13h32.44.947,00_bat_bachelor,2022.2.4,59.979556050055734,
,,,,,,,,,,,,0,0,0,0,193,0,193,0,,,,,,,193,,,1,587.2597320047207,,Y,d,go,d,1,0.27080406426102854,,,,,,,,,,,,,,,,15,001,20,w,Psychologie,2023-01-11_13h32.44.947,00_bat_bachelor,2022.2.4,59.979556050055734,
,,,,,,,,,,,,0,0,0,0,194,0,194,0,,,,,,,194,,,1,588.6441588577873,589.4445476094843,Y,None,nogo,None,1,,,,,,,,,,,,,,,,,15,001,20,w,Psychologie,2023-01-11_13h32.44.947,00_bat_bachelor,2022.2.4,59.979556050055734,
,,,,,,,,,,,,0,0,0,0,195,0,195,0,,,,,,,195,,,1,590.4452705189178,591.2459981798893,Y,None,nogo,None,1,,,,,,,,,,,,,,,,,15,001,20,w,Psychologie,2023-01-11_13h32.44.947,00_bat_bachelor,2022.2.4,59.979556050055734,
,,,,,,,,,,,,0,0,0,0,196,0,196,0,,,,,,,196,,,1,592.2468616954575,,X,l,go,l,1,0.19547263384447433,,,,,,,,,,,,,,,,15,001,20,w,Psychologie,2023-01-11_13h32.44.947,00_bat_bachelor,2022.2.4,59.979556050055734,
,,,,,,,,,,,,0,0,0,0,197,0,197,0,,,,,,,197,,,1,593.5645355464367,,Y,d,go,d,1,0.2538920560909901,,,,,,,,,,,,,,,,15,001,20,w,Psychologie,2023-01-11_13h32.44.947,00_bat_bachelor,2022.2.4,59.979556050055734,
,,,,,,,,,,,,0,0,0,0,198,0,198,0,,,,,,,198,,,1,594.9323796035897,595.732909446262,Y,None,nogo,None,1,,,,,,,,,,,,,,,,,15,001,20,w,Psychologie,2023-01-11_13h32.44.947,00_bat_bachelor,2022.2.4,59.979556050055734,
,,,,,,,,,,,,0,0,0,0,199,0,199,0,,,,,,,199,,,1,596.7337283557572,,X,l,go,l,1,0.23663774467422627,,,,,,,,,,,,,,,,15,001,20,w,Psychologie,2023-01-11_13h32.44.947,00_bat_bachelor,2022.2.4,59.979556050055734,
,,,,,,,,,,,,0,0,0,0,200,0,200,0,,,,,,,200,,,1,598.0843389499933,,Y,d,go,d,1,0.31116820505121723,,,,,,,,,,,,,,,,15,001,20,w,Psychologie,2023-01-11_13h32.44.947,00_bat_bachelor,2022.2.4,59.979556050055734,
,,,,,,,,,,,,0,0,0,0,201,0,201,0,,,,,,,201,,,1,599.5016089704877,,X,l,go,l,1,0.301256442675367,,,,,,,,,,,,,,,,15,001,20,w,Psychologie,2023-01-11_13h32.44.947,00_bat_bachelor,2022.2.4,59.979556050055734,
,,,,,,,,,,,,0,0,0,0,202,0,202,0,,,,,,,202,,,1,600.9196625065233,,Y,d,go,d,1,0.515306485875044,,,,,,,,,,,,,,,,15,001,20,w,Psychologie,2023-01-11_13h32.44.947,00_bat_bachelor,2022.2.4,59.979556050055734,
,,,,,,,,,,,,0,0,0,0,203,0,203,0,,,,,,,203,,,1,602.5372283816978,,X,l,go,l,1,0.2902261342969723,,,,,,,,,,,,,,,,15,001,20,w,Psychologie,2023-01-11_13h32.44.947,00_bat_bachelor,2022.2.4,59.979556050055734,
,,,,,,,,,,,,0,0,0,0,204,0,204,0,,,,,,,204,,,1,603.9386438490474,,Y,d,go,d,1,0.2475652651337441,,,,,,,,,,,,,,,,15,001,20,w,Psychologie,2023-01-11_13h32.44.947,00_bat_bachelor,2022.2.4,59.979556050055734,
,,,,,,,,,,,,0,0,0,0,205,0,205,0,,,,,,,205,,,1,605.2896796556015,606.0903292559378,Y,None,nogo,None,1,,,,,,,,,,,,,,,,,15,001,20,w,Psychologie,2023-01-11_13h32.44.947,00_bat_bachelor,2022.2.4,59.979556050055734,
,,,,,,,,,,,,0,0,0,0,206,0,206,0,,,,,,,206,,,1,607.090993013815,,Y,None,nogo,None,1,,,,,,,,,,,,,,,,,15,001,20,w,Psychologie,2023-01-11_13h32.44.947,00_bat_bachelor,2022.2.4,59.979556050055734,
,,,,,,,,,,,,0,0,0,0,207,0,207,0,,,,,,,207,,,1,608.8923742508632,,X,l,go,l,1,0.25441181391943246,,,,,,,,,,,,,,,,15,001,20,w,Psychologie,2023-01-11_13h32.44.947,00_bat_bachelor,2022.2.4,59.979556050055734,
,,,,,,,,,,,,0,0,0,0,208,0,208,0,,,,,,,208,,,1,610.2600825503469,,Y,d,go,d,1,0.23111095413332805,,,,,,,,,,,,,,,,15,001,20,w,Psychologie,2023-01-11_13h32.44.947,00_bat_bachelor,2022.2.4,59.979556050055734,
,,,,,,,,,,,,0,0,0,0,209,0,209,0,,,,,,,209,,,1,611.5944080457848,,Y,None,nogo,None,1,,,,,,,,,,,,,,,,,15,001,20,w,Psychologie,2023-01-11_13h32.44.947,00_bat_bachelor,2022.2.4,59.979556050055734,
,,,,,,,,,,,,0,0,0,0,210,0,210,0,,,,,,,210,,,1,613.3955386160233,,X,l,go,l,1,0.26325351517880335,,,,,,,,,,,,,,,,15,001,20,w,Psychologie,2023-01-11_13h32.44.947,00_bat_bachelor,2022.2.4,59.979556050055734,
,,,,,,,,,,,,0,0,0,0,211,0,211,0,,,,,,,211,,,1,614.7634490974306,,Y,d,go,d,1,0.33519876218633726,,,,,,,,,,,,,,,,15,001,20,w,Psychologie,2023-01-11_13h32.44.947,00_bat_bachelor,2022.2.4,59.979556050055734,
,,,,,,,,,,,,0,0,0,0,212,0,212,0,,,,,,,212,,,1,616.2144253160805,,X,l,go,l,1,0.40345867405994795,,,,,,,,,,,,,,,,15,001,20,w,Psychologie,2023-01-11_13h32.44.947,00_bat_bachelor,2022.2.4,59.979556050055734,
,,,,,,,,,,,,0,0,0,0,213,0,213,0,,,,,,,213,,,1,617.732422658155,,Y,d,go,d,1,0.27845012859324925,,,,,,,,,,,,,,,,15,001,20,w,Psychologie,2023-01-11_13h32.44.947,00_bat_bachelor,2022.2.4,59.979556050055734,
,,,,,,,,,,,,0,0,0,0,214,0,214,0,,,,,,,214,,,1,619.1165692686336,,X,l,go,l,1,0.333547367452411,,,,,,,,,,,,,,,,15,001,20,w,Psychologie,2023-01-11_13h32.44.947,00_bat_bachelor,2022.2.4,59.979556050055734,
,,,,,,,,,,,,0,0,0,0,215,0,215,0,,,,,,,215,,,1,620.5514121461601,,Y,d,go,d,1,0.2118513084424194,,,,,,,,,,,,,,,,15,001,20,w,Psychologie,2023-01-11_13h32.44.947,00_bat_bachelor,2022.2.4,59.979556050055734,
,,,,,,,,,,,,0,0,0,0,216,0,216,0,,,,,,,216,,,1,621.8688779970398,622.6696032337495,Y,None,nogo,None,1,,,,,,,,,,,,,,,,,15,001,20,w,Psychologie,2023-01-11_13h32.44.947,00_bat_bachelor,2022.2.4,59.979556050055734,
,,,,,,,,,,,,0,0,0,0,217,0,217,0,,,,,,,217,,,1,623.6704769311473,,X,l,go,l,1,0.3722174467984587,,,,,,,,,,,,,,,,15,001,20,w,Psychologie,2023-01-11_13h32.44.947,00_bat_bachelor,2022.2.4,59.979556050055734,
,,,,,,,,,,,,0,0,0,0,218,0,218,0,,,,,,,218,,,1,625.1546744992374,,Y,d,go,d,1,0.2961582583957352,,,,,,,,,,,,,,,,15,001,20,w,Psychologie,2023-01-11_13h32.44.947,00_bat_bachelor,2022.2.4,59.979556050055734,
,,,,,,,,,,,,0,0,0,0,219,0,219,0,,,,,,,219,,,1,626.5560216029116,,X,l,go,l,1,0.3342634889995679,,,,,,,,,,,,,,,,15,001,20,w,Psychologie,2023-01-11_13h32.44.947,00_bat_bachelor,2022.2.4,59.979556050055734,
,,,,,,,,,,,,0,0,0,0,220,0,220,0,,,,,,,220,,,1,628.0071161246742,,X,None,nogo,d,0,0.1808432933758013,,,,,,,,,,,,,,,,15,001,20,w,Psychologie,2023-01-11_13h32.44.947,00_bat_bachelor,2022.2.4,59.979556050055734,
,,,,,,,,,,,,0,0,0,0,221,0,221,0,,,,,,,221,,,1,629.2913329897565,,Y,d,go,d,1,0.20858439776930027,,,,,,,,,,,,,,,,15,001,20,w,Psychologie,2023-01-11_13h32.44.947,00_bat_bachelor,2022.2.4,59.979556050055734,
,,,,,,,,,,,,0,0,0,0,222,0,222,0,,,,,,,222,,,1,630.6090087801276,,X,l,go,l,1,0.2656016375403851,,,,,,,,,,,,,,,,15,001,20,w,Psychologie,2023-01-11_13h32.44.947,00_bat_bachelor,2022.2.4,59.979556050055734,
,,,,,,,,,,,,0,0,0,0,223,0,223,0,,,,,,,223,,,1,631.9764596249443,,Y,d,go,d,1,0.3700205972418189,,,,,,,,,,,,,,,,15,001,20,w,Psychologie,2023-01-11_13h32.44.947,00_bat_bachelor,2022.2.4,59.979556050055734,
,,,,,,,,,,,,0,0,0,0,224,0,224,0,,,,,,,224,,,1,633.4612579206296,,Y,None,nogo,None,1,,,,,,,,,,,,,,,,,15,001,20,w,Psychologie,2023-01-11_13h32.44.947,00_bat_bachelor,2022.2.4,59.979556050055734,
,,,,,,,,,,,,0,0,0,0,225,0,225,0,,,,,,,225,,,1,635.262612490973,,Y,None,nogo,None,1,,,,,,,,,,,,,,,,,15,001,20,w,Psychologie,2023-01-11_13h32.44.947,00_bat_bachelor,2022.2.4,59.979556050055734,
,,,,,,,,,,,,0,0,0,0,226,0,226,0,,,,,,,226,,,1,637.0639103340218,,X,l,go,l,1,0.22722586133750156,,,,,,,,,,,,,,,,15,001,20,w,Psychologie,2023-01-11_13h32.44.947,00_bat_bachelor,2022.2.4,59.979556050055734,
,,,,,,,,,,,,0,0,0,0,227,0,227,0,,,,,,,227,,,1,638.3980127990362,,Y,d,go,d,1,0.23621059296419844,,,,,,,,,,,,,,,,15,001,20,w,Psychologie,2023-01-11_13h32.44.947,00_bat_bachelor,2022.2.4,59.979556050055734,
,,,,,,,,,,,,0,0,0,0,228,0,228,0,,,,,,,228,,,1,639.748974908609,,Y,None,nogo,None,1,,,,,,,,,,,,,,,,,15,001,20,w,Psychologie,2023-01-11_13h32.44.947,00_bat_bachelor,2022.2.4,59.979556050055734,
,,,,,,,,,,,,0,0,0,0,229,0,229,0,,,,,,,229,,,1,641.5503197819926,,X,l,go,l,1,0.25208114614360966,,,,,,,,,,,,,,,,15,001,20,w,Psychologie,2023-01-11_13h32.44.947,00_bat_bachelor,2022.2.4,59.979556050055734,
,,,,,,,,,,,,0,0,0,0,230,0,230,0,,,,,,,230,,,1,642.9182835967513,,Y,d,go,d,1,0.37306108354823664,,,,,,,,,,,,,,,,15,001,20,w,Psychologie,2023-01-11_13h32.44.947,00_bat_bachelor,2022.2.4,59.979556050055734,
,,,,,,,,,,,,0,0,0,0,231,0,231,0,,,,,,,231,,,1,644.4028768014105,,X,l,go,l,1,0.26555121326236986,,,,,,,,,,,,,,,,15,001,20,w,Psychologie,2023-01-11_13h32.44.947,00_bat_bachelor,2022.2.4,59.979556050055734,
,,,,,,,,,,,,0,0,0,0,232,0,232,0,,,,,,,232,,,1,645.7705938281724,,Y,d,go,d,1,0.28866395170916803,,,,,,,,,,,,,,,,15,001,20,w,Psychologie,2023-01-11_13h32.44.947,00_bat_bachelor,2022.2.4,59.979556050055734,
,,,,,,,,,,,,0,0,0,0,233,0,233,0,,,,,,,233,,,1,647.1716219013906,,X,l,go,l,1,0.2792234623047989,,,,,,,,,,,,,,,,15,001,20,w,Psychologie,2023-01-11_13h32.44.947,00_bat_bachelor,2022.2.4,59.979556050055734,
,,,,,,,,,,,,0,0,0,0,234,0,234,0,,,,,,,234,,,1,648.5560143301846,649.3562469606113,X,None,nogo,None,1,,,,,,,,,,,,,,,,,15,001,20,w,Psychologie,2023-01-11_13h32.44.947,00_bat_bachelor,2022.2.4,59.979556050055734,
,,,,,,,,,,,,0,0,0,0,235,0,235,0,,,,,,,235,,,1,650.3571570216445,,Y,d,go,d,1,0.24557496115448885,,,,,,,,,,,,,,,,15,001,20,w,Psychologie,2023-01-11_13h32.44.947,00_bat_bachelor,2022.2.4,59.979556050055734,
,,,,,,,,,,,,0,0,0,0,236,0,236,0,,,,,,,236,,,1,651.7083717373898,,X,l,go,l,1,0.28661449617356993,,,,,,,,,,,,,,,,15,001,20,w,Psychologie,2023-01-11_13h32.44.947,00_bat_bachelor,2022.2.4,59.979556050055734,
,,,,,,,,,,,,0,0,0,0,237,0,237,0,,,,,,,237,,,1,653.1093222348427,,X,None,nogo,None,1,,,,,,,,,,,,,,,,,15,001,20,w,Psychologie,2023-01-11_13h32.44.947,00_bat_bachelor,2022.2.4,59.979556050055734,
,,,,,,,,,,,,0,0,0,0,238,0,238,0,,,,,,,238,,,1,654.9107441991509,,Y,d,go,d,1,0.2360321686428506,,,,,,,,,,,,,,,,15,001,20,w,Psychologie,2023-01-11_13h32.44.947,00_bat_bachelor,2022.2.4,59.979556050055734,
,,,,,,,,,,,,0,0,0,0,239,0,239,0,,,,,,,239,,,1,656.261869702721,,X,l,go,l,1,0.2611347262572963,,,,,,,,,,,,,,,,15,001,20,w,Psychologie,2023-01-11_13h32.44.947,00_bat_bachelor,2022.2.4,59.979556050055734,
,,,,,,,,,,,,0,0,0,0,240,0,240,0,,,,,,,240,,,1,657.629588668904,,Y,d,go,d,1,0.2530101162556093,,,,,,,,,,,,,,,,15,001,20,w,Psychologie,2023-01-11_13h32.44.947,00_bat_bachelor,2022.2.4,59.979556050055734,
,,,,,,,,,,,,0,0,0,0,241,0,241,0,,,,,,,241,,,1,658.9972547865473,,X,l,go,l,1,0.22965204433421604,,,,,,,,,,,,,,,,15,001,20,w,Psychologie,2023-01-11_13h32.44.947,00_bat_bachelor,2022.2.4,59.979556050055734,
,,,,,,,,,,,,0,0,0,0,242,0,242,0,,,,,,,242,,,1,660.3316079183714,661.132257033838,X,None,nogo,None,1,,,,,,,,,,,,,,,,,15,001,20,w,Psychologie,2023-01-11_13h32.44.947,00_bat_bachelor,2022.2.4,59.979556050055734,
,,,,,,,,,,,,0,0,0,0,243,0,243,0,,,,,,,243,,,1,662.1330565493554,,Y,d,go,d,1,0.3570460454793647,,,,,,,,,,,,,,,,15,001,20,w,Psychologie,2023-01-11_13h32.44.947,00_bat_bachelor,2022.2.4,59.979556050055734,
,,,,,,,,,,,,0,0,0,0,244,0,244,0,,,,,,,244,,,1,663.6004778669158,,X,l,go,l,1,0.26560745571623556,,,,,,,,,,,,,,,,15,001,20,w,Psychologie,2023-01-11_13h32.44.947,00_bat_bachelor,2022.2.4,59.979556050055734,
,,,,,,,,,,,,0,0,0,0,245,0,245,0,,,,,,,245,,,1,664.9684988938097,,X,None,nogo,None,1,,,,,,,,,,,,,,,,,15,001,20,w,Psychologie,2023-01-11_13h32.44.947,00_bat_bachelor,2022.2.4,59.979556050055734,
,,,,,,,,,,,,0,0,0,0,246,0,246,0,,,,,,,246,,,1,666.7698777066253,,Y,d,go,d,1,0.2329111974395346,,,,,,,,,,,,,,,,15,001,20,w,Psychologie,2023-01-11_13h32.44.947,00_bat_bachelor,2022.2.4,59.979556050055734,
,,,,,,,,,,,,0,0,0,0,247,0,247,0,,,,,,,247,,,1,668.1041988384095,,X,l,go,l,1,0.29089134675450623,,,,,,,,,,,,,,,,15,001,20,w,Psychologie,2023-01-11_13h32.44.947,00_bat_bachelor,2022.2.4,59.979556050055734,
,,,,,,,,,,,,0,0,0,0,248,0,248,0,,,,,,,248,,,1,669.505259881349,,Y,d,go,d,1,0.2817475847550668,,,,,,,,,,,,,,,,15,001,20,w,Psychologie,2023-01-11_13h32.44.947,00_bat_bachelor,2022.2.4,59.979556050055734,
,,,,,,,,,,,,0,0,0,0,249,0,249,0,,,,,,,249,,,1,670.889725037443,,X,l,go,l,1,0.3689767179603223,,,,,,,,,,,,,,,,15,001,20,w,Psychologie,2023-01-11_13h32.44.947,00_bat_bachelor,2022.2.4,59.979556050055734,
,,,,,,,,,,,,1,0,1,0,0,0,0,0,,,,,,,0,,,0.2,686.4686838636117,,X,l,go,l,1,0.34147803793894127,,,,,,,,671.3783977592248,space,14.859016713133315,,,,,,15,001,20,w,Psychologie,2023-01-11_13h32.44.947,00_bat_bachelor,2022.2.4,59.979556050055734,
,,,,,,,,,,,,1,0,1,0,1,0,1,0,,,,,,,1,,,0.2,687.1191927850596,,Y,d,go,d,1,0.41190522362012416,,,,,,,,,,,,,,,,15,001,20,w,Psychologie,2023-01-11_13h32.44.947,00_bat_bachelor,2022.2.4,59.979556050055734,
,,,,,,,,,,,,1,0,1,0,2,0,2,0,,,,,,,2,,,0.2,687.8363926479651,,X,l,go,l,1,0.36628823180217296,,,,,,,,,,,,,,,,15,001,20,w,Psychologie,2023-01-11_13h32.44.947,00_bat_bachelor,2022.2.4,59.979556050055734,
,,,,,,,,,,,,1,0,1,0,3,0,3,0,,,,,,,3,,,0.2,688.503524607775,,Y,d,go,d,1,0.32382275664713234,,,,,,,,,,,,,,,,15,001,20,w,Psychologie,2023-01-11_13h32.44.947,00_bat_bachelor,2022.2.4,59.979556050055734,
,,,,,,,,,,,,1,0,1,0,4,0,4,0,,,,,,,4,,,0.2,689.1373547332769,,X,l,go,l,1,0.45680657870252617,,,,,,,,,,,,,,,,15,001,20,w,Psychologie,2023-01-11_13h32.44.947,00_bat_bachelor,2022.2.4,59.979556050055734,
,,,,,,,,,,,,1,0,1,0,5,0,5,0,,,,,,,5,,,0.2,689.9044208021369,,Y,d,go,d,1,0.2496908419416286,,,,,,,,,,,,,,,,15,001,20,w,Psychologie,2023-01-11_13h32.44.947,00_bat_bachelor,2022.2.4,59.979556050055734,
,,,,,,,,,,,,1,0,1,0,6,0,6,0,,,,,,,6,,,0.2,690.4550416751881,,Y,None,nogo,l,0,0.29028916463721544,,,,,,,,,,,,,,,,15,001,20,w,Psychologie,2023-01-11_13h32.44.947,00_bat_bachelor,2022.2.4,59.979556050055734,
,,,,,,,,,,,,1,0,1,0,7,0,7,0,,,,,,,7,,,0.2,691.0722274289583,,X,l,go,l,1,0.5535091710335109,,,,,,,,,,,,,,,,15,001,20,w,Psychologie,2023-01-11_13h32.44.947,00_bat_bachelor,2022.2.4,59.979556050055734,
,,,,,,,,,,,,1,0,1,0,8,0,8,0,,,,,,,8,,,0.2,691.9561216756993,,Y,d,go,d,1,0.31045450776582584,,,,,,,,,,,,,,,,15,001,20,w,Psychologie,2023-01-11_13h32.44.947,00_bat_bachelor,2022.2.4,59.979556050055734,
,,,,,,,,,,,,1,0,1,0,9,0,9,0,,,,,,,9,,,0.2,692.5731639142614,,X,l,go,l,1,0.33362688260967843,,,,,,,,,,,,,,,,15,001,20,w,Psychologie,2023-01-11_13h32.44.947,00_bat_bachelor,2022.2.4,59.979556050055734,
,,,,,,,,,,,,1,0,1,0,10,0,10,0,,,,,,,10,,,0.2,693.2070987670741,,Y,d,go,d,1,0.4505282726313453,,,,,,,,,,,,,,,,15,001,20,w,Psychologie,2023-01-11_13h32.44.947,00_bat_bachelor,2022.2.4,59.979556050055734,
,,,,,,,,,,,,1,0,1,0,11,0,11,0,,,,,,,11,,,0.2,693.9741808359686,694.7750044969725,Y,None,nogo,None,1,,,,,,,,,,,,,,,,,15,001,20,w,Psychologie,2023-01-11_13h32.44.947,00_bat_bachelor,2022.2.4,59.979556050055734,
,,,,,,,,,,,,1,0,1,0,12,0,12,0,,,,,,,12,,,0.2,694.9749900484749,,X,l,go,l,1,0.4113733445701655,,,,,,,,,,,,,,,,15,001,20,w,Psychologie,2023-01-11_13h32.44.947,00_bat_bachelor,2022.2.4,59.979556050055734,
,,,,,,,,,,,,1,0,1,0,13,0,13,0,,,,,,,13,,,0.2,695.709302646952,,Y,d,go,d,1,0.3482581624703016,,,,,,,,,,,,,,,,15,001,20,w,Psychologie,2023-01-11_13h32.44.947,00_bat_bachelor,2022.2.4,59.979556050055734,
,,,,,,,,,,,,1,0,1,0,14,0,14,0,,,,,,,14,,,0.2,696.3931555845775,697.1939690637519,Y,None,nogo,None,1,,,,,,,,,,,,,,,,,15,001,20,w,Psychologie,2023-01-11_13h32.44.947,00_bat_bachelor,2022.2.4,59.979556050055734,
,,,,,,,,,,,,1,0,1,0,15,0,15,0,,,,,,,15,,,0.2,697.393641402974,,X,l,go,l,1,0.2644583642540965,,,,,,,,,,,,,,,,15,001,20,w,Psychologie,2023-01-11_13h32.44.947,00_bat_bachelor,2022.2.4,59.979556050055734,
,,,,,,,,,,,,1,0,1,0,16,0,16,0,,,,,,,16,,,0.2,697.9943355123978,,Y,d,go,d,1,0.5594320830132347,,,,,,,,,,,,,,,,15,001,20,w,Psychologie,2023-01-11_13h32.44.947,00_bat_bachelor,2022.2.4,59.979556050055734,
,,,,,,,,,,,,1,0,1,0,17,0,17,0,,,,,,,17,,,0.2,698.8948547368927,,X,l,go,l,1,0.6675872869673185,,,,,,,,,,,,,,,,15,001,20,w,Psychologie,2023-01-11_13h32.44.947,00_bat_bachelor,2022.2.4,59.979556050055734,
,,,,,,,,,,,,1,0,1,0,18,0,18,0,,,,,,,18,,,0.2,699.8958530404198,,X,None,nogo,l,0,0.4350514166580979,,,,,,,,,,,,,,,,15,001,20,w,Psychologie,2023-01-11_13h32.44.947,00_bat_bachelor,2022.2.4,59.979556050055734,
,,,,,,,,,,,,1,0,1,0,19,0,19,0,,,,,,,19,,,0.2,700.66310723059,,Y,d,go,d,1,0.5472909862291999,,,,,,,,,,,,,,,,15,001,20,w,Psychologie,2023-01-11_13h32.44.947,00_bat_bachelor,2022.2.4,59.979556050055734,
,,,,,,,,,,,,1,0,1,0,20,0,20,0,,,,,,,20,,,0.2,701.5471042652789,,X,l,go,l,1,0.44668099805130623,,,,,,,,,,,,,,,,15,001,20,w,Psychologie,2023-01-11_13h32.44.947,00_bat_bachelor,2022.2.4,59.979556050055734,
,,,,,,,,,,,,1,0,1,0,21,0,21,0,,,,,,,21,,,0.2,702.330985372595,,Y,d,go,d,1,0.4150766190723516,,,,,,,,,,,,,,,,15,001,20,w,Psychologie,2023-01-11_13h32.44.947,00_bat_bachelor,2022.2.4,59.979556050055734,
,,,,,,,,,,,,1,0,1,0,22,0,22,0,,,,,,,22,,,0.2,703.0814429485763,703.8824188520957,Y,None,nogo,None,1,,,,,,,,,,,,,,,,,15,001,20,w,Psychologie,2023-01-11_13h32.44.947,00_bat_bachelor,2022.2.4,59.979556050055734,
,,,,,,,,,,,,1,0,1,0,23,0,23,0,,,,,,,23,,,0.2,704.0824412521033,,X,l,go,l,1,0.2647773946810048,,,,,,,,,,,,,,,,15,001,20,w,Psychologie,2023-01-11_13h32.44.947,00_bat_bachelor,2022.2.4,59.979556050055734,
,,,,,,,,,,,,1,0,1,0,24,0,24,0,,,,,,,24,,,0.2,704.6825952400395,,Y,d,go,d,1,0.4312982027186081,,,,,,,,,,,,,,,,15,001,20,w,Psychologie,2023-01-11_13h32.44.947,00_bat_bachelor,2022.2.4,59.979556050055734,
,,,,,,,,,,,,1,0,1,0,25,0,25,0,,,,,,,25,,,0.2,705.4500680970086,706.2507797579747,Y,None,nogo,None,1,,,,,,,,,,,,,,,,,15,001,20,w,Psychologie,2023-01-11_13h32.44.947,00_bat_bachelor,2022.2.4,59.979556050055734,
,,,,,,,,,,,,1,0,1,0,26,0,26,0,,,,,,,26,,,0.2,706.4506310063589,,X,l,go,l,1,0.3106474775413517,,,,,,,,,,,,,,,,15,001,20,w,Psychologie,2023-01-11_13h32.44.947,00_bat_bachelor,2022.2.4,59.979556050055734,
,,,,,,,,,,,,1,0,1,0,27,0,27,0,,,,,,,27,,,0.2,707.1013246552029,,Y,d,go,d,1,0.381237087509362,,,,,,,,,,,,,,,,15,001,20,w,Psychologie,2023-01-11_13h32.44.947,00_bat_bachelor,2022.2.4,59.979556050055734,
,,,,,,,,,,,,1,0,1,0,28,0,28,0,,,,,,,28,,,0.2,707.8185608817439,708.6190223607409,Y,None,nogo,None,1,,,,,,,,,,,,,,,,,15,001,20,w,Psychologie,2023-01-11_13h32.44.947,00_bat_bachelor,2022.2.4,59.979556050055734,
,,,,,,,,,,,,1,0,1,0,29,0,29,0,,,,,,,29,,,0.2,708.8193085184612,,X,l,go,l,1,0.327354394714348,,,,,,,,,,,,,,,,15,001,20,w,Psychologie,2023-01-11_13h32.44.947,00_bat_bachelor,2022.2.4,59.979556050055734,
,,,,,,,,,,,,1,0,1,0,30,0,30,0,,,,,,,30,,,0.2,709.4697757429385,710.2705950402888,Y,d,go,None,0,,,,,,,,,,,,,,,,,15,001,20,w,Psychologie,2023-01-11_13h32.44.947,00_bat_bachelor,2022.2.4,59.979556050055734,
,,,,,,,,,,,,1,0,1,0,31,0,31,0,,,,,,,31,,,0.2,710.470562167553,711.2713412224839,Y,None,nogo,None,1,,,,,,,,,,,,,,,,,15,001,20,w,Psychologie,2023-01-11_13h32.44.947,00_bat_bachelor,2022.2.4,59.979556050055734,
,,,,,,,,,,,,1,0,1,0,32,0,32,0,,,,,,,32,,,0.2,711.4712487133511,,X,l,go,l,1,0.3150130554276984,,,,,,,,,,,,,,,,15,001,20,w,Psychologie,2023-01-11_13h32.44.947,00_bat_bachelor,2022.2.4,59.979556050055734,
,,,,,,,,,,,,1,0,1,0,33,0,33,0,,,,,,,33,,,0.2,712.1218429681612,,Y,d,go,d,1,0.36872556630987674,,,,,,,,,,,,,,,,15,001,20,w,Psychologie,2023-01-11_13h32.44.947,00_bat_bachelor,2022.2.4,59.979556050055734,
,,,,,,,,,,,,1,0,1,0,34,0,34,0,,,,,,,34,,,0.2,712.8054888753977,,X,l,go,l,1,0.5323915850603953,,,,,,,,,,,,,,,,15,001,20,w,Psychologie,2023-01-11_13h32.44.947,00_bat_bachelor,2022.2.4,59.979556050055734,
,,,,,,,,,,,,1,0,1,0,35,0,35,0,,,,,,,35,,,0.2,713.6730034778302,,Y,d,go,d,1,0.24083265580702573,,,,,,,,,,,,,,,,15,001,20,w,Psychologie,2023-01-11_13h32.44.947,00_bat_bachelor,2022.2.4,59.979556050055734,
,,,,,,,,,,,,1,0,1,0,36,0,36,0,,,,,,,36,,,0.2,714.2567991548276,,X,l,go,l,1,0.458167064236477,,,,,,,,,,,,,,,,15,001,20,w,Psychologie,2023-01-11_13h32.44.947,00_bat_bachelor,2022.2.4,59.979556050055734,
,,,,,,,,,,,,1,0,1,0,37,0,37,0,,,,,,,37,,,0.2,715.0406812318543,,Y,d,go,d,1,0.2167240380658768,,,,,,,,,,,,,,,,15,001,20,w,Psychologie,2023-01-11_13h32.44.947,00_bat_bachelor,2022.2.4,59.979556050055734,
,,,,,,,,,,,,1,0,1,0,38,0,38,0,,,,,,,38,,,0.2,715.5911304684414,,Y,None,nogo,l,0,0.2912768014939502,,,,,,,,,,,,,,,,15,001,20,w,Psychologie,2023-01-11_13h32.44.947,00_bat_bachelor,2022.2.4,59.979556050055734,
,,,,,,,,,,,,1,0,1,0,39,0,39,0,,,,,,,39,,,0.2,716.2246371998335,717.0253323759243,X,l,go,None,0,,,,,,,,,,,,,,,,,15,001,20,w,Psychologie,2023-01-11_13h32.44.947,00_bat_bachelor,2022.2.4,59.979556050055734,
,,,,,,,,,,,,1,0,1,0,40,0,40,0,,,,,,,40,,,0.2,717.2254066547612,,Y,d,go,d,1,0.5463091675774194,,,,,,,,,,,,,,,,15,001,20,w,Psychologie,2023-01-11_13h32.44.947,00_bat_bachelor,2022.2.4,59.979556050055734,
,,,,,,,,,,,,1,0,1,0,41,0,41,0,,,,,,,41,,,0.2,718.0755210063071,,Y,None,nogo,l,0,0.495373870129697,,,,,,,,,,,,,,,,15,001,20,w,Psychologie,2023-01-11_13h32.44.947,00_bat_bachelor,2022.2.4,59.979556050055734,
,,,,,,,,,,,,1,0,1,0,42,0,42,0,,,,,,,42,,,0.2,718.8764304855431,719.6769899039937,X,l,go,None,0,,,,,,,,,,,,,,,,,15,001,20,w,Psychologie,2023-01-11_13h32.44.947,00_bat_bachelor,2022.2.4,59.979556050055734,
,,,,,,,,,,,,1,0,1,0,43,0,43,0,,,,,,,43,,,0.2,719.8772004253115,720.6775954800542,Y,d,go,None,0,,,,,,,,,,,,,,,,,15,001,20,w,Psychologie,2023-01-11_13h32.44.947,00_bat_bachelor,2022.2.4,59.979556050055734,
,,,,,,,,,,,,1,0,1,0,44,0,44,0,,,,,,,44,,,0.2,720.8778156983317,,X,l,go,d,0,0.3171686928253621,,,,,,,,,,,,,,,,15,001,20,w,Psychologie,2023-01-11_13h32.44.947,00_bat_bachelor,2022.2.4,59.979556050055734,
,,,,,,,,,,,,1,0,1,0,45,0,45,0,,,,,,,45,,,0.2,721.4948157550825,,Y,d,go,None,0,,,,,,,,,,,,,,,,,15,001,20,w,Psychologie,2023-01-11_13h32.44.947,00_bat_bachelor,2022.2.4,59.979556050055734,
,,,,,,,,,,,,1,0,1,0,46,0,46,0,,,,,,,46,,,0.2,722.4957069070078,723.2962585678906,Y,None,nogo,None,1,,,,,,,,,,,,,,,,,15,001,20,w,Psychologie,2023-01-11_13h32.44.947,00_bat_bachelor,2022.2.4,59.979556050055734,
,,,,,,,,,,,,1,0,1,0,47,0,47,0,,,,,,,47,,,0.2,723.4965801195649,,X,l,go,l,1,0.433875173679553,,,,,,,,,,,,,,,,15,001,20,w,Psychologie,2023-01-11_13h32.44.947,00_bat_bachelor,2022.2.4,59.979556050055734,
,,,,,,,,,,,,1,0,1,0,48,0,48,0,,,,,,,48,,,0.2,724.2304888390354,,Y,d,go,d,1,0.32418348410283215,,,,,,,,,,,,,,,,15,001,20,w,Psychologie,2023-01-11_13h32.44.947,00_bat_bachelor,2022.2.4,59.979556050055734,
,,,,,,,,,,,,1,0,1,0,49,0,49,0,,,,,,,49,,,0.2,724.8642869644973,,X,l,go,l,1,0.5699586335686035,,,,,,,,,,,,,,,,15,001,20,w,Psychologie,2023-01-11_13h32.44.947,00_bat_bachelor,2022.2.4,59.979556050055734,
,,,,,,,,,,,,1,0,1,0,50,0,50,0,,,,,,,50,,,0.2,725.7484347871214,,Y,d,go,d,1,0.3586135614023078,,,,,,,,,,,,,,,,15,001,20,w,Psychologie,2023-01-11_13h32.44.947,00_bat_bachelor,2022.2.4,59.979556050055734,
,,,,,,,,,,,,1,0,1,0,51,0,51,0,,,,,,,51,,,0.2,726.4153311104747,,X,l,go,l,1,0.5394800733483862,,,,,,,,,,,,,,,,15,001,20,w,Psychologie,2023-01-11_13h32.44.947,00_bat_bachelor,2022.2.4,59.979556050055734,
,,,,,,,,,,,,1,0,1,0,52,0,52,0,,,,,,,52,,,0.2,727.266142674489,,Y,d,go,d,1,0.39328751762514,,,,,,,,,,,,,,,,15,001,20,w,Psychologie,2023-01-11_13h32.44.947,00_bat_bachelor,2022.2.4,59.979556050055734,
,,,,,,,,,,,,1,0,1,0,53,0,53,0,,,,,,,53,,,0.2,727.9667204687139,,X,l,go,l,1,0.33169136656215414,,,,,,,,,,,,,,,,15,001,20,w,Psychologie,2023-01-11_13h32.44.947,00_bat_bachelor,2022.2.4,59.979556050055734,
,,,,,,,,,,,,1,0,1,0,54,0,54,0,,,,,,,54,,,0.2,728.6004788365972,,Y,d,go,d,1,0.27416406592237763,,,,,,,,,,,,,,,,15,001,20,w,Psychologie,2023-01-11_13h32.44.947,00_bat_bachelor,2022.2.4,59.979556050055734,
,,,,,,,,,,,,1,0,1,0,55,0,55,0,,,,,,,55,,,0.2,729.184422877297,,Y,None,nogo,l,0,0.3476283439376857,,,,,,,,,,,,,,,,15,001,20,w,Psychologie,2023-01-11_13h32.44.947,00_bat_bachelor,2022.2.4,59.979556050055734,
,,,,,,,,,,,,1,0,1,0,56,0,56,0,,,,,,,56,,,0.2,729.8349080411717,,X,l,go,d,0,0.528986007644562,,,,,,,,,,,,,,,,15,001,20,w,Psychologie,2023-01-11_13h32.44.947,00_bat_bachelor,2022.2.4,59.979556050055734,
,,,,,,,,,,,,1,0,1,0,57,0,57,0,,,,,,,57,,,0.2,730.668535112025,731.4691910153779,Y,d,go,None,0,,,,,,,,,,,,,,,,,15,001,20,w,Psychologie,2023-01-11_13h32.44.947,00_bat_bachelor,2022.2.4,59.979556050055734,
,,,,,,,,,,,,1,0,1,0,58,0,58,0,,,,,,,58,,,0.2,731.6695208094607,,X,l,go,l,1,0.533261403645156,,,,,,,,,,,,,,,,15,001,20,w,Psychologie,2023-01-11_13h32.44.947,00_bat_bachelor,2022.2.4,59.979556050055734,
,,,,,,,,,,,,1,0,1,0,59,0,59,0,,,,,,,59,,,0.2,732.5036419411772,,X,None,nogo,l,0,0.5955091914220247,,,,,,,,,,,,,,,,15,001,20,w,Psychologie,2023-01-11_13h32.44.947,00_bat_bachelor,2022.2.4,59.979556050055734,
,,,,,,,,,,,,1,0,1,0,60,0,60,0,,,,,,,60,,,0.2,733.4040292868158,734.2045756143343,X,None,nogo,None,1,,,,,,,,,,,,,,,,,15,001,20,w,Psychologie,2023-01-11_13h32.44.947,00_bat_bachelor,2022.2.4,59.979556050055734,
,,,,,,,,,,,,1,0,1,0,61,0,61,0,,,,,,,61,,,0.2,734.404840438714,,Y,d,go,d,1,0.2618605448224116,,,,,,,,,,,,,,,,15,001,20,w,Psychologie,2023-01-11_13h32.44.947,00_bat_bachelor,2022.2.4,59.979556050055734,
,,,,,,,,,,,,1,0,1,0,62,0,62,0,,,,,,,62,,,0.2,734.9720121076389,,X,l,go,l,1,0.30224117045872845,,,,,,,,,,,,,,,,15,001,20,w,Psychologie,2023-01-11_13h32.44.947,00_bat_bachelor,2022.2.4,59.979556050055734,
,,,,,,,,,,,,1,0,1,0,63,0,63,0,,,,,,,63,,,0.2,735.5891314371547,,X,None,nogo,l,0,0.5179775174765382,,,,,,,,,,,,,,,,15,001,20,w,Psychologie,2023-01-11_13h32.44.947,00_bat_bachelor,2022.2.4,59.979556050055734,
,,,,,,,,,,,,1,0,1,0,64,0,64,0,,,,,,,64,,,0.2,736.42289668991,,Y,d,go,d,1,0.4999959329725243,,,,,,,,,,,,,,,,15,001,20,w,Psychologie,2023-01-11_13h32.44.947,00_bat_bachelor,2022.2.4,59.979556050055734,
,,,,,,,,,,,,1,0,1,0,65,0,65,0,,,,,,,65,,,0.2,737.2235205932229,,X,l,go,l,1,0.5484497746510897,,,,,,,,,,,,,,,,15,001,20,w,Psychologie,2023-01-11_13h32.44.947,00_bat_bachelor,2022.2.4,59.979556050055734,
,,,,,,,,,,,,1,0,1,0,66,0,66,0,,,,,,,66,,,0.2,738.0743806421233,,X,None,nogo,d,0,0.497285628633108,,,,,,,,,,,,,,,,15,001,20,w,Psychologie,2023-01-11_13h32.44.947,00_bat_bachelor,2022.2.4,59.979556050055734,
,,,,,,,,,,,,1,0,1,0,67,0,67,0,,,,,,,67,,,0.2,738.875107818254,,Y,d,go,d,1,0.5608216594555415,,,,,,,,,,,,,,,,15,001,20,w,Psychologie,2023-01-11_13h32.44.947,00_bat_bachelor,2022.2.4,59.979556050055734,
,,,,,,,,,,,,1,0,1,0,68,0,68,0,,,,,,,68,,,0.2,739.7421230264881,740.542984020838,X,l,go,None,0,,,,,,,,,,,,,,,,,15,001,20,w,Psychologie,2023-01-11_13h32.44.947,00_bat_bachelor,2022.2.4,59.979556050055734,
,,,,,,,,,,,,1,0,1,0,69,0,69,0,,,,,,,69,,,0.2,740.7430384208856,741.5437093545333,Y,d,go,None,0,,,,,,,,,,,,,,,,,15,001,20,w,Psychologie,2023-01-11_13h32.44.947,00_bat_bachelor,2022.2.4,59.979556050055734,
,,,,,,,,,,,,1,0,1,0,70,0,70,0,,,,,,,70,,,0.2,741.7438073909434,,X,l,go,l,1,0.2663463651551865,,,,,,,,,,,,,,,,15,001,20,w,Psychologie,2023-01-11_13h32.44.947,00_bat_bachelor,2022.2.4,59.979556050055734,
,,,,,,,,,,,,1,0,1,0,71,0,71,0,,,,,,,71,,,0.2,742.310746332485,,Y,d,go,d,1,0.4673428262467496,,,,,,,,,,,,,,,,15,001,20,w,Psychologie,2023-01-11_13h32.44.947,00_bat_bachelor,2022.2.4,59.979556050055734,
,,,,,,,,,,,,1,0,1,0,72,0,72,0,,,,,,,72,,,0.2,743.0781711894087,743.8787693957856,Y,None,nogo,None,1,,,,,,,,,,,,,,,,,15,001,20,w,Psychologie,2023-01-11_13h32.44.947,00_bat_bachelor,2022.2.4,59.979556050055734,
,,,,,,,,,,,,1,0,1,0,73,0,73,0,,,,,,,73,,,0.2,744.0789547049499,,X,l,go,l,1,0.2686319420172367,,,,,,,,,,,,,,,,15,001,20,w,Psychologie,2023-01-11_13h32.44.947,00_bat_bachelor,2022.2.4,59.979556050055734,
,,,,,,,,,,,,1,0,1,0,74,0,74,0,,,,,,,74,,,0.2,744.6625433515292,745.4633456791926,Y,d,go,None,0,,,,,,,,,,,,,,,,,15,001,20,w,Psychologie,2023-01-11_13h32.44.947,00_bat_bachelor,2022.2.4,59.979556050055734,
,,,,,,,,,,,,1,0,1,0,75,0,75,0,,,,,,,75,,,0.2,745.6633583822404,,Y,None,nogo,d,0,0.5710674825822935,,,,,,,,,,,,,,,,15,001,20,w,Psychologie,2023-01-11_13h32.44.947,00_bat_bachelor,2022.2.4,59.979556050055734,
,,,,,,,,,,,,1,0,1,0,76,0,76,0,,,,,,,76,,,0.2,746.5475464473129,,X,l,go,l,1,0.4543653654109221,,,,,,,,,,,,,,,,15,001,20,w,Psychologie,2023-01-11_13h32.44.947,00_bat_bachelor,2022.2.4,59.979556050055734,
,,,,,,,,,,,,1,0,1,0,77,0,77,0,,,,,,,77,,,0.2,747.3147923950455,,Y,d,go,d,1,0.3288942742801737,,,,,,,,,,,,,,,,15,001,20,w,Psychologie,2023-01-11_13h32.44.947,00_bat_bachelor,2022.2.4,59.979556050055734,
,,,,,,,,,,,,1,0,1,0,78,0,78,0,,,,,,,78,,,0.2,747.9484688235098,,Y,None,nogo,None,1,,,,,,,,,,,,,,,,,15,001,20,w,Psychologie,2023-01-11_13h32.44.947,00_bat_bachelor,2022.2.4,59.979556050055734,
,,,,,,,,,,,,1,0,1,0,79,0,79,0,,,,,,,79,,,0.2,748.9492159753863,,X,l,go,l,1,0.2619172721169889,,,,,,,,,,,,,,,,15,001,20,w,Psychologie,2023-01-11_13h32.44.947,00_bat_bachelor,2022.2.4,59.979556050055734,
,,,,,,,,,,,,1,0,1,0,80,0,80,0,,,,,,,80,,,0.2,749.5162450987846,,Y,d,go,None,0,,,,,,,,,,,,,,,,,15,001,20,w,Psychologie,2023-01-11_13h32.44.947,00_bat_bachelor,2022.2.4,59.979556050055734,
,,,,,,,,,,,,1,0,1,0,81,0,81,0,,,,,,,81,,,0.2,750.5169156445772,,X,l,go,d,0,0.29507704576826654,,,,,,,,,,,,,,,,15,001,20,w,Psychologie,2023-01-11_13h32.44.947,00_bat_bachelor,2022.2.4,59.979556050055734,
,,,,,,,,,,,,1,0,1,0,82,0,82,0,,,,,,,82,,,0.2,751.1175302388147,,Y,d,go,None,0,,,,,,,,,,,,,,,,,15,001,20,w,Psychologie,2023-01-11_13h32.44.947,00_bat_bachelor,2022.2.4,59.979556050055734,
,,,,,,,,,,,,1,0,1,0,83,0,83,0,,,,,,,83,,,0.2,752.1183413907129,,X,l,go,l,1,0.22980331713915803,,,,,,,,,,,,,,,,15,001,20,w,Psychologie,2023-01-11_13h32.44.947,00_bat_bachelor,2022.2.4,59.979556050055734,
,,,,,,,,,,,,1,0,1,0,84,0,84,0,,,,,,,84,,,0.2,752.6517554675229,,X,None,nogo,d,0,0.4143435278092511,,,,,,,,,,,,,,,,15,001,20,w,Psychologie,2023-01-11_13h32.44.947,00_bat_bachelor,2022.2.4,59.979556050055734,
,,,,,,,,,,,,1,0,1,0,85,0,85,0,,,,,,,85,,,0.2,753.3691783608228,,Y,d,go,None,0,,,,,,,,,,,,,,,,,15,001,20,w,Psychologie,2023-01-11_13h32.44.947,00_bat_bachelor,2022.2.4,59.979556050055734,
,,,,,,,,,,,,1,0,1,0,86,0,86,0,,,,,,,86,,,0.2,754.370081149129,,X,l,go,l,1,0.6321618152433075,,,,,,,,,,,,,,,,15,001,20,w,Psychologie,2023-01-11_13h32.44.947,00_bat_bachelor,2022.2.4,59.979556050055734,
,,,,,,,,,,,,1,0,1,0,87,0,87,0,,,,,,,87,,,0.2,755.3040578443906,,X,None,nogo,d,0,0.3390450670849532,,,,,,,,,,,,,,,,15,001,20,w,Psychologie,2023-01-11_13h32.44.947,00_bat_bachelor,2022.2.4,59.979556050055734,
,,,,,,,,,,,,1,0,1,0,88,0,88,0,,,,,,,88,,,0.2,755.9545779173786,,X,None,nogo,l,0,0.3604118652874604,,,,,,,,,,,,,,,,15,001,20,w,Psychologie,2023-01-11_13h32.44.947,00_bat_bachelor,2022.2.4,59.979556050055734,
,,,,,,,,,,,,1,0,1,0,89,0,89,0,,,,,,,89,,,0.2,756.6217947257392,,Y,d,go,None,0,,,,,,,,,,,,,,,,,15,001,20,w,Psychologie,2023-01-11_13h32.44.947,00_bat_bachelor,2022.2.4,59.979556050055734,
,,,,,,,,,,,,1,0,1,0,90,0,90,0,,,,,,,90,,,0.2,757.6224846654513,,X,l,go,l,1,0.24470902132452466,,,,,,,,,,,,,,,,15,001,20,w,Psychologie,2023-01-11_13h32.44.947,00_bat_bachelor,2022.2.4,59.979556050055734,
,,,,,,,,,,,,1,0,1,0,91,0,91,0,,,,,,,91,,,0.2,758.1729014171578,758.9732455627818,X,None,nogo,None,1,,,,,,,,,,,,,,,,,15,001,20,w,Psychologie,2023-01-11_13h32.44.947,00_bat_bachelor,2022.2.4,59.979556050055734,
,,,,,,,,,,,,1,0,1,0,92,0,92,0,,,,,,,92,,,0.2,759.1736970539205,,Y,d,go,d,1,0.2610978777811397,,,,,,,,,,,,,,,,15,001,20,w,Psychologie,2023-01-11_13h32.44.947,00_bat_bachelor,2022.2.4,59.979556050055734,
,,,,,,,,,,,,1,0,1,0,93,0,93,0,,,,,,,93,,,0.2,759.7407911470509,,X,l,go,l,1,0.2863919506489765,,,,,,,,,,,,,,,,15,001,20,w,Psychologie,2023-01-11_13h32.44.947,00_bat_bachelor,2022.2.4,59.979556050055734,
,,,,,,,,,,,,1,0,1,0,94,0,94,0,,,,,,,94,,,0.2,760.3412898624374,,X,None,nogo,d,0,0.2779473404807504,,,,,,,,,,,,,,,,15,001,20,w,Psychologie,2023-01-11_13h32.44.947,00_bat_bachelor,2022.2.4,59.979556050055734,
,,,,,,,,,,,,1,0,1,0,95,0,95,0,,,,,,,95,,,0.2,760.9250006909133,,Y,d,go,l,0,0.5730684532609303,,,,,,,,,,,,,,,,15,001,20,w,Psychologie,2023-01-11_13h32.44.947,00_bat_bachelor,2022.2.4,59.979556050055734,
,,,,,,,,,,,,1,0,1,0,96,0,96,0,,,,,,,96,,,0.2,761.8089191800973,,X,l,go,None,0,,,,,,,,,,,,,,,,,15,001,20,w,Psychologie,2023-01-11_13h32.44.947,00_bat_bachelor,2022.2.4,59.979556050055734,
,,,,,,,,,,,,1,0,1,0,97,0,97,0,,,,,,,97,,,0.2,762.8095145743282,,Y,d,go,l,0,0.6083586521854158,,,,,,,,,,,,,,,,15,001,20,w,Psychologie,2023-01-11_13h32.44.947,00_bat_bachelor,2022.2.4,59.979556050055734,
,,,,,,,,,,,,1,0,1,0,98,0,98,0,,,,,,,98,,,0.2,763.7271940495411,764.5274678920978,X,l,go,None,0,,,,,,,,,,,,,,,,,15,001,20,w,Psychologie,2023-01-11_13h32.44.947,00_bat_bachelor,2022.2.4,59.979556050055734,
,,,,,,,,,,,,1,0,1,0,99,0,99,0,,,,,,,99,,,0.2,764.7279867772013,,Y,d,go,d,1,0.41858692379901186,,,,,,,,,,,,,,,,15,001,20,w,Psychologie,2023-01-11_13h32.44.947,00_bat_bachelor,2022.2.4,59.979556050055734,
,,,,,,,,,,,,1,0,1,0,100,0,100,0,,,,,,,100,,,0.2,765.4615653147048,,Y,None,nogo,l,0,0.27724043105263263,,,,,,,,,,,,,,,,15,001,20,w,Psychologie,2023-01-11_13h32.44.947,00_bat_bachelor,2022.2.4,59.979556050055734,
,,,,,,,,,,,,1,0,1,0,101,0,101,0,,,,,,,101,,,0.2,766.0454923856887,,X,l,go,None,0,,,,,,,,,,,,,,,,,15,001,20,w,Psychologie,2023-01-11_13h32.44.947,00_bat_bachelor,2022.2.4,59.979556050055734,
,,,,,,,,,,,,1,0,1,0,102,0,102,0,,,,,,,102,,,0.2,767.0463646285352,,Y,d,go,d,1,0.1319094514765311,,,,,,,,,,,,,,,,15,001,20,w,Psychologie,2023-01-11_13h32.44.947,00_bat_bachelor,2022.2.4,59.979556050055734,
,,,,,,,,,,,,1,0,1,0,103,0,103,0,,,,,,,103,,,0.2,767.4798436265846,,X,l,go,l,1,0.32346105951000936,,,,,,,,,,,,,,,,15,001,20,w,Psychologie,2023-01-11_13h32.44.947,00_bat_bachelor,2022.2.4,59.979556050055734,
,,,,,,,,,,,,1,0,1,0,104,0,104,0,,,,,,,104,,,0.2,768.113810964278,,Y,d,go,d,1,0.3131012968951836,,,,,,,,,,,,,,,,15,001,20,w,Psychologie,2023-01-11_13h32.44.947,00_bat_bachelor,2022.2.4,59.979556050055734,
,,,,,,,,,,,,1,0,1,0,105,0,105,0,,,,,,,105,,,0.2,768.7309564756288,,Y,None,nogo,l,0,0.23926174596999772,,,,,,,,,,,,,,,,15,001,20,w,Psychologie,2023-01-11_13h32.44.947,00_bat_bachelor,2022.2.4,59.979556050055734,
,,,,,,,,,,,,1,0,1,0,106,0,106,0,,,,,,,106,,,0.2,769.2812762575923,,X,l,go,None,0,,,,,,,,,,,,,,,,,15,001,20,w,Psychologie,2023-01-11_13h32.44.947,00_bat_bachelor,2022.2.4,59.979556050055734,
,,,,,,,,,,,,1,0,1,0,107,0,107,0,,,,,,,107,,,0.2,770.2823128641467,,Y,d,go,d,1,0.06387450941838324,,,,,,,,,,,,,,,,15,001,20,w,Psychologie,2023-01-11_13h32.44.947,00_bat_bachelor,2022.2.4,59.979556050055734,
,,,,,,,,,,,,1,0,1,0,108,0,108,0,,,,,,,108,,,0.2,770.6494155875989,,X,l,go,l,1,0.5454834701959044,,,,,,,,,,,,,,,,15,001,20,w,Psychologie,2023-01-11_13h32.44.947,00_bat_bachelor,2022.2.4,59.979556050055734,
,,,,,,,,,,,,1,0,1,0,109,0,109,0,,,,,,,109,,,0.2,771.5002256970911,,Y,d,go,d,1,0.4135895880754106,,,,,,,,,,,,,,,,15,001,20,w,Psychologie,2023-01-11_13h32.44.947,00_bat_bachelor,2022.2.4,59.979556050055734,
,,,,,,,,,,,,1,0,1,0,110,0,110,0,,,,,,,110,,,0.2,772.233754779998,773.0346579562174,Y,None,nogo,None,1,,,,,,,,,,,,,,,,,15,001,20,w,Psychologie,2023-01-11_13h32.44.947,00_bat_bachelor,2022.2.4,59.979556050055734,
,,,,,,,,,,,,1,0,1,0,111,0,111,0,,,,,,,111,,,0.2,773.2347889623197,,Y,None,nogo,l,0,0.2806600690819323,,,,,,,,,,,,,,,,15,001,20,w,Psychologie,2023-01-11_13h32.44.947,00_bat_bachelor,2022.2.4,59.979556050055734,
,,,,,,,,,,,,1,0,1,0,112,0,112,0,,,,,,,112,,,0.2,773.8183708210418,774.6189845425542,X,l,go,None,0,,,,,,,,,,,,,,,,,15,001,20,w,Psychologie,2023-01-11_13h32.44.947,00_bat_bachelor,2022.2.4,59.979556050055734,
,,,,,,,,,,,,1,0,1,0,113,0,113,0,,,,,,,113,,,0.2,774.8187717909168,,Y,d,go,d,1,0.3604734411055688,,,,,,,,,,,,,,,,15,001,20,w,Psychologie,2023-01-11_13h32.44.947,00_bat_bachelor,2022.2.4,59.979556050055734,
,,,,,,,,,,,,1,0,1,0,114,0,114,0,,,,,,,114,,,0.2,775.486177690269,,X,l,go,l,1,0.30046226049307734,,,,,,,,,,,,,,,,15,001,20,w,Psychologie,2023-01-11_13h32.44.947,00_bat_bachelor,2022.2.4,59.979556050055734,
,,,,,,,,,,,,1,0,1,0,115,0,115,0,,,,,,,115,,,0.2,776.1030434439017,,Y,d,go,d,1,0.3077926882833708,,,,,,,,,,,,,,,,15,001,20,w,Psychologie,2023-01-11_13h32.44.947,00_bat_bachelor,2022.2.4,59.979556050055734,
,,,,,,,,,,,,1,0,1,0,116,0,116,0,,,,,,,116,,,0.2,776.7204599856923,,Y,None,nogo,l,0,0.45853748862282373,,,,,,,,,,,,,,,,15,001,20,w,Psychologie,2023-01-11_13h32.44.947,00_bat_bachelor,2022.2.4,59.979556050055734,
,,,,,,,,,,,,1,0,1,0,117,0,117,0,,,,,,,117,,,0.2,777.4877330849704,,X,l,go,None,0,,,,,,,,,,,,,,,,,15,001,20,w,Psychologie,2023-01-11_13h32.44.947,00_bat_bachelor,2022.2.4,59.979556050055734,
,,,,,,,,,,,,1,0,1,0,118,0,118,0,,,,,,,118,,,0.2,778.4884821762389,,Y,d,go,d,1,0.2579856338270474,,,,,,,,,,,,,,,,15,001,20,w,Psychologie,2023-01-11_13h32.44.947,00_bat_bachelor,2022.2.4,59.979556050055734,
,,,,,,,,,,,,1,0,1,0,119,0,119,0,,,,,,,119,,,0.2,779.0554569966043,,X,l,go,l,1,0.4122678904386703,,,,,,,,,,,,,,,,15,001,20,w,Psychologie,2023-01-11_13h32.44.947,00_bat_bachelor,2022.2.4,59.979556050055734,
,,,,,,,,,,,,1,0,1,0,120,0,120,0,,,,,,,120,,,0.2,779.7727407382918,780.5734747023089,Y,d,go,None,0,,,,,,,,,,,,,,,,,15,001,20,w,Psychologie,2023-01-11_13h32.44.947,00_bat_bachelor,2022.2.4,59.979556050055734,
,,,,,,,,,,,,1,0,1,0,121,0,121,0,,,,,,,121,,,0.2,780.7735421932302,,Y,None,nogo,d,0,0.27735970384674147,,,,,,,,,,,,,,,,15,001,20,w,Psychologie,2023-01-11_13h32.44.947,00_bat_bachelor,2022.2.4,59.979556050055734,
,,,,,,,,,,,,1,0,1,0,122,0,122,0,,,,,,,122,,,0.2,781.3572486580524,,X,l,go,l,1,0.6214306585316081,,,,,,,,,,,,,,,,15,001,20,w,Psychologie,2023-01-11_13h32.44.947,00_bat_bachelor,2022.2.4,59.979556050055734,
,,,,,,,,,,,,1,0,1,0,123,0,123,0,,,,,,,123,,,0.2,782.2913111715461,,Y,d,go,d,1,0.3749064177973196,,,,,,,,,,,,,,,,15,001,20,w,Psychologie,2023-01-11_13h32.44.947,00_bat_bachelor,2022.2.4,59.979556050055734,
,,,,,,,,,,,,1,0,1,0,124,0,124,0,,,,,,,124,,,0.2,782.975294048636,,X,l,go,l,1,0.4120986782654654,,,,,,,,,,,,,,,,15,001,20,w,Psychologie,2023-01-11_13h32.44.947,00_bat_bachelor,2022.2.4,59.979556050055734,
,,,,,,,,,,,,1,0,1,0,125,0,125,0,,,,,,,125,,,0.2,783.6924560933257,,Y,d,go,d,1,0.3669272624247242,,,,,,,,,,,,,,,,15,001,20,w,Psychologie,2023-01-11_13h32.44.947,00_bat_bachelor,2022.2.4,59.979556050055734,
,,,,,,,,,,,,1,0,1,0,126,0,126,0,,,,,,,126,,,0.2,784.3596239319595,,Y,None,nogo,l,0,0.32375051418785006,,,,,,,,,,,,,,,,15,001,20,w,Psychologie,2023-01-11_13h32.44.947,00_bat_bachelor,2022.2.4,59.979556050055734,
,,,,,,,,,,,,1,0,1,0,127,0,127,0,,,,,,,127,,,0.2,784.9934535725915,,Y,None,nogo,None,1,,,,,,,,,,,,,,,,,15,001,20,w,Psychologie,2023-01-11_13h32.44.947,00_bat_bachelor,2022.2.4,59.979556050055734,
,,,,,,,,,,,,1,0,1,0,128,0,128,0,,,,,,,128,,,0.2,785.9942036335706,,X,l,go,l,1,0.30503147482522763,,,,,,,,,,,,,,,,15,001,20,w,Psychologie,2023-01-11_13h32.44.947,00_bat_bachelor,2022.2.4,59.979556050055734,
,,,,,,,,,,,,1,0,1,0,129,0,129,0,,,,,,,129,,,0.2,786.6110713265953,,Y,d,go,d,1,0.5187852754315827,,,,,,,,,,,,,,,,15,001,20,w,Psychologie,2023-01-11_13h32.44.947,00_bat_bachelor,2022.2.4,59.979556050055734,
,,,,,,,,,,,,1,0,1,0,130,0,130,0,,,,,,,130,,,0.2,787.4450499127561,,X,l,go,l,1,0.50188829752733,,,,,,,,,,,,,,,,15,001,20,w,Psychologie,2023-01-11_13h32.44.947,00_bat_bachelor,2022.2.4,59.979556050055734,
,,,,,,,,,,,,1,0,1,0,131,0,131,0,,,,,,,131,,,0.2,788.2622469150228,,Y,d,go,d,1,0.3876244845450856,,,,,,,,,,,,,,,,15,001,20,w,Psychologie,2023-01-11_13h32.44.947,00_bat_bachelor,2022.2.4,59.979556050055734,
,,,,,,,,,,,,1,0,1,0,132,0,132,0,,,,,,,132,,,0.2,788.9629304062692,,X,l,go,l,1,0.5198199425940402,,,,,,,,,,,,,,,,15,001,20,w,Psychologie,2023-01-11_13h32.44.947,00_bat_bachelor,2022.2.4,59.979556050055734,
,,,,,,,,,,,,1,0,1,0,133,0,133,0,,,,,,,133,,,0.2,789.7969880227756,790.5973966532911,X,None,nogo,None,1,,,,,,,,,,,,,,,,,15,001,20,w,Psychologie,2023-01-11_13h32.44.947,00_bat_bachelor,2022.2.4,59.979556050055734,
,,,,,,,,,,,,1,0,1,0,134,0,134,0,,,,,,,134,,,0.2,790.7978394171514,,Y,d,go,d,1,0.2690387300972361,,,,,,,,,,,,,,,,15,001,20,w,Psychologie,2023-01-11_13h32.44.947,00_bat_bachelor,2022.2.4,59.979556050055734,
,,,,,,,,,,,,1,0,1,0,135,0,135,0,,,,,,,135,,,0.2,791.3815274577064,,X,l,go,l,1,0.37348726560594514,,,,,,,,,,,,,,,,15,001,20,w,Psychologie,2023-01-11_13h32.44.947,00_bat_bachelor,2022.2.4,59.979556050055734,
,,,,,,,,,,,,1,0,1,0,136,0,136,0,,,,,,,136,,,0.2,792.0651762740454,,Y,d,go,d,1,0.4250611087772995,,,,,,,,,,,,,,,,15,001,20,w,Psychologie,2023-01-11_13h32.44.947,00_bat_bachelor,2022.2.4,59.979556050055734,
,,,,,,,,,,,,1,0,1,0,137,0,137,0,,,,,,,137,,,0.2,792.7990054783004,,Y,None,nogo,l,0,0.34742567720240913,,,,,,,,,,,,,,,,15,001,20,w,Psychologie,2023-01-11_13h32.44.947,00_bat_bachelor,2022.2.4,59.979556050055734,
,,,,,,,,,,,,1,0,1,0,138,0,138,0,,,,,,,138,,,0.2,793.4495478543395,,X,l,go,l,1,0.5930466447898652,,,,,,,,,,,,,,,,15,001,20,w,Psychologie,2023-01-11_13h32.44.947,00_bat_bachelor,2022.2.4,59.979556050055734,
,,,,,,,,,,,,1,0,1,0,139,0,139,0,,,,,,,139,,,0.2,794.3503303516773,,Y,d,go,d,1,0.47714937647106126,,,,,,,,,,,,,,,,15,001,20,w,Psychologie,2023-01-11_13h32.44.947,00_bat_bachelor,2022.2.4,59.979556050055734,
,,,,,,,,,,,,1,0,1,0,140,0,140,0,,,,,,,140,,,0.2,795.1341295195743,,X,l,go,l,1,0.34779658645857126,,,,,,,,,,,,,,,,15,001,20,w,Psychologie,2023-01-11_13h32.44.947,00_bat_bachelor,2022.2.4,59.979556050055734,
,,,,,,,,,,,,1,0,1,0,141,0,141,0,,,,,,,141,,,0.2,795.7846602592326,,Y,d,go,None,0,,,,,,,,,,,,,,,,,15,001,20,w,Psychologie,2023-01-11_13h32.44.947,00_bat_bachelor,2022.2.4,59.979556050055734,
,,,,,,,,,,,,1,0,1,0,142,0,142,0,,,,,,,142,,,0.2,796.7858660779893,,X,l,go,l,1,0.5212560645013582,,,,,,,,,,,,,,,,15,001,20,w,Psychologie,2023-01-11_13h32.44.947,00_bat_bachelor,2022.2.4,59.979556050055734,
,,,,,,,,,,,,1,0,1,0,143,0,143,0,,,,,,,143,,,0.2,797.6194024821452,798.4202382643707,X,None,nogo,None,1,,,,,,,,,,,,,,,,,15,001,20,w,Psychologie,2023-01-11_13h32.44.947,00_bat_bachelor,2022.2.4,59.979556050055734,
,,,,,,,,,,,,1,0,1,0,144,0,144,0,,,,,,,144,,,0.2,798.6204885432671,,Y,d,go,d,1,0.3176952385401819,,,,,,,,,,,,,,,,15,001,20,w,Psychologie,2023-01-11_13h32.44.947,00_bat_bachelor,2022.2.4,59.979556050055734,
,,,,,,,,,,,,1,0,1,0,145,0,145,0,,,,,,,145,,,0.2,799.2542376990314,,X,l,go,l,1,0.30922784050926566,,,,,,,,,,,,,,,,15,001,20,w,Psychologie,2023-01-11_13h32.44.947,00_bat_bachelor,2022.2.4,59.979556050055734,
,,,,,,,,,,,,1,0,1,0,146,0,146,0,,,,,,,146,,,0.2,799.8710501193127,,Y,d,go,d,1,0.2834814037778415,,,,,,,,,,,,,,,,15,001,20,w,Psychologie,2023-01-11_13h32.44.947,00_bat_bachelor,2022.2.4,59.979556050055734,
,,,,,,,,,,,,1,0,1,0,147,0,147,0,,,,,,,147,,,0.2,800.4550780388236,,Y,None,nogo,None,1,,,,,,,,,,,,,,,,,15,001,20,w,Psychologie,2023-01-11_13h32.44.947,00_bat_bachelor,2022.2.4,59.979556050055734,
,,,,,,,,,,,,1,0,1,0,148,0,148,0,,,,,,,148,,,0.2,801.4559459180455,,X,l,go,l,1,0.28353522196994163,,,,,,,,,,,,,,,,15,001,20,w,Psychologie,2023-01-11_13h32.44.947,00_bat_bachelor,2022.2.4,59.979556050055734,
,,,,,,,,,,,,1,0,1,0,149,0,149,0,,,,,,,149,,,0.2,802.0397537162644,,Y,d,go,d,1,0.32237984688254073,,,,,,,,,,,,,,,,15,001,20,w,Psychologie,2023-01-11_13h32.44.947,00_bat_bachelor,2022.2.4,59.979556050055734,
,,,,,,,,,,,,1,0,1,0,150,0,150,0,,,,,,,150,,,0.2,802.6736061447882,803.4740947753307,Y,None,nogo,None,1,,,,,,,,,,,,,,,,,15,001,20,w,Psychologie,2023-01-11_13h32.44.947,00_bat_bachelor,2022.2.4,59.979556050055734,
,,,,,,,,,,,,1,0,1,0,151,0,151,0,,,,,,,151,,,0.2,803.6741370541276,,X,l,go,l,1,0.30435656537883915,,,,,,,,,,,,,,,,15,001,20,w,Psychologie,2023-01-11_13h32.44.947,00_bat_bachelor,2022.2.4,59.979556050055734,
,,,,,,,,,,,,1,0,1,0,152,0,152,0,,,,,,,152,,,0.2,804.2916306868719,,Y,d,go,d,1,0.24883556878194213,,,,,,,,,,,,,,,,15,001,20,w,Psychologie,2023-01-11_13h32.44.947,00_bat_bachelor,2022.2.4,59.979556050055734,
,,,,,,,,,,,,1,0,1,0,153,0,153,0,,,,,,,153,,,0.2,804.8418171354278,,X,l,go,None,0,,,,,,,,,,,,,,,,,15,001,20,w,Psychologie,2023-01-11_13h32.44.947,00_bat_bachelor,2022.2.4,59.979556050055734,
,,,,,,,,,,,,1,0,1,0,154,0,154,0,,,,,,,154,,,0.2,805.842697620712,,Y,d,go,d,1,0.4084104340290651,,,,,,,,,,,,,,,,15,001,20,w,Psychologie,2023-01-11_13h32.44.947,00_bat_bachelor,2022.2.4,59.979556050055734,
,,,,,,,,,,,,1,0,1,0,155,0,155,0,,,,,,,155,,,0.2,806.5598616047937,,X,l,go,l,1,0.5384313455433585,,,,,,,,,,,,,,,,15,001,20,w,Psychologie,2023-01-11_13h32.44.947,00_bat_bachelor,2022.2.4,59.979556050055734,
,,,,,,,,,,,,1,0,1,0,156,0,156,0,,,,,,,156,,,0.2,807.4102537746658,,X,None,nogo,None,1,,,,,,,,,,,,,,,,,15,001,20,w,Psychologie,2023-01-11_13h32.44.947,00_bat_bachelor,2022.2.4,59.979556050055734,
,,,,,,,,,,,,1,0,1,0,157,0,157,0,,,,,,,157,,,0.2,808.4113209267089,,Y,d,go,d,1,0.2554324204684235,,,,,,,,,,,,,,,,15,001,20,w,Psychologie,2023-01-11_13h32.44.947,00_bat_bachelor,2022.2.4,59.979556050055734,
,,,,,,,,,,,,1,0,1,0,158,0,158,0,,,,,,,158,,,0.2,808.9783524743689,,X,l,go,l,1,0.3610843504720833,,,,,,,,,,,,,,,,15,001,20,w,Psychologie,2023-01-11_13h32.44.947,00_bat_bachelor,2022.2.4,59.979556050055734,
,,,,,,,,,,,,1,0,1,0,159,0,159,0,,,,,,,159,,,0.2,809.6452337673982,,Y,d,go,d,1,0.5101365439477377,,,,,,,,,,,,,,,,15,001,20,w,Psychologie,2023-01-11_13h32.44.947,00_bat_bachelor,2022.2.4,59.979556050055734,
,,,,,,,,,,,,1,0,1,0,160,0,160,0,,,,,,,160,,,0.2,810.4625122242433,811.2631933397497,Y,None,nogo,None,1,,,,,,,,,,,,,,,,,15,001,20,w,Psychologie,2023-01-11_13h32.44.947,00_bat_bachelor,2022.2.4,59.979556050055734,
,,,,,,,,,,,,1,0,1,0,161,0,161,0,,,,,,,161,,,0.2,811.4634794974409,,Y,None,nogo,None,1,,,,,,,,,,,,,,,,,15,001,20,w,Psychologie,2023-01-11_13h32.44.947,00_bat_bachelor,2022.2.4,59.979556050055734,
,,,,,,,,,,,,1,0,1,0,162,0,162,0,,,,,,,162,,,0.2,812.4643459221115,,X,l,go,l,1,0.07469633282744326,,,,,,,,,,,,,,,,15,001,20,w,Psychologie,2023-01-11_13h32.44.947,00_bat_bachelor,2022.2.4,59.979556050055734,
,,,,,,,,,,,,1,0,1,0,163,0,163,0,,,,,,,163,,,0.2,812.8477977443836,,Y,d,go,d,1,0.36308823025319725,,,,,,,,,,,,,,,,15,001,20,w,Psychologie,2023-01-11_13h32.44.947,00_bat_bachelor,2022.2.4,59.979556050055734,
,,,,,,,,,,,,1,0,1,0,164,0,164,0,,,,,,,164,,,0.2,813.5151362497709,,X,l,go,l,1,0.6242936901981011,,,,,,,,,,,,,,,,15,001,20,w,Psychologie,2023-01-11_13h32.44.947,00_bat_bachelor,2022.2.4,59.979556050055734,
,,,,,,,,,,,,1,0,1,0,165,0,165,0,,,,,,,165,,,0.2,814.4488821570412,815.2497247271531,X,None,nogo,None,1,,,,,,,,,,,,,,,,,15,001,20,w,Psychologie,2023-01-11_13h32.44.947,00_bat_bachelor,2022.2.4,59.979556050055734,
,,,,,,,,,,,,1,0,1,0,166,0,166,0,,,,,,,166,,,0.2,815.4497214301664,,Y,d,go,d,1,0.3368215508526191,,,,,,,,,,,,,,,,15,001,20,w,Psychologie,2023-01-11_13h32.44.947,00_bat_bachelor,2022.2.4,59.979556050055734,
,,,,,,,,,,,,1,0,1,0,167,0,167,0,,,,,,,167,,,0.2,816.1005125335942,,X,l,go,l,1,0.3100574166455772,,,,,,,,,,,,,,,,15,001,20,w,Psychologie,2023-01-11_13h32.44.947,00_bat_bachelor,2022.2.4,59.979556050055734,
,,,,,,,,,,,,1,0,1,0,168,0,168,0,,,,,,,168,,,0.2,816.717629923718,,Y,d,go,None,0,,,,,,,,,,,,,,,,,15,001,20,w,Psychologie,2023-01-11_13h32.44.947,00_bat_bachelor,2022.2.4,59.979556050055734,
,,,,,,,,,,,,1,0,1,0,169,0,169,0,,,,,,,169,,,0.2,817.7183494392084,,X,l,go,l,1,0.5963872524444014,,,,,,,,,,,,,,,,15,001,20,w,Psychologie,2023-01-11_13h32.44.947,00_bat_bachelor,2022.2.4,59.979556050055734,
,,,,,,,,,,,,1,0,1,0,170,0,170,0,,,,,,,170,,,0.2,818.6191382395918,,X,None,nogo,None,1,,,,,,,,,,,,,,,,,15,001,20,w,Psychologie,2023-01-11_13h32.44.947,00_bat_bachelor,2022.2.4,59.979556050055734,
,,,,,,,,,,,,1,0,1,0,171,0,171,0,,,,,,,171,,,0.2,819.6195644216205,,Y,d,go,d,1,0.42378935057786293,,,,,,,,,,,,,,,,15,001,20,w,Psychologie,2023-01-11_13h32.44.947,00_bat_bachelor,2022.2.4,59.979556050055734,
,,,,,,,,,,,,1,0,1,0,172,0,172,0,,,,,,,172,,,0.2,820.3534522925911,,X,l,go,l,1,0.29880650210543536,,,,,,,,,,,,,,,,15,001,20,w,Psychologie,2023-01-11_13h32.44.947,00_bat_bachelor,2022.2.4,59.979556050055734,
,,,,,,,,,,,,1,0,1,0,173,0,173,0,,,,,,,173,,,0.2,820.9542472505418,,Y,d,go,d,1,0.43201723336824216,,,,,,,,,,,,,,,,15,001,20,w,Psychologie,2023-01-11_13h32.44.947,00_bat_bachelor,2022.2.4,59.979556050055734,
,,,,,,,,,,,,1,0,1,0,174,0,174,0,,,,,,,174,,,0.2,821.6880822730018,,Y,None,nogo,l,0,0.24214853523881175,,,,,,,,,,,,,,,,15,001,20,w,Psychologie,2023-01-11_13h32.44.947,00_bat_bachelor,2022.2.4,59.979556050055734,
,,,,,,,,,,,,1,0,1,0,175,0,175,0,,,,,,,175,,,0.2,822.2386439944967,823.0389144431101,X,l,go,None,0,,,,,,,,,,,,,,,,,15,001,20,w,Psychologie,2023-01-11_13h32.44.947,00_bat_bachelor,2022.2.4,59.979556050055734,
,,,,,,,,,,,,1,0,1,0,176,0,176,0,,,,,,,176,,,0.2,823.239270419057,,Y,d,go,d,1,0.35559392359573394,,,,,,,,,,,,,,,,15,001,20,w,Psychologie,2023-01-11_13h32.44.947,00_bat_bachelor,2022.2.4,59.979556050055734,
,,,,,,,,,,,,1,0,1,0,177,0,177,0,,,,,,,177,,,0.2,823.9063383788452,,Y,None,nogo,None,1,,,,,,,,,,,,,,,,,15,001,20,w,Psychologie,2023-01-11_13h32.44.947,00_bat_bachelor,2022.2.4,59.979556050055734,
,,,,,,,,,,,,1,0,1,0,178,0,178,0,,,,,,,178,,,0.2,824.9072305004811,,X,l,go,l,1,0.2876704967056867,,,,,,,,,,,,,,,,15,001,20,w,Psychologie,2023-01-11_13h32.44.947,00_bat_bachelor,2022.2.4,59.979556050055734,
,,,,,,,,,,,,1,0,1,0,179,0,179,0,,,,,,,179,,,0.2,825.5076070340001,,Y,d,go,d,1,0.2966823798487894,,,,,,,,,,,,,,,,15,001,20,w,Psychologie,2023-01-11_13h32.44.947,00_bat_bachelor,2022.2.4,59.979556050055734,
,,,,,,,,,,,,1,0,1,0,180,0,180,0,,,,,,,180,,,0.2,826.1079103553493,,X,l,go,l,1,0.2863604354497511,,,,,,,,,,,,,,,,15,001,20,w,Psychologie,2023-01-11_13h32.44.947,00_bat_bachelor,2022.2.4,59.979556050055734,
,,,,,,,,,,,,1,0,1,0,181,0,181,0,,,,,,,181,,,0.2,826.7082340403576,,X,None,nogo,d,0,0.29334565097815357,,,,,,,,,,,,,,,,15,001,20,w,Psychologie,2023-01-11_13h32.44.947,00_bat_bachelor,2022.2.4,59.979556050055734,
,,,,,,,,,,,,1,0,1,0,182,0,182,0,,,,,,,182,,,0.2,827.3091545741481,,Y,d,go,None,0,,,,,,,,,,,,,,,,,15,001,20,w,Psychologie,2023-01-11_13h32.44.947,00_bat_bachelor,2022.2.4,59.979556050055734,
,,,,,,,,,,,,1,0,1,0,183,0,183,0,,,,,,,183,,,0.2,828.3097504532197,,X,l,go,l,1,0.24544162774691358,,,,,,,,,,,,,,,,15,001,20,w,Psychologie,2023-01-11_13h32.44.947,00_bat_bachelor,2022.2.4,59.979556050055734,
,,,,,,,,,,,,1,0,1,0,184,0,184,0,,,,,,,184,,,0.2,828.860257386812,,X,None,nogo,d,0,0.2538304803019855,,,,,,,,,,,,,,,,15,001,20,w,Psychologie,2023-01-11_13h32.44.947,00_bat_bachelor,2022.2.4,59.979556050055734,
,,,,,,,,,,,,1,0,1,0,185,0,185,0,,,,,,,185,,,0.2,829.4272525708075,,Y,d,go,None,0,,,,,,,,,,,,,,,,,15,001,20,w,Psychologie,2023-01-11_13h32.44.947,00_bat_bachelor,2022.2.4,59.979556050055734,
,,,,,,,,,,,,1,0,1,0,186,0,186,0,,,,,,,186,,,0.2,830.4279876014625,,X,l,go,None,0,,,,,,,,,,,,,,,,,15,001,20,w,Psychologie,2023-01-11_13h32.44.947,00_bat_bachelor,2022.2.4,59.979556050055734,
,,,,,,,,,,,,1,0,1,0,187,0,187,0,,,,,,,187,,,0.2,831.4285020259558,,X,None,nogo,l,0,0.3272099098248873,,,,,,,,,,,,,,,,15,001,20,w,Psychologie,2023-01-11_13h32.44.947,00_bat_bachelor,2022.2.4,59.979556050055734,
,,,,,,,,,,,,1,0,1,0,188,0,188,0,,,,,,,188,,,0.2,832.0626739697764,,Y,d,go,None,0,,,,,,,,,,,,,,,,,15,001,20,w,Psychologie,2023-01-11_13h32.44.947,00_bat_bachelor,2022.2.4,59.979556050055734,
,,,,,,,,,,,,1,0,1,0,189,0,189,0,,,,,,,189,,,0.2,833.0634123943746,,X,l,go,None,0,,,,,,,,,,,,,,,,,15,001,20,w,Psychologie,2023-01-11_13h32.44.947,00_bat_bachelor,2022.2.4,59.979556050055734,
,,,,,,,,,,,,1,0,1,0,190,0,190,0,,,,,,,190,,,0.2,834.0643418493855,,Y,d,go,l,0,0.25048356960178353,,,,,,,,,,,,,,,,15,001,20,w,Psychologie,2023-01-11_13h32.44.947,00_bat_bachelor,2022.2.4,59.979556050055734,
,,,,,,,,,,,,1,0,1,0,191,0,191,0,,,,,,,191,,,0.2,834.6145990858786,835.4153160801507,X,l,go,None,0,,,,,,,,,,,,,,,,,15,001,20,w,Psychologie,2023-01-11_13h32.44.947,00_bat_bachelor,2022.2.4,59.979556050055734,
,,,,,,,,,,,,1,0,1,0,192,0,192,0,,,,,,,192,,,0.2,835.6154233287089,,X,None,nogo,d,0,0.23450780427083373,,,,,,,,,,,,,,,,15,001,20,w,Psychologie,2023-01-11_13h32.44.947,00_bat_bachelor,2022.2.4,59.979556050055734,
,,,,,,,,,,,,1,0,1,0,193,0,193,0,,,,,,,193,,,0.2,836.1656175348617,,Y,d,go,d,1,0.5325864942278713,,,,,,,,,,,,,,,,15,001,20,w,Psychologie,2023-01-11_13h32.44.947,00_bat_bachelor,2022.2.4,59.979556050055734,
,,,,,,,,,,,,1,0,1,0,194,0,194,0,,,,,,,194,,,0.2,836.999912242376,,X,l,go,l,1,0.370452597446274,,,,,,,,,,,,,,,,15,001,20,w,Psychologie,2023-01-11_13h32.44.947,00_bat_bachelor,2022.2.4,59.979556050055734,
,,,,,,,,,,,,1,0,1,0,195,0,195,0,,,,,,,195,,,0.2,837.6836415435828,,Y,d,go,d,1,0.2796394625038374,,,,,,,,,,,,,,,,15,001,20,w,Psychologie,2023-01-11_13h32.44.947,00_bat_bachelor,2022.2.4,59.979556050055734,
,,,,,,,,,,,,1,0,1,0,196,0,196,0,,,,,,,196,,,0.2,838.2674139478477,,X,l,go,l,1,0.27189885269035585,,,,,,,,,,,,,,,,15,001,20,w,Psychologie,2023-01-11_13h32.44.947,00_bat_bachelor,2022.2.4,59.979556050055734,
,,,,,,,,,,,,1,0,1,0,197,0,197,0,,,,,,,197,,,0.2,838.8511737460212,,Y,d,go,d,1,0.23196331816143356,,,,,,,,,,,,,,,,15,001,20,w,Psychologie,2023-01-11_13h32.44.947,00_bat_bachelor,2022.2.4,59.979556050055734,
,,,,,,,,,,,,1,0,1,0,198,0,198,0,,,,,,,198,,,0.2,839.3849364290654,,X,l,go,l,1,0.29094710436766036,,,,,,,,,,,,,,,,15,001,20,w,Psychologie,2023-01-11_13h32.44.947,00_bat_bachelor,2022.2.4,59.979556050055734,
,,,,,,,,,,,,1,0,1,0,199,0,199,0,,,,,,,199,,,0.2,839.9851020533824,,X,None,nogo,d,0,0.28110273595666513,,,,,,,,,,,,,,,,15,001,20,w,Psychologie,2023-01-11_13h32.44.947,00_bat_bachelor,2022.2.4,59.979556050055734,
,,,,,,,,,,,,1,0,1,0,200,0,200,0,,,,,,,200,,,0.2,840.569098942593,,Y,d,go,None,0,,,,,,,,,,,,,,,,,15,001,20,w,Psychologie,2023-01-11_13h32.44.947,00_bat_bachelor,2022.2.4,59.979556050055734,
