loop_instruction.thisRepN,loop_instruction.thisTrialN,loop_instruction.thisN,loop_instruction.thisIndex,loop_rsi_practice.thisRepN,loop_rsi_practice.thisTrialN,loop_rsi_practice.thisN,loop_rsi_practice.thisIndex,loop_practice.thisRepN,loop_practice.thisTrialN,loop_practice.thisN,loop_practice.thisIndex,loop_exp.thisRepN,loop_exp.thisTrialN,loop_exp.thisN,loop_exp.thisIndex,loop_trials.thisRepN,loop_trials.thisTrialN,loop_trials.thisN,loop_trials.thisIndex,map_condition,map_x_key,map_y_key,key_resp_welcome.started,key_resp_welcome.keys,key_resp_welcome.rt,index,text_empty_rsi_practice.started,text_empty_rsi_practice.stopped,rsi,stimulus.started,stimulus,correct,trial_type,key_resp_trial.keys,key_resp_trial.corr,key_resp_trial.rt,stimulus.stopped,key_resp_instruction_rsi.started,key_resp_instruction_rsi.keys,key_resp_instruction_rsi.rt,key_resp_instruction_rsi.stopped,key_resp_instruction_final.started,key_resp_instruction_final.keys,key_resp_instruction_final.rt,key_resp_break.started,key_resp_break.keys,key_resp_break.rt,key_resp_break.stopped,key_resp_end_screen.started,image_end_screen.started,key_resp_end_screen.stopped,image_end_screen.stopped,key_resp_end_screen.keys,participant,session,Alter,Geschlecht (w/m/d/andere),Studiengang,date,expName,psychopyVersion,frameRate,
,,,,0,0,0,0,0,0,0,0,,,,,,,,,1,l,d,711.2943523421322,j,14.462187578622235,0,725.7944199784631,726.8071816692453,1,726.8071816692453,X,l,go,None,0,,,,,,,,,,,,,,,,,,,17,001,20,w,Psychologie,2023-01-16_09h01.55.821,00_bat_bachelor,2022.2.4,60.03024067386146,
,,,,0,0,0,0,1,0,1,0,,,,,,,,,,,,,,,1,728.204624870485,729.2054389306963,1,729.2054389306963,Y,d,go,d,1,0.659814149469895,,,,,,,,,,,,,,,,,,17,001,20,w,Psychologie,2023-01-16_09h01.55.821,00_bat_bachelor,2022.2.4,60.03024067386146,
,,,,0,0,0,0,2,0,2,0,,,,,,,,,,,,,,,2,730.5898780170288,731.5903677137611,1,731.5903677137611,X,l,go,l,1,0.5304319091704031,,,,,,,,,,,,,,,,,,17,001,20,w,Psychologie,2023-01-16_09h01.55.821,00_bat_bachelor,2022.2.4,60.03024067386146,
,,,,0,0,0,0,3,0,3,0,,,,,,,,,,,,,,,3,732.841439107181,733.8423530461318,1,733.8423530461318,X,None,nogo,None,1,,734.6426319308451,,,,,,,,,,,,,,,,,17,001,20,w,Psychologie,2023-01-16_09h01.55.821,00_bat_bachelor,2022.2.4,60.03024067386146,
,,,,0,0,0,0,4,0,4,0,,,,,,,,,,,,,,,4,735.2432852153769,736.2441913967557,1,736.2441913967557,Y,d,go,d,1,0.27684172909292215,,,,,,,,,,,,,,,,,,17,001,20,w,Psychologie,2023-01-16_09h01.55.821,00_bat_bachelor,2022.2.4,60.03024067386146,
,,,,0,0,0,0,5,0,5,0,,,,,,,,,,,,,,,5,737.2447000025697,738.2455712748746,1,738.2455712748746,X,l,go,l,1,0.4996610149986793,,,,,,,,,,,,,,,,,,17,001,20,w,Psychologie,2023-01-16_09h01.55.821,00_bat_bachelor,2022.2.4,60.03024067386146,
,,,,0,0,0,0,6,0,6,0,,,,,,,,,,,,,,,6,739.462909836165,740.4634441389362,1,740.4634441389362,X,None,nogo,None,1,,741.2642141749265,,,,,,,,,,,,,,,,,17,001,20,w,Psychologie,2023-01-16_09h01.55.821,00_bat_bachelor,2022.2.4,60.03024067386146,
,,,,0,0,0,0,7,0,7,0,,,,,,,,,,,,,,,7,741.8646783686409,742.8652849138012,1,742.8652849138012,Y,d,go,d,1,0.32750546210459675,,,,,,,,,,,,,,,,,,17,001,20,w,Psychologie,2023-01-16_09h01.55.821,00_bat_bachelor,2022.2.4,60.03024067386146,
,,,,0,0,0,0,8,0,8,0,,,,,,,,,,,,,,,8,743.8996194426088,744.9003743513337,1,744.9003743513337,X,l,go,l,1,0.4364644395790549,,,,,,,,,,,,,,,,,,17,001,20,w,Psychologie,2023-01-16_09h01.55.821,00_bat_bachelor,2022.2.4,60.03024067386146,
,,,,0,0,0,0,9,0,9,0,,,,,,,,,,,,,,,9,746.0679063913182,747.0684731789221,1,747.0684731789221,X,None,nogo,None,1,,747.8692829724689,,,,,,,,,,,,,,,,,17,001,20,w,Psychologie,2023-01-16_09h01.55.821,00_bat_bachelor,2022.2.4,60.03024067386146,
,,,,0,0,0,0,10,0,10,0,,,,,,,,,,,,,,,10,748.4696991662065,749.4704249840364,1,749.4704249840364,Y,d,go,d,1,0.33111952095831043,,,,,,,,,,,,,,,,,,17,001,20,w,Psychologie,2023-01-16_09h01.55.821,00_bat_bachelor,2022.2.4,60.03024067386146,
,,,,0,0,0,0,11,0,11,0,,,,,,,,,,,,,,,11,750.5045859371704,751.5053568458876,1,751.5053568458876,X,l,go,l,1,0.3755539236567813,,,,,,,,,,,,,,,,,,17,001,20,w,Psychologie,2023-01-16_09h01.55.821,00_bat_bachelor,2022.2.4,60.03024067386146,
,,,,0,0,0,0,12,0,12,0,,,,,,,,,,,,,,,12,752.5893800778764,753.5903774107261,1,753.5903774107261,X,None,nogo,None,1,,754.3907169014706,,,,,,,,,,,,,,,,,17,001,20,w,Psychologie,2023-01-16_09h01.55.821,00_bat_bachelor,2022.2.4,60.03024067386146,
,,,,0,0,0,0,13,0,13,0,,,,,,,,,,,,,,,13,754.9908518832234,755.9921590341047,1,755.9921590341047,Y,d,go,d,1,0.25773434441785525,,,,,,,,,,,,,,,,,,17,001,20,w,Psychologie,2023-01-16_09h01.55.821,00_bat_bachelor,2022.2.4,60.03024067386146,
,,,,0,0,0,0,14,0,14,0,,,,,,,,,,,,,,,14,756.9591520198051,757.9600552920945,1,757.9600552920945,X,l,go,l,1,0.4179301455350526,,,,,,,,,,,,,,,,,,17,001,20,w,Psychologie,2023-01-16_09h01.55.821,00_bat_bachelor,2022.2.4,60.03024067386146,
,,,,1,0,1,0,0,0,0,0,,,,,,,,,,,,,,,0,775.2066966270562,775.4065617422731,0.2,775.4065617422731,X,l,go,l,1,0.44314128482668025,,759.116829519113,j,16.06493346819994,,,,,,,,,,,,,,17,001,20,w,Psychologie,2023-01-16_09h01.55.821,00_bat_bachelor,2022.2.4,60.03024067386146,
,,,,1,0,1,0,1,0,1,0,,,,,,,,,,,,,,,1,776.5576171841856,776.7577824204692,0.2,776.7577824204692,Y,d,go,d,1,0.3412281221177693,,,,,,,,,,,,,,,,,,17,001,20,w,Psychologie,2023-01-16_09h01.55.821,00_bat_bachelor,2022.2.4,60.03024067386146,
,,,,1,0,1,0,2,0,2,0,,,,,,,,,,,,,,,2,777.808815607847,778.0091190258817,0.2,778.0091190258817,X,l,go,l,1,0.3368896999789115,,,,,,,,,,,,,,,,,,17,001,20,w,Psychologie,2023-01-16_09h01.55.821,00_bat_bachelor,2022.2.4,60.03024067386146,
,,,,1,0,1,0,3,0,3,0,,,,,,,,,,,,,,,3,779.0597890619205,779.259954298204,0.2,779.259954298204,Y,d,go,d,1,0.3010705658305426,,,,,,,,,,,,,,,,,,17,001,20,w,Psychologie,2023-01-16_09h01.55.821,00_bat_bachelor,2022.2.4,60.03024067386146,
,,,,1,0,1,0,4,0,4,0,,,,,,,,,,,,,,,4,780.2775518654295,780.4775648593625,0.2,780.4775648593625,Y,None,nogo,None,1,,,,,,,,,,,,,,,,,,,17,001,20,w,Psychologie,2023-01-16_09h01.55.821,00_bat_bachelor,2022.2.4,60.03024067386146,
,,,,1,0,1,0,5,0,5,0,,,,,,,,,,,,,,,5,781.8786269679384,782.0787519618173,0.2,782.0787519618173,Y,None,nogo,d,0,0.5071334962242702,,,,,,,,,,,,,,,,,,17,001,20,w,Psychologie,2023-01-16_09h01.55.821,00_bat_bachelor,2022.2.4,60.03024067386146,
,,,,1,0,1,0,6,0,6,0,,,,,,,,,,,,,,,6,783.7131419572645,783.913342102622,0.2,783.913342102622,X,l,go,l,1,0.638981189873931,,,,,,,,,,,,,,,,,,17,001,20,w,Psychologie,2023-01-16_09h01.55.821,00_bat_bachelor,2022.2.4,60.03024067386146,
,,,,1,0,1,0,7,0,7,0,,,,,,,,,,,,,,,7,785.2810039849678,785.4811992818428,0.2,785.4811992818428,Y,d,go,d,1,0.38441210118006097,,,,,,,,,,,,,,,,,,17,001,20,w,Psychologie,2023-01-16_09h01.55.821,00_bat_bachelor,2022.2.4,60.03024067386146,
,,,,1,0,1,0,8,0,8,0,,,,,,,,,,,,,,,8,786.5820176572036,786.7821426510824,0.2,786.7821426510824,X,l,go,l,1,0.34760484629887856,,,,,,,,,,,,,,,,,,17,001,20,w,Psychologie,2023-01-16_09h01.55.821,00_bat_bachelor,2022.2.4,60.03024067386146,
,,,,1,0,1,0,9,0,9,0,,,,,,,,,,,,,,,9,787.8331802020945,788.0330521051869,0.2,788.0330521051869,X,None,nogo,None,1,,788.8337077169903,,,,,,,,,,,,,,,,,17,001,20,w,Psychologie,2023-01-16_09h01.55.821,00_bat_bachelor,2022.2.4,60.03024067386146,
,,,,1,0,1,0,10,0,10,0,,,,,,,,,,,,,,,10,789.4341830622143,789.6347516922416,0.2,789.6347516922416,Y,d,go,d,1,0.37570228722111665,,,,,,,,,,,,,,,,,,17,001,20,w,Psychologie,2023-01-16_09h01.55.821,00_bat_bachelor,2022.2.4,60.03024067386146,
,,,,1,0,1,0,11,0,11,0,,,,,,,,,,,,,,,11,790.7186735909462,790.9188945847784,0.2,790.9188945847784,X,l,go,l,1,0.3057158969116074,,,,,,,,,,,,,,,,,,17,001,20,w,Psychologie,2023-01-16_09h01.55.821,00_bat_bachelor,2022.2.4,60.03024067386146,
,,,,1,0,1,0,12,0,12,0,,,,,,,,,,,,,,,12,791.9530812348697,792.1529298652462,0.2,792.1529298652462,Y,d,go,d,1,0.3845362223320592,,,,,,,,,,,,,,,,,,17,001,20,w,Psychologie,2023-01-16_09h01.55.821,00_bat_bachelor,2022.2.4,60.03024067386146,
,,,,1,0,1,0,13,0,13,0,,,,,,,,,,,,,,,13,793.2538665435799,793.4541748100971,0.2,793.4541748100971,Y,None,nogo,None,1,,794.2545273917443,,,,,,,,,,,,,,,,,17,001,20,w,Psychologie,2023-01-16_09h01.55.821,00_bat_bachelor,2022.2.4,60.03024067386146,
,,,,1,0,1,0,14,0,14,0,,,,,,,,,,,,,,,14,794.8551026157079,795.0552974277346,0.2,795.0552974277346,X,l,go,l,1,0.4586937621343452,,,,,,,,,,,,,,,,,,17,001,20,w,Psychologie,2023-01-16_09h01.55.821,00_bat_bachelor,2022.2.4,60.03024067386146,
,,,,,,,,,,,,,,,,,,,,,,,,,,,,,,,,,,,,,,796.2727140495932,None,,796.2727140495932,796.2727140495932,space,5.580612733325239,,,,,,,,,,17,001,20,w,Psychologie,2023-01-16_09h01.55.821,00_bat_bachelor,2022.2.4,60.03024067386146,
,,,,,,,,,,,,0,0,0,0,0,0,0,0,,,,,,,0,,,1,802.8777552107854,X,l,go,None,0,,,,,,,,,,,,,,,,,,,17,001,20,w,Psychologie,2023-01-16_09h01.55.821,00_bat_bachelor,2022.2.4,60.03024067386146,
,,,,,,,,,,,,0,0,0,0,1,0,1,0,,,,,,,1,,,1,804.6790731252979,Y,d,go,d,1,0.46566151633183495,,,,,,,,,,,,,,,,,,17,001,20,w,Psychologie,2023-01-16_09h01.55.821,00_bat_bachelor,2022.2.4,60.03024067386146,
,,,,,,,,,,,,0,0,0,0,2,0,2,0,,,,,,,2,,,1,806.2471208498808,X,l,go,l,1,0.41837378168364125,,,,,,,,,,,,,,,,,,17,001,20,w,Psychologie,2023-01-16_09h01.55.821,00_bat_bachelor,2022.2.4,60.03024067386146,
,,,,,,,,,,,,0,0,0,0,3,0,3,0,,,,,,,3,,,1,807.798271128111,Y,d,go,d,1,0.29193699450129884,,,,,,,,,,,,,,,,,,17,001,20,w,Psychologie,2023-01-16_09h01.55.821,00_bat_bachelor,2022.2.4,60.03024067386146,
,,,,,,,,,,,,0,0,0,0,4,0,4,0,,,,,,,4,,,1,809.199110206492,Y,None,nogo,None,1,,809.9993992730185,,,,,,,,,,,,,,,,,17,001,20,w,Psychologie,2023-01-16_09h01.55.821,00_bat_bachelor,2022.2.4,60.03024067386146,
,,,,,,,,,,,,0,0,0,0,5,0,5,0,,,,,,,5,,,1,811.000502787635,X,l,go,l,1,0.3691151388997298,,,,,,,,,,,,,,,,,,17,001,20,w,Psychologie,2023-01-16_09h01.55.821,00_bat_bachelor,2022.2.4,60.03024067386146,
,,,,,,,,,,,,0,0,0,0,6,0,6,0,,,,,,,6,,,1,812.4849680072882,Y,d,go,d,1,0.3890200989458492,,,,,,,,,,,,,,,,,,17,001,20,w,Psychologie,2023-01-16_09h01.55.821,00_bat_bachelor,2022.2.4,60.03024067386146,
,,,,,,,,,,,,0,0,0,0,7,0,7,0,,,,,,,7,,,1,813.9860635219086,Y,None,nogo,None,1,,,,,,,,,,,,,,,,,,,17,001,20,w,Psychologie,2023-01-16_09h01.55.821,00_bat_bachelor,2022.2.4,60.03024067386146,
,,,,,,,,,,,,0,0,0,0,8,0,8,0,,,,,,,8,,,1,815.7871962243897,X,l,go,l,1,0.2543893763426297,,,,,,,,,,,,,,,,,,17,001,20,w,Psychologie,2023-01-16_09h01.55.821,00_bat_bachelor,2022.2.4,60.03024067386146,
,,,,,,,,,,,,0,0,0,0,9,0,9,0,,,,,,,9,,,1,817.1551228338799,Y,d,go,d,1,0.42232820400866444,,,,,,,,,,,,,,,,,,17,001,20,w,Psychologie,2023-01-16_09h01.55.821,00_bat_bachelor,2022.2.4,60.03024067386146,
,,,,,,,,,,,,0,0,0,0,10,0,10,0,,,,,,,10,,,1,818.6897417261858,X,l,go,l,1,0.3123175906805784,,,,,,,,,,,,,,,,,,17,001,20,w,Psychologie,2023-01-16_09h01.55.821,00_bat_bachelor,2022.2.4,60.03024067386146,
,,,,,,,,,,,,0,0,0,0,11,0,11,0,,,,,,,11,,,1,820.1074714630441,Y,d,go,d,1,0.2545653762572613,,,,,,,,,,,,,,,,,,17,001,20,w,Psychologie,2023-01-16_09h01.55.821,00_bat_bachelor,2022.2.4,60.03024067386146,
,,,,,,,,,,,,0,0,0,0,12,0,12,0,,,,,,,12,,,1,821.4751207393355,X,l,go,l,1,0.5496876574100327,,,,,,,,,,,,,,,,,,17,001,20,w,Psychologie,2023-01-16_09h01.55.821,00_bat_bachelor,2022.2.4,60.03024067386146,
,,,,,,,,,,,,0,0,0,0,13,0,13,0,,,,,,,13,,,1,823.1264154538592,Y,d,go,d,1,0.307604380844424,,,,,,,,,,,,,,,,,,17,001,20,w,Psychologie,2023-01-16_09h01.55.821,00_bat_bachelor,2022.2.4,60.03024067386146,
,,,,,,,,,,,,0,0,0,0,14,0,14,0,,,,,,,14,,,1,824.5442222815892,Y,None,nogo,l,0,0.36257889964466017,,,,,,,,,,,,,,,,,,17,001,20,w,Psychologie,2023-01-16_09h01.55.821,00_bat_bachelor,2022.2.4,60.03024067386146,
,,,,,,,,,,,,0,0,0,0,15,0,15,0,,,,,,,15,,,1,826.0115951458932,X,l,go,None,0,,,,,,,,,,,,,,,,,,,17,001,20,w,Psychologie,2023-01-16_09h01.55.821,00_bat_bachelor,2022.2.4,60.03024067386146,
,,,,,,,,,,,,0,0,0,0,16,0,16,0,,,,,,,16,,,1,827.8130013027873,Y,d,go,d,1,0.29273263047915066,,,,,,,,,,,,,,,,,,17,001,20,w,Psychologie,2023-01-16_09h01.55.821,00_bat_bachelor,2022.2.4,60.03024067386146,
,,,,,,,,,,,,0,0,0,0,17,0,17,0,,,,,,,17,,,1,829.2307591608441,X,l,go,l,1,0.33103855130050874,,,,,,,,,,,,,,,,,,17,001,20,w,Psychologie,2023-01-16_09h01.55.821,00_bat_bachelor,2022.2.4,60.03024067386146,
,,,,,,,,,,,,0,0,0,0,18,0,18,0,,,,,,,18,,,1,830.6652661016892,Y,d,go,d,1,0.25716610226893977,,,,,,,,,,,,,,,,,,17,001,20,w,Psychologie,2023-01-16_09h01.55.821,00_bat_bachelor,2022.2.4,60.03024067386146,
,,,,,,,,,,,,0,0,0,0,19,0,19,0,,,,,,,19,,,1,832.0328945295057,Y,None,nogo,None,1,,,,,,,,,,,,,,,,,,,17,001,20,w,Psychologie,2023-01-16_09h01.55.821,00_bat_bachelor,2022.2.4,60.03024067386146,
,,,,,,,,,,,,0,0,0,0,20,0,20,0,,,,,,,20,,,1,833.8346502619878,X,l,go,l,1,0.4319306235952638,,,,,,,,,,,,,,,,,,17,001,20,w,Psychologie,2023-01-16_09h01.55.821,00_bat_bachelor,2022.2.4,60.03024067386146,
,,,,,,,,,,,,0,0,0,0,21,0,21,0,,,,,,,21,,,1,835.3691910937256,Y,d,go,d,1,0.2398114440167376,,,,,,,,,,,,,,,,,,17,001,20,w,Psychologie,2023-01-16_09h01.55.821,00_bat_bachelor,2022.2.4,60.03024067386146,
,,,,,,,,,,,,0,0,0,0,22,0,22,0,,,,,,,22,,,1,836.7198003782786,Y,None,nogo,None,1,,837.5203798689067,,,,,,,,,,,,,,,,,17,001,20,w,Psychologie,2023-01-16_09h01.55.821,00_bat_bachelor,2022.2.4,60.03024067386146,
,,,,,,,,,,,,0,0,0,0,23,0,23,0,,,,,,,23,,,1,838.5212506563633,X,l,go,l,1,0.25627204209641263,,,,,,,,,,,,,,,,,,17,001,20,w,Psychologie,2023-01-16_09h01.55.821,00_bat_bachelor,2022.2.4,60.03024067386146,
,,,,,,,,,,,,0,0,0,0,24,0,24,0,,,,,,,24,,,1,839.8892373870365,Y,d,go,d,1,0.36068944601530006,,,,,,,,,,,,,,,,,,17,001,20,w,Psychologie,2023-01-16_09h01.55.821,00_bat_bachelor,2022.2.4,60.03024067386146,
,,,,,,,,,,,,0,0,0,0,25,0,25,0,,,,,,,25,,,1,841.3566543725312,X,l,go,l,1,0.30112195974496103,,,,,,,,,,,,,,,,,,17,001,20,w,Psychologie,2023-01-16_09h01.55.821,00_bat_bachelor,2022.2.4,60.03024067386146,
,,,,,,,,,,,,0,0,0,0,26,0,26,0,,,,,,,26,,,1,842.774412230588,Y,d,go,d,1,0.27486500277873915,,,,,,,,,,,,,,,,,,17,001,20,w,Psychologie,2023-01-16_09h01.55.821,00_bat_bachelor,2022.2.4,60.03024067386146,
,,,,,,,,,,,,0,0,0,0,27,0,27,0,,,,,,,27,,,1,844.1591630743451,X,l,go,l,1,0.2505202873094561,,,,,,,,,,,,,,,,,,17,001,20,w,Psychologie,2023-01-16_09h01.55.821,00_bat_bachelor,2022.2.4,60.03024067386146,
,,,,,,,,,,,,0,0,0,0,28,0,28,0,,,,,,,28,,,1,845.5265587750018,X,None,nogo,None,1,,846.3270985080735,,,,,,,,,,,,,,,,,17,001,20,w,Psychologie,2023-01-16_09h01.55.821,00_bat_bachelor,2022.2.4,60.03024067386146,
,,,,,,,,,,,,0,0,0,0,29,0,29,0,,,,,,,29,,,1,847.327858750129,Y,d,go,d,1,0.2973095979571383,,,,,,,,,,,,,,,,,,17,001,20,w,Psychologie,2023-01-16_09h01.55.821,00_bat_bachelor,2022.2.4,60.03024067386146,
,,,,,,,,,,,,0,0,0,0,30,0,30,0,,,,,,,30,,,1,848.729048858643,X,l,go,l,1,0.36843247256436484,,,,,,,,,,,,,,,,,,17,001,20,w,Psychologie,2023-01-16_09h01.55.821,00_bat_bachelor,2022.2.4,60.03024067386146,
,,,,,,,,,,,,0,0,0,0,31,0,31,0,,,,,,,31,,,1,850.2133846238135,X,None,nogo,None,1,,,,,,,,,,,,,,,,,,,17,001,20,w,Psychologie,2023-01-16_09h01.55.821,00_bat_bachelor,2022.2.4,60.03024067386146,
,,,,,,,,,,,,0,0,0,0,32,0,32,0,,,,,,,32,,,1,852.0151151441867,Y,d,go,d,1,0.281714454003378,,,,,,,,,,,,,,,,,,17,001,20,w,Psychologie,2023-01-16_09h01.55.821,00_bat_bachelor,2022.2.4,60.03024067386146,
,,,,,,,,,,,,0,0,0,0,33,0,33,0,,,,,,,33,,,1,853.3994984729704,X,l,go,l,1,0.33849891131970367,,,,,,,,,,,,,,,,,,17,001,20,w,Psychologie,2023-01-16_09h01.55.821,00_bat_bachelor,2022.2.4,60.03024067386146,
,,,,,,,,,,,,0,0,0,0,34,0,34,0,,,,,,,34,,,1,854.8506318299967,X,None,nogo,None,1,,,,,,,,,,,,,,,,,,,17,001,20,w,Psychologie,2023-01-16_09h01.55.821,00_bat_bachelor,2022.2.4,60.03024067386146,
,,,,,,,,,,,,0,0,0,0,35,0,35,0,,,,,,,35,,,1,856.6520011384237,Y,d,go,d,1,0.2534177404500326,,,,,,,,,,,,,,,,,,17,001,20,w,Psychologie,2023-01-16_09h01.55.821,00_bat_bachelor,2022.2.4,60.03024067386146,
,,,,,,,,,,,,0,0,0,0,36,0,36,0,,,,,,,36,,,1,858.0196508995632,X,l,go,l,1,0.3257648568879006,,,,,,,,,,,,,,,,,,17,001,20,w,Psychologie,2023-01-16_09h01.55.821,00_bat_bachelor,2022.2.4,60.03024067386146,
,,,,,,,,,,,,0,0,0,0,37,0,37,0,,,,,,,37,,,1,859.4541534767741,Y,d,go,d,1,0.4123262694641028,,,,,,,,,,,,,,,,,,17,001,20,w,Psychologie,2023-01-16_09h01.55.821,00_bat_bachelor,2022.2.4,60.03024067386146,
,,,,,,,,,,,,0,0,0,0,38,0,38,0,,,,,,,38,,,1,860.9715941955908,Y,None,nogo,None,1,,,,,,,,,,,,,,,,,,,17,001,20,w,Psychologie,2023-01-16_09h01.55.821,00_bat_bachelor,2022.2.4,60.03024067386146,
,,,,,,,,,,,,0,0,0,0,39,0,39,0,,,,,,,39,,,1,862.7740054429064,X,l,go,l,1,0.2608747065317232,,,,,,,,,,,,,,,,,,17,001,20,w,Psychologie,2023-01-16_09h01.55.821,00_bat_bachelor,2022.2.4,60.03024067386146,
,,,,,,,,,,,,0,0,0,0,40,0,40,0,,,,,,,40,,,1,864.14064574999,Y,d,go,d,1,0.36492217123580417,,,,,,,,,,,,,,,,,,17,001,20,w,Psychologie,2023-01-16_09h01.55.821,00_bat_bachelor,2022.2.4,60.03024067386146,
,,,,,,,,,,,,0,0,0,0,41,0,41,0,,,,,,,41,,,1,865.6087187351668,X,l,go,l,1,0.3050089881633369,,,,,,,,,,,,,,,,,,17,001,20,w,Psychologie,2023-01-16_09h01.55.821,00_bat_bachelor,2022.2.4,60.03024067386146,
,,,,,,,,,,,,0,0,0,0,42,0,42,0,,,,,,,42,,,1,867.0266787749435,Y,d,go,d,1,0.4083228774657357,,,,,,,,,,,,,,,,,,17,001,20,w,Psychologie,2023-01-16_09h01.55.821,00_bat_bachelor,2022.2.4,60.03024067386146,
,,,,,,,,,,,,0,0,0,0,43,0,43,0,,,,,,,43,,,1,868.5442964633714,X,l,go,l,1,0.26538088616510436,,,,,,,,,,,,,,,,,,17,001,20,w,Psychologie,2023-01-16_09h01.55.821,00_bat_bachelor,2022.2.4,60.03024067386146,
,,,,,,,,,,,,0,0,0,0,44,0,44,0,,,,,,,44,,,1,869.9117527700594,X,None,nogo,None,1,,,,,,,,,,,,,,,,,,,17,001,20,w,Psychologie,2023-01-16_09h01.55.821,00_bat_bachelor,2022.2.4,60.03024067386146,
,,,,,,,,,,,,0,0,0,0,45,0,45,0,,,,,,,45,,,1,871.7134813510393,Y,d,go,d,1,0.24843689438037586,,,,,,,,,,,,,,,,,,17,001,20,w,Psychologie,2023-01-16_09h01.55.821,00_bat_bachelor,2022.2.4,60.03024067386146,
,,,,,,,,,,,,0,0,0,0,46,0,46,0,,,,,,,46,,,1,873.0641250598183,X,l,go,l,1,0.5293429400014986,,,,,,,,,,,,,,,,,,17,001,20,w,Psychologie,2023-01-16_09h01.55.821,00_bat_bachelor,2022.2.4,60.03024067386146,
,,,,,,,,,,,,0,0,0,0,47,0,47,0,,,,,,,47,,,1,874.6990251156242,Y,d,go,d,1,0.4311863815319441,,,,,,,,,,,,,,,,,,17,001,20,w,Psychologie,2023-01-16_09h01.55.821,00_bat_bachelor,2022.2.4,60.03024067386146,
,,,,,,,,,,,,0,0,0,0,48,0,48,0,,,,,,,48,,,1,876.2332503111513,X,l,go,l,1,0.2570075568915229,,,,,,,,,,,,,,,,,,17,001,20,w,Psychologie,2023-01-16_09h01.55.821,00_bat_bachelor,2022.2.4,60.03024067386146,
,,,,,,,,,,,,0,0,0,0,49,0,49,0,,,,,,,49,,,1,877.601040193435,Y,d,go,d,1,0.37721986224303805,,,,,,,,,,,,,,,,,,17,001,20,w,Psychologie,2023-01-16_09h01.55.821,00_bat_bachelor,2022.2.4,60.03024067386146,
,,,,,,,,,,,,0,0,0,0,50,0,50,0,,,,,,,50,,,1,879.0853662616407,Y,None,nogo,l,0,0.23563205210373894,,,,,,,,,,,,,,,,,,17,001,20,w,Psychologie,2023-01-16_09h01.55.821,00_bat_bachelor,2022.2.4,60.03024067386146,
,,,,,,,,,,,,0,0,0,0,51,0,51,0,,,,,,,51,,,1,880.4367610003583,X,l,go,l,1,0.5654830436911027,,,,,,,,,,,,,,,,,,17,001,20,w,Psychologie,2023-01-16_09h01.55.821,00_bat_bachelor,2022.2.4,60.03024067386146,
,,,,,,,,,,,,0,0,0,0,52,0,52,0,,,,,,,52,,,1,882.1046695250088,Y,d,go,d,1,0.35295805582453,,,,,,,,,,,,,,,,,,17,001,20,w,Psychologie,2023-01-16_09h01.55.821,00_bat_bachelor,2022.2.4,60.03024067386146,
,,,,,,,,,,,,0,0,0,0,53,0,53,0,,,,,,,53,,,1,883.5729238434308,X,l,go,l,1,0.340312243774207,,,,,,,,,,,,,,,,,,17,001,20,w,Psychologie,2023-01-16_09h01.55.821,00_bat_bachelor,2022.2.4,60.03024067386146,
,,,,,,,,,,,,0,0,0,0,54,0,54,0,,,,,,,54,,,1,885.040205556264,Y,d,go,d,1,0.29867590032498015,,,,,,,,,,,,,,,,,,17,001,20,w,Psychologie,2023-01-16_09h01.55.821,00_bat_bachelor,2022.2.4,60.03024067386146,
,,,,,,,,,,,,0,0,0,0,55,0,55,0,,,,,,,55,,,1,886.4412487557581,X,l,go,l,1,0.39963633622281236,,,,,,,,,,,,,,,,,,17,001,20,w,Psychologie,2023-01-16_09h01.55.821,00_bat_bachelor,2022.2.4,60.03024067386146,
,,,,,,,,,,,,0,0,0,0,56,0,56,0,,,,,,,56,,,1,887.9425469369469,X,None,nogo,None,1,,888.7430469124622,,,,,,,,,,,,,,,,,17,001,20,w,Psychologie,2023-01-16_09h01.55.821,00_bat_bachelor,2022.2.4,60.03024067386146,
,,,,,,,,,,,,0,0,0,0,57,0,57,0,,,,,,,57,,,1,889.7439923665493,Y,d,go,d,1,0.36180071820379567,,,,,,,,,,,,,,,,,,17,001,20,w,Psychologie,2023-01-16_09h01.55.821,00_bat_bachelor,2022.2.4,60.03024067386146,
,,,,,,,,,,,,0,0,0,0,58,0,58,0,,,,,,,58,,,1,891.2117875336787,X,l,go,l,1,0.3010982021808388,,,,,,,,,,,,,,,,,,17,001,20,w,Psychologie,2023-01-16_09h01.55.821,00_bat_bachelor,2022.2.4,60.03024067386146,
,,,,,,,,,,,,0,0,0,0,59,0,59,0,,,,,,,59,,,1,892.6294707251052,X,None,nogo,None,1,,893.4298907006591,,,,,,,,,,,,,,,,,17,001,20,w,Psychologie,2023-01-16_09h01.55.821,00_bat_bachelor,2022.2.4,60.03024067386146,
,,,,,,,,,,,,0,0,0,0,60,0,60,0,,,,,,,60,,,1,894.4307236699522,Y,d,go,d,1,0.2509862264776359,,,,,,,,,,,,,,,,,,17,001,20,w,Psychologie,2023-01-16_09h01.55.821,00_bat_bachelor,2022.2.4,60.03024067386146,
,,,,,,,,,,,,0,0,0,0,61,0,61,0,,,,,,,61,,,1,895.7987472490922,X,l,go,l,1,0.27516415414882545,,,,,,,,,,,,,,,,,,17,001,20,w,Psychologie,2023-01-16_09h01.55.821,00_bat_bachelor,2022.2.4,60.03024067386146,
,,,,,,,,,,,,0,0,0,0,62,0,62,0,,,,,,,62,,,1,897.1829797900705,Y,d,go,d,1,0.3148489833927499,,,,,,,,,,,,,,,,,,17,001,20,w,Psychologie,2023-01-16_09h01.55.821,00_bat_bachelor,2022.2.4,60.03024067386146,
,,,,,,,,,,,,0,0,0,0,63,0,63,0,,,,,,,63,,,1,898.6004864967338,X,l,go,l,1,0.3210463137211548,,,,,,,,,,,,,,,,,,17,001,20,w,Psychologie,2023-01-16_09h01.55.821,00_bat_bachelor,2022.2.4,60.03024067386146,
,,,,,,,,,,,,0,0,0,0,64,0,64,0,,,,,,,64,,,1,900.0351248314546,X,None,nogo,None,1,,,,,,,,,,,,,,,,,,,17,001,20,w,Psychologie,2023-01-16_09h01.55.821,00_bat_bachelor,2022.2.4,60.03024067386146,
,,,,,,,,,,,,0,0,0,0,65,0,65,0,,,,,,,65,,,1,901.8364102611345,Y,d,go,d,1,0.26851591494803984,,,,,,,,,,,,,,,,,,17,001,20,w,Psychologie,2023-01-16_09h01.55.821,00_bat_bachelor,2022.2.4,60.03024067386146,
,,,,,,,,,,,,0,0,0,0,66,0,66,0,,,,,,,66,,,1,903.2208580747356,X,l,go,l,1,0.32410861526662416,,,,,,,,,,,,,,,,,,17,001,20,w,Psychologie,2023-01-16_09h01.55.821,00_bat_bachelor,2022.2.4,60.03024067386146,
,,,,,,,,,,,,0,0,0,0,67,0,67,0,,,,,,,67,,,1,904.6551119247943,Y,d,go,d,1,0.3633750204708406,,,,,,,,,,,,,,,,,,17,001,20,w,Psychologie,2023-01-16_09h01.55.821,00_bat_bachelor,2022.2.4,60.03024067386146,
,,,,,,,,,,,,0,0,0,0,68,0,68,0,,,,,,,68,,,1,906.122922607068,Y,None,nogo,l,0,0.2547069519464742,,,,,,,,,,,,,,,,,,17,001,20,w,Psychologie,2023-01-16_09h01.55.821,00_bat_bachelor,2022.2.4,60.03024067386146,
,,,,,,,,,,,,0,0,0,0,69,0,69,0,,,,,,,69,,,1,907.490763883266,X,l,go,l,1,0.2629037964568681,,,,,,,,,,,,,,,,,,17,001,20,w,Psychologie,2023-01-16_09h01.55.821,00_bat_bachelor,2022.2.4,60.03024067386146,
,,,,,,,,,,,,0,0,0,0,70,0,70,0,,,,,,,70,,,1,908.8583287959618,Y,d,go,d,1,0.3030560194133898,,,,,,,,,,,,,,,,,,17,001,20,w,Psychologie,2023-01-16_09h01.55.821,00_bat_bachelor,2022.2.4,60.03024067386146,
,,,,,,,,,,,,0,0,0,0,71,0,71,0,,,,,,,71,,,1,910.276283502408,X,l,go,l,1,0.3094797738747559,,,,,,,,,,,,,,,,,,17,001,20,w,Psychologie,2023-01-16_09h01.55.821,00_bat_bachelor,2022.2.4,60.03024067386146,
,,,,,,,,,,,,0,0,0,0,72,0,72,0,,,,,,,72,,,1,911.6941504513211,X,None,nogo,None,1,,912.494630548058,,,,,,,,,,,,,,,,,17,001,20,w,Psychologie,2023-01-16_09h01.55.821,00_bat_bachelor,2022.2.4,60.03024067386146,
,,,,,,,,,,,,0,0,0,0,73,0,73,0,,,,,,,73,,,1,913.4953461840746,Y,d,go,d,1,0.354589570185027,,,,,,,,,,,,,,,,,,17,001,20,w,Psychologie,2023-01-16_09h01.55.821,00_bat_bachelor,2022.2.4,60.03024067386146,
,,,,,,,,,,,,0,0,0,0,74,0,74,0,,,,,,,74,,,1,914.9631709269474,X,l,go,l,1,0.3435835149150819,,,,,,,,,,,,,,,,,,17,001,20,w,Psychologie,2023-01-16_09h01.55.821,00_bat_bachelor,2022.2.4,60.03024067386146,
,,,,,,,,,,,,0,0,0,0,75,0,75,0,,,,,,,75,,,1,916.4141268295143,Y,d,go,d,1,0.3795849520054446,,,,,,,,,,,,,,,,,,17,001,20,w,Psychologie,2023-01-16_09h01.55.821,00_bat_bachelor,2022.2.4,60.03024067386146,
,,,,,,,,,,,,0,0,0,0,76,0,76,0,,,,,,,76,,,1,917.898736533946,Y,None,nogo,None,1,,918.6991739640368,,,,,,,,,,,,,,,,,17,001,20,w,Psychologie,2023-01-16_09h01.55.821,00_bat_bachelor,2022.2.4,60.03024067386146,
,,,,,,,,,,,,0,0,0,0,77,0,77,0,,,,,,,77,,,1,919.7000937211667,X,l,go,l,1,0.29389384203753366,,,,,,,,,,,,,,,,,,17,001,20,w,Psychologie,2023-01-16_09h01.55.821,00_bat_bachelor,2022.2.4,60.03024067386146,
,,,,,,,,,,,,0,0,0,0,78,0,78,0,,,,,,,78,,,1,921.1010913449254,Y,d,go,d,1,0.36498520150828995,,,,,,,,,,,,,,,,,,17,001,20,w,Psychologie,2023-01-16_09h01.55.821,00_bat_bachelor,2022.2.4,60.03024067386146,
,,,,,,,,,,,,0,0,0,0,79,0,79,0,,,,,,,79,,,1,922.5690295422887,Y,None,nogo,None,1,,923.3695857602008,,,,,,,,,,,,,,,,,17,001,20,w,Psychologie,2023-01-16_09h01.55.821,00_bat_bachelor,2022.2.4,60.03024067386146,
,,,,,,,,,,,,0,0,0,0,80,0,80,0,,,,,,,80,,,1,924.3703333962021,X,l,go,l,1,0.2799185760859757,,,,,,,,,,,,,,,,,,17,001,20,w,Psychologie,2023-01-16_09h01.55.821,00_bat_bachelor,2022.2.4,60.03024067386146,
,,,,,,,,,,,,0,0,0,0,81,0,81,0,,,,,,,81,,,1,925.7545140584175,Y,d,go,d,1,0.3986598518479525,,,,,,,,,,,,,,,,,,17,001,20,w,Psychologie,2023-01-16_09h01.55.821,00_bat_bachelor,2022.2.4,60.03024067386146,
,,,,,,,,,,,,0,0,0,0,82,0,82,0,,,,,,,82,,,1,927.2555780579016,Y,None,nogo,l,0,0.3533498132103716,,,,,,,,,,,,,,,,,,17,001,20,w,Psychologie,2023-01-16_09h01.55.821,00_bat_bachelor,2022.2.4,60.03024067386146,
,,,,,,,,,,,,0,0,0,0,83,0,83,0,,,,,,,83,,,1,928.7234895886111,X,l,go,l,1,0.2452916837837904,,,,,,,,,,,,,,,,,,17,001,20,w,Psychologie,2023-01-16_09h01.55.821,00_bat_bachelor,2022.2.4,60.03024067386146,
,,,,,,,,,,,,0,0,0,0,84,0,84,0,,,,,,,84,,,1,930.0745880850482,Y,d,go,d,1,0.6548977882173688,,,,,,,,,,,,,,,,,,17,001,20,w,Psychologie,2023-01-16_09h01.55.821,00_bat_bachelor,2022.2.4,60.03024067386146,
,,,,,,,,,,,,0,0,0,0,85,0,85,0,,,,,,,85,,,1,931.8423865006612,X,l,go,l,1,0.5342224527871906,,,,,,,,,,,,,,,,,,17,001,20,w,Psychologie,2023-01-16_09h01.55.821,00_bat_bachelor,2022.2.4,60.03024067386146,
,,,,,,,,,,,,0,0,0,0,86,0,86,0,,,,,,,86,,,1,933.4934940637604,X,None,nogo,None,1,,,,,,,,,,,,,,,,,,,17,001,20,w,Psychologie,2023-01-16_09h01.55.821,00_bat_bachelor,2022.2.4,60.03024067386146,
,,,,,,,,,,,,0,0,0,0,87,0,87,0,,,,,,,87,,,1,935.2952279780714,Y,d,go,d,1,0.2344310829892322,,,,,,,,,,,,,,,,,,17,001,20,w,Psychologie,2023-01-16_09h01.55.821,00_bat_bachelor,2022.2.4,60.03024067386146,
,,,,,,,,,,,,0,0,0,0,88,0,88,0,,,,,,,88,,,1,936.6461504745937,X,l,go,l,1,0.3871000998767897,,,,,,,,,,,,,,,,,,17,001,20,w,Psychologie,2023-01-16_09h01.55.821,00_bat_bachelor,2022.2.4,60.03024067386146,
,,,,,,,,,,,,0,0,0,0,89,0,89,0,,,,,,,89,,,1,938.1470990801945,X,None,nogo,None,1,,938.9480305706518,,,,,,,,,,,,,,,,,17,001,20,w,Psychologie,2023-01-16_09h01.55.821,00_bat_bachelor,2022.2.4,60.03024067386146,
,,,,,,,,,,,,0,0,0,0,90,0,90,0,,,,,,,90,,,1,939.9487563884818,Y,d,go,d,1,0.2522516804095005,,,,,,,,,,,,,,,,,,17,001,20,w,Psychologie,2023-01-16_09h01.55.821,00_bat_bachelor,2022.2.4,60.03024067386146,
,,,,,,,,,,,,0,0,0,0,91,0,91,0,,,,,,,91,,,1,941.3164817859483,X,l,go,l,1,0.5004256206887305,,,,,,,,,,,,,,,,,,17,001,20,w,Psychologie,2023-01-16_09h01.55.821,00_bat_bachelor,2022.2.4,60.03024067386146,
,,,,,,,,,,,,0,0,0,0,92,0,92,0,,,,,,,92,,,1,942.9175908278348,X,None,nogo,None,1,,,,,,,,,,,,,,,,,,,17,001,20,w,Psychologie,2023-01-16_09h01.55.821,00_bat_bachelor,2022.2.4,60.03024067386146,
,,,,,,,,,,,,0,0,0,0,93,0,93,0,,,,,,,93,,,1,944.719032378651,Y,d,go,d,1,0.26629482511569336,,,,,,,,,,,,,,,,,,17,001,20,w,Psychologie,2023-01-16_09h01.55.821,00_bat_bachelor,2022.2.4,60.03024067386146,
,,,,,,,,,,,,0,0,0,0,94,0,94,0,,,,,,,94,,,1,946.0864266247629,X,l,go,l,1,0.4506845538965365,,,,,,,,,,,,,,,,,,17,001,20,w,Psychologie,2023-01-16_09h01.55.821,00_bat_bachelor,2022.2.4,60.03024067386146,
,,,,,,,,,,,,0,0,0,0,95,0,95,0,,,,,,,95,,,1,947.6544598038984,X,None,nogo,None,1,,,,,,,,,,,,,,,,,,,17,001,20,w,Psychologie,2023-01-16_09h01.55.821,00_bat_bachelor,2022.2.4,60.03024067386146,
,,,,,,,,,,,,0,0,0,0,96,0,96,0,,,,,,,96,,,1,949.4560211122323,Y,d,go,d,1,0.24919131825689078,,,,,,,,,,,,,,,,,,17,001,20,w,Psychologie,2023-01-16_09h01.55.821,00_bat_bachelor,2022.2.4,60.03024067386146,
,,,,,,,,,,,,0,0,0,0,97,0,97,0,,,,,,,97,,,1,950.8070783965682,X,l,go,l,1,0.48232332643513587,,,,,,,,,,,,,,,,,,17,001,20,w,Psychologie,2023-01-16_09h01.55.821,00_bat_bachelor,2022.2.4,60.03024067386146,
,,,,,,,,,,,,0,0,0,0,98,0,98,0,,,,,,,98,,,1,952.3912032042651,X,None,nogo,None,1,,,,,,,,,,,,,,,,,,,17,001,20,w,Psychologie,2023-01-16_09h01.55.821,00_bat_bachelor,2022.2.4,60.03024067386146,
,,,,,,,,,,,,0,0,0,0,99,0,99,0,,,,,,,99,,,1,954.1929618458366,Y,d,go,d,1,0.2643050078986846,,,,,,,,,,,,,,,,,,17,001,20,w,Psychologie,2023-01-16_09h01.55.821,00_bat_bachelor,2022.2.4,60.03024067386146,
,,,,,,,,,,,,0,0,0,0,100,0,100,0,,,,,,,100,,,1,955.5606654251319,X,l,go,l,1,0.4325551081410879,,,,,,,,,,,,,,,,,,17,001,20,w,Psychologie,2023-01-16_09h01.55.821,00_bat_bachelor,2022.2.4,60.03024067386146,
,,,,,,,,,,,,0,0,0,0,101,0,101,0,,,,,,,101,,,1,957.0951960750565,X,None,nogo,None,1,,,,,,,,,,,,,,,,,,,17,001,20,w,Psychologie,2023-01-16_09h01.55.821,00_bat_bachelor,2022.2.4,60.03024067386146,
,,,,,,,,,,,,0,0,0,0,102,0,102,0,,,,,,,102,,,1,958.8962119291093,Y,d,go,d,1,0.31322959023830776,,,,,,,,,,,,,,,,,,17,001,20,w,Psychologie,2023-01-16_09h01.55.821,00_bat_bachelor,2022.2.4,60.03024067386146,
,,,,,,,,,,,,0,0,0,0,103,0,103,0,,,,,,,103,,,1,960.3143213021472,X,l,go,l,1,0.3675645941969208,,,,,,,,,,,,,,,,,,17,001,20,w,Psychologie,2023-01-16_09h01.55.821,00_bat_bachelor,2022.2.4,60.03024067386146,
,,,,,,,,,,,,0,0,0,0,104,0,104,0,,,,,,,104,,,1,961.7986779157925,Y,d,go,d,1,0.2753319116432351,,,,,,,,,,,,,,,,,,17,001,20,w,Psychologie,2023-01-16_09h01.55.821,00_bat_bachelor,2022.2.4,60.03024067386146,
,,,,,,,,,,,,0,0,0,0,105,0,105,0,,,,,,,105,,,1,963.1827897295566,Y,None,nogo,None,1,,,,,,,,,,,,,,,,,,,17,001,20,w,Psychologie,2023-01-16_09h01.55.821,00_bat_bachelor,2022.2.4,60.03024067386146,
,,,,,,,,,,,,0,0,0,0,106,0,106,0,,,,,,,106,,,1,964.9844577045053,X,l,go,l,1,0.30502789724531,,,,,,,,,,,,,,,,,,17,001,20,w,Psychologie,2023-01-16_09h01.55.821,00_bat_bachelor,2022.2.4,60.03024067386146,
,,,,,,,,,,,,0,0,0,0,107,0,107,0,,,,,,,107,,,1,966.4022664716283,Y,d,go,d,1,0.4387277112089407,,,,,,,,,,,,,,,,,,17,001,20,w,Psychologie,2023-01-16_09h01.55.821,00_bat_bachelor,2022.2.4,60.03024067386146,
,,,,,,,,,,,,0,0,0,0,108,0,108,0,,,,,,,108,,,1,967.9532940832514,Y,None,nogo,None,1,,,,,,,,,,,,,,,,,,,17,001,20,w,Psychologie,2023-01-16_09h01.55.821,00_bat_bachelor,2022.2.4,60.03024067386146,
,,,,,,,,,,,,0,0,0,0,109,0,109,0,,,,,,,109,,,1,969.754664846223,X,l,go,l,1,0.23913023222579,,,,,,,,,,,,,,,,,,17,001,20,w,Psychologie,2023-01-16_09h01.55.821,00_bat_bachelor,2022.2.4,60.03024067386146,
,,,,,,,,,,,,0,0,0,0,110,0,110,0,,,,,,,110,,,1,971.1058923122946,Y,d,go,d,1,0.3272829167579232,,,,,,,,,,,,,,,,,,17,001,20,w,Psychologie,2023-01-16_09h01.55.821,00_bat_bachelor,2022.2.4,60.03024067386146,
,,,,,,,,,,,,0,0,0,0,111,0,111,0,,,,,,,111,,,1,972.5399037382285,X,l,go,l,1,0.3489968456240433,,,,,,,,,,,,,,,,,,17,001,20,w,Psychologie,2023-01-16_09h01.55.821,00_bat_bachelor,2022.2.4,60.03024067386146,
,,,,,,,,,,,,0,0,0,0,112,0,112,0,,,,,,,112,,,1,973.9910269134416,Y,d,go,d,1,0.33813575998081546,,,,,,,,,,,,,,,,,,17,001,20,w,Psychologie,2023-01-16_09h01.55.821,00_bat_bachelor,2022.2.4,60.03024067386146,
,,,,,,,,,,,,0,0,0,0,113,0,113,0,,,,,,,113,,,1,975.4422727552617,Y,None,nogo,None,1,,,,,,,,,,,,,,,,,,,17,001,20,w,Psychologie,2023-01-16_09h01.55.821,00_bat_bachelor,2022.2.4,60.03024067386146,
,,,,,,,,,,,,0,0,0,0,114,0,114,0,,,,,,,114,,,1,977.2436997606305,X,l,go,l,1,0.3168635278703107,,,,,,,,,,,,,,,,,,17,001,20,w,Psychologie,2023-01-16_09h01.55.821,00_bat_bachelor,2022.2.4,60.03024067386146,
,,,,,,,,,,,,0,0,0,0,115,0,115,0,,,,,,,115,,,1,978.6615521640958,Y,d,go,None,0,,979.4622286243741,,,,,,,,,,,,,,,,,17,001,20,w,Psychologie,2023-01-16_09h01.55.821,00_bat_bachelor,2022.2.4,60.03024067386146,
,,,,,,,,,,,,0,0,0,0,116,0,116,0,,,,,,,116,,,1,980.4627478968496,X,l,go,l,1,0.4427073456429582,,,,,,,,,,,,,,,,,,17,001,20,w,Psychologie,2023-01-16_09h01.55.821,00_bat_bachelor,2022.2.4,60.03024067386146,
,,,,,,,,,,,,0,0,0,0,117,0,117,0,,,,,,,117,,,1,982.0137978114919,X,None,nogo,None,1,,,,,,,,,,,,,,,,,,,17,001,20,w,Psychologie,2023-01-16_09h01.55.821,00_bat_bachelor,2022.2.4,60.03024067386146,
,,,,,,,,,,,,0,0,0,0,118,0,118,0,,,,,,,118,,,1,983.815353786495,Y,d,go,d,1,0.258459192551328,,,,,,,,,,,,,,,,,,17,001,20,w,Psychologie,2023-01-16_09h01.55.821,00_bat_bachelor,2022.2.4,60.03024067386146,
,,,,,,,,,,,,0,0,0,0,119,0,119,0,,,,,,,119,,,1,985.1833555474641,X,l,go,l,1,0.36162859707522443,,,,,,,,,,,,,,,,,,17,001,20,w,Psychologie,2023-01-16_09h01.55.821,00_bat_bachelor,2022.2.4,60.03024067386146,
,,,,,,,,,,,,0,0,0,0,120,0,120,0,,,,,,,120,,,1,986.6510299873794,Y,d,go,d,1,0.3180489818410308,,,,,,,,,,,,,,,,,,17,001,20,w,Psychologie,2023-01-16_09h01.55.821,00_bat_bachelor,2022.2.4,60.03024067386146,
,,,,,,,,,,,,0,0,0,0,121,0,121,0,,,,,,,121,,,1,988.0854768070415,X,l,go,l,1,0.37210277381498713,,,,,,,,,,,,,,,,,,17,001,20,w,Psychologie,2023-01-16_09h01.55.821,00_bat_bachelor,2022.2.4,60.03024067386146,
,,,,,,,,,,,,0,0,0,0,122,0,122,0,,,,,,,122,,,1,989.5699143903446,Y,d,go,d,1,0.4879388388642667,,,,,,,,,,,,,,,,,,17,001,20,w,Psychologie,2023-01-16_09h01.55.821,00_bat_bachelor,2022.2.4,60.03024067386146,
,,,,,,,,,,,,0,0,0,0,123,0,123,0,,,,,,,123,,,1,991.1707844020439,Y,None,nogo,None,1,,,,,,,,,,,,,,,,,,,17,001,20,w,Psychologie,2023-01-16_09h01.55.821,00_bat_bachelor,2022.2.4,60.03024067386146,
,,,,,,,,,,,,0,0,0,0,124,0,124,0,,,,,,,124,,,1,992.9721604983465,X,l,go,l,1,0.2687937329949648,,,,,,,,,,,,,,,,,,17,001,20,w,Psychologie,2023-01-16_09h01.55.821,00_bat_bachelor,2022.2.4,60.03024067386146,
,,,,,,,,,,,,0,0,0,0,125,0,125,0,,,,,,,125,,,1,994.3566112210369,Y,d,go,d,1,0.4043737884713039,,,,,,,,,,,,,,,,,,17,001,20,w,Psychologie,2023-01-16_09h01.55.821,00_bat_bachelor,2022.2.4,60.03024067386146,
,,,,,,,,,,,,0,0,0,0,126,0,126,0,,,,,,,126,,,1,995.8744771517686,Y,None,nogo,None,1,,,,,,,,,,,,,,,,,,,17,001,20,w,Psychologie,2023-01-16_09h01.55.821,00_bat_bachelor,2022.2.4,60.03024067386146,
,,,,,,,,,,,,0,0,0,0,127,0,127,0,,,,,,,127,,,1,997.6757523996353,X,l,go,l,1,0.31711128532609223,,,,,,,,,,,,,,,,,,17,001,20,w,Psychologie,2023-01-16_09h01.55.821,00_bat_bachelor,2022.2.4,60.03024067386146,
,,,,,,,,,,,,0,0,0,0,128,0,128,0,,,,,,,128,,,1,999.0938651666108,Y,d,go,d,1,0.35502253967209185,,,,,,,,,,,,,,,,,,17,001,20,w,Psychologie,2023-01-16_09h01.55.821,00_bat_bachelor,2022.2.4,60.03024067386146,
,,,,,,,,,,,,0,0,0,0,129,0,129,0,,,,,,,129,,,1,1000.561651606472,X,l,go,l,1,0.5361191791403428,,,,,,,,,,,,,,,,,,17,001,20,w,Psychologie,2023-01-16_09h01.55.821,00_bat_bachelor,2022.2.4,60.03024067386146,
,,,,,,,,,,,,0,0,0,0,130,0,130,0,,,,,,,130,,,1,1002.2125118969639,Y,d,go,d,1,0.35687126604855735,,,,,,,,,,,,,,,,,,17,001,20,w,Psychologie,2023-01-16_09h01.55.821,00_bat_bachelor,2022.2.4,60.03024067386146,
,,,,,,,,,,,,0,0,0,0,131,0,131,0,,,,,,,131,,,1,1003.6806711851291,Y,None,nogo,None,1,,1004.4812414636406,,,,,,,,,,,,,,,,,17,001,20,w,Psychologie,2023-01-16_09h01.55.821,00_bat_bachelor,2022.2.4,60.03024067386146,
,,,,,,,,,,,,0,0,0,0,132,0,132,0,,,,,,,132,,,1,1005.4819221905832,Y,None,nogo,None,1,,,,,,,,,,,,,,,,,,,17,001,20,w,Psychologie,2023-01-16_09h01.55.821,00_bat_bachelor,2022.2.4,60.03024067386146,
,,,,,,,,,,,,0,0,0,0,133,0,133,0,,,,,,,133,,,1,1007.2838369532913,X,l,go,l,1,0.2617847666963655,,,,,,,,,,,,,,,,,,17,001,20,w,Psychologie,2023-01-16_09h01.55.821,00_bat_bachelor,2022.2.4,60.03024067386146,
,,,,,,,,,,,,0,0,0,0,134,0,134,0,,,,,,,134,,,1,1008.65126804787,Y,d,go,d,1,0.4767902382089062,,,,,,,,,,,,,,,,,,17,001,20,w,Psychologie,2023-01-16_09h01.55.821,00_bat_bachelor,2022.2.4,60.03024067386146,
,,,,,,,,,,,,0,0,0,0,135,0,135,0,,,,,,,135,,,1,1010.2524667866828,X,l,go,l,1,0.3331103078719764,,,,,,,,,,,,,,,,,,17,001,20,w,Psychologie,2023-01-16_09h01.55.821,00_bat_bachelor,2022.2.4,60.03024067386146,
,,,,,,,,,,,,0,0,0,0,136,0,136,0,,,,,,,136,,,1,1011.687059545668,X,None,nogo,None,1,,1012.4876511575026,,,,,,,,,,,,,,,,,17,001,20,w,Psychologie,2023-01-16_09h01.55.821,00_bat_bachelor,2022.2.4,60.03024067386146,
,,,,,,,,,,,,0,0,0,0,137,0,137,0,,,,,,,137,,,1,1013.4884104298617,Y,d,go,d,1,0.24948804538578884,,,,,,,,,,,,,,,,,,17,001,20,w,Psychologie,2023-01-16_09h01.55.821,00_bat_bachelor,2022.2.4,60.03024067386146,
,,,,,,,,,,,,0,0,0,0,138,0,138,0,,,,,,,138,,,1,1014.8393067445786,X,l,go,l,1,0.32251782815913543,,,,,,,,,,,,,,,,,,17,001,20,w,Psychologie,2023-01-16_09h01.55.821,00_bat_bachelor,2022.2.4,60.03024067386146,
,,,,,,,,,,,,0,0,0,0,139,0,139,0,,,,,,,139,,,1,1016.2739145338596,Y,d,go,d,1,0.2945139629489688,,,,,,,,,,,,,,,,,,17,001,20,w,Psychologie,2023-01-16_09h01.55.821,00_bat_bachelor,2022.2.4,60.03024067386146,
,,,,,,,,,,,,0,0,0,0,140,0,140,0,,,,,,,140,,,1,1017.6912403921258,X,l,go,l,1,0.3333396410939997,,,,,,,,,,,,,,,,,,17,001,20,w,Psychologie,2023-01-16_09h01.55.821,00_bat_bachelor,2022.2.4,60.03024067386146,
,,,,,,,,,,,,0,0,0,0,141,0,141,0,,,,,,,141,,,1,1019.1258801813915,X,None,nogo,None,1,,,,,,,,,,,,,,,,,,,17,001,20,w,Psychologie,2023-01-16_09h01.55.821,00_bat_bachelor,2022.2.4,60.03024067386146,
,,,,,,,,,,,,0,0,0,0,142,0,142,0,,,,,,,142,,,1,1020.9273595503712,Y,d,go,d,1,0.3631723539024563,,,,,,,,,,,,,,,,,,17,001,20,w,Psychologie,2023-01-16_09h01.55.821,00_bat_bachelor,2022.2.4,60.03024067386146,
,,,,,,,,,,,,0,0,0,0,143,0,143,0,,,,,,,143,,,1,1022.3949399297262,X,l,go,l,1,0.25458864897339595,,,,,,,,,,,,,,,,,,17,001,20,w,Psychologie,2023-01-16_09h01.55.821,00_bat_bachelor,2022.2.4,60.03024067386146,
,,,,,,,,,,,,0,0,0,0,144,0,144,0,,,,,,,144,,,1,1023.7626565999242,Y,d,go,d,1,0.35886690144459976,,,,,,,,,,,,,,,,,,17,001,20,w,Psychologie,2023-01-16_09h01.55.821,00_bat_bachelor,2022.2.4,60.03024067386146,
,,,,,,,,,,,,0,0,0,0,145,0,145,0,,,,,,,145,,,1,1025.2304881306725,Y,None,nogo,None,1,,1026.0310564697909,,,,,,,,,,,,,,,,,17,001,20,w,Psychologie,2023-01-16_09h01.55.821,00_bat_bachelor,2022.2.4,60.03024067386146,
,,,,,,,,,,,,0,0,0,0,146,0,146,0,,,,,,,146,,,1,1027.0318477421345,X,l,go,l,1,0.3064388056521068,,,,,,,,,,,,,,,,,,17,001,20,w,Psychologie,2023-01-16_09h01.55.821,00_bat_bachelor,2022.2.4,60.03024067386146,
,,,,,,,,,,,,0,0,0,0,147,0,147,0,,,,,,,147,,,1,1028.44971953953,Y,d,go,d,1,0.2797508185917934,,,,,,,,,,,,,,,,,,17,001,20,w,Psychologie,2023-01-16_09h01.55.821,00_bat_bachelor,2022.2.4,60.03024067386146,
,,,,,,,,,,,,0,0,0,0,148,0,148,0,,,,,,,148,,,1,1029.8338289290527,X,l,go,l,1,0.38316555633016947,,,,,,,,,,,,,,,,,,17,001,20,w,Psychologie,2023-01-16_09h01.55.821,00_bat_bachelor,2022.2.4,60.03024067386146,
,,,,,,,,,,,,0,0,0,0,149,0,149,0,,,,,,,149,,,1,1031.3182742699275,X,None,nogo,None,1,,1032.118904669622,,,,,,,,,,,,,,,,,17,001,20,w,Psychologie,2023-01-16_09h01.55.821,00_bat_bachelor,2022.2.4,60.03024067386146,
,,,,,,,,,,,,0,0,0,0,150,0,150,0,,,,,,,150,,,1,1033.1196387298721,Y,d,go,d,1,0.34582593807024864,,,,,,,,,,,,,,,,,,17,001,20,w,Psychologie,2023-01-16_09h01.55.821,00_bat_bachelor,2022.2.4,60.03024067386146,
,,,,,,,,,,,,0,0,0,0,151,0,151,0,,,,,,,151,,,1,1034.570940329241,X,l,go,l,1,0.3511767233549392,,,,,,,,,,,,,,,,,,17,001,20,w,Psychologie,2023-01-16_09h01.55.821,00_bat_bachelor,2022.2.4,60.03024067386146,
,,,,,,,,,,,,0,0,0,0,152,0,152,0,,,,,,,152,,,1,1036.038287981436,X,None,nogo,None,1,,,,,,,,,,,,,,,,,,,17,001,20,w,Psychologie,2023-01-16_09h01.55.821,00_bat_bachelor,2022.2.4,60.03024067386146,
,,,,,,,,,,,,0,0,0,0,153,0,153,0,,,,,,,153,,,1,1037.8396747444,Y,d,go,d,1,0.23420029522233676,,,,,,,,,,,,,,,,,,17,001,20,w,Psychologie,2023-01-16_09h01.55.821,00_bat_bachelor,2022.2.4,60.03024067386146,
,,,,,,,,,,,,0,0,0,0,154,0,154,0,,,,,,,154,,,1,1039.190716513592,X,l,go,l,1,0.25803155639485453,,,,,,,,,,,,,,,,,,17,001,20,w,Psychologie,2023-01-16_09h01.55.821,00_bat_bachelor,2022.2.4,60.03024067386146,
,,,,,,,,,,,,0,0,0,0,155,0,155,0,,,,,,,155,,,1,1040.5587599715104,Y,d,go,d,1,0.3794031339116657,,,,,,,,,,,,,,,,,,17,001,20,w,Psychologie,2023-01-16_09h01.55.821,00_bat_bachelor,2022.2.4,60.03024067386146,
,,,,,,,,,,,,0,0,0,0,156,0,156,0,,,,,,,156,,,1,1042.0429071307117,X,l,go,l,1,0.3015243837924402,,,,,,,,,,,,,,,,,,17,001,20,w,Psychologie,2023-01-16_09h01.55.821,00_bat_bachelor,2022.2.4,60.03024067386146,
,,,,,,,,,,,,0,0,0,0,157,0,157,0,,,,,,,157,,,1,1043.4609558977183,Y,d,go,d,1,0.3086943197099856,,,,,,,,,,,,,,,,,,17,001,20,w,Psychologie,2023-01-16_09h01.55.821,00_bat_bachelor,2022.2.4,60.03024067386146,
,,,,,,,,,,,,0,0,0,0,158,0,158,0,,,,,,,158,,,1,1044.8787554527246,X,l,go,l,1,0.3639553838259246,,,,,,,,,,,,,,,,,,17,001,20,w,Psychologie,2023-01-16_09h01.55.821,00_bat_bachelor,2022.2.4,60.03024067386146,
,,,,,,,,,,,,0,0,0,0,159,0,159,0,,,,,,,159,,,1,1046.3462708624143,Y,d,go,d,1,0.30297989823819194,,,,,,,,,,,,,,,,,,17,001,20,w,Psychologie,2023-01-16_09h01.55.821,00_bat_bachelor,2022.2.4,60.03024067386146,
,,,,,,,,,,,,0,0,0,0,160,0,160,0,,,,,,,160,,,1,1047.7638915084162,Y,None,nogo,None,1,,,,,,,,,,,,,,,,,,,17,001,20,w,Psychologie,2023-01-16_09h01.55.821,00_bat_bachelor,2022.2.4,60.03024067386146,
,,,,,,,,,,,,0,0,0,0,161,0,161,0,,,,,,,161,,,1,1049.5652729380495,X,l,go,None,0,,,,,,,,,,,,,,,,,,,17,001,20,w,Psychologie,2023-01-16_09h01.55.821,00_bat_bachelor,2022.2.4,60.03024067386146,
,,,,,,,,,,,,0,0,0,0,162,0,162,0,,,,,,,162,,,1,1051.366963700866,Y,d,go,d,1,0.5476721432358147,,,,,,,,,,,,,,,,,,17,001,20,w,Psychologie,2023-01-16_09h01.55.821,00_bat_bachelor,2022.2.4,60.03024067386146,
,,,,,,,,,,,,0,0,0,0,163,0,163,0,,,,,,,163,,,1,1053.0182744153822,X,l,go,l,1,0.3353250946768469,,,,,,,,,,,,,,,,,,17,001,20,w,Psychologie,2023-01-16_09h01.55.821,00_bat_bachelor,2022.2.4,60.03024067386146,
,,,,,,,,,,,,0,0,0,0,164,0,164,0,,,,,,,164,,,1,1054.4690058332094,Y,d,go,d,1,0.292229357996149,,,,,,,,,,,,,,,,,,17,001,20,w,Psychologie,2023-01-16_09h01.55.821,00_bat_bachelor,2022.2.4,60.03024067386146,
,,,,,,,,,,,,0,0,0,0,165,0,165,0,,,,,,,165,,,1,1055.8703806689064,Y,None,nogo,None,1,,,,,,,,,,,,,,,,,,,17,001,20,w,Psychologie,2023-01-16_09h01.55.821,00_bat_bachelor,2022.2.4,60.03024067386146,
,,,,,,,,,,,,0,0,0,0,166,0,166,0,,,,,,,166,,,1,1057.6716898561504,X,l,go,l,1,0.2091981255262283,,,,,,,,,,,,,,,,,,17,001,20,w,Psychologie,2023-01-16_09h01.55.821,00_bat_bachelor,2022.2.4,60.03024067386146,
,,,,,,,,,,,,0,0,0,0,167,0,167,0,,,,,,,167,,,1,1058.9895117626609,Y,d,go,d,1,0.3323670355050865,,,,,,,,,,,,,,,,,,17,001,20,w,Psychologie,2023-01-16_09h01.55.821,00_bat_bachelor,2022.2.4,60.03024067386146,
,,,,,,,,,,,,0,0,0,0,168,0,168,0,,,,,,,168,,,1,1060.4236860976068,Y,None,nogo,None,1,,,,,,,,,,,,,,,,,,,17,001,20,w,Psychologie,2023-01-16_09h01.55.821,00_bat_bachelor,2022.2.4,60.03024067386146,
,,,,,,,,,,,,0,0,0,0,169,0,169,0,,,,,,,169,,,1,1062.2249099515589,Y,None,nogo,None,1,,,,,,,,,,,,,,,,,,,17,001,20,w,Psychologie,2023-01-16_09h01.55.821,00_bat_bachelor,2022.2.4,60.03024067386146,
,,,,,,,,,,,,0,0,0,0,170,0,170,0,,,,,,,170,,,1,1064.026440714453,X,l,go,l,1,0.3507447235643042,,,,,,,,,,,,,,,,,,17,001,20,w,Psychologie,2023-01-16_09h01.55.821,00_bat_bachelor,2022.2.4,60.03024067386146,
,,,,,,,,,,,,0,0,0,0,171,0,171,0,,,,,,,171,,,1,1065.494423033007,Y,d,go,d,1,0.6108018095972341,,,,,,,,,,,,,,,,,,17,001,20,w,Psychologie,2023-01-16_09h01.55.821,00_bat_bachelor,2022.2.4,60.03024067386146,
,,,,,,,,,,,,0,0,0,0,172,0,172,0,,,,,,,172,,,1,1067.2123426849248,Y,None,nogo,None,1,,1068.013015266417,,,,,,,,,,,,,,,,,17,001,20,w,Psychologie,2023-01-16_09h01.55.821,00_bat_bachelor,2022.2.4,60.03024067386146,
,,,,,,,,,,,,0,0,0,0,173,0,173,0,,,,,,,173,,,1,1069.0137793872584,X,l,go,l,1,0.24433556303554838,,,,,,,,,,,,,,,,,,17,001,20,w,Psychologie,2023-01-16_09h01.55.821,00_bat_bachelor,2022.2.4,60.03024067386146,
,,,,,,,,,,,,0,0,0,0,174,0,174,0,,,,,,,174,,,1,1070.3648197019056,Y,d,go,d,1,0.3004145661484756,,,,,,,,,,,,,,,,,,17,001,20,w,Psychologie,2023-01-16_09h01.55.821,00_bat_bachelor,2022.2.4,60.03024067386146,
,,,,,,,,,,,,0,0,0,0,175,0,175,0,,,,,,,175,,,1,1071.7658609620069,Y,None,nogo,None,1,,,,,,,,,,,,,,,,,,,17,001,20,w,Psychologie,2023-01-16_09h01.55.821,00_bat_bachelor,2022.2.4,60.03024067386146,
,,,,,,,,,,,,0,0,0,0,176,0,176,0,,,,,,,176,,,1,1073.5672191189242,X,l,go,l,1,0.4265255353070927,,,,,,,,,,,,,,,,,,17,001,20,w,Psychologie,2023-01-16_09h01.55.821,00_bat_bachelor,2022.2.4,60.03024067386146,
,,,,,,,,,,,,0,0,0,0,177,0,177,0,,,,,,,177,,,1,1075.1016440719302,Y,d,go,d,1,0.4129512388581418,,,,,,,,,,,,,,,,,,17,001,20,w,Psychologie,2023-01-16_09h01.55.821,00_bat_bachelor,2022.2.4,60.03024067386146,
,,,,,,,,,,,,0,0,0,0,178,0,178,0,,,,,,,178,,,1,1076.6192123058365,X,l,go,l,1,0.27013142931630796,,,,,,,,,,,,,,,,,,17,001,20,w,Psychologie,2023-01-16_09h01.55.821,00_bat_bachelor,2022.2.4,60.03024067386146,
,,,,,,,,,,,,0,0,0,0,179,0,179,0,,,,,,,179,,,1,1078.0036198770329,X,None,nogo,d,0,0.32466813014687546,,,,,,,,,,,,,,,,,,17,001,20,w,Psychologie,2023-01-16_09h01.55.821,00_bat_bachelor,2022.2.4,60.03024067386146,
,,,,,,,,,,,,0,0,0,0,180,0,180,0,,,,,,,180,,,1,1079.438402696532,Y,d,go,d,1,0.5382622084044044,,,,,,,,,,,,,,,,,,17,001,20,w,Psychologie,2023-01-16_09h01.55.821,00_bat_bachelor,2022.2.4,60.03024067386146,
,,,,,,,,,,,,0,0,0,0,181,0,181,0,,,,,,,181,,,1,1081.0896081989779,X,l,go,l,1,0.3605536885054619,,,,,,,,,,,,,,,,,,17,001,20,w,Psychologie,2023-01-16_09h01.55.821,00_bat_bachelor,2022.2.4,60.03024067386146,
,,,,,,,,,,,,0,0,0,0,182,0,182,0,,,,,,,182,,,1,1082.5571861540916,Y,d,go,d,1,0.2847985737198826,,,,,,,,,,,,,,,,,,17,001,20,w,Psychologie,2023-01-16_09h01.55.821,00_bat_bachelor,2022.2.4,60.03024067386146,
,,,,,,,,,,,,0,0,0,0,183,0,183,0,,,,,,,183,,,1,1083.958394686839,X,l,go,None,0,,,,,,,,,,,,,,,,,,,17,001,20,w,Psychologie,2023-01-16_09h01.55.821,00_bat_bachelor,2022.2.4,60.03024067386146,
,,,,,,,,,,,,0,0,0,0,184,0,184,0,,,,,,,184,,,1,1085.7598469043166,Y,d,go,d,1,0.2820528780817142,,,,,,,,,,,,,,,,,,17,001,20,w,Psychologie,2023-01-16_09h01.55.821,00_bat_bachelor,2022.2.4,60.03024067386146,
,,,,,,,,,,,,0,0,0,0,185,0,185,0,,,,,,,185,,,1,1087.1445754450544,X,l,go,l,1,0.30432050364882457,,,,,,,,,,,,,,,,,,17,001,20,w,Psychologie,2023-01-16_09h01.55.821,00_bat_bachelor,2022.2.4,60.03024067386146,
,,,,,,,,,,,,0,0,0,0,186,0,186,0,,,,,,,186,,,1,1088.5790455374324,Y,d,go,d,1,0.2457775017301458,,,,,,,,,,,,,,,,,,17,001,20,w,Psychologie,2023-01-16_09h01.55.821,00_bat_bachelor,2022.2.4,60.03024067386146,
,,,,,,,,,,,,0,0,0,0,187,0,187,0,,,,,,,187,,,1,1089.9468291166888,X,l,go,l,1,0.39853621554428287,,,,,,,,,,,,,,,,,,17,001,20,w,Psychologie,2023-01-16_09h01.55.821,00_bat_bachelor,2022.2.4,60.03024067386146,
,,,,,,,,,,,,0,0,0,0,188,0,188,0,,,,,,,188,,,1,1091.447642934476,Y,d,go,d,1,0.41763487295091295,,,,,,,,,,,,,,,,,,17,001,20,w,Psychologie,2023-01-16_09h01.55.821,00_bat_bachelor,2022.2.4,60.03024067386146,
,,,,,,,,,,,,0,0,0,0,189,0,189,0,,,,,,,189,,,1,1092.9820960086806,Y,None,nogo,None,1,,1093.7826982871766,,,,,,,,,,,,,,,,,17,001,20,w,Psychologie,2023-01-16_09h01.55.821,00_bat_bachelor,2022.2.4,60.03024067386146,
,,,,,,,,,,,,0,0,0,0,190,0,190,0,,,,,,,190,,,1,1094.7835807109911,X,l,go,l,1,0.281961241762275,,,,,,,,,,,,,,,,,,17,001,20,w,Psychologie,2023-01-16_09h01.55.821,00_bat_bachelor,2022.2.4,60.03024067386146,
,,,,,,,,,,,,0,0,0,0,191,0,191,0,,,,,,,191,,,1,1096.1678884034482,Y,d,go,d,1,0.2742027000695373,,,,,,,,,,,,,,,,,,17,001,20,w,Psychologie,2023-01-16_09h01.55.821,00_bat_bachelor,2022.2.4,60.03024067386146,
,,,,,,,,,,,,0,0,0,0,192,0,192,0,,,,,,,192,,,1,1097.552062277788,X,l,go,l,1,0.31368971122722655,,,,,,,,,,,,,,,,,,17,001,20,w,Psychologie,2023-01-16_09h01.55.821,00_bat_bachelor,2022.2.4,60.03024067386146,
,,,,,,,,,,,,0,0,0,0,193,0,193,0,,,,,,,193,,,1,1098.9698991661096,Y,d,go,d,1,0.2551021032698202,,,,,,,,,,,,,,,,,,17,001,20,w,Psychologie,2023-01-16_09h01.55.821,00_bat_bachelor,2022.2.4,60.03024067386146,
,,,,,,,,,,,,0,0,0,0,194,0,194,0,,,,,,,194,,,1,1100.337525654533,Y,None,nogo,None,1,,1101.1382598117527,,,,,,,,,,,,,,,,,17,001,20,w,Psychologie,2023-01-16_09h01.55.821,00_bat_bachelor,2022.2.4,60.03024067386146,
,,,,,,,,,,,,0,0,0,0,195,0,195,0,,,,,,,195,,,1,1102.1389555689912,X,l,go,l,1,0.2392296261171225,,,,,,,,,,,,,,,,,,17,001,20,w,Psychologie,2023-01-16_09h01.55.821,00_bat_bachelor,2022.2.4,60.03024067386146,
,,,,,,,,,,,,0,0,0,0,196,0,196,0,,,,,,,196,,,1,1103.489833944323,Y,d,go,d,1,0.23195932661158736,,,,,,,,,,,,,,,,,,17,001,20,w,Psychologie,2023-01-16_09h01.55.821,00_bat_bachelor,2022.2.4,60.03024067386146,
,,,,,,,,,,,,0,0,0,0,197,0,197,0,,,,,,,197,,,1,1104.8242735397462,Y,None,nogo,None,1,,,,,,,,,,,,,,,,,,,17,001,20,w,Psychologie,2023-01-16_09h01.55.821,00_bat_bachelor,2022.2.4,60.03024067386146,
,,,,,,,,,,,,0,0,0,0,198,0,198,0,,,,,,,198,,,1,1106.6256690299788,X,l,go,l,1,0.19923885762776194,,,,,,,,,,,,,,,,,,17,001,20,w,Psychologie,2023-01-16_09h01.55.821,00_bat_bachelor,2022.2.4,60.03024067386146,
,,,,,,,,,,,,0,0,0,0,199,0,199,0,,,,,,,199,,,1,1107.926763671872,Y,d,go,d,1,0.2750283966388736,,,,,,,,,,,,,,,,,,17,001,20,w,Psychologie,2023-01-16_09h01.55.821,00_bat_bachelor,2022.2.4,60.03024067386146,
,,,,,,,,,,,,0,0,0,0,200,0,200,0,,,,,,,200,,,1,1109.3107906371924,X,l,go,l,1,0.249573863525967,,,,,,,,,,,,,,,,,,17,001,20,w,Psychologie,2023-01-16_09h01.55.821,00_bat_bachelor,2022.2.4,60.03024067386146,
,,,,,,,,,,,,0,0,0,0,201,0,201,0,,,,,,,201,,,1,1110.661837254867,X,None,nogo,None,1,,1111.462708139293,,,,,,,,,,,,,,,,,17,001,20,w,Psychologie,2023-01-16_09h01.55.821,00_bat_bachelor,2022.2.4,60.03024067386146,
,,,,,,,,,,,,0,0,0,0,202,0,202,0,,,,,,,202,,,1,1112.463383532905,Y,d,go,d,1,0.16958893260951413,,,,,,,,,,,,,,,,,,17,001,20,w,Psychologie,2023-01-16_09h01.55.821,00_bat_bachelor,2022.2.4,60.03024067386146,
,,,,,,,,,,,,0,0,0,0,203,0,203,0,,,,,,,203,,,1,1113.7478343040802,X,l,go,l,1,0.30955444050508163,,,,,,,,,,,,,,,,,,17,001,20,w,Psychologie,2023-01-16_09h01.55.821,00_bat_bachelor,2022.2.4,60.03024067386146,
,,,,,,,,,,,,0,0,0,0,204,0,204,0,,,,,,,204,,,1,1115.165479192495,Y,d,go,d,1,0.2513343475209524,,,,,,,,,,,,,,,,,,17,001,20,w,Psychologie,2023-01-16_09h01.55.821,00_bat_bachelor,2022.2.4,60.03024067386146,
,,,,,,,,,,,,0,0,0,0,205,0,205,0,,,,,,,205,,,1,1116.5332472566074,X,l,go,l,1,0.26126646391733743,,,,,,,,,,,,,,,,,,17,001,20,w,Psychologie,2023-01-16_09h01.55.821,00_bat_bachelor,2022.2.4,60.03024067386146,
,,,,,,,,,,,,0,0,0,0,206,0,206,0,,,,,,,206,,,1,1117.900658472408,X,None,nogo,None,1,,1118.7015254780483,,,,,,,,,,,,,,,,,17,001,20,w,Psychologie,2023-01-16_09h01.55.821,00_bat_bachelor,2022.2.4,60.03024067386146,
,,,,,,,,,,,,0,0,0,0,207,0,207,0,,,,,,,207,,,1,1119.7023337200806,Y,d,go,d,1,0.27610572944993805,,,,,,,,,,,,,,,,,,17,001,20,w,Psychologie,2023-01-16_09h01.55.821,00_bat_bachelor,2022.2.4,60.03024067386146,
,,,,,,,,,,,,0,0,0,0,208,0,208,0,,,,,,,208,,,1,1121.08674323067,X,l,go,l,1,0.2661673100260771,,,,,,,,,,,,,,,,,,17,001,20,w,Psychologie,2023-01-16_09h01.55.821,00_bat_bachelor,2022.2.4,60.03024067386146,
,,,,,,,,,,,,0,0,0,0,209,0,209,0,,,,,,,209,,,1,1122.4543459615293,X,None,nogo,None,1,,,,,,,,,,,,,,,,,,,17,001,20,w,Psychologie,2023-01-16_09h01.55.821,00_bat_bachelor,2022.2.4,60.03024067386146,
,,,,,,,,,,,,0,0,0,0,210,0,210,0,,,,,,,210,,,1,1124.2558384214117,Y,d,go,d,1,0.3615912637599479,,,,,,,,,,,,,,,,,,17,001,20,w,Psychologie,2023-01-16_09h01.55.821,00_bat_bachelor,2022.2.4,60.03024067386146,
,,,,,,,,,,,,0,0,0,0,211,0,211,0,,,,,,,211,,,1,1125.723429467428,X,l,go,l,1,0.28570184600928883,,,,,,,,,,,,,,,,,,17,001,20,w,Psychologie,2023-01-16_09h01.55.821,00_bat_bachelor,2022.2.4,60.03024067386146,
,,,,,,,,,,,,0,0,0,0,212,0,212,0,,,,,,,212,,,1,1127.1245623638486,X,None,nogo,None,1,,,,,,,,,,,,,,,,,,,17,001,20,w,Psychologie,2023-01-16_09h01.55.821,00_bat_bachelor,2022.2.4,60.03024067386146,
,,,,,,,,,,,,0,0,0,0,213,0,213,0,,,,,,,213,,,1,1128.925732884493,Y,d,go,d,1,0.2673925215531483,,,,,,,,,,,,,,,,,,17,001,20,w,Psychologie,2023-01-16_09h01.55.821,00_bat_bachelor,2022.2.4,60.03024067386146,
,,,,,,,,,,,,0,0,0,0,214,0,214,0,,,,,,,214,,,1,1130.3103979101102,X,l,go,l,1,0.25932319213237065,,,,,,,,,,,,,,,,,,17,001,20,w,Psychologie,2023-01-16_09h01.55.821,00_bat_bachelor,2022.2.4,60.03024067386146,
,,,,,,,,,,,,0,0,0,0,215,0,215,0,,,,,,,215,,,1,1131.678077731841,Y,d,go,d,1,0.39556506546958303,,,,,,,,,,,,,,,,,,17,001,20,w,Psychologie,2023-01-16_09h01.55.821,00_bat_bachelor,2022.2.4,60.03024067386146,
,,,,,,,,,,,,0,0,0,0,216,0,216,0,,,,,,,216,,,1,1133.1790195495662,X,l,go,l,1,0.22164272555326647,,,,,,,,,,,,,,,,,,17,001,20,w,Psychologie,2023-01-16_09h01.55.821,00_bat_bachelor,2022.2.4,60.03024067386146,
,,,,,,,,,,,,0,0,0,0,217,0,217,0,,,,,,,217,,,1,1134.5133515086782,X,None,nogo,None,1,,,,,,,,,,,,,,,,,,,17,001,20,w,Psychologie,2023-01-16_09h01.55.821,00_bat_bachelor,2022.2.4,60.03024067386146,
,,,,,,,,,,,,0,0,0,0,218,0,218,0,,,,,,,218,,,1,1136.3150611805763,X,None,nogo,None,1,,,,,,,,,,,,,,,,,,,17,001,20,w,Psychologie,2023-01-16_09h01.55.821,00_bat_bachelor,2022.2.4,60.03024067386146,
,,,,,,,,,,,,0,0,0,0,219,0,219,0,,,,,,,219,,,1,1138.1161051558279,Y,d,go,d,1,0.21433994121505862,,,,,,,,,,,,,,,,,,17,001,20,w,Psychologie,2023-01-16_09h01.55.821,00_bat_bachelor,2022.2.4,60.03024067386146,
,,,,,,,,,,,,0,0,0,0,220,0,220,0,,,,,,,220,,,1,1139.4339130017393,X,l,go,l,1,0.2404795649052005,,,,,,,,,,,,,,,,,,17,001,20,w,Psychologie,2023-01-16_09h01.55.821,00_bat_bachelor,2022.2.4,60.03024067386146,
,,,,,,,,,,,,0,0,0,0,221,0,221,0,,,,,,,221,,,1,1140.7851370738729,Y,d,go,d,1,0.36016290081627744,,,,,,,,,,,,,,,,,,17,001,20,w,Psychologie,2023-01-16_09h01.55.821,00_bat_bachelor,2022.2.4,60.03024067386146,
,,,,,,,,,,,,0,0,0,0,222,0,222,0,,,,,,,222,,,1,1142.2525366048308,X,l,go,l,1,0.2364640517003238,,,,,,,,,,,,,,,,,,17,001,20,w,Psychologie,2023-01-16_09h01.55.821,00_bat_bachelor,2022.2.4,60.03024067386146,
,,,,,,,,,,,,0,0,0,0,223,0,223,0,,,,,,,223,,,1,1143.603916798101,X,None,nogo,None,1,,1144.404164167678,,,,,,,,,,,,,,,,,17,001,20,w,Psychologie,2023-01-16_09h01.55.821,00_bat_bachelor,2022.2.4,60.03024067386146,
,,,,,,,,,,,,0,0,0,0,224,0,224,0,,,,,,,224,,,1,1145.404926833975,Y,d,go,d,1,0.2365527789300188,,,,,,,,,,,,,,,,,,17,001,20,w,Psychologie,2023-01-16_09h01.55.821,00_bat_bachelor,2022.2.4,60.03024067386146,
,,,,,,,,,,,,0,0,0,0,225,0,225,0,,,,,,,225,,,1,1146.7567899361018,X,l,go,l,1,0.22757144995128442,,,,,,,,,,,,,,,,,,17,001,20,w,Psychologie,2023-01-16_09h01.55.821,00_bat_bachelor,2022.2.4,60.03024067386146,
,,,,,,,,,,,,0,0,0,0,226,0,226,0,,,,,,,226,,,1,1148.1081124324303,X,None,nogo,None,1,,1148.9082943474937,,,,,,,,,,,,,,,,,17,001,20,w,Psychologie,2023-01-16_09h01.55.821,00_bat_bachelor,2022.2.4,60.03024067386146,
,,,,,,,,,,,,0,0,0,0,227,0,227,0,,,,,,,227,,,1,1149.9092116803822,Y,d,go,d,1,0.22792975280779615,,,,,,,,,,,,,,,,,,17,001,20,w,Psychologie,2023-01-16_09h01.55.821,00_bat_bachelor,2022.2.4,60.03024067386146,
,,,,,,,,,,,,0,0,0,0,228,0,228,0,,,,,,,228,,,1,1151.2602607222977,X,l,go,l,1,0.2203952110064904,,,,,,,,,,,,,,,,,,17,001,20,w,Psychologie,2023-01-16_09h01.55.821,00_bat_bachelor,2022.2.4,60.03024067386146,
,,,,,,,,,,,,0,0,0,0,229,0,229,0,,,,,,,229,,,1,1152.6112171581979,Y,d,go,d,1,0.2774880318100088,,,,,,,,,,,,,,,,,,17,001,20,w,Psychologie,2023-01-16_09h01.55.821,00_bat_bachelor,2022.2.4,60.03024067386146,
,,,,,,,,,,,,0,0,0,0,230,0,230,0,,,,,,,230,,,1,1154.012161448649,X,l,go,l,1,0.26815906663617284,,,,,,,,,,,,,,,,,,17,001,20,w,Psychologie,2023-01-16_09h01.55.821,00_bat_bachelor,2022.2.4,60.03024067386146,
,,,,,,,,,,,,0,0,0,0,231,0,231,0,,,,,,,231,,,1,1155.396694595542,X,None,nogo,None,1,,1156.1973715406684,,,,,,,,,,,,,,,,,17,001,20,w,Psychologie,2023-01-16_09h01.55.821,00_bat_bachelor,2022.2.4,60.03024067386146,
,,,,,,,,,,,,0,0,0,0,232,0,232,0,,,,,,,232,,,1,1157.1979363888793,Y,d,go,d,1,0.4103311189162753,,,,,,,,,,,,,,,,,,17,001,20,w,Psychologie,2023-01-16_09h01.55.821,00_bat_bachelor,2022.2.4,60.03024067386146,
,,,,,,,,,,,,0,0,0,0,233,0,233,0,,,,,,,233,,,1,1158.7327443720028,X,l,go,l,1,0.4916668370567834,,,,,,,,,,,,,,,,,,17,001,20,w,Psychologie,2023-01-16_09h01.55.821,00_bat_bachelor,2022.2.4,60.03024067386146,
,,,,,,,,,,,,0,0,0,0,234,0,234,0,,,,,,,234,,,1,1160.350469163409,Y,d,go,d,1,0.31416243827086987,,,,,,,,,,,,,,,,,,17,001,20,w,Psychologie,2023-01-16_09h01.55.821,00_bat_bachelor,2022.2.4,60.03024067386146,
,,,,,,,,,,,,0,0,0,0,235,0,235,0,,,,,,,235,,,1,1161.7847099225648,Y,None,nogo,l,0,0.40048724490137033,,,,,,,,,,,,,,,,,,17,001,20,w,Psychologie,2023-01-16_09h01.55.821,00_bat_bachelor,2022.2.4,60.03024067386146,
,,,,,,,,,,,,0,0,0,0,236,0,236,0,,,,,,,236,,,1,1163.2858621644305,X,l,go,l,1,0.24280198802151176,,,,,,,,,,,,,,,,,,17,001,20,w,Psychologie,2023-01-16_09h01.55.821,00_bat_bachelor,2022.2.4,60.03024067386146,
,,,,,,,,,,,,0,0,0,0,237,0,237,0,,,,,,,237,,,1,1164.6369218730076,Y,d,go,d,1,0.44405667832214135,,,,,,,,,,,,,,,,,,17,001,20,w,Psychologie,2023-01-16_09h01.55.821,00_bat_bachelor,2022.2.4,60.03024067386146,
,,,,,,,,,,,,0,0,0,0,238,0,238,0,,,,,,,238,,,1,1166.1883126359696,X,l,go,l,1,0.3005847478841872,,,,,,,,,,,,,,,,,,17,001,20,w,Psychologie,2023-01-16_09h01.55.821,00_bat_bachelor,2022.2.4,60.03024067386146,
,,,,,,,,,,,,0,0,0,0,239,0,239,0,,,,,,,239,,,1,1167.6057214032867,X,None,nogo,d,0,0.4352978946899668,,,,,,,,,,,,,,,,,,17,001,20,w,Psychologie,2023-01-16_09h01.55.821,00_bat_bachelor,2022.2.4,60.03024067386146,
,,,,,,,,,,,,0,0,0,0,240,0,240,0,,,,,,,240,,,1,1169.1565764089328,Y,d,go,d,1,0.34066521329989996,,,,,,,,,,,,,,,,,,17,001,20,w,Psychologie,2023-01-16_09h01.55.821,00_bat_bachelor,2022.2.4,60.03024067386146,
,,,,,,,,,,,,0,0,0,0,241,0,241,0,,,,,,,241,,,1,1170.6074877054605,X,l,go,l,1,0.6018975714901273,,,,,,,,,,,,,,,,,,17,001,20,w,Psychologie,2023-01-16_09h01.55.821,00_bat_bachelor,2022.2.4,60.03024067386146,
,,,,,,,,,,,,0,0,0,0,242,0,242,0,,,,,,,242,,,1,1172.325441781604,X,None,nogo,None,1,,1173.126341272077,,,,,,,,,,,,,,,,,17,001,20,w,Psychologie,2023-01-16_09h01.55.821,00_bat_bachelor,2022.2.4,60.03024067386146,
,,,,,,,,,,,,0,0,0,0,243,0,243,0,,,,,,,243,,,1,1174.1270767868718,Y,d,go,d,1,0.2820349386963983,,,,,,,,,,,,,,,,,,17,001,20,w,Psychologie,2023-01-16_09h01.55.821,00_bat_bachelor,2022.2.4,60.03024067386146,
,,,,,,,,,,,,0,0,0,0,244,0,244,0,,,,,,,244,,,1,1175.5112186612273,X,l,go,l,1,0.4344610466110055,,,,,,,,,,,,,,,,,,17,001,20,w,Psychologie,2023-01-16_09h01.55.821,00_bat_bachelor,2022.2.4,60.03024067386146,
,,,,,,,,,,,,0,0,0,0,245,0,245,0,,,,,,,245,,,1,1177.0623839697532,X,None,nogo,None,1,,,,,,,,,,,,,,,,,,,17,001,20,w,Psychologie,2023-01-16_09h01.55.821,00_bat_bachelor,2022.2.4,60.03024067386146,
,,,,,,,,,,,,0,0,0,0,246,0,246,0,,,,,,,246,,,1,1178.8640024901806,Y,d,go,d,1,0.2647050077048618,,,,,,,,,,,,,,,,,,17,001,20,w,Psychologie,2023-01-16_09h01.55.821,00_bat_bachelor,2022.2.4,60.03024067386146,
,,,,,,,,,,,,0,0,0,0,247,0,247,0,,,,,,,247,,,1,1180.231576130145,X,l,go,l,1,0.44941667572336996,,,,,,,,,,,,,,,,,,17,001,20,w,Psychologie,2023-01-16_09h01.55.821,00_bat_bachelor,2022.2.4,60.03024067386146,
,,,,,,,,,,,,0,0,0,0,248,0,248,0,,,,,,,248,,,1,1181.782869923457,X,None,nogo,None,1,,,,,,,,,,,,,,,,,,,17,001,20,w,Psychologie,2023-01-16_09h01.55.821,00_bat_bachelor,2022.2.4,60.03024067386146,
,,,,,,,,,,,,0,0,0,0,249,0,249,0,,,,,,,249,,,1,1183.584357534857,Y,d,go,d,1,0.23328732596772284,,,,,,,,,,,,,,,,,,17,001,20,w,Psychologie,2023-01-16_09h01.55.821,00_bat_bachelor,2022.2.4,60.03024067386146,
,,,,,,,,,,,,1,0,1,0,0,0,0,0,,,,,,,0,,,0.2,1209.8880082967232,X,l,go,l,1,0.377532589364165,,,,,,,,,1183.932291911616,space,25.728807085715772,,,,,,,17,001,20,w,Psychologie,2023-01-16_09h01.55.821,00_bat_bachelor,2022.2.4,60.03024067386146,
,,,,,,,,,,,,1,0,1,0,1,0,1,0,,,,,,,1,,,0.2,1210.571790268223,Y,d,go,d,1,0.36526059531414035,,,,,,,,,,,,,,,,,,17,001,20,w,Psychologie,2023-01-16_09h01.55.821,00_bat_bachelor,2022.2.4,60.03024067386146,
,,,,,,,,,,,,1,0,1,0,2,0,2,0,,,,,,,2,,,0.2,1211.239081096203,X,l,go,l,1,0.40093912346995353,,,,,,,,,,,,,,,,,,17,001,20,w,Psychologie,2023-01-16_09h01.55.821,00_bat_bachelor,2022.2.4,60.03024067386146,
,,,,,,,,,,,,1,0,1,0,3,0,3,0,,,,,,,3,,,0.2,1211.9726453465962,Y,d,go,d,1,0.3728450764852198,,,,,,,,,,,,,,,,,,17,001,20,w,Psychologie,2023-01-16_09h01.55.821,00_bat_bachelor,2022.2.4,60.03024067386146,
,,,,,,,,,,,,1,0,1,0,4,0,4,0,,,,,,,4,,,0.2,1212.6566571361664,X,l,go,l,1,0.3778506498161107,,,,,,,,,,,,,,,,,,17,001,20,w,Psychologie,2023-01-16_09h01.55.821,00_bat_bachelor,2022.2.4,60.03024067386146,
,,,,,,,,,,,,1,0,1,0,5,0,5,0,,,,,,,5,,,0.2,1213.3402519562414,X,None,nogo,None,1,,,,,,,,,,,,,,,,,,,17,001,20,w,Psychologie,2023-01-16_09h01.55.821,00_bat_bachelor,2022.2.4,60.03024067386146,
,,,,,,,,,,,,1,0,1,0,6,0,6,0,,,,,,,6,,,0.2,1214.3410635922116,Y,d,go,d,1,0.0044205278427682515,,,,,,,,,,,,,,,,,,17,001,20,w,Psychologie,2023-01-16_09h01.55.821,00_bat_bachelor,2022.2.4,60.03024067386146,
,,,,,,,,,,,,1,0,1,0,7,0,7,0,,,,,,,7,,,0.2,1214.65770877202,X,l,go,l,1,0.567500497258635,,,,,,,,,,,,,,,,,,17,001,20,w,Psychologie,2023-01-16_09h01.55.821,00_bat_bachelor,2022.2.4,60.03024067386146,
,,,,,,,,,,,,1,0,1,0,8,0,8,0,,,,,,,8,,,0.2,1215.5420239796247,Y,d,go,d,1,0.3708610774474721,,,,,,,,,,,,,,,,,,17,001,20,w,Psychologie,2023-01-16_09h01.55.821,00_bat_bachelor,2022.2.4,60.03024067386146,
,,,,,,,,,,,,1,0,1,0,9,0,9,0,,,,,,,9,,,0.2,1216.2258379511088,X,l,go,l,1,0.36037090071525313,,,,,,,,,,,,,,,,,,17,001,20,w,Psychologie,2023-01-16_09h01.55.821,00_bat_bachelor,2022.2.4,60.03024067386146,
,,,,,,,,,,,,1,0,1,0,10,0,10,0,,,,,,,10,,,0.2,1216.892980900373,X,None,nogo,None,1,,,,,,,,,,,,,,,,,,,17,001,20,w,Psychologie,2023-01-16_09h01.55.821,00_bat_bachelor,2022.2.4,60.03024067386146,
,,,,,,,,,,,,1,0,1,0,11,0,11,0,,,,,,,11,,,0.2,1217.8940907180167,Y,d,go,d,1,0.2918531157543214,,,,,,,,,,,,,,,,,,17,001,20,w,Psychologie,2023-01-16_09h01.55.821,00_bat_bachelor,2022.2.4,60.03024067386146,
,,,,,,,,,,,,1,0,1,0,12,0,12,0,,,,,,,12,,,0.2,1218.5109786613436,X,l,go,l,1,0.3631262933188566,,,,,,,,,,,,,,,,,,17,001,20,w,Psychologie,2023-01-16_09h01.55.821,00_bat_bachelor,2022.2.4,60.03024067386146,
,,,,,,,,,,,,1,0,1,0,13,0,13,0,,,,,,,13,,,0.2,1219.1779606409889,Y,d,go,d,1,0.4475698887399915,,,,,,,,,,,,,,,,,,17,001,20,w,Psychologie,2023-01-16_09h01.55.821,00_bat_bachelor,2022.2.4,60.03024067386146,
,,,,,,,,,,,,1,0,1,0,14,0,14,0,,,,,,,14,,,0.2,1219.9287340951591,Y,None,nogo,None,1,,,,,,,,,,,,,,,,,,,17,001,20,w,Psychologie,2023-01-16_09h01.55.821,00_bat_bachelor,2022.2.4,60.03024067386146,
,,,,,,,,,,,,1,0,1,0,15,0,15,0,,,,,,,15,,,0.2,1220.9293231857828,X,l,go,l,1,0.247822591647747,,,,,,,,,,,,,,,,,,17,001,20,w,Psychologie,2023-01-16_09h01.55.821,00_bat_bachelor,2022.2.4,60.03024067386146,
,,,,,,,,,,,,1,0,1,0,16,0,16,0,,,,,,,16,,,0.2,1221.4799023127746,Y,d,go,d,1,0.6424037336689992,,,,,,,,,,,,,,,,,,17,001,20,w,Psychologie,2023-01-16_09h01.55.821,00_bat_bachelor,2022.2.4,60.03024067386146,
,,,,,,,,,,,,1,0,1,0,17,0,17,0,,,,,,,17,,,0.2,1222.4304972458194,X,l,go,l,1,0.5388692384131275,,,,,,,,,,,,,,,,,,17,001,20,w,Psychologie,2023-01-16_09h01.55.821,00_bat_bachelor,2022.2.4,60.03024067386146,
,,,,,,,,,,,,1,0,1,0,18,0,18,0,,,,,,,18,,,0.2,1223.280939984999,Y,d,go,d,1,0.4555310970011135,,,,,,,,,,,,,,,,,,17,001,20,w,Psychologie,2023-01-16_09h01.55.821,00_bat_bachelor,2022.2.4,60.03024067386146,
,,,,,,,,,,,,1,0,1,0,19,0,19,0,,,,,,,19,,,0.2,1224.0485367037397,Y,None,nogo,None,1,,,,,,,,,,,,,,,,,,,17,001,20,w,Psychologie,2023-01-16_09h01.55.821,00_bat_bachelor,2022.2.4,60.03024067386146,
,,,,,,,,,,,,1,0,1,0,20,0,20,0,,,,,,,20,,,0.2,1225.0490312489546,X,l,go,l,1,0.2564393147427211,,,,,,,,,,,,,,,,,,17,001,20,w,Psychologie,2023-01-16_09h01.55.821,00_bat_bachelor,2022.2.4,60.03024067386146,
,,,,,,,,,,,,1,0,1,0,21,0,21,0,,,,,,,21,,,0.2,1225.6162484284857,Y,d,go,d,1,0.40950445265050917,,,,,,,,,,,,,,,,,,17,001,20,w,Psychologie,2023-01-16_09h01.55.821,00_bat_bachelor,2022.2.4,60.03024067386146,
,,,,,,,,,,,,1,0,1,0,22,0,22,0,,,,,,,22,,,0.2,1226.333410262589,Y,None,nogo,None,1,,,,,,,,,,,,,,,,,,,17,001,20,w,Psychologie,2023-01-16_09h01.55.821,00_bat_bachelor,2022.2.4,60.03024067386146,
,,,,,,,,,,,,1,0,1,0,23,0,23,0,,,,,,,23,,,0.2,1227.3343513530417,X,l,go,l,1,0.32337213077542515,,,,,,,,,,,,,,,,,,17,001,20,w,Psychologie,2023-01-16_09h01.55.821,00_bat_bachelor,2022.2.4,60.03024067386146,
,,,,,,,,,,,,1,0,1,0,24,0,24,0,,,,,,,24,,,0.2,1227.9682952880992,Y,d,go,d,1,0.3925522184454451,,,,,,,,,,,,,,,,,,17,001,20,w,Psychologie,2023-01-16_09h01.55.821,00_bat_bachelor,2022.2.4,60.03024067386146,
,,,,,,,,,,,,1,0,1,0,25,0,25,0,,,,,,,25,,,0.2,1228.6683802819975,Y,None,nogo,None,1,,,,,,,,,,,,,,,,,,,17,001,20,w,Psychologie,2023-01-16_09h01.55.821,00_bat_bachelor,2022.2.4,60.03024067386146,
,,,,,,,,,,,,1,0,1,0,26,0,26,0,,,,,,,26,,,0.2,1229.6693591906137,X,l,go,l,1,0.48401156804109746,,,,,,,,,,,,,,,,,,17,001,20,w,Psychologie,2023-01-16_09h01.55.821,00_bat_bachelor,2022.2.4,60.03024067386146,
,,,,,,,,,,,,1,0,1,0,27,0,27,0,,,,,,,27,,,0.2,1230.4700152872654,Y,d,go,d,1,0.22776296501004367,,,,,,,,,,,,,,,,,,17,001,20,w,Psychologie,2023-01-16_09h01.55.821,00_bat_bachelor,2022.2.4,60.03024067386146,
,,,,,,,,,,,,1,0,1,0,28,0,28,0,,,,,,,28,,,0.2,1231.0038545435857,X,l,go,l,1,0.44611534399066954,,,,,,,,,,,,,,,,,,17,001,20,w,Psychologie,2023-01-16_09h01.55.821,00_bat_bachelor,2022.2.4,60.03024067386146,
,,,,,,,,,,,,1,0,1,0,29,0,29,0,,,,,,,29,,,0.2,1231.7543002403393,X,None,nogo,d,0,0.2712043984929835,,,,,,,,,,,,,,,,,,17,001,20,w,Psychologie,2023-01-16_09h01.55.821,00_bat_bachelor,2022.2.4,60.03024067386146,
,,,,,,,,,,,,1,0,1,0,30,0,30,0,,,,,,,30,,,0.2,1232.3381734117947,X,None,nogo,None,1,,,,,,,,,,,,,,,,,,,17,001,20,w,Psychologie,2023-01-16_09h01.55.821,00_bat_bachelor,2022.2.4,60.03024067386146,
,,,,,,,,,,,,1,0,1,0,31,0,31,0,,,,,,,31,,,0.2,1233.3389986235159,Y,d,go,d,1,0.3822676173713546,,,,,,,,,,,,,,,,,,17,001,20,w,Psychologie,2023-01-16_09h01.55.821,00_bat_bachelor,2022.2.4,60.03024067386146,
,,,,,,,,,,,,1,0,1,0,32,0,32,0,,,,,,,32,,,0.2,1234.0224688375908,X,l,go,l,1,0.3712019257668828,,,,,,,,,,,,,,,,,,17,001,20,w,Psychologie,2023-01-16_09h01.55.821,00_bat_bachelor,2022.2.4,60.03024067386146,
,,,,,,,,,,,,1,0,1,0,33,0,33,0,,,,,,,33,,,0.2,1234.7066735967644,Y,d,go,d,1,0.4222040828567799,,,,,,,,,,,,,,,,,,17,001,20,w,Psychologie,2023-01-16_09h01.55.821,00_bat_bachelor,2022.2.4,60.03024067386146,
,,,,,,,,,,,,1,0,1,0,34,0,34,0,,,,,,,34,,,0.2,1235.4405636651813,X,l,go,l,1,0.6014258141433686,,,,,,,,,,,,,,,,,,17,001,20,w,Psychologie,2023-01-16_09h01.55.821,00_bat_bachelor,2022.2.4,60.03024067386146,
,,,,,,,,,,,,1,0,1,0,35,0,35,0,,,,,,,35,,,0.2,1236.3578218871166,Y,d,go,d,1,0.32354667614507093,,,,,,,,,,,,,,,,,,17,001,20,w,Psychologie,2023-01-16_09h01.55.821,00_bat_bachelor,2022.2.4,60.03024067386146,
,,,,,,,,,,,,1,0,1,0,36,0,36,0,,,,,,,36,,,0.2,1236.9917338221896,X,l,go,l,1,0.4737686639164451,,,,,,,,,,,,,,,,,,17,001,20,w,Psychologie,2023-01-16_09h01.55.821,00_bat_bachelor,2022.2.4,60.03024067386146,
,,,,,,,,,,,,1,0,1,0,37,0,37,0,,,,,,,37,,,0.2,1237.7755855633525,X,None,nogo,None,1,,1238.575998751031,,,,,,,,,,,,,,,,,17,001,20,w,Psychologie,2023-01-16_09h01.55.821,00_bat_bachelor,2022.2.4,60.03024067386146,
,,,,,,,,,,,,1,0,1,0,38,0,38,0,,,,,,,38,,,0.2,1238.7763991387155,Y,d,go,d,1,0.25802428367117614,,,,,,,,,,,,,,,,,,17,001,20,w,Psychologie,2023-01-16_09h01.55.821,00_bat_bachelor,2022.2.4,60.03024067386146,
,,,,,,,,,,,,1,0,1,0,39,0,39,0,,,,,,,39,,,0.2,1239.343149409382,X,l,go,None,0,,1240.1438336272322,,,,,,,,,,,,,,,,,17,001,20,w,Psychologie,2023-01-16_09h01.55.821,00_bat_bachelor,2022.2.4,60.03024067386146,
,,,,,,,,,,,,1,0,1,0,40,0,40,0,,,,,,,40,,,0.2,1240.3442480755161,X,None,nogo,l,0,0.5287751827011391,,,,,,,,,,,,,,,,,,17,001,20,w,Psychologie,2023-01-16_09h01.55.821,00_bat_bachelor,2022.2.4,60.03024067386146,
,,,,,,,,,,,,1,0,1,0,41,0,41,0,,,,,,,41,,,0.2,1241.1782147014717,Y,d,go,d,1,0.46305933577539804,,,,,,,,,,,,,,,,,,17,001,20,w,Psychologie,2023-01-16_09h01.55.821,00_bat_bachelor,2022.2.4,60.03024067386146,
,,,,,,,,,,,,1,0,1,0,42,0,42,0,,,,,,,42,,,0.2,1241.9454763900721,X,l,go,l,1,0.6562490602896389,,,,,,,,,,,,,,,,,,17,001,20,w,Psychologie,2023-01-16_09h01.55.821,00_bat_bachelor,2022.2.4,60.03024067386146,
,,,,,,,,,,,,1,0,1,0,43,0,43,0,,,,,,,43,,,0.2,1242.9125605272434,X,None,nogo,d,0,0.3120417120262857,,,,,,,,,,,,,,,,,,17,001,20,w,Psychologie,2023-01-16_09h01.55.821,00_bat_bachelor,2022.2.4,60.03024067386146,
,,,,,,,,,,,,1,0,1,0,44,0,44,0,,,,,,,44,,,0.2,1243.5298998642909,Y,d,go,d,1,0.3988785184085657,,,,,,,,,,,,,,,,,,17,001,20,w,Psychologie,2023-01-16_09h01.55.821,00_bat_bachelor,2022.2.4,60.03024067386146,
,,,,,,,,,,,,1,0,1,0,45,0,45,0,,,,,,,45,,,0.2,1244.2304522519019,X,l,go,None,0,,,,,,,,,,,,,,,,,,,17,001,20,w,Psychologie,2023-01-16_09h01.55.821,00_bat_bachelor,2022.2.4,60.03024067386146,
,,,,,,,,,,,,1,0,1,0,46,0,46,0,,,,,,,46,,,0.2,1245.2310355243465,Y,d,go,l,0,0.28277578682198623,,,,,,,,,,,,,,,,,,17,001,20,w,Psychologie,2023-01-16_09h01.55.821,00_bat_bachelor,2022.2.4,60.03024067386146,
,,,,,,,,,,,,1,0,1,0,47,0,47,0,,,,,,,47,,,0.2,1245.815153544168,Y,None,nogo,None,1,,1246.6157475802436,,,,,,,,,,,,,,,,,17,001,20,w,Psychologie,2023-01-16_09h01.55.821,00_bat_bachelor,2022.2.4,60.03024067386146,
,,,,,,,,,,,,1,0,1,0,48,0,48,0,,,,,,,48,,,0.2,1246.81575136206,X,l,go,l,1,0.34634569539414883,,,,,,,,,,,,,,,,,,17,001,20,w,Psychologie,2023-01-16_09h01.55.821,00_bat_bachelor,2022.2.4,60.03024067386146,
,,,,,,,,,,,,1,0,1,0,49,0,49,0,,,,,,,49,,,0.2,1247.466241228489,Y,d,go,d,1,0.3344324890490782,,,,,,,,,,,,,,,,,,17,001,20,w,Psychologie,2023-01-16_09h01.55.821,00_bat_bachelor,2022.2.4,60.03024067386146,
,,,,,,,,,,,,1,0,1,0,50,0,50,0,,,,,,,50,,,0.2,1248.1169279433077,X,l,go,l,1,0.5164159159662915,,,,,,,,,,,,,,,,,,17,001,20,w,Psychologie,2023-01-16_09h01.55.821,00_bat_bachelor,2022.2.4,60.03024067386146,
,,,,,,,,,,,,1,0,1,0,51,0,51,0,,,,,,,51,,,0.2,1248.9341115470975,X,None,nogo,d,0,0.30691298724039484,,,,,,,,,,,,,,,,,,17,001,20,w,Psychologie,2023-01-16_09h01.55.821,00_bat_bachelor,2022.2.4,60.03024067386146,
,,,,,,,,,,,,1,0,1,0,52,0,52,0,,,,,,,52,,,0.2,1249.5512593690864,Y,d,go,None,0,,1250.351899950594,,,,,,,,,,,,,,,,,17,001,20,w,Psychologie,2023-01-16_09h01.55.821,00_bat_bachelor,2022.2.4,60.03024067386146,
,,,,,,,,,,,,1,0,1,0,53,0,53,0,,,,,,,53,,,0.2,1250.5519619142003,X,l,go,l,1,0.4488586153877634,,,,,,,,,,,,,,,,,,17,001,20,w,Psychologie,2023-01-16_09h01.55.821,00_bat_bachelor,2022.2.4,60.03024067386146,
,,,,,,,,,,,,1,0,1,0,54,0,54,0,,,,,,,54,,,0.2,1251.3026733077947,Y,d,go,d,1,0.32380946389665155,,,,,,,,,,,,,,,,,,17,001,20,w,Psychologie,2023-01-16_09h01.55.821,00_bat_bachelor,2022.2.4,60.03024067386146,
,,,,,,,,,,,,1,0,1,0,55,0,55,0,,,,,,,55,,,0.2,1251.9361173643067,Y,None,nogo,l,0,0.3447626658587808,,,,,,,,,,,,,,,,,,17,001,20,w,Psychologie,2023-01-16_09h01.55.821,00_bat_bachelor,2022.2.4,60.03024067386146,
,,,,,,,,,,,,1,0,1,0,56,0,56,0,,,,,,,56,,,0.2,1252.586937412394,X,l,go,None,0,,,,,,,,,,,,,,,,,,,17,001,20,w,Psychologie,2023-01-16_09h01.55.821,00_bat_bachelor,2022.2.4,60.03024067386146,
,,,,,,,,,,,,1,0,1,0,57,0,57,0,,,,,,,57,,,0.2,1253.5877403210957,Y,d,go,None,0,,1254.3883285389923,,,,,,,,,,,,,,,,,17,001,20,w,Psychologie,2023-01-16_09h01.55.821,00_bat_bachelor,2022.2.4,60.03024067386146,
,,,,,,,,,,,,1,0,1,0,58,0,58,0,,,,,,,58,,,0.2,1254.588172320886,X,l,go,None,0,,1255.3888846599348,,,,,,,,,,,,,,,,,17,001,20,w,Psychologie,2023-01-16_09h01.55.821,00_bat_bachelor,2022.2.4,60.03024067386146,
,,,,,,,,,,,,1,0,1,0,59,0,59,0,,,,,,,59,,,0.2,1255.589172077977,Y,d,go,d,1,0.2600635554097437,,,,,,,,,,,,,,,,,,17,001,20,w,Psychologie,2023-01-16_09h01.55.821,00_bat_bachelor,2022.2.4,60.03024067386146,
,,,,,,,,,,,,1,0,1,0,60,0,60,0,,,,,,,60,,,0.2,1256.156142469749,X,l,go,l,1,0.36537453465282965,,,,,,,,,,,,,,,,,,17,001,20,w,Psychologie,2023-01-16_09h01.55.821,00_bat_bachelor,2022.2.4,60.03024067386146,
,,,,,,,,,,,,1,0,1,0,61,0,61,0,,,,,,,61,,,0.2,1256.82336105534,Y,d,go,None,0,,1257.6237839399835,,,,,,,,,,,,,,,,,17,001,20,w,Psychologie,2023-01-16_09h01.55.821,00_bat_bachelor,2022.2.4,60.03024067386146,
,,,,,,,,,,,,1,0,1,0,62,0,62,0,,,,,,,62,,,0.2,1257.8242987518552,X,l,go,None,0,,,,,,,,,,,,,,,,,,,17,001,20,w,Psychologie,2023-01-16_09h01.55.821,00_bat_bachelor,2022.2.4,60.03024067386146,
,,,,,,,,,,,,1,0,1,0,63,0,63,0,,,,,,,63,,,0.2,1258.8247617819336,Y,d,go,d,1,0.12861052823544128,,,,,,,,,,,,,,,,,,17,001,20,w,Psychologie,2023-01-16_09h01.55.821,00_bat_bachelor,2022.2.4,60.03024067386146,
,,,,,,,,,,,,1,0,1,0,64,0,64,0,,,,,,,64,,,0.2,1259.258525450412,X,l,go,None,0,,,,,,,,,,,,,,,,,,,17,001,20,w,Psychologie,2023-01-16_09h01.55.821,00_bat_bachelor,2022.2.4,60.03024067386146,
,,,,,,,,,,,,1,0,1,0,65,0,65,0,,,,,,,65,,,0.2,1260.2594859347946,Y,d,go,l,0,0.053693716073922815,,,,,,,,,,,,,,,,,,17,001,20,w,Psychologie,2023-01-16_09h01.55.821,00_bat_bachelor,2022.2.4,60.03024067386146,
,,,,,,,,,,,,1,0,1,0,66,0,66,0,,,,,,,66,,,0.2,1260.626457878081,X,l,go,None,0,,1261.4269723990437,,,,,,,,,,,,,,,,,17,001,20,w,Psychologie,2023-01-16_09h01.55.821,00_bat_bachelor,2022.2.4,60.03024067386146,
,,,,,,,,,,,,1,0,1,0,67,0,67,0,,,,,,,67,,,0.2,1261.6270726656617,X,None,nogo,None,1,,,,,,,,,,,,,,,,,,,17,001,20,w,Psychologie,2023-01-16_09h01.55.821,00_bat_bachelor,2022.2.4,60.03024067386146,
,,,,,,,,,,,,1,0,1,0,68,0,68,0,,,,,,,68,,,0.2,1262.6279589682624,Y,d,go,d,1,0.3735083488909652,,,,,,,,,,,,,,,,,,17,001,20,w,Psychologie,2023-01-16_09h01.55.821,00_bat_bachelor,2022.2.4,60.03024067386146,
,,,,,,,,,,,,1,0,1,0,69,0,69,0,,,,,,,69,,,0.2,1263.3118674851553,X,l,go,l,1,0.23354962887086117,,,,,,,,,,,,,,,,,,17,001,20,w,Psychologie,2023-01-16_09h01.55.821,00_bat_bachelor,2022.2.4,60.03024067386146,
,,,,,,,,,,,,1,0,1,0,70,0,70,0,,,,,,,70,,,0.2,1263.845247590183,X,None,nogo,d,0,0.2913154190451053,,,,,,,,,,,,,,,,,,17,001,20,w,Psychologie,2023-01-16_09h01.55.821,00_bat_bachelor,2022.2.4,60.03024067386146,
,,,,,,,,,,,,1,0,1,0,71,0,71,0,,,,,,,71,,,0.2,1264.4458611171583,Y,d,go,None,0,,,,,,,,,,,,,,,,,,,17,001,20,w,Psychologie,2023-01-16_09h01.55.821,00_bat_bachelor,2022.2.4,60.03024067386146,
,,,,,,,,,,,,1,0,1,0,72,0,72,0,,,,,,,72,,,0.2,1265.4466082683111,X,l,go,l,1,0.13121998151567027,,,,,,,,,,,,,,,,,,17,001,20,w,Psychologie,2023-01-16_09h01.55.821,00_bat_bachelor,2022.2.4,60.03024067386146,
,,,,,,,,,,,,1,0,1,0,73,0,73,0,,,,,,,73,,,0.2,1265.8800795732948,Y,d,go,None,0,,,,,,,,,,,,,,,,,,,17,001,20,w,Psychologie,2023-01-16_09h01.55.821,00_bat_bachelor,2022.2.4,60.03024067386146,
,,,,,,,,,,,,1,0,1,0,74,0,74,0,,,,,,,74,,,0.2,1266.881188421242,X,l,go,d,0,0.19939982724670813,,,,,,,,,,,,,,,,,,17,001,20,w,Psychologie,2023-01-16_09h01.55.821,00_bat_bachelor,2022.2.4,60.03024067386146,
,,,,,,,,,,,,1,0,1,0,75,0,75,0,,,,,,,75,,,0.2,1267.3814238150674,X,None,nogo,None,1,,,,,,,,,,,,,,,,,,,17,001,20,w,Psychologie,2023-01-16_09h01.55.821,00_bat_bachelor,2022.2.4,60.03024067386146,
,,,,,,,,,,,,1,0,1,0,76,0,76,0,,,,,,,76,,,0.2,1268.3820473299165,Y,d,go,d,1,0.20324031023326938,,,,,,,,,,,,,,,,,,17,001,20,w,Psychologie,2023-01-16_09h01.55.821,00_bat_bachelor,2022.2.4,60.03024067386146,
,,,,,,,,,,,,1,0,1,0,77,0,77,0,,,,,,,77,,,0.2,1268.8995268365932,X,l,go,l,1,0.3412101827325671,,,,,,,,,,,,,,,,,,17,001,20,w,Psychologie,2023-01-16_09h01.55.821,00_bat_bachelor,2022.2.4,60.03024067386146,
,,,,,,,,,,,,1,0,1,0,78,0,78,0,,,,,,,78,,,0.2,1269.5498799758159,Y,d,go,d,1,0.47564987512535595,,,,,,,,,,,,,,,,,,17,001,20,w,Psychologie,2023-01-16_09h01.55.821,00_bat_bachelor,2022.2.4,60.03024067386146,
,,,,,,,,,,,,1,0,1,0,79,0,79,0,,,,,,,79,,,0.2,1270.3336808079123,X,l,go,l,1,0.26690427936571837,,,,,,,,,,,,,,,,,,17,001,20,w,Psychologie,2023-01-16_09h01.55.821,00_bat_bachelor,2022.2.4,60.03024067386146,
,,,,,,,,,,,,1,0,1,0,80,0,80,0,,,,,,,80,,,0.2,1270.9175714339049,Y,d,go,d,1,0.5482331126609381,,,,,,,,,,,,,,,,,,17,001,20,w,Psychologie,2023-01-16_09h01.55.821,00_bat_bachelor,2022.2.4,60.03024067386146,
,,,,,,,,,,,,1,0,1,0,81,0,81,0,,,,,,,81,,,0.2,1271.7681659305863,X,l,go,l,1,0.4977628341009961,,,,,,,,,,,,,,,,,,17,001,20,w,Psychologie,2023-01-16_09h01.55.821,00_bat_bachelor,2022.2.4,60.03024067386146,
,,,,,,,,,,,,1,0,1,0,82,0,82,0,,,,,,,82,,,0.2,1272.5685044516342,Y,d,go,d,1,0.41649014623320113,,,,,,,,,,,,,,,,,,17,001,20,w,Psychologie,2023-01-16_09h01.55.821,00_bat_bachelor,2022.2.4,60.03024067386146,
,,,,,,,,,,,,1,0,1,0,83,0,83,0,,,,,,,83,,,0.2,1273.2859916189132,X,l,go,l,1,0.41861717550503386,,,,,,,,,,,,,,,,,,17,001,20,w,Psychologie,2023-01-16_09h01.55.821,00_bat_bachelor,2022.2.4,60.03024067386146,
,,,,,,,,,,,,1,0,1,0,84,0,84,0,,,,,,,84,,,0.2,1274.0199660509256,X,None,nogo,None,1,,,,,,,,,,,,,,,,,,,17,001,20,w,Psychologie,2023-01-16_09h01.55.821,00_bat_bachelor,2022.2.4,60.03024067386146,
,,,,,,,,,,,,1,0,1,0,85,0,85,0,,,,,,,85,,,0.2,1275.020749565697,Y,d,go,d,1,0.23592635499133507,,,,,,,,,,,,,,,,,,17,001,20,w,Psychologie,2023-01-16_09h01.55.821,00_bat_bachelor,2022.2.4,60.03024067386146,
,,,,,,,,,,,,1,0,1,0,86,0,86,0,,,,,,,86,,,0.2,1275.5708419050463,X,l,go,l,1,0.2295321762733522,,,,,,,,,,,,,,,,,,17,001,20,w,Psychologie,2023-01-16_09h01.55.821,00_bat_bachelor,2022.2.4,60.03024067386146,
,,,,,,,,,,,,1,0,1,0,87,0,87,0,,,,,,,87,,,0.2,1276.1047727976859,X,None,nogo,l,0,0.5764760080581084,,,,,,,,,,,,,,,,,,17,001,20,w,Psychologie,2023-01-16_09h01.55.821,00_bat_bachelor,2022.2.4,60.03024067386146,
,,,,,,,,,,,,1,0,1,0,88,0,88,0,,,,,,,88,,,0.2,1276.9888683690335,Y,d,go,None,0,,,,,,,,,,,,,,,,,,,17,001,20,w,Psychologie,2023-01-16_09h01.55.821,00_bat_bachelor,2022.2.4,60.03024067386146,
,,,,,,,,,,,,1,0,1,0,89,0,89,0,,,,,,,89,,,0.2,1277.9892993991275,X,l,go,d,0,0.21243206335228138,,,,,,,,,,,,,,,,,,17,001,20,w,Psychologie,2023-01-16_09h01.55.821,00_bat_bachelor,2022.2.4,60.03024067386146,
,,,,,,,,,,,,1,0,1,0,90,0,90,0,,,,,,,90,,,0.2,1278.506679511913,Y,d,go,d,1,0.4634700022429854,,,,,,,,,,,,,,,,,,17,001,20,w,Psychologie,2023-01-16_09h01.55.821,00_bat_bachelor,2022.2.4,60.03024067386146,
,,,,,,,,,,,,1,0,1,0,91,0,91,0,,,,,,,91,,,0.2,1279.2738151399685,X,l,go,l,1,0.5445138417369719,,,,,,,,,,,,,,,,,,17,001,20,w,Psychologie,2023-01-16_09h01.55.821,00_bat_bachelor,2022.2.4,60.03024067386146,
,,,,,,,,,,,,1,0,1,0,92,0,92,0,,,,,,,92,,,0.2,1280.1243795760583,Y,d,go,d,1,0.413765783917853,,,,,,,,,,,,,,,,,,17,001,20,w,Psychologie,2023-01-16_09h01.55.821,00_bat_bachelor,2022.2.4,60.03024067386146,
,,,,,,,,,,,,1,0,1,0,93,0,93,0,,,,,,,93,,,0.2,1280.8417930464034,X,l,go,None,0,,1281.6423381128059,,,,,,,,,,,,,,,,,17,001,20,w,Psychologie,2023-01-16_09h01.55.821,00_bat_bachelor,2022.2.4,60.03024067386146,
,,,,,,,,,,,,1,0,1,0,94,0,94,0,,,,,,,94,,,0.2,1281.8425523187625,Y,d,go,d,1,0.5665933461830548,,,,,,,,,,,,,,,,,,17,001,20,w,Psychologie,2023-01-16_09h01.55.821,00_bat_bachelor,2022.2.4,60.03024067386146,
,,,,,,,,,,,,1,0,1,0,95,0,95,0,,,,,,,95,,,0.2,1282.7099191709483,X,l,go,l,1,0.33935757757015494,,,,,,,,,,,,,,,,,,17,001,20,w,Psychologie,2023-01-16_09h01.55.821,00_bat_bachelor,2022.2.4,60.03024067386146,
,,,,,,,,,,,,1,0,1,0,96,0,96,0,,,,,,,96,,,0.2,1283.3603241889336,Y,d,go,d,1,0.32947540054331625,,,,,,,,,,,,,,,,,,17,001,20,w,Psychologie,2023-01-16_09h01.55.821,00_bat_bachelor,2022.2.4,60.03024067386146,
,,,,,,,,,,,,1,0,1,0,97,0,97,0,,,,,,,97,,,0.2,1283.9941517604113,X,l,go,l,1,0.3345779435240104,,,,,,,,,,,,,,,,,,17,001,20,w,Psychologie,2023-01-16_09h01.55.821,00_bat_bachelor,2022.2.4,60.03024067386146,
,,,,,,,,,,,,1,0,1,0,98,0,98,0,,,,,,,98,,,0.2,1284.6443599300073,Y,d,go,d,1,0.35636944810997306,,,,,,,,,,,,,,,,,,17,001,20,w,Psychologie,2023-01-16_09h01.55.821,00_bat_bachelor,2022.2.4,60.03024067386146,
,,,,,,,,,,,,1,0,1,0,99,0,99,0,,,,,,,99,,,0.2,1285.311873303334,X,l,go,l,1,0.5060522846274864,,,,,,,,,,,,,,,,,,17,001,20,w,Psychologie,2023-01-16_09h01.55.821,00_bat_bachelor,2022.2.4,60.03024067386146,
,,,,,,,,,,,,1,0,1,0,100,0,100,0,,,,,,,100,,,0.2,1286.1288891496295,X,None,nogo,None,1,,,,,,,,,,,,,,,,,,,17,001,20,w,Psychologie,2023-01-16_09h01.55.821,00_bat_bachelor,2022.2.4,60.03024067386146,
,,,,,,,,,,,,1,0,1,0,101,0,101,0,,,,,,,101,,,0.2,1287.1295849068679,Y,d,go,d,1,0.22259545236400413,,,,,,,,,,,,,,,,,,17,001,20,w,Psychologie,2023-01-16_09h01.55.821,00_bat_bachelor,2022.2.4,60.03024067386146,
,,,,,,,,,,,,1,0,1,0,102,0,102,0,,,,,,,102,,,0.2,1287.6636437994455,X,l,go,l,1,0.3457376956889959,,,,,,,,,,,,,,,,,,17,001,20,w,Psychologie,2023-01-16_09h01.55.821,00_bat_bachelor,2022.2.4,60.03024067386146,
,,,,,,,,,,,,1,0,1,0,103,0,103,0,,,,,,,103,,,0.2,1288.31412105982,X,None,nogo,None,1,,1289.1146220050318,,,,,,,,,,,,,,,,,17,001,20,w,Psychologie,2023-01-16_09h01.55.821,00_bat_bachelor,2022.2.4,60.03024067386146,
,,,,,,,,,,,,1,0,1,0,104,0,104,0,,,,,,,104,,,0.2,1289.3146417868404,Y,d,go,d,1,0.10248593484132584,,,,,,,,,,,,,,,,,,17,001,20,w,Psychologie,2023-01-16_09h01.55.821,00_bat_bachelor,2022.2.4,60.03024067386146,
,,,,,,,,,,,,1,0,1,0,105,0,105,0,,,,,,,105,,,0.2,1289.7319671602584,X,l,go,l,1,0.5983126035314683,,,,,,,,,,,,,,,,,,17,001,20,w,Psychologie,2023-01-16_09h01.55.821,00_bat_bachelor,2022.2.4,60.03024067386146,
,,,,,,,,,,,,1,0,1,0,106,0,106,0,,,,,,,106,,,0.2,1290.6325466024016,Y,d,go,d,1,0.4004416691657582,,,,,,,,,,,,,,,,,,17,001,20,w,Psychologie,2023-01-16_09h01.55.821,00_bat_bachelor,2022.2.4,60.03024067386146,
,,,,,,,,,,,,1,0,1,0,107,0,107,0,,,,,,,107,,,0.2,1291.3327760810782,Y,None,nogo,None,1,,,,,,,,,,,,,,,,,,,17,001,20,w,Psychologie,2023-01-16_09h01.55.821,00_bat_bachelor,2022.2.4,60.03024067386146,
,,,,,,,,,,,,1,0,1,0,108,0,108,0,,,,,,,108,,,0.2,1292.3335314746514,X,l,go,l,1,0.2673125215922312,,,,,,,,,,,,,,,,,,17,001,20,w,Psychologie,2023-01-16_09h01.55.821,00_bat_bachelor,2022.2.4,60.03024067386146,
,,,,,,,,,,,,1,0,1,0,109,0,109,0,,,,,,,109,,,0.2,1292.9173736158189,Y,d,go,d,1,0.4198535385419575,,,,,,,,,,,,,,,,,,17,001,20,w,Psychologie,2023-01-16_09h01.55.821,00_bat_bachelor,2022.2.4,60.03024067386146,
,,,,,,,,,,,,1,0,1,0,110,0,110,0,,,,,,,110,,,0.2,1293.6514634417147,X,l,go,l,1,0.31051250064663805,,,,,,,,,,,,,,,,,,17,001,20,w,Psychologie,2023-01-16_09h01.55.821,00_bat_bachelor,2022.2.4,60.03024067386146,
,,,,,,,,,,,,1,0,1,0,111,0,111,0,,,,,,,111,,,0.2,1294.268574900085,X,None,nogo,None,1,,,,,,,,,,,,,,,,,,,17,001,20,w,Psychologie,2023-01-16_09h01.55.821,00_bat_bachelor,2022.2.4,60.03024067386146,
,,,,,,,,,,,,1,0,1,0,112,0,112,0,,,,,,,112,,,0.2,1295.2694422936038,Y,d,go,d,1,0.22815035876149636,,,,,,,,,,,,,,,,,,17,001,20,w,Psychologie,2023-01-16_09h01.55.821,00_bat_bachelor,2022.2.4,60.03024067386146,
,,,,,,,,,,,,1,0,1,0,113,0,113,0,,,,,,,113,,,0.2,1295.8030119742973,X,l,go,l,1,0.5260071840430385,,,,,,,,,,,,,,,,,,17,001,20,w,Psychologie,2023-01-16_09h01.55.821,00_bat_bachelor,2022.2.4,60.03024067386146,
,,,,,,,,,,,,1,0,1,0,114,0,114,0,,,,,,,114,,,0.2,1296.6368132669998,Y,d,go,d,1,0.4289953522911958,,,,,,,,,,,,,,,,,,17,001,20,w,Psychologie,2023-01-16_09h01.55.821,00_bat_bachelor,2022.2.4,60.03024067386146,
,,,,,,,,,,,,1,0,1,0,115,0,115,0,,,,,,,115,,,0.2,1297.3707227293467,Y,None,nogo,None,1,,,,,,,,,,,,,,,,,,,17,001,20,w,Psychologie,2023-01-16_09h01.55.821,00_bat_bachelor,2022.2.4,60.03024067386146,
,,,,,,,,,,,,1,0,1,0,116,0,116,0,,,,,,,116,,,0.2,1298.3714902441259,X,l,go,l,1,0.005493012171228884,,,,,,,,,,,,,,,,,,17,001,20,w,Psychologie,2023-01-16_09h01.55.821,00_bat_bachelor,2022.2.4,60.03024067386146,
,,,,,,,,,,,,1,0,1,0,117,0,117,0,,,,,,,117,,,0.2,1298.688404514713,Y,d,go,None,0,,,,,,,,,,,,,,,,,,,17,001,20,w,Psychologie,2023-01-16_09h01.55.821,00_bat_bachelor,2022.2.4,60.03024067386146,
,,,,,,,,,,,,1,0,1,0,118,0,118,0,,,,,,,118,,,0.2,1299.6890488780368,X,l,go,None,0,,,,,,,,,,,,,,,,,,,17,001,20,w,Psychologie,2023-01-16_09h01.55.821,00_bat_bachelor,2022.2.4,60.03024067386146,
,,,,,,,,,,,,1,0,1,0,119,0,119,0,,,,,,,119,,,0.2,1300.6900845138985,Y,d,go,d,1,0.1829891685368068,,,,,,,,,,,,,,,,,,17,001,20,w,Psychologie,2023-01-16_09h01.55.821,00_bat_bachelor,2022.2.4,60.03024067386146,
,,,,,,,,,,,,1,0,1,0,120,0,120,0,,,,,,,120,,,0.2,1301.1738345823833,X,l,go,l,1,0.32362328216871106,,,,,,,,,,,,,,,,,,17,001,20,w,Psychologie,2023-01-16_09h01.55.821,00_bat_bachelor,2022.2.4,60.03024067386146,
,,,,,,,,,,,,1,0,1,0,121,0,121,0,,,,,,,121,,,0.2,1301.807532699378,Y,d,go,d,1,0.5692745570043201,,,,,,,,,,,,,,,,,,17,001,20,w,Psychologie,2023-01-16_09h01.55.821,00_bat_bachelor,2022.2.4,60.03024067386146,
,,,,,,,,,,,,1,0,1,0,122,0,122,0,,,,,,,122,,,0.2,1302.6915070586633,X,l,go,l,1,0.5171955519518008,,,,,,,,,,,,,,,,,,17,001,20,w,Psychologie,2023-01-16_09h01.55.821,00_bat_bachelor,2022.2.4,60.03024067386146,
,,,,,,,,,,,,1,0,1,0,123,0,123,0,,,,,,,123,,,0.2,1303.5090232683524,X,None,nogo,None,1,,1304.3093840924198,,,,,,,,,,,,,,,,,17,001,20,w,Psychologie,2023-01-16_09h01.55.821,00_bat_bachelor,2022.2.4,60.03024067386146,
,,,,,,,,,,,,1,0,1,0,124,0,124,0,,,,,,,124,,,0.2,1304.5096429044156,Y,d,go,None,0,,1305.3103891828416,,,,,,,,,,,,,,,,,17,001,20,w,Psychologie,2023-01-16_09h01.55.821,00_bat_bachelor,2022.2.4,60.03024067386146,
,,,,,,,,,,,,1,0,1,0,125,0,125,0,,,,,,,125,,,0.2,1305.5104637525023,X,l,go,d,0,0.09918023947446386,,,,,,,,,,,,,,,,,,17,001,20,w,Psychologie,2023-01-16_09h01.55.821,00_bat_bachelor,2022.2.4,60.03024067386146,
,,,,,,,,,,,,1,0,1,0,126,0,126,0,,,,,,,126,,,0.2,1305.9107704675052,X,None,nogo,l,0,0.4022428804137519,,,,,,,,,,,,,,,,,,17,001,20,w,Psychologie,2023-01-16_09h01.55.821,00_bat_bachelor,2022.2.4,60.03024067386146,
,,,,,,,,,,,,1,0,1,0,127,0,127,0,,,,,,,127,,,0.2,1306.627816422877,Y,d,go,None,0,,,,,,,,,,,,,,,,,,,17,001,20,w,Psychologie,2023-01-16_09h01.55.821,00_bat_bachelor,2022.2.4,60.03024067386146,
,,,,,,,,,,,,1,0,1,0,128,0,128,0,,,,,,,128,,,0.2,1307.628849634497,X,l,go,l,1,0.20417606735534832,,,,,,,,,,,,,,,,,,17,001,20,w,Psychologie,2023-01-16_09h01.55.821,00_bat_bachelor,2022.2.4,60.03024067386146,
,,,,,,,,,,,,1,0,1,0,129,0,129,0,,,,,,,129,,,0.2,1308.1458515656477,X,None,nogo,d,0,0.4240683243772594,,,,,,,,,,,,,,,,,,17,001,20,w,Psychologie,2023-01-16_09h01.55.821,00_bat_bachelor,2022.2.4,60.03024067386146,
,,,,,,,,,,,,1,0,1,0,130,0,130,0,,,,,,,130,,,0.2,1308.8797154522592,Y,d,go,l,0,0.5536367464046918,,,,,,,,,,,,,,,,,,17,001,20,w,Psychologie,2023-01-16_09h01.55.821,00_bat_bachelor,2022.2.4,60.03024067386146,
,,,,,,,,,,,,1,0,1,0,131,0,131,0,,,,,,,131,,,0.2,1309.7470682438457,X,l,go,None,0,,,,,,,,,,,,,,,,,,,17,001,20,w,Psychologie,2023-01-16_09h01.55.821,00_bat_bachelor,2022.2.4,60.03024067386146,
,,,,,,,,,,,,1,0,1,0,132,0,132,0,,,,,,,132,,,0.2,1310.7475923648037,X,None,nogo,d,0,0.030066576014206703,,,,,,,,,,,,,,,,,,17,001,20,w,Psychologie,2023-01-16_09h01.55.821,00_bat_bachelor,2022.2.4,60.03024067386146,
,,,,,,,,,,,,1,0,1,0,133,0,133,0,,,,,,,133,,,0.2,1311.0815582634868,Y,d,go,None,0,,1311.8819486632976,,,,,,,,,,,,,,,,,17,001,20,w,Psychologie,2023-01-16_09h01.55.821,00_bat_bachelor,2022.2.4,60.03024067386146,
,,,,,,,,,,,,1,0,1,0,134,0,134,0,,,,,,,134,,,0.2,1312.0822675964764,X,l,go,l,1,0.022207185885491754,,,,,,,,,,,,,,,,,,17,001,20,w,Psychologie,2023-01-16_09h01.55.821,00_bat_bachelor,2022.2.4,60.03024067386146,
,,,,,,,,,,,,1,0,1,0,135,0,135,0,,,,,,,135,,,0.2,1312.415867434731,X,None,nogo,None,1,,1313.2164120162852,,,,,,,,,,,,,,,,,17,001,20,w,Psychologie,2023-01-16_09h01.55.821,00_bat_bachelor,2022.2.4,60.03024067386146,
,,,,,,,,,,,,1,0,1,0,136,0,136,0,,,,,,,136,,,0.2,1313.416702343417,Y,d,go,d,1,0.19301583034214786,,,,,,,,,,,,,,,,,,17,001,20,w,Psychologie,2023-01-16_09h01.55.821,00_bat_bachelor,2022.2.4,60.03024067386146,
,,,,,,,,,,,,1,0,1,0,137,0,137,0,,,,,,,137,,,0.2,1313.9341037895254,X,l,go,None,0,,1314.7351249769092,,,,,,,,,,,,,,,,,17,001,20,w,Psychologie,2023-01-16_09h01.55.821,00_bat_bachelor,2022.2.4,60.03024067386146,
,,,,,,,,,,,,1,0,1,0,138,0,138,0,,,,,,,138,,,0.2,1314.9349454860871,X,None,nogo,None,1,,1315.7357819462875,,,,,,,,,,,,,,,,,17,001,20,w,Psychologie,2023-01-16_09h01.55.821,00_bat_bachelor,2022.2.4,60.03024067386146,
,,,,,,,,,,,,1,0,1,0,139,0,139,0,,,,,,,139,,,0.2,1315.9359753037695,X,None,nogo,l,0,0.32873746150724514,,,,,,,,,,,,,,,,,,17,001,20,w,Psychologie,2023-01-16_09h01.55.821,00_bat_bachelor,2022.2.4,60.03024067386146,
,,,,,,,,,,,,1,0,1,0,140,0,140,0,,,,,,,140,,,0.2,1316.5864026247746,Y,d,go,d,1,0.4142011776459924,,,,,,,,,,,,,,,,,,17,001,20,w,Psychologie,2023-01-16_09h01.55.821,00_bat_bachelor,2022.2.4,60.03024067386146,
,,,,,,,,,,,,1,0,1,0,141,0,141,0,,,,,,,141,,,0.2,1317.3371416547193,X,l,go,l,1,0.4478040704446187,,,,,,,,,,,,,,,,,,17,001,20,w,Psychologie,2023-01-16_09h01.55.821,00_bat_bachelor,2022.2.4,60.03024067386146,
,,,,,,,,,,,,1,0,1,0,142,0,142,0,,,,,,,142,,,0.2,1318.1208925474461,X,None,nogo,None,1,,1318.9212320381905,,,,,,,,,,,,,,,,,17,001,20,w,Psychologie,2023-01-16_09h01.55.821,00_bat_bachelor,2022.2.4,60.03024067386146,
,,,,,,,,,,,,1,0,1,0,143,0,143,0,,,,,,,143,,,0.2,1319.1216246683032,Y,d,go,d,1,0.07156037407801819,,,,,,,,,,,,,,,,,,17,001,20,w,Psychologie,2023-01-16_09h01.55.821,00_bat_bachelor,2022.2.4,60.03024067386146,
,,,,,,,,,,,,1,0,1,0,144,0,144,0,,,,,,,144,,,0.2,1319.52196629238,X,l,go,None,0,,1320.3224817830392,,,,,,,,,,,,,,,,,17,001,20,w,Psychologie,2023-01-16_09h01.55.821,00_bat_bachelor,2022.2.4,60.03024067386146,
,,,,,,,,,,,,1,0,1,0,145,0,145,0,,,,,,,145,,,0.2,1320.52264217084,Y,d,go,None,0,,1321.3233210553594,,,,,,,,,,,,,,,,,17,001,20,w,Psychologie,2023-01-16_09h01.55.821,00_bat_bachelor,2022.2.4,60.03024067386146,
,,,,,,,,,,,,1,0,1,0,146,0,146,0,,,,,,,146,,,0.2,1321.5232288372224,Y,None,nogo,d,0,0.1171884731673174,,,,,,,,,,,,,,,,,,17,001,20,w,Psychologie,2023-01-16_09h01.55.821,00_bat_bachelor,2022.2.4,60.03024067386146,
,,,,,,,,,,,,1,0,1,0,147,0,147,0,,,,,,,147,,,0.2,1321.9736160127923,Y,None,nogo,None,1,,1322.7741678670702,,,,,,,,,,,,,,,,,17,001,20,w,Psychologie,2023-01-16_09h01.55.821,00_bat_bachelor,2022.2.4,60.03024067386146,
,,,,,,,,,,,,1,0,1,0,148,0,148,0,,,,,,,148,,,0.2,1322.9743093457894,X,l,go,l,1,0.17050141701568577,,,,,,,,,,,,,,,,,,17,001,20,w,Psychologie,2023-01-16_09h01.55.821,00_bat_bachelor,2022.2.4,60.03024067386146,
,,,,,,,,,,,,1,0,1,0,149,0,149,0,,,,,,,149,,,0.2,1323.491144489142,Y,d,go,d,1,0.38977840160853816,,,,,,,,,,,,,,,,,,17,001,20,w,Psychologie,2023-01-16_09h01.55.821,00_bat_bachelor,2022.2.4,60.03024067386146,
,,,,,,,,,,,,1,0,1,0,150,0,150,0,,,,,,,150,,,0.2,1324.2083640201872,Y,None,nogo,None,1,,1325.008793207858,,,,,,,,,,,,,,,,,17,001,20,w,Psychologie,2023-01-16_09h01.55.821,00_bat_bachelor,2022.2.4,60.03024067386146,
,,,,,,,,,,,,1,0,1,0,151,0,151,0,,,,,,,151,,,0.2,1325.2090476562194,X,l,go,l,1,0.35191369269435313,,,,,,,,,,,,,,,,,,17,001,20,w,Psychologie,2023-01-16_09h01.55.821,00_bat_bachelor,2022.2.4,60.03024067386146,
,,,,,,,,,,,,1,0,1,0,152,0,152,0,,,,,,,152,,,0.2,1325.8762138781995,Y,d,go,None,0,,,,,,,,,,,,,,,,,,,17,001,20,w,Psychologie,2023-01-16_09h01.55.821,00_bat_bachelor,2022.2.4,60.03024067386146,
,,,,,,,,,,,,1,0,1,0,153,0,153,0,,,,,,,153,,,0.2,1326.8768296354765,Y,None,nogo,None,1,,1327.6774173685249,,,,,,,,,,,,,,,,,17,001,20,w,Psychologie,2023-01-16_09h01.55.821,00_bat_bachelor,2022.2.4,60.03024067386146,
,,,,,,,,,,,,1,0,1,0,154,0,154,0,,,,,,,154,,,0.2,1327.8777765441084,X,l,go,l,1,0.41896238745860614,,,,,,,,,,,,,,,,,,17,001,20,w,Psychologie,2023-01-16_09h01.55.821,00_bat_bachelor,2022.2.4,60.03024067386146,
,,,,,,,,,,,,1,0,1,0,155,0,155,0,,,,,,,155,,,0.2,1328.6114784914043,Y,d,go,d,1,0.4372038331598844,,,,,,,,,,,,,,,,,,17,001,20,w,Psychologie,2023-01-16_09h01.55.821,00_bat_bachelor,2022.2.4,60.03024067386146,
,,,,,,,,,,,,1,0,1,0,156,0,156,0,,,,,,,156,,,0.2,1329.3622160668044,X,l,go,None,0,,1330.1629589512927,,,,,,,,,,,,,,,,,17,001,20,w,Psychologie,2023-01-16_09h01.55.821,00_bat_bachelor,2022.2.4,60.03024067386146,
,,,,,,,,,,,,1,0,1,0,157,0,157,0,,,,,,,157,,,0.2,1330.362875460424,X,None,nogo,None,1,,1331.163586829776,,,,,,,,,,,,,,,,,17,001,20,w,Psychologie,2023-01-16_09h01.55.821,00_bat_bachelor,2022.2.4,60.03024067386146,
,,,,,,,,,,,,1,0,1,0,158,0,158,0,,,,,,,158,,,0.2,1331.3636100055223,X,None,nogo,None,1,,1332.1643296172947,,,,,,,,,,,,,,,,,17,001,20,w,Psychologie,2023-01-16_09h01.55.821,00_bat_bachelor,2022.2.4,60.03024067386146,
,,,,,,,,,,,,1,0,1,0,159,0,159,0,,,,,,,159,,,0.2,1332.3645646717262,Y,d,go,d,1,0.4778093892298614,,,,,,,,,,,,,,,,,,17,001,20,w,Psychologie,2023-01-16_09h01.55.821,00_bat_bachelor,2022.2.4,60.03024067386146,
,,,,,,,,,,,,1,0,1,0,160,0,160,0,,,,,,,160,,,0.2,1333.1483388371691,X,l,go,l,1,0.30094402043735613,,,,,,,,,,,,,,,,,,17,001,20,w,Psychologie,2023-01-16_09h01.55.821,00_bat_bachelor,2022.2.4,60.03024067386146,
,,,,,,,,,,,,1,0,1,0,161,0,161,0,,,,,,,161,,,0.2,1333.765372234971,X,None,nogo,None,1,,,,,,,,,,,,,,,,,,,17,001,20,w,Psychologie,2023-01-16_09h01.55.821,00_bat_bachelor,2022.2.4,60.03024067386146,
,,,,,,,,,,,,1,0,1,0,162,0,162,0,,,,,,,162,,,0.2,1334.7662270224355,Y,d,go,d,1,0.38009792145365395,,,,,,,,,,,,,,,,,,17,001,20,w,Psychologie,2023-01-16_09h01.55.821,00_bat_bachelor,2022.2.4,60.03024067386146,
,,,,,,,,,,,,1,0,1,0,163,0,163,0,,,,,,,163,,,0.2,1335.4499032970166,X,l,go,l,1,0.41572844963278044,,,,,,,,,,,,,,,,,,17,001,20,w,Psychologie,2023-01-16_09h01.55.821,00_bat_bachelor,2022.2.4,60.03024067386146,
,,,,,,,,,,,,1,0,1,0,164,0,164,0,,,,,,,164,,,0.2,1336.1672585855715,X,None,nogo,None,1,,,,,,,,,,,,,,,,,,,17,001,20,w,Psychologie,2023-01-16_09h01.55.821,00_bat_bachelor,2022.2.4,60.03024067386146,
,,,,,,,,,,,,1,0,1,0,165,0,165,0,,,,,,,165,,,0.2,1337.1681206457597,Y,d,go,d,1,0.4098399676393285,,,,,,,,,,,,,,,,,,17,001,20,w,Psychologie,2023-01-16_09h01.55.821,00_bat_bachelor,2022.2.4,60.03024067386146,
,,,,,,,,,,,,1,0,1,0,166,0,166,0,,,,,,,166,,,0.2,1337.8851767829447,X,l,go,l,1,0.2841100892053703,,,,,,,,,,,,,,,,,,17,001,20,w,Psychologie,2023-01-16_09h01.55.821,00_bat_bachelor,2022.2.4,60.03024067386146,
,,,,,,,,,,,,1,0,1,0,167,0,167,0,,,,,,,167,,,0.2,1338.485495522184,X,None,nogo,None,1,,,,,,,,,,,,,,,,,,,17,001,20,w,Psychologie,2023-01-16_09h01.55.821,00_bat_bachelor,2022.2.4,60.03024067386146,
,,,,,,,,,,,,1,0,1,0,168,0,168,0,,,,,,,168,,,0.2,1339.4865219459289,Y,d,go,d,1,0.17079329566197998,,,,,,,,,,,,,,,,,,17,001,20,w,Psychologie,2023-01-16_09h01.55.821,00_bat_bachelor,2022.2.4,60.03024067386146,
,,,,,,,,,,,,1,0,1,0,169,0,169,0,,,,,,,169,,,0.2,1339.9699665600162,X,l,go,l,1,0.32711564411172844,,,,,,,,,,,,,,,,,,17,001,20,w,Psychologie,2023-01-16_09h01.55.821,00_bat_bachelor,2022.2.4,60.03024067386146,
,,,,,,,,,,,,1,0,1,0,170,0,170,0,,,,,,,170,,,0.2,1340.6037180103185,X,None,nogo,None,1,,,,,,,,,,,,,,,,,,,17,001,20,w,Psychologie,2023-01-16_09h01.55.821,00_bat_bachelor,2022.2.4,60.03024067386146,
,,,,,,,,,,,,1,0,1,0,171,0,171,0,,,,,,,171,,,0.2,1341.604433646335,Y,d,go,d,1,0.3079951685338358,,,,,,,,,,,,,,,,,,17,001,20,w,Psychologie,2023-01-16_09h01.55.821,00_bat_bachelor,2022.2.4,60.03024067386146,
,,,,,,,,,,,,1,0,1,0,172,0,172,0,,,,,,,172,,,0.2,1342.2216624379819,X,l,go,l,1,0.31532171043616586,,,,,,,,,,,,,,,,,,17,001,20,w,Psychologie,2023-01-16_09h01.55.821,00_bat_bachelor,2022.2.4,60.03024067386146,
,,,,,,,,,,,,1,0,1,0,173,0,173,0,,,,,,,173,,,0.2,1342.8389169265859,Y,d,go,d,1,0.6270864077621638,,,,,,,,,,,,,,,,,,17,001,20,w,Psychologie,2023-01-16_09h01.55.821,00_bat_bachelor,2022.2.4,60.03024067386146,
,,,,,,,,,,,,1,0,1,0,174,0,174,0,,,,,,,174,,,0.2,1343.772931019185,X,l,go,None,0,,1344.5734945098209,,,,,,,,,,,,,,,,,17,001,20,w,Psychologie,2023-01-16_09h01.55.821,00_bat_bachelor,2022.2.4,60.03024067386146,
,,,,,,,,,,,,1,0,1,0,175,0,175,0,,,,,,,175,,,0.2,1344.773713079412,X,None,nogo,None,1,,,,,,,,,,,,,,,,,,,17,001,20,w,Psychologie,2023-01-16_09h01.55.821,00_bat_bachelor,2022.2.4,60.03024067386146,
,,,,,,,,,,,,1,0,1,0,176,0,176,0,,,,,,,176,,,0.2,1345.7745058063003,Y,d,go,d,1,0.39445767206714777,,,,,,,,,,,,,,,,,,17,001,20,w,Psychologie,2023-01-16_09h01.55.821,00_bat_bachelor,2022.2.4,60.03024067386146,
,,,,,,,,,,,,1,0,1,0,177,0,177,0,,,,,,,177,,,0.2,1346.474819163724,X,l,go,l,1,0.49555580486801887,,,,,,,,,,,,,,,,,,17,001,20,w,Psychologie,2023-01-16_09h01.55.821,00_bat_bachelor,2022.2.4,60.03024067386146,
,,,,,,,,,,,,1,0,1,0,178,0,178,0,,,,,,,178,,,0.2,1347.2757700481116,Y,d,go,d,1,0.5579853503568586,,,,,,,,,,,,,,,,,,17,001,20,w,Psychologie,2023-01-16_09h01.55.821,00_bat_bachelor,2022.2.4,60.03024067386146,
,,,,,,,,,,,,1,0,1,0,179,0,179,0,,,,,,,179,,,0.2,1348.142948294328,Y,None,nogo,l,0,0.538517238583637,,,,,,,,,,,,,,,,,,17,001,20,w,Psychologie,2023-01-16_09h01.55.821,00_bat_bachelor,2022.2.4,60.03024067386146,
,,,,,,,,,,,,1,0,1,0,180,0,180,0,,,,,,,180,,,0.2,1348.993671760644,X,l,go,None,0,,,,,,,,,,,,,,,,,,,17,001,20,w,Psychologie,2023-01-16_09h01.55.821,00_bat_bachelor,2022.2.4,60.03024067386146,
,,,,,,,,,,,,1,0,1,0,181,0,181,0,,,,,,,181,,,0.2,1349.9944179421004,Y,d,go,d,1,0.014166462511440159,,,,,,,,,,,,,,,,,,17,001,20,w,Psychologie,2023-01-16_09h01.55.821,00_bat_bachelor,2022.2.4,60.03024067386146,
,,,,,,,,,,,,1,0,1,0,182,0,182,0,,,,,,,182,,,0.2,1350.3114073641661,X,l,go,l,1,0.3536892069851376,,,,,,,,,,,,,,,,,,17,001,20,w,Psychologie,2023-01-16_09h01.55.821,00_bat_bachelor,2022.2.4,60.03024067386146,
,,,,,,,,,,,,1,0,1,0,183,0,183,0,,,,,,,183,,,0.2,1350.9784368589396,Y,d,go,None,0,,,,,,,,,,,,,,,,,,,17,001,20,w,Psychologie,2023-01-16_09h01.55.821,00_bat_bachelor,2022.2.4,60.03024067386146,
,,,,,,,,,,,,1,0,1,0,184,0,184,0,,,,,,,184,,,0.2,1351.9791069192208,X,l,go,None,0,,,,,,,,,,,,,,,,,,,17,001,20,w,Psychologie,2023-01-16_09h01.55.821,00_bat_bachelor,2022.2.4,60.03024067386146,
,,,,,,,,,,,,1,0,1,0,185,0,185,0,,,,,,,185,,,0.2,1352.979793949191,Y,d,go,d,1,0.4369032272450397,,,,,,,,,,,,,,,,,,17,001,20,w,Psychologie,2023-01-16_09h01.55.821,00_bat_bachelor,2022.2.4,60.03024067386146,
,,,,,,,,,,,,1,0,1,0,186,0,186,0,,,,,,,186,,,0.2,1353.730590191229,X,l,go,l,1,0.4546346125873981,,,,,,,,,,,,,,,,,,17,001,20,w,Psychologie,2023-01-16_09h01.55.821,00_bat_bachelor,2022.2.4,60.03024067386146,
,,,,,,,,,,,,1,0,1,0,187,0,187,0,,,,,,,187,,,0.2,1354.498000728242,X,None,nogo,None,1,,,,,,,,,,,,,,,,,,,17,001,20,w,Psychologie,2023-01-16_09h01.55.821,00_bat_bachelor,2022.2.4,60.03024067386146,
,,,,,,,,,,,,1,0,1,0,188,0,188,0,,,,,,,188,,,0.2,1355.4985835158384,Y,d,go,d,1,0.25481507310590246,,,,,,,,,,,,,,,,,,17,001,20,w,Psychologie,2023-01-16_09h01.55.821,00_bat_bachelor,2022.2.4,60.03024067386146,
,,,,,,,,,,,,1,0,1,0,189,0,189,0,,,,,,,189,,,0.2,1356.065910755922,X,l,go,l,1,0.40747827181488105,,,,,,,,,,,,,,,,,,17,001,20,w,Psychologie,2023-01-16_09h01.55.821,00_bat_bachelor,2022.2.4,60.03024067386146,
,,,,,,,,,,,,1,0,1,0,190,0,190,0,,,,,,,190,,,0.2,1356.7826241053945,Y,d,go,d,1,0.5068193145584985,,,,,,,,,,,,,,,,,,17,001,20,w,Psychologie,2023-01-16_09h01.55.821,00_bat_bachelor,2022.2.4,60.03024067386146,
,,,,,,,,,,,,1,0,1,0,191,0,191,0,,,,,,,191,,,0.2,1357.600127709029,X,l,go,l,1,0.31381237783469373,,,,,,,,,,,,,,,,,,17,001,20,w,Psychologie,2023-01-16_09h01.55.821,00_bat_bachelor,2022.2.4,60.03024067386146,
,,,,,,,,,,,,1,0,1,0,192,0,192,0,,,,,,,192,,,0.2,1358.2170767432356,Y,d,go,d,1,0.36842374529558697,,,,,,,,,,,,,,,,,,17,001,20,w,Psychologie,2023-01-16_09h01.55.821,00_bat_bachelor,2022.2.4,60.03024067386146,
,,,,,,,,,,,,1,0,1,0,193,0,193,0,,,,,,,193,,,0.2,1358.900931926821,X,l,go,None,0,,,,,,,,,,,,,,,,,,,17,001,20,w,Psychologie,2023-01-16_09h01.55.821,00_bat_bachelor,2022.2.4,60.03024067386146,
,,,,,,,,,,,,1,0,1,0,194,0,194,0,,,,,,,194,,,0.2,1359.902011683873,X,None,nogo,None,1,,1360.702536386649,,,,,,,,,,,,,,,,,17,001,20,w,Psychologie,2023-01-16_09h01.55.821,00_bat_bachelor,2022.2.4,60.03024067386146,
,,,,,,,,,,,,1,0,1,0,195,0,195,0,,,,,,,195,,,0.2,1360.9025561684575,Y,d,go,d,1,0.2109566701281267,,,,,,,,,,,,,,,,,,17,001,20,w,Psychologie,2023-01-16_09h01.55.821,00_bat_bachelor,2022.2.4,60.03024067386146,
,,,,,,,,,,,,1,0,1,0,196,0,196,0,,,,,,,196,,,0.2,1361.4198121600912,X,l,go,l,1,0.5577055929166193,,,,,,,,,,,,,,,,,,17,001,20,w,Psychologie,2023-01-16_09h01.55.821,00_bat_bachelor,2022.2.4,60.03024067386146,
,,,,,,,,,,,,1,0,1,0,197,0,197,0,,,,,,,197,,,0.2,1362.2871028911015,Y,d,go,d,1,0.5382316629645914,,,,,,,,,,,,,,,,,,17,001,20,w,Psychologie,2023-01-16_09h01.55.821,00_bat_bachelor,2022.2.4,60.03024067386146,
,,,,,,,,,,,,1,0,1,0,198,0,198,0,,,,,,,198,,,0.2,1363.13788938769,Y,None,nogo,None,1,,,,,,,,,,,,,,,,,,,17,001,20,w,Psychologie,2023-01-16_09h01.55.821,00_bat_bachelor,2022.2.4,60.03024067386146,
,,,,,,,,,,,,1,0,1,0,199,0,199,0,,,,,,,199,,,0.2,1364.1386103570374,Y,None,nogo,None,1,,,,,,,,,,,,,,,,,,,17,001,20,w,Psychologie,2023-01-16_09h01.55.821,00_bat_bachelor,2022.2.4,60.03024067386146,
,,,,,,,,,,,,1,0,1,0,200,0,200,0,,,,,,,200,,,0.2,1365.1391844173652,X,l,go,l,1,0.40542736371824617,,,,,,,,,,,,,,,,,,17,001,20,w,Psychologie,2023-01-16_09h01.55.821,00_bat_bachelor,2022.2.4,60.03024067386146,
