loop_instruction.thisRepN,loop_instruction.thisTrialN,loop_instruction.thisN,loop_instruction.thisIndex,loop_rsi_practice.thisRepN,loop_rsi_practice.thisTrialN,loop_rsi_practice.thisN,loop_rsi_practice.thisIndex,loop_practice.thisRepN,loop_practice.thisTrialN,loop_practice.thisN,loop_practice.thisIndex,loop_exp.thisRepN,loop_exp.thisTrialN,loop_exp.thisN,loop_exp.thisIndex,loop_trials.thisRepN,loop_trials.thisTrialN,loop_trials.thisN,loop_trials.thisIndex,map_condition,map_x_key,map_y_key,key_resp_welcome.started,key_resp_welcome.keys,key_resp_welcome.rt,index,text_empty_rsi_practice.started,text_empty_rsi_practice.stopped,rsi,stimulus.started,stimulus,correct,trial_type,key_resp_trial.keys,key_resp_trial.corr,key_resp_trial.rt,stimulus.stopped,key_resp_instruction_rsi.started,key_resp_instruction_rsi.keys,key_resp_instruction_rsi.rt,key_resp_instruction_rsi.stopped,key_resp_instruction_final.started,key_resp_instruction_final.keys,key_resp_instruction_final.rt,key_resp_break.started,key_resp_break.keys,key_resp_break.rt,key_resp_break.stopped,key_resp_end_screen.started,image_end_screen.started,key_resp_end_screen.stopped,image_end_screen.stopped,key_resp_end_screen.keys,participant,session,Alter,Geschlecht (w/m/d/andere),Studiengang,date,expName,psychopyVersion,frameRate,
,,,,0,0,0,0,0,0,0,0,,,,,,,,,0,d,l,18927.314023120503,j,60.88004234270193,0,18988.234621462005,18989.255058300623,1,18989.255058300623,X,d,go,None,0,,,,,,,,,,,,,,,,,,,18,001,,,,2023-01-16_14h01.45.911,00_bat_bachelor,2022.2.4,60.221117235371175,
,,,,0,0,0,0,1,0,1,0,,,,,,,,,,,,,,,1,18990.662407436466,18991.665012526093,1,18991.665012526093,Y,l,go,None,0,,,,,,,,,,,,,,,,,,,18,001,,,,2023-01-16_14h01.45.911,00_bat_bachelor,2022.2.4,60.221117235371175,
,,,,0,0,0,0,2,0,2,0,,,,,,,,,,,,,,,2,18993.080925536575,18994.081488930213,1,18994.081488930213,X,d,go,d,1,0.3002966844360344,,,,,,,,,,,,,,,,,,18,001,,,,2023-01-16_14h01.45.911,00_bat_bachelor,2022.2.4,60.221117235371175,
,,,,0,0,0,0,3,0,3,0,,,,,,,,,,,,,,,3,18995.098913406604,18996.099706618348,1,18996.099706618348,Y,l,go,l,1,0.29777498863404617,,,,,,,,,,,,,,,,,,18,001,,,,2023-01-16_14h01.45.911,00_bat_bachelor,2022.2.4,60.221117235371175,
,,,,0,0,0,0,4,0,4,0,,,,,,,,,,,,,,,4,18997.11733230675,18998.118094003352,1,18998.118094003352,Y,None,nogo,d,0,0.3122215270996094,,,,,,,,,,,,,,,,,,18,001,,,,2023-01-16_14h01.45.911,00_bat_bachelor,2022.2.4,60.221117235371175,
,,,,0,0,0,0,5,0,5,0,,,,,,,,,,,,,,,5,18999.568797299988,19000.56931511796,1,19000.56931511796,X,d,go,d,1,0.5652454044320621,,,,,,,,,,,,,,,,,,18,001,,,,2023-01-16_14h01.45.911,00_bat_bachelor,2022.2.4,60.221117235371175,
,,,,0,0,0,0,6,0,6,0,,,,,,,,,,,,,,,6,19001.85426091915,19002.854865524918,1,19002.854865524918,Y,l,go,l,1,0.3598695039981976,,,,,,,,,,,,,,,,,,18,001,,,,2023-01-16_14h01.45.911,00_bat_bachelor,2022.2.4,60.221117235371175,
,,,,0,0,0,0,7,0,7,0,,,,,,,,,,,,,,,7,19003.922515916405,19004.923052158556,1,19004.923052158556,X,d,go,d,1,0.3865099759423174,,,,,,,,,,,,,,,,,,18,001,,,,2023-01-16_14h01.45.911,00_bat_bachelor,2022.2.4,60.221117235371175,
,,,,0,0,0,0,8,0,8,0,,,,,,,,,,,,,,,8,19006.040798525675,19007.041322161793,1,19007.041322161793,X,None,nogo,None,1,,19007.842200318933,,,,,,,,,,,,,,,,,18,001,,,,2023-01-16_14h01.45.911,00_bat_bachelor,2022.2.4,60.221117235371175,
,,,,0,0,0,0,9,0,9,0,,,,,,,,,,,,,,,9,19008.442392512807,19009.443240512395,1,19009.443240512395,Y,l,go,l,1,0.49107428890420124,,,,,,,,,,,,,,,,,,18,001,,,,2023-01-16_14h01.45.911,00_bat_bachelor,2022.2.4,60.221117235371175,
,,,,0,0,0,0,10,0,10,0,,,,,,,,,,,,,,,10,19010.644092778675,19011.645055202418,1,19011.645055202418,X,d,go,d,1,0.28855365980416536,,,,,,,,,,,,,,,,,,18,001,,,,2023-01-16_14h01.45.911,00_bat_bachelor,2022.2.4,60.221117235371175,
,,,,0,0,0,0,11,0,11,0,,,,,,,,,,,,,,,11,19012.66247143643,19013.663157011848,1,19013.663157011848,Y,l,go,l,1,0.30283728922950104,,,,,,,,,,,,,,,,,,18,001,,,,2023-01-16_14h01.45.911,00_bat_bachelor,2022.2.4,60.221117235371175,
,,,,0,0,0,0,12,0,12,0,,,,,,,,,,,,,,,12,19014.697173480177,19015.697981722245,1,19015.697981722245,X,d,go,d,1,0.33229957800358534,,,,,,,,,,,,,,,,,,18,001,,,,2023-01-16_14h01.45.911,00_bat_bachelor,2022.2.4,60.221117235371175,
,,,,0,0,0,0,13,0,13,0,,,,,,,,,,,,,,,13,19016.732046190533,19017.73310509912,1,19017.73310509912,Y,l,go,l,1,0.5536677130730823,,,,,,,,,,,,,,,,,,18,001,,,,2023-01-16_14h01.45.911,00_bat_bachelor,2022.2.4,60.221117235371175,
,,,,0,0,0,0,14,0,14,0,,,,,,,,,,,,,,,14,19019.00066084822,19020.001196605503,1,19020.001196605503,X,d,go,d,1,0.3327301231911406,,,,,,,,,,,,,,,,,,18,001,,,,2023-01-16_14h01.45.911,00_bat_bachelor,2022.2.4,60.221117235371175,
,,,,1,0,1,0,0,0,0,0,,,,,,,,,,,,,,,0,19062.21643577388,19062.416784282774,0.2,19062.416784282774,X,d,go,d,1,0.5102800977765583,,19021.093485045596,j,41.10155932622729,,,,,,,,,,,,,,18,001,,,,2023-01-16_14h01.45.911,00_bat_bachelor,2022.2.4,60.221117235371175,
,,,,1,0,1,0,1,0,1,0,,,,,,,,,,,,,,,1,19063.634406480298,19063.83429195918,0.2,19063.83429195918,Y,l,go,l,1,0.3562530208728276,,,,,,,,,,,,,,,,,,18,001,,,,2023-01-16_14h01.45.911,00_bat_bachelor,2022.2.4,60.221117235371175,
,,,,1,0,1,0,2,0,2,0,,,,,,,,,,,,,,,2,19064.901958350616,19065.102190495934,0.2,19065.102190495934,X,d,go,d,1,0.28829523565946147,,,,,,,,,,,,,,,,,,18,001,,,,2023-01-16_14h01.45.911,00_bat_bachelor,2022.2.4,60.221117235371175,
,,,,1,0,1,0,3,0,3,0,,,,,,,,,,,,,,,3,19066.102909525915,19066.303194519714,0.2,19066.303194519714,X,None,nogo,d,0,0.3518050230923109,,,,,,,,,,,,,,,,,,18,001,,,,2023-01-16_14h01.45.911,00_bat_bachelor,2022.2.4,60.221117235371175,
,,,,1,0,1,0,4,0,4,0,,,,,,,,,,,,,,,4,19067.78757149697,19067.98759370303,0.2,19067.98759370303,Y,l,go,l,1,0.5065554934553802,,,,,,,,,,,,,,,,,,18,001,,,,2023-01-16_14h01.45.911,00_bat_bachelor,2022.2.4,60.221117235371175,
,,,,1,0,1,0,5,0,5,0,,,,,,,,,,,,,,,5,19069.20509711269,19069.405440773175,0.2,19069.405440773175,X,d,go,d,1,0.35250950761837885,,,,,,,,,,,,,,,,,,18,001,,,,2023-01-16_14h01.45.911,00_bat_bachelor,2022.2.4,60.221117235371175,
,,,,1,0,1,0,6,0,6,0,,,,,,,,,,,,,,,6,19070.48953818693,19070.689736877743,0.2,19070.689736877743,Y,l,go,l,1,0.33298030495643616,,,,,,,,,,,,,,,,,,18,001,,,,2023-01-16_14h01.45.911,00_bat_bachelor,2022.2.4,60.221117235371175,
,,,,1,0,1,0,7,0,7,0,,,,,,,,,,,,,,,7,19071.723645224934,19071.923615067382,0.2,19071.923615067382,Y,None,nogo,None,1,,19072.724403042754,,,,,,,,,,,,,,,,,18,001,,,,2023-01-16_14h01.45.911,00_bat_bachelor,2022.2.4,60.221117235371175,
,,,,1,0,1,0,8,0,8,0,,,,,,,,,,,,,,,8,19073.324824569805,19073.52475853346,0.2,19073.52475853346,X,d,go,d,1,0.3301948517328128,,,,,,,,,,,,,,,,,,18,001,,,,2023-01-16_14h01.45.911,00_bat_bachelor,2022.2.4,60.221117235371175,
,,,,1,0,1,0,9,0,9,0,,,,,,,,,,,,,,,9,19074.558968941157,19074.759127874393,0.2,19074.759127874393,Y,l,go,l,1,0.37488816340919584,,,,,,,,,,,,,,,,,,18,001,,,,2023-01-16_14h01.45.911,00_bat_bachelor,2022.2.4,60.221117235371175,
,,,,1,0,1,0,10,0,10,0,,,,,,,,,,,,,,,10,19075.843423106242,19076.043551009207,0.2,19076.043551009207,Y,None,nogo,None,1,,19076.84421922709,,,,,,,,,,,,,,,,,18,001,,,,2023-01-16_14h01.45.911,00_bat_bachelor,2022.2.4,60.221117235371175,
,,,,1,0,1,0,11,0,11,0,,,,,,,,,,,,,,,11,19077.444454087585,19077.644628051145,0.2,19077.644628051145,X,d,go,d,1,0.2893560836673714,,,,,,,,,,,,,,,,,,18,001,,,,2023-01-16_14h01.45.911,00_bat_bachelor,2022.2.4,60.221117235371175,
,,,,1,0,1,0,12,0,12,0,,,,,,,,,,,,,,,12,19078.645579323405,19078.845761529345,0.2,19078.845761529345,Y,l,go,l,1,0.3215834620059468,,,,,,,,,,,,,,,,,,18,001,,,,2023-01-16_14h01.45.911,00_bat_bachelor,2022.2.4,60.221117235371175,
,,,,1,0,1,0,13,0,13,0,,,,,,,,,,,,,,,13,19079.87986769463,19080.080015476386,0.2,19080.080015476386,X,d,go,d,1,0.31837182719027624,,,,,,,,,,,,,,,,,,18,001,,,,2023-01-16_14h01.45.911,00_bat_bachelor,2022.2.4,60.221117235371175,
,,,,1,0,1,0,14,0,14,0,,,,,,,,,,,,,,,14,19081.11413909623,19081.31413899921,0.2,19081.31413899921,Y,l,go,l,1,0.3486695094034076,,,,,,,,,,,,,,,,,,18,001,,,,2023-01-16_14h01.45.911,00_bat_bachelor,2022.2.4,60.221117235371175,
,,,,,,,,,,,,,,,,,,,,,,,,,,,,,,,,,,,,,,19082.41395810235,None,,19082.41395810235,19082.41395810235,space,11.379933494259603,,,,,,,,,,18,001,,,,2023-01-16_14h01.45.911,00_bat_bachelor,2022.2.4,60.221117235371175,
,,,,,,,,,,,,0,0,0,0,0,0,0,0,,,,,,,0,,,1,19094.824385054875,X,d,go,d,1,0.2773206955753267,,,,,,,,,,,,,,,,,,18,001,,,,2023-01-16_14h01.45.911,00_bat_bachelor,2022.2.4,60.221117235371175,
,,,,,,,,,,,,0,0,0,0,1,0,1,0,,,,,,,1,,,1,19096.208936625975,Y,l,go,l,1,0.31743607006501406,,,,,,,,,,,,,,,,,,18,001,,,,2023-01-16_14h01.45.911,00_bat_bachelor,2022.2.4,60.221117235371175,
,,,,,,,,,,,,0,0,0,0,2,0,2,0,,,,,,,2,,,1,19097.64338877902,X,d,go,d,1,0.37127652880735695,,,,,,,,,,,,,,,,,,18,001,,,,2023-01-16_14h01.45.911,00_bat_bachelor,2022.2.4,60.221117235371175,
,,,,,,,,,,,,0,0,0,0,3,0,3,0,,,,,,,3,,,1,19099.127657150268,Y,l,go,l,1,0.32723000465193763,,,,,,,,,,,,,,,,,,18,001,,,,2023-01-16_14h01.45.911,00_bat_bachelor,2022.2.4,60.221117235371175,
,,,,,,,,,,,,0,0,0,0,4,0,4,0,,,,,,,4,,,1,19100.56227996986,Y,None,nogo,None,1,,,,,,,,,,,,,,,,,,,18,001,,,,2023-01-16_14h01.45.911,00_bat_bachelor,2022.2.4,60.221117235371175,
,,,,,,,,,,,,0,0,0,0,5,0,5,0,,,,,,,5,,,1,19102.363683217613,X,d,go,d,1,0.25983706768602133,,,,,,,,,,,,,,,,,,18,001,,,,2023-01-16_14h01.45.911,00_bat_bachelor,2022.2.4,60.221117235371175,
,,,,,,,,,,,,0,0,0,0,6,0,6,0,,,,,,,6,,,1,19103.731293221237,Y,l,go,l,1,0.299570866569411,,,,,,,,,,,,,,,,,,18,001,,,,2023-01-16_14h01.45.911,00_bat_bachelor,2022.2.4,60.221117235371175,
,,,,,,,,,,,,0,0,0,0,7,0,7,0,,,,,,,7,,,1,19105.13240381464,Y,None,nogo,l,0,0.4502956420183182,,,,,,,,,,,,,,,,,,18,001,,,,2023-01-16_14h01.45.911,00_bat_bachelor,2022.2.4,60.221117235371175,
,,,,,,,,,,,,0,0,0,0,8,0,8,0,,,,,,,8,,,1,19106.683619062533,X,d,go,d,1,0.4194277781643905,,,,,,,,,,,,,,,,,,18,001,,,,2023-01-16_14h01.45.911,00_bat_bachelor,2022.2.4,60.221117235371175,
,,,,,,,,,,,,0,0,0,0,9,0,9,0,,,,,,,9,,,1,19108.21805274277,Y,l,go,l,1,0.4052037850487977,,,,,,,,,,,,,,,,,,18,001,,,,2023-01-16_14h01.45.911,00_bat_bachelor,2022.2.4,60.221117235371175,
,,,,,,,,,,,,0,0,0,0,10,0,10,0,,,,,,,10,,,1,19109.736004006816,X,d,go,d,1,0.439438919944223,,,,,,,,,,,,,,,,,,18,001,,,,2023-01-16_14h01.45.911,00_bat_bachelor,2022.2.4,60.221117235371175,
,,,,,,,,,,,,0,0,0,0,11,0,11,0,,,,,,,11,,,1,19111.287107254786,X,None,nogo,None,1,,19112.087731351436,,,,,,,,,,,,,,,,,18,001,,,,2023-01-16_14h01.45.911,00_bat_bachelor,2022.2.4,60.221117235371175,
,,,,,,,,,,,,0,0,0,0,12,0,12,0,,,,,,,12,,,1,19113.088284563273,Y,l,go,l,1,0.39766924327705055,,,,,,,,,,,,,,,,,,18,001,,,,2023-01-16_14h01.45.911,00_bat_bachelor,2022.2.4,60.221117235371175,
,,,,,,,,,,,,0,0,0,0,13,0,13,0,,,,,,,13,,,1,19114.589634138392,X,d,go,d,1,0.46539624070283026,,,,,,,,,,,,,,,,,,18,001,,,,2023-01-16_14h01.45.911,00_bat_bachelor,2022.2.4,60.221117235371175,
,,,,,,,,,,,,0,0,0,0,14,0,14,0,,,,,,,14,,,1,19116.157505863055,X,None,nogo,d,0,0.40096912044100463,,,,,,,,,,,,,,,,,,18,001,,,,2023-01-16_14h01.45.911,00_bat_bachelor,2022.2.4,60.221117235371175,
,,,,,,,,,,,,0,0,0,0,15,0,15,0,,,,,,,15,,,1,19117.67508961208,Y,l,go,l,1,0.41987141431309283,,,,,,,,,,,,,,,,,,18,001,,,,2023-01-16_14h01.45.911,00_bat_bachelor,2022.2.4,60.221117235371175,
,,,,,,,,,,,,0,0,0,0,16,0,16,0,,,,,,,16,,,1,19119.20979238313,X,d,go,d,1,0.5162980342283845,,,,,,,,,,,,,,,,,,18,001,,,,2023-01-16_14h01.45.911,00_bat_bachelor,2022.2.4,60.221117235371175,
,,,,,,,,,,,,0,0,0,0,17,0,17,0,,,,,,,17,,,1,19120.82752250787,Y,l,go,None,0,,,,,,,,,,,,,,,,,,,18,001,,,,2023-01-16_14h01.45.911,00_bat_bachelor,2022.2.4,60.221117235371175,
,,,,,,,,,,,,0,0,0,0,18,0,18,0,,,,,,,18,,,1,19122.62881811941,X,d,go,d,1,0.44109807070344687,,,,,,,,,,,,,,,,,,18,001,,,,2023-01-16_14h01.45.911,00_bat_bachelor,2022.2.4,60.221117235371175,
,,,,,,,,,,,,0,0,0,0,19,0,19,0,,,,,,,19,,,1,19124.18010124605,Y,l,go,l,1,0.4593642436666414,,,,,,,,,,,,,,,,,,18,001,,,,2023-01-16_14h01.45.911,00_bat_bachelor,2022.2.4,60.221117235371175,
,,,,,,,,,,,,0,0,0,0,20,0,20,0,,,,,,,20,,,1,19125.747671879944,X,d,go,d,1,0.3633221084019169,,,,,,,,,,,,,,,,,,18,001,,,,2023-01-16_14h01.45.911,00_bat_bachelor,2022.2.4,60.221117235371175,
,,,,,,,,,,,,0,0,0,0,21,0,21,0,,,,,,,21,,,1,19127.215627047,Y,l,go,l,1,0.39865057612769306,,,,,,,,,,,,,,,,,,18,001,,,,2023-01-16_14h01.45.911,00_bat_bachelor,2022.2.4,60.221117235371175,
,,,,,,,,,,,,0,0,0,0,22,0,22,0,,,,,,,22,,,1,19128.71685395547,X,d,go,d,1,0.36941859032958746,,,,,,,,,,,,,,,,,,18,001,,,,2023-01-16_14h01.45.911,00_bat_bachelor,2022.2.4,60.221117235371175,
,,,,,,,,,,,,0,0,0,0,23,0,23,0,,,,,,,23,,,1,19130.2011160237,X,None,nogo,None,1,,,,,,,,,,,,,,,,,,,18,001,,,,2023-01-16_14h01.45.911,00_bat_bachelor,2022.2.4,60.221117235371175,
,,,,,,,,,,,,0,0,0,0,24,0,24,0,,,,,,,24,,,1,19132.002686059335,Y,l,go,d,0,0.34885811543790624,,,,,,,,,,,,,,,,,,18,001,,,,2023-01-16_14h01.45.911,00_bat_bachelor,2022.2.4,60.221117235371175,
,,,,,,,,,,,,0,0,0,0,25,0,25,0,,,,,,,25,,,1,19133.453776264854,X,d,go,d,1,0.48139768751570955,,,,,,,,,,,,,,,,,,18,001,,,,2023-01-16_14h01.45.911,00_bat_bachelor,2022.2.4,60.221117235371175,
,,,,,,,,,,,,0,0,0,0,26,0,26,0,,,,,,,26,,,1,19135.038079496706,X,None,nogo,None,1,,,,,,,,,,,,,,,,,,,18,001,,,,2023-01-16_14h01.45.911,00_bat_bachelor,2022.2.4,60.221117235371175,
,,,,,,,,,,,,0,0,0,0,27,0,27,0,,,,,,,27,,,1,19136.839512320294,Y,l,go,l,1,0.39047167100943625,,,,,,,,,,,,,,,,,,18,001,,,,2023-01-16_14h01.45.911,00_bat_bachelor,2022.2.4,60.221117235371175,
,,,,,,,,,,,,0,0,0,0,28,0,28,0,,,,,,,28,,,1,19138.340577774274,X,d,go,d,1,0.4410898282658309,,,,,,,,,,,,,,,,,,18,001,,,,2023-01-16_14h01.45.911,00_bat_bachelor,2022.2.4,60.221117235371175,
,,,,,,,,,,,,0,0,0,0,29,0,29,0,,,,,,,29,,,1,19139.891985022114,Y,l,go,l,1,0.4106277824030258,,,,,,,,,,,,,,,,,,18,001,,,,2023-01-16_14h01.45.911,00_bat_bachelor,2022.2.4,60.221117235371175,
,,,,,,,,,,,,0,0,0,0,30,0,30,0,,,,,,,30,,,1,19141.40987471037,X,d,go,d,1,0.3167194643174298,,,,,,,,,,,,,,,,,,18,001,,,,2023-01-16_14h01.45.911,00_bat_bachelor,2022.2.4,60.221117235371175,
,,,,,,,,,,,,0,0,0,0,31,0,31,0,,,,,,,31,,,1,19142.8277256593,Y,l,go,l,1,0.5147174289450049,,,,,,,,,,,,,,,,,,18,001,,,,2023-01-16_14h01.45.911,00_bat_bachelor,2022.2.4,60.221117235371175,
,,,,,,,,,,,,0,0,0,0,32,0,32,0,,,,,,,32,,,1,19144.445812632388,Y,None,nogo,None,1,,19145.246249577613,,,,,,,,,,,,,,,,,18,001,,,,2023-01-16_14h01.45.911,00_bat_bachelor,2022.2.4,60.221117235371175,
,,,,,,,,,,,,0,0,0,0,33,0,33,0,,,,,,,33,,,1,19146.246988971194,X,d,go,d,1,0.45577248779591173,,,,,,,,,,,,,,,,,,18,001,,,,2023-01-16_14h01.45.911,00_bat_bachelor,2022.2.4,60.221117235371175,
,,,,,,,,,,,,0,0,0,0,34,0,34,0,,,,,,,34,,,1,19147.814927120053,Y,l,go,l,1,0.39164160983636975,,,,,,,,,,,,,,,,,,18,001,,,,2023-01-16_14h01.45.911,00_bat_bachelor,2022.2.4,60.221117235371175,
,,,,,,,,,,,,0,0,0,0,35,0,35,0,,,,,,,35,,,1,19149.315978513507,X,d,go,d,1,0.5060614331159741,,,,,,,,,,,,,,,,,,18,001,,,,2023-01-16_14h01.45.911,00_bat_bachelor,2022.2.4,60.221117235371175,
,,,,,,,,,,,,0,0,0,0,36,0,36,0,,,,,,,36,,,1,19150.934085850196,X,None,nogo,None,1,,19151.734515522665,,,,,,,,,,,,,,,,,18,001,,,,2023-01-16_14h01.45.911,00_bat_bachelor,2022.2.4,60.221117235371175,
,,,,,,,,,,,,0,0,0,0,37,0,37,0,,,,,,,37,,,1,19152.734939764894,Y,l,go,l,1,0.3355970309348777,,,,,,,,,,,,,,,,,,18,001,,,,2023-01-16_14h01.45.911,00_bat_bachelor,2022.2.4,60.221117235371175,
,,,,,,,,,,,,0,0,0,0,38,0,38,0,,,,,,,38,,,1,19154.186276273336,X,d,go,d,1,0.4522350349579938,,,,,,,,,,,,,,,,,,18,001,,,,2023-01-16_14h01.45.911,00_bat_bachelor,2022.2.4,60.221117235371175,
,,,,,,,,,,,,0,0,0,0,39,0,39,0,,,,,,,39,,,1,19155.754254179774,Y,l,go,l,1,0.4836672621895559,,,,,,,,,,,,,,,,,,18,001,,,,2023-01-16_14h01.45.911,00_bat_bachelor,2022.2.4,60.221117235371175,
,,,,,,,,,,,,0,0,0,0,40,0,40,0,,,,,,,40,,,1,19157.338950138714,X,d,go,d,1,0.2911611737217754,,,,,,,,,,,,,,,,,,18,001,,,,2023-01-16_14h01.45.911,00_bat_bachelor,2022.2.4,60.221117235371175,
,,,,,,,,,,,,0,0,0,0,41,0,41,0,,,,,,,41,,,1,19158.740060247248,X,None,nogo,d,0,0.5866980001446791,,,,,,,,,,,,,,,,,,18,001,,,,2023-01-16_14h01.45.911,00_bat_bachelor,2022.2.4,60.221117235371175,
,,,,,,,,,,,,0,0,0,0,42,0,42,0,,,,,,,42,,,1,19160.44113093766,Y,l,go,l,1,0.45302921638358384,,,,,,,,,,,,,,,,,,18,001,,,,2023-01-16_14h01.45.911,00_bat_bachelor,2022.2.4,60.221117235371175,
,,,,,,,,,,,,0,0,0,0,43,0,43,0,,,,,,,43,,,1,19162.00914278347,X,d,go,d,1,0.5015630110865459,,,,,,,,,,,,,,,,,,18,001,,,,2023-01-16_14h01.45.911,00_bat_bachelor,2022.2.4,60.221117235371175,
,,,,,,,,,,,,0,0,0,0,44,0,44,0,,,,,,,44,,,1,19163.627080908103,Y,l,go,l,1,0.6114713214337826,,,,,,,,,,,,,,,,,,18,001,,,,2023-01-16_14h01.45.911,00_bat_bachelor,2022.2.4,60.221117235371175,
,,,,,,,,,,,,0,0,0,0,45,0,45,0,,,,,,,45,,,1,19165.34450649965,X,d,go,d,1,0.5901467257062905,,,,,,,,,,,,,,,,,,18,001,,,,2023-01-16_14h01.45.911,00_bat_bachelor,2022.2.4,60.221117235371175,
,,,,,,,,,,,,0,0,0,0,46,0,46,0,,,,,,,46,,,1,19167.04578712932,Y,l,go,l,1,0.36176138190785423,,,,,,,,,,,,,,,,,,18,001,,,,2023-01-16_14h01.45.911,00_bat_bachelor,2022.2.4,60.221117235371175,
,,,,,,,,,,,,0,0,0,0,47,0,47,0,,,,,,,47,,,1,19168.51373744791,X,d,go,d,1,0.39738221309380606,,,,,,,,,,,,,,,,,,18,001,,,,2023-01-16_14h01.45.911,00_bat_bachelor,2022.2.4,60.221117235371175,
,,,,,,,,,,,,0,0,0,0,48,0,48,0,,,,,,,48,,,1,19170.01488823525,X,None,nogo,d,0,0.527966877038125,,,,,,,,,,,,,,,,,,18,001,,,,2023-01-16_14h01.45.911,00_bat_bachelor,2022.2.4,60.221117235371175,
,,,,,,,,,,,,0,0,0,0,49,0,49,0,,,,,,,49,,,1,19171.649326230632,Y,l,go,l,1,0.34934005461400375,,,,,,,,,,,,,,,,,,18,001,,,,2023-01-16_14h01.45.911,00_bat_bachelor,2022.2.4,60.221117235371175,
,,,,,,,,,,,,0,0,0,0,50,0,50,0,,,,,,,50,,,1,19173.10042564833,X,d,go,d,1,0.465645452728495,,,,,,,,,,,,,,,,,,18,001,,,,2023-01-16_14h01.45.911,00_bat_bachelor,2022.2.4,60.221117235371175,
,,,,,,,,,,,,0,0,0,0,51,0,51,0,,,,,,,51,,,1,19174.668540281942,X,None,nogo,None,1,,,,,,,,,,,,,,,,,,,18,001,,,,2023-01-16_14h01.45.911,00_bat_bachelor,2022.2.4,60.221117235371175,
,,,,,,,,,,,,0,0,0,0,52,0,52,0,,,,,,,52,,,1,19176.469868863118,Y,l,go,l,1,0.31386661721626297,,,,,,,,,,,,,,,,,,18,001,,,,2023-01-16_14h01.45.911,00_bat_bachelor,2022.2.4,60.221117235371175,
,,,,,,,,,,,,0,0,0,0,53,0,53,0,,,,,,,53,,,1,19177.887797872594,X,d,go,d,1,0.46327018114970997,,,,,,,,,,,,,,,,,,18,001,,,,2023-01-16_14h01.45.911,00_bat_bachelor,2022.2.4,60.221117235371175,
,,,,,,,,,,,,0,0,0,0,54,0,54,0,,,,,,,54,,,1,19179.45548923372,X,None,nogo,None,1,,19180.256048360723,,,,,,,,,,,,,,,,,18,001,,,,2023-01-16_14h01.45.911,00_bat_bachelor,2022.2.4,60.221117235371175,
,,,,,,,,,,,,0,0,0,0,55,0,55,0,,,,,,,55,,,1,19181.25662242109,Y,l,go,l,1,0.32546661159722134,,,,,,,,,,,,,,,,,,18,001,,,,2023-01-16_14h01.45.911,00_bat_bachelor,2022.2.4,60.221117235371175,
,,,,,,,,,,,,0,0,0,0,56,0,56,0,,,,,,,56,,,1,19182.691009604372,X,d,go,d,1,0.4918219249229878,,,,,,,,,,,,,,,,,,18,001,,,,2023-01-16_14h01.45.911,00_bat_bachelor,2022.2.4,60.221117235371175,
,,,,,,,,,,,,0,0,0,0,57,0,57,0,,,,,,,57,,,1,19184.292524949124,X,None,nogo,None,1,,19185.09308553068,,,,,,,,,,,,,,,,,18,001,,,,2023-01-16_14h01.45.911,00_bat_bachelor,2022.2.4,60.221117235371175,
,,,,,,,,,,,,0,0,0,0,58,0,58,0,,,,,,,58,,,1,19186.094012560498,Y,l,go,l,1,0.3684411362046376,,,,,,,,,,,,,,,,,,18,001,,,,2023-01-16_14h01.45.911,00_bat_bachelor,2022.2.4,60.221117235371175,
,,,,,,,,,,,,0,0,0,0,59,0,59,0,,,,,,,59,,,1,19187.578320689325,X,d,go,None,0,,,,,,,,,,,,,,,,,,,18,001,,,,2023-01-16_14h01.45.911,00_bat_bachelor,2022.2.4,60.221117235371175,
,,,,,,,,,,,,0,0,0,0,60,0,60,0,,,,,,,60,,,1,19189.379711815913,Y,l,go,l,1,0.4440372207900509,,,,,,,,,,,,,,,,,,18,001,,,,2023-01-16_14h01.45.911,00_bat_bachelor,2022.2.4,60.221117235371175,
,,,,,,,,,,,,0,0,0,0,61,0,61,0,,,,,,,61,,,1,19190.931512275652,Y,None,nogo,d,0,0.33054733637254685,,,,,,,,,,,,,,,,,,18,001,,,,2023-01-16_14h01.45.911,00_bat_bachelor,2022.2.4,60.221117235371175,
,,,,,,,,,,,,0,0,0,0,62,0,62,0,,,,,,,62,,,1,19192.38249145093,X,d,go,d,1,0.44735600700369105,,,,,,,,,,,,,,,,,,18,001,,,,2023-01-16_14h01.45.911,00_bat_bachelor,2022.2.4,60.221117235371175,
,,,,,,,,,,,,0,0,0,0,63,0,63,0,,,,,,,63,,,1,19193.96710547054,Y,l,go,l,1,0.526814877637662,,,,,,,,,,,,,,,,,,18,001,,,,2023-01-16_14h01.45.911,00_bat_bachelor,2022.2.4,60.221117235371175,
,,,,,,,,,,,,0,0,0,0,64,0,64,0,,,,,,,64,,,1,19195.601905162737,X,d,go,d,1,0.460095394810196,,,,,,,,,,,,,,,,,,18,001,,,,2023-01-16_14h01.45.911,00_bat_bachelor,2022.2.4,60.221117235371175,
,,,,,,,,,,,,0,0,0,0,65,0,65,0,,,,,,,65,,,1,19197.202887174382,Y,l,go,l,1,0.4742020546691492,,,,,,,,,,,,,,,,,,18,001,,,,2023-01-16_14h01.45.911,00_bat_bachelor,2022.2.4,60.221117235371175,
,,,,,,,,,,,,0,0,0,0,66,0,66,0,,,,,,,66,,,1,19198.804110640485,Y,None,nogo,None,1,,19199.604753161373,,,,,,,,,,,,,,,,,18,001,,,,2023-01-16_14h01.45.911,00_bat_bachelor,2022.2.4,60.221117235371175,
,,,,,,,,,,,,0,0,0,0,67,0,67,0,,,,,,,67,,,1,19200.605693766964,Y,None,nogo,None,1,,19201.406271318207,,,,,,,,,,,,,,,,,18,001,,,,2023-01-16_14h01.45.911,00_bat_bachelor,2022.2.4,60.221117235371175,
,,,,,,,,,,,,0,0,0,0,68,0,68,0,,,,,,,68,,,1,19202.40717362077,X,d,go,d,1,0.27947390667395666,,,,,,,,,,,,,,,,,,18,001,,,,2023-01-16_14h01.45.911,00_bat_bachelor,2022.2.4,60.221117235371175,
,,,,,,,,,,,,0,0,0,0,69,0,69,0,,,,,,,69,,,1,19203.807950638584,Y,l,go,l,1,0.38235822040587664,,,,,,,,,,,,,,,,,,18,001,,,,2023-01-16_14h01.45.911,00_bat_bachelor,2022.2.4,60.221117235371175,
,,,,,,,,,,,,0,0,0,0,70,0,70,0,,,,,,,70,,,1,19205.292578767287,Y,None,nogo,None,1,,19206.09322662151,,,,,,,,,,,,,,,,,18,001,,,,2023-01-16_14h01.45.911,00_bat_bachelor,2022.2.4,60.221117235371175,
,,,,,,,,,,,,0,0,0,0,71,0,71,0,,,,,,,71,,,1,19207.093747348525,X,d,go,d,1,0.2646860349923372,,,,,,,,,,,,,,,,,,18,001,,,,2023-01-16_14h01.45.911,00_bat_bachelor,2022.2.4,60.221117235371175,
,,,,,,,,,,,,0,0,0,0,72,0,72,0,,,,,,,72,,,1,19208.478361465037,Y,l,go,l,1,0.3033963192719966,,,,,,,,,,,,,,,,,,18,001,,,,2023-01-16_14h01.45.911,00_bat_bachelor,2022.2.4,60.221117235371175,
,,,,,,,,,,,,0,0,0,0,73,0,73,0,,,,,,,73,,,1,19209.912786951405,X,d,go,d,1,0.34155436139553785,,,,,,,,,,,,,,,,,,18,001,,,,2023-01-16_14h01.45.911,00_bat_bachelor,2022.2.4,60.221117235371175,
,,,,,,,,,,,,0,0,0,0,74,0,74,0,,,,,,,74,,,1,19211.363925641752,Y,l,go,l,1,0.47441538784187287,,,,,,,,,,,,,,,,,,18,001,,,,2023-01-16_14h01.45.911,00_bat_bachelor,2022.2.4,60.221117235371175,
,,,,,,,,,,,,0,0,0,0,75,0,75,0,,,,,,,75,,,1,19212.948485843197,X,d,go,d,1,0.4730951460660435,,,,,,,,,,,,,,,,,,18,001,,,,2023-01-16_14h01.45.911,00_bat_bachelor,2022.2.4,60.221117235371175,
,,,,,,,,,,,,0,0,0,0,76,0,76,0,,,,,,,76,,,1,19214.549448460923,Y,l,go,l,1,0.42473201802931726,,,,,,,,,,,,,,,,,,18,001,,,,2023-01-16_14h01.45.911,00_bat_bachelor,2022.2.4,60.221117235371175,
,,,,,,,,,,,,0,0,0,0,77,0,77,0,,,,,,,77,,,1,19216.10062976944,X,d,go,d,1,0.45767066872213036,,,,,,,,,,,,,,,,,,18,001,,,,2023-01-16_14h01.45.911,00_bat_bachelor,2022.2.4,60.221117235371175,
,,,,,,,,,,,,0,0,0,0,78,0,78,0,,,,,,,78,,,1,19217.668708524317,Y,l,go,l,1,0.4100469342665747,,,,,,,,,,,,,,,,,,18,001,,,,2023-01-16_14h01.45.911,00_bat_bachelor,2022.2.4,60.221117235371175,
,,,,,,,,,,,,0,0,0,0,79,0,79,0,,,,,,,79,,,1,19219.18632960663,X,d,go,d,1,0.4593666678410955,,,,,,,,,,,,,,,,,,18,001,,,,2023-01-16_14h01.45.911,00_bat_bachelor,2022.2.4,60.221117235371175,
,,,,,,,,,,,,0,0,0,0,80,0,80,0,,,,,,,80,,,1,19220.77108859585,X,None,nogo,None,1,,19221.571529419918,,,,,,,,,,,,,,,,,18,001,,,,2023-01-16_14h01.45.911,00_bat_bachelor,2022.2.4,60.221117235371175,
,,,,,,,,,,,,0,0,0,0,81,0,81,0,,,,,,,81,,,1,19222.572422510362,Y,l,go,l,1,0.28893378080101684,,,,,,,,,,,,,,,,,,18,001,,,,2023-01-16_14h01.45.911,00_bat_bachelor,2022.2.4,60.221117235371175,
,,,,,,,,,,,,0,0,0,0,82,0,82,0,,,,,,,82,,,1,19223.9901609745,X,d,go,d,1,0.39274900319287553,,,,,,,,,,,,,,,,,,18,001,,,,2023-01-16_14h01.45.911,00_bat_bachelor,2022.2.4,60.221117235371175,
,,,,,,,,,,,,0,0,0,0,83,0,83,0,,,,,,,83,,,1,19225.50778351142,Y,l,go,l,1,0.36150974564952776,,,,,,,,,,,,,,,,,,18,001,,,,2023-01-16_14h01.45.911,00_bat_bachelor,2022.2.4,60.221117235371175,
,,,,,,,,,,,,0,0,0,0,84,0,84,0,,,,,,,84,,,1,19227.00920484407,X,d,go,d,1,0.4925322275958024,,,,,,,,,,,,,,,,,,18,001,,,,2023-01-16_14h01.45.911,00_bat_bachelor,2022.2.4,60.221117235371175,
,,,,,,,,,,,,0,0,0,0,85,0,85,0,,,,,,,85,,,1,19228.627061029314,X,None,nogo,None,1,,19229.427603671502,,,,,,,,,,,,,,,,,18,001,,,,2023-01-16_14h01.45.911,00_bat_bachelor,2022.2.4,60.221117235371175,
,,,,,,,,,,,,0,0,0,0,86,0,86,0,,,,,,,86,,,1,19230.428406095365,Y,l,go,l,1,0.3224624918657355,,,,,,,,,,,,,,,,,,18,001,,,,2023-01-16_14h01.45.911,00_bat_bachelor,2022.2.4,60.221117235371175,
,,,,,,,,,,,,0,0,0,0,87,0,87,0,,,,,,,87,,,1,19231.86282527866,X,d,go,d,1,0.487176593800541,,,,,,,,,,,,,,,,,,18,001,,,,2023-01-16_14h01.45.911,00_bat_bachelor,2022.2.4,60.221117235371175,
,,,,,,,,,,,,0,0,0,0,88,0,88,0,,,,,,,88,,,1,19233.46418838104,Y,l,go,l,1,0.35858562582870945,,,,,,,,,,,,,,,,,,18,001,,,,2023-01-16_14h01.45.911,00_bat_bachelor,2022.2.4,60.221117235371175,
,,,,,,,,,,,,0,0,0,0,89,0,89,0,,,,,,,89,,,1,19234.93186427548,X,d,go,d,1,0.6186771360808052,,,,,,,,,,,,,,,,,,18,001,,,,2023-01-16_14h01.45.911,00_bat_bachelor,2022.2.4,60.221117235371175,
,,,,,,,,,,,,0,0,0,0,90,0,90,0,,,,,,,90,,,1,19236.68316960818,X,None,nogo,None,1,,19237.483874674537,,,,,,,,,,,,,,,,,18,001,,,,2023-01-16_14h01.45.911,00_bat_bachelor,2022.2.4,60.221117235371175,
,,,,,,,,,,,,0,0,0,0,91,0,91,0,,,,,,,91,,,1,19238.48438134091,Y,l,go,l,1,0.26589136774418876,,,,,,,,,,,,,,,,,,18,001,,,,2023-01-16_14h01.45.911,00_bat_bachelor,2022.2.4,60.221117235371175,
,,,,,,,,,,,,0,0,0,0,92,0,92,0,,,,,,,92,,,1,19239.86910794227,X,d,go,d,1,0.5289865129161626,,,,,,,,,,,,,,,,,,18,001,,,,2023-01-16_14h01.45.911,00_bat_bachelor,2022.2.4,60.221117235371175,
,,,,,,,,,,,,0,0,0,0,93,0,93,0,,,,,,,93,,,1,19241.52019029326,X,None,nogo,None,1,,19242.32095596561,,,,,,,,,,,,,,,,,18,001,,,,2023-01-16_14h01.45.911,00_bat_bachelor,2022.2.4,60.221117235371175,
,,,,,,,,,,,,0,0,0,0,94,0,94,0,,,,,,,94,,,1,19243.32164348045,Y,l,go,l,1,0.3080198321840726,,,,,,,,,,,,,,,,,,18,001,,,,2023-01-16_14h01.45.911,00_bat_bachelor,2022.2.4,60.221117235371175,
,,,,,,,,,,,,0,0,0,0,95,0,95,0,,,,,,,95,,,1,19244.755800845684,X,d,go,d,1,0.4424871609080583,,,,,,,,,,,,,,,,,,18,001,,,,2023-01-16_14h01.45.911,00_bat_bachelor,2022.2.4,60.221117235371175,
,,,,,,,,,,,,0,0,0,0,96,0,96,0,,,,,,,96,,,1,19246.30703306326,Y,l,go,l,1,0.2984760791878216,,,,,,,,,,,,,,,,,,18,001,,,,2023-01-16_14h01.45.911,00_bat_bachelor,2022.2.4,60.221117235371175,
,,,,,,,,,,,,0,0,0,0,97,0,97,0,,,,,,,97,,,1,19247.72494413337,X,d,go,d,1,0.44951988477259874,,,,,,,,,,,,,,,,,,18,001,,,,2023-01-16_14h01.45.911,00_bat_bachelor,2022.2.4,60.221117235371175,
,,,,,,,,,,,,0,0,0,0,98,0,98,0,,,,,,,98,,,1,19249.292578767287,X,None,nogo,None,1,,19250.093333772966,,,,,,,,,,,,,,,,,18,001,,,,2023-01-16_14h01.45.911,00_bat_bachelor,2022.2.4,60.221117235371175,
,,,,,,,,,,,,0,0,0,0,99,0,99,0,,,,,,,99,,,1,19251.0941468635,X,None,nogo,d,0,0.5207431229646318,,,,,,,,,,,,,,,,,,18,001,,,,2023-01-16_14h01.45.911,00_bat_bachelor,2022.2.4,60.221117235371175,
,,,,,,,,,,,,0,0,0,0,100,0,100,0,,,,,,,100,,,1,19252.728725464898,Y,l,go,l,1,0.4209996561985463,,,,,,,,,,,,,,,,,,18,001,,,,2023-01-16_14h01.45.911,00_bat_bachelor,2022.2.4,60.221117235371175,
,,,,,,,,,,,,0,0,0,0,101,0,101,0,,,,,,,101,,,1,19254.27969780384,X,d,go,d,1,0.4867237455327995,,,,,,,,,,,,,,,,,,18,001,,,,2023-01-16_14h01.45.911,00_bat_bachelor,2022.2.4,60.221117235371175,
,,,,,,,,,,,,0,0,0,0,102,0,102,0,,,,,,,102,,,1,19255.88096878503,Y,l,go,l,1,0.3085119531606324,,,,,,,,,,,,,,,,,,18,001,,,,2023-01-16_14h01.45.911,00_bat_bachelor,2022.2.4,60.221117235371175,
,,,,,,,,,,,,0,0,0,0,103,0,103,0,,,,,,,103,,,1,19257.315512574336,Y,None,nogo,None,1,,19258.115973762004,,,,,,,,,,,,,,,,,18,001,,,,2023-01-16_14h01.45.911,00_bat_bachelor,2022.2.4,60.221117235371175,
,,,,,,,,,,,,0,0,0,0,104,0,104,0,,,,,,,104,,,1,19259.116772307025,X,d,go,d,1,0.43278631719294935,,,,,,,,,,,,,,,,,,18,001,,,,2023-01-16_14h01.45.911,00_bat_bachelor,2022.2.4,60.221117235371175,
,,,,,,,,,,,,0,0,0,0,105,0,105,0,,,,,,,105,,,1,19260.68488160736,Y,l,go,l,1,0.3524464773363434,,,,,,,,,,,,,,,,,,18,001,,,,2023-01-16_14h01.45.911,00_bat_bachelor,2022.2.4,60.221117235371175,
,,,,,,,,,,,,0,0,0,0,106,0,106,0,,,,,,,106,,,1,19262.16904040292,Y,None,nogo,None,1,,19262.969828863163,,,,,,,,,,,,,,,,,18,001,,,,2023-01-16_14h01.45.911,00_bat_bachelor,2022.2.4,60.221117235371175,
,,,,,,,,,,,,0,0,0,0,107,0,107,0,,,,,,,107,,,1,19263.970619165804,X,d,go,d,1,0.2681008212384768,,,,,,,,,,,,,,,,,,18,001,,,,2023-01-16_14h01.45.911,00_bat_bachelor,2022.2.4,60.221117235371175,
,,,,,,,,,,,,0,0,0,0,108,0,108,0,,,,,,,108,,,1,19265.35502528242,Y,l,go,l,1,0.43553298246115446,,,,,,,,,,,,,,,,,,18,001,,,,2023-01-16_14h01.45.911,00_bat_bachelor,2022.2.4,60.221117235371175,
,,,,,,,,,,,,0,0,0,0,109,0,109,0,,,,,,,109,,,1,19266.9062502273,X,d,go,d,1,0.6439193057012744,,,,,,,,,,,,,,,,,,18,001,,,,2023-01-16_14h01.45.911,00_bat_bachelor,2022.2.4,60.221117235371175,
,,,,,,,,,,,,0,0,0,0,110,0,110,0,,,,,,,110,,,1,19268.674217370106,Y,l,go,l,1,0.3164324341341853,,,,,,,,,,,,,,,,,,18,001,,,,2023-01-16_14h01.45.911,00_bat_bachelor,2022.2.4,60.221117235371175,
,,,,,,,,,,,,0,0,0,0,111,0,111,0,,,,,,,111,,,1,19270.108451826207,X,d,go,d,1,0.3691645297803916,,,,,,,,,,,,,,,,,,18,001,,,,2023-01-16_14h01.45.911,00_bat_bachelor,2022.2.4,60.221117235371175,
,,,,,,,,,,,,0,0,0,0,112,0,112,0,,,,,,,112,,,1,19271.609860552824,Y,l,go,None,0,,19272.410231558722,,,,,,,,,,,,,,,,,18,001,,,,2023-01-16_14h01.45.911,00_bat_bachelor,2022.2.4,60.221117235371175,
,,,,,,,,,,,,0,0,0,0,113,0,113,0,,,,,,,113,,,1,19273.411019921943,Y,None,nogo,None,1,,19274.21158292773,,,,,,,,,,,,,,,,,18,001,,,,2023-01-16_14h01.45.911,00_bat_bachelor,2022.2.4,60.221117235371175,
,,,,,,,,,,,,0,0,0,0,114,0,114,0,,,,,,,114,,,1,19275.212336866767,X,d,go,d,1,0.35333859809907153,,,,,,,,,,,,,,,,,,18,001,,,,2023-01-16_14h01.45.911,00_bat_bachelor,2022.2.4,60.221117235371175,
,,,,,,,,,,,,0,0,0,0,115,0,115,0,,,,,,,115,,,1,19276.680335670186,Y,l,go,l,1,0.6456477897008881,,,,,,,,,,,,,,,,,,18,001,,,,2023-01-16_14h01.45.911,00_bat_bachelor,2022.2.4,60.221117235371175,
,,,,,,,,,,,,0,0,0,0,116,0,116,0,,,,,,,116,,,1,19278.44835129782,Y,None,nogo,None,1,,19279.248730061227,,,,,,,,,,,,,,,,,18,001,,,,2023-01-16_14h01.45.911,00_bat_bachelor,2022.2.4,60.221117235371175,
,,,,,,,,,,,,0,0,0,0,117,0,117,0,,,,,,,117,,,1,19280.249488363916,X,d,go,d,1,0.42074074724223465,,,,,,,,,,,,,,,,,,18,001,,,,2023-01-16_14h01.45.911,00_bat_bachelor,2022.2.4,60.221117235371175,
,,,,,,,,,,,,0,0,0,0,118,0,118,0,,,,,,,118,,,1,19281.784196953173,Y,l,go,l,1,0.4536924888379872,,,,,,,,,,,,,,,,,,18,001,,,,2023-01-16_14h01.45.911,00_bat_bachelor,2022.2.4,60.221117235371175,
,,,,,,,,,,,,0,0,0,0,119,0,119,0,,,,,,,119,,,1,19283.352039586927,X,d,go,d,1,0.2934511119965464,,,,,,,,,,,,,,,,,,18,001,,,,2023-01-16_14h01.45.911,00_bat_bachelor,2022.2.4,60.221117235371175,
,,,,,,,,,,,,0,0,0,0,120,0,120,0,,,,,,,120,,,1,19284.769780475297,Y,l,go,l,1,0.31612019188469276,,,,,,,,,,,,,,,,,,18,001,,,,2023-01-16_14h01.45.911,00_bat_bachelor,2022.2.4,60.221117235371175,
,,,,,,,,,,,,0,0,0,0,121,0,121,0,,,,,,,121,,,1,19286.220729105116,X,d,go,d,1,0.33707581809721887,,,,,,,,,,,,,,,,,,18,001,,,,2023-01-16_14h01.45.911,00_bat_bachelor,2022.2.4,60.221117235371175,
,,,,,,,,,,,,0,0,0,0,122,0,122,0,,,,,,,122,,,1,19287.688493241963,Y,l,go,l,1,0.3245807938510552,,,,,,,,,,,,,,,,,,18,001,,,,2023-01-16_14h01.45.911,00_bat_bachelor,2022.2.4,60.221117235371175,
,,,,,,,,,,,,0,0,0,0,123,0,123,0,,,,,,,123,,,1,19289.13961205358,Y,None,nogo,None,1,,19289.940212392656,,,,,,,,,,,,,,,,,18,001,,,,2023-01-16_14h01.45.911,00_bat_bachelor,2022.2.4,60.221117235371175,
,,,,,,,,,,,,0,0,0,0,124,0,124,0,,,,,,,124,,,1,19290.94095275592,X,d,go,d,1,0.2567893115337938,,,,,,,,,,,,,,,,,,18,001,,,,2023-01-16_14h01.45.911,00_bat_bachelor,2022.2.4,60.221117235371175,
,,,,,,,,,,,,0,0,0,0,125,0,125,0,,,,,,,125,,,1,19292.325633296685,Y,l,go,l,1,0.2481953763635829,,,,,,,,,,,,,,,,,,18,001,,,,2023-01-16_14h01.45.911,00_bat_bachelor,2022.2.4,60.221117235371175,
,,,,,,,,,,,,0,0,0,0,126,0,126,0,,,,,,,126,,,1,19293.69313323975,X,d,go,d,1,0.22419684252236038,,,,,,,,,,,,,,,,,,18,001,,,,2023-01-16_14h01.45.911,00_bat_bachelor,2022.2.4,60.221117235371175,
,,,,,,,,,,,,0,0,0,0,127,0,127,0,,,,,,,127,,,1,19295.044297675544,Y,l,go,l,1,0.249190769798588,,,,,,,,,,,,,,,,,,18,001,,,,2023-01-16_14h01.45.911,00_bat_bachelor,2022.2.4,60.221117235371175,
,,,,,,,,,,,,0,0,0,0,128,0,128,0,,,,,,,128,,,1,19296.411811194324,Y,None,nogo,None,1,,19297.21263165452,,,,,,,,,,,,,,,,,18,001,,,,2023-01-16_14h01.45.911,00_bat_bachelor,2022.2.4,60.221117235371175,
,,,,,,,,,,,,0,0,0,0,129,0,129,0,,,,,,,129,,,1,19298.213436502614,X,d,go,d,1,0.3447306022862904,,,,,,,,,,,,,,,,,,18,001,,,,2023-01-16_14h01.45.911,00_bat_bachelor,2022.2.4,60.221117235371175,
,,,,,,,,,,,,0,0,0,0,130,0,130,0,,,,,,,130,,,1,19299.68099748803,Y,l,go,l,1,0.28473014652263373,,,,,,,,,,,,,,,,,,18,001,,,,2023-01-16_14h01.45.911,00_bat_bachelor,2022.2.4,60.221117235371175,
,,,,,,,,,,,,0,0,0,0,131,0,131,0,,,,,,,131,,,1,19301.098913406604,Y,None,nogo,None,1,,19301.899330473098,,,,,,,,,,,,,,,,,18,001,,,,2023-01-16_14h01.45.911,00_bat_bachelor,2022.2.4,60.221117235371175,
,,,,,,,,,,,,0,0,0,0,132,0,132,0,,,,,,,132,,,1,19302.900289502926,X,d,go,d,1,0.2815141480532475,,,,,,,,,,,,,,,,,,18,001,,,,2023-01-16_14h01.45.911,00_bat_bachelor,2022.2.4,60.221117235371175,
,,,,,,,,,,,,0,0,0,0,133,0,133,0,,,,,,,133,,,1,19304.30134918727,Y,l,go,l,1,0.38503167364979163,,,,,,,,,,,,,,,,,,18,001,,,,2023-01-16_14h01.45.911,00_bat_bachelor,2022.2.4,60.221117235371175,
,,,,,,,,,,,,0,0,0,0,134,0,134,0,,,,,,,134,,,1,19305.818961542333,X,d,go,d,1,0.3558602938428521,,,,,,,,,,,,,,,,,,18,001,,,,2023-01-16_14h01.45.911,00_bat_bachelor,2022.2.4,60.221117235371175,
,,,,,,,,,,,,0,0,0,0,135,0,135,0,,,,,,,135,,,1,19307.28679501248,X,None,nogo,None,1,,19308.087570381816,,,,,,,,,,,,,,,,,18,001,,,,2023-01-16_14h01.45.911,00_bat_bachelor,2022.2.4,60.221117235371175,
,,,,,,,,,,,,0,0,0,0,136,0,136,0,,,,,,,136,,,1,19309.088166260335,Y,l,go,l,1,0.34916987287579104,,,,,,,,,,,,,,,,,,18,001,,,,2023-01-16_14h01.45.911,00_bat_bachelor,2022.2.4,60.221117235371175,
,,,,,,,,,,,,0,0,0,0,137,0,137,0,,,,,,,137,,,1,19310.556145669776,X,d,go,d,1,0.37019046873319894,,,,,,,,,,,,,,,,,,18,001,,,,2023-01-16_14h01.45.911,00_bat_bachelor,2022.2.4,60.221117235371175,
,,,,,,,,,,,,0,0,0,0,138,0,138,0,,,,,,,138,,,1,19312.04059101065,X,None,nogo,d,0,0.3578350807656534,,,,,,,,,,,,,,,,,,18,001,,,,2023-01-16_14h01.45.911,00_bat_bachelor,2022.2.4,60.221117235371175,
,,,,,,,,,,,,0,0,0,0,139,0,139,0,,,,,,,139,,,1,19313.508383268665,Y,l,go,l,1,0.36243144213221967,,,,,,,,,,,,,,,,,,18,001,,,,2023-01-16_14h01.45.911,00_bat_bachelor,2022.2.4,60.221117235371175,
,,,,,,,,,,,,0,0,0,0,140,0,140,0,,,,,,,140,,,1,19314.976129951014,X,d,go,d,1,0.5733782489551231,,,,,,,,,,,,,,,,,,18,001,,,,2023-01-16_14h01.45.911,00_bat_bachelor,2022.2.4,60.221117235371175,
,,,,,,,,,,,,0,0,0,0,141,0,141,0,,,,,,,141,,,1,19316.67743676249,X,None,nogo,None,1,,19317.478044374322,,,,,,,,,,,,,,,,,18,001,,,,2023-01-16_14h01.45.911,00_bat_bachelor,2022.2.4,60.221117235371175,
,,,,,,,,,,,,0,0,0,0,142,0,142,0,,,,,,,142,,,1,19318.478622313414,Y,l,go,l,1,0.3513192051323131,,,,,,,,,,,,,,,,,,18,001,,,,2023-01-16_14h01.45.911,00_bat_bachelor,2022.2.4,60.221117235371175,
,,,,,,,,,,,,0,0,0,0,143,0,143,0,,,,,,,143,,,1,19319.9631200179,X,d,go,d,1,0.4669598762993701,,,,,,,,,,,,,,,,,,18,001,,,,2023-01-16_14h01.45.911,00_bat_bachelor,2022.2.4,60.221117235371175,
,,,,,,,,,,,,0,0,0,0,144,0,144,0,,,,,,,144,,,1,19321.531189075788,X,None,nogo,None,1,,19322.331850990653,,,,,,,,,,,,,,,,,18,001,,,,2023-01-16_14h01.45.911,00_bat_bachelor,2022.2.4,60.221117235371175,
,,,,,,,,,,,,0,0,0,0,145,0,145,0,,,,,,,145,,,1,19323.332633535727,Y,l,go,l,1,0.2981308673042804,,,,,,,,,,,,,,,,,,18,001,,,,2023-01-16_14h01.45.911,00_bat_bachelor,2022.2.4,60.221117235371175,
,,,,,,,,,,,,0,0,0,0,146,0,146,0,,,,,,,146,,,1,19324.766755022225,X,d,go,d,1,0.43169540853705257,,,,,,,,,,,,,,,,,,18,001,,,,2023-01-16_14h01.45.911,00_bat_bachelor,2022.2.4,60.221117235371175,
,,,,,,,,,,,,0,0,0,0,147,0,147,0,,,,,,,147,,,1,19326.31817536091,Y,l,go,l,1,0.4633322417503223,,,,,,,,,,,,,,,,,,18,001,,,,2023-01-16_14h01.45.911,00_bat_bachelor,2022.2.4,60.221117235371175,
,,,,,,,,,,,,0,0,0,0,148,0,148,0,,,,,,,148,,,1,19327.90273168357,X,d,go,d,1,0.3356173945358023,,,,,,,,,,,,,,,,,,18,001,,,,2023-01-16_14h01.45.911,00_bat_bachelor,2022.2.4,60.221117235371175,
,,,,,,,,,,,,0,0,0,0,149,0,149,0,,,,,,,149,,,1,19329.37054866884,X,None,nogo,None,1,,19330.171137371624,,,,,,,,,,,,,,,,,18,001,,,,2023-01-16_14h01.45.911,00_bat_bachelor,2022.2.4,60.221117235371175,
,,,,,,,,,,,,0,0,0,0,150,0,150,0,,,,,,,150,,,1,19331.171814704605,Y,l,go,l,1,0.3616964122047648,,,,,,,,,,,,,,,,,,18,001,,,,2023-01-16_14h01.45.911,00_bat_bachelor,2022.2.4,60.221117235371175,
,,,,,,,,,,,,0,0,0,0,151,0,151,0,,,,,,,151,,,1,19332.656318712106,X,d,go,d,1,0.30120044155046344,,,,,,,,,,,,,,,,,,18,001,,,,2023-01-16_14h01.45.911,00_bat_bachelor,2022.2.4,60.221117235371175,
,,,,,,,,,,,,0,0,0,0,152,0,152,0,,,,,,,152,,,1,19334.09081789537,X,None,nogo,None,1,,19334.89128247701,,,,,,,,,,,,,,,,,18,001,,,,2023-01-16_14h01.45.911,00_bat_bachelor,2022.2.4,60.221117235371175,
,,,,,,,,,,,,0,0,0,0,153,0,153,0,,,,,,,153,,,1,19335.891885628225,Y,l,go,l,1,0.20175709581235424,,,,,,,,,,,,,,,,,,18,001,,,,2023-01-16_14h01.45.911,00_bat_bachelor,2022.2.4,60.221117235371175,
,,,,,,,,,,,,0,0,0,0,154,0,154,0,,,,,,,154,,,1,19337.226412496297,X,d,go,d,1,0.43469467986142263,,,,,,,,,,,,,,,,,,18,001,,,,2023-01-16_14h01.45.911,00_bat_bachelor,2022.2.4,60.221117235371175,
,,,,,,,,,,,,0,0,0,0,155,0,155,0,,,,,,,155,,,1,19338.794116463512,Y,l,go,l,1,0.3388256353791803,,,,,,,,,,,,,,,,,,18,001,,,,2023-01-16_14h01.45.911,00_bat_bachelor,2022.2.4,60.221117235371175,
,,,,,,,,,,,,0,0,0,0,156,0,156,0,,,,,,,156,,,1,19340.278578774072,X,d,go,d,1,0.23110108159016818,,,,,,,,,,,,,,,,,,18,001,,,,2023-01-16_14h01.45.911,00_bat_bachelor,2022.2.4,60.221117235371175,
,,,,,,,,,,,,0,0,0,0,157,0,157,0,,,,,,,157,,,1,19341.629772785585,X,None,nogo,None,1,,19342.43017094297,,,,,,,,,,,,,,,,,18,001,,,,2023-01-16_14h01.45.911,00_bat_bachelor,2022.2.4,60.221117235371175,
,,,,,,,,,,,,0,0,0,0,158,0,158,0,,,,,,,158,,,1,19343.43095833651,Y,l,go,l,1,0.21466715016867965,,,,,,,,,,,,,,,,,,18,001,,,,2023-01-16_14h01.45.911,00_bat_bachelor,2022.2.4,60.221117235371175,
,,,,,,,,,,,,0,0,0,0,159,0,159,0,,,,,,,159,,,1,19344.765310659248,X,d,go,d,1,0.46484933188185096,,,,,,,,,,,,,,,,,,18,001,,,,2023-01-16_14h01.45.911,00_bat_bachelor,2022.2.4,60.221117235371175,
,,,,,,,,,,,,0,0,0,0,160,0,160,0,,,,,,,160,,,1,19346.366748428263,Y,l,go,l,1,0.36736913671484217,,,,,,,,,,,,,,,,,,18,001,,,,2023-01-16_14h01.45.911,00_bat_bachelor,2022.2.4,60.221117235371175,
,,,,,,,,,,,,0,0,0,0,161,0,161,0,,,,,,,161,,,1,19347.851013405598,X,d,go,d,1,0.43510583112947643,,,,,,,,,,,,,,,,,,18,001,,,,2023-01-16_14h01.45.911,00_bat_bachelor,2022.2.4,60.221117235371175,
,,,,,,,,,,,,0,0,0,0,162,0,162,0,,,,,,,162,,,1,19349.40185386577,Y,l,go,l,1,0.3241885515744798,,,,,,,,,,,,,,,,,,18,001,,,,2023-01-16_14h01.45.911,00_bat_bachelor,2022.2.4,60.221117235371175,
,,,,,,,,,,,,0,0,0,0,163,0,163,0,,,,,,,163,,,1,19350.852820919885,X,d,go,d,1,0.36250271485187113,,,,,,,,,,,,,,,,,,18,001,,,,2023-01-16_14h01.45.911,00_bat_bachelor,2022.2.4,60.221117235371175,
,,,,,,,,,,,,0,0,0,0,164,0,164,0,,,,,,,164,,,1,19352.320721783908,X,None,nogo,None,1,,,,,,,,,,,,,,,,,,,18,001,,,,2023-01-16_14h01.45.911,00_bat_bachelor,2022.2.4,60.221117235371175,
,,,,,,,,,,,,0,0,0,0,165,0,165,0,,,,,,,165,,,1,19354.122080425674,Y,l,go,l,1,0.24553598364582285,,,,,,,,,,,,,,,,,,18,001,,,,2023-01-16_14h01.45.911,00_bat_bachelor,2022.2.4,60.221117235371175,
,,,,,,,,,,,,0,0,0,0,166,0,166,0,,,,,,,166,,,1,19355.47307758883,X,d,go,d,1,0.6212376197217964,,,,,,,,,,,,,,,,,,18,001,,,,2023-01-16_14h01.45.911,00_bat_bachelor,2022.2.4,60.221117235371175,
,,,,,,,,,,,,0,0,0,0,167,0,167,0,,,,,,,167,,,1,19357.20758826303,Y,l,go,l,1,0.3753351934719831,,,,,,,,,,,,,,,,,,18,001,,,,2023-01-16_14h01.45.911,00_bat_bachelor,2022.2.4,60.221117235371175,
,,,,,,,,,,,,0,0,0,0,168,0,168,0,,,,,,,168,,,1,19358.692046209937,X,d,go,d,1,0.377786586235743,,,,,,,,,,,,,,,,,,18,001,,,,2023-01-16_14h01.45.911,00_bat_bachelor,2022.2.4,60.221117235371175,
,,,,,,,,,,,,0,0,0,0,169,0,169,0,,,,,,,169,,,1,19360.176737368864,Y,l,go,l,1,0.3653439256013371,,,,,,,,,,,,,,,,,,18,001,,,,2023-01-16_14h01.45.911,00_bat_bachelor,2022.2.4,60.221117235371175,
,,,,,,,,,,,,0,0,0,0,170,0,170,0,,,,,,,170,,,1,19361.644504899683,X,d,go,d,1,0.4663518766174093,,,,,,,,,,,,,,,,,,18,001,,,,2023-01-16_14h01.45.911,00_bat_bachelor,2022.2.4,60.221117235371175,
,,,,,,,,,,,,0,0,0,0,171,0,171,0,,,,,,,171,,,1,19363.212190927472,X,None,nogo,None,1,,,,,,,,,,,,,,,,,,,18,001,,,,2023-01-16_14h01.45.911,00_bat_bachelor,2022.2.4,60.221117235371175,
,,,,,,,,,,,,0,0,0,0,172,0,172,0,,,,,,,172,,,1,19365.01357187226,Y,l,go,l,1,0.26473015622468665,,,,,,,,,,,,,,,,,,18,001,,,,2023-01-16_14h01.45.911,00_bat_bachelor,2022.2.4,60.221117235371175,
,,,,,,,,,,,,0,0,0,0,173,0,173,0,,,,,,,173,,,1,19366.38124636066,X,d,go,d,1,0.44867188518401235,,,,,,,,,,,,,,,,,,18,001,,,,2023-01-16_14h01.45.911,00_bat_bachelor,2022.2.4,60.221117235371175,
,,,,,,,,,,,,0,0,0,0,174,0,174,0,,,,,,,174,,,1,19367.932597366045,Y,l,go,l,1,0.33828842360526323,,,,,,,,,,,,,,,,,,18,001,,,,2023-01-16_14h01.45.911,00_bat_bachelor,2022.2.4,60.221117235371175,
,,,,,,,,,,,,0,0,0,0,175,0,175,0,,,,,,,175,,,1,19369.383681268548,Y,None,nogo,None,1,,19370.184464880265,,,,,,,,,,,,,,,,,18,001,,,,2023-01-16_14h01.45.911,00_bat_bachelor,2022.2.4,60.221117235371175,
,,,,,,,,,,,,0,0,0,0,176,0,176,0,,,,,,,176,,,1,19371.185174698127,Y,None,nogo,None,1,,19371.985683400882,,,,,,,,,,,,,,,,,18,001,,,,2023-01-16_14h01.45.911,00_bat_bachelor,2022.2.4,60.221117235371175,
,,,,,,,,,,,,0,0,0,0,177,0,177,0,,,,,,,177,,,1,19372.986302552104,X,d,go,d,1,0.2441580449230969,,,,,,,,,,,,,,,,,,18,001,,,,2023-01-16_14h01.45.911,00_bat_bachelor,2022.2.4,60.221117235371175,
,,,,,,,,,,,,0,0,0,0,178,0,178,0,,,,,,,178,,,1,19374.33752032125,Y,l,go,l,1,0.33298418374033645,,,,,,,,,,,,,,,,,,18,001,,,,2023-01-16_14h01.45.911,00_bat_bachelor,2022.2.4,60.221117235371175,
,,,,,,,,,,,,0,0,0,0,179,0,179,0,,,,,,,179,,,1,19375.771933686337,Y,None,nogo,None,1,,19376.572587843635,,,,,,,,,,,,,,,,,18,001,,,,2023-01-16_14h01.45.911,00_bat_bachelor,2022.2.4,60.221117235371175,
,,,,,,,,,,,,0,0,0,0,180,0,180,0,,,,,,,180,,,1,19377.573120207002,X,d,go,d,1,0.34594029863364995,,,,,,,,,,,,,,,,,,18,001,,,,2023-01-16_14h01.45.911,00_bat_bachelor,2022.2.4,60.221117235371175,
,,,,,,,,,,,,0,0,0,0,181,0,181,0,,,,,,,181,,,1,19379.024234654964,Y,l,go,l,1,0.43036740919342265,,,,,,,,,,,,,,,,,,18,001,,,,2023-01-16_14h01.45.911,00_bat_bachelor,2022.2.4,60.221117235371175,
,,,,,,,,,,,,0,0,0,0,182,0,182,0,,,,,,,182,,,1,19380.558740577602,Y,None,nogo,None,1,,,,,,,,,,,,,,,,,,,18,001,,,,2023-01-16_14h01.45.911,00_bat_bachelor,2022.2.4,60.221117235371175,
,,,,,,,,,,,,0,0,0,0,183,0,183,0,,,,,,,183,,,1,19382.36010115879,X,d,go,d,1,0.3114249214413576,,,,,,,,,,,,,,,,,,18,001,,,,2023-01-16_14h01.45.911,00_bat_bachelor,2022.2.4,60.221117235371175,
,,,,,,,,,,,,0,0,0,0,184,0,184,0,,,,,,,184,,,1,19383.777886168333,Y,l,go,l,1,0.460785333882086,,,,,,,,,,,,,,,,,,18,001,,,,2023-01-16_14h01.45.911,00_bat_bachelor,2022.2.4,60.221117235371175,
,,,,,,,,,,,,0,0,0,0,185,0,185,0,,,,,,,185,,,1,19385.345857286884,Y,None,nogo,None,1,,19386.146352413925,,,,,,,,,,,,,,,,,18,001,,,,2023-01-16_14h01.45.911,00_bat_bachelor,2022.2.4,60.221117235371175,
,,,,,,,,,,,,0,0,0,0,186,0,186,0,,,,,,,186,,,1,19387.147270716494,X,d,go,d,1,0.27480966644361615,,,,,,,,,,,,,,,,,,18,001,,,,2023-01-16_14h01.45.911,00_bat_bachelor,2022.2.4,60.221117235371175,
,,,,,,,,,,,,0,0,0,0,187,0,187,0,,,,,,,187,,,1,19388.531664711947,Y,l,go,l,1,0.5713506136089563,,,,,,,,,,,,,,,,,,18,001,,,,2023-01-16_14h01.45.911,00_bat_bachelor,2022.2.4,60.221117235371175,
,,,,,,,,,,,,0,0,0,0,188,0,188,0,,,,,,,188,,,1,19390.216067774047,X,d,go,d,1,0.5018161018961109,,,,,,,,,,,,,,,,,,18,001,,,,2023-01-16_14h01.45.911,00_bat_bachelor,2022.2.4,60.221117235371175,
,,,,,,,,,,,,0,0,0,0,189,0,189,0,,,,,,,189,,,1,19391.834241534933,Y,l,go,l,1,0.3253643086645752,,,,,,,,,,,,,,,,,,18,001,,,,2023-01-16_14h01.45.911,00_bat_bachelor,2022.2.4,60.221117235371175,
,,,,,,,,,,,,0,0,0,0,190,0,190,0,,,,,,,190,,,1,19393.268639869755,Y,None,nogo,None,1,,19394.068982754485,,,,,,,,,,,,,,,,,18,001,,,,2023-01-16_14h01.45.911,00_bat_bachelor,2022.2.4,60.221117235371175,
,,,,,,,,,,,,0,0,0,0,191,0,191,0,,,,,,,191,,,1,19395.069942753995,X,d,go,d,1,0.2570128266233951,,,,,,,,,,,,,,,,,,18,001,,,,2023-01-16_14h01.45.911,00_bat_bachelor,2022.2.4,60.221117235371175,
,,,,,,,,,,,,0,0,0,0,192,0,192,0,,,,,,,192,,,1,19396.437668636325,Y,l,go,l,1,0.3772275562514551,,,,,,,,,,,,,,,,,,18,001,,,,2023-01-16_14h01.45.911,00_bat_bachelor,2022.2.4,60.221117235371175,
,,,,,,,,,,,,0,0,0,0,193,0,193,0,,,,,,,193,,,1,19397.922184280178,Y,None,nogo,None,1,,,,,,,,,,,,,,,,,,,18,001,,,,2023-01-16_14h01.45.911,00_bat_bachelor,2022.2.4,60.221117235371175,
,,,,,,,,,,,,0,0,0,0,194,0,194,0,,,,,,,194,,,1,19399.7235084977,X,d,go,d,1,0.2752920904895291,,,,,,,,,,,,,,,,,,18,001,,,,2023-01-16_14h01.45.911,00_bat_bachelor,2022.2.4,60.221117235371175,
,,,,,,,,,,,,0,0,0,0,195,0,195,0,,,,,,,195,,,1,19401.107763341744,Y,l,go,l,1,0.4428740697912872,,,,,,,,,,,,,,,,,,18,001,,,,2023-01-16_14h01.45.911,00_bat_bachelor,2022.2.4,60.221117235371175,
,,,,,,,,,,,,0,0,0,0,196,0,196,0,,,,,,,196,,,1,19402.659060528968,X,d,go,d,1,0.29942250304156914,,,,,,,,,,,,,,,,,,18,001,,,,2023-01-16_14h01.45.911,00_bat_bachelor,2022.2.4,60.221117235371175,
,,,,,,,,,,,,0,0,0,0,197,0,197,0,,,,,,,197,,,1,19404.059949546703,Y,l,go,l,1,0.2747243331396021,,,,,,,,,,,,,,,,,,18,001,,,,2023-01-16_14h01.45.911,00_bat_bachelor,2022.2.4,60.221117235371175,
,,,,,,,,,,,,0,0,0,0,198,0,198,0,,,,,,,198,,,1,19405.44436826941,Y,None,nogo,None,1,,,,,,,,,,,,,,,,,,,18,001,,,,2023-01-16_14h01.45.911,00_bat_bachelor,2022.2.4,60.221117235371175,
,,,,,,,,,,,,0,0,0,0,199,0,199,0,,,,,,,199,,,1,19407.24626751698,X,d,go,d,1,0.2550113730248995,,,,,,,,,,,,,,,,,,18,001,,,,2023-01-16_14h01.45.911,00_bat_bachelor,2022.2.4,60.221117235371175,
,,,,,,,,,,,,0,0,0,0,200,0,200,0,,,,,,,200,,,1,19408.630915088055,Y,l,go,l,1,0.3912372463964857,,,,,,,,,,,,,,,,,,18,001,,,,2023-01-16_14h01.45.911,00_bat_bachelor,2022.2.4,60.221117235371175,
,,,,,,,,,,,,0,0,0,0,201,0,201,0,,,,,,,201,,,1,19410.165342465334,Y,None,nogo,None,1,,19410.965944258962,,,,,,,,,,,,,,,,,18,001,,,,2023-01-16_14h01.45.911,00_bat_bachelor,2022.2.4,60.221117235371175,
,,,,,,,,,,,,0,0,0,0,202,0,202,0,,,,,,,202,,,1,19411.9664974708,X,d,go,d,1,0.3349720615078695,,,,,,,,,,,,,,,,,,18,001,,,,2023-01-16_14h01.45.911,00_bat_bachelor,2022.2.4,60.221117235371175,
,,,,,,,,,,,,0,0,0,0,203,0,203,0,,,,,,,203,,,1,19413.434562698414,Y,l,go,l,1,0.4682170878513716,,,,,,,,,,,,,,,,,,18,001,,,,2023-01-16_14h01.45.911,00_bat_bachelor,2022.2.4,60.221117235371175,
,,,,,,,,,,,,0,0,0,0,204,0,204,0,,,,,,,204,,,1,19415.01882956666,X,d,go,d,1,0.29097353742690757,,,,,,,,,,,,,,,,,,18,001,,,,2023-01-16_14h01.45.911,00_bat_bachelor,2022.2.4,60.221117235371175,
,,,,,,,,,,,,0,0,0,0,205,0,205,0,,,,,,,205,,,1,19416.45346887107,Y,l,go,l,1,0.2646700350451283,,,,,,,,,,,,,,,,,,18,001,,,,2023-01-16_14h01.45.911,00_bat_bachelor,2022.2.4,60.221117235371175,
,,,,,,,,,,,,0,0,0,0,206,0,206,0,,,,,,,206,,,1,19417.837671836314,X,d,go,d,1,0.28794420551275834,,,,,,,,,,,,,,,,,,18,001,,,,2023-01-16_14h01.45.911,00_bat_bachelor,2022.2.4,60.221117235371175,
,,,,,,,,,,,,0,0,0,0,207,0,207,0,,,,,,,207,,,1,19419.255069452105,X,None,nogo,None,1,,19420.05596409412,,,,,,,,,,,,,,,,,18,001,,,,2023-01-16_14h01.45.911,00_bat_bachelor,2022.2.4,60.221117235371175,
,,,,,,,,,,,,0,0,0,0,208,0,208,0,,,,,,,208,,,1,19421.05668845738,Y,l,go,l,1,0.2375369572546333,,,,,,,,,,,,,,,,,,18,001,,,,2023-01-16_14h01.45.911,00_bat_bachelor,2022.2.4,60.221117235371175,
,,,,,,,,,,,,0,0,0,0,209,0,209,0,,,,,,,209,,,1,19422.407684650854,X,d,go,d,1,0.45474073075456545,,,,,,,,,,,,,,,,,,18,001,,,,2023-01-16_14h01.45.911,00_bat_bachelor,2022.2.4,60.221117235371175,
,,,,,,,,,,,,0,0,0,0,210,0,210,0,,,,,,,210,,,1,19423.97552776948,X,None,nogo,None,1,,19424.775996229844,,,,,,,,,,,,,,,,,18,001,,,,2023-01-16_14h01.45.911,00_bat_bachelor,2022.2.4,60.221117235371175,
,,,,,,,,,,,,0,0,0,0,211,0,211,0,,,,,,,211,,,1,19425.77675986587,Y,l,go,l,1,0.2855039642890915,,,,,,,,,,,,,,,,,,18,001,,,,2023-01-16_14h01.45.911,00_bat_bachelor,2022.2.4,60.221117235371175,
,,,,,,,,,,,,0,0,0,0,212,0,212,0,,,,,,,212,,,1,19427.178083307634,X,d,go,d,1,0.3404299982939847,,,,,,,,,,,,,,,,,,18,001,,,,2023-01-16_14h01.45.911,00_bat_bachelor,2022.2.4,60.221117235371175,
,,,,,,,,,,,,0,0,0,0,213,0,213,0,,,,,,,213,,,1,19428.628633392218,X,None,nogo,None,1,,19429.429042216274,,,,,,,,,,,,,,,,,18,001,,,,2023-01-16_14h01.45.911,00_bat_bachelor,2022.2.4,60.221117235371175,
,,,,,,,,,,,,0,0,0,0,214,0,214,0,,,,,,,214,,,1,19430.430043427914,Y,l,go,l,1,0.32001934153959155,,,,,,,,,,,,,,,,,,18,001,,,,2023-01-16_14h01.45.911,00_bat_bachelor,2022.2.4,60.221117235371175,
,,,,,,,,,,,,0,0,0,0,215,0,215,0,,,,,,,215,,,1,19431.864246368874,X,d,go,None,0,,,,,,,,,,,,,,,,,,,18,001,,,,2023-01-16_14h01.45.911,00_bat_bachelor,2022.2.4,60.221117235371175,
,,,,,,,,,,,,0,0,0,0,216,0,216,0,,,,,,,216,,,1,19433.665881859022,Y,l,go,l,1,0.6208482865476981,,,,,,,,,,,,,,,,,,18,001,,,,2023-01-16_14h01.45.911,00_bat_bachelor,2022.2.4,60.221117235371175,
,,,,,,,,,,,,0,0,0,0,217,0,217,0,,,,,,,217,,,1,19435.400606836076,Y,None,nogo,d,0,0.24610325612593442,,,,,,,,,,,,,,,,,,18,001,,,,2023-01-16_14h01.45.911,00_bat_bachelor,2022.2.4,60.221117235371175,
,,,,,,,,,,,,0,0,0,0,218,0,218,0,,,,,,,218,,,1,19436.75185369613,X,d,go,d,1,0.4151271741720848,,,,,,,,,,,,,,,,,,18,001,,,,2023-01-16_14h01.45.911,00_bat_bachelor,2022.2.4,60.221117235371175,
,,,,,,,,,,,,0,0,0,0,219,0,219,0,,,,,,,219,,,1,19438.269066051405,Y,l,go,l,1,0.25799125037156045,,,,,,,,,,,,,,,,,,18,001,,,,2023-01-16_14h01.45.911,00_bat_bachelor,2022.2.4,60.221117235371175,
,,,,,,,,,,,,0,0,0,0,220,0,220,0,,,,,,,220,,,1,19439.63747266063,X,d,go,d,1,0.37616913247620687,,,,,,,,,,,,,,,,,,18,001,,,,2023-01-16_14h01.45.911,00_bat_bachelor,2022.2.4,60.221117235371175,
,,,,,,,,,,,,0,0,0,0,221,0,221,0,,,,,,,221,,,1,19441.137931084668,Y,l,go,l,1,0.41175456979544833,,,,,,,,,,,,,,,,,,18,001,,,,2023-01-16_14h01.45.911,00_bat_bachelor,2022.2.4,60.221117235371175,
,,,,,,,,,,,,0,0,0,0,222,0,222,0,,,,,,,222,,,1,19442.655964772915,X,d,go,d,1,0.28595487313577905,,,,,,,,,,,,,,,,,,18,001,,,,2023-01-16_14h01.45.911,00_bat_bachelor,2022.2.4,60.221117235371175,
,,,,,,,,,,,,0,0,0,0,223,0,223,0,,,,,,,223,,,1,19444.05680191191,Y,l,go,l,1,0.2622428846661933,,,,,,,,,,,,,,,,,,18,001,,,,2023-01-16_14h01.45.911,00_bat_bachelor,2022.2.4,60.221117235371175,
,,,,,,,,,,,,0,0,0,0,224,0,224,0,,,,,,,224,,,1,19445.424685369886,Y,None,nogo,None,1,,,,,,,,,,,,,,,,,,,18,001,,,,2023-01-16_14h01.45.911,00_bat_bachelor,2022.2.4,60.221117235371175,
,,,,,,,,,,,,0,0,0,0,225,0,225,0,,,,,,,225,,,1,19447.226137102523,X,d,go,d,1,0.2771810592385009,,,,,,,,,,,,,,,,,,18,001,,,,2023-01-16_14h01.45.911,00_bat_bachelor,2022.2.4,60.221117235371175,
,,,,,,,,,,,,0,0,0,0,226,0,226,0,,,,,,,226,,,1,19448.610294491984,Y,l,go,l,1,0.2681405788171105,,,,,,,,,,,,,,,,,,18,001,,,,2023-01-16_14h01.45.911,00_bat_bachelor,2022.2.4,60.221117235371175,
,,,,,,,,,,,,0,0,0,0,227,0,227,0,,,,,,,227,,,1,19449.99482376012,X,d,go,d,1,0.30768334749154747,,,,,,,,,,,,,,,,,,18,001,,,,2023-01-16_14h01.45.911,00_bat_bachelor,2022.2.4,60.221117235371175,
,,,,,,,,,,,,0,0,0,0,228,0,228,0,,,,,,,228,,,1,19451.412697496882,X,None,nogo,None,1,,,,,,,,,,,,,,,,,,,18,001,,,,2023-01-16_14h01.45.911,00_bat_bachelor,2022.2.4,60.221117235371175,
,,,,,,,,,,,,0,0,0,0,229,0,229,0,,,,,,,229,,,1,19453.21481783525,Y,l,go,l,1,0.20647127536358312,,,,,,,,,,,,,,,,,,18,001,,,,2023-01-16_14h01.45.911,00_bat_bachelor,2022.2.4,60.221117235371175,
,,,,,,,,,,,,0,0,0,0,230,0,230,0,,,,,,,230,,,1,19454.549248703406,X,d,go,d,1,0.44126097968546674,,,,,,,,,,,,,,,,,,18,001,,,,2023-01-16_14h01.45.911,00_bat_bachelor,2022.2.4,60.221117235371175,
,,,,,,,,,,,,0,0,0,0,231,0,231,0,,,,,,,231,,,1,19456.116985155444,Y,l,go,l,1,0.3289361856877804,,,,,,,,,,,,,,,,,,18,001,,,,2023-01-16_14h01.45.911,00_bat_bachelor,2022.2.4,60.221117235371175,
,,,,,,,,,,,,0,0,0,0,232,0,232,0,,,,,,,232,,,1,19457.551434399327,X,d,go,d,1,0.20645624509779736,,,,,,,,,,,,,,,,,,18,001,,,,2023-01-16_14h01.45.911,00_bat_bachelor,2022.2.4,60.221117235371175,
,,,,,,,,,,,,0,0,0,0,233,0,233,0,,,,,,,233,,,1,19458.90248780488,X,None,nogo,None,1,,19459.70294850768,,,,,,,,,,,,,,,,,18,001,,,,2023-01-16_14h01.45.911,00_bat_bachelor,2022.2.4,60.221117235371175,
,,,,,,,,,,,,0,0,0,0,234,0,234,0,,,,,,,234,,,1,19460.703846931516,Y,l,go,l,1,0.3503975085914135,,,,,,,,,,,,,,,,,,18,001,,,,2023-01-16_14h01.45.911,00_bat_bachelor,2022.2.4,60.221117235371175,
,,,,,,,,,,,,0,0,0,0,235,0,235,0,,,,,,,235,,,1,19462.171651795565,X,d,go,d,1,0.33808381762355566,,,,,,,,,,,,,,,,,,18,001,,,,2023-01-16_14h01.45.911,00_bat_bachelor,2022.2.4,60.221117235371175,
,,,,,,,,,,,,0,0,0,0,236,0,236,0,,,,,,,236,,,1,19463.639483326348,Y,l,go,l,1,0.39098803437082097,,,,,,,,,,,,,,,,,,18,001,,,,2023-01-16_14h01.45.911,00_bat_bachelor,2022.2.4,60.221117235371175,
,,,,,,,,,,,,0,0,0,0,237,0,237,0,,,,,,,237,,,1,19465.157078226912,X,d,go,d,1,0.4736027821782045,,,,,,,,,,,,,,,,,,18,001,,,,2023-01-16_14h01.45.911,00_bat_bachelor,2022.2.4,60.221117235371175,
,,,,,,,,,,,,0,0,0,0,238,0,238,0,,,,,,,238,,,1,19466.741764973733,X,None,nogo,None,1,,19467.542201434087,,,,,,,,,,,,,,,,,18,001,,,,2023-01-16_14h01.45.911,00_bat_bachelor,2022.2.4,60.221117235371175,
,,,,,,,,,,,,0,0,0,0,239,0,239,0,,,,,,,239,,,1,19468.54297282768,Y,l,go,l,1,0.20656145713292062,,,,,,,,,,,,,,,,,,18,001,,,,2023-01-16_14h01.45.911,00_bat_bachelor,2022.2.4,60.221117235371175,
,,,,,,,,,,,,0,0,0,0,240,0,240,0,,,,,,,240,,,1,19469.877556423016,X,d,go,d,1,0.264021308044903,,,,,,,,,,,,,,,,,,18,001,,,,2023-01-16_14h01.45.911,00_bat_bachelor,2022.2.4,60.221117235371175,
,,,,,,,,,,,,0,0,0,0,241,0,241,0,,,,,,,241,,,1,19471.261706054967,Y,l,go,l,1,0.3038423796533607,,,,,,,,,,,,,,,,,,18,001,,,,2023-01-16_14h01.45.911,00_bat_bachelor,2022.2.4,60.221117235371175,
,,,,,,,,,,,,0,0,0,0,242,0,242,0,,,,,,,242,,,1,19472.696260510944,Y,None,nogo,None,1,,19473.496717334958,,,,,,,,,,,,,,,,,18,001,,,,2023-01-16_14h01.45.911,00_bat_bachelor,2022.2.4,60.221117235371175,
,,,,,,,,,,,,0,0,0,0,243,0,243,0,,,,,,,243,,,1,19474.497686546587,X,d,go,d,1,0.25234858645126224,,,,,,,,,,,,,,,,,,18,001,,,,2023-01-16_14h01.45.911,00_bat_bachelor,2022.2.4,60.221117235371175,
,,,,,,,,,,,,0,0,0,0,244,0,244,0,,,,,,,244,,,1,19475.86521170172,Y,l,go,l,1,0.4690670268028043,,,,,,,,,,,,,,,,,,18,001,,,,2023-01-16_14h01.45.911,00_bat_bachelor,2022.2.4,60.221117235371175,
,,,,,,,,,,,,0,0,0,0,245,0,245,0,,,,,,,245,,,1,19477.449553721468,Y,None,nogo,None,1,,19478.250162302982,,,,,,,,,,,,,,,,,18,001,,,,2023-01-16_14h01.45.911,00_bat_bachelor,2022.2.4,60.221117235371175,
,,,,,,,,,,,,0,0,0,0,246,0,246,0,,,,,,,246,,,1,19479.250946787477,X,d,go,d,1,0.23541089764330536,,,,,,,,,,,,,,,,,,18,001,,,,2023-01-16_14h01.45.911,00_bat_bachelor,2022.2.4,60.221117235371175,
,,,,,,,,,,,,0,0,0,0,247,0,247,0,,,,,,,247,,,1,19480.6015832235,Y,l,go,l,1,0.5010296779801138,,,,,,,,,,,,,,,,,,18,001,,,,2023-01-16_14h01.45.911,00_bat_bachelor,2022.2.4,60.221117235371175,
,,,,,,,,,,,,0,0,0,0,248,0,248,0,,,,,,,248,,,1,19482.21935892396,Y,None,nogo,None,1,,19483.02013332362,,,,,,,,,,,,,,,,,18,001,,,,2023-01-16_14h01.45.911,00_bat_bachelor,2022.2.4,60.221117235371175,
,,,,,,,,,,,,0,0,0,0,249,0,249,0,,,,,,,249,,,1,19484.020878050535,X,d,go,d,1,0.4739004790317267,,,,,,,,,,,,,,,,,,18,001,,,,2023-01-16_14h01.45.911,00_bat_bachelor,2022.2.4,60.221117235371175,
,,,,,,,,,,,,1,0,1,0,0,0,0,0,,,,,,,0,,,0.2,19498.031821560347,X,d,go,d,1,0.5573423779569566,,,,,,,,,19484.614937398874,space,13.195133583911229,,,,,,,18,001,,,,2023-01-16_14h01.45.911,00_bat_bachelor,2022.2.4,60.221117235371175,
,,,,,,,,,,,,1,0,1,0,1,0,1,0,,,,,,,1,,,0.2,19498.915830343845,Y,l,go,l,1,0.3466666013118811,,,,,,,,,,,,,,,,,,18,001,,,,2023-01-16_14h01.45.911,00_bat_bachelor,2022.2.4,60.221117235371175,
,,,,,,,,,,,,1,0,1,0,2,0,2,0,,,,,,,2,,,0.2,19499.58297668706,X,d,go,d,1,0.3829439171240665,,,,,,,,,,,,,,,,,,18,001,,,,2023-01-16_14h01.45.911,00_bat_bachelor,2022.2.4,60.221117235371175,
,,,,,,,,,,,,1,0,1,0,3,0,3,0,,,,,,,3,,,0.2,19500.283508226217,Y,l,go,l,1,0.3547664762008935,,,,,,,,,,,,,,,,,,18,001,,,,2023-01-16_14h01.45.911,00_bat_bachelor,2022.2.4,60.221117235371175,
,,,,,,,,,,,,1,0,1,0,4,0,4,0,,,,,,,4,,,0.2,19500.95087420568,X,d,go,d,1,0.2951989899156615,,,,,,,,,,,,,,,,,,18,001,,,,2023-01-16_14h01.45.911,00_bat_bachelor,2022.2.4,60.221117235371175,
,,,,,,,,,,,,1,0,1,0,5,0,5,0,,,,,,,5,,,0.2,19501.551188096404,Y,l,go,l,1,0.2703262746799737,,,,,,,,,,,,,,,,,,18,001,,,,2023-01-16_14h01.45.911,00_bat_bachelor,2022.2.4,60.221117235371175,
,,,,,,,,,,,,1,0,1,0,6,0,6,0,,,,,,,6,,,0.2,19502.134974964894,Y,None,nogo,d,0,0.21500508941244334,,,,,,,,,,,,,,,,,,18,001,,,,2023-01-16_14h01.45.911,00_bat_bachelor,2022.2.4,60.221117235371175,
,,,,,,,,,,,,1,0,1,0,7,0,7,0,,,,,,,7,,,0.2,19502.668745372735,X,d,go,None,0,,19503.469499893603,,,,,,,,,,,,,,,,,18,001,,,,2023-01-16_14h01.45.911,00_bat_bachelor,2022.2.4,60.221117235371175,
,,,,,,,,,,,,1,0,1,0,8,0,8,0,,,,,,,8,,,0.2,19503.669745614694,Y,l,go,l,1,0.2964586257003248,,,,,,,,,,,,,,,,,,18,001,,,,2023-01-16_14h01.45.911,00_bat_bachelor,2022.2.4,60.221117235371175,
,,,,,,,,,,,,1,0,1,0,9,0,9,0,,,,,,,9,,,0.2,19504.27019138419,X,d,go,d,1,0.4165540825924836,,,,,,,,,,,,,,,,,,18,001,,,,2023-01-16_14h01.45.911,00_bat_bachelor,2022.2.4,60.221117235371175,
,,,,,,,,,,,,1,0,1,0,10,0,10,0,,,,,,,10,,,0.2,19504.98710788507,X,None,nogo,None,1,,19505.78771452722,,,,,,,,,,,,,,,,,18,001,,,,2023-01-16_14h01.45.911,00_bat_bachelor,2022.2.4,60.221117235371175,
,,,,,,,,,,,,1,0,1,0,11,0,11,0,,,,,,,11,,,0.2,19505.988054793677,Y,l,go,l,1,0.20222788350656629,,,,,,,,,,,,,,,,,,18,001,,,,2023-01-16_14h01.45.911,00_bat_bachelor,2022.2.4,60.221117235371175,
,,,,,,,,,,,,1,0,1,0,12,0,12,0,,,,,,,12,,,0.2,19506.505149815697,X,d,go,d,1,0.6452167595853098,,,,,,,,,,,,,,,,,,18,001,,,,2023-01-16_14h01.45.911,00_bat_bachelor,2022.2.4,60.221117235371175,
,,,,,,,,,,,,1,0,1,0,13,0,13,0,,,,,,,13,,,0.2,19507.455842688098,Y,l,go,l,1,0.3344043042161502,,,,,,,,,,,,,,,,,,18,001,,,,2023-01-16_14h01.45.911,00_bat_bachelor,2022.2.4,60.221117235371175,
,,,,,,,,,,,,1,0,1,0,14,0,14,0,,,,,,,14,,,0.2,19508.122994364647,X,d,go,d,1,0.40377202816307545,,,,,,,,,,,,,,,,,,18,001,,,,2023-01-16_14h01.45.911,00_bat_bachelor,2022.2.4,60.221117235371175,
,,,,,,,,,,,,1,0,1,0,15,0,15,0,,,,,,,15,,,0.2,19508.840029168525,X,None,nogo,None,1,,19509.640818113578,,,,,,,,,,,,,,,,,18,001,,,,2023-01-16_14h01.45.911,00_bat_bachelor,2022.2.4,60.221117235371175,
,,,,,,,,,,,,1,0,1,0,16,0,16,0,,,,,,,16,,,0.2,19509.84103328921,Y,l,go,l,1,0.27041694131912664,,,,,,,,,,,,,,,,,,18,001,,,,2023-01-16_14h01.45.911,00_bat_bachelor,2022.2.4,60.221117235371175,
,,,,,,,,,,,,1,0,1,0,17,0,17,0,,,,,,,17,,,0.2,19510.42483955162,X,d,go,d,1,0.4682859362801537,,,,,,,,,,,,,,,,,,18,001,,,,2023-01-16_14h01.45.911,00_bat_bachelor,2022.2.4,60.221117235371175,
,,,,,,,,,,,,1,0,1,0,18,0,18,0,,,,,,,18,,,0.2,19511.22543601191,Y,l,go,l,1,0.29312868788838387,,,,,,,,,,,,,,,,,,18,001,,,,2023-01-16_14h01.45.911,00_bat_bachelor,2022.2.4,60.221117235371175,
,,,,,,,,,,,,1,0,1,0,19,0,19,0,,,,,,,19,,,0.2,19511.825881296594,Y,None,nogo,d,0,0.36462392593966797,,,,,,,,,,,,,,,,,,18,001,,,,2023-01-16_14h01.45.911,00_bat_bachelor,2022.2.4,60.221117235371175,
,,,,,,,,,,,,1,0,1,0,20,0,20,0,,,,,,,20,,,0.2,19512.49310860946,X,d,go,None,0,,19513.293619251635,,,,,,,,,,,,,,,,,18,001,,,,2023-01-16_14h01.45.911,00_bat_bachelor,2022.2.4,60.221117235371175,
,,,,,,,,,,,,1,0,1,0,21,0,21,0,,,,,,,21,,,0.2,19513.493608488003,Y,l,go,l,1,0.29660747409798205,,,,,,,,,,,,,,,,,,18,001,,,,2023-01-16_14h01.45.911,00_bat_bachelor,2022.2.4,60.221117235371175,
,,,,,,,,,,,,1,0,1,0,22,0,22,0,,,,,,,22,,,0.2,19514.09424868162,X,d,go,d,1,0.5765942474245094,,,,,,,,,,,,,,,,,,18,001,,,,2023-01-16_14h01.45.911,00_bat_bachelor,2022.2.4,60.221117235371175,
,,,,,,,,,,,,1,0,1,0,23,0,23,0,,,,,,,23,,,0.2,19514.994768487406,Y,l,go,l,1,0.42661177465924993,,,,,,,,,,,,,,,,,,18,001,,,,2023-01-16_14h01.45.911,00_bat_bachelor,2022.2.4,60.221117235371175,
,,,,,,,,,,,,1,0,1,0,24,0,24,0,,,,,,,24,,,0.2,19515.745497335563,X,d,go,d,1,0.5395819016848691,,,,,,,,,,,,,,,,,,18,001,,,,2023-01-16_14h01.45.911,00_bat_bachelor,2022.2.4,60.221117235371175,
,,,,,,,,,,,,1,0,1,0,25,0,25,0,,,,,,,25,,,0.2,19516.61286127864,Y,l,go,l,1,0.4099727524444461,,,,,,,,,,,,,,,,,,18,001,,,,2023-01-16_14h01.45.911,00_bat_bachelor,2022.2.4,60.221117235371175,
,,,,,,,,,,,,1,0,1,0,26,0,26,0,,,,,,,26,,,0.2,19517.329892203736,Y,None,nogo,None,1,,19518.130464906455,,,,,,,,,,,,,,,,,18,001,,,,2023-01-16_14h01.45.911,00_bat_bachelor,2022.2.4,60.221117235371175,
,,,,,,,,,,,,1,0,1,0,27,0,27,0,,,,,,,27,,,0.2,19518.330609779106,X,d,go,d,1,0.4038529978133738,,,,,,,,,,,,,,,,,,18,001,,,,2023-01-16_14h01.45.911,00_bat_bachelor,2022.2.4,60.221117235371175,
,,,,,,,,,,,,1,0,1,0,28,0,28,0,,,,,,,28,,,0.2,19519.047997067682,Y,l,go,None,0,,19519.848682255193,,,,,,,,,,,,,,,,,18,001,,,,2023-01-16_14h01.45.911,00_bat_bachelor,2022.2.4,60.221117235371175,
,,,,,,,,,,,,1,0,1,0,29,0,29,0,,,,,,,29,,,0.2,19520.04877234,Y,None,nogo,None,1,,19520.849429891212,,,,,,,,,,,,,,,,,18,001,,,,2023-01-16_14h01.45.911,00_bat_bachelor,2022.2.4,60.221117235371175,
,,,,,,,,,,,,1,0,1,0,30,0,30,0,,,,,,,30,,,0.2,19521.049543248722,X,d,go,None,0,,19521.849916193984,,,,,,,,,,,,,,,,,18,001,,,,2023-01-16_14h01.45.911,00_bat_bachelor,2022.2.4,60.221117235371175,
,,,,,,,,,,,,1,0,1,0,31,0,31,0,,,,,,,31,,,0.2,19522.050122642366,Y,l,go,None,0,,19522.850958132884,,,,,,,,,,,,,,,,,18,001,,,,2023-01-16_14h01.45.911,00_bat_bachelor,2022.2.4,60.221117235371175,
,,,,,,,,,,,,1,0,1,0,32,0,32,0,,,,,,,32,,,0.2,19523.05091488443,X,d,go,None,0,,19523.85153267806,,,,,,,,,,,,,,,,,18,001,,,,2023-01-16_14h01.45.911,00_bat_bachelor,2022.2.4,60.221117235371175,
,,,,,,,,,,,,1,0,1,0,33,0,33,0,,,,,,,33,,,0.2,19524.05189670215,Y,l,go,None,0,,19524.852388435218,,,,,,,,,,,,,,,,,18,001,,,,2023-01-16_14h01.45.911,00_bat_bachelor,2022.2.4,60.221117235371175,
,,,,,,,,,,,,1,0,1,0,34,0,34,0,,,,,,,34,,,0.2,19525.05261330784,X,d,go,None,0,,19525.85317001061,,,,,,,,,,,,,,,,,18,001,,,,2023-01-16_14h01.45.911,00_bat_bachelor,2022.2.4,60.221117235371175,
,,,,,,,,,,,,1,0,1,0,35,0,35,0,,,,,,,35,,,0.2,19526.053358519624,Y,l,go,None,0,,19526.853792070935,,,,,,,,,,,,,,,,,18,001,,,,2023-01-16_14h01.45.911,00_bat_bachelor,2022.2.4,60.221117235371175,
,,,,,,,,,,,,1,0,1,0,36,0,36,0,,,,,,,36,,,0.2,19527.054109064688,X,d,go,None,0,,19527.854581403895,,,,,,,,,,,,,,,,,18,001,,,,2023-01-16_14h01.45.911,00_bat_bachelor,2022.2.4,60.221117235371175,
,,,,,,,,,,,,1,0,1,0,37,0,37,0,,,,,,,37,,,0.2,19528.054944943113,X,None,nogo,None,1,,19528.85547497921,,,,,,,,,,,,,,,,,18,001,,,,2023-01-16_14h01.45.911,00_bat_bachelor,2022.2.4,60.221117235371175,
,,,,,,,,,,,,1,0,1,0,38,0,38,0,,,,,,,38,,,0.2,19529.05557039735,Y,l,go,d,0,0.06255958753172308,,,,,,,,,,,,,,,,,,18,001,,,,2023-01-16_14h01.45.911,00_bat_bachelor,2022.2.4,60.221117235371175,
,,,,,,,,,,,,1,0,1,0,39,0,39,0,,,,,,,39,,,0.2,19529.422640279983,X,d,go,None,0,,19530.223042800964,,,,,,,,,,,,,,,,,18,001,,,,2023-01-16_14h01.45.911,00_bat_bachelor,2022.2.4,60.221117235371175,
,,,,,,,,,,,,1,0,1,0,40,0,40,0,,,,,,,40,,,0.2,19530.423246825114,X,None,nogo,l,0,0.18263807479524985,,,,,,,,,,,,,,,,,,18,001,,,,2023-01-16_14h01.45.911,00_bat_bachelor,2022.2.4,60.221117235371175,
,,,,,,,,,,,,1,0,1,0,41,0,41,0,,,,,,,41,,,0.2,19530.90703762084,Y,l,go,None,0,,19531.70765395998,,,,,,,,,,,,,,,,,18,001,,,,2023-01-16_14h01.45.911,00_bat_bachelor,2022.2.4,60.221117235371175,
,,,,,,,,,,,,1,0,1,0,42,0,42,0,,,,,,,42,,,0.2,19531.907702832657,X,d,go,d,1,0.0591753467451781,,,,,,,,,,,,,,,,,,18,001,,,,2023-01-16_14h01.45.911,00_bat_bachelor,2022.2.4,60.221117235371175,
,,,,,,,,,,,,1,0,1,0,43,0,43,0,,,,,,,43,,,0.2,19532.274598654767,Y,l,go,l,1,0.5718912194133736,,,,,,,,,,,,,,,,,,18,001,,,,2023-01-16_14h01.45.911,00_bat_bachelor,2022.2.4,60.221117235371175,
,,,,,,,,,,,,1,0,1,0,44,0,44,0,,,,,,,44,,,0.2,19533.158505135274,X,d,go,None,0,,19533.958957110823,,,,,,,,,,,,,,,,,18,001,,,,2023-01-16_14h01.45.911,00_bat_bachelor,2022.2.4,60.221117235371175,
,,,,,,,,,,,,1,0,1,0,45,0,45,0,,,,,,,45,,,0.2,19534.159075316857,Y,l,go,None,0,,19534.95985698921,,,,,,,,,,,,,,,,,18,001,,,,2023-01-16_14h01.45.911,00_bat_bachelor,2022.2.4,60.221117235371175,
,,,,,,,,,,,,1,0,1,0,46,0,46,0,,,,,,,46,,,0.2,19535.159874346748,Y,None,nogo,d,0,0.16605723433895037,,,,,,,,,,,,,,,,,,18,001,,,,2023-01-16_14h01.45.911,00_bat_bachelor,2022.2.4,60.221117235371175,
,,,,,,,,,,,,1,0,1,0,47,0,47,0,,,,,,,47,,,0.2,19535.627071695984,X,d,go,None,0,,19536.427699671476,,,,,,,,,,,,,,,,,18,001,,,,2023-01-16_14h01.45.911,00_bat_bachelor,2022.2.4,60.221117235371175,
,,,,,,,,,,,,1,0,1,0,48,0,48,0,,,,,,,48,,,0.2,19536.62780721078,Y,l,go,None,0,,19537.428427428647,,,,,,,,,,,,,,,,,18,001,,,,2023-01-16_14h01.45.911,00_bat_bachelor,2022.2.4,60.221117235371175,
,,,,,,,,,,,,1,0,1,0,49,0,49,0,,,,,,,49,,,0.2,19537.62859508919,Y,None,nogo,d,0,0.24306568183237687,,,,,,,,,,,,,,,,,,18,001,,,,2023-01-16_14h01.45.911,00_bat_bachelor,2022.2.4,60.221117235371175,
,,,,,,,,,,,,1,0,1,0,50,0,50,0,,,,,,,50,,,0.2,19538.179004519305,X,d,go,None,0,,19538.979633464478,,,,,,,,,,,,,,,,,18,001,,,,2023-01-16_14h01.45.911,00_bat_bachelor,2022.2.4,60.221117235371175,
,,,,,,,,,,,,1,0,1,0,51,0,51,0,,,,,,,51,,,0.2,19539.179766215908,Y,l,go,l,1,0.050736078119371086,,,,,,,,,,,,,,,,,,18,001,,,,2023-01-16_14h01.45.911,00_bat_bachelor,2022.2.4,60.221117235371175,
,,,,,,,,,,,,1,0,1,0,52,0,52,0,,,,,,,52,,,0.2,19539.546566038043,Y,None,nogo,None,1,,19540.347352558863,,,,,,,,,,,,,,,,,18,001,,,,2023-01-16_14h01.45.911,00_bat_bachelor,2022.2.4,60.221117235371175,
,,,,,,,,,,,,1,0,1,0,53,0,53,0,,,,,,,53,,,0.2,19540.54751246184,X,d,go,d,1,0.1393042776035145,,,,,,,,,,,,,,,,,,18,001,,,,2023-01-16_14h01.45.911,00_bat_bachelor,2022.2.4,60.221117235371175,
,,,,,,,,,,,,1,0,1,0,54,0,54,0,,,,,,,54,,,0.2,19540.997936001047,Y,l,go,None,0,,19541.798424340202,,,,,,,,,,,,,,,,,18,001,,,,2023-01-16_14h01.45.911,00_bat_bachelor,2022.2.4,60.221117235371175,
,,,,,,,,,,,,1,0,1,0,55,0,55,0,,,,,,,55,,,0.2,19541.998440728057,X,d,go,None,0,,19542.79918215802,,,,,,,,,,,,,,,,,18,001,,,,2023-01-16_14h01.45.911,00_bat_bachelor,2022.2.4,60.221117235371175,
,,,,,,,,,,,,1,0,1,0,56,0,56,0,,,,,,,56,,,0.2,19542.999194667093,X,None,nogo,None,1,,,,,,,,,,,,,,,,,,,18,001,,,,2023-01-16_14h01.45.911,00_bat_bachelor,2022.2.4,60.221117235371175,
,,,,,,,,,,,,1,0,1,0,57,0,57,0,,,,,,,57,,,0.2,19544.000159999938,Y,l,go,d,0,0.23809889639960602,,,,,,,,,,,,,,,,,,18,001,,,,2023-01-16_14h01.45.911,00_bat_bachelor,2022.2.4,60.221117235371175,
,,,,,,,,,,,,1,0,1,0,58,0,58,0,,,,,,,58,,,0.2,19544.55036433926,X,d,go,None,0,,19545.351158617646,,,,,,,,,,,,,,,,,18,001,,,,2023-01-16_14h01.45.911,00_bat_bachelor,2022.2.4,60.221117235371175,
,,,,,,,,,,,,1,0,1,0,59,0,59,0,,,,,,,59,,,0.2,19545.55133597512,Y,l,go,d,0,0.28664141829358414,,,,,,,,,,,,,,,,,,18,001,,,,2023-01-16_14h01.45.911,00_bat_bachelor,2022.2.4,60.221117235371175,
,,,,,,,,,,,,1,0,1,0,60,0,60,0,,,,,,,60,,,0.2,19546.15128380549,Y,None,nogo,None,1,,,,,,,,,,,,,,,,,,,18,001,,,,2023-01-16_14h01.45.911,00_bat_bachelor,2022.2.4,60.221117235371175,
,,,,,,,,,,,,1,0,1,0,61,0,61,0,,,,,,,61,,,0.2,19547.152408653405,X,d,go,d,1,0.20650666928850114,,,,,,,,,,,,,,,,,,18,001,,,,2023-01-16_14h01.45.911,00_bat_bachelor,2022.2.4,60.221117235371175,
,,,,,,,,,,,,1,0,1,0,62,0,62,0,,,,,,,62,,,0.2,19547.669492039073,Y,l,go,l,1,0.2976489281281829,,,,,,,,,,,,,,,,,,18,001,,,,2023-01-16_14h01.45.911,00_bat_bachelor,2022.2.4,60.221117235371175,
,,,,,,,,,,,,1,0,1,0,63,0,63,0,,,,,,,63,,,0.2,19548.269551869365,X,d,go,None,0,,,,,,,,,,,,,,,,,,,18,001,,,,2023-01-16_14h01.45.911,00_bat_bachelor,2022.2.4,60.221117235371175,
,,,,,,,,,,,,1,0,1,0,64,0,64,0,,,,,,,64,,,0.2,19549.270615141548,Y,l,go,l,1,0.3928939728648402,,,,,,,,,,,,,,,,,,18,001,,,,2023-01-16_14h01.45.911,00_bat_bachelor,2022.2.4,60.221117235371175,
,,,,,,,,,,,,1,0,1,0,65,0,65,0,,,,,,,65,,,0.2,19549.971138923138,Y,None,nogo,None,1,,19550.77144156542,,,,,,,,,,,,,,,,,18,001,,,,2023-01-16_14h01.45.911,00_bat_bachelor,2022.2.4,60.221117235371175,
,,,,,,,,,,,,1,0,1,0,66,0,66,0,,,,,,,66,,,0.2,19550.971792983415,X,d,go,d,1,0.14619397121714428,,,,,,,,,,,,,,,,,,18,001,,,,2023-01-16_14h01.45.911,00_bat_bachelor,2022.2.4,60.221117235371175,
,,,,,,,,,,,,1,0,1,0,67,0,67,0,,,,,,,67,,,0.2,19551.422156401386,Y,l,go,None,0,,,,,,,,,,,,,,,,,,,18,001,,,,2023-01-16_14h01.45.911,00_bat_bachelor,2022.2.4,60.221117235371175,
,,,,,,,,,,,,1,0,1,0,68,0,68,0,,,,,,,68,,,0.2,19552.422844401095,Y,None,nogo,None,1,,,,,,,,,,,,,,,,,,,18,001,,,,2023-01-16_14h01.45.911,00_bat_bachelor,2022.2.4,60.221117235371175,
,,,,,,,,,,,,1,0,1,0,69,0,69,0,,,,,,,69,,,0.2,19553.423666218878,X,d,go,d,1,0.11044368555303663,,,,,,,,,,,,,,,,,,18,001,,,,2023-01-16_14h01.45.911,00_bat_bachelor,2022.2.4,60.221117235371175,
,,,,,,,,,,,,1,0,1,0,70,0,70,0,,,,,,,70,,,0.2,19553.840820925718,Y,l,go,None,0,,,,,,,,,,,,,,,,,,,18,001,,,,2023-01-16_14h01.45.911,00_bat_bachelor,2022.2.4,60.221117235371175,
,,,,,,,,,,,,1,0,1,0,71,0,71,0,,,,,,,71,,,0.2,19554.841587470786,Y,None,nogo,None,1,,19555.641948779696,,,,,,,,,,,,,,,,,18,001,,,,2023-01-16_14h01.45.911,00_bat_bachelor,2022.2.4,60.221117235371175,
,,,,,,,,,,,,1,0,1,0,72,0,72,0,,,,,,,72,,,0.2,19555.841972440307,X,d,go,d,1,0.3965473044081591,,,,,,,,,,,,,,,,,,18,001,,,,2023-01-16_14h01.45.911,00_bat_bachelor,2022.2.4,60.221117235371175,
,,,,,,,,,,,,1,0,1,0,73,0,73,0,,,,,,,73,,,0.2,19556.542511736974,Y,l,go,l,1,0.5440129298949614,,,,,,,,,,,,,,,,,,18,001,,,,2023-01-16_14h01.45.911,00_bat_bachelor,2022.2.4,60.221117235371175,
,,,,,,,,,,,,1,0,1,0,74,0,74,0,,,,,,,74,,,0.2,19557.393389385077,Y,None,nogo,None,1,,,,,,,,,,,,,,,,,,,18,001,,,,2023-01-16_14h01.45.911,00_bat_bachelor,2022.2.4,60.221117235371175,
,,,,,,,,,,,,1,0,1,0,75,0,75,0,,,,,,,75,,,0.2,19558.393942596915,X,d,go,None,0,,19559.19460208749,,,,,,,,,,,,,,,,,18,001,,,,2023-01-16_14h01.45.911,00_bat_bachelor,2022.2.4,60.221117235371175,
,,,,,,,,,,,,1,0,1,0,76,0,76,0,,,,,,,76,,,0.2,19559.394773626816,Y,l,go,None,0,,,,,,,,,,,,,,,,,,,18,001,,,,2023-01-16_14h01.45.911,00_bat_bachelor,2022.2.4,60.221117235371175,
,,,,,,,,,,,,1,0,1,0,77,0,77,0,,,,,,,77,,,0.2,19560.396473019908,X,d,go,d,1,0.4648275137296878,,,,,,,,,,,,,,,,,,18,001,,,,2023-01-16_14h01.45.911,00_bat_bachelor,2022.2.4,60.221117235371175,
,,,,,,,,,,,,1,0,1,0,78,0,78,0,,,,,,,78,,,0.2,19561.19686875306,X,None,nogo,None,1,,19561.997667879972,,,,,,,,,,,,,,,,,18,001,,,,2023-01-16_14h01.45.911,00_bat_bachelor,2022.2.4,60.221117235371175,
,,,,,,,,,,,,1,0,1,0,79,0,79,0,,,,,,,79,,,0.2,19562.19767796481,Y,l,go,d,0,0.3435834512929432,,,,,,,,,,,,,,,,,,18,001,,,,2023-01-16_14h01.45.911,00_bat_bachelor,2022.2.4,60.221117235371175,
,,,,,,,,,,,,1,0,1,0,80,0,80,0,,,,,,,80,,,0.2,19562.88171593618,X,d,go,None,0,,19563.682315790444,,,,,,,,,,,,,,,,,18,001,,,,2023-01-16_14h01.45.911,00_bat_bachelor,2022.2.4,60.221117235371175,
,,,,,,,,,,,,1,0,1,0,81,0,81,0,,,,,,,81,,,0.2,19563.882307451044,X,None,nogo,None,1,,19564.6828680326,,,,,,,,,,,,,,,,,18,001,,,,2023-01-16_14h01.45.911,00_bat_bachelor,2022.2.4,60.221117235371175,
,,,,,,,,,,,,1,0,1,0,82,0,82,0,,,,,,,82,,,0.2,19564.883235935413,X,None,nogo,None,1,,19565.683830941212,,,,,,,,,,,,,,,,,18,001,,,,2023-01-16_14h01.45.911,00_bat_bachelor,2022.2.4,60.221117235371175,
,,,,,,,,,,,,1,0,1,0,83,0,83,0,,,,,,,83,,,0.2,19565.883836177585,Y,l,go,l,1,0.5936914512421936,,,,,,,,,,,,,,,,,,18,001,,,,2023-01-16_14h01.45.911,00_bat_bachelor,2022.2.4,60.221117235371175,
,,,,,,,,,,,,1,0,1,0,84,0,84,0,,,,,,,84,,,0.2,19566.817834755,X,d,go,None,0,,19567.618605760683,,,,,,,,,,,,,,,,,18,001,,,,2023-01-16_14h01.45.911,00_bat_bachelor,2022.2.4,60.221117235371175,
,,,,,,,,,,,,1,0,1,0,85,0,85,0,,,,,,,85,,,0.2,19567.818784087896,Y,l,go,l,1,0.5317690569791012,,,,,,,,,,,,,,,,,,18,001,,,,2023-01-16_14h01.45.911,00_bat_bachelor,2022.2.4,60.221117235371175,
,,,,,,,,,,,,1,0,1,0,86,0,86,0,,,,,,,86,,,0.2,19568.68585857656,Y,None,nogo,l,0,0.6077879292424768,,,,,,,,,,,,,,,,,,18,001,,,,2023-01-16_14h01.45.911,00_bat_bachelor,2022.2.4,60.221117235371175,
,,,,,,,,,,,,1,0,1,0,87,0,87,0,,,,,,,87,,,0.2,19569.620137881197,X,d,go,d,1,0.4900401075719856,,,,,,,,,,,,,,,,,,18,001,,,,2023-01-16_14h01.45.911,00_bat_bachelor,2022.2.4,60.221117235371175,
,,,,,,,,,,,,1,0,1,0,88,0,88,0,,,,,,,88,,,0.2,19570.4374814849,Y,l,go,l,1,0.568658736126963,,,,,,,,,,,,,,,,,,18,001,,,,2023-01-16_14h01.45.911,00_bat_bachelor,2022.2.4,60.221117235371175,
,,,,,,,,,,,,1,0,1,0,89,0,89,0,,,,,,,89,,,0.2,19571.33815838152,X,d,go,d,1,0.3717478012549691,,,,,,,,,,,,,,,,,,18,001,,,,2023-01-16_14h01.45.911,00_bat_bachelor,2022.2.4,60.221117235371175,
,,,,,,,,,,,,1,0,1,0,90,0,90,0,,,,,,,90,,,0.2,19572.05515294301,X,None,nogo,None,1,,19572.856073766772,,,,,,,,,,,,,,,,,18,001,,,,2023-01-16_14h01.45.911,00_bat_bachelor,2022.2.4,60.221117235371175,
,,,,,,,,,,,,1,0,1,0,91,0,91,0,,,,,,,91,,,0.2,19573.05610518495,Y,l,go,d,0,0.02950602787313983,,,,,,,,,,,,,,,,,,18,001,,,,2023-01-16_14h01.45.911,00_bat_bachelor,2022.2.4,60.221117235371175,
,,,,,,,,,,,,1,0,1,0,92,0,92,0,,,,,,,92,,,0.2,19573.422841491993,X,d,go,None,0,,19574.22374534607,,,,,,,,,,,,,,,,,18,001,,,,2023-01-16_14h01.45.911,00_bat_bachelor,2022.2.4,60.221117235371175,
,,,,,,,,,,,,1,0,1,0,93,0,93,0,,,,,,,93,,,0.2,19574.42383106728,X,None,nogo,None,1,,19575.224531769927,,,,,,,,,,,,,,,,,18,001,,,,2023-01-16_14h01.45.911,00_bat_bachelor,2022.2.4,60.221117235371175,
,,,,,,,,,,,,1,0,1,0,94,0,94,0,,,,,,,94,,,0.2,19575.424583066895,Y,l,go,l,1,0.3970530010992661,,,,,,,,,,,,,,,,,,18,001,,,,2023-01-16_14h01.45.911,00_bat_bachelor,2022.2.4,60.221117235371175,
,,,,,,,,,,,,1,0,1,0,95,0,95,0,,,,,,,95,,,0.2,19576.15828113543,X,d,go,d,1,0.4637278778827749,,,,,,,,,,,,,,,,,,18,001,,,,2023-01-16_14h01.45.911,00_bat_bachelor,2022.2.4,60.221117235371175,
,,,,,,,,,,,,1,0,1,0,96,0,96,0,,,,,,,96,,,0.2,19576.959071535035,X,None,nogo,None,1,,19577.759627752937,,,,,,,,,,,,,,,,,18,001,,,,2023-01-16_14h01.45.911,00_bat_bachelor,2022.2.4,60.221117235371175,
,,,,,,,,,,,,1,0,1,0,97,0,97,0,,,,,,,97,,,0.2,19577.959615049884,Y,l,go,l,1,0.4546272762818262,,,,,,,,,,,,,,,,,,18,001,,,,2023-01-16_14h01.45.911,00_bat_bachelor,2022.2.4,60.221117235371175,
,,,,,,,,,,,,1,0,1,0,98,0,98,0,,,,,,,98,,,0.2,19578.727177344437,X,d,go,None,0,,19579.52778398653,,,,,,,,,,,,,,,,,18,001,,,,2023-01-16_14h01.45.911,00_bat_bachelor,2022.2.4,60.221117235371175,
,,,,,,,,,,,,1,0,1,0,99,0,99,0,,,,,,,99,,,0.2,19579.727649101755,Y,l,go,d,0,0.4616522425203584,,,,,,,,,,,,,,,,,,18,001,,,,2023-01-16_14h01.45.911,00_bat_bachelor,2022.2.4,60.221117235371175,
,,,,,,,,,,,,1,0,1,0,100,0,100,0,,,,,,,100,,,0.2,19580.511811630684,Y,None,nogo,l,0,0.04680541338166222,,,,,,,,,,,,,,,,,,18,001,,,,2023-01-16_14h01.45.911,00_bat_bachelor,2022.2.4,60.221117235371175,
,,,,,,,,,,,,1,0,1,0,101,0,101,0,,,,,,,101,,,0.2,19580.89521799021,X,d,go,None,0,,19581.695839177817,,,,,,,,,,,,,,,,,18,001,,,,2023-01-16_14h01.45.911,00_bat_bachelor,2022.2.4,60.221117235371175,
,,,,,,,,,,,,1,0,1,0,102,0,102,0,,,,,,,102,,,0.2,19581.896210474602,Y,l,go,None,0,,19582.696936874243,,,,,,,,,,,,,,,,,18,001,,,,2023-01-16_14h01.45.911,00_bat_bachelor,2022.2.4,60.221117235371175,
,,,,,,,,,,,,1,0,1,0,103,0,103,0,,,,,,,103,,,0.2,19582.896970231785,X,d,go,None,0,,19583.69768160116,,,,,,,,,,,,,,,,,18,001,,,,2023-01-16_14h01.45.911,00_bat_bachelor,2022.2.4,60.221117235371175,
,,,,,,,,,,,,1,0,1,0,104,0,104,0,,,,,,,104,,,0.2,19583.897544776963,X,None,nogo,None,1,,19584.698314328096,,,,,,,,,,,,,,,,,18,001,,,,2023-01-16_14h01.45.911,00_bat_bachelor,2022.2.4,60.221117235371175,
,,,,,,,,,,,,1,0,1,0,105,0,105,0,,,,,,,105,,,0.2,19584.89860368555,Y,l,go,l,1,0.2195214508101344,,,,,,,,,,,,,,,,,,18,001,,,,2023-01-16_14h01.45.911,00_bat_bachelor,2022.2.4,60.221117235371175,
,,,,,,,,,,,,1,0,1,0,106,0,106,0,,,,,,,106,,,0.2,19585.44892002479,X,d,go,None,0,,19586.2496440002,,,,,,,,,,,,,,,,,18,001,,,,2023-01-16_14h01.45.911,00_bat_bachelor,2022.2.4,60.221117235371175,
,,,,,,,,,,,,1,0,1,0,107,0,107,0,,,,,,,107,,,0.2,19586.449673963827,Y,l,go,l,1,0.5885874537634663,,,,,,,,,,,,,,,,,,18,001,,,,2023-01-16_14h01.45.911,00_bat_bachelor,2022.2.4,60.221117235371175,
,,,,,,,,,,,,1,0,1,0,108,0,108,0,,,,,,,108,,,0.2,19587.367014125106,X,d,go,None,0,,19588.16761107027,,,,,,,,,,,,,,,,,18,001,,,,2023-01-16_14h01.45.911,00_bat_bachelor,2022.2.4,60.221117235371175,
,,,,,,,,,,,,1,0,1,0,109,0,109,0,,,,,,,109,,,0.2,19588.367572185467,Y,l,go,None,0,,19589.16847361531,,,,,,,,,,,,,,,,,18,001,,,,2023-01-16_14h01.45.911,00_bat_bachelor,2022.2.4,60.221117235371175,
,,,,,,,,,,,,1,0,1,0,110,0,110,0,,,,,,,110,,,0.2,19589.36856321525,X,d,go,l,0,0.13355640164809301,,,,,,,,,,,,,,,,,,18,001,,,,2023-01-16_14h01.45.911,00_bat_bachelor,2022.2.4,60.221117235371175,
,,,,,,,,,,,,1,0,1,0,111,0,111,0,,,,,,,111,,,0.2,19589.835326625325,Y,l,go,None,0,,19590.636030721944,,,,,,,,,,,,,,,,,18,001,,,,2023-01-16_14h01.45.911,00_bat_bachelor,2022.2.4,60.221117235371175,
,,,,,,,,,,,,1,0,1,0,112,0,112,0,,,,,,,112,,,0.2,19590.83613874612,X,d,go,d,1,0.008815128763671964,,,,,,,,,,,,,,,,,,18,001,,,,2023-01-16_14h01.45.911,00_bat_bachelor,2022.2.4,60.221117235371175,
,,,,,,,,,,,,1,0,1,0,113,0,113,0,,,,,,,113,,,0.2,19591.186852273066,X,None,nogo,l,0,0.5392395988455974,,,,,,,,,,,,,,,,,,18,001,,,,2023-01-16_14h01.45.911,00_bat_bachelor,2022.2.4,60.221117235371175,
,,,,,,,,,,,,1,0,1,0,114,0,114,0,,,,,,,114,,,0.2,19592.070630268834,Y,l,go,None,0,,19592.87120103219,,,,,,,,,,,,,,,,,18,001,,,,2023-01-16_14h01.45.911,00_bat_bachelor,2022.2.4,60.221117235371175,
,,,,,,,,,,,,1,0,1,0,115,0,115,0,,,,,,,115,,,0.2,19593.071169420087,X,d,go,None,0,,19593.872043698444,,,,,,,,,,,,,,,,,18,001,,,,2023-01-16_14h01.45.911,00_bat_bachelor,2022.2.4,60.221117235371175,
,,,,,,,,,,,,1,0,1,0,116,0,116,0,,,,,,,116,,,0.2,19594.071922874253,Y,l,go,d,0,0.22995877912035212,,,,,,,,,,,,,,,,,,18,001,,,,2023-01-16_14h01.45.911,00_bat_bachelor,2022.2.4,60.221117235371175,
,,,,,,,,,,,,1,0,1,0,117,0,117,0,,,,,,,117,,,0.2,19594.622560667864,Y,None,nogo,None,1,,19595.42293021921,,,,,,,,,,,,,,,,,18,001,,,,2023-01-16_14h01.45.911,00_bat_bachelor,2022.2.4,60.221117235371175,
,,,,,,,,,,,,1,0,1,0,118,0,118,0,,,,,,,118,,,0.2,19595.623105152452,X,d,go,None,0,,19596.423756400647,,,,,,,,,,,,,,,,,18,001,,,,2023-01-16_14h01.45.911,00_bat_bachelor,2022.2.4,60.221117235371175,
,,,,,,,,,,,,1,0,1,0,119,0,119,0,,,,,,,119,,,0.2,19596.624089879275,Y,l,go,l,1,0.23759562394116074,,,,,,,,,,,,,,,,,,18,001,,,,2023-01-16_14h01.45.911,00_bat_bachelor,2022.2.4,60.221117235371175,
,,,,,,,,,,,,1,0,1,0,120,0,120,0,,,,,,,120,,,0.2,19597.207639656903,X,d,go,None,0,,19598.00824242027,,,,,,,,,,,,,,,,,18,001,,,,2023-01-16_14h01.45.911,00_bat_bachelor,2022.2.4,60.221117235371175,
,,,,,,,,,,,,1,0,1,0,121,0,121,0,,,,,,,121,,,0.2,19598.208631171612,Y,l,go,l,1,0.5091436134534888,,,,,,,,,,,,,,,,,,18,001,,,,2023-01-16_14h01.45.911,00_bat_bachelor,2022.2.4,60.221117235371175,
,,,,,,,,,,,,1,0,1,0,122,0,122,0,,,,,,,122,,,0.2,19599.059343486384,Y,None,nogo,None,1,,19599.85971109837,,,,,,,,,,,,,,,,,18,001,,,,2023-01-16_14h01.45.911,00_bat_bachelor,2022.2.4,60.221117235371175,
,,,,,,,,,,,,1,0,1,0,123,0,123,0,,,,,,,123,,,0.2,19600.060013061855,X,d,go,None,0,,19600.860727340274,,,,,,,,,,,,,,,,,18,001,,,,2023-01-16_14h01.45.911,00_bat_bachelor,2022.2.4,60.221117235371175,
,,,,,,,,,,,,1,0,1,0,124,0,124,0,,,,,,,124,,,0.2,19601.060931364424,Y,l,go,l,1,0.5043504036148079,,,,,,,,,,,,,,,,,,18,001,,,,2023-01-16_14h01.45.911,00_bat_bachelor,2022.2.4,60.221117235371175,
,,,,,,,,,,,,1,0,1,0,125,0,125,0,,,,,,,125,,,0.2,19601.911423073267,Y,None,nogo,d,0,0.34216914896387607,,,,,,,,,,,,,,,,,,18,001,,,,2023-01-16_14h01.45.911,00_bat_bachelor,2022.2.4,60.221117235371175,
,,,,,,,,,,,,1,0,1,0,126,0,126,0,,,,,,,126,,,0.2,19602.56174081855,X,d,go,None,0,,19603.362587460608,,,,,,,,,,,,,,,,,18,001,,,,2023-01-16_14h01.45.911,00_bat_bachelor,2022.2.4,60.221117235371175,
,,,,,,,,,,,,1,0,1,0,127,0,127,0,,,,,,,127,,,0.2,19603.562447242497,Y,l,go,l,1,0.08353460766375065,,,,,,,,,,,,,,,,,,18,001,,,,2023-01-16_14h01.45.911,00_bat_bachelor,2022.2.4,60.221117235371175,
,,,,,,,,,,,,1,0,1,0,128,0,128,0,,,,,,,128,,,0.2,19603.979680494755,X,d,go,None,0,,19604.779849803715,,,,,,,,,,,,,,,,,18,001,,,,2023-01-16_14h01.45.911,00_bat_bachelor,2022.2.4,60.221117235371175,
,,,,,,,,,,,,1,0,1,0,129,0,129,0,,,,,,,129,,,0.2,19604.98004994908,Y,l,go,d,0,0.26599948888178915,,,,,,,,,,,,,,,,,,18,001,,,,2023-01-16_14h01.45.911,00_bat_bachelor,2022.2.4,60.221117235371175,
,,,,,,,,,,,,1,0,1,0,130,0,130,0,,,,,,,130,,,0.2,19605.54683561367,X,d,go,None,0,,,,,,,,,,,,,,,,,,,18,001,,,,2023-01-16_14h01.45.911,00_bat_bachelor,2022.2.4,60.221117235371175,
,,,,,,,,,,,,1,0,1,0,131,0,131,0,,,,,,,131,,,0.2,19606.547749552643,Y,l,go,None,0,,,,,,,,,,,,,,,,,,,18,001,,,,2023-01-16_14h01.45.911,00_bat_bachelor,2022.2.4,60.221117235371175,
,,,,,,,,,,,,1,0,1,0,132,0,132,0,,,,,,,132,,,0.2,19607.54822179483,X,d,go,None,0,,19608.34893607325,,,,,,,,,,,,,,,,,18,001,,,,2023-01-16_14h01.45.911,00_bat_bachelor,2022.2.4,60.221117235371175,
,,,,,,,,,,,,1,0,1,0,133,0,133,0,,,,,,,133,,,0.2,19608.549044582294,X,None,nogo,None,1,,19609.349661406246,,,,,,,,,,,,,,,,,18,001,,,,2023-01-16_14h01.45.911,00_bat_bachelor,2022.2.4,60.221117235371175,
,,,,,,,,,,,,1,0,1,0,134,0,134,0,,,,,,,134,,,0.2,19609.549883854634,Y,l,go,None,0,,19610.350457042223,,,,,,,,,,,,,,,,,18,001,,,,2023-01-16_14h01.45.911,00_bat_bachelor,2022.2.4,60.221117235371175,
,,,,,,,,,,,,1,0,1,0,135,0,135,0,,,,,,,135,,,0.2,19610.55057767249,X,d,go,None,0,,,,,,,,,,,,,,,,,,,18,001,,,,2023-01-16_14h01.45.911,00_bat_bachelor,2022.2.4,60.221117235371175,
,,,,,,,,,,,,1,0,1,0,136,0,136,0,,,,,,,136,,,0.2,19611.551328217553,Y,l,go,None,0,,19612.35196104151,,,,,,,,,,,,,,,,,18,001,,,,2023-01-16_14h01.45.911,00_bat_bachelor,2022.2.4,60.221117235371175,
,,,,,,,,,,,,1,0,1,0,137,0,137,0,,,,,,,137,,,0.2,19612.552132580837,X,d,go,d,1,0.006551857106387615,,,,,,,,,,,,,,,,,,18,001,,,,2023-01-16_14h01.45.911,00_bat_bachelor,2022.2.4,60.221117235371175,
,,,,,,,,,,,,1,0,1,0,138,0,138,0,,,,,,,138,,,0.2,19612.868999336264,Y,l,go,None,0,,,,,,,,,,,,,,,,,,,18,001,,,,2023-01-16_14h01.45.911,00_bat_bachelor,2022.2.4,60.221117235371175,
,,,,,,,,,,,,1,0,1,0,139,0,139,0,,,,,,,139,,,0.2,19613.869538487517,X,d,go,None,0,,,,,,,,,,,,,,,,,,,18,001,,,,2023-01-16_14h01.45.911,00_bat_bachelor,2022.2.4,60.221117235371175,
,,,,,,,,,,,,1,0,1,0,140,0,140,0,,,,,,,140,,,0.2,19614.8705639416,Y,l,go,None,0,,19615.671160886763,,,,,,,,,,,,,,,,,18,001,,,,2023-01-16_14h01.45.911,00_bat_bachelor,2022.2.4,60.221117235371175,
,,,,,,,,,,,,1,0,1,0,141,0,141,0,,,,,,,141,,,0.2,19615.871299456398,Y,None,nogo,l,0,0.3511480537126772,,,,,,,,,,,,,,,,,,18,001,,,,2023-01-16_14h01.45.911,00_bat_bachelor,2022.2.4,60.221117235371175,
,,,,,,,,,,,,1,0,1,0,142,0,142,0,,,,,,,142,,,0.2,19616.53845307231,X,d,go,None,0,,,,,,,,,,,,,,,,,,,18,001,,,,2023-01-16_14h01.45.911,00_bat_bachelor,2022.2.4,60.221117235371175,
,,,,,,,,,,,,1,0,1,0,143,0,143,0,,,,,,,143,,,0.2,19617.539184708323,Y,l,go,None,0,,,,,,,,,,,,,,,,,,,18,001,,,,2023-01-16_14h01.45.911,00_bat_bachelor,2022.2.4,60.221117235371175,
,,,,,,,,,,,,1,0,1,0,144,0,144,0,,,,,,,144,,,0.2,19618.54056798038,Y,None,nogo,l,0,0.5931232091388665,,,,,,,,,,,,,,,,,,18,001,,,,2023-01-16_14h01.45.911,00_bat_bachelor,2022.2.4,60.221117235371175,
,,,,,,,,,,,,1,0,1,0,145,0,145,0,,,,,,,145,,,0.2,19619.474609224475,X,d,go,None,0,,19620.275619745196,,,,,,,,,,,,,,,,,18,001,,,,2023-01-16_14h01.45.911,00_bat_bachelor,2022.2.4,60.221117235371175,
,,,,,,,,,,,,1,0,1,0,146,0,146,0,,,,,,,146,,,0.2,19620.475357830175,Y,l,go,None,0,,19621.27621901763,,,,,,,,,,,,,,,,,18,001,,,,2023-01-16_14h01.45.911,00_bat_bachelor,2022.2.4,60.221117235371175,
,,,,,,,,,,,,1,0,1,0,147,0,147,0,,,,,,,147,,,0.2,19621.476135526726,X,d,go,d,1,0.05743037792854011,,,,,,,,,,,,,,,,,,18,001,,,,2023-01-16_14h01.45.911,00_bat_bachelor,2022.2.4,60.221117235371175,
,,,,,,,,,,,,1,0,1,0,148,0,148,0,,,,,,,148,,,0.2,19621.859719825618,Y,l,go,None,0,,19622.660411316203,,,,,,,,,,,,,,,,,18,001,,,,2023-01-16_14h01.45.911,00_bat_bachelor,2022.2.4,60.221117235371175,
,,,,,,,,,,,,1,0,1,0,149,0,149,0,,,,,,,149,,,0.2,19622.860526613134,X,d,go,d,1,0.5459368077572435,,,,,,,,,,,,,,,,,,18,001,,,,2023-01-16_14h01.45.911,00_bat_bachelor,2022.2.4,60.221117235371175,
,,,,,,,,,,,,1,0,1,0,150,0,150,0,,,,,,,150,,,0.2,19623.727819283493,X,None,nogo,d,0,0.49446046905359253,,,,,,,,,,,,,,,,,,18,001,,,,2023-01-16_14h01.45.911,00_bat_bachelor,2022.2.4,60.221117235371175,
,,,,,,,,,,,,1,0,1,0,151,0,151,0,,,,,,,151,,,0.2,19624.562049666885,Y,l,go,l,1,0.5559256513952278,,,,,,,,,,,,,,,,,,18,001,,,,2023-01-16_14h01.45.911,00_bat_bachelor,2022.2.4,60.221117235371175,
,,,,,,,,,,,,1,0,1,0,152,0,152,0,,,,,,,152,,,0.2,19625.462726563565,X,d,go,d,1,0.5023314955178648,,,,,,,,,,,,,,,,,,18,001,,,,2023-01-16_14h01.45.911,00_bat_bachelor,2022.2.4,60.221117235371175,
,,,,,,,,,,,,1,0,1,0,153,0,153,0,,,,,,,153,,,0.2,19626.296477916883,Y,l,go,l,1,0.42134486814029515,,,,,,,,,,,,,,,,,,18,001,,,,2023-01-16_14h01.45.911,00_bat_bachelor,2022.2.4,60.221117235371175,
,,,,,,,,,,,,1,0,1,0,154,0,154,0,,,,,,,154,,,0.2,19627.0470234924,X,d,go,d,1,0.6621903271297924,,,,,,,,,,,,,,,,,,18,001,,,,2023-01-16_14h01.45.911,00_bat_bachelor,2022.2.4,60.221117235371175,
,,,,,,,,,,,,1,0,1,0,155,0,155,0,,,,,,,155,,,0.2,19628.031093318306,X,None,nogo,None,1,,19628.831738748297,,,,,,,,,,,,,,,,,18,001,,,,2023-01-16_14h01.45.911,00_bat_bachelor,2022.2.4,60.221117235371175,
,,,,,,,,,,,,1,0,1,0,156,0,156,0,,,,,,,156,,,0.2,19629.032065439038,Y,l,go,l,1,0.37449689087225124,,,,,,,,,,,,,,,,,,18,001,,,,2023-01-16_14h01.45.911,00_bat_bachelor,2022.2.4,60.221117235371175,
,,,,,,,,,,,,1,0,1,0,157,0,157,0,,,,,,,157,,,0.2,19629.732420493383,X,d,go,None,0,,19630.53330543841,,,,,,,,,,,,,,,,,18,001,,,,2023-01-16_14h01.45.911,00_bat_bachelor,2022.2.4,60.221117235371175,
,,,,,,,,,,,,1,0,1,0,158,0,158,0,,,,,,,158,,,0.2,19630.73342025047,Y,l,go,l,1,0.6090272013680078,,,,,,,,,,,,,,,,,,18,001,,,,2023-01-16_14h01.45.911,00_bat_bachelor,2022.2.4,60.221117235371175,
,,,,,,,,,,,,1,0,1,0,159,0,159,0,,,,,,,159,,,0.2,19631.667510464264,X,d,go,d,1,0.4267019564867951,,,,,,,,,,,,,,,,,,18,001,,,,2023-01-16_14h01.45.911,00_bat_bachelor,2022.2.4,60.221117235371175,
,,,,,,,,,,,,1,0,1,0,160,0,160,0,,,,,,,160,,,0.2,19632.43457724387,Y,l,go,l,1,0.34678878309205174,,,,,,,,,,,,,,,,,,18,001,,,,2023-01-16_14h01.45.911,00_bat_bachelor,2022.2.4,60.221117235371175,
,,,,,,,,,,,,1,0,1,0,161,0,161,0,,,,,,,161,,,0.2,19633.118357275962,Y,None,nogo,None,1,,19633.918984766584,,,,,,,,,,,,,,,,,18,001,,,,2023-01-16_14h01.45.911,00_bat_bachelor,2022.2.4,60.221117235371175,
,,,,,,,,,,,,1,0,1,0,162,0,162,0,,,,,,,162,,,0.2,19634.119150972576,X,d,go,d,1,0.518873063265346,,,,,,,,,,,,,,,,,,18,001,,,,2023-01-16_14h01.45.911,00_bat_bachelor,2022.2.4,60.221117235371175,
,,,,,,,,,,,,1,0,1,0,163,0,163,0,,,,,,,163,,,0.2,19634.969789105584,Y,l,go,l,1,0.5325477233272977,,,,,,,,,,,,,,,,,,18,001,,,,2023-01-16_14h01.45.911,00_bat_bachelor,2022.2.4,60.221117235371175,
,,,,,,,,,,,,1,0,1,0,164,0,164,0,,,,,,,164,,,0.2,19635.820392329537,X,d,go,d,1,0.49805998243391514,,,,,,,,,,,,,,,,,,18,001,,,,2023-01-16_14h01.45.911,00_bat_bachelor,2022.2.4,60.221117235371175,
,,,,,,,,,,,,1,0,1,0,165,0,165,0,,,,,,,165,,,0.2,19636.637914842227,X,None,nogo,None,1,,19637.438337242056,,,,,,,,,,,,,,,,,18,001,,,,2023-01-16_14h01.45.911,00_bat_bachelor,2022.2.4,60.221117235371175,
,,,,,,,,,,,,1,0,1,0,166,0,166,0,,,,,,,166,,,0.2,19637.638649872213,Y,l,go,None,0,,19638.43928366585,,,,,,,,,,,,,,,,,18,001,,,,2023-01-16_14h01.45.911,00_bat_bachelor,2022.2.4,60.221117235371175,
,,,,,,,,,,,,1,0,1,0,167,0,167,0,,,,,,,167,,,0.2,19638.639426599082,X,d,go,None,0,,19639.440308635007,,,,,,,,,,,,,,,,,18,001,,,,2023-01-16_14h01.45.911,00_bat_bachelor,2022.2.4,60.221117235371175,
,,,,,,,,,,,,1,0,1,0,168,0,168,0,,,,,,,168,,,0.2,19639.639973507903,Y,l,go,l,1,0.3731315581826493,,,,,,,,,,,,,,,,,,18,001,,,,2023-01-16_14h01.45.911,00_bat_bachelor,2022.2.4,60.221117235371175,
,,,,,,,,,,,,1,0,1,0,169,0,169,0,,,,,,,169,,,0.2,19640.35722988745,Y,None,nogo,None,1,,19641.15795531741,,,,,,,,,,,,,,,,,18,001,,,,2023-01-16_14h01.45.911,00_bat_bachelor,2022.2.4,60.221117235371175,
,,,,,,,,,,,,1,0,1,0,170,0,170,0,,,,,,,170,,,0.2,19641.35791594768,X,d,go,d,1,0.35230684105772525,,,,,,,,,,,,,,,,,,18,001,,,,2023-01-16_14h01.45.911,00_bat_bachelor,2022.2.4,60.221117235371175,
,,,,,,,,,,,,1,0,1,0,171,0,171,0,,,,,,,171,,,0.2,19642.041625676793,Y,l,go,l,1,0.5643983745248988,,,,,,,,,,,,,,,,,,18,001,,,,2023-01-16_14h01.45.911,00_bat_bachelor,2022.2.4,60.221117235371175,
,,,,,,,,,,,,1,0,1,0,172,0,172,0,,,,,,,172,,,0.2,19642.908760286693,X,d,go,None,0,,19643.709191898583,,,,,,,,,,,,,,,,,18,001,,,,2023-01-16_14h01.45.911,00_bat_bachelor,2022.2.4,60.221117235371175,
,,,,,,,,,,,,1,0,1,0,173,0,173,0,,,,,,,173,,,0.2,19643.90952440753,X,None,nogo,None,1,,,,,,,,,,,,,,,,,,,18,001,,,,2023-01-16_14h01.45.911,00_bat_bachelor,2022.2.4,60.221117235371175,
,,,,,,,,,,,,1,0,1,0,174,0,174,0,,,,,,,174,,,0.2,19644.910429134383,Y,l,go,l,1,0.32010079600149766,,,,,,,,,,,,,,,,,,18,001,,,,2023-01-16_14h01.45.911,00_bat_bachelor,2022.2.4,60.221117235371175,
,,,,,,,,,,,,1,0,1,0,175,0,175,0,,,,,,,175,,,0.2,19645.5441369483,X,d,go,None,0,,19646.344747469237,,,,,,,,,,,,,,,,,18,001,,,,2023-01-16_14h01.45.911,00_bat_bachelor,2022.2.4,60.221117235371175,
,,,,,,,,,,,,1,0,1,0,176,0,176,0,,,,,,,176,,,0.2,19646.544678038976,Y,l,go,l,1,0.6062194451224059,,,,,,,,,,,,,,,,,,18,001,,,,2023-01-16_14h01.45.911,00_bat_bachelor,2022.2.4,60.221117235371175,
,,,,,,,,,,,,1,0,1,0,177,0,177,0,,,,,,,177,,,0.2,19647.46223541227,X,d,go,d,1,0.3285691555356607,,,,,,,,,,,,,,,,,,18,001,,,,2023-01-16_14h01.45.911,00_bat_bachelor,2022.2.4,60.221117235371175,
,,,,,,,,,,,,1,0,1,0,178,0,178,0,,,,,,,178,,,0.2,19648.096131347353,X,None,nogo,None,1,,,,,,,,,,,,,,,,,,,18,001,,,,2023-01-16_14h01.45.911,00_bat_bachelor,2022.2.4,60.221117235371175,
,,,,,,,,,,,,1,0,1,0,179,0,179,0,,,,,,,179,,,0.2,19649.096637044102,Y,l,go,l,1,0.34180745214689523,,,,,,,,,,,,,,,,,,18,001,,,,2023-01-16_14h01.45.911,00_bat_bachelor,2022.2.4,60.221117235371175,
,,,,,,,,,,,,1,0,1,0,180,0,180,0,,,,,,,180,,,0.2,19649.74714921351,X,d,go,d,1,0.5386107506928965,,,,,,,,,,,,,,,,,,18,001,,,,2023-01-16_14h01.45.911,00_bat_bachelor,2022.2.4,60.221117235371175,
,,,,,,,,,,,,1,0,1,0,181,0,181,0,,,,,,,181,,,0.2,19650.598007952503,Y,l,go,l,1,0.39296282129362226,,,,,,,,,,,,,,,,,,18,001,,,,2023-01-16_14h01.45.911,00_bat_bachelor,2022.2.4,60.221117235371175,
,,,,,,,,,,,,1,0,1,0,182,0,182,0,,,,,,,182,,,0.2,19651.2983440978,X,d,go,d,1,0.44519503839546815,,,,,,,,,,,,,,,,,,18,001,,,,2023-01-16_14h01.45.911,00_bat_bachelor,2022.2.4,60.221117235371175,
,,,,,,,,,,,,1,0,1,0,183,0,183,0,,,,,,,183,,,0.2,19652.04906615807,X,None,nogo,None,1,,19652.849562254793,,,,,,,,,,,,,,,,,18,001,,,,2023-01-16_14h01.45.911,00_bat_bachelor,2022.2.4,60.221117235371175,
,,,,,,,,,,,,1,0,1,0,184,0,184,0,,,,,,,184,,,0.2,19653.049869066745,Y,l,go,l,1,0.6287677978980355,,,,,,,,,,,,,,,,,,18,001,,,,2023-01-16_14h01.45.911,00_bat_bachelor,2022.2.4,60.221117235371175,
,,,,,,,,,,,,1,0,1,0,185,0,185,0,,,,,,,185,,,0.2,19653.98366885644,X,d,go,d,1,0.3825846444815397,,,,,,,,,,,,,,,,,,18,001,,,,2023-01-16_14h01.45.911,00_bat_bachelor,2022.2.4,60.221117235371175,
,,,,,,,,,,,,1,0,1,0,186,0,186,0,,,,,,,186,,,0.2,19654.667528403632,Y,l,go,l,1,0.3222981282742694,,,,,,,,,,,,,,,,,,18,001,,,,2023-01-16_14h01.45.911,00_bat_bachelor,2022.2.4,60.221117235371175,
,,,,,,,,,,,,1,0,1,0,187,0,187,0,,,,,,,187,,,0.2,19655.301356944838,X,d,go,d,1,0.5361491761286743,,,,,,,,,,,,,,,,,,18,001,,,,2023-01-16_14h01.45.911,00_bat_bachelor,2022.2.4,60.221117235371175,
,,,,,,,,,,,,1,0,1,0,188,0,188,0,,,,,,,188,,,0.2,19656.152239441348,X,None,nogo,l,0,0.3896013683988713,,,,,,,,,,,,,,,,,,18,001,,,,2023-01-16_14h01.45.911,00_bat_bachelor,2022.2.4,60.221117235371175,
,,,,,,,,,,,,1,0,1,0,189,0,189,0,,,,,,,189,,,0.2,19656.852759344154,Y,l,go,None,0,,,,,,,,,,,,,,,,,,,18,001,,,,2023-01-16_14h01.45.911,00_bat_bachelor,2022.2.4,60.221117235371175,
,,,,,,,,,,,,1,0,1,0,190,0,190,0,,,,,,,190,,,0.2,19657.85343231354,X,d,go,None,0,,,,,,,,,,,,,,,,,,,18,001,,,,2023-01-16_14h01.45.911,00_bat_bachelor,2022.2.4,60.221117235371175,
,,,,,,,,,,,,1,0,1,0,191,0,191,0,,,,,,,191,,,0.2,19658.854217282846,X,None,nogo,d,0,0.34479848097544163,,,,,,,,,,,,,,,,,,18,001,,,,2023-01-16_14h01.45.911,00_bat_bachelor,2022.2.4,60.221117235371175,
,,,,,,,,,,,,1,0,1,0,192,0,192,0,,,,,,,192,,,0.2,19659.50471733109,Y,l,go,None,0,,19660.305429185275,,,,,,,,,,,,,,,,,18,001,,,,2023-01-16_14h01.45.911,00_bat_bachelor,2022.2.4,60.221117235371175,
,,,,,,,,,,,,1,0,1,0,193,0,193,0,,,,,,,193,,,0.2,19660.50552702765,X,d,go,None,0,,19661.306115245563,,,,,,,,,,,,,,,,,18,001,,,,2023-01-16_14h01.45.911,00_bat_bachelor,2022.2.4,60.221117235371175,
,,,,,,,,,,,,1,0,1,0,194,0,194,0,,,,,,,194,,,0.2,19661.50606472435,Y,l,go,None,0,,,,,,,,,,,,,,,,,,,18,001,,,,2023-01-16_14h01.45.911,00_bat_bachelor,2022.2.4,60.221117235371175,
,,,,,,,,,,,,1,0,1,0,195,0,195,0,,,,,,,195,,,0.2,19662.506880239118,X,d,go,None,0,,19663.307661426603,,,,,,,,,,,,,,,,,18,001,,,,2023-01-16_14h01.45.911,00_bat_bachelor,2022.2.4,60.221117235371175,
,,,,,,,,,,,,1,0,1,0,196,0,196,0,,,,,,,196,,,0.2,19663.50781017804,X,None,nogo,None,1,,19664.308206880873,,,,,,,,,,,,,,,,,18,001,,,,2023-01-16_14h01.45.911,00_bat_bachelor,2022.2.4,60.221117235371175,
,,,,,,,,,,,,1,0,1,0,197,0,197,0,,,,,,,197,,,0.2,19664.508615026134,Y,l,go,l,1,0.30701619625324383,,,,,,,,,,,,,,,,,,18,001,,,,2023-01-16_14h01.45.911,00_bat_bachelor,2022.2.4,60.221117235371175,
,,,,,,,,,,,,1,0,1,0,198,0,198,0,,,,,,,198,,,0.2,19665.12571678759,X,d,go,d,1,0.6487193033099174,,,,,,,,,,,,,,,,,,18,001,,,,2023-01-16_14h01.45.911,00_bat_bachelor,2022.2.4,60.221117235371175,
,,,,,,,,,,,,1,0,1,0,199,0,199,0,,,,,,,199,,,0.2,19666.07646978111,Y,l,go,None,0,,19666.87688296882,,,,,,,,,,,,,,,,,18,001,,,,2023-01-16_14h01.45.911,00_bat_bachelor,2022.2.4,60.221117235371175,
,,,,,,,,,,,,1,0,1,0,200,0,200,0,,,,,,,200,,,0.2,19667.076993417228,X,d,go,l,0,0.07263618876459077,,,,,,,,,,,,,,,,,,18,001,,,,2023-01-16_14h01.45.911,00_bat_bachelor,2022.2.4,60.221117235371175,
,,,,,,,,,,,,1,0,1,0,201,0,201,0,,,,,,,201,,,0.2,19667.460846322065,Y,l,go,None,0,,,,,,,,,,,,,,,,,,,18,001,,,,2023-01-16_14h01.45.911,00_bat_bachelor,2022.2.4,60.221117235371175,
,,,,,,,,,,,,1,0,1,0,202,0,202,0,,,,,,,202,,,0.2,19668.461582321674,Y,None,nogo,d,0,0.2407801072113216,,,,,,,,,,,,,,,,,,18,001,,,,2023-01-16_14h01.45.911,00_bat_bachelor,2022.2.4,60.221117235371175,
,,,,,,,,,,,,1,0,1,0,203,0,203,0,,,,,,,203,,,0.2,19669.011795873113,X,d,go,None,0,,19669.812652212102,,,,,,,,,,,,,,,,,18,001,,,,2023-01-16_14h01.45.911,00_bat_bachelor,2022.2.4,60.221117235371175,
,,,,,,,,,,,,1,0,1,0,204,0,204,0,,,,,,,204,,,0.2,19670.01279320597,Y,l,go,l,1,0.36892792384605855,,,,,,,,,,,,,,,,,,18,001,,,,2023-01-16_14h01.45.911,00_bat_bachelor,2022.2.4,60.221117235371175,
,,,,,,,,,,,,1,0,1,0,205,0,205,0,,,,,,,205,,,0.2,19670.69659941987,X,d,go,d,1,0.43778316321549937,,,,,,,,,,,,,,,,,,18,001,,,,2023-01-16_14h01.45.911,00_bat_bachelor,2022.2.4,60.221117235371175,
,,,,,,,,,,,,1,0,1,0,206,0,206,0,,,,,,,206,,,0.2,19671.447207540798,X,None,nogo,l,0,0.45531285170000046,,,,,,,,,,,,,,,,,,18,001,,,,2023-01-16_14h01.45.911,00_bat_bachelor,2022.2.4,60.221117235371175,
,,,,,,,,,,,,1,0,1,0,207,0,207,0,,,,,,,207,,,0.2,19672.21424038103,Y,l,go,None,0,,,,,,,,,,,,,,,,,,,18,001,,,,2023-01-16_14h01.45.911,00_bat_bachelor,2022.2.4,60.221117235371175,
,,,,,,,,,,,,1,0,1,0,208,0,208,0,,,,,,,208,,,0.2,19673.215026804886,X,d,go,d,1,0.46338605985511094,,,,,,,,,,,,,,,,,,18,001,,,,2023-01-16_14h01.45.911,00_bat_bachelor,2022.2.4,60.221117235371175,
,,,,,,,,,,,,1,0,1,0,209,0,209,0,,,,,,,209,,,0.2,19673.98243685701,X,None,nogo,None,1,,19674.78311283246,,,,,,,,,,,,,,,,,18,001,,,,2023-01-16_14h01.45.911,00_bat_bachelor,2022.2.4,60.221117235371175,
,,,,,,,,,,,,1,0,1,0,210,0,210,0,,,,,,,210,,,0.2,19674.983182068798,Y,l,go,d,0,0.040023356035817415,,,,,,,,,,,,,,,,,,18,001,,,,2023-01-16_14h01.45.911,00_bat_bachelor,2022.2.4,60.221117235371175,
,,,,,,,,,,,,1,0,1,0,211,0,211,0,,,,,,,211,,,0.2,19675.333483959548,X,d,go,None,0,,19676.134083328943,,,,,,,,,,,,,,,,,18,001,,,,2023-01-16_14h01.45.911,00_bat_bachelor,2022.2.4,60.221117235371175,
,,,,,,,,,,,,1,0,1,0,212,0,212,0,,,,,,,212,,,0.2,19676.334037656256,X,None,nogo,None,1,,19677.134682116564,,,,,,,,,,,,,,,,,18,001,,,,2023-01-16_14h01.45.911,00_bat_bachelor,2022.2.4,60.221117235371175,
,,,,,,,,,,,,1,0,1,0,213,0,213,0,,,,,,,213,,,0.2,19677.334965170943,Y,l,go,None,0,,19678.135410358605,,,,,,,,,,,,,,,,,18,001,,,,2023-01-16_14h01.45.911,00_bat_bachelor,2022.2.4,60.221117235371175,
,,,,,,,,,,,,1,0,1,0,214,0,214,0,,,,,,,214,,,0.2,19678.335764200892,X,d,go,d,1,0.5107630065758713,,,,,,,,,,,,,,,,,,18,001,,,,2023-01-16_14h01.45.911,00_bat_bachelor,2022.2.4,60.221117235371175,
,,,,,,,,,,,,1,0,1,0,215,0,215,0,,,,,,,215,,,0.2,19679.153027319757,X,None,nogo,None,1,,19679.953486083192,,,,,,,,,,,,,,,,,18,001,,,,2023-01-16_14h01.45.911,00_bat_bachelor,2022.2.4,60.221117235371175,
,,,,,,,,,,,,1,0,1,0,216,0,216,0,,,,,,,216,,,0.2,19680.153832167853,Y,l,go,l,1,0.5812643057433888,,,,,,,,,,,,,,,,,,18,001,,,,2023-01-16_14h01.45.911,00_bat_bachelor,2022.2.4,60.221117235371175,
,,,,,,,,,,,,1,0,1,0,217,0,217,0,,,,,,,217,,,0.2,19681.037613072724,X,d,go,d,1,0.36827192414784804,,,,,,,,,,,,,,,,,,18,001,,,,2023-01-16_14h01.45.911,00_bat_bachelor,2022.2.4,60.221117235371175,
,,,,,,,,,,,,1,0,1,0,218,0,218,0,,,,,,,218,,,0.2,19681.72166025621,Y,l,go,l,1,0.45267479232279584,,,,,,,,,,,,,,,,,,18,001,,,,2023-01-16_14h01.45.911,00_bat_bachelor,2022.2.4,60.221117235371175,
,,,,,,,,,,,,1,0,1,0,219,0,219,0,,,,,,,219,,,0.2,19682.48895249021,X,d,go,None,0,,19683.28969198081,,,,,,,,,,,,,,,,,18,001,,,,2023-01-16_14h01.45.911,00_bat_bachelor,2022.2.4,60.221117235371175,
,,,,,,,,,,,,1,0,1,0,220,0,220,0,,,,,,,220,,,0.2,19683.48973212624,Y,l,go,l,1,0.6206654987763613,,,,,,,,,,,,,,,,,,18,001,,,,2023-01-16_14h01.45.911,00_bat_bachelor,2022.2.4,60.221117235371175,
,,,,,,,,,,,,1,0,1,0,221,0,221,0,,,,,,,221,,,0.2,19684.423743794556,X,d,go,d,1,0.566386737220455,,,,,,,,,,,,,,,,,,18,001,,,,2023-01-16_14h01.45.911,00_bat_bachelor,2022.2.4,60.221117235371175,
,,,,,,,,,,,,1,0,1,0,222,0,222,0,,,,,,,222,,,0.2,19685.291128101293,Y,l,go,l,1,0.6115236849873327,,,,,,,,,,,,,,,,,,18,001,,,,2023-01-16_14h01.45.911,00_bat_bachelor,2022.2.4,60.221117235371175,
,,,,,,,,,,,,1,0,1,0,223,0,223,0,,,,,,,223,,,0.2,19686.208451777755,X,d,go,d,1,0.39851966709829867,,,,,,,,,,,,,,,,,,18,001,,,,2023-01-16_14h01.45.911,00_bat_bachelor,2022.2.4,60.221117235371175,
,,,,,,,,,,,,1,0,1,0,224,0,224,0,,,,,,,224,,,0.2,19686.908833013906,Y,l,go,l,1,0.4651814529206604,,,,,,,,,,,,,,,,,,18,001,,,,2023-01-16_14h01.45.911,00_bat_bachelor,2022.2.4,60.221117235371175,
,,,,,,,,,,,,1,0,1,0,225,0,225,0,,,,,,,225,,,0.2,19687.67628476303,Y,None,nogo,d,0,0.515128095401451,,,,,,,,,,,,,,,,,,18,001,,,,2023-01-16_14h01.45.911,00_bat_bachelor,2022.2.4,60.221117235371175,
,,,,,,,,,,,,1,0,1,0,226,0,226,0,,,,,,,226,,,0.2,19688.49332194269,X,d,go,None,0,,19689.29412785743,,,,,,,,,,,,,,,,,18,001,,,,2023-01-16_14h01.45.911,00_bat_bachelor,2022.2.4,60.221117235371175,
,,,,,,,,,,,,1,0,1,0,227,0,227,0,,,,,,,227,,,0.2,19689.494255760394,Y,l,go,None,0,,19690.29485803889,,,,,,,,,,,,,,,,,18,001,,,,2023-01-16_14h01.45.911,00_bat_bachelor,2022.2.4,60.221117235371175,
,,,,,,,,,,,,1,0,1,0,228,0,228,0,,,,,,,228,,,0.2,19690.494905941887,X,d,go,None,0,,19691.295659493015,,,,,,,,,,,,,,,,,18,001,,,,2023-01-16_14h01.45.911,00_bat_bachelor,2022.2.4,60.221117235371175,
