loop_instruction.thisRepN,loop_instruction.thisTrialN,loop_instruction.thisN,loop_instruction.thisIndex,loop_rsi_practice.thisRepN,loop_rsi_practice.thisTrialN,loop_rsi_practice.thisN,loop_rsi_practice.thisIndex,loop_practice.thisRepN,loop_practice.thisTrialN,loop_practice.thisN,loop_practice.thisIndex,loop_exp.thisRepN,loop_exp.thisTrialN,loop_exp.thisN,loop_exp.thisIndex,loop_trials.thisRepN,loop_trials.thisTrialN,loop_trials.thisN,loop_trials.thisIndex,map_condition,map_x_key,map_y_key,key_resp_welcome.started,key_resp_welcome.keys,key_resp_welcome.rt,index,text_empty_rsi_practice.started,text_empty_rsi_practice.stopped,rsi,stimulus.started,stimulus.stopped,stimulus,correct,trial_type,key_resp_trial.keys,key_resp_trial.corr,key_resp_trial.rt,key_resp_instruction_rsi.started,key_resp_instruction_rsi.keys,key_resp_instruction_rsi.rt,key_resp_instruction_rsi.stopped,key_resp_instruction_final.started,key_resp_instruction_final.keys,key_resp_instruction_final.rt,key_resp_break.started,key_resp_break.keys,key_resp_break.rt,key_resp_break.stopped,key_resp_end_screen.started,image_end_screen.started,key_resp_end_screen.keys,key_resp_end_screen.rt,participant,session,Alter,Geschlecht (w/m/d/andere),Studiengang,date,expName,psychopyVersion,frameRate,
,,,,0,0,0,0,0,0,0,0,,,,,,,,,1,l,d,63977.662632890846,j,7.435059547515266,0,63985.12731387766,63986.14112041642,1,63986.14112041642,63986.9410371195,X,l,go,None,0,,,,,,,,,,,,,,,,,23,001,28,m,Psychologie,2023-01-17_09h05.00.722,00_bat_bachelor,2022.2.4,60.09583277331715,
,,,,0,0,0,0,1,0,1,0,,,,,,,,,,,,,,,1,63987.54123610121,63988.54102373768,1,63988.54102373768,63989.340812440816,Y,d,go,None,0,,,,,,,,,,,,,,,,,23,001,28,m,Psychologie,2023-01-17_09h05.00.722,00_bat_bachelor,2022.2.4,60.09583277331715,
,,,,0,0,0,0,2,0,2,0,,,,,,,,,,,,,,,2,63989.941010452836,63990.94079614991,1,63990.94079614991,,X,l,go,d,0,0.45704838533492875,,,,,,,,,,,,,,,,23,001,28,m,Psychologie,2023-01-17_09h05.00.722,00_bat_bachelor,2022.2.4,60.09583277331715,
,,,,0,0,0,0,3,0,3,0,,,,,,,,,,,,,,,3,63992.10762952357,63993.10767073567,1,63993.10767073567,,X,None,nogo,l,0,0.19564342117882916,,,,,,,,,,,,,,,,23,001,28,m,Psychologie,2023-01-17_09h05.00.722,00_bat_bachelor,2022.2.4,60.09583277331715,
,,,,0,0,0,0,4,0,4,0,,,,,,,,,,,,,,,4,63994.407669620516,63995.40766525689,1,63995.40766525689,63996.20739044489,Y,d,go,None,0,,,,,,,,,,,,,,,,,23,001,28,m,Psychologie,2023-01-17_09h05.00.722,00_bat_bachelor,2022.2.4,60.09583277331715,
,,,,0,0,0,0,5,0,5,0,,,,,,,,,,,,,,,5,63996.80750021455,63997.80744736608,1,63997.80744736608,,X,l,go,l,1,0.5668117260538565,,,,,,,,,,,,,,,,23,001,28,m,Psychologie,2023-01-17_09h05.00.722,00_bat_bachelor,2022.2.4,60.09583277331715,
,,,,0,0,0,0,6,0,6,0,,,,,,,,,,,,,,,6,63999.074036812584,64000.07497256971,1,64000.07497256971,,X,None,nogo,l,0,0.37909060494348523,,,,,,,,,,,,,,,,23,001,28,m,Psychologie,2023-01-17_09h05.00.722,00_bat_bachelor,2022.2.4,60.09583277331715,
,,,,0,0,0,0,7,0,7,0,,,,,,,,,,,,,,,7,64001.59116480428,64002.59123607697,1,64002.59123607697,,Y,d,go,d,1,0.4231797956927039,,,,,,,,,,,,,,,,23,001,28,m,Psychologie,2023-01-17_09h05.00.722,00_bat_bachelor,2022.2.4,60.09583277331715,
,,,,0,0,0,0,8,0,8,0,,,,,,,,,,,,,,,8,64003.72437540635,64004.72456401233,1,64004.72456401233,,X,l,go,l,1,0.35370346573836287,,,,,,,,,,,,,,,,23,001,28,m,Psychologie,2023-01-17_09h05.00.722,00_bat_bachelor,2022.2.4,60.09583277331715,
,,,,0,0,0,0,9,0,9,0,,,,,,,,,,,,,,,9,64005.79124422242,64006.79129852542,1,64006.79129852542,,Y,d,go,d,1,0.41462901195700397,,,,,,,,,,,,,,,,23,001,28,m,Psychologie,2023-01-17_09h05.00.722,00_bat_bachelor,2022.2.4,60.09583277331715,
,,,,0,0,0,0,10,0,10,0,,,,,,,,,,,,,,,10,64007.90787980224,64008.90785846891,1,64008.90785846891,,X,l,go,l,1,0.3787982414542057,,,,,,,,,,,,,,,,23,001,28,m,Psychologie,2023-01-17_09h05.00.722,00_bat_bachelor,2022.2.4,60.09583277331715,
,,,,0,0,0,0,11,0,11,0,,,,,,,,,,,,,,,11,64009.99123976182,64010.99121358001,1,64010.99121358001,,X,None,nogo,l,0,0.5028093328473915,,,,,,,,,,,,,,,,23,001,28,m,Psychologie,2023-01-17_09h05.00.722,00_bat_bachelor,2022.2.4,60.09583277331715,
,,,,0,0,0,0,12,0,12,0,,,,,,,,,,,,,,,12,64012.607667099306,64013.60739025095,1,64013.60739025095,,Y,d,go,d,1,0.44752063237319817,,,,,,,,,,,,,,,,23,001,28,m,Psychologie,2023-01-17_09h05.00.722,00_bat_bachelor,2022.2.4,60.09583277331715,
,,,,0,0,0,0,13,0,13,0,,,,,,,,,,,,,,,13,64014.757646662954,64015.75769951142,1,64015.75769951142,,X,l,go,l,1,0.360787583518686,,,,,,,,,,,,,,,,23,001,28,m,Psychologie,2023-01-17_09h05.00.722,00_bat_bachelor,2022.2.4,60.09583277331715,
,,,,0,0,0,0,14,0,14,0,,,,,,,,,,,,,,,14,64016.824040812586,64017.82433075184,1,64017.82433075184,,Y,d,go,d,1,0.4070324095846445,,,,,,,,,,,,,,,,23,001,28,m,Psychologie,2023-01-17_09h05.00.722,00_bat_bachelor,2022.2.4,60.09583277331715,
,,,,1,0,1,0,0,0,0,0,,,,,,,,,,,,,,,0,64025.75747066304,64025.957668869,0.2,64025.957668869,,X,l,go,l,1,0.4813528584090818,64018.95173432643,j,6.7865037407500495,,,,,,,,,,,,,23,001,28,m,Psychologie,2023-01-17_09h05.00.722,00_bat_bachelor,2022.2.4,60.09583277331715,
,,,,1,0,1,0,1,0,1,0,,,,,,,,,,,,,,,1,64027.140966719526,64027.340618016664,0.2,64027.340618016664,,Y,d,go,d,1,0.3944544762962323,,,,,,,,,,,,,,,,23,001,28,m,Psychologie,2023-01-17_09h05.00.722,00_bat_bachelor,2022.2.4,60.09583277331715,
,,,,1,0,1,0,2,0,2,0,,,,,,,,,,,,,,,2,64028.44065772573,64028.6408016287,0.2,64028.6408016287,,X,l,go,d,0,0.42201325080895913,,,,,,,,,,,,,,,,23,001,28,m,Psychologie,2023-01-17_09h05.00.722,00_bat_bachelor,2022.2.4,60.09583277331715,
,,,,1,0,1,0,3,0,3,0,,,,,,,,,,,,,,,3,64029.77431913972,64029.97432486093,0.2,64029.97432486093,64030.774028230764,X,None,nogo,None,1,,,,,,,,,,,,,,,,,23,001,28,m,Psychologie,2023-01-17_09h05.00.722,00_bat_bachelor,2022.2.4,60.09583277331715,
,,,,1,0,1,0,4,0,4,0,,,,,,,,,,,,,,,4,64031.37434163668,64031.57431923669,0.2,64031.57431923669,,Y,d,go,d,1,0.561406152908603,,,,,,,,,,,,,,,,23,001,28,m,Psychologie,2023-01-17_09h05.00.722,00_bat_bachelor,2022.2.4,60.09583277331715,
,,,,1,0,1,0,5,0,5,0,,,,,,,,,,,,,,,5,64032.840984319526,64033.040925071065,0.2,64033.040925071065,,X,l,go,l,1,0.43756281902096816,,,,,,,,,,,,,,,,23,001,28,m,Psychologie,2023-01-17_09h05.00.722,00_bat_bachelor,2022.2.4,60.09583277331715,
,,,,1,0,1,0,6,0,6,0,,,,,,,,,,,,,,,6,64034.190982695276,64034.39098211346,0.2,64034.39098211346,,Y,d,go,d,1,0.43146391288973973,,,,,,,,,,,,,,,,23,001,28,m,Psychologie,2023-01-17_09h05.00.722,00_bat_bachelor,2022.2.4,60.09583277331715,
,,,,1,0,1,0,7,0,7,0,,,,,,,,,,,,,,,7,64035.52443513967,64035.724321588204,0.2,64035.724321588204,,X,l,go,l,1,0.426795309092995,,,,,,,,,,,,,,,,23,001,28,m,Psychologie,2023-01-17_09h05.00.722,00_bat_bachelor,2022.2.4,60.09583277331715,
,,,,1,0,1,0,8,0,8,0,,,,,,,,,,,,,,,8,64036.85766600841,64037.05764797205,0.2,64037.05764797205,64037.85771643261,X,None,nogo,None,1,,,,,,,,,,,,,,,,,23,001,28,m,Psychologie,2023-01-17_09h05.00.722,00_bat_bachelor,2022.2.4,60.09583277331715,
,,,,1,0,1,0,9,0,9,0,,,,,,,,,,,,,,,9,64038.45763759629,64038.657646711436,0.2,64038.657646711436,,Y,d,go,d,1,0.38920066066566505,,,,,,,,,,,,,,,,23,001,28,m,Psychologie,2023-01-17_09h05.00.722,00_bat_bachelor,2022.2.4,60.09583277331715,
,,,,1,0,1,0,10,0,10,0,,,,,,,,,,,,,,,10,64039.75764957204,64039.95760826298,0.2,64039.95760826298,,X,l,go,l,1,0.5296185319639335,,,,,,,,,,,,,,,,23,001,28,m,Psychologie,2023-01-17_09h05.00.722,00_bat_bachelor,2022.2.4,60.09583277331715,
,,,,1,0,1,0,11,0,11,0,,,,,,,,,,,,,,,11,64041.190748998415,64041.390987931634,0.2,64041.390987931634,,Y,d,go,d,1,0.4557940829145082,,,,,,,,,,,,,,,,23,001,28,m,Psychologie,2023-01-17_09h05.00.722,00_bat_bachelor,2022.2.4,60.09583277331715,
,,,,1,0,1,0,12,0,12,0,,,,,,,,,,,,,,,12,64042.557412093374,64042.75761514781,0.2,64042.75761514781,64043.55763318417,Y,None,nogo,None,1,,,,,,,,,,,,,,,,,23,001,28,m,Psychologie,2023-01-17_09h05.00.722,00_bat_bachelor,2022.2.4,60.09583277331715,
,,,,1,0,1,0,13,0,13,0,,,,,,,,,,,,,,,13,64044.157726468984,64044.357642493254,0.2,64044.357642493254,,X,l,go,l,1,0.28798955820457195,,,,,,,,,,,,,,,,23,001,28,m,Psychologie,2023-01-17_09h05.00.722,00_bat_bachelor,2022.2.4,60.09583277331715,
,,,,1,0,1,0,14,0,14,0,,,,,,,,,,,,,,,14,64045.35747764485,64045.557828093166,0.2,64045.557828093166,,Y,d,go,d,1,0.35252286025570356,,,,,,,,,,,,,,,,23,001,28,m,Psychologie,2023-01-17_09h05.00.722,00_bat_bachelor,2022.2.4,60.09583277331715,
,,,,,,,,,,,,,,,,,,,,,,,,,,,,,,,,,,,,,,64046.656575196816,None,,64046.656575196816,64046.656575196816,space,3.1918669381593645,,,,,,,,,23,001,28,m,Psychologie,2023-01-17_09h05.00.722,00_bat_bachelor,2022.2.4,60.09583277331715,
,,,,,,,,,,,,0,0,0,0,0,0,0,0,,,,,,,0,,,1,64050.874121273155,,X,l,go,l,1,0.315677302354743,,,,,,,,,,,,,,,,23,001,28,m,Psychologie,2023-01-17_09h05.00.722,00_bat_bachelor,2022.2.4,60.09583277331715,
,,,,,,,,,,,,0,0,0,0,1,0,1,0,,,,,,,1,,,1,64052.29072664691,,Y,d,go,d,1,0.35562346480219276,,,,,,,,,,,,,,,,23,001,28,m,Psychologie,2023-01-17_09h05.00.722,00_bat_bachelor,2022.2.4,60.09583277331715,
,,,,,,,,,,,,0,0,0,0,2,0,2,0,,,,,,,2,,,1,64053.75745805699,,X,l,go,l,1,0.2968453114917793,,,,,,,,,,,,,,,,23,001,28,m,Psychologie,2023-01-17_09h05.00.722,00_bat_bachelor,2022.2.4,60.09583277331715,
,,,,,,,,,,,,0,0,0,0,3,0,3,0,,,,,,,3,,,1,64055.157595559955,,Y,d,go,d,1,0.28820677021940355,,,,,,,,,,,,,,,,23,001,28,m,Psychologie,2023-01-17_09h05.00.722,00_bat_bachelor,2022.2.4,60.09583277331715,
,,,,,,,,,,,,0,0,0,0,4,0,4,0,,,,,,,4,,,1,64056.55763415387,64057.357419463064,Y,None,nogo,None,1,,,,,,,,,,,,,,,,,23,001,28,m,Psychologie,2023-01-17_09h05.00.722,00_bat_bachelor,2022.2.4,60.09583277331715,
,,,,,,,,,,,,0,0,0,0,5,0,5,0,,,,,,,5,,,1,64058.357634250846,64059.15742731761,Y,None,nogo,None,1,,,,,,,,,,,,,,,,,23,001,28,m,Psychologie,2023-01-17_09h05.00.722,00_bat_bachelor,2022.2.4,60.09583277331715,
,,,,,,,,,,,,0,0,0,0,6,0,6,0,,,,,,,6,,,1,64060.15741956004,,X,l,go,l,1,0.2648298118620005,,,,,,,,,,,,,,,,23,001,28,m,Psychologie,2023-01-17_09h05.00.722,00_bat_bachelor,2022.2.4,60.09583277331715,
,,,,,,,,,,,,0,0,0,0,7,0,7,0,,,,,,,7,,,1,64061.52429162458,,Y,d,go,d,1,0.5296781683027803,,,,,,,,,,,,,,,,23,001,28,m,Psychologie,2023-01-17_09h05.00.722,00_bat_bachelor,2022.2.4,60.09583277331715,
,,,,,,,,,,,,0,0,0,0,8,0,8,0,,,,,,,8,,,1,64063.15759992358,,X,l,go,l,1,0.35230564824087196,,,,,,,,,,,,,,,,23,001,28,m,Psychologie,2023-01-17_09h05.00.722,00_bat_bachelor,2022.2.4,60.09583277331715,
,,,,,,,,,,,,0,0,0,0,9,0,9,0,,,,,,,9,,,1,64064.62429303065,,Y,d,go,d,1,0.3751759401820891,,,,,,,,,,,,,,,,23,001,28,m,Psychologie,2023-01-17_09h05.00.722,00_bat_bachelor,2022.2.4,60.09583277331715,
,,,,,,,,,,,,0,0,0,0,10,0,10,0,,,,,,,10,,,1,64066.10776673563,,X,l,go,l,1,0.331401900799392,,,,,,,,,,,,,,,,23,001,28,m,Psychologie,2023-01-17_09h05.00.722,00_bat_bachelor,2022.2.4,60.09583277331715,
,,,,,,,,,,,,0,0,0,0,11,0,11,0,,,,,,,11,,,1,64067.54096070741,,Y,d,go,d,1,0.32120020877118804,,,,,,,,,,,,,,,,23,001,28,m,Psychologie,2023-01-17_09h05.00.722,00_bat_bachelor,2022.2.4,60.09583277331715,
,,,,,,,,,,,,0,0,0,0,12,0,12,0,,,,,,,12,,,1,64068.97429577004,64069.77440010938,Y,None,nogo,None,1,,,,,,,,,,,,,,,,,23,001,28,m,Psychologie,2023-01-17_09h05.00.722,00_bat_bachelor,2022.2.4,60.09583277331715,
,,,,,,,,,,,,0,0,0,0,13,0,13,0,,,,,,,13,,,1,64070.77407768529,,X,l,go,l,1,0.36806273150796187,,,,,,,,,,,,,,,,23,001,28,m,Psychologie,2023-01-17_09h05.00.722,00_bat_bachelor,2022.2.4,60.09583277331715,
,,,,,,,,,,,,0,0,0,0,14,0,14,0,,,,,,,14,,,1,64072.25762993569,,Y,d,go,d,1,0.30852482097179745,,,,,,,,,,,,,,,,23,001,28,m,Psychologie,2023-01-17_09h05.00.722,00_bat_bachelor,2022.2.4,60.09583277331715,
,,,,,,,,,,,,0,0,0,0,15,0,15,0,,,,,,,15,,,1,64073.67403797622,64074.47404873985,Y,None,nogo,None,1,,,,,,,,,,,,,,,,,23,001,28,m,Psychologie,2023-01-17_09h05.00.722,00_bat_bachelor,2022.2.4,60.09583277331715,
,,,,,,,,,,,,0,0,0,0,16,0,16,0,,,,,,,16,,,1,64075.47406473984,,X,l,go,l,1,0.19654572375657153,,,,,,,,,,,,,,,,23,001,28,m,Psychologie,2023-01-17_09h05.00.722,00_bat_bachelor,2022.2.4,60.09583277331715,
,,,,,,,,,,,,0,0,0,0,17,0,17,0,,,,,,,17,,,1,64076.773923988396,,Y,d,go,d,1,0.3196215428652067,,,,,,,,,,,,,,,,23,001,28,m,Psychologie,2023-01-17_09h05.00.722,00_bat_bachelor,2022.2.4,60.09583277331715,
,,,,,,,,,,,,0,0,0,0,18,0,18,0,,,,,,,18,,,1,64078.22441540634,64079.024153685255,Y,None,nogo,None,1,,,,,,,,,,,,,,,,,23,001,28,m,Psychologie,2023-01-17_09h05.00.722,00_bat_bachelor,2022.2.4,60.09583277331715,
,,,,,,,,,,,,0,0,0,0,19,0,19,0,,,,,,,19,,,1,64080.024278291254,,X,l,go,l,1,0.2383716428776097,,,,,,,,,,,,,,,,23,001,28,m,Psychologie,2023-01-17_09h05.00.722,00_bat_bachelor,2022.2.4,60.09583277331715,
,,,,,,,,,,,,0,0,0,0,20,0,20,0,,,,,,,20,,,1,64081.37397751564,,Y,d,go,d,1,0.3438198341791576,,,,,,,,,,,,,,,,23,001,28,m,Psychologie,2023-01-17_09h05.00.722,00_bat_bachelor,2022.2.4,60.09583277331715,
,,,,,,,,,,,,0,0,0,0,21,0,21,0,,,,,,,21,,,1,64082.82428323671,,X,l,go,l,1,0.3658586113633646,,,,,,,,,,,,,,,,23,001,28,m,Psychologie,2023-01-17_09h05.00.722,00_bat_bachelor,2022.2.4,60.09583277331715,
,,,,,,,,,,,,0,0,0,0,22,0,22,0,,,,,,,22,,,1,64084.29090846502,,Y,d,go,d,1,0.35529328314078157,,,,,,,,,,,,,,,,23,001,28,m,Psychologie,2023-01-17_09h05.00.722,00_bat_bachelor,2022.2.4,60.09583277331715,
,,,,,,,,,,,,0,0,0,0,23,0,23,0,,,,,,,23,,,1,64085.757611753885,64086.557625426605,Y,None,nogo,None,1,,,,,,,,,,,,,,,,,23,001,28,m,Psychologie,2023-01-17_09h05.00.722,00_bat_bachelor,2022.2.4,60.09583277331715,
,,,,,,,,,,,,0,0,0,0,24,0,24,0,,,,,,,24,,,1,64087.5574193661,,X,l,go,l,1,0.28939125450051506,,,,,,,,,,,,,,,,23,001,28,m,Psychologie,2023-01-17_09h05.00.722,00_bat_bachelor,2022.2.4,60.09583277331715,
,,,,,,,,,,,,0,0,0,0,25,0,25,0,,,,,,,25,,,1,64088.95779783864,,Y,d,go,d,1,0.47301686244099983,,,,,,,,,,,,,,,,23,001,28,m,Psychologie,2023-01-17_09h05.00.722,00_bat_bachelor,2022.2.4,60.09583277331715,
,,,,,,,,,,,,0,0,0,0,26,0,26,0,,,,,,,26,,,1,64090.540920465006,64091.34092638016,Y,None,nogo,None,1,,,,,,,,,,,,,,,,,23,001,28,m,Psychologie,2023-01-17_09h05.00.722,00_bat_bachelor,2022.2.4,60.09583277331715,
,,,,,,,,,,,,0,0,0,0,27,0,27,0,,,,,,,27,,,1,64092.34091425895,,X,l,go,l,1,0.2412477626821783,,,,,,,,,,,,,,,,23,001,28,m,Psychologie,2023-01-17_09h05.00.722,00_bat_bachelor,2022.2.4,60.09583277331715,
,,,,,,,,,,,,0,0,0,0,28,0,28,0,,,,,,,28,,,1,64093.6909688771,,Y,d,go,d,1,0.44278414982909453,,,,,,,,,,,,,,,,23,001,28,m,Psychologie,2023-01-17_09h05.00.722,00_bat_bachelor,2022.2.4,60.09583277331715,
,,,,,,,,,,,,0,0,0,0,29,0,29,0,,,,,,,29,,,1,64095.240930307424,,X,l,go,l,1,0.4772626785597822,,,,,,,,,,,,,,,,23,001,28,m,Psychologie,2023-01-17_09h05.00.722,00_bat_bachelor,2022.2.4,60.09583277331715,
,,,,,,,,,,,,0,0,0,0,30,0,30,0,,,,,,,30,,,1,64096.82404129743,,Y,d,go,d,1,0.23771370380200096,,,,,,,,,,,,,,,,23,001,28,m,Psychologie,2023-01-17_09h05.00.722,00_bat_bachelor,2022.2.4,60.09583277331715,
,,,,,,,,,,,,0,0,0,0,31,0,31,0,,,,,,,31,,,1,64098.17431458215,64098.97425649733,Y,None,nogo,None,1,,,,,,,,,,,,,,,,,23,001,28,m,Psychologie,2023-01-17_09h05.00.722,00_bat_bachelor,2022.2.4,60.09583277331715,
,,,,,,,,,,,,0,0,0,0,32,0,32,0,,,,,,,32,,,1,64099.974273467014,,X,l,go,l,1,0.27203029321754,,,,,,,,,,,,,,,,23,001,28,m,Psychologie,2023-01-17_09h05.00.722,00_bat_bachelor,2022.2.4,60.09583277331715,
,,,,,,,,,,,,0,0,0,0,33,0,33,0,,,,,,,33,,,1,64101.35784419013,,Y,d,go,d,1,0.3771279392276483,,,,,,,,,,,,,,,,23,001,28,m,Psychologie,2023-01-17_09h05.00.722,00_bat_bachelor,2022.2.4,60.09583277331715,
,,,,,,,,,,,,0,0,0,0,34,0,34,0,,,,,,,34,,,1,64102.84094116802,,X,l,go,l,1,0.54125585966176,,,,,,,,,,,,,,,,23,001,28,m,Psychologie,2023-01-17_09h05.00.722,00_bat_bachelor,2022.2.4,60.09583277331715,
,,,,,,,,,,,,0,0,0,0,35,0,35,0,,,,,,,35,,,1,64104.49093745893,,Y,d,go,d,1,0.3306445678208547,,,,,,,,,,,,,,,,23,001,28,m,Psychologie,2023-01-17_09h05.00.722,00_bat_bachelor,2022.2.4,60.09583277331715,
,,,,,,,,,,,,0,0,0,0,36,0,36,0,,,,,,,36,,,1,64105.92434573364,,X,l,go,l,1,0.37010297294546035,,,,,,,,,,,,,,,,23,001,28,m,Psychologie,2023-01-17_09h05.00.722,00_bat_bachelor,2022.2.4,60.09583277331715,
,,,,,,,,,,,,0,0,0,0,37,0,37,0,,,,,,,37,,,1,64107.407710347776,,Y,d,go,d,1,0.37564527329595876,,,,,,,,,,,,,,,,23,001,28,m,Psychologie,2023-01-17_09h05.00.722,00_bat_bachelor,2022.2.4,60.09583277331715,
,,,,,,,,,,,,0,0,0,0,38,0,38,0,,,,,,,38,,,1,64108.89092174986,,X,l,go,l,1,0.2671255683126219,,,,,,,,,,,,,,,,23,001,28,m,Psychologie,2023-01-17_09h05.00.722,00_bat_bachelor,2022.2.4,60.09583277331715,
,,,,,,,,,,,,0,0,0,0,39,0,39,0,,,,,,,39,,,1,64110.27426944277,64111.07422105492,X,None,nogo,None,1,,,,,,,,,,,,,,,,,23,001,28,m,Psychologie,2023-01-17_09h05.00.722,00_bat_bachelor,2022.2.4,60.09583277331715,
,,,,,,,,,,,,0,0,0,0,40,0,40,0,,,,,,,40,,,1,64112.07408384286,,X,None,nogo,l,0,0.3156850599225436,,,,,,,,,,,,,,,,23,001,28,m,Psychologie,2023-01-17_09h05.00.722,00_bat_bachelor,2022.2.4,60.09583277331715,
,,,,,,,,,,,,0,0,0,0,41,0,41,0,,,,,,,41,,,1,64113.4909772165,,Y,d,go,d,1,0.2597035113176389,,,,,,,,,,,,,,,,23,001,28,m,Psychologie,2023-01-17_09h05.00.722,00_bat_bachelor,2022.2.4,60.09583277331715,
,,,,,,,,,,,,0,0,0,0,42,0,42,0,,,,,,,42,,,1,64114.85758600844,,X,l,go,l,1,0.34900916497645085,,,,,,,,,,,,,,,,23,001,28,m,Psychologie,2023-01-17_09h05.00.722,00_bat_bachelor,2022.2.4,60.09583277331715,
,,,,,,,,,,,,0,0,0,0,43,0,43,0,,,,,,,43,,,1,64116.30730118434,,X,None,nogo,l,0,0.40281762375161634,,,,,,,,,,,,,,,,23,001,28,m,Psychologie,2023-01-17_09h05.00.722,00_bat_bachelor,2022.2.4,60.09583277331715,
,,,,,,,,,,,,0,0,0,0,44,0,44,0,,,,,,,44,,,1,64117.82425657005,64118.62424454582,Y,d,go,None,0,,,,,,,,,,,,,,,,,23,001,28,m,Psychologie,2023-01-17_09h05.00.722,00_bat_bachelor,2022.2.4,60.09583277331715,
,,,,,,,,,,,,0,0,0,0,45,0,45,0,,,,,,,45,,,1,64119.62401715199,,X,l,go,l,1,0.41466537557789707,,,,,,,,,,,,,,,,23,001,28,m,Psychologie,2023-01-17_09h05.00.722,00_bat_bachelor,2022.2.4,60.09583277331715,
,,,,,,,,,,,,0,0,0,0,46,0,46,0,,,,,,,46,,,1,64121.14099290133,,Y,d,go,d,1,0.38511726868819096,,,,,,,,,,,,,,,,23,001,28,m,Psychologie,2023-01-17_09h05.00.722,00_bat_bachelor,2022.2.4,60.09583277331715,
,,,,,,,,,,,,0,0,0,0,47,0,47,0,,,,,,,47,,,1,64122.640729386316,,X,l,go,l,1,0.2620545404824952,,,,,,,,,,,,,,,,23,001,28,m,Psychologie,2023-01-17_09h05.00.722,00_bat_bachelor,2022.2.4,60.09583277331715,
,,,,,,,,,,,,0,0,0,0,48,0,48,0,,,,,,,48,,,1,64124.00759708723,64124.807386275206,X,None,nogo,None,1,,,,,,,,,,,,,,,,,23,001,28,m,Psychologie,2023-01-17_09h05.00.722,00_bat_bachelor,2022.2.4,60.09583277331715,
,,,,,,,,,,,,0,0,0,0,49,0,49,0,,,,,,,49,,,1,64125.80759233571,,X,None,nogo,l,0,0.3111216682045779,,,,,,,,,,,,,,,,23,001,28,m,Psychologie,2023-01-17_09h05.00.722,00_bat_bachelor,2022.2.4,60.09583277331715,
,,,,,,,,,,,,0,0,0,0,50,0,50,0,,,,,,,50,,,1,64127.22422292159,,Y,d,go,d,1,0.39838659558517975,,,,,,,,,,,,,,,,23,001,28,m,Psychologie,2023-01-17_09h05.00.722,00_bat_bachelor,2022.2.4,60.09583277331715,
,,,,,,,,,,,,0,0,0,0,51,0,51,0,,,,,,,51,,,1,64128.72419261857,,X,l,go,l,1,0.3544632229495619,,,,,,,,,,,,,,,,23,001,28,m,Psychologie,2023-01-17_09h05.00.722,00_bat_bachelor,2022.2.4,60.09583277331715,
,,,,,,,,,,,,0,0,0,0,52,0,52,0,,,,,,,52,,,1,64130.19092790743,64130.990918792275,X,None,nogo,None,1,,,,,,,,,,,,,,,,,23,001,28,m,Psychologie,2023-01-17_09h05.00.722,00_bat_bachelor,2022.2.4,60.09583277331715,
,,,,,,,,,,,,0,0,0,0,53,0,53,0,,,,,,,53,,,1,64131.99064194392,,Y,d,go,d,1,0.5116757527903246,,,,,,,,,,,,,,,,23,001,28,m,Psychologie,2023-01-17_09h05.00.722,00_bat_bachelor,2022.2.4,60.09583277331715,
,,,,,,,,,,,,0,0,0,0,54,0,54,0,,,,,,,54,,,1,64133.60766467507,,X,l,go,l,1,0.317760695299512,,,,,,,,,,,,,,,,23,001,28,m,Psychologie,2023-01-17_09h05.00.722,00_bat_bachelor,2022.2.4,60.09583277331715,
,,,,,,,,,,,,0,0,0,0,55,0,55,0,,,,,,,55,,,1,64135.04089598017,,Y,d,go,d,1,0.5166847200634948,,,,,,,,,,,,,,,,23,001,28,m,Psychologie,2023-01-17_09h05.00.722,00_bat_bachelor,2022.2.4,60.09583277331715,
,,,,,,,,,,,,0,0,0,0,56,0,56,0,,,,,,,56,,,1,64136.657590953895,64137.457582808434,Y,None,nogo,None,1,,,,,,,,,,,,,,,,,23,001,28,m,Psychologie,2023-01-17_09h05.00.722,00_bat_bachelor,2022.2.4,60.09583277331715,
,,,,,,,,,,,,0,0,0,0,57,0,57,0,,,,,,,57,,,1,64138.457544505436,,X,l,go,l,1,0.2685864160921483,,,,,,,,,,,,,,,,23,001,28,m,Psychologie,2023-01-17_09h05.00.722,00_bat_bachelor,2022.2.4,60.09583277331715,
,,,,,,,,,,,,0,0,0,0,58,0,58,0,,,,,,,58,,,1,64139.840913531676,,Y,d,go,d,1,0.421800887259451,,,,,,,,,,,,,,,,23,001,28,m,Psychologie,2023-01-17_09h05.00.722,00_bat_bachelor,2022.2.4,60.09583277331715,
,,,,,,,,,,,,0,0,0,0,59,0,59,0,,,,,,,59,,,1,64141.374213151896,,X,l,go,l,1,0.3609083107330662,,,,,,,,,,,,,,,,23,001,28,m,Psychologie,2023-01-17_09h05.00.722,00_bat_bachelor,2022.2.4,60.09583277331715,
,,,,,,,,,,,,0,0,0,0,60,0,60,0,,,,,,,60,,,1,64142.840941652874,64143.640712416614,X,None,nogo,None,1,,,,,,,,,,,,,,,,,23,001,28,m,Psychologie,2023-01-17_09h05.00.722,00_bat_bachelor,2022.2.4,60.09583277331715,
,,,,,,,,,,,,0,0,0,0,61,0,61,0,,,,,,,61,,,1,64144.64091168925,,Y,d,go,d,1,0.42064355449474533,,,,,,,,,,,,,,,,23,001,28,m,Psychologie,2023-01-17_09h05.00.722,00_bat_bachelor,2022.2.4,60.09583277331715,
,,,,,,,,,,,,0,0,0,0,62,0,62,0,,,,,,,62,,,1,64146.17404694592,,X,l,go,l,1,0.3284457810113963,,,,,,,,,,,,,,,,23,001,28,m,Psychologie,2023-01-17_09h05.00.722,00_bat_bachelor,2022.2.4,60.09583277331715,
,,,,,,,,,,,,0,0,0,0,63,0,63,0,,,,,,,63,,,1,64147.60758515996,64148.40755519633,X,None,nogo,None,1,,,,,,,,,,,,,,,,,23,001,28,m,Psychologie,2023-01-17_09h05.00.722,00_bat_bachelor,2022.2.4,60.09583277331715,
,,,,,,,,,,,,0,0,0,0,64,0,64,0,,,,,,,64,,,1,64149.40757410541,,Y,d,go,d,1,0.5024553936127631,,,,,,,,,,,,,,,,23,001,28,m,Psychologie,2023-01-17_09h05.00.722,00_bat_bachelor,2022.2.4,60.09583277331715,
,,,,,,,,,,,,0,0,0,0,65,0,65,0,,,,,,,65,,,1,64151.02459150323,,X,l,go,l,1,0.3261645700149529,,,,,,,,,,,,,,,,23,001,28,m,Psychologie,2023-01-17_09h05.00.722,00_bat_bachelor,2022.2.4,60.09583277331715,
,,,,,,,,,,,,0,0,0,0,66,0,66,0,,,,,,,66,,,1,64152.457572626634,64153.25736326915,X,None,nogo,None,1,,,,,,,,,,,,,,,,,23,001,28,m,Psychologie,2023-01-17_09h05.00.722,00_bat_bachelor,2022.2.4,60.09583277331715,
,,,,,,,,,,,,0,0,0,0,67,0,67,0,,,,,,,67,,,1,64154.25734920855,,Y,d,go,l,0,0.37334466833635815,,,,,,,,,,,,,,,,23,001,28,m,Psychologie,2023-01-17_09h05.00.722,00_bat_bachelor,2022.2.4,60.09583277331715,
,,,,,,,,,,,,0,0,0,0,68,0,68,0,,,,,,,68,,,1,64155.74059600456,,X,l,go,l,1,0.3463119541738706,,,,,,,,,,,,,,,,23,001,28,m,Psychologie,2023-01-17_09h05.00.722,00_bat_bachelor,2022.2.4,60.09583277331715,
,,,,,,,,,,,,0,0,0,0,69,0,69,0,,,,,,,69,,,1,64157.19090560441,64157.99096776196,X,None,nogo,None,1,,,,,,,,,,,,,,,,,23,001,28,m,Psychologie,2023-01-17_09h05.00.722,00_bat_bachelor,2022.2.4,60.09583277331715,
,,,,,,,,,,,,0,0,0,0,70,0,70,0,,,,,,,70,,,1,64158.99087321655,,Y,d,go,d,1,0.36000358390811016,,,,,,,,,,,,,,,,23,001,28,m,Psychologie,2023-01-17_09h05.00.722,00_bat_bachelor,2022.2.4,60.09583277331715,
,,,,,,,,,,,,0,0,0,0,71,0,71,0,,,,,,,71,,,1,64160.45724729345,,X,l,go,l,1,0.26895780985432793,,,,,,,,,,,,,,,,23,001,28,m,Psychologie,2023-01-17_09h05.00.722,00_bat_bachelor,2022.2.4,60.09583277331715,
,,,,,,,,,,,,0,0,0,0,72,0,72,0,,,,,,,72,,,1,64161.84073316812,,Y,d,go,d,1,0.4058246525855793,,,,,,,,,,,,,,,,23,001,28,m,Psychologie,2023-01-17_09h05.00.722,00_bat_bachelor,2022.2.4,60.09583277331715,
,,,,,,,,,,,,0,0,0,0,73,0,73,0,,,,,,,73,,,1,64163.35756879633,,X,l,go,l,1,0.4257659762552066,,,,,,,,,,,,,,,,23,001,28,m,Psychologie,2023-01-17_09h05.00.722,00_bat_bachelor,2022.2.4,60.09583277331715,
,,,,,,,,,,,,0,0,0,0,74,0,74,0,,,,,,,74,,,1,64164.890928052875,,Y,d,go,d,1,0.3308195980534947,,,,,,,,,,,,,,,,23,001,28,m,Psychologie,2023-01-17_09h05.00.722,00_bat_bachelor,2022.2.4,60.09583277331715,
,,,,,,,,,,,,0,0,0,0,75,0,75,0,,,,,,,75,,,1,64166.32400275199,,X,l,go,l,1,0.2748142918753729,,,,,,,,,,,,,,,,23,001,28,m,Psychologie,2023-01-17_09h05.00.722,00_bat_bachelor,2022.2.4,60.09583277331715,
,,,,,,,,,,,,0,0,0,0,76,0,76,0,,,,,,,76,,,1,64167.70756280846,64168.5072501783,X,None,nogo,None,1,,,,,,,,,,,,,,,,,23,001,28,m,Psychologie,2023-01-17_09h05.00.722,00_bat_bachelor,2022.2.4,60.09583277331715,
,,,,,,,,,,,,0,0,0,0,77,0,77,0,,,,,,,77,,,1,64169.507669087194,,Y,d,go,d,1,0.3864855104657181,,,,,,,,,,,,,,,,23,001,28,m,Psychologie,2023-01-17_09h05.00.722,00_bat_bachelor,2022.2.4,60.09583277331715,
,,,,,,,,,,,,0,0,0,0,78,0,78,0,,,,,,,78,,,1,64171.00734496613,,X,l,go,l,1,0.35951049323557527,,,,,,,,,,,,,,,,23,001,28,m,Psychologie,2023-01-17_09h05.00.722,00_bat_bachelor,2022.2.4,60.09583277331715,
,,,,,,,,,,,,0,0,0,0,79,0,79,0,,,,,,,79,,,1,64172.47421455795,64173.27417247313,X,None,nogo,None,1,,,,,,,,,,,,,,,,,23,001,28,m,Psychologie,2023-01-17_09h05.00.722,00_bat_bachelor,2022.2.4,60.09583277331715,
,,,,,,,,,,,,0,0,0,0,80,0,80,0,,,,,,,80,,,1,64174.27416471555,,Y,d,go,l,0,0.3238290559856978,,,,,,,,,,,,,,,,23,001,28,m,Psychologie,2023-01-17_09h05.00.722,00_bat_bachelor,2022.2.4,60.09583277331715,
,,,,,,,,,,,,0,0,0,0,81,0,81,0,,,,,,,81,,,1,64175.70755892966,,X,l,go,l,1,0.3796132713650877,,,,,,,,,,,,,,,,23,001,28,m,Psychologie,2023-01-17_09h05.00.722,00_bat_bachelor,2022.2.4,60.09583277331715,
,,,,,,,,,,,,0,0,0,0,82,0,82,0,,,,,,,82,,,1,64177.1909075438,,Y,d,go,d,1,0.31921814913584967,,,,,,,,,,,,,,,,23,001,28,m,Psychologie,2023-01-17_09h05.00.722,00_bat_bachelor,2022.2.4,60.09583277331715,
,,,,,,,,,,,,0,0,0,0,83,0,83,0,,,,,,,83,,,1,64178.62421642462,,Y,None,nogo,l,0,0.38996478148692404,,,,,,,,,,,,,,,,23,001,28,m,Psychologie,2023-01-17_09h05.00.722,00_bat_bachelor,2022.2.4,60.09583277331715,
,,,,,,,,,,,,0,0,0,0,84,0,84,0,,,,,,,84,,,1,64180.1245468487,,X,l,go,l,1,0.5388287093119288,,,,,,,,,,,,,,,,23,001,28,m,Psychologie,2023-01-17_09h05.00.722,00_bat_bachelor,2022.2.4,60.09583277331715,
,,,,,,,,,,,,0,0,0,0,85,0,85,0,,,,,,,85,,,1,64181.77391623083,,Y,d,go,d,1,0.37524672803192516,,,,,,,,,,,,,,,,23,001,28,m,Psychologie,2023-01-17_09h05.00.722,00_bat_bachelor,2022.2.4,60.09583277331715,
,,,,,,,,,,,,0,0,0,0,86,0,86,0,,,,,,,86,,,1,64183.27527113925,,X,l,go,l,1,0.4587632935908914,,,,,,,,,,,,,,,,23,001,28,m,Psychologie,2023-01-17_09h05.00.722,00_bat_bachelor,2022.2.4,60.09583277331715,
,,,,,,,,,,,,0,0,0,0,87,0,87,0,,,,,,,87,,,1,64184.875137515075,,Y,d,go,d,1,0.29871537119106506,,,,,,,,,,,,,,,,23,001,28,m,Psychologie,2023-01-17_09h05.00.722,00_bat_bachelor,2022.2.4,60.09583277331715,
,,,,,,,,,,,,0,0,0,0,88,0,88,0,,,,,,,88,,,1,64186.291342889046,64187.09113062247,Y,None,nogo,None,1,,,,,,,,,,,,,,,,,23,001,28,m,Psychologie,2023-01-17_09h05.00.722,00_bat_bachelor,2022.2.4,60.09583277331715,
,,,,,,,,,,,,0,0,0,0,89,0,89,0,,,,,,,89,,,1,64188.09114468307,,X,l,go,l,1,0.4112583469286619,,,,,,,,,,,,,,,,23,001,28,m,Psychologie,2023-01-17_09h05.00.722,00_bat_bachelor,2022.2.4,60.09583277331715,
,,,,,,,,,,,,0,0,0,0,90,0,90,0,,,,,,,90,,,1,64189.60797061432,,Y,d,go,d,1,0.36641473230338306,,,,,,,,,,,,,,,,23,001,28,m,Psychologie,2023-01-17_09h05.00.722,00_bat_bachelor,2022.2.4,60.09583277331715,
,,,,,,,,,,,,0,0,0,0,91,0,91,0,,,,,,,91,,,1,64191.07456966081,,X,l,go,l,1,0.3396937755642284,,,,,,,,,,,,,,,,23,001,28,m,Psychologie,2023-01-17_09h05.00.722,00_bat_bachelor,2022.2.4,60.09583277331715,
,,,,,,,,,,,,0,0,0,0,92,0,92,0,,,,,,,92,,,1,64192.52474350315,64193.32441923664,X,None,nogo,None,1,,,,,,,,,,,,,,,,,23,001,28,m,Psychologie,2023-01-17_09h05.00.722,00_bat_bachelor,2022.2.4,60.09583277331715,
,,,,,,,,,,,,0,0,0,0,93,0,93,0,,,,,,,93,,,1,64194.32448372146,,Y,d,go,d,1,0.4012438063255104,,,,,,,,,,,,,,,,23,001,28,m,Psychologie,2023-01-17_09h05.00.722,00_bat_bachelor,2022.2.4,60.09583277331715,
,,,,,,,,,,,,0,0,0,0,94,0,94,0,,,,,,,94,,,1,64195.841287834526,,X,l,go,l,1,0.34015583595100907,,,,,,,,,,,,,,,,23,001,28,m,Psychologie,2023-01-17_09h05.00.722,00_bat_bachelor,2022.2.4,60.09583277331715,
,,,,,,,,,,,,0,0,0,0,95,0,95,0,,,,,,,95,,,1,64197.291298283,64198.09131631936,X,None,nogo,None,1,,,,,,,,,,,,,,,,,23,001,28,m,Psychologie,2023-01-17_09h05.00.722,00_bat_bachelor,2022.2.4,60.09583277331715,
,,,,,,,,,,,,0,0,0,0,96,0,96,0,,,,,,,96,,,1,64199.09133716783,,Y,d,go,d,1,0.41874440390165546,,,,,,,,,,,,,,,,23,001,28,m,Psychologie,2023-01-17_09h05.00.722,00_bat_bachelor,2022.2.4,60.09583277331715,
,,,,,,,,,,,,0,0,0,0,97,0,97,0,,,,,,,97,,,1,64200.6242081822,,X,l,go,l,1,0.2464206086624472,,,,,,,,,,,,,,,,23,001,28,m,Psychologie,2023-01-17_09h05.00.722,00_bat_bachelor,2022.2.4,60.09583277331715,
,,,,,,,,,,,,0,0,0,0,98,0,98,0,,,,,,,98,,,1,64201.97395395202,,Y,d,go,d,1,0.3036947627151676,,,,,,,,,,,,,,,,23,001,28,m,Psychologie,2023-01-17_09h05.00.722,00_bat_bachelor,2022.2.4,60.09583277331715,
,,,,,,,,,,,,0,0,0,0,99,0,99,0,,,,,,,99,,,1,64203.39087447715,64204.19055845306,Y,None,nogo,None,1,,,,,,,,,,,,,,,,,23,001,28,m,Psychologie,2023-01-17_09h05.00.722,00_bat_bachelor,2022.2.4,60.09583277331715,
,,,,,,,,,,,,0,0,0,0,100,0,100,0,,,,,,,100,,,1,64205.19094390742,,X,l,go,l,1,0.23999685420494643,,,,,,,,,,,,,,,,23,001,28,m,Psychologie,2023-01-17_09h05.00.722,00_bat_bachelor,2022.2.4,60.09583277331715,
,,,,,,,,,,,,0,0,0,0,101,0,101,0,,,,,,,101,,,1,64206.540827374134,,Y,d,go,d,1,0.3447478337220673,,,,,,,,,,,,,,,,23,001,28,m,Psychologie,2023-01-17_09h05.00.722,00_bat_bachelor,2022.2.4,60.09583277331715,
,,,,,,,,,,,,0,0,0,0,102,0,102,0,,,,,,,102,,,1,64207.990590065165,64208.79088979836,Y,None,nogo,None,1,,,,,,,,,,,,,,,,,23,001,28,m,Psychologie,2023-01-17_09h05.00.722,00_bat_bachelor,2022.2.4,60.09583277331715,
,,,,,,,,,,,,0,0,0,0,103,0,103,0,,,,,,,103,,,1,64209.79064737423,,X,l,go,l,1,0.24699127505664364,,,,,,,,,,,,,,,,23,001,28,m,Psychologie,2023-01-17_09h05.00.722,00_bat_bachelor,2022.2.4,60.09583277331715,
,,,,,,,,,,,,0,0,0,0,104,0,104,0,,,,,,,104,,,1,64211.1408760529,,Y,d,go,d,1,0.36914588249419467,,,,,,,,,,,,,,,,23,001,28,m,Psychologie,2023-01-17_09h05.00.722,00_bat_bachelor,2022.2.4,60.09583277331715,
,,,,,,,,,,,,0,0,0,0,105,0,105,0,,,,,,,105,,,1,64212.624270727625,,X,l,go,l,1,0.40633083416105364,,,,,,,,,,,,,,,,23,001,28,m,Psychologie,2023-01-17_09h05.00.722,00_bat_bachelor,2022.2.4,60.09583277331715,
,,,,,,,,,,,,0,0,0,0,106,0,106,0,,,,,,,106,,,1,64214.14056429548,64214.94109918007,X,None,nogo,None,1,,,,,,,,,,,,,,,,,23,001,28,m,Psychologie,2023-01-17_09h05.00.722,00_bat_bachelor,2022.2.4,60.09583277331715,
,,,,,,,,,,,,0,0,0,0,107,0,107,0,,,,,,,107,,,1,64215.94057505911,,Y,d,go,d,1,0.4328408819164906,,,,,,,,,,,,,,,,23,001,28,m,Psychologie,2023-01-17_09h05.00.722,00_bat_bachelor,2022.2.4,60.09583277331715,
,,,,,,,,,,,,0,0,0,0,108,0,108,0,,,,,,,108,,,1,64217.474182073114,,X,l,go,l,1,0.2603090867814899,,,,,,,,,,,,,,,,23,001,28,m,Psychologie,2023-01-17_09h05.00.722,00_bat_bachelor,2022.2.4,60.09583277331715,
,,,,,,,,,,,,0,0,0,0,109,0,109,0,,,,,,,109,,,1,64218.84065850149,,Y,d,go,d,1,0.3329568091321562,,,,,,,,,,,,,,,,23,001,28,m,Psychologie,2023-01-17_09h05.00.722,00_bat_bachelor,2022.2.4,60.09583277331715,
,,,,,,,,,,,,0,0,0,0,110,0,110,0,,,,,,,110,,,1,64220.27417441252,,X,l,go,l,1,0.2759687155521533,,,,,,,,,,,,,,,,23,001,28,m,Psychologie,2023-01-17_09h05.00.722,00_bat_bachelor,2022.2.4,60.09583277331715,
,,,,,,,,,,,,0,0,0,0,111,0,111,0,,,,,,,111,,,1,64221.65852525647,,Y,d,go,d,1,0.3472355900921684,,,,,,,,,,,,,,,,23,001,28,m,Psychologie,2023-01-17_09h05.00.722,00_bat_bachelor,2022.2.4,60.09583277331715,
,,,,,,,,,,,,0,0,0,0,112,0,112,0,,,,,,,112,,,1,64223.14170077977,64223.94192051301,Y,None,nogo,None,1,,,,,,,,,,,,,,,,,23,001,28,m,Psychologie,2023-01-17_09h05.00.722,00_bat_bachelor,2022.2.4,60.09583277331715,
,,,,,,,,,,,,0,0,0,0,113,0,113,0,,,,,,,113,,,1,64224.94122233153,64225.741481822304,Y,None,nogo,None,1,,,,,,,,,,,,,,,,,23,001,28,m,Psychologie,2023-01-17_09h05.00.722,00_bat_bachelor,2022.2.4,60.09583277331715,
,,,,,,,,,,,,0,0,0,0,114,0,114,0,,,,,,,114,,,1,64226.741528852595,,X,l,go,l,1,0.27272217168138013,,,,,,,,,,,,,,,,23,001,28,m,Psychologie,2023-01-17_09h05.00.722,00_bat_bachelor,2022.2.4,60.09583277331715,
,,,,,,,,,,,,0,0,0,0,115,0,115,0,,,,,,,115,,,1,64228.14144623444,,Y,d,go,d,1,0.3285073567421932,,,,,,,,,,,,,,,,23,001,28,m,Psychologie,2023-01-17_09h05.00.722,00_bat_bachelor,2022.2.4,60.09583277331715,
,,,,,,,,,,,,0,0,0,0,116,0,116,0,,,,,,,116,,,1,64229.59124722848,,X,l,go,l,1,0.2379663097417506,,,,,,,,,,,,,,,,23,001,28,m,Psychologie,2023-01-17_09h05.00.722,00_bat_bachelor,2022.2.4,60.09583277331715,
,,,,,,,,,,,,0,0,0,0,117,0,117,0,,,,,,,117,,,1,64230.958156141496,64231.75809272335,X,None,nogo,None,1,,,,,,,,,,,,,,,,,23,001,28,m,Psychologie,2023-01-17_09h05.00.722,00_bat_bachelor,2022.2.4,60.09583277331715,
,,,,,,,,,,,,0,0,0,0,118,0,118,0,,,,,,,118,,,1,64232.75794435978,,Y,d,go,d,1,0.39888598928882857,,,,,,,,,,,,,,,,23,001,28,m,Psychologie,2023-01-17_09h05.00.722,00_bat_bachelor,2022.2.4,60.09583277331715,
,,,,,,,,,,,,0,0,0,0,119,0,119,0,,,,,,,119,,,1,64234.27475962436,,X,l,go,l,1,0.3863904802019533,,,,,,,,,,,,,,,,23,001,28,m,Psychologie,2023-01-17_09h05.00.722,00_bat_bachelor,2022.2.4,60.09583277331715,
,,,,,,,,,,,,0,0,0,0,120,0,120,0,,,,,,,120,,,1,64235.791306767846,,Y,d,go,d,1,0.3576574032085773,,,,,,,,,,,,,,,,23,001,28,m,Psychologie,2023-01-17_09h05.00.722,00_bat_bachelor,2022.2.4,60.09583277331715,
,,,,,,,,,,,,0,0,0,0,121,0,121,0,,,,,,,121,,,1,64237.27466410925,,X,l,go,l,1,0.5387394972385664,,,,,,,,,,,,,,,,23,001,28,m,Psychologie,2023-01-17_09h05.00.722,00_bat_bachelor,2022.2.4,60.09583277331715,
,,,,,,,,,,,,0,0,0,0,122,0,122,0,,,,,,,122,,,1,64238.94112148309,64239.74119139821,X,None,nogo,None,1,,,,,,,,,,,,,,,,,23,001,28,m,Psychologie,2023-01-17_09h05.00.722,00_bat_bachelor,2022.2.4,60.09583277331715,
,,,,,,,,,,,,0,0,0,0,123,0,123,0,,,,,,,123,,,1,64240.74113515581,,Y,d,go,d,1,0.36941157933688373,,,,,,,,,,,,,,,,23,001,28,m,Psychologie,2023-01-17_09h05.00.722,00_bat_bachelor,2022.2.4,60.09583277331715,
,,,,,,,,,,,,0,0,0,0,124,0,124,0,,,,,,,124,,,1,64242.22389613386,,X,l,go,l,1,0.2951497971553181,,,,,,,,,,,,,,,,23,001,28,m,Psychologie,2023-01-17_09h05.00.722,00_bat_bachelor,2022.2.4,60.09583277331715,
,,,,,,,,,,,,0,0,0,0,125,0,125,0,,,,,,,125,,,1,64243.624027818645,,X,None,nogo,l,0,0.5907176538494241,,,,,,,,,,,,,,,,23,001,28,m,Psychologie,2023-01-17_09h05.00.722,00_bat_bachelor,2022.2.4,60.09583277331715,
,,,,,,,,,,,,0,0,0,0,126,0,126,0,,,,,,,126,,,1,64245.32395620656,,Y,d,go,d,1,0.24998666753890575,,,,,,,,,,,,,,,,23,001,28,m,Psychologie,2023-01-17_09h05.00.722,00_bat_bachelor,2022.2.4,60.09583277331715,
,,,,,,,,,,,,0,0,0,0,127,0,127,0,,,,,,,127,,,1,64246.673857127826,,X,l,go,l,1,0.27655392738597584,,,,,,,,,,,,,,,,23,001,28,m,Psychologie,2023-01-17_09h05.00.722,00_bat_bachelor,2022.2.4,60.09583277331715,
,,,,,,,,,,,,0,0,0,0,128,0,128,0,,,,,,,128,,,1,64248.05749815394,64248.857343584314,X,None,nogo,None,1,,,,,,,,,,,,,,,,,23,001,28,m,Psychologie,2023-01-17_09h05.00.722,00_bat_bachelor,2022.2.4,60.09583277331715,
,,,,,,,,,,,,0,0,0,0,129,0,129,0,,,,,,,129,,,1,64249.85758794783,,X,None,nogo,l,0,0.30890639656354324,,,,,,,,,,,,,,,,23,001,28,m,Psychologie,2023-01-17_09h05.00.722,00_bat_bachelor,2022.2.4,60.09583277331715,
,,,,,,,,,,,,0,0,0,0,130,0,130,0,,,,,,,130,,,1,64251.27418459434,,Y,d,go,d,1,0.3475303778286616,,,,,,,,,,,,,,,,23,001,28,m,Psychologie,2023-01-17_09h05.00.722,00_bat_bachelor,2022.2.4,60.09583277331715,
,,,,,,,,,,,,0,0,0,0,131,0,131,0,,,,,,,131,,,1,64252.724169830704,,X,l,go,l,1,0.30575439808671945,,,,,,,,,,,,,,,,23,001,28,m,Psychologie,2023-01-17_09h05.00.722,00_bat_bachelor,2022.2.4,60.09583277331715,
,,,,,,,,,,,,0,0,0,0,132,0,132,0,,,,,,,132,,,1,64254.14052696216,,Y,d,go,d,1,0.37820284779081703,,,,,,,,,,,,,,,,23,001,28,m,Psychologie,2023-01-17_09h05.00.722,00_bat_bachelor,2022.2.4,60.09583277331715,
,,,,,,,,,,,,0,0,0,0,133,0,133,0,,,,,,,133,,,1,64255.62418151555,,Y,None,nogo,d,0,0.4304791860813566,,,,,,,,,,,,,,,,23,001,28,m,Psychologie,2023-01-17_09h05.00.722,00_bat_bachelor,2022.2.4,60.09583277331715,
,,,,,,,,,,,,0,0,0,0,134,0,134,0,,,,,,,134,,,1,64257.157374954,,X,l,go,l,1,0.41588961740853847,,,,,,,,,,,,,,,,23,001,28,m,Psychologie,2023-01-17_09h05.00.722,00_bat_bachelor,2022.2.4,60.09583277331715,
,,,,,,,,,,,,0,0,0,0,135,0,135,0,,,,,,,135,,,1,64258.67397494595,,Y,d,go,d,1,0.3722993355077051,,,,,,,,,,,,,,,,23,001,28,m,Psychologie,2023-01-17_09h05.00.722,00_bat_bachelor,2022.2.4,60.09583277331715,
,,,,,,,,,,,,0,0,0,0,136,0,136,0,,,,,,,136,,,1,64260.157505863026,64260.95720680863,Y,None,nogo,None,1,,,,,,,,,,,,,,,,,23,001,28,m,Psychologie,2023-01-17_09h05.00.722,00_bat_bachelor,2022.2.4,60.09583277331715,
,,,,,,,,,,,,0,0,0,0,137,0,137,0,,,,,,,137,,,1,64261.95752486908,,X,l,go,l,1,0.22419758914111299,,,,,,,,,,,,,,,,23,001,28,m,Psychologie,2023-01-17_09h05.00.722,00_bat_bachelor,2022.2.4,60.09583277331715,
,,,,,,,,,,,,0,0,0,0,138,0,138,0,,,,,,,138,,,1,64263.2906883439,,Y,d,go,d,1,0.2666702958267706,,,,,,,,,,,,,,,,23,001,28,m,Psychologie,2023-01-17_09h05.00.722,00_bat_bachelor,2022.2.4,60.09583277331715,
,,,,,,,,,,,,0,0,0,0,139,0,139,0,,,,,,,139,,,1,64264.657464893346,,X,l,go,l,1,0.24569139689629083,,,,,,,,,,,,,,,,23,001,28,m,Psychologie,2023-01-17_09h05.00.722,00_bat_bachelor,2022.2.4,60.09583277331715,
,,,,,,,,,,,,0,0,0,0,140,0,140,0,,,,,,,140,,,1,64266.007512723634,,Y,d,go,d,1,0.3671487925639667,,,,,,,,,,,,,,,,23,001,28,m,Psychologie,2023-01-17_09h05.00.722,00_bat_bachelor,2022.2.4,60.09583277331715,
,,,,,,,,,,,,0,0,0,0,141,0,141,0,,,,,,,141,,,1,64267.474182073114,,X,l,go,l,1,0.29289816189339035,,,,,,,,,,,,,,,,23,001,28,m,Psychologie,2023-01-17_09h05.00.722,00_bat_bachelor,2022.2.4,60.09583277331715,
,,,,,,,,,,,,0,0,0,0,142,0,142,0,,,,,,,142,,,1,64268.874157636776,,Y,d,go,d,1,0.34759728688004543,,,,,,,,,,,,,,,,23,001,28,m,Psychologie,2023-01-17_09h05.00.722,00_bat_bachelor,2022.2.4,60.09583277331715,
,,,,,,,,,,,,0,0,0,0,143,0,143,0,,,,,,,143,,,1,64270.32416614586,,X,l,go,l,1,0.4015230789264024,,,,,,,,,,,,,,,,23,001,28,m,Psychologie,2023-01-17_09h05.00.722,00_bat_bachelor,2022.2.4,60.09583277331715,
,,,,,,,,,,,,0,0,0,0,144,0,144,0,,,,,,,144,,,1,64271.840796683246,,Y,d,go,d,1,0.24564048783577164,,,,,,,,,,,,,,,,23,001,28,m,Psychologie,2023-01-17_09h05.00.722,00_bat_bachelor,2022.2.4,60.09583277331715,
,,,,,,,,,,,,0,0,0,0,145,0,145,0,,,,,,,145,,,1,64273.19080233172,64273.99094788317,Y,None,nogo,None,1,,,,,,,,,,,,,,,,,23,001,28,m,Psychologie,2023-01-17_09h05.00.722,00_bat_bachelor,2022.2.4,60.09583277331715,
,,,,,,,,,,,,0,0,0,0,146,0,146,0,,,,,,,146,,,1,64274.99122279213,,X,l,go,l,1,0.31090494103045785,,,,,,,,,,,,,,,,23,001,28,m,Psychologie,2023-01-17_09h05.00.722,00_bat_bachelor,2022.2.4,60.09583277331715,
,,,,,,,,,,,,0,0,0,0,147,0,147,0,,,,,,,147,,,1,64276.407664287195,,Y,d,go,d,1,0.31762154383250163,,,,,,,,,,,,,,,,23,001,28,m,Psychologie,2023-01-17_09h05.00.722,00_bat_bachelor,2022.2.4,60.09583277331715,
,,,,,,,,,,,,0,0,0,0,148,0,148,0,,,,,,,148,,,1,64277.85788419012,,X,l,go,l,1,0.4355109412172169,,,,,,,,,,,,,,,,23,001,28,m,Psychologie,2023-01-17_09h05.00.722,00_bat_bachelor,2022.2.4,60.09583277331715,
,,,,,,,,,,,,0,0,0,0,149,0,149,0,,,,,,,149,,,1,64279.40791204464,,Y,d,go,d,1,0.34172819882587646,,,,,,,,,,,,,,,,23,001,28,m,Psychologie,2023-01-17_09h05.00.722,00_bat_bachelor,2022.2.4,60.09583277331715,
,,,,,,,,,,,,0,0,0,0,150,0,150,0,,,,,,,150,,,1,64280.857694129605,64281.657753862906,Y,None,nogo,None,1,,,,,,,,,,,,,,,,,23,001,28,m,Psychologie,2023-01-17_09h05.00.722,00_bat_bachelor,2022.2.4,60.09583277331715,
,,,,,,,,,,,,0,0,0,0,151,0,151,0,,,,,,,151,,,1,64282.657687438696,,X,l,go,l,1,0.2119498374995601,,,,,,,,,,,,,,,,23,001,28,m,Psychologie,2023-01-17_09h05.00.722,00_bat_bachelor,2022.2.4,60.09583277331715,
,,,,,,,,,,,,0,0,0,0,152,0,152,0,,,,,,,152,,,1,64283.974036861066,,Y,d,go,d,1,0.33527729286652175,,,,,,,,,,,,,,,,23,001,28,m,Psychologie,2023-01-17_09h05.00.722,00_bat_bachelor,2022.2.4,60.09583277331715,
,,,,,,,,,,,,0,0,0,0,153,0,153,0,,,,,,,153,,,1,64285.44093311955,,X,l,go,l,1,0.4369635465882311,,,,,,,,,,,,,,,,23,001,28,m,Psychologie,2023-01-17_09h05.00.722,00_bat_bachelor,2022.2.4,60.09583277331715,
,,,,,,,,,,,,0,0,0,0,154,0,154,0,,,,,,,154,,,1,64286.99091103471,,Y,d,go,d,1,0.31128845599960187,,,,,,,,,,,,,,,,23,001,28,m,Psychologie,2023-01-17_09h05.00.722,00_bat_bachelor,2022.2.4,60.09583277331715,
,,,,,,,,,,,,0,0,0,0,155,0,155,0,,,,,,,155,,,1,64288.407613862975,,X,l,go,l,1,0.2700283547928848,,,,,,,,,,,,,,,,23,001,28,m,Psychologie,2023-01-17_09h05.00.722,00_bat_bachelor,2022.2.4,60.09583277331715,
,,,,,,,,,,,,0,0,0,0,156,0,156,0,,,,,,,156,,,1,64289.807885668895,,Y,d,go,d,1,0.29454567624270567,,,,,,,,,,,,,,,,23,001,28,m,Psychologie,2023-01-17_09h05.00.722,00_bat_bachelor,2022.2.4,60.09583277331715,
,,,,,,,,,,,,0,0,0,0,157,0,157,0,,,,,,,157,,,1,64291.20834995959,,X,l,go,l,1,0.36555703575504594,,,,,,,,,,,,,,,,23,001,28,m,Psychologie,2023-01-17_09h05.00.722,00_bat_bachelor,2022.2.4,60.09583277331715,
,,,,,,,,,,,,0,0,0,0,158,0,158,0,,,,,,,158,,,1,64292.69129711937,,Y,d,go,d,1,0.353970132277027,,,,,,,,,,,,,,,,23,001,28,m,Psychologie,2023-01-17_09h05.00.722,00_bat_bachelor,2022.2.4,60.09583277331715,
,,,,,,,,,,,,0,0,0,0,159,0,159,0,,,,,,,159,,,1,64294.15774925685,,X,l,go,l,1,0.4555647496781603,,,,,,,,,,,,,,,,23,001,28,m,Psychologie,2023-01-17_09h05.00.722,00_bat_bachelor,2022.2.4,60.09583277331715,
,,,,,,,,,,,,0,0,0,0,160,0,160,0,,,,,,,160,,,1,64295.741290792095,,Y,d,go,d,1,0.37572915203418233,,,,,,,,,,,,,,,,23,001,28,m,Psychologie,2023-01-17_09h05.00.722,00_bat_bachelor,2022.2.4,60.09583277331715,
,,,,,,,,,,,,0,0,0,0,161,0,161,0,,,,,,,161,,,1,64297.24112861036,,X,l,go,l,1,0.3968893841993122,,,,,,,,,,,,,,,,23,001,28,m,Psychologie,2023-01-17_09h05.00.722,00_bat_bachelor,2022.2.4,60.09583277331715,
,,,,,,,,,,,,0,0,0,0,162,0,162,0,,,,,,,162,,,1,64298.74123600425,,Y,d,go,d,1,0.38443363266196684,,,,,,,,,,,,,,,,23,001,28,m,Psychologie,2023-01-17_09h05.00.722,00_bat_bachelor,2022.2.4,60.09583277331715,
,,,,,,,,,,,,0,0,0,0,163,0,163,0,,,,,,,163,,,1,64300.241301701186,,X,l,go,l,1,0.2766824121827085,,,,,,,,,,,,,,,,23,001,28,m,Psychologie,2023-01-17_09h05.00.722,00_bat_bachelor,2022.2.4,60.09583277331715,
,,,,,,,,,,,,0,0,0,0,164,0,164,0,,,,,,,164,,,1,64301.624608666854,,Y,d,go,d,1,0.39725689916303963,,,,,,,,,,,,,,,,23,001,28,m,Psychologie,2023-01-17_09h05.00.722,00_bat_bachelor,2022.2.4,60.09583277331715,
,,,,,,,,,,,,0,0,0,0,165,0,165,0,,,,,,,165,,,1,64303.12445327299,,X,l,go,l,1,0.36898394319359795,,,,,,,,,,,,,,,,23,001,28,m,Psychologie,2023-01-17_09h05.00.722,00_bat_bachelor,2022.2.4,60.09583277331715,
,,,,,,,,,,,,0,0,0,0,166,0,166,0,,,,,,,166,,,1,64304.62432842457,,Y,d,go,d,1,0.2936021615496429,,,,,,,,,,,,,,,,23,001,28,m,Psychologie,2023-01-17_09h05.00.722,00_bat_bachelor,2022.2.4,60.09583277331715,
,,,,,,,,,,,,0,0,0,0,167,0,167,0,,,,,,,167,,,1,64306.02456677596,,Y,None,nogo,l,0,0.3163846959541843,,,,,,,,,,,,,,,,23,001,28,m,Psychologie,2023-01-17_09h05.00.722,00_bat_bachelor,2022.2.4,60.09583277331715,
,,,,,,,,,,,,0,0,0,0,168,0,168,0,,,,,,,168,,,1,64307.45799638399,,X,l,go,l,1,0.4677460771090409,,,,,,,,,,,,,,,,23,001,28,m,Psychologie,2023-01-17_09h05.00.722,00_bat_bachelor,2022.2.4,60.09583277331715,
,,,,,,,,,,,,0,0,0,0,169,0,169,0,,,,,,,169,,,1,64309.04110349521,,Y,d,go,d,1,0.30765257898383425,,,,,,,,,,,,,,,,23,001,28,m,Psychologie,2023-01-17_09h05.00.722,00_bat_bachelor,2022.2.4,60.09583277331715,
,,,,,,,,,,,,0,0,0,0,170,0,170,0,,,,,,,170,,,1,64310.47443370936,64311.27463938198,Y,None,nogo,None,1,,,,,,,,,,,,,,,,,23,001,28,m,Psychologie,2023-01-17_09h05.00.722,00_bat_bachelor,2022.2.4,60.09583277331715,
,,,,,,,,,,,,0,0,0,0,171,0,171,0,,,,,,,171,,,1,64312.27468253349,,X,l,go,l,1,0.32288505643737153,,,,,,,,,,,,,,,,23,001,28,m,Psychologie,2023-01-17_09h05.00.722,00_bat_bachelor,2022.2.4,60.09583277331715,
,,,,,,,,,,,,0,0,0,0,172,0,172,0,,,,,,,172,,,1,64313.72463528502,,Y,d,go,d,1,0.34459704591790796,,,,,,,,,,,,,,,,23,001,28,m,Psychologie,2023-01-17_09h05.00.722,00_bat_bachelor,2022.2.4,60.09583277331715,
,,,,,,,,,,,,0,0,0,0,173,0,173,0,,,,,,,173,,,1,64315.19126875575,,X,l,go,l,1,0.3513771638281469,,,,,,,,,,,,,,,,23,001,28,m,Psychologie,2023-01-17_09h05.00.722,00_bat_bachelor,2022.2.4,60.09583277331715,
,,,,,,,,,,,,0,0,0,0,174,0,174,0,,,,,,,174,,,1,64316.65770246899,64317.45789456587,X,None,nogo,None,1,,,,,,,,,,,,,,,,,23,001,28,m,Psychologie,2023-01-17_09h05.00.722,00_bat_bachelor,2022.2.4,60.09583277331715,
,,,,,,,,,,,,0,0,0,0,175,0,175,0,,,,,,,175,,,1,64318.45792074768,,Y,d,go,d,1,0.5565334279999661,,,,,,,,,,,,,,,,23,001,28,m,Psychologie,2023-01-17_09h05.00.722,00_bat_bachelor,2022.2.4,60.09583277331715,
,,,,,,,,,,,,0,0,0,0,176,0,176,0,,,,,,,176,,,1,64320.12457206081,,X,l,go,l,1,0.4573257185293187,,,,,,,,,,,,,,,,23,001,28,m,Psychologie,2023-01-17_09h05.00.722,00_bat_bachelor,2022.2.4,60.09583277331715,
,,,,,,,,,,,,0,0,0,0,177,0,177,0,,,,,,,177,,,1,64321.70788620223,,Y,d,go,d,1,0.49036327826979687,,,,,,,,,,,,,,,,23,001,28,m,Psychologie,2023-01-17_09h05.00.722,00_bat_bachelor,2022.2.4,60.09583277331715,
,,,,,,,,,,,,0,0,0,0,178,0,178,0,,,,,,,178,,,1,64323.30776275987,64324.10804455368,Y,None,nogo,None,1,,,,,,,,,,,,,,,,,23,001,28,m,Psychologie,2023-01-17_09h05.00.722,00_bat_bachelor,2022.2.4,60.09583277331715,
,,,,,,,,,,,,0,0,0,0,179,0,179,0,,,,,,,179,,,1,64325.10779679622,,X,l,go,l,1,0.3220932992444432,,,,,,,,,,,,,,,,23,001,28,m,Psychologie,2023-01-17_09h05.00.722,00_bat_bachelor,2022.2.4,60.09583277331715,
,,,,,,,,,,,,0,0,0,0,180,0,180,0,,,,,,,180,,,1,64326.541313676935,,Y,d,go,d,1,0.3762149699796282,,,,,,,,,,,,,,,,23,001,28,m,Psychologie,2023-01-17_09h05.00.722,00_bat_bachelor,2022.2.4,60.09583277331715,
,,,,,,,,,,,,0,0,0,0,181,0,181,0,,,,,,,181,,,1,64328.04130567695,,X,l,go,l,1,0.2844705296047323,,,,,,,,,,,,,,,,23,001,28,m,Psychologie,2023-01-17_09h05.00.722,00_bat_bachelor,2022.2.4,60.09583277331715,
,,,,,,,,,,,,0,0,0,0,182,0,182,0,,,,,,,182,,,1,64329.4578436568,,Y,d,go,d,1,0.32392699532283586,,,,,,,,,,,,,,,,23,001,28,m,Psychologie,2023-01-17_09h05.00.722,00_bat_bachelor,2022.2.4,60.09583277331715,
,,,,,,,,,,,,0,0,0,0,183,0,183,0,,,,,,,183,,,1,64330.90788174163,64331.70795068705,Y,None,nogo,None,1,,,,,,,,,,,,,,,,,23,001,28,m,Psychologie,2023-01-17_09h05.00.722,00_bat_bachelor,2022.2.4,60.09583277331715,
,,,,,,,,,,,,0,0,0,0,184,0,184,0,,,,,,,184,,,1,64332.70777468714,,X,l,go,l,1,0.3709383664718189,,,,,,,,,,,,,,,,23,001,28,m,Psychologie,2023-01-17_09h05.00.722,00_bat_bachelor,2022.2.4,60.09583277331715,
,,,,,,,,,,,,0,0,0,0,185,0,185,0,,,,,,,185,,,1,64334.19151990714,,Y,d,go,d,1,0.27866107787485817,,,,,,,,,,,,,,,,23,001,28,m,Psychologie,2023-01-17_09h05.00.722,00_bat_bachelor,2022.2.4,60.09583277331715,
,,,,,,,,,,,,0,0,0,0,186,0,186,0,,,,,,,186,,,1,64335.57458541838,,X,l,go,l,1,0.39918708005643566,,,,,,,,,,,,,,,,23,001,28,m,Psychologie,2023-01-17_09h05.00.722,00_bat_bachelor,2022.2.4,60.09583277331715,
,,,,,,,,,,,,0,0,0,0,187,0,187,0,,,,,,,187,,,1,64337.10801546277,,Y,d,go,d,1,0.32095681495047756,,,,,,,,,,,,,,,,23,001,28,m,Psychologie,2023-01-17_09h05.00.722,00_bat_bachelor,2022.2.4,60.09583277331715,
,,,,,,,,,,,,0,0,0,0,188,0,188,0,,,,,,,188,,,1,64338.55789936587,,X,l,go,l,1,0.32749984208567184,,,,,,,,,,,,,,,,23,001,28,m,Psychologie,2023-01-17_09h05.00.722,00_bat_bachelor,2022.2.4,60.09583277331715,
,,,,,,,,,,,,0,0,0,0,189,0,189,0,,,,,,,189,,,1,64340.007731390186,64340.8080636082,X,None,nogo,None,1,,,,,,,,,,,,,,,,,23,001,28,m,Psychologie,2023-01-17_09h05.00.722,00_bat_bachelor,2022.2.4,60.09583277331715,
,,,,,,,,,,,,0,0,0,0,190,0,190,0,,,,,,,190,,,1,64341.8074837297,,Y,d,go,d,1,0.4061921675638587,,,,,,,,,,,,,,,,23,001,28,m,Psychologie,2023-01-17_09h05.00.722,00_bat_bachelor,2022.2.4,60.09583277331715,
,,,,,,,,,,,,0,0,0,0,191,0,191,0,,,,,,,191,,,1,64343.324394994226,,X,l,go,l,1,0.24991006151321926,,,,,,,,,,,,,,,,23,001,28,m,Psychologie,2023-01-17_09h05.00.722,00_bat_bachelor,2022.2.4,60.09583277331715,
,,,,,,,,,,,,0,0,0,0,192,0,192,0,,,,,,,192,,,1,64344.674518945685,,Y,d,go,d,1,0.387521631175332,,,,,,,,,,,,,,,,23,001,28,m,Psychologie,2023-01-17_09h05.00.722,00_bat_bachelor,2022.2.4,60.09583277331715,
,,,,,,,,,,,,0,0,0,0,193,0,193,0,,,,,,,193,,,1,64346.17435191547,64346.974148861016,Y,None,nogo,None,1,,,,,,,,,,,,,,,,,23,001,28,m,Psychologie,2023-01-17_09h05.00.722,00_bat_bachelor,2022.2.4,60.09583277331715,
,,,,,,,,,,,,0,0,0,0,194,0,194,0,,,,,,,194,,,1,64347.97441310331,,X,l,go,l,1,0.2875352554001438,,,,,,,,,,,,,,,,23,001,28,m,Psychologie,2023-01-17_09h05.00.722,00_bat_bachelor,2022.2.4,60.09583277331715,
,,,,,,,,,,,,0,0,0,0,195,0,195,0,,,,,,,195,,,1,64349.37414478829,,Y,d,go,d,1,0.3603541291849979,,,,,,,,,,,,,,,,23,001,28,m,Psychologie,2023-01-17_09h05.00.722,00_bat_bachelor,2022.2.4,60.09583277331715,
,,,,,,,,,,,,0,0,0,0,196,0,196,0,,,,,,,196,,,1,64350.84081801657,,Y,None,nogo,d,0,0.39787653524035704,,,,,,,,,,,,,,,,23,001,28,m,Psychologie,2023-01-17_09h05.00.722,00_bat_bachelor,2022.2.4,60.09583277331715,
,,,,,,,,,,,,0,0,0,0,197,0,197,0,,,,,,,197,,,1,64352.3408163196,,X,l,go,l,1,0.41661204130286933,,,,,,,,,,,,,,,,23,001,28,m,Psychologie,2023-01-17_09h05.00.722,00_bat_bachelor,2022.2.4,60.09583277331715,
,,,,,,,,,,,,0,0,0,0,198,0,198,0,,,,,,,198,,,1,64353.85774600836,,Y,d,go,d,1,0.3569475853764743,,,,,,,,,,,,,,,,23,001,28,m,Psychologie,2023-01-17_09h05.00.722,00_bat_bachelor,2022.2.4,60.09583277331715,
,,,,,,,,,,,,0,0,0,0,199,0,199,0,,,,,,,199,,,1,64355.32442602451,,X,l,go,l,1,0.344625167115737,,,,,,,,,,,,,,,,23,001,28,m,Psychologie,2023-01-17_09h05.00.722,00_bat_bachelor,2022.2.4,60.09583277331715,
,,,,,,,,,,,,0,0,0,0,200,0,200,0,,,,,,,200,,,1,64356.79076276811,,Y,d,go,d,1,0.3030470054545731,,,,,,,,,,,,,,,,23,001,28,m,Psychologie,2023-01-17_09h05.00.722,00_bat_bachelor,2022.2.4,60.09583277331715,
,,,,,,,,,,,,0,0,0,0,201,0,201,0,,,,,,,201,,,1,64358.20714462684,,X,l,go,l,1,0.40733834883212694,,,,,,,,,,,,,,,,23,001,28,m,Psychologie,2023-01-17_09h05.00.722,00_bat_bachelor,2022.2.4,60.09583277331715,
,,,,,,,,,,,,0,0,0,0,202,0,202,0,,,,,,,202,,,1,64359.72384983086,,Y,d,go,d,1,0.33086129499497474,,,,,,,,,,,,,,,,23,001,28,m,Psychologie,2023-01-17_09h05.00.722,00_bat_bachelor,2022.2.4,60.09583277331715,
,,,,,,,,,,,,0,0,0,0,203,0,203,0,,,,,,,203,,,1,64361.15725277223,,X,l,go,l,1,0.44894511653183145,,,,,,,,,,,,,,,,23,001,28,m,Psychologie,2023-01-17_09h05.00.722,00_bat_bachelor,2022.2.4,60.09583277331715,
,,,,,,,,,,,,0,0,0,0,204,0,204,0,,,,,,,204,,,1,64362.70730971766,,Y,d,go,d,1,0.3548831015250471,,,,,,,,,,,,,,,,23,001,28,m,Psychologie,2023-01-17_09h05.00.722,00_bat_bachelor,2022.2.4,60.09583277331715,
,,,,,,,,,,,,0,0,0,0,205,0,205,0,,,,,,,205,,,1,64364.17405567318,64364.97409698226,Y,None,nogo,None,1,,,,,,,,,,,,,,,,,23,001,28,m,Psychologie,2023-01-17_09h05.00.722,00_bat_bachelor,2022.2.4,60.09583277331715,
,,,,,,,,,,,,0,0,0,0,206,0,206,0,,,,,,,206,,,1,64365.9737808612,,X,l,go,l,1,0.3200002093690273,,,,,,,,,,,,,,,,23,001,28,m,Psychologie,2023-01-17_09h05.00.722,00_bat_bachelor,2022.2.4,60.09583277331715,
,,,,,,,,,,,,0,0,0,0,207,0,207,0,,,,,,,207,,,1,64367.407457741836,,Y,d,go,d,1,0.43877300025269506,,,,,,,,,,,,,,,,23,001,28,m,Psychologie,2023-01-17_09h05.00.722,00_bat_bachelor,2022.2.4,60.09583277331715,
,,,,,,,,,,,,0,0,0,0,208,0,208,0,,,,,,,208,,,1,64368.95751856605,64369.757440117595,Y,None,nogo,None,1,,,,,,,,,,,,,,,,,23,001,28,m,Psychologie,2023-01-17_09h05.00.722,00_bat_bachelor,2022.2.4,60.09583277331715,
,,,,,,,,,,,,0,0,0,0,209,0,209,0,,,,,,,209,,,1,64370.757201087414,,X,l,go,l,1,0.25682981574573205,,,,,,,,,,,,,,,,23,001,28,m,Psychologie,2023-01-17_09h05.00.722,00_bat_bachelor,2022.2.4,60.09583277331715,
,,,,,,,,,,,,0,0,0,0,210,0,210,0,,,,,,,210,,,1,64372.124172061,,Y,d,go,d,1,0.28202786413385184,,,,,,,,,,,,,,,,23,001,28,m,Psychologie,2023-01-17_09h05.00.722,00_bat_bachelor,2022.2.4,60.09583277331715,
,,,,,,,,,,,,0,0,0,0,211,0,211,0,,,,,,,211,,,1,64373.50724581466,,X,l,go,l,1,0.5639986365167715,,,,,,,,,,,,,,,,23,001,28,m,Psychologie,2023-01-17_09h05.00.722,00_bat_bachelor,2022.2.4,60.09583277331715,
,,,,,,,,,,,,0,0,0,0,212,0,212,0,,,,,,,212,,,1,64375.174100279226,,Y,d,go,d,1,0.38329569381676265,,,,,,,,,,,,,,,,23,001,28,m,Psychologie,2023-01-17_09h05.00.722,00_bat_bachelor,2022.2.4,60.09583277331715,
,,,,,,,,,,,,0,0,0,0,213,0,213,0,,,,,,,213,,,1,64376.65740865095,,X,l,go,l,1,0.30797839700608165,,,,,,,,,,,,,,,,23,001,28,m,Psychologie,2023-01-17_09h05.00.722,00_bat_bachelor,2022.2.4,60.09583277331715,
,,,,,,,,,,,,0,0,0,0,214,0,214,0,,,,,,,214,,,1,64378.0738671157,,Y,d,go,d,1,0.3006198551192938,,,,,,,,,,,,,,,,23,001,28,m,Psychologie,2023-01-17_09h05.00.722,00_bat_bachelor,2022.2.4,60.09583277331715,
,,,,,,,,,,,,0,0,0,0,215,0,215,0,,,,,,,215,,,1,64379.490757580235,,Y,None,nogo,l,0,0.4032311993105395,,,,,,,,,,,,,,,,23,001,28,m,Psychologie,2023-01-17_09h05.00.722,00_bat_bachelor,2022.2.4,60.09583277331715,
,,,,,,,,,,,,0,0,0,0,216,0,216,0,,,,,,,216,,,1,64381.00763635994,,X,l,go,l,1,0.2463590329462022,,,,,,,,,,,,,,,,23,001,28,m,Psychologie,2023-01-17_09h05.00.722,00_bat_bachelor,2022.2.4,60.09583277331715,
,,,,,,,,,,,,0,0,0,0,217,0,217,0,,,,,,,217,,,1,64382.35746455395,,Y,d,go,d,1,0.400605261183955,,,,,,,,,,,,,,,,23,001,28,m,Psychologie,2023-01-17_09h05.00.722,00_bat_bachelor,2022.2.4,60.09583277331715,
,,,,,,,,,,,,0,0,0,0,218,0,218,0,,,,,,,218,,,1,64383.873832788435,,X,l,go,l,1,0.3570314641292498,,,,,,,,,,,,,,,,23,001,28,m,Psychologie,2023-01-17_09h05.00.722,00_bat_bachelor,2022.2.4,60.09583277331715,
,,,,,,,,,,,,0,0,0,0,219,0,219,0,,,,,,,219,,,1,64385.34075619842,,X,None,nogo,d,0,0.2653398722213751,,,,,,,,,,,,,,,,23,001,28,m,Psychologie,2023-01-17_09h05.00.722,00_bat_bachelor,2022.2.4,60.09583277331715,
,,,,,,,,,,,,0,0,0,0,220,0,220,0,,,,,,,220,,,1,64386.70727965707,,Y,d,go,d,1,0.4822333428201091,,,,,,,,,,,,,,,,23,001,28,m,Psychologie,2023-01-17_09h05.00.722,00_bat_bachelor,2022.2.4,60.09583277331715,
,,,,,,,,,,,,0,0,0,0,221,0,221,0,,,,,,,221,,,1,64388.290840101414,,X,l,go,l,1,0.4029490176217223,,,,,,,,,,,,,,,,23,001,28,m,Psychologie,2023-01-17_09h05.00.722,00_bat_bachelor,2022.2.4,60.09583277331715,
,,,,,,,,,,,,0,0,0,0,222,0,222,0,,,,,,,222,,,1,64389.80704736628,,Y,d,go,d,1,0.3585829785333772,,,,,,,,,,,,,,,,23,001,28,m,Psychologie,2023-01-17_09h05.00.722,00_bat_bachelor,2022.2.4,60.09583277331715,
,,,,,,,,,,,,0,0,0,0,223,0,223,0,,,,,,,223,,,1,64391.273715261224,,X,l,go,l,1,0.36459606651987997,,,,,,,,,,,,,,,,23,001,28,m,Psychologie,2023-01-17_09h05.00.722,00_bat_bachelor,2022.2.4,60.09583277331715,
,,,,,,,,,,,,0,0,0,0,224,0,224,0,,,,,,,224,,,1,64392.740410792525,,Y,d,go,d,1,0.38515751109298435,,,,,,,,,,,,,,,,23,001,28,m,Psychologie,2023-01-17_09h05.00.722,00_bat_bachelor,2022.2.4,60.09583277331715,
,,,,,,,,,,,,0,0,0,0,225,0,225,0,,,,,,,225,,,1,64394.2404808531,,X,l,go,l,1,0.45339796286498313,,,,,,,,,,,,,,,,23,001,28,m,Psychologie,2023-01-17_09h05.00.722,00_bat_bachelor,2022.2.4,60.09583277331715,
,,,,,,,,,,,,0,0,0,0,226,0,226,0,,,,,,,226,,,1,64395.80741876004,,Y,d,go,d,1,0.39187847754874383,,,,,,,,,,,,,,,,23,001,28,m,Psychologie,2023-01-17_09h05.00.722,00_bat_bachelor,2022.2.4,60.09583277331715,
,,,,,,,,,,,,0,0,0,0,227,0,227,0,,,,,,,227,,,1,64397.30722554801,,Y,None,nogo,l,0,0.37944211993089993,,,,,,,,,,,,,,,,23,001,28,m,Psychologie,2023-01-17_09h05.00.722,00_bat_bachelor,2022.2.4,60.09583277331715,
,,,,,,,,,,,,0,0,0,0,228,0,228,0,,,,,,,228,,,1,64398.79072591965,,X,l,go,l,1,0.5753062673938985,,,,,,,,,,,,,,,,23,001,28,m,Psychologie,2023-01-17_09h05.00.722,00_bat_bachelor,2022.2.4,60.09583277331715,
,,,,,,,,,,,,0,0,0,0,229,0,229,0,,,,,,,229,,,1,64400.474048255,,Y,d,go,d,1,0.38031775586205185,,,,,,,,,,,,,,,,23,001,28,m,Psychologie,2023-01-17_09h05.00.722,00_bat_bachelor,2022.2.4,60.09583277331715,
,,,,,,,,,,,,0,0,0,0,230,0,230,0,,,,,,,230,,,1,64401.957402687316,,X,l,go,l,1,0.43227409432074637,,,,,,,,,,,,,,,,23,001,28,m,Psychologie,2023-01-17_09h05.00.722,00_bat_bachelor,2022.2.4,60.09583277331715,
,,,,,,,,,,,,0,0,0,0,231,0,231,0,,,,,,,231,,,1,64403.49115030732,64404.29112567703,X,None,nogo,None,1,,,,,,,,,,,,,,,,,23,001,28,m,Psychologie,2023-01-17_09h05.00.722,00_bat_bachelor,2022.2.4,60.09583277331715,
,,,,,,,,,,,,0,0,0,0,232,0,232,0,,,,,,,232,,,1,64405.29081391961,,Y,d,go,d,1,0.3944001732779725,,,,,,,,,,,,,,,,23,001,28,m,Psychologie,2023-01-17_09h05.00.722,00_bat_bachelor,2022.2.4,60.09583277331715,
,,,,,,,,,,,,0,0,0,0,233,0,233,0,,,,,,,233,,,1,64406.79138143448,,X,l,go,l,1,0.44841226830976666,,,,,,,,,,,,,,,,23,001,28,m,Psychologie,2023-01-17_09h05.00.722,00_bat_bachelor,2022.2.4,60.09583277331715,
,,,,,,,,,,,,0,0,0,0,234,0,234,0,,,,,,,234,,,1,64408.340984561946,64409.14104623464,X,None,nogo,None,1,,,,,,,,,,,,,,,,,23,001,28,m,Psychologie,2023-01-17_09h05.00.722,00_bat_bachelor,2022.2.4,60.09583277331715,
,,,,,,,,,,,,0,0,0,0,235,0,235,0,,,,,,,235,,,1,64410.141136901264,,Y,d,go,d,1,0.3930314466742857,,,,,,,,,,,,,,,,23,001,28,m,Psychologie,2023-01-17_09h05.00.722,00_bat_bachelor,2022.2.4,60.09583277331715,
,,,,,,,,,,,,0,0,0,0,236,0,236,0,,,,,,,236,,,1,64411.65749592363,,X,l,go,l,1,0.28464604467808385,,,,,,,,,,,,,,,,23,001,28,m,Psychologie,2023-01-17_09h05.00.722,00_bat_bachelor,2022.2.4,60.09583277331715,
,,,,,,,,,,,,0,0,0,0,237,0,237,0,,,,,,,237,,,1,64413.057721668985,,Y,d,go,d,1,0.388147085399396,,,,,,,,,,,,,,,,23,001,28,m,Psychologie,2023-01-17_09h05.00.722,00_bat_bachelor,2022.2.4,60.09583277331715,
,,,,,,,,,,,,0,0,0,0,238,0,238,0,,,,,,,238,,,1,64414.55772966897,,Y,None,nogo,l,0,0.3434188646679104,,,,,,,,,,,,,,,,23,001,28,m,Psychologie,2023-01-17_09h05.00.722,00_bat_bachelor,2022.2.4,60.09583277331715,
,,,,,,,,,,,,0,0,0,0,239,0,239,0,,,,,,,239,,,1,64416.02406447318,,X,l,go,l,1,0.2861539227342291,,,,,,,,,,,,,,,,23,001,28,m,Psychologie,2023-01-17_09h05.00.722,00_bat_bachelor,2022.2.4,60.09583277331715,
,,,,,,,,,,,,0,0,0,0,240,0,240,0,,,,,,,240,,,1,64417.42393676414,,Y,d,go,d,1,0.311032940971927,,,,,,,,,,,,,,,,23,001,28,m,Psychologie,2023-01-17_09h05.00.722,00_bat_bachelor,2022.2.4,60.09583277331715,
,,,,,,,,,,,,0,0,0,0,241,0,241,0,,,,,,,241,,,1,64418.84036322891,,X,l,go,l,1,0.3968554448110808,,,,,,,,,,,,,,,,23,001,28,m,Psychologie,2023-01-17_09h05.00.722,00_bat_bachelor,2022.2.4,60.09583277331715,
,,,,,,,,,,,,0,0,0,0,242,0,242,0,,,,,,,242,,,1,64420.35796006887,,Y,d,go,d,1,0.28731901308128727,,,,,,,,,,,,,,,,23,001,28,m,Psychologie,2023-01-17_09h05.00.722,00_bat_bachelor,2022.2.4,60.09583277331715,
,,,,,,,,,,,,0,0,0,0,243,0,243,0,,,,,,,243,,,1,64421.79124713151,,X,l,go,l,1,0.3576360698971257,,,,,,,,,,,,,,,,23,001,28,m,Psychologie,2023-01-17_09h05.00.722,00_bat_bachelor,2022.2.4,60.09583277331715,
,,,,,,,,,,,,0,0,0,0,244,0,244,0,,,,,,,244,,,1,64423.29129343452,,Y,d,go,d,1,0.2502596371086838,,,,,,,,,,,,,,,,23,001,28,m,Psychologie,2023-01-17_09h05.00.722,00_bat_bachelor,2022.2.4,60.09583277331715,
,,,,,,,,,,,,0,0,0,0,245,0,245,0,,,,,,,245,,,1,64424.674613975934,64425.47507807269,X,l,go,None,0,,,,,,,,,,,,,,,,,23,001,28,m,Psychologie,2023-01-17_09h05.00.722,00_bat_bachelor,2022.2.4,60.09583277331715,
,,,,,,,,,,,,0,0,0,0,246,0,246,0,,,,,,,246,,,1,64426.47473625468,,Y,d,go,d,1,0.3944733853604703,,,,,,,,,,,,,,,,23,001,28,m,Psychologie,2023-01-17_09h05.00.722,00_bat_bachelor,2022.2.4,60.09583277331715,
,,,,,,,,,,,,0,0,0,0,247,0,247,0,,,,,,,247,,,1,64428.007944238576,,X,l,go,l,1,0.5250910189970455,,,,,,,,,,,,,,,,23,001,28,m,Psychologie,2023-01-17_09h05.00.722,00_bat_bachelor,2022.2.4,60.09583277331715,
,,,,,,,,,,,,0,0,0,0,248,0,248,0,,,,,,,248,,,1,64429.67454803658,,Y,d,go,d,1,0.3470877113613824,,,,,,,,,,,,,,,,23,001,28,m,Psychologie,2023-01-17_09h05.00.722,00_bat_bachelor,2022.2.4,60.09583277331715,
,,,,,,,,,,,,0,0,0,0,249,0,249,0,,,,,,,249,,,1,64431.14138320417,64431.96937116636,X,l,go,None,0,,,,,,,,,,,,,,,,,23,001,28,m,Psychologie,2023-01-17_09h05.00.722,00_bat_bachelor,2022.2.4,60.09583277331715,
,,,,,,,,,,,,1,0,1,0,0,0,0,0,,,,,,,0,,,0.2,64443.10774685684,,X,l,go,l,1,0.6102342504491389,,,,,,,,64431.96937116636,space,10.91953446412299,,,,,,23,001,28,m,Psychologie,2023-01-17_09h05.00.722,00_bat_bachelor,2022.2.4,60.09583277331715,
,,,,,,,,,,,,1,0,1,0,1,0,1,0,,,,,,,1,,,0.2,64444.024213321594,,Y,d,go,d,1,0.4123162858049909,,,,,,,,,,,,,,,,23,001,28,m,Psychologie,2023-01-17_09h05.00.722,00_bat_bachelor,2022.2.4,60.09583277331715,
,,,,,,,,,,,,1,0,1,0,2,0,2,0,,,,,,,2,,,0.2,64444.7577053296,,X,l,go,l,1,0.480324010412005,,,,,,,,,,,,,,,,23,001,28,m,Psychologie,2023-01-17_09h05.00.722,00_bat_bachelor,2022.2.4,60.09583277331715,
,,,,,,,,,,,,1,0,1,0,3,0,3,0,,,,,,,3,,,0.2,64445.541106646735,,X,None,nogo,l,0,0.48077879807169666,,,,,,,,,,,,,,,,23,001,28,m,Psychologie,2023-01-17_09h05.00.722,00_bat_bachelor,2022.2.4,60.09583277331715,
,,,,,,,,,,,,1,0,1,0,4,0,4,0,,,,,,,4,,,0.2,64446.324434266935,,Y,d,go,d,1,0.497508971766365,,,,,,,,,,,,,,,,23,001,28,m,Psychologie,2023-01-17_09h05.00.722,00_bat_bachelor,2022.2.4,60.09583277331715,
,,,,,,,,,,,,1,0,1,0,5,0,5,0,,,,,,,5,,,0.2,64447.124441151784,64447.924459672984,X,l,go,None,0,,,,,,,,,,,,,,,,,23,001,28,m,Psychologie,2023-01-17_09h05.00.722,00_bat_bachelor,2022.2.4,60.09583277331715,
,,,,,,,,,,,,1,0,1,0,6,0,6,0,,,,,,,6,,,0.2,64448.12444648512,64448.92449070327,X,None,nogo,None,1,,,,,,,,,,,,,,,,,23,001,28,m,Psychologie,2023-01-17_09h05.00.722,00_bat_bachelor,2022.2.4,60.09583277331715,
,,,,,,,,,,,,1,0,1,0,7,0,7,0,,,,,,,7,,,0.2,64449.124178848884,,X,None,nogo,l,0,0.4655225630449422,,,,,,,,,,,,,,,,23,001,28,m,Psychologie,2023-01-17_09h05.00.722,00_bat_bachelor,2022.2.4,60.09583277331715,
,,,,,,,,,,,,1,0,1,0,8,0,8,0,,,,,,,8,,,0.2,64449.89084465898,,Y,d,go,d,1,0.4023511997402238,,,,,,,,,,,,,,,,23,001,28,m,Psychologie,2023-01-17_09h05.00.722,00_bat_bachelor,2022.2.4,60.09583277331715,
,,,,,,,,,,,,1,0,1,0,9,0,9,0,,,,,,,9,,,0.2,64450.607671462945,,X,l,go,l,1,0.6151811571508006,,,,,,,,,,,,,,,,23,001,28,m,Psychologie,2023-01-17_09h05.00.722,00_bat_bachelor,2022.2.4,60.09583277331715,
,,,,,,,,,,,,1,0,1,0,10,0,10,0,,,,,,,10,,,0.2,64451.523981806546,64452.32400857017,X,None,nogo,None,1,,,,,,,,,,,,,,,,,23,001,28,m,Psychologie,2023-01-17_09h05.00.722,00_bat_bachelor,2022.2.4,60.09583277331715,
,,,,,,,,,,,,1,0,1,0,11,0,11,0,,,,,,,11,,,0.2,64452.524179139786,,Y,d,go,d,1,0.34682492362117046,,,,,,,,,,,,,,,,23,001,28,m,Psychologie,2023-01-17_09h05.00.722,00_bat_bachelor,2022.2.4,60.09583277331715,
,,,,,,,,,,,,1,0,1,0,12,0,12,0,,,,,,,12,,,0.2,64453.174013976226,,X,l,go,l,1,0.41599095068886527,,,,,,,,,,,,,,,,23,001,28,m,Psychologie,2023-01-17_09h05.00.722,00_bat_bachelor,2022.2.4,60.09583277331715,
,,,,,,,,,,,,1,0,1,0,13,0,13,0,,,,,,,13,,,0.2,64453.89091447713,,Y,d,go,d,1,0.3222276022170263,,,,,,,,,,,,,,,,23,001,28,m,Psychologie,2023-01-17_09h05.00.722,00_bat_bachelor,2022.2.4,60.09583277331715,
,,,,,,,,,,,,1,0,1,0,14,0,14,0,,,,,,,14,,,0.2,64454.524173806465,,X,l,go,l,1,0.4413751808060624,,,,,,,,,,,,,,,,23,001,28,m,Psychologie,2023-01-17_09h05.00.722,00_bat_bachelor,2022.2.4,60.09583277331715,
,,,,,,,,,,,,1,0,1,0,15,0,15,0,,,,,,,15,,,0.2,64455.27435089728,,Y,d,go,d,1,0.31631827175806393,,,,,,,,,,,,,,,,23,001,28,m,Psychologie,2023-01-17_09h05.00.722,00_bat_bachelor,2022.2.4,60.09583277331715,
,,,,,,,,,,,,1,0,1,0,16,0,16,0,,,,,,,16,,,0.2,64455.89092174986,64456.69084718019,Y,None,nogo,None,1,,,,,,,,,,,,,,,,,23,001,28,m,Psychologie,2023-01-17_09h05.00.722,00_bat_bachelor,2022.2.4,60.09583277331715,
,,,,,,,,,,,,1,0,1,0,17,0,17,0,,,,,,,17,,,0.2,64456.89082090142,,X,l,go,l,1,0.2990751285869919,,,,,,,,,,,,,,,,23,001,28,m,Psychologie,2023-01-17_09h05.00.722,00_bat_bachelor,2022.2.4,60.09583277331715,
,,,,,,,,,,,,1,0,1,0,18,0,18,0,,,,,,,18,,,0.2,64457.49068776208,,Y,d,go,d,1,0.32368214696543873,,,,,,,,,,,,,,,,23,001,28,m,Psychologie,2023-01-17_09h05.00.722,00_bat_bachelor,2022.2.4,60.09583277331715,
,,,,,,,,,,,,1,0,1,0,19,0,19,0,,,,,,,19,,,0.2,64458.12426175793,64458.92419058221,Y,None,nogo,None,1,,,,,,,,,,,,,,,,,23,001,28,m,Psychologie,2023-01-17_09h05.00.722,00_bat_bachelor,2022.2.4,60.09583277331715,
,,,,,,,,,,,,1,0,1,0,20,0,20,0,,,,,,,20,,,0.2,64459.124174000404,,X,l,go,l,1,0.25723902766549145,,,,,,,,,,,,,,,,23,001,28,m,Psychologie,2023-01-17_09h05.00.722,00_bat_bachelor,2022.2.4,60.09583277331715,
,,,,,,,,,,,,1,0,1,0,21,0,21,0,,,,,,,21,,,0.2,64459.69062608939,,Y,d,go,d,1,0.283727742080373,,,,,,,,,,,,,,,,23,001,28,m,Psychologie,2023-01-17_09h05.00.722,00_bat_bachelor,2022.2.4,60.09583277331715,
,,,,,,,,,,,,1,0,1,0,22,0,22,0,,,,,,,22,,,0.2,64460.274200109474,,X,l,go,l,1,0.43581736531996285,,,,,,,,,,,,,,,,23,001,28,m,Psychologie,2023-01-17_09h05.00.722,00_bat_bachelor,2022.2.4,60.09583277331715,
,,,,,,,,,,,,1,0,1,0,23,0,23,0,,,,,,,23,,,0.2,64461.024340351825,,Y,d,go,d,1,0.30989791122919996,,,,,,,,,,,,,,,,23,001,28,m,Psychologie,2023-01-17_09h05.00.722,00_bat_bachelor,2022.2.4,60.09583277331715,
,,,,,,,,,,,,1,0,1,0,24,0,24,0,,,,,,,24,,,0.2,64461.64102950737,64462.44073578631,Y,None,nogo,None,1,,,,,,,,,,,,,,,,,23,001,28,m,Psychologie,2023-01-17_09h05.00.722,00_bat_bachelor,2022.2.4,60.09583277331715,
,,,,,,,,,,,,1,0,1,0,25,0,25,0,,,,,,,25,,,0.2,64462.64064453787,,X,l,go,l,1,0.4527506904596521,,,,,,,,,,,,,,,,23,001,28,m,Psychologie,2023-01-17_09h05.00.722,00_bat_bachelor,2022.2.4,60.09583277331715,
,,,,,,,,,,,,1,0,1,0,26,0,26,0,,,,,,,26,,,0.2,64463.40749507515,,Y,d,go,d,1,0.262050661684043,,,,,,,,,,,,,,,,23,001,28,m,Psychologie,2023-01-17_09h05.00.722,00_bat_bachelor,2022.2.4,60.09583277331715,
,,,,,,,,,,,,1,0,1,0,27,0,27,0,,,,,,,27,,,0.2,64463.97417746707,,X,l,go,l,1,0.36760309536839486,,,,,,,,,,,,,,,,23,001,28,m,Psychologie,2023-01-17_09h05.00.722,00_bat_bachelor,2022.2.4,60.09583277331715,
,,,,,,,,,,,,1,0,1,0,28,0,28,0,,,,,,,28,,,0.2,64464.657505620606,,Y,d,go,d,1,0.2614635104582703,,,,,,,,,,,,,,,,23,001,28,m,Psychologie,2023-01-17_09h05.00.722,00_bat_bachelor,2022.2.4,60.09583277331715,
,,,,,,,,,,,,1,0,1,0,29,0,29,0,,,,,,,29,,,0.2,64465.22420546705,,X,l,go,l,1,0.31729136217109044,,,,,,,,,,,,,,,,23,001,28,m,Psychologie,2023-01-17_09h05.00.722,00_bat_bachelor,2022.2.4,60.09583277331715,
,,,,,,,,,,,,1,0,1,0,30,0,30,0,,,,,,,30,,,0.2,64465.85750261454,,Y,d,go,d,1,0.26124241967409034,,,,,,,,,,,,,,,,23,001,28,m,Psychologie,2023-01-17_09h05.00.722,00_bat_bachelor,2022.2.4,60.09583277331715,
,,,,,,,,,,,,1,0,1,0,31,0,31,0,,,,,,,31,,,0.2,64466.42400706715,,X,l,go,l,1,0.34990371001549647,,,,,,,,,,,,,,,,23,001,28,m,Psychologie,2023-01-17_09h05.00.722,00_bat_bachelor,2022.2.4,60.09583277331715,
,,,,,,,,,,,,1,0,1,0,32,0,32,0,,,,,,,32,,,0.2,64467.07399560048,64467.87399181866,X,None,nogo,None,1,,,,,,,,,,,,,,,,,23,001,28,m,Psychologie,2023-01-17_09h05.00.722,00_bat_bachelor,2022.2.4,60.09583277331715,
,,,,,,,,,,,,1,0,1,0,33,0,33,0,,,,,,,33,,,0.2,64468.07417741857,,Y,d,go,l,0,0.39609035429384676,,,,,,,,,,,,,,,,23,001,28,m,Psychologie,2023-01-17_09h05.00.722,00_bat_bachelor,2022.2.4,60.09583277331715,
,,,,,,,,,,,,1,0,1,0,34,0,34,0,,,,,,,34,,,0.2,64468.77416010949,,X,l,go,l,1,0.4155802842324192,,,,,,,,,,,,,,,,23,001,28,m,Psychologie,2023-01-17_09h05.00.722,00_bat_bachelor,2022.2.4,60.09583277331715,
,,,,,,,,,,,,1,0,1,0,35,0,35,0,,,,,,,35,,,0.2,64469.49089139835,,Y,d,go,d,1,0.37068285144414403,,,,,,,,,,,,,,,,23,001,28,m,Psychologie,2023-01-17_09h05.00.722,00_bat_bachelor,2022.2.4,60.09583277331715,
,,,,,,,,,,,,1,0,1,0,36,0,36,0,,,,,,,36,,,0.2,64470.17418221857,,X,l,go,l,1,0.3920021138364973,,,,,,,,,,,,,,,,23,001,28,m,Psychologie,2023-01-17_09h05.00.722,00_bat_bachelor,2022.2.4,60.09583277331715,
,,,,,,,,,,,,1,0,1,0,37,0,37,0,,,,,,,37,,,0.2,64470.87427109126,,Y,d,go,d,1,0.2673258106551657,,,,,,,,,,,,,,,,23,001,28,m,Psychologie,2023-01-17_09h05.00.722,00_bat_bachelor,2022.2.4,60.09583277331715,
,,,,,,,,,,,,1,0,1,0,38,0,38,0,,,,,,,38,,,0.2,64471.4573592934,,X,l,go,l,1,0.3399924420991738,,,,,,,,,,,,,,,,23,001,28,m,Psychologie,2023-01-17_09h05.00.722,00_bat_bachelor,2022.2.4,60.09583277331715,
,,,,,,,,,,,,1,0,1,0,39,0,39,0,,,,,,,39,,,0.2,64472.10742540246,,Y,d,go,d,1,0.3937519311766664,,,,,,,,,,,,,,,,23,001,28,m,Psychologie,2023-01-17_09h05.00.722,00_bat_bachelor,2022.2.4,60.09583277331715,
,,,,,,,,,,,,1,0,1,0,40,0,40,0,,,,,,,40,,,0.2,64472.807517184236,64473.607508553934,Y,None,nogo,None,1,,,,,,,,,,,,,,,,,23,001,28,m,Psychologie,2023-01-17_09h05.00.722,00_bat_bachelor,2022.2.4,60.09583277331715,
,,,,,,,,,,,,1,0,1,0,41,0,41,0,,,,,,,41,,,0.2,64473.80739015399,,X,l,go,l,1,0.35925691758529865,,,,,,,,,,,,,,,,23,001,28,m,Psychologie,2023-01-17_09h05.00.722,00_bat_bachelor,2022.2.4,60.09583277331715,
,,,,,,,,,,,,1,0,1,0,42,0,42,0,,,,,,,42,,,0.2,64474.47417286101,,Y,d,go,d,1,0.26722932585471426,,,,,,,,,,,,,,,,23,001,28,m,Psychologie,2023-01-17_09h05.00.722,00_bat_bachelor,2022.2.4,60.09583277331715,
,,,,,,,,,,,,1,0,1,0,43,0,43,0,,,,,,,43,,,0.2,64475.05732651765,,X,l,go,l,1,0.35786297888625995,,,,,,,,,,,,,,,,23,001,28,m,Psychologie,2023-01-17_09h05.00.722,00_bat_bachelor,2022.2.4,60.09583277331715,
,,,,,,,,,,,,1,0,1,0,44,0,44,0,,,,,,,44,,,0.2,64475.72428473974,,Y,d,go,d,1,0.3305951133115741,,,,,,,,,,,,,,,,23,001,28,m,Psychologie,2023-01-17_09h05.00.722,00_bat_bachelor,2022.2.4,60.09583277331715,
,,,,,,,,,,,,1,0,1,0,45,0,45,0,,,,,,,45,,,0.2,64476.35742964488,,X,l,go,l,1,0.4166023443431186,,,,,,,,,,,,,,,,23,001,28,m,Psychologie,2023-01-17_09h05.00.722,00_bat_bachelor,2022.2.4,60.09583277331715,
,,,,,,,,,,,,1,0,1,0,46,0,46,0,,,,,,,46,,,0.2,64477.074159964046,64477.87397727322,X,None,nogo,None,1,,,,,,,,,,,,,,,,,23,001,28,m,Psychologie,2023-01-17_09h05.00.722,00_bat_bachelor,2022.2.4,60.09583277331715,
,,,,,,,,,,,,1,0,1,0,47,0,47,0,,,,,,,47,,,0.2,64478.07417499434,,Y,d,go,l,0,0.23510182627433096,,,,,,,,,,,,,,,,23,001,28,m,Psychologie,2023-01-17_09h05.00.722,00_bat_bachelor,2022.2.4,60.09583277331715,
,,,,,,,,,,,,1,0,1,0,48,0,48,0,,,,,,,48,,,0.2,64478.62409133377,,X,l,go,l,1,0.3742780012289586,,,,,,,,,,,,,,,,23,001,28,m,Psychologie,2023-01-17_09h05.00.722,00_bat_bachelor,2022.2.4,60.09583277331715,
,,,,,,,,,,,,1,0,1,0,49,0,49,0,,,,,,,49,,,0.2,64479.30749900242,,Y,d,go,d,1,0.3143236060459458,,,,,,,,,,,,,,,,23,001,28,m,Psychologie,2023-01-17_09h05.00.722,00_bat_bachelor,2022.2.4,60.09583277331715,
,,,,,,,,,,,,1,0,1,0,50,0,50,0,,,,,,,50,,,0.2,64479.92420415796,,Y,None,nogo,l,0,0.35351631432786235,,,,,,,,,,,,,,,,23,001,28,m,Psychologie,2023-01-17_09h05.00.722,00_bat_bachelor,2022.2.4,60.09583277331715,
,,,,,,,,,,,,1,0,1,0,51,0,51,0,,,,,,,51,,,0.2,64480.59066347119,64481.390780416594,Y,None,nogo,None,1,,,,,,,,,,,,,,,,,23,001,28,m,Psychologie,2023-01-17_09h05.00.722,00_bat_bachelor,2022.2.4,60.09583277331715,
,,,,,,,,,,,,1,0,1,0,52,0,52,0,,,,,,,52,,,0.2,64481.590884561985,,X,l,go,l,1,0.367304913688713,,,,,,,,,,,,,,,,23,001,28,m,Psychologie,2023-01-17_09h05.00.722,00_bat_bachelor,2022.2.4,60.09583277331715,
,,,,,,,,,,,,1,0,1,0,53,0,53,0,,,,,,,53,,,0.2,64482.27416956403,,Y,d,go,d,1,0.307899851588445,,,,,,,,,,,,,,,,23,001,28,m,Psychologie,2023-01-17_09h05.00.722,00_bat_bachelor,2022.2.4,60.09583277331715,
,,,,,,,,,,,,1,0,1,0,54,0,54,0,,,,,,,54,,,0.2,64482.89083205293,,Y,None,nogo,l,0,0.3468913478318427,,,,,,,,,,,,,,,,23,001,28,m,Psychologie,2023-01-17_09h05.00.722,00_bat_bachelor,2022.2.4,60.09583277331715,
,,,,,,,,,,,,1,0,1,0,55,0,55,0,,,,,,,55,,,0.2,64483.54071101056,64484.34090116805,X,l,go,None,0,,,,,,,,,,,,,,,,,23,001,28,m,Psychologie,2023-01-17_09h05.00.722,00_bat_bachelor,2022.2.4,60.09583277331715,
,,,,,,,,,,,,1,0,1,0,56,0,56,0,,,,,,,56,,,0.2,64484.54083561656,,Y,d,go,d,1,0.40991968090020237,,,,,,,,,,,,,,,,23,001,28,m,Psychologie,2023-01-17_09h05.00.722,00_bat_bachelor,2022.2.4,60.09583277331715,
,,,,,,,,,,,,1,0,1,0,57,0,57,0,,,,,,,57,,,0.2,64485.25745684486,64486.0573279722,Y,None,nogo,None,1,,,,,,,,,,,,,,,,,23,001,28,m,Psychologie,2023-01-17_09h05.00.722,00_bat_bachelor,2022.2.4,60.09583277331715,
,,,,,,,,,,,,1,0,1,0,58,0,58,0,,,,,,,58,,,0.2,64486.257489814554,,Y,None,nogo,l,0,0.3086111239717866,,,,,,,,,,,,,,,,23,001,28,m,Psychologie,2023-01-17_09h05.00.722,00_bat_bachelor,2022.2.4,60.09583277331715,
,,,,,,,,,,,,1,0,1,0,59,0,59,0,,,,,,,59,,,0.2,64486.87400248533,,X,l,go,l,1,0.6354386018683726,,,,,,,,,,,,,,,,23,001,28,m,Psychologie,2023-01-17_09h05.00.722,00_bat_bachelor,2022.2.4,60.09583277331715,
,,,,,,,,,,,,1,0,1,0,60,0,60,0,,,,,,,60,,,0.2,64487.82406360045,,Y,d,go,d,1,0.406802591507585,,,,,,,,,,,,,,,,23,001,28,m,Psychologie,2023-01-17_09h05.00.722,00_bat_bachelor,2022.2.4,60.09583277331715,
,,,,,,,,,,,,1,0,1,0,61,0,61,0,,,,,,,61,,,0.2,64488.541021313446,,X,l,go,l,1,0.31399924257493694,,,,,,,,,,,,,,,,23,001,28,m,Psychologie,2023-01-17_09h05.00.722,00_bat_bachelor,2022.2.4,60.09583277331715,
,,,,,,,,,,,,1,0,1,0,62,0,62,0,,,,,,,62,,,0.2,64489.15736428734,,Y,d,go,d,1,0.38420478429543437,,,,,,,,,,,,,,,,23,001,28,m,Psychologie,2023-01-17_09h05.00.722,00_bat_bachelor,2022.2.4,60.09583277331715,
,,,,,,,,,,,,1,0,1,0,63,0,63,0,,,,,,,63,,,0.2,64489.857568553896,64490.65749543879,Y,None,nogo,None,1,,,,,,,,,,,,,,,,,23,001,28,m,Psychologie,2023-01-17_09h05.00.722,00_bat_bachelor,2022.2.4,60.09583277331715,
,,,,,,,,,,,,1,0,1,0,64,0,64,0,,,,,,,64,,,0.2,64490.85756709936,,X,l,go,l,1,0.30065815813213703,,,,,,,,,,,,,,,,23,001,28,m,Psychologie,2023-01-17_09h05.00.722,00_bat_bachelor,2022.2.4,60.09583277331715,
,,,,,,,,,,,,1,0,1,0,65,0,65,0,,,,,,,65,,,0.2,64491.47412292163,,Y,d,go,d,1,0.3083173059312685,,,,,,,,,,,,,,,,23,001,28,m,Psychologie,2023-01-17_09h05.00.722,00_bat_bachelor,2022.2.4,60.09583277331715,
,,,,,,,,,,,,1,0,1,0,66,0,66,0,,,,,,,66,,,0.2,64492.09082953172,64492.89080684082,Y,None,nogo,None,1,,,,,,,,,,,,,,,,,23,001,28,m,Psychologie,2023-01-17_09h05.00.722,00_bat_bachelor,2022.2.4,60.09583277331715,
,,,,,,,,,,,,1,0,1,0,67,0,67,0,,,,,,,67,,,0.2,64493.09114904671,,X,l,go,l,1,0.30737039730956894,,,,,,,,,,,,,,,,23,001,28,m,Psychologie,2023-01-17_09h05.00.722,00_bat_bachelor,2022.2.4,60.09583277331715,
,,,,,,,,,,,,1,0,1,0,68,0,68,0,,,,,,,68,,,0.2,64493.70745129335,,Y,d,go,d,1,0.34695146901140106,,,,,,,,,,,,,,,,23,001,28,m,Psychologie,2023-01-17_09h05.00.722,00_bat_bachelor,2022.2.4,60.09583277331715,
,,,,,,,,,,,,1,0,1,0,69,0,69,0,,,,,,,69,,,0.2,64494.357299705545,,X,l,go,l,1,0.5122008434445888,,,,,,,,,,,,,,,,23,001,28,m,Psychologie,2023-01-17_09h05.00.722,00_bat_bachelor,2022.2.4,60.09583277331715,
,,,,,,,,,,,,1,0,1,0,70,0,70,0,,,,,,,70,,,0.2,64495.174140036775,,Y,d,go,d,1,0.3194969368814782,,,,,,,,,,,,,,,,23,001,28,m,Psychologie,2023-01-17_09h05.00.722,00_bat_bachelor,2022.2.4,60.09583277331715,
,,,,,,,,,,,,1,0,1,0,71,0,71,0,,,,,,,71,,,0.2,64495.80756082057,,Y,None,nogo,l,0,0.3265912364622636,,,,,,,,,,,,,,,,23,001,28,m,Psychologie,2023-01-17_09h05.00.722,00_bat_bachelor,2022.2.4,60.09583277331715,
,,,,,,,,,,,,1,0,1,0,72,0,72,0,,,,,,,72,,,0.2,64496.440939422566,64497.24081345899,Y,None,nogo,None,1,,,,,,,,,,,,,,,,,23,001,28,m,Psychologie,2023-01-17_09h05.00.722,00_bat_bachelor,2022.2.4,60.09583277331715,
,,,,,,,,,,,,1,0,1,0,73,0,73,0,,,,,,,73,,,0.2,64497.44110281643,,X,l,go,l,1,0.3414479565290094,,,,,,,,,,,,,,,,23,001,28,m,Psychologie,2023-01-17_09h05.00.722,00_bat_bachelor,2022.2.4,60.09583277331715,
,,,,,,,,,,,,1,0,1,0,74,0,74,0,,,,,,,74,,,0.2,64498.09110153158,,Y,d,go,d,1,0.3637359457243292,,,,,,,,,,,,,,,,23,001,28,m,Psychologie,2023-01-17_09h05.00.722,00_bat_bachelor,2022.2.4,60.09583277331715,
,,,,,,,,,,,,1,0,1,0,75,0,75,0,,,,,,,75,,,0.2,64498.7574842388,,X,l,go,l,1,0.44801760182963335,,,,,,,,,,,,,,,,23,001,28,m,Psychologie,2023-01-17_09h05.00.722,00_bat_bachelor,2022.2.4,60.09583277331715,
,,,,,,,,,,,,1,0,1,0,76,0,76,0,,,,,,,76,,,0.2,64499.50750181454,,Y,d,go,d,1,0.322912692794489,,,,,,,,,,,,,,,,23,001,28,m,Psychologie,2023-01-17_09h05.00.722,00_bat_bachelor,2022.2.4,60.09583277331715,
,,,,,,,,,,,,1,0,1,0,77,0,77,0,,,,,,,77,,,0.2,64500.140909507434,,Y,None,nogo,l,0,0.3623211585399986,,,,,,,,,,,,,,,,23,001,28,m,Psychologie,2023-01-17_09h05.00.722,00_bat_bachelor,2022.2.4,60.09583277331715,
,,,,,,,,,,,,1,0,1,0,78,0,78,0,,,,,,,78,,,0.2,64500.8074846994,,X,l,go,l,1,0.4784704355588474,,,,,,,,,,,,,,,,23,001,28,m,Psychologie,2023-01-17_09h05.00.722,00_bat_bachelor,2022.2.4,60.09583277331715,
,,,,,,,,,,,,1,0,1,0,79,0,79,0,,,,,,,79,,,0.2,64501.59058783486,,Y,d,go,d,1,0.35086710348332417,,,,,,,,,,,,,,,,23,001,28,m,Psychologie,2023-01-17_09h05.00.722,00_bat_bachelor,2022.2.4,60.09583277331715,
,,,,,,,,,,,,1,0,1,0,80,0,80,0,,,,,,,80,,,0.2,64502.25736957218,,X,l,go,l,1,0.42021252440827084,,,,,,,,,,,,,,,,23,001,28,m,Psychologie,2023-01-17_09h05.00.722,00_bat_bachelor,2022.2.4,60.09583277331715,
,,,,,,,,,,,,1,0,1,0,81,0,81,0,,,,,,,81,,,0.2,64502.99060655001,,Y,d,go,d,1,0.3262993578136957,,,,,,,,,,,,,,,,23,001,28,m,Psychologie,2023-01-17_09h05.00.722,00_bat_bachelor,2022.2.4,60.09583277331715,
,,,,,,,,,,,,1,0,1,0,82,0,82,0,,,,,,,82,,,0.2,64503.62414709132,,Y,None,nogo,l,0,0.31816117994094384,,,,,,,,,,,,,,,,23,001,28,m,Psychologie,2023-01-17_09h05.00.722,00_bat_bachelor,2022.2.4,60.09583277331715,
,,,,,,,,,,,,1,0,1,0,83,0,83,0,,,,,,,83,,,0.2,64504.257626056904,,X,l,go,l,1,0.46762971353382454,,,,,,,,,,,,,,,,23,001,28,m,Psychologie,2023-01-17_09h05.00.722,00_bat_bachelor,2022.2.4,60.09583277331715,
,,,,,,,,,,,,1,0,1,0,84,0,84,0,,,,,,,84,,,0.2,64505.04111561642,,Y,d,go,d,1,0.29243804091311176,,,,,,,,,,,,,,,,23,001,28,m,Psychologie,2023-01-17_09h05.00.722,00_bat_bachelor,2022.2.4,60.09583277331715,
,,,,,,,,,,,,1,0,1,0,85,0,85,0,,,,,,,85,,,0.2,64505.65762634782,,X,l,go,l,1,0.58720104951135,,,,,,,,,,,,,,,,23,001,28,m,Psychologie,2023-01-17_09h05.00.722,00_bat_bachelor,2022.2.4,60.09583277331715,
,,,,,,,,,,,,1,0,1,0,86,0,86,0,,,,,,,86,,,0.2,64506.57432311548,,Y,d,go,d,1,0.32732578156355885,,,,,,,,,,,,,,,,23,001,28,m,Psychologie,2023-01-17_09h05.00.722,00_bat_bachelor,2022.2.4,60.09583277331715,
,,,,,,,,,,,,1,0,1,0,87,0,87,0,,,,,,,87,,,0.2,64507.20760426298,64508.00777405684,Y,None,nogo,None,1,,,,,,,,,,,,,,,,,23,001,28,m,Psychologie,2023-01-17_09h05.00.722,00_bat_bachelor,2022.2.4,60.09583277331715,
,,,,,,,,,,,,1,0,1,0,88,0,88,0,,,,,,,88,,,0.2,64508.20760862662,,X,l,go,l,1,0.21341795800617547,,,,,,,,,,,,,,,,23,001,28,m,Psychologie,2023-01-17_09h05.00.722,00_bat_bachelor,2022.2.4,60.09583277331715,
,,,,,,,,,,,,1,0,1,0,89,0,89,0,,,,,,,89,,,0.2,64508.72449564873,,Y,d,go,d,1,0.3528399509996234,,,,,,,,,,,,,,,,23,001,28,m,Psychologie,2023-01-17_09h05.00.722,00_bat_bachelor,2022.2.4,60.09583277331715,
,,,,,,,,,,,,1,0,1,0,90,0,90,0,,,,,,,90,,,0.2,64509.407699681105,,X,l,go,l,1,0.38965011497566593,,,,,,,,,,,,,,,,23,001,28,m,Psychologie,2023-01-17_09h05.00.722,00_bat_bachelor,2022.2.4,60.09583277331715,
,,,,,,,,,,,,1,0,1,0,91,0,91,0,,,,,,,91,,,0.2,64510.107676069005,,Y,d,go,d,1,0.6175855196233897,,,,,,,,,,,,,,,,23,001,28,m,Psychologie,2023-01-17_09h05.00.722,00_bat_bachelor,2022.2.4,60.09583277331715,
,,,,,,,,,,,,1,0,1,0,92,0,92,0,,,,,,,92,,,0.2,64511.05754566907,,X,l,go,l,1,0.40317592659630463,,,,,,,,,,,,,,,,23,001,28,m,Psychologie,2023-01-17_09h05.00.722,00_bat_bachelor,2022.2.4,60.09583277331715,
,,,,,,,,,,,,1,0,1,0,93,0,93,0,,,,,,,93,,,0.2,64511.79094894984,,Y,d,go,d,1,0.3425369256910926,,,,,,,,,,,,,,,,23,001,28,m,Psychologie,2023-01-17_09h05.00.722,00_bat_bachelor,2022.2.4,60.09583277331715,
,,,,,,,,,,,,1,0,1,0,94,0,94,0,,,,,,,94,,,0.2,64512.44095154377,,Y,None,nogo,l,0,0.3963953238308022,,,,,,,,,,,,,,,,23,001,28,m,Psychologie,2023-01-17_09h05.00.722,00_bat_bachelor,2022.2.4,60.09583277331715,
,,,,,,,,,,,,1,0,1,0,95,0,95,0,,,,,,,95,,,0.2,64513.141124295216,,X,l,go,l,1,0.3851962989610911,,,,,,,,,,,,,,,,23,001,28,m,Psychologie,2023-01-17_09h05.00.722,00_bat_bachelor,2022.2.4,60.09583277331715,
,,,,,,,,,,,,1,0,1,0,96,0,96,0,,,,,,,96,,,0.2,64513.84126165272,,Y,d,go,d,1,0.32527826739897137,,,,,,,,,,,,,,,,23,001,28,m,Psychologie,2023-01-17_09h05.00.722,00_bat_bachelor,2022.2.4,60.09583277331715,
,,,,,,,,,,,,1,0,1,0,97,0,97,0,,,,,,,97,,,0.2,64514.473996861096,,X,l,go,l,1,0.46035262615259853,,,,,,,,,,,,,,,,23,001,28,m,Psychologie,2023-01-17_09h05.00.722,00_bat_bachelor,2022.2.4,60.09583277331715,
,,,,,,,,,,,,1,0,1,0,98,0,98,0,,,,,,,98,,,0.2,64515.240476974315,64516.040660828774,X,None,nogo,None,1,,,,,,,,,,,,,,,,,23,001,28,m,Psychologie,2023-01-17_09h05.00.722,00_bat_bachelor,2022.2.4,60.09583277331715,
,,,,,,,,,,,,1,0,1,0,99,0,99,0,,,,,,,99,,,0.2,64516.240774186284,64517.040712222675,X,None,nogo,None,1,,,,,,,,,,,,,,,,,23,001,28,m,Psychologie,2023-01-17_09h05.00.722,00_bat_bachelor,2022.2.4,60.09583277331715,
,,,,,,,,,,,,1,0,1,0,100,0,100,0,,,,,,,100,,,0.2,64517.24067188331,,Y,d,go,d,1,0.3326775365312642,,,,,,,,,,,,,,,,23,001,28,m,Psychologie,2023-01-17_09h05.00.722,00_bat_bachelor,2022.2.4,60.09583277331715,
,,,,,,,,,,,,1,0,1,0,101,0,101,0,,,,,,,101,,,0.2,64517.87400539442,,X,l,go,l,1,0.46760498627918423,,,,,,,,,,,,,,,,23,001,28,m,Psychologie,2023-01-17_09h05.00.722,00_bat_bachelor,2022.2.4,60.09583277331715,
,,,,,,,,,,,,1,0,1,0,102,0,102,0,,,,,,,102,,,0.2,64518.65733059039,,Y,d,go,d,1,0.35747122149405186,,,,,,,,,,,,,,,,23,001,28,m,Psychologie,2023-01-17_09h05.00.722,00_bat_bachelor,2022.2.4,60.09583277331715,
,,,,,,,,,,,,1,0,1,0,103,0,103,0,,,,,,,103,,,0.2,64519.323999842905,,Y,None,nogo,d,0,0.6655525266578479,,,,,,,,,,,,,,,,23,001,28,m,Psychologie,2023-01-17_09h05.00.722,00_bat_bachelor,2022.2.4,60.09583277331715,
,,,,,,,,,,,,1,0,1,0,104,0,104,0,,,,,,,104,,,0.2,64520.29048907128,,X,l,go,l,1,0.49950315263777156,,,,,,,,,,,,,,,,23,001,28,m,Psychologie,2023-01-17_09h05.00.722,00_bat_bachelor,2022.2.4,60.09583277331715,
,,,,,,,,,,,,1,0,1,0,105,0,105,0,,,,,,,105,,,0.2,64521.09067195603,,Y,d,go,d,1,0.531532712851913,,,,,,,,,,,,,,,,23,001,28,m,Psychologie,2023-01-17_09h05.00.722,00_bat_bachelor,2022.2.4,60.09583277331715,
,,,,,,,,,,,,1,0,1,0,106,0,106,0,,,,,,,106,,,0.2,64521.92382161268,,X,l,go,l,1,0.5307967132139311,,,,,,,,,,,,,,,,23,001,28,m,Psychologie,2023-01-17_09h05.00.722,00_bat_bachelor,2022.2.4,60.09583277331715,
,,,,,,,,,,,,1,0,1,0,107,0,107,0,,,,,,,107,,,0.2,64522.75705951173,,Y,d,go,d,1,0.4330726393855002,,,,,,,,,,,,,,,,23,001,28,m,Psychologie,2023-01-17_09h05.00.722,00_bat_bachelor,2022.2.4,60.09583277331715,
,,,,,,,,,,,,1,0,1,0,108,0,108,0,,,,,,,108,,,0.2,64523.49065867119,,X,l,go,l,1,0.4835404937075509,,,,,,,,,,,,,,,,23,001,28,m,Psychologie,2023-01-17_09h05.00.722,00_bat_bachelor,2022.2.4,60.09583277331715,
,,,,,,,,,,,,1,0,1,0,109,0,109,0,,,,,,,109,,,0.2,64524.2742073822,64525.07413523678,X,None,nogo,None,1,,,,,,,,,,,,,,,,,23,001,28,m,Psychologie,2023-01-17_09h05.00.722,00_bat_bachelor,2022.2.4,60.09583277331715,
,,,,,,,,,,,,1,0,1,0,110,0,110,0,,,,,,,110,,,0.2,64525.273954291406,,X,None,nogo,l,0,0.23519976562602096,,,,,,,,,,,,,,,,23,001,28,m,Psychologie,2023-01-17_09h05.00.722,00_bat_bachelor,2022.2.4,60.09583277331715,
,,,,,,,,,,,,1,0,1,0,111,0,111,0,,,,,,,111,,,0.2,64525.82408687317,,Y,d,go,d,1,0.37495969784868066,,,,,,,,,,,,,,,,23,001,28,m,Psychologie,2023-01-17_09h05.00.722,00_bat_bachelor,2022.2.4,60.09583277331715,
,,,,,,,,,,,,1,0,1,0,112,0,112,0,,,,,,,112,,,0.2,64526.507347147955,,X,l,go,l,1,0.4579914151872799,,,,,,,,,,,,,,,,23,001,28,m,Psychologie,2023-01-17_09h05.00.722,00_bat_bachelor,2022.2.4,60.09583277331715,
,,,,,,,,,,,,1,0,1,0,113,0,113,0,,,,,,,113,,,0.2,64527.27399162472,,Y,d,go,d,1,0.4448830578949128,,,,,,,,,,,,,,,,23,001,28,m,Psychologie,2023-01-17_09h05.00.722,00_bat_bachelor,2022.2.4,60.09583277331715,
,,,,,,,,,,,,1,0,1,0,114,0,114,0,,,,,,,114,,,0.2,64528.02362374612,,X,l,go,l,1,0.4623904433574353,,,,,,,,,,,,,,,,23,001,28,m,Psychologie,2023-01-17_09h05.00.722,00_bat_bachelor,2022.2.4,60.09583277331715,
,,,,,,,,,,,,1,0,1,0,115,0,115,0,,,,,,,115,,,0.2,64528.79065755605,64529.59085547109,X,None,nogo,None,1,,,,,,,,,,,,,,,,,23,001,28,m,Psychologie,2023-01-17_09h05.00.722,00_bat_bachelor,2022.2.4,60.09583277331715,
,,,,,,,,,,,,1,0,1,0,116,0,116,0,,,,,,,116,,,0.2,64529.79047379855,,Y,d,go,l,0,0.2965733116325282,,,,,,,,,,,,,,,,23,001,28,m,Psychologie,2023-01-17_09h05.00.722,00_bat_bachelor,2022.2.4,60.09583277331715,
,,,,,,,,,,,,1,0,1,0,117,0,117,0,,,,,,,117,,,0.2,64530.39059520456,,X,l,go,l,1,0.4308452465229493,,,,,,,,,,,,,,,,23,001,28,m,Psychologie,2023-01-17_09h05.00.722,00_bat_bachelor,2022.2.4,60.09583277331715,
,,,,,,,,,,,,1,0,1,0,118,0,118,0,,,,,,,118,,,0.2,64531.12393157628,,Y,d,go,d,1,0.3692142460968171,,,,,,,,,,,,,,,,23,001,28,m,Psychologie,2023-01-17_09h05.00.722,00_bat_bachelor,2022.2.4,60.09583277331715,
,,,,,,,,,,,,1,0,1,0,119,0,119,0,,,,,,,119,,,0.2,64531.80715839652,64532.6071575238,Y,None,nogo,None,1,,,,,,,,,,,,,,,,,23,001,28,m,Psychologie,2023-01-17_09h05.00.722,00_bat_bachelor,2022.2.4,60.09583277331715,
,,,,,,,,,,,,1,0,1,0,120,0,120,0,,,,,,,120,,,0.2,64532.80707306323,,X,l,go,l,1,0.3184709979868785,,,,,,,,,,,,,,,,23,001,28,m,Psychologie,2023-01-17_09h05.00.722,00_bat_bachelor,2022.2.4,60.09583277331715,
,,,,,,,,,,,,1,0,1,0,121,0,121,0,,,,,,,121,,,0.2,64533.440645604525,,Y,d,go,d,1,0.5330434999959834,,,,,,,,,,,,,,,,23,001,28,m,Psychologie,2023-01-17_09h05.00.722,00_bat_bachelor,2022.2.4,60.09583277331715,
,,,,,,,,,,,,1,0,1,0,122,0,122,0,,,,,,,122,,,0.2,64534.29166288889,,X,l,go,l,1,0.3697965488427144,,,,,,,,,,,,,,,,23,001,28,m,Psychologie,2023-01-17_09h05.00.722,00_bat_bachelor,2022.2.4,60.09583277331715,
,,,,,,,,,,,,1,0,1,0,123,0,123,0,,,,,,,123,,,0.2,64535.0083243596,,Y,d,go,d,1,0.37316430479768314,,,,,,,,,,,,,,,,23,001,28,m,Psychologie,2023-01-17_09h05.00.722,00_bat_bachelor,2022.2.4,60.09583277331715,
,,,,,,,,,,,,1,0,1,0,124,0,124,0,,,,,,,124,,,0.2,64535.72506922421,,X,l,go,l,1,0.4251254917217011,,,,,,,,,,,,,,,,23,001,28,m,Psychologie,2023-01-17_09h05.00.722,00_bat_bachelor,2022.2.4,60.09583277331715,
,,,,,,,,,,,,1,0,1,0,125,0,125,0,,,,,,,125,,,0.2,64536.49161867073,,Y,d,go,d,1,0.34598904523954843,,,,,,,,,,,,,,,,23,001,28,m,Psychologie,2023-01-17_09h05.00.722,00_bat_bachelor,2022.2.4,60.09583277331715,
,,,,,,,,,,,,1,0,1,0,126,0,126,0,,,,,,,126,,,0.2,64537.174858581886,,X,l,go,l,1,0.4794832835505076,,,,,,,,,,,,,,,,23,001,28,m,Psychologie,2023-01-17_09h05.00.722,00_bat_bachelor,2022.2.4,60.09583277331715,
,,,,,,,,,,,,1,0,1,0,127,0,127,0,,,,,,,127,,,0.2,64537.99135224661,64538.79171791916,X,None,nogo,None,1,,,,,,,,,,,,,,,,,23,001,28,m,Psychologie,2023-01-17_09h05.00.722,00_bat_bachelor,2022.2.4,60.09583277331715,
,,,,,,,,,,,,1,0,1,0,128,0,128,0,,,,,,,128,,,0.2,64538.991641701024,,Y,d,go,l,0,0.2789611989464902,,,,,,,,,,,,,,,,23,001,28,m,Psychologie,2023-01-17_09h05.00.722,00_bat_bachelor,2022.2.4,60.09583277331715,
,,,,,,,,,,,,1,0,1,0,129,0,129,0,,,,,,,129,,,0.2,64539.59103486495,,X,l,go,l,1,0.2553820588691451,,,,,,,,,,,,,,,,23,001,28,m,Psychologie,2023-01-17_09h05.00.722,00_bat_bachelor,2022.2.4,60.09583277331715,
,,,,,,,,,,,,1,0,1,0,130,0,130,0,,,,,,,130,,,0.2,64540.15769495384,64540.95769553566,X,None,nogo,None,1,,,,,,,,,,,,,,,,,23,001,28,m,Psychologie,2023-01-17_09h05.00.722,00_bat_bachelor,2022.2.4,60.09583277331715,
,,,,,,,,,,,,1,0,1,0,131,0,131,0,,,,,,,131,,,0.2,64541.157409863066,,Y,d,go,d,1,0.5446051913640986,,,,,,,,,,,,,,,,23,001,28,m,Psychologie,2023-01-17_09h05.00.722,00_bat_bachelor,2022.2.4,60.09583277331715,
,,,,,,,,,,,,1,0,1,0,132,0,132,0,,,,,,,132,,,0.2,64542.00753163271,,X,l,go,l,1,0.44701057201382355,,,,,,,,,,,,,,,,23,001,28,m,Psychologie,2023-01-17_09h05.00.722,00_bat_bachelor,2022.2.4,60.09583277331715,
,,,,,,,,,,,,1,0,1,0,133,0,133,0,,,,,,,133,,,0.2,64542.75737902672,,Y,d,go,d,1,0.36859897367321537,,,,,,,,,,,,,,,,23,001,28,m,Psychologie,2023-01-17_09h05.00.722,00_bat_bachelor,2022.2.4,60.09583277331715,
,,,,,,,,,,,,1,0,1,0,134,0,134,0,,,,,,,134,,,0.2,64543.440674695434,,X,l,go,l,1,0.4219778568840411,,,,,,,,,,,,,,,,23,001,28,m,Psychologie,2023-01-17_09h05.00.722,00_bat_bachelor,2022.2.4,60.09583277331715,
,,,,,,,,,,,,1,0,1,0,135,0,135,0,,,,,,,135,,,0.2,64544.173981976244,64544.973924376274,X,None,nogo,None,1,,,,,,,,,,,,,,,,,23,001,28,m,Psychologie,2023-01-17_09h05.00.722,00_bat_bachelor,2022.2.4,60.09583277331715,
,,,,,,,,,,,,1,0,1,0,136,0,136,0,,,,,,,136,,,0.2,64545.17369737032,,Y,d,go,d,1,0.35171558791262214,,,,,,,,,,,,,,,,23,001,28,m,Psychologie,2023-01-17_09h05.00.722,00_bat_bachelor,2022.2.4,60.09583277331715,
,,,,,,,,,,,,1,0,1,0,137,0,137,0,,,,,,,137,,,0.2,64545.84058528941,,X,l,go,l,1,0.42090731194548425,,,,,,,,,,,,,,,,23,001,28,m,Psychologie,2023-01-17_09h05.00.722,00_bat_bachelor,2022.2.4,60.09583277331715,
,,,,,,,,,,,,1,0,1,0,138,0,138,0,,,,,,,138,,,0.2,64546.57408602469,,Y,d,go,d,1,0.36029012922153925,,,,,,,,,,,,,,,,23,001,28,m,Psychologie,2023-01-17_09h05.00.722,00_bat_bachelor,2022.2.4,60.09583277331715,
,,,,,,,,,,,,1,0,1,0,139,0,139,0,,,,,,,139,,,0.2,64547.24067188331,64548.04064822271,Y,None,nogo,None,1,,,,,,,,,,,,,,,,,23,001,28,m,Psychologie,2023-01-17_09h05.00.722,00_bat_bachelor,2022.2.4,60.09583277331715,
,,,,,,,,,,,,1,0,1,0,140,0,140,0,,,,,,,140,,,0.2,64548.240627277264,,X,l,go,l,1,0.45333929622211144,,,,,,,,,,,,,,,,23,001,28,m,Psychologie,2023-01-17_09h05.00.722,00_bat_bachelor,2022.2.4,60.09583277331715,
,,,,,,,,,,,,1,0,1,0,141,0,141,0,,,,,,,141,,,0.2,64549.00730763281,,Y,d,go,d,1,0.3903604176630324,,,,,,,,,,,,,,,,23,001,28,m,Psychologie,2023-01-17_09h05.00.722,00_bat_bachelor,2022.2.4,60.09583277331715,
,,,,,,,,,,,,1,0,1,0,142,0,142,0,,,,,,,142,,,0.2,64549.70704256628,,X,l,go,l,1,0.4277228237951931,,,,,,,,,,,,,,,,23,001,28,m,Psychologie,2023-01-17_09h05.00.722,00_bat_bachelor,2022.2.4,60.09583277331715,
,,,,,,,,,,,,1,0,1,0,143,0,143,0,,,,,,,143,,,0.2,64550.44064269544,,Y,d,go,d,1,0.39801762607021374,,,,,,,,,,,,,,,,23,001,28,m,Psychologie,2023-01-17_09h05.00.722,00_bat_bachelor,2022.2.4,60.09583277331715,
,,,,,,,,,,,,1,0,1,0,144,0,144,0,,,,,,,144,,,0.2,64551.14063750756,,X,l,go,l,1,0.4971113962128584,,,,,,,,,,,,,,,,23,001,28,m,Psychologie,2023-01-17_09h05.00.722,00_bat_bachelor,2022.2.4,60.09583277331715,
,,,,,,,,,,,,1,0,1,0,145,0,145,0,,,,,,,145,,,0.2,64551.940670089374,,Y,d,go,d,1,0.40173059398148325,,,,,,,,,,,,,,,,23,001,28,m,Psychologie,2023-01-17_09h05.00.722,00_bat_bachelor,2022.2.4,60.09583277331715,
,,,,,,,,,,,,1,0,1,0,146,0,146,0,,,,,,,146,,,0.2,64552.6573097419,,X,l,go,l,1,0.42137809959604056,,,,,,,,,,,,,,,,23,001,28,m,Psychologie,2023-01-17_09h05.00.722,00_bat_bachelor,2022.2.4,60.09583277331715,
,,,,,,,,,,,,1,0,1,0,147,0,147,0,,,,,,,147,,,0.2,64553.39034987135,64554.19079263476,X,None,nogo,None,1,,,,,,,,,,,,,,,,,23,001,28,m,Psychologie,2023-01-17_09h05.00.722,00_bat_bachelor,2022.2.4,60.09583277331715,
,,,,,,,,,,,,1,0,1,0,148,0,148,0,,,,,,,148,,,0.2,64554.39063641666,,Y,d,go,d,1,0.44758657172860694,,,,,,,,,,,,,,,,23,001,28,m,Psychologie,2023-01-17_09h05.00.722,00_bat_bachelor,2022.2.4,60.09583277331715,
,,,,,,,,,,,,1,0,1,0,149,0,149,0,,,,,,,149,,,0.2,64555.14062296212,,X,l,go,l,1,0.46492377545291674,,,,,,,,,,,,,,,,23,001,28,m,Psychologie,2023-01-17_09h05.00.722,00_bat_bachelor,2022.2.4,60.09583277331715,
,,,,,,,,,,,,1,0,1,0,150,0,150,0,,,,,,,150,,,0.2,64555.90742210549,64556.70729177828,X,None,nogo,None,1,,,,,,,,,,,,,,,,,23,001,28,m,Psychologie,2023-01-17_09h05.00.722,00_bat_bachelor,2022.2.4,60.09583277331715,
,,,,,,,,,,,,1,0,1,0,151,0,151,0,,,,,,,151,,,0.2,64556.90711034807,,Y,d,go,d,1,0.3305122042547737,,,,,,,,,,,,,,,,23,001,28,m,Psychologie,2023-01-17_09h05.00.722,00_bat_bachelor,2022.2.4,60.09583277331715,
,,,,,,,,,,,,1,0,1,0,152,0,152,0,,,,,,,152,,,0.2,64557.54034301074,,X,l,go,l,1,0.545258281959832,,,,,,,,,,,,,,,,23,001,28,m,Psychologie,2023-01-17_09h05.00.722,00_bat_bachelor,2022.2.4,60.09583277331715,
,,,,,,,,,,,,1,0,1,0,153,0,153,0,,,,,,,153,,,0.2,64558.39039787132,64559.19056039245,X,None,nogo,None,1,,,,,,,,,,,,,,,,,23,001,28,m,Psychologie,2023-01-17_09h05.00.722,00_bat_bachelor,2022.2.4,60.09583277331715,
,,,,,,,,,,,,1,0,1,0,154,0,154,0,,,,,,,154,,,0.2,64559.39061605303,,Y,d,go,d,1,0.3443342581631441,,,,,,,,,,,,,,,,23,001,28,m,Psychologie,2023-01-17_09h05.00.722,00_bat_bachelor,2022.2.4,60.09583277331715,
,,,,,,,,,,,,1,0,1,0,155,0,155,0,,,,,,,155,,,0.2,64560.040389798596,,X,l,go,l,1,0.4296467016574752,,,,,,,,,,,,,,,,23,001,28,m,Psychologie,2023-01-17_09h05.00.722,00_bat_bachelor,2022.2.4,60.09583277331715,
,,,,,,,,,,,,1,0,1,0,156,0,156,0,,,,,,,156,,,0.2,64560.77403986713,,Y,d,go,d,1,0.6415268413438753,,,,,,,,,,,,,,,,23,001,28,m,Psychologie,2023-01-17_09h05.00.722,00_bat_bachelor,2022.2.4,60.09583277331715,
,,,,,,,,,,,,1,0,1,0,157,0,157,0,,,,,,,157,,,0.2,64561.7239909217,64562.523970170194,Y,None,nogo,None,1,,,,,,,,,,,,,,,,,23,001,28,m,Psychologie,2023-01-17_09h05.00.722,00_bat_bachelor,2022.2.4,60.09583277331715,
,,,,,,,,,,,,1,0,1,0,158,0,158,0,,,,,,,158,,,0.2,64562.7237838915,,X,l,go,l,1,0.354145162509667,,,,,,,,,,,,,,,,23,001,28,m,Psychologie,2023-01-17_09h05.00.722,00_bat_bachelor,2022.2.4,60.09583277331715,
,,,,,,,,,,,,1,0,1,0,159,0,159,0,,,,,,,159,,,0.2,64563.39071302269,,Y,d,go,d,1,0.3757373944426945,,,,,,,,,,,,,,,,23,001,28,m,Psychologie,2023-01-17_09h05.00.722,00_bat_bachelor,2022.2.4,60.09583277331715,
,,,,,,,,,,,,1,0,1,0,160,0,160,0,,,,,,,160,,,0.2,64564.07395535808,,X,l,go,l,1,0.5566362158460834,,,,,,,,,,,,,,,,23,001,28,m,Psychologie,2023-01-17_09h05.00.722,00_bat_bachelor,2022.2.4,60.09583277331715,
,,,,,,,,,,,,1,0,1,0,161,0,161,0,,,,,,,161,,,0.2,64564.94047081674,,Y,d,go,d,1,0.5211671421311621,,,,,,,,,,,,,,,,23,001,28,m,Psychologie,2023-01-17_09h05.00.722,00_bat_bachelor,2022.2.4,60.09583277331715,
,,,,,,,,,,,,1,0,1,0,162,0,162,0,,,,,,,162,,,0.2,64565.773948715665,,X,l,go,l,1,0.5039729686432111,,,,,,,,,,,,,,,,23,001,28,m,Psychologie,2023-01-17_09h05.00.722,00_bat_bachelor,2022.2.4,60.09583277331715,
,,,,,,,,,,,,1,0,1,0,163,0,163,0,,,,,,,163,,,0.2,64566.590631471205,,Y,d,go,d,1,0.37590903073214577,,,,,,,,,,,,,,,,23,001,28,m,Psychologie,2023-01-17_09h05.00.722,00_bat_bachelor,2022.2.4,60.09583277331715,
,,,,,,,,,,,,1,0,1,0,164,0,164,0,,,,,,,164,,,0.2,64567.27398095807,,X,l,go,l,1,0.45996426271813107,,,,,,,,,,,,,,,,23,001,28,m,Psychologie,2023-01-17_09h05.00.722,00_bat_bachelor,2022.2.4,60.09583277331715,
,,,,,,,,,,,,1,0,1,0,165,0,165,0,,,,,,,165,,,0.2,64568.040682162085,64568.840729774194,X,None,nogo,None,1,,,,,,,,,,,,,,,,,23,001,28,m,Psychologie,2023-01-17_09h05.00.722,00_bat_bachelor,2022.2.4,60.09583277331715,
,,,,,,,,,,,,1,0,1,0,166,0,166,0,,,,,,,166,,,0.2,64569.04028798046,64569.84026528956,Y,d,go,None,0,,,,,,,,,,,,,,,,,23,001,28,m,Psychologie,2023-01-17_09h05.00.722,00_bat_bachelor,2022.2.4,60.09583277331715,
,,,,,,,,,,,,1,0,1,0,167,0,167,0,,,,,,,167,,,0.2,64570.04044749554,,X,l,go,l,1,0.42963361075453577,,,,,,,,,,,,,,,,23,001,28,m,Psychologie,2023-01-17_09h05.00.722,00_bat_bachelor,2022.2.4,60.09583277331715,
,,,,,,,,,,,,1,0,1,0,168,0,168,0,,,,,,,168,,,0.2,64570.77377562484,,Y,d,go,d,1,0.4805518890825624,,,,,,,,,,,,,,,,23,001,28,m,Psychologie,2023-01-17_09h05.00.722,00_bat_bachelor,2022.2.4,60.09583277331715,
,,,,,,,,,,,,1,0,1,0,169,0,169,0,,,,,,,169,,,0.2,64571.55694857845,,X,l,go,l,1,0.5772762058368244,,,,,,,,,,,,,,,,23,001,28,m,Psychologie,2023-01-17_09h05.00.722,00_bat_bachelor,2022.2.4,60.09583277331715,
,,,,,,,,,,,,1,0,1,0,170,0,170,0,,,,,,,170,,,0.2,64572.440735301454,64573.240396489506,X,None,nogo,None,1,,,,,,,,,,,,,,,,,23,001,28,m,Psychologie,2023-01-17_09h05.00.722,00_bat_bachelor,2022.2.4,60.09583277331715,
,,,,,,,,,,,,1,0,1,0,171,0,171,0,,,,,,,171,,,0.2,64573.4407377257,,Y,d,go,d,1,0.5658260295640503,,,,,,,,,,,,,,,,23,001,28,m,Psychologie,2023-01-17_09h05.00.722,00_bat_bachelor,2022.2.4,60.09583277331715,
,,,,,,,,,,,,1,0,1,0,172,0,172,0,,,,,,,172,,,0.2,64574.30728712374,,X,l,go,l,1,0.45130002448058804,,,,,,,,,,,,,,,,23,001,28,m,Psychologie,2023-01-17_09h05.00.722,00_bat_bachelor,2022.2.4,60.09583277331715,
,,,,,,,,,,,,1,0,1,0,173,0,173,0,,,,,,,173,,,0.2,64575.07392772172,,Y,d,go,d,1,0.5316015613097989,,,,,,,,,,,,,,,,23,001,28,m,Psychologie,2023-01-17_09h05.00.722,00_bat_bachelor,2022.2.4,60.09583277331715,
,,,,,,,,,,,,1,0,1,0,174,0,174,0,,,,,,,174,,,0.2,64575.90737846914,,Y,None,nogo,l,0,0.33808747330112965,,,,,,,,,,,,,,,,23,001,28,m,Psychologie,2023-01-17_09h05.00.722,00_bat_bachelor,2022.2.4,60.09583277331715,
,,,,,,,,,,,,1,0,1,0,175,0,175,0,,,,,,,175,,,0.2,64576.557518275134,64577.35729825101,Y,None,nogo,None,1,,,,,,,,,,,,,,,,,23,001,28,m,Psychologie,2023-01-17_09h05.00.722,00_bat_bachelor,2022.2.4,60.09583277331715,
,,,,,,,,,,,,1,0,1,0,176,0,176,0,,,,,,,176,,,0.2,64577.55698397236,,X,l,go,l,1,0.32107269368498237,,,,,,,,,,,,,,,,23,001,28,m,Psychologie,2023-01-17_09h05.00.722,00_bat_bachelor,2022.2.4,60.09583277331715,
,,,,,,,,,,,,1,0,1,0,177,0,177,0,,,,,,,177,,,0.2,64578.19044160463,,Y,d,go,d,1,0.34395171288997517,,,,,,,,,,,,,,,,23,001,28,m,Psychologie,2023-01-17_09h05.00.722,00_bat_bachelor,2022.2.4,60.09583277331715,
,,,,,,,,,,,,1,0,1,0,178,0,178,0,,,,,,,178,,,0.2,64578.84063571363,,X,l,go,l,1,0.4140922849510389,,,,,,,,,,,,,,,,23,001,28,m,Psychologie,2023-01-17_09h05.00.722,00_bat_bachelor,2022.2.4,60.09583277331715,
,,,,,,,,,,,,1,0,1,0,179,0,179,0,,,,,,,179,,,0.2,64579.55737233581,,Y,d,go,d,1,0.36869691301035346,,,,,,,,,,,,,,,,23,001,28,m,Psychologie,2023-01-17_09h05.00.722,00_bat_bachelor,2022.2.4,60.09583277331715,
,,,,,,,,,,,,1,0,1,0,180,0,180,0,,,,,,,180,,,0.2,64580.2405773379,,Y,None,nogo,l,0,0.39025035711892997,,,,,,,,,,,,,,,,23,001,28,m,Psychologie,2023-01-17_09h05.00.722,00_bat_bachelor,2022.2.4,60.09583277331715,
,,,,,,,,,,,,1,0,1,0,181,0,181,0,,,,,,,181,,,0.2,64580.94057311972,,X,l,go,l,1,0.4906401266234752,,,,,,,,,,,,,,,,23,001,28,m,Psychologie,2023-01-17_09h05.00.722,00_bat_bachelor,2022.2.4,60.09583277331715,
,,,,,,,,,,,,1,0,1,0,182,0,182,0,,,,,,,182,,,0.2,64581.74060570152,,Y,d,go,d,1,0.49049418729919125,,,,,,,,,,,,,,,,23,001,28,m,Psychologie,2023-01-17_09h05.00.722,00_bat_bachelor,2022.2.4,60.09583277331715,
,,,,,,,,,,,,1,0,1,0,183,0,183,0,,,,,,,183,,,0.2,64582.54062470757,64583.340628683334,Y,None,nogo,None,1,,,,,,,,,,,,,,,,,23,001,28,m,Psychologie,2023-01-17_09h05.00.722,00_bat_bachelor,2022.2.4,60.09583277331715,
,,,,,,,,,,,,1,0,1,0,184,0,184,0,,,,,,,184,,,0.2,64583.540595131824,,X,l,go,l,1,0.5149174481812224,,,,,,,,,,,,,,,,23,001,28,m,Psychologie,2023-01-17_09h05.00.722,00_bat_bachelor,2022.2.4,60.09583277331715,
,,,,,,,,,,,,1,0,1,0,185,0,185,0,,,,,,,185,,,0.2,64584.357294857065,,Y,d,go,d,1,0.465219532885385,,,,,,,,,,,,,,,,23,001,28,m,Psychologie,2023-01-17_09h05.00.722,00_bat_bachelor,2022.2.4,60.09583277331715,
,,,,,,,,,,,,1,0,1,0,186,0,186,0,,,,,,,186,,,0.2,64585.123970848974,64585.92368682487,Y,None,nogo,None,1,,,,,,,,,,,,,,,,,23,001,28,m,Psychologie,2023-01-17_09h05.00.722,00_bat_bachelor,2022.2.4,60.09583277331715,
,,,,,,,,,,,,1,0,1,0,187,0,187,0,,,,,,,187,,,0.2,64586.12425787914,,X,l,go,l,1,0.378704180886416,,,,,,,,,,,,,,,,23,001,28,m,Psychologie,2023-01-17_09h05.00.722,00_bat_bachelor,2022.2.4,60.09583277331715,
,,,,,,,,,,,,1,0,1,0,188,0,188,0,,,,,,,188,,,0.2,64586.80700276024,,Y,d,go,d,1,0.49593176041162224,,,,,,,,,,,,,,,,23,001,28,m,Psychologie,2023-01-17_09h05.00.722,00_bat_bachelor,2022.2.4,60.09583277331715,
,,,,,,,,,,,,1,0,1,0,189,0,189,0,,,,,,,189,,,0.2,64587.60729764495,64588.40709168141,Y,None,nogo,None,1,,,,,,,,,,,,,,,,,23,001,28,m,Psychologie,2023-01-17_09h05.00.722,00_bat_bachelor,2022.2.4,60.09583277331715,
,,,,,,,,,,,,1,0,1,0,190,0,190,0,,,,,,,190,,,0.2,64588.607090129895,,X,l,go,l,1,0.47056692424303037,,,,,,,,,,,,,,,,23,001,28,m,Psychologie,2023-01-17_09h05.00.722,00_bat_bachelor,2022.2.4,60.09583277331715,
,,,,,,,,,,,,1,0,1,0,191,0,191,0,,,,,,,191,,,0.2,64589.39058550759,,Y,d,go,d,1,0.3761684245437209,,,,,,,,,,,,,,,,23,001,28,m,Psychologie,2023-01-17_09h05.00.722,00_bat_bachelor,2022.2.4,60.09583277331715,
,,,,,,,,,,,,1,0,1,0,192,0,192,0,,,,,,,192,,,0.2,64590.07395681263,,X,l,go,l,1,0.5720068750415521,,,,,,,,,,,,,,,,23,001,28,m,Psychologie,2023-01-17_09h05.00.722,00_bat_bachelor,2022.2.4,60.09583277331715,
,,,,,,,,,,,,1,0,1,0,193,0,193,0,,,,,,,193,,,0.2,64590.95708559656,,Y,d,go,d,1,0.3137320911810093,,,,,,,,,,,,,,,,23,001,28,m,Psychologie,2023-01-17_09h05.00.722,00_bat_bachelor,2022.2.4,60.09583277331715,
,,,,,,,,,,,,1,0,1,0,194,0,194,0,,,,,,,194,,,0.2,64591.57403511561,,X,l,go,l,1,0.5117509042647725,,,,,,,,,,,,,,,,23,001,28,m,Psychologie,2023-01-17_09h05.00.722,00_bat_bachelor,2022.2.4,60.09583277331715,
,,,,,,,,,,,,1,0,1,0,195,0,195,0,,,,,,,195,,,0.2,64592.390619931815,,Y,d,go,d,1,0.33547656548398663,,,,,,,,,,,,,,,,23,001,28,m,Psychologie,2023-01-17_09h05.00.722,00_bat_bachelor,2022.2.4,60.09583277331715,
,,,,,,,,,,,,1,0,1,0,196,0,196,0,,,,,,,196,,,0.2,64593.0403345259,64593.84058383487,Y,None,nogo,None,1,,,,,,,,,,,,,,,,,23,001,28,m,Psychologie,2023-01-17_09h05.00.722,00_bat_bachelor,2022.2.4,60.09583277331715,
,,,,,,,,,,,,1,0,1,0,197,0,197,0,,,,,,,197,,,0.2,64594.0408159802,,X,l,go,l,1,0.31731366520762094,,,,,,,,,,,,,,,,23,001,28,m,Psychologie,2023-01-17_09h05.00.722,00_bat_bachelor,2022.2.4,60.09583277331715,
,,,,,,,,,,,,1,0,1,0,198,0,198,0,,,,,,,198,,,0.2,64594.67374221879,,Y,d,go,d,1,0.3394663817343826,,,,,,,,,,,,,,,,23,001,28,m,Psychologie,2023-01-17_09h05.00.722,00_bat_bachelor,2022.2.4,60.09583277331715,
