loop_instruction.thisRepN,loop_instruction.thisTrialN,loop_instruction.thisN,loop_instruction.thisIndex,loop_rsi_practice.thisRepN,loop_rsi_practice.thisTrialN,loop_rsi_practice.thisN,loop_rsi_practice.thisIndex,loop_practice.thisRepN,loop_practice.thisTrialN,loop_practice.thisN,loop_practice.thisIndex,loop_exp.thisRepN,loop_exp.thisTrialN,loop_exp.thisN,loop_exp.thisIndex,loop_trials.thisRepN,loop_trials.thisTrialN,loop_trials.thisN,loop_trials.thisIndex,map_condition,map_x_key,map_y_key,key_resp_welcome.started,key_resp_welcome.keys,key_resp_welcome.rt,index,text_empty_rsi_practice.started,text_empty_rsi_practice.stopped,rsi,stimulus.started,stimulus,correct,trial_type,key_resp_trial.keys,key_resp_trial.corr,key_resp_trial.rt,stimulus.stopped,key_resp_instruction_rsi.started,key_resp_instruction_rsi.keys,key_resp_instruction_rsi.rt,key_resp_instruction_rsi.stopped,key_resp_instruction_final.started,key_resp_instruction_final.keys,key_resp_instruction_final.rt,key_resp_break.started,key_resp_break.keys,key_resp_break.rt,key_resp_break.stopped,key_resp_end_screen.started,image_end_screen.started,key_resp_end_screen.keys,key_resp_end_screen.rt,participant,session,Alter,Geschlecht (w/m/d/andere),Studiengang,date,expName,psychopyVersion,frameRate,
,,,,0,0,0,0,0,0,0,0,,,,,,,,,0,d,l,7115.637297145557,j,12.792018229112728,0,7128.45731129343,7129.4702198932355,1,7129.4702198932355,X,d,go,d,1,0.5577885244856589,,,,,,,,,,,,,,,,,28,001,21,weiblich,Psychologie,2023-01-17_12h06.16.462,00_bat_bachelor,2022.2.4,59.97368428600845,
,,,,0,0,0,0,1,0,1,0,,,,,,,,,,,,,,,1,7130.752405453386,7131.752791392588,1,7131.752791392588,Y,l,go,l,1,0.4165371990384301,,,,,,,,,,,,,,,,,28,001,21,weiblich,Psychologie,2023-01-17_12h06.16.462,00_bat_bachelor,2022.2.4,59.97368428600845,
,,,,0,0,0,0,2,0,2,0,,,,,,,,,,,,,,,2,7132.88594769167,7133.885893873507,1,7133.885893873507,X,d,go,d,1,0.5548983440676238,,,,,,,,,,,,,,,,,28,001,21,weiblich,Psychologie,2023-01-17_12h06.16.462,00_bat_bachelor,2022.2.4,59.97368428600845,
,,,,0,0,0,0,3,0,3,0,,,,,,,,,,,,,,,3,7135.169072887729,7136.16929106944,1,7136.16929106944,Y,l,go,l,1,0.40031514629663434,,,,,,,,,,,,,,,,,28,001,21,weiblich,Psychologie,2023-01-17_12h06.16.462,00_bat_bachelor,2022.2.4,59.97368428600845,
,,,,0,0,0,0,4,0,4,0,,,,,,,,,,,,,,,4,7137.269221202805,7138.269122778613,1,7138.269122778613,X,d,go,d,1,0.3480800200923113,,,,,,,,,,,,,,,,,28,001,21,weiblich,Psychologie,2023-01-17_12h06.16.462,00_bat_bachelor,2022.2.4,59.97368428600845,
,,,,0,0,0,0,5,0,5,0,,,,,,,,,,,,,,,5,7139.335659473625,7140.335929534107,1,7140.335929534107,X,None,nogo,None,1,,7141.1359451462195,,,,,,,,,,,,,,,,28,001,21,weiblich,Psychologie,2023-01-17_12h06.16.462,00_bat_bachelor,2022.2.4,59.97368428600845,
,,,,0,0,0,0,6,0,6,0,,,,,,,,,,,,,,,6,7141.735953097726,7142.736031643144,1,7142.736031643144,Y,l,go,l,1,0.4412571870489046,,,,,,,,,,,,,,,,,28,001,21,weiblich,Psychologie,2023-01-17_12h06.16.462,00_bat_bachelor,2022.2.4,59.97368428600845,
,,,,0,0,0,0,7,0,7,0,,,,,,,,,,,,,,,7,7143.902596895714,7144.902594471481,1,7144.902594471481,X,d,go,d,1,0.41974107627174817,,,,,,,,,,,,,,,,,28,001,21,weiblich,Psychologie,2023-01-17_12h06.16.462,00_bat_bachelor,2022.2.4,59.97368428600845,
,,,,0,0,0,0,8,0,8,0,,,,,,,,,,,,,,,8,7146.036045558285,7147.035860831107,1,7147.035860831107,X,None,nogo,d,0,0.446597305679461,,,,,,,,,,,,,,,,,28,001,21,weiblich,Psychologie,2023-01-17_12h06.16.462,00_bat_bachelor,2022.2.4,59.97368428600845,
,,,,0,0,0,0,9,0,9,0,,,,,,,,,,,,,,,9,7148.602598010868,7149.602502010908,1,7149.602502010908,Y,l,go,l,1,0.6147678908018861,,,,,,,,,,,,,,,,,28,001,21,weiblich,Psychologie,2023-01-17_12h06.16.462,00_bat_bachelor,2022.2.4,59.97368428600845,
,,,,0,0,0,0,10,0,10,0,,,,,,,,,,,,,,,10,7150.935740152374,7151.936004394665,1,7151.936004394665,X,d,go,d,1,0.5062540040235035,,,,,,,,,,,,,,,,,28,001,21,weiblich,Psychologie,2023-01-17_12h06.16.462,00_bat_bachelor,2022.2.4,59.97368428600845,
,,,,0,0,0,0,11,0,11,0,,,,,,,,,,,,,,,11,7153.169075796817,7154.169273130057,1,7154.169273130057,Y,l,go,l,1,0.4163015627855202,,,,,,,,,,,,,,,,,28,001,21,weiblich,Psychologie,2023-01-17_12h06.16.462,00_bat_bachelor,2022.2.4,59.97368428600845,
,,,,0,0,0,0,12,0,12,0,,,,,,,,,,,,,,,12,7155.302461429121,7156.302599126022,1,7156.302599126022,Y,None,nogo,None,1,,7157.102577889658,,,,,,,,,,,,,,,,28,001,21,weiblich,Psychologie,2023-01-17_12h06.16.462,00_bat_bachelor,2022.2.4,59.97368428600845,
,,,,0,0,0,0,13,0,13,0,,,,,,,,,,,,,,,13,7157.702405477627,7158.702414689746,1,7158.702414689746,X,d,go,d,1,0.49115776890539564,,,,,,,,,,,,,,,,,28,001,21,weiblich,Psychologie,2023-01-17_12h06.16.462,00_bat_bachelor,2022.2.4,59.97368428600845,
,,,,0,0,0,0,14,0,14,0,,,,,,,,,,,,,,,14,7159.91918258465,7160.9190938574175,1,7160.9190938574175,Y,l,go,l,1,0.40299878135556355,,,,,,,,,,,,,,,,,28,001,21,weiblich,Psychologie,2023-01-17_12h06.16.462,00_bat_bachelor,2022.2.4,59.97368428600845,
,,,,1,0,1,0,0,0,0,0,,,,,,,,,,,,,,,0,7174.28584616445,7174.486075400695,0.2,7174.486075400695,X,d,go,d,1,0.6440532099368284,,7162.080495476126,j,12.172906771695125,,,,,,,,,,,,,28,001,21,weiblich,Psychologie,2023-01-17_12h06.16.462,00_bat_bachelor,2022.2.4,59.97368428600845,
,,,,1,0,1,0,1,0,1,0,,,,,,,,,,,,,,,1,7175.835980685588,7176.035831255358,0.2,7176.035831255358,Y,l,go,l,1,0.3590031663188711,,,,,,,,,,,,,,,,,28,001,21,weiblich,Psychologie,2023-01-17_12h06.16.462,00_bat_bachelor,2022.2.4,59.97368428600845,
,,,,1,0,1,0,2,0,2,0,,,,,,,,,,,,,,,2,7177.102295223129,7177.302364459465,0.2,7177.302364459465,X,d,go,d,1,0.3235937289427966,,,,,,,,,,,,,,,,,28,001,21,weiblich,Psychologie,2023-01-17_12h06.16.462,00_bat_bachelor,2022.2.4,59.97368428600845,
,,,,1,0,1,0,3,0,3,0,,,,,,,,,,,,,,,3,7178.352490980615,7178.55236724735,0.2,7178.55236724735,Y,l,go,l,1,0.38513648697698954,,,,,,,,,,,,,,,,,28,001,21,weiblich,Psychologie,2023-01-17_12h06.16.462,00_bat_bachelor,2022.2.4,59.97368428600845,
,,,,1,0,1,0,4,0,4,0,,,,,,,,,,,,,,,4,7179.652510713946,7179.852336556447,0.2,7179.852336556447,Y,None,nogo,None,1,,7180.652516532122,,,,,,,,,,,,,,,,28,001,21,weiblich,Psychologie,2023-01-17_12h06.16.462,00_bat_bachelor,2022.2.4,59.97368428600845,
,,,,1,0,1,0,5,0,5,0,,,,,,,,,,,,,,,5,7181.252360120066,7181.452272750423,0.2,7181.452272750423,X,d,go,d,1,0.253121520683635,,,,,,,,,,,,,,,,,28,001,21,weiblich,Psychologie,2023-01-17_12h06.16.462,00_bat_bachelor,2022.2.4,59.97368428600845,
,,,,1,0,1,0,6,0,6,0,,,,,,,,,,,,,,,6,7182.435876637159,7182.635884297764,0.2,7182.635884297764,Y,l,go,l,1,0.5904658419749467,,,,,,,,,,,,,,,,,28,001,21,weiblich,Psychologie,2023-01-17_12h06.16.462,00_bat_bachelor,2022.2.4,59.97368428600845,
,,,,1,0,1,0,7,0,7,0,,,,,,,,,,,,,,,7,7183.935887061394,7184.135679449377,0.2,7184.135679449377,Y,None,nogo,None,1,,7184.935925364407,,,,,,,,,,,,,,,,28,001,21,weiblich,Psychologie,2023-01-17_12h06.16.462,00_bat_bachelor,2022.2.4,59.97368428600845,
,,,,1,0,1,0,8,0,8,0,,,,,,,,,,,,,,,8,7185.535712225115,7185.735900249259,0.2,7185.735900249259,X,d,go,d,1,0.2906332600687165,,,,,,,,,,,,,,,,,28,001,21,weiblich,Psychologie,2023-01-17_12h06.16.462,00_bat_bachelor,2022.2.4,59.97368428600845,
,,,,1,0,1,0,9,0,9,0,,,,,,,,,,,,,,,9,7186.735627279704,7186.93590839472,0.2,7186.93590839472,Y,l,go,None,0,,7187.735890067459,,,,,,,,,,,,,,,,28,001,21,weiblich,Psychologie,2023-01-17_12h06.16.462,00_bat_bachelor,2022.2.4,59.97368428600845,
,,,,1,0,1,0,10,0,10,0,,,,,,,,,,,,,,,10,7188.335632322123,7188.535924103795,0.2,7188.535924103795,X,d,go,d,1,0.4824329246475827,,,,,,,,,,,,,,,,,28,001,21,weiblich,Psychologie,2023-01-17_12h06.16.462,00_bat_bachelor,2022.2.4,59.97368428600845,
,,,,1,0,1,0,11,0,11,0,,,,,,,,,,,,,,,11,7189.719066802878,7189.919025978656,0.2,7189.919025978656,Y,l,go,l,1,0.29796998378878925,,,,,,,,,,,,,,,,,28,001,21,weiblich,Psychologie,2023-01-17_12h06.16.462,00_bat_bachelor,2022.2.4,59.97368428600845,
,,,,1,0,1,0,12,0,12,0,,,,,,,,,,,,,,,12,7190.93589287957,7191.135879691705,0.2,7191.135879691705,Y,None,nogo,None,1,,7191.935950576517,,,,,,,,,,,,,,,,28,001,21,weiblich,Psychologie,2023-01-17_12h06.16.462,00_bat_bachelor,2022.2.4,59.97368428600845,
,,,,1,0,1,0,13,0,13,0,,,,,,,,,,,,,,,13,7192.53588386139,7192.735631643329,0.2,7192.735631643329,X,d,go,d,1,0.2824640519247623,,,,,,,,,,,,,,,,,28,001,21,weiblich,Psychologie,2023-01-17_12h06.16.462,00_bat_bachelor,2022.2.4,59.97368428600845,
,,,,1,0,1,0,14,0,14,0,,,,,,,,,,,,,,,14,7193.7189470453595,7193.919153978597,0.2,7193.919153978597,Y,l,go,l,1,0.4757308672997169,,,,,,,,,,,,,,,,,28,001,21,weiblich,Psychologie,2023-01-17_12h06.16.462,00_bat_bachelor,2022.2.4,59.97368428600845,
,,,,,,,,,,,,,,,,,,,,,,,,,,,,,,,,,,,,,,7195.168828524213,None,,7195.168828524213,7195.168828524213,space,15.547690589984995,,,,,,,,,28,001,21,weiblich,Psychologie,2023-01-17_12h06.16.462,00_bat_bachelor,2022.2.4,59.97368428600845,
,,,,,,,,,,,,0,0,0,0,0,0,0,0,,,,,,,0,,,1,7211.735863885653,X,d,go,d,1,0.40187829703791067,,,,,,,,,,,,,,,,,28,001,21,weiblich,Psychologie,2023-01-17_12h06.16.462,00_bat_bachelor,2022.2.4,59.97368428600845,
,,,,,,,,,,,,0,0,0,0,1,0,1,0,,,,,,,1,,,1,7213.252613210861,Y,l,go,l,1,0.3573226822918514,,,,,,,,,,,,,,,,,28,001,21,weiblich,Psychologie,2023-01-17_12h06.16.462,00_bat_bachelor,2022.2.4,59.97368428600845,
,,,,,,,,,,,,0,0,0,0,2,0,2,0,,,,,,,2,,,1,7214.719066318037,X,d,go,d,1,0.3153813692915719,,,,,,,,,,,,,,,,,28,001,21,weiblich,Psychologie,2023-01-17_12h06.16.462,00_bat_bachelor,2022.2.4,59.97368428600845,
,,,,,,,,,,,,0,0,0,0,3,0,3,0,,,,,,,3,,,1,7216.135959691659,Y,l,go,l,1,0.4821943793067476,,,,,,,,,,,,,,,,,28,001,21,weiblich,Psychologie,2023-01-17_12h06.16.462,00_bat_bachelor,2022.2.4,59.97368428600845,
,,,,,,,,,,,,0,0,0,0,4,0,4,0,,,,,,,4,,,1,7217.7355850979075,X,d,go,d,1,0.5141866062331246,,,,,,,,,,,,,,,,,28,001,21,weiblich,Psychologie,2023-01-17_12h06.16.462,00_bat_bachelor,2022.2.4,59.97368428600845,
,,,,,,,,,,,,0,0,0,0,5,0,5,0,,,,,,,5,,,1,7219.352300435261,Y,l,go,l,1,0.36872679796942975,,,,,,,,,,,,,,,,,28,001,21,weiblich,Psychologie,2023-01-17_12h06.16.462,00_bat_bachelor,2022.2.4,59.97368428600845,
,,,,,,,,,,,,0,0,0,0,6,0,6,0,,,,,,,6,,,1,7220.852238132255,X,d,go,d,1,0.2940625917544821,,,,,,,,,,,,,,,,,28,001,21,weiblich,Psychologie,2023-01-17_12h06.16.462,00_bat_bachelor,2022.2.4,59.97368428600845,
,,,,,,,,,,,,0,0,0,0,7,0,7,0,,,,,,,7,,,1,7222.252518180598,Y,l,go,l,1,0.3174235501064686,,,,,,,,,,,,,,,,,28,001,21,weiblich,Psychologie,2023-01-17_12h06.16.462,00_bat_bachelor,2022.2.4,59.97368428600845,
,,,,,,,,,,,,0,0,0,0,8,0,8,0,,,,,,,8,,,1,7223.685963788623,X,d,go,d,1,0.30809119100740645,,,,,,,,,,,,,,,,,28,001,21,weiblich,Psychologie,2023-01-17_12h06.16.462,00_bat_bachelor,2022.2.4,59.97368428600845,
,,,,,,,,,,,,0,0,0,0,9,0,9,0,,,,,,,9,,,1,7225.102552677563,Y,l,go,l,1,0.42714519388391636,,,,,,,,,,,,,,,,,28,001,21,weiblich,Psychologie,2023-01-17_12h06.16.462,00_bat_bachelor,2022.2.4,59.97368428600845,
,,,,,,,,,,,,0,0,0,0,10,0,10,0,,,,,,,10,,,1,7226.635820297786,Y,None,nogo,None,1,,7227.435767061455,,,,,,,,,,,,,,,,28,001,21,weiblich,Psychologie,2023-01-17_12h06.16.462,00_bat_bachelor,2022.2.4,59.97368428600845,
,,,,,,,,,,,,0,0,0,0,11,0,11,0,,,,,,,11,,,1,7228.435965849232,X,d,go,d,1,0.26121897129633,,,,,,,,,,,,,,,,,28,001,21,weiblich,Psychologie,2023-01-17_12h06.16.462,00_bat_bachelor,2022.2.4,59.97368428600845,
,,,,,,,,,,,,0,0,0,0,12,0,12,0,,,,,,,12,,,1,7229.819133178607,Y,l,go,l,1,0.33446596610883716,,,,,,,,,,,,,,,,,28,001,21,weiblich,Psychologie,2023-01-17_12h06.16.462,00_bat_bachelor,2022.2.4,59.97368428600845,
,,,,,,,,,,,,0,0,0,0,13,0,13,0,,,,,,,13,,,1,7231.269121808917,Y,None,nogo,None,1,,7232.069198027064,,,,,,,,,,,,,,,,28,001,21,weiblich,Psychologie,2023-01-17_12h06.16.462,00_bat_bachelor,2022.2.4,59.97368428600845,
,,,,,,,,,,,,0,0,0,0,14,0,14,0,,,,,,,14,,,1,7233.068966269595,X,d,go,d,1,0.30139640637207776,,,,,,,,,,,,,,,,,28,001,21,weiblich,Psychologie,2023-01-17_12h06.16.462,00_bat_bachelor,2022.2.4,59.97368428600845,
,,,,,,,,,,,,0,0,0,0,15,0,15,0,,,,,,,15,,,1,7234.485602188812,Y,l,go,l,1,0.45239803013100754,,,,,,,,,,,,,,,,,28,001,21,weiblich,Psychologie,2023-01-17_12h06.16.462,00_bat_bachelor,2022.2.4,59.97368428600845,
,,,,,,,,,,,,0,0,0,0,16,0,16,0,,,,,,,16,,,1,7236.052219126199,Y,None,nogo,d,0,0.359085590520408,,,,,,,,,,,,,,,,,28,001,21,weiblich,Psychologie,2023-01-17_12h06.16.462,00_bat_bachelor,2022.2.4,59.97368428600845,
,,,,,,,,,,,,0,0,0,0,17,0,17,0,,,,,,,17,,,1,7237.5187105363875,X,d,go,d,1,0.3636581943719648,,,,,,,,,,,,,,,,,28,001,21,weiblich,Psychologie,2023-01-17_12h06.16.462,00_bat_bachelor,2022.2.4,59.97368428600845,
,,,,,,,,,,,,0,0,0,0,18,0,18,0,,,,,,,18,,,1,7239.018725809103,Y,l,go,l,1,0.41535756323719397,,,,,,,,,,,,,,,,,28,001,21,weiblich,Psychologie,2023-01-17_12h06.16.462,00_bat_bachelor,2022.2.4,59.97368428600845,
,,,,,,,,,,,,0,0,0,0,19,0,19,0,,,,,,,19,,,1,7240.535405801027,Y,None,nogo,None,1,,7241.335378261647,,,,,,,,,,,,,,,,28,001,21,weiblich,Psychologie,2023-01-17_12h06.16.462,00_bat_bachelor,2022.2.4,59.97368428600845,
,,,,,,,,,,,,0,0,0,0,20,0,20,0,,,,,,,20,,,1,7242.335105776918,X,d,go,d,1,0.26709242300421465,,,,,,,,,,,,,,,,,28,001,21,weiblich,Psychologie,2023-01-17_12h06.16.462,00_bat_bachelor,2022.2.4,59.97368428600845,
,,,,,,,,,,,,0,0,0,0,21,0,21,0,,,,,,,21,,,1,7243.702070447485,Y,l,go,l,1,0.2608635775395669,,,,,,,,,,,,,,,,,28,001,21,weiblich,Psychologie,2023-01-17_12h06.16.462,00_bat_bachelor,2022.2.4,59.97368428600845,
,,,,,,,,,,,,0,0,0,0,22,0,22,0,,,,,,,22,,,1,7245.068729663646,X,d,go,d,1,0.4300998591206735,,,,,,,,,,,,,,,,,28,001,21,weiblich,Psychologie,2023-01-17_12h06.16.462,00_bat_bachelor,2022.2.4,59.97368428600845,
,,,,,,,,,,,,0,0,0,0,23,0,23,0,,,,,,,23,,,1,7246.601768435517,X,None,nogo,l,0,0.23961267874983605,,,,,,,,,,,,,,,,,28,001,21,weiblich,Psychologie,2023-01-17_12h06.16.462,00_bat_bachelor,2022.2.4,59.97368428600845,
,,,,,,,,,,,,0,0,0,0,24,0,24,0,,,,,,,24,,,1,7247.952051902044,Y,l,go,l,1,0.5060590950160986,,,,,,,,,,,,,,,,,28,001,21,weiblich,Psychologie,2023-01-17_12h06.16.462,00_bat_bachelor,2022.2.4,59.97368428600845,
,,,,,,,,,,,,0,0,0,0,25,0,25,0,,,,,,,25,,,1,7249.568435603185,X,d,go,d,1,0.29682234798383433,,,,,,,,,,,,,,,,,28,001,21,weiblich,Psychologie,2023-01-17_12h06.16.462,00_bat_bachelor,2022.2.4,59.97368428600845,
,,,,,,,,,,,,0,0,0,0,26,0,26,0,,,,,,,26,,,1,7250.9687098333525,Y,l,go,l,1,0.3847583053429844,,,,,,,,,,,,,,,,,28,001,21,weiblich,Psychologie,2023-01-17_12h06.16.462,00_bat_bachelor,2022.2.4,59.97368428600845,
,,,,,,,,,,,,0,0,0,0,27,0,27,0,,,,,,,27,,,1,7252.46972340862,Y,None,nogo,None,1,,7253.270332959844,,,,,,,,,,,,,,,,28,001,21,weiblich,Psychologie,2023-01-17_12h06.16.462,00_bat_bachelor,2022.2.4,59.97368428600845,
,,,,,,,,,,,,0,0,0,0,28,0,28,0,,,,,,,28,,,1,7254.269795747983,X,d,go,d,1,0.2519530364079401,,,,,,,,,,,,,,,,,28,001,21,weiblich,Psychologie,2023-01-17_12h06.16.462,00_bat_bachelor,2022.2.4,59.97368428600845,
,,,,,,,,,,,,0,0,0,0,29,0,29,0,,,,,,,29,,,1,7255.6524947139405,Y,l,go,l,1,0.46939438552362844,,,,,,,,,,,,,,,,,28,001,21,weiblich,Psychologie,2023-01-17_12h06.16.462,00_bat_bachelor,2022.2.4,59.97368428600845,
,,,,,,,,,,,,0,0,0,0,30,0,30,0,,,,,,,30,,,1,7257.235859279594,X,d,go,d,1,0.2952703487389954,,,,,,,,,,,,,,,,,28,001,21,weiblich,Psychologie,2023-01-17_12h06.16.462,00_bat_bachelor,2022.2.4,59.97368428600845,
,,,,,,,,,,,,0,0,0,0,31,0,31,0,,,,,,,31,,,1,7258.635549267623,Y,l,go,l,1,0.35017650394001976,,,,,,,,,,,,,,,,,28,001,21,weiblich,Psychologie,2023-01-17_12h06.16.462,00_bat_bachelor,2022.2.4,59.97368428600845,
,,,,,,,,,,,,0,0,0,0,32,0,32,0,,,,,,,32,,,1,7260.085814746271,X,d,go,d,1,0.37271225058066193,,,,,,,,,,,,,,,,,28,001,21,weiblich,Psychologie,2023-01-17_12h06.16.462,00_bat_bachelor,2022.2.4,59.97368428600845,
,,,,,,,,,,,,0,0,0,0,33,0,33,0,,,,,,,33,,,1,7261.5858755947265,X,None,nogo,None,1,,7262.385686600886,,,,,,,,,,,,,,,,28,001,21,weiblich,Psychologie,2023-01-17_12h06.16.462,00_bat_bachelor,2022.2.4,59.97368428600845,
,,,,,,,,,,,,0,0,0,0,34,0,34,0,,,,,,,34,,,1,7263.385772419031,Y,l,go,l,1,0.43218907024129294,,,,,,,,,,,,,,,,,28,001,21,weiblich,Psychologie,2023-01-17_12h06.16.462,00_bat_bachelor,2022.2.4,59.97368428600845,
,,,,,,,,,,,,0,0,0,0,35,0,35,0,,,,,,,35,,,1,7264.919125372544,X,d,go,d,1,0.33920341833436396,,,,,,,,,,,,,,,,,28,001,21,weiblich,Psychologie,2023-01-17_12h06.16.462,00_bat_bachelor,2022.2.4,59.97368428600845,
,,,,,,,,,,,,0,0,0,0,36,0,36,0,,,,,,,36,,,1,7266.369108669533,X,None,nogo,None,1,,7267.168974463537,,,,,,,,,,,,,,,,28,001,21,weiblich,Psychologie,2023-01-17_12h06.16.462,00_bat_bachelor,2022.2.4,59.97368428600845,
,,,,,,,,,,,,0,0,0,0,37,0,37,0,,,,,,,37,,,1,7268.1688324029965,Y,l,go,l,1,0.27274284450686537,,,,,,,,,,,,,,,,,28,001,21,weiblich,Psychologie,2023-01-17_12h06.16.462,00_bat_bachelor,2022.2.4,59.97368428600845,
,,,,,,,,,,,,0,0,0,0,38,0,38,0,,,,,,,38,,,1,7269.552560701792,X,d,go,d,1,0.49029619357315823,,,,,,,,,,,,,,,,,28,001,21,weiblich,Psychologie,2023-01-17_12h06.16.462,00_bat_bachelor,2022.2.4,59.97368428600845,
,,,,,,,,,,,,0,0,0,0,39,0,39,0,,,,,,,39,,,1,7271.152211804991,Y,l,go,l,1,0.4899087998201139,,,,,,,,,,,,,,,,,28,001,21,weiblich,Psychologie,2023-01-17_12h06.16.462,00_bat_bachelor,2022.2.4,59.97368428600845,
,,,,,,,,,,,,0,0,0,0,40,0,40,0,,,,,,,40,,,1,7272.752226059529,X,d,go,d,1,0.2810739919805201,,,,,,,,,,,,,,,,,28,001,21,weiblich,Psychologie,2023-01-17_12h06.16.462,00_bat_bachelor,2022.2.4,59.97368428600845,
,,,,,,,,,,,,0,0,0,0,41,0,41,0,,,,,,,41,,,1,7274.135776419018,X,None,nogo,None,1,,7274.935781364475,,,,,,,,,,,,,,,,28,001,21,weiblich,Psychologie,2023-01-17_12h06.16.462,00_bat_bachelor,2022.2.4,59.97368428600845,
,,,,,,,,,,,,0,0,0,0,42,0,42,0,,,,,,,42,,,1,7275.935590334266,Y,l,go,l,1,0.2663331506482791,,,,,,,,,,,,,,,,,28,001,21,weiblich,Psychologie,2023-01-17_12h06.16.462,00_bat_bachelor,2022.2.4,59.97368428600845,
,,,,,,,,,,,,0,0,0,0,43,0,43,0,,,,,,,43,,,1,7277.302219974692,X,d,go,d,1,0.3230890019185608,,,,,,,,,,,,,,,,,28,001,21,weiblich,Psychologie,2023-01-17_12h06.16.462,00_bat_bachelor,2022.2.4,59.97368428600845,
,,,,,,,,,,,,0,0,0,0,44,0,44,0,,,,,,,44,,,1,7278.752356483717,Y,l,go,l,1,0.37793212683754973,,,,,,,,,,,,,,,,,28,001,21,weiblich,Psychologie,2023-01-17_12h06.16.462,00_bat_bachelor,2022.2.4,59.97368428600845,
,,,,,,,,,,,,0,0,0,0,45,0,45,0,,,,,,,45,,,1,7280.252171514105,X,d,go,d,1,0.25247570282954257,,,,,,,,,,,,,,,,,28,001,21,weiblich,Psychologie,2023-01-17_12h06.16.462,00_bat_bachelor,2022.2.4,59.97368428600845,
,,,,,,,,,,,,0,0,0,0,46,0,46,0,,,,,,,46,,,1,7281.635796055372,X,None,nogo,l,0,0.31040634139208123,,,,,,,,,,,,,,,,,28,001,21,weiblich,Psychologie,2023-01-17_12h06.16.462,00_bat_bachelor,2022.2.4,59.97368428600845,
,,,,,,,,,,,,0,0,0,0,47,0,47,0,,,,,,,47,,,1,7283.052238520133,Y,l,go,l,1,0.44556506373919547,,,,,,,,,,,,,,,,,28,001,21,weiblich,Psychologie,2023-01-17_12h06.16.462,00_bat_bachelor,2022.2.4,59.97368428600845,
,,,,,,,,,,,,0,0,0,0,48,0,48,0,,,,,,,48,,,1,7284.602306617075,X,d,go,d,1,0.46432675160758663,,,,,,,,,,,,,,,,,28,001,21,weiblich,Psychologie,2023-01-17_12h06.16.462,00_bat_bachelor,2022.2.4,59.97368428600845,
,,,,,,,,,,,,0,0,0,0,49,0,49,0,,,,,,,49,,,1,7286.169096645288,X,None,nogo,None,1,,7286.968906681752,,,,,,,,,,,,,,,,28,001,21,weiblich,Psychologie,2023-01-17_12h06.16.462,00_bat_bachelor,2022.2.4,59.97368428600845,
,,,,,,,,,,,,0,0,0,0,50,0,50,0,,,,,,,50,,,1,7287.968949348389,X,None,nogo,None,1,,7288.768815142394,,,,,,,,,,,,,,,,28,001,21,weiblich,Psychologie,2023-01-17_12h06.16.462,00_bat_bachelor,2022.2.4,59.97368428600845,
,,,,,,,,,,,,0,0,0,0,51,0,51,0,,,,,,,51,,,1,7289.769048354414,Y,l,go,l,1,0.41671416864846833,,,,,,,,,,,,,,,,,28,001,21,weiblich,Psychologie,2023-01-17_12h06.16.462,00_bat_bachelor,2022.2.4,59.97368428600845,
,,,,,,,,,,,,0,0,0,0,52,0,52,0,,,,,,,52,,,1,7291.2855198615725,X,d,go,d,1,0.35727613685594406,,,,,,,,,,,,,,,,,28,001,21,weiblich,Psychologie,2023-01-17_12h06.16.462,00_bat_bachelor,2022.2.4,59.97368428600845,
,,,,,,,,,,,,0,0,0,0,53,0,53,0,,,,,,,53,,,1,7292.752182908036,X,None,nogo,None,1,,7293.552327489786,,,,,,,,,,,,,,,,28,001,21,weiblich,Psychologie,2023-01-17_12h06.16.462,00_bat_bachelor,2022.2.4,59.97368428600845,
,,,,,,,,,,,,0,0,0,0,54,0,54,0,,,,,,,54,,,1,7294.552016217203,Y,l,go,l,1,0.3219413661136059,,,,,,,,,,,,,,,,,28,001,21,weiblich,Psychologie,2023-01-17_12h06.16.462,00_bat_bachelor,2022.2.4,59.97368428600845,
,,,,,,,,,,,,0,0,0,0,55,0,55,0,,,,,,,55,,,1,7295.985291643505,X,d,go,d,1,0.3441828098730184,,,,,,,,,,,,,,,,,28,001,21,weiblich,Psychologie,2023-01-17_12h06.16.462,00_bat_bachelor,2022.2.4,59.97368428600845,
,,,,,,,,,,,,0,0,0,0,56,0,56,0,,,,,,,56,,,1,7297.435255061704,X,None,nogo,None,1,,7298.235344855595,,,,,,,,,,,,,,,,28,001,21,weiblich,Psychologie,2023-01-17_12h06.16.462,00_bat_bachelor,2022.2.4,59.97368428600845,
,,,,,,,,,,,,0,0,0,0,57,0,57,0,,,,,,,57,,,1,7299.235498552487,Y,l,go,l,1,0.32686306069081184,,,,,,,,,,,,,,,,,28,001,21,weiblich,Psychologie,2023-01-17_12h06.16.462,00_bat_bachelor,2022.2.4,59.97368428600845,
,,,,,,,,,,,,0,0,0,0,58,0,58,0,,,,,,,58,,,1,7300.668832160576,X,d,go,d,1,0.44622494220675435,,,,,,,,,,,,,,,,,28,001,21,weiblich,Psychologie,2023-01-17_12h06.16.462,00_bat_bachelor,2022.2.4,59.97368428600845,
,,,,,,,,,,,,0,0,0,0,59,0,59,0,,,,,,,59,,,1,7302.218844499963,X,None,nogo,None,1,,7303.018725324262,,,,,,,,,,,,,,,,28,001,21,weiblich,Psychologie,2023-01-17_12h06.16.462,00_bat_bachelor,2022.2.4,59.97368428600845,
,,,,,,,,,,,,0,0,0,0,60,0,60,0,,,,,,,60,,,1,7304.018910536295,Y,l,go,l,1,0.279798356234096,,,,,,,,,,,,,,,,,28,001,21,weiblich,Psychologie,2023-01-17_12h06.16.462,00_bat_bachelor,2022.2.4,59.97368428600845,
,,,,,,,,,,,,0,0,0,0,61,0,61,0,,,,,,,61,,,1,7305.402176289863,X,d,go,d,1,0.3040834353741957,,,,,,,,,,,,,,,,,28,001,21,weiblich,Psychologie,2023-01-17_12h06.16.462,00_bat_bachelor,2022.2.4,59.97368428600845,
,,,,,,,,,,,,0,0,0,0,62,0,62,0,,,,,,,62,,,1,7306.818711845481,Y,l,go,l,1,0.5509279217512812,,,,,,,,,,,,,,,,,28,001,21,weiblich,Psychologie,2023-01-17_12h06.16.462,00_bat_bachelor,2022.2.4,59.97368428600845,
,,,,,,,,,,,,0,0,0,0,63,0,63,0,,,,,,,63,,,1,7308.485505219156,Y,None,nogo,None,1,,7309.2853540434735,,,,,,,,,,,,,,,,28,001,21,weiblich,Psychologie,2023-01-17_12h06.16.462,00_bat_bachelor,2022.2.4,59.97368428600845,
,,,,,,,,,,,,0,0,0,0,64,0,64,0,,,,,,,64,,,1,7310.285554770642,X,d,go,d,1,0.23679086194897536,,,,,,,,,,,,,,,,,28,001,21,weiblich,Psychologie,2023-01-17_12h06.16.462,00_bat_bachelor,2022.2.4,59.97368428600845,
,,,,,,,,,,,,0,0,0,0,65,0,65,0,,,,,,,65,,,1,7311.635471207046,Y,l,go,l,1,0.6313681251631351,,,,,,,,,,,,,,,,,28,001,21,weiblich,Psychologie,2023-01-17_12h06.16.462,00_bat_bachelor,2022.2.4,59.97368428600845,
,,,,,,,,,,,,0,0,0,0,66,0,66,0,,,,,,,66,,,1,7313.368770245448,X,d,go,d,1,0.2898531392420409,,,,,,,,,,,,,,,,,28,001,21,weiblich,Psychologie,2023-01-17_12h06.16.462,00_bat_bachelor,2022.2.4,59.97368428600845,
,,,,,,,,,,,,0,0,0,0,67,0,67,0,,,,,,,67,,,1,7314.768812233306,Y,l,go,l,1,0.3944484824751271,,,,,,,,,,,,,,,,,28,001,21,weiblich,Psychologie,2023-01-17_12h06.16.462,00_bat_bachelor,2022.2.4,59.97368428600845,
,,,,,,,,,,,,0,0,0,0,68,0,68,0,,,,,,,68,,,1,7316.268671384896,X,d,go,d,1,0.28509241426945664,,,,,,,,,,,,,,,,,28,001,21,weiblich,Psychologie,2023-01-17_12h06.16.462,00_bat_bachelor,2022.2.4,59.97368428600845,
,,,,,,,,,,,,0,0,0,0,69,0,69,0,,,,,,,69,,,1,7317.668824402994,Y,l,go,l,1,0.3258584551222157,,,,,,,,,,,,,,,,,28,001,21,weiblich,Psychologie,2023-01-17_12h06.16.462,00_bat_bachelor,2022.2.4,59.97368428600845,
,,,,,,,,,,,,0,0,0,0,70,0,70,0,,,,,,,70,,,1,7319.102162859563,X,d,go,d,1,0.2683268466498703,,,,,,,,,,,,,,,,,28,001,21,weiblich,Psychologie,2023-01-17_12h06.16.462,00_bat_bachelor,2022.2.4,59.97368428600845,
,,,,,,,,,,,,0,0,0,0,71,0,71,0,,,,,,,71,,,1,7320.4854945525,Y,l,go,l,1,0.5971388084435603,,,,,,,,,,,,,,,,,28,001,21,weiblich,Psychologie,2023-01-17_12h06.16.462,00_bat_bachelor,2022.2.4,59.97368428600845,
,,,,,,,,,,,,0,0,0,0,72,0,72,0,,,,,,,72,,,1,7322.185486455521,Y,None,nogo,None,1,,7322.985348370741,,,,,,,,,,,,,,,,28,001,21,weiblich,Psychologie,2023-01-17_12h06.16.462,00_bat_bachelor,2022.2.4,59.97368428600845,
,,,,,,,,,,,,0,0,0,0,73,0,73,0,,,,,,,73,,,1,7323.985360007107,X,d,go,d,1,0.29737604469119105,,,,,,,,,,,,,,,,,28,001,21,weiblich,Psychologie,2023-01-17_12h06.16.462,00_bat_bachelor,2022.2.4,59.97368428600845,
,,,,,,,,,,,,0,0,0,0,74,0,74,0,,,,,,,74,,,1,7325.385569752456,Y,l,go,l,1,0.35242232104064897,,,,,,,,,,,,,,,,,28,001,21,weiblich,Psychologie,2023-01-17_12h06.16.462,00_bat_bachelor,2022.2.4,59.97368428600845,
,,,,,,,,,,,,0,0,0,0,75,0,75,0,,,,,,,75,,,1,7326.852153283806,X,d,go,d,1,0.27805338738835417,,,,,,,,,,,,,,,,,28,001,21,weiblich,Psychologie,2023-01-17_12h06.16.462,00_bat_bachelor,2022.2.4,59.97368428600845,
,,,,,,,,,,,,0,0,0,0,76,0,76,0,,,,,,,76,,,1,7328.235603764566,X,None,nogo,None,1,,7329.035480225226,,,,,,,,,,,,,,,,28,001,21,weiblich,Psychologie,2023-01-17_12h06.16.462,00_bat_bachelor,2022.2.4,59.97368428600845,
,,,,,,,,,,,,0,0,0,0,77,0,77,0,,,,,,,77,,,1,7330.035481194922,Y,l,go,l,1,0.24685534191667102,,,,,,,,,,,,,,,,,28,001,21,weiblich,Psychologie,2023-01-17_12h06.16.462,00_bat_bachelor,2022.2.4,59.97368428600845,
,,,,,,,,,,,,0,0,0,0,78,0,78,0,,,,,,,78,,,1,7331.385732176626,X,d,go,d,1,0.336426692418172,,,,,,,,,,,,,,,,,28,001,21,weiblich,Psychologie,2023-01-17_12h06.16.462,00_bat_bachelor,2022.2.4,59.97368428600845,
,,,,,,,,,,,,0,0,0,0,79,0,79,0,,,,,,,79,,,1,7332.835605897897,Y,l,go,l,1,0.2952514396456536,,,,,,,,,,,,,,,,,28,001,21,weiblich,Psychologie,2023-01-17_12h06.16.462,00_bat_bachelor,2022.2.4,59.97368428600845,
,,,,,,,,,,,,0,0,0,0,80,0,80,0,,,,,,,80,,,1,7334.235305582886,Y,None,nogo,d,0,0.2858400502736913,,,,,,,,,,,,,,,,,28,001,21,weiblich,Psychologie,2023-01-17_12h06.16.462,00_bat_bachelor,2022.2.4,59.97368428600845,
,,,,,,,,,,,,0,0,0,0,81,0,81,0,,,,,,,81,,,1,7335.635472661597,X,d,go,d,1,0.39036702990415506,,,,,,,,,,,,,,,,,28,001,21,weiblich,Psychologie,2023-01-17_12h06.16.462,00_bat_bachelor,2022.2.4,59.97368428600845,
,,,,,,,,,,,,0,0,0,0,82,0,82,0,,,,,,,82,,,1,7337.135464661595,Y,l,go,l,1,0.3793779443221865,,,,,,,,,,,,,,,,,28,001,21,weiblich,Psychologie,2023-01-17_12h06.16.462,00_bat_bachelor,2022.2.4,59.97368428600845,
,,,,,,,,,,,,0,0,0,0,83,0,83,0,,,,,,,83,,,1,7338.618812306042,X,d,go,d,1,0.4638259033818031,,,,,,,,,,,,,,,,,28,001,21,weiblich,Psychologie,2023-01-17_12h06.16.462,00_bat_bachelor,2022.2.4,59.97368428600845,
,,,,,,,,,,,,0,0,0,0,84,0,84,0,,,,,,,84,,,1,7340.185462697962,X,None,nogo,None,1,,7340.985560249435,,,,,,,,,,,,,,,,28,001,21,weiblich,Psychologie,2023-01-17_12h06.16.462,00_bat_bachelor,2022.2.4,59.97368428600845,
,,,,,,,,,,,,0,0,0,0,85,0,85,0,,,,,,,85,,,1,7341.985473461595,Y,l,go,l,1,0.34555347586865537,,,,,,,,,,,,,,,,,28,001,21,weiblich,Psychologie,2023-01-17_12h06.16.462,00_bat_bachelor,2022.2.4,59.97368428600845,
,,,,,,,,,,,,0,0,0,0,86,0,86,0,,,,,,,86,,,1,7343.435307910157,X,d,go,d,1,0.38234376106993295,,,,,,,,,,,,,,,,,28,001,21,weiblich,Psychologie,2023-01-17_12h06.16.462,00_bat_bachelor,2022.2.4,59.97368428600845,
,,,,,,,,,,,,0,0,0,0,87,0,87,0,,,,,,,87,,,1,7344.918704039417,Y,l,go,l,1,0.3390138426766498,,,,,,,,,,,,,,,,,28,001,21,weiblich,Psychologie,2023-01-17_12h06.16.462,00_bat_bachelor,2022.2.4,59.97368428600845,
,,,,,,,,,,,,0,0,0,0,88,0,88,0,,,,,,,88,,,1,7346.368880306007,Y,None,nogo,None,1,,7347.16881591815,,,,,,,,,,,,,,,,28,001,21,weiblich,Psychologie,2023-01-17_12h06.16.462,00_bat_bachelor,2022.2.4,59.97368428600845,
,,,,,,,,,,,,0,0,0,0,89,0,89,0,,,,,,,89,,,1,7348.168905130238,Y,None,nogo,d,0,0.27376199552963953,,,,,,,,,,,,,,,,,28,001,21,weiblich,Psychologie,2023-01-17_12h06.16.462,00_bat_bachelor,2022.2.4,59.97368428600845,
,,,,,,,,,,,,0,0,0,0,90,0,90,0,,,,,,,90,,,1,7349.552135974722,X,d,go,None,0,,7350.352207344389,,,,,,,,,,,,,,,,28,001,21,weiblich,Psychologie,2023-01-17_12h06.16.462,00_bat_bachelor,2022.2.4,59.97368428600845,
,,,,,,,,,,,,0,0,0,0,91,0,91,0,,,,,,,91,,,1,7351.35223401105,Y,l,go,l,1,0.4658055387699278,,,,,,,,,,,,,,,,,28,001,21,weiblich,Psychologie,2023-01-17_12h06.16.462,00_bat_bachelor,2022.2.4,59.97368428600845,
,,,,,,,,,,,,0,0,0,0,92,0,92,0,,,,,,,92,,,1,7352.9188916756975,Y,None,nogo,None,1,,7353.718594560691,,,,,,,,,,,,,,,,28,001,21,weiblich,Psychologie,2023-01-17_12h06.16.462,00_bat_bachelor,2022.2.4,59.97368428600845,
,,,,,,,,,,,,0,0,0,0,93,0,93,0,,,,,,,93,,,1,7354.718773469693,X,d,go,d,1,0.3158128842333099,,,,,,,,,,,,,,,,,28,001,21,weiblich,Psychologie,2023-01-17_12h06.16.462,00_bat_bachelor,2022.2.4,59.97368428600845,
,,,,,,,,,,,,0,0,0,0,94,0,94,0,,,,,,,94,,,1,7356.13543023738,Y,l,go,l,1,0.4976901293848641,,,,,,,,,,,,,,,,,28,001,21,weiblich,Psychologie,2023-01-17_12h06.16.462,00_bat_bachelor,2022.2.4,59.97368428600845,
,,,,,,,,,,,,0,0,0,0,95,0,95,0,,,,,,,95,,,1,7357.751978786924,X,d,go,d,1,0.433393918137881,,,,,,,,,,,,,,,,,28,001,21,weiblich,Psychologie,2023-01-17_12h06.16.462,00_bat_bachelor,2022.2.4,59.97368428600845,
,,,,,,,,,,,,0,0,0,0,96,0,96,0,,,,,,,96,,,1,7359.285603740325,Y,l,go,l,1,0.4521754847810371,,,,,,,,,,,,,,,,,28,001,21,weiblich,Psychologie,2023-01-17_12h06.16.462,00_bat_bachelor,2022.2.4,59.97368428600845,
,,,,,,,,,,,,0,0,0,0,97,0,97,0,,,,,,,97,,,1,7360.852181889859,Y,None,nogo,None,1,,7361.651673865854,,,,,,,,,,,,,,,,28,001,21,weiblich,Psychologie,2023-01-17_12h06.16.462,00_bat_bachelor,2022.2.4,59.97368428600845,
,,,,,,,,,,,,0,0,0,0,98,0,98,0,,,,,,,98,,,1,7362.652270229213,X,d,go,d,1,0.3339636633027112,,,,,,,,,,,,,,,,,28,001,21,weiblich,Psychologie,2023-01-17_12h06.16.462,00_bat_bachelor,2022.2.4,59.97368428600845,
,,,,,,,,,,,,0,0,0,0,99,0,99,0,,,,,,,99,,,1,7364.101999465696,Y,l,go,l,1,0.46825256789452396,,,,,,,,,,,,,,,,,28,001,21,weiblich,Psychologie,2023-01-17_12h06.16.462,00_bat_bachelor,2022.2.4,59.97368428600845,
,,,,,,,,,,,,0,0,0,0,100,0,100,0,,,,,,,100,,,1,7365.685029001208,X,d,go,d,1,0.3734894623339642,,,,,,,,,,,,,,,,,28,001,21,weiblich,Psychologie,2023-01-17_12h06.16.462,00_bat_bachelor,2022.2.4,59.97368428600845,
,,,,,,,,,,,,0,0,0,0,101,0,101,0,,,,,,,101,,,1,7367.168648160659,Y,l,go,l,1,0.4415291869081557,,,,,,,,,,,,,,,,,28,001,21,weiblich,Psychologie,2023-01-17_12h06.16.462,00_bat_bachelor,2022.2.4,59.97368428600845,
,,,,,,,,,,,,0,0,0,0,102,0,102,0,,,,,,,102,,,1,7368.718660015205,X,d,go,d,1,0.6032411085034255,,,,,,,,,,,,,,,,,28,001,21,weiblich,Psychologie,2023-01-17_12h06.16.462,00_bat_bachelor,2022.2.4,59.97368428600845,
,,,,,,,,,,,,0,0,0,0,103,0,103,0,,,,,,,103,,,1,7370.435017001204,Y,l,go,l,1,0.5836197846947471,,,,,,,,,,,,,,,,,28,001,21,weiblich,Psychologie,2023-01-17_12h06.16.462,00_bat_bachelor,2022.2.4,59.97368428600845,
,,,,,,,,,,,,0,0,0,0,104,0,104,0,,,,,,,104,,,1,7372.11858757888,X,d,go,d,1,0.45145742452587,,,,,,,,,,,,,,,,,28,001,21,weiblich,Psychologie,2023-01-17_12h06.16.462,00_bat_bachelor,2022.2.4,59.97368428600845,
,,,,,,,,,,,,0,0,0,0,105,0,105,0,,,,,,,105,,,1,7373.685042576952,X,None,nogo,None,1,,7374.485405825268,,,,,,,,,,,,,,,,28,001,21,weiblich,Psychologie,2023-01-17_12h06.16.462,00_bat_bachelor,2022.2.4,59.97368428600845,
,,,,,,,,,,,,0,0,0,0,106,0,106,0,,,,,,,106,,,1,7375.485131886002,Y,l,go,l,1,0.28458138422865886,,,,,,,,,,,,,,,,,28,001,21,weiblich,Psychologie,2023-01-17_12h06.16.462,00_bat_bachelor,2022.2.4,59.97368428600845,
,,,,,,,,,,,,0,0,0,0,107,0,107,0,,,,,,,107,,,1,7376.885018237575,X,d,go,d,1,0.42074907578353304,,,,,,,,,,,,,,,,,28,001,21,weiblich,Psychologie,2023-01-17_12h06.16.462,00_bat_bachelor,2022.2.4,59.97368428600845,
,,,,,,,,,,,,0,0,0,0,108,0,108,0,,,,,,,108,,,1,7378.418317857795,X,None,nogo,None,1,,7379.218689833375,,,,,,,,,,,,,,,,28,001,21,weiblich,Psychologie,2023-01-17_12h06.16.462,00_bat_bachelor,2022.2.4,59.97368428600845,
,,,,,,,,,,,,0,0,0,0,109,0,109,0,,,,,,,109,,,1,7380.218651530362,Y,l,go,l,1,0.3672363744553877,,,,,,,,,,,,,,,,,28,001,21,weiblich,Psychologie,2023-01-17_12h06.16.462,00_bat_bachelor,2022.2.4,59.97368428600845,
,,,,,,,,,,,,0,0,0,0,110,0,110,0,,,,,,,110,,,1,7381.7022212352895,X,d,go,d,1,0.5477870747854467,,,,,,,,,,,,,,,,,28,001,21,weiblich,Psychologie,2023-01-17_12h06.16.462,00_bat_bachelor,2022.2.4,59.97368428600845,
,,,,,,,,,,,,0,0,0,0,111,0,111,0,,,,,,,111,,,1,7383.3696584874415,Y,l,go,l,1,0.3197610035276739,,,,,,,,,,,,,,,,,28,001,21,weiblich,Psychologie,2023-01-17_12h06.16.462,00_bat_bachelor,2022.2.4,59.97368428600845,
,,,,,,,,,,,,0,0,0,0,112,0,112,0,,,,,,,112,,,1,7384.836285170299,X,d,go,d,1,0.4377730675332714,,,,,,,,,,,,,,,,,28,001,21,weiblich,Psychologie,2023-01-17_12h06.16.462,00_bat_bachelor,2022.2.4,59.97368428600845,
,,,,,,,,,,,,0,0,0,0,113,0,113,0,,,,,,,113,,,1,7386.419642948051,Y,l,go,l,1,0.4700484458153369,,,,,,,,,,,,,,,,,28,001,21,weiblich,Psychologie,2023-01-17_12h06.16.462,00_bat_bachelor,2022.2.4,59.97368428600845,
,,,,,,,,,,,,0,0,0,0,114,0,114,0,,,,,,,114,,,1,7388.035902043208,Y,None,nogo,None,1,,7388.83660953377,,,,,,,,,,,,,,,,28,001,21,weiblich,Psychologie,2023-01-17_12h06.16.462,00_bat_bachelor,2022.2.4,59.97368428600845,
,,,,,,,,,,,,0,0,0,0,115,0,115,0,,,,,,,115,,,1,7389.836212927898,X,d,go,d,1,0.26988466407055967,,,,,,,,,,,,,,,,,28,001,21,weiblich,Psychologie,2023-01-17_12h06.16.462,00_bat_bachelor,2022.2.4,59.97368428600845,
,,,,,,,,,,,,0,0,0,0,116,0,116,0,,,,,,,116,,,1,7391.235791885687,Y,l,go,l,1,0.3898288483469514,,,,,,,,,,,,,,,,,28,001,21,weiblich,Psychologie,2023-01-17_12h06.16.462,00_bat_bachelor,2022.2.4,59.97368428600845,
,,,,,,,,,,,,0,0,0,0,117,0,117,0,,,,,,,117,,,1,7392.735444491918,X,d,go,d,1,0.44286494384869,,,,,,,,,,,,,,,,,28,001,21,weiblich,Psychologie,2023-01-17_12h06.16.462,00_bat_bachelor,2022.2.4,59.97368428600845,
,,,,,,,,,,,,0,0,0,0,118,0,118,0,,,,,,,118,,,1,7394.301929065739,X,None,nogo,None,1,,7395.102230253469,,,,,,,,,,,,,,,,28,001,21,weiblich,Psychologie,2023-01-17_12h06.16.462,00_bat_bachelor,2022.2.4,59.97368428600845,
,,,,,,,,,,,,0,0,0,0,119,0,119,0,,,,,,,119,,,1,7396.102106132312,X,None,nogo,None,1,,7396.901949138453,,,,,,,,,,,,,,,,28,001,21,weiblich,Psychologie,2023-01-17_12h06.16.462,00_bat_bachelor,2022.2.4,59.97368428600845,
,,,,,,,,,,,,0,0,0,0,120,0,120,0,,,,,,,120,,,1,7397.902119805032,Y,l,go,l,1,0.3480019595299382,,,,,,,,,,,,,,,,,28,001,21,weiblich,Psychologie,2023-01-17_12h06.16.462,00_bat_bachelor,2022.2.4,59.97368428600845,
,,,,,,,,,,,,0,0,0,0,121,0,121,0,,,,,,,121,,,1,7399.3518155870115,X,d,go,d,1,0.5627601584419608,,,,,,,,,,,,,,,,,28,001,21,weiblich,Psychologie,2023-01-17_12h06.16.462,00_bat_bachelor,2022.2.4,59.97368428600845,
,,,,,,,,,,,,0,0,0,0,122,0,122,0,,,,,,,122,,,1,7401.0187781727145,Y,l,go,l,1,0.4316581614111783,,,,,,,,,,,,,,,,,28,001,21,weiblich,Psychologie,2023-01-17_12h06.16.462,00_bat_bachelor,2022.2.4,59.97368428600845,
,,,,,,,,,,,,0,0,0,0,123,0,123,0,,,,,,,123,,,1,7402.551926520289,X,d,go,d,1,0.417935986246448,,,,,,,,,,,,,,,,,28,001,21,weiblich,Psychologie,2023-01-17_12h06.16.462,00_bat_bachelor,2022.2.4,59.97368428600845,
,,,,,,,,,,,,0,0,0,0,124,0,124,0,,,,,,,124,,,1,7404.085428322229,Y,l,go,l,1,0.4202312578418059,,,,,,,,,,,,,,,,,28,001,21,weiblich,Psychologie,2023-01-17_12h06.16.462,00_bat_bachelor,2022.2.4,59.97368428600845,
,,,,,,,,,,,,0,0,0,0,125,0,125,0,,,,,,,125,,,1,7405.618762851518,X,d,go,d,1,0.5195650278765243,,,,,,,,,,,,,,,,,28,001,21,weiblich,Psychologie,2023-01-17_12h06.16.462,00_bat_bachelor,2022.2.4,59.97368428600845,
,,,,,,,,,,,,0,0,0,0,126,0,126,0,,,,,,,126,,,1,7407.252051756586,Y,l,go,l,1,0.43722761324897874,,,,,,,,,,,,,,,,,28,001,21,weiblich,Psychologie,2023-01-17_12h06.16.462,00_bat_bachelor,2022.2.4,59.97368428600845,
,,,,,,,,,,,,0,0,0,0,127,0,127,0,,,,,,,127,,,1,7408.802096095955,X,d,go,d,1,0.5360905956185888,,,,,,,,,,,,,,,,,28,001,21,weiblich,Psychologie,2023-01-17_12h06.16.462,00_bat_bachelor,2022.2.4,59.97368428600845,
,,,,,,,,,,,,0,0,0,0,128,0,128,0,,,,,,,128,,,1,7410.451963417232,Y,l,go,l,1,0.4231548927928088,,,,,,,,,,,,,,,,,28,001,21,weiblich,Psychologie,2023-01-17_12h06.16.462,00_bat_bachelor,2022.2.4,59.97368428600845,
,,,,,,,,,,,,0,0,0,0,129,0,129,0,,,,,,,129,,,1,7411.985051643613,X,d,go,d,1,0.5039965505711734,,,,,,,,,,,,,,,,,28,001,21,weiblich,Psychologie,2023-01-17_12h06.16.462,00_bat_bachelor,2022.2.4,59.97368428600845,
,,,,,,,,,,,,0,0,0,0,130,0,130,0,,,,,,,130,,,1,7413.6021131626185,X,None,nogo,None,1,,7414.401670108287,,,,,,,,,,,,,,,,28,001,21,weiblich,Psychologie,2023-01-17_12h06.16.462,00_bat_bachelor,2022.2.4,59.97368428600845,
,,,,,,,,,,,,0,0,0,0,131,0,131,0,,,,,,,131,,,1,7415.401955683905,Y,l,go,l,1,0.3043554352479987,,,,,,,,,,,,,,,,,28,001,21,weiblich,Psychologie,2023-01-17_12h06.16.462,00_bat_bachelor,2022.2.4,59.97368428600845,
,,,,,,,,,,,,0,0,0,0,132,0,132,0,,,,,,,132,,,1,7416.81839281533,X,d,go,d,1,0.4562288161541801,,,,,,,,,,,,,,,,,28,001,21,weiblich,Psychologie,2023-01-17_12h06.16.462,00_bat_bachelor,2022.2.4,59.97368428600845,
,,,,,,,,,,,,0,0,0,0,133,0,133,0,,,,,,,133,,,1,7418.385378722247,Y,l,go,l,1,0.29740125680109486,,,,,,,,,,,,,,,,,28,001,21,weiblich,Psychologie,2023-01-17_12h06.16.462,00_bat_bachelor,2022.2.4,59.97368428600845,
,,,,,,,,,,,,0,0,0,0,134,0,134,0,,,,,,,134,,,1,7419.785543376711,X,d,go,d,1,0.30510452578892,,,,,,,,,,,,,,,,,28,001,21,weiblich,Psychologie,2023-01-17_12h06.16.462,00_bat_bachelor,2022.2.4,59.97368428600845,
,,,,,,,,,,,,0,0,0,0,135,0,135,0,,,,,,,135,,,1,7421.201954811186,Y,l,go,l,1,0.3448140823020367,,,,,,,,,,,,,,,,,28,001,21,weiblich,Psychologie,2023-01-17_12h06.16.462,00_bat_bachelor,2022.2.4,59.97368428600845,
,,,,,,,,,,,,0,0,0,0,136,0,136,0,,,,,,,136,,,1,7422.652646956296,X,d,go,d,1,0.3972087235597428,,,,,,,,,,,,,,,,,28,001,21,weiblich,Psychologie,2023-01-17_12h06.16.462,00_bat_bachelor,2022.2.4,59.97368428600845,
,,,,,,,,,,,,0,0,0,0,137,0,137,0,,,,,,,137,,,1,7424.1858399099,X,None,nogo,None,1,,7424.985573825179,,,,,,,,,,,,,,,,28,001,21,weiblich,Psychologie,2023-01-17_12h06.16.462,00_bat_bachelor,2022.2.4,59.97368428600845,
,,,,,,,,,,,,0,0,0,0,138,0,138,0,,,,,,,138,,,1,7425.98580267356,Y,l,go,l,1,0.3766443698841613,,,,,,,,,,,,,,,,,28,001,21,weiblich,Psychologie,2023-01-17_12h06.16.462,00_bat_bachelor,2022.2.4,59.97368428600845,
,,,,,,,,,,,,0,0,0,0,139,0,139,0,,,,,,,139,,,1,7427.4690518938005,X,d,go,d,1,0.4926084348844597,,,,,,,,,,,,,,,,,28,001,21,weiblich,Psychologie,2023-01-17_12h06.16.462,00_bat_bachelor,2022.2.4,59.97368428600845,
,,,,,,,,,,,,0,0,0,0,140,0,140,0,,,,,,,140,,,1,7429.069067118035,Y,l,go,l,1,0.4289008293999359,,,,,,,,,,,,,,,,,28,001,21,weiblich,Psychologie,2023-01-17_12h06.16.462,00_bat_bachelor,2022.2.4,59.97368428600845,
,,,,,,,,,,,,0,0,0,0,141,0,141,0,,,,,,,141,,,1,7430.618770124245,Y,None,nogo,None,1,,7431.4190252513945,,,,,,,,,,,,,,,,28,001,21,weiblich,Psychologie,2023-01-17_12h06.16.462,00_bat_bachelor,2022.2.4,59.97368428600845,
,,,,,,,,,,,,0,0,0,0,142,0,142,0,,,,,,,142,,,1,7432.4187721605995,X,d,go,d,1,0.24777461418125313,,,,,,,,,,,,,,,,,28,001,21,weiblich,Psychologie,2023-01-17_12h06.16.462,00_bat_bachelor,2022.2.4,59.97368428600845,
,,,,,,,,,,,,0,0,0,0,143,0,143,0,,,,,,,143,,,1,7433.769024596841,Y,l,go,l,1,0.5775441512669204,,,,,,,,,,,,,,,,,28,001,21,weiblich,Psychologie,2023-01-17_12h06.16.462,00_bat_bachelor,2022.2.4,59.97368428600845,
,,,,,,,,,,,,0,0,0,0,144,0,144,0,,,,,,,144,,,1,7435.452347417056,X,d,go,d,1,0.36563734491937794,,,,,,,,,,,,,,,,,28,001,21,weiblich,Psychologie,2023-01-17_12h06.16.462,00_bat_bachelor,2022.2.4,59.97368428600845,
,,,,,,,,,,,,0,0,0,0,145,0,145,0,,,,,,,145,,,1,7436.918787433315,X,None,nogo,l,0,0.3697973429079866,,,,,,,,,,,,,,,,,28,001,21,weiblich,Psychologie,2023-01-17_12h06.16.462,00_bat_bachelor,2022.2.4,59.97368428600845,
,,,,,,,,,,,,0,0,0,0,146,0,146,0,,,,,,,146,,,1,7438.418776524239,Y,l,go,l,1,0.3099404022359522,,,,,,,,,,,,,,,,,28,001,21,weiblich,Psychologie,2023-01-17_12h06.16.462,00_bat_bachelor,2022.2.4,59.97368428600845,
,,,,,,,,,,,,0,0,0,0,147,0,147,0,,,,,,,147,,,1,7439.852096556569,X,d,go,d,1,0.3012291337217903,,,,,,,,,,,,,,,,,28,001,21,weiblich,Psychologie,2023-01-17_12h06.16.462,00_bat_bachelor,2022.2.4,59.97368428600845,
,,,,,,,,,,,,0,0,0,0,148,0,148,0,,,,,,,148,,,1,7441.285619740316,Y,l,go,l,1,0.5481725291465409,,,,,,,,,,,,,,,,,28,001,21,weiblich,Psychologie,2023-01-17_12h06.16.462,00_bat_bachelor,2022.2.4,59.97368428600845,
,,,,,,,,,,,,0,0,0,0,149,0,149,0,,,,,,,149,,,1,7442.93566548574,Y,None,nogo,None,1,,7443.7355070373305,,,,,,,,,,,,,,,,28,001,21,weiblich,Psychologie,2023-01-17_12h06.16.462,00_bat_bachelor,2022.2.4,59.97368428600845,
,,,,,,,,,,,,0,0,0,0,150,0,150,0,,,,,,,150,,,1,7444.735604491827,X,d,go,d,1,0.3144611273164628,,,,,,,,,,,,,,,,,28,001,21,weiblich,Psychologie,2023-01-17_12h06.16.462,00_bat_bachelor,2022.2.4,59.97368428600845,
,,,,,,,,,,,,0,0,0,0,151,0,151,0,,,,,,,151,,,1,7446.152360653403,Y,l,go,l,1,0.384670062965597,,,,,,,,,,,,,,,,,28,001,21,weiblich,Psychologie,2023-01-17_12h06.16.462,00_bat_bachelor,2022.2.4,59.97368428600845,
,,,,,,,,,,,,0,0,0,0,152,0,152,0,,,,,,,152,,,1,7447.668839918144,X,d,go,d,1,0.42065162128710654,,,,,,,,,,,,,,,,,28,001,21,weiblich,Psychologie,2023-01-17_12h06.16.462,00_bat_bachelor,2022.2.4,59.97368428600845,
,,,,,,,,,,,,0,0,0,0,153,0,153,0,,,,,,,153,,,1,7449.218997712,X,None,nogo,l,0,0.3908761205675546,,,,,,,,,,,,,,,,,28,001,21,weiblich,Psychologie,2023-01-17_12h06.16.462,00_bat_bachelor,2022.2.4,59.97368428600845,
,,,,,,,,,,,,0,0,0,0,154,0,154,0,,,,,,,154,,,1,7450.718662439438,Y,l,go,l,1,0.2995699830207741,,,,,,,,,,,,,,,,,28,001,21,weiblich,Psychologie,2023-01-17_12h06.16.462,00_bat_bachelor,2022.2.4,59.97368428600845,
,,,,,,,,,,,,0,0,0,0,155,0,155,0,,,,,,,155,,,1,7452.1185933970555,X,d,go,None,0,,7452.918604645529,,,,,,,,,,,,,,,,28,001,21,weiblich,Psychologie,2023-01-17_12h06.16.462,00_bat_bachelor,2022.2.4,59.97368428600845,
,,,,,,,,,,,,0,0,0,0,156,0,156,0,,,,,,,156,,,1,7453.918480039531,Y,l,go,l,1,0.38002861067070626,,,,,,,,,,,,,,,,,28,001,21,weiblich,Psychologie,2023-01-17_12h06.16.462,00_bat_bachelor,2022.2.4,59.97368428600845,
,,,,,,,,,,,,0,0,0,0,157,0,157,0,,,,,,,157,,,1,7455.401753017344,X,d,go,d,1,0.448281668490381,,,,,,,,,,,,,,,,,28,001,21,weiblich,Psychologie,2023-01-17_12h06.16.462,00_bat_bachelor,2022.2.4,59.97368428600845,
,,,,,,,,,,,,0,0,0,0,158,0,158,0,,,,,,,158,,,1,7456.951912750592,X,None,nogo,None,1,,7457.751640847695,,,,,,,,,,,,,,,,28,001,21,weiblich,Psychologie,2023-01-17_12h06.16.462,00_bat_bachelor,2022.2.4,59.97368428600845,
,,,,,,,,,,,,0,0,0,0,159,0,159,0,,,,,,,159,,,1,7458.751652968902,Y,l,go,l,1,0.25017558271065354,,,,,,,,,,,,,,,,,28,001,21,weiblich,Psychologie,2023-01-17_12h06.16.462,00_bat_bachelor,2022.2.4,59.97368428600845,
,,,,,,,,,,,,0,0,0,0,160,0,160,0,,,,,,,160,,,1,7460.102011586903,X,d,go,d,1,0.6283640054170974,,,,,,,,,,,,,,,,,28,001,21,weiblich,Psychologie,2023-01-17_12h06.16.462,00_bat_bachelor,2022.2.4,59.97368428600845,
,,,,,,,,,,,,0,0,0,0,161,0,161,0,,,,,,,161,,,1,7461.8353140192485,Y,l,go,l,1,0.4149725937313633,,,,,,,,,,,,,,,,,28,001,21,weiblich,Psychologie,2023-01-17_12h06.16.462,00_bat_bachelor,2022.2.4,59.97368428600845,
,,,,,,,,,,,,0,0,0,0,162,0,162,0,,,,,,,162,,,1,7463.351923223323,Y,None,nogo,None,1,,7464.151933986941,,,,,,,,,,,,,,,,28,001,21,weiblich,Psychologie,2023-01-17_12h06.16.462,00_bat_bachelor,2022.2.4,59.97368428600845,
,,,,,,,,,,,,0,0,0,0,163,0,163,0,,,,,,,163,,,1,7465.151602835598,X,d,go,d,1,0.3951951487833867,,,,,,,,,,,,,,,,,28,001,21,weiblich,Psychologie,2023-01-17_12h06.16.462,00_bat_bachelor,2022.2.4,59.97368428600845,
,,,,,,,,,,,,0,0,0,0,164,0,164,0,,,,,,,164,,,1,7466.651924047561,Y,l,go,l,1,0.47820019944629166,,,,,,,,,,,,,,,,,28,001,21,weiblich,Psychologie,2023-01-17_12h06.16.462,00_bat_bachelor,2022.2.4,59.97368428600845,
,,,,,,,,,,,,0,0,0,0,165,0,165,0,,,,,,,165,,,1,7468.234992855767,X,d,go,d,1,0.4315844644588651,,,,,,,,,,,,,,,,,28,001,21,weiblich,Psychologie,2023-01-17_12h06.16.462,00_bat_bachelor,2022.2.4,59.97368428600845,
,,,,,,,,,,,,0,0,0,0,166,0,166,0,,,,,,,166,,,1,7469.768550900102,X,None,nogo,None,1,,7470.568591239484,,,,,,,,,,,,,,,,28,001,21,weiblich,Psychologie,2023-01-17_12h06.16.462,00_bat_bachelor,2022.2.4,59.97368428600845,
,,,,,,,,,,,,0,0,0,0,167,0,167,0,,,,,,,167,,,1,7471.568584936453,Y,l,go,l,1,0.2817755674041109,,,,,,,,,,,,,,,,,28,001,21,weiblich,Psychologie,2023-01-17_12h06.16.462,00_bat_bachelor,2022.2.4,59.97368428600845,
,,,,,,,,,,,,0,0,0,0,168,0,168,0,,,,,,,168,,,1,7472.951912750592,X,d,go,d,1,0.5311713252740446,,,,,,,,,,,,,,,,,28,001,21,weiblich,Psychologie,2023-01-17_12h06.16.462,00_bat_bachelor,2022.2.4,59.97368428600845,
,,,,,,,,,,,,0,0,0,0,169,0,169,0,,,,,,,169,,,1,7474.585258382911,Y,l,go,l,1,0.5287558112904662,,,,,,,,,,,,,,,,,28,001,21,weiblich,Psychologie,2023-01-17_12h06.16.462,00_bat_bachelor,2022.2.4,59.97368428600845,
,,,,,,,,,,,,0,0,0,0,170,0,170,0,,,,,,,170,,,1,7476.218445469844,X,d,go,d,1,0.5282229630684014,,,,,,,,,,,,,,,,,28,001,21,weiblich,Psychologie,2023-01-17_12h06.16.462,00_bat_bachelor,2022.2.4,59.97368428600845,
,,,,,,,,,,,,0,0,0,0,171,0,171,0,,,,,,,171,,,1,7477.852187223194,Y,l,go,l,1,0.4789769263443304,,,,,,,,,,,,,,,,,28,001,21,weiblich,Psychologie,2023-01-17_12h06.16.462,00_bat_bachelor,2022.2.4,59.97368428600845,
,,,,,,,,,,,,0,0,0,0,172,0,172,0,,,,,,,172,,,1,7479.434949122457,X,d,go,d,1,0.5434588344651274,,,,,,,,,,,,,,,,,28,001,21,weiblich,Psychologie,2023-01-17_12h06.16.462,00_bat_bachelor,2022.2.4,59.97368428600845,
,,,,,,,,,,,,0,0,0,0,173,0,173,0,,,,,,,173,,,1,7481.0849488073,X,None,nogo,None,1,,7481.885238843533,,,,,,,,,,,,,,,,28,001,21,weiblich,Psychologie,2023-01-17_12h06.16.462,00_bat_bachelor,2022.2.4,59.97368428600845,
,,,,,,,,,,,,0,0,0,0,174,0,174,0,,,,,,,174,,,1,7482.884969752748,Y,l,go,l,1,0.40476750777452253,,,,,,,,,,,,,,,,,28,001,21,weiblich,Psychologie,2023-01-17_12h06.16.462,00_bat_bachelor,2022.2.4,59.97368428600845,
,,,,,,,,,,,,0,0,0,0,175,0,175,0,,,,,,,175,,,1,7484.401987199046,X,d,go,d,1,0.44028021782287396,,,,,,,,,,,,,,,,,28,001,21,weiblich,Psychologie,2023-01-17_12h06.16.462,00_bat_bachelor,2022.2.4,59.97368428600845,
,,,,,,,,,,,,0,0,0,0,176,0,176,0,,,,,,,176,,,1,7485.951908386953,X,None,nogo,None,1,,7486.751619029528,,,,,,,,,,,,,,,,28,001,21,weiblich,Psychologie,2023-01-17_12h06.16.462,00_bat_bachelor,2022.2.4,59.97368428600845,
,,,,,,,,,,,,0,0,0,0,177,0,177,0,,,,,,,177,,,1,7487.751918665745,Y,l,go,l,1,0.2908107145340182,,,,,,,,,,,,,,,,,28,001,21,weiblich,Psychologie,2023-01-17_12h06.16.462,00_bat_bachelor,2022.2.4,59.97368428600845,
,,,,,,,,,,,,0,0,0,0,178,0,178,0,,,,,,,178,,,1,7489.1519247748365,X,d,go,None,0,,7489.951920023319,,,,,,,,,,,,,,,,28,001,21,weiblich,Psychologie,2023-01-17_12h06.16.462,00_bat_bachelor,2022.2.4,59.97368428600845,
,,,,,,,,,,,,0,0,0,0,179,0,179,0,,,,,,,179,,,1,7490.95291687132,Y,l,go,l,1,0.4643529334280174,,,,,,,,,,,,,,,,,28,001,21,weiblich,Psychologie,2023-01-17_12h06.16.462,00_bat_bachelor,2022.2.4,59.97368428600845,
,,,,,,,,,,,,0,0,0,0,180,0,180,0,,,,,,,180,,,1,7492.552595126021,Y,None,nogo,None,1,,7493.3531392227305,,,,,,,,,,,,,,,,28,001,21,weiblich,Psychologie,2023-01-17_12h06.16.462,00_bat_bachelor,2022.2.4,59.97368428600845,
,,,,,,,,,,,,0,0,0,0,181,0,181,0,,,,,,,181,,,1,7494.35254722301,Y,None,nogo,None,1,,7495.152835319837,,,,,,,,,,,,,,,,28,001,21,weiblich,Psychologie,2023-01-17_12h06.16.462,00_bat_bachelor,2022.2.4,59.97368428600845,
,,,,,,,,,,,,0,0,0,0,182,0,182,0,,,,,,,182,,,1,7496.152702956271,X,d,go,d,1,0.2721120569476625,,,,,,,,,,,,,,,,,28,001,21,weiblich,Psychologie,2023-01-17_12h06.16.462,00_bat_bachelor,2022.2.4,59.97368428600845,
,,,,,,,,,,,,0,0,0,0,183,0,183,0,,,,,,,183,,,1,7497.569594875356,Y,l,go,l,1,0.5678491256694542,,,,,,,,,,,,,,,,,28,001,21,weiblich,Psychologie,2023-01-17_12h06.16.462,00_bat_bachelor,2022.2.4,59.97368428600845,
,,,,,,,,,,,,0,0,0,0,184,0,184,0,,,,,,,184,,,1,7499.285845679595,Y,None,nogo,None,1,,7500.086209897607,,,,,,,,,,,,,,,,28,001,21,weiblich,Psychologie,2023-01-17_12h06.16.462,00_bat_bachelor,2022.2.4,59.97368428600845,
,,,,,,,,,,,,0,0,0,0,185,0,185,0,,,,,,,185,,,1,7501.086159958228,X,d,go,d,1,0.2834599302150309,,,,,,,,,,,,,,,,,28,001,21,weiblich,Psychologie,2023-01-17_12h06.16.462,00_bat_bachelor,2022.2.4,59.97368428600845,
,,,,,,,,,,,,0,0,0,0,186,0,186,0,,,,,,,186,,,1,7502.50289187739,Y,l,go,l,1,0.43446300852519926,,,,,,,,,,,,,,,,,28,001,21,weiblich,Psychologie,2023-01-17_12h06.16.462,00_bat_bachelor,2022.2.4,59.97368428600845,
,,,,,,,,,,,,0,0,0,0,187,0,187,0,,,,,,,187,,,1,7504.086307352103,X,d,go,d,1,0.6114030439493945,,,,,,,,,,,,,,,,,28,001,21,weiblich,Psychologie,2023-01-17_12h06.16.462,00_bat_bachelor,2022.2.4,59.97368428600845,
,,,,,,,,,,,,0,0,0,0,188,0,188,0,,,,,,,188,,,1,7505.836215352145,Y,l,go,l,1,0.4451543972827494,,,,,,,,,,,,,,,,,28,001,21,weiblich,Psychologie,2023-01-17_12h06.16.462,00_bat_bachelor,2022.2.4,59.97368428600845,
,,,,,,,,,,,,0,0,0,0,189,0,189,0,,,,,,,189,,,1,7507.419458705728,X,d,go,d,1,0.5572241611225763,,,,,,,,,,,,,,,,,28,001,21,weiblich,Psychologie,2023-01-17_12h06.16.462,00_bat_bachelor,2022.2.4,59.97368428600845,
,,,,,,,,,,,,0,0,0,0,190,0,190,0,,,,,,,190,,,1,7509.119601396567,Y,l,go,l,1,0.5063330342818517,,,,,,,,,,,,,,,,,28,001,21,weiblich,Psychologie,2023-01-17_12h06.16.462,00_bat_bachelor,2022.2.4,59.97368428600845,
,,,,,,,,,,,,0,0,0,0,191,0,191,0,,,,,,,191,,,1,7510.769477445108,X,d,go,d,1,0.4562501494656317,,,,,,,,,,,,,,,,,28,001,21,weiblich,Psychologie,2023-01-17_12h06.16.462,00_bat_bachelor,2022.2.4,59.97368428600845,
,,,,,,,,,,,,0,0,0,0,192,0,192,0,,,,,,,192,,,1,7512.369547457201,Y,l,go,l,1,0.39218908963084687,,,,,,,,,,,,,,,,,28,001,21,weiblich,Psychologie,2023-01-17_12h06.16.462,00_bat_bachelor,2022.2.4,59.97368428600845,
,,,,,,,,,,,,0,0,0,0,193,0,193,0,,,,,,,193,,,1,7513.902501865465,Y,None,nogo,None,1,,7514.7029674167425,,,,,,,,,,,,,,,,28,001,21,weiblich,Psychologie,2023-01-17_12h06.16.462,00_bat_bachelor,2022.2.4,59.97368428600845,
,,,,,,,,,,,,0,0,0,0,194,0,194,0,,,,,,,194,,,1,7515.702380750372,X,d,go,d,1,0.25878212400129996,,,,,,,,,,,,,,,,,28,001,21,weiblich,Psychologie,2023-01-17_12h06.16.462,00_bat_bachelor,2022.2.4,59.97368428600845,
,,,,,,,,,,,,0,0,0,0,195,0,195,0,,,,,,,195,,,1,7517.085667837251,Y,l,go,l,1,0.5399732603982557,,,,,,,,,,,,,,,,,28,001,21,weiblich,Psychologie,2023-01-17_12h06.16.462,00_bat_bachelor,2022.2.4,59.97368428600845,
,,,,,,,,,,,,0,0,0,0,196,0,196,0,,,,,,,196,,,1,7518.75270751385,Y,None,nogo,None,1,,7519.552289186773,,,,,,,,,,,,,,,,28,001,21,weiblich,Psychologie,2023-01-17_12h06.16.462,00_bat_bachelor,2022.2.4,59.97368428600845,
,,,,,,,,,,,,0,0,0,0,197,0,197,0,,,,,,,197,,,1,7520.552479732141,X,d,go,d,1,0.2575530336907832,,,,,,,,,,,,,,,,,28,001,21,weiblich,Psychologie,2023-01-17_12h06.16.462,00_bat_bachelor,2022.2.4,59.97368428600845,
,,,,,,,,,,,,0,0,0,0,198,0,198,0,,,,,,,198,,,1,7521.9356325160625,Y,l,go,l,1,0.4414889445179142,,,,,,,,,,,,,,,,,28,001,21,weiblich,Psychologie,2023-01-17_12h06.16.462,00_bat_bachelor,2022.2.4,59.97368428600845,
,,,,,,,,,,,,0,0,0,0,199,0,199,0,,,,,,,199,,,1,7523.485931885618,Y,None,nogo,None,1,,7524.285635740307,,,,,,,,,,,,,,,,28,001,21,weiblich,Psychologie,2023-01-17_12h06.16.462,00_bat_bachelor,2022.2.4,59.97368428600845,
,,,,,,,,,,,,0,0,0,0,200,0,200,0,,,,,,,200,,,1,7525.285908709862,X,d,go,d,1,0.3393178425321821,,,,,,,,,,,,,,,,,28,001,21,weiblich,Psychologie,2023-01-17_12h06.16.462,00_bat_bachelor,2022.2.4,59.97368428600845,
,,,,,,,,,,,,0,0,0,0,201,0,201,0,,,,,,,201,,,1,7526.75228278678,Y,l,go,l,1,0.44194761094695423,,,,,,,,,,,,,,,,,28,001,21,weiblich,Psychologie,2023-01-17_12h06.16.462,00_bat_bachelor,2022.2.4,59.97368428600845,
,,,,,,,,,,,,0,0,0,0,202,0,202,0,,,,,,,202,,,1,7528.302473550328,Y,None,nogo,None,1,,7529.102384435217,,,,,,,,,,,,,,,,28,001,21,weiblich,Psychologie,2023-01-17_12h06.16.462,00_bat_bachelor,2022.2.4,59.97368428600845,
,,,,,,,,,,,,0,0,0,0,203,0,203,0,,,,,,,203,,,1,7530.102436798828,X,d,go,d,1,0.30620125253335573,,,,,,,,,,,,,,,,,28,001,21,weiblich,Psychologie,2023-01-17_12h06.16.462,00_bat_bachelor,2022.2.4,59.97368428600845,
,,,,,,,,,,,,0,0,0,0,204,0,204,0,,,,,,,204,,,1,7531.535836831114,Y,l,go,l,1,0.5060881859244546,,,,,,,,,,,,,,,,,28,001,21,weiblich,Psychologie,2023-01-17_12h06.16.462,00_bat_bachelor,2022.2.4,59.97368428600845,
,,,,,,,,,,,,0,0,0,0,205,0,205,0,,,,,,,205,,,1,7533.168653009139,X,d,go,d,1,0.601340503373649,,,,,,,,,,,,,,,,,28,001,21,weiblich,Psychologie,2023-01-17_12h06.16.462,00_bat_bachelor,2022.2.4,59.97368428600845,
,,,,,,,,,,,,0,0,0,0,206,0,206,0,,,,,,,206,,,1,7534.8852165405115,X,None,nogo,l,0,0.5012314610066824,,,,,,,,,,,,,,,,,28,001,21,weiblich,Psychologie,2023-01-17_12h06.16.462,00_bat_bachelor,2022.2.4,59.97368428600845,
,,,,,,,,,,,,0,0,0,0,207,0,207,0,,,,,,,207,,,1,7536.501875635455,Y,l,go,l,1,0.5325914457935141,,,,,,,,,,,,,,,,,28,001,21,weiblich,Psychologie,2023-01-17_12h06.16.462,00_bat_bachelor,2022.2.4,59.97368428600845,
,,,,,,,,,,,,0,0,0,0,208,0,208,0,,,,,,,208,,,1,7538.1353342374205,X,d,go,d,1,0.4669803260912886,,,,,,,,,,,,,,,,,28,001,21,weiblich,Psychologie,2023-01-17_12h06.16.462,00_bat_bachelor,2022.2.4,59.97368428600845,
,,,,,,,,,,,,0,0,0,0,209,0,209,0,,,,,,,209,,,1,7539.718274075989,Y,l,go,l,1,0.43473791747237556,,,,,,,,,,,,,,,,,28,001,21,weiblich,Psychologie,2023-01-17_12h06.16.462,00_bat_bachelor,2022.2.4,59.97368428600845,
,,,,,,,,,,,,0,0,0,0,210,0,210,0,,,,,,,210,,,1,7541.268561809193,Y,None,nogo,None,1,,7542.0685037243675,,,,,,,,,,,,,,,,28,001,21,weiblich,Psychologie,2023-01-17_12h06.16.462,00_bat_bachelor,2022.2.4,59.97368428600845,
,,,,,,,,,,,,0,0,0,0,211,0,211,0,,,,,,,211,,,1,7543.068531360725,X,d,go,d,1,0.38130764036031906,,,,,,,,,,,,,,,,,28,001,21,weiblich,Psychologie,2023-01-17_12h06.16.462,00_bat_bachelor,2022.2.4,59.97368428600845,
,,,,,,,,,,,,0,0,0,0,212,0,212,0,,,,,,,212,,,1,7544.55191245969,Y,l,go,None,0,,7545.351923708164,,,,,,,,,,,,,,,,28,001,21,weiblich,Psychologie,2023-01-17_12h06.16.462,00_bat_bachelor,2022.2.4,59.97368428600845,
,,,,,,,,,,,,0,0,0,0,213,0,213,0,,,,,,,213,,,1,7546.351623587092,Y,None,nogo,None,1,,7547.151567926514,,,,,,,,,,,,,,,,28,001,21,weiblich,Psychologie,2023-01-17_12h06.16.462,00_bat_bachelor,2022.2.4,59.97368428600845,
,,,,,,,,,,,,0,0,0,0,214,0,214,0,,,,,,,214,,,1,7548.151836532445,X,d,go,d,1,0.33845432780799456,,,,,,,,,,,,,,,,,28,001,21,weiblich,Psychologie,2023-01-17_12h06.16.462,00_bat_bachelor,2022.2.4,59.97368428600845,
,,,,,,,,,,,,0,0,0,0,215,0,215,0,,,,,,,215,,,1,7549.601916799074,Y,l,go,l,1,0.48858225501317065,,,,,,,,,,,,,,,,,28,001,21,weiblich,Psychologie,2023-01-17_12h06.16.462,00_bat_bachelor,2022.2.4,59.97368428600845,
,,,,,,,,,,,,0,0,0,0,216,0,216,0,,,,,,,216,,,1,7551.201578568944,X,d,go,d,1,0.44128482340602204,,,,,,,,,,,,,,,,,28,001,21,weiblich,Psychologie,2023-01-17_12h06.16.462,00_bat_bachelor,2022.2.4,59.97368428600845,
,,,,,,,,,,,,0,0,0,0,217,0,217,0,,,,,,,217,,,1,7552.751841090023,X,None,nogo,None,1,,7553.551879489998,,,,,,,,,,,,,,,,28,001,21,weiblich,Psychologie,2023-01-17_12h06.16.462,00_bat_bachelor,2022.2.4,59.97368428600845,
,,,,,,,,,,,,0,0,0,0,218,0,218,0,,,,,,,218,,,1,7554.551865429399,Y,l,go,l,1,0.4028959935239982,,,,,,,,,,,,,,,,,28,001,21,weiblich,Psychologie,2023-01-17_12h06.16.462,00_bat_bachelor,2022.2.4,59.97368428600845,
,,,,,,,,,,,,0,0,0,0,219,0,219,0,,,,,,,219,,,1,7556.068604087952,X,d,go,d,1,0.4696421429835027,,,,,,,,,,,,,,,,,28,001,21,weiblich,Psychologie,2023-01-17_12h06.16.462,00_bat_bachelor,2022.2.4,59.97368428600845,
,,,,,,,,,,,,0,0,0,0,220,0,220,0,,,,,,,220,,,1,7557.651874108182,X,None,nogo,None,1,,7558.451932386946,,,,,,,,,,,,,,,,28,001,21,weiblich,Psychologie,2023-01-17_12h06.16.462,00_bat_bachelor,2022.2.4,59.97368428600845,
,,,,,,,,,,,,0,0,0,0,221,0,221,0,,,,,,,221,,,1,7559.452277114047,Y,l,go,l,1,0.3981032685696846,,,,,,,,,,,,,,,,,28,001,21,weiblich,Psychologie,2023-01-17_12h06.16.462,00_bat_bachelor,2022.2.4,59.97368428600845,
,,,,,,,,,,,,0,0,0,0,222,0,222,0,,,,,,,222,,,1,7560.951869114244,X,d,go,d,1,0.5472057417355245,,,,,,,,,,,,,,,,,28,001,21,weiblich,Psychologie,2023-01-17_12h06.16.462,00_bat_bachelor,2022.2.4,59.97368428600845,
,,,,,,,,,,,,0,0,0,0,223,0,223,0,,,,,,,223,,,1,7562.60158419318,Y,l,go,l,1,0.5923460834892467,,,,,,,,,,,,,,,,,28,001,21,weiblich,Psychologie,2023-01-17_12h06.16.462,00_bat_bachelor,2022.2.4,59.97368428600845,
,,,,,,,,,,,,0,0,0,0,224,0,224,0,,,,,,,224,,,1,7564.301564459849,Y,None,nogo,d,0,0.5072140035626944,,,,,,,,,,,,,,,,,28,001,21,weiblich,Psychologie,2023-01-17_12h06.16.462,00_bat_bachelor,2022.2.4,59.97368428600845,
,,,,,,,,,,,,0,0,0,0,225,0,225,0,,,,,,,225,,,1,7565.9183345850615,X,d,go,d,1,0.47649741238274146,,,,,,,,,,,,,,,,,28,001,21,weiblich,Psychologie,2023-01-17_12h06.16.462,00_bat_bachelor,2022.2.4,59.97368428600845,
,,,,,,,,,,,,0,0,0,0,226,0,226,0,,,,,,,226,,,1,7567.501913938468,Y,l,go,l,1,0.44481209441437386,,,,,,,,,,,,,,,,,28,001,21,weiblich,Psychologie,2023-01-17_12h06.16.462,00_bat_bachelor,2022.2.4,59.97368428600845,
,,,,,,,,,,,,0,0,0,0,227,0,227,0,,,,,,,227,,,1,7569.051959247547,Y,None,nogo,None,1,,7569.851963223293,,,,,,,,,,,,,,,,28,001,21,weiblich,Psychologie,2023-01-17_12h06.16.462,00_bat_bachelor,2022.2.4,59.97368428600845,
,,,,,,,,,,,,0,0,0,0,228,0,228,0,,,,,,,228,,,1,7570.851815344577,X,d,go,d,1,0.31042379593418445,,,,,,,,,,,,,,,,,28,001,21,weiblich,Psychologie,2023-01-17_12h06.16.462,00_bat_bachelor,2022.2.4,59.97368428600845,
,,,,,,,,,,,,0,0,0,0,229,0,229,0,,,,,,,229,,,1,7572.26852350618,Y,l,go,l,1,0.5420246533467434,,,,,,,,,,,,,,,,,28,001,21,weiblich,Psychologie,2023-01-17_12h06.16.462,00_bat_bachelor,2022.2.4,59.97368428600845,
,,,,,,,,,,,,0,0,0,0,230,0,230,0,,,,,,,230,,,1,7573.918760766668,Y,None,nogo,None,1,,7574.718606681898,,,,,,,,,,,,,,,,28,001,21,weiblich,Psychologie,2023-01-17_12h06.16.462,00_bat_bachelor,2022.2.4,59.97368428600845,
,,,,,,,,,,,,0,0,0,0,231,0,231,0,,,,,,,231,,,1,7575.718717227297,X,d,go,d,1,0.4191214402089827,,,,,,,,,,,,,,,,,28,001,21,weiblich,Psychologie,2023-01-17_12h06.16.462,00_bat_bachelor,2022.2.4,59.97368428600845,
,,,,,,,,,,,,0,0,0,0,232,0,232,0,,,,,,,232,,,1,7577.251914544526,Y,l,go,l,1,0.614591890887823,,,,,,,,,,,,,,,,,28,001,21,weiblich,Psychologie,2023-01-17_12h06.16.462,00_bat_bachelor,2022.2.4,59.97368428600845,
,,,,,,,,,,,,0,0,0,0,233,0,233,0,,,,,,,233,,,1,7578.968505712241,Y,None,nogo,None,1,,7579.768362778981,,,,,,,,,,,,,,,,28,001,21,weiblich,Psychologie,2023-01-17_12h06.16.462,00_bat_bachelor,2022.2.4,59.97368428600845,
,,,,,,,,,,,,0,0,0,0,234,0,234,0,,,,,,,234,,,1,7580.768226536617,X,d,go,d,1,0.28103229503904004,,,,,,,,,,,,,,,,,28,001,21,weiblich,Psychologie,2023-01-17_12h06.16.462,00_bat_bachelor,2022.2.4,59.97368428600845,
,,,,,,,,,,,,0,0,0,0,235,0,235,0,,,,,,,235,,,1,7582.151890835448,Y,l,go,None,0,,7582.951707659784,,,,,,,,,,,,,,,,28,001,21,weiblich,Psychologie,2023-01-17_12h06.16.462,00_bat_bachelor,2022.2.4,59.97368428600845,
,,,,,,,,,,,,0,0,0,0,236,0,236,0,,,,,,,236,,,1,7583.951840508205,Y,None,nogo,None,1,,7584.751854180926,,,,,,,,,,,,,,,,28,001,21,weiblich,Psychologie,2023-01-17_12h06.16.462,00_bat_bachelor,2022.2.4,59.97368428600845,
,,,,,,,,,,,,0,0,0,0,237,0,237,0,,,,,,,237,,,1,7585.751547271982,X,d,go,d,1,0.27423666197864804,,,,,,,,,,,,,,,,,28,001,21,weiblich,Psychologie,2023-01-17_12h06.16.462,00_bat_bachelor,2022.2.4,59.97368428600845,
,,,,,,,,,,,,0,0,0,0,238,0,238,0,,,,,,,238,,,1,7587.135161146594,Y,l,go,l,1,0.5081449121935293,,,,,,,,,,,,,,,,,28,001,21,weiblich,Psychologie,2023-01-17_12h06.16.462,00_bat_bachelor,2022.2.4,59.97368428600845,
,,,,,,,,,,,,0,0,0,0,239,0,239,0,,,,,,,239,,,1,7588.751792120354,X,d,go,d,1,0.5221080569463084,,,,,,,,,,,,,,,,,28,001,21,weiblich,Psychologie,2023-01-17_12h06.16.462,00_bat_bachelor,2022.2.4,59.97368428600845,
,,,,,,,,,,,,0,0,0,0,240,0,240,0,,,,,,,240,,,1,7590.385167328408,Y,l,go,None,0,,7591.185131546605,,,,,,,,,,,,,,,,28,001,21,weiblich,Psychologie,2023-01-17_12h06.16.462,00_bat_bachelor,2022.2.4,59.97368428600845,
,,,,,,,,,,,,0,0,0,0,241,0,241,0,,,,,,,241,,,1,7592.185138334491,X,d,go,d,1,0.5773594240890816,,,,,,,,,,,,,,,,,28,001,21,weiblich,Psychologie,2023-01-17_12h06.16.462,00_bat_bachelor,2022.2.4,59.97368428600845,
,,,,,,,,,,,,0,0,0,0,242,0,242,0,,,,,,,242,,,1,7593.868514972841,Y,l,go,l,1,0.44592094236577395,,,,,,,,,,,,,,,,,28,001,21,weiblich,Psychologie,2023-01-17_12h06.16.462,00_bat_bachelor,2022.2.4,59.97368428600845,
,,,,,,,,,,,,0,0,0,0,243,0,243,0,,,,,,,243,,,1,7595.418212160876,X,d,go,d,1,0.44848481990629807,,,,,,,,,,,,,,,,,28,001,21,weiblich,Psychologie,2023-01-17_12h06.16.462,00_bat_bachelor,2022.2.4,59.97368428600845,
,,,,,,,,,,,,0,0,0,0,244,0,244,0,,,,,,,244,,,1,7596.969282439139,Y,l,go,l,1,0.4641909941128688,,,,,,,,,,,,,,,,,28,001,21,weiblich,Psychologie,2023-01-17_12h06.16.462,00_bat_bachelor,2022.2.4,59.97368428600845,
,,,,,,,,,,,,0,0,0,0,245,0,245,0,,,,,,,245,,,1,7598.5692137846345,Y,None,nogo,None,1,,7599.369435457251,,,,,,,,,,,,,,,,28,001,21,weiblich,Psychologie,2023-01-17_12h06.16.462,00_bat_bachelor,2022.2.4,59.97368428600845,
,,,,,,,,,,,,0,0,0,0,246,0,246,0,,,,,,,246,,,1,7600.3691227301315,X,d,go,d,1,0.42445137700997293,,,,,,,,,,,,,,,,,28,001,21,weiblich,Psychologie,2023-01-17_12h06.16.462,00_bat_bachelor,2022.2.4,59.97368428600845,
,,,,,,,,,,,,0,0,0,0,247,0,247,0,,,,,,,247,,,1,7601.935998091649,Y,l,go,None,0,,7602.736109218866,,,,,,,,,,,,,,,,28,001,21,weiblich,Psychologie,2023-01-17_12h06.16.462,00_bat_bachelor,2022.2.4,59.97368428600845,
,,,,,,,,,,,,0,0,0,0,248,0,248,0,,,,,,,248,,,1,7603.73581491597,Y,None,nogo,None,1,,7604.536181558215,,,,,,,,,,,,,,,,28,001,21,weiblich,Psychologie,2023-01-17_12h06.16.462,00_bat_bachelor,2022.2.4,59.97368428600845,
,,,,,,,,,,,,0,0,0,0,249,0,249,0,,,,,,,249,,,1,7605.5361161037,X,d,go,d,1,0.39335272542666644,,,,,,,,,,,,,,,,,28,001,21,weiblich,Psychologie,2023-01-17_12h06.16.462,00_bat_bachelor,2022.2.4,59.97368428600845,
,,,,,,,,,,,,1,0,1,0,0,0,0,0,,,,,,,0,,,0.2,7618.069189299786,X,d,go,None,0,,7618.869452669358,,,,,,,,7606.0823272328125,space,11.754655338125303,,,,,,28,001,21,weiblich,Psychologie,2023-01-17_12h06.16.462,00_bat_bachelor,2022.2.4,59.97368428600845,
,,,,,,,,,,,,1,0,1,0,1,0,1,0,,,,,,,1,,,0.2,7619.0694482087565,Y,l,go,l,1,0.5714355481613893,,,,,,,,,,,,,,,,,28,001,21,weiblich,Psychologie,2023-01-17_12h06.16.462,00_bat_bachelor,2022.2.4,59.97368428600845,
,,,,,,,,,,,,1,0,1,0,2,0,2,0,,,,,,,2,,,0.2,7619.986031521927,X,d,go,d,1,0.6155354055808857,,,,,,,,,,,,,,,,,28,001,21,weiblich,Psychologie,2023-01-17_12h06.16.462,00_bat_bachelor,2022.2.4,59.97368428600845,
,,,,,,,,,,,,1,0,1,0,3,0,3,0,,,,,,,3,,,0.2,7620.936200273369,Y,l,go,l,1,0.4809919556573732,,,,,,,,,,,,,,,,,28,001,21,weiblich,Psychologie,2023-01-17_12h06.16.462,00_bat_bachelor,2022.2.4,59.97368428600845,
,,,,,,,,,,,,1,0,1,0,4,0,4,0,,,,,,,4,,,0.2,7621.752366180677,X,d,go,d,1,0.4009653277898906,,,,,,,,,,,,,,,,,28,001,21,weiblich,Psychologie,2023-01-17_12h06.16.462,00_bat_bachelor,2022.2.4,59.97368428600845,
,,,,,,,,,,,,1,0,1,0,5,0,5,0,,,,,,,5,,,0.2,7622.50261987753,Y,l,go,l,1,0.2912630779464962,,,,,,,,,,,,,,,,,28,001,21,weiblich,Psychologie,2023-01-17_12h06.16.462,00_bat_bachelor,2022.2.4,59.97368428600845,
,,,,,,,,,,,,1,0,1,0,6,0,6,0,,,,,,,6,,,0.2,7623.1360784794815,X,d,go,d,1,0.44126300522475503,,,,,,,,,,,,,,,,,28,001,21,weiblich,Psychologie,2023-01-17_12h06.16.462,00_bat_bachelor,2022.2.4,59.97368428600845,
,,,,,,,,,,,,1,0,1,0,7,0,7,0,,,,,,,7,,,0.2,7623.919258220965,X,None,nogo,None,1,,7624.719406196658,,,,,,,,,,,,,,,,28,001,21,weiblich,Psychologie,2023-01-17_12h06.16.462,00_bat_bachelor,2022.2.4,59.97368428600845,
,,,,,,,,,,,,1,0,1,0,8,0,8,0,,,,,,,8,,,0.2,7624.919095796809,Y,l,go,l,1,0.25889509364787955,,,,,,,,,,,,,,,,,28,001,21,weiblich,Psychologie,2023-01-17_12h06.16.462,00_bat_bachelor,2022.2.4,59.97368428600845,
,,,,,,,,,,,,1,0,1,0,9,0,9,0,,,,,,,9,,,0.2,7625.519408717868,X,d,go,d,1,0.4260363459470682,,,,,,,,,,,,,,,,,28,001,21,weiblich,Psychologie,2023-01-17_12h06.16.462,00_bat_bachelor,2022.2.4,59.97368428600845,
,,,,,,,,,,,,1,0,1,0,10,0,10,0,,,,,,,10,,,0.2,7626.28578507356,X,None,nogo,None,1,,7627.086127958246,,,,,,,,,,,,,,,,28,001,21,weiblich,Psychologie,2023-01-17_12h06.16.462,00_bat_bachelor,2022.2.4,59.97368428600845,
,,,,,,,,,,,,1,0,1,0,11,0,11,0,,,,,,,11,,,0.2,7627.28598725528,Y,l,go,l,1,0.21224057080689818,,,,,,,,,,,,,,,,,28,001,21,weiblich,Psychologie,2023-01-17_12h06.16.462,00_bat_bachelor,2022.2.4,59.97368428600845,
,,,,,,,,,,,,1,0,1,0,12,0,12,0,,,,,,,12,,,0.2,7627.835864806853,X,d,go,d,1,0.38178230679477565,,,,,,,,,,,,,,,,,28,001,21,weiblich,Psychologie,2023-01-17_12h06.16.462,00_bat_bachelor,2022.2.4,59.97368428600845,
,,,,,,,,,,,,1,0,1,0,13,0,13,0,,,,,,,13,,,0.2,7628.552504944251,Y,l,go,l,1,0.3203578517277492,,,,,,,,,,,,,,,,,28,001,21,weiblich,Psychologie,2023-01-17_12h06.16.462,00_bat_bachelor,2022.2.4,59.97368428600845,
,,,,,,,,,,,,1,0,1,0,14,0,14,0,,,,,,,14,,,0.2,7629.219436014828,X,d,go,d,1,0.2935772586497478,,,,,,,,,,,,,,,,,28,001,21,weiblich,Psychologie,2023-01-17_12h06.16.462,00_bat_bachelor,2022.2.4,59.97368428600845,
,,,,,,,,,,,,1,0,1,0,15,0,15,0,,,,,,,15,,,0.2,7629.852596435114,X,None,nogo,l,0,0.23685971039230935,,,,,,,,,,,,,,,,,28,001,21,weiblich,Psychologie,2023-01-17_12h06.16.462,00_bat_bachelor,2022.2.4,59.97368428600845,
,,,,,,,,,,,,1,0,1,0,16,0,16,0,,,,,,,16,,,0.2,7630.436135061274,Y,l,go,None,0,,7631.23606776433,,,,,,,,,,,,,,,,28,001,21,weiblich,Psychologie,2023-01-17_12h06.16.462,00_bat_bachelor,2022.2.4,59.97368428600845,
,,,,,,,,,,,,1,0,1,0,17,0,17,0,,,,,,,17,,,0.2,7631.436079788575,X,d,go,d,1,0.49271607119590044,,,,,,,,,,,,,,,,,28,001,21,weiblich,Psychologie,2023-01-17_12h06.16.462,00_bat_bachelor,2022.2.4,59.97368428600845,
,,,,,,,,,,,,1,0,1,0,18,0,18,0,,,,,,,18,,,0.2,7632.269388960296,Y,l,go,l,1,0.3165522778144805,,,,,,,,,,,,,,,,,28,001,21,weiblich,Psychologie,2023-01-17_12h06.16.462,00_bat_bachelor,2022.2.4,59.97368428600845,
,,,,,,,,,,,,1,0,1,0,19,0,19,0,,,,,,,19,,,0.2,7632.919203917962,Y,None,nogo,None,1,,7633.719401833019,,,,,,,,,,,,,,,,28,001,21,weiblich,Psychologie,2023-01-17_12h06.16.462,00_bat_bachelor,2022.2.4,59.97368428600845,
,,,,,,,,,,,,1,0,1,0,20,0,20,0,,,,,,,20,,,0.2,7633.919286342163,X,d,go,d,1,0.21757681065355428,,,,,,,,,,,,,,,,,28,001,21,weiblich,Psychologie,2023-01-17_12h06.16.462,00_bat_bachelor,2022.2.4,59.97368428600845,
,,,,,,,,,,,,1,0,1,0,21,0,21,0,,,,,,,21,,,0.2,7634.48587855231,Y,l,go,l,1,0.37083928179345094,,,,,,,,,,,,,,,,,28,001,21,weiblich,Psychologie,2023-01-17_12h06.16.462,00_bat_bachelor,2022.2.4,59.97368428600845,
,,,,,,,,,,,,1,0,1,0,22,0,22,0,,,,,,,22,,,0.2,7635.202512871518,Y,None,nogo,d,0,0.3596111660153838,,,,,,,,,,,,,,,,,28,001,21,weiblich,Psychologie,2023-01-17_12h06.16.462,00_bat_bachelor,2022.2.4,59.97368428600845,
,,,,,,,,,,,,1,0,1,0,23,0,23,0,,,,,,,23,,,0.2,7635.885551570653,X,d,go,None,0,,7636.685475061589,,,,,,,,,,,,,,,,28,001,21,weiblich,Psychologie,2023-01-17_12h06.16.462,00_bat_bachelor,2022.2.4,59.97368428600845,
,,,,,,,,,,,,1,0,1,0,24,0,24,0,,,,,,,24,,,0.2,7636.885508904001,Y,l,go,None,0,,7637.685530334289,,,,,,,,,,,,,,,,28,001,21,weiblich,Psychologie,2023-01-17_12h06.16.462,00_bat_bachelor,2022.2.4,59.97368428600845,
,,,,,,,,,,,,1,0,1,0,25,0,25,0,,,,,,,25,,,0.2,7637.885493388851,X,d,go,d,1,0.22071377883548848,,,,,,,,,,,,,,,,,28,001,21,weiblich,Psychologie,2023-01-17_12h06.16.462,00_bat_bachelor,2022.2.4,59.97368428600845,
,,,,,,,,,,,,1,0,1,0,26,0,26,0,,,,,,,26,,,0.2,7638.418589372814,Y,l,go,l,1,0.2944102279288927,,,,,,,,,,,,,,,,,28,001,21,weiblich,Psychologie,2023-01-17_12h06.16.462,00_bat_bachelor,2022.2.4,59.97368428600845,
,,,,,,,,,,,,1,0,1,0,27,0,27,0,,,,,,,27,,,0.2,7639.035465194931,Y,None,nogo,d,0,0.301971436405438,,,,,,,,,,,,,,,,,28,001,21,weiblich,Psychologie,2023-01-17_12h06.16.462,00_bat_bachelor,2022.2.4,59.97368428600845,
,,,,,,,,,,,,1,0,1,0,28,0,28,0,,,,,,,28,,,0.2,7639.652068532334,X,d,go,None,0,,7640.451952750576,,,,,,,,,,,,,,,,28,001,21,weiblich,Psychologie,2023-01-17_12h06.16.462,00_bat_bachelor,2022.2.4,59.97368428600845,
,,,,,,,,,,,,1,0,1,0,29,0,29,0,,,,,,,29,,,0.2,7640.65216065351,Y,l,go,l,1,0.285522474674508,,,,,,,,,,,,,,,,,28,001,21,weiblich,Psychologie,2023-01-17_12h06.16.462,00_bat_bachelor,2022.2.4,59.97368428600845,
,,,,,,,,,,,,1,0,1,0,30,0,30,0,,,,,,,30,,,0.2,7641.252088605048,Y,None,nogo,d,0,0.26223084960656706,,,,,,,,,,,,,,,,,28,001,21,weiblich,Psychologie,2023-01-17_12h06.16.462,00_bat_bachelor,2022.2.4,59.97368428600845,
,,,,,,,,,,,,1,0,1,0,31,0,31,0,,,,,,,31,,,0.2,7641.81862990612,X,d,go,None,0,,7642.618665881862,,,,,,,,,,,,,,,,28,001,21,weiblich,Psychologie,2023-01-17_12h06.16.462,00_bat_bachelor,2022.2.4,59.97368428600845,
,,,,,,,,,,,,1,0,1,0,32,0,32,0,,,,,,,32,,,0.2,7642.819000815041,Y,l,go,d,0,0.0706939727824647,,,,,,,,,,,,,,,,,28,001,21,weiblich,Psychologie,2023-01-17_12h06.16.462,00_bat_bachelor,2022.2.4,59.97368428600845,
,,,,,,,,,,,,1,0,1,0,33,0,33,0,,,,,,,33,,,0.2,7643.218823166637,X,d,go,None,0,,7644.01888483933,,,,,,,,,,,,,,,,28,001,21,weiblich,Psychologie,2023-01-17_12h06.16.462,00_bat_bachelor,2022.2.4,59.97368428600845,
,,,,,,,,,,,,1,0,1,0,34,0,34,0,,,,,,,34,,,0.2,7644.218825590884,Y,l,go,l,1,0.542875562023255,,,,,,,,,,,,,,,,,28,001,21,weiblich,Psychologie,2023-01-17_12h06.16.462,00_bat_bachelor,2022.2.4,59.97368428600845,
,,,,,,,,,,,,1,0,1,0,35,0,35,0,,,,,,,35,,,0.2,7645.068541542525,Y,None,nogo,None,1,,,,,,,,,,,,,,,,,,28,001,21,weiblich,Psychologie,2023-01-17_12h06.16.462,00_bat_bachelor,2022.2.4,59.97368428600845,
,,,,,,,,,,,,1,0,1,0,36,0,36,0,,,,,,,36,,,0.2,7646.069460814819,X,d,go,d,1,0.21251693431986496,,,,,,,,,,,,,,,,,28,001,21,weiblich,Psychologie,2023-01-17_12h06.16.462,00_bat_bachelor,2022.2.4,59.97368428600845,
,,,,,,,,,,,,1,0,1,0,37,0,37,0,,,,,,,37,,,0.2,7646.619416426955,Y,l,go,l,1,0.42956991998653393,,,,,,,,,,,,,,,,,28,001,21,weiblich,Psychologie,2023-01-17_12h06.16.462,00_bat_bachelor,2022.2.4,59.97368428600845,
,,,,,,,,,,,,1,0,1,0,38,0,38,0,,,,,,,38,,,0.2,7647.385875691703,Y,None,nogo,d,0,0.39967369205260184,,,,,,,,,,,,,,,,,28,001,21,weiblich,Psychologie,2023-01-17_12h06.16.462,00_bat_bachelor,2022.2.4,59.97368428600845,
,,,,,,,,,,,,1,0,1,0,39,0,39,0,,,,,,,39,,,0.2,7648.119325033054,Y,None,nogo,None,1,,7648.919432281487,,,,,,,,,,,,,,,,28,001,21,weiblich,Psychologie,2023-01-17_12h06.16.462,00_bat_bachelor,2022.2.4,59.97368428600845,
,,,,,,,,,,,,1,0,1,0,40,0,40,0,,,,,,,40,,,0.2,7649.119081154393,X,d,go,d,1,0.24995158282399643,,,,,,,,,,,,,,,,,28,001,21,weiblich,Psychologie,2023-01-17_12h06.16.462,00_bat_bachelor,2022.2.4,59.97368428600845,
,,,,,,,,,,,,1,0,1,0,41,0,41,0,,,,,,,41,,,0.2,7649.702436023072,Y,l,go,l,1,0.27439181340741925,,,,,,,,,,,,,,,,,28,001,21,weiblich,Psychologie,2023-01-17_12h06.16.462,00_bat_bachelor,2022.2.4,59.97368428600845,
,,,,,,,,,,,,1,0,1,0,42,0,42,0,,,,,,,42,,,0.2,7650.319156208905,Y,None,nogo,d,0,0.474297655877308,,,,,,,,,,,,,,,,,28,001,21,weiblich,Psychologie,2023-01-17_12h06.16.462,00_bat_bachelor,2022.2.4,59.97368428600845,
,,,,,,,,,,,,1,0,1,0,43,0,43,0,,,,,,,43,,,0.2,7651.136140540053,X,d,go,None,0,,7651.935441970694,,,,,,,,,,,,,,,,28,001,21,weiblich,Psychologie,2023-01-17_12h06.16.462,00_bat_bachelor,2022.2.4,59.97368428600845,
,,,,,,,,,,,,1,0,1,0,44,0,44,0,,,,,,,44,,,0.2,7652.135418601014,Y,l,go,l,1,0.38620509252359625,,,,,,,,,,,,,,,,,28,001,21,weiblich,Psychologie,2023-01-17_12h06.16.462,00_bat_bachelor,2022.2.4,59.97368428600845,
,,,,,,,,,,,,1,0,1,0,45,0,45,0,,,,,,,45,,,0.2,7652.835389655578,X,d,go,d,1,0.582477482224931,,,,,,,,,,,,,,,,,28,001,21,weiblich,Psychologie,2023-01-17_12h06.16.462,00_bat_bachelor,2022.2.4,59.97368428600845,
,,,,,,,,,,,,1,0,1,0,46,0,46,0,,,,,,,46,,,0.2,7653.718952378695,Y,l,go,None,0,,7654.51902665745,,,,,,,,,,,,,,,,28,001,21,weiblich,Psychologie,2023-01-17_12h06.16.462,00_bat_bachelor,2022.2.4,59.97368428600845,
,,,,,,,,,,,,1,0,1,0,47,0,47,0,,,,,,,47,,,0.2,7654.7187487424235,Y,None,nogo,None,1,,7655.518736718193,,,,,,,,,,,,,,,,28,001,21,weiblich,Psychologie,2023-01-17_12h06.16.462,00_bat_bachelor,2022.2.4,59.97368428600845,
,,,,,,,,,,,,1,0,1,0,48,0,48,0,,,,,,,48,,,0.2,7655.7189703180775,X,d,go,d,1,0.2904659874329809,,,,,,,,,,,,,,,,,28,001,21,weiblich,Psychologie,2023-01-17_12h06.16.462,00_bat_bachelor,2022.2.4,59.97368428600845,
,,,,,,,,,,,,1,0,1,0,49,0,49,0,,,,,,,49,,,0.2,7656.318747966667,Y,l,go,l,1,0.29804658981447574,,,,,,,,,,,,,,,,,28,001,21,weiblich,Psychologie,2023-01-17_12h06.16.462,00_bat_bachelor,2022.2.4,59.97368428600845,
,,,,,,,,,,,,1,0,1,0,50,0,50,0,,,,,,,50,,,0.2,7656.9354109404085,X,d,go,None,0,,7657.7356054615375,,,,,,,,,,,,,,,,28,001,21,weiblich,Psychologie,2023-01-17_12h06.16.462,00_bat_bachelor,2022.2.4,59.97368428600845,
,,,,,,,,,,,,1,0,1,0,51,0,51,0,,,,,,,51,,,0.2,7657.935406576784,X,None,nogo,d,0,0.29764416576654185,,,,,,,,,,,,,,,,,28,001,21,weiblich,Psychologie,2023-01-17_12h06.16.462,00_bat_bachelor,2022.2.4,59.97368428600845,
,,,,,,,,,,,,1,0,1,0,52,0,52,0,,,,,,,52,,,0.2,7658.535482407038,Y,l,go,None,0,,7659.335468928257,,,,,,,,,,,,,,,,28,001,21,weiblich,Psychologie,2023-01-17_12h06.16.462,00_bat_bachelor,2022.2.4,59.97368428600845,
,,,,,,,,,,,,1,0,1,0,53,0,53,0,,,,,,,53,,,0.2,7659.535677800886,X,d,go,None,0,,7660.335606625173,,,,,,,,,,,,,,,,28,001,21,weiblich,Psychologie,2023-01-17_12h06.16.462,00_bat_bachelor,2022.2.4,59.97368428600845,
,,,,,,,,,,,,1,0,1,0,54,0,54,0,,,,,,,54,,,0.2,7660.535441679793,Y,l,go,d,0,0.0012666124966926873,,,,,,,,,,,,,,,,,28,001,21,weiblich,Psychologie,2023-01-17_12h06.16.462,00_bat_bachelor,2022.2.4,59.97368428600845,
,,,,,,,,,,,,1,0,1,0,55,0,55,0,,,,,,,55,,,0.2,7660.868976063532,X,d,go,l,0,0.40516508334258106,,,,,,,,,,,,,,,,,28,001,21,weiblich,Psychologie,2023-01-17_12h06.16.462,00_bat_bachelor,2022.2.4,59.97368428600845,
,,,,,,,,,,,,1,0,1,0,56,0,56,0,,,,,,,56,,,0.2,7661.585686019069,Y,l,go,None,0,,7662.385726843291,,,,,,,,,,,,,,,,28,001,21,weiblich,Psychologie,2023-01-17_12h06.16.462,00_bat_bachelor,2022.2.4,59.97368428600845,
,,,,,,,,,,,,1,0,1,0,57,0,57,0,,,,,,,57,,,0.2,7662.585407716178,Y,None,nogo,d,0,0.016401150613091886,,,,,,,,,,,,,,,,,28,001,21,weiblich,Psychologie,2023-01-17_12h06.16.462,00_bat_bachelor,2022.2.4,59.97368428600845,
,,,,,,,,,,,,1,0,1,0,58,0,58,0,,,,,,,58,,,0.2,7662.902058229316,X,d,go,l,0,0.29024974509957246,,,,,,,,,,,,,,,,,28,001,21,weiblich,Psychologie,2023-01-17_12h06.16.462,00_bat_bachelor,2022.2.4,59.97368428600845,
,,,,,,,,,,,,1,0,1,0,59,0,59,0,,,,,,,59,,,0.2,7663.519024718058,Y,l,go,None,0,,7664.318743603042,,,,,,,,,,,,,,,,28,001,21,weiblich,Psychologie,2023-01-17_12h06.16.462,00_bat_bachelor,2022.2.4,59.97368428600845,
,,,,,,,,,,,,1,0,1,0,60,0,60,0,,,,,,,60,,,0.2,7664.518821566642,Y,None,nogo,None,1,,7665.318967602929,,,,,,,,,,,,,,,,28,001,21,weiblich,Psychologie,2023-01-17_12h06.16.462,00_bat_bachelor,2022.2.4,59.97368428600845,
,,,,,,,,,,,,1,0,1,0,61,0,61,0,,,,,,,61,,,0.2,7665.518809930276,X,d,go,l,0,0.1380815764568979,,,,,,,,,,,,,,,,,28,001,21,weiblich,Psychologie,2023-01-17_12h06.16.462,00_bat_bachelor,2022.2.4,59.97368428600845,
,,,,,,,,,,,,1,0,1,0,62,0,62,0,,,,,,,62,,,0.2,7665.985627643342,Y,l,go,None,0,,7666.785678164524,,,,,,,,,,,,,,,,28,001,21,weiblich,Psychologie,2023-01-17_12h06.16.462,00_bat_bachelor,2022.2.4,59.97368428600845,
,,,,,,,,,,,,1,0,1,0,63,0,63,0,,,,,,,63,,,0.2,7666.985621340311,Y,None,nogo,d,0,0.1601276263827458,,,,,,,,,,,,,,,,,28,001,21,weiblich,Psychologie,2023-01-17_12h06.16.462,00_bat_bachelor,2022.2.4,59.97368428600845,
,,,,,,,,,,,,1,0,1,0,64,0,64,0,,,,,,,64,,,0.2,7667.452241235282,X,d,go,l,0,0.2696776338852942,,,,,,,,,,,,,,,,,28,001,21,weiblich,Psychologie,2023-01-17_12h06.16.462,00_bat_bachelor,2022.2.4,59.97368428600845,
,,,,,,,,,,,,1,0,1,0,65,0,65,0,,,,,,,65,,,0.2,7668.035594649409,Y,l,go,None,0,,7668.835655837262,,,,,,,,,,,,,,,,28,001,21,weiblich,Psychologie,2023-01-17_12h06.16.462,00_bat_bachelor,2022.2.4,59.97368428600845,
,,,,,,,,,,,,1,0,1,0,66,0,66,0,,,,,,,66,,,0.2,7669.0355931948725,X,d,go,l,0,0.23751813432318158,,,,,,,,,,,,,,,,,28,001,21,weiblich,Psychologie,2023-01-17_12h06.16.462,00_bat_bachelor,2022.2.4,59.97368428600845,
,,,,,,,,,,,,1,0,1,0,67,0,67,0,,,,,,,67,,,0.2,7669.602138859569,Y,l,go,None,0,,7670.402075441423,,,,,,,,,,,,,,,,28,001,21,weiblich,Psychologie,2023-01-17_12h06.16.462,00_bat_bachelor,2022.2.4,59.97368428600845,
,,,,,,,,,,,,1,0,1,0,68,0,68,0,,,,,,,68,,,0.2,7670.602463223055,Y,None,nogo,l,0,0.11088158964412287,,,,,,,,,,,,,,,,,28,001,21,weiblich,Psychologie,2023-01-17_12h06.16.462,00_bat_bachelor,2022.2.4,59.97368428600845,
,,,,,,,,,,,,1,0,1,0,69,0,69,0,,,,,,,69,,,0.2,7671.05268070173,X,d,go,None,0,,7671.852757404733,,,,,,,,,,,,,,,,28,001,21,weiblich,Psychologie,2023-01-17_12h06.16.462,00_bat_bachelor,2022.2.4,59.97368428600845,
,,,,,,,,,,,,1,0,1,0,70,0,70,0,,,,,,,70,,,0.2,7672.052647247212,Y,l,go,l,1,0.2446861308417283,,,,,,,,,,,,,,,,,28,001,21,weiblich,Psychologie,2023-01-17_12h06.16.462,00_bat_bachelor,2022.2.4,59.97368428600845,
,,,,,,,,,,,,1,0,1,0,71,0,71,0,,,,,,,71,,,0.2,7672.635829509905,Y,None,nogo,None,1,,7673.4362572430255,,,,,,,,,,,,,,,,28,001,21,weiblich,Psychologie,2023-01-17_12h06.16.462,00_bat_bachelor,2022.2.4,59.97368428600845,
,,,,,,,,,,,,1,0,1,0,72,0,72,0,,,,,,,72,,,0.2,7673.636052055255,X,d,go,d,1,0.21357826713938266,,,,,,,,,,,,,,,,,28,001,21,weiblich,Psychologie,2023-01-17_12h06.16.462,00_bat_bachelor,2022.2.4,59.97368428600845,
,,,,,,,,,,,,1,0,1,0,73,0,73,0,,,,,,,73,,,0.2,7674.186058091611,Y,l,go,l,1,0.3192562764888862,,,,,,,,,,,,,,,,,28,001,21,weiblich,Psychologie,2023-01-17_12h06.16.462,00_bat_bachelor,2022.2.4,59.97368428600845,
,,,,,,,,,,,,1,0,1,0,74,0,74,0,,,,,,,74,,,0.2,7674.852406374601,Y,None,nogo,None,1,,7675.6527182289865,,,,,,,,,,,,,,,,28,001,21,weiblich,Psychologie,2023-01-17_12h06.16.462,00_bat_bachelor,2022.2.4,59.97368428600845,
,,,,,,,,,,,,1,0,1,0,75,0,75,0,,,,,,,75,,,0.2,7675.852658980541,X,d,go,l,0,0.4612246925244108,,,,,,,,,,,,,,,,,28,001,21,weiblich,Psychologie,2023-01-17_12h06.16.462,00_bat_bachelor,2022.2.4,59.97368428600845,
,,,,,,,,,,,,1,0,1,0,76,0,76,0,,,,,,,76,,,0.2,7676.652693016877,Y,l,go,None,0,,7677.452704750205,,,,,,,,,,,,,,,,28,001,21,weiblich,Psychologie,2023-01-17_12h06.16.462,00_bat_bachelor,2022.2.4,59.97368428600845,
,,,,,,,,,,,,1,0,1,0,77,0,77,0,,,,,,,77,,,0.2,7677.652675077494,Y,None,nogo,d,0,0.10105371562531218,,,,,,,,,,,,,,,,,28,001,21,weiblich,Psychologie,2023-01-17_12h06.16.462,00_bat_bachelor,2022.2.4,59.97368428600845,
,,,,,,,,,,,,1,0,1,0,78,0,78,0,,,,,,,78,,,0.2,7678.102697647177,X,d,go,None,0,,7678.902738471399,,,,,,,,,,,,,,,,28,001,21,weiblich,Psychologie,2023-01-17_12h06.16.462,00_bat_bachelor,2022.2.4,59.97368428600845,
,,,,,,,,,,,,1,0,1,0,79,0,79,0,,,,,,,79,,,0.2,7679.10257449573,Y,l,go,d,0,0.10637977365695406,,,,,,,,,,,,,,,,,28,001,21,weiblich,Psychologie,2023-01-17_12h06.16.462,00_bat_bachelor,2022.2.4,59.97368428600845,
,,,,,,,,,,,,1,0,1,0,80,0,80,0,,,,,,,80,,,0.2,7679.552698398693,X,d,go,l,0,0.12110122106969357,,,,,,,,,,,,,,,,,28,001,21,weiblich,Psychologie,2023-01-17_12h06.16.462,00_bat_bachelor,2022.2.4,59.97368428600845,
,,,,,,,,,,,,1,0,1,0,81,0,81,0,,,,,,,81,,,0.2,7680.01905696046,X,None,nogo,None,1,,7680.818902390834,,,,,,,,,,,,,,,,28,001,21,weiblich,Psychologie,2023-01-17_12h06.16.462,00_bat_bachelor,2022.2.4,59.97368428600845,
,,,,,,,,,,,,1,0,1,0,82,0,82,0,,,,,,,82,,,0.2,7681.018706415183,Y,l,go,d,0,0.31897991300502326,,,,,,,,,,,,,,,,,28,001,21,weiblich,Psychologie,2023-01-17_12h06.16.462,00_bat_bachelor,2022.2.4,59.97368428600845,
,,,,,,,,,,,,1,0,1,0,83,0,83,0,,,,,,,83,,,0.2,7681.652295441323,X,d,go,None,0,,7682.4520599020325,,,,,,,,,,,,,,,,28,001,21,weiblich,Psychologie,2023-01-17_12h06.16.462,00_bat_bachelor,2022.2.4,59.97368428600845,
,,,,,,,,,,,,1,0,1,0,84,0,84,0,,,,,,,84,,,0.2,7682.652309017067,Y,l,go,l,1,0.31801312559400685,,,,,,,,,,,,,,,,,28,001,21,weiblich,Psychologie,2023-01-17_12h06.16.462,00_bat_bachelor,2022.2.4,59.97368428600845,
,,,,,,,,,,,,1,0,1,0,85,0,85,0,,,,,,,85,,,0.2,7683.285421922221,X,d,go,d,1,0.40362908407405484,,,,,,,,,,,,,,,,,28,001,21,weiblich,Psychologie,2023-01-17_12h06.16.462,00_bat_bachelor,2022.2.4,59.97368428600845,
,,,,,,,,,,,,1,0,1,0,86,0,86,0,,,,,,,86,,,0.2,7684.0190472635,Y,l,go,l,1,0.3595820751361316,,,,,,,,,,,,,,,,,28,001,21,weiblich,Psychologie,2023-01-17_12h06.16.462,00_bat_bachelor,2022.2.4,59.97368428600845,
,,,,,,,,,,,,1,0,1,0,87,0,87,0,,,,,,,87,,,0.2,7684.68563263728,X,d,go,d,1,0.33137360397086013,,,,,,,,,,,,,,,,,28,001,21,weiblich,Psychologie,2023-01-17_12h06.16.462,00_bat_bachelor,2022.2.4,59.97368428600845,
,,,,,,,,,,,,1,0,1,0,88,0,88,0,,,,,,,88,,,0.2,7685.335711837237,Y,l,go,l,1,0.338960509368917,,,,,,,,,,,,,,,,,28,001,21,weiblich,Psychologie,2023-01-17_12h06.16.462,00_bat_bachelor,2022.2.4,59.97368428600845,
,,,,,,,,,,,,1,0,1,0,89,0,89,0,,,,,,,89,,,0.2,7685.985425946463,X,d,go,d,1,0.40816483944945503,,,,,,,,,,,,,,,,,28,001,21,weiblich,Psychologie,2023-01-17_12h06.16.462,00_bat_bachelor,2022.2.4,59.97368428600845,
,,,,,,,,,,,,1,0,1,0,90,0,90,0,,,,,,,90,,,0.2,7686.702313841306,Y,l,go,l,1,0.2998448919825023,,,,,,,,,,,,,,,,,28,001,21,weiblich,Psychologie,2023-01-17_12h06.16.462,00_bat_bachelor,2022.2.4,59.97368428600845,
,,,,,,,,,,,,1,0,1,0,91,0,91,0,,,,,,,91,,,0.2,7687.302059005073,Y,None,nogo,d,0,0.2911074416770134,,,,,,,,,,,,,,,,,28,001,21,weiblich,Psychologie,2023-01-17_12h06.16.462,00_bat_bachelor,2022.2.4,59.97368428600845,
,,,,,,,,,,,,1,0,1,0,92,0,92,0,,,,,,,92,,,0.2,7687.902249259525,X,d,go,None,0,,7688.702402083683,,,,,,,,,,,,,,,,28,001,21,weiblich,Psychologie,2023-01-17_12h06.16.462,00_bat_bachelor,2022.2.4,59.97368428600845,
,,,,,,,,,,,,1,0,1,0,93,0,93,0,,,,,,,93,,,0.2,7688.902209501961,Y,l,go,l,1,0.08299311833980028,,,,,,,,,,,,,,,,,28,001,21,weiblich,Psychologie,2023-01-17_12h06.16.462,00_bat_bachelor,2022.2.4,59.97368428600845,
,,,,,,,,,,,,1,0,1,0,94,0,94,0,,,,,,,94,,,0.2,7689.302056095985,X,d,go,d,1,0.3400029331096448,,,,,,,,,,,,,,,,,28,001,21,weiblich,Psychologie,2023-01-17_12h06.16.462,00_bat_bachelor,2022.2.4,59.97368428600845,
,,,,,,,,,,,,1,0,1,0,95,0,95,0,,,,,,,95,,,0.2,7689.95228511405,X,None,nogo,l,0,0.3294909382093465,,,,,,,,,,,,,,,,,28,001,21,weiblich,Psychologie,2023-01-17_12h06.16.462,00_bat_bachelor,2022.2.4,59.97368428600845,
,,,,,,,,,,,,1,0,1,0,96,0,96,0,,,,,,,96,,,0.2,7690.585600200924,Y,l,go,None,0,,7691.385643449394,,,,,,,,,,,,,,,,28,001,21,weiblich,Psychologie,2023-01-17_12h06.16.462,00_bat_bachelor,2022.2.4,59.97368428600845,
,,,,,,,,,,,,1,0,1,0,97,0,97,0,,,,,,,97,,,0.2,7691.585462988878,X,d,go,d,1,0.07263045669242274,,,,,,,,,,,,,,,,,28,001,21,weiblich,Psychologie,2023-01-17_12h06.16.462,00_bat_bachelor,2022.2.4,59.97368428600845,
,,,,,,,,,,,,1,0,1,0,98,0,98,0,,,,,,,98,,,0.2,7691.969046802886,Y,l,go,l,1,0.456707361372537,,,,,,,,,,,,,,,,,28,001,21,weiblich,Psychologie,2023-01-17_12h06.16.462,00_bat_bachelor,2022.2.4,59.97368428600845,
,,,,,,,,,,,,1,0,1,0,99,0,99,0,,,,,,,99,,,0.2,7692.752221695904,Y,None,nogo,d,0,0.4576096639793832,,,,,,,,,,,,,,,,,28,001,21,weiblich,Psychologie,2023-01-17_12h06.16.462,00_bat_bachelor,2022.2.4,59.97368428600845,
,,,,,,,,,,,,1,0,1,0,100,0,100,0,,,,,,,100,,,0.2,7693.518750293952,Y,None,nogo,None,1,,7694.318742148491,,,,,,,,,,,,,,,,28,001,21,weiblich,Psychologie,2023-01-17_12h06.16.462,00_bat_bachelor,2022.2.4,59.97368428600845,
,,,,,,,,,,,,1,0,1,0,101,0,101,0,,,,,,,101,,,0.2,7694.5189098090195,X,d,go,d,1,0.001952672770130448,,,,,,,,,,,,,,,,,28,001,21,weiblich,Psychologie,2023-01-17_12h06.16.462,00_bat_bachelor,2022.2.4,59.97368428600845,
,,,,,,,,,,,,1,0,1,0,102,0,102,0,,,,,,,102,,,0.2,7694.8524087988335,Y,l,go,l,1,0.35654498569783755,,,,,,,,,,,,,,,,,28,001,21,weiblich,Psychologie,2023-01-17_12h06.16.462,00_bat_bachelor,2022.2.4,59.97368428600845,
,,,,,,,,,,,,1,0,1,0,103,0,103,0,,,,,,,103,,,0.2,7695.535603134253,X,d,go,None,0,,7696.3354243222275,,,,,,,,,,,,,,,,28,001,21,weiblich,Psychologie,2023-01-17_12h06.16.462,00_bat_bachelor,2022.2.4,59.97368428600845,
,,,,,,,,,,,,1,0,1,0,104,0,104,0,,,,,,,104,,,0.2,7696.535638043337,X,None,nogo,None,1,,7697.335428201011,,,,,,,,,,,,,,,,28,001,21,weiblich,Psychologie,2023-01-17_12h06.16.462,00_bat_bachelor,2022.2.4,59.97368428600845,
,,,,,,,,,,,,1,0,1,0,105,0,105,0,,,,,,,105,,,0.2,7697.5356293160585,Y,l,go,l,1,0.3784290962939849,,,,,,,,,,,,,,,,,28,001,21,weiblich,Psychologie,2023-01-17_12h06.16.462,00_bat_bachelor,2022.2.4,59.97368428600845,
,,,,,,,,,,,,1,0,1,0,106,0,106,0,,,,,,,106,,,0.2,7698.219001590798,X,d,go,d,1,0.41508265429001767,,,,,,,,,,,,,,,,,28,001,21,weiblich,Psychologie,2023-01-17_12h06.16.462,00_bat_bachelor,2022.2.4,59.97368428600845,
,,,,,,,,,,,,1,0,1,0,107,0,107,0,,,,,,,107,,,0.2,7698.935567061548,Y,l,go,l,1,0.35371977493923623,,,,,,,,,,,,,,,,,28,001,21,weiblich,Psychologie,2023-01-17_12h06.16.462,00_bat_bachelor,2022.2.4,59.97368428600845,
,,,,,,,,,,,,1,0,1,0,108,0,108,0,,,,,,,108,,,0.2,7699.618947093855,X,d,go,d,1,0.4703243244730402,,,,,,,,,,,,,,,,,28,001,21,weiblich,Psychologie,2023-01-17_12h06.16.462,00_bat_bachelor,2022.2.4,59.97368428600845,
,,,,,,,,,,,,1,0,1,0,109,0,109,0,,,,,,,109,,,0.2,7700.418916160532,Y,l,go,l,1,0.5348920507385628,,,,,,,,,,,,,,,,,28,001,21,weiblich,Psychologie,2023-01-17_12h06.16.462,00_bat_bachelor,2022.2.4,59.97368428600845,
,,,,,,,,,,,,1,0,1,0,110,0,110,0,,,,,,,110,,,0.2,7701.285632346364,X,d,go,d,1,0.35594668296107557,,,,,,,,,,,,,,,,,28,001,21,weiblich,Psychologie,2023-01-17_12h06.16.462,00_bat_bachelor,2022.2.4,59.97368428600845,
,,,,,,,,,,,,1,0,1,0,111,0,111,0,,,,,,,111,,,0.2,7701.968721469719,X,None,nogo,None,1,,7702.768761324245,,,,,,,,,,,,,,,,28,001,21,weiblich,Psychologie,2023-01-17_12h06.16.462,00_bat_bachelor,2022.2.4,59.97368428600845,
,,,,,,,,,,,,1,0,1,0,112,0,112,0,,,,,,,112,,,0.2,7702.96870740912,Y,l,go,l,1,0.2574439428426558,,,,,,,,,,,,,,,,,28,001,21,weiblich,Psychologie,2023-01-17_12h06.16.462,00_bat_bachelor,2022.2.4,59.97368428600845,
,,,,,,,,,,,,1,0,1,0,113,0,113,0,,,,,,,113,,,0.2,7703.535662285751,X,d,go,d,1,0.4419781564065488,,,,,,,,,,,,,,,,,28,001,21,weiblich,Psychologie,2023-01-17_12h06.16.462,00_bat_bachelor,2022.2.4,59.97368428600845,
,,,,,,,,,,,,1,0,1,0,114,0,114,0,,,,,,,114,,,0.2,7704.302235489828,X,None,nogo,l,0,0.4119738073059125,,,,,,,,,,,,,,,,,28,001,21,weiblich,Psychologie,2023-01-17_12h06.16.462,00_bat_bachelor,2022.2.4,59.97368428600845,
,,,,,,,,,,,,1,0,1,0,115,0,115,0,,,,,,,115,,,0.2,7705.018878051458,Y,l,go,None,0,,7705.818977542323,,,,,,,,,,,,,,,,28,001,21,weiblich,Psychologie,2023-01-17_12h06.16.462,00_bat_bachelor,2022.2.4,59.97368428600845,
,,,,,,,,,,,,1,0,1,0,116,0,116,0,,,,,,,116,,,0.2,7706.018937687797,X,d,go,l,0,0.16694604732037988,,,,,,,,,,,,,,,,,28,001,21,weiblich,Psychologie,2023-01-17_12h06.16.462,00_bat_bachelor,2022.2.4,59.97368428600845,
,,,,,,,,,,,,1,0,1,0,117,0,117,0,,,,,,,117,,,0.2,7706.485543522169,X,None,nogo,None,1,,7707.28557804336,,,,,,,,,,,,,,,,28,001,21,weiblich,Psychologie,2023-01-17_12h06.16.462,00_bat_bachelor,2022.2.4,59.97368428600845,
,,,,,,,,,,,,1,0,1,0,118,0,118,0,,,,,,,118,,,0.2,7707.485595885781,X,None,nogo,None,1,,7708.285608588805,,,,,,,,,,,,,,,,28,001,21,weiblich,Psychologie,2023-01-17_12h06.16.462,00_bat_bachelor,2022.2.4,59.97368428600845,
,,,,,,,,,,,,1,0,1,0,119,0,119,0,,,,,,,119,,,0.2,7708.485637097881,Y,l,go,l,1,0.5311897495121229,,,,,,,,,,,,,,,,,28,001,21,weiblich,Psychologie,2023-01-17_12h06.16.462,00_bat_bachelor,2022.2.4,59.97368428600845,
,,,,,,,,,,,,1,0,1,0,120,0,120,0,,,,,,,120,,,0.2,7709.335411716165,X,d,go,d,1,0.3223641537770163,,,,,,,,,,,,,,,,,28,001,21,weiblich,Psychologie,2023-01-17_12h06.16.462,00_bat_bachelor,2022.2.4,59.97368428600845,
,,,,,,,,,,,,1,0,1,0,121,0,121,0,,,,,,,121,,,0.2,7709.968976499891,X,None,nogo,l,0,0.2975185900722863,,,,,,,,,,,,,,,,,28,001,21,weiblich,Psychologie,2023-01-17_12h06.16.462,00_bat_bachelor,2022.2.4,59.97368428600845,
,,,,,,,,,,,,1,0,1,0,122,0,122,0,,,,,,,122,,,0.2,7710.568932087801,Y,l,go,None,0,,7711.368718366692,,,,,,,,,,,,,,,,28,001,21,weiblich,Psychologie,2023-01-17_12h06.16.462,00_bat_bachelor,2022.2.4,59.97368428600845,
,,,,,,,,,,,,1,0,1,0,123,0,123,0,,,,,,,123,,,0.2,7711.568694512156,X,d,go,d,1,0.5366593226062832,,,,,,,,,,,,,,,,,28,001,21,weiblich,Psychologie,2023-01-17_12h06.16.462,00_bat_bachelor,2022.2.4,59.97368428600845,
,,,,,,,,,,,,1,0,1,0,124,0,124,0,,,,,,,124,,,0.2,7712.435587182757,X,None,nogo,None,1,,7713.235540734284,,,,,,,,,,,,,,,,28,001,21,weiblich,Psychologie,2023-01-17_12h06.16.462,00_bat_bachelor,2022.2.4,59.97368428600845,
,,,,,,,,,,,,1,0,1,0,125,0,125,0,,,,,,,125,,,0.2,7713.435349122257,Y,l,go,l,1,0.33427445103006903,,,,,,,,,,,,,,,,,28,001,21,weiblich,Psychologie,2023-01-17_12h06.16.462,00_bat_bachelor,2022.2.4,59.97368428600845,
,,,,,,,,,,,,1,0,1,0,126,0,126,0,,,,,,,126,,,0.2,7714.085581049425,X,d,go,None,0,,7714.885661146356,,,,,,,,,,,,,,,,28,001,21,weiblich,Psychologie,2023-01-17_12h06.16.462,00_bat_bachelor,2022.2.4,59.97368428600845,
,,,,,,,,,,,,1,0,1,0,127,0,127,0,,,,,,,127,,,0.2,7715.085539352469,X,None,nogo,None,1,,7715.885397388905,,,,,,,,,,,,,,,,28,001,21,weiblich,Psychologie,2023-01-17_12h06.16.462,00_bat_bachelor,2022.2.4,59.97368428600845,
,,,,,,,,,,,,1,0,1,0,128,0,128,0,,,,,,,128,,,0.2,7716.08556020094,X,None,nogo,d,0,0.004000186934717931,,,,,,,,,,,,,,,,,28,001,21,weiblich,Psychologie,2023-01-17_12h06.16.462,00_bat_bachelor,2022.2.4,59.97368428600845,
,,,,,,,,,,,,1,0,1,0,129,0,129,0,,,,,,,129,,,0.2,7716.4020119263005,Y,l,go,l,1,0.5512833155225962,,,,,,,,,,,,,,,,,28,001,21,weiblich,Psychologie,2023-01-17_12h06.16.462,00_bat_bachelor,2022.2.4,59.97368428600845,
,,,,,,,,,,,,1,0,1,0,130,0,130,0,,,,,,,130,,,0.2,7717.268725203045,X,d,go,None,0,,7718.068748572739,,,,,,,,,,,,,,,,28,001,21,weiblich,Psychologie,2023-01-17_12h06.16.462,00_bat_bachelor,2022.2.4,59.97368428600845,
,,,,,,,,,,,,1,0,1,0,131,0,131,0,,,,,,,131,,,0.2,7718.268865809034,X,None,nogo,d,0,0.04457762181118596,,,,,,,,,,,,,,,,,28,001,21,weiblich,Psychologie,2023-01-17_12h06.16.462,00_bat_bachelor,2022.2.4,59.97368428600845,
,,,,,,,,,,,,1,0,1,0,132,0,132,0,,,,,,,132,,,0.2,7718.618681397013,Y,l,go,l,1,0.6069429248891538,,,,,,,,,,,,,,,,,28,001,21,weiblich,Psychologie,2023-01-17_12h06.16.462,00_bat_bachelor,2022.2.4,59.97368428600845,
,,,,,,,,,,,,1,0,1,0,133,0,133,0,,,,,,,133,,,0.2,7719.552029792962,X,d,go,d,1,0.6013623215403641,,,,,,,,,,,,,,,,,28,001,21,weiblich,Psychologie,2023-01-17_12h06.16.462,00_bat_bachelor,2022.2.4,59.97368428600845,
,,,,,,,,,,,,1,0,1,0,134,0,134,0,,,,,,,134,,,0.2,7720.485672006951,X,None,nogo,None,1,,7721.285556710034,,,,,,,,,,,,,,,,28,001,21,weiblich,Psychologie,2023-01-17_12h06.16.462,00_bat_bachelor,2022.2.4,59.97368428600845,
,,,,,,,,,,,,1,0,1,0,135,0,135,0,,,,,,,135,,,0.2,7721.485553219129,Y,l,go,l,1,0.572631183968042,,,,,,,,,,,,,,,,,28,001,21,weiblich,Psychologie,2023-01-17_12h06.16.462,00_bat_bachelor,2022.2.4,59.97368428600845,
,,,,,,,,,,,,1,0,1,0,136,0,136,0,,,,,,,136,,,0.2,7722.368836184818,X,d,go,None,0,,7723.168756281826,,,,,,,,,,,,,,,,28,001,21,weiblich,Psychologie,2023-01-17_12h06.16.462,00_bat_bachelor,2022.2.4,59.97368428600845,
,,,,,,,,,,,,1,0,1,0,137,0,137,0,,,,,,,137,,,0.2,7723.36891424538,Y,l,go,d,0,0.016498605109518394,,,,,,,,,,,,,,,,,28,001,21,weiblich,Psychologie,2023-01-17_12h06.16.462,00_bat_bachelor,2022.2.4,59.97368428600845,
,,,,,,,,,,,,1,0,1,0,138,0,138,0,,,,,,,138,,,0.2,7723.685534213073,X,d,go,None,0,,7724.485597340317,,,,,,,,,,,,,,,,28,001,21,weiblich,Psychologie,2023-01-17_12h06.16.462,00_bat_bachelor,2022.2.4,59.97368428600845,
,,,,,,,,,,,,1,0,1,0,139,0,139,0,,,,,,,139,,,0.2,7724.685590455483,X,None,nogo,None,1,,7725.485374310127,,,,,,,,,,,,,,,,28,001,21,weiblich,Psychologie,2023-01-17_12h06.16.462,00_bat_bachelor,2022.2.4,59.97368428600845,
,,,,,,,,,,,,1,0,1,0,140,0,140,0,,,,,,,140,,,0.2,7725.685565243373,Y,l,go,l,1,0.32363930468272883,,,,,,,,,,,,,,,,,28,001,21,weiblich,Psychologie,2023-01-17_12h06.16.462,00_bat_bachelor,2022.2.4,59.97368428600845,
,,,,,,,,,,,,1,0,1,0,141,0,141,0,,,,,,,141,,,0.2,7726.318920087797,X,d,go,d,1,0.44254833794548176,,,,,,,,,,,,,,,,,28,001,21,weiblich,Psychologie,2023-01-17_12h06.16.462,00_bat_bachelor,2022.2.4,59.97368428600845,
,,,,,,,,,,,,1,0,1,0,142,0,142,0,,,,,,,142,,,0.2,7727.068874633274,Y,l,go,l,1,0.6366781832184643,,,,,,,,,,,,,,,,,28,001,21,weiblich,Psychologie,2023-01-17_12h06.16.462,00_bat_bachelor,2022.2.4,59.97368428600845,
,,,,,,,,,,,,1,0,1,0,143,0,143,0,,,,,,,143,,,0.2,7728.018952233237,Y,None,nogo,None,1,,7728.818710875785,,,,,,,,,,,,,,,,28,001,21,weiblich,Psychologie,2023-01-17_12h06.16.462,00_bat_bachelor,2022.2.4,59.97368428600845,
,,,,,,,,,,,,1,0,1,0,144,0,144,0,,,,,,,144,,,0.2,7729.018839263605,X,d,go,d,1,0.335046814288944,,,,,,,,,,,,,,,,,28,001,21,weiblich,Psychologie,2023-01-17_12h06.16.462,00_bat_bachelor,2022.2.4,59.97368428600845,
,,,,,,,,,,,,1,0,1,0,145,0,145,0,,,,,,,145,,,0.2,7729.668892766596,Y,l,go,l,1,0.5329133850318613,,,,,,,,,,,,,,,,,28,001,21,weiblich,Psychologie,2023-01-17_12h06.16.462,00_bat_bachelor,2022.2.4,59.97368428600845,
,,,,,,,,,,,,1,0,1,0,146,0,146,0,,,,,,,146,,,0.2,7730.50225527164,X,d,go,None,0,,7731.302268459505,,,,,,,,,,,,,,,,28,001,21,weiblich,Psychologie,2023-01-17_12h06.16.462,00_bat_bachelor,2022.2.4,59.97368428600845,
,,,,,,,,,,,,1,0,1,0,147,0,147,0,,,,,,,147,,,0.2,7731.502223271658,X,None,nogo,None,1,,7732.302090035359,,,,,,,,,,,,,,,,28,001,21,weiblich,Psychologie,2023-01-17_12h06.16.462,00_bat_bachelor,2022.2.4,59.97368428600845,
,,,,,,,,,,,,1,0,1,0,148,0,148,0,,,,,,,148,,,0.2,7732.502248968609,X,None,nogo,None,1,,7733.302394520055,,,,,,,,,,,,,,,,28,001,21,weiblich,Psychologie,2023-01-17_12h06.16.462,00_bat_bachelor,2022.2.4,59.97368428600845,
,,,,,,,,,,,,1,0,1,0,149,0,149,0,,,,,,,149,,,0.2,7733.502011392964,Y,l,go,l,1,0.39572072427836247,,,,,,,,,,,,,,,,,28,001,21,weiblich,Psychologie,2023-01-17_12h06.16.462,00_bat_bachelor,2022.2.4,59.97368428600845,
,,,,,,,,,,,,1,0,1,0,150,0,150,0,,,,,,,150,,,0.2,7734.202046932347,X,d,go,d,1,0.3672034047631314,,,,,,,,,,,,,,,,,28,001,21,weiblich,Psychologie,2023-01-17_12h06.16.462,00_bat_bachelor,2022.2.4,59.97368428600845,
,,,,,,,,,,,,1,0,1,0,151,0,151,0,,,,,,,151,,,0.2,7734.902267198908,X,None,nogo,None,1,,7735.7020636596135,,,,,,,,,,,,,,,,28,001,21,weiblich,Psychologie,2023-01-17_12h06.16.462,00_bat_bachelor,2022.2.4,59.97368428600845,
,,,,,,,,,,,,1,0,1,0,152,0,152,0,,,,,,,152,,,0.2,7735.902046108109,Y,l,go,l,1,0.41126835309842136,,,,,,,,,,,,,,,,,28,001,21,weiblich,Psychologie,2023-01-17_12h06.16.462,00_bat_bachelor,2022.2.4,59.97368428600845,
,,,,,,,,,,,,1,0,1,0,153,0,153,0,,,,,,,153,,,0.2,7736.63533884348,X,d,go,d,1,0.38196315518871415,,,,,,,,,,,,,,,,,28,001,21,weiblich,Psychologie,2023-01-17_12h06.16.462,00_bat_bachelor,2022.2.4,59.97368428600845,
,,,,,,,,,,,,1,0,1,0,154,0,154,0,,,,,,,154,,,0.2,7737.335645413026,X,None,nogo,None,1,,7738.1355558130745,,,,,,,,,,,,,,,,28,001,21,weiblich,Psychologie,2023-01-17_12h06.16.462,00_bat_bachelor,2022.2.4,59.97368428600845,
,,,,,,,,,,,,1,0,1,0,155,0,155,0,,,,,,,155,,,0.2,7738.335562503969,Y,l,go,l,1,0.3939292099967133,,,,,,,,,,,,,,,,,28,001,21,weiblich,Psychologie,2023-01-17_12h06.16.462,00_bat_bachelor,2022.2.4,59.97368428600845,
,,,,,,,,,,,,1,0,1,0,156,0,156,0,,,,,,,156,,,0.2,7739.05225064134,X,d,go,d,1,0.2856916867167456,,,,,,,,,,,,,,,,,28,001,21,weiblich,Psychologie,2023-01-17_12h06.16.462,00_bat_bachelor,2022.2.4,59.97368428600845,
,,,,,,,,,,,,1,0,1,0,157,0,157,0,,,,,,,157,,,0.2,7739.652196532275,X,None,nogo,None,1,,7740.4517335991695,,,,,,,,,,,,,,,,28,001,21,weiblich,Psychologie,2023-01-17_12h06.16.462,00_bat_bachelor,2022.2.4,59.97368428600845,
,,,,,,,,,,,,1,0,1,0,158,0,158,0,,,,,,,158,,,0.2,7740.652006956603,Y,l,go,l,1,0.301790103156236,,,,,,,,,,,,,,,,,28,001,21,weiblich,Psychologie,2023-01-17_12h06.16.462,00_bat_bachelor,2022.2.4,59.97368428600845,
,,,,,,,,,,,,1,0,1,0,159,0,159,0,,,,,,,159,,,0.2,7741.268400354718,X,d,go,d,1,0.29394283423607703,,,,,,,,,,,,,,,,,28,001,21,weiblich,Psychologie,2023-01-17_12h06.16.462,00_bat_bachelor,2022.2.4,59.97368428600845,
,,,,,,,,,,,,1,0,1,0,160,0,160,0,,,,,,,160,,,0.2,7741.868492184978,Y,l,go,None,0,,7742.668741978792,,,,,,,,,,,,,,,,28,001,21,weiblich,Psychologie,2023-01-17_12h06.16.462,00_bat_bachelor,2022.2.4,59.97368428600845,
,,,,,,,,,,,,1,0,1,0,161,0,161,0,,,,,,,161,,,0.2,7742.868674487923,X,d,go,None,0,,7743.668367675942,,,,,,,,,,,,,,,,28,001,21,weiblich,Psychologie,2023-01-17_12h06.16.462,00_bat_bachelor,2022.2.4,59.97368428600845,
,,,,,,,,,,,,1,0,1,0,162,0,162,0,,,,,,,162,,,0.2,7743.868676427315,X,None,nogo,l,0,0.0463802876038244,,,,,,,,,,,,,,,,,28,001,21,weiblich,Psychologie,2023-01-17_12h06.16.462,00_bat_bachelor,2022.2.4,59.97368428600845,
,,,,,,,,,,,,1,0,1,0,163,0,163,0,,,,,,,163,,,0.2,7744.218698075783,Y,l,go,None,0,,7745.0186763545935,,,,,,,,,,,,,,,,28,001,21,weiblich,Psychologie,2023-01-17_12h06.16.462,00_bat_bachelor,2022.2.4,59.97368428600845,
,,,,,,,,,,,,1,0,1,0,164,0,164,0,,,,,,,164,,,0.2,7745.218667530353,X,d,go,d,1,0.08703190425876528,,,,,,,,,,,,,,,,,28,001,21,weiblich,Psychologie,2023-01-17_12h06.16.462,00_bat_bachelor,2022.2.4,59.97368428600845,
,,,,,,,,,,,,1,0,1,0,165,0,165,0,,,,,,,165,,,0.2,7745.618664427326,X,None,nogo,None,1,,7746.418657251561,,,,,,,,,,,,,,,,28,001,21,weiblich,Psychologie,2023-01-17_12h06.16.462,00_bat_bachelor,2022.2.4,59.97368428600845,
,,,,,,,,,,,,1,0,1,0,166,0,166,0,,,,,,,166,,,0.2,7746.618419578954,Y,l,go,None,0,,7747.41843422137,,,,,,,,,,,,,,,,28,001,21,weiblich,Psychologie,2023-01-17_12h06.16.462,00_bat_bachelor,2022.2.4,59.97368428600845,
,,,,,,,,,,,,1,0,1,0,167,0,167,0,,,,,,,167,,,0.2,7747.618590730388,X,d,go,l,0,0.19931742556218524,,,,,,,,,,,,,,,,,28,001,21,weiblich,Psychologie,2023-01-17_12h06.16.462,00_bat_bachelor,2022.2.4,59.97368428600845,
,,,,,,,,,,,,1,0,1,0,168,0,168,0,,,,,,,168,,,0.2,7748.1185740031215,X,None,nogo,None,1,,7748.918630827335,,,,,,,,,,,,,,,,28,001,21,weiblich,Psychologie,2023-01-17_12h06.16.462,00_bat_bachelor,2022.2.4,59.97368428600845,
,,,,,,,,,,,,1,0,1,0,169,0,169,0,,,,,,,169,,,0.2,7749.1184266092605,Y,l,go,None,0,,7749.918433494095,,,,,,,,,,,,,,,,28,001,21,weiblich,Psychologie,2023-01-17_12h06.16.462,00_bat_bachelor,2022.2.4,59.97368428600845,
,,,,,,,,,,,,1,0,1,0,170,0,170,0,,,,,,,170,,,0.2,7750.118552184955,X,d,go,d,1,0.11537322384538129,,,,,,,,,,,,,,,,,28,001,21,weiblich,Psychologie,2023-01-17_12h06.16.462,00_bat_bachelor,2022.2.4,59.97368428600845,
,,,,,,,,,,,,1,0,1,0,171,0,171,0,,,,,,,171,,,0.2,7750.5354290737305,Y,l,go,l,1,0.6114849832956679,,,,,,,,,,,,,,,,,28,001,21,weiblich,Psychologie,2023-01-17_12h06.16.462,00_bat_bachelor,2022.2.4,59.97368428600845,
,,,,,,,,,,,,1,0,1,0,172,0,172,0,,,,,,,172,,,0.2,7751.451913962708,Y,None,nogo,None,1,,7752.251755029458,,,,,,,,,,,,,,,,28,001,21,weiblich,Psychologie,2023-01-17_12h06.16.462,00_bat_bachelor,2022.2.4,59.97368428600845,
,,,,,,,,,,,,1,0,1,0,173,0,173,0,,,,,,,173,,,0.2,7752.451874205159,X,d,go,None,0,,7753.252013938429,,,,,,,,,,,,,,,,28,001,21,weiblich,Psychologie,2023-01-17_12h06.16.462,00_bat_bachelor,2022.2.4,59.97368428600845,
,,,,,,,,,,,,1,0,1,0,174,0,174,0,,,,,,,174,,,0.2,7753.4519255990745,Y,l,go,d,0,0.6539959929941688,,,,,,,,,,,,,,,,,28,001,21,weiblich,Psychologie,2023-01-17_12h06.16.462,00_bat_bachelor,2022.2.4,59.97368428600845,
,,,,,,,,,,,,1,0,1,0,175,0,175,0,,,,,,,175,,,0.2,7754.418659190953,X,d,go,l,0,0.11875067674554884,,,,,,,,,,,,,,,,,28,001,21,weiblich,Psychologie,2023-01-17_12h06.16.462,00_bat_bachelor,2022.2.4,59.97368428600845,
,,,,,,,,,,,,1,0,1,0,176,0,176,0,,,,,,,176,,,0.2,7754.851736799159,X,None,nogo,None,1,,7755.651462472029,,,,,,,,,,,,,,,,28,001,21,weiblich,Psychologie,2023-01-17_12h06.16.462,00_bat_bachelor,2022.2.4,59.97368428600845,
,,,,,,,,,,,,1,0,1,0,177,0,177,0,,,,,,,177,,,0.2,7755.851439102335,Y,l,go,None,0,,7756.651746593096,,,,,,,,,,,,,,,,28,001,21,weiblich,Psychologie,2023-01-17_12h06.16.462,00_bat_bachelor,2022.2.4,59.97368428600845,
,,,,,,,,,,,,1,0,1,0,178,0,178,0,,,,,,,178,,,0.2,7756.851715950688,X,d,go,d,1,0.453748332511168,,,,,,,,,,,,,,,,,28,001,21,weiblich,Psychologie,2023-01-17_12h06.16.462,00_bat_bachelor,2022.2.4,59.97368428600845,
,,,,,,,,,,,,1,0,1,0,179,0,179,0,,,,,,,179,,,0.2,7757.618171821494,Y,l,go,l,1,0.5352105960482731,,,,,,,,,,,,,,,,,28,001,21,weiblich,Psychologie,2023-01-17_12h06.16.462,00_bat_bachelor,2022.2.4,59.97368428600845,
,,,,,,,,,,,,1,0,1,0,180,0,180,0,,,,,,,180,,,0.2,7758.468195651789,X,d,go,d,1,0.40499199251644313,,,,,,,,,,,,,,,,,28,001,21,weiblich,Psychologie,2023-01-17_12h06.16.462,00_bat_bachelor,2022.2.4,59.97368428600845,
,,,,,,,,,,,,1,0,1,0,181,0,181,0,,,,,,,181,,,0.2,7759.184954576995,Y,l,go,l,1,0.3297420896124095,,,,,,,,,,,,,,,,,28,001,21,weiblich,Psychologie,2023-01-17_12h06.16.462,00_bat_bachelor,2022.2.4,59.97368428600845,
,,,,,,,,,,,,1,0,1,0,182,0,182,0,,,,,,,182,,,0.2,7759.818470875893,X,d,go,None,0,,7760.618483578917,,,,,,,,,,,,,,,,28,001,21,weiblich,Psychologie,2023-01-17_12h06.16.462,00_bat_bachelor,2022.2.4,59.97368428600845,
