loop_instruction.thisRepN,loop_instruction.thisTrialN,loop_instruction.thisN,loop_instruction.thisIndex,loop_rsi_practice.thisRepN,loop_rsi_practice.thisTrialN,loop_rsi_practice.thisN,loop_rsi_practice.thisIndex,loop_practice.thisRepN,loop_practice.thisTrialN,loop_practice.thisN,loop_practice.thisIndex,loop_exp.thisRepN,loop_exp.thisTrialN,loop_exp.thisN,loop_exp.thisIndex,loop_trials.thisRepN,loop_trials.thisTrialN,loop_trials.thisN,loop_trials.thisIndex,map_condition,map_x_key,map_y_key,key_resp_welcome.started,key_resp_welcome.keys,key_resp_welcome.rt,index,text_empty_rsi_practice.started,text_empty_rsi_practice.stopped,rsi,stimulus.started,stimulus,correct,trial_type,key_resp_trial.keys,key_resp_trial.corr,key_resp_trial.rt,stimulus.stopped,key_resp_instruction_rsi.started,key_resp_instruction_rsi.keys,key_resp_instruction_rsi.rt,key_resp_instruction_rsi.stopped,key_resp_instruction_final.started,key_resp_instruction_final.keys,key_resp_instruction_final.rt,key_resp_break.started,key_resp_break.keys,key_resp_break.rt,key_resp_break.stopped,key_resp_end_screen.started,image_end_screen.started,key_resp_end_screen.stopped,image_end_screen.stopped,key_resp_end_screen.keys,participant,session,date,expName,psychopyVersion,frameRate,
,,,,0,0,0,0,0,0,0,0,,,,,,,,,0,d,l,146.22842569695786,j,19.20866030291654,0,165.4622414545156,166.4872989091091,1,166.4872989091091,X,d,go,None,0,,,,,,,,,,,,,,,,,,,2,001,2022-12-14_13h58.16.622,00_bat_bachelor,2022.2.4,59.89754251397818,
,,,,0,0,0,0,1,0,1,0,,,,,,,,,,,,,,,1,167.88925381819718,168.89167660614476,1,168.89167660614476,Y,l,go,None,0,,,,,,,,,,,,,,,,,,,2,001,2022-12-14_13h58.16.622,00_bat_bachelor,2022.2.4,59.89754251397818,
,,,,0,0,0,0,2,0,2,0,,,,,,,,,,,,,,,2,170.30751709081233,171.30847127269953,1,171.30847127269953,X,d,go,d,1,0.4325293938163668,,,,,,,,,,,,,,,,,,2,001,2022-12-14_13h58.16.622,00_bat_bachelor,2022.2.4,59.89754251397818,
,,,,0,0,0,0,3,0,3,0,,,,,,,,,,,,,,,3,172.37591806054115,173.37652024254203,1,173.37652024254203,Y,l,go,None,0,,174.17743175756186,,,,,,,,,,,,,,,,,2,001,2022-12-14_13h58.16.622,00_bat_bachelor,2022.2.4,59.89754251397818,
,,,,0,0,0,0,4,0,4,0,,,,,,,,,,,,,,,4,174.7775859395042,175.77833406068385,1,175.77833406068385,Y,None,nogo,l,0,0.5392343634739518,,,,,,,,,,,,,,,,,,2,001,2022-12-14_13h58.16.622,00_bat_bachelor,2022.2.4,59.89754251397818,
,,,,0,0,0,0,5,0,5,0,,,,,,,,,,,,,,,5,177.37939199991524,178.38019248493947,1,178.38019248493947,X,d,go,None,0,,179.18093963642605,,,,,,,,,,,,,,,,,2,001,2022-12-14_13h58.16.622,00_bat_bachelor,2022.2.4,59.89754251397818,
,,,,0,0,0,0,6,0,6,0,,,,,,,,,,,,,,,6,179.7812184242066,180.7817726060748,1,180.7817726060748,Y,l,go,l,1,0.4787970301695168,,,,,,,,,,,,,,,,,,2,001,2022-12-14_13h58.16.622,00_bat_bachelor,2022.2.4,59.89754251397818,
,,,,0,0,0,0,7,0,7,0,,,,,,,,,,,,,,,7,181.88277381821536,182.88341721217148,1,182.88341721217148,X,d,go,d,1,0.6015524242538959,,,,,,,,,,,,,,,,,,2,001,2022-12-14_13h58.16.622,00_bat_bachelor,2022.2.4,59.89754251397818,
,,,,0,0,0,0,8,0,8,0,,,,,,,,,,,,,,,8,184.11772654554807,185.11857648496516,1,185.11857648496516,X,None,nogo,d,0,0.5905332725960761,,,,,,,,,,,,,,,,,,2,001,2022-12-14_13h58.16.622,00_bat_bachelor,2022.2.4,59.89754251397818,
,,,,0,0,0,0,9,0,9,0,,,,,,,,,,,,,,,9,186.75302642420866,187.75383175746538,1,187.75383175746538,Y,l,go,None,0,,188.55444751516916,,,,,,,,,,,,,,,,,2,001,2022-12-14_13h58.16.622,00_bat_bachelor,2022.2.4,59.89754251397818,
,,,,0,0,0,0,10,0,10,0,,,,,,,,,,,,,,,10,189.15488096978515,190.15560145466588,1,190.15560145466588,X,d,go,d,1,0.36975751514546573,,,,,,,,,,,,,,,,,,2,001,2022-12-14_13h58.16.622,00_bat_bachelor,2022.2.4,59.89754251397818,
,,,,0,0,0,0,11,0,11,0,,,,,,,,,,,,,,,11,191.15648290910758,192.15764848492108,1,192.15764848492108,Y,l,go,l,1,0.5917589697055519,,,,,,,,,,,,,,,,,,2,001,2022-12-14_13h58.16.622,00_bat_bachelor,2022.2.4,59.89754251397818,
,,,,0,0,0,0,12,0,12,0,,,,,,,,,,,,,,,12,193.37494351505302,194.37557527283207,1,194.37557527283207,X,d,go,None,0,,195.17626569699496,,,,,,,,,,,,,,,,,2,001,2022-12-14_13h58.16.622,00_bat_bachelor,2022.2.4,59.89754251397818,
,,,,0,0,0,0,13,0,13,0,,,,,,,,,,,,,,,13,195.7766472727526,196.7774172120262,1,196.7774172120262,Y,l,go,l,1,0.6434210303705186,,,,,,,,,,,,,,,,,,2,001,2022-12-14_13h58.16.622,00_bat_bachelor,2022.2.4,59.89754251397818,
,,,,0,0,0,0,14,0,14,0,,,,,,,,,,,,,,,14,198.0452460607048,199.04583660606295,1,199.04583660606295,Y,None,nogo,None,1,,199.84667393937707,,,,,,,,,,,,,,,,,2,001,2022-12-14_13h58.16.622,00_bat_bachelor,2022.2.4,59.89754251397818,
,,,,1,0,1,0,0,0,0,0,,,,,,,,,,,,,,,0,211.80518690915778,212.00519272731617,0.2,212.00519272731617,X,d,go,None,0,,212.80585842416622,200.4908087272197,j,11.282176909036934,,,,,,,,,,,,,,2,001,2022-12-14_13h58.16.622,00_bat_bachelor,2022.2.4,59.89754251397818,
,,,,1,0,1,0,1,0,1,0,,,,,,,,,,,,,,,1,213.40674278791994,213.6071898182854,0.2,213.6071898182854,Y,l,go,l,1,0.5984106061514467,,,,,,,,,,,,,,,,,,2,001,2022-12-14_13h58.16.622,00_bat_bachelor,2022.2.4,59.89754251397818,
,,,,1,0,1,0,2,0,2,0,,,,,,,,,,,,,,,2,214.82471563643776,215.02483781822957,0.2,215.02483781822957,X,d,go,d,1,0.44435048499144614,,,,,,,,,,,,,,,,,,2,001,2022-12-14_13h58.16.622,00_bat_bachelor,2022.2.4,59.89754251397818,
,,,,1,0,1,0,3,0,3,0,,,,,,,,,,,,,,,3,216.09227539389394,216.29261236358434,0.2,216.29261236358434,Y,l,go,l,1,0.48899484844878316,,,,,,,,,,,,,,,,,,2,001,2022-12-14_13h58.16.622,00_bat_bachelor,2022.2.4,59.89754251397818,
,,,,1,0,1,0,4,0,4,0,,,,,,,,,,,,,,,4,217.40998787875287,217.60991612123325,0.2,217.60991612123325,Y,None,nogo,None,1,,,,,,,,,,,,,,,,,,,2,001,2022-12-14_13h58.16.622,00_bat_bachelor,2022.2.4,59.89754251397818,
,,,,1,0,1,0,5,0,5,0,,,,,,,,,,,,,,,5,219.0111849696841,219.2113672727719,0.2,219.2113672727719,X,d,go,d,1,0.5131121817976236,,,,,,,,,,,,,,,,,,2,001,2022-12-14_13h58.16.622,00_bat_bachelor,2022.2.4,59.89754251397818,
,,,,1,0,1,0,6,0,6,0,,,,,,,,,,,,,,,6,220.3455243636854,220.54562424239703,0.2,220.54562424239703,Y,l,go,l,1,0.6037332725245506,,,,,,,,,,,,,,,,,,2,001,2022-12-14_13h58.16.622,00_bat_bachelor,2022.2.4,59.89754251397818,
,,,,1,0,1,0,7,0,7,0,,,,,,,,,,,,,,,7,221.7801061817445,221.98002424254082,0.2,221.98002424254082,X,d,go,d,1,0.529780302895233,,,,,,,,,,,,,,,,,,2,001,2022-12-14_13h58.16.622,00_bat_bachelor,2022.2.4,59.89754251397818,
,,,,1,0,1,0,8,0,8,0,,,,,,,,,,,,,,,8,223.13109527272172,223.33109527267516,0.2,223.33109527267516,X,None,nogo,None,1,,224.13162278779782,,,,,,,,,,,,,,,,,2,001,2022-12-14_13h58.16.622,00_bat_bachelor,2022.2.4,59.89754251397818,
,,,,1,0,1,0,9,0,9,0,,,,,,,,,,,,,,,9,224.73214933322743,224.9321192726493,0.2,224.9321192726493,Y,l,go,l,1,0.44215460610575974,,,,,,,,,,,,,,,,,,2,001,2022-12-14_13h58.16.622,00_bat_bachelor,2022.2.4,59.89754251397818,
,,,,1,0,1,0,10,0,10,0,,,,,,,,,,,,,,,10,225.99942933325656,226.19981333334,0.2,226.19981333334,X,d,go,d,1,0.5968358183745295,,,,,,,,,,,,,,,,,,2,001,2022-12-14_13h58.16.622,00_bat_bachelor,2022.2.4,59.89754251397818,
,,,,1,0,1,0,11,0,11,0,,,,,,,,,,,,,,,11,227.41740218177438,227.61751854536124,0.2,227.61751854536124,X,None,nogo,None,1,,,,,,,,,,,,,,,,,,,2,001,2022-12-14_13h58.16.622,00_bat_bachelor,2022.2.4,59.89754251397818,
,,,,1,0,1,0,12,0,12,0,,,,,,,,,,,,,,,12,229.01861721207388,229.21855563647114,0.2,229.21855563647114,X,None,nogo,d,0,0.5543941212818027,,,,,,,,,,,,,,,,,,2,001,2022-12-14_13h58.16.622,00_bat_bachelor,2022.2.4,59.89754251397818,
,,,,1,0,1,0,13,0,13,0,,,,,,,,,,,,,,,13,230.80317866662517,231.00324896979146,0.2,231.00324896979146,Y,l,go,None,0,,,,,,,,,,,,,,,,,,,2,001,2022-12-14_13h58.16.622,00_bat_bachelor,2022.2.4,59.89754251397818,
,,,,1,0,1,0,14,0,14,0,,,,,,,,,,,,,,,14,232.40476993937045,232.60516121215187,0.2,232.60516121215187,X,d,go,d,1,0.49704672722145915,,,,,,,,,,,,,,,,,,2,001,2022-12-14_13h58.16.622,00_bat_bachelor,2022.2.4,59.89754251397818,
,,,,,,,,,,,,,,,,,,,,,,,,,,,,,,,,,,,,,,233.8083767273929,None,,233.8083767273929,233.8083767273929,space,8.332877515116706,,,,,,,,,,2,001,2022-12-14_13h58.16.622,00_bat_bachelor,2022.2.4,59.89754251397818,
,,,,,,,,,,,,0,0,0,0,0,0,0,0,,,,,,,0,,,1,243.162562424317,X,d,go,None,0,,,,,,,,,,,,,,,,,,,2,001,2022-12-14_13h58.16.622,00_bat_bachelor,2022.2.4,59.89754251397818,
,,,,,,,,,,,,0,0,0,0,1,0,1,0,,,,,,,1,,,1,244.96372751519084,Y,l,go,l,1,0.4249793333001435,,,,,,,,,,,,,,,,,,2,001,2022-12-14_13h58.16.622,00_bat_bachelor,2022.2.4,59.89754251397818,
,,,,,,,,,,,,0,0,0,0,2,0,2,0,,,,,,,2,,,1,246.41519127273932,X,d,go,d,1,0.5434011516626924,,,,,,,,,,,,,,,,,,2,001,2022-12-14_13h58.16.622,00_bat_bachelor,2022.2.4,59.89754251397818,
,,,,,,,,,,,,0,0,0,0,3,0,3,0,,,,,,,3,,,1,247.98288678796962,Y,l,go,l,1,0.5115422422531992,,,,,,,,,,,,,,,,,,2,001,2022-12-14_13h58.16.622,00_bat_bachelor,2022.2.4,59.89754251397818,
,,,,,,,,,,,,0,0,0,0,4,0,4,0,,,,,,,4,,,1,249.51736387889832,X,d,go,d,1,0.479928181739524,,,,,,,,,,,,,,,,,,2,001,2022-12-14_13h58.16.622,00_bat_bachelor,2022.2.4,59.89754251397818,
,,,,,,,,,,,,0,0,0,0,5,0,5,0,,,,,,,5,,,1,251.01850181818008,X,None,nogo,None,1,,,,,,,,,,,,,,,,,,,2,001,2022-12-14_13h58.16.622,00_bat_bachelor,2022.2.4,59.89754251397818,
,,,,,,,,,,,,0,0,0,0,6,0,6,0,,,,,,,6,,,1,252.8198317575734,Y,l,go,l,1,0.40955775743350387,,,,,,,,,,,,,,,,,,2,001,2022-12-14_13h58.16.622,00_bat_bachelor,2022.2.4,59.89754251397818,
,,,,,,,,,,,,0,0,0,0,7,0,7,0,,,,,,,7,,,1,254.25412024231628,X,d,go,d,1,0.49526927270926535,,,,,,,,,,,,,,,,,,2,001,2022-12-14_13h58.16.622,00_bat_bachelor,2022.2.4,59.89754251397818,
,,,,,,,,,,,,0,0,0,0,8,0,8,0,,,,,,,8,,,1,255.77227539382875,Y,l,go,l,1,0.5613070910330862,,,,,,,,,,,,,,,,,,2,001,2022-12-14_13h58.16.622,00_bat_bachelor,2022.2.4,59.89754251397818,
,,,,,,,,,,,,0,0,0,0,9,0,9,0,,,,,,,9,,,1,257.356482909061,Y,None,nogo,None,1,,,,,,,,,,,,,,,,,,,2,001,2022-12-14_13h58.16.622,00_bat_bachelor,2022.2.4,59.89754251397818,
,,,,,,,,,,,,0,0,0,0,10,0,10,0,,,,,,,10,,,1,259.15779684856534,X,d,go,d,1,0.4552304847165942,,,,,,,,,,,,,,,,,,2,001,2022-12-14_13h58.16.622,00_bat_bachelor,2022.2.4,59.89754251397818,
,,,,,,,,,,,,0,0,0,0,11,0,11,0,,,,,,,11,,,1,260.64231903036125,Y,l,go,d,0,0.39575993944890797,,,,,,,,,,,,,,,,,,2,001,2022-12-14_13h58.16.622,00_bat_bachelor,2022.2.4,59.89754251397818,
,,,,,,,,,,,,0,0,0,0,12,0,12,0,,,,,,,12,,,1,262.0602133332286,X,d,go,None,0,,,,,,,,,,,,,,,,,,,2,001,2022-12-14_13h58.16.622,00_bat_bachelor,2022.2.4,59.89754251397818,
,,,,,,,,,,,,0,0,0,0,13,0,13,0,,,,,,,13,,,1,263.8615966059733,Y,l,go,l,1,0.5835756969172508,,,,,,,,,,,,,,,,,,2,001,2022-12-14_13h58.16.622,00_bat_bachelor,2022.2.4,59.89754251397818,
,,,,,,,,,,,,0,0,0,0,14,0,14,0,,,,,,,14,,,1,265.46315393946134,Y,None,nogo,None,1,,266.2636276364792,,,,,,,,,,,,,,,,,2,001,2022-12-14_13h58.16.622,00_bat_bachelor,2022.2.4,59.89754251397818,
,,,,,,,,,,,,0,0,0,0,15,0,15,0,,,,,,,15,,,1,267.264551757602,X,d,go,d,1,0.5247146061155945,,,,,,,,,,,,,,,,,,2,001,2022-12-14_13h58.16.622,00_bat_bachelor,2022.2.4,59.89754251397818,
,,,,,,,,,,,,0,0,0,0,16,0,16,0,,,,,,,16,,,1,268.8154026665725,Y,l,go,l,1,0.5736872120760381,,,,,,,,,,,,,,,,,,2,001,2022-12-14_13h58.16.622,00_bat_bachelor,2022.2.4,59.89754251397818,
,,,,,,,,,,,,0,0,0,0,17,0,17,0,,,,,,,17,,,1,270.41680096974596,X,d,go,l,0,0.5080280606634915,,,,,,,,,,,,,,,,,,2,001,2022-12-14_13h58.16.622,00_bat_bachelor,2022.2.4,59.89754251397818,
,,,,,,,,,,,,0,0,0,0,18,0,18,0,,,,,,,18,,,1,271.9512644847855,Y,l,go,l,1,0.6376915755681694,,,,,,,,,,,,,,,,,,2,001,2022-12-14_13h58.16.622,00_bat_bachelor,2022.2.4,59.89754251397818,
,,,,,,,,,,,,0,0,0,0,19,0,19,0,,,,,,,19,,,1,273.6354652121663,X,d,go,d,1,0.5534350909292698,,,,,,,,,,,,,,,,,,2,001,2022-12-14_13h58.16.622,00_bat_bachelor,2022.2.4,59.89754251397818,
,,,,,,,,,,,,0,0,0,0,20,0,20,0,,,,,,,20,,,1,275.2200635152403,X,None,nogo,None,1,,,,,,,,,,,,,,,,,,,2,001,2022-12-14_13h58.16.622,00_bat_bachelor,2022.2.4,59.89754251397818,
,,,,,,,,,,,,0,0,0,0,21,0,21,0,,,,,,,21,,,1,277.0216334545985,Y,l,go,l,1,0.4807592120487243,,,,,,,,,,,,,,,,,,2,001,2022-12-14_13h58.16.622,00_bat_bachelor,2022.2.4,59.89754251397818,
,,,,,,,,,,,,0,0,0,0,22,0,22,0,,,,,,,22,,,1,278.52276072720997,X,d,go,d,1,0.674663697136566,,,,,,,,,,,,,,,,,,2,001,2022-12-14_13h58.16.622,00_bat_bachelor,2022.2.4,59.89754251397818,
,,,,,,,,,,,,0,0,0,0,23,0,23,0,,,,,,,23,,,1,280.22386278794147,X,None,nogo,d,0,0.5583049091510475,,,,,,,,,,,,,,,,,,2,001,2022-12-14_13h58.16.622,00_bat_bachelor,2022.2.4,59.89754251397818,
,,,,,,,,,,,,0,0,0,0,24,0,24,0,,,,,,,24,,,1,281.8084004849661,Y,l,go,l,1,0.5728203030303121,,,,,,,,,,,,,,,,,,2,001,2022-12-14_13h58.16.622,00_bat_bachelor,2022.2.4,59.89754251397818,
,,,,,,,,,,,,0,0,0,0,25,0,25,0,,,,,,,25,,,1,283.4098860605154,X,d,go,d,1,0.6035500001162291,,,,,,,,,,,,,,,,,,2,001,2022-12-14_13h58.16.622,00_bat_bachelor,2022.2.4,59.89754251397818,
,,,,,,,,,,,,0,0,0,0,26,0,26,0,,,,,,,26,,,1,285.0444838788826,Y,l,go,l,1,0.4881575151812285,,,,,,,,,,,,,,,,,,2,001,2022-12-14_13h58.16.622,00_bat_bachelor,2022.2.4,59.89754251397818,
,,,,,,,,,,,,0,0,0,0,27,0,27,0,,,,,,,27,,,1,286.56224969704635,Y,None,nogo,None,1,,287.36291393940337,,,,,,,,,,,,,,,,,2,001,2022-12-14_13h58.16.622,00_bat_bachelor,2022.2.4,59.89754251397818,
,,,,,,,,,,,,0,0,0,0,28,0,28,0,,,,,,,28,,,1,288.3634802424349,X,d,go,d,1,0.5145172728225589,,,,,,,,,,,,,,,,,,2,001,2022-12-14_13h58.16.622,00_bat_bachelor,2022.2.4,59.89754251397818,
,,,,,,,,,,,,0,0,0,0,29,0,29,0,,,,,,,29,,,1,289.89824484847486,Y,l,go,l,1,0.5473323029000312,,,,,,,,,,,,,,,,,,2,001,2022-12-14_13h58.16.622,00_bat_bachelor,2022.2.4,59.89754251397818,
,,,,,,,,,,,,0,0,0,0,30,0,30,0,,,,,,,30,,,1,291.4660450909287,Y,None,nogo,None,1,,,,,,,,,,,,,,,,,,,2,001,2022-12-14_13h58.16.622,00_bat_bachelor,2022.2.4,59.89754251397818,
,,,,,,,,,,,,0,0,0,0,31,0,31,0,,,,,,,31,,,1,293.26743854535744,X,d,go,d,1,0.45843387860804796,,,,,,,,,,,,,,,,,,2,001,2022-12-14_13h58.16.622,00_bat_bachelor,2022.2.4,59.89754251397818,
,,,,,,,,,,,,0,0,0,0,32,0,32,0,,,,,,,32,,,1,294.7517929696478,Y,l,go,l,1,0.5902423637453467,,,,,,,,,,,,,,,,,,2,001,2022-12-14_13h58.16.622,00_bat_bachelor,2022.2.4,59.89754251397818,
,,,,,,,,,,,,0,0,0,0,33,0,33,0,,,,,,,33,,,1,296.36990496958606,X,d,go,d,1,0.5562806667294353,,,,,,,,,,,,,,,,,,2,001,2022-12-14_13h58.16.622,00_bat_bachelor,2022.2.4,59.89754251397818,
,,,,,,,,,,,,0,0,0,0,34,0,34,0,,,,,,,34,,,1,297.95446060597897,Y,l,go,l,1,0.5701739999931306,,,,,,,,,,,,,,,,,,2,001,2022-12-14_13h58.16.622,00_bat_bachelor,2022.2.4,59.89754251397818,
,,,,,,,,,,,,0,0,0,0,35,0,35,0,,,,,,,35,,,1,299.5552499394398,X,d,go,d,1,0.5383039393927902,,,,,,,,,,,,,,,,,,2,001,2022-12-14_13h58.16.622,00_bat_bachelor,2022.2.4,59.89754251397818,
,,,,,,,,,,,,0,0,0,0,36,0,36,0,,,,,,,36,,,1,301.1234773332253,Y,l,go,l,1,0.6178263637702912,,,,,,,,,,,,,,,,,,2,001,2022-12-14_13h58.16.622,00_bat_bachelor,2022.2.4,59.89754251397818,
,,,,,,,,,,,,0,0,0,0,37,0,37,0,,,,,,,37,,,1,302.77462884853594,Y,None,nogo,None,1,,,,,,,,,,,,,,,,,,,2,001,2022-12-14_13h58.16.622,00_bat_bachelor,2022.2.4,59.89754251397818,
,,,,,,,,,,,,0,0,0,0,38,0,38,0,,,,,,,38,,,1,304.57595393946394,X,d,go,d,1,0.5572867272421718,,,,,,,,,,,,,,,,,,2,001,2022-12-14_13h58.16.622,00_bat_bachelor,2022.2.4,59.89754251397818,
,,,,,,,,,,,,0,0,0,0,39,0,39,0,,,,,,,39,,,1,306.1610002424568,Y,l,go,l,1,0.556485757464543,,,,,,,,,,,,,,,,,,2,001,2022-12-14_13h58.16.622,00_bat_bachelor,2022.2.4,59.89754251397818,
,,,,,,,,,,,,0,0,0,0,40,0,40,0,,,,,,,40,,,1,307.74542739405297,Y,None,nogo,None,1,,308.5458666665945,,,,,,,,,,,,,,,,,2,001,2022-12-14_13h58.16.622,00_bat_bachelor,2022.2.4,59.89754251397818,
,,,,,,,,,,,,0,0,0,0,41,0,41,0,,,,,,,41,,,1,309.54680533334613,X,d,go,d,1,0.5297822423744947,,,,,,,,,,,,,,,,,,2,001,2022-12-14_13h58.16.622,00_bat_bachelor,2022.2.4,59.89754251397818,
,,,,,,,,,,,,0,0,0,0,42,0,42,0,,,,,,,42,,,1,311.09810472722165,Y,l,go,l,1,0.5954549696762115,,,,,,,,,,,,,,,,,,2,001,2022-12-14_13h58.16.622,00_bat_bachelor,2022.2.4,59.89754251397818,
,,,,,,,,,,,,0,0,0,0,43,0,43,0,,,,,,,43,,,1,312.7156872728374,Y,None,nogo,None,1,,313.5165081212763,,,,,,,,,,,,,,,,,2,001,2022-12-14_13h58.16.622,00_bat_bachelor,2022.2.4,59.89754251397818,
,,,,,,,,,,,,0,0,0,0,44,0,44,0,,,,,,,44,,,1,314.5169633938931,X,d,go,d,1,0.5999412727542222,,,,,,,,,,,,,,,,,,2,001,2022-12-14_13h58.16.622,00_bat_bachelor,2022.2.4,59.89754251397818,
,,,,,,,,,,,,0,0,0,0,45,0,45,0,,,,,,,45,,,1,316.13453236361966,Y,l,go,l,1,0.567427818197757,,,,,,,,,,,,,,,,,,2,001,2022-12-14_13h58.16.622,00_bat_bachelor,2022.2.4,59.89754251397818,
,,,,,,,,,,,,0,0,0,0,46,0,46,0,,,,,,,46,,,1,317.7190957576968,Y,None,nogo,None,1,,,,,,,,,,,,,,,,,,,2,001,2022-12-14_13h58.16.622,00_bat_bachelor,2022.2.4,59.89754251397818,
,,,,,,,,,,,,0,0,0,0,47,0,47,0,,,,,,,47,,,1,319.52070109080523,Y,None,nogo,l,0,0.6679417577106506,,,,,,,,,,,,,,,,,,2,001,2022-12-14_13h58.16.622,00_bat_bachelor,2022.2.4,59.89754251397818,
,,,,,,,,,,,,0,0,0,0,48,0,48,0,,,,,,,48,,,1,321.2217643635813,X,d,go,d,1,0.6159005453810096,,,,,,,,,,,,,,,,,,2,001,2022-12-14_13h58.16.622,00_bat_bachelor,2022.2.4,59.89754251397818,
,,,,,,,,,,,,0,0,0,0,49,0,49,0,,,,,,,49,,,1,322.85657696961425,Y,l,go,l,1,0.5009759392123669,,,,,,,,,,,,,,,,,,2,001,2022-12-14_13h58.16.622,00_bat_bachelor,2022.2.4,59.89754251397818,
,,,,,,,,,,,,0,0,0,0,50,0,50,0,,,,,,,50,,,1,324.3910293332301,Y,None,nogo,None,1,,,,,,,,,,,,,,,,,,,2,001,2022-12-14_13h58.16.622,00_bat_bachelor,2022.2.4,59.89754251397818,
,,,,,,,,,,,,0,0,0,0,51,0,51,0,,,,,,,51,,,1,326.19220024254173,Y,None,nogo,None,1,,,,,,,,,,,,,,,,,,,2,001,2022-12-14_13h58.16.622,00_bat_bachelor,2022.2.4,59.89754251397818,
,,,,,,,,,,,,0,0,0,0,52,0,52,0,,,,,,,52,,,1,327.99357624235563,X,d,go,d,1,0.5963126665446907,,,,,,,,,,,,,,,,,,2,001,2022-12-14_13h58.16.622,00_bat_bachelor,2022.2.4,59.89754251397818,
,,,,,,,,,,,,0,0,0,0,53,0,53,0,,,,,,,53,,,1,329.6118913940154,Y,l,go,l,1,0.6251441817730665,,,,,,,,,,,,,,,,,,2,001,2022-12-14_13h58.16.622,00_bat_bachelor,2022.2.4,59.89754251397818,
,,,,,,,,,,,,0,0,0,0,54,0,54,0,,,,,,,54,,,1,331.26293236366473,Y,None,nogo,None,1,,,,,,,,,,,,,,,,,,,2,001,2022-12-14_13h58.16.622,00_bat_bachelor,2022.2.4,59.89754251397818,
,,,,,,,,,,,,0,0,0,0,55,0,55,0,,,,,,,55,,,1,333.0643684847746,X,d,go,d,1,0.6133221213240176,,,,,,,,,,,,,,,,,,2,001,2022-12-14_13h58.16.622,00_bat_bachelor,2022.2.4,59.89754251397818,
,,,,,,,,,,,,0,0,0,0,56,0,56,0,,,,,,,56,,,1,334.69900703034364,Y,l,go,l,1,0.5155262423213571,,,,,,,,,,,,,,,,,,2,001,2022-12-14_13h58.16.622,00_bat_bachelor,2022.2.4,59.89754251397818,
,,,,,,,,,,,,0,0,0,0,57,0,57,0,,,,,,,57,,,1,336.23323830310255,X,d,go,d,1,0.5959984848741442,,,,,,,,,,,,,,,,,,2,001,2022-12-14_13h58.16.622,00_bat_bachelor,2022.2.4,59.89754251397818,
,,,,,,,,,,,,0,0,0,0,58,0,58,0,,,,,,,58,,,1,337.8514880000148,X,None,nogo,None,1,,338.65217745443806,,,,,,,,,,,,,,,,,2,001,2022-12-14_13h58.16.622,00_bat_bachelor,2022.2.4,59.89754251397818,
,,,,,,,,,,,,0,0,0,0,59,0,59,0,,,,,,,59,,,1,339.6527427879628,Y,l,go,l,1,0.4888595757074654,,,,,,,,,,,,,,,,,,2,001,2022-12-14_13h58.16.622,00_bat_bachelor,2022.2.4,59.89754251397818,
,,,,,,,,,,,,0,0,0,0,60,0,60,0,,,,,,,60,,,1,341.1706453333609,X,d,go,d,1,0.6502467272803187,,,,,,,,,,,,,,,,,,2,001,2022-12-14_13h58.16.622,00_bat_bachelor,2022.2.4,59.89754251397818,
,,,,,,,,,,,,0,0,0,0,61,0,61,0,,,,,,,61,,,1,342.8382593940478,X,None,nogo,None,1,,,,,,,,,,,,,,,,,,,2,001,2022-12-14_13h58.16.622,00_bat_bachelor,2022.2.4,59.89754251397818,
,,,,,,,,,,,,0,0,0,0,62,0,62,0,,,,,,,62,,,1,344.639877818292,Y,l,go,l,1,0.6847844240255654,,,,,,,,,,,,,,,,,,2,001,2022-12-14_13h58.16.622,00_bat_bachelor,2022.2.4,59.89754251397818,
,,,,,,,,,,,,0,0,0,0,63,0,63,0,,,,,,,63,,,1,346.35764266666956,X,d,go,d,1,0.5510249088983983,,,,,,,,,,,,,,,,,,2,001,2022-12-14_13h58.16.622,00_bat_bachelor,2022.2.4,59.89754251397818,
,,,,,,,,,,,,0,0,0,0,64,0,64,0,,,,,,,64,,,1,347.94233648478985,Y,l,go,l,1,0.42231266642920673,,,,,,,,,,,,,,,,,,2,001,2022-12-14_13h58.16.622,00_bat_bachelor,2022.2.4,59.89754251397818,
,,,,,,,,,,,,0,0,0,0,65,0,65,0,,,,,,,65,,,1,349.3935495757032,X,d,go,d,1,0.636244302848354,,,,,,,,,,,,,,,,,,2,001,2022-12-14_13h58.16.622,00_bat_bachelor,2022.2.4,59.89754251397818,
,,,,,,,,,,,,0,0,0,0,66,0,66,0,,,,,,,66,,,1,351.06118448474444,X,None,nogo,None,1,,,,,,,,,,,,,,,,,,,2,001,2022-12-14_13h58.16.622,00_bat_bachelor,2022.2.4,59.89754251397818,
,,,,,,,,,,,,0,0,0,0,67,0,67,0,,,,,,,67,,,1,352.8631161211524,X,None,nogo,None,1,,353.6635553939268,,,,,,,,,,,,,,,,,2,001,2022-12-14_13h58.16.622,00_bat_bachelor,2022.2.4,59.89754251397818,
,,,,,,,,,,,,0,0,0,0,68,0,68,0,,,,,,,68,,,1,354.66431854548864,Y,l,go,l,1,0.5652023635338992,,,,,,,,,,,,,,,,,,2,001,2022-12-14_13h58.16.622,00_bat_bachelor,2022.2.4,59.89754251397818,
,,,,,,,,,,,,0,0,0,0,69,0,69,0,,,,,,,69,,,1,356.2489696969278,X,d,go,d,1,0.5317259998992085,,,,,,,,,,,,,,,,,,2,001,2022-12-14_13h58.16.622,00_bat_bachelor,2022.2.4,59.89754251397818,
,,,,,,,,,,,,0,0,0,0,70,0,70,0,,,,,,,70,,,1,357.8001173334196,Y,l,go,l,1,0.4683587271720171,,,,,,,,,,,,,,,,,,2,001,2022-12-14_13h58.16.622,00_bat_bachelor,2022.2.4,59.89754251397818,
,,,,,,,,,,,,0,0,0,0,71,0,71,0,,,,,,,71,,,1,359.300801939331,Y,None,nogo,None,1,,,,,,,,,,,,,,,,,,,2,001,2022-12-14_13h58.16.622,00_bat_bachelor,2022.2.4,59.89754251397818,
,,,,,,,,,,,,0,0,0,0,72,0,72,0,,,,,,,72,,,1,361.10255660605617,X,d,go,d,1,0.5749924241099507,,,,,,,,,,,,,,,,,,2,001,2022-12-14_13h58.16.622,00_bat_bachelor,2022.2.4,59.89754251397818,
,,,,,,,,,,,,0,0,0,0,73,0,73,0,,,,,,,73,,,1,362.70340218185447,Y,l,go,l,1,0.5421793332789093,,,,,,,,,,,,,,,,,,2,001,2022-12-14_13h58.16.622,00_bat_bachelor,2022.2.4,59.89754251397818,
,,,,,,,,,,,,0,0,0,0,74,0,74,0,,,,,,,74,,,1,364.271546181757,X,d,go,d,1,0.5739509696140885,,,,,,,,,,,,,,,,,,2,001,2022-12-14_13h58.16.622,00_bat_bachelor,2022.2.4,59.89754251397818,
,,,,,,,,,,,,0,0,0,0,75,0,75,0,,,,,,,75,,,1,365.8726724849548,X,None,nogo,None,1,,,,,,,,,,,,,,,,,,,2,001,2022-12-14_13h58.16.622,00_bat_bachelor,2022.2.4,59.89754251397818,
,,,,,,,,,,,,0,0,0,0,76,0,76,0,,,,,,,76,,,1,367.6741435150616,Y,l,go,l,1,0.6272406664211303,,,,,,,,,,,,,,,,,,2,001,2022-12-14_13h58.16.622,00_bat_bachelor,2022.2.4,59.89754251397818,
,,,,,,,,,,,,0,0,0,0,77,0,77,0,,,,,,,77,,,1,369.3253163637128,X,d,go,d,1,0.6561754543799907,,,,,,,,,,,,,,,,,,2,001,2022-12-14_13h58.16.622,00_bat_bachelor,2022.2.4,59.89754251397818,
,,,,,,,,,,,,0,0,0,0,78,0,78,0,,,,,,,78,,,1,371.0100227878429,X,None,nogo,None,1,,,,,,,,,,,,,,,,,,,2,001,2022-12-14_13h58.16.622,00_bat_bachelor,2022.2.4,59.89754251397818,
,,,,,,,,,,,,0,0,0,0,79,0,79,0,,,,,,,79,,,1,372.81146860611625,Y,l,go,l,1,0.46558636357076466,,,,,,,,,,,,,,,,,,2,001,2022-12-14_13h58.16.622,00_bat_bachelor,2022.2.4,59.89754251397818,
,,,,,,,,,,,,0,0,0,0,80,0,80,0,,,,,,,80,,,1,374.2957735757809,X,d,go,d,1,0.46944769681431353,,,,,,,,,,,,,,,,,,2,001,2022-12-14_13h58.16.622,00_bat_bachelor,2022.2.4,59.89754251397818,
,,,,,,,,,,,,0,0,0,0,81,0,81,0,,,,,,,81,,,1,375.7968116363045,Y,l,go,l,1,0.4716203031130135,,,,,,,,,,,,,,,,,,2,001,2022-12-14_13h58.16.622,00_bat_bachelor,2022.2.4,59.89754251397818,
,,,,,,,,,,,,0,0,0,0,82,0,82,0,,,,,,,82,,,1,377.29804509086534,X,d,go,d,1,0.6512343636713922,,,,,,,,,,,,,,,,,,2,001,2022-12-14_13h58.16.622,00_bat_bachelor,2022.2.4,59.89754251397818,
,,,,,,,,,,,,0,0,0,0,83,0,83,0,,,,,,,83,,,1,378.9827670303639,Y,l,go,l,1,0.5502098787110299,,,,,,,,,,,,,,,,,,2,001,2022-12-14_13h58.16.622,00_bat_bachelor,2022.2.4,59.89754251397818,
,,,,,,,,,,,,0,0,0,0,84,0,84,0,,,,,,,84,,,1,380.5503781817388,Y,None,nogo,None,1,,381.35122909094207,,,,,,,,,,,,,,,,,2,001,2022-12-14_13h58.16.622,00_bat_bachelor,2022.2.4,59.89754251397818,
,,,,,,,,,,,,0,0,0,0,85,0,85,0,,,,,,,85,,,1,382.3517153938301,X,d,go,d,1,0.6847853937651962,,,,,,,,,,,,,,,,,,2,001,2022-12-14_13h58.16.622,00_bat_bachelor,2022.2.4,59.89754251397818,
,,,,,,,,,,,,0,0,0,0,86,0,86,0,,,,,,,86,,,1,384.0699927273672,Y,l,go,l,1,0.45453763636760414,,,,,,,,,,,,,,,,,,2,001,2022-12-14_13h58.16.622,00_bat_bachelor,2022.2.4,59.89754251397818,
,,,,,,,,,,,,0,0,0,0,87,0,87,0,,,,,,,87,,,1,385.55419733328745,X,d,go,d,1,0.5552159394137561,,,,,,,,,,,,,,,,,,2,001,2022-12-14_13h58.16.622,00_bat_bachelor,2022.2.4,59.89754251397818,
,,,,,,,,,,,,0,0,0,0,88,0,88,0,,,,,,,88,,,1,387.13899151515216,Y,l,go,l,1,0.4104755758307874,,,,,,,,,,,,,,,,,,2,001,2022-12-14_13h58.16.622,00_bat_bachelor,2022.2.4,59.89754251397818,
,,,,,,,,,,,,0,0,0,0,89,0,89,0,,,,,,,89,,,1,388.57313406071626,X,d,go,d,1,0.4644377576187253,,,,,,,,,,,,,,,,,,2,001,2022-12-14_13h58.16.622,00_bat_bachelor,2022.2.4,59.89754251397818,
,,,,,,,,,,,,0,0,0,0,90,0,90,0,,,,,,,90,,,1,390.0578763636295,Y,l,go,l,1,0.418871212285012,,,,,,,,,,,,,,,,,,2,001,2022-12-14_13h58.16.622,00_bat_bachelor,2022.2.4,59.89754251397818,
,,,,,,,,,,,,0,0,0,0,91,0,91,0,,,,,,,91,,,1,391.5087723636534,Y,None,nogo,None,1,,,,,,,,,,,,,,,,,,,2,001,2022-12-14_13h58.16.622,00_bat_bachelor,2022.2.4,59.89754251397818,
,,,,,,,,,,,,0,0,0,0,92,0,92,0,,,,,,,92,,,1,393.3103384242859,X,d,go,d,1,0.6226443031337112,,,,,,,,,,,,,,,,,,2,001,2022-12-14_13h58.16.622,00_bat_bachelor,2022.2.4,59.89754251397818,
,,,,,,,,,,,,0,0,0,0,93,0,93,0,,,,,,,93,,,1,394.96165333339013,Y,l,go,l,1,0.39665739401243627,,,,,,,,,,,,,,,,,,2,001,2022-12-14_13h58.16.622,00_bat_bachelor,2022.2.4,59.89754251397818,
,,,,,,,,,,,,0,0,0,0,94,0,94,0,,,,,,,94,,,1,396.37934157578275,Y,None,nogo,None,1,,397.1798962424509,,,,,,,,,,,,,,,,,2,001,2022-12-14_13h58.16.622,00_bat_bachelor,2022.2.4,59.89754251397818,
,,,,,,,,,,,,0,0,0,0,95,0,95,0,,,,,,,95,,,1,398.180899878731,X,d,go,d,1,0.6324634545017034,,,,,,,,,,,,,,,,,,2,001,2022-12-14_13h58.16.622,00_bat_bachelor,2022.2.4,59.89754251397818,
,,,,,,,,,,,,0,0,0,0,96,0,96,0,,,,,,,96,,,1,399.831996121211,Y,l,go,l,1,0.5012106059584767,,,,,,,,,,,,,,,,,,2,001,2022-12-14_13h58.16.622,00_bat_bachelor,2022.2.4,59.89754251397818,
,,,,,,,,,,,,0,0,0,0,97,0,97,0,,,,,,,97,,,1,401.3665042424109,Y,None,nogo,None,1,,,,,,,,,,,,,,,,,,,2,001,2022-12-14_13h58.16.622,00_bat_bachelor,2022.2.4,59.89754251397818,
,,,,,,,,,,,,0,0,0,0,98,0,98,0,,,,,,,98,,,1,403.1679985455703,X,d,go,d,1,0.6688086667563766,,,,,,,,,,,,,,,,,,2,001,2022-12-14_13h58.16.622,00_bat_bachelor,2022.2.4,59.89754251397818,
,,,,,,,,,,,,0,0,0,0,99,0,99,0,,,,,,,99,,,1,404.8690327273216,Y,l,go,l,1,0.4236270908731967,,,,,,,,,,,,,,,,,,2,001,2022-12-14_13h58.16.622,00_bat_bachelor,2022.2.4,59.89754251397818,
,,,,,,,,,,,,0,0,0,0,100,0,100,0,,,,,,,100,,,1,406.32043733331375,X,d,go,None,0,,,,,,,,,,,,,,,,,,,2,001,2022-12-14_13h58.16.622,00_bat_bachelor,2022.2.4,59.89754251397818,
,,,,,,,,,,,,0,0,0,0,101,0,101,0,,,,,,,101,,,1,408.12181236362085,Y,l,go,l,1,0.5631044241599739,,,,,,,,,,,,,,,,,,2,001,2022-12-14_13h58.16.622,00_bat_bachelor,2022.2.4,59.89754251397818,
,,,,,,,,,,,,0,0,0,0,102,0,102,0,,,,,,,102,,,1,409.7061454546638,Y,None,nogo,l,0,0.627767211990431,,,,,,,,,,,,,,,,,,2,001,2022-12-14_13h58.16.622,00_bat_bachelor,2022.2.4,59.89754251397818,
,,,,,,,,,,,,0,0,0,0,103,0,103,0,,,,,,,103,,,1,411.3572475151159,X,d,go,d,1,0.4642515757586807,,,,,,,,,,,,,,,,,,2,001,2022-12-14_13h58.16.622,00_bat_bachelor,2022.2.4,59.89754251397818,
,,,,,,,,,,,,0,0,0,0,104,0,104,0,,,,,,,104,,,1,412.84198351507075,Y,l,go,l,1,0.579323090845719,,,,,,,,,,,,,,,,,,2,001,2022-12-14_13h58.16.622,00_bat_bachelor,2022.2.4,59.89754251397818,
,,,,,,,,,,,,0,0,0,0,105,0,105,0,,,,,,,105,,,1,414.4434913939331,Y,None,nogo,None,1,,415.2438637574669,,,,,,,,,,,,,,,,,2,001,2022-12-14_13h58.16.622,00_bat_bachelor,2022.2.4,59.89754251397818,
,,,,,,,,,,,,0,0,0,0,106,0,106,0,,,,,,,106,,,1,416.2445052121766,X,d,go,d,1,0.5047664847224951,,,,,,,,,,,,,,,,,,2,001,2022-12-14_13h58.16.622,00_bat_bachelor,2022.2.4,59.89754251397818,
,,,,,,,,,,,,0,0,0,0,107,0,107,0,,,,,,,107,,,1,417.7790443636477,Y,l,go,l,1,0.4112348484341055,,,,,,,,,,,,,,,,,,2,001,2022-12-14_13h58.16.622,00_bat_bachelor,2022.2.4,59.89754251397818,
,,,,,,,,,,,,0,0,0,0,108,0,108,0,,,,,,,108,,,1,419.21331636374816,X,d,go,d,1,0.6391538789030164,,,,,,,,,,,,,,,,,,2,001,2022-12-14_13h58.16.622,00_bat_bachelor,2022.2.4,59.89754251397818,
,,,,,,,,,,,,0,0,0,0,109,0,109,0,,,,,,,109,,,1,420.88132363627665,X,None,nogo,None,1,,,,,,,,,,,,,,,,,,,2,001,2022-12-14_13h58.16.622,00_bat_bachelor,2022.2.4,59.89754251397818,
,,,,,,,,,,,,0,0,0,0,110,0,110,0,,,,,,,110,,,1,422.6826424242463,Y,l,go,l,1,0.4669221213553101,,,,,,,,,,,,,,,,,,2,001,2022-12-14_13h58.16.622,00_bat_bachelor,2022.2.4,59.89754251397818,
,,,,,,,,,,,,0,0,0,0,111,0,111,0,,,,,,,111,,,1,424.1669289697893,X,d,go,d,1,0.5015490304213017,,,,,,,,,,,,,,,,,,2,001,2022-12-14_13h58.16.622,00_bat_bachelor,2022.2.4,59.89754251397818,
,,,,,,,,,,,,0,0,0,0,112,0,112,0,,,,,,,112,,,1,425.70142303034663,X,None,nogo,None,1,,,,,,,,,,,,,,,,,,,2,001,2022-12-14_13h58.16.622,00_bat_bachelor,2022.2.4,59.89754251397818,
,,,,,,,,,,,,0,0,0,0,113,0,113,0,,,,,,,113,,,1,427.50312242424116,Y,l,go,l,1,0.5590268482919782,,,,,,,,,,,,,,,,,,2,001,2022-12-14_13h58.16.622,00_bat_bachelor,2022.2.4,59.89754251397818,
,,,,,,,,,,,,0,0,0,0,114,0,114,0,,,,,,,114,,,1,429.0873183030635,X,d,go,d,1,0.4147436968050897,,,,,,,,,,,,,,,,,,2,001,2022-12-14_13h58.16.622,00_bat_bachelor,2022.2.4,59.89754251397818,
,,,,,,,,,,,,0,0,0,0,115,0,115,0,,,,,,,115,,,1,430.52202084846795,X,None,nogo,None,1,,431.3225105453748,,,,,,,,,,,,,,,,,2,001,2022-12-14_13h58.16.622,00_bat_bachelor,2022.2.4,59.89754251397818,
,,,,,,,,,,,,0,0,0,0,116,0,116,0,,,,,,,116,,,1,432.32341430312954,Y,l,go,l,1,0.5539868485648185,,,,,,,,,,,,,,,,,,2,001,2022-12-14_13h58.16.622,00_bat_bachelor,2022.2.4,59.89754251397818,
,,,,,,,,,,,,0,0,0,0,117,0,117,0,,,,,,,117,,,1,433.90767903020605,X,d,go,d,1,0.5693696364760399,,,,,,,,,,,,,,,,,,2,001,2022-12-14_13h58.16.622,00_bat_bachelor,2022.2.4,59.89754251397818,
,,,,,,,,,,,,0,0,0,0,118,0,118,0,,,,,,,118,,,1,435.5091505453456,Y,l,go,l,1,0.5194612727500498,,,,,,,,,,,,,,,,,,2,001,2022-12-14_13h58.16.622,00_bat_bachelor,2022.2.4,59.89754251397818,
,,,,,,,,,,,,0,0,0,0,119,0,119,0,,,,,,,119,,,1,437.0604208484292,X,d,go,d,1,0.4579058785457164,,,,,,,,,,,,,,,,,,2,001,2022-12-14_13h58.16.622,00_bat_bachelor,2022.2.4,59.89754251397818,
,,,,,,,,,,,,0,0,0,0,120,0,120,0,,,,,,,120,,,1,438.54477042425424,Y,l,go,l,1,0.39691824233159423,,,,,,,,,,,,,,,,,,2,001,2022-12-14_13h58.16.622,00_bat_bachelor,2022.2.4,59.89754251397818,
,,,,,,,,,,,,0,0,0,0,121,0,121,0,,,,,,,121,,,1,439.9629648483824,Y,None,nogo,None,1,,440.7633309091907,,,,,,,,,,,,,,,,,2,001,2022-12-14_13h58.16.622,00_bat_bachelor,2022.2.4,59.89754251397818,
,,,,,,,,,,,,0,0,0,0,122,0,122,0,,,,,,,122,,,1,441.764081454603,X,d,go,d,1,0.5210326665546745,,,,,,,,,,,,,,,,,,2,001,2022-12-14_13h58.16.622,00_bat_bachelor,2022.2.4,59.89754251397818,
,,,,,,,,,,,,0,0,0,0,123,0,123,0,,,,,,,123,,,1,443.3154526059516,Y,l,go,l,1,0.37786030303686857,,,,,,,,,,,,,,,,,,2,001,2022-12-14_13h58.16.622,00_bat_bachelor,2022.2.4,59.89754251397818,
,,,,,,,,,,,,0,0,0,0,124,0,124,0,,,,,,,124,,,1,444.7161420607008,X,d,go,d,1,0.561358000151813,,,,,,,,,,,,,,,,,,2,001,2022-12-14_13h58.16.622,00_bat_bachelor,2022.2.4,59.89754251397818,
,,,,,,,,,,,,0,0,0,0,125,0,125,0,,,,,,,125,,,1,446.3004756362643,X,None,nogo,None,1,,,,,,,,,,,,,,,,,,,2,001,2022-12-14_13h58.16.622,00_bat_bachelor,2022.2.4,59.89754251397818,
,,,,,,,,,,,,0,0,0,0,126,0,126,0,,,,,,,126,,,1,448.1020959999878,X,None,nogo,None,1,,,,,,,,,,,,,,,,,,,2,001,2022-12-14_13h58.16.622,00_bat_bachelor,2022.2.4,59.89754251397818,
,,,,,,,,,,,,0,0,0,0,127,0,127,0,,,,,,,127,,,1,449.9035820607096,Y,l,go,l,1,0.4296445455402136,,,,,,,,,,,,,,,,,,2,001,2022-12-14_13h58.16.622,00_bat_bachelor,2022.2.4,59.89754251397818,
,,,,,,,,,,,,0,0,0,0,128,0,128,0,,,,,,,128,,,1,451.3545386667829,X,d,go,d,1,0.5947616363409907,,,,,,,,,,,,,,,,,,2,001,2022-12-14_13h58.16.622,00_bat_bachelor,2022.2.4,59.89754251397818,
,,,,,,,,,,,,0,0,0,0,129,0,129,0,,,,,,,129,,,1,452.9723490909673,X,None,nogo,l,0,0.38451727270148695,,,,,,,,,,,,,,,,,,2,001,2022-12-14_13h58.16.622,00_bat_bachelor,2022.2.4,59.89754251397818,
,,,,,,,,,,,,0,0,0,0,130,0,130,0,,,,,,,130,,,1,454.3899321211502,Y,l,go,None,0,,,,,,,,,,,,,,,,,,,2,001,2022-12-14_13h58.16.622,00_bat_bachelor,2022.2.4,59.89754251397818,
,,,,,,,,,,,,0,0,0,0,131,0,131,0,,,,,,,131,,,1,456.19159757578745,X,d,go,d,1,0.5412935151252896,,,,,,,,,,,,,,,,,,2,001,2022-12-14_13h58.16.622,00_bat_bachelor,2022.2.4,59.89754251397818,
,,,,,,,,,,,,0,0,0,0,132,0,132,0,,,,,,,132,,,1,457.7600349090062,Y,l,go,l,1,0.42886636359617114,,,,,,,,,,,,,,,,,,2,001,2022-12-14_13h58.16.622,00_bat_bachelor,2022.2.4,59.89754251397818,
,,,,,,,,,,,,0,0,0,0,133,0,133,0,,,,,,,133,,,1,459.21111272717826,Y,None,nogo,None,1,,460.01197139383294,,,,,,,,,,,,,,,,,2,001,2022-12-14_13h58.16.622,00_bat_bachelor,2022.2.4,59.89754251397818,
,,,,,,,,,,,,0,0,0,0,134,0,134,0,,,,,,,134,,,1,461.0126579394564,X,d,go,d,1,0.536557030165568,,,,,,,,,,,,,,,,,,2,001,2022-12-14_13h58.16.622,00_bat_bachelor,2022.2.4,59.89754251397818,
,,,,,,,,,,,,0,0,0,0,135,0,135,0,,,,,,,135,,,1,462.5805197574664,Y,l,go,l,1,0.5208998180460185,,,,,,,,,,,,,,,,,,2,001,2022-12-14_13h58.16.622,00_bat_bachelor,2022.2.4,59.89754251397818,
,,,,,,,,,,,,0,0,0,0,136,0,136,0,,,,,,,136,,,1,464.13173187873326,X,d,go,None,0,,464.9319587878417,,,,,,,,,,,,,,,,,2,001,2022-12-14_13h58.16.622,00_bat_bachelor,2022.2.4,59.89754251397818,
,,,,,,,,,,,,0,0,0,0,137,0,137,0,,,,,,,137,,,1,465.9327267878689,Y,l,go,l,1,0.5605618788395077,,,,,,,,,,,,,,,,,,2,001,2022-12-14_13h58.16.622,00_bat_bachelor,2022.2.4,59.89754251397818,
,,,,,,,,,,,,0,0,0,0,138,0,138,0,,,,,,,138,,,1,467.5172736970708,Y,None,nogo,None,1,,468.3177469091024,,,,,,,,,,,,,,,,,2,001,2022-12-14_13h58.16.622,00_bat_bachelor,2022.2.4,59.89754251397818,
,,,,,,,,,,,,0,0,0,0,139,0,139,0,,,,,,,139,,,1,469.3187117576599,X,d,go,d,1,0.42267872719094157,,,,,,,,,,,,,,,,,,2,001,2022-12-14_13h58.16.622,00_bat_bachelor,2022.2.4,59.89754251397818,
,,,,,,,,,,,,0,0,0,0,140,0,140,0,,,,,,,140,,,1,470.7697415756993,Y,l,go,l,1,0.4431412727572024,,,,,,,,,,,,,,,,,,2,001,2022-12-14_13h58.16.622,00_bat_bachelor,2022.2.4,59.89754251397818,
,,,,,,,,,,,,0,0,0,0,141,0,141,0,,,,,,,141,,,1,472.23766399989836,X,d,go,d,1,0.43160866666585207,,,,,,,,,,,,,,,,,,2,001,2022-12-14_13h58.16.622,00_bat_bachelor,2022.2.4,59.89754251397818,
,,,,,,,,,,,,0,0,0,0,142,0,142,0,,,,,,,142,,,1,473.68874715152197,X,None,nogo,None,1,,,,,,,,,,,,,,,,,,,2,001,2022-12-14_13h58.16.622,00_bat_bachelor,2022.2.4,59.89754251397818,
,,,,,,,,,,,,0,0,0,0,143,0,143,0,,,,,,,143,,,1,475.48998351511545,Y,l,go,l,1,0.506924060638994,,,,,,,,,,,,,,,,,,2,001,2022-12-14_13h58.16.622,00_bat_bachelor,2022.2.4,59.89754251397818,
,,,,,,,,,,,,0,0,0,0,144,0,144,0,,,,,,,144,,,1,477.02441018191166,X,d,go,d,1,0.6843970303889364,,,,,,,,,,,,,,,,,,2,001,2022-12-14_13h58.16.622,00_bat_bachelor,2022.2.4,59.89754251397818,
,,,,,,,,,,,,0,0,0,0,145,0,145,0,,,,,,,145,,,1,478.72584727266803,Y,l,go,l,1,0.42343218182213604,,,,,,,,,,,,,,,,,,2,001,2022-12-14_13h58.16.622,00_bat_bachelor,2022.2.4,59.89754251397818,
,,,,,,,,,,,,0,0,0,0,146,0,146,0,,,,,,,146,,,1,480.1769469091669,X,d,go,d,1,0.46071169688366354,,,,,,,,,,,,,,,,,,2,001,2022-12-14_13h58.16.622,00_bat_bachelor,2022.2.4,59.89754251397818,
,,,,,,,,,,,,0,0,0,0,147,0,147,0,,,,,,,147,,,1,481.6614351514727,Y,l,go,l,1,0.4161250302568078,,,,,,,,,,,,,,,,,,2,001,2022-12-14_13h58.16.622,00_bat_bachelor,2022.2.4,59.89754251397818,
,,,,,,,,,,,,0,0,0,0,148,0,148,0,,,,,,,148,,,1,483.0957924849354,X,d,go,d,1,0.38944575749337673,,,,,,,,,,,,,,,,,,2,001,2022-12-14_13h58.16.622,00_bat_bachelor,2022.2.4,59.89754251397818,
,,,,,,,,,,,,0,0,0,0,149,0,149,0,,,,,,,149,,,1,484.5135098181199,X,None,nogo,None,1,,485.3140935758129,,,,,,,,,,,,,,,,,2,001,2022-12-14_13h58.16.622,00_bat_bachelor,2022.2.4,59.89754251397818,
,,,,,,,,,,,,0,0,0,0,150,0,150,0,,,,,,,150,,,1,486.31486157584004,Y,l,go,l,1,0.41774539393372834,,,,,,,,,,,,,,,,,,2,001,2022-12-14_13h58.16.622,00_bat_bachelor,2022.2.4,59.89754251397818,
,,,,,,,,,,,,0,0,0,0,151,0,151,0,,,,,,,151,,,1,487.7657789092045,X,d,go,d,1,0.3750583636574447,,,,,,,,,,,,,,,,,,2,001,2022-12-14_13h58.16.622,00_bat_bachelor,2022.2.4,59.89754251397818,
,,,,,,,,,,,,0,0,0,0,152,0,152,0,,,,,,,152,,,1,489.1670443636831,Y,l,go,l,1,0.3337284242734313,,,,,,,,,,,,,,,,,,2,001,2022-12-14_13h58.16.622,00_bat_bachelor,2022.2.4,59.89754251397818,
,,,,,,,,,,,,0,0,0,0,153,0,153,0,,,,,,,153,,,1,490.5181323636789,X,d,go,d,1,0.3274089090991765,,,,,,,,,,,,,,,,,,2,001,2022-12-14_13h58.16.622,00_bat_bachelor,2022.2.4,59.89754251397818,
,,,,,,,,,,,,0,0,0,0,154,0,154,0,,,,,,,154,,,1,491.8691626666114,Y,l,go,l,1,0.7036881819367409,,,,,,,,,,,,,,,,,,2,001,2022-12-14_13h58.16.622,00_bat_bachelor,2022.2.4,59.89754251397818,
,,,,,,,,,,,,0,0,0,0,155,0,155,0,,,,,,,155,,,1,493.60364509094507,X,d,go,d,1,0.5532464848365635,,,,,,,,,,,,,,,,,,2,001,2022-12-14_13h58.16.622,00_bat_bachelor,2022.2.4,59.89754251397818,
,,,,,,,,,,,,0,0,0,0,156,0,156,0,,,,,,,156,,,1,495.1885789090302,Y,l,go,l,1,0.3769958179909736,,,,,,,,,,,,,,,,,,2,001,2022-12-14_13h58.16.622,00_bat_bachelor,2022.2.4,59.89754251397818,
,,,,,,,,,,,,0,0,0,0,157,0,157,0,,,,,,,157,,,1,496.58951660618186,X,d,go,d,1,0.5596566668245941,,,,,,,,,,,,,,,,,,2,001,2022-12-14_13h58.16.622,00_bat_bachelor,2022.2.4,59.89754251397818,
,,,,,,,,,,,,0,0,0,0,158,0,158,0,,,,,,,158,,,1,498.17419151519425,X,None,nogo,None,1,,498.974968242459,,,,,,,,,,,,,,,,,2,001,2022-12-14_13h58.16.622,00_bat_bachelor,2022.2.4,59.89754251397818,
,,,,,,,,,,,,0,0,0,0,159,0,159,0,,,,,,,159,,,1,499.9756431514397,Y,l,go,l,1,0.518471211893484,,,,,,,,,,,,,,,,,,2,001,2022-12-14_13h58.16.622,00_bat_bachelor,2022.2.4,59.89754251397818,
,,,,,,,,,,,,0,0,0,0,160,0,160,0,,,,,,,160,,,1,501.52680436358787,X,d,go,d,1,0.4384571516420692,,,,,,,,,,,,,,,,,,2,001,2022-12-14_13h58.16.622,00_bat_bachelor,2022.2.4,59.89754251397818,
,,,,,,,,,,,,0,0,0,0,161,0,161,0,,,,,,,161,,,1,502.9942821818404,Y,l,go,l,1,0.3629235755652189,,,,,,,,,,,,,,,,,,2,001,2022-12-14_13h58.16.622,00_bat_bachelor,2022.2.4,59.89754251397818,
,,,,,,,,,,,,0,0,0,0,162,0,162,0,,,,,,,162,,,1,504.3784591516014,X,d,go,d,1,0.32284454558975995,,,,,,,,,,,,,,,,,,2,001,2022-12-14_13h58.16.622,00_bat_bachelor,2022.2.4,59.89754251397818,
,,,,,,,,,,,,0,0,0,0,163,0,163,0,,,,,,,163,,,1,505.7292955152225,X,None,nogo,None,1,,506.5299369697459,,,,,,,,,,,,,,,,,2,001,2022-12-14_13h58.16.622,00_bat_bachelor,2022.2.4,59.89754251397818,
,,,,,,,,,,,,0,0,0,0,164,0,164,0,,,,,,,164,,,1,507.5306104242336,Y,l,go,l,1,0.5795063634868711,,,,,,,,,,,,,,,,,,2,001,2022-12-14_13h58.16.622,00_bat_bachelor,2022.2.4,59.89754251397818,
,,,,,,,,,,,,0,0,0,0,165,0,165,0,,,,,,,165,,,1,509.13198400009423,X,d,go,d,1,0.36848236341029406,,,,,,,,,,,,,,,,,,2,001,2022-12-14_13h58.16.622,00_bat_bachelor,2022.2.4,59.89754251397818,
,,,,,,,,,,,,0,0,0,0,166,0,166,0,,,,,,,166,,,1,510.5329643636942,Y,l,go,l,1,0.48826418188400567,,,,,,,,,,,,,,,,,,2,001,2022-12-14_13h58.16.622,00_bat_bachelor,2022.2.4,59.89754251397818,
,,,,,,,,,,,,0,0,0,0,167,0,167,0,,,,,,,167,,,1,512.0507650908548,X,d,go,d,1,0.36273787869140506,,,,,,,,,,,,,,,,,,2,001,2022-12-14_13h58.16.622,00_bat_bachelor,2022.2.4,59.89754251397818,
,,,,,,,,,,,,0,0,0,0,168,0,168,0,,,,,,,168,,,1,513.4352436363697,Y,l,go,l,1,0.38605424226261675,,,,,,,,,,,,,,,,,,2,001,2022-12-14_13h58.16.622,00_bat_bachelor,2022.2.4,59.89754251397818,
,,,,,,,,,,,,0,0,0,0,169,0,169,0,,,,,,,169,,,1,514.8531209696084,X,d,go,d,1,0.42415315145626664,,,,,,,,,,,,,,,,,,2,001,2022-12-14_13h58.16.622,00_bat_bachelor,2022.2.4,59.89754251397818,
,,,,,,,,,,,,0,0,0,0,170,0,170,0,,,,,,,170,,,1,516.3037963635288,Y,l,go,l,1,0.4941148485522717,,,,,,,,,,,,,,,,,,2,001,2022-12-14_13h58.16.622,00_bat_bachelor,2022.2.4,59.89754251397818,
,,,,,,,,,,,,0,0,0,0,171,0,171,0,,,,,,,171,,,1,517.8218816970475,X,d,go,d,1,0.4641226059757173,,,,,,,,,,,,,,,,,,2,001,2022-12-14_13h58.16.622,00_bat_bachelor,2022.2.4,59.89754251397818,
,,,,,,,,,,,,0,0,0,0,172,0,172,0,,,,,,,172,,,1,519.3061333333608,Y,l,go,l,1,0.6428586060646921,,,,,,,,,,,,,,,,,,2,001,2022-12-14_13h58.16.622,00_bat_bachelor,2022.2.4,59.89754251397818,
,,,,,,,,,,,,0,0,0,0,173,0,173,0,,,,,,,173,,,1,520.9743772121146,Y,None,nogo,d,0,0.447053030366078,,,,,,,,,,,,,,,,,,2,001,2022-12-14_13h58.16.622,00_bat_bachelor,2022.2.4,59.89754251397818,
,,,,,,,,,,,,0,0,0,0,174,0,174,0,,,,,,,174,,,1,522.4421047272626,X,d,go,None,0,,523.242674424313,,,,,,,,,,,,,,,,,2,001,2022-12-14_13h58.16.622,00_bat_bachelor,2022.2.4,59.89754251397818,
,,,,,,,,,,,,0,0,0,0,175,0,175,0,,,,,,,175,,,1,524.2435301819351,Y,l,go,l,1,0.6979567878879607,,,,,,,,,,,,,,,,,,2,001,2022-12-14_13h58.16.622,00_bat_bachelor,2022.2.4,59.89754251397818,
,,,,,,,,,,,,0,0,0,0,176,0,176,0,,,,,,,176,,,1,525.9615306665655,X,d,go,d,1,0.41969351517036557,,,,,,,,,,,,,,,,,,2,001,2022-12-14_13h58.16.622,00_bat_bachelor,2022.2.4,59.89754251397818,
,,,,,,,,,,,,0,0,0,0,177,0,177,0,,,,,,,177,,,1,527.4125755152199,Y,l,go,l,1,0.488828060682863,,,,,,,,,,,,,,,,,,2,001,2022-12-14_13h58.16.622,00_bat_bachelor,2022.2.4,59.89754251397818,
,,,,,,,,,,,,0,0,0,0,178,0,178,0,,,,,,,178,,,1,528.9303364849184,Y,None,nogo,None,1,,,,,,,,,,,,,,,,,,,2,001,2022-12-14_13h58.16.622,00_bat_bachelor,2022.2.4,59.89754251397818,
,,,,,,,,,,,,0,0,0,0,179,0,179,0,,,,,,,179,,,1,530.7320664243307,X,d,go,d,1,0.4652038181666285,,,,,,,,,,,,,,,,,,2,001,2022-12-14_13h58.16.622,00_bat_bachelor,2022.2.4,59.89754251397818,
,,,,,,,,,,,,0,0,0,0,180,0,180,0,,,,,,,180,,,1,532.2164669090416,Y,l,go,l,1,0.5653153331950307,,,,,,,,,,,,,,,,,,2,001,2022-12-14_13h58.16.622,00_bat_bachelor,2022.2.4,59.89754251397818,
,,,,,,,,,,,,0,0,0,0,181,0,181,0,,,,,,,181,,,1,533.8004960000981,Y,None,nogo,None,1,,,,,,,,,,,,,,,,,,,2,001,2022-12-14_13h58.16.622,00_bat_bachelor,2022.2.4,59.89754251397818,
,,,,,,,,,,,,0,0,0,0,182,0,182,0,,,,,,,182,,,1,535.6021658182144,X,d,go,d,1,0.4270855151116848,,,,,,,,,,,,,,,,,,2,001,2022-12-14_13h58.16.622,00_bat_bachelor,2022.2.4,59.89754251397818,
,,,,,,,,,,,,0,0,0,0,183,0,183,0,,,,,,,183,,,1,537.0531471516006,Y,l,go,l,1,0.704304909100756,,,,,,,,,,,,,,,,,,2,001,2022-12-14_13h58.16.622,00_bat_bachelor,2022.2.4,59.89754251397818,
,,,,,,,,,,,,0,0,0,0,184,0,184,0,,,,,,,184,,,1,538.7878962424584,X,d,go,d,1,0.44156115129590034,,,,,,,,,,,,,,,,,,2,001,2022-12-14_13h58.16.622,00_bat_bachelor,2022.2.4,59.89754251397818,
,,,,,,,,,,,,0,0,0,0,185,0,185,0,,,,,,,185,,,1,540.2556557576172,Y,l,go,l,1,0.3821352121885866,,,,,,,,,,,,,,,,,,2,001,2022-12-14_13h58.16.622,00_bat_bachelor,2022.2.4,59.89754251397818,
,,,,,,,,,,,,0,0,0,0,186,0,186,0,,,,,,,186,,,1,541.6566118788905,X,d,go,d,1,0.4208872120361775,,,,,,,,,,,,,,,,,,2,001,2022-12-14_13h58.16.622,00_bat_bachelor,2022.2.4,59.89754251397818,
,,,,,,,,,,,,0,0,0,0,187,0,187,0,,,,,,,187,,,1,543.1078414544463,Y,l,go,l,1,0.6009386060759425,,,,,,,,,,,,,,,,,,2,001,2022-12-14_13h58.16.622,00_bat_bachelor,2022.2.4,59.89754251397818,
,,,,,,,,,,,,0,0,0,0,188,0,188,0,,,,,,,188,,,1,544.7425401213113,Y,None,nogo,None,1,,,,,,,,,,,,,,,,,,,2,001,2022-12-14_13h58.16.622,00_bat_bachelor,2022.2.4,59.89754251397818,
,,,,,,,,,,,,0,0,0,0,189,0,189,0,,,,,,,189,,,1,546.5438816968817,X,d,go,d,1,0.39765084837563336,,,,,,,,,,,,,,,,,,2,001,2022-12-14_13h58.16.622,00_bat_bachelor,2022.2.4,59.89754251397818,
,,,,,,,,,,,,0,0,0,0,190,0,190,0,,,,,,,190,,,1,547.9615680000279,Y,l,go,l,1,0.43502248474396765,,,,,,,,,,,,,,,,,,2,001,2022-12-14_13h58.16.622,00_bat_bachelor,2022.2.4,59.89754251397818,
,,,,,,,,,,,,0,0,0,0,191,0,191,0,,,,,,,191,,,1,549.4293343031313,X,d,go,d,1,0.4724692727904767,,,,,,,,,,,,,,,,,,2,001,2022-12-14_13h58.16.622,00_bat_bachelor,2022.2.4,59.89754251397818,
,,,,,,,,,,,,0,0,0,0,192,0,192,0,,,,,,,192,,,1,550.9302351514343,Y,l,go,l,1,0.41057787858881056,,,,,,,,,,,,,,,,,,2,001,2022-12-14_13h58.16.622,00_bat_bachelor,2022.2.4,59.89754251397818,
,,,,,,,,,,,,0,0,0,0,193,0,193,0,,,,,,,193,,,1,552.3651132120285,X,d,go,None,0,,553.1652402423788,,,,,,,,,,,,,,,,,2,001,2022-12-14_13h58.16.622,00_bat_bachelor,2022.2.4,59.89754251397818,
,,,,,,,,,,,,0,0,0,0,194,0,194,0,,,,,,,194,,,1,554.1662652122322,Y,l,go,None,0,,,,,,,,,,,,,,,,,,,2,001,2022-12-14_13h58.16.622,00_bat_bachelor,2022.2.4,59.89754251397818,
,,,,,,,,,,,,0,0,0,0,195,0,195,0,,,,,,,195,,,1,555.967664484866,X,d,go,d,1,0.5892610303126276,,,,,,,,,,,,,,,,,,2,001,2022-12-14_13h58.16.622,00_bat_bachelor,2022.2.4,59.89754251397818,
,,,,,,,,,,,,0,0,0,0,196,0,196,0,,,,,,,196,,,1,557.5852935756557,X,None,nogo,None,1,,,,,,,,,,,,,,,,,,,2,001,2022-12-14_13h58.16.622,00_bat_bachelor,2022.2.4,59.89754251397818,
,,,,,,,,,,,,0,0,0,0,197,0,197,0,,,,,,,197,,,1,559.3868111516349,Y,l,go,l,1,0.49902684846892953,,,,,,,,,,,,,,,,,,2,001,2022-12-14_13h58.16.622,00_bat_bachelor,2022.2.4,59.89754251397818,
,,,,,,,,,,,,0,0,0,0,198,0,198,0,,,,,,,198,,,1,560.9048591514584,X,d,go,d,1,0.5168319393415004,,,,,,,,,,,,,,,,,,2,001,2022-12-14_13h58.16.622,00_bat_bachelor,2022.2.4,59.89754251397818,
,,,,,,,,,,,,0,0,0,0,199,0,199,0,,,,,,,199,,,1,562.439085575752,Y,l,go,l,1,0.58256381819956,,,,,,,,,,,,,,,,,,2,001,2022-12-14_13h58.16.622,00_bat_bachelor,2022.2.4,59.89754251397818,
,,,,,,,,,,,,0,0,0,0,200,0,200,0,,,,,,,200,,,1,564.0403374545276,X,d,go,d,1,0.3091325454879552,,,,,,,,,,,,,,,,,,2,001,2022-12-14_13h58.16.622,00_bat_bachelor,2022.2.4,59.89754251397818,
,,,,,,,,,,,,0,0,0,0,201,0,201,0,,,,,,,201,,,1,565.3748484847602,Y,l,go,l,1,0.35100890905596316,,,,,,,,,,,,,,,,,,2,001,2022-12-14_13h58.16.622,00_bat_bachelor,2022.2.4,59.89754251397818,
,,,,,,,,,,,,0,0,0,0,202,0,202,0,,,,,,,202,,,1,566.7591616970021,X,d,go,d,1,0.42143315146677196,,,,,,,,,,,,,,,,,,2,001,2022-12-14_13h58.16.622,00_bat_bachelor,2022.2.4,59.89754251397818,
,,,,,,,,,,,,0,0,0,0,203,0,203,0,,,,,,,203,,,1,568.2102332122158,Y,l,go,l,1,0.4591441818047315,,,,,,,,,,,,,,,,,,2,001,2022-12-14_13h58.16.622,00_bat_bachelor,2022.2.4,59.89754251397818,
,,,,,,,,,,,,0,0,0,0,204,0,204,0,,,,,,,204,,,1,569.6948775758501,X,d,go,d,1,0.41522369673475623,,,,,,,,,,,,,,,,,,2,001,2022-12-14_13h58.16.622,00_bat_bachelor,2022.2.4,59.89754251397818,
,,,,,,,,,,,,0,0,0,0,205,0,205,0,,,,,,,205,,,1,571.1294084847905,Y,l,go,l,1,0.4675509696826339,,,,,,,,,,,,,,,,,,2,001,2022-12-14_13h58.16.622,00_bat_bachelor,2022.2.4,59.89754251397818,
,,,,,,,,,,,,0,0,0,0,206,0,206,0,,,,,,,206,,,1,572.6134826666676,Y,None,nogo,None,1,,,,,,,,,,,,,,,,,,,2,001,2022-12-14_13h58.16.622,00_bat_bachelor,2022.2.4,59.89754251397818,
,,,,,,,,,,,,0,0,0,0,207,0,207,0,,,,,,,207,,,1,574.4151044848841,Y,None,nogo,None,1,,575.2152926060371,,,,,,,,,,,,,,,,,2,001,2022-12-14_13h58.16.622,00_bat_bachelor,2022.2.4,59.89754251397818,
,,,,,,,,,,,,0,0,0,0,208,0,208,0,,,,,,,208,,,1,576.2162545453757,X,d,go,d,1,0.4372110909316689,,,,,,,,,,,,,,,,,,2,001,2022-12-14_13h58.16.622,00_bat_bachelor,2022.2.4,59.89754251397818,
,,,,,,,,,,,,0,0,0,0,209,0,209,0,,,,,,,209,,,1,577.6840770908166,Y,l,go,l,1,0.3617386061232537,,,,,,,,,,,,,,,,,,2,001,2022-12-14_13h58.16.622,00_bat_bachelor,2022.2.4,59.89754251397818,
,,,,,,,,,,,,0,0,0,0,210,0,210,0,,,,,,,210,,,1,579.0683117576409,X,d,go,d,1,0.3848775150254369,,,,,,,,,,,,,,,,,,2,001,2022-12-14_13h58.16.622,00_bat_bachelor,2022.2.4,59.89754251397818,
,,,,,,,,,,,,0,0,0,0,211,0,211,0,,,,,,,211,,,1,580.4863883636426,Y,l,go,l,1,0.42376963631249964,,,,,,,,,,,,,,,,,,2,001,2022-12-14_13h58.16.622,00_bat_bachelor,2022.2.4,59.89754251397818,
,,,,,,,,,,,,0,0,0,0,212,0,212,0,,,,,,,212,,,1,581.9374618181027,X,d,go,d,1,0.4278530301526189,,,,,,,,,,,,,,,,,,2,001,2022-12-14_13h58.16.622,00_bat_bachelor,2022.2.4,59.89754251397818,
,,,,,,,,,,,,0,0,0,0,213,0,213,0,,,,,,,213,,,1,583.3884635150898,Y,l,go,l,1,0.4812173938844353,,,,,,,,,,,,,,,,,,2,001,2022-12-14_13h58.16.622,00_bat_bachelor,2022.2.4,59.89754251397818,
,,,,,,,,,,,,0,0,0,0,214,0,214,0,,,,,,,214,,,1,584.8897410908248,Y,None,nogo,None,1,,,,,,,,,,,,,,,,,,,2,001,2022-12-14_13h58.16.622,00_bat_bachelor,2022.2.4,59.89754251397818,
,,,,,,,,,,,,0,0,0,0,215,0,215,0,,,,,,,215,,,1,586.6911069091875,X,d,go,d,1,0.6178588485345244,,,,,,,,,,,,,,,,,,2,001,2022-12-14_13h58.16.622,00_bat_bachelor,2022.2.4,59.89754251397818,
,,,,,,,,,,,,0,0,0,0,216,0,216,0,,,,,,,216,,,1,588.3423757576384,Y,l,go,l,1,0.45525957574136555,,,,,,,,,,,,,,,,,,2,001,2022-12-14_13h58.16.622,00_bat_bachelor,2022.2.4,59.89754251397818,
,,,,,,,,,,,,0,0,0,0,217,0,217,0,,,,,,,217,,,1,589.826824242482,X,d,go,d,1,0.3462084240745753,,,,,,,,,,,,,,,,,,2,001,2022-12-14_13h58.16.622,00_bat_bachelor,2022.2.4,59.89754251397818,
,,,,,,,,,,,,0,0,0,0,218,0,218,0,,,,,,,218,,,1,591.1942419393454,Y,l,go,l,1,0.386976424138993,,,,,,,,,,,,,,,,,,2,001,2022-12-14_13h58.16.622,00_bat_bachelor,2022.2.4,59.89754251397818,
,,,,,,,,,,,,0,0,0,0,219,0,219,0,,,,,,,219,,,1,592.6120164848398,Y,None,nogo,None,1,,,,,,,,,,,,,,,,,,,2,001,2022-12-14_13h58.16.622,00_bat_bachelor,2022.2.4,59.89754251397818,
,,,,,,,,,,,,0,0,0,0,220,0,220,0,,,,,,,220,,,1,594.4137498182245,X,d,go,d,1,0.44763775751926005,,,,,,,,,,,,,,,,,,2,001,2022-12-14_13h58.16.622,00_bat_bachelor,2022.2.4,59.89754251397818,
,,,,,,,,,,,,0,0,0,0,221,0,221,0,,,,,,,221,,,1,595.8814254545141,Y,l,go,l,1,0.43549860594794154,,,,,,,,,,,,,,,,,,2,001,2022-12-14_13h58.16.622,00_bat_bachelor,2022.2.4,59.89754251397818,
,,,,,,,,,,,,0,0,0,0,222,0,222,0,,,,,,,222,,,1,597.3489609695971,Y,None,nogo,d,0,0.3450530304107815,,,,,,,,,,,,,,,,,,2,001,2022-12-14_13h58.16.622,00_bat_bachelor,2022.2.4,59.89754251397818,
,,,,,,,,,,,,0,0,0,0,223,0,223,0,,,,,,,223,,,1,598.7169168484397,Y,None,nogo,None,1,,,,,,,,,,,,,,,,,,,2,001,2022-12-14_13h58.16.622,00_bat_bachelor,2022.2.4,59.89754251397818,
,,,,,,,,,,,,0,0,0,0,224,0,224,0,,,,,,,224,,,1,600.5180523635354,X,d,go,d,1,0.3432416364084929,,,,,,,,,,,,,,,,,,2,001,2022-12-14_13h58.16.622,00_bat_bachelor,2022.2.4,59.89754251397818,
,,,,,,,,,,,,0,0,0,0,225,0,225,0,,,,,,,225,,,1,601.8860276364721,Y,l,go,l,1,0.5753720607608557,,,,,,,,,,,,,,,,,,2,001,2022-12-14_13h58.16.622,00_bat_bachelor,2022.2.4,59.89754251397818,
,,,,,,,,,,,,0,0,0,0,226,0,226,0,,,,,,,226,,,1,603.4875519999769,Y,None,nogo,None,1,,604.2883156363387,,,,,,,,,,,,,,,,,2,001,2022-12-14_13h58.16.622,00_bat_bachelor,2022.2.4,59.89754251397818,
,,,,,,,,,,,,0,0,0,0,227,0,227,0,,,,,,,227,,,1,605.2889061819296,X,d,go,d,1,0.5806438182480633,,,,,,,,,,,,,,,,,,2,001,2022-12-14_13h58.16.622,00_bat_bachelor,2022.2.4,59.89754251397818,
,,,,,,,,,,,,0,0,0,0,228,0,228,0,,,,,,,228,,,1,606.8901153940242,Y,l,go,l,1,0.4351461213082075,,,,,,,,,,,,,,,,,,2,001,2022-12-14_13h58.16.622,00_bat_bachelor,2022.2.4,59.89754251397818,
,,,,,,,,,,,,0,0,0,0,229,0,229,0,,,,,,,229,,,1,608.3576717576943,X,d,go,d,1,0.4402583637274802,,,,,,,,,,,,,,,,,,2,001,2022-12-14_13h58.16.622,00_bat_bachelor,2022.2.4,59.89754251397818,
,,,,,,,,,,,,0,0,0,0,230,0,230,0,,,,,,,230,,,1,609.8251253333874,Y,l,go,l,1,0.5561555756721646,,,,,,,,,,,,,,,,,,2,001,2022-12-14_13h58.16.622,00_bat_bachelor,2022.2.4,59.89754251397818,
,,,,,,,,,,,,0,0,0,0,231,0,231,0,,,,,,,231,,,1,611.4099359998945,X,d,go,d,1,0.5387189695611596,,,,,,,,,,,,,,,,,,2,001,2022-12-14_13h58.16.622,00_bat_bachelor,2022.2.4,59.89754251397818,
,,,,,,,,,,,,0,0,0,0,232,0,232,0,,,,,,,232,,,1,612.9777381818276,Y,l,go,l,1,0.5879664847161621,,,,,,,,,,,,,,,,,,2,001,2022-12-14_13h58.16.622,00_bat_bachelor,2022.2.4,59.89754251397818,
,,,,,,,,,,,,0,0,0,0,233,0,233,0,,,,,,,233,,,1,614.5954264241736,X,d,go,d,1,0.42584915133193135,,,,,,,,,,,,,,,,,,2,001,2022-12-14_13h58.16.622,00_bat_bachelor,2022.2.4,59.89754251397818,
,,,,,,,,,,,,0,0,0,0,234,0,234,0,,,,,,,234,,,1,616.0467975756619,Y,l,go,l,1,0.38184236362576485,,,,,,,,,,,,,,,,,,2,001,2022-12-14_13h58.16.622,00_bat_bachelor,2022.2.4,59.89754251397818,
,,,,,,,,,,,,0,0,0,0,235,0,235,0,,,,,,,235,,,1,617.4480019393377,X,d,go,d,1,0.46890321210958064,,,,,,,,,,,,,,,,,,2,001,2022-12-14_13h58.16.622,00_bat_bachelor,2022.2.4,59.89754251397818,
,,,,,,,,,,,,0,0,0,0,236,0,236,0,,,,,,,236,,,1,618.9490816970356,Y,l,go,l,1,0.4713623635470867,,,,,,,,,,,,,,,,,,2,001,2022-12-14_13h58.16.622,00_bat_bachelor,2022.2.4,59.89754251397818,
,,,,,,,,,,,,0,0,0,0,237,0,237,0,,,,,,,237,,,1,620.4501701819245,X,d,go,d,1,0.5714171514846385,,,,,,,,,,,,,,,,,,2,001,2022-12-14_13h58.16.622,00_bat_bachelor,2022.2.4,59.89754251397818,
,,,,,,,,,,,,0,0,0,0,238,0,238,0,,,,,,,238,,,1,622.0510991516057,X,None,nogo,None,1,,622.8517978182063,,,,,,,,,,,,,,,,,2,001,2022-12-14_13h58.16.622,00_bat_bachelor,2022.2.4,59.89754251397818,
,,,,,,,,,,,,0,0,0,0,239,0,239,0,,,,,,,239,,,1,623.8527447271626,Y,l,go,l,1,0.4164120606146753,,,,,,,,,,,,,,,,,,2,001,2022-12-14_13h58.16.622,00_bat_bachelor,2022.2.4,59.89754251397818,
,,,,,,,,,,,,0,0,0,0,240,0,240,0,,,,,,,240,,,1,625.2871413333341,X,d,go,d,1,0.454041151329875,,,,,,,,,,,,,,,,,,2,001,2022-12-14_13h58.16.622,00_bat_bachelor,2022.2.4,59.89754251397818,
,,,,,,,,,,,,0,0,0,0,241,0,241,0,,,,,,,241,,,1,626.7716644848697,Y,l,go,l,1,0.4096896364353597,,,,,,,,,,,,,,,,,,2,001,2022-12-14_13h58.16.622,00_bat_bachelor,2022.2.4,59.89754251397818,
,,,,,,,,,,,,0,0,0,0,242,0,242,0,,,,,,,242,,,1,628.2060465454124,X,d,go,d,1,0.4479853939265013,,,,,,,,,,,,,,,,,,2,001,2022-12-14_13h58.16.622,00_bat_bachelor,2022.2.4,59.89754251397818,
,,,,,,,,,,,,0,0,0,0,243,0,243,0,,,,,,,243,,,1,629.6738317576237,Y,l,go,l,1,0.41892745438963175,,,,,,,,,,,,,,,,,,2,001,2022-12-14_13h58.16.622,00_bat_bachelor,2022.2.4,59.89754251397818,
,,,,,,,,,,,,0,0,0,0,244,0,244,0,,,,,,,244,,,1,631.1248911514413,X,d,go,d,1,0.45587533339858055,,,,,,,,,,,,,,,,,,2,001,2022-12-14_13h58.16.622,00_bat_bachelor,2022.2.4,59.89754251397818,
,,,,,,,,,,,,0,0,0,0,245,0,245,0,,,,,,,245,,,1,632.6094463029876,Y,l,go,l,1,0.4600862425286323,,,,,,,,,,,,,,,,,,2,001,2022-12-14_13h58.16.622,00_bat_bachelor,2022.2.4,59.89754251397818,
,,,,,,,,,,,,0,0,0,0,246,0,246,0,,,,,,,246,,,1,634.0936819394119,Y,None,nogo,None,1,,,,,,,,,,,,,,,,,,,2,001,2022-12-14_13h58.16.622,00_bat_bachelor,2022.2.4,59.89754251397818,
,,,,,,,,,,,,0,0,0,0,247,0,247,0,,,,,,,247,,,1,635.8952581817284,X,d,go,d,1,0.3747499999590218,,,,,,,,,,,,,,,,,,2,001,2022-12-14_13h58.16.622,00_bat_bachelor,2022.2.4,59.89754251397818,
,,,,,,,,,,,,0,0,0,0,248,0,248,0,,,,,,,248,,,1,637.2962831514888,Y,l,go,l,1,0.5406661212909967,,,,,,,,,,,,,,,,,,2,001,2022-12-14_13h58.16.622,00_bat_bachelor,2022.2.4,59.89754251397818,
,,,,,,,,,,,,0,0,0,0,249,0,249,0,,,,,,,249,,,1,638.8641536969226,X,d,go,None,0,,,,,,,,,,,,,,,,,,,2,001,2022-12-14_13h58.16.622,00_bat_bachelor,2022.2.4,59.89754251397818,
,,,,,,,,,,,,1,0,1,0,0,0,0,0,,,,,,,0,,,0.2,664.5176169697661,X,d,go,None,0,,665.3182715151925,,,,,,,,639.6698846060317,space,24.63115775771439,,,,,,,2,001,2022-12-14_13h58.16.622,00_bat_bachelor,2022.2.4,59.89754251397818,
,,,,,,,,,,,,1,0,1,0,1,0,1,0,,,,,,,1,,,0.2,665.5182458180934,Y,l,go,None,0,,666.3191665455233,,,,,,,,,,,,,,,,,2,001,2022-12-14_13h58.16.622,00_bat_bachelor,2022.2.4,59.89754251397818,
,,,,,,,,,,,,1,0,1,0,2,0,2,0,,,,,,,2,,,0.2,666.5189832728356,X,d,go,None,0,,667.3199326060712,,,,,,,,,,,,,,,,,2,001,2022-12-14_13h58.16.622,00_bat_bachelor,2022.2.4,59.89754251397818,
,,,,,,,,,,,,1,0,1,0,3,0,3,0,,,,,,,3,,,0.2,667.5200799999293,Y,l,go,d,0,0.3332799393683672,,,,,,,,,,,,,,,,,,2,001,2022-12-14_13h58.16.622,00_bat_bachelor,2022.2.4,59.89754251397818,
,,,,,,,,,,,,1,0,1,0,4,0,4,0,,,,,,,4,,,0.2,668.0702778182458,X,d,go,None,0,,668.8711209697649,,,,,,,,,,,,,,,,,2,001,2022-12-14_13h58.16.622,00_bat_bachelor,2022.2.4,59.89754251397818,
,,,,,,,,,,,,1,0,1,0,5,0,5,0,,,,,,,5,,,0.2,669.0711156362668,Y,l,go,None,0,,669.8718409696594,,,,,,,,,,,,,,,,,2,001,2022-12-14_13h58.16.622,00_bat_bachelor,2022.2.4,59.89754251397818,
,,,,,,,,,,,,1,0,1,0,6,0,6,0,,,,,,,6,,,0.2,670.0717178182676,X,d,go,None,0,,670.872510060668,,,,,,,,,,,,,,,,,2,001,2022-12-14_13h58.16.622,00_bat_bachelor,2022.2.4,59.89754251397818,
,,,,,,,,,,,,1,0,1,0,7,0,7,0,,,,,,,7,,,0.2,671.0725294544827,X,None,nogo,None,1,,671.873393454589,,,,,,,,,,,,,,,,,2,001,2022-12-14_13h58.16.622,00_bat_bachelor,2022.2.4,59.89754251397818,
,,,,,,,,,,,,1,0,1,0,8,0,8,0,,,,,,,8,,,0.2,672.0732572120614,Y,l,go,None,0,,672.8741493334528,,,,,,,,,,,,,,,,,2,001,2022-12-14_13h58.16.622,00_bat_bachelor,2022.2.4,59.89754251397818,
,,,,,,,,,,,,1,0,1,0,9,0,9,0,,,,,,,9,,,0.2,673.0741595150903,X,d,go,None,0,,673.8749018181115,,,,,,,,,,,,,,,,,2,001,2022-12-14_13h58.16.622,00_bat_bachelor,2022.2.4,59.89754251397818,
,,,,,,,,,,,,1,0,1,0,10,0,10,0,,,,,,,10,,,0.2,674.0748635150958,Y,l,go,None,0,,674.8756736968644,,,,,,,,,,,,,,,,,2,001,2022-12-14_13h58.16.622,00_bat_bachelor,2022.2.4,59.89754251397818,
,,,,,,,,,,,,1,0,1,0,11,0,11,0,,,,,,,11,,,0.2,675.0757745455485,X,d,go,None,0,,675.8761745453812,,,,,,,,,,,,,,,,,2,001,2022-12-14_13h58.16.622,00_bat_bachelor,2022.2.4,59.89754251397818,
,,,,,,,,,,,,1,0,1,0,12,0,12,0,,,,,,,12,,,0.2,676.0763035151176,Y,l,go,None,0,,676.8771830303594,,,,,,,,,,,,,,,,,2,001,2022-12-14_13h58.16.622,00_bat_bachelor,2022.2.4,59.89754251397818,
,,,,,,,,,,,,1,0,1,0,13,0,13,0,,,,,,,13,,,0.2,677.0772470303345,Y,None,nogo,l,0,0.35959266661666334,,,,,,,,,,,,,,,,,,2,001,2022-12-14_13h58.16.622,00_bat_bachelor,2022.2.4,59.89754251397818,
,,,,,,,,,,,,1,0,1,0,14,0,14,0,,,,,,,14,,,0.2,677.6611335757188,X,d,go,d,1,0.7194796970579773,,,,,,,,,,,,,,,,,,2,001,2022-12-14_13h58.16.622,00_bat_bachelor,2022.2.4,59.89754251397818,
,,,,,,,,,,,,1,0,1,0,15,0,15,0,,,,,,,15,,,0.2,678.611528727226,Y,l,go,l,1,0.3779456363990903,,,,,,,,,,,,,,,,,,2,001,2022-12-14_13h58.16.622,00_bat_bachelor,2022.2.4,59.89754251397818,
,,,,,,,,,,,,1,0,1,0,16,0,16,0,,,,,,,16,,,0.2,679.2117090909742,Y,None,nogo,None,1,,,,,,,,,,,,,,,,,,,2,001,2022-12-14_13h58.16.622,00_bat_bachelor,2022.2.4,59.89754251397818,
,,,,,,,,,,,,1,0,1,0,17,0,17,0,,,,,,,17,,,0.2,680.2123839999549,X,d,go,d,1,0.3134903635364026,,,,,,,,,,,,,,,,,,2,001,2022-12-14_13h58.16.622,00_bat_bachelor,2022.2.4,59.89754251397818,
,,,,,,,,,,,,1,0,1,0,18,0,18,0,,,,,,,18,,,0.2,680.7460766059812,Y,l,go,l,1,0.723343939287588,,,,,,,,,,,,,,,,,,2,001,2022-12-14_13h58.16.622,00_bat_bachelor,2022.2.4,59.89754251397818,
,,,,,,,,,,,,1,0,1,0,19,0,19,0,,,,,,,19,,,0.2,681.696850909153,X,d,go,d,1,0.5245647877454758,,,,,,,,,,,,,,,,,,2,001,2022-12-14_13h58.16.622,00_bat_bachelor,2022.2.4,59.89754251397818,
,,,,,,,,,,,,1,0,1,0,20,0,20,0,,,,,,,20,,,0.2,682.4479166059755,Y,l,go,None,0,,683.2481595152058,,,,,,,,,,,,,,,,,2,001,2022-12-14_13h58.16.622,00_bat_bachelor,2022.2.4,59.89754251397818,
,,,,,,,,,,,,1,0,1,0,21,0,21,0,,,,,,,21,,,0.2,683.4481983031146,Y,None,nogo,None,1,,,,,,,,,,,,,,,,,,,2,001,2022-12-14_13h58.16.622,00_bat_bachelor,2022.2.4,59.89754251397818,
,,,,,,,,,,,,1,0,1,0,22,0,22,0,,,,,,,22,,,0.2,684.4488945454359,X,d,go,d,1,0.41306369681842625,,,,,,,,,,,,,,,,,,2,001,2022-12-14_13h58.16.622,00_bat_bachelor,2022.2.4,59.89754251397818,
,,,,,,,,,,,,1,0,1,0,23,0,23,0,,,,,,,23,,,0.2,685.0827316364739,Y,l,go,l,1,0.4019010302145034,,,,,,,,,,,,,,,,,,2,001,2022-12-14_13h58.16.622,00_bat_bachelor,2022.2.4,59.89754251397818,
,,,,,,,,,,,,1,0,1,0,24,0,24,0,,,,,,,24,,,0.2,685.71658909088,Y,None,nogo,None,1,,,,,,,,,,,,,,,,,,,2,001,2022-12-14_13h58.16.622,00_bat_bachelor,2022.2.4,59.89754251397818,
,,,,,,,,,,,,1,0,1,0,25,0,25,0,,,,,,,25,,,0.2,686.717450666707,X,d,go,d,1,0.3838559393770993,,,,,,,,,,,,,,,,,,2,001,2022-12-14_13h58.16.622,00_bat_bachelor,2022.2.4,59.89754251397818,
,,,,,,,,,,,,1,0,1,0,26,0,26,0,,,,,,,26,,,0.2,687.3345595151186,Y,l,go,l,1,0.4707829696126282,,,,,,,,,,,,,,,,,,2,001,2022-12-14_13h58.16.622,00_bat_bachelor,2022.2.4,59.89754251397818,
,,,,,,,,,,,,1,0,1,0,27,0,27,0,,,,,,,27,,,0.2,688.035029818071,X,d,go,d,1,0.4894952119793743,,,,,,,,,,,,,,,,,,2,001,2022-12-14_13h58.16.622,00_bat_bachelor,2022.2.4,59.89754251397818,
,,,,,,,,,,,,1,0,1,0,28,0,28,0,,,,,,,28,,,0.2,688.7519951516297,Y,l,go,l,1,0.41339727281592786,,,,,,,,,,,,,,,,,,2,001,2022-12-14_13h58.16.622,00_bat_bachelor,2022.2.4,59.89754251397818,
,,,,,,,,,,,,1,0,1,0,29,0,29,0,,,,,,,29,,,0.2,689.3860727273859,X,d,go,d,1,0.4665415151976049,,,,,,,,,,,,,,,,,,2,001,2022-12-14_13h58.16.622,00_bat_bachelor,2022.2.4,59.89754251397818,
,,,,,,,,,,,,1,0,1,0,30,0,30,0,,,,,,,30,,,0.2,690.0699263031129,Y,l,go,l,1,0.5187669696751982,,,,,,,,,,,,,,,,,,2,001,2022-12-14_13h58.16.622,00_bat_bachelor,2022.2.4,59.89754251397818,
,,,,,,,,,,,,1,0,1,0,31,0,31,0,,,,,,,31,,,0.2,690.8204863029532,X,d,go,d,1,0.6973744849674404,,,,,,,,,,,,,,,,,,2,001,2022-12-14_13h58.16.622,00_bat_bachelor,2022.2.4,59.89754251397818,
,,,,,,,,,,,,1,0,1,0,32,0,32,0,,,,,,,32,,,0.2,691.7375296968967,X,None,nogo,None,1,,,,,,,,,,,,,,,,,,,2,001,2022-12-14_13h58.16.622,00_bat_bachelor,2022.2.4,59.89754251397818,
,,,,,,,,,,,,1,0,1,0,33,0,33,0,,,,,,,33,,,0.2,692.7385430303402,Y,l,go,l,1,0.41117133339866996,,,,,,,,,,,,,,,,,,2,001,2022-12-14_13h58.16.622,00_bat_bachelor,2022.2.4,59.89754251397818,
,,,,,,,,,,,,1,0,1,0,34,0,34,0,,,,,,,34,,,0.2,693.372357818298,X,d,go,d,1,0.4003558182157576,,,,,,,,,,,,,,,,,,2,001,2022-12-14_13h58.16.622,00_bat_bachelor,2022.2.4,59.89754251397818,
,,,,,,,,,,,,1,0,1,0,35,0,35,0,,,,,,,35,,,0.2,693.9894933332689,Y,l,go,l,1,0.5197652727365494,,,,,,,,,,,,,,,,,,2,001,2022-12-14_13h58.16.622,00_bat_bachelor,2022.2.4,59.89754251397818,
,,,,,,,,,,,,1,0,1,0,36,0,36,0,,,,,,,36,,,0.2,694.7401246060617,X,d,go,d,1,0.4733696363400668,,,,,,,,,,,,,,,,,,2,001,2022-12-14_13h58.16.622,00_bat_bachelor,2022.2.4,59.89754251397818,
,,,,,,,,,,,,1,0,1,0,37,0,37,0,,,,,,,37,,,0.2,695.4406370909419,Y,l,go,l,1,0.4758961817715317,,,,,,,,,,,,,,,,,,2,001,2022-12-14_13h58.16.622,00_bat_bachelor,2022.2.4,59.89754251397818,
,,,,,,,,,,,,1,0,1,0,38,0,38,0,,,,,,,38,,,0.2,696.141232969705,Y,None,nogo,None,1,,,,,,,,,,,,,,,,,,,2,001,2022-12-14_13h58.16.622,00_bat_bachelor,2022.2.4,59.89754251397818,
,,,,,,,,,,,,1,0,1,0,39,0,39,0,,,,,,,39,,,0.2,697.1419757576659,X,d,go,d,1,0.45460309088230133,,,,,,,,,,,,,,,,,,2,001,2022-12-14_13h58.16.622,00_bat_bachelor,2022.2.4,59.89754251397818,
,,,,,,,,,,,,1,0,1,0,40,0,40,0,,,,,,,40,,,0.2,697.8258230302017,Y,l,go,l,1,0.4125817574094981,,,,,,,,,,,,,,,,,,2,001,2022-12-14_13h58.16.622,00_bat_bachelor,2022.2.4,59.89754251397818,
,,,,,,,,,,,,1,0,1,0,41,0,41,0,,,,,,,41,,,0.2,698.4595355151687,Y,None,nogo,d,0,0.38520915154367685,,,,,,,,,,,,,,,,,,2,001,2022-12-14_13h58.16.622,00_bat_bachelor,2022.2.4,59.89754251397818,
,,,,,,,,,,,,1,0,1,0,42,0,42,0,,,,,,,42,,,0.2,699.0767689696513,X,d,go,None,0,,,,,,,,,,,,,,,,,,,2,001,2022-12-14_13h58.16.622,00_bat_bachelor,2022.2.4,59.89754251397818,
,,,,,,,,,,,,1,0,1,0,43,0,43,0,,,,,,,43,,,0.2,700.0775219392963,Y,l,go,None,0,,,,,,,,,,,,,,,,,,,2,001,2022-12-14_13h58.16.622,00_bat_bachelor,2022.2.4,59.89754251397818,
,,,,,,,,,,,,1,0,1,0,44,0,44,0,,,,,,,44,,,0.2,701.0782826666255,Y,None,nogo,l,0,0.1988678181078285,,,,,,,,,,,,,,,,,,2,001,2022-12-14_13h58.16.622,00_bat_bachelor,2022.2.4,59.89754251397818,
,,,,,,,,,,,,1,0,1,0,45,0,45,0,,,,,,,45,,,0.2,701.4952732122038,X,d,go,d,1,0.74243727279827,,,,,,,,,,,,,,,,,,2,001,2022-12-14_13h58.16.622,00_bat_bachelor,2022.2.4,59.89754251397818,
,,,,,,,,,,,,1,0,1,0,46,0,46,0,,,,,,,46,,,0.2,702.4626676363405,Y,l,go,l,1,0.7179834544658661,,,,,,,,,,,,,,,,,,2,001,2022-12-14_13h58.16.622,00_bat_bachelor,2022.2.4,59.89754251397818,
,,,,,,,,,,,,1,0,1,0,47,0,47,0,,,,,,,47,,,0.2,703.4133042425383,X,d,go,d,1,0.5677681819070131,,,,,,,,,,,,,,,,,,2,001,2022-12-14_13h58.16.622,00_bat_bachelor,2022.2.4,59.89754251397818,
,,,,,,,,,,,,1,0,1,0,48,0,48,0,,,,,,,48,,,0.2,704.2140722423792,X,None,nogo,None,1,,705.0145236363169,,,,,,,,,,,,,,,,,2,001,2022-12-14_13h58.16.622,00_bat_bachelor,2022.2.4,59.89754251397818,
,,,,,,,,,,,,1,0,1,0,49,0,49,0,,,,,,,49,,,0.2,705.2148993939627,Y,l,go,l,1,0.3981967878062278,,,,,,,,,,,,,,,,,,2,001,2022-12-14_13h58.16.622,00_bat_bachelor,2022.2.4,59.89754251397818,
,,,,,,,,,,,,1,0,1,0,50,0,50,0,,,,,,,50,,,0.2,705.8316256969701,X,d,go,d,1,0.35885472712107,,,,,,,,,,,,,,,,,,2,001,2022-12-14_13h58.16.622,00_bat_bachelor,2022.2.4,59.89754251397818,
,,,,,,,,,,,,1,0,1,0,51,0,51,0,,,,,,,51,,,0.2,706.4156620607246,Y,l,go,l,1,0.5887800606433302,,,,,,,,,,,,,,,,,,2,001,2022-12-14_13h58.16.622,00_bat_bachelor,2022.2.4,59.89754251397818,
,,,,,,,,,,,,1,0,1,0,52,0,52,0,,,,,,,52,,,0.2,707.2329309091438,X,d,go,d,1,0.46095509082078934,,,,,,,,,,,,,,,,,,2,001,2022-12-14_13h58.16.622,00_bat_bachelor,2022.2.4,59.89754251397818,
,,,,,,,,,,,,1,0,1,0,53,0,53,0,,,,,,,53,,,0.2,707.9167743029539,Y,l,go,l,1,0.5603679392952472,,,,,,,,,,,,,,,,,,2,001,2022-12-14_13h58.16.622,00_bat_bachelor,2022.2.4,59.89754251397818,
,,,,,,,,,,,,1,0,1,0,54,0,54,0,,,,,,,54,,,0.2,708.7007326059975,Y,None,nogo,None,1,,,,,,,,,,,,,,,,,,,2,001,2022-12-14_13h58.16.622,00_bat_bachelor,2022.2.4,59.89754251397818,
,,,,,,,,,,,,1,0,1,0,55,0,55,0,,,,,,,55,,,0.2,709.7015219393652,X,d,go,d,1,0.695653272792697,,,,,,,,,,,,,,,,,,2,001,2022-12-14_13h58.16.622,00_bat_bachelor,2022.2.4,59.89754251397818,
,,,,,,,,,,,,1,0,1,0,56,0,56,0,,,,,,,56,,,0.2,710.6188421817496,Y,l,go,l,1,0.41792915132828057,,,,,,,,,,,,,,,,,,2,001,2022-12-14_13h58.16.622,00_bat_bachelor,2022.2.4,59.89754251397818,
,,,,,,,,,,,,1,0,1,0,57,0,57,0,,,,,,,57,,,0.2,711.2694123636466,Y,None,nogo,d,0,0.45553060597740114,,,,,,,,,,,,,,,,,,2,001,2022-12-14_13h58.16.622,00_bat_bachelor,2022.2.4,59.89754251397818,
,,,,,,,,,,,,1,0,1,0,58,0,58,0,,,,,,,58,,,0.2,711.9532106667757,Y,None,nogo,None,1,,712.7538681211881,,,,,,,,,,,,,,,,,2,001,2022-12-14_13h58.16.622,00_bat_bachelor,2022.2.4,59.89754251397818,
,,,,,,,,,,,,1,0,1,0,59,0,59,0,,,,,,,59,,,0.2,712.9537202424835,X,d,go,l,0,0.5159034545067698,,,,,,,,,,,,,,,,,,2,001,2022-12-14_13h58.16.622,00_bat_bachelor,2022.2.4,59.89754251397818,
,,,,,,,,,,,,1,0,1,0,60,0,60,0,,,,,,,60,,,0.2,713.6878482424654,Y,l,go,None,0,,,,,,,,,,,,,,,,,,,2,001,2022-12-14_13h58.16.622,00_bat_bachelor,2022.2.4,59.89754251397818,
,,,,,,,,,,,,1,0,1,0,61,0,61,0,,,,,,,61,,,0.2,714.6887403635774,X,d,go,d,1,0.7323102422524244,,,,,,,,,,,,,,,,,,2,001,2022-12-14_13h58.16.622,00_bat_bachelor,2022.2.4,59.89754251397818,
,,,,,,,,,,,,1,0,1,0,62,0,62,0,,,,,,,62,,,0.2,715.6393372120801,Y,l,go,l,1,0.3414438182953745,,,,,,,,,,,,,,,,,,2,001,2022-12-14_13h58.16.622,00_bat_bachelor,2022.2.4,59.89754251397818,
,,,,,,,,,,,,1,0,1,0,63,0,63,0,,,,,,,63,,,0.2,716.2062157576438,X,d,go,d,1,0.5121240606531501,,,,,,,,,,,,,,,,,,2,001,2022-12-14_13h58.16.622,00_bat_bachelor,2022.2.4,59.89754251397818,
,,,,,,,,,,,,1,0,1,0,64,0,64,0,,,,,,,64,,,0.2,716.9404009697028,Y,l,go,l,1,0.48235387867316604,,,,,,,,,,,,,,,,,,2,001,2022-12-14_13h58.16.622,00_bat_bachelor,2022.2.4,59.89754251397818,
,,,,,,,,,,,,1,0,1,0,65,0,65,0,,,,,,,65,,,0.2,717.6407326061744,X,d,go,d,1,0.5000750909093767,,,,,,,,,,,,,,,,,,2,001,2022-12-14_13h58.16.622,00_bat_bachelor,2022.2.4,59.89754251397818,
,,,,,,,,,,,,1,0,1,0,66,0,66,0,,,,,,,66,,,0.2,718.3583156364039,Y,l,go,l,1,0.7429604241624475,,,,,,,,,,,,,,,,,,2,001,2022-12-14_13h58.16.622,00_bat_bachelor,2022.2.4,59.89754251397818,
,,,,,,,,,,,,1,0,1,0,67,0,67,0,,,,,,,67,,,0.2,719.3254487272352,Y,None,nogo,d,0,0.5130952121689916,,,,,,,,,,,,,,,,,,2,001,2022-12-14_13h58.16.622,00_bat_bachelor,2022.2.4,59.89754251397818,
,,,,,,,,,,,,1,0,1,0,68,0,68,0,,,,,,,68,,,0.2,720.0592712727375,X,d,go,None,0,,,,,,,,,,,,,,,,,,,2,001,2022-12-14_13h58.16.622,00_bat_bachelor,2022.2.4,59.89754251397818,
,,,,,,,,,,,,1,0,1,0,69,0,69,0,,,,,,,69,,,0.2,721.0599088484887,Y,l,go,None,0,,721.8607995151542,,,,,,,,,,,,,,,,,2,001,2022-12-14_13h58.16.622,00_bat_bachelor,2022.2.4,59.89754251397818,
,,,,,,,,,,,,1,0,1,0,70,0,70,0,,,,,,,70,,,0.2,722.0607466667425,Y,None,nogo,l,0,0.5287364241667092,,,,,,,,,,,,,,,,,,2,001,2022-12-14_13h58.16.622,00_bat_bachelor,2022.2.4,59.89754251397818,
,,,,,,,,,,,,1,0,1,0,71,0,71,0,,,,,,,71,,,0.2,722.8116480000317,X,d,go,d,1,0.5296377574559301,,,,,,,,,,,,,,,,,,2,001,2022-12-14_13h58.16.622,00_bat_bachelor,2022.2.4,59.89754251397818,
,,,,,,,,,,,,1,0,1,0,72,0,72,0,,,,,,,72,,,0.2,723.5618244849611,Y,l,go,l,1,0.5481109698303044,,,,,,,,,,,,,,,,,,2,001,2022-12-14_13h58.16.622,00_bat_bachelor,2022.2.4,59.89754251397818,
,,,,,,,,,,,,1,0,1,0,73,0,73,0,,,,,,,73,,,0.2,724.3290632728022,Y,None,nogo,None,1,,,,,,,,,,,,,,,,,,,2,001,2022-12-14_13h58.16.622,00_bat_bachelor,2022.2.4,59.89754251397818,
,,,,,,,,,,,,1,0,1,0,74,0,74,0,,,,,,,74,,,0.2,725.3301493332256,X,d,go,d,1,0.42768866661936045,,,,,,,,,,,,,,,,,,2,001,2022-12-14_13h58.16.622,00_bat_bachelor,2022.2.4,59.89754251397818,
,,,,,,,,,,,,1,0,1,0,75,0,75,0,,,,,,,75,,,0.2,725.9803146666382,Y,l,go,l,1,0.4655150908511132,,,,,,,,,,,,,,,,,,2,001,2022-12-14_13h58.16.622,00_bat_bachelor,2022.2.4,59.89754251397818,
,,,,,,,,,,,,1,0,1,0,76,0,76,0,,,,,,,76,,,0.2,726.6646429090761,X,d,go,d,1,0.6125133940950036,,,,,,,,,,,,,,,,,,2,001,2022-12-14_13h58.16.622,00_bat_bachelor,2022.2.4,59.89754251397818,
,,,,,,,,,,,,1,0,1,0,77,0,77,0,,,,,,,77,,,0.2,727.5156072727405,Y,l,go,l,1,0.5931795756332576,,,,,,,,,,,,,,,,,,2,001,2022-12-14_13h58.16.622,00_bat_bachelor,2022.2.4,59.89754251397818,
,,,,,,,,,,,,1,0,1,0,78,0,78,0,,,,,,,78,,,0.2,728.3331529696006,X,d,go,d,1,0.575382242212072,,,,,,,,,,,,,,,,,,2,001,2022-12-14_13h58.16.622,00_bat_bachelor,2022.2.4,59.89754251397818,
,,,,,,,,,,,,1,0,1,0,79,0,79,0,,,,,,,79,,,0.2,729.1337881211657,Y,l,go,l,1,0.4792435758281499,,,,,,,,,,,,,,,,,,2,001,2022-12-14_13h58.16.622,00_bat_bachelor,2022.2.4,59.89754251397818,
,,,,,,,,,,,,1,0,1,0,80,0,80,0,,,,,,,80,,,0.2,729.8343069090042,Y,None,nogo,None,1,,730.6349401213229,,,,,,,,,,,,,,,,,2,001,2022-12-14_13h58.16.622,00_bat_bachelor,2022.2.4,59.89754251397818,
,,,,,,,,,,,,1,0,1,0,81,0,81,0,,,,,,,81,,,0.2,730.8350404847879,X,d,go,d,1,0.473966000135988,,,,,,,,,,,,,,,,,,2,001,2022-12-14_13h58.16.622,00_bat_bachelor,2022.2.4,59.89754251397818,
,,,,,,,,,,,,1,0,1,0,82,0,82,0,,,,,,,82,,,0.2,731.552000484895,Y,l,go,l,1,0.38168187881819904,,,,,,,,,,,,,,,,,,2,001,2022-12-14_13h58.16.622,00_bat_bachelor,2022.2.4,59.89754251397818,
,,,,,,,,,,,,1,0,1,0,83,0,83,0,,,,,,,83,,,0.2,732.1692383030895,X,d,go,d,1,0.4199582424480468,,,,,,,,,,,,,,,,,,2,001,2022-12-14_13h58.16.622,00_bat_bachelor,2022.2.4,59.89754251397818,
,,,,,,,,,,,,1,0,1,0,84,0,84,0,,,,,,,84,,,0.2,732.8197328485548,Y,l,go,l,1,0.4889332726597786,,,,,,,,,,,,,,,,,,2,001,2022-12-14_13h58.16.622,00_bat_bachelor,2022.2.4,59.89754251397818,
,,,,,,,,,,,,1,0,1,0,85,0,85,0,,,,,,,85,,,0.2,733.5368703030981,Y,None,nogo,d,0,0.4286990910768509,,,,,,,,,,,,,,,,,,2,001,2022-12-14_13h58.16.622,00_bat_bachelor,2022.2.4,59.89754251397818,
,,,,,,,,,,,,1,0,1,0,86,0,86,0,,,,,,,86,,,0.2,734.2040567272343,X,d,go,None,0,,735.0048528485931,,,,,,,,,,,,,,,,,2,001,2022-12-14_13h58.16.622,00_bat_bachelor,2022.2.4,59.89754251397818,
,,,,,,,,,,,,1,0,1,0,87,0,87,0,,,,,,,87,,,0.2,735.2047975757159,Y,l,go,l,1,0.40839363634586334,,,,,,,,,,,,,,,,,,2,001,2022-12-14_13h58.16.622,00_bat_bachelor,2022.2.4,59.89754251397818,
,,,,,,,,,,,,1,0,1,0,88,0,88,0,,,,,,,88,,,0.2,735.8388082424644,Y,None,nogo,d,0,0.4312358181923628,,,,,,,,,,,,,,,,,,2,001,2022-12-14_13h58.16.622,00_bat_bachelor,2022.2.4,59.89754251397818,
,,,,,,,,,,,,1,0,1,0,89,0,89,0,,,,,,,89,,,0.2,736.4892688484397,X,d,go,None,0,,737.2900242423639,,,,,,,,,,,,,,,,,2,001,2022-12-14_13h58.16.622,00_bat_bachelor,2022.2.4,59.89754251397818,
,,,,,,,,,,,,1,0,1,0,90,0,90,0,,,,,,,90,,,0.2,737.4903835151345,Y,l,go,d,0,0.027078727260231972,,,,,,,,,,,,,,,,,,2,001,2022-12-14_13h58.16.622,00_bat_bachelor,2022.2.4,59.89754251397818,
,,,,,,,,,,,,1,0,1,0,91,0,91,0,,,,,,,91,,,0.2,737.7403515151236,Y,None,nogo,None,1,,738.5408843636978,,,,,,,,,,,,,,,,,2,001,2022-12-14_13h58.16.622,00_bat_bachelor,2022.2.4,59.89754251397818,
,,,,,,,,,,,,1,0,1,0,92,0,92,0,,,,,,,92,,,0.2,738.740810666699,X,d,go,d,1,0.6645706060808152,,,,,,,,,,,,,,,,,,2,001,2022-12-14_13h58.16.622,00_bat_bachelor,2022.2.4,59.89754251397818,
,,,,,,,,,,,,1,0,1,0,93,0,93,0,,,,,,,93,,,0.2,739.6251321211457,Y,l,go,l,1,0.5326132725458592,,,,,,,,,,,,,,,,,,2,001,2022-12-14_13h58.16.622,00_bat_bachelor,2022.2.4,59.89754251397818,
,,,,,,,,,,,,1,0,1,0,94,0,94,0,,,,,,,94,,,0.2,740.3922162423842,Y,None,nogo,d,0,0.4368833333719522,,,,,,,,,,,,,,,,,,2,001,2022-12-14_13h58.16.622,00_bat_bachelor,2022.2.4,59.89754251397818,
,,,,,,,,,,,,1,0,1,0,95,0,95,0,,,,,,,95,,,0.2,741.0759418183006,X,d,go,None,0,,741.8768576970324,,,,,,,,,,,,,,,,,2,001,2022-12-14_13h58.16.622,00_bat_bachelor,2022.2.4,59.89754251397818,
,,,,,,,,,,,,1,0,1,0,96,0,96,0,,,,,,,96,,,0.2,742.0767200000118,Y,l,go,l,1,0.48001642408780754,,,,,,,,,,,,,,,,,,2,001,2022-12-14_13h58.16.622,00_bat_bachelor,2022.2.4,59.89754251397818,
,,,,,,,,,,,,1,0,1,0,97,0,97,0,,,,,,,97,,,0.2,742.7772193939891,X,d,go,None,0,,743.5783515151124,,,,,,,,,,,,,,,,,2,001,2022-12-14_13h58.16.622,00_bat_bachelor,2022.2.4,59.89754251397818,
,,,,,,,,,,,,1,0,1,0,98,0,98,0,,,,,,,98,,,0.2,743.7782002424356,X,None,nogo,d,0,0.6347398180514574,,,,,,,,,,,,,,,,,,2,001,2022-12-14_13h58.16.622,00_bat_bachelor,2022.2.4,59.89754251397818,
,,,,,,,,,,,,1,0,1,0,99,0,99,0,,,,,,,99,,,0.2,744.6455878787674,Y,l,go,l,1,0.7599645452573895,,,,,,,,,,,,,,,,,,2,001,2022-12-14_13h58.16.622,00_bat_bachelor,2022.2.4,59.89754251397818,
,,,,,,,,,,,,1,0,1,0,100,0,100,0,,,,,,,100,,,0.2,745.6294778182637,X,d,go,None,0,,746.430337454658,,,,,,,,,,,,,,,,,2,001,2022-12-14_13h58.16.622,00_bat_bachelor,2022.2.4,59.89754251397818,
,,,,,,,,,,,,1,0,1,0,101,0,101,0,,,,,,,101,,,0.2,746.6304829090368,Y,l,go,l,1,0.5502030907664448,,,,,,,,,,,,,,,,,,2,001,2022-12-14_13h58.16.622,00_bat_bachelor,2022.2.4,59.89754251397818,
,,,,,,,,,,,,1,0,1,0,102,0,102,0,,,,,,,102,,,0.2,747.4145149090327,X,d,go,d,1,0.7265172726474702,,,,,,,,,,,,,,,,,,2,001,2022-12-14_13h58.16.622,00_bat_bachelor,2022.2.4,59.89754251397818,
,,,,,,,,,,,,1,0,1,0,103,0,103,0,,,,,,,103,,,0.2,748.3651321211364,X,None,nogo,None,1,,749.1654608484823,,,,,,,,,,,,,,,,,2,001,2022-12-14_13h58.16.622,00_bat_bachelor,2022.2.4,59.89754251397818,
,,,,,,,,,,,,1,0,1,0,104,0,104,0,,,,,,,104,,,0.2,749.3656930909492,Y,l,go,l,1,0.4876101210247725,,,,,,,,,,,,,,,,,,2,001,2022-12-14_13h58.16.622,00_bat_bachelor,2022.2.4,59.89754251397818,
,,,,,,,,,,,,1,0,1,0,105,0,105,0,,,,,,,105,,,0.2,750.0828688484617,X,d,go,d,1,0.5225686668418348,,,,,,,,,,,,,,,,,,2,001,2022-12-14_13h58.16.622,00_bat_bachelor,2022.2.4,59.89754251397818,
,,,,,,,,,,,,1,0,1,0,106,0,106,0,,,,,,,106,,,0.2,750.8336320000235,X,None,nogo,None,1,,751.6344024243299,,,,,,,,,,,,,,,,,2,001,2022-12-14_13h58.16.622,00_bat_bachelor,2022.2.4,59.89754251397818,
,,,,,,,,,,,,1,0,1,0,107,0,107,0,,,,,,,107,,,0.2,751.83439030312,Y,l,go,l,1,0.43519945442676544,,,,,,,,,,,,,,,,,,2,001,2022-12-14_13h58.16.622,00_bat_bachelor,2022.2.4,59.89754251397818,
,,,,,,,,,,,,1,0,1,0,108,0,108,0,,,,,,,108,,,0.2,752.5015835152008,X,d,go,d,1,0.4549356969073415,,,,,,,,,,,,,,,,,,2,001,2022-12-14_13h58.16.622,00_bat_bachelor,2022.2.4,59.89754251397818,
,,,,,,,,,,,,1,0,1,0,109,0,109,0,,,,,,,109,,,0.2,753.2018720000051,Y,l,go,l,1,0.5710651513654739,,,,,,,,,,,,,,,,,,2,001,2022-12-14_13h58.16.622,00_bat_bachelor,2022.2.4,59.89754251397818,
,,,,,,,,,,,,1,0,1,0,110,0,110,0,,,,,,,110,,,0.2,754.0191364849452,Y,None,nogo,None,1,,754.8200557576492,,,,,,,,,,,,,,,,,2,001,2022-12-14_13h58.16.622,00_bat_bachelor,2022.2.4,59.89754251397818,
,,,,,,,,,,,,1,0,1,0,111,0,111,0,,,,,,,111,,,0.2,755.019930181792,X,d,go,d,1,0.5128154545091093,,,,,,,,,,,,,,,,,,2,001,2022-12-14_13h58.16.622,00_bat_bachelor,2022.2.4,59.89754251397818,
,,,,,,,,,,,,1,0,1,0,112,0,112,0,,,,,,,112,,,0.2,755.7707495756913,Y,l,go,l,1,0.46605181810446084,,,,,,,,,,,,,,,,,,2,001,2022-12-14_13h58.16.622,00_bat_bachelor,2022.2.4,59.89754251397818,
,,,,,,,,,,,,1,0,1,0,113,0,113,0,,,,,,,113,,,0.2,756.471003636485,X,d,go,d,1,0.7578714545816183,,,,,,,,,,,,,,,,,,2,001,2022-12-14_13h58.16.622,00_bat_bachelor,2022.2.4,59.89754251397818,
,,,,,,,,,,,,1,0,1,0,114,0,114,0,,,,,,,114,,,0.2,757.4717958788387,Y,l,go,l,1,0.5732198180630803,,,,,,,,,,,,,,,,,,2,001,2022-12-14_13h58.16.622,00_bat_bachelor,2022.2.4,59.89754251397818,
,,,,,,,,,,,,1,0,1,0,115,0,115,0,,,,,,,115,,,0.2,758.2724373333622,X,d,go,d,1,0.668217636179179,,,,,,,,,,,,,,,,,,2,001,2022-12-14_13h58.16.622,00_bat_bachelor,2022.2.4,59.89754251397818,
,,,,,,,,,,,,1,0,1,0,116,0,116,0,,,,,,,116,,,0.2,759.1732930908911,Y,l,go,l,1,0.5041982422117144,,,,,,,,,,,,,,,,,,2,001,2022-12-14_13h58.16.622,00_bat_bachelor,2022.2.4,59.89754251397818,
,,,,,,,,,,,,1,0,1,0,117,0,117,0,,,,,,,117,,,0.2,759.9071893333457,X,d,go,None,0,,760.7077682423405,,,,,,,,,,,,,,,,,2,001,2022-12-14_13h58.16.622,00_bat_bachelor,2022.2.4,59.89754251397818,
,,,,,,,,,,,,1,0,1,0,118,0,118,0,,,,,,,118,,,0.2,760.907939878758,Y,l,go,None,0,,761.7084775757976,,,,,,,,,,,,,,,,,2,001,2022-12-14_13h58.16.622,00_bat_bachelor,2022.2.4,59.89754251397818,
,,,,,,,,,,,,1,0,1,0,119,0,119,0,,,,,,,119,,,0.2,761.9087423030287,X,d,go,d,1,0.520401393994689,,,,,,,,,,,,,,,,,,2,001,2022-12-14_13h58.16.622,00_bat_bachelor,2022.2.4,59.89754251397818,
,,,,,,,,,,,,1,0,1,0,120,0,120,0,,,,,,,120,,,0.2,762.6590521212202,Y,l,go,None,0,,763.4599413333926,,,,,,,,,,,,,,,,,2,001,2022-12-14_13h58.16.622,00_bat_bachelor,2022.2.4,59.89754251397818,
,,,,,,,,,,,,1,0,1,0,121,0,121,0,,,,,,,121,,,0.2,763.6600509090349,Y,None,nogo,d,0,0.49691339395940304,,,,,,,,,,,,,,,,,,2,001,2022-12-14_13h58.16.622,00_bat_bachelor,2022.2.4,59.89754251397818,
,,,,,,,,,,,,1,0,1,0,122,0,122,0,,,,,,,122,,,0.2,764.3772664242424,X,d,go,l,0,0.4679926666431129,,,,,,,,,,,,,,,,,,2,001,2022-12-14_13h58.16.622,00_bat_bachelor,2022.2.4,59.89754251397818,
,,,,,,,,,,,,1,0,1,0,123,0,123,0,,,,,,,123,,,0.2,765.0775757576339,Y,l,go,d,0,0.5193715756759048,,,,,,,,,,,,,,,,,,2,001,2022-12-14_13h58.16.622,00_bat_bachelor,2022.2.4,59.89754251397818,
,,,,,,,,,,,,1,0,1,0,124,0,124,0,,,,,,,124,,,0.2,765.8283907878213,X,d,go,l,0,0.6808372726663947,,,,,,,,,,,,,,,,,,2,001,2022-12-14_13h58.16.622,00_bat_bachelor,2022.2.4,59.89754251397818,
,,,,,,,,,,,,1,0,1,0,125,0,125,0,,,,,,,125,,,0.2,766.7287180605344,Y,l,go,None,0,,767.529471030226,,,,,,,,,,,,,,,,,2,001,2022-12-14_13h58.16.622,00_bat_bachelor,2022.2.4,59.89754251397818,
,,,,,,,,,,,,1,0,1,0,126,0,126,0,,,,,,,126,,,0.2,767.7293144243304,Y,None,nogo,d,0,0.4594714546110481,,,,,,,,,,,,,,,,,,2,001,2022-12-14_13h58.16.622,00_bat_bachelor,2022.2.4,59.89754251397818,
,,,,,,,,,,,,1,0,1,0,127,0,127,0,,,,,,,127,,,0.2,768.4128799999598,X,d,go,None,0,,,,,,,,,,,,,,,,,,,2,001,2022-12-14_13h58.16.622,00_bat_bachelor,2022.2.4,59.89754251397818,
,,,,,,,,,,,,1,0,1,0,128,0,128,0,,,,,,,128,,,0.2,769.4137682423461,Y,l,go,None,0,,,,,,,,,,,,,,,,,,,2,001,2022-12-14_13h58.16.622,00_bat_bachelor,2022.2.4,59.89754251397818,
,,,,,,,,,,,,1,0,1,0,129,0,129,0,,,,,,,129,,,0.2,770.414495030418,X,d,go,d,1,0.3027063636109233,,,,,,,,,,,,,,,,,,2,001,2022-12-14_13h58.16.622,00_bat_bachelor,2022.2.4,59.89754251397818,
,,,,,,,,,,,,1,0,1,0,130,0,130,0,,,,,,,130,,,0.2,770.9479408485349,X,None,nogo,l,0,0.7132324241101742,,,,,,,,,,,,,,,,,,2,001,2022-12-14_13h58.16.622,00_bat_bachelor,2022.2.4,59.89754251397818,
,,,,,,,,,,,,1,0,1,0,131,0,131,0,,,,,,,131,,,0.2,771.8823020607233,Y,l,go,None,0,,,,,,,,,,,,,,,,,,,2,001,2022-12-14_13h58.16.622,00_bat_bachelor,2022.2.4,59.89754251397818,
,,,,,,,,,,,,1,0,1,0,132,0,132,0,,,,,,,132,,,0.2,772.8830482424237,X,d,go,None,0,,,,,,,,,,,,,,,,,,,2,001,2022-12-14_13h58.16.622,00_bat_bachelor,2022.2.4,59.89754251397818,
,,,,,,,,,,,,1,0,1,0,133,0,133,0,,,,,,,133,,,0.2,773.8836489696987,X,None,nogo,d,0,0.4980426060501486,,,,,,,,,,,,,,,,,,2,001,2022-12-14_13h58.16.622,00_bat_bachelor,2022.2.4,59.89754251397818,
,,,,,,,,,,,,1,0,1,0,134,0,134,0,,,,,,,134,,,0.2,774.6182278788183,Y,l,go,l,1,0.354287454392761,,,,,,,,,,,,,,,,,,2,001,2022-12-14_13h58.16.622,00_bat_bachelor,2022.2.4,59.89754251397818,
,,,,,,,,,,,,1,0,1,0,135,0,135,0,,,,,,,135,,,0.2,775.2188484848011,X,d,go,d,1,0.31377739389427006,,,,,,,,,,,,,,,,,,2,001,2022-12-14_13h58.16.622,00_bat_bachelor,2022.2.4,59.89754251397818,
,,,,,,,,,,,,1,0,1,0,136,0,136,0,,,,,,,136,,,0.2,775.752394181909,X,None,nogo,None,1,,776.5530065454077,,,,,,,,,,,,,,,,,2,001,2022-12-14_13h58.16.622,00_bat_bachelor,2022.2.4,59.89754251397818,
,,,,,,,,,,,,1,0,1,0,137,0,137,0,,,,,,,137,,,0.2,776.7534055758733,X,None,nogo,l,0,0.0762864847201854,,,,,,,,,,,,,,,,,,2,001,2022-12-14_13h58.16.622,00_bat_bachelor,2022.2.4,59.89754251397818,
,,,,,,,,,,,,1,0,1,0,138,0,138,0,,,,,,,138,,,0.2,777.0533784241416,Y,l,go,d,0,0.4326898786239326,,,,,,,,,,,,,,,,,,2,001,2022-12-14_13h58.16.622,00_bat_bachelor,2022.2.4,59.89754251397818,
,,,,,,,,,,,,1,0,1,0,139,0,139,0,,,,,,,139,,,0.2,777.7205692122225,X,d,go,None,0,,778.521600484848,,,,,,,,,,,,,,,,,2,001,2022-12-14_13h58.16.622,00_bat_bachelor,2022.2.4,59.89754251397818,
,,,,,,,,,,,,1,0,1,0,140,0,140,0,,,,,,,140,,,0.2,778.7214967273176,X,None,nogo,None,1,,779.5222783030476,,,,,,,,,,,,,,,,,2,001,2022-12-14_13h58.16.622,00_bat_bachelor,2022.2.4,59.89754251397818,
,,,,,,,,,,,,1,0,1,0,141,0,141,0,,,,,,,141,,,0.2,779.722097939346,Y,l,go,None,0,,780.5231015756726,,,,,,,,,,,,,,,,,2,001,2022-12-14_13h58.16.622,00_bat_bachelor,2022.2.4,59.89754251397818,
,,,,,,,,,,,,1,0,1,0,142,0,142,0,,,,,,,142,,,0.2,780.7230104242917,X,d,go,None,0,,781.5237905455288,,,,,,,,,,,,,,,,,2,001,2022-12-14_13h58.16.622,00_bat_bachelor,2022.2.4,59.89754251397818,
,,,,,,,,,,,,1,0,1,0,143,0,143,0,,,,,,,143,,,0.2,781.7238744243514,X,None,nogo,None,1,,782.5242753939237,,,,,,,,,,,,,,,,,2,001,2022-12-14_13h58.16.622,00_bat_bachelor,2022.2.4,59.89754251397818,
,,,,,,,,,,,,1,0,1,0,144,0,144,0,,,,,,,144,,,0.2,782.7243490908295,Y,l,go,None,0,,783.5251961213071,,,,,,,,,,,,,,,,,2,001,2022-12-14_13h58.16.622,00_bat_bachelor,2022.2.4,59.89754251397818,
,,,,,,,,,,,,1,0,1,0,145,0,145,0,,,,,,,145,,,0.2,783.7254176968709,X,d,go,None,0,,784.5257910303771,,,,,,,,,,,,,,,,,2,001,2022-12-14_13h58.16.622,00_bat_bachelor,2022.2.4,59.89754251397818,
,,,,,,,,,,,,1,0,1,0,146,0,146,0,,,,,,,146,,,0.2,784.7259064242244,Y,l,go,l,1,0.4236338788177818,,,,,,,,,,,,,,,,,,2,001,2022-12-14_13h58.16.622,00_bat_bachelor,2022.2.4,59.89754251397818,
,,,,,,,,,,,,1,0,1,0,147,0,147,0,,,,,,,147,,,0.2,785.376606545411,Y,None,nogo,d,0,0.09270442416891456,,,,,,,,,,,,,,,,,,2,001,2022-12-14_13h58.16.622,00_bat_bachelor,2022.2.4,59.89754251397818,
,,,,,,,,,,,,1,0,1,0,148,0,148,0,,,,,,,148,,,0.2,785.6935112727806,X,d,go,l,0,0.12734587886370718,,,,,,,,,,,,,,,,,,2,001,2022-12-14_13h58.16.622,00_bat_bachelor,2022.2.4,59.89754251397818,
,,,,,,,,,,,,1,0,1,0,149,0,149,0,,,,,,,149,,,0.2,786.0604756362736,Y,l,go,d,0,0.03303218190558255,,,,,,,,,,,,,,,,,,2,001,2022-12-14_13h58.16.622,00_bat_bachelor,2022.2.4,59.89754251397818,
,,,,,,,,,,,,1,0,1,0,150,0,150,0,,,,,,,150,,,0.2,786.310442666756,Y,None,nogo,None,1,,787.1113532120362,,,,,,,,,,,,,,,,,2,001,2022-12-14_13h58.16.622,00_bat_bachelor,2022.2.4,59.89754251397818,
,,,,,,,,,,,,1,0,1,0,151,0,151,0,,,,,,,151,,,0.2,787.3111728485674,X,d,go,l,0,0.17382103018462658,,,,,,,,,,,,,,,,,,2,001,2022-12-14_13h58.16.622,00_bat_bachelor,2022.2.4,59.89754251397818,
,,,,,,,,,,,,1,0,1,0,152,0,152,0,,,,,,,152,,,0.2,787.7116974545643,Y,l,go,d,0,0.23728187871165574,,,,,,,,,,,,,,,,,,2,001,2022-12-14_13h58.16.622,00_bat_bachelor,2022.2.4,59.89754251397818,
,,,,,,,,,,,,1,0,1,0,153,0,153,0,,,,,,,153,,,0.2,788.1787180607207,Y,None,nogo,l,0,0.44256284832954407,,,,,,,,,,,,,,,,,,2,001,2022-12-14_13h58.16.622,00_bat_bachelor,2022.2.4,59.89754251397818,
,,,,,,,,,,,,1,0,1,0,154,0,154,0,,,,,,,154,,,0.2,788.8448465454858,X,d,go,d,1,0.12846539402380586,,,,,,,,,,,,,,,,,,2,001,2022-12-14_13h58.16.622,00_bat_bachelor,2022.2.4,59.89754251397818,
,,,,,,,,,,,,1,0,1,0,155,0,155,0,,,,,,,155,,,0.2,789.195117575815,Y,l,go,l,1,0.2905483029317111,,,,,,,,,,,,,,,,,,2,001,2022-12-14_13h58.16.622,00_bat_bachelor,2022.2.4,59.89754251397818,
,,,,,,,,,,,,1,0,1,0,156,0,156,0,,,,,,,156,,,0.2,789.7123776969966,Y,None,nogo,None,1,,,,,,,,,,,,,,,,,,,2,001,2022-12-14_13h58.16.622,00_bat_bachelor,2022.2.4,59.89754251397818,
,,,,,,,,,,,,1,0,1,0,157,0,157,0,,,,,,,157,,,0.2,790.7133517574985,X,d,go,l,0,0.4197899999562651,,,,,,,,,,,,,,,,,,2,001,2022-12-14_13h58.16.622,00_bat_bachelor,2022.2.4,59.89754251397818,
,,,,,,,,,,,,1,0,1,0,158,0,158,0,,,,,,,158,,,0.2,791.3634695757646,Y,l,go,d,0,0.13740939390845597,,,,,,,,,,,,,,,,,,2,001,2022-12-14_13h58.16.622,00_bat_bachelor,2022.2.4,59.89754251397818,
,,,,,,,,,,,,1,0,1,0,159,0,159,0,,,,,,,159,,,0.2,791.7307592728175,Y,None,nogo,l,0,0.31433836347423494,,,,,,,,,,,,,,,,,,2,001,2022-12-14_13h58.16.622,00_bat_bachelor,2022.2.4,59.89754251397818,
,,,,,,,,,,,,1,0,1,0,160,0,160,0,,,,,,,160,,,0.2,792.264491636306,Y,None,nogo,d,0,0.19640236347913742,,,,,,,,,,,,,,,,,,2,001,2022-12-14_13h58.16.622,00_bat_bachelor,2022.2.4,59.89754251397818,
,,,,,,,,,,,,1,0,1,0,161,0,161,0,,,,,,,161,,,0.2,792.6814026667271,X,d,go,l,0,0.5152973940130323,,,,,,,,,,,,,,,,,,2,001,2022-12-14_13h58.16.622,00_bat_bachelor,2022.2.4,59.89754251397818,
,,,,,,,,,,,,1,0,1,0,162,0,162,0,,,,,,,162,,,0.2,793.4154734546319,Y,l,go,None,0,,794.2159699394833,,,,,,,,,,,,,,,,,2,001,2022-12-14_13h58.16.622,00_bat_bachelor,2022.2.4,59.89754251397818,
,,,,,,,,,,,,1,0,1,0,163,0,163,0,,,,,,,163,,,0.2,794.4158152728342,X,d,go,None,0,,,,,,,,,,,,,,,,,,,2,001,2022-12-14_13h58.16.622,00_bat_bachelor,2022.2.4,59.89754251397818,
,,,,,,,,,,,,1,0,1,0,164,0,164,0,,,,,,,164,,,0.2,795.4166695757303,Y,l,go,None,0,,796.2174283636268,,,,,,,,,,,,,,,,,2,001,2022-12-14_13h58.16.622,00_bat_bachelor,2022.2.4,59.89754251397818,
,,,,,,,,,,,,1,0,1,0,165,0,165,0,,,,,,,165,,,0.2,796.4177750302479,X,d,go,d,1,0.6989662423729897,,,,,,,,,,,,,,,,,,2,001,2022-12-14_13h58.16.622,00_bat_bachelor,2022.2.4,59.89754251397818,
,,,,,,,,,,,,1,0,1,0,166,0,166,0,,,,,,,166,,,0.2,797.3349517576862,Y,l,go,l,1,0.008647697046399117,,,,,,,,,,,,,,,,,,2,001,2022-12-14_13h58.16.622,00_bat_bachelor,2022.2.4,59.89754251397818,
,,,,,,,,,,,,1,0,1,0,167,0,167,0,,,,,,,167,,,0.2,797.5682341817301,Y,None,nogo,d,0,0.4926520606968552,,,,,,,,,,,,,,,,,,2,001,2022-12-14_13h58.16.622,00_bat_bachelor,2022.2.4,59.89754251397818,
,,,,,,,,,,,,1,0,1,0,168,0,168,0,,,,,,,168,,,0.2,798.2856683635619,X,d,go,l,0,0.28738272725604475,,,,,,,,,,,,,,,,,,2,001,2022-12-14_13h58.16.622,00_bat_bachelor,2022.2.4,59.89754251397818,
,,,,,,,,,,,,1,0,1,0,169,0,169,0,,,,,,,169,,,0.2,798.8027437576093,Y,l,go,d,0,0.20217739371582866,,,,,,,,,,,,,,,,,,2,001,2022-12-14_13h58.16.622,00_bat_bachelor,2022.2.4,59.89754251397818,
,,,,,,,,,,,,1,0,1,0,170,0,170,0,,,,,,,170,,,0.2,799.2364407272544,X,d,go,l,0,0.21687557571567595,,,,,,,,,,,,,,,,,,2,001,2022-12-14_13h58.16.622,00_bat_bachelor,2022.2.4,59.89754251397818,
,,,,,,,,,,,,1,0,1,0,171,0,171,0,,,,,,,171,,,0.2,799.6702317576855,Y,l,go,None,0,,,,,,,,,,,,,,,,,,,2,001,2022-12-14_13h58.16.622,00_bat_bachelor,2022.2.4,59.89754251397818,
,,,,,,,,,,,,1,0,1,0,172,0,172,0,,,,,,,172,,,0.2,800.6708533333149,Y,None,nogo,None,1,,,,,,,,,,,,,,,,,,,2,001,2022-12-14_13h58.16.622,00_bat_bachelor,2022.2.4,59.89754251397818,
,,,,,,,,,,,,1,0,1,0,173,0,173,0,,,,,,,173,,,0.2,801.6715316362679,X,d,go,None,0,,,,,,,,,,,,,,,,,,,2,001,2022-12-14_13h58.16.622,00_bat_bachelor,2022.2.4,59.89754251397818,
,,,,,,,,,,,,1,0,1,0,174,0,174,0,,,,,,,174,,,0.2,802.6724208483938,Y,l,go,None,0,,,,,,,,,,,,,,,,,,,2,001,2022-12-14_13h58.16.622,00_bat_bachelor,2022.2.4,59.89754251397818,
,,,,,,,,,,,,1,0,1,0,175,0,175,0,,,,,,,175,,,0.2,803.672976484755,Y,None,nogo,d,0,0.08435872732661664,,,,,,,,,,,,,,,,,,2,001,2022-12-14_13h58.16.622,00_bat_bachelor,2022.2.4,59.89754251397818,
,,,,,,,,,,,,1,0,1,0,176,0,176,0,,,,,,,176,,,0.2,803.9900087271817,Y,None,nogo,l,0,0.43878103024326265,,,,,,,,,,,,,,,,,,2,001,2022-12-14_13h58.16.622,00_bat_bachelor,2022.2.4,59.89754251397818,
,,,,,,,,,,,,1,0,1,0,177,0,177,0,,,,,,,177,,,0.2,804.6571873938665,X,d,go,None,0,,,,,,,,,,,,,,,,,,,2,001,2022-12-14_13h58.16.622,00_bat_bachelor,2022.2.4,59.89754251397818,
,,,,,,,,,,,,1,0,1,0,178,0,178,0,,,,,,,178,,,0.2,805.6580872726627,Y,l,go,d,0,0.2124106059782207,,,,,,,,,,,,,,,,,,2,001,2022-12-14_13h58.16.622,00_bat_bachelor,2022.2.4,59.89754251397818,
,,,,,,,,,,,,1,0,1,0,179,0,179,0,,,,,,,179,,,0.2,806.0916848485358,X,d,go,l,0,0.1466166665777564,,,,,,,,,,,,,,,,,,2,001,2022-12-14_13h58.16.622,00_bat_bachelor,2022.2.4,59.89754251397818,
,,,,,,,,,,,,1,0,1,0,180,0,180,0,,,,,,,180,,,0.2,806.4585658181459,Y,l,go,None,0,,,,,,,,,,,,,,,,,,,2,001,2022-12-14_13h58.16.622,00_bat_bachelor,2022.2.4,59.89754251397818,
,,,,,,,,,,,,1,0,1,0,181,0,181,0,,,,,,,181,,,0.2,807.4593376968987,Y,None,nogo,l,0,0.07403533323667943,,,,,,,,,,,,,,,,,,2,001,2022-12-14_13h58.16.622,00_bat_bachelor,2022.2.4,59.89754251397818,
,,,,,,,,,,,,1,0,1,0,182,0,182,0,,,,,,,182,,,0.2,807.7596741819289,X,d,go,d,1,0.5739019999746233,,,,,,,,,,,,,,,,,,2,001,2022-12-14_13h58.16.622,00_bat_bachelor,2022.2.4,59.89754251397818,
,,,,,,,,,,,,1,0,1,0,183,0,183,0,,,,,,,183,,,0.2,808.5600315150805,Y,l,go,l,1,0.6211102423258126,,,,,,,,,,,,,,,,,,2,001,2022-12-14_13h58.16.622,00_bat_bachelor,2022.2.4,59.89754251397818,
,,,,,,,,,,,,1,0,1,0,184,0,184,0,,,,,,,184,,,0.2,809.4109202423133,Y,None,nogo,None,1,,,,,,,,,,,,,,,,,,,2,001,2022-12-14_13h58.16.622,00_bat_bachelor,2022.2.4,59.89754251397818,
,,,,,,,,,,,,1,0,1,0,185,0,185,0,,,,,,,185,,,0.2,810.4114797576331,X,d,go,None,0,,,,,,,,,,,,,,,,,,,2,001,2022-12-14_13h58.16.622,00_bat_bachelor,2022.2.4,59.89754251397818,
,,,,,,,,,,,,1,0,1,0,186,0,186,0,,,,,,,186,,,0.2,811.4121357575059,Y,l,go,d,0,0.15313254529610276,,,,,,,,,,,,,,,,,,2,001,2022-12-14_13h58.16.622,00_bat_bachelor,2022.2.4,59.89754251397818,
,,,,,,,,,,,,1,0,1,0,187,0,187,0,,,,,,,187,,,0.2,811.7957667878363,X,d,go,l,0,0.21804842399433255,,,,,,,,,,,,,,,,,,2,001,2022-12-14_13h58.16.622,00_bat_bachelor,2022.2.4,59.89754251397818,
,,,,,,,,,,,,1,0,1,0,188,0,188,0,,,,,,,188,,,0.2,812.2463272726163,Y,l,go,None,0,,,,,,,,,,,,,,,,,,,2,001,2022-12-14_13h58.16.622,00_bat_bachelor,2022.2.4,59.89754251397818,
,,,,,,,,,,,,1,0,1,0,189,0,189,0,,,,,,,189,,,0.2,813.2468373333104,X,d,go,d,1,0.1420813938602805,,,,,,,,,,,,,,,,,,2,001,2022-12-14_13h58.16.622,00_bat_bachelor,2022.2.4,59.89754251397818,
,,,,,,,,,,,,1,0,1,0,190,0,190,0,,,,,,,190,,,0.2,813.6139631515834,X,None,nogo,l,0,0.22362418193370104,,,,,,,,,,,,,,,,,,2,001,2022-12-14_13h58.16.622,00_bat_bachelor,2022.2.4,59.89754251397818,
,,,,,,,,,,,,1,0,1,0,191,0,191,0,,,,,,,191,,,0.2,814.0644179394003,Y,l,go,d,0,0.5411946058738977,,,,,,,,,,,,,,,,,,2,001,2022-12-14_13h58.16.622,00_bat_bachelor,2022.2.4,59.89754251397818,
,,,,,,,,,,,,1,0,1,0,192,0,192,0,,,,,,,192,,,0.2,814.8314060606062,X,d,go,None,0,,815.6318976969924,,,,,,,,,,,,,,,,,2,001,2022-12-14_13h58.16.622,00_bat_bachelor,2022.2.4,59.89754251397818,
,,,,,,,,,,,,1,0,1,0,193,0,193,0,,,,,,,193,,,0.2,815.8323355151806,Y,l,go,l,1,0.26169884856790304,,,,,,,,,,,,,,,,,,2,001,2022-12-14_13h58.16.622,00_bat_bachelor,2022.2.4,59.89754251397818,
,,,,,,,,,,,,1,0,1,0,194,0,194,0,,,,,,,194,,,0.2,816.3160824242514,X,d,go,d,1,0.4655921817757189,,,,,,,,,,,,,,,,,,2,001,2022-12-14_13h58.16.622,00_bat_bachelor,2022.2.4,59.89754251397818,
,,,,,,,,,,,,1,0,1,0,195,0,195,0,,,,,,,195,,,0.2,816.9999636362772,Y,l,go,l,1,0.38906612107530236,,,,,,,,,,,,,,,,,,2,001,2022-12-14_13h58.16.622,00_bat_bachelor,2022.2.4,59.89754251397818,
,,,,,,,,,,,,1,0,1,0,196,0,196,0,,,,,,,196,,,0.2,817.6171039999463,Y,None,nogo,d,0,0.3320552119985223,,,,,,,,,,,,,,,,,,2,001,2022-12-14_13h58.16.622,00_bat_bachelor,2022.2.4,59.89754251397818,
,,,,,,,,,,,,1,0,1,0,197,0,197,0,,,,,,,197,,,0.2,818.1674928485882,X,d,go,l,0,0.2773807877674699,,,,,,,,,,,,,,,,,,2,001,2022-12-14_13h58.16.622,00_bat_bachelor,2022.2.4,59.89754251397818,
,,,,,,,,,,,,1,0,1,0,198,0,198,0,,,,,,,198,,,0.2,818.6680378182791,Y,l,go,d,0,0.38521399977616966,,,,,,,,,,,,,,,,,,2,001,2022-12-14_13h58.16.622,00_bat_bachelor,2022.2.4,59.89754251397818,
,,,,,,,,,,,,1,0,1,0,199,0,199,0,,,,,,,199,,,0.2,819.2850118787028,X,d,go,l,0,0.19948066677898169,,,,,,,,,,,,,,,,,,2,001,2022-12-14_13h58.16.622,00_bat_bachelor,2022.2.4,59.89754251397818,
,,,,,,,,,,,,1,0,1,0,200,0,200,0,,,,,,,200,,,0.2,819.7020615758374,Y,l,go,d,0,0.3746767877601087,,,,,,,,,,,,,,,,,,2,001,2022-12-14_13h58.16.622,00_bat_bachelor,2022.2.4,59.89754251397818,
,,,,,,,,,,,,1,0,1,0,201,0,201,0,,,,,,,201,,,0.2,820.302472242387,Y,None,nogo,l,0,0.7511776364408433,,,,,,,,,,,,,,,,,,2,001,2022-12-14_13h58.16.622,00_bat_bachelor,2022.2.4,59.89754251397818,
,,,,,,,,,,,,1,0,1,0,202,0,202,0,,,,,,,202,,,0.2,821.2866070303135,X,d,go,d,1,0.4068464848678559,,,,,,,,,,,,,,,,,,2,001,2022-12-14_13h58.16.622,00_bat_bachelor,2022.2.4,59.89754251397818,
,,,,,,,,,,,,1,0,1,0,203,0,203,0,,,,,,,203,,,0.2,821.9201003636699,Y,l,go,l,1,0.5574617576785386,,,,,,,,,,,,,,,,,,2,001,2022-12-14_13h58.16.622,00_bat_bachelor,2022.2.4,59.89754251397818,
,,,,,,,,,,,,1,0,1,0,204,0,204,0,,,,,,,204,,,0.2,822.7041343031451,Y,None,nogo,d,0,0.6056178789585829,,,,,,,,,,,,,,,,,,2,001,2022-12-14_13h58.16.622,00_bat_bachelor,2022.2.4,59.89754251397818,
,,,,,,,,,,,,1,0,1,0,205,0,205,0,,,,,,,205,,,0.2,823.5380955152214,Y,None,nogo,l,0,0.1868203030899167,,,,,,,,,,,,,,,,,,2,001,2022-12-14_13h58.16.622,00_bat_bachelor,2022.2.4,59.89754251397818,
,,,,,,,,,,,,1,0,1,0,206,0,206,0,,,,,,,206,,,0.2,823.9552523635793,X,d,go,d,1,0.6012086665723473,,,,,,,,,,,,,,,,,,2,001,2022-12-14_13h58.16.622,00_bat_bachelor,2022.2.4,59.89754251397818,
,,,,,,,,,,,,1,0,1,0,207,0,207,0,,,,,,,207,,,0.2,824.7892736969516,Y,l,go,None,0,,,,,,,,,,,,,,,,,,,2,001,2022-12-14_13h58.16.622,00_bat_bachelor,2022.2.4,59.89754251397818,
,,,,,,,,,,,,1,0,1,0,208,0,208,0,,,,,,,208,,,0.2,825.7898235151079,Y,None,nogo,l,0,0.2236523029860109,,,,,,,,,,,,,,,,,,2,001,2022-12-14_13h58.16.622,00_bat_bachelor,2022.2.4,59.89754251397818,
,,,,,,,,,,,,1,0,1,0,209,0,209,0,,,,,,,209,,,0.2,826.2403020604979,X,d,go,None,0,,,,,,,,,,,,,,,,,,,2,001,2022-12-14_13h58.16.622,00_bat_bachelor,2022.2.4,59.89754251397818,
,,,,,,,,,,,,1,0,1,0,210,0,210,0,,,,,,,210,,,0.2,827.2412218181416,Y,l,go,None,0,,,,,,,,,,,,,,,,,,,2,001,2022-12-14_13h58.16.622,00_bat_bachelor,2022.2.4,59.89754251397818,
,,,,,,,,,,,,1,0,1,0,211,0,211,0,,,,,,,211,,,0.2,828.2421503029764,X,d,go,None,0,,,,,,,,,,,,,,,,,,,2,001,2022-12-14_13h58.16.622,00_bat_bachelor,2022.2.4,59.89754251397818,
,,,,,,,,,,,,1,0,1,0,212,0,212,0,,,,,,,212,,,0.2,829.2426850909833,Y,l,go,d,0,0.46632333332672715,,,,,,,,,,,,,,,,,,2,001,2022-12-14_13h58.16.622,00_bat_bachelor,2022.2.4,59.89754251397818,
,,,,,,,,,,,,1,0,1,0,213,0,213,0,,,,,,,213,,,0.2,829.9264484848827,X,d,go,l,0,0.023085030261427164,,,,,,,,,,,,,,,,,,2,001,2022-12-14_13h58.16.622,00_bat_bachelor,2022.2.4,59.89754251397818,
,,,,,,,,,,,,1,0,1,0,214,0,214,0,,,,,,,214,,,0.2,830.1767350302543,Y,l,go,None,0,,,,,,,,,,,,,,,,,,,2,001,2022-12-14_13h58.16.622,00_bat_bachelor,2022.2.4,59.89754251397818,
,,,,,,,,,,,,1,0,1,0,215,0,215,0,,,,,,,215,,,0.2,831.1774545453954,X,d,go,None,0,,831.9781532122288,,,,,,,,,,,,,,,,,2,001,2022-12-14_13h58.16.622,00_bat_bachelor,2022.2.4,59.89754251397818,
,,,,,,,,,,,,1,0,1,0,216,0,216,0,,,,,,,216,,,0.2,832.1782526059542,Y,l,go,l,1,0.18643339397385716,,,,,,,,,,,,,,,,,,2,001,2022-12-14_13h58.16.622,00_bat_bachelor,2022.2.4,59.89754251397818,
,,,,,,,,,,,,1,0,1,0,217,0,217,0,,,,,,,217,,,0.2,832.5953313938808,X,d,go,d,1,0.32918733335100114,,,,,,,,,,,,,,,,,,2,001,2022-12-14_13h58.16.622,00_bat_bachelor,2022.2.4,59.89754251397818,
,,,,,,,,,,,,1,0,1,0,218,0,218,0,,,,,,,218,,,0.2,833.1456150303129,X,None,nogo,l,0,0.30712139373645186,,,,,,,,,,,,,,,,,,2,001,2022-12-14_13h58.16.622,00_bat_bachelor,2022.2.4,59.89754251397818,
,,,,,,,,,,,,1,0,1,0,219,0,219,0,,,,,,,219,,,0.2,833.6794356363826,Y,l,go,d,0,0.18957278784364462,,,,,,,,,,,,,,,,,,2,001,2022-12-14_13h58.16.622,00_bat_bachelor,2022.2.4,59.89754251397818,
,,,,,,,,,,,,1,0,1,0,220,0,220,0,,,,,,,220,,,0.2,834.0963078788482,X,d,go,l,0,0.17243000003509223,,,,,,,,,,,,,,,,,,2,001,2022-12-14_13h58.16.622,00_bat_bachelor,2022.2.4,59.89754251397818,
,,,,,,,,,,,,1,0,1,0,221,0,221,0,,,,,,,221,,,0.2,834.4968164849561,Y,l,go,d,0,0.07736430293880403,,,,,,,,,,,,,,,,,,2,001,2022-12-14_13h58.16.622,00_bat_bachelor,2022.2.4,59.89754251397818,
,,,,,,,,,,,,1,0,1,0,222,0,222,0,,,,,,,222,,,0.2,834.7966118787881,X,d,go,l,0,0.04927557590417564,,,,,,,,,,,,,,,,,,2,001,2022-12-14_13h58.16.622,00_bat_bachelor,2022.2.4,59.89754251397818,
,,,,,,,,,,,,1,0,1,0,223,0,223,0,,,,,,,223,,,0.2,835.0640189091209,Y,l,go,d,0,0.10135799995623529,,,,,,,,,,,,,,,,,,2,001,2022-12-14_13h58.16.622,00_bat_bachelor,2022.2.4,59.89754251397818,
,,,,,,,,,,,,1,0,1,0,224,0,224,0,,,,,,,224,,,0.2,835.3972993940115,Y,None,nogo,l,0,0.007864181883633137,,,,,,,,,,,,,,,,,,2,001,2022-12-14_13h58.16.622,00_bat_bachelor,2022.2.4,59.89754251397818,
,,,,,,,,,,,,1,0,1,0,225,0,225,0,,,,,,,225,,,0.2,835.6308543030173,X,d,go,d,1,0.04725812119431794,,,,,,,,,,,,,,,,,,2,001,2022-12-14_13h58.16.622,00_bat_bachelor,2022.2.4,59.89754251397818,
,,,,,,,,,,,,1,0,1,0,226,0,226,0,,,,,,,226,,,0.2,835.8977517576423,Y,l,go,l,1,0.0034632121678441763,,,,,,,,,,,,,,,,,,2,001,2022-12-14_13h58.16.622,00_bat_bachelor,2022.2.4,59.89754251397818,
,,,,,,,,,,,,1,0,1,0,227,0,227,0,,,,,,,227,,,0.2,836.1311583030038,X,d,go,d,1,0.02717230306006968,,,,,,,,,,,,,,,,,,2,001,2022-12-14_13h58.16.622,00_bat_bachelor,2022.2.4,59.89754251397818,
,,,,,,,,,,,,1,0,1,0,228,0,228,0,,,,,,,228,,,0.2,836.3814060606528,Y,l,go,l,1,0.01581278769299388,,,,,,,,,,,,,,,,,,2,001,2022-12-14_13h58.16.622,00_bat_bachelor,2022.2.4,59.89754251397818,
,,,,,,,,,,,,1,0,1,0,229,0,229,0,,,,,,,229,,,0.2,836.6149173332378,X,d,go,l,0,0.23098563635721803,,,,,,,,,,,,,,,,,,2,001,2022-12-14_13h58.16.622,00_bat_bachelor,2022.2.4,59.89754251397818,
,,,,,,,,,,,,1,0,1,0,230,0,230,0,,,,,,,230,,,0.2,837.0652969696093,X,None,nogo,l,0,0.2912600606214255,,,,,,,,,,,,,,,,,,2,001,2022-12-14_13h58.16.622,00_bat_bachelor,2022.2.4,59.89754251397818,
,,,,,,,,,,,,1,0,1,0,231,0,231,0,,,,,,,231,,,0.2,837.5823340606876,Y,l,go,None,0,,838.3829614545684,,,,,,,,,,,,,,,,,2,001,2022-12-14_13h58.16.622,00_bat_bachelor,2022.2.4,59.89754251397818,
,,,,,,,,,,,,1,0,1,0,232,0,232,0,,,,,,,232,,,0.2,838.5828383029439,X,d,go,None,0,,,,,,,,,,,,,,,,,,,2,001,2022-12-14_13h58.16.622,00_bat_bachelor,2022.2.4,59.89754251397818,
,,,,,,,,,,,,1,0,1,0,233,0,233,0,,,,,,,233,,,0.2,839.583682424156,Y,l,go,None,0,,840.3844722423237,,,,,,,,,,,,,,,,,2,001,2022-12-14_13h58.16.622,00_bat_bachelor,2022.2.4,59.89754251397818,
,,,,,,,,,,,,1,0,1,0,234,0,234,0,,,,,,,234,,,0.2,840.5846909091342,Y,None,nogo,None,1,,,,,,,,,,,,,,,,,,,2,001,2022-12-14_13h58.16.622,00_bat_bachelor,2022.2.4,59.89754251397818,
,,,,,,,,,,,,1,0,1,0,235,0,235,0,,,,,,,235,,,0.2,841.5854336968623,X,d,go,d,1,0.46038442431017756,,,,,,,,,,,,,,,,,,2,001,2022-12-14_13h58.16.622,00_bat_bachelor,2022.2.4,59.89754251397818,
,,,,,,,,,,,,1,0,1,0,236,0,236,0,,,,,,,236,,,0.2,842.2691922425292,Y,l,go,l,1,0.14416090911254287,,,,,,,,,,,,,,,,,,2,001,2022-12-14_13h58.16.622,00_bat_bachelor,2022.2.4,59.89754251397818,
,,,,,,,,,,,,1,0,1,0,237,0,237,0,,,,,,,237,,,0.2,842.6362429091241,X,d,go,None,0,,,,,,,,,,,,,,,,,,,2,001,2022-12-14_13h58.16.622,00_bat_bachelor,2022.2.4,59.89754251397818,
,,,,,,,,,,,,1,0,1,0,238,0,238,0,,,,,,,238,,,0.2,843.6369163636118,Y,l,go,None,0,,,,,,,,,,,,,,,,,,,2,001,2022-12-14_13h58.16.622,00_bat_bachelor,2022.2.4,59.89754251397818,
,,,,,,,,,,,,1,0,1,0,239,0,239,0,,,,,,,239,,,0.2,844.6377973333001,X,d,go,l,0,0.35120624233968556,,,,,,,,,,,,,,,,,,2,001,2022-12-14_13h58.16.622,00_bat_bachelor,2022.2.4,59.89754251397818,
,,,,,,,,,,,,1,0,1,0,240,0,240,0,,,,,,,240,,,0.2,845.2213793939445,Y,l,go,None,0,,,,,,,,,,,,,,,,,,,2,001,2022-12-14_13h58.16.622,00_bat_bachelor,2022.2.4,59.89754251397818,
,,,,,,,,,,,,1,0,1,0,241,0,241,0,,,,,,,241,,,0.2,846.222084848443,X,d,go,d,1,0.5279630909208208,,,,,,,,,,,,,,,,,,2,001,2022-12-14_13h58.16.622,00_bat_bachelor,2022.2.4,59.89754251397818,
,,,,,,,,,,,,1,0,1,0,242,0,242,0,,,,,,,242,,,0.2,846.972815999994,Y,l,go,l,1,0.5134035756345838,,,,,,,,,,,,,,,,,,2,001,2022-12-14_13h58.16.622,00_bat_bachelor,2022.2.4,59.89754251397818,
,,,,,,,,,,,,1,0,1,0,243,0,243,0,,,,,,,243,,,0.2,847.706456242362,X,d,go,d,1,0.33819824247621,,,,,,,,,,,,,,,,,,2,001,2022-12-14_13h58.16.622,00_bat_bachelor,2022.2.4,59.89754251397818,
,,,,,,,,,,,,1,0,1,0,244,0,244,0,,,,,,,244,,,0.2,848.2736950302497,Y,l,go,l,1,0.33142490894533694,,,,,,,,,,,,,,,,,,2,001,2022-12-14_13h58.16.622,00_bat_bachelor,2022.2.4,59.89754251397818,
,,,,,,,,,,,,1,0,1,0,245,0,245,0,,,,,,,245,,,0.2,848.8242603635881,X,d,go,d,1,0.4689977574162185,,,,,,,,,,,,,,,,,,2,001,2022-12-14_13h58.16.622,00_bat_bachelor,2022.2.4,59.89754251397818,
,,,,,,,,,,,,1,0,1,0,246,0,246,0,,,,,,,246,,,0.2,849.5245192728471,Y,l,go,l,1,0.4417381212115288,,,,,,,,,,,,,,,,,,2,001,2022-12-14_13h58.16.622,00_bat_bachelor,2022.2.4,59.89754251397818,
,,,,,,,,,,,,1,0,1,0,247,0,247,0,,,,,,,247,,,0.2,850.1919127271976,X,d,go,None,0,,,,,,,,,,,,,,,,,,,2,001,2022-12-14_13h58.16.622,00_bat_bachelor,2022.2.4,59.89754251397818,
,,,,,,,,,,,,1,0,1,0,248,0,248,0,,,,,,,248,,,0.2,851.1924397575203,Y,l,go,l,1,0.3403194546699524,,,,,,,,,,,,,,,,,,2,001,2022-12-14_13h58.16.622,00_bat_bachelor,2022.2.4,59.89754251397818,
