loop_instruction.thisRepN;loop_instruction.thisTrialN;loop_instruction.thisN;loop_instruction.thisIndex;loop_rsi_practice.thisRepN;loop_rsi_practice.thisTrialN;loop_rsi_practice.thisN;loop_rsi_practice.thisIndex;loop_practice.thisRepN;loop_practice.thisTrialN;loop_practice.thisN;loop_practice.thisIndex;loop_exp.thisRepN;loop_exp.thisTrialN;loop_exp.thisN;loop_exp.thisIndex;loop_trials.thisRepN;loop_trials.thisTrialN;loop_trials.thisN;loop_trials.thisIndex;map_condition;map_x_key;map_y_key;key_resp_welcome.started;key_resp_welcome.keys;key_resp_welcome.rt;index;text_empty_rsi_practice.started;text_empty_rsi_practice.stopped;rsi;stimulus.started;stimulus;correct;trial_type;key_resp_trial.keys;key_resp_trial.corr;stimulus.stopped;key_resp_trial.rt;key_resp_instruction_rsi.started;key_resp_instruction_rsi.keys;key_resp_instruction_rsi.rt;key_resp_instruction_rsi.stopped;key_resp_instruction_final.started;key_resp_instruction_final.keys;key_resp_instruction_final.rt;key_resp_break.started;key_resp_break.keys;key_resp_break.rt;key_resp_break.stopped;key_resp_end_screen.started;image_end_screen.started;key_resp_end_screen.stopped;image_end_screen.stopped;key_resp_end_screen.keys;participant;session;Alter;Geschlecht (w/m/d/andere);Studiengang;date;expName;psychopyVersion;frameRate
;;;;0;0;0;0;0;0;0;0;;;;;;;;;0;d;l;11.885.357.141.644.900;j;17.277.627.830.044.300;0;1.205.841.750.864.630;1.206.856.066.494.010;1;1.206.856.066.494.010;X;d;go;None;0;;;;;;;;;;;;;;;;;;;33;1;21;w;Psychologie;2023-01-17_14h59.38.704;00_bat_bachelor;04/02/2022;6.000.369.477.484.890
;;;;0;0;0;0;1;0;1;0;;;;;;;;;;;;;;;1;12.082.571.538.147.100;12.092.578.878.749.600;1;12.092.578.878.749.600;Y;l;go;None;0;12.100.585.973.049.100;;;;;;;;;;;;;;;;;;33;1;21;w;Psychologie;2023-01-17_14h59.38.704;00_bat_bachelor;04/02/2022;6.000.369.477.484.890
;;;;0;0;0;0;2;0;2;0;;;;;;;;;;;;;;;2;12.106.589.989.532.300;12.116.597.596.801.000;1;12.116.597.596.801.000;X;d;go;d;1;;0.5346759479143657;;;;;;;;;;;;;;;;;33;1;21;w;Psychologie;2023-01-17_14h59.38.704;00_bat_bachelor;04/02/2022;6.000.369.477.484.890
;;;;0;0;0;0;3;0;3;0;;;;;;;;;;;;;;;3;12.129.108.315.584.000;1.213.911.504.042.910;1;1.213.911.504.042.910;Y;l;go;l;1;;0.36236378899775445;;;;;;;;;;;;;;;;;33;1;21;w;Psychologie;2023-01-17_14h59.38.704;00_bat_bachelor;04/02/2022;6.000.369.477.484.890
;;;;0;0;0;0;4;0;4;0;;;;;;;;;;;;;;;4;12.149.789.881.313.900;12.159.797.246.159.200;1;12.159.797.246.159.200;X;d;go;None;0;12.167.804.548.943.500;;;;;;;;;;;;;;;;;;33;1;21;w;Psychologie;2023-01-17_14h59.38.704;00_bat_bachelor;04/02/2022;6.000.369.477.484.890
;;;;0;0;0;0;5;0;5;0;;;;;;;;;;;;;;;5;12.173.808.618.759.500;12.183.816.177.544.000;1;12.183.816.177.544.000;X;None;nogo;None;1;;;;;;;;;;;;;;;;;;;33;1;21;w;Psychologie;2023-01-17_14h59.38.704;00_bat_bachelor;04/02/2022;6.000.369.477.484.890
;;;;0;0;0;0;6;0;6;0;;;;;;;;;;;;;;;6;12.197.826.362.266.200;12.207.831.181.657.900;1;12.207.831.181.657.900;Y;l;go;l;1;;0.3076219973154366;;;;;;;;;;;;;;;;;33;1;21;w;Psychologie;2023-01-17_14h59.38.704;00_bat_bachelor;04/02/2022;6.000.369.477.484.890
;;;;0;0;0;0;7;0;7;0;;;;;;;;;;;;;;;7;1.221.800.601.308.810;12.228.016.296.719.400;1;12.228.016.296.719.400;X;d;go;d;1;;0.5128393524209969;;;;;;;;;;;;;;;;;33;1;21;w;Psychologie;2023-01-17_14h59.38.704;00_bat_bachelor;04/02/2022;6.000.369.477.484.890
;;;;0;0;0;0;8;0;8;0;;;;;;;;;;;;;;;8;12.240.191.548.998.100;12.250.199.839.903.500;1;12.250.199.839.903.500;Y;l;go;l;1;;0.5816815008292906;;;;;;;;;;;;;;;;;33;1;21;w;Psychologie;2023-01-17_14h59.38.704;00_bat_bachelor;04/02/2022;6.000.369.477.484.890
;;;;0;0;0;0;9;0;9;0;;;;;;;;;;;;;;;9;12.263.042.471.252.200;1.227.305.162.033.880;1;1.227.305.162.033.880;X;d;go;d;1;;0.4086827968712896;;;;;;;;;;;;;;;;;33;1;21;w;Psychologie;2023-01-17_14h59.38.704;00_bat_bachelor;04/02/2022;6.000.369.477.484.890
;;;;0;0;0;0;10;0;10;0;;;;;;;;;;;;;;;10;1.228.439.256.999.170;12.294.397.588.170.800;1;12.294.397.588.170.800;Y;l;go;l;1;;0.46629101131111383;;;;;;;;;;;;;;;;;33;1;21;w;Psychologie;2023-01-17_14h59.38.704;00_bat_bachelor;04/02/2022;6.000.369.477.484.890
;;;;0;0;0;0;11;0;11;0;;;;;;;;;;;;;;;11;1.230.607.504.190.290;12.316.083.982.504.700;1;12.316.083.982.504.700;X;d;go;d;1;;0.4101363718509674;;;;;;;;;;;;;;;;;33;1;21;w;Psychologie;2023-01-17_14h59.38.704;00_bat_bachelor;04/02/2022;6.000.369.477.484.890
;;;;0;0;0;0;12;0;12;0;;;;;;;;;;;;;;;12;12.327.255.603.754.800;1.233.726.537.829.550;1;1.233.726.537.829.550;Y;l;go;l;1;;0.35570245888084173;;;;;;;;;;;;;;;;;33;1;21;w;Psychologie;2023-01-17_14h59.38.704;00_bat_bachelor;04/02/2022;6.000.369.477.484.890
;;;;0;0;0;0;13;0;13;0;;;;;;;;;;;;;;;13;12.347.938.153.726.800;12.357.951.588.872.200;1;12.357.951.588.872.200;X;d;go;d;1;;0.57440926192794;;;;;;;;;;;;;;;;;33;1;21;w;Psychologie;2023-01-17_14h59.38.704;00_bat_bachelor;04/02/2022;6.000.369.477.484.890
;;;;0;0;0;0;14;0;14;0;;;;;;;;;;;;;;;14;12.370.794.588.705.700;12.380.802.995.974.600;1;12.380.802.995.974.600;Y;l;go;l;1;;0.38647868641419336;;;;;;;;;;;;;;;;;33;1;21;w;Psychologie;2023-01-17_14h59.38.704;00_bat_bachelor;04/02/2022;6.000.369.477.484.890
;;;;1;0;1;0;0;0;0;0;;;;;;;;;;;;;;;0;12.584.454.683.900.600;12.586.454.823.536.900;0.2;12.586.454.823.536.900;X;d;go;d;1;;0.5896722848992795;12.392.065.540.816.900;j;19.214.732.345.426.400;;;;;;;;;;;;;;33;1;21;w;Psychologie;2023-01-17_14h59.38.704;00_bat_bachelor;04/02/2022;6.000.369.477.484.890
;;;;1;0;1;0;1;0;1;0;;;;;;;;;;;;;;;1;12.599.466.671.773.600;1.260.146.812.534.890;0.2;1.260.146.812.534.890;Y;l;go;l;1;;0.3353465899708681;;;;;;;;;;;;;;;;;33;1;21;w;Psychologie;2023-01-17_14h59.38.704;00_bat_bachelor;04/02/2022;6.000.369.477.484.890
;;;;1;0;1;0;2;0;2;0;;;;;;;;;;;;;;;2;12.611.976.527.526.800;1.261.397.742.352.620;0.2;1.261.397.742.352.620;X;d;go;d;1;;0.4761659156647511;;;;;;;;;;;;;;;;;33;1;21;w;Psychologie;2023-01-17_14h59.38.704;00_bat_bachelor;04/02/2022;6.000.369.477.484.890
;;;;1;0;1;0;3;0;3;0;;;;;;;;;;;;;;;3;12.625.817.345.058.300;12.627.820.393.784.200;0.2;12.627.820.393.784.200;X;None;nogo;None;1;;;;;;;;;;;;;;;;;;;33;1;21;w;Psychologie;2023-01-17_14h59.38.704;00_bat_bachelor;04/02/2022;6.000.369.477.484.890
;;;;1;0;1;0;4;0;4;0;;;;;;;;;;;;;;;4;1.264.182.997.244.640;12.643.832.482.990.600;0.2;12.643.832.482.990.600;Y;l;go;l;1;;0.3229315656935796;;;;;;;;;;;;;;;;;33;1;21;w;Psychologie;2023-01-17_14h59.38.704;00_bat_bachelor;04/02/2022;6.000.369.477.484.890
;;;;1;0;1;0;5;0;5;0;;;;;;;;;;;;;;;5;12.654.173.612.521.800;12.656.175.056.400.200;0.2;12.656.175.056.400.200;X;d;go;d;1;;0.4807147619430907;;;;;;;;;;;;;;;;;33;1;21;w;Psychologie;2023-01-17_14h59.38.704;00_bat_bachelor;04/02/2022;6.000.369.477.484.890
;;;;1;0;1;0;6;0;6;0;;;;;;;;;;;;;;;6;12.668.016.931.870.900;12.670.017.701.809.900;0.2;12.670.017.701.809.900;Y;l;go;l;1;;0.45686847041361034;;;;;;;;;;;;;;;;;33;1;21;w;Psychologie;2023-01-17_14h59.38.704;00_bat_bachelor;04/02/2022;6.000.369.477.484.890
;;;;1;0;1;0;7;0;7;0;;;;;;;;;;;;;;;7;12.681.696.314.329.100;12.683.693.845.481.600;0.2;12.683.693.845.481.600;X;d;go;d;1;;0.4002634069765918;;;;;;;;;;;;;;;;;33;1;21;w;Psychologie;2023-01-17_14h59.38.704;00_bat_bachelor;04/02/2022;6.000.369.477.484.890
;;;;1;0;1;0;8;0;8;0;;;;;;;;;;;;;;;8;12.694.706.140.748.400;12.696.707.671.899.300;0.2;12.696.707.671.899.300;Y;l;go;l;1;;0.3795623261248693;;;;;;;;;;;;;;;;;33;1;21;w;Psychologie;2023-01-17_14h59.38.704;00_bat_bachelor;04/02/2022;6.000.369.477.484.890
;;;;1;0;1;0;9;0;9;0;;;;;;;;;;;;;;;9;12.707.548.486.037.400;12.709.550.720.218.100;0.2;12.709.550.720.218.100;X;d;go;d;1;;0.5840368936187588;;;;;;;;;;;;;;;;;33;1;21;w;Psychologie;2023-01-17_14h59.38.704;00_bat_bachelor;04/02/2022;6.000.369.477.484.890
;;;;1;0;1;0;10;0;10;0;;;;;;;;;;;;;;;10;12.722.394.083.687.600;12.724.392.628.173.200;0.2;12.724.392.628.173.200;Y;l;go;l;1;;0.31440502434270456;;;;;;;;;;;;;;;;;33;1;21;w;Psychologie;2023-01-17_14h59.38.704;00_bat_bachelor;04/02/2022;6.000.369.477.484.890
;;;;1;0;1;0;11;0;11;0;;;;;;;;;;;;;;;11;12.734.568.351.724.300;12.736.567.822.270.400;0.2;12.736.567.822.270.400;X;d;go;d;1;;0.4097712811199017;;;;;;;;;;;;;;;;;33;1;21;w;Psychologie;2023-01-17_14h59.38.704;00_bat_bachelor;04/02/2022;6.000.369.477.484.890
;;;;1;0;1;0;12;0;12;0;;;;;;;;;;;;;;;12;12.747.744.932.002.300;12.749.747.025.577.200;0.2;12.749.747.025.577.200;Y;l;go;l;1;;0.32383241376373917;;;;;;;;;;;;;;;;;33;1;21;w;Psychologie;2023-01-17_14h59.38.704;00_bat_bachelor;04/02/2022;6.000.369.477.484.890
;;;;1;0;1;0;13;0;13;0;;;;;;;;;;;;;;;13;12.760.088.271.472.400;12.762.087.388.078.700;0.2;12.762.087.388.078.700;X;d;go;d;1;;0.43335963337449357;;;;;;;;;;;;;;;;;33;1;21;w;Psychologie;2023-01-17_14h59.38.704;00_bat_bachelor;04/02/2022;6.000.369.477.484.890
;;;;1;0;1;0;14;0;14;0;;;;;;;;;;;;;;;14;12.773.431.038.336.700;12.775.433.500.395.700;0.2;12.775.433.500.395.700;Y;l;go;l;1;;0.3792917807586491;;;;;;;;;;;;;;;;;33;1;21;w;Psychologie;2023-01-17_14h59.38.704;00_bat_bachelor;04/02/2022;6.000.369.477.484.890
;;;;;;;;;;;;;;;;;;;;;;;;;;;;;;;;;;;;;;12.786.554.333.791.700;None;;12.786.554.333.791.700;12.786.554.333.791.700;space;859.768.294.764.217;;;;;;;;;;33;1;21;w;Psychologie;2023-01-17_14h59.38.704;00_bat_bachelor;04/02/2022;6.000.369.477.484.890
;;;;;;;;;;;;0;0;0;0;0;0;0;0;;;;;;;0;;;1;12.882.845.802.256.400;X;d;go;d;1;;0.30947363283485174;;;;;;;;;;;;;;;;;33;1;21;w;Psychologie;2023-01-17_14h59.38.704;00_bat_bachelor;04/02/2022;6.000.369.477.484.890
;;;;;;;;;;;;0;0;0;0;1;0;1;0;;;;;;;1;;;1;12.897.025.291.139.100;Y;l;go;l;1;;0.36299700080417097;;;;;;;;;;;;;;;;;33;1;21;w;Psychologie;2023-01-17_14h59.38.704;00_bat_bachelor;04/02/2022;6.000.369.477.484.890
;;;;;;;;;;;;0;0;0;0;2;0;2;0;;;;;;;2;;;1;12.911.703.877.961.800;X;d;go;d;1;;0.36808596801711246;;;;;;;;;;;;;;;;;33;1;21;w;Psychologie;2023-01-17_14h59.38.704;00_bat_bachelor;04/02/2022;6.000.369.477.484.890
;;;;;;;;;;;;0;0;0;0;3;0;3;0;;;;;;;3;;;1;12.926.548.394.400.700;X;None;nogo;None;1;;;;;;;;;;;;;;;;;;;33;1;21;w;Psychologie;2023-01-17_14h59.38.704;00_bat_bachelor;04/02/2022;6.000.369.477.484.890
;;;;;;;;;;;;0;0;0;0;4;0;4;0;;;;;;;4;;;1;12.944.563.028.090.600;Y;l;go;l;1;;0.2816903735511005;;;;;;;;;;;;;;;;;33;1;21;w;Psychologie;2023-01-17_14h59.38.704;00_bat_bachelor;04/02/2022;6.000.369.477.484.890
;;;;;;;;;;;;0;0;0;0;5;0;5;0;;;;;;;5;;;1;1.295.840.677.410.590;X;d;go;d;1;;0.4812020344543271;;;;;;;;;;;;;;;;;33;1;21;w;Psychologie;2023-01-17_14h59.38.704;00_bat_bachelor;04/02/2022;6.000.369.477.484.890
;;;;;;;;;;;;0;0;0;0;6;0;6;0;;;;;;;6;;;1;12.974.250.805.212.000;X;None;nogo;None;1;;;;;;;;;;;;;;;;;;;33;1;21;w;Psychologie;2023-01-17_14h59.38.704;00_bat_bachelor;04/02/2022;6.000.369.477.484.890
;;;;;;;;;;;;0;0;0;0;7;0;7;0;;;;;;;7;;;1;12.992.265.298.295.500;Y;l;go;l;1;;0.4238522440427914;;;;;;;;;;;;;;;;;33;1;21;w;Psychologie;2023-01-17_14h59.38.704;00_bat_bachelor;04/02/2022;6.000.369.477.484.890
;;;;;;;;;;;;0;0;0;0;8;0;8;0;;;;;;;8;;;1;13.007.607.142.978.200;X;d;go;d;1;;0.5853227112093009;;;;;;;;;;;;;;;;;33;1;21;w;Psychologie;2023-01-17_14h59.38.704;00_bat_bachelor;04/02/2022;6.000.369.477.484.890
;;;;;;;;;;;;0;0;0;0;9;0;9;0;;;;;;;9;;;1;13.024.622.853.516.400;Y;l;go;l;1;;0.5007409340469167;;;;;;;;;;;;;;;;;33;1;21;w;Psychologie;2023-01-17_14h59.38.704;00_bat_bachelor;04/02/2022;6.000.369.477.484.890
;;;;;;;;;;;;0;0;0;0;10;0;10;0;;;;;;;10;;;1;1.304.063.601.908.560;Y;None;nogo;None;1;;;;;;;;;;;;;;;;;;;33;1;21;w;Psychologie;2023-01-17_14h59.38.704;00_bat_bachelor;04/02/2022;6.000.369.477.484.890
;;;;;;;;;;;;0;0;0;0;11;0;11;0;;;;;;;11;;;1;1.305.864.907.701.840;Y;None;nogo;None;1;;;;;;;;;;;;;;;;;;;33;1;21;w;Psychologie;2023-01-17_14h59.38.704;00_bat_bachelor;04/02/2022;6.000.369.477.484.890
;;;;;;;;;;;;0;0;0;0;12;0;12;0;;;;;;;12;;;1;13.076.662.105.860.800;X;d;go;d;1;;0.3681630589417182;;;;;;;;;;;;;;;;;33;1;21;w;Psychologie;2023-01-17_14h59.38.704;00_bat_bachelor;04/02/2022;6.000.369.477.484.890
;;;;;;;;;;;;0;0;0;0;13;0;13;0;;;;;;;13;;;1;13.091.507.082.905.700;Y;l;go;l;1;;0.5153809269540943;;;;;;;;;;;;;;;;;33;1;21;w;Psychologie;2023-01-17_14h59.38.704;00_bat_bachelor;04/02/2022;6.000.369.477.484.890
;;;;;;;;;;;;0;0;0;0;14;0;14;0;;;;;;;14;;;1;13.107.683.666.577.700;Y;None;nogo;None;1;131.156.919.342.099;;;;;;;;;;;;;;;;;;33;1;21;w;Psychologie;2023-01-17_14h59.38.704;00_bat_bachelor;04/02/2022;6.000.369.477.484.890
;;;;;;;;;;;;0;0;0;0;15;0;15;0;;;;;;;15;;;1;13.125.699.972.994.000;X;d;go;d;1;;0.3118270862614736;;;;;;;;;;;;;;;;;33;1;21;w;Psychologie;2023-01-17_14h59.38.704;00_bat_bachelor;04/02/2022;6.000.369.477.484.890
;;;;;;;;;;;;0;0;0;0;16;0;16;0;;;;;;;16;;;1;13.139.876.814.605.000;Y;l;go;l;1;;0.4467715056380257;;;;;;;;;;;;;;;;;33;1;21;w;Psychologie;2023-01-17_14h59.38.704;00_bat_bachelor;04/02/2022;6.000.369.477.484.890
;;;;;;;;;;;;0;0;0;0;17;0;17;0;;;;;;;17;;;1;13.155.392.540.415.600;X;d;go;d;1;;0.5590929057216272;;;;;;;;;;;;;;;;;33;1;21;w;Psychologie;2023-01-17_14h59.38.704;00_bat_bachelor;04/02/2022;6.000.369.477.484.890
;;;;;;;;;;;;0;0;0;0;18;0;18;0;;;;;;;18;;;1;13.172.401.414.593.300;Y;l;go;l;1;;0.377262206049636;;;;;;;;;;;;;;;;;33;1;21;w;Psychologie;2023-01-17_14h59.38.704;00_bat_bachelor;04/02/2022;6.000.369.477.484.890
;;;;;;;;;;;;0;0;0;0;19;0;19;0;;;;;;;19;;;1;1.318.724.706.557.750;X;d;go;d;1;;0.509148687531706;;;;;;;;;;;;;;;;;33;1;21;w;Psychologie;2023-01-17_14h59.38.704;00_bat_bachelor;04/02/2022;6.000.369.477.484.890
;;;;;;;;;;;;0;0;0;0;20;0;20;0;;;;;;;20;;;1;1.320.342.642.258.090;X;None;nogo;None;1;1.321.143.323.566.880;;;;;;;;;;;;;;;;;;33;1;21;w;Psychologie;2023-01-17_14h59.38.704;00_bat_bachelor;04/02/2022;6.000.369.477.484.890
;;;;;;;;;;;;0;0;0;0;21;0;21;0;;;;;;;21;;;1;13.221.440.736.271.300;Y;l;go;l;1;;0.27385328646050766;;;;;;;;;;;;;;;;;33;1;21;w;Psychologie;2023-01-17_14h59.38.704;00_bat_bachelor;04/02/2022;6.000.369.477.484.890
;;;;;;;;;;;;0;0;0;0;22;0;22;0;;;;;;;22;;;1;13.235.280.705.318.400;X;d;go;d;1;;0.4099055841215886;;;;;;;;;;;;;;;;;33;1;21;w;Psychologie;2023-01-17_14h59.38.704;00_bat_bachelor;04/02/2022;6.000.369.477.484.890
;;;;;;;;;;;;0;0;0;0;23;0;23;0;;;;;;;23;;;1;13.250.458.554.929.300;X;None;nogo;None;1;;;;;;;;;;;;;;;;;;;33;1;21;w;Psychologie;2023-01-17_14h59.38.704;00_bat_bachelor;04/02/2022;6.000.369.477.484.890
;;;;;;;;;;;;0;0;0;0;24;0;24;0;;;;;;;24;;;1;13.268.476.131.648.000;Y;l;go;l;1;;0.2583502636407502;;;;;;;;;;;;;;;;;33;1;21;w;Psychologie;2023-01-17_14h59.38.704;00_bat_bachelor;04/02/2022;6.000.369.477.484.890
;;;;;;;;;;;;0;0;0;0;25;0;25;0;;;;;;;25;;;1;1.328.215.212.501.700;X;d;go;d;1;;0.3626435464830138;;;;;;;;;;;;;;;;;33;1;21;w;Psychologie;2023-01-17_14h59.38.704;00_bat_bachelor;04/02/2022;6.000.369.477.484.890
;;;;;;;;;;;;0;0;0;0;26;0;26;0;;;;;;;26;;;1;13.296.829.906.991.900;Y;l;go;l;1;;0.494737058179453;;;;;;;;;;;;;;;;;33;1;21;w;Psychologie;2023-01-17_14h59.38.704;00_bat_bachelor;04/02/2022;6.000.369.477.484.890
;;;;;;;;;;;;0;0;0;0;27;0;27;0;;;;;;;27;;;1;13.312.842.752.560.900;X;d;go;None;0;;;;;;;;;;;;;;;;;;;33;1;21;w;Psychologie;2023-01-17_14h59.38.704;00_bat_bachelor;04/02/2022;6.000.369.477.484.890
;;;;;;;;;;;;0;0;0;0;28;0;28;0;;;;;;;28;;;1;13.330.855.825.039.900;Y;l;go;l;1;;0.6448882580734789;;;;;;;;;;;;;;;;;33;1;21;w;Psychologie;2023-01-17_14h59.38.704;00_bat_bachelor;04/02/2022;6.000.369.477.484.890
;;;;;;;;;;;;0;0;0;0;29;0;29;0;;;;;;;29;;;1;1.334.836.654.139.790;X;d;go;d;1;;0.4771530666621402;;;;;;;;;;;;;;;;;33;1;21;w;Psychologie;2023-01-17_14h59.38.704;00_bat_bachelor;04/02/2022;6.000.369.477.484.890
;;;;;;;;;;;;0;0;0;0;30;0;30;0;;;;;;;30;;;1;13.364.215.362.804.800;X;None;nogo;None;1;;;;;;;;;;;;;;;;;;;33;1;21;w;Psychologie;2023-01-17_14h59.38.704;00_bat_bachelor;04/02/2022;6.000.369.477.484.890
;;;;;;;;;;;;0;0;0;0;31;0;31;0;;;;;;;31;;;1;13.382.226.248.617.500;Y;l;go;l;1;;0.275876073341351;;;;;;;;;;;;;;;;;33;1;21;w;Psychologie;2023-01-17_14h59.38.704;00_bat_bachelor;04/02/2022;6.000.369.477.484.890
;;;;;;;;;;;;0;0;0;0;32;0;32;0;;;;;;;32;;;1;1.339.606.990.736.030;X;d;go;d;1;;0.4904374238685705;;;;;;;;;;;;;;;;;33;1;21;w;Psychologie;2023-01-17_14h59.38.704;00_bat_bachelor;04/02/2022;6.000.369.477.484.890
;;;;;;;;;;;;0;0;0;0;33;0;33;0;;;;;;;33;;;1;13.412.082.292.324.000;Y;l;go;l;1;;0.41012376587605104;;;;;;;;;;;;;;;;;33;1;21;w;Psychologie;2023-01-17_14h59.38.704;00_bat_bachelor;04/02/2022;6.000.369.477.484.890
;;;;;;;;;;;;0;0;0;0;34;0;34;0;;;;;;;34;;;1;13.427.265.038.901.800;X;d;go;None;0;;;;;;;;;;;;;;;;;;;33;1;21;w;Psychologie;2023-01-17_14h59.38.704;00_bat_bachelor;04/02/2022;6.000.369.477.484.890
;;;;;;;;;;;;0;0;0;0;35;0;35;0;;;;;;;35;;;1;13.445.274.348.958.000;Y;l;go;l;1;;0.41897709493059665;;;;;;;;;;;;;;;;;33;1;21;w;Psychologie;2023-01-17_14h59.38.704;00_bat_bachelor;04/02/2022;6.000.369.477.484.890
;;;;;;;;;;;;0;0;0;0;36;0;36;0;;;;;;;36;;;1;13.460.621.531.819.900;X;d;go;d;1;;0.420069457963109;;;;;;;;;;;;;;;;;33;1;21;w;Psychologie;2023-01-17_14h59.38.704;00_bat_bachelor;04/02/2022;6.000.369.477.484.890
;;;;;;;;;;;;0;0;0;0;37;0;37;0;;;;;;;37;;;1;13.475.965.984.986.300;Y;l;go;l;1;;0.3572059732978232;;;;;;;;;;;;;;;;;33;1;21;w;Psychologie;2023-01-17_14h59.38.704;00_bat_bachelor;04/02/2022;6.000.369.477.484.890
;;;;;;;;;;;;0;0;0;0;38;0;38;0;;;;;;;38;;;1;13.490.645.837.262.800;Y;None;nogo;None;1;;;;;;;;;;;;;;;;;;;33;1;21;w;Psychologie;2023-01-17_14h59.38.704;00_bat_bachelor;04/02/2022;6.000.369.477.484.890
;;;;;;;;;;;;0;0;0;0;39;0;39;0;;;;;;;39;;;1;13.508.659.438.226.000;X;d;go;d;1;;0.4009276491124183;;;;;;;;;;;;;;;;;33;1;21;w;Psychologie;2023-01-17_14h59.38.704;00_bat_bachelor;04/02/2022;6.000.369.477.484.890
;;;;;;;;;;;;0;0;0;0;40;0;40;0;;;;;;;40;;;1;13.523.836.366.625.000;Y;l;go;l;1;;0.3862769895349629;;;;;;;;;;;;;;;;;33;1;21;w;Psychologie;2023-01-17_14h59.38.704;00_bat_bachelor;04/02/2022;6.000.369.477.484.890
;;;;;;;;;;;;0;0;0;0;41;0;41;0;;;;;;;41;;;1;1.353.884.729.752.840;X;d;go;d;1;;0.6128426978248172;;;;;;;;;;;;;;;;;33;1;21;w;Psychologie;2023-01-17_14h59.38.704;00_bat_bachelor;04/02/2022;6.000.369.477.484.890
;;;;;;;;;;;;0;0;0;0;42;0;42;0;;;;;;;42;;;1;13.556.025.155.866.500;Y;l;go;l;1;;0.3510900975088589;;;;;;;;;;;;;;;;;33;1;21;w;Psychologie;2023-01-17_14h59.38.704;00_bat_bachelor;04/02/2022;6.000.369.477.484.890
;;;;;;;;;;;;0;0;0;0;43;0;43;0;;;;;;;43;;;1;1.357.070.594.874.850;X;d;go;d;1;;0.40378873859299347;;;;;;;;;;;;;;;;;33;1;21;w;Psychologie;2023-01-17_14h59.38.704;00_bat_bachelor;04/02/2022;6.000.369.477.484.890
;;;;;;;;;;;;0;0;0;0;44;0;44;0;;;;;;;44;;;1;13.585.882.062.602.900;Y;l;go;l;1;;0.3898638968821615;;;;;;;;;;;;;;;;;33;1;21;w;Psychologie;2023-01-17_14h59.38.704;00_bat_bachelor;04/02/2022;6.000.369.477.484.890
;;;;;;;;;;;;0;0;0;0;45;0;45;0;;;;;;;45;;;1;13.600.895.408.050.800;X;d;go;d;1;;0.4089261906920001;;;;;;;;;;;;;;;;;33;1;21;w;Psychologie;2023-01-17_14h59.38.704;00_bat_bachelor;04/02/2022;6.000.369.477.484.890
;;;;;;;;;;;;0;0;0;0;46;0;46;0;;;;;;;46;;;1;13.616.073.897.661.400;Y;l;go;l;1;;0.33079338003881276;;;;;;;;;;;;;;;;;33;1;21;w;Psychologie;2023-01-17_14h59.38.704;00_bat_bachelor;04/02/2022;6.000.369.477.484.890
;;;;;;;;;;;;0;0;0;0;47;0;47;0;;;;;;;47;;;1;13.630.419.010.706.200;X;d;go;d;1;;0.3512709459173493;;;;;;;;;;;;;;;;;33;1;21;w;Psychologie;2023-01-17_14h59.38.704;00_bat_bachelor;04/02/2022;6.000.369.477.484.890
;;;;;;;;;;;;0;0;0;0;48;0;48;0;;;;;;;48;;;1;13.645.263.628.963.100;Y;l;go;l;1;;0.3876243827980943;;;;;;;;;;;;;;;;;33;1;21;w;Psychologie;2023-01-17_14h59.38.704;00_bat_bachelor;04/02/2022;6.000.369.477.484.890
;;;;;;;;;;;;0;0;0;0;49;0;49;0;;;;;;;49;;;1;13.660.273.425.322.300;X;d;go;d;1;;0.3420597988879308;;;;;;;;;;;;;;;;;33;1;21;w;Psychologie;2023-01-17_14h59.38.704;00_bat_bachelor;04/02/2022;6.000.369.477.484.890
;;;;;;;;;;;;0;0;0;0;50;0;50;0;;;;;;;50;;;1;1.367.478.532.131.640;Y;l;go;l;1;;0.3322741066222079;;;;;;;;;;;;;;;;;33;1;21;w;Psychologie;2023-01-17_14h59.38.704;00_bat_bachelor;04/02/2022;6.000.369.477.484.890
;;;;;;;;;;;;0;0;0;0;51;0;51;0;;;;;;;51;;;1;13.689.129.440.422.400;Y;None;nogo;None;1;;;;;;;;;;;;;;;;;;;33;1;21;w;Psychologie;2023-01-17_14h59.38.704;00_bat_bachelor;04/02/2022;6.000.369.477.484.890
;;;;;;;;;;;;0;0;0;0;52;0;52;0;;;;;;;52;;;1;13.707.140.331.083.700;X;d;go;d;1;;0.34321373770944774;;;;;;;;;;;;;;;;;33;1;21;w;Psychologie;2023-01-17_14h59.38.704;00_bat_bachelor;04/02/2022;6.000.369.477.484.890
;;;;;;;;;;;;0;0;0;0;53;0;53;0;;;;;;;53;;;1;1.372.165.385.131.950;Y;l;go;l;1;;0.4606847109971568;;;;;;;;;;;;;;;;;33;1;21;w;Psychologie;2023-01-17_14h59.38.704;00_bat_bachelor;04/02/2022;6.000.369.477.484.890
;;;;;;;;;;;;0;0;0;0;54;0;54;0;;;;;;;54;;;1;13.737.331.923.717.800;X;d;go;d;1;;0.3164156900602393;;;;;;;;;;;;;;;;;33;1;21;w;Psychologie;2023-01-17_14h59.38.704;00_bat_bachelor;04/02/2022;6.000.369.477.484.890
;;;;;;;;;;;;0;0;0;0;55;0;55;0;;;;;;;55;;;1;13.751.510.981.085.500;Y;l;go;l;1;;0.35538342874497175;;;;;;;;;;;;;;;;;33;1;21;w;Psychologie;2023-01-17_14h59.38.704;00_bat_bachelor;04/02/2022;6.000.369.477.484.890
;;;;;;;;;;;;0;0;0;0;56;0;56;0;;;;;;;56;;;1;13.766.188.118.212.100;X;d;go;d;1;;0.34295482869492844;;;;;;;;;;;;;;;;;33;1;21;w;Psychologie;2023-01-17_14h59.38.704;00_bat_bachelor;04/02/2022;6.000.369.477.484.890
;;;;;;;;;;;;0;0;0;0;57;0;57;0;;;;;;;57;;;1;13.780.699.112.388.500;Y;l;go;l;1;;0.4278527269489132;;;;;;;;;;;;;;;;;33;1;21;w;Psychologie;2023-01-17_14h59.38.704;00_bat_bachelor;04/02/2022;6.000.369.477.484.890
;;;;;;;;;;;;0;0;0;0;58;0;58;0;;;;;;;58;;;1;13.796.043.032.221.400;Y;None;nogo;None;1;;;;;;;;;;;;;;;;;;;33;1;21;w;Psychologie;2023-01-17_14h59.38.704;00_bat_bachelor;04/02/2022;6.000.369.477.484.890
;;;;;;;;;;;;0;0;0;0;59;0;59;0;;;;;;;59;;;1;13.814.055.168.943.000;X;d;go;d;1;;0.3241669590352103;;;;;;;;;;;;;;;;;33;1;21;w;Psychologie;2023-01-17_14h59.38.704;00_bat_bachelor;04/02/2022;6.000.369.477.484.890
;;;;;;;;;;;;0;0;0;0;60;0;60;0;;;;;;;60;;;1;13.828.399.530.472.800;Y;l;go;l;1;;0.457933682075236;;;;;;;;;;;;;;;;;33;1;21;w;Psychologie;2023-01-17_14h59.38.704;00_bat_bachelor;04/02/2022;6.000.369.477.484.890
;;;;;;;;;;;;0;0;0;0;61;0;61;0;;;;;;;61;;;1;13.844.079.581.052.600;Y;None;nogo;None;1;;;;;;;;;;;;;;;;;;;33;1;21;w;Psychologie;2023-01-17_14h59.38.704;00_bat_bachelor;04/02/2022;6.000.369.477.484.890
;;;;;;;;;;;;0;0;0;0;62;0;62;0;;;;;;;62;;;1;138.620.933.565.608;X;d;go;d;1;;0.3210663544596173;;;;;;;;;;;;;;;;;33;1;21;w;Psychologie;2023-01-17_14h59.38.704;00_bat_bachelor;04/02/2022;6.000.369.477.484.890
;;;;;;;;;;;;0;0;0;0;63;0;63;0;;;;;;;63;;;1;1.387.643.816.415.100;Y;l;go;l;1;;0.3578260942013003;;;;;;;;;;;;;;;;;33;1;21;w;Psychologie;2023-01-17_14h59.38.704;00_bat_bachelor;04/02/2022;6.000.369.477.484.890
;;;;;;;;;;;;0;0;0;0;64;0;64;0;;;;;;;64;;;1;13.891.115.907.338.000;X;d;go;d;1;;0.4424490834935568;;;;;;;;;;;;;;;;;33;1;21;w;Psychologie;2023-01-17_14h59.38.704;00_bat_bachelor;04/02/2022;6.000.369.477.484.890
;;;;;;;;;;;;0;0;0;0;65;0;65;0;;;;;;;65;;;1;13.906.628.888.907.100;Y;l;go;l;1;;0.3311521678115241;;;;;;;;;;;;;;;;;33;1;21;w;Psychologie;2023-01-17_14h59.38.704;00_bat_bachelor;04/02/2022;6.000.369.477.484.890
;;;;;;;;;;;;0;0;0;0;66;0;66;0;;;;;;;66;;;1;13.920.972.605.589.100;X;d;go;d;1;;0.3843870510463603;;;;;;;;;;;;;;;;;33;1;21;w;Psychologie;2023-01-17_14h59.38.704;00_bat_bachelor;04/02/2022;6.000.369.477.484.890
;;;;;;;;;;;;0;0;0;0;67;0;67;0;;;;;;;67;;;1;13.935.983.584.977.800;Y;l;go;l;1;;0.3554610044811852;;;;;;;;;;;;;;;;;33;1;21;w;Psychologie;2023-01-17_14h59.38.704;00_bat_bachelor;04/02/2022;6.000.369.477.484.890
;;;;;;;;;;;;0;0;0;0;68;0;68;0;;;;;;;68;;;1;1.395.065.939.846.850;X;d;go;d;1;;0.648542559298221;;;;;;;;;;;;;;;;;33;1;21;w;Psychologie;2023-01-17_14h59.38.704;00_bat_bachelor;04/02/2022;6.000.369.477.484.890
;;;;;;;;;;;;0;0;0;0;69;0;69;0;;;;;;;69;;;1;1.396.817.201.058.320;X;None;nogo;l;0;;0.32067653647391126;;;;;;;;;;;;;;;;;33;1;21;w;Psychologie;2023-01-17_14h59.38.704;00_bat_bachelor;04/02/2022;6.000.369.477.484.890
;;;;;;;;;;;;0;0;0;0;70;0;70;0;;;;;;;70;;;1;1.398.251.875.271.840;X;None;nogo;None;1;;;;;;;;;;;;;;;;;;;33;1;21;w;Psychologie;2023-01-17_14h59.38.704;00_bat_bachelor;04/02/2022;6.000.369.477.484.890
;;;;;;;;;;;;0;0;0;0;71;0;71;0;;;;;;;71;;;1;14.000.530.705.197.500;Y;l;go;l;1;;0.3496845224290155;;;;;;;;;;;;;;;;;33;1;21;w;Psychologie;2023-01-17_14h59.38.704;00_bat_bachelor;04/02/2022;6.000.369.477.484.890
;;;;;;;;;;;;0;0;0;0;72;0;72;0;;;;;;;72;;;1;14.015.045.747.856.400;X;d;go;None;0;;;;;;;;;;;;;;;;;;;33;1;21;w;Psychologie;2023-01-17_14h59.38.704;00_bat_bachelor;04/02/2022;6.000.369.477.484.890
;;;;;;;;;;;;0;0;0;0;73;0;73;0;;;;;;;73;;;1;14.033.059.460.335.000;Y;l;go;l;1;;0.520072803425137;;;;;;;;;;;;;;;;;33;1;21;w;Psychologie;2023-01-17_14h59.38.704;00_bat_bachelor;04/02/2022;6.000.369.477.484.890
;;;;;;;;;;;;0;0;0;0;74;0;74;0;;;;;;;74;;;1;14.049.403.316.653.300;Y;None;nogo;None;1;14.057.412.001.254.800;;;;;;;;;;;;;;;;;;33;1;21;w;Psychologie;2023-01-17_14h59.38.704;00_bat_bachelor;04/02/2022;6.000.369.477.484.890
;;;;;;;;;;;;0;0;0;0;75;0;75;0;;;;;;;75;;;1;14.067.418.687.312.100;X;d;go;d;1;;0.3002813948551193;;;;;;;;;;;;;;;;;33;1;21;w;Psychologie;2023-01-17_14h59.38.704;00_bat_bachelor;04/02/2022;6.000.369.477.484.890
;;;;;;;;;;;;0;0;0;0;76;0;76;0;;;;;;;76;;;1;14.081.427.781.126.100;Y;l;go;l;1;;0.5637775094946846;;;;;;;;;;;;;;;;;33;1;21;w;Psychologie;2023-01-17_14h59.38.704;00_bat_bachelor;04/02/2022;6.000.369.477.484.890
;;;;;;;;;;;;0;0;0;0;77;0;77;0;;;;;;;77;;;1;14.098.107.457.887.300;Y;None;nogo;None;1;;;;;;;;;;;;;;;;;;;33;1;21;w;Psychologie;2023-01-17_14h59.38.704;00_bat_bachelor;04/02/2022;6.000.369.477.484.890
;;;;;;;;;;;;0;0;0;0;78;0;78;0;;;;;;;78;;;1;14.116.120.700.062.600;X;d;go;d;1;;0.42235018411884084;;;;;;;;;;;;;;;;;33;1;21;w;Psychologie;2023-01-17_14h59.38.704;00_bat_bachelor;04/02/2022;6.000.369.477.484.890
;;;;;;;;;;;;0;0;0;0;79;0;79;0;;;;;;;79;;;1;14.131.466.059.895.400;Y;l;go;l;1;;0.47155306936474517;;;;;;;;;;;;;;;;;33;1;21;w;Psychologie;2023-01-17_14h59.38.704;00_bat_bachelor;04/02/2022;6.000.369.477.484.890
;;;;;;;;;;;;0;0;0;0;80;0;80;0;;;;;;;80;;;1;14.147.311.007.364.100;Y;None;nogo;None;1;;;;;;;;;;;;;;;;;;;33;1;21;w;Psychologie;2023-01-17_14h59.38.704;00_bat_bachelor;04/02/2022;6.000.369.477.484.890
;;;;;;;;;;;;0;0;0;0;81;0;81;0;;;;;;;81;;;1;14.165.322.445.904.600;Y;None;nogo;None;1;;;;;;;;;;;;;;;;;;;33;1;21;w;Psychologie;2023-01-17_14h59.38.704;00_bat_bachelor;04/02/2022;6.000.369.477.484.890
;;;;;;;;;;;;0;0;0;0;82;0;82;0;;;;;;;82;;;1;14.183.338.155.957.100;X;d;go;d;1;;0.40453831397462636;;;;;;;;;;;;;;;;;33;1;21;w;Psychologie;2023-01-17_14h59.38.704;00_bat_bachelor;04/02/2022;6.000.369.477.484.890
;;;;;;;;;;;;0;0;0;0;83;0;83;0;;;;;;;83;;;1;14.198.516.311.022.600;Y;l;go;l;1;;0.37457905581686646;;;;;;;;;;;;;;;;;33;1;21;w;Psychologie;2023-01-17_14h59.38.704;00_bat_bachelor;04/02/2022;6.000.369.477.484.890
;;;;;;;;;;;;0;0;0;0;84;0;84;0;;;;;;;84;;;1;14.213.359.023.826.100;Y;None;nogo;None;1;1.422.136.753.388.270;;;;;;;;;;;;;;;;;;33;1;21;w;Psychologie;2023-01-17_14h59.38.704;00_bat_bachelor;04/02/2022;6.000.369.477.484.890
;;;;;;;;;;;;0;0;0;0;85;0;85;0;;;;;;;85;;;1;1.423.137.289.145.550;X;d;go;None;0;;;;;;;;;;;;;;;;;;;33;1;21;w;Psychologie;2023-01-17_14h59.38.704;00_bat_bachelor;04/02/2022;6.000.369.477.484.890
;;;;;;;;;;;;0;0;0;0;86;0;86;0;;;;;;;86;;;1;14.249.389.236.659.600;Y;l;go;l;1;;0.567133144242689;;;;;;;;;;;;;;;;;33;1;21;w;Psychologie;2023-01-17_14h59.38.704;00_bat_bachelor;04/02/2022;6.000.369.477.484.890
;;;;;;;;;;;;0;0;0;0;87;0;87;0;;;;;;;87;;;1;142.660.698.346.328;X;d;go;d;1;;0.5467215178068727;;;;;;;;;;;;;;;;;33;1;21;w;Psychologie;2023-01-17_14h59.38.704;00_bat_bachelor;04/02/2022;6.000.369.477.484.890
;;;;;;;;;;;;0;0;0;0;88;0;88;0;;;;;;;88;;;1;14.282.581.443.596.800;Y;l;go;l;1;;0.3360932563082315;;;;;;;;;;;;;;;;;33;1;21;w;Psychologie;2023-01-17_14h59.38.704;00_bat_bachelor;04/02/2022;6.000.369.477.484.890
;;;;;;;;;;;;0;0;0;0;89;0;89;0;;;;;;;89;;;1;1.429.709.172.504.660;Y;None;nogo;None;1;;;;;;;;;;;;;;;;;;;33;1;21;w;Psychologie;2023-01-17_14h59.38.704;00_bat_bachelor;04/02/2022;6.000.369.477.484.890
;;;;;;;;;;;;0;0;0;0;90;0;90;0;;;;;;;90;;;1;14.315.105.326.009.700;X;d;go;d;1;;0.2509282066603191;;;;;;;;;;;;;;;;;33;1;21;w;Psychologie;2023-01-17_14h59.38.704;00_bat_bachelor;04/02/2022;6.000.369.477.484.890
;;;;;;;;;;;;0;0;0;0;91;0;91;0;;;;;;;91;;;1;14.328.783.889.074.600;Y;l;go;None;0;;;;;;;;;;;;;;;;;;;33;1;21;w;Psychologie;2023-01-17_14h59.38.704;00_bat_bachelor;04/02/2022;6.000.369.477.484.890
;;;;;;;;;;;;0;0;0;0;92;0;92;0;;;;;;;92;;;1;14.346.797.514.280.100;X;d;go;d;1;;0.34684573591221124;;;;;;;;;;;;;;;;;33;1;21;w;Psychologie;2023-01-17_14h59.38.704;00_bat_bachelor;04/02/2022;6.000.369.477.484.890
;;;;;;;;;;;;0;0;0;0;93;0;93;0;;;;;;;93;;;1;14.361.307.286.638.700;Y;l;go;l;1;;0.49566166376462206;;;;;;;;;;;;;;;;;33;1;21;w;Psychologie;2023-01-17_14h59.38.704;00_bat_bachelor;04/02/2022;6.000.369.477.484.890
;;;;;;;;;;;;0;0;0;0;94;0;94;0;;;;;;;94;;;1;14.377.317.741.906.700;X;d;go;d;1;;0.6229047535452992;;;;;;;;;;;;;;;;;33;1;21;w;Psychologie;2023-01-17_14h59.38.704;00_bat_bachelor;04/02/2022;6.000.369.477.484.890
;;;;;;;;;;;;0;0;0;0;95;0;95;0;;;;;;;95;;;1;14.394.663.861.981.200;Y;l;go;l;1;;0.37581202492583543;;;;;;;;;;;;;;;;;33;1;21;w;Psychologie;2023-01-17_14h59.38.704;00_bat_bachelor;04/02/2022;6.000.369.477.484.890
;;;;;;;;;;;;0;0;0;0;96;0;96;0;;;;;;;96;;;1;14.409.511.287.509.800;Y;None;nogo;None;1;;;;;;;;;;;;;;;;;;;33;1;21;w;Psychologie;2023-01-17_14h59.38.704;00_bat_bachelor;04/02/2022;6.000.369.477.484.890
;;;;;;;;;;;;0;0;0;0;97;0;97;0;;;;;;;97;;;1;14.427.524.112.715.600;X;d;go;d;1;;0.29007339978124946;;;;;;;;;;;;;;;;;33;1;21;w;Psychologie;2023-01-17_14h59.38.704;00_bat_bachelor;04/02/2022;6.000.369.477.484.890
;;;;;;;;;;;;0;0;0;0;98;0;98;0;;;;;;;98;;;1;1.444.153.334.713.540;Y;l;go;l;1;;0.40898485732031986;;;;;;;;;;;;;;;;;33;1;21;w;Psychologie;2023-01-17_14h59.38.704;00_bat_bachelor;04/02/2022;6.000.369.477.484.890
;;;;;;;;;;;;0;0;0;0;99;0;99;0;;;;;;;99;;;1;14.456.711.574.927.900;Y;None;nogo;None;1;;;;;;;;;;;;;;;;;;;33;1;21;w;Psychologie;2023-01-17_14h59.38.704;00_bat_bachelor;04/02/2022;6.000.369.477.484.890
;;;;;;;;;;;;0;0;0;0;100;0;100;0;;;;;;;100;;;1;14.474.726.693.466.000;X;d;go;d;1;;0.33757689193589613;;;;;;;;;;;;;;;;;33;1;21;w;Psychologie;2023-01-17_14h59.38.704;00_bat_bachelor;04/02/2022;6.000.369.477.484.890
;;;;;;;;;;;;0;0;0;0;101;0;101;0;;;;;;;101;;;1;14.489.238.894.914.700;Y;l;go;l;1;;0.3902454724884592;;;;;;;;;;;;;;;;;33;1;21;w;Psychologie;2023-01-17_14h59.38.704;00_bat_bachelor;04/02/2022;6.000.369.477.484.890
;;;;;;;;;;;;0;0;0;0;102;0;102;0;;;;;;;102;;;1;14.504.251.212.484.000;X;d;go;d;1;;0.4729906444554217;;;;;;;;;;;;;;;;;33;1;21;w;Psychologie;2023-01-17_14h59.38.704;00_bat_bachelor;04/02/2022;6.000.369.477.484.890
;;;;;;;;;;;;0;0;0;0;103;0;103;0;;;;;;;103;;;1;14.520.096.038.741.100;Y;l;go;l;1;;0.31216163153294474;;;;;;;;;;;;;;;;;33;1;21;w;Psychologie;2023-01-17_14h59.38.704;00_bat_bachelor;04/02/2022;6.000.369.477.484.890
;;;;;;;;;;;;0;0;0;0;104;0;104;0;;;;;;;104;;;1;14.534.273.505.806.900;X;d;go;d;1;;0.43054848321480677;;;;;;;;;;;;;;;;;33;1;21;w;Psychologie;2023-01-17_14h59.38.704;00_bat_bachelor;04/02/2022;6.000.369.477.484.890
;;;;;;;;;;;;0;0;0;0;105;0;105;0;;;;;;;105;;;1;145.496.155.395.807;Y;l;go;l;1;;0.27223437814973295;;;;;;;;;;;;;;;;;33;1;21;w;Psychologie;2023-01-17_14h59.38.704;00_bat_bachelor;04/02/2022;6.000.369.477.484.890
;;;;;;;;;;;;0;0;0;0;106;0;106;0;;;;;;;106;;;1;14.563.459.319.535.100;Y;None;nogo;None;1;;;;;;;;;;;;;;;;;;;33;1;21;w;Psychologie;2023-01-17_14h59.38.704;00_bat_bachelor;04/02/2022;6.000.369.477.484.890
;;;;;;;;;;;;0;0;0;0;107;0;107;0;;;;;;;107;;;1;14.581.475.834.436.100;X;d;go;d;1;;0.3663618476712145;;;;;;;;;;;;;;;;;33;1;21;w;Psychologie;2023-01-17_14h59.38.704;00_bat_bachelor;04/02/2022;6.000.369.477.484.890
;;;;;;;;;;;;0;0;0;0;108;0;108;0;;;;;;;108;;;1;1.459.615.312.671.340;Y;l;go;l;1;;0.38668426201911643;;;;;;;;;;;;;;;;;33;1;21;w;Psychologie;2023-01-17_14h59.38.704;00_bat_bachelor;04/02/2022;6.000.369.477.484.890
;;;;;;;;;;;;0;0;0;0;109;0;109;0;;;;;;;109;;;1;14.611.172.217.613.700;X;d;go;d;1;;0.4051914046285674;;;;;;;;;;;;;;;;;33;1;21;w;Psychologie;2023-01-17_14h59.38.704;00_bat_bachelor;04/02/2022;6.000.369.477.484.890
;;;;;;;;;;;;0;0;0;0;110;0;110;0;;;;;;;110;;;1;14.626.350.469.648.600;Y;l;go;l;1;;0.3271293818252161;;;;;;;;;;;;;;;;;33;1;21;w;Psychologie;2023-01-17_14h59.38.704;00_bat_bachelor;04/02/2022;6.000.369.477.484.890
;;;;;;;;;;;;0;0;0;0;111;0;111;0;;;;;;;111;;;1;14.640.860.154.734.600;Y;None;nogo;None;1;14.648.865.775.095.700;;;;;;;;;;;;;;;;;;33;1;21;w;Psychologie;2023-01-17_14h59.38.704;00_bat_bachelor;04/02/2022;6.000.369.477.484.890
;;;;;;;;;;;;0;0;0;0;112;0;112;0;;;;;;;112;;;1;14.658.872.839.334.600;X;d;go;d;1;;0.3550881561823189;;;;;;;;;;;;;;;;;33;1;21;w;Psychologie;2023-01-17_14h59.38.704;00_bat_bachelor;04/02/2022;6.000.369.477.484.890
;;;;;;;;;;;;0;0;0;0;113;0;113;0;;;;;;;113;;;1;1.467.372.011.940.860;Y;l;go;l;1;;0.3729712989879772;;;;;;;;;;;;;;;;;33;1;21;w;Psychologie;2023-01-17_14h59.38.704;00_bat_bachelor;04/02/2022;6.000.369.477.484.890
;;;;;;;;;;;;0;0;0;0;114;0;114;0;;;;;;;114;;;1;14.688.732.175.160.500;Y;None;nogo;None;1;14.696.736.694.915.400;;;;;;;;;;;;;;;;;;33;1;21;w;Psychologie;2023-01-17_14h59.38.704;00_bat_bachelor;04/02/2022;6.000.369.477.484.890
;;;;;;;;;;;;0;0;0;0;115;0;115;0;;;;;;;115;;;1;14.706.745.160.365.800;Y;None;nogo;None;1;1.471.474.953.951.540;;;;;;;;;;;;;;;;;;33;1;21;w;Psychologie;2023-01-17_14h59.38.704;00_bat_bachelor;04/02/2022;6.000.369.477.484.890
;;;;;;;;;;;;0;0;0;0;116;0;116;0;;;;;;;116;;;1;14.724.759.764.965.200;X;d;go;d;1;;0.24689717829460278;;;;;;;;;;;;;;;;;33;1;21;w;Psychologie;2023-01-17_14h59.38.704;00_bat_bachelor;04/02/2022;6.000.369.477.484.890
;;;;;;;;;;;;0;0;0;0;117;0;117;0;;;;;;;117;;;1;14.738.429.532.882.800;Y;l;go;l;1;;0.43088836182141677;;;;;;;;;;;;;;;;;33;1;21;w;Psychologie;2023-01-17_14h59.38.704;00_bat_bachelor;04/02/2022;6.000.369.477.484.890
;;;;;;;;;;;;0;0;0;0;118;0;118;0;;;;;;;118;;;1;1.475.377.349.635.230;X;d;go;d;1;;0.41617515683174133;;;;;;;;;;;;;;;;;33;1;21;w;Psychologie;2023-01-17_14h59.38.704;00_bat_bachelor;04/02/2022;6.000.369.477.484.890
;;;;;;;;;;;;0;0;0;0;119;0;119;0;;;;;;;119;;;1;14.768.949.842.933.700;X;None;nogo;None;1;;;;;;;;;;;;;;;;;;;33;1;21;w;Psychologie;2023-01-17_14h59.38.704;00_bat_bachelor;04/02/2022;6.000.369.477.484.890
;;;;;;;;;;;;0;0;0;0;120;0;120;0;;;;;;;120;;;1;14.786.963.560.260.400;Y;l;go;l;1;;0.361403304617852;;;;;;;;;;;;;;;;;33;1;21;w;Psychologie;2023-01-17_14h59.38.704;00_bat_bachelor;04/02/2022;6.000.369.477.484.890
;;;;;;;;;;;;0;0;0;0;121;0;121;0;;;;;;;121;;;1;1.480.164.263.677.950;X;d;go;d;1;;0.33396768156671897;;;;;;;;;;;;;;;;;33;1;21;w;Psychologie;2023-01-17_14h59.38.704;00_bat_bachelor;04/02/2022;6.000.369.477.484.890
;;;;;;;;;;;;0;0;0;0;122;0;122;0;;;;;;;122;;;1;14.816.154.489.137.100;X;None;nogo;None;1;;;;;;;;;;;;;;;;;;;33;1;21;w;Psychologie;2023-01-17_14h59.38.704;00_bat_bachelor;04/02/2022;6.000.369.477.484.890
;;;;;;;;;;;;0;0;0;0;123;0;123;0;;;;;;;123;;;1;14.834.167.401.615.900;Y;l;go;l;1;;0.3289708354859613;;;;;;;;;;;;;;;;;33;1;21;w;Psychologie;2023-01-17_14h59.38.704;00_bat_bachelor;04/02/2022;6.000.369.477.484.890
;;;;;;;;;;;;0;0;0;0;124;0;124;0;;;;;;;124;;;1;14.848.513.736.478.000;X;d;go;d;1;;0.36651215062011033;;;;;;;;;;;;;;;;;33;1;21;w;Psychologie;2023-01-17_14h59.38.704;00_bat_bachelor;04/02/2022;6.000.369.477.484.890
;;;;;;;;;;;;0;0;0;0;125;0;125;0;;;;;;;125;;;1;14.863.191.135.422.600;Y;l;go;l;1;;0.5478788506006822;;;;;;;;;;;;;;;;;33;1;21;w;Psychologie;2023-01-17_14h59.38.704;00_bat_bachelor;04/02/2022;6.000.369.477.484.890
;;;;;;;;;;;;0;0;0;0;126;0;126;0;;;;;;;126;;;1;14.879.703.481.356.200;X;d;go;d;1;;0.4320505430805497;;;;;;;;;;;;;;;;;33;1;21;w;Psychologie;2023-01-17_14h59.38.704;00_bat_bachelor;04/02/2022;6.000.369.477.484.890
;;;;;;;;;;;;0;0;0;0;127;0;127;0;;;;;;;127;;;1;14.895.045.020.584.300;Y;l;go;l;1;;0.4012752852868289;;;;;;;;;;;;;;;;;33;1;21;w;Psychologie;2023-01-17_14h59.38.704;00_bat_bachelor;04/02/2022;6.000.369.477.484.890
;;;;;;;;;;;;0;0;0;0;128;0;128;0;;;;;;;128;;;1;14.910.225.498.072.600;Y;None;nogo;None;1;14.918.229.896.615.900;;;;;;;;;;;;;;;;;;33;1;21;w;Psychologie;2023-01-17_14h59.38.704;00_bat_bachelor;04/02/2022;6.000.369.477.484.890
;;;;;;;;;;;;0;0;0;0;129;0;129;0;;;;;;;129;;;1;14.928.239.467.520.600;X;d;go;d;1;;0.28206079761730507;;;;;;;;;;;;;;;;;33;1;21;w;Psychologie;2023-01-17_14h59.38.704;00_bat_bachelor;04/02/2022;6.000.369.477.484.890
;;;;;;;;;;;;0;0;0;0;130;0;130;0;;;;;;;130;;;1;14.942.080.997.779.200;Y;l;go;l;1;;0.3222227175720036;;;;;;;;;;;;;;;;;33;1;21;w;Psychologie;2023-01-17_14h59.38.704;00_bat_bachelor;04/02/2022;6.000.369.477.484.890
;;;;;;;;;;;;0;0;0;0;131;0;131;0;;;;;;;131;;;1;14.956.425.611.430.300;Y;None;nogo;None;1;1.496.443.287.542.670;;;;;;;;;;;;;;;;;;33;1;21;w;Psychologie;2023-01-17_14h59.38.704;00_bat_bachelor;04/02/2022;6.000.369.477.484.890
;;;;;;;;;;;;0;0;0;0;132;0;132;0;;;;;;;132;;;1;14.974.441.316.634.700;X;d;go;d;1;;0.2382150007179007;;;;;;;;;;;;;;;;;33;1;21;w;Psychologie;2023-01-17_14h59.38.704;00_bat_bachelor;04/02/2022;6.000.369.477.484.890
;;;;;;;;;;;;0;0;0;0;133;0;133;0;;;;;;;133;;;1;14.987.953.062.810.700;Y;l;go;l;1;;0.598319553420879;;;;;;;;;;;;;;;;;33;1;21;w;Psychologie;2023-01-17_14h59.38.704;00_bat_bachelor;04/02/2022;6.000.369.477.484.890
;;;;;;;;;;;;0;0;0;0;134;0;134;0;;;;;;;134;;;1;15.004.964.564.865.800;X;d;go;d;1;;0.4170682473341003;;;;;;;;;;;;;;;;;33;1;21;w;Psychologie;2023-01-17_14h59.38.704;00_bat_bachelor;04/02/2022;6.000.369.477.484.890
;;;;;;;;;;;;0;0;0;0;135;0;135;0;;;;;;;135;;;1;15.020.140.761.143.900;X;None;nogo;None;1;;;;;;;;;;;;;;;;;;;33;1;21;w;Psychologie;2023-01-17_14h59.38.704;00_bat_bachelor;04/02/2022;6.000.369.477.484.890
;;;;;;;;;;;;0;0;0;0;136;0;136;0;;;;;;;136;;;1;1.503.815.759.119.630;Y;l;go;l;1;;0.331327682826668;;;;;;;;;;;;;;;;;33;1;21;w;Psychologie;2023-01-17_14h59.38.704;00_bat_bachelor;04/02/2022;6.000.369.477.484.890
;;;;;;;;;;;;0;0;0;0;137;0;137;0;;;;;;;137;;;1;15.052.498.636.364.400;X;d;go;None;0;;;;;;;;;;;;;;;;;;;33;1;21;w;Psychologie;2023-01-17_14h59.38.704;00_bat_bachelor;04/02/2022;6.000.369.477.484.890
;;;;;;;;;;;;0;0;0;0;138;0;138;0;;;;;;;138;;;1;15.070.511.994.903.200;X;None;nogo;None;1;;;;;;;;;;;;;;;;;;;33;1;21;w;Psychologie;2023-01-17_14h59.38.704;00_bat_bachelor;04/02/2022;6.000.369.477.484.890
;;;;;;;;;;;;0;0;0;0;139;0;139;0;;;;;;;139;;;1;15.088.526.846.775.200;Y;l;go;l;1;;0.2856040686601773;;;;;;;;;;;;;;;;;33;1;21;w;Psychologie;2023-01-17_14h59.38.704;00_bat_bachelor;04/02/2022;6.000.369.477.484.890
;;;;;;;;;;;;0;0;0;0;140;0;140;0;;;;;;;140;;;1;15.102.538.747.860.200;X;d;go;d;1;;0.5477004264248535;;;;;;;;;;;;;;;;;33;1;21;w;Psychologie;2023-01-17_14h59.38.704;00_bat_bachelor;04/02/2022;6.000.369.477.484.890
;;;;;;;;;;;;0;0;0;0;141;0;141;0;;;;;;;141;;;1;15.119.052.742.277.800;Y;l;go;l;1;;0.5764286548946984;;;;;;;;;;;;;;;;;33;1;21;w;Psychologie;2023-01-17_14h59.38.704;00_bat_bachelor;04/02/2022;6.000.369.477.484.890
;;;;;;;;;;;;0;0;0;0;142;0;142;0;;;;;;;142;;;1;15.135.897.757.140.300;X;d;go;d;1;;0.3477635536692105;;;;;;;;;;;;;;;;;33;1;21;w;Psychologie;2023-01-17_14h59.38.704;00_bat_bachelor;04/02/2022;6.000.369.477.484.890
;;;;;;;;;;;;0;0;0;0;143;0;143;0;;;;;;;143;;;1;1.515.040.847.010.500;Y;l;go;l;1;;0.38552062620874494;;;;;;;;;;;;;;;;;33;1;21;w;Psychologie;2023-01-17_14h59.38.704;00_bat_bachelor;04/02/2022;6.000.369.477.484.890
;;;;;;;;;;;;0;0;0;0;144;0;144;0;;;;;;;144;;;1;15.165.417.694.342.900;X;d;go;d;1;;0.29267509549390525;;;;;;;;;;;;;;;;;33;1;21;w;Psychologie;2023-01-17_14h59.38.704;00_bat_bachelor;04/02/2022;6.000.369.477.484.890
;;;;;;;;;;;;0;0;0;0;145;0;145;0;;;;;;;145;;;1;15.179.431.273.002.900;Y;l;go;l;1;;0.3151972664054483;;;;;;;;;;;;;;;;;33;1;21;w;Psychologie;2023-01-17_14h59.38.704;00_bat_bachelor;04/02/2022;6.000.369.477.484.890
;;;;;;;;;;;;0;0;0;0;146;0;146;0;;;;;;;146;;;1;15.193.609.079.462.400;X;d;go;d;1;;0.33783483115257695;;;;;;;;;;;;;;;;;33;1;21;w;Psychologie;2023-01-17_14h59.38.704;00_bat_bachelor;04/02/2022;6.000.369.477.484.890
;;;;;;;;;;;;0;0;0;0;147;0;147;0;;;;;;;147;;;1;1.520.812.093.666.870;X;None;nogo;None;1;;;;;;;;;;;;;;;;;;;33;1;21;w;Psychologie;2023-01-17_14h59.38.704;00_bat_bachelor;04/02/2022;6.000.369.477.484.890
;;;;;;;;;;;;0;0;0;0;148;0;148;0;;;;;;;148;;;1;15.226.134.222.480.400;Y;l;go;l;1;;0.3168753262143582;;;;;;;;;;;;;;;;;33;1;21;w;Psychologie;2023-01-17_14h59.38.704;00_bat_bachelor;04/02/2022;6.000.369.477.484.890
;;;;;;;;;;;;0;0;0;0;149;0;149;0;;;;;;;149;;;1;15.240.310.477.425.200;X;d;go;d;1;;0.38721856486517936;;;;;;;;;;;;;;;;;33;1;21;w;Psychologie;2023-01-17_14h59.38.704;00_bat_bachelor;04/02/2022;6.000.369.477.484.890
;;;;;;;;;;;;0;0;0;0;150;0;150;0;;;;;;;150;;;1;15.255.322.067.723.000;X;None;nogo;None;1;;;;;;;;;;;;;;;;;;;33;1;21;w;Psychologie;2023-01-17_14h59.38.704;00_bat_bachelor;04/02/2022;6.000.369.477.484.890
;;;;;;;;;;;;0;0;0;0;151;0;151;0;;;;;;;151;;;1;1.527.333.374.868.670;X;None;nogo;l;0;;0.25241620594169945;;;;;;;;;;;;;;;;;33;1;21;w;Psychologie;2023-01-17_14h59.38.704;00_bat_bachelor;04/02/2022;6.000.369.477.484.890
;;;;;;;;;;;;0;0;0;0;152;0;152;0;;;;;;;152;;;1;15.287.010.677.813.000;Y;l;go;l;1;;0.5809910769457929;;;;;;;;;;;;;;;;;33;1;21;w;Psychologie;2023-01-17_14h59.38.704;00_bat_bachelor;04/02/2022;6.000.369.477.484.890
;;;;;;;;;;;;0;0;0;0;153;0;153;0;;;;;;;153;;;1;15.303.860.322.976.800;X;d;go;d;1;;0.3674866955843754;;;;;;;;;;;;;;;;;33;1;21;w;Psychologie;2023-01-17_14h59.38.704;00_bat_bachelor;04/02/2022;6.000.369.477.484.890
;;;;;;;;;;;;0;0;0;0;154;0;154;0;;;;;;;154;;;1;15.318.701.091.539.100;X;None;nogo;None;1;;;;;;;;;;;;;;;;;;;33;1;21;w;Psychologie;2023-01-17_14h59.38.704;00_bat_bachelor;04/02/2022;6.000.369.477.484.890
;;;;;;;;;;;;0;0;0;0;155;0;155;0;;;;;;;155;;;1;15.336.715.599.168.000;Y;l;go;l;1;;0.41011891735251993;;;;;;;;;;;;;;;;;33;1;21;w;Psychologie;2023-01-17_14h59.38.704;00_bat_bachelor;04/02/2022;6.000.369.477.484.890
;;;;;;;;;;;;0;0;0;0;156;0;156;0;;;;;;;156;;;1;15.351.892.934.839.700;X;d;go;d;1;;0.4121184315299615;;;;;;;;;;;;;;;;;33;1;21;w;Psychologie;2023-01-17_14h59.38.704;00_bat_bachelor;04/02/2022;6.000.369.477.484.890
;;;;;;;;;;;;0;0;0;0;157;0;157;0;;;;;;;157;;;1;15.367.073.979.600.600;Y;l;go;l;1;;0.5750560495071113;;;;;;;;;;;;;;;;;33;1;21;w;Psychologie;2023-01-17_14h59.38.704;00_bat_bachelor;04/02/2022;6.000.369.477.484.890
;;;;;;;;;;;;0;0;0;0;158;0;158;0;;;;;;;158;;;1;15.383.921.297.492.900;X;d;go;d;1;;0.5229964383761398;;;;;;;;;;;;;;;;;33;1;21;w;Psychologie;2023-01-17_14h59.38.704;00_bat_bachelor;04/02/2022;6.000.369.477.484.890
;;;;;;;;;;;;0;0;0;0;159;0;159;0;;;;;;;159;;;1;1.540.026.574.047.740;Y;l;go;l;1;;0.31114587443880737;;;;;;;;;;;;;;;;;33;1;21;w;Psychologie;2023-01-17_14h59.38.704;00_bat_bachelor;04/02/2022;6.000.369.477.484.890
;;;;;;;;;;;;0;0;0;0;160;0;160;0;;;;;;;160;;;1;1.541.444.051.178.630;X;d;go;d;1;;0.4139337034430355;;;;;;;;;;;;;;;;;33;1;21;w;Psychologie;2023-01-17_14h59.38.704;00_bat_bachelor;04/02/2022;6.000.369.477.484.890
;;;;;;;;;;;;0;0;0;0;161;0;161;0;;;;;;;161;;;1;15.429.622.613.516.400;X;None;nogo;None;1;;;;;;;;;;;;;;;;;;;33;1;21;w;Psychologie;2023-01-17_14h59.38.704;00_bat_bachelor;04/02/2022;6.000.369.477.484.890
;;;;;;;;;;;;0;0;0;0;162;0;162;0;;;;;;;162;;;1;15.447.636.389.025.100;Y;l;go;l;1;;0.23101451934780926;;;;;;;;;;;;;;;;;33;1;21;w;Psychologie;2023-01-17_14h59.38.704;00_bat_bachelor;04/02/2022;6.000.369.477.484.890
;;;;;;;;;;;;0;0;0;0;163;0;163;0;;;;;;;163;;;1;1.546.097.947.588.880;X;d;go;d;1;;0.2883851582300849;;;;;;;;;;;;;;;;;33;1;21;w;Psychologie;2023-01-17_14h59.38.704;00_bat_bachelor;04/02/2022;6.000.369.477.484.890
;;;;;;;;;;;;0;0;0;0;164;0;164;0;;;;;;;164;;;1;15.474.987.216.976.000;Y;l;go;l;1;;0.5185571678448468;;;;;;;;;;;;;;;;;33;1;21;w;Psychologie;2023-01-17_14h59.38.704;00_bat_bachelor;04/02/2022;6.000.369.477.484.890
;;;;;;;;;;;;0;0;0;0;165;0;165;0;;;;;;;165;;;1;15.491.335.175.110.100;X;d;go;d;1;;0.6449682580423541;;;;;;;;;;;;;;;;;33;1;21;w;Psychologie;2023-01-17_14h59.38.704;00_bat_bachelor;04/02/2022;6.000.369.477.484.890
;;;;;;;;;;;;0;0;0;0;166;0;166;0;;;;;;;166;;;1;15.508.846.720.559.500;Y;l;go;l;1;;0.33270319731673226;;;;;;;;;;;;;;;;;33;1;21;w;Psychologie;2023-01-17_14h59.38.704;00_bat_bachelor;04/02/2022;6.000.369.477.484.890
;;;;;;;;;;;;0;0;0;0;167;0;167;0;;;;;;;167;;;1;15.523.190.669.968.000;X;d;go;d;1;;0.4987991168163717;;;;;;;;;;;;;;;;;33;1;21;w;Psychologie;2023-01-17_14h59.38.704;00_bat_bachelor;04/02/2022;6.000.369.477.484.890
;;;;;;;;;;;;0;0;0;0;168;0;168;0;;;;;;;168;;;1;15.539.204.674.325.300;X;None;nogo;None;1;;;;;;;;;;;;;;;;;;;33;1;21;w;Psychologie;2023-01-17_14h59.38.704;00_bat_bachelor;04/02/2022;6.000.369.477.484.890
;;;;;;;;;;;;0;0;0;0;169;0;169;0;;;;;;;169;;;1;15.557.218.095.894.200;Y;l;go;l;1;;0.2806479498394765;;;;;;;;;;;;;;;;;33;1;21;w;Psychologie;2023-01-17_14h59.38.704;00_bat_bachelor;04/02/2022;6.000.369.477.484.890
;;;;;;;;;;;;0;0;0;0;170;0;170;0;;;;;;;170;;;1;15.571.062.302.515.400;X;d;go;d;1;;0.44788083841558546;;;;;;;;;;;;;;;;;33;1;21;w;Psychologie;2023-01-17_14h59.38.704;00_bat_bachelor;04/02/2022;6.000.369.477.484.890
;;;;;;;;;;;;0;0;0;0;171;0;171;0;;;;;;;171;;;1;15.586.574.275.600.700;Y;l;go;l;1;;0.30456551403040066;;;;;;;;;;;;;;;;;33;1;21;w;Psychologie;2023-01-17_14h59.38.704;00_bat_bachelor;04/02/2022;6.000.369.477.484.890
;;;;;;;;;;;;0;0;0;0;172;0;172;0;;;;;;;172;;;1;15.600.749.657.818.200;Y;None;nogo;None;1;;;;;;;;;;;;;;;;;;;33;1;21;w;Psychologie;2023-01-17_14h59.38.704;00_bat_bachelor;04/02/2022;6.000.369.477.484.890
;;;;;;;;;;;;0;0;0;0;173;0;173;0;;;;;;;173;;;1;15.618.770.022.414.300;X;d;go;d;1;;0.2533946297480725;;;;;;;;;;;;;;;;;33;1;21;w;Psychologie;2023-01-17_14h59.38.704;00_bat_bachelor;04/02/2022;6.000.369.477.484.890
;;;;;;;;;;;;0;0;0;0;174;0;174;0;;;;;;;174;;;1;15.632.446.214.571.800;Y;l;go;l;1;;0.2931909740436822;;;;;;;;;;;;;;;;;33;1;21;w;Psychologie;2023-01-17_14h59.38.704;00_bat_bachelor;04/02/2022;6.000.369.477.484.890
;;;;;;;;;;;;0;0;0;0;175;0;175;0;;;;;;;175;;;1;15.646.454.915.658.100;X;d;go;d;1;;0.6046676714904606;;;;;;;;;;;;;;;;;33;1;21;w;Psychologie;2023-01-17_14h59.38.704;00_bat_bachelor;04/02/2022;6.000.369.477.484.890
;;;;;;;;;;;;0;0;0;0;176;0;176;0;;;;;;;176;;;1;15.663.636.788.539.500;X;None;nogo;None;1;15.671.642.428.294.800;;;;;;;;;;;;;;;;;;33;1;21;w;Psychologie;2023-01-17_14h59.38.704;00_bat_bachelor;04/02/2022;6.000.369.477.484.890
;;;;;;;;;;;;0;0;0;0;177;0;177;0;;;;;;;177;;;1;1.568.164.815.920.110;Y;l;go;l;1;;0.2373005768749863;;;;;;;;;;;;;;;;;33;1;21;w;Psychologie;2023-01-17_14h59.38.704;00_bat_bachelor;04/02/2022;6.000.369.477.484.890
;;;;;;;;;;;;0;0;0;0;178;0;178;0;;;;;;;178;;;1;15.695.158.780.529.100;X;d;go;None;0;157.031.668.784.644;;;;;;;;;;;;;;;;;;33;1;21;w;Psychologie;2023-01-17_14h59.38.704;00_bat_bachelor;04/02/2022;6.000.369.477.484.890
;;;;;;;;;;;;0;0;0;0;179;0;179;0;;;;;;;179;;;1;15.713.175.707.551.400;Y;l;go;l;1;;0.34897082578390837;;;;;;;;;;;;;;;;;33;1;21;w;Psychologie;2023-01-17_14h59.38.704;00_bat_bachelor;04/02/2022;6.000.369.477.484.890
;;;;;;;;;;;;0;0;0;0;180;0;180;0;;;;;;;180;;;1;15.727.683.933.244.500;X;d;go;d;1;;0.27330637763952836;;;;;;;;;;;;;;;;;33;1;21;w;Psychologie;2023-01-17_14h59.38.704;00_bat_bachelor;04/02/2022;6.000.369.477.484.890
;;;;;;;;;;;;0;0;0;0;181;0;181;0;;;;;;;181;;;1;15.741.527.422.289.900;X;None;nogo;None;1;1.574.953.343.052.940;;;;;;;;;;;;;;;;;;33;1;21;w;Psychologie;2023-01-17_14h59.38.704;00_bat_bachelor;04/02/2022;6.000.369.477.484.890
;;;;;;;;;;;;0;0;0;0;182;0;182;0;;;;;;;182;;;1;15.759.537.740.830.500;Y;l;go;l;1;;0.3197596884565428;;;;;;;;;;;;;;;;;33;1;21;w;Psychologie;2023-01-17_14h59.38.704;00_bat_bachelor;04/02/2022;6.000.369.477.484.890
;;;;;;;;;;;;0;0;0;0;183;0;183;0;;;;;;;183;;;1;15.773.884.478.116.500;X;d;go;d;1;;0.4379821766051464;;;;;;;;;;;;;;;;;33;1;21;w;Psychologie;2023-01-17_14h59.38.704;00_bat_bachelor;04/02/2022;6.000.369.477.484.890
;;;;;;;;;;;;0;0;0;0;184;0;184;0;;;;;;;184;;;1;1.578.939.731.423.160;Y;l;go;l;1;;0.5664165385533124;;;;;;;;;;;;;;;;;33;1;21;w;Psychologie;2023-01-17_14h59.38.704;00_bat_bachelor;04/02/2022;6.000.369.477.484.890
;;;;;;;;;;;;0;0;0;0;185;0;185;0;;;;;;;185;;;1;1.580.607.506.129.710;Y;None;nogo;None;1;;;;;;;;;;;;;;;;;;;33;1;21;w;Psychologie;2023-01-17_14h59.38.704;00_bat_bachelor;04/02/2022;6.000.369.477.484.890
;;;;;;;;;;;;0;0;0;0;186;0;186;0;;;;;;;186;;;1;15.824.087.745.897.100;Y;None;nogo;None;1;;;;;;;;;;;;;;;;;;;33;1;21;w;Psychologie;2023-01-17_14h59.38.704;00_bat_bachelor;04/02/2022;6.000.369.477.484.890
;;;;;;;;;;;;0;0;0;0;187;0;187;0;;;;;;;187;;;1;15.842.102.539.586.400;X;d;go;d;1;;0.49530723970383406;;;;;;;;;;;;;;;;;33;1;21;w;Psychologie;2023-01-17_14h59.38.704;00_bat_bachelor;04/02/2022;6.000.369.477.484.890
;;;;;;;;;;;;0;0;0;0;188;0;188;0;;;;;;;188;;;1;15.858.115.462.731.800;Y;l;go;l;1;;0.382644506462384;;;;;;;;;;;;;;;;;33;1;21;w;Psychologie;2023-01-17_14h59.38.704;00_bat_bachelor;04/02/2022;6.000.369.477.484.890
;;;;;;;;;;;;0;0;0;0;189;0;189;0;;;;;;;189;;;1;15.872.959.494.323.000;Y;None;nogo;None;1;;;;;;;;;;;;;;;;;;;33;1;21;w;Psychologie;2023-01-17_14h59.38.704;00_bat_bachelor;04/02/2022;6.000.369.477.484.890
;;;;;;;;;;;;0;0;0;0;190;0;190;0;;;;;;;190;;;1;15.890.973.938.921.800;Y;None;nogo;None;1;;;;;;;;;;;;;;;;;;;33;1;21;w;Psychologie;2023-01-17_14h59.38.704;00_bat_bachelor;04/02/2022;6.000.369.477.484.890
;;;;;;;;;;;;0;0;0;0;191;0;191;0;;;;;;;191;;;1;15.908.988.107.157.600;X;d;go;d;1;;0.35135530948173255;;;;;;;;;;;;;;;;;33;1;21;w;Psychologie;2023-01-17_14h59.38.704;00_bat_bachelor;04/02/2022;6.000.369.477.484.890
;;;;;;;;;;;;0;0;0;0;192;0;192;0;;;;;;;192;;;1;15.923.664.405.496.000;Y;l;go;l;1;;0.49974844965618104;;;;;;;;;;;;;;;;;33;1;21;w;Psychologie;2023-01-17_14h59.38.704;00_bat_bachelor;04/02/2022;6.000.369.477.484.890
;;;;;;;;;;;;0;0;0;0;193;0;193;0;;;;;;;193;;;1;15.939.678.206.216.700;X;d;go;d;1;;0.35470512602478266;;;;;;;;;;;;;;;;;33;1;21;w;Psychologie;2023-01-17_14h59.38.704;00_bat_bachelor;04/02/2022;6.000.369.477.484.890
;;;;;;;;;;;;0;0;0;0;194;0;194;0;;;;;;;194;;;1;15.954.352.516.677.400;Y;l;go;l;1;;0.37482632842147723;;;;;;;;;;;;;;;;;33;1;21;w;Psychologie;2023-01-17_14h59.38.704;00_bat_bachelor;04/02/2022;6.000.369.477.484.890
;;;;;;;;;;;;0;0;0;0;195;0;195;0;;;;;;;195;;;1;1.596.920.005.856.950;X;d;go;d;1;;0.39381783438147977;;;;;;;;;;;;;;;;;33;1;21;w;Psychologie;2023-01-17_14h59.38.704;00_bat_bachelor;04/02/2022;6.000.369.477.484.890
;;;;;;;;;;;;0;0;0;0;196;0;196;0;;;;;;;196;;;1;15.984.208.298.565.900;Y;l;go;l;1;;0.3485470684245229;;;;;;;;;;;;;;;;;33;1;21;w;Psychologie;2023-01-17_14h59.38.704;00_bat_bachelor;04/02/2022;6.000.369.477.484.890
;;;;;;;;;;;;0;0;0;0;197;0;197;0;;;;;;;197;;;1;15.998.723.210.316.300;Y;None;nogo;None;1;;;;;;;;;;;;;;;;;;;33;1;21;w;Psychologie;2023-01-17_14h59.38.704;00_bat_bachelor;04/02/2022;6.000.369.477.484.890
;;;;;;;;;;;;0;0;0;0;198;0;198;0;;;;;;;198;;;1;1.601.673.547.794.630;X;d;go;d;1;;0.21708919276716188;;;;;;;;;;;;;;;;;33;1;21;w;Psychologie;2023-01-17_14h59.38.704;00_bat_bachelor;04/02/2022;6.000.369.477.484.890
;;;;;;;;;;;;0;0;0;0;199;0;199;0;;;;;;;199;;;1;16.029.913.604.890.400;Y;l;go;l;1;;0.4660941629554145;;;;;;;;;;;;;;;;;33;1;21;w;Psychologie;2023-01-17_14h59.38.704;00_bat_bachelor;04/02/2022;6.000.369.477.484.890
;;;;;;;;;;;;0;0;0;0;200;0;200;0;;;;;;;200;;;1;16.045.591.614.258.500;X;d;go;d;1;;0.3224932628800161;;;;;;;;;;;;;;;;;33;1;21;w;Psychologie;2023-01-17_14h59.38.704;00_bat_bachelor;04/02/2022;6.000.369.477.484.890
;;;;;;;;;;;;0;0;0;0;201;0;201;0;;;;;;;201;;;1;16.059.932.179.427.100;Y;l;go;l;1;;0.37697178189409897;;;;;;;;;;;;;;;;;33;1;21;w;Psychologie;2023-01-17_14h59.38.704;00_bat_bachelor;04/02/2022;6.000.369.477.484.890
;;;;;;;;;;;;0;0;0;0;202;0;202;0;;;;;;;202;;;1;16.074.780.928.590.900;Y;None;nogo;None;1;;;;;;;;;;;;;;;;;;;33;1;21;w;Psychologie;2023-01-17_14h59.38.704;00_bat_bachelor;04/02/2022;6.000.369.477.484.890
;;;;;;;;;;;;0;0;0;0;203;0;203;0;;;;;;;203;;;1;16.092.796.090.765.600;X;d;go;d;1;;0.2268603395204991;;;;;;;;;;;;;;;;;33;1;21;w;Psychologie;2023-01-17_14h59.38.704;00_bat_bachelor;04/02/2022;6.000.369.477.484.890
;;;;;;;;;;;;0;0;0;0;204;0;204;0;;;;;;;204;;;1;16.106.134.804.298.600;Y;l;go;None;0;;;;;;;;;;;;;;;;;;;33;1;21;w;Psychologie;2023-01-17_14h59.38.704;00_bat_bachelor;04/02/2022;6.000.369.477.484.890
;;;;;;;;;;;;0;0;0;0;205;0;205;0;;;;;;;205;;;1;1.612.415.089.253.270;X;d;go;d;1;;0.29056115716230124;;;;;;;;;;;;;;;;;33;1;21;w;Psychologie;2023-01-17_14h59.38.704;00_bat_bachelor;04/02/2022;6.000.369.477.484.890
;;;;;;;;;;;;0;0;0;0;206;0;206;0;;;;;;;206;;;1;16.138.158.677.256.400;Y;l;go;l;1;;0.39327868312830105;;;;;;;;;;;;;;;;;33;1;21;w;Psychologie;2023-01-17_14h59.38.704;00_bat_bachelor;04/02/2022;6.000.369.477.484.890
;;;;;;;;;;;;0;0;0;0;207;0;207;0;;;;;;;207;;;1;16.153.169.423.918.000;Y;None;nogo;None;1;;;;;;;;;;;;;;;;;;;33;1;21;w;Psychologie;2023-01-17_14h59.38.704;00_bat_bachelor;04/02/2022;6.000.369.477.484.890
;;;;;;;;;;;;0;0;0;0;208;0;208;0;;;;;;;208;;;1;1.617.118.438.730.480;X;d;go;d;1;;0.2917950959526934;;;;;;;;;;;;;;;;;33;1;21;w;Psychologie;2023-01-17_14h59.38.704;00_bat_bachelor;04/02/2022;6.000.369.477.484.890
;;;;;;;;;;;;0;0;0;0;209;0;209;0;;;;;;;209;;;1;16.185.198.363.540.100;Y;l;go;l;1;;0.5059952344745398;;;;;;;;;;;;;;;;;33;1;21;w;Psychologie;2023-01-17_14h59.38.704;00_bat_bachelor;04/02/2022;6.000.369.477.484.890
;;;;;;;;;;;;0;0;0;0;210;0;210;0;;;;;;;210;;;1;1.620.137.615.448.440;Y;None;nogo;None;1;;;;;;;;;;;;;;;;;;;33;1;21;w;Psychologie;2023-01-17_14h59.38.704;00_bat_bachelor;04/02/2022;6.000.369.477.484.890
;;;;;;;;;;;;0;0;0;0;211;0;211;0;;;;;;;211;;;1;16.219.389.634.235.400;X;d;go;d;1;;0.3827875367132947;;;;;;;;;;;;;;;;;33;1;21;w;Psychologie;2023-01-17_14h59.38.704;00_bat_bachelor;04/02/2022;6.000.369.477.484.890
;;;;;;;;;;;;0;0;0;0;212;0;212;0;;;;;;;212;;;1;16.234.232.012.493.800;Y;l;go;l;1;;0.2903613996459171;;;;;;;;;;;;;;;;;33;1;21;w;Psychologie;2023-01-17_14h59.38.704;00_bat_bachelor;04/02/2022;6.000.369.477.484.890
;;;;;;;;;;;;0;0;0;0;213;0;213;0;;;;;;;213;;;1;162.482.449.075.178;X;d;go;d;1;;0.48902506090234965;;;;;;;;;;;;;;;;;33;1;21;w;Psychologie;2023-01-17_14h59.38.704;00_bat_bachelor;04/02/2022;6.000.369.477.484.890
;;;;;;;;;;;;0;0;0;0;214;0;214;0;;;;;;;214;;;1;16.264.255.227.028.000;Y;l;go;l;1;;0.31269835855346173;;;;;;;;;;;;;;;;;33;1;21;w;Psychologie;2023-01-17_14h59.38.704;00_bat_bachelor;04/02/2022;6.000.369.477.484.890
;;;;;;;;;;;;0;0;0;0;215;0;215;0;;;;;;;215;;;1;16.278.437.164.394.400;X;d;go;d;1;;0.3665548173012212;;;;;;;;;;;;;;;;;33;1;21;w;Psychologie;2023-01-17_14h59.38.704;00_bat_bachelor;04/02/2022;6.000.369.477.484.890
;;;;;;;;;;;;0;0;0;0;216;0;216;0;;;;;;;216;;;1;16.293.113.404.551.400;X;None;nogo;l;0;;0.38688353466568515;;;;;;;;;;;;;;;;;33;1;21;w;Psychologie;2023-01-17_14h59.38.704;00_bat_bachelor;04/02/2022;6.000.369.477.484.890
;;;;;;;;;;;;0;0;0;0;217;0;217;0;;;;;;;217;;;1;16.308.126.347.575.400;Y;l;go;l;1;;0.5338730391231366;;;;;;;;;;;;;;;;;33;1;21;w;Psychologie;2023-01-17_14h59.38.704;00_bat_bachelor;04/02/2022;6.000.369.477.484.890
;;;;;;;;;;;;0;0;0;0;218;0;218;0;;;;;;;218;;;1;16.324.469.825.711.500;X;d;go;d;1;;0.466750162653625;;;;;;;;;;;;;;;;;33;1;21;w;Psychologie;2023-01-17_14h59.38.704;00_bat_bachelor;04/02/2022;6.000.369.477.484.890
;;;;;;;;;;;;0;0;0;0;219;0;219;0;;;;;;;219;;;1;1.634.014.977.932.150;X;None;nogo;None;1;;;;;;;;;;;;;;;;;;;33;1;21;w;Psychologie;2023-01-17_14h59.38.704;00_bat_bachelor;04/02/2022;6.000.369.477.484.890
;;;;;;;;;;;;0;0;0;0;220;0;220;0;;;;;;;220;;;1;16.358.161.116.043.300;Y;l;go;l;1;;0.3612806380260736;;;;;;;;;;;;;;;;;33;1;21;w;Psychologie;2023-01-17_14h59.38.704;00_bat_bachelor;04/02/2022;6.000.369.477.484.890
;;;;;;;;;;;;0;0;0;0;221;0;221;0;;;;;;;221;;;1;16.372.841.511.349.500;X;d;go;d;1;;0.5421406715177;;;;;;;;;;;;;;;;;33;1;21;w;Psychologie;2023-01-17_14h59.38.704;00_bat_bachelor;04/02/2022;6.000.369.477.484.890
;;;;;;;;;;;;0;0;0;0;222;0;222;0;;;;;;;222;;;1;16.389.353.168.798.800;Y;l;go;l;1;;0.5389717033831403;;;;;;;;;;;;;;;;;33;1;21;w;Psychologie;2023-01-17_14h59.38.704;00_bat_bachelor;04/02/2022;6.000.369.477.484.890
;;;;;;;;;;;;0;0;0;0;223;0;223;0;;;;;;;223;;;1;16.405.865.296.550.300;X;d;go;d;1;;0.42293054750189185;;;;;;;;;;;;;;;;;33;1;21;w;Psychologie;2023-01-17_14h59.38.704;00_bat_bachelor;04/02/2022;6.000.369.477.484.890
;;;;;;;;;;;;0;0;0;0;224;0;224;0;;;;;;;224;;;1;16.421.207.810.323.600;X;None;nogo;None;1;;;;;;;;;;;;;;;;;;;33;1;21;w;Psychologie;2023-01-17_14h59.38.704;00_bat_bachelor;04/02/2022;6.000.369.477.484.890
;;;;;;;;;;;;0;0;0;0;225;0;225;0;;;;;;;225;;;1;16.439.223.646.437.100;Y;l;go;l;1;;0.2876447949092835;;;;;;;;;;;;;;;;;33;1;21;w;Psychologie;2023-01-17_14h59.38.704;00_bat_bachelor;04/02/2022;6.000.369.477.484.890
;;;;;;;;;;;;0;0;0;0;226;0;226;0;;;;;;;226;;;1;16.453.235.983.885.800;X;d;go;d;1;;0.3422513139084913;;;;;;;;;;;;;;;;;33;1;21;w;Psychologie;2023-01-17_14h59.38.704;00_bat_bachelor;04/02/2022;6.000.369.477.484.890
;;;;;;;;;;;;0;0;0;0;227;0;227;0;;;;;;;227;;;1;16.467.744.529.578.400;Y;l;go;l;1;;0.6508441339829005;;;;;;;;;;;;;;;;;33;1;21;w;Psychologie;2023-01-17_14h59.38.704;00_bat_bachelor;04/02/2022;6.000.369.477.484.890
;;;;;;;;;;;;0;0;0;0;228;0;228;0;;;;;;;228;;;1;16.485.426.508.884.400;Y;None;nogo;None;1;;;;;;;;;;;;;;;;;;;33;1;21;w;Psychologie;2023-01-17_14h59.38.704;00_bat_bachelor;04/02/2022;6.000.369.477.484.890
;;;;;;;;;;;;0;0;0;0;229;0;229;0;;;;;;;229;;;1;16.503.436.832.273.100;X;d;go;d;1;;0.31340963090769947;;;;;;;;;;;;;;;;;33;1;21;w;Psychologie;2023-01-17_14h59.38.704;00_bat_bachelor;04/02/2022;6.000.369.477.484.890
;;;;;;;;;;;;0;0;0;0;230;0;230;0;;;;;;;230;;;1;1.651.761.381.933.870;Y;l;go;l;1;;0.38462171755963936;;;;;;;;;;;;;;;;;33;1;21;w;Psychologie;2023-01-17_14h59.38.704;00_bat_bachelor;04/02/2022;6.000.369.477.484.890
;;;;;;;;;;;;0;0;0;0;231;0;231;0;;;;;;;231;;;1;16.532.629.152.665.000;X;d;go;d;1;;0.4991084499633871;;;;;;;;;;;;;;;;;33;1;21;w;Psychologie;2023-01-17_14h59.38.704;00_bat_bachelor;04/02/2022;6.000.369.477.484.890
;;;;;;;;;;;;0;0;0;0;232;0;232;0;;;;;;;232;;;1;16.548.638.647.932.600;X;None;nogo;None;1;;;;;;;;;;;;;;;;;;;33;1;21;w;Psychologie;2023-01-17_14h59.38.704;00_bat_bachelor;04/02/2022;6.000.369.477.484.890
;;;;;;;;;;;;0;0;0;0;233;0;233;0;;;;;;;233;;;1;1.656.665.369.859.190;Y;l;go;l;1;;0.2960918211610988;;;;;;;;;;;;;;;;;33;1;21;w;Psychologie;2023-01-17_14h59.38.704;00_bat_bachelor;04/02/2022;6.000.369.477.484.890
;;;;;;;;;;;;0;0;0;0;234;0;234;0;;;;;;;234;;;1;1.658.066.509.058.690;X;d;go;d;1;;0.40014801314100623;;;;;;;;;;;;;;;;;33;1;21;w;Psychologie;2023-01-17_14h59.38.704;00_bat_bachelor;04/02/2022;6.000.369.477.484.890
;;;;;;;;;;;;0;0;0;0;235;0;235;0;;;;;;;235;;;1;16.595.677.034.823.400;X;None;nogo;None;1;;;;;;;;;;;;;;;;;;;33;1;21;w;Psychologie;2023-01-17_14h59.38.704;00_bat_bachelor;04/02/2022;6.000.369.477.484.890
;;;;;;;;;;;;0;0;0;0;236;0;236;0;;;;;;;236;;;1;16.613.687.964.272.600;X;None;nogo;None;1;16.621.696.779.783.200;;;;;;;;;;;;;;;;;;33;1;21;w;Psychologie;2023-01-17_14h59.38.704;00_bat_bachelor;04/02/2022;6.000.369.477.484.890
;;;;;;;;;;;;0;0;0;0;237;0;237;0;;;;;;;237;;;1;1.663.170.411.068.880;Y;l;go;l;1;;0.4321930885198526;;;;;;;;;;;;;;;;;33;1;21;w;Psychologie;2023-01-17_14h59.38.704;00_bat_bachelor;04/02/2022;6.000.369.477.484.890
;;;;;;;;;;;;0;0;0;0;238;0;238;0;;;;;;;238;;;1;1.664.704.986.324.880;X;d;go;d;1;;0.46521173912333325;;;;;;;;;;;;;;;;;33;1;21;w;Psychologie;2023-01-17_14h59.38.704;00_bat_bachelor;04/02/2022;6.000.369.477.484.890
;;;;;;;;;;;;0;0;0;0;239;0;239;0;;;;;;;239;;;1;1.666.272.807.625.290;Y;l;go;l;1;;0.6416300778510049;;;;;;;;;;;;;;;;;33;1;21;w;Psychologie;2023-01-17_14h59.38.704;00_bat_bachelor;04/02/2022;6.000.369.477.484.890
;;;;;;;;;;;;0;0;0;0;240;0;240;0;;;;;;;240;;;1;16.680.240.925.943.900;X;d;go;d;1;;0.346158221072983;;;;;;;;;;;;;;;;;33;1;21;w;Psychologie;2023-01-17_14h59.38.704;00_bat_bachelor;04/02/2022;6.000.369.477.484.890
;;;;;;;;;;;;0;0;0;0;241;0;241;0;;;;;;;241;;;1;16.694.749.268.000.500;Y;l;go;l;1;;0.5430526711279526;;;;;;;;;;;;;;;;;33;1;21;w;Psychologie;2023-01-17_14h59.38.704;00_bat_bachelor;04/02/2022;6.000.369.477.484.890
;;;;;;;;;;;;0;0;0;0;242;0;242;0;;;;;;;242;;;1;1.671.126.571.575.000;X;d;go;d;1;;0.3635138490353711;;;;;;;;;;;;;;;;;33;1;21;w;Psychologie;2023-01-17_14h59.38.704;00_bat_bachelor;04/02/2022;6.000.369.477.484.890
;;;;;;;;;;;;0;0;0;0;243;0;243;0;;;;;;;243;;;1;16.725.943.124.391.400;X;None;nogo;None;1;;;;;;;;;;;;;;;;;;;33;1;21;w;Psychologie;2023-01-17_14h59.38.704;00_bat_bachelor;04/02/2022;6.000.369.477.484.890
;;;;;;;;;;;;0;0;0;0;244;0;244;0;;;;;;;244;;;1;16.743.957.874.444.800;Y;l;go;l;1;;0.30973787512630224;;;;;;;;;;;;;;;;;33;1;21;w;Psychologie;2023-01-17_14h59.38.704;00_bat_bachelor;04/02/2022;6.000.369.477.484.890
;;;;;;;;;;;;0;0;0;0;245;0;245;0;;;;;;;245;;;1;16.758.132.849.390.300;X;d;go;d;1;;0.42835842369822785;;;;;;;;;;;;;;;;;33;1;21;w;Psychologie;2023-01-17_14h59.38.704;00_bat_bachelor;04/02/2022;6.000.369.477.484.890
;;;;;;;;;;;;0;0;0;0;246;0;246;0;;;;;;;246;;;1;16.773.478.800.737.600;Y;l;go;l;1;;0.5737430804874748;;;;;;;;;;;;;;;;;33;1;21;w;Psychologie;2023-01-17_14h59.38.704;00_bat_bachelor;04/02/2022;6.000.369.477.484.890
;;;;;;;;;;;;0;0;0;0;247;0;247;0;;;;;;;247;;;1;16.790.324.184.085.400;X;d;go;d;1;;0.5848897417308763;;;;;;;;;;;;;;;;;33;1;21;w;Psychologie;2023-01-17_14h59.38.704;00_bat_bachelor;04/02/2022;6.000.369.477.484.890
;;;;;;;;;;;;0;0;0;0;248;0;248;0;;;;;;;248;;;1;1.680.733.777.583.630;Y;l;go;l;1;;0.45237392716808245;;;;;;;;;;;;;;;;;33;1;21;w;Psychologie;2023-01-17_14h59.38.704;00_bat_bachelor;04/02/2022;6.000.369.477.484.890
;;;;;;;;;;;;0;0;0;0;249;0;249;0;;;;;;;249;;;1;1.682.301.606.156.800;Y;None;nogo;None;1;;;;;;;;;;;;;;;;;;;33;1;21;w;Psychologie;2023-01-17_14h59.38.704;00_bat_bachelor;04/02/2022;6.000.369.477.484.890
;;;;;;;;;;;;1;0;1;0;0;0;0;0;;;;;;;0;;;0.2;16.993.144.488.172.200;X;d;go;d;1;;0.6557197680231184;;;;;;;;16.831.064.974.029.400;space;15.987.150.879.984.200;;;;;;;33;1;21;w;Psychologie;2023-01-17_14h59.38.704;00_bat_bachelor;04/02/2022;6.000.369.477.484.890
;;;;;;;;;;;;1;0;1;0;1;0;1;0;;;;;;;1;;;0.2;1.700.281.956.711.780;Y;l;go;l;1;;0.4881722128484398;;;;;;;;;;;;;;;;;33;1;21;w;Psychologie;2023-01-17_14h59.38.704;00_bat_bachelor;04/02/2022;6.000.369.477.484.890
;;;;;;;;;;;;1;0;1;0;2;0;2;0;;;;;;;2;;;0.2;17.010.827.015.356.600;X;d;go;d;1;;0.43894314585486427;;;;;;;;;;;;;;;;;33;1;21;w;Psychologie;2023-01-17_14h59.38.704;00_bat_bachelor;04/02/2022;6.000.369.477.484.890
;;;;;;;;;;;;1;0;1;0;3;0;3;0;;;;;;;3;;;0.2;17.018.333.663.838.500;Y;l;go;l;1;;0.4574590156553313;;;;;;;;;;;;;;;;;33;1;21;w;Psychologie;2023-01-17_14h59.38.704;00_bat_bachelor;04/02/2022;6.000.369.477.484.890
;;;;;;;;;;;;1;0;1;0;4;0;4;0;;;;;;;4;;;0.2;17.026.004.384.967.900;X;d;go;d;1;;0.37768063007388264;;;;;;;;;;;;;;;;;33;1;21;w;Psychologie;2023-01-17_14h59.38.704;00_bat_bachelor;04/02/2022;6.000.369.477.484.890
;;;;;;;;;;;;1;0;1;0;5;0;5;0;;;;;;;5;;;0.2;1.703.284.342.650.030;X;None;nogo;None;1;17.040.849.323.224.900;;;;;;;;;;;;;;;;;;33;1;21;w;Psychologie;2023-01-17_14h59.38.704;00_bat_bachelor;04/02/2022;6.000.369.477.484.890
;;;;;;;;;;;;1;0;1;0;6;0;6;0;;;;;;;6;;;0.2;17.042.850.684.678.400;Y;l;go;l;1;;0.3410159205086529;;;;;;;;;;;;;;;;;33;1;21;w;Psychologie;2023-01-17_14h59.38.704;00_bat_bachelor;04/02/2022;6.000.369.477.484.890
;;;;;;;;;;;;1;0;1;0;7;0;7;0;;;;;;;7;;;0.2;1.704.935.708.637.230;X;d;go;d;1;;0.4742216742015444;;;;;;;;;;;;;;;;;33;1;21;w;Psychologie;2023-01-17_14h59.38.704;00_bat_bachelor;04/02/2022;6.000.369.477.484.890
;;;;;;;;;;;;1;0;1;0;8;0;8;0;;;;;;;8;;;0.2;1.705.719.622.923.810;Y;l;go;l;1;;0.5057377800694667;;;;;;;;;;;;;;;;;33;1;21;w;Psychologie;2023-01-17_14h59.38.704;00_bat_bachelor;04/02/2022;6.000.369.477.484.890
;;;;;;;;;;;;1;0;1;0;9;0;9;0;;;;;;;9;;;0.2;17.065.366.877.397.700;Y;None;nogo;None;1;17.073.371.615.335.300;;;;;;;;;;;;;;;;;;33;1;21;w;Psychologie;2023-01-17_14h59.38.704;00_bat_bachelor;04/02/2022;6.000.369.477.484.890
;;;;;;;;;;;;1;0;1;0;10;0;10;0;;;;;;;10;;;0.2;17.075.375.095.575.500;X;d;go;d;1;;0.32094514241907746;;;;;;;;;;;;;;;;;33;1;21;w;Psychologie;2023-01-17_14h59.38.704;00_bat_bachelor;04/02/2022;6.000.369.477.484.890
;;;;;;;;;;;;1;0;1;0;11;0;11;0;;;;;;;11;;;0.2;1.708.171.137.856.430;Y;l;go;l;1;;0.47093149391002953;;;;;;;;;;;;;;;;;33;1;21;w;Psychologie;2023-01-17_14h59.38.704;00_bat_bachelor;04/02/2022;6.000.369.477.484.890
;;;;;;;;;;;;1;0;1;0;12;0;12;0;;;;;;;12;;;0.2;17.089.552.102.035.300;X;d;go;d;1;;0.3911952901398763;;;;;;;;;;;;;;;;;33;1;21;w;Psychologie;2023-01-17_14h59.38.704;00_bat_bachelor;04/02/2022;6.000.369.477.484.890
;;;;;;;;;;;;1;0;1;0;13;0;13;0;;;;;;;13;;;0.2;1.709.655.850.348.700;X;None;nogo;None;1;;;;;;;;;;;;;;;;;;;33;1;21;w;Psychologie;2023-01-17_14h59.38.704;00_bat_bachelor;04/02/2022;6.000.369.477.484.890
;;;;;;;;;;;;1;0;1;0;14;0;14;0;;;;;;;14;;;0.2;17.106.566.130.149.800;Y;l;go;l;1;;0.43293248204281554;;;;;;;;;;;;;;;;;33;1;21;w;Psychologie;2023-01-17_14h59.38.704;00_bat_bachelor;04/02/2022;6.000.369.477.484.890
;;;;;;;;;;;;1;0;1;0;15;0;15;0;;;;;;;15;;;0.2;17.113.905.889.015.200;X;d;go;d;1;;0.49992687377380207;;;;;;;;;;;;;;;;;33;1;21;w;Psychologie;2023-01-17_14h59.38.704;00_bat_bachelor;04/02/2022;6.000.369.477.484.890
;;;;;;;;;;;;1;0;1;0;16;0;16;0;;;;;;;16;;;0.2;1.712.190.950.210.430;X;None;nogo;None;1;;;;;;;;;;;;;;;;;;;33;1;21;w;Psychologie;2023-01-17_14h59.38.704;00_bat_bachelor;04/02/2022;6.000.369.477.484.890
;;;;;;;;;;;;1;0;1;0;17;0;17;0;;;;;;;17;;;0.2;1.713.191.638.210.140;Y;l;go;l;1;;0.3142881758976728;;;;;;;;;;;;;;;;;33;1;21;w;Psychologie;2023-01-17_14h59.38.704;00_bat_bachelor;04/02/2022;6.000.369.477.484.890
;;;;;;;;;;;;1;0;1;0;18;0;18;0;;;;;;;18;;;0.2;17.138.087.928.199.600;X;d;go;None;0;;;;;;;;;;;;;;;;;;;33;1;21;w;Psychologie;2023-01-17_14h59.38.704;00_bat_bachelor;04/02/2022;6.000.369.477.484.890
;;;;;;;;;;;;1;0;1;0;19;0;19;0;;;;;;;19;;;0.2;1.714.809.774.637.680;Y;l;go;l;1;;0.6001605222118087;;;;;;;;;;;;;;;;;33;1;21;w;Psychologie;2023-01-17_14h59.38.704;00_bat_bachelor;04/02/2022;6.000.369.477.484.890
;;;;;;;;;;;;1;0;1;0;20;0;20;0;;;;;;;20;;;0.2;17.157.104.268.070.500;Y;None;nogo;None;1;;;;;;;;;;;;;;;;;;;33;1;21;w;Psychologie;2023-01-17_14h59.38.704;00_bat_bachelor;04/02/2022;6.000.369.477.484.890
;;;;;;;;;;;;1;0;1;0;21;0;21;0;;;;;;;21;;;0.2;17.167.110.532.310.300;X;d;go;d;1;;0.39472110668430105;;;;;;;;;;;;;;;;;33;1;21;w;Psychologie;2023-01-17_14h59.38.704;00_bat_bachelor;04/02/2022;6.000.369.477.484.890
;;;;;;;;;;;;1;0;1;0;22;0;22;0;;;;;;;22;;;0.2;17.174.114.635.580.900;Y;l;go;l;1;;0.4785440962878056;;;;;;;;;;;;;;;;;33;1;21;w;Psychologie;2023-01-17_14h59.38.704;00_bat_bachelor;04/02/2022;6.000.369.477.484.890
;;;;;;;;;;;;1;0;1;0;23;0;23;0;;;;;;;23;;;0.2;1.718.195.655.662.740;X;d;go;d;1;;0.46266725548775867;;;;;;;;;;;;;;;;;33;1;21;w;Psychologie;2023-01-17_14h59.38.704;00_bat_bachelor;04/02/2022;6.000.369.477.484.890
;;;;;;;;;;;;1;0;1;0;24;0;24;0;;;;;;;24;;;0.2;17.189.629.832.906.600;Y;l;go;l;1;;0.6386802610941231;;;;;;;;;;;;;;;;;33;1;21;w;Psychologie;2023-01-17_14h59.38.704;00_bat_bachelor;04/02/2022;6.000.369.477.484.890
;;;;;;;;;;;;1;0;1;0;25;0;25;0;;;;;;;25;;;0.2;17.199.136.519.206.800;X;d;go;d;1;;0.39168595656519756;;;;;;;;;;;;;;;;;33;1;21;w;Psychologie;2023-01-17_14h59.38.704;00_bat_bachelor;04/02/2022;6.000.369.477.484.890
;;;;;;;;;;;;1;0;1;0;26;0;26;0;;;;;;;26;;;0.2;17.206.139.550.962.800;Y;l;go;l;1;;0.49221536243567243;;;;;;;;;;;;;;;;;33;1;21;w;Psychologie;2023-01-17_14h59.38.704;00_bat_bachelor;04/02/2022;6.000.369.477.484.890
;;;;;;;;;;;;1;0;1;0;27;0;27;0;;;;;;;27;;;0.2;17.214.145.835.565.800;Y;None;nogo;d;0;;0.44383041613036767;;;;;;;;;;;;;;;;;33;1;21;w;Psychologie;2023-01-17_14h59.38.704;00_bat_bachelor;04/02/2022;6.000.369.477.484.890
;;;;;;;;;;;;1;0;1;0;28;0;28;0;;;;;;;28;;;0.2;17.221.650.694.957.300;X;d;go;None;0;;;;;;;;;;;;;;;;;;;33;1;21;w;Psychologie;2023-01-17_14h59.38.704;00_bat_bachelor;04/02/2022;6.000.369.477.484.890
;;;;;;;;;;;;1;0;1;0;29;0;29;0;;;;;;;29;;;0.2;17.231.661.943.436.400;Y;l;go;None;0;;;;;;;;;;;;;;;;;;;33;1;21;w;Psychologie;2023-01-17_14h59.38.704;00_bat_bachelor;04/02/2022;6.000.369.477.484.890
;;;;;;;;;;;;1;0;1;0;30;0;30;0;;;;;;;30;;;0.2;1.724.166.909.009.970;X;d;go;l;0;;0.2835395848378539;;;;;;;;;;;;;;;;;33;1;21;w;Psychologie;2023-01-17_14h59.38.704;00_bat_bachelor;04/02/2022;6.000.369.477.484.890
;;;;;;;;;;;;1;0;1;0;31;0;31;0;;;;;;;31;;;0.2;17.247.505.916.361.100;Y;l;go;None;0;;;;;;;;;;;;;;;;;;;33;1;21;w;Psychologie;2023-01-17_14h59.38.704;00_bat_bachelor;04/02/2022;6.000.369.477.484.890
;;;;;;;;;;;;1;0;1;0;32;0;32;0;;;;;;;32;;;0.2;17.257.510.294.540.500;Y;None;nogo;l;0;;0.5547321806079708;;;;;;;;;;;;;;;;;33;1;21;w;Psychologie;2023-01-17_14h59.38.704;00_bat_bachelor;04/02/2022;6.000.369.477.484.890
;;;;;;;;;;;;1;0;1;0;33;0;33;0;;;;;;;33;;;0.2;17.266.187.041.848.800;X;d;go;d;1;;0.5034987509134226;;;;;;;;;;;;;;;;;33;1;21;w;Psychologie;2023-01-17_14h59.38.704;00_bat_bachelor;04/02/2022;6.000.369.477.484.890
;;;;;;;;;;;;1;0;1;0;34;0;34;0;;;;;;;34;;;0.2;1.727.435.995.909.850;Y;l;go;l;1;;0.48530482029309496;;;;;;;;;;;;;;;;;33;1;21;w;Psychologie;2023-01-17_14h59.38.704;00_bat_bachelor;04/02/2022;6.000.369.477.484.890
;;;;;;;;;;;;1;0;1;0;35;0;35;0;;;;;;;35;;;0.2;17.282.364.314.005.200;Y;None;nogo;None;1;;;;;;;;;;;;;;;;;;;33;1;21;w;Psychologie;2023-01-17_14h59.38.704;00_bat_bachelor;04/02/2022;6.000.369.477.484.890
;;;;;;;;;;;;1;0;1;0;36;0;36;0;;;;;;;36;;;0.2;17.292.372.469.152.900;X;d;go;d;1;;0.30014466762077063;;;;;;;;;;;;;;;;;33;1;21;w;Psychologie;2023-01-17_14h59.38.704;00_bat_bachelor;04/02/2022;6.000.369.477.484.890
;;;;;;;;;;;;1;0;1;0;37;0;37;0;;;;;;;37;;;0.2;17.298.378.997.149.400;Y;l;go;l;1;;0.5958589485380799;;;;;;;;;;;;;;;;;33;1;21;w;Psychologie;2023-01-17_14h59.38.704;00_bat_bachelor;04/02/2022;6.000.369.477.484.890
;;;;;;;;;;;;1;0;1;0;38;0;38;0;;;;;;;38;;;0.2;17.307.385.019.449.800;X;d;go;d;1;;0.5274361937772483;;;;;;;;;;;;;;;;;33;1;21;w;Psychologie;2023-01-17_14h59.38.704;00_bat_bachelor;04/02/2022;6.000.369.477.484.890
;;;;;;;;;;;;1;0;1;0;39;0;39;0;;;;;;;39;;;0.2;17.315.726.581.466.100;X;None;nogo;None;1;;;;;;;;;;;;;;;;;;;33;1;21;w;Psychologie;2023-01-17_14h59.38.704;00_bat_bachelor;04/02/2022;6.000.369.477.484.890
;;;;;;;;;;;;1;0;1;0;40;0;40;0;;;;;;;40;;;0.2;1.732.573.338.873.560;Y;l;go;l;1;;0.3246639284770936;;;;;;;;;;;;;;;;;33;1;21;w;Psychologie;2023-01-17_14h59.38.704;00_bat_bachelor;04/02/2022;6.000.369.477.484.890
;;;;;;;;;;;;1;0;1;0;41;0;41;0;;;;;;;41;;;0.2;1.733.207.209.111.650;X;d;go;d;1;;0.4429984166054055;;;;;;;;;;;;;;;;;33;1;21;w;Psychologie;2023-01-17_14h59.38.704;00_bat_bachelor;04/02/2022;6.000.369.477.484.890
;;;;;;;;;;;;1;0;1;0;42;0;42;0;;;;;;;42;;;0.2;17.339.577.910.507.700;Y;l;go;l;1;;0.540362732950598;;;;;;;;;;;;;;;;;33;1;21;w;Psychologie;2023-01-17_14h59.38.704;00_bat_bachelor;04/02/2022;6.000.369.477.484.890
;;;;;;;;;;;;1;0;1;0;43;0;43;0;;;;;;;43;;;0.2;1.734.808.476.698.930;X;d;go;d;1;;0.42610824294388294;;;;;;;;;;;;;;;;;33;1;21;w;Psychologie;2023-01-17_14h59.38.704;00_bat_bachelor;04/02/2022;6.000.369.477.484.890
;;;;;;;;;;;;1;0;1;0;44;0;44;0;;;;;;;44;;;0.2;17.355.422.644.643.600;X;None;nogo;None;1;17.363.428.017.732.200;;;;;;;;;;;;;;;;;;33;1;21;w;Psychologie;2023-01-17_14h59.38.704;00_bat_bachelor;04/02/2022;6.000.369.477.484.890
;;;;;;;;;;;;1;0;1;0;45;0;45;0;;;;;;;45;;;0.2;17.365.430.077.367.300;Y;l;go;l;1;;0.33898440637858585;;;;;;;;;;;;;;;;;33;1;21;w;Psychologie;2023-01-17_14h59.38.704;00_bat_bachelor;04/02/2022;6.000.369.477.484.890
;;;;;;;;;;;;1;0;1;0;46;0;46;0;;;;;;;46;;;0.2;17.371.932.071.790.700;X;d;go;d;1;;0.4242440013913438;;;;;;;;;;;;;;;;;33;1;21;w;Psychologie;2023-01-17_14h59.38.704;00_bat_bachelor;04/02/2022;6.000.369.477.484.890
;;;;;;;;;;;;1;0;1;0;47;0;47;0;;;;;;;47;;;0.2;17.379.274.778.533.700;Y;l;go;l;1;;0.4586454392410815;;;;;;;;;;;;;;;;;33;1;21;w;Psychologie;2023-01-17_14h59.38.704;00_bat_bachelor;04/02/2022;6.000.369.477.484.890
;;;;;;;;;;;;1;0;1;0;48;0;48;0;;;;;;;48;;;0.2;17.386.947.628.146.700;X;d;go;d;1;;0.507138991553802;;;;;;;;;;;;;;;;;33;1;21;w;Psychologie;2023-01-17_14h59.38.704;00_bat_bachelor;04/02/2022;6.000.369.477.484.890
;;;;;;;;;;;;1;0;1;0;49;0;49;0;;;;;;;49;;;0.2;17.395.115.081.156.200;Y;l;go;l;1;;0.4742260377970524;;;;;;;;;;;;;;;;;33;1;21;w;Psychologie;2023-01-17_14h59.38.704;00_bat_bachelor;04/02/2022;6.000.369.477.484.890
;;;;;;;;;;;;1;0;1;0;50;0;50;0;;;;;;;50;;;0.2;1.740.295.915.008.050;X;d;go;d;1;;0.5055831134668551;;;;;;;;;;;;;;;;;33;1;21;w;Psychologie;2023-01-17_14h59.38.704;00_bat_bachelor;04/02/2022;6.000.369.477.484.890
;;;;;;;;;;;;1;0;1;0;51;0;51;0;;;;;;;51;;;0.2;17.411.131.853.996.700;X;None;nogo;None;1;;;;;;;;;;;;;;;;;;;33;1;21;w;Psychologie;2023-01-17_14h59.38.704;00_bat_bachelor;04/02/2022;6.000.369.477.484.890
;;;;;;;;;;;;1;0;1;0;52;0;52;0;;;;;;;52;;;0.2;17.421.138.952.175.300;Y;l;go;l;1;;0.2883885521441698;;;;;;;;;;;;;;;;;33;1;21;w;Psychologie;2023-01-17_14h59.38.704;00_bat_bachelor;04/02/2022;6.000.369.477.484.890
;;;;;;;;;;;;1;0;1;0;53;0;53;0;;;;;;;53;;;0.2;17.427.143.472.900.400;X;d;go;d;1;;0.5836805301951244;;;;;;;;;;;;;;;;;33;1;21;w;Psychologie;2023-01-17_14h59.38.704;00_bat_bachelor;04/02/2022;6.000.369.477.484.890
;;;;;;;;;;;;1;0;1;0;54;0;54;0;;;;;;;54;;;0.2;1.743.598.475.831.030;Y;l;go;None;0;;;;;;;;;;;;;;;;;;;33;1;21;w;Psychologie;2023-01-17_14h59.38.704;00_bat_bachelor;04/02/2022;6.000.369.477.484.890
;;;;;;;;;;;;1;0;1;0;55;0;55;0;;;;;;;55;;;0.2;17.445.989.010.429.400;Y;None;nogo;None;1;;;;;;;;;;;;;;;;;;;33;1;21;w;Psychologie;2023-01-17_14h59.38.704;00_bat_bachelor;04/02/2022;6.000.369.477.484.890
;;;;;;;;;;;;1;0;1;0;56;0;56;0;;;;;;;56;;;0.2;17.455.999.982.545.600;X;d;go;d;1;;0.3540307021467015;;;;;;;;;;;;;;;;;33;1;21;w;Psychologie;2023-01-17_14h59.38.704;00_bat_bachelor;04/02/2022;6.000.369.477.484.890
;;;;;;;;;;;;1;0;1;0;57;0;57;0;;;;;;;57;;;0.2;17.462.669.894.463.000;Y;l;go;l;1;;0.5031433571130037;;;;;;;;;;;;;;;;;33;1;21;w;Psychologie;2023-01-17_14h59.38.704;00_bat_bachelor;04/02/2022;6.000.369.477.484.890
;;;;;;;;;;;;1;0;1;0;58;0;58;0;;;;;;;58;;;0.2;1.747.084.065.413.800;Y;None;nogo;None;1;;;;;;;;;;;;;;;;;;;33;1;21;w;Psychologie;2023-01-17_14h59.38.704;00_bat_bachelor;04/02/2022;6.000.369.477.484.890
;;;;;;;;;;;;1;0;1;0;59;0;59;0;;;;;;;59;;;0.2;17.480.848.877.164.500;Y;None;nogo;d;0;;0.34874343196861446;;;;;;;;;;;;;;;;;33;1;21;w;Psychologie;2023-01-17_14h59.38.704;00_bat_bachelor;04/02/2022;6.000.369.477.484.890
;;;;;;;;;;;;1;0;1;0;60;0;60;0;;;;;;;60;;;0.2;17.487.357.198.857.300;X;d;go;d;1;;0.6100940931355581;;;;;;;;;;;;;;;;;33;1;21;w;Psychologie;2023-01-17_14h59.38.704;00_bat_bachelor;04/02/2022;6.000.369.477.484.890
;;;;;;;;;;;;1;0;1;0;61;0;61;0;;;;;;;61;;;0.2;17.496.530.401.682.200;Y;l;go;l;1;;0.49321124074049294;;;;;;;;;;;;;;;;;33;1;21;w;Psychologie;2023-01-17_14h59.38.704;00_bat_bachelor;04/02/2022;6.000.369.477.484.890
;;;;;;;;;;;;1;0;1;0;62;0;62;0;;;;;;;62;;;0.2;17.504.536.298.406.800;X;d;go;d;1;;0.6046060957596637;;;;;;;;;;;;;;;;;33;1;21;w;Psychologie;2023-01-17_14h59.38.704;00_bat_bachelor;04/02/2022;6.000.369.477.484.890
;;;;;;;;;;;;1;0;1;0;63;0;63;0;;;;;;;63;;;0.2;17.513.709.598.201.600;X;None;nogo;None;1;;;;;;;;;;;;;;;;;;;33;1;21;w;Psychologie;2023-01-17_14h59.38.704;00_bat_bachelor;04/02/2022;6.000.369.477.484.890
;;;;;;;;;;;;1;0;1;0;64;0;64;0;;;;;;;64;;;0.2;17.523.717.147.288.800;Y;l;go;l;1;;0.4464461724855937;;;;;;;;;;;;;;;;;33;1;21;w;Psychologie;2023-01-17_14h59.38.704;00_bat_bachelor;04/02/2022;6.000.369.477.484.890
;;;;;;;;;;;;1;0;1;0;65;0;65;0;;;;;;;65;;;0.2;17.531.223.626.073.300;X;d;go;d;1;;0.3994983164011501;;;;;;;;;;;;;;;;;33;1;21;w;Psychologie;2023-01-17_14h59.38.704;00_bat_bachelor;04/02/2022;6.000.369.477.484.890
;;;;;;;;;;;;1;0;1;0;66;0;66;0;;;;;;;66;;;0.2;17.538.227.326.920.000;Y;l;go;l;1;;0.4513300489052199;;;;;;;;;;;;;;;;;33;1;21;w;Psychologie;2023-01-17_14h59.38.704;00_bat_bachelor;04/02/2022;6.000.369.477.484.890
;;;;;;;;;;;;1;0;1;0;67;0;67;0;;;;;;;67;;;0.2;17.545.899.778.957.800;Y;None;nogo;None;1;;;;;;;;;;;;;;;;;;;33;1;21;w;Psychologie;2023-01-17_14h59.38.704;00_bat_bachelor;04/02/2022;6.000.369.477.484.890
;;;;;;;;;;;;1;0;1;0;68;0;68;0;;;;;;;68;;;0.2;17.555.908.186.226.700;X;d;go;d;1;;0.3636016065720469;;;;;;;;;;;;;;;;;33;1;21;w;Psychologie;2023-01-17_14h59.38.704;00_bat_bachelor;04/02/2022;6.000.369.477.484.890
;;;;;;;;;;;;1;0;1;0;69;0;69;0;;;;;;;69;;;0.2;175.625.784.472.347;Y;l;go;l;1;;0.49570287589449435;;;;;;;;;;;;;;;;;33;1;21;w;Psychologie;2023-01-17_14h59.38.704;00_bat_bachelor;04/02/2022;6.000.369.477.484.890
;;;;;;;;;;;;1;0;1;0;70;0;70;0;;;;;;;70;;;0.2;17.570.585.813.049.600;Y;None;nogo;None;1;17.578.589.799.471.600;;;;;;;;;;;;;;;;;;33;1;21;w;Psychologie;2023-01-17_14h59.38.704;00_bat_bachelor;04/02/2022;6.000.369.477.484.890
;;;;;;;;;;;;1;0;1;0;71;0;71;0;;;;;;;71;;;0.2;17.580.593.391.227.300;X;d;go;d;1;;0.40607528295367956;;;;;;;;;;;;;;;;;33;1;21;w;Psychologie;2023-01-17_14h59.38.704;00_bat_bachelor;04/02/2022;6.000.369.477.484.890
;;;;;;;;;;;;1;0;1;0;72;0;72;0;;;;;;;72;;;0.2;17.587.763.307.751.100;Y;l;go;l;1;;0.37756038771476597;;;;;;;;;;;;;;;;;33;1;21;w;Psychologie;2023-01-17_14h59.38.704;00_bat_bachelor;04/02/2022;6.000.369.477.484.890
;;;;;;;;;;;;1;0;1;0;73;0;73;0;;;;;;;73;;;0.2;1.759.460.089.473.920;Y;None;nogo;None;1;;;;;;;;;;;;;;;;;;;33;1;21;w;Psychologie;2023-01-17_14h59.38.704;00_bat_bachelor;04/02/2022;6.000.369.477.484.890
;;;;;;;;;;;;1;0;1;0;74;0;74;0;;;;;;;74;;;0.2;17.604.611.784.431.000;X;d;go;d;1;;0.3566018523997627;;;;;;;;;;;;;;;;;33;1;21;w;Psychologie;2023-01-17_14h59.38.704;00_bat_bachelor;04/02/2022;6.000.369.477.484.890
;;;;;;;;;;;;1;0;1;0;75;0;75;0;;;;;;;75;;;0.2;17.611.284.401.801.500;Y;l;go;l;1;;0.34578440309269354;;;;;;;;;;;;;;;;;33;1;21;w;Psychologie;2023-01-17_14h59.38.704;00_bat_bachelor;04/02/2022;6.000.369.477.484.890
;;;;;;;;;;;;1;0;1;0;76;0;76;0;;;;;;;76;;;0.2;17.617.785.833.801.000;X;d;go;d;1;;0.4468675056123175;;;;;;;;;;;;;;;;;33;1;21;w;Psychologie;2023-01-17_14h59.38.704;00_bat_bachelor;04/02/2022;6.000.369.477.484.890
;;;;;;;;;;;;1;0;1;0;77;0;77;0;;;;;;;77;;;0.2;17.625.293.965.918.200;Y;l;go;l;1;;0.48043888329993933;;;;;;;;;;;;;;;;;33;1;21;w;Psychologie;2023-01-17_14h59.38.704;00_bat_bachelor;04/02/2022;6.000.369.477.484.890
;;;;;;;;;;;;1;0;1;0;78;0;78;0;;;;;;;78;;;0.2;1.763.313.602.757.050;Y;None;nogo;d;0;;0.4646313757984899;;;;;;;;;;;;;;;;;33;1;21;w;Psychologie;2023-01-17_14h59.38.704;00_bat_bachelor;04/02/2022;6.000.369.477.484.890
;;;;;;;;;;;;1;0;1;0;79;0;79;0;;;;;;;79;;;0.2;17.640.804.901.428.000;X;d;go;None;0;;;;;;;;;;;;;;;;;;;33;1;21;w;Psychologie;2023-01-17_14h59.38.704;00_bat_bachelor;04/02/2022;6.000.369.477.484.890
;;;;;;;;;;;;1;0;1;0;80;0;80;0;;;;;;;80;;;0.2;17.650.814.525.666.000;Y;l;go;l;1;;0.44008787255734205;;;;;;;;;;;;;;;;;33;1;21;w;Psychologie;2023-01-17_14h59.38.704;00_bat_bachelor;04/02/2022;6.000.369.477.484.890
;;;;;;;;;;;;1;0;1;0;81;0;81;0;;;;;;;81;;;0.2;17.658.316.825.058.400;Y;None;nogo;None;1;;;;;;;;;;;;;;;;;;;33;1;21;w;Psychologie;2023-01-17_14h59.38.704;00_bat_bachelor;04/02/2022;6.000.369.477.484.890
;;;;;;;;;;;;1;0;1;0;82;0;82;0;;;;;;;82;;;0.2;17.668.325.707.478.700;X;d;go;d;1;;0.32083605154184625;;;;;;;;;;;;;;;;;33;1;21;w;Psychologie;2023-01-17_14h59.38.704;00_bat_bachelor;04/02/2022;6.000.369.477.484.890
;;;;;;;;;;;;1;0;1;0;83;0;83;0;;;;;;;83;;;0.2;17.674.666.829.252.300;Y;l;go;l;1;;0.4715157361351885;;;;;;;;;;;;;;;;;33;1;21;w;Psychologie;2023-01-17_14h59.38.704;00_bat_bachelor;04/02/2022;6.000.369.477.484.890
;;;;;;;;;;;;1;0;1;0;84;0;84;0;;;;;;;84;;;0.2;17.682.501.783.029.200;X;d;go;d;1;;0.423627759271767;;;;;;;;;;;;;;;;;33;1;21;w;Psychologie;2023-01-17_14h59.38.704;00_bat_bachelor;04/02/2022;6.000.369.477.484.890
;;;;;;;;;;;;1;0;1;0;85;0;85;0;;;;;;;85;;;0.2;17.689.846.007.347.200;X;None;nogo;None;1;17.697.847.521.043.700;;;;;;;;;;;;;;;;;;33;1;21;w;Psychologie;2023-01-17_14h59.38.704;00_bat_bachelor;04/02/2022;6.000.369.477.484.890
;;;;;;;;;;;;1;0;1;0;86;0;86;0;;;;;;;86;;;0.2;17.699.850.821.890.800;Y;l;go;l;1;;0.3210096272523515;;;;;;;;;;;;;;;;;33;1;21;w;Psychologie;2023-01-17_14h59.38.704;00_bat_bachelor;04/02/2022;6.000.369.477.484.890
;;;;;;;;;;;;1;0;1;0;87;0;87;0;;;;;;;87;;;0.2;1.770.618.718.730.340;X;d;go;d;1;;0.5670138715649955;;;;;;;;;;;;;;;;;33;1;21;w;Psychologie;2023-01-17_14h59.38.704;00_bat_bachelor;04/02/2022;6.000.369.477.484.890
;;;;;;;;;;;;1;0;1;0;88;0;88;0;;;;;;;88;;;0.2;1.771.486.299.885.430;Y;l;go;l;1;;0.37204863282386214;;;;;;;;;;;;;;;;;33;1;21;w;Psychologie;2023-01-17_14h59.38.704;00_bat_bachelor;04/02/2022;6.000.369.477.484.890
;;;;;;;;;;;;1;0;1;0;89;0;89;0;;;;;;;89;;;0.2;17.721.701.841.599.400;X;d;go;d;1;;0.42393709253519773;;;;;;;;;;;;;;;;;33;1;21;w;Psychologie;2023-01-17_14h59.38.704;00_bat_bachelor;04/02/2022;6.000.369.477.484.890
;;;;;;;;;;;;1;0;1;0;90;0;90;0;;;;;;;90;;;0.2;17.729.039.573.799.200;Y;l;go;l;1;;0.47325585648650303;;;;;;;;;;;;;;;;;33;1;21;w;Psychologie;2023-01-17_14h59.38.704;00_bat_bachelor;04/02/2022;6.000.369.477.484.890
;;;;;;;;;;;;1;0;1;0;91;0;91;0;;;;;;;91;;;0.2;1.773.687.997.242.200;X;d;go;d;1;;0.5056233559153043;;;;;;;;;;;;;;;;;33;1;21;w;Psychologie;2023-01-17_14h59.38.704;00_bat_bachelor;04/02/2022;6.000.369.477.484.890
;;;;;;;;;;;;1;0;1;0;92;0;92;0;;;;;;;92;;;0.2;1.774.505.269.088.370;Y;l;go;l;1;;0.456731743295677;;;;;;;;;;;;;;;;;33;1;21;w;Psychologie;2023-01-17_14h59.38.704;00_bat_bachelor;04/02/2022;6.000.369.477.484.890
;;;;;;;;;;;;1;0;1;0;93;0;93;0;;;;;;;93;;;0.2;1.775.272.529.807.290;Y;None;nogo;None;1;;;;;;;;;;;;;;;;;;;33;1;21;w;Psychologie;2023-01-17_14h59.38.704;00_bat_bachelor;04/02/2022;6.000.369.477.484.890
;;;;;;;;;;;;1;0;1;0;94;0;94;0;;;;;;;94;;;0.2;17.762.732.910.190.200;X;d;go;d;1;;0.2889892791281454;;;;;;;;;;;;;;;;;33;1;21;w;Psychologie;2023-01-17_14h59.38.704;00_bat_bachelor;04/02/2022;6.000.369.477.484.890
;;;;;;;;;;;;1;0;1;0;95;0;95;0;;;;;;;95;;;0.2;17.768.737.261.218.400;Y;l;go;l;1;;0.37569711584364995;;;;;;;;;;;;;;;;;33;1;21;w;Psychologie;2023-01-17_14h59.38.704;00_bat_bachelor;04/02/2022;6.000.369.477.484.890
;;;;;;;;;;;;1;0;1;0;96;0;96;0;;;;;;;96;;;0.2;17.775.574.940.327.200;X;d;go;d;1;;0.4604883474530652;;;;;;;;;;;;;;;;;33;1;21;w;Psychologie;2023-01-17_14h59.38.704;00_bat_bachelor;04/02/2022;6.000.369.477.484.890
;;;;;;;;;;;;1;0;1;0;97;0;97;0;;;;;;;97;;;0.2;17.783.247.882.061.900;Y;l;go;l;1;;0.4288335749297403;;;;;;;;;;;;;;;;;33;1;21;w;Psychologie;2023-01-17_14h59.38.704;00_bat_bachelor;04/02/2022;6.000.369.477.484.890
;;;;;;;;;;;;1;0;1;0;98;0;98;0;;;;;;;98;;;0.2;1.779.058.822.274.490;Y;None;nogo;d;0;;0.47860130842309445;;;;;;;;;;;;;;;;;33;1;21;w;Psychologie;2023-01-17_14h59.38.704;00_bat_bachelor;04/02/2022;6.000.369.477.484.890
;;;;;;;;;;;;1;0;1;0;99;0;99;0;;;;;;;99;;;0.2;17.798.428.015.307.800;X;d;go;None;0;;;;;;;;;;;;;;;;;;;33;1;21;w;Psychologie;2023-01-17_14h59.38.704;00_bat_bachelor;04/02/2022;6.000.369.477.484.890
;;;;;;;;;;;;1;0;1;0;100;0;100;0;;;;;;;100;;;0.2;1.780.843.376.560.770;Y;l;go;None;0;17.816.439.768.999.100;;;;;;;;;;;;;;;;;;33;1;21;w;Psychologie;2023-01-17_14h59.38.704;00_bat_bachelor;04/02/2022;6.000.369.477.484.890
;;;;;;;;;;;;1;0;1;0;101;0;101;0;;;;;;;101;;;0.2;1.781.843.983.105.960;X;d;go;d;1;;0.6537265568040311;;;;;;;;;;;;;;;;;33;1;21;w;Psychologie;2023-01-17_14h59.38.704;00_bat_bachelor;04/02/2022;6.000.369.477.484.890
;;;;;;;;;;;;1;0;1;0;102;0;102;0;;;;;;;102;;;0.2;17.828.115.162.125.900;Y;l;go;l;1;;0.34253882890334353;;;;;;;;;;;;;;;;;33;1;21;w;Psychologie;2023-01-17_14h59.38.704;00_bat_bachelor;04/02/2022;6.000.369.477.484.890
;;;;;;;;;;;;1;0;1;0;103;0;103;0;;;;;;;103;;;0.2;17.834.619.100.790.500;Y;None;nogo;None;1;;;;;;;;;;;;;;;;;;;33;1;21;w;Psychologie;2023-01-17_14h59.38.704;00_bat_bachelor;04/02/2022;6.000.369.477.484.890
;;;;;;;;;;;;1;0;1;0;104;0;104;0;;;;;;;104;;;0.2;17.844.631.391.693.800;X;d;go;d;1;;0.2744089225307107;;;;;;;;;;;;;;;;;33;1;21;w;Psychologie;2023-01-17_14h59.38.704;00_bat_bachelor;04/02/2022;6.000.369.477.484.890
;;;;;;;;;;;;1;0;1;0;105;0;105;0;;;;;;;105;;;0.2;17.850.465.880.986.300;Y;l;go;l;1;;0.5072446884587407;;;;;;;;;;;;;;;;;33;1;21;w;Psychologie;2023-01-17_14h59.38.704;00_bat_bachelor;04/02/2022;6.000.369.477.484.890
;;;;;;;;;;;;1;0;1;0;106;0;106;0;;;;;;;106;;;0.2;17.858.640.407.932.100;X;d;go;None;0;1.786.664.435.556.620;;;;;;;;;;;;;;;;;;33;1;21;w;Psychologie;2023-01-17_14h59.38.704;00_bat_bachelor;04/02/2022;6.000.369.477.484.890
;;;;;;;;;;;;1;0;1;0;107;0;107;0;;;;;;;107;;;0.2;17.868.647.792.171.100;X;None;nogo;None;1;;;;;;;;;;;;;;;;;;;33;1;21;w;Psychologie;2023-01-17_14h59.38.704;00_bat_bachelor;04/02/2022;6.000.369.477.484.890
;;;;;;;;;;;;1;0;1;0;108;0;108;0;;;;;;;108;;;0.2;17.878.653.028.531.600;Y;l;go;l;1;;0.3284816236118786;;;;;;;;;;;;;;;;;33;1;21;w;Psychologie;2023-01-17_14h59.38.704;00_bat_bachelor;04/02/2022;6.000.369.477.484.890
;;;;;;;;;;;;1;0;1;0;109;0;109;0;;;;;;;109;;;0.2;1.788.499.369.939.730;X;d;go;d;1;;0.6070962764206342;;;;;;;;;;;;;;;;;33;1;21;w;Psychologie;2023-01-17_14h59.38.704;00_bat_bachelor;04/02/2022;6.000.369.477.484.890
;;;;;;;;;;;;1;0;1;0;110;0;110;0;;;;;;;110;;;0.2;17.894.167.794.343.000;X;None;nogo;None;1;;;;;;;;;;;;;;;;;;;33;1;21;w;Psychologie;2023-01-17_14h59.38.704;00_bat_bachelor;04/02/2022;6.000.369.477.484.890
;;;;;;;;;;;;1;0;1;0;111;0;111;0;;;;;;;111;;;0.2;17.904.172.861.007.300;Y;l;go;l;1;;0.3526319148950279;;;;;;;;;;;;;;;;;33;1;21;w;Psychologie;2023-01-17_14h59.38.704;00_bat_bachelor;04/02/2022;6.000.369.477.484.890
;;;;;;;;;;;;1;0;1;0;112;0;112;0;;;;;;;112;;;0.2;1.791.084.706.868.040;X;d;go;d;1;;0.40570049529196694;;;;;;;;;;;;;;;;;33;1;21;w;Psychologie;2023-01-17_14h59.38.704;00_bat_bachelor;04/02/2022;6.000.369.477.484.890
;;;;;;;;;;;;1;0;1;0;113;0;113;0;;;;;;;113;;;0.2;17.918.019.230.051.400;X;None;nogo;None;1;17.926.023.163.140.600;;;;;;;;;;;;;;;;;;33;1;21;w;Psychologie;2023-01-17_14h59.38.704;00_bat_bachelor;04/02/2022;6.000.369.477.484.890
;;;;;;;;;;;;1;0;1;0;114;0;114;0;;;;;;;114;;;0.2;17.928.026.934.289.900;Y;l;go;l;1;;0.3828137184609659;;;;;;;;;;;;;;;;;33;1;21;w;Psychologie;2023-01-17_14h59.38.704;00_bat_bachelor;04/02/2022;6.000.369.477.484.890
;;;;;;;;;;;;1;0;1;0;115;0;115;0;;;;;;;115;;;0.2;1.793.486.511.279.300;X;d;go;d;1;;0.5151923209778033;;;;;;;;;;;;;;;;;33;1;21;w;Psychologie;2023-01-17_14h59.38.704;00_bat_bachelor;04/02/2022;6.000.369.477.484.890
;;;;;;;;;;;;1;0;1;0;116;0;116;0;;;;;;;116;;;0.2;17.943.038.190.042.100;Y;l;go;None;0;;;;;;;;;;;;;;;;;;;33;1;21;w;Psychologie;2023-01-17_14h59.38.704;00_bat_bachelor;04/02/2022;6.000.369.477.484.890
;;;;;;;;;;;;1;0;1;0;117;0;117;0;;;;;;;117;;;0.2;17.953.045.913.674.800;X;d;go;d;1;;0.40934219042537734;;;;;;;;;;;;;;;;;33;1;21;w;Psychologie;2023-01-17_14h59.38.704;00_bat_bachelor;04/02/2022;6.000.369.477.484.890
;;;;;;;;;;;;1;0;1;0;118;0;118;0;;;;;;;118;;;0.2;17.960.217.716.257.900;X;None;nogo;None;1;17.968.221.130.559.600;;;;;;;;;;;;;;;;;;33;1;21;w;Psychologie;2023-01-17_14h59.38.704;00_bat_bachelor;04/02/2022;6.000.369.477.484.890
;;;;;;;;;;;;1;0;1;0;119;0;119;0;;;;;;;119;;;0.2;17.970.225.488.375.800;Y;l;go;l;1;;0.2109839835902676;;;;;;;;;;;;;;;;;33;1;21;w;Psychologie;2023-01-17_14h59.38.704;00_bat_bachelor;04/02/2022;6.000.369.477.484.890
;;;;;;;;;;;;1;0;1;0;120;0;120;0;;;;;;;120;;;0.2;17.975.394.368.293.900;X;d;go;d;1;;0.6058768830844201;;;;;;;;;;;;;;;;;33;1;21;w;Psychologie;2023-01-17_14h59.38.704;00_bat_bachelor;04/02/2022;6.000.369.477.484.890
;;;;;;;;;;;;1;0;1;0;121;0;121;0;;;;;;;121;;;0.2;17.984.569.762.633.100;Y;l;go;l;1;;0.6485750441788696;;;;;;;;;;;;;;;;;33;1;21;w;Psychologie;2023-01-17_14h59.38.704;00_bat_bachelor;04/02/2022;6.000.369.477.484.890
;;;;;;;;;;;;1;0;1;0;122;0;122;0;;;;;;;122;;;0.2;17.994.076.676.811.600;Y;None;nogo;None;1;;;;;;;;;;;;;;;;;;;33;1;21;w;Psychologie;2023-01-17_14h59.38.704;00_bat_bachelor;04/02/2022;6.000.369.477.484.890
;;;;;;;;;;;;1;0;1;0;123;0;123;0;;;;;;;123;;;0.2;1.800.408.293.135.400;Y;None;nogo;d;0;;0.34534610027913004;;;;;;;;;;;;;;;;;33;1;21;w;Psychologie;2023-01-17_14h59.38.704;00_bat_bachelor;04/02/2022;6.000.369.477.484.890
;;;;;;;;;;;;1;0;1;0;124;0;124;0;;;;;;;124;;;0.2;18.010.587.990.017.900;X;d;go;None;0;;;;;;;;;;;;;;;;;;;33;1;21;w;Psychologie;2023-01-17_14h59.38.704;00_bat_bachelor;04/02/2022;6.000.369.477.484.890
;;;;;;;;;;;;1;0;1;0;125;0;125;0;;;;;;;125;;;0.2;18.020.597.357.286.000;Y;l;go;l;1;;0.5664553263923153;;;;;;;;;;;;;;;;;33;1;21;w;Psychologie;2023-01-17_14h59.38.704;00_bat_bachelor;04/02/2022;6.000.369.477.484.890
;;;;;;;;;;;;1;0;1;0;126;0;126;0;;;;;;;126;;;0.2;1.802.926.868.883.950;X;d;go;d;1;;0.45082823099801317;;;;;;;;;;;;;;;;;33;1;21;w;Psychologie;2023-01-17_14h59.38.704;00_bat_bachelor;04/02/2022;6.000.369.477.484.890
;;;;;;;;;;;;1;0;1;0;127;0;127;0;;;;;;;127;;;0.2;18.036.942.900.876.100;X;None;nogo;None;1;18.044.947.507.904.100;;;;;;;;;;;;;;;;;;33;1;21;w;Psychologie;2023-01-17_14h59.38.704;00_bat_bachelor;04/02/2022;6.000.369.477.484.890
;;;;;;;;;;;;1;0;1;0;128;0;128;0;;;;;;;128;;;0.2;18.046.950.740.872.400;Y;l;go;l;1;;0.39531456091208383;;;;;;;;;;;;;;;;;33;1;21;w;Psychologie;2023-01-17_14h59.38.704;00_bat_bachelor;04/02/2022;6.000.369.477.484.890
;;;;;;;;;;;;1;0;1;0;129;0;129;0;;;;;;;129;;;0.2;18.053.955.324.143.100;X;d;go;d;1;;0.3984835290466435;;;;;;;;;;;;;;;;;33;1;21;w;Psychologie;2023-01-17_14h59.38.704;00_bat_bachelor;04/02/2022;6.000.369.477.484.890
;;;;;;;;;;;;1;0;1;0;130;0;130;0;;;;;;;130;;;0.2;18.060.961.240.745.900;X;None;nogo;None;1;18.068.965.474.441.000;;;;;;;;;;;;;;;;;;33;1;21;w;Psychologie;2023-01-17_14h59.38.704;00_bat_bachelor;04/02/2022;6.000.369.477.484.890
;;;;;;;;;;;;1;0;1;0;131;0;131;0;;;;;;;131;;;0.2;18.070.969.066.196.700;Y;l;go;l;1;;0.42522581917000934;;;;;;;;;;;;;;;;;33;1;21;w;Psychologie;2023-01-17_14h59.38.704;00_bat_bachelor;04/02/2022;6.000.369.477.484.890
;;;;;;;;;;;;1;0;1;0;132;0;132;0;;;;;;;132;;;0.2;18.078.306.934.154.200;X;d;go;d;1;;0.44291259843157604;;;;;;;;;;;;;;;;;33;1;21;w;Psychologie;2023-01-17_14h59.38.704;00_bat_bachelor;04/02/2022;6.000.369.477.484.890
;;;;;;;;;;;;1;0;1;0;133;0;133;0;;;;;;;133;;;0.2;1.808.581.373.293.880;Y;l;go;l;1;;0.508980930026155;;;;;;;;;;;;;;;;;33;1;21;w;Psychologie;2023-01-17_14h59.38.704;00_bat_bachelor;04/02/2022;6.000.369.477.484.890
;;;;;;;;;;;;1;0;1;0;134;0;134;0;;;;;;;134;;;0.2;18.093.986.165.340.100;Y;None;nogo;None;1;1.810.199.168.873.130;;;;;;;;;;;;;;;;;;33;1;21;w;Psychologie;2023-01-17_14h59.38.704;00_bat_bachelor;04/02/2022;6.000.369.477.484.890
;;;;;;;;;;;;1;0;1;0;135;0;135;0;;;;;;;135;;;0.2;18.103.994.902.305.400;Y;None;nogo;None;1;;;;;;;;;;;;;;;;;;;33;1;21;w;Psychologie;2023-01-17_14h59.38.704;00_bat_bachelor;04/02/2022;6.000.369.477.484.890
;;;;;;;;;;;;1;0;1;0;136;0;136;0;;;;;;;136;;;0.2;18.114.001.869.575.000;X;d;go;d;1;;0.3776365088997409;;;;;;;;;;;;;;;;;33;1;21;w;Psychologie;2023-01-17_14h59.38.704;00_bat_bachelor;04/02/2022;6.000.369.477.484.890
;;;;;;;;;;;;1;0;1;0;137;0;137;0;;;;;;;137;;;0.2;18.120.840.038.380.700;Y;l;go;l;1;;0.3819099613465369;;;;;;;;;;;;;;;;;33;1;21;w;Psychologie;2023-01-17_14h59.38.704;00_bat_bachelor;04/02/2022;6.000.369.477.484.890
;;;;;;;;;;;;1;0;1;0;138;0;138;0;;;;;;;138;;;0.2;18.127.675.550.217.900;X;d;go;d;1;;0.5623724192846566;;;;;;;;;;;;;;;;;33;1;21;w;Psychologie;2023-01-17_14h59.38.704;00_bat_bachelor;04/02/2022;6.000.369.477.484.890
;;;;;;;;;;;;1;0;1;0;139;0;139;0;;;;;;;139;;;0.2;18.136.351.759.344.600;Y;l;go;l;1;;0.38385953614488244;;;;;;;;;;;;;;;;;33;1;21;w;Psychologie;2023-01-17_14h59.38.704;00_bat_bachelor;04/02/2022;6.000.369.477.484.890
;;;;;;;;;;;;1;0;1;0;140;0;140;0;;;;;;;140;;;0.2;18.143.190.582.695.500;Y;None;nogo;None;1;;;;;;;;;;;;;;;;;;;33;1;21;w;Psychologie;2023-01-17_14h59.38.704;00_bat_bachelor;04/02/2022;6.000.369.477.484.890
;;;;;;;;;;;;1;0;1;0;141;0;141;0;;;;;;;141;;;0.2;18.153.198.553.600.800;X;d;go;d;1;;0.34685397834982723;;;;;;;;;;;;;;;;;33;1;21;w;Psychologie;2023-01-17_14h59.38.704;00_bat_bachelor;04/02/2022;6.000.369.477.484.890
;;;;;;;;;;;;1;0;1;0;142;0;142;0;;;;;;;142;;;0.2;1.815.970.239.529.610;Y;l;go;l;1;;0.4800873682834208;;;;;;;;;;;;;;;;;33;1;21;w;Psychologie;2023-01-17_14h59.38.704;00_bat_bachelor;04/02/2022;6.000.369.477.484.890
;;;;;;;;;;;;1;0;1;0;143;0;143;0;;;;;;;143;;;0.2;18.167.541.727.252.500;X;d;go;d;1;;0.4154522481258027;;;;;;;;;;;;;;;;;33;1;21;w;Psychologie;2023-01-17_14h59.38.704;00_bat_bachelor;04/02/2022;6.000.369.477.484.890
;;;;;;;;;;;;1;0;1;0;144;0;144;0;;;;;;;144;;;0.2;18.174.715.672.865.200;X;None;nogo;None;1;;;;;;;;;;;;;;;;;;;33;1;21;w;Psychologie;2023-01-17_14h59.38.704;00_bat_bachelor;04/02/2022;6.000.369.477.484.890
;;;;;;;;;;;;1;0;1;0;145;0;145;0;;;;;;;145;;;0.2;18.184.720.492.257.000;Y;l;go;l;1;;0.3940757735981606;;;;;;;;;;;;;;;;;33;1;21;w;Psychologie;2023-01-17_14h59.38.704;00_bat_bachelor;04/02/2022;6.000.369.477.484.890
;;;;;;;;;;;;1;0;1;0;146;0;146;0;;;;;;;146;;;0.2;1.819.172.565.249.660;X;d;go;d;1;;0.42910363542614505;;;;;;;;;;;;;;;;;33;1;21;w;Psychologie;2023-01-17_14h59.38.704;00_bat_bachelor;04/02/2022;6.000.369.477.484.890
;;;;;;;;;;;;1;0;1;0;147;0;147;0;;;;;;;147;;;0.2;1.819.906.520.772.600;Y;l;go;l;1;;0.43208933097776026;;;;;;;;;;;;;;;;;33;1;21;w;Psychologie;2023-01-17_14h59.38.704;00_bat_bachelor;04/02/2022;6.000.369.477.484.890
;;;;;;;;;;;;1;0;1;0;148;0;148;0;;;;;;;148;;;0.2;18.206.403.846.592.200;Y;None;nogo;None;1;18.214.411.576.042.700;;;;;;;;;;;;;;;;;;33;1;21;w;Psychologie;2023-01-17_14h59.38.704;00_bat_bachelor;04/02/2022;6.000.369.477.484.890
;;;;;;;;;;;;1;0;1;0;149;0;149;0;;;;;;;149;;;0.2;18.216.412.782.345.400;X;d;go;d;1;;0.28054516203701496;;;;;;;;;;;;;;;;;33;1;21;w;Psychologie;2023-01-17_14h59.38.704;00_bat_bachelor;04/02/2022;6.000.369.477.484.890
;;;;;;;;;;;;1;0;1;0;150;0;150;0;;;;;;;150;;;0.2;18.222.251.092.242.000;Y;l;go;l;1;;0.3052830894012004;;;;;;;;;;;;;;;;;33;1;21;w;Psychologie;2023-01-17_14h59.38.704;00_bat_bachelor;04/02/2022;6.000.369.477.484.890
;;;;;;;;;;;;1;0;1;0;151;0;151;0;;;;;;;151;;;0.2;18.228.421.392.280.700;Y;None;nogo;None;1;;;;;;;;;;;;;;;;;;;33;1;21;w;Psychologie;2023-01-17_14h59.38.704;00_bat_bachelor;04/02/2022;6.000.369.477.484.890
;;;;;;;;;;;;1;0;1;0;152;0;152;0;;;;;;;152;;;0.2;18.238.426.948.641.400;X;d;go;d;1;;0.2713829846470617;;;;;;;;;;;;;;;;;33;1;21;w;Psychologie;2023-01-17_14h59.38.704;00_bat_bachelor;04/02/2022;6.000.369.477.484.890
;;;;;;;;;;;;1;0;1;0;153;0;153;0;;;;;;;153;;;0.2;18.244.269.219.748.000;Y;l;go;l;1;;0.29455630673328415;;;;;;;;;;;;;;;;;33;1;21;w;Psychologie;2023-01-17_14h59.38.704;00_bat_bachelor;04/02/2022;6.000.369.477.484.890
;;;;;;;;;;;;1;0;1;0;154;0;154;0;;;;;;;154;;;0.2;18.250.270.336.839.000;X;d;go;d;1;;0.49443742190487683;;;;;;;;;;;;;;;;;33;1;21;w;Psychologie;2023-01-17_14h59.38.704;00_bat_bachelor;04/02/2022;6.000.369.477.484.890
;;;;;;;;;;;;1;0;1;0;155;0;155;0;;;;;;;155;;;0.2;18.258.278.987.501.300;X;None;nogo;None;1;;;;;;;;;;;;;;;;;;;33;1;21;w;Psychologie;2023-01-17_14h59.38.704;00_bat_bachelor;04/02/2022;6.000.369.477.484.890
;;;;;;;;;;;;1;0;1;0;156;0;156;0;;;;;;;156;;;0.2;18.268.283.326.892.900;Y;l;go;l;1;;0.27785279968520626;;;;;;;;;;;;;;;;;33;1;21;w;Psychologie;2023-01-17_14h59.38.704;00_bat_bachelor;04/02/2022;6.000.369.477.484.890
;;;;;;;;;;;;1;0;1;0;157;0;157;0;;;;;;;157;;;0.2;1.827.412.410.466.690;X;d;go;d;1;;0.5094458994572051;;;;;;;;;;;;;;;;;33;1;21;w;Psychologie;2023-01-17_14h59.38.704;00_bat_bachelor;04/02/2022;6.000.369.477.484.890
;;;;;;;;;;;;1;0;1;0;158;0;158;0;;;;;;;158;;;0.2;182.822.943.940.392;X;None;nogo;None;1;18.290.302.656.823.100;;;;;;;;;;;;;;;;;;33;1;21;w;Psychologie;2023-01-17_14h59.38.704;00_bat_bachelor;04/02/2022;6.000.369.477.484.890
;;;;;;;;;;;;1;0;1;0;159;0;159;0;;;;;;;159;;;0.2;18.292.303.712.822.600;X;None;nogo;None;1;18.300.308.988.941.200;;;;;;;;;;;;;;;;;;33;1;21;w;Psychologie;2023-01-17_14h59.38.704;00_bat_bachelor;04/02/2022;6.000.369.477.484.890
;;;;;;;;;;;;1;0;1;0;160;0;160;0;;;;;;;160;;;0.2;18.302.310.379.485.700;Y;l;go;l;1;;0.3788253567763604;;;;;;;;;;;;;;;;;33;1;21;w;Psychologie;2023-01-17_14h59.38.704;00_bat_bachelor;04/02/2022;6.000.369.477.484.890
;;;;;;;;;;;;1;0;1;0;161;0;161;0;;;;;;;161;;;0.2;18.309.150.473.139.000;X;d;go;d;1;;0.4465770815149881;;;;;;;;;;;;;;;;;33;1;21;w;Psychologie;2023-01-17_14h59.38.704;00_bat_bachelor;04/02/2022;6.000.369.477.484.890
;;;;;;;;;;;;1;0;1;0;162;0;162;0;;;;;;;162;;;0.2;18.316.655.458.591.400;Y;l;go;None;0;1.832.466.225.713.370;;;;;;;;;;;;;;;;;;33;1;21;w;Psychologie;2023-01-17_14h59.38.704;00_bat_bachelor;04/02/2022;6.000.369.477.484.890
;;;;;;;;;;;;1;0;1;0;163;0;163;0;;;;;;;163;;;0.2;1.832.666.150.949.770;X;d;go;d;1;;0.6155064541380852;;;;;;;;;;;;;;;;;33;1;21;w;Psychologie;2023-01-17_14h59.38.704;00_bat_bachelor;04/02/2022;6.000.369.477.484.890
;;;;;;;;;;;;1;0;1;0;164;0;164;0;;;;;;;164;;;0.2;18.335.837.432.321.200;Y;l;go;l;1;;0.46638022345723584;;;;;;;;;;;;;;;;;33;1;21;w;Psychologie;2023-01-17_14h59.38.704;00_bat_bachelor;04/02/2022;6.000.369.477.484.890
;;;;;;;;;;;;1;0;1;0;165;0;165;0;;;;;;;165;;;0.2;18.343.509.748.601.300;Y;None;nogo;None;1;1.835.151.458.835.690;;;;;;;;;;;;;;;;;;33;1;21;w;Psychologie;2023-01-17_14h59.38.704;00_bat_bachelor;04/02/2022;6.000.369.477.484.890
;;;;;;;;;;;;1;0;1;0;166;0;166;0;;;;;;;166;;;0.2;18.353.515.741.325.600;X;d;go;d;1;;0.34579070610925555;;;;;;;;;;;;;;;;;33;1;21;w;Psychologie;2023-01-17_14h59.38.704;00_bat_bachelor;04/02/2022;6.000.369.477.484.890
;;;;;;;;;;;;1;0;1;0;167;0;167;0;;;;;;;167;;;0.2;18.360.020.964.838.300;Y;l;go;l;1;;0.6560998890199699;;;;;;;;;;;;;;;;;33;1;21;w;Psychologie;2023-01-17_14h59.38.704;00_bat_bachelor;04/02/2022;6.000.369.477.484.890
;;;;;;;;;;;;1;0;1;0;168;0;168;0;;;;;;;168;;;0.2;18.369.696.911.662.400;Y;None;nogo;None;1;18.377.700.350.205.900;;;;;;;;;;;;;;;;;;33;1;21;w;Psychologie;2023-01-17_14h59.38.704;00_bat_bachelor;04/02/2022;6.000.369.477.484.890
;;;;;;;;;;;;1;0;1;0;169;0;169;0;;;;;;;169;;;0.2;18.379.701.721.356.800;X;d;go;d;1;;0.2708976515568793;;;;;;;;;;;;;;;;;33;1;21;w;Psychologie;2023-01-17_14h59.38.704;00_bat_bachelor;04/02/2022;6.000.369.477.484.890
;;;;;;;;;;;;1;0;1;0;170;0;170;0;;;;;;;170;;;0.2;18.385.539.847.011.000;Y;l;go;l;1;;0.40809758502291515;;;;;;;;;;;;;;;;;33;1;21;w;Psychologie;2023-01-17_14h59.38.704;00_bat_bachelor;04/02/2022;6.000.369.477.484.890
;;;;;;;;;;;;1;0;1;0;171;0;171;0;;;;;;;171;;;0.2;18.392.712.643.533.500;X;d;go;d;1;;0.506881537148729;;;;;;;;;;;;;;;;;33;1;21;w;Psychologie;2023-01-17_14h59.38.704;00_bat_bachelor;04/02/2022;6.000.369.477.484.890
;;;;;;;;;;;;1;0;1;0;172;0;172;0;;;;;;;172;;;0.2;1.840.088.486.744.960;Y;l;go;l;1;;0.5213033483014442;;;;;;;;;;;;;;;;;33;1;21;w;Psychologie;2023-01-17_14h59.38.704;00_bat_bachelor;04/02/2022;6.000.369.477.484.890
;;;;;;;;;;;;1;0;1;0;173;0;173;0;;;;;;;173;;;0.2;18.409.225.484.012.200;Y;None;nogo;None;1;18.417.232.461.948.200;;;;;;;;;;;;;;;;;;33;1;21;w;Psychologie;2023-01-17_14h59.38.704;00_bat_bachelor;04/02/2022;6.000.369.477.484.890
;;;;;;;;;;;;1;0;1;0;174;0;174;0;;;;;;;174;;;0.2;18.419.233.697.341.400;Y;None;nogo;None;1;;;;;;;;;;;;;;;;;;;33;1;21;w;Psychologie;2023-01-17_14h59.38.704;00_bat_bachelor;04/02/2022;6.000.369.477.484.890
;;;;;;;;;;;;1;0;1;0;175;0;175;0;;;;;;;175;;;0.2;18.429.240.364.004.500;X;d;go;d;1;;0.40565055585466325;;;;;;;;;;;;;;;;;33;1;21;w;Psychologie;2023-01-17_14h59.38.704;00_bat_bachelor;04/02/2022;6.000.369.477.484.890
;;;;;;;;;;;;1;0;1;0;176;0;176;0;;;;;;;176;;;0.2;1.843.641.165.749.750;Y;l;go;l;1;;0.36109542596386746;;;;;;;;;;;;;;;;;33;1;21;w;Psychologie;2023-01-17_14h59.38.704;00_bat_bachelor;04/02/2022;6.000.369.477.484.890
;;;;;;;;;;;;1;0;1;0;177;0;177;0;;;;;;;177;;;0.2;18.443.086.670.018.900;Y;None;nogo;None;1;;;;;;;;;;;;;;;;;;;33;1;21;w;Psychologie;2023-01-17_14h59.38.704;00_bat_bachelor;04/02/2022;6.000.369.477.484.890
;;;;;;;;;;;;1;0;1;0;178;0;178;0;;;;;;;178;;;0.2;18.453.093.070.015.300;Y;None;nogo;None;1;1.846.109.730.855.910;;;;;;;;;;;;;;;;;;33;1;21;w;Psychologie;2023-01-17_14h59.38.704;00_bat_bachelor;04/02/2022;6.000.369.477.484.890
;;;;;;;;;;;;1;0;1;0;179;0;179;0;;;;;;;179;;;0.2;18.463.100.318.497.100;X;d;go;d;1;;0.4277426663902588;;;;;;;;;;;;;;;;;33;1;21;w;Psychologie;2023-01-17_14h59.38.704;00_bat_bachelor;04/02/2022;6.000.369.477.484.890
;;;;;;;;;;;;1;0;1;0;180;0;180;0;;;;;;;180;;;0.2;18.470.440.130.695.900;Y;l;go;l;1;;0.33414222695864737;;;;;;;;;;;;;;;;;33;1;21;w;Psychologie;2023-01-17_14h59.38.704;00_bat_bachelor;04/02/2022;6.000.369.477.484.890
;;;;;;;;;;;;1;0;1;0;181;0;181;0;;;;;;;181;;;0.2;18.476.944.423.299.800;X;d;go;d;1;;0.4842381541384384;;;;;;;;;;;;;;;;;33;1;21;w;Psychologie;2023-01-17_14h59.38.704;00_bat_bachelor;04/02/2022;6.000.369.477.484.890
;;;;;;;;;;;;1;0;1;0;182;0;182;0;;;;;;;182;;;0.2;18.484.951.120.023.600;Y;l;go;l;1;;0.5310793435783125;;;;;;;;;;;;;;;;;33;1;21;w;Psychologie;2023-01-17_14h59.38.704;00_bat_bachelor;04/02/2022;6.000.369.477.484.890
;;;;;;;;;;;;1;0;1;0;183;0;183;0;;;;;;;183;;;0.2;184.932.886.432.542;X;d;go;d;1;;0.5612044198205695;;;;;;;;;;;;;;;;;33;1;21;w;Psychologie;2023-01-17_14h59.38.704;00_bat_bachelor;04/02/2022;6.000.369.477.484.890
