loop_instruction.thisRepN,loop_instruction.thisTrialN,loop_instruction.thisN,loop_instruction.thisIndex,loop_rsi_practice.thisRepN,loop_rsi_practice.thisTrialN,loop_rsi_practice.thisN,loop_rsi_practice.thisIndex,loop_practice.thisRepN,loop_practice.thisTrialN,loop_practice.thisN,loop_practice.thisIndex,loop_exp.thisRepN,loop_exp.thisTrialN,loop_exp.thisN,loop_exp.thisIndex,loop_trials.thisRepN,loop_trials.thisTrialN,loop_trials.thisN,loop_trials.thisIndex,map_condition,map_x_key,map_y_key,key_resp_welcome.started,key_resp_welcome.keys,key_resp_welcome.rt,index,text_empty_rsi_practice.started,text_empty_rsi_practice.stopped,rsi,stimulus.started,stimulus,correct,trial_type,key_resp_trial.keys,key_resp_trial.corr,key_resp_trial.rt,key_resp_instruction_rsi.started,key_resp_instruction_rsi.keys,key_resp_instruction_rsi.rt,stimulus.stopped,key_resp_instruction_rsi.stopped,key_resp_instruction_final.started,key_resp_instruction_final.keys,key_resp_instruction_final.rt,key_resp_break.started,key_resp_break.keys,key_resp_break.rt,key_resp_break.stopped,key_resp_end_screen.started,image_end_screen.started,key_resp_end_screen.stopped,image_end_screen.stopped,key_resp_end_screen.keys,participant,session,Alter,Geschlecht (w/m/d/andere),Studiengang,date,expName,psychopyVersion,frameRate,
,,,,0,0,0,0,0,0,0,0,,,,,,,,,1,l,d,1140.168525494053,j,11.74021677125711,0,1151.946181359468,1152.9589634138392,1,1152.9589634138392,X,l,go,l,1,0.3538227768149227,,,,,,,,,,,,,,,,,,37,001, 19,w,Sport&Psychologie,2023-01-18_09h09.46.824,00_bat_bachelor,2022.2.4,59.942832748041894,
,,,,0,0,0,0,1,0,1,0,,,,,,,,,,,,,,,1,1154.0260363511043,1155.026863502222,1,1155.026863502222,Y,d,go,d,1,0.5426643822574988,,,,,,,,,,,,,,,,,,37,001, 19,w,Sport&Psychologie,2023-01-18_09h09.46.824,00_bat_bachelor,2022.2.4,59.942832748041894,
,,,,0,0,0,0,2,0,2,0,,,,,,,,,,,,,,,2,1156.277748228982,1157.2785302893026,1,1157.2785302893026,X,l,go,l,1,0.354587382520549,,,,,,,,,,,,,,,,,,37,001, 19,w,Sport&Psychologie,2023-01-18_09h09.46.824,00_bat_bachelor,2022.2.4,59.942832748041894,
,,,,0,0,0,0,3,0,3,0,,,,,,,,,,,,,,,3,1158.346067226259,1159.3468119531171,1,1159.3468119531171,Y,d,go,d,1,0.31781212764326483,,,,,,,,,,,,,,,,,,37,001, 19,w,Sport&Psychologie,2023-01-18_09h09.46.824,00_bat_bachelor,2022.2.4,59.942832748041894,
,,,,0,0,0,0,4,0,4,0,,,,,,,,,,,,,,,4,1160.3809603002155,1161.3816667241044,1,1161.3816667241044,X,l,go,l,1,0.31486231076996773,,,,,,,,,,,,,,,,,,37,001, 19,w,Sport&Psychologie,2023-01-18_09h09.46.824,00_bat_bachelor,2022.2.4,59.942832748041894,
,,,,0,0,0,0,5,0,5,0,,,,,,,,,,,,,,,5,1162.3990945944097,1163.3997244123602,1,1163.3997244123602,Y,d,go,d,1,0.39311342441942543,,,,,,,,,,,,,,,,,,37,001, 19,w,Sport&Psychologie,2023-01-18_09h09.46.824,00_bat_bachelor,2022.2.4,59.942832748041894,
,,,,0,0,0,0,6,0,6,0,,,,,,,,,,,,,,,6,1164.5007313936949,1165.5014785447856,1,1165.5014785447856,Y,None,nogo,None,1,,,,,,,,,,,,,,,,,,,37,001, 19,w,Sport&Psychologie,2023-01-18_09h09.46.824,00_bat_bachelor,2022.2.4,59.942832748041894,
,,,,0,0,0,0,7,0,7,0,,,,,,,,,,,,,,,7,1166.902507198858,1167.9033067135606,1,1167.9033067135606,X,l,go,l,1,0.3376952693797648,,,,,,,,,,,,,,,,,,37,001, 19,w,Sport&Psychologie,2023-01-18_09h09.46.824,00_bat_bachelor,2022.2.4,59.942832748041894,
,,,,0,0,0,0,8,0,8,0,,,,,,,,,,,,,,,8,1168.9543088707142,1169.9548814764712,1,1169.9548814764712,Y,d,go,d,1,0.39831245213281363,,,,,,,,,,,,,,,,,,37,001, 19,w,Sport&Psychologie,2023-01-18_09h09.46.824,00_bat_bachelor,2022.2.4,59.942832748041894,
,,,,0,0,0,0,9,0,9,0,,,,,,,,,,,,,,,9,1171.0554642155766,1172.0563340333756,1,1172.0563340333756,X,l,go,l,1,0.28053796384483576,,,,,,,,,,,,,,,,,,37,001, 19,w,Sport&Psychologie,2023-01-18_09h09.46.824,00_bat_bachelor,2022.2.4,59.942832748041894,
,,,,0,0,0,0,10,0,10,0,,,,,,,,,,,,,,,10,1173.040378647158,1174.0413594951387,1,1174.0413594951387,X,None,nogo,d,0,0.29579128976911306,,,,,,,,,,,,,,,,,,37,001, 19,w,Sport&Psychologie,2023-01-18_09h09.46.824,00_bat_bachelor,2022.2.4,59.942832748041894,
,,,,0,0,0,0,11,0,11,0,,,,,,,,,,,,,,,11,1175.4421311796177,1176.4431382094044,1,1176.4431382094044,Y,d,go,d,1,0.5977101736934856,,,,,,,,,,,,,,,,,,37,001, 19,w,Sport&Psychologie,2023-01-18_09h09.46.824,00_bat_bachelor,2022.2.4,59.942832748041894,
,,,,0,0,0,0,12,0,12,0,,,,,,,,,,,,,,,12,1177.7442158816848,1178.7448558813194,1,1178.7448558813194,X,l,go,l,1,0.37571319041308016,,,,,,,,,,,,,,,,,,37,001, 19,w,Sport&Psychologie,2023-01-18_09h09.46.824,00_bat_bachelor,2022.2.4,59.942832748041894,
,,,,0,0,0,0,13,0,13,0,,,,,,,,,,,,,,,13,1179.8290846890304,1180.8298420219216,1,1180.8298420219216,Y,d,go,d,1,0.4509771539596841,,,,,,,,,,,,,,,,,,37,001, 19,w,Sport&Psychologie,2023-01-18_09h09.46.824,00_bat_bachelor,2022.2.4,59.942832748041894,
,,,,0,0,0,0,14,0,14,0,,,,,,,,,,,,,,,14,1181.9982341827126,1182.99869915226,1,1182.99869915226,X,l,go,l,1,0.3123764938209206,,,,,,,,,,,,,,,,,,37,001, 19,w,Sport&Psychologie,2023-01-18_09h09.46.824,00_bat_bachelor,2022.2.4,59.942832748041894,
,,,,1,0,1,0,0,0,0,0,,,,,,,,,,,,,,,0,1198.71023092838,1198.9100795588456,0.2,1198.9100795588456,X,l,go,l,1,0.3227983070537448,1184.0618268791586,j,14.630196945858188,,,,,,,,,,,,,,,37,001, 19,w,Sport&Psychologie,2023-01-18_09h09.46.824,00_bat_bachelor,2022.2.4,59.942832748041894,
,,,,1,0,1,0,1,0,1,0,,,,,,,,,,,,,,,1,1199.9444252391113,1200.1445628390647,0.2,1200.1445628390647,Y,d,go,d,1,0.35219611087813973,,,,,,,,,,,,,,,,,,37,001, 19,w,Sport&Psychologie,2023-01-18_09h09.46.824,00_bat_bachelor,2022.2.4,59.942832748041894,
,,,,1,0,1,0,2,0,2,0,,,,,,,,,,,,,,,2,1201.2124289879575,1201.4125699818833,0.2,1201.4125699818833,X,l,go,l,1,0.2684885150520131,,,,,,,,,,,,,,,,,,37,001, 19,w,Sport&Psychologie,2023-01-18_09h09.46.824,00_bat_bachelor,2022.2.4,59.942832748041894,
,,,,1,0,1,0,3,0,3,0,,,,,,,,,,,,,,,3,1202.396434232127,1202.596777892555,0.2,1202.596777892555,X,None,nogo,None,1,,,,,1203.3973932618974,,,,,,,,,,,,,,37,001, 19,w,Sport&Psychologie,2023-01-18_09h09.46.824,00_bat_bachelor,2022.2.4,59.942832748041894,
,,,,1,0,1,0,4,0,4,0,,,,,,,,,,,,,,,4,1203.9976693345234,1204.198010085849,0.2,1204.198010085849,Y,d,go,d,1,0.3463730834191665,,,,,,,,,,,,,,,,,,37,001, 19,w,Sport&Psychologie,2023-01-18_09h09.46.824,00_bat_bachelor,2022.2.4,59.942832748041894,
,,,,1,0,1,0,5,0,5,0,,,,,,,,,,,,,,,5,1205.2488653339678,1205.448771176394,0.2,1205.448771176394,X,l,go,l,1,0.32730545627418905,,,,,,,,,,,,,,,,,,37,001, 19,w,Sport&Psychologie,2023-01-18_09h09.46.824,00_bat_bachelor,2022.2.4,59.942832748041894,
,,,,1,0,1,0,6,0,6,0,,,,,,,,,,,,,,,6,1206.482892371947,1206.683201608248,0.2,1206.683201608248,Y,d,go,d,1,0.30884340475313365,,,,,,,,,,,,,,,,,,37,001, 19,w,Sport&Psychologie,2023-01-18_09h09.46.824,00_bat_bachelor,2022.2.4,59.942832748041894,
,,,,1,0,1,0,7,0,7,0,,,,,,,,,,,,,,,7,1207.7006323876558,1207.900817987509,0.2,1207.900817987509,X,l,go,l,1,0.2920613521710038,,,,,,,,,,,,,,,,,,37,001, 19,w,Sport&Psychologie,2023-01-18_09h09.46.824,00_bat_bachelor,2022.2.4,59.942832748041894,
,,,,1,0,1,0,8,0,8,0,,,,,,,,,,,,,,,8,1208.901548653841,1209.1015509811696,0.2,1209.1015509811696,Y,d,go,d,1,0.32328703394159675,,,,,,,,,,,,,,,,,,37,001, 19,w,Sport&Psychologie,2023-01-18_09h09.46.824,00_bat_bachelor,2022.2.4,59.942832748041894,
,,,,1,0,1,0,9,0,9,0,,,,,,,,,,,,,,,9,1210.1358336311532,1210.3358102614293,0.2,1210.3358102614293,X,l,go,l,1,0.2569437933852896,,,,,,,,,,,,,,,,,,37,001, 19,w,Sport&Psychologie,2023-01-18_09h09.46.824,00_bat_bachelor,2022.2.4,59.942832748041894,
,,,,1,0,1,0,10,0,10,0,,,,,,,,,,,,,,,10,1211.303406883264,1211.5036254528677,0.2,1211.5036254528677,X,None,nogo,d,0,0.33573017944581807,,,,,,,,,,,,,,,,,,37,001, 19,w,Sport&Psychologie,2023-01-18_09h09.46.824,00_bat_bachelor,2022.2.4,59.942832748041894,
,,,,1,0,1,0,11,0,11,0,,,,,,,,,,,,,,,11,1212.9876989150653,1213.1877957878169,0.2,1213.1877957878169,Y,d,go,d,1,0.34877356712240726,,,,,,,,,,,,,,,,,,37,001, 19,w,Sport&Psychologie,2023-01-18_09h09.46.824,00_bat_bachelor,2022.2.4,59.942832748041894,
,,,,1,0,1,0,12,0,12,0,,,,,,,,,,,,,,,12,1214.2387223085389,1214.4388710600324,0.2,1214.4388710600324,X,l,go,l,1,0.23357847146689892,,,,,,,,,,,,,,,,,,37,001, 19,w,Sport&Psychologie,2023-01-18_09h09.46.824,00_bat_bachelor,2022.2.4,59.942832748041894,
,,,,1,0,1,0,13,0,13,0,,,,,,,,,,,,,,,13,1215.3728381223045,1215.573088691919,0.2,1215.573088691919,Y,d,go,d,1,0.37994833989068866,,,,,,,,,,,,,,,,,,37,001, 19,w,Sport&Psychologie,2023-01-18_09h09.46.824,00_bat_bachelor,2022.2.4,59.942832748041894,
,,,,1,0,1,0,14,0,14,0,,,,,,,,,,,,,,,14,1216.656883560354,1216.857095342013,0.2,1216.857095342013,Y,None,nogo,None,1,,,,,,,,,,,,,,,,,,,37,001, 19,w,Sport&Psychologie,2023-01-18_09h09.46.824,00_bat_bachelor,2022.2.4,59.942832748041894,
,,,,,,,,,,,,,,,,,,,,,,,,,,,,,,,,,,,,,1218.2905404652702,None,,,1218.2905404652702,1218.2905404652702,space,5.809200495365076,,,,,,,,,,37,001, 19,w,Sport&Psychologie,2023-01-18_09h09.46.824,00_bat_bachelor,2022.2.4,59.942832748041894,
,,,,,,,,,,,,0,0,0,0,0,0,0,0,,,,,,,0,,,1,1225.130398967187,X,l,go,l,1,0.32618351746350527,,,,,,,,,,,,,,,,,,37,001, 19,w,Sport&Psychologie,2023-01-18_09h09.46.824,00_bat_bachelor,2022.2.4,59.942832748041894,
,,,,,,,,,,,,0,0,0,0,1,0,1,0,,,,,,,1,,,1,1226.5647076050518,Y,d,go,d,1,0.3804040972609073,,,,,,,,,,,,,,,,,,37,001, 19,w,Sport&Psychologie,2023-01-18_09h09.46.824,00_bat_bachelor,2022.2.4,59.942832748041894,
,,,,,,,,,,,,0,0,0,0,2,0,2,0,,,,,,,2,,,1,1228.0492416732013,X,l,go,l,1,0.3510790206491947,,,,,,,,,,,,,,,,,,37,001, 19,w,Sport&Psychologie,2023-01-18_09h09.46.824,00_bat_bachelor,2022.2.4,59.942832748041894,
,,,,,,,,,,,,0,0,0,0,3,0,3,0,,,,,,,3,,,1,1229.5169553857995,Y,d,go,d,1,0.4033829951658845,,,,,,,,,,,,,,,,,,37,001, 19,w,Sport&Psychologie,2023-01-18_09h09.46.824,00_bat_bachelor,2022.2.4,59.942832748041894,
,,,,,,,,,,,,0,0,0,0,4,0,4,0,,,,,,,4,,,1,1231.0348319831537,X,l,go,l,1,0.3106407371815294,,,,,,,,,,,,,,,,,,37,001, 19,w,Sport&Psychologie,2023-01-18_09h09.46.824,00_bat_bachelor,2022.2.4,59.942832748041894,
,,,,,,,,,,,,0,0,0,0,5,0,5,0,,,,,,,5,,,1,1232.452501598862,Y,d,go,d,1,0.33196145412512124,,,,,,,,,,,,,,,,,,37,001, 19,w,Sport&Psychologie,2023-01-18_09h09.46.824,00_bat_bachelor,2022.2.4,59.942832748041894,
,,,,,,,,,,,,0,0,0,0,6,0,6,0,,,,,,,6,,,1,1233.8867084186058,Y,None,nogo,None,1,,,,,,,,,,,,,,,,,,,37,001, 19,w,Sport&Psychologie,2023-01-18_09h09.46.824,00_bat_bachelor,2022.2.4,59.942832748041894,
,,,,,,,,,,,,0,0,0,0,7,0,7,0,,,,,,,7,,,1,1235.6882304542232,X,l,go,l,1,0.21599981340114027,,,,,,,,,,,,,,,,,,37,001, 19,w,Sport&Psychologie,2023-01-18_09h09.46.824,00_bat_bachelor,2022.2.4,59.942832748041894,
,,,,,,,,,,,,0,0,0,0,8,0,8,0,,,,,,,8,,,1,1237.0059602395631,Y,d,go,d,1,0.2751488755457103,,,,,,,,,,,,,,,,,,37,001, 19,w,Sport&Psychologie,2023-01-18_09h09.46.824,00_bat_bachelor,2022.2.4,59.942832748041894,
,,,,,,,,,,,,0,0,0,0,9,0,9,0,,,,,,,9,,,1,1238.3901404169155,Y,None,nogo,None,1,,,,,1239.1907936044736,,,,,,,,,,,,,,37,001, 19,w,Sport&Psychologie,2023-01-18_09h09.46.824,00_bat_bachelor,2022.2.4,59.942832748041894,
,,,,,,,,,,,,0,0,0,0,10,0,10,0,,,,,,,10,,,1,1240.1914777253987,Y,None,nogo,None,1,,,,,,,,,,,,,,,,,,,37,001, 19,w,Sport&Psychologie,2023-01-18_09h09.46.824,00_bat_bachelor,2022.2.4,59.942832748041894,
,,,,,,,,,,,,0,0,0,0,11,0,11,0,,,,,,,11,,,1,1241.9931355185108,X,l,go,l,1,0.24771858577150851,,,,,,,,,,,,,,,,,,37,001, 19,w,Sport&Psychologie,2023-01-18_09h09.46.824,00_bat_bachelor,2022.2.4,59.942832748041894,
,,,,,,,,,,,,0,0,0,0,12,0,12,0,,,,,,,12,,,1,1243.3442805603845,Y,d,go,d,1,0.2887939598876983,,,,,,,,,,,,,,,,,,37,001, 19,w,Sport&Psychologie,2023-01-18_09h09.46.824,00_bat_bachelor,2022.2.4,59.942832748041894,
,,,,,,,,,,,,0,0,0,0,13,0,13,0,,,,,,,13,,,1,1244.7451540629845,X,l,go,l,1,0.27997553977184,,,,,,,,,,,,,,,,,,37,001, 19,w,Sport&Psychologie,2023-01-18_09h09.46.824,00_bat_bachelor,2022.2.4,59.942832748041894,
,,,,,,,,,,,,0,0,0,0,14,0,14,0,,,,,,,14,,,1,1246.129401149461,Y,d,go,d,1,0.3031037710607052,,,,,,,,,,,,,,,,,,37,001, 19,w,Sport&Psychologie,2023-01-18_09h09.46.824,00_bat_bachelor,2022.2.4,59.942832748041894,
,,,,,,,,,,,,0,0,0,0,15,0,15,0,,,,,,,15,,,1,1247.5473107650178,X,l,go,l,1,0.3897422745358199,,,,,,,,,,,,,,,,,,37,001, 19,w,Sport&Psychologie,2023-01-18_09h09.46.824,00_bat_bachelor,2022.2.4,59.942832748041894,
,,,,,,,,,,,,0,0,0,0,16,0,16,0,,,,,,,16,,,1,1249.048430037219,Y,d,go,d,1,0.3759517357684672,,,,,,,,,,,,,,,,,,37,001, 19,w,Sport&Psychologie,2023-01-18_09h09.46.824,00_bat_bachelor,2022.2.4,59.942832748041894,
,,,,,,,,,,,,0,0,0,0,17,0,17,0,,,,,,,17,,,1,1250.5328089538962,X,l,go,l,1,0.2831992959836498,,,,,,,,,,,,,,,,,,37,001, 19,w,Sport&Psychologie,2023-01-18_09h09.46.824,00_bat_bachelor,2022.2.4,59.942832748041894,
,,,,,,,,,,,,0,0,0,0,18,0,18,0,,,,,,,18,,,1,1251.917082706932,Y,d,go,d,1,0.37173161667305976,,,,,,,,,,,,,,,,,,37,001, 19,w,Sport&Psychologie,2023-01-18_09h09.46.824,00_bat_bachelor,2022.2.4,59.942832748041894,
,,,,,,,,,,,,0,0,0,0,19,0,19,0,,,,,,,19,,,1,1253.4015615023673,X,l,go,l,1,0.35905477427877486,,,,,,,,,,,,,,,,,,37,001, 19,w,Sport&Psychologie,2023-01-18_09h09.46.824,00_bat_bachelor,2022.2.4,59.942832748041894,
,,,,,,,,,,,,0,0,0,0,20,0,20,0,,,,,,,20,,,1,1254.8696034571622,Y,d,go,d,1,0.37970155209768564,,,,,,,,,,,,,,,,,,37,001, 19,w,Sport&Psychologie,2023-01-18_09h09.46.824,00_bat_bachelor,2022.2.4,59.942832748041894,
,,,,,,,,,,,,0,0,0,0,21,0,21,0,,,,,,,21,,,1,1256.3540618889965,X,l,go,l,1,0.36701501277275383,,,,,,,,,,,,,,,,,,37,001, 19,w,Sport&Psychologie,2023-01-18_09h09.46.824,00_bat_bachelor,2022.2.4,59.942832748041894,
,,,,,,,,,,,,0,0,0,0,22,0,22,0,,,,,,,22,,,1,1257.8218090560986,X,None,nogo,None,1,,,,,,,,,,,,,,,,,,,37,001, 19,w,Sport&Psychologie,2023-01-18_09h09.46.824,00_bat_bachelor,2022.2.4,59.942832748041894,
,,,,,,,,,,,,0,0,0,0,23,0,23,0,,,,,,,23,,,1,1259.622940304107,Y,d,go,d,1,0.34499853861052543,,,,,,,,,,,,,,,,,,37,001, 19,w,Sport&Psychologie,2023-01-18_09h09.46.824,00_bat_bachelor,2022.2.4,59.942832748041894,
,,,,,,,,,,,,0,0,0,0,24,0,24,0,,,,,,,24,,,1,1261.0741628732067,X,l,go,l,1,0.35019562707748264,,,,,,,,,,,,,,,,,,37,001, 19,w,Sport&Psychologie,2023-01-18_09h09.46.824,00_bat_bachelor,2022.2.4,59.942832748041894,
,,,,,,,,,,,,0,0,0,0,25,0,25,0,,,,,,,25,,,1,1262.5253781696083,X,None,nogo,None,1,,,,,,,,,,,,,,,,,,,37,001, 19,w,Sport&Psychologie,2023-01-18_09h09.46.824,00_bat_bachelor,2022.2.4,59.942832748041894,
,,,,,,,,,,,,0,0,0,0,26,0,26,0,,,,,,,26,,,1,1264.3268444476416,Y,d,go,d,1,0.4271361958235502,,,,,,,,,,,,,,,,,,37,001, 19,w,Sport&Psychologie,2023-01-18_09h09.46.824,00_bat_bachelor,2022.2.4,59.942832748041894,
,,,,,,,,,,,,0,0,0,0,27,0,27,0,,,,,,,27,,,1,1265.8612582491478,X,l,go,l,1,0.396706634783186,,,,,,,,,,,,,,,,,,37,001, 19,w,Sport&Psychologie,2023-01-18_09h09.46.824,00_bat_bachelor,2022.2.4,59.942832748041894,
,,,,,,,,,,,,0,0,0,0,28,0,28,0,,,,,,,28,,,1,1267.3624400667613,Y,d,go,d,1,0.3988671185215935,,,,,,,,,,,,,,,,,,37,001, 19,w,Sport&Psychologie,2023-01-18_09h09.46.824,00_bat_bachelor,2022.2.4,59.942832748041894,
,,,,,,,,,,,,0,0,0,0,29,0,29,0,,,,,,,29,,,1,1268.8635651571676,X,l,go,l,1,0.3537951403995976,,,,,,,,,,,,,,,,,,37,001, 19,w,Sport&Psychologie,2023-01-18_09h09.46.824,00_bat_bachelor,2022.2.4,59.942832748041894,
,,,,,,,,,,,,0,0,0,0,30,0,30,0,,,,,,,30,,,1,1270.331309900037,Y,d,go,d,1,0.3898474865127355,,,,,,,,,,,,,,,,,,37,001, 19,w,Sport&Psychologie,2023-01-18_09h09.46.824,00_bat_bachelor,2022.2.4,59.942832748041894,
,,,,,,,,,,,,0,0,0,0,31,0,31,0,,,,,,,31,,,1,1271.8326536569512,X,l,go,l,1,0.4085054169408977,,,,,,,,,,,,,,,,,,37,001, 19,w,Sport&Psychologie,2023-01-18_09h09.46.824,00_bat_bachelor,2022.2.4,59.942832748041894,
,,,,,,,,,,,,0,0,0,0,32,0,32,0,,,,,,,32,,,1,1273.3506427390967,Y,d,go,d,1,0.4100690525956452,,,,,,,,,,,,,,,,,,37,001, 19,w,Sport&Psychologie,2023-01-18_09h09.46.824,00_bat_bachelor,2022.2.4,59.942832748041894,
,,,,,,,,,,,,0,0,0,0,33,0,33,0,,,,,,,33,,,1,1274.8684805487283,X,l,go,l,1,0.33220824180170894,,,,,,,,,,,,,,,,,,37,001, 19,w,Sport&Psychologie,2023-01-18_09h09.46.824,00_bat_bachelor,2022.2.4,59.942832748041894,
,,,,,,,,,,,,0,0,0,0,34,0,34,0,,,,,,,34,,,1,1276.302891489584,Y,d,go,d,1,0.3061040120664984,,,,,,,,,,,,,,,,,,37,001, 19,w,Sport&Psychologie,2023-01-18_09h09.46.824,00_bat_bachelor,2022.2.4,59.942832748041894,
,,,,,,,,,,,,0,0,0,0,35,0,35,0,,,,,,,35,,,1,1277.720455893199,X,l,go,l,1,0.3758853115141392,,,,,,,,,,,,,,,,,,37,001, 19,w,Sport&Psychologie,2023-01-18_09h09.46.824,00_bat_bachelor,2022.2.4,59.942832748041894,
,,,,,,,,,,,,0,0,0,0,36,0,36,0,,,,,,,36,,,1,1279.2046059614513,Y,d,go,d,1,0.3953907566610724,,,,,,,,,,,,,,,,,,37,001, 19,w,Sport&Psychologie,2023-01-18_09h09.46.824,00_bat_bachelor,2022.2.4,59.942832748041894,
,,,,,,,,,,,,0,0,0,0,37,0,37,0,,,,,,,37,,,1,1280.7060258395504,X,l,go,l,1,0.2873268090188503,,,,,,,,,,,,,,,,,,37,001, 19,w,Sport&Psychologie,2023-01-18_09h09.46.824,00_bat_bachelor,2022.2.4,59.942832748041894,
,,,,,,,,,,,,0,0,0,0,38,0,38,0,,,,,,,38,,,1,1282.1070447966922,Y,d,go,d,1,0.2780603893334046,,,,,,,,,,,,,,,,,,37,001, 19,w,Sport&Psychologie,2023-01-18_09h09.46.824,00_bat_bachelor,2022.2.4,59.942832748041894,
,,,,,,,,,,,,0,0,0,0,39,0,39,0,,,,,,,39,,,1,1283.4911454588873,Y,None,nogo,None,1,,,,,,,,,,,,,,,,,,,37,001, 19,w,Sport&Psychologie,2023-01-18_09h09.46.824,00_bat_bachelor,2022.2.4,59.942832748041894,
,,,,,,,,,,,,0,0,0,0,40,0,40,0,,,,,,,40,,,1,1285.2928590095835,X,l,go,l,1,0.41962832072749734,,,,,,,,,,,,,,,,,,37,001, 19,w,Sport&Psychologie,2023-01-18_09h09.46.824,00_bat_bachelor,2022.2.4,59.942832748041894,
,,,,,,,,,,,,0,0,0,0,41,0,41,0,,,,,,,41,,,1,1286.827005174826,Y,d,go,d,1,0.3898562138201669,,,,,,,,,,,,,,,,,,37,001, 19,w,Sport&Psychologie,2023-01-18_09h09.46.824,00_bat_bachelor,2022.2.4,59.942832748041894,
,,,,,,,,,,,,0,0,0,0,42,0,42,0,,,,,,,42,,,1,1288.3283634772524,X,l,go,l,1,0.4886619840981439,,,,,,,,,,,,,,,,,,37,001, 19,w,Sport&Psychologie,2023-01-18_09h09.46.824,00_bat_bachelor,2022.2.4,59.942832748041894,
,,,,,,,,,,,,0,0,0,0,43,0,43,0,,,,,,,43,,,1,1289.9297527613817,Y,d,go,d,1,0.29546741116791964,,,,,,,,,,,,,,,,,,37,001, 19,w,Sport&Psychologie,2023-01-18_09h09.46.824,00_bat_bachelor,2022.2.4,59.942832748041894,
,,,,,,,,,,,,0,0,0,0,44,0,44,0,,,,,,,44,,,1,1291.3307406881358,X,l,go,l,1,0.25312609830871224,,,,,,,,,,,,,,,,,,37,001, 19,w,Sport&Psychologie,2023-01-18_09h09.46.824,00_bat_bachelor,2022.2.4,59.942832748041894,
,,,,,,,,,,,,0,0,0,0,45,0,45,0,,,,,,,45,,,1,1292.698394328123,X,None,nogo,None,1,,,,,,,,,,,,,,,,,,,37,001, 19,w,Sport&Psychologie,2023-01-18_09h09.46.824,00_bat_bachelor,2022.2.4,59.942832748041894,
,,,,,,,,,,,,0,0,0,0,46,0,46,0,,,,,,,46,,,1,1294.5005355149042,Y,d,go,d,1,0.33140824222937226,,,,,,,,,,,,,,,,,,37,001, 19,w,Sport&Psychologie,2023-01-18_09h09.46.824,00_bat_bachelor,2022.2.4,59.942832748041894,
,,,,,,,,,,,,0,0,0,0,47,0,47,0,,,,,,,47,,,1,1295.9348606376443,X,l,go,l,1,0.3847037316299975,,,,,,,,,,,,,,,,,,37,001, 19,w,Sport&Psychologie,2023-01-18_09h09.46.824,00_bat_bachelor,2022.2.4,59.942832748041894,
,,,,,,,,,,,,0,0,0,0,48,0,48,0,,,,,,,48,,,1,1297.4525277806679,Y,d,go,d,1,0.33881139010190964,,,,,,,,,,,,,,,,,,37,001, 19,w,Sport&Psychologie,2023-01-18_09h09.46.824,00_bat_bachelor,2022.2.4,59.942832748041894,
,,,,,,,,,,,,0,0,0,0,49,0,49,0,,,,,,,49,,,1,1298.9203462204896,X,l,go,l,1,0.27935008564963937,,,,,,,,,,,,,,,,,,37,001, 19,w,Sport&Psychologie,2023-01-18_09h09.46.824,00_bat_bachelor,2022.2.4,59.942832748041894,
,,,,,,,,,,,,0,0,0,0,50,0,50,0,,,,,,,50,,,1,1300.3212556018261,Y,d,go,d,1,0.3193398844450712,,,,,,,,,,,,,,,,,,37,001, 19,w,Sport&Psychologie,2023-01-18_09h09.46.824,00_bat_bachelor,2022.2.4,59.942832748041894,
,,,,,,,,,,,,0,0,0,0,51,0,51,0,,,,,,,51,,,1,1301.755644239718,Y,None,nogo,None,1,,,,,1302.5564394878456,,,,,,,,,,,,,,37,001, 19,w,Sport&Psychologie,2023-01-18_09h09.46.824,00_bat_bachelor,2022.2.4,59.942832748041894,
,,,,,,,,,,,,0,0,0,0,52,0,52,0,,,,,,,52,,,1,1303.5569025179138,X,l,go,l,1,0.23548586457036436,,,,,,,,,,,,,,,,,,37,001, 19,w,Sport&Psychologie,2023-01-18_09h09.46.824,00_bat_bachelor,2022.2.4,59.942832748041894,
,,,,,,,,,,,,0,0,0,0,53,0,53,0,,,,,,,53,,,1,1304.908177983947,Y,d,go,d,1,0.27614232967607677,,,,,,,,,,,,,,,,,,37,001, 19,w,Sport&Psychologie,2023-01-18_09h09.46.824,00_bat_bachelor,2022.2.4,59.942832748041894,
,,,,,,,,,,,,0,0,0,0,54,0,54,0,,,,,,,54,,,1,1306.2925089491764,Y,None,nogo,l,0,0.34764241613447666,,,,,,,,,,,,,,,,,,37,001, 19,w,Sport&Psychologie,2023-01-18_09h09.46.824,00_bat_bachelor,2022.2.4,59.942832748041894,
,,,,,,,,,,,,0,0,0,0,55,0,55,0,,,,,,,55,,,1,1307.7434362457134,X,l,go,l,1,0.5117810033261776,,,,,,,,,,,,,,,,,,37,001, 19,w,Sport&Psychologie,2023-01-18_09h09.46.824,00_bat_bachelor,2022.2.4,59.942832748041894,
,,,,,,,,,,,,0,0,0,0,56,0,56,0,,,,,,,56,,,1,1309.3781913318671,Y,d,go,d,1,0.4300220125587657,,,,,,,,,,,,,,,,,,37,001, 19,w,Sport&Psychologie,2023-01-18_09h09.46.824,00_bat_bachelor,2022.2.4,59.942832748041894,
,,,,,,,,,,,,0,0,0,0,57,0,57,0,,,,,,,57,,,1,1310.9124800424324,Y,None,nogo,None,1,,,,,1311.7128685029456,,,,,,,,,,,,,,37,001, 19,w,Sport&Psychologie,2023-01-18_09h09.46.824,00_bat_bachelor,2022.2.4,59.942832748041894,
,,,,,,,,,,,,0,0,0,0,58,0,58,0,,,,,,,58,,,1,1312.7137940782122,X,l,go,l,1,0.263146941899322,,,,,,,,,,,,,,,,,,37,001, 19,w,Sport&Psychologie,2023-01-18_09h09.46.824,00_bat_bachelor,2022.2.4,59.942832748041894,
,,,,,,,,,,,,0,0,0,0,59,0,59,0,,,,,,,59,,,1,1314.08158686955,Y,d,go,d,1,0.3836700350511819,,,,,,,,,,,,,,,,,,37,001, 19,w,Sport&Psychologie,2023-01-18_09h09.46.824,00_bat_bachelor,2022.2.4,59.942832748041894,
,,,,,,,,,,,,0,0,0,0,60,0,60,0,,,,,,,60,,,1,1315.5660123316338,Y,None,nogo,None,1,,,,,,,,,,,,,,,,,,,37,001, 19,w,Sport&Psychologie,2023-01-18_09h09.46.824,00_bat_bachelor,2022.2.4,59.942832748041894,
,,,,,,,,,,,,0,0,0,0,61,0,61,0,,,,,,,61,,,1,1317.3673321856186,X,l,go,l,1,0.3148298260057345,,,,,,,,,,,,,,,,,,37,001, 19,w,Sport&Psychologie,2023-01-18_09h09.46.824,00_bat_bachelor,2022.2.4,59.942832748041894,
,,,,,,,,,,,,0,0,0,0,62,0,62,0,,,,,,,62,,,1,1318.7852282254025,Y,d,go,d,1,0.2711285138502717,,,,,,,,,,,,,,,,,,37,001, 19,w,Sport&Psychologie,2023-01-18_09h09.46.824,00_bat_bachelor,2022.2.4,59.942832748041894,
,,,,,,,,,,,,0,0,0,0,63,0,63,0,,,,,,,63,,,1,1320.1696387056727,X,l,go,l,1,0.4075929324608296,,,,,,,,,,,,,,,,,,37,001, 19,w,Sport&Psychologie,2023-01-18_09h09.46.824,00_bat_bachelor,2022.2.4,59.942832748041894,
,,,,,,,,,,,,0,0,0,0,64,0,64,0,,,,,,,64,,,1,1321.6873005153611,Y,d,go,d,1,0.3771672503789887,,,,,,,,,,,,,,,,,,37,001, 19,w,Sport&Psychologie,2023-01-18_09h09.46.824,00_bat_bachelor,2022.2.4,59.942832748041894,
,,,,,,,,,,,,0,0,0,0,65,0,65,0,,,,,,,65,,,1,1323.1717919167131,X,l,go,l,1,0.34872459748294204,,,,,,,,,,,,,,,,,,37,001, 19,w,Sport&Psychologie,2023-01-18_09h09.46.824,00_bat_bachelor,2022.2.4,59.942832748041894,
,,,,,,,,,,,,0,0,0,0,66,0,66,0,,,,,,,66,,,1,1324.6228675768944,X,None,nogo,d,0,0.27397942158859223,,,,,,,,,,,,,,,,,,37,001, 19,w,Sport&Psychologie,2023-01-18_09h09.46.824,00_bat_bachelor,2022.2.4,59.942832748041894,
,,,,,,,,,,,,0,0,0,0,67,0,67,0,,,,,,,67,,,1,1326.00722326932,Y,d,go,d,1,0.2651091228472069,,,,,,,,,,,,,,,,,,37,001, 19,w,Sport&Psychologie,2023-01-18_09h09.46.824,00_bat_bachelor,2022.2.4,59.942832748041894,
,,,,,,,,,,,,0,0,0,0,68,0,68,0,,,,,,,68,,,1,1327.3749632121762,X,l,go,l,1,0.3061830422375351,,,,,,,,,,,,,,,,,,37,001, 19,w,Sport&Psychologie,2023-01-18_09h09.46.824,00_bat_bachelor,2022.2.4,59.942832748041894,
,,,,,,,,,,,,0,0,0,0,69,0,69,0,,,,,,,69,,,1,1328.7927773126867,X,None,nogo,None,1,,,,,,,,,,,,,,,,,,,37,001, 19,w,Sport&Psychologie,2023-01-18_09h09.46.824,00_bat_bachelor,2022.2.4,59.942832748041894,
,,,,,,,,,,,,0,0,0,0,70,0,70,0,,,,,,,70,,,1,1330.5939095303183,Y,d,go,d,1,0.36620240716729313,,,,,,,,,,,,,,,,,,37,001, 19,w,Sport&Psychologie,2023-01-18_09h09.46.824,00_bat_bachelor,2022.2.4,59.942832748041894,
,,,,,,,,,,,,0,0,0,0,71,0,71,0,,,,,,,71,,,1,1332.061894757906,X,l,go,l,1,0.38650591240730137,,,,,,,,,,,,,,,,,,37,001, 19,w,Sport&Psychologie,2023-01-18_09h09.46.824,00_bat_bachelor,2022.2.4,59.942832748041894,
,,,,,,,,,,,,0,0,0,0,72,0,72,0,,,,,,,72,,,1,1333.562890393776,X,None,nogo,None,1,,,,,1334.3636837025406,,,,,,,,,,,,,,37,001, 19,w,Sport&Psychologie,2023-01-18_09h09.46.824,00_bat_bachelor,2022.2.4,59.942832748041894,
,,,,,,,,,,,,0,0,0,0,73,0,73,0,,,,,,,73,,,1,1335.3642262476496,Y,d,go,d,1,0.4131478389026597,,,,,,,,,,,,,,,,,,37,001, 19,w,Sport&Psychologie,2023-01-18_09h09.46.824,00_bat_bachelor,2022.2.4,59.942832748041894,
,,,,,,,,,,,,0,0,0,0,74,0,74,0,,,,,,,74,,,1,1336.8822424813407,X,l,go,l,1,0.6382851843954995,,,,,,,,,,,,,,,,,,37,001, 19,w,Sport&Psychologie,2023-01-18_09h09.46.824,00_bat_bachelor,2022.2.4,59.942832748041894,
,,,,,,,,,,,,0,0,0,0,75,0,75,0,,,,,,,75,,,1,1338.6335972686065,X,None,nogo,None,1,,,,,1339.434292637976,,,,,,,,,,,,,,37,001, 19,w,Sport&Psychologie,2023-01-18_09h09.46.824,00_bat_bachelor,2022.2.4,59.942832748041894,
,,,,,,,,,,,,0,0,0,0,76,0,76,0,,,,,,,76,,,1,1340.434978213394,Y,d,go,d,1,0.3495124758919701,,,,,,,,,,,,,,,,,,37,001, 19,w,Sport&Psychologie,2023-01-18_09h09.46.824,00_bat_bachelor,2022.2.4,59.942832748041894,
,,,,,,,,,,,,0,0,0,0,77,0,77,0,,,,,,,77,,,1,1341.8858560554218,X,l,go,l,1,0.6430090608773753,,,,,,,,,,,,,,,,,,37,001, 19,w,Sport&Psychologie,2023-01-18_09h09.46.824,00_bat_bachelor,2022.2.4,59.942832748041894,
,,,,,,,,,,,,0,0,0,0,78,0,78,0,,,,,,,78,,,1,1343.6372006607708,Y,d,go,None,0,,,,,1344.4379614846548,,,,,,,,,,,,,,37,001, 19,w,Sport&Psychologie,2023-01-18_09h09.46.824,00_bat_bachelor,2022.2.4,59.942832748041894,
,,,,,,,,,,,,0,0,0,0,79,0,79,0,,,,,,,79,,,1,1345.4386218480067,X,l,go,l,1,0.5791579402284697,,,,,,,,,,,,,,,,,,37,001, 19,w,Sport&Psychologie,2023-01-18_09h09.46.824,00_bat_bachelor,2022.2.4,59.942832748041894,
,,,,,,,,,,,,0,0,0,0,80,0,80,0,,,,,,,80,,,1,1347.123408909887,Y,d,go,d,1,0.5420190491713583,,,,,,,,,,,,,,,,,,37,001, 19,w,Sport&Psychologie,2023-01-18_09h09.46.824,00_bat_bachelor,2022.2.4,59.942832748041894,
,,,,,,,,,,,,0,0,0,0,81,0,81,0,,,,,,,81,,,1,1348.7746464123484,Y,None,nogo,None,1,,,,,1349.5750518424902,,,,,,,,,,,,,,37,001, 19,w,Sport&Psychologie,2023-01-18_09h09.46.824,00_bat_bachelor,2022.2.4,59.942832748041894,
,,,,,,,,,,,,0,0,0,0,82,0,82,0,,,,,,,82,,,1,1350.5759100238793,X,l,go,l,1,0.2736652399180457,,,,,,,,,,,,,,,,,,37,001, 19,w,Sport&Psychologie,2023-01-18_09h09.46.824,00_bat_bachelor,2022.2.4,59.942832748041894,
,,,,,,,,,,,,0,0,0,0,83,0,83,0,,,,,,,83,,,1,1351.9605037767906,Y,d,go,d,1,0.440498128766194,,,,,,,,,,,,,,,,,,37,001, 19,w,Sport&Psychologie,2023-01-18_09h09.46.824,00_bat_bachelor,2022.2.4,59.942832748041894,
,,,,,,,,,,,,0,0,0,0,84,0,84,0,,,,,,,84,,,1,1353.5115401156945,X,l,go,l,1,0.5054260971955955,,,,,,,,,,,,,,,,,,37,001, 19,w,Sport&Psychologie,2023-01-18_09h09.46.824,00_bat_bachelor,2022.2.4,59.942832748041894,
,,,,,,,,,,,,0,0,0,0,85,0,85,0,,,,,,,85,,,1,1355.1292973918607,Y,d,go,d,1,0.5188830603146926,,,,,,,,,,,,,,,,,,37,001, 19,w,Sport&Psychologie,2023-01-18_09h09.46.824,00_bat_bachelor,2022.2.4,59.942832748041894,
,,,,,,,,,,,,0,0,0,0,86,0,86,0,,,,,,,86,,,1,1356.7640495690284,Y,None,nogo,None,1,,,,,1357.5646654232405,,,,,,,,,,,,,,37,001, 19,w,Sport&Psychologie,2023-01-18_09h09.46.824,00_bat_bachelor,2022.2.4,59.942832748041894,
,,,,,,,,,,,,0,0,0,0,87,0,87,0,,,,,,,87,,,1,1358.5655328168068,X,l,go,l,1,0.3305738182971254,,,,,,,,,,,,,,,,,,37,001, 19,w,Sport&Psychologie,2023-01-18_09h09.46.824,00_bat_bachelor,2022.2.4,59.942832748041894,
,,,,,,,,,,,,0,0,0,0,88,0,88,0,,,,,,,88,,,1,1359.999757575919,Y,d,go,d,1,0.43298540508840233,,,,,,,,,,,,,,,,,,37,001, 19,w,Sport&Psychologie,2023-01-18_09h09.46.824,00_bat_bachelor,2022.2.4,59.942832748041894,
,,,,,,,,,,,,0,0,0,0,89,0,89,0,,,,,,,89,,,1,1361.5342164683389,Y,None,nogo,None,1,,,,,1362.3349724437576,,,,,,,,,,,,,,37,001, 19,w,Sport&Psychologie,2023-01-18_09h09.46.824,00_bat_bachelor,2022.2.4,59.942832748041894,
,,,,,,,,,,,,0,0,0,0,90,0,90,0,,,,,,,90,,,1,1363.3358131705318,X,l,go,l,1,0.29763807682320476,,,,,,,,,,,,,,,,,,37,001, 19,w,Sport&Psychologie,2023-01-18_09h09.46.824,00_bat_bachelor,2022.2.4,59.942832748041894,
,,,,,,,,,,,,0,0,0,0,91,0,91,0,,,,,,,91,,,1,1364.7365577035816,Y,d,go,d,1,0.28812147537246346,,,,,,,,,,,,,,,,,,37,001, 19,w,Sport&Psychologie,2023-01-18_09h09.46.824,00_bat_bachelor,2022.2.4,59.942832748041894,
,,,,,,,,,,,,0,0,0,0,92,0,92,0,,,,,,,92,,,1,1366.1376610242296,Y,None,nogo,None,1,,,,,,,,,,,,,,,,,,,37,001, 19,w,Sport&Psychologie,2023-01-18_09h09.46.824,00_bat_bachelor,2022.2.4,59.942832748041894,
,,,,,,,,,,,,0,0,0,0,93,0,93,0,,,,,,,93,,,1,1367.9397236655932,X,l,go,l,1,0.2684366364264861,,,,,,,,,,,,,,,,,,37,001, 19,w,Sport&Psychologie,2023-01-18_09h09.46.824,00_bat_bachelor,2022.2.4,59.942832748041894,
,,,,,,,,,,,,0,0,0,0,94,0,94,0,,,,,,,94,,,1,1369.3232328130398,Y,d,go,d,1,0.4046300249174237,,,,,,,,,,,,,,,,,,37,001, 19,w,Sport&Psychologie,2023-01-18_09h09.46.824,00_bat_bachelor,2022.2.4,59.942832748041894,
,,,,,,,,,,,,0,0,0,0,95,0,95,0,,,,,,,95,,,1,1370.841406622436,X,l,go,l,1,0.4718547195661813,,,,,,,,,,,,,,,,,,37,001, 19,w,Sport&Psychologie,2023-01-18_09h09.46.824,00_bat_bachelor,2022.2.4,59.942832748041894,
,,,,,,,,,,,,0,0,0,0,96,0,96,0,,,,,,,96,,,1,1372.426536035724,X,None,nogo,None,1,,,,,1373.2269303143257,,,,,,,,,,,,,,37,001, 19,w,Sport&Psychologie,2023-01-18_09h09.46.824,00_bat_bachelor,2022.2.4,59.942832748041894,
,,,,,,,,,,,,0,0,0,0,97,0,97,0,,,,,,,97,,,1,1374.2277254654327,Y,d,go,d,1,0.3795565825421363,,,,,,,,,,,,,,,,,,37,001, 19,w,Sport&Psychologie,2023-01-18_09h09.46.824,00_bat_bachelor,2022.2.4,59.942832748041894,
,,,,,,,,,,,,0,0,0,0,98,0,98,0,,,,,,,98,,,1,1375.729017343605,X,l,go,l,1,0.5267536019673571,,,,,,,,,,,,,,,,,,37,001, 19,w,Sport&Psychologie,2023-01-18_09h09.46.824,00_bat_bachelor,2022.2.4,59.942832748041894,
,,,,,,,,,,,,0,0,0,0,99,0,99,0,,,,,,,99,,,1,1377.3805360579863,X,None,nogo,None,1,,,,,1378.1810990637168,,,,,,,,,,,,,,37,001, 19,w,Sport&Psychologie,2023-01-18_09h09.46.824,00_bat_bachelor,2022.2.4,59.942832748041894,
,,,,,,,,,,,,0,0,0,0,100,0,100,0,,,,,,,100,,,1,1379.1817235483322,Y,d,go,d,1,0.4507560631027445,,,,,,,,,,,,,,,,,,37,001, 19,w,Sport&Psychologie,2023-01-18_09h09.46.824,00_bat_bachelor,2022.2.4,59.942832748041894,
,,,,,,,,,,,,0,0,0,0,101,0,101,0,,,,,,,101,,,1,1380.7328927356284,X,l,go,l,1,0.46712260076310486,,,,,,,,,,,,,,,,,,37,001, 19,w,Sport&Psychologie,2023-01-18_09h09.46.824,00_bat_bachelor,2022.2.4,59.942832748041894,
,,,,,,,,,,,,0,0,0,0,102,0,102,0,,,,,,,102,,,1,1382.3174228764838,Y,d,go,d,1,0.3860656702890992,,,,,,,,,,,,,,,,,,37,001, 19,w,Sport&Psychologie,2023-01-18_09h09.46.824,00_bat_bachelor,2022.2.4,59.942832748041894,
,,,,,,,,,,,,0,0,0,0,103,0,103,0,,,,,,,103,,,1,1383.83508080733,Y,None,nogo,None,1,,,,,1384.6358697523829,,,,,,,,,,,,,,37,001, 19,w,Sport&Psychologie,2023-01-18_09h09.46.824,00_bat_bachelor,2022.2.4,59.942832748041894,
,,,,,,,,,,,,0,0,0,0,104,0,104,0,,,,,,,104,,,1,1385.6364360550651,X,l,go,l,1,0.363774772034958,,,,,,,,,,,,,,,,,,37,001, 19,w,Sport&Psychologie,2023-01-18_09h09.46.824,00_bat_bachelor,2022.2.4,59.942832748041894,
,,,,,,,,,,,,0,0,0,0,105,0,105,0,,,,,,,105,,,1,1387.137773024151,Y,d,go,d,1,0.4464084288338199,,,,,,,,,,,,,,,,,,37,001, 19,w,Sport&Psychologie,2023-01-18_09h09.46.824,00_bat_bachelor,2022.2.4,59.942832748041894,
,,,,,,,,,,,,0,0,0,0,106,0,106,0,,,,,,,106,,,1,1388.7220738318283,X,l,go,l,1,0.47805495897773653,,,,,,,,,,,,,,,,,,37,001, 19,w,Sport&Psychologie,2023-01-18_09h09.46.824,00_bat_bachelor,2022.2.4,59.942832748041894,
,,,,,,,,,,,,0,0,0,0,107,0,107,0,,,,,,,107,,,1,1390.3234582674922,Y,d,go,d,1,0.41220917273312807,,,,,,,,,,,,,,,,,,37,001, 19,w,Sport&Psychologie,2023-01-18_09h09.46.824,00_bat_bachelor,2022.2.4,59.942832748041894,
,,,,,,,,,,,,0,0,0,0,108,0,108,0,,,,,,,108,,,1,1391.8579443113413,X,l,go,l,1,0.5422881400445476,,,,,,,,,,,,,,,,,,37,001, 19,w,Sport&Psychologie,2023-01-18_09h09.46.824,00_bat_bachelor,2022.2.4,59.942832748041894,
,,,,,,,,,,,,0,0,0,0,109,0,109,0,,,,,,,109,,,1,1393.509325328865,X,None,nogo,None,1,,,,,1394.309750637738,,,,,,,,,,,,,,37,001, 19,w,Sport&Psychologie,2023-01-18_09h09.46.824,00_bat_bachelor,2022.2.4,59.942832748041894,
,,,,,,,,,,,,0,0,0,0,110,0,110,0,,,,,,,110,,,1,1395.3106747585116,Y,d,go,d,1,0.4186552301980555,,,,,,,,,,,,,,,,,,37,001, 19,w,Sport&Psychologie,2023-01-18_09h09.46.824,00_bat_bachelor,2022.2.4,59.942832748041894,
,,,,,,,,,,,,0,0,0,0,111,0,111,0,,,,,,,111,,,1,1396.8451758327428,X,l,go,l,1,0.5148350623203442,,,,,,,,,,,,,,,,,,37,001, 19,w,Sport&Psychologie,2023-01-18_09h09.46.824,00_bat_bachelor,2022.2.4,59.942832748041894,
,,,,,,,,,,,,0,0,0,0,112,0,112,0,,,,,,,112,,,1,1398.4796152826166,X,None,nogo,None,1,,,,,1399.2804687125608,,,,,,,,,,,,,,37,001, 19,w,Sport&Psychologie,2023-01-18_09h09.46.824,00_bat_bachelor,2022.2.4,59.942832748041894,
,,,,,,,,,,,,0,0,0,0,113,0,113,0,,,,,,,113,,,1,1400.2811198637355,Y,d,go,d,1,0.31133600953035057,,,,,,,,,,,,,,,,,,37,001, 19,w,Sport&Psychologie,2023-01-18_09h09.46.824,00_bat_bachelor,2022.2.4,59.942832748041894,
,,,,,,,,,,,,0,0,0,0,114,0,114,0,,,,,,,114,,,1,1401.6988990551326,X,l,go,l,1,0.4772612623637542,,,,,,,,,,,,,,,,,,37,001, 19,w,Sport&Psychologie,2023-01-18_09h09.46.824,00_bat_bachelor,2022.2.4,59.942832748041894,
,,,,,,,,,,,,0,0,0,0,115,0,115,0,,,,,,,115,,,1,1403.2834185293177,X,None,nogo,None,1,,,,,1404.0837720806012,,,,,,,,,,,,,,37,001, 19,w,Sport&Psychologie,2023-01-18_09h09.46.824,00_bat_bachelor,2022.2.4,59.942832748041894,
,,,,,,,,,,,,0,0,0,0,116,0,116,0,,,,,,,116,,,1,1405.0847582620336,Y,d,go,d,1,0.2276623530779034,,,,,,,,,,,,,,,,,,37,001, 19,w,Sport&Psychologie,2023-01-18_09h09.46.824,00_bat_bachelor,2022.2.4,59.942832748041894,
,,,,,,,,,,,,0,0,0,0,117,0,117,0,,,,,,,117,,,1,1406.4519542051712,X,l,go,l,1,0.4448976417770609,,,,,,,,,,,,,,,,,,37,001, 19,w,Sport&Psychologie,2023-01-18_09h09.46.824,00_bat_bachelor,2022.2.4,59.942832748041894,
,,,,,,,,,,,,0,0,0,0,118,0,118,0,,,,,,,118,,,1,1408.0032368469983,X,None,nogo,None,1,,,,,1408.8036577922758,,,,,,,,,,,,,,37,001, 19,w,Sport&Psychologie,2023-01-18_09h09.46.824,00_bat_bachelor,2022.2.4,59.942832748041894,
,,,,,,,,,,,,0,0,0,0,119,0,119,0,,,,,,,119,,,1,1409.8042439738056,Y,d,go,d,1,0.3076691022142768,,,,,,,,,,,,,,,,,,37,001, 19,w,Sport&Psychologie,2023-01-18_09h09.46.824,00_bat_bachelor,2022.2.4,59.942832748041894,
,,,,,,,,,,,,0,0,0,0,120,0,120,0,,,,,,,120,,,1,1411.2222369832452,X,l,go,l,1,0.36231780296657234,,,,,,,,,,,,,,,,,,37,001, 19,w,Sport&Psychologie,2023-01-18_09h09.46.824,00_bat_bachelor,2022.2.4,59.942832748041894,
,,,,,,,,,,,,0,0,0,0,121,0,121,0,,,,,,,121,,,1,1412.689597726334,Y,d,go,d,1,0.48014901857823133,,,,,,,,,,,,,,,,,,37,001, 19,w,Sport&Psychologie,2023-01-18_09h09.46.824,00_bat_bachelor,2022.2.4,59.942832748041894,
,,,,,,,,,,,,0,0,0,0,122,0,122,0,,,,,,,122,,,1,1414.2743232609937,X,l,go,None,0,,,,,,,,,,,,,,,,,,,37,001, 19,w,Sport&Psychologie,2023-01-18_09h09.46.824,00_bat_bachelor,2022.2.4,59.942832748041894,
,,,,,,,,,,,,0,0,0,0,123,0,123,0,,,,,,,123,,,1,1416.0758074783953,X,None,nogo,None,1,,,,,,,,,,,,,,,,,,,37,001, 19,w,Sport&Psychologie,2023-01-18_09h09.46.824,00_bat_bachelor,2022.2.4,59.942832748041894,
,,,,,,,,,,,,0,0,0,0,124,0,124,0,,,,,,,124,,,1,1417.8770579990232,Y,d,go,d,1,0.2676686367485672,,,,,,,,,,,,,,,,,,37,001, 19,w,Sport&Psychologie,2023-01-18_09h09.46.824,00_bat_bachelor,2022.2.4,59.942832748041894,
,,,,,,,,,,,,0,0,0,0,125,0,125,0,,,,,,,125,,,1,1419.2615305399522,X,l,go,l,1,0.38669160939753056,,,,,,,,,,,,,,,,,,37,001, 19,w,Sport&Psychologie,2023-01-18_09h09.46.824,00_bat_bachelor,2022.2.4,59.942832748041894,
,,,,,,,,,,,,0,0,0,0,126,0,126,0,,,,,,,126,,,1,1420.7627070242306,Y,d,go,d,1,0.3103677675826475,,,,,,,,,,,,,,,,,,37,001, 19,w,Sport&Psychologie,2023-01-18_09h09.46.824,00_bat_bachelor,2022.2.4,59.942832748041894,
,,,,,,,,,,,,0,0,0,0,127,0,127,0,,,,,,,127,,,1,1422.1804760337109,X,l,go,l,1,0.3648050745250657,,,,,,,,,,,,,,,,,,37,001, 19,w,Sport&Psychologie,2023-01-18_09h09.46.824,00_bat_bachelor,2022.2.4,59.942832748041894,
,,,,,,,,,,,,0,0,0,0,128,0,128,0,,,,,,,128,,,1,1423.6479099889984,Y,d,go,d,1,0.3200351567938924,,,,,,,,,,,,,,,,,,37,001, 19,w,Sport&Psychologie,2023-01-18_09h09.46.824,00_bat_bachelor,2022.2.4,59.942832748041894,
,,,,,,,,,,,,0,0,0,0,129,0,129,0,,,,,,,129,,,1,1425.0823364449898,X,l,go,l,1,0.3892176686786115,,,,,,,,,,,,,,,,,,37,001, 19,w,Sport&Psychologie,2023-01-18_09h09.46.824,00_bat_bachelor,2022.2.4,59.942832748041894,
,,,,,,,,,,,,0,0,0,0,130,0,130,0,,,,,,,130,,,1,1426.5837766866898,Y,d,go,d,1,0.4404913408216089,,,,,,,,,,,,,,,,,,37,001, 19,w,Sport&Psychologie,2023-01-18_09h09.46.824,00_bat_bachelor,2022.2.4,59.942832748041894,
,,,,,,,,,,,,0,0,0,0,131,0,131,0,,,,,,,131,,,1,1428.1349662377033,X,l,go,l,1,0.3459008411737159,,,,,,,,,,,,,,,,,,37,001, 19,w,Sport&Psychologie,2023-01-18_09h09.46.824,00_bat_bachelor,2022.2.4,59.942832748041894,
,,,,,,,,,,,,0,0,0,0,132,0,132,0,,,,,,,132,,,1,1429.5857669888064,X,None,nogo,None,1,,,,,,,,,,,,,,,,,,,37,001, 19,w,Sport&Psychologie,2023-01-18_09h09.46.824,00_bat_bachelor,2022.2.4,59.942832748041894,
,,,,,,,,,,,,0,0,0,0,133,0,133,0,,,,,,,133,,,1,1431.387351569836,Y,d,go,d,1,0.2773268138989806,,,,,,,,,,,,,,,,,,37,001, 19,w,Sport&Psychologie,2023-01-18_09h09.46.824,00_bat_bachelor,2022.2.4,59.942832748041894,
,,,,,,,,,,,,0,0,0,0,134,0,134,0,,,,,,,134,,,1,1432.771704838029,X,l,go,l,1,0.2689496057573706,,,,,,,,,,,,,,,,,,37,001, 19,w,Sport&Psychologie,2023-01-18_09h09.46.824,00_bat_bachelor,2022.2.4,59.942832748041894,
,,,,,,,,,,,,0,0,0,0,135,0,135,0,,,,,,,135,,,1,1434.156306833378,X,None,nogo,None,1,,,,,,,,,,,,,,,,,,,37,001, 19,w,Sport&Psychologie,2023-01-18_09h09.46.824,00_bat_bachelor,2022.2.4,59.942832748041894,
,,,,,,,,,,,,0,0,0,0,136,0,136,0,,,,,,,136,,,1,1435.9575035357848,Y,d,go,d,1,0.2663290010532364,,,,,,,,,,,,,,,,,,37,001, 19,w,Sport&Psychologie,2023-01-18_09h09.46.824,00_bat_bachelor,2022.2.4,59.942832748041894,
,,,,,,,,,,,,0,0,0,0,137,0,137,0,,,,,,,137,,,1,1437.3251896605361,X,l,go,l,1,0.33936799596995115,,,,,,,,,,,,,,,,,,37,001, 19,w,Sport&Psychologie,2023-01-18_09h09.46.824,00_bat_bachelor,2022.2.4,59.942832748041894,
,,,,,,,,,,,,0,0,0,0,138,0,138,0,,,,,,,138,,,1,1438.776110169245,Y,d,go,d,1,0.3758600994478911,,,,,,,,,,,,,,,,,,37,001, 19,w,Sport&Psychologie,2023-01-18_09h09.46.824,00_bat_bachelor,2022.2.4,59.942832748041894,
,,,,,,,,,,,,0,0,0,0,139,0,139,0,,,,,,,139,,,1,1440.2606073888019,X,l,go,l,1,0.3632273783441633,,,,,,,,,,,,,,,,,,37,001, 19,w,Sport&Psychologie,2023-01-18_09h09.46.824,00_bat_bachelor,2022.2.4,59.942832748041894,
,,,,,,,,,,,,0,0,0,0,140,0,140,0,,,,,,,140,,,1,1441.7287123739952,Y,d,go,d,1,0.3995444515021518,,,,,,,,,,,,,,,,,,37,001, 19,w,Sport&Psychologie,2023-01-18_09h09.46.824,00_bat_bachelor,2022.2.4,59.942832748041894,
,,,,,,,,,,,,0,0,0,0,141,0,141,0,,,,,,,141,,,1,1443.229867524933,Y,None,nogo,None,1,,,,,,,,,,,,,,,,,,,37,001, 19,w,Sport&Psychologie,2023-01-18_09h09.46.824,00_bat_bachelor,2022.2.4,59.942832748041894,
,,,,,,,,,,,,0,0,0,0,142,0,142,0,,,,,,,142,,,1,1445.0311195001705,X,l,go,l,1,0.2976346827344969,,,,,,,,,,,,,,,,,,37,001, 19,w,Sport&Psychologie,2023-01-18_09h09.46.824,00_bat_bachelor,2022.2.4,59.942832748041894,
,,,,,,,,,,,,0,0,0,0,143,0,143,0,,,,,,,143,,,1,1446.4321229420602,Y,d,go,d,1,0.43177134508732706,,,,,,,,,,,,,,,,,,37,001, 19,w,Sport&Psychologie,2023-01-18_09h09.46.824,00_bat_bachelor,2022.2.4,59.942832748041894,
,,,,,,,,,,,,0,0,0,0,144,0,144,0,,,,,,,144,,,1,1447.9667064404348,X,l,go,l,1,0.32103879272472113,,,,,,,,,,,,,,,,,,37,001, 19,w,Sport&Psychologie,2023-01-18_09h09.46.824,00_bat_bachelor,2022.2.4,59.942832748041894,
,,,,,,,,,,,,0,0,0,0,145,0,145,0,,,,,,,145,,,1,1449.401202229783,X,None,nogo,None,1,,,,,,,,,,,,,,,,,,,37,001, 19,w,Sport&Psychologie,2023-01-18_09h09.46.824,00_bat_bachelor,2022.2.4,59.942832748041894,
,,,,,,,,,,,,0,0,0,0,146,0,146,0,,,,,,,146,,,1,1451.2022418413544,Y,d,go,d,1,0.27000124158803374,,,,,,,,,,,,,,,,,,37,001, 19,w,Sport&Psychologie,2023-01-18_09h09.46.824,00_bat_bachelor,2022.2.4,59.942832748041894,
,,,,,,,,,,,,0,0,0,0,147,0,147,0,,,,,,,147,,,1,1452.5868816549191,X,l,go,l,1,0.40512360038701445,,,,,,,,,,,,,,,,,,37,001, 19,w,Sport&Psychologie,2023-01-18_09h09.46.824,00_bat_bachelor,2022.2.4,59.942832748041894,
,,,,,,,,,,,,0,0,0,0,148,0,148,0,,,,,,,148,,,1,1454.1046971614705,Y,d,go,d,1,0.4714479318354279,,,,,,,,,,,,,,,,,,37,001, 19,w,Sport&Psychologie,2023-01-18_09h09.46.824,00_bat_bachelor,2022.2.4,59.942832748041894,
,,,,,,,,,,,,0,0,0,0,149,0,149,0,,,,,,,149,,,1,1455.6894488779362,Y,None,nogo,None,1,,,,,,,,,,,,,,,,,,,37,001, 19,w,Sport&Psychologie,2023-01-18_09h09.46.824,00_bat_bachelor,2022.2.4,59.942832748041894,
,,,,,,,,,,,,0,0,0,0,150,0,150,0,,,,,,,150,,,1,1457.4906751561211,Y,None,nogo,None,1,,,,,1458.2913181618787,,,,,,,,,,,,,,37,001, 19,w,Sport&Psychologie,2023-01-18_09h09.46.824,00_bat_bachelor,2022.2.4,59.942832748041894,
,,,,,,,,,,,,0,0,0,0,151,0,151,0,,,,,,,151,,,1,1459.2919751312584,X,l,go,l,1,0.3094615861773491,,,,,,,,,,,,,,,,,,37,001, 19,w,Sport&Psychologie,2023-01-18_09h09.46.824,00_bat_bachelor,2022.2.4,59.942832748041894,
,,,,,,,,,,,,0,0,0,0,152,0,152,0,,,,,,,152,,,1,1460.7097795347217,Y,d,go,d,1,0.5062731271609664,,,,,,,,,,,,,,,,,,37,001, 19,w,Sport&Psychologie,2023-01-18_09h09.46.824,00_bat_bachelor,2022.2.4,59.942832748041894,
,,,,,,,,,,,,0,0,0,0,153,0,153,0,,,,,,,153,,,1,1462.3276250533527,X,l,go,l,1,0.2655629407381639,,,,,,,,,,,,,,,,,,37,001, 19,w,Sport&Psychologie,2023-01-18_09h09.46.824,00_bat_bachelor,2022.2.4,59.942832748041894,
,,,,,,,,,,,,0,0,0,0,154,0,154,0,,,,,,,154,,,1,1463.6951434205985,X,None,nogo,None,1,,,,,,,,,,,,,,,,,,,37,001, 19,w,Sport&Psychologie,2023-01-18_09h09.46.824,00_bat_bachelor,2022.2.4,59.942832748041894,
,,,,,,,,,,,,0,0,0,0,155,0,155,0,,,,,,,155,,,1,1465.4972472741501,Y,d,go,d,1,0.3900743955746293,,,,,,,,,,,,,,,,,,37,001, 19,w,Sport&Psychologie,2023-01-18_09h09.46.824,00_bat_bachelor,2022.2.4,59.942832748041894,
,,,,,,,,,,,,0,0,0,0,156,0,156,0,,,,,,,156,,,1,1467.0319776815595,X,l,go,l,1,0.4874668332049623,,,,,,,,,,,,,,,,,,37,001, 19,w,Sport&Psychologie,2023-01-18_09h09.46.824,00_bat_bachelor,2022.2.4,59.942832748041894,
,,,,,,,,,,,,0,0,0,0,157,0,157,0,,,,,,,157,,,1,1468.6496312002419,X,None,nogo,None,1,,,,,1469.4505272967508,,,,,,,,,,,,,,37,001, 19,w,Sport&Psychologie,2023-01-18_09h09.46.824,00_bat_bachelor,2022.2.4,59.942832748041894,
,,,,,,,,,,,,0,0,0,0,158,0,158,0,,,,,,,158,,,1,1470.451307417592,Y,d,go,d,1,0.31664461293257773,,,,,,,,,,,,,,,,,,37,001, 19,w,Sport&Psychologie,2023-01-18_09h09.46.824,00_bat_bachelor,2022.2.4,59.942832748041894,
,,,,,,,,,,,,0,0,0,0,159,0,159,0,,,,,,,159,,,1,1471.9020058657043,X,l,go,l,1,0.2584041564259678,,,,,,,,,,,,,,,,,,37,001, 19,w,Sport&Psychologie,2023-01-18_09h09.46.824,00_bat_bachelor,2022.2.4,59.942832748041894,
,,,,,,,,,,,,0,0,0,0,160,0,160,0,,,,,,,160,,,1,1473.2864197399467,Y,d,go,d,1,0.41081959765870124,,,,,,,,,,,,,,,,,,37,001, 19,w,Sport&Psychologie,2023-01-18_09h09.46.824,00_bat_bachelor,2022.2.4,59.942832748041894,
,,,,,,,,,,,,0,0,0,0,161,0,161,0,,,,,,,161,,,1,1474.8042720949743,X,l,go,l,1,0.5405509286792949,,,,,,,,,,,,,,,,,,37,001, 19,w,Sport&Psychologie,2023-01-18_09h09.46.824,00_bat_bachelor,2022.2.4,59.942832748041894,
,,,,,,,,,,,,0,0,0,0,162,0,162,0,,,,,,,162,,,1,1476.4552952944068,X,None,nogo,None,1,,,,,1477.2561724819243,,,,,,,,,,,,,,37,001, 19,w,Sport&Psychologie,2023-01-18_09h09.46.824,00_bat_bachelor,2022.2.4,59.942832748041894,
,,,,,,,,,,,,0,0,0,0,163,0,163,0,,,,,,,163,,,1,1478.256923996727,Y,d,go,d,1,0.30276049859821796,,,,,,,,,,,,,,,,,,37,001, 19,w,Sport&Psychologie,2023-01-18_09h09.46.824,00_bat_bachelor,2022.2.4,59.942832748041894,
,,,,,,,,,,,,0,0,0,0,164,0,164,0,,,,,,,164,,,1,1479.691286452813,X,l,go,l,1,0.4690891451900825,,,,,,,,,,,,,,,,,,37,001, 19,w,Sport&Psychologie,2023-01-18_09h09.46.824,00_bat_bachelor,2022.2.4,59.942832748041894,
,,,,,,,,,,,,0,0,0,0,165,0,165,0,,,,,,,165,,,1,1481.275874290499,Y,d,go,d,1,0.3726436161668971,,,,,,,,,,,,,,,,,,37,001, 19,w,Sport&Psychologie,2023-01-18_09h09.46.824,00_bat_bachelor,2022.2.4,59.942832748041894,
,,,,,,,,,,,,0,0,0,0,166,0,166,0,,,,,,,166,,,1,1482.760110661853,X,l,go,l,1,0.4880428329342976,,,,,,,,,,,,,,,,,,37,001, 19,w,Sport&Psychologie,2023-01-18_09h09.46.824,00_bat_bachelor,2022.2.4,59.942832748041894,
,,,,,,,,,,,,0,0,0,0,167,0,167,0,,,,,,,167,,,1,1484.3616070974385,Y,d,go,d,1,0.4869543486274779,,,,,,,,,,,,,,,,,,37,001, 19,w,Sport&Psychologie,2023-01-18_09h09.46.824,00_bat_bachelor,2022.2.4,59.942832748041894,
,,,,,,,,,,,,0,0,0,0,168,0,168,0,,,,,,,168,,,1,1485.9625672909897,Y,None,nogo,None,1,,,,,,,,,,,,,,,,,,,37,001, 19,w,Sport&Psychologie,2023-01-18_09h09.46.824,00_bat_bachelor,2022.2.4,59.942832748041894,
,,,,,,,,,,,,0,0,0,0,169,0,169,0,,,,,,,169,,,1,1487.7639050842263,X,l,go,l,1,0.25111640233080834,,,,,,,,,,,,,,,,,,37,001, 19,w,Sport&Psychologie,2023-01-18_09h09.46.824,00_bat_bachelor,2022.2.4,59.942832748041894,
,,,,,,,,,,,,0,0,0,0,170,0,170,0,,,,,,,170,,,1,1489.1484673219966,Y,d,go,d,1,0.5162930010119453,,,,,,,,,,,,,,,,,,37,001, 19,w,Sport&Psychologie,2023-01-18_09h09.46.824,00_bat_bachelor,2022.2.4,59.942832748041894,
,,,,,,,,,,,,0,0,0,0,171,0,171,0,,,,,,,171,,,1,1490.766219749814,X,l,go,l,1,0.4817795632407069,,,,,,,,,,,,,,,,,,37,001, 19,w,Sport&Psychologie,2023-01-18_09h09.46.824,00_bat_bachelor,2022.2.4,59.942832748041894,
,,,,,,,,,,,,0,0,0,0,172,0,172,0,,,,,,,172,,,1,1492.350698011811,Y,d,go,d,1,0.433122132322751,,,,,,,,,,,,,,,,,,37,001, 19,w,Sport&Psychologie,2023-01-18_09h09.46.824,00_bat_bachelor,2022.2.4,59.942832748041894,
,,,,,,,,,,,,0,0,0,0,173,0,173,0,,,,,,,173,,,1,1493.9021202899748,Y,None,nogo,None,1,,,,,1494.7026925078826,,,,,,,,,,,,,,37,001, 19,w,Sport&Psychologie,2023-01-18_09h09.46.824,00_bat_bachelor,2022.2.4,59.942832748041894,
,,,,,,,,,,,,0,0,0,0,174,0,174,0,,,,,,,174,,,1,1495.703289840836,X,l,go,l,1,0.3440021754940972,,,,,,,,,,,,,,,,,,37,001, 19,w,Sport&Psychologie,2023-01-18_09h09.46.824,00_bat_bachelor,2022.2.4,59.942832748041894,
,,,,,,,,,,,,0,0,0,0,175,0,175,0,,,,,,,175,,,1,1497.171314341249,Y,d,go,d,1,0.5100602767197415,,,,,,,,,,,,,,,,,,37,001, 19,w,Sport&Psychologie,2023-01-18_09h09.46.824,00_bat_bachelor,2022.2.4,59.942832748041894,
,,,,,,,,,,,,0,0,0,0,176,0,176,0,,,,,,,176,,,1,1498.7889925872441,X,l,go,l,1,0.4750139907700941,,,,,,,,,,,,,,,,,,37,001, 19,w,Sport&Psychologie,2023-01-18_09h09.46.824,00_bat_bachelor,2022.2.4,59.942832748041894,
,,,,,,,,,,,,0,0,0,0,177,0,177,0,,,,,,,177,,,1,1500.3735188492574,X,None,nogo,None,1,,,,,1501.1742874307092,,,,,,,,,,,,,,37,001, 19,w,Sport&Psychologie,2023-01-18_09h09.46.824,00_bat_bachelor,2022.2.4,59.942832748041894,
,,,,,,,,,,,,0,0,0,0,178,0,178,0,,,,,,,178,,,1,1502.175076278858,Y,d,go,d,1,0.36962786014191806,,,,,,,,,,,,,,,,,,37,001, 19,w,Sport&Psychologie,2023-01-18_09h09.46.824,00_bat_bachelor,2022.2.4,59.942832748041894,
,,,,,,,,,,,,0,0,0,0,179,0,179,0,,,,,,,179,,,1,1503.6595744681545,X,l,go,l,1,0.4206731686135754,,,,,,,,,,,,,,,,,,37,001, 19,w,Sport&Psychologie,2023-01-18_09h09.46.824,00_bat_bachelor,2022.2.4,59.942832748041894,
,,,,,,,,,,,,0,0,0,0,180,0,180,0,,,,,,,180,,,1,1505.1940464514773,Y,d,go,d,1,0.6452650597784668,,,,,,,,,,,,,,,,,,37,001, 19,w,Sport&Psychologie,2023-01-18_09h09.46.824,00_bat_bachelor,2022.2.4,59.942832748041894,
,,,,,,,,,,,,0,0,0,0,181,0,181,0,,,,,,,181,,,1,1506.9618880185299,X,l,go,l,1,0.3017447415040806,,,,,,,,,,,,,,,,,,37,001, 19,w,Sport&Psychologie,2023-01-18_09h09.46.824,00_bat_bachelor,2022.2.4,59.942832748041894,
,,,,,,,,,,,,0,0,0,0,182,0,182,0,,,,,,,182,,,1,1508.3964977471624,X,None,nogo,None,1,,,,,1509.1971097226487,,,,,,,,,,,,,,37,001, 19,w,Sport&Psychologie,2023-01-18_09h09.46.824,00_bat_bachelor,2022.2.4,59.942832748041894,
,,,,,,,,,,,,0,0,0,0,183,0,183,0,,,,,,,183,,,1,1510.1978432980832,X,None,nogo,None,1,,,,,1510.9982783038868,,,,,,,,,,,,,,37,001, 19,w,Sport&Psychologie,2023-01-18_09h09.46.824,00_bat_bachelor,2022.2.4,59.942832748041894,
,,,,,,,,,,,,0,0,0,0,184,0,184,0,,,,,,,184,,,1,1511.9991728489986,Y,d,go,d,1,0.33573017944581807,,,,,,,,,,,,,,,,,,37,001, 19,w,Sport&Psychologie,2023-01-18_09h09.46.824,00_bat_bachelor,2022.2.4,59.942832748041894,
,,,,,,,,,,,,0,0,0,0,185,0,185,0,,,,,,,185,,,1,1513.467065470526,X,l,go,l,1,0.357322896248661,,,,,,,,,,,,,,,,,,37,001, 19,w,Sport&Psychologie,2023-01-18_09h09.46.824,00_bat_bachelor,2022.2.4,59.942832748041894,
,,,,,,,,,,,,0,0,0,0,186,0,186,0,,,,,,,186,,,1,1514.9346395469038,Y,d,go,d,1,0.47379508218728006,,,,,,,,,,,,,,,,,,37,001, 19,w,Sport&Psychologie,2023-01-18_09h09.46.824,00_bat_bachelor,2022.2.4,59.942832748041894,
,,,,,,,,,,,,0,0,0,0,187,0,187,0,,,,,,,187,,,1,1516.5191740513546,X,l,go,None,0,,,,,1517.3199673601193,,,,,,,,,,,,,,37,001, 19,w,Sport&Psychologie,2023-01-18_09h09.46.824,00_bat_bachelor,2022.2.4,59.942832748041894,
,,,,,,,,,,,,0,0,0,0,188,0,188,0,,,,,,,188,,,1,1518.3207057839027,X,None,nogo,None,1,,,,,1519.1212780018104,,,,,,,,,,,,,,37,001, 19,w,Sport&Psychologie,2023-01-18_09h09.46.824,00_bat_bachelor,2022.2.4,59.942832748041894,
,,,,,,,,,,,,0,0,0,0,189,0,189,0,,,,,,,189,,,1,1520.1220474559814,Y,d,go,d,1,0.4707342352485284,,,,,,,,,,,,,,,,,,37,001, 19,w,Sport&Psychologie,2023-01-18_09h09.46.824,00_bat_bachelor,2022.2.4,59.942832748041894,
,,,,,,,,,,,,0,0,0,0,190,0,190,0,,,,,,,190,,,1,1521.706640142249,X,l,go,l,1,0.3895046989200637,,,,,,,,,,,,,,,,,,37,001, 19,w,Sport&Psychologie,2023-01-18_09h09.46.824,00_bat_bachelor,2022.2.4,59.942832748041894,
,,,,,,,,,,,,0,0,0,0,191,0,191,0,,,,,,,191,,,1,1523.2077390508493,Y,d,go,d,1,0.40845353808254004,,,,,,,,,,,,,,,,,,37,001, 19,w,Sport&Psychologie,2023-01-18_09h09.46.824,00_bat_bachelor,2022.2.4,59.942832748041894,
,,,,,,,,,,,,0,0,0,0,192,0,192,0,,,,,,,192,,,1,1524.7254396483768,X,l,go,l,1,0.5068806419149041,,,,,,,,,,,,,,,,,,37,001, 19,w,Sport&Psychologie,2023-01-18_09h09.46.824,00_bat_bachelor,2022.2.4,59.942832748041894,
,,,,,,,,,,,,0,0,0,0,193,0,193,0,,,,,,,193,,,1,1526.3428512277314,Y,d,go,d,1,0.3939124543685466,,,,,,,,,,,,,,,,,,37,001, 19,w,Sport&Psychologie,2023-01-18_09h09.46.824,00_bat_bachelor,2022.2.4,59.942832748041894,
,,,,,,,,,,,,0,0,0,0,194,0,194,0,,,,,,,194,,,1,1527.8445731663378,X,l,go,l,1,0.4608826036565006,,,,,,,,,,,,,,,,,,37,001, 19,w,Sport&Psychologie,2023-01-18_09h09.46.824,00_bat_bachelor,2022.2.4,59.942832748041894,
,,,,,,,,,,,,0,0,0,0,195,0,195,0,,,,,,,195,,,1,1529.4120429517934,Y,d,go,d,1,0.4607051492203027,,,,,,,,,,,,,,,,,,37,001, 19,w,Sport&Psychologie,2023-01-18_09h09.46.824,00_bat_bachelor,2022.2.4,59.942832748041894,
,,,,,,,,,,,,0,0,0,0,196,0,196,0,,,,,,,196,,,1,1530.979697949253,Y,None,nogo,None,1,,,,,,,,,,,,,,,,,,,37,001, 19,w,Sport&Psychologie,2023-01-18_09h09.46.824,00_bat_bachelor,2022.2.4,59.942832748041894,
,,,,,,,,,,,,0,0,0,0,197,0,197,0,,,,,,,197,,,1,1532.7813867727527,X,l,go,l,1,0.37116531375795603,,,,,,,,,,,,,,,,,,37,001, 19,w,Sport&Psychologie,2023-01-18_09h09.46.824,00_bat_bachelor,2022.2.4,59.942832748041894,
,,,,,,,,,,,,0,0,0,0,198,0,198,0,,,,,,,198,,,1,1534.265525689465,Y,d,go,d,1,0.42396189423743635,,,,,,,,,,,,,,,,,,37,001, 19,w,Sport&Psychologie,2023-01-18_09h09.46.824,00_bat_bachelor,2022.2.4,59.942832748041894,
,,,,,,,,,,,,0,0,0,0,199,0,199,0,,,,,,,199,,,1,1535.8003428847296,Y,None,nogo,None,1,,,,,,,,,,,,,,,,,,,37,001, 19,w,Sport&Psychologie,2023-01-18_09h09.46.824,00_bat_bachelor,2022.2.4,59.942832748041894,
,,,,,,,,,,,,0,0,0,0,200,0,200,0,,,,,,,200,,,1,1537.6014523145277,X,l,go,l,1,0.33470036182552576,,,,,,,,,,,,,,,,,,37,001, 19,w,Sport&Psychologie,2023-01-18_09h09.46.824,00_bat_bachelor,2022.2.4,59.942832748041894,
,,,,,,,,,,,,0,0,0,0,201,0,201,0,,,,,,,201,,,1,1539.0524954897119,Y,d,go,d,1,0.4349815254099667,,,,,,,,,,,,,,,,,,37,001, 19,w,Sport&Psychologie,2023-01-18_09h09.46.824,00_bat_bachelor,2022.2.4,59.942832748041894,
,,,,,,,,,,,,0,0,0,0,202,0,202,0,,,,,,,202,,,1,1540.6039987375261,X,l,go,l,1,0.4844181074295193,,,,,,,,,,,,,,,,,,37,001, 19,w,Sport&Psychologie,2023-01-18_09h09.46.824,00_bat_bachelor,2022.2.4,59.942832748041894,
,,,,,,,,,,,,0,0,0,0,203,0,203,0,,,,,,,203,,,1,1542.2051286278293,X,None,nogo,None,1,,,,,,,,,,,,,,,,,,,37,001, 19,w,Sport&Psychologie,2023-01-18_09h09.46.824,00_bat_bachelor,2022.2.4,59.942832748041894,
,,,,,,,,,,,,0,0,0,0,204,0,204,0,,,,,,,204,,,1,1544.0063078757375,Y,d,go,d,1,0.37918276456184685,,,,,,,,,,,,,,,,,,37,001, 19,w,Sport&Psychologie,2023-01-18_09h09.46.824,00_bat_bachelor,2022.2.4,59.942832748041894,
,,,,,,,,,,,,0,0,0,0,205,0,205,0,,,,,,,205,,,1,1545.490740125766,X,l,go,l,1,0.622419010149315,,,,,,,,,,,,,,,,,,37,001, 19,w,Sport&Psychologie,2023-01-18_09h09.46.824,00_bat_bachelor,2022.2.4,59.942832748041894,
,,,,,,,,,,,,0,0,0,0,206,0,206,0,,,,,,,206,,,1,1547.225609102752,X,None,nogo,None,1,,,,,,,,,,,,,,,,,,,37,001, 19,w,Sport&Psychologie,2023-01-18_09h09.46.824,00_bat_bachelor,2022.2.4,59.942832748041894,
,,,,,,,,,,,,0,0,0,0,207,0,207,0,,,,,,,207,,,1,1549.0270142899826,Y,d,go,d,1,0.3821800963487476,,,,,,,,,,,,,,,,,,37,001, 19,w,Sport&Psychologie,2023-01-18_09h09.46.824,00_bat_bachelor,2022.2.4,59.942832748041894,
,,,,,,,,,,,,0,0,0,0,208,0,208,0,,,,,,,208,,,1,1550.5115134490188,X,l,go,l,1,0.5131395480129868,,,,,,,,,,,,,,,,,,37,001, 19,w,Sport&Psychologie,2023-01-18_09h09.46.824,00_bat_bachelor,2022.2.4,59.942832748041894,
,,,,,,,,,,,,0,0,0,0,209,0,209,0,,,,,,,209,,,1,1552.1293924221536,Y,d,go,d,1,0.4958037988981232,,,,,,,,,,,,,,,,,,37,001, 19,w,Sport&Psychologie,2023-01-18_09h09.46.824,00_bat_bachelor,2022.2.4,59.942832748041894,
,,,,,,,,,,,,0,0,0,0,210,0,210,0,,,,,,,210,,,1,1553.730340494425,X,l,go,l,1,0.4782813830533996,,,,,,,,,,,,,,,,,,37,001, 19,w,Sport&Psychologie,2023-01-18_09h09.46.824,00_bat_bachelor,2022.2.4,59.942832748041894,
,,,,,,,,,,,,0,0,0,0,211,0,211,0,,,,,,,211,,,1,1555.315127120004,X,None,nogo,None,1,,,,,1556.1158680650406,,,,,,,,,,,,,,37,001, 19,w,Sport&Psychologie,2023-01-18_09h09.46.824,00_bat_bachelor,2022.2.4,59.942832748041894,
,,,,,,,,,,,,0,0,0,0,212,0,212,0,,,,,,,212,,,1,1557.1165274586529,Y,d,go,d,1,0.3077825567452237,,,,,,,,,,,,,,,,,,37,001, 19,w,Sport&Psychologie,2023-01-18_09h09.46.824,00_bat_bachelor,2022.2.4,59.942832748041894,
,,,,,,,,,,,,0,0,0,0,213,0,213,0,,,,,,,213,,,1,1558.534325074288,X,l,go,l,1,0.6496616636868566,,,,,,,,,,,,,,,,,,37,001, 19,w,Sport&Psychologie,2023-01-18_09h09.46.824,00_bat_bachelor,2022.2.4,59.942832748041894,
,,,,,,,,,,,,0,0,0,0,214,0,214,0,,,,,,,214,,,1,1560.2853647101438,X,None,nogo,None,1,,,,,,,,,,,,,,,,,,,37,001, 19,w,Sport&Psychologie,2023-01-18_09h09.46.824,00_bat_bachelor,2022.2.4,59.942832748041894,
,,,,,,,,,,,,0,0,0,0,215,0,215,0,,,,,,,215,,,1,1562.087050624541,X,None,nogo,None,1,,,,,,,,,,,,,,,,,,,37,001, 19,w,Sport&Psychologie,2023-01-18_09h09.46.824,00_bat_bachelor,2022.2.4,59.942832748041894,
,,,,,,,,,,,,0,0,0,0,216,0,216,0,,,,,,,216,,,1,1563.8884330238216,Y,d,go,d,1,0.38465233764145523,,,,,,,,,,,,,,,,,,37,001, 19,w,Sport&Psychologie,2023-01-18_09h09.46.824,00_bat_bachelor,2022.2.4,59.942832748041894,
,,,,,,,,,,,,0,0,0,0,217,0,217,0,,,,,,,217,,,1,1565.3895324172918,X,l,go,l,1,0.38642009429167956,,,,,,,,,,,,,,,,,,37,001, 19,w,Sport&Psychologie,2023-01-18_09h09.46.824,00_bat_bachelor,2022.2.4,59.942832748041894,
,,,,,,,,,,,,0,0,0,0,218,0,218,0,,,,,,,218,,,1,1566.8906482955208,X,None,nogo,None,1,,,,,,,,,,,,,,,,,,,37,001, 19,w,Sport&Psychologie,2023-01-18_09h09.46.824,00_bat_bachelor,2022.2.4,59.942832748041894,
,,,,,,,,,,,,0,0,0,0,219,0,219,0,,,,,,,219,,,1,1568.6919841493946,Y,d,go,d,1,0.4610586034832522,,,,,,,,,,,,,,,,,,37,001, 19,w,Sport&Psychologie,2023-01-18_09h09.46.824,00_bat_bachelor,2022.2.4,59.942832748041894,
,,,,,,,,,,,,0,0,0,0,220,0,220,0,,,,,,,220,,,1,1570.2596275105607,X,l,go,l,1,0.636433064006269,,,,,,,,,,,,,,,,,,37,001, 19,w,Sport&Psychologie,2023-01-18_09h09.46.824,00_bat_bachelor,2022.2.4,59.942832748041894,
,,,,,,,,,,,,0,0,0,0,221,0,221,0,,,,,,,221,,,1,1572.0112606006442,Y,d,go,d,1,0.4210867441724986,,,,,,,,,,,,,,,,,,37,001, 19,w,Sport&Psychologie,2023-01-18_09h09.46.824,00_bat_bachelor,2022.2.4,59.942832748041894,
,,,,,,,,,,,,0,0,0,0,222,0,222,0,,,,,,,222,,,1,1573.545758280903,Y,None,nogo,None,1,,,,,,,,,,,,,,,,,,,37,001, 19,w,Sport&Psychologie,2023-01-18_09h09.46.824,00_bat_bachelor,2022.2.4,59.942832748041894,
,,,,,,,,,,,,0,0,0,0,223,0,223,0,,,,,,,223,,,1,1575.347071831813,X,l,go,l,1,0.34906399121973664,,,,,,,,,,,,,,,,,,37,001, 19,w,Sport&Psychologie,2023-01-18_09h09.46.824,00_bat_bachelor,2022.2.4,59.942832748041894,
,,,,,,,,,,,,0,0,0,0,224,0,224,0,,,,,,,224,,,1,1576.7981741585536,Y,d,go,d,1,0.4671206612838432,,,,,,,,,,,,,,,,,,37,001, 19,w,Sport&Psychologie,2023-01-18_09h09.46.824,00_bat_bachelor,2022.2.4,59.942832748041894,
,,,,,,,,,,,,0,0,0,0,225,0,225,0,,,,,,,225,,,1,1578.3659862468485,X,l,go,l,1,0.4345490407431498,,,,,,,,,,,,,,,,,,37,001, 19,w,Sport&Psychologie,2023-01-18_09h09.46.824,00_bat_bachelor,2022.2.4,59.942832748041894,
,,,,,,,,,,,,0,0,0,0,226,0,226,0,,,,,,,226,,,1,1579.9173338583205,Y,d,go,d,1,0.3869432455394417,,,,,,,,,,,,,,,,,,37,001, 19,w,Sport&Psychologie,2023-01-18_09h09.46.824,00_bat_bachelor,2022.2.4,59.942832748041894,
,,,,,,,,,,,,0,0,0,0,227,0,227,0,,,,,,,227,,,1,1581.4183144639246,Y,None,nogo,None,1,,,,,1582.218960863538,,,,,,,,,,,,,,37,001, 19,w,Sport&Psychologie,2023-01-18_09h09.46.824,00_bat_bachelor,2022.2.4,59.942832748041894,
,,,,,,,,,,,,0,0,0,0,228,0,228,0,,,,,,,228,,,1,1583.2195538330125,X,l,go,l,1,0.2844628104940057,,,,,,,,,,,,,,,,,,37,001, 19,w,Sport&Psychologie,2023-01-18_09h09.46.824,00_bat_bachelor,2022.2.4,59.942832748041894,
,,,,,,,,,,,,0,0,0,0,229,0,229,0,,,,,,,229,,,1,1584.6208573960466,Y,d,go,d,1,0.403402874013409,,,,,,,,,,,,,,,,,,37,001, 19,w,Sport&Psychologie,2023-01-18_09h09.46.824,00_bat_bachelor,2022.2.4,59.942832748041894,
,,,,,,,,,,,,0,0,0,0,230,0,230,0,,,,,,,230,,,1,1586.1388241752284,X,l,go,l,1,0.34138641925528646,,,,,,,,,,,,,,,,,,37,001, 19,w,Sport&Psychologie,2023-01-18_09h09.46.824,00_bat_bachelor,2022.2.4,59.942832748041894,
,,,,,,,,,,,,0,0,0,0,231,0,231,0,,,,,,,231,,,1,1587.5898896534927,X,None,nogo,None,1,,,,,1588.39014768973,,,,,,,,,,,,,,37,001, 19,w,Sport&Psychologie,2023-01-18_09h09.46.824,00_bat_bachelor,2022.2.4,59.942832748041894,
,,,,,,,,,,,,0,0,0,0,232,0,232,0,,,,,,,232,,,1,1589.391064537689,X,None,nogo,None,1,,,,,,,,,,,,,,,,,,,37,001, 19,w,Sport&Psychologie,2023-01-18_09h09.46.824,00_bat_bachelor,2022.2.4,59.942832748041894,
,,,,,,,,,,,,0,0,0,0,233,0,233,0,,,,,,,233,,,1,1591.1922665735474,Y,d,go,d,1,0.3284055769909173,,,,,,,,,,,,,,,,,,37,001, 19,w,Sport&Psychologie,2023-01-18_09h09.46.824,00_bat_bachelor,2022.2.4,59.942832748041894,
,,,,,,,,,,,,0,0,0,0,234,0,234,0,,,,,,,234,,,1,1592.6266944840318,X,l,go,l,1,0.3496162333758548,,,,,,,,,,,,,,,,,,37,001, 19,w,Sport&Psychologie,2023-01-18_09h09.46.824,00_bat_bachelor,2022.2.4,59.942832748041894,
,,,,,,,,,,,,0,0,0,0,235,0,235,0,,,,,,,235,,,1,1594.0780503865099,Y,d,go,d,1,0.2917088675312698,,,,,,,,,,,,,,,,,,37,001, 19,w,Sport&Psychologie,2023-01-18_09h09.46.824,00_bat_bachelor,2022.2.4,59.942832748041894,
,,,,,,,,,,,,0,0,0,0,236,0,236,0,,,,,,,236,,,1,1595.4788138285512,X,l,go,l,1,0.32997454598080367,,,,,,,,,,,,,,,,,,37,001, 19,w,Sport&Psychologie,2023-01-18_09h09.46.824,00_bat_bachelor,2022.2.4,59.942832748041894,
,,,,,,,,,,,,0,0,0,0,237,0,237,0,,,,,,,237,,,1,1596.9132887694286,X,None,nogo,None,1,,,,,,,,,,,,,,,,,,,37,001, 19,w,Sport&Psychologie,2023-01-18_09h09.46.824,00_bat_bachelor,2022.2.4,59.942832748041894,
,,,,,,,,,,,,0,0,0,0,238,0,238,0,,,,,,,238,,,1,1598.7146949262824,Y,d,go,d,1,0.42118613806087524,,,,,,,,,,,,,,,,,,37,001, 19,w,Sport&Psychologie,2023-01-18_09h09.46.824,00_bat_bachelor,2022.2.4,59.942832748041894,
,,,,,,,,,,,,0,0,0,0,239,0,239,0,,,,,,,239,,,1,1600.2493433943018,X,l,go,l,1,0.5828660597326234,,,,,,,,,,,,,,,,,,37,001, 19,w,Sport&Psychologie,2023-01-18_09h09.46.824,00_bat_bachelor,2022.2.4,59.942832748041894,
,,,,,,,,,,,,0,0,0,0,240,0,240,0,,,,,,,240,,,1,1601.9338090018136,Y,d,go,d,1,0.5305485093267635,,,,,,,,,,,,,,,,,,37,001, 19,w,Sport&Psychologie,2023-01-18_09h09.46.824,00_bat_bachelor,2022.2.4,59.942832748041894,
,,,,,,,,,,,,0,0,0,0,241,0,241,0,,,,,,,241,,,1,1603.5683832396753,X,l,go,l,1,0.41563123161904514,,,,,,,,,,,,,,,,,,37,001, 19,w,Sport&Psychologie,2023-01-18_09h09.46.824,00_bat_bachelor,2022.2.4,59.942832748041894,
,,,,,,,,,,,,0,0,0,0,242,0,242,0,,,,,,,242,,,1,1605.0864915944403,X,None,nogo,None,1,,,,,,,,,,,,,,,,,,,37,001, 19,w,Sport&Psychologie,2023-01-18_09h09.46.824,00_bat_bachelor,2022.2.4,59.942832748041894,
,,,,,,,,,,,,0,0,0,0,243,0,243,0,,,,,,,243,,,1,1606.8874807818793,Y,d,go,d,1,0.3447488418314606,,,,,,,,,,,,,,,,,,37,001, 19,w,Sport&Psychologie,2023-01-18_09h09.46.824,00_bat_bachelor,2022.2.4,59.942832748041894,
,,,,,,,,,,,,0,0,0,0,244,0,244,0,,,,,,,244,,,1,1608.3386883207131,X,l,go,l,1,0.3808394910302013,,,,,,,,,,,,,,,,,,37,001, 19,w,Sport&Psychologie,2023-01-18_09h09.46.824,00_bat_bachelor,2022.2.4,59.942832748041894,
,,,,,,,,,,,,0,0,0,0,245,0,245,0,,,,,,,245,,,1,1609.823449782678,X,None,nogo,None,1,,,,,,,,,,,,,,,,,,,37,001, 19,w,Sport&Psychologie,2023-01-18_09h09.46.824,00_bat_bachelor,2022.2.4,59.942832748041894,
,,,,,,,,,,,,0,0,0,0,246,0,246,0,,,,,,,246,,,1,1611.625357272569,X,None,nogo,None,1,,,,,1612.4256371270167,,,,,,,,,,,,,,37,001, 19,w,Sport&Psychologie,2023-01-18_09h09.46.824,00_bat_bachelor,2022.2.4,59.942832748041894,
,,,,,,,,,,,,0,0,0,0,247,0,247,0,,,,,,,247,,,1,1613.4265205205884,Y,d,go,d,1,0.25350331026129425,,,,,,,,,,,,,,,,,,37,001, 19,w,Sport&Psychologie,2023-01-18_09h09.46.824,00_bat_bachelor,2022.2.4,59.942832748041894,
,,,,,,,,,,,,0,0,0,0,248,0,248,0,,,,,,,248,,,1,1614.7941290695453,X,l,go,l,1,0.5661901889834553,,,,,,,,,,,,,,,,,,37,001, 19,w,Sport&Psychologie,2023-01-18_09h09.46.824,00_bat_bachelor,2022.2.4,59.942832748041894,
,,,,,,,,,,,,0,0,0,0,249,0,249,0,,,,,,,249,,,1,1616.4621481396025,X,None,nogo,None,1,,,,,1617.2833666505758,,,,,,,,,,,,,,37,001, 19,w,Sport&Psychologie,2023-01-18_09h09.46.824,00_bat_bachelor,2022.2.4,59.942832748041894,
,,,,,,,,,,,,1,0,1,0,0,0,0,0,,,,,,,0,,,0.2,1625.7521344232373,X,l,go,l,1,0.3451013264711946,,,,,,,,,1617.2833666505758,space,8.240663558943197,,,,,,,37,001, 19,w,Sport&Psychologie,2023-01-18_09h09.46.824,00_bat_bachelor,2022.2.4,59.942832748041894,
,,,,,,,,,,,,1,0,1,0,1,0,1,0,,,,,,,1,,,0.2,1626.4026790775824,Y,d,go,d,1,0.3330276353517547,,,,,,,,,,,,,,,,,,37,001, 19,w,Sport&Psychologie,2023-01-18_09h09.46.824,00_bat_bachelor,2022.2.4,59.942832748041894,
,,,,,,,,,,,,1,0,1,0,2,0,2,0,,,,,,,2,,,0.2,1627.0364552551182,X,l,go,l,1,0.5476946828421205,,,,,,,,,,,,,,,,,,37,001, 19,w,Sport&Psychologie,2023-01-18_09h09.46.824,00_bat_bachelor,2022.2.4,59.942832748041894,
,,,,,,,,,,,,1,0,1,0,3,0,3,0,,,,,,,3,,,0.2,1627.8872131456155,Y,d,go,d,1,0.38532239792402834,,,,,,,,,,,,,,,,,,37,001, 19,w,Sport&Psychologie,2023-01-18_09h09.46.824,00_bat_bachelor,2022.2.4,59.942832748041894,
,,,,,,,,,,,,1,0,1,0,4,0,4,0,,,,,,,4,,,0.2,1628.587621533312,X,l,go,l,1,0.43637400958687067,,,,,,,,,,,,,,,,,,37,001, 19,w,Sport&Psychologie,2023-01-18_09h09.46.824,00_bat_bachelor,2022.2.4,59.942832748041894,
,,,,,,,,,,,,1,0,1,0,5,0,5,0,,,,,,,5,,,0.2,1629.3380066240206,X,None,nogo,None,1,,,,,1630.1389705993934,,,,,,,,,,,,,,37,001, 19,w,Sport&Psychologie,2023-01-18_09h09.46.824,00_bat_bachelor,2022.2.4,59.942832748041894,
,,,,,,,,,,,,1,0,1,0,6,0,6,0,,,,,,,6,,,0.2,1630.3390432295855,Y,d,go,d,1,0.36553574074059725,,,,,,,,,,,,,,,,,,37,001, 19,w,Sport&Psychologie,2023-01-18_09h09.46.824,00_bat_bachelor,2022.2.4,59.942832748041894,
,,,,,,,,,,,,1,0,1,0,7,0,7,0,,,,,,,7,,,0.2,1631.0063752697315,X,l,go,l,1,0.4183803212363273,,,,,,,,,,,,,,,,,,37,001, 19,w,Sport&Psychologie,2023-01-18_09h09.46.824,00_bat_bachelor,2022.2.4,59.942832748041894,
,,,,,,,,,,,,1,0,1,0,8,0,8,0,,,,,,,8,,,0.2,1631.7402721259277,X,None,nogo,None,1,,,,,1632.5409539196407,,,,,,,,,,,,,,37,001, 19,w,Sport&Psychologie,2023-01-18_09h09.46.824,00_bat_bachelor,2022.2.4,59.942832748041894,
,,,,,,,,,,,,1,0,1,0,9,0,9,0,,,,,,,9,,,0.2,1632.7407395197079,Y,d,go,d,1,0.3644065292319283,,,,,,,,,,,,,,,,,,37,001, 19,w,Sport&Psychologie,2023-01-18_09h09.46.824,00_bat_bachelor,2022.2.4,59.942832748041894,
,,,,,,,,,,,,1,0,1,0,10,0,10,0,,,,,,,10,,,0.2,1633.4079028326087,X,l,go,l,1,0.4645242989063263,,,,,,,,,,,,,,,,,,37,001, 19,w,Sport&Psychologie,2023-01-18_09h09.46.824,00_bat_bachelor,2022.2.4,59.942832748041894,
,,,,,,,,,,,,1,0,1,0,11,0,11,0,,,,,,,11,,,0.2,1634.1753094907617,Y,d,go,d,1,0.48157301789615303,,,,,,,,,,,,,,,,,,37,001, 19,w,Sport&Psychologie,2023-01-18_09h09.46.824,00_bat_bachelor,2022.2.4,59.942832748041894,
,,,,,,,,,,,,1,0,1,0,12,0,12,0,,,,,,,12,,,0.2,1634.959268383449,X,l,go,l,1,0.4178261396009475,,,,,,,,,,,,,,,,,,37,001, 19,w,Sport&Psychologie,2023-01-18_09h09.46.824,00_bat_bachelor,2022.2.4,59.942832748041894,
,,,,,,,,,,,,1,0,1,0,13,0,13,0,,,,,,,13,,,0.2,1635.6927836642135,X,None,nogo,None,1,,,,,1636.4936671546893,,,,,,,,,,,,,,37,001, 19,w,Sport&Psychologie,2023-01-18_09h09.46.824,00_bat_bachelor,2022.2.4,59.942832748041894,
,,,,,,,,,,,,1,0,1,0,14,0,14,0,,,,,,,14,,,0.2,1636.6935652395478,Y,d,go,d,1,0.23403519846033305,,,,,,,,,,,,,,,,,,37,001, 19,w,Sport&Psychologie,2023-01-18_09h09.46.824,00_bat_bachelor,2022.2.4,59.942832748041894,
,,,,,,,,,,,,1,0,1,0,15,0,15,0,,,,,,,15,,,0.2,1637.24438582093,X,l,go,l,1,0.46802926692180336,,,,,,,,,,,,,,,,,,37,001, 19,w,Sport&Psychologie,2023-01-18_09h09.46.824,00_bat_bachelor,2022.2.4,59.942832748041894,
,,,,,,,,,,,,1,0,1,0,16,0,16,0,,,,,,,16,,,0.2,1638.0281153803226,X,None,nogo,None,1,,,,,,,,,,,,,,,,,,,37,001, 19,w,Sport&Psychologie,2023-01-18_09h09.46.824,00_bat_bachelor,2022.2.4,59.942832748041894,
,,,,,,,,,,,,1,0,1,0,17,0,17,0,,,,,,,17,,,0.2,1639.0290312586585,Y,d,go,d,1,0.3644642261788249,,,,,,,,,,,,,,,,,,37,001, 19,w,Sport&Psychologie,2023-01-18_09h09.46.824,00_bat_bachelor,2022.2.4,59.942832748041894,
,,,,,,,,,,,,1,0,1,0,18,0,18,0,,,,,,,18,,,0.2,1639.6958231778117,X,l,go,l,1,0.3199716417584568,,,,,,,,,,,,,,,,,,37,001, 19,w,Sport&Psychologie,2023-01-18_09h09.46.824,00_bat_bachelor,2022.2.4,59.942832748041894,
,,,,,,,,,,,,1,0,1,0,19,0,19,0,,,,,,,19,,,0.2,1640.3297254159115,Y,d,go,d,1,0.47048793244175613,,,,,,,,,,,,,,,,,,37,001, 19,w,Sport&Psychologie,2023-01-18_09h09.46.824,00_bat_bachelor,2022.2.4,59.942832748041894,
,,,,,,,,,,,,1,0,1,0,20,0,20,0,,,,,,,20,,,0.2,1641.1135863692034,X,l,go,l,1,0.4385863720672205,,,,,,,,,,,,,,,,,,37,001, 19,w,Sport&Psychologie,2023-01-18_09h09.46.824,00_bat_bachelor,2022.2.4,59.942832748041894,
,,,,,,,,,,,,1,0,1,0,21,0,21,0,,,,,,,21,,,0.2,1641.8641969143646,Y,d,go,d,1,0.4086353563470766,,,,,,,,,,,,,,,,,,37,001, 19,w,Sport&Psychologie,2023-01-18_09h09.46.824,00_bat_bachelor,2022.2.4,59.942832748041894,
,,,,,,,,,,,,1,0,1,0,22,0,22,0,,,,,,,22,,,0.2,1642.5816113543697,X,l,go,l,1,0.47516235429793596,,,,,,,,,,,,,,,,,,37,001, 19,w,Sport&Psychologie,2023-01-18_09h09.46.824,00_bat_bachelor,2022.2.4,59.942832748041894,
,,,,,,,,,,,,1,0,1,0,23,0,23,0,,,,,,,23,,,0.2,1643.3653355805436,X,None,nogo,None,1,,,,,,,,,,,,,,,,,,,37,001, 19,w,Sport&Psychologie,2023-01-18_09h09.46.824,00_bat_bachelor,2022.2.4,59.942832748041894,
,,,,,,,,,,,,1,0,1,0,24,0,24,0,,,,,,,24,,,0.2,1644.3662548527354,Y,d,go,d,1,0.09828253695741296,,,,,,,,,,,,,,,,,,37,001, 19,w,Sport&Psychologie,2023-01-18_09h09.46.824,00_bat_bachelor,2022.2.4,59.942832748041894,
,,,,,,,,,,,,1,0,1,0,25,0,25,0,,,,,,,25,,,0.2,1644.766474779928,X,l,go,l,1,0.4816258662613109,,,,,,,,,,,,,,,,,,37,001, 19,w,Sport&Psychologie,2023-01-18_09h09.46.824,00_bat_bachelor,2022.2.4,59.942832748041894,
,,,,,,,,,,,,1,0,1,0,26,0,26,0,,,,,,,26,,,0.2,1645.5503604605328,Y,d,go,d,1,0.5630144330207258,,,,,,,,,,,,,,,,,,37,001, 19,w,Sport&Psychologie,2023-01-18_09h09.46.824,00_bat_bachelor,2022.2.4,59.942832748041894,
,,,,,,,,,,,,1,0,1,0,27,0,27,0,,,,,,,27,,,0.2,1646.4179697368527,X,l,go,l,1,0.527113844291307,,,,,,,,,,,,,,,,,,37,001, 19,w,Sport&Psychologie,2023-01-18_09h09.46.824,00_bat_bachelor,2022.2.4,59.942832748041894,
,,,,,,,,,,,,1,0,1,0,28,0,28,0,,,,,,,28,,,0.2,1647.2519242415437,Y,d,go,d,1,0.42993958841543645,,,,,,,,,,,,,,,,,,37,001, 19,w,Sport&Psychologie,2023-01-18_09h09.46.824,00_bat_bachelor,2022.2.4,59.942832748041894,
,,,,,,,,,,,,1,0,1,0,29,0,29,0,,,,,,,29,,,0.2,1647.985530673759,X,l,go,l,1,0.4950881628319621,,,,,,,,,,,,,,,,,,37,001, 19,w,Sport&Psychologie,2023-01-18_09h09.46.824,00_bat_bachelor,2022.2.4,59.942832748041894,
,,,,,,,,,,,,1,0,1,0,30,0,30,0,,,,,,,30,,,0.2,1648.7861358613009,X,None,nogo,d,0,0.6235627671703696,,,,,,,,,,,,,,,,,,37,001, 19,w,Sport&Psychologie,2023-01-18_09h09.46.824,00_bat_bachelor,2022.2.4,59.942832748041894,
,,,,,,,,,,,,1,0,1,0,31,0,31,0,,,,,,,31,,,0.2,1649.7201611053897,X,None,nogo,None,1,,,,,,,,,,,,,,,,,,,37,001, 19,w,Sport&Psychologie,2023-01-18_09h09.46.824,00_bat_bachelor,2022.2.4,59.942832748041894,
,,,,,,,,,,,,1,0,1,0,32,0,32,0,,,,,,,32,,,0.2,1650.7211700746557,Y,d,go,d,1,0.27071978675667197,,,,,,,,,,,,,,,,,,37,001, 19,w,Sport&Psychologie,2023-01-18_09h09.46.824,00_bat_bachelor,2022.2.4,59.942832748041894,
,,,,,,,,,,,,1,0,1,0,33,0,33,0,,,,,,,33,,,0.2,1651.3046965795802,X,l,go,l,1,0.47189787111710757,,,,,,,,,,,,,,,,,,37,001, 19,w,Sport&Psychologie,2023-01-18_09h09.46.824,00_bat_bachelor,2022.2.4,59.942832748041894,
,,,,,,,,,,,,1,0,1,0,34,0,34,0,,,,,,,34,,,0.2,1652.0888920781435,X,None,nogo,l,0,0.5349480223376304,,,,,,,,,,,,,,,,,,37,001, 19,w,Sport&Psychologie,2023-01-18_09h09.46.824,00_bat_bachelor,2022.2.4,59.942832748041894,
,,,,,,,,,,,,1,0,1,0,35,0,35,0,,,,,,,35,,,0.2,1652.9395602717996,Y,d,go,None,0,,,,,,,,,,,,,,,,,,,37,001, 19,w,Sport&Psychologie,2023-01-18_09h09.46.824,00_bat_bachelor,2022.2.4,59.942832748041894,
,,,,,,,,,,,,1,0,1,0,36,0,36,0,,,,,,,36,,,0.2,1653.9402216047747,X,l,go,l,1,0.572100974037312,,,,,,,,,,,,,,,,,,37,001, 19,w,Sport&Psychologie,2023-01-18_09h09.46.824,00_bat_bachelor,2022.2.4,59.942832748041894,
,,,,,,,,,,,,1,0,1,0,37,0,37,0,,,,,,,37,,,0.2,1654.8243962064153,Y,d,go,d,1,0.5680127335945144,,,,,,,,,,,,,,,,,,37,001, 19,w,Sport&Psychologie,2023-01-18_09h09.46.824,00_bat_bachelor,2022.2.4,59.942832748041894,
,,,,,,,,,,,,1,0,1,0,38,0,38,0,,,,,,,38,,,0.2,1655.708105353755,X,l,go,l,1,0.5478638948407024,,,,,,,,,,,,,,,,,,37,001, 19,w,Sport&Psychologie,2023-01-18_09h09.46.824,00_bat_bachelor,2022.2.4,59.942832748041894,
,,,,,,,,,,,,1,0,1,0,39,0,39,0,,,,,,,39,,,0.2,1656.559089668328,Y,d,go,d,1,0.43343970784917474,,,,,,,,,,,,,,,,,,37,001, 19,w,Sport&Psychologie,2023-01-18_09h09.46.824,00_bat_bachelor,2022.2.4,59.942832748041894,
,,,,,,,,,,,,1,0,1,0,40,0,40,0,,,,,,,40,,,0.2,1657.2928008277668,Y,None,nogo,l,0,0.40313184377737343,,,,,,,,,,,,,,,,,,37,001, 19,w,Sport&Psychologie,2023-01-18_09h09.46.824,00_bat_bachelor,2022.2.4,59.942832748041894,
,,,,,,,,,,,,1,0,1,0,41,0,41,0,,,,,,,41,,,0.2,1658.0100363588426,X,l,go,l,1,0.5023953107884154,,,,,,,,,,,,,,,,,,37,001, 19,w,Sport&Psychologie,2023-01-18_09h09.46.824,00_bat_bachelor,2022.2.4,59.942832748041894,
,,,,,,,,,,,,1,0,1,0,42,0,42,0,,,,,,,42,,,0.2,1658.827320811106,Y,d,go,d,1,0.5013853718992323,,,,,,,,,,,,,,,,,,37,001, 19,w,Sport&Psychologie,2023-01-18_09h09.46.824,00_bat_bachelor,2022.2.4,59.942832748041894,
,,,,,,,,,,,,1,0,1,0,43,0,43,0,,,,,,,43,,,0.2,1659.6443798088003,X,l,go,None,0,,,,,,,,,,,,,,,,,,,37,001, 19,w,Sport&Psychologie,2023-01-18_09h09.46.824,00_bat_bachelor,2022.2.4,59.942832748041894,
,,,,,,,,,,,,1,0,1,0,44,0,44,0,,,,,,,44,,,0.2,1660.6451366569381,X,None,nogo,None,1,,,,,,,,,,,,,,,,,,,37,001, 19,w,Sport&Psychologie,2023-01-18_09h09.46.824,00_bat_bachelor,2022.2.4,59.942832748041894,
,,,,,,,,,,,,1,0,1,0,45,0,45,0,,,,,,,45,,,0.2,1661.6461912018713,Y,d,go,d,1,0.24260149733163416,,,,,,,,,,,,,,,,,,37,001, 19,w,Sport&Psychologie,2023-01-18_09h09.46.824,00_bat_bachelor,2022.2.4,59.942832748041894,
,,,,,,,,,,,,1,0,1,0,46,0,46,0,,,,,,,46,,,0.2,1662.1965269350912,X,l,go,None,0,,,,,1662.9969260621583,,,,,,,,,,,,,,37,001, 19,w,Sport&Psychologie,2023-01-18_09h09.46.824,00_bat_bachelor,2022.2.4,59.942832748041894,
,,,,,,,,,,,,1,0,1,0,47,0,47,0,,,,,,,47,,,0.2,1663.1971039044438,Y,d,go,d,1,0.49951434251852334,,,,,,,,,,,,,,,,,,37,001, 19,w,Sport&Psychologie,2023-01-18_09h09.46.824,00_bat_bachelor,2022.2.4,59.942832748041894,
,,,,,,,,,,,,1,0,1,0,48,0,48,0,,,,,,,48,,,0.2,1663.998022304033,X,l,go,l,1,0.5464195319218561,,,,,,,,,,,,,,,,,,37,001, 19,w,Sport&Psychologie,2023-01-18_09h09.46.824,00_bat_bachelor,2022.2.4,59.942832748041894,
,,,,,,,,,,,,1,0,1,0,49,0,49,0,,,,,,,49,,,0.2,1664.8486129218945,Y,d,go,d,1,0.4484797006007284,,,,,,,,,,,,,,,,,,37,001, 19,w,Sport&Psychologie,2023-01-18_09h09.46.824,00_bat_bachelor,2022.2.4,59.942832748041894,
,,,,,,,,,,,,1,0,1,0,50,0,50,0,,,,,,,50,,,0.2,1665.599247224629,X,l,go,l,1,0.5299536004895344,,,,,,,,,,,,,,,,,,37,001, 19,w,Sport&Psychologie,2023-01-18_09h09.46.824,00_bat_bachelor,2022.2.4,59.942832748041894,
,,,,,,,,,,,,1,0,1,0,51,0,51,0,,,,,,,51,,,0.2,1666.4331062142737,Y,d,go,d,1,0.4964161622337997,,,,,,,,,,,,,,,,,,37,001, 19,w,Sport&Psychologie,2023-01-18_09h09.46.824,00_bat_bachelor,2022.2.4,59.942832748041894,
,,,,,,,,,,,,1,0,1,0,52,0,52,0,,,,,,,52,,,0.2,1667.2337230382254,Y,None,nogo,None,1,,,,,,,,,,,,,,,,,,,37,001, 19,w,Sport&Psychologie,2023-01-18_09h09.46.824,00_bat_bachelor,2022.2.4,59.942832748041894,
,,,,,,,,,,,,1,0,1,0,53,0,53,0,,,,,,,53,,,0.2,1668.2345792802516,X,l,go,l,1,0.32563224504701793,,,,,,,,,,,,,,,,,,37,001, 19,w,Sport&Psychologie,2023-01-18_09h09.46.824,00_bat_bachelor,2022.2.4,59.942832748041894,
,,,,,,,,,,,,1,0,1,0,54,0,54,0,,,,,,,54,,,0.2,1668.8680776397232,Y,d,go,d,1,0.5236733611673117,,,,,,,,,,,,,,,,,,37,001, 19,w,Sport&Psychologie,2023-01-18_09h09.46.824,00_bat_bachelor,2022.2.4,59.942832748041894,
,,,,,,,,,,,,1,0,1,0,55,0,55,0,,,,,,,55,,,0.2,1669.7030042653205,X,l,go,l,1,0.47306877956725657,,,,,,,,,,,,,,,,,,37,001, 19,w,Sport&Psychologie,2023-01-18_09h09.46.824,00_bat_bachelor,2022.2.4,59.942832748041894,
,,,,,,,,,,,,1,0,1,0,56,0,56,0,,,,,,,56,,,0.2,1670.5204142931616,X,None,nogo,None,1,,,,,1671.3209346323274,,,,,,,,,,,,,,37,001, 19,w,Sport&Psychologie,2023-01-18_09h09.46.824,00_bat_bachelor,2022.2.4,59.942832748041894,
,,,,,,,,,,,,1,0,1,0,57,0,57,0,,,,,,,57,,,0.2,1671.520994171733,Y,d,go,d,1,0.3348176950821653,,,,,,,,,,,,,,,,,,37,001, 19,w,Sport&Psychologie,2023-01-18_09h09.46.824,00_bat_bachelor,2022.2.4,59.942832748041894,
,,,,,,,,,,,,1,0,1,0,58,0,58,0,,,,,,,58,,,0.2,1672.1882617269875,X,l,go,l,1,0.48355653206817806,,,,,,,,,,,,,,,,,,37,001, 19,w,Sport&Psychologie,2023-01-18_09h09.46.824,00_bat_bachelor,2022.2.4,59.942832748041894,
,,,,,,,,,,,,1,0,1,0,59,0,59,0,,,,,,,59,,,0.2,1673.005326542887,Y,d,go,None,0,,,,,1673.806321063661,,,,,,,,,,,,,,37,001, 19,w,Sport&Psychologie,2023-01-18_09h09.46.824,00_bat_bachelor,2022.2.4,59.942832748041894,
,,,,,,,,,,,,1,0,1,0,60,0,60,0,,,,,,,60,,,0.2,1674.0063141788123,Y,None,nogo,None,1,,,,,1674.806899487623,,,,,,,,,,,,,,37,001, 19,w,Sport&Psychologie,2023-01-18_09h09.46.824,00_bat_bachelor,2022.2.4,59.942832748041894,
,,,,,,,,,,,,1,0,1,0,61,0,61,0,,,,,,,61,,,0.2,1675.0071311481297,X,l,go,l,1,0.24105192231945693,,,,,,,,,,,,,,,,,,37,001, 19,w,Sport&Psychologie,2023-01-18_09h09.46.824,00_bat_bachelor,2022.2.4,59.942832748041894,
,,,,,,,,,,,,1,0,1,0,62,0,62,0,,,,,,,62,,,0.2,1675.5908961984096,Y,d,go,d,1,0.4736922944430262,,,,,,,,,,,,,,,,,,37,001, 19,w,Sport&Psychologie,2023-01-18_09h09.46.824,00_bat_bachelor,2022.2.4,59.942832748041894,
,,,,,,,,,,,,1,0,1,0,63,0,63,0,,,,,,,63,,,0.2,1676.3742606671294,X,l,go,l,1,0.5216820893110707,,,,,,,,,,,,,,,,,,37,001, 19,w,Sport&Psychologie,2023-01-18_09h09.46.824,00_bat_bachelor,2022.2.4,59.942832748041894,
,,,,,,,,,,,,1,0,1,0,64,0,64,0,,,,,,,64,,,0.2,1677.2250428000698,X,None,nogo,None,1,,,,,1678.0257129572565,,,,,,,,,,,,,,37,001, 19,w,Sport&Psychologie,2023-01-18_09h09.46.824,00_bat_bachelor,2022.2.4,59.942832748041894,
,,,,,,,,,,,,1,0,1,0,65,0,65,0,,,,,,,65,,,0.2,1678.2256381936604,Y,d,go,d,1,0.3336656956234947,,,,,,,,,,,,,,,,,,37,001, 19,w,Sport&Psychologie,2023-01-18_09h09.46.824,00_bat_bachelor,2022.2.4,59.942832748041894,
,,,,,,,,,,,,1,0,1,0,66,0,66,0,,,,,,,66,,,0.2,1678.876181878266,X,l,go,l,1,0.5000660999212414,,,,,,,,,,,,,,,,,,37,001, 19,w,Sport&Psychologie,2023-01-18_09h09.46.824,00_bat_bachelor,2022.2.4,59.942832748041894,
,,,,,,,,,,,,1,0,1,0,67,0,67,0,,,,,,,67,,,0.2,1679.6768316718517,X,None,nogo,None,1,,,,,1680.4780618288787,,,,,,,,,,,,,,37,001, 19,w,Sport&Psychologie,2023-01-18_09h09.46.824,00_bat_bachelor,2022.2.4,59.942832748041894,
,,,,,,,,,,,,1,0,1,0,68,0,68,0,,,,,,,68,,,0.2,1680.677833853173,Y,d,go,d,1,0.23474065272603184,,,,,,,,,,,,,,,,,,37,001, 19,w,Sport&Psychologie,2023-01-18_09h09.46.824,00_bat_bachelor,2022.2.4,59.942832748041894,
,,,,,,,,,,,,1,0,1,0,69,0,69,0,,,,,,,69,,,0.2,1681.2279664350208,X,l,go,l,1,0.5314832967706025,,,,,,,,,,,,,,,,,,37,001, 19,w,Sport&Psychologie,2023-01-18_09h09.46.824,00_bat_bachelor,2022.2.4,59.942832748041894,
,,,,,,,,,,,,1,0,1,0,70,0,70,0,,,,,,,70,,,0.2,1682.0788242042763,X,None,nogo,None,1,,,,,1682.8794890281279,,,,,,,,,,,,,,37,001, 19,w,Sport&Psychologie,2023-01-18_09h09.46.824,00_bat_bachelor,2022.2.4,59.942832748041894,
,,,,,,,,,,,,1,0,1,0,71,0,71,0,,,,,,,71,,,0.2,1683.0794263858115,Y,d,go,d,1,0.15266651066485792,,,,,,,,,,,,,,,,,,37,001, 19,w,Sport&Psychologie,2023-01-18_09h09.46.824,00_bat_bachelor,2022.2.4,59.942832748041894,
,,,,,,,,,,,,1,0,1,0,72,0,72,0,,,,,,,72,,,0.2,1683.5465679775225,X,l,go,l,1,0.5175036671571434,,,,,,,,,,,,,,,,,,37,001, 19,w,Sport&Psychologie,2023-01-18_09h09.46.824,00_bat_bachelor,2022.2.4,59.942832748041894,
,,,,,,,,,,,,1,0,1,0,73,0,73,0,,,,,,,73,,,0.2,1684.3638887932757,Y,d,go,d,1,0.4676961760269478,,,,,,,,,,,,,,,,,,37,001, 19,w,Sport&Psychologie,2023-01-18_09h09.46.824,00_bat_bachelor,2022.2.4,59.942832748041894,
,,,,,,,,,,,,1,0,1,0,74,0,74,0,,,,,,,74,,,0.2,1685.1476173830451,Y,None,nogo,None,1,,,,,1685.9484228129731,,,,,,,,,,,,,,37,001, 19,w,Sport&Psychologie,2023-01-18_09h09.46.824,00_bat_bachelor,2022.2.4,59.942832748041894,
,,,,,,,,,,,,1,0,1,0,75,0,75,0,,,,,,,75,,,0.2,1686.1484110796591,X,l,go,l,1,0.1867154638748616,,,,,,,,,,,,,,,,,,37,001, 19,w,Sport&Psychologie,2023-01-18_09h09.46.824,00_bat_bachelor,2022.2.4,59.942832748041894,
,,,,,,,,,,,,1,0,1,0,76,0,76,0,,,,,,,76,,,0.2,1686.6654328895966,Y,d,go,d,1,0.4381723116384819,,,,,,,,,,,,,,,,,,37,001, 19,w,Sport&Psychologie,2023-01-18_09h09.46.824,00_bat_bachelor,2022.2.4,59.942832748041894,
,,,,,,,,,,,,1,0,1,0,77,0,77,0,,,,,,,77,,,0.2,1687.4326490024105,X,l,go,l,1,0.6154163469327614,,,,,,,,,,,,,,,,,,37,001, 19,w,Sport&Psychologie,2023-01-18_09h09.46.824,00_bat_bachelor,2022.2.4,59.942832748041894,
,,,,,,,,,,,,1,0,1,0,78,0,78,0,,,,,,,78,,,0.2,1688.3498151032254,Y,d,go,d,1,0.4179861396551132,,,,,,,,,,,,,,,,,,37,001, 19,w,Sport&Psychologie,2023-01-18_09h09.46.824,00_bat_bachelor,2022.2.4,59.942832748041894,
,,,,,,,,,,,,1,0,1,0,79,0,79,0,,,,,,,79,,,0.2,1689.0837483231444,Y,None,nogo,None,1,,,,,1689.8844902379205,,,,,,,,,,,,,,37,001, 19,w,Sport&Psychologie,2023-01-18_09h09.46.824,00_bat_bachelor,2022.2.4,59.942832748041894,
,,,,,,,,,,,,1,0,1,0,80,0,80,0,,,,,,,80,,,0.2,1690.0844852924347,X,l,go,l,1,0.26782233361154795,,,,,,,,,,,,,,,,,,37,001, 19,w,Sport&Psychologie,2023-01-18_09h09.46.824,00_bat_bachelor,2022.2.4,59.942832748041894,
,,,,,,,,,,,,1,0,1,0,81,0,81,0,,,,,,,81,,,0.2,1690.6683119185036,Y,d,go,d,1,0.4684200545307249,,,,,,,,,,,,,,,,,,37,001, 19,w,Sport&Psychologie,2023-01-18_09h09.46.824,00_bat_bachelor,2022.2.4,59.942832748041894,
,,,,,,,,,,,,1,0,1,0,82,0,82,0,,,,,,,82,,,0.2,1691.4521374778124,X,l,go,l,1,0.468288175878115,,,,,,,,,,,,,,,,,,37,001, 19,w,Sport&Psychologie,2023-01-18_09h09.46.824,00_bat_bachelor,2022.2.4,59.942832748041894,
,,,,,,,,,,,,1,0,1,0,83,0,83,0,,,,,,,83,,,0.2,1692.23617685528,Y,d,go,d,1,0.3727434949250892,,,,,,,,,,,,,,,,,,37,001, 19,w,Sport&Psychologie,2023-01-18_09h09.46.824,00_bat_bachelor,2022.2.4,59.942832748041894,
,,,,,,,,,,,,1,0,1,0,84,0,84,0,,,,,,,84,,,0.2,1692.9197387056192,X,l,go,l,1,0.45699509035330266,,,,,,,,,,,,,,,,,,37,001, 19,w,Sport&Psychologie,2023-01-18_09h09.46.824,00_bat_bachelor,2022.2.4,59.942832748041894,
,,,,,,,,,,,,1,0,1,0,85,0,85,0,,,,,,,85,,,0.2,1693.6869698488154,Y,d,go,d,1,0.4249092877143994,,,,,,,,,,,,,,,,,,37,001, 19,w,Sport&Psychologie,2023-01-18_09h09.46.824,00_bat_bachelor,2022.2.4,59.942832748041894,
,,,,,,,,,,,,1,0,1,0,86,0,86,0,,,,,,,86,,,0.2,1694.42105918983,X,l,go,l,1,0.5401131106773391,,,,,,,,,,,,,,,,,,37,001, 19,w,Sport&Psychologie,2023-01-18_09h09.46.824,00_bat_bachelor,2022.2.4,59.942832748041894,
,,,,,,,,,,,,1,0,1,0,87,0,87,0,,,,,,,87,,,0.2,1695.2715925956145,X,None,nogo,d,0,0.40807438688352704,,,,,,,,,,,,,,,,,,37,001, 19,w,Sport&Psychologie,2023-01-18_09h09.46.824,00_bat_bachelor,2022.2.4,59.942832748041894,
,,,,,,,,,,,,1,0,1,0,88,0,88,0,,,,,,,88,,,0.2,1695.98904000537,Y,d,go,d,1,0.45897569542285055,,,,,,,,,,,,,,,,,,37,001, 19,w,Sport&Psychologie,2023-01-18_09h09.46.824,00_bat_bachelor,2022.2.4,59.942832748041894,
,,,,,,,,,,,,1,0,1,0,89,0,89,0,,,,,,,89,,,0.2,1696.7561552698025,X,l,go,l,1,0.5086488835513592,,,,,,,,,,,,,,,,,,37,001, 19,w,Sport&Psychologie,2023-01-18_09h09.46.824,00_bat_bachelor,2022.2.4,59.942832748041894,
,,,,,,,,,,,,1,0,1,0,90,0,90,0,,,,,,,90,,,0.2,1697.573520691716,X,None,nogo,None,1,,,,,,,,,,,,,,,,,,,37,001, 19,w,Sport&Psychologie,2023-01-18_09h09.46.824,00_bat_bachelor,2022.2.4,59.942832748041894,
,,,,,,,,,,,,1,0,1,0,91,0,91,0,,,,,,,91,,,0.2,1698.5741146308137,Y,d,go,d,1,0.2753462088294327,,,,,,,,,,,,,,,,,,37,001, 19,w,Sport&Psychologie,2023-01-18_09h09.46.824,00_bat_bachelor,2022.2.4,59.942832748041894,
,,,,,,,,,,,,1,0,1,0,92,0,92,0,,,,,,,92,,,0.2,1699.1578185901744,X,l,go,l,1,0.6662856556940824,,,,,,,,,,,,,,,,,,37,001, 19,w,Sport&Psychologie,2023-01-18_09h09.46.824,00_bat_bachelor,2022.2.4,59.942832748041894,
,,,,,,,,,,,,1,0,1,0,93,0,93,0,,,,,,,93,,,0.2,1700.1252139999997,X,None,nogo,l,0,0.5941775693790987,,,,,,,,,,,,,,,,,,37,001, 19,w,Sport&Psychologie,2023-01-18_09h09.46.824,00_bat_bachelor,2022.2.4,59.942832748041894,
,,,,,,,,,,,,1,0,1,0,94,0,94,0,,,,,,,94,,,0.2,1701.0262113813078,Y,d,go,d,1,0.5432384425075725,,,,,,,,,,,,,,,,,,37,001, 19,w,Sport&Psychologie,2023-01-18_09h09.46.824,00_bat_bachelor,2022.2.4,59.942832748041894,
,,,,,,,,,,,,1,0,1,0,95,0,95,0,,,,,,,95,,,0.2,1701.876936302171,X,l,go,l,1,0.6031996256206185,,,,,,,,,,,,,,,,,,37,001, 19,w,Sport&Psychologie,2023-01-18_09h09.46.824,00_bat_bachelor,2022.2.4,59.942832748041894,
,,,,,,,,,,,,1,0,1,0,96,0,96,0,,,,,,,96,,,0.2,1702.794155736221,Y,d,go,d,1,0.5178139701019973,,,,,,,,,,,,,,,,,,37,001, 19,w,Sport&Psychologie,2023-01-18_09h09.46.824,00_bat_bachelor,2022.2.4,59.942832748041894,
,,,,,,,,,,,,1,0,1,0,97,0,97,0,,,,,,,97,,,0.2,1703.6282004227396,Y,None,nogo,None,1,,,,,,,,,,,,,,,,,,,37,001, 19,w,Sport&Psychologie,2023-01-18_09h09.46.824,00_bat_bachelor,2022.2.4,59.942832748041894,
,,,,,,,,,,,,1,0,1,0,98,0,98,0,,,,,,,98,,,0.2,1704.6290033314144,X,l,go,l,1,0.25132634164765477,,,,,,,,,,,,,,,,,,37,001, 19,w,Sport&Psychologie,2023-01-18_09h09.46.824,00_bat_bachelor,2022.2.4,59.942832748041894,
,,,,,,,,,,,,1,0,1,0,99,0,99,0,,,,,,,99,,,0.2,1705.1959519051015,Y,d,go,None,0,,,,,,,,,,,,,,,,,,,37,001, 19,w,Sport&Psychologie,2023-01-18_09h09.46.824,00_bat_bachelor,2022.2.4,59.942832748041894,
,,,,,,,,,,,,1,0,1,0,100,0,100,0,,,,,,,100,,,0.2,1706.1965327532962,Y,None,nogo,None,1,,,,,,,,,,,,,,,,,,,37,001, 19,w,Sport&Psychologie,2023-01-18_09h09.46.824,00_bat_bachelor,2022.2.4,59.942832748041894,
,,,,,,,,,,,,1,0,1,0,101,0,101,0,,,,,,,101,,,0.2,1707.1972634195117,X,l,go,l,1,0.4835128956474364,,,,,,,,,,,,,,,,,,37,001, 19,w,Sport&Psychologie,2023-01-18_09h09.46.824,00_bat_bachelor,2022.2.4,59.942832748041894,
,,,,,,,,,,,,1,0,1,0,102,0,102,0,,,,,,,102,,,0.2,1707.9814240090782,Y,d,go,d,1,0.628217795281671,,,,,,,,,,,,,,,,,,37,001, 19,w,Sport&Psychologie,2023-01-18_09h09.46.824,00_bat_bachelor,2022.2.4,59.942832748041894,
,,,,,,,,,,,,1,0,1,0,103,0,103,0,,,,,,,103,,,0.2,1708.9152431926923,X,l,go,l,1,0.4138639597222209,,,,,,,,,,,,,,,,,,37,001, 19,w,Sport&Psychologie,2023-01-18_09h09.46.824,00_bat_bachelor,2022.2.4,59.942832748041894,
,,,,,,,,,,,,1,0,1,0,104,0,104,0,,,,,,,104,,,0.2,1709.6324627237627,X,None,nogo,None,1,,,,,,,,,,,,,,,,,,,37,001, 19,w,Sport&Psychologie,2023-01-18_09h09.46.824,00_bat_bachelor,2022.2.4,59.942832748041894,
,,,,,,,,,,,,1,0,1,0,105,0,105,0,,,,,,,105,,,0.2,1710.6332859960385,Y,d,go,d,1,0.23202841158490628,,,,,,,,,,,,,,,,,,37,001, 19,w,Sport&Psychologie,2023-01-18_09h09.46.824,00_bat_bachelor,2022.2.4,59.942832748041894,
,,,,,,,,,,,,1,0,1,0,106,0,106,0,,,,,,,106,,,0.2,1711.1669574949192,X,l,go,l,1,0.4326998294563964,,,,,,,,,,,,,,,,,,37,001, 19,w,Sport&Psychologie,2023-01-18_09h09.46.824,00_bat_bachelor,2022.2.4,59.942832748041894,
,,,,,,,,,,,,1,0,1,0,107,0,107,0,,,,,,,107,,,0.2,1711.9011006540386,Y,d,go,d,1,0.5635341901797801,,,,,,,,,,,,,,,,,,37,001, 19,w,Sport&Psychologie,2023-01-18_09h09.46.824,00_bat_bachelor,2022.2.4,59.942832748041894,
,,,,,,,,,,,,1,0,1,0,108,0,108,0,,,,,,,108,,,0.2,1712.7684005971532,X,l,go,l,1,0.4797800490632653,,,,,,,,,,,,,,,,,,37,001, 19,w,Sport&Psychologie,2023-01-18_09h09.46.824,00_bat_bachelor,2022.2.4,59.942832748041894,
,,,,,,,,,,,,1,0,1,0,109,0,109,0,,,,,,,109,,,0.2,1713.5520996111445,X,None,nogo,None,1,,,,,,,,,,,,,,,,,,,37,001, 19,w,Sport&Psychologie,2023-01-18_09h09.46.824,00_bat_bachelor,2022.2.4,59.942832748041894,
,,,,,,,,,,,,1,0,1,0,110,0,110,0,,,,,,,110,,,0.2,1714.5528836108278,X,None,nogo,None,1,,,,,,,,,,,,,,,,,,,37,001, 19,w,Sport&Psychologie,2023-01-18_09h09.46.824,00_bat_bachelor,2022.2.4,59.942832748041894,
,,,,,,,,,,,,1,0,1,0,111,0,111,0,,,,,,,111,,,0.2,1715.553921186016,Y,d,go,d,1,0.09553684142883867,,,,,,,,,,,,,,,,,,37,001, 19,w,Sport&Psychologie,2023-01-18_09h09.46.824,00_bat_bachelor,2022.2.4,59.942832748041894,
,,,,,,,,,,,,1,0,1,0,112,0,112,0,,,,,,,112,,,0.2,1715.9541672950145,X,l,go,l,1,0.5264685112051666,,,,,,,,,,,,,,,,,,37,001, 19,w,Sport&Psychologie,2023-01-18_09h09.46.824,00_bat_bachelor,2022.2.4,59.942832748041894,
,,,,,,,,,,,,1,0,1,0,113,0,113,0,,,,,,,113,,,0.2,1716.787921072566,Y,d,go,None,0,,,,,,,,,,,,,,,,,,,37,001, 19,w,Sport&Psychologie,2023-01-18_09h09.46.824,00_bat_bachelor,2022.2.4,59.942832748041894,
,,,,,,,,,,,,1,0,1,0,114,0,114,0,,,,,,,114,,,0.2,1717.788993072114,X,l,go,l,1,0.5474091072101146,,,,,,,,,,,,,,,,,,37,001, 19,w,Sport&Psychologie,2023-01-18_09h09.46.824,00_bat_bachelor,2022.2.4,59.942832748041894,
,,,,,,,,,,,,1,0,1,0,115,0,115,0,,,,,,,115,,,0.2,1718.63954538689,X,None,nogo,None,1,,,,,,,,,,,,,,,,,,,37,001, 19,w,Sport&Psychologie,2023-01-18_09h09.46.824,00_bat_bachelor,2022.2.4,59.942832748041894,
,,,,,,,,,,,,1,0,1,0,116,0,116,0,,,,,,,116,,,0.2,1719.6403623562073,Y,d,go,d,1,0.29626983497291803,,,,,,,,,,,,,,,,,,37,001, 19,w,Sport&Psychologie,2023-01-18_09h09.46.824,00_bat_bachelor,2022.2.4,59.942832748041894,
,,,,,,,,,,,,1,0,1,0,117,0,117,0,,,,,,,117,,,0.2,1720.240811519674,X,l,go,l,1,0.30425722512882203,,,,,,,,,,,,,,,,,,37,001, 19,w,Sport&Psychologie,2023-01-18_09h09.46.824,00_bat_bachelor,2022.2.4,59.942832748041894,
,,,,,,,,,,,,1,0,1,0,118,0,118,0,,,,,,,118,,,0.2,1720.8578458871925,Y,d,go,d,1,0.631241793744266,,,,,,,,,,,,,,,,,,37,001, 19,w,Sport&Psychologie,2023-01-18_09h09.46.824,00_bat_bachelor,2022.2.4,59.942832748041894,
,,,,,,,,,,,,1,0,1,0,119,0,119,0,,,,,,,119,,,0.2,1721.7920611917507,Y,None,nogo,d,0,0.5136127599980682,,,,,,,,,,,,,,,,,,37,001, 19,w,Sport&Psychologie,2023-01-18_09h09.46.824,00_bat_bachelor,2022.2.4,59.942832748041894,
,,,,,,,,,,,,1,0,1,0,120,0,120,0,,,,,,,120,,,0.2,1722.6092127956217,X,l,go,l,1,0.47920647356659174,,,,,,,,,,,,,,,,,,37,001, 19,w,Sport&Psychologie,2023-01-18_09h09.46.824,00_bat_bachelor,2022.2.4,59.942832748041894,
,,,,,,,,,,,,1,0,1,0,121,0,121,0,,,,,,,121,,,0.2,1723.3929564155405,Y,d,go,None,0,,,,,,,,,,,,,,,,,,,37,001, 19,w,Sport&Psychologie,2023-01-18_09h09.46.824,00_bat_bachelor,2022.2.4,59.942832748041894,
,,,,,,,,,,,,1,0,1,0,122,0,122,0,,,,,,,122,,,0.2,1724.3950039297342,X,l,go,l,1,0.5333746896358207,,,,,,,,,,,,,,,,,,37,001, 19,w,Sport&Psychologie,2023-01-18_09h09.46.824,00_bat_bachelor,2022.2.4,59.942832748041894,
,,,,,,,,,,,,1,0,1,0,123,0,123,0,,,,,,,123,,,0.2,1725.2451358812395,Y,d,go,d,1,0.46586829819716513,,,,,,,,,,,,,,,,,,37,001, 19,w,Sport&Psychologie,2023-01-18_09h09.46.824,00_bat_bachelor,2022.2.4,59.942832748041894,
,,,,,,,,,,,,1,0,1,0,124,0,124,0,,,,,,,124,,,0.2,1726.0459577959264,X,l,go,l,1,0.38536991307046264,,,,,,,,,,,,,,,,,,37,001, 19,w,Sport&Psychologie,2023-01-18_09h09.46.824,00_bat_bachelor,2022.2.4,59.942832748041894,
,,,,,,,,,,,,1,0,1,0,125,0,125,0,,,,,,,125,,,0.2,1726.762965933187,Y,d,go,d,1,0.4846450163749978,,,,,,,,,,,,,,,,,,37,001, 19,w,Sport&Psychologie,2023-01-18_09h09.46.824,00_bat_bachelor,2022.2.4,59.942832748041894,
,,,,,,,,,,,,1,0,1,0,126,0,126,0,,,,,,,126,,,0.2,1727.5802591126412,X,l,go,l,1,0.46733157022390515,,,,,,,,,,,,,,,,,,37,001, 19,w,Sport&Psychologie,2023-01-18_09h09.46.824,00_bat_bachelor,2022.2.4,59.942832748041894,
,,,,,,,,,,,,1,0,1,0,127,0,127,0,,,,,,,127,,,0.2,1728.3810883001424,Y,d,go,d,1,0.4032593588344753,,,,,,,,,,,,,,,,,,37,001, 19,w,Sport&Psychologie,2023-01-18_09h09.46.824,00_bat_bachelor,2022.2.4,59.942832748041894,
,,,,,,,,,,,,1,0,1,0,128,0,128,0,,,,,,,128,,,0.2,1729.0982874674955,Y,None,nogo,None,1,,,,,1729.8989775035297,,,,,,,,,,,,,,37,001, 19,w,Sport&Psychologie,2023-01-18_09h09.46.824,00_bat_bachelor,2022.2.4,59.942832748041894,
,,,,,,,,,,,,1,0,1,0,129,0,129,0,,,,,,,129,,,0.2,1730.099013770232,X,l,go,l,1,0.3647929532453418,,,,,,,,,,,,,,,,,,37,001, 19,w,Sport&Psychologie,2023-01-18_09h09.46.824,00_bat_bachelor,2022.2.4,59.942832748041894,
,,,,,,,,,,,,1,0,1,0,130,0,130,0,,,,,,,130,,,0.2,1730.7827133175451,Y,d,go,d,1,0.36863876960705966,,,,,,,,,,,,,,,,,,37,001, 19,w,Sport&Psychologie,2023-01-18_09h09.46.824,00_bat_bachelor,2022.2.4,59.942832748041894,
,,,,,,,,,,,,1,0,1,0,131,0,131,0,,,,,,,131,,,0.2,1731.5001510302536,X,l,go,l,1,0.419468805543147,,,,,,,,,,,,,,,,,,37,001, 19,w,Sport&Psychologie,2023-01-18_09h09.46.824,00_bat_bachelor,2022.2.4,59.942832748041894,
,,,,,,,,,,,,1,0,1,0,132,0,132,0,,,,,,,132,,,0.2,1732.25070775731,X,None,nogo,None,1,,,,,1733.0509454299463,,,,,,,,,,,,,,37,001, 19,w,Sport&Psychologie,2023-01-18_09h09.46.824,00_bat_bachelor,2022.2.4,59.942832748041894,
,,,,,,,,,,,,1,0,1,0,133,0,133,0,,,,,,,133,,,0.2,1733.2509298177902,Y,d,go,d,1,0.28470620431471616,,,,,,,,,,,,,,,,,,37,001, 19,w,Sport&Psychologie,2023-01-18_09h09.46.824,00_bat_bachelor,2022.2.4,59.942832748041894,
,,,,,,,,,,,,1,0,1,0,134,0,134,0,,,,,,,134,,,0.2,1733.8514075872954,X,l,go,l,1,0.48475507693365216,,,,,,,,,,,,,,,,,,37,001, 19,w,Sport&Psychologie,2023-01-18_09h09.46.824,00_bat_bachelor,2022.2.4,59.942832748041894,
,,,,,,,,,,,,1,0,1,0,135,0,135,0,,,,,,,135,,,0.2,1734.6521271989914,Y,d,go,d,1,0.49966803938150406,,,,,,,,,,,,,,,,,,37,001, 19,w,Sport&Psychologie,2023-01-18_09h09.46.824,00_bat_bachelor,2022.2.4,59.942832748041894,
,,,,,,,,,,,,1,0,1,0,136,0,136,0,,,,,,,136,,,0.2,1735.4523430534173,X,l,go,l,1,0.4846188345691189,,,,,,,,,,,,,,,,,,37,001, 19,w,Sport&Psychologie,2023-01-18_09h09.46.824,00_bat_bachelor,2022.2.4,59.942832748041894,
,,,,,,,,,,,,1,0,1,0,137,0,137,0,,,,,,,137,,,0.2,1736.252785816905,X,None,nogo,None,1,,,,,1737.0536731861066,,,,,,,,,,,,,,37,001, 19,w,Sport&Psychologie,2023-01-18_09h09.46.824,00_bat_bachelor,2022.2.4,59.942832748041894,
,,,,,,,,,,,,1,0,1,0,138,0,138,0,,,,,,,138,,,0.2,1737.2538078769576,Y,d,go,d,1,0.29865965200588107,,,,,,,,,,,,,,,,,,37,001, 19,w,Sport&Psychologie,2023-01-18_09h09.46.824,00_bat_bachelor,2022.2.4,59.942832748041894,
,,,,,,,,,,,,1,0,1,0,139,0,139,0,,,,,,,139,,,0.2,1737.8543050404405,X,l,go,l,1,0.5142905778484419,,,,,,,,,,,,,,,,,,37,001, 19,w,Sport&Psychologie,2023-01-18_09h09.46.824,00_bat_bachelor,2022.2.4,59.942832748041894,
,,,,,,,,,,,,1,0,1,0,140,0,140,0,,,,,,,140,,,0.2,1738.6715230684495,X,None,nogo,None,1,,,,,,,,,,,,,,,,,,,37,001, 19,w,Sport&Psychologie,2023-01-18_09h09.46.824,00_bat_bachelor,2022.2.4,59.942832748041894,
,,,,,,,,,,,,1,0,1,0,141,0,141,0,,,,,,,141,,,0.2,1739.6720811286941,Y,d,go,d,1,0.3441946603124961,,,,,,,,,,,,,,,,,,37,001, 19,w,Sport&Psychologie,2023-01-18_09h09.46.824,00_bat_bachelor,2022.2.4,59.942832748041894,
,,,,,,,,,,,,1,0,1,0,142,0,142,0,,,,,,,142,,,0.2,1740.3228730555857,X,l,go,l,1,0.4787206556648016,,,,,,,,,,,,,,,,,,37,001, 19,w,Sport&Psychologie,2023-01-18_09h09.46.824,00_bat_bachelor,2022.2.4,59.942832748041894,
,,,,,,,,,,,,1,0,1,0,143,0,143,0,,,,,,,143,,,0.2,1741.1067320695147,Y,d,go,d,1,0.5101111859548837,,,,,,,,,,,,,,,,,,37,001, 19,w,Sport&Psychologie,2023-01-18_09h09.46.824,00_bat_bachelor,2022.2.4,59.942832748041894,
,,,,,,,,,,,,1,0,1,0,144,0,144,0,,,,,,,144,,,0.2,1741.9241057338659,Y,None,nogo,None,1,,,,,,,,,,,,,,,,,,,37,001, 19,w,Sport&Psychologie,2023-01-18_09h09.46.824,00_bat_bachelor,2022.2.4,59.942832748041894,
,,,,,,,,,,,,1,0,1,0,145,0,145,0,,,,,,,145,,,0.2,1742.9247777335113,X,l,go,l,1,0.19655303482431918,,,,,,,,,,,,,,,,,,37,001, 19,w,Sport&Psychologie,2023-01-18_09h09.46.824,00_bat_bachelor,2022.2.4,59.942832748041894,
,,,,,,,,,,,,1,0,1,0,146,0,146,0,,,,,,,146,,,0.2,1743.4251440363005,Y,d,go,d,1,0.46447532915044576,,,,,,,,,,,,,,,,,,37,001, 19,w,Sport&Psychologie,2023-01-18_09h09.46.824,00_bat_bachelor,2022.2.4,59.942832748041894,
,,,,,,,,,,,,1,0,1,0,147,0,147,0,,,,,,,147,,,0.2,1744.1924551795237,X,l,go,None,0,,,,,,,,,,,,,,,,,,,37,001, 19,w,Sport&Psychologie,2023-01-18_09h09.46.824,00_bat_bachelor,2022.2.4,59.942832748041894,
,,,,,,,,,,,,1,0,1,0,148,0,148,0,,,,,,,148,,,0.2,1745.193164512515,Y,d,go,d,1,0.48685059102717787,,,,,,,,,,,,,,,,,,37,001, 19,w,Sport&Psychologie,2023-01-18_09h09.46.824,00_bat_bachelor,2022.2.4,59.942832748041894,
,,,,,,,,,,,,1,0,1,0,149,0,149,0,,,,,,,149,,,0.2,1745.993584003183,Y,None,nogo,None,1,,,,,,,,,,,,,,,,,,,37,001, 19,w,Sport&Psychologie,2023-01-18_09h09.46.824,00_bat_bachelor,2022.2.4,59.942832748041894,
,,,,,,,,,,,,1,0,1,0,150,0,150,0,,,,,,,150,,,0.2,1746.9944901845884,X,l,go,l,1,0.3813097937963903,,,,,,,,,,,,,,,,,,37,001, 19,w,Sport&Psychologie,2023-01-18_09h09.46.824,00_bat_bachelor,2022.2.4,59.942832748041894,
,,,,,,,,,,,,1,0,1,0,151,0,151,0,,,,,,,151,,,0.2,1747.6784200348193,Y,d,go,d,1,0.44971994240768254,,,,,,,,,,,,,,,,,,37,001, 19,w,Sport&Psychologie,2023-01-18_09h09.46.824,00_bat_bachelor,2022.2.4,59.942832748041894,
,,,,,,,,,,,,1,0,1,0,152,0,152,0,,,,,,,152,,,0.2,1748.42900924664,X,l,go,l,1,0.6275084622902796,,,,,,,,,,,,,,,,,,37,001, 19,w,Sport&Psychologie,2023-01-18_09h09.46.824,00_bat_bachelor,2022.2.4,59.942832748041894,
,,,,,,,,,,,,1,0,1,0,153,0,153,0,,,,,,,153,,,0.2,1749.3629903695546,Y,d,go,d,1,0.5735720035154372,,,,,,,,,,,,,,,,,,37,001, 19,w,Sport&Psychologie,2023-01-18_09h09.46.824,00_bat_bachelor,2022.2.4,59.942832748041894,
,,,,,,,,,,,,1,0,1,0,154,0,154,0,,,,,,,154,,,0.2,1750.2467853348935,X,l,go,l,1,0.394186393590644,,,,,,,,,,,,,,,,,,37,001, 19,w,Sport&Psychologie,2023-01-18_09h09.46.824,00_bat_bachelor,2022.2.4,59.942832748041894,
,,,,,,,,,,,,1,0,1,0,155,0,155,0,,,,,,,155,,,0.2,1750.9473289953312,X,None,nogo,None,1,,,,,,,,,,,,,,,,,,,37,001, 19,w,Sport&Psychologie,2023-01-18_09h09.46.824,00_bat_bachelor,2022.2.4,59.942832748041894,
,,,,,,,,,,,,1,0,1,0,156,0,156,0,,,,,,,156,,,0.2,1751.9480693585938,Y,d,go,d,1,0.21140442159958184,,,,,,,,,,,,,,,,,,37,001, 19,w,Sport&Psychologie,2023-01-18_09h09.46.824,00_bat_bachelor,2022.2.4,59.942832748041894,
,,,,,,,,,,,,1,0,1,0,157,0,157,0,,,,,,,157,,,0.2,1752.4651105623925,X,l,go,l,1,0.622715252568014,,,,,,,,,,,,,,,,,,37,001, 19,w,Sport&Psychologie,2023-01-18_09h09.46.824,00_bat_bachelor,2022.2.4,59.942832748041894,
,,,,,,,,,,,,1,0,1,0,158,0,158,0,,,,,,,158,,,0.2,1753.3993806549115,Y,d,go,d,1,0.5523070441558957,,,,,,,,,,,,,,,,,,37,001, 19,w,Sport&Psychologie,2023-01-18_09h09.46.824,00_bat_bachelor,2022.2.4,59.942832748041894,
,,,,,,,,,,,,1,0,1,0,159,0,159,0,,,,,,,159,,,0.2,1754.2668090828229,X,l,go,l,1,0.5329150535399094,,,,,,,,,,,,,,,,,,37,001, 19,w,Sport&Psychologie,2023-01-18_09h09.46.824,00_bat_bachelor,2022.2.4,59.942832748041894,
,,,,,,,,,,,,1,0,1,0,160,0,160,0,,,,,,,160,,,0.2,1755.1007078300463,X,None,nogo,None,1,,,,,,,,,,,,,,,,,,,37,001, 19,w,Sport&Psychologie,2023-01-18_09h09.46.824,00_bat_bachelor,2022.2.4,59.942832748041894,
,,,,,,,,,,,,1,0,1,0,161,0,161,0,,,,,,,161,,,0.2,1756.1016028599115,Y,d,go,d,1,0.2342858649790287,,,,,,,,,,,,,,,,,,37,001, 19,w,Sport&Psychologie,2023-01-18_09h09.46.824,00_bat_bachelor,2022.2.4,59.942832748041894,
,,,,,,,,,,,,1,0,1,0,162,0,162,0,,,,,,,162,,,0.2,1756.6518789567053,X,l,go,l,1,0.5322168720886111,,,,,,,,,,,,,,,,,,37,001, 19,w,Sport&Psychologie,2023-01-18_09h09.46.824,00_bat_bachelor,2022.2.4,59.942832748041894,
,,,,,,,,,,,,1,0,1,0,163,0,163,0,,,,,,,163,,,0.2,1757.4859512796393,X,None,nogo,None,1,,,,,,,,,,,,,,,,,,,37,001, 19,w,Sport&Psychologie,2023-01-18_09h09.46.824,00_bat_bachelor,2022.2.4,59.942832748041894,
,,,,,,,,,,,,1,0,1,0,164,0,164,0,,,,,,,164,,,0.2,1758.4863401278853,Y,d,go,d,1,0.1543896613875404,,,,,,,,,,,,,,,,,,37,001, 19,w,Sport&Psychologie,2023-01-18_09h09.46.824,00_bat_bachelor,2022.2.4,59.942832748041894,
,,,,,,,,,,,,1,0,1,0,165,0,165,0,,,,,,,165,,,0.2,1758.9533469317248,X,l,go,l,1,0.5341834166320041,,,,,,,,,,,,,,,,,,37,001, 19,w,Sport&Psychologie,2023-01-18_09h09.46.824,00_bat_bachelor,2022.2.4,59.942832748041894,
,,,,,,,,,,,,1,0,1,0,166,0,166,0,,,,,,,166,,,0.2,1759.8042924585752,Y,d,go,d,1,0.3883279721485451,,,,,,,,,,,,,,,,,,37,001, 19,w,Sport&Psychologie,2023-01-18_09h09.46.824,00_bat_bachelor,2022.2.4,59.942832748041894,
,,,,,,,,,,,,1,0,1,0,167,0,167,0,,,,,,,167,,,0.2,1760.504558785702,X,l,go,l,1,0.599426536471583,,,,,,,,,,,,,,,,,,37,001, 19,w,Sport&Psychologie,2023-01-18_09h09.46.824,00_bat_bachelor,2022.2.4,59.942832748041894,
,,,,,,,,,,,,1,0,1,0,168,0,168,0,,,,,,,168,,,0.2,1761.4055615003454,X,None,nogo,l,0,0.6440126966917887,,,,,,,,,,,,,,,,,,37,001, 19,w,Sport&Psychologie,2023-01-18_09h09.46.824,00_bat_bachelor,2022.2.4,59.942832748041894,
,,,,,,,,,,,,1,0,1,0,169,0,169,0,,,,,,,169,,,0.2,1762.3559915850637,Y,d,go,l,0,0.5563967392081395,,,,,,,,,,,,,,,,,,37,001, 19,w,Sport&Psychologie,2023-01-18_09h09.46.824,00_bat_bachelor,2022.2.4,59.942832748041894,
,,,,,,,,,,,,1,0,1,0,170,0,170,0,,,,,,,170,,,0.2,1763.2235615886748,X,l,go,None,0,,,,,,,,,,,,,,,,,,,37,001, 19,w,Sport&Psychologie,2023-01-18_09h09.46.824,00_bat_bachelor,2022.2.4,59.942832748041894,
,,,,,,,,,,,,1,0,1,0,171,0,171,0,,,,,,,171,,,0.2,1764.2243223155383,Y,d,go,d,1,0.5437756543979049,,,,,,,,,,,,,,,,,,37,001, 19,w,Sport&Psychologie,2023-01-18_09h09.46.824,00_bat_bachelor,2022.2.4,59.942832748041894,
,,,,,,,,,,,,1,0,1,0,172,0,172,0,,,,,,,172,,,0.2,1765.0748862667242,X,l,go,l,1,0.54191723105032,,,,,,,,,,,,,,,,,,37,001, 19,w,Sport&Psychologie,2023-01-18_09h09.46.824,00_bat_bachelor,2022.2.4,59.942832748041894,
,,,,,,,,,,,,1,0,1,0,173,0,173,0,,,,,,,173,,,0.2,1765.9257828239352,X,None,nogo,None,1,,,,,,,,,,,,,,,,,,,37,001, 19,w,Sport&Psychologie,2023-01-18_09h09.46.824,00_bat_bachelor,2022.2.4,59.942832748041894,
,,,,,,,,,,,,1,0,1,0,174,0,174,0,,,,,,,174,,,0.2,1766.9263665812323,Y,d,go,d,1,0.385883852140978,,,,,,,,,,,,,,,,,,37,001, 19,w,Sport&Psychologie,2023-01-18_09h09.46.824,00_bat_bachelor,2022.2.4,59.942832748041894,
,,,,,,,,,,,,1,0,1,0,175,0,175,0,,,,,,,175,,,0.2,1767.6270130294142,X,l,go,l,1,0.4541509705595672,,,,,,,,,,,,,,,,,,37,001, 19,w,Sport&Psychologie,2023-01-18_09h09.46.824,00_bat_bachelor,2022.2.4,59.942832748041894,
,,,,,,,,,,,,1,0,1,0,176,0,176,0,,,,,,,176,,,0.2,1768.3941142332042,Y,d,go,d,1,0.45423048571683466,,,,,,,,,,,,,,,,,,37,001, 19,w,Sport&Psychologie,2023-01-18_09h09.46.824,00_bat_bachelor,2022.2.4,59.942832748041894,
,,,,,,,,,,,,1,0,1,0,177,0,177,0,,,,,,,177,,,0.2,1769.1613332551206,Y,None,nogo,None,1,,,,,1769.9617464428302,,,,,,,,,,,,,,37,001, 19,w,Sport&Psychologie,2023-01-18_09h09.46.824,00_bat_bachelor,2022.2.4,59.942832748041894,
,,,,,,,,,,,,1,0,1,0,178,0,178,0,,,,,,,178,,,0.2,1770.1621647699503,X,l,go,l,1,0.28548147657420486,,,,,,,,,,,,,,,,,,37,001, 19,w,Sport&Psychologie,2023-01-18_09h09.46.824,00_bat_bachelor,2022.2.4,59.942832748041894,
,,,,,,,,,,,,1,0,1,0,179,0,179,0,,,,,,,179,,,0.2,1770.7626032666303,Y,d,go,d,1,0.5332922654924914,,,,,,,,,,,,,,,,,,37,001, 19,w,Sport&Psychologie,2023-01-18_09h09.46.824,00_bat_bachelor,2022.2.4,59.942832748041894,
,,,,,,,,,,,,1,0,1,0,180,0,180,0,,,,,,,180,,,0.2,1771.5967085591983,X,l,go,l,1,0.43587413092609495,,,,,,,,,,,,,,,,,,37,001, 19,w,Sport&Psychologie,2023-01-18_09h09.46.824,00_bat_bachelor,2022.2.4,59.942832748041894,
,,,,,,,,,,,,1,0,1,0,181,0,181,0,,,,,,,181,,,0.2,1772.3470471045002,X,None,nogo,None,1,,,,,,,,,,,,,,,,,,,37,001, 19,w,Sport&Psychologie,2023-01-18_09h09.46.824,00_bat_bachelor,2022.2.4,59.942832748041894,
