loop_instruction.thisRepN,loop_instruction.thisTrialN,loop_instruction.thisN,loop_instruction.thisIndex,loop_rsi_practice.thisRepN,loop_rsi_practice.thisTrialN,loop_rsi_practice.thisN,loop_rsi_practice.thisIndex,loop_practice.thisRepN,loop_practice.thisTrialN,loop_practice.thisN,loop_practice.thisIndex,loop_exp.thisRepN,loop_exp.thisTrialN,loop_exp.thisN,loop_exp.thisIndex,loop_trials.thisRepN,loop_trials.thisTrialN,loop_trials.thisN,loop_trials.thisIndex,map_condition,map_x_key,map_y_key,key_resp_welcome.started,key_resp_welcome.keys,key_resp_welcome.rt,index,text_empty_rsi_practice.started,text_empty_rsi_practice.stopped,rsi,stimulus.started,stimulus,correct,trial_type,key_resp_trial.keys,key_resp_trial.corr,key_resp_trial.rt,stimulus.stopped,key_resp_instruction_rsi.started,key_resp_instruction_rsi.keys,key_resp_instruction_rsi.rt,key_resp_instruction_rsi.stopped,key_resp_instruction_final.started,key_resp_instruction_final.keys,key_resp_instruction_final.rt,key_resp_break.started,key_resp_break.keys,key_resp_break.rt,key_resp_break.stopped,key_resp_end_screen.started,image_end_screen.started,key_resp_end_screen.keys,key_resp_end_screen.rt,participant,session,Alter,Geschlecht (w/m/d/andere),Studiengang,date,expName,psychopyVersion,frameRate,
,,,,0,0,0,0,0,0,0,0,,,,,,,,,0,d,l,513.8949353236821,j,5.232104006834561,0,519.1534486528835,520.177244520135,1,520.177244520135,X,d,go,None,0,,,,,,,,,,,,,,,,,,38,001,20,w,Psychologie,2023-01-18_08h59.53.384,00_bat_bachelor,2022.2.4,60.066954605784794,
,,,,0,0,0,0,1,0,1,0,,,,,,,,,,,,,,,1,521.5835337776807,522.5836404442962,1,522.5836404442962,Y,l,go,l,1,0.3313965647248551,,,,,,,,,,,,,,,,,38,001,20,w,Psychologie,2023-01-18_08h59.53.384,00_bat_bachelor,2022.2.4,60.066954605784794,
,,,,0,0,0,0,2,0,2,0,,,,,,,,,,,,,,,2,523.6171298825939,524.6166270949761,1,524.6166270949761,X,d,go,d,1,0.3956084123929031,,,,,,,,,,,,,,,,,38,001,20,w,Psychologie,2023-01-18_08h59.53.384,00_bat_bachelor,2022.2.4,60.066954605784794,
,,,,0,0,0,0,3,0,3,0,,,,,,,,,,,,,,,3,525.7169814705558,526.7167584403651,1,526.7167584403651,X,None,nogo,d,0,0.5022265425068326,,,,,,,,,,,,,,,,,38,001,20,w,Psychologie,2023-01-18_08h59.53.384,00_bat_bachelor,2022.2.4,60.066954605784794,
,,,,0,0,0,0,4,0,4,0,,,,,,,,,,,,,,,4,528.333841777523,529.333285656583,1,529.333285656583,Y,l,go,None,0,,530.1336396927945,,,,,,,,,,,,,,,,38,001,20,w,Psychologie,2023-01-18_08h59.53.384,00_bat_bachelor,2022.2.4,60.066954605784794,
,,,,0,0,0,0,5,0,5,0,,,,,,,,,,,,,,,5,530.7337436442613,531.7333979474497,1,531.7333979474497,X,d,go,None,0,,532.5338567108556,,,,,,,,,,,,,,,,38,001,20,w,Psychologie,2023-01-18_08h59.53.384,00_bat_bachelor,2022.2.4,60.066954605784794,
,,,,0,0,0,0,6,0,6,0,,,,,,,,,,,,,,,6,533.133647935203,534.1340023592638,1,534.1340023592638,X,None,nogo,None,1,,534.9341750622261,,,,,,,,,,,,,,,,38,001,20,w,Psychologie,2023-01-18_08h59.53.384,00_bat_bachelor,2022.2.4,60.066954605784794,
,,,,0,0,0,0,7,0,7,0,,,,,,,,,,,,,,,7,535.5336147715861,536.53330543841,1,536.53330543841,Y,l,go,l,1,0.4944398796069436,,,,,,,,,,,,,,,,,38,001,20,w,Psychologie,2023-01-18_08h59.53.384,00_bat_bachelor,2022.2.4,60.066954605784794,
,,,,0,0,0,0,8,0,8,0,,,,,,,,,,,,,,,8,537.7336621897412,538.7336040079535,1,538.7336040079535,X,d,go,d,1,0.5336417999933474,,,,,,,,,,,,,,,,,38,001,20,w,Psychologie,2023-01-18_08h59.53.384,00_bat_bachelor,2022.2.4,60.066954605784794,
,,,,0,0,0,0,9,0,9,0,,,,,,,,,,,,,,,9,539.9836538261152,540.9835282504209,1,540.9835282504209,X,None,nogo,None,1,,541.7834876201232,,,,,,,,,,,,,,,,38,001,20,w,Psychologie,2023-01-18_08h59.53.384,00_bat_bachelor,2022.2.4,60.066954605784794,
,,,,0,0,0,0,10,0,10,0,,,,,,,,,,,,,,,10,542.3836507230881,543.38365266248,1,543.38365266248,Y,l,go,l,1,0.3650445484381635,,,,,,,,,,,,,,,,,38,001,20,w,Psychologie,2023-01-18_08h59.53.384,00_bat_bachelor,2022.2.4,60.066954605784794,
,,,,0,0,0,0,11,0,11,0,,,,,,,,,,,,,,,11,544.4504177210038,545.4501200241793,1,545.4501200241793,X,d,go,d,1,0.47408595008892007,,,,,,,,,,,,,,,,,38,001,20,w,Psychologie,2023-01-18_08h59.53.384,00_bat_bachelor,2022.2.4,60.066954605784794,
,,,,0,0,0,0,12,0,12,0,,,,,,,,,,,,,,,12,546.6334212686343,547.6336569048872,1,547.6336569048872,X,None,nogo,None,1,,548.4337602745509,,,,,,,,,,,,,,,,38,001,20,w,Psychologie,2023-01-18_08h59.53.384,00_bat_bachelor,2022.2.4,60.066954605784794,
,,,,0,0,0,0,13,0,13,0,,,,,,,,,,,,,,,13,549.0333071353671,550.0337226503179,1,550.0337226503179,Y,l,go,l,1,0.32255632657324895,,,,,,,,,,,,,,,,,38,001,20,w,Psychologie,2023-01-18_08h59.53.384,00_bat_bachelor,2022.2.4,60.066954605784794,
,,,,0,0,0,0,14,0,14,0,,,,,,,,,,,,,,,14,551.0669522099779,552.0669880887435,1,552.0669880887435,X,d,go,d,1,0.3849592054320965,,,,,,,,,,,,,,,,,38,001,20,w,Psychologie,2023-01-18_08h59.53.384,00_bat_bachelor,2022.2.4,60.066954605784794,
,,,,1,0,1,0,0,0,0,0,,,,,,,,,,,,,,,0,572.7669460524048,572.967113712919,0.2,572.967113712919,X,d,go,d,1,0.5242929560481571,,553.1783630650316,j,19.56576929957373,,,,,,,,,,,,,38,001,20,w,Psychologie,2023-01-18_08h59.53.384,00_bat_bachelor,2022.2.4,60.066954605784794,
,,,,1,0,1,0,1,0,1,0,,,,,,,,,,,,,,,1,574.2003746907285,574.4000793211744,0.2,574.4000793211744,Y,l,go,l,1,0.3872588406666182,,,,,,,,,,,,,,,,,38,001,20,w,Psychologie,2023-01-18_08h59.53.384,00_bat_bachelor,2022.2.4,60.066954605784794,
,,,,1,0,1,0,2,0,2,0,,,,,,,,,,,,,,,2,575.5002785453107,575.7002925089619,0.2,575.7002925089619,X,d,go,d,1,0.367111941362964,,,,,,,,,,,,,,,,,38,001,20,w,Psychologie,2023-01-18_08h59.53.384,00_bat_bachelor,2022.2.4,60.066954605784794,
,,,,1,0,1,0,3,0,3,0,,,,,,,,,,,,,,,3,576.7834396201652,576.9838560078351,0.2,576.9838560078351,Y,l,go,l,1,0.3486106169875711,,,,,,,,,,,,,,,,,38,001,20,w,Psychologie,2023-01-18_08h59.53.384,00_bat_bachelor,2022.2.4,60.066954605784794,
,,,,1,0,1,0,4,0,4,0,,,,,,,,,,,,,,,4,578.0336916200467,578.233758916962,0.2,578.233758916962,Y,None,nogo,None,1,,579.0336009534076,,,,,,,,,,,,,,,,38,001,20,w,Psychologie,2023-01-18_08h59.53.384,00_bat_bachelor,2022.2.4,60.066954605784794,
,,,,1,0,1,0,5,0,5,0,,,,,,,,,,,,,,,5,579.63355896555,579.8336689291464,0.2,579.8336689291464,X,d,go,d,1,0.33045401971321553,,,,,,,,,,,,,,,,,38,001,20,w,Psychologie,2023-01-18_08h59.53.384,00_bat_bachelor,2022.2.4,60.066954605784794,
,,,,1,0,1,0,6,0,6,0,,,,,,,,,,,,,,,6,580.8669687917863,581.066946391802,0.2,581.066946391802,Y,l,go,l,1,0.5204219276201911,,,,,,,,,,,,,,,,,38,001,20,w,Psychologie,2023-01-18_08h59.53.384,00_bat_bachelor,2022.2.4,60.066954605784794,
,,,,1,0,1,0,7,0,7,0,,,,,,,,,,,,,,,7,582.3004386422108,582.5000690908928,0.2,582.5000690908928,X,d,go,d,1,0.3834673273668159,,,,,,,,,,,,,,,,,38,001,20,w,Psychologie,2023-01-18_08h59.53.384,00_bat_bachelor,2022.2.4,60.066954605784794,
,,,,1,0,1,0,8,0,8,0,,,,,,,,,,,,,,,8,583.6002692847105,583.8000553696766,0.2,583.8000553696766,Y,l,go,l,1,0.42727094248402864,,,,,,,,,,,,,,,,,38,001,20,w,Psychologie,2023-01-18_08h59.53.384,00_bat_bachelor,2022.2.4,60.066954605784794,
,,,,1,0,1,0,9,0,9,0,,,,,,,,,,,,,,,9,584.9333382141485,585.1335577534337,0.2,585.1335577534337,X,d,go,d,1,0.6307486620207783,,,,,,,,,,,,,,,,,38,001,20,w,Psychologie,2023-01-18_08h59.53.384,00_bat_bachelor,2022.2.4,60.066954605784794,
,,,,1,0,1,0,10,0,10,0,,,,,,,,,,,,,,,10,586.4667348040093,586.6670770099154,0.2,586.6670770099154,Y,l,go,None,0,,587.4669655917678,,,,,,,,,,,,,,,,38,001,20,w,Psychologie,2023-01-18_08h59.53.384,00_bat_bachelor,2022.2.4,60.066954605784794,
,,,,1,0,1,0,11,0,11,0,,,,,,,,,,,,,,,11,588.0667829979211,588.2669424160267,0.2,588.2669424160267,X,d,go,d,1,0.50399478408508,,,,,,,,,,,,,,,,,38,001,20,w,Psychologie,2023-01-18_08h59.53.384,00_bat_bachelor,2022.2.4,60.066954605784794,
,,,,1,0,1,0,12,0,12,0,,,,,,,,,,,,,,,12,589.4837117654679,589.6836573655019,0.2,589.6836573655019,Y,l,go,l,1,0.6074075824290048,,,,,,,,,,,,,,,,,38,001,20,w,Psychologie,2023-01-18_08h59.53.384,00_bat_bachelor,2022.2.4,60.066954605784794,
,,,,1,0,1,0,13,0,13,0,,,,,,,,,,,,,,,13,591.0003049695515,591.200544387626,0.2,591.200544387626,Y,None,nogo,None,1,,592.0005444845883,,,,,,,,,,,,,,,,38,001,20,w,Psychologie,2023-01-18_08h59.53.384,00_bat_bachelor,2022.2.4,60.066954605784794,
,,,,1,0,1,0,14,0,14,0,,,,,,,,,,,,,,,14,592.6005829815404,592.8005135512794,0.2,592.8005135512794,X,d,go,d,1,0.38629690173547715,,,,,,,,,,,,,,,,,38,001,20,w,Psychologie,2023-01-18_08h59.53.384,00_bat_bachelor,2022.2.4,60.066954605784794,
,,,,,,,,,,,,,,,,,,,,,,,,,,,,,,,,,,,,,,593.9654608652345,None,,593.9654608652345,593.9654608652345,space,23.352522857516306,,,,,,,,,38,001,20,w,Psychologie,2023-01-18_08h59.53.384,00_bat_bachelor,2022.2.4,60.066954605784794,
,,,,,,,,,,,,0,0,0,0,0,0,0,0,,,,,,,0,,,1,618.3835920564306,X,d,go,d,1,0.6118769136082847,,,,,,,,,,,,,,,,,38,001,20,w,Psychologie,2023-01-18_08h59.53.384,00_bat_bachelor,2022.2.4,60.066954605784794,
,,,,,,,,,,,,0,0,0,0,1,0,1,0,,,,,,,1,,,1,620.1000140121323,Y,l,go,l,1,0.43170100095449015,,,,,,,,,,,,,,,,,38,001,20,w,Psychologie,2023-01-18_08h59.53.384,00_bat_bachelor,2022.2.4,60.066954605784794,
,,,,,,,,,,,,0,0,0,0,2,0,2,0,,,,,,,2,,,1,621.6333669656306,X,d,go,d,1,0.4503720221982803,,,,,,,,,,,,,,,,,38,001,20,w,Psychologie,2023-01-18_08h59.53.384,00_bat_bachelor,2022.2.4,60.066954605784794,
,,,,,,,,,,,,0,0,0,0,3,0,3,0,,,,,,,3,,,1,623.1835766382574,X,None,nogo,None,1,,623.9836804927618,,,,,,,,,,,,,,,,38,001,20,w,Psychologie,2023-01-18_08h59.53.384,00_bat_bachelor,2022.2.4,60.066954605784794,
,,,,,,,,,,,,0,0,0,0,4,0,4,0,,,,,,,4,,,1,624.9837149170053,Y,l,go,l,1,0.31599729947629385,,,,,,,,,,,,,,,,,38,001,20,w,Psychologie,2023-01-18_08h59.53.384,00_bat_bachelor,2022.2.4,60.066954605784794,
,,,,,,,,,,,,0,0,0,0,5,0,5,0,,,,,,,5,,,1,626.400089503004,X,d,go,d,1,0.4834764909755904,,,,,,,,,,,,,,,,,38,001,20,w,Psychologie,2023-01-18_08h59.53.384,00_bat_bachelor,2022.2.4,60.066954605784794,
,,,,,,,,,,,,0,0,0,0,6,0,6,0,,,,,,,6,,,1,627.983303765679,Y,l,go,l,1,0.5156456874974538,,,,,,,,,,,,,,,,,38,001,20,w,Psychologie,2023-01-18_08h59.53.384,00_bat_bachelor,2022.2.4,60.066954605784794,
,,,,,,,,,,,,0,0,0,0,7,0,7,0,,,,,,,7,,,1,629.6002353453368,Y,None,nogo,None,1,,630.4002456241287,,,,,,,,,,,,,,,,38,001,20,w,Psychologie,2023-01-18_08h59.53.384,00_bat_bachelor,2022.2.4,60.066954605784794,
,,,,,,,,,,,,0,0,0,0,8,0,8,0,,,,,,,8,,,1,631.4002325332258,X,d,go,d,1,0.36380139749962837,,,,,,,,,,,,,,,,,38,001,20,w,Psychologie,2023-01-18_08h59.53.384,00_bat_bachelor,2022.2.4,60.066954605784794,
,,,,,,,,,,,,0,0,0,0,9,0,9,0,,,,,,,9,,,1,632.8669043069531,Y,l,go,l,1,0.43312790934578516,,,,,,,,,,,,,,,,,38,001,20,w,Psychologie,2023-01-18_08h59.53.384,00_bat_bachelor,2022.2.4,60.066954605784794,
,,,,,,,,,,,,0,0,0,0,10,0,10,0,,,,,,,10,,,1,634.4002165332204,X,d,go,d,1,0.4513722641277127,,,,,,,,,,,,,,,,,38,001,20,w,Psychologie,2023-01-18_08h59.53.384,00_bat_bachelor,2022.2.4,60.066954605784794,
,,,,,,,,,,,,0,0,0,0,11,0,11,0,,,,,,,11,,,1,635.9665876525687,X,None,nogo,d,0,0.46857661943067797,,,,,,,,,,,,,,,,,38,001,20,w,Psychologie,2023-01-18_08h59.53.384,00_bat_bachelor,2022.2.4,60.066954605784794,
,,,,,,,,,,,,0,0,0,0,12,0,12,0,,,,,,,12,,,1,637.5501994908263,Y,l,go,l,1,0.5817722009087447,,,,,,,,,,,,,,,,,38,001,20,w,Psychologie,2023-01-18_08h59.53.384,00_bat_bachelor,2022.2.4,60.066954605784794,
,,,,,,,,,,,,0,0,0,0,13,0,13,0,,,,,,,13,,,1,639.2334166140936,X,d,go,None,0,,640.033594650391,,,,,,,,,,,,,,,,38,001,20,w,Psychologie,2023-01-18_08h59.53.384,00_bat_bachelor,2022.2.4,60.066954605784794,
,,,,,,,,,,,,0,0,0,0,14,0,14,0,,,,,,,14,,,1,641.033596589783,X,None,nogo,None,1,,641.8335743837233,,,,,,,,,,,,,,,,38,001,20,w,Psychologie,2023-01-18_08h59.53.384,00_bat_bachelor,2022.2.4,60.066954605784794,
,,,,,,,,,,,,0,0,0,0,15,0,15,0,,,,,,,15,,,1,642.8333731717139,Y,l,go,l,1,0.4334944545989856,,,,,,,,,,,,,,,,,38,001,20,w,Psychologie,2023-01-18_08h59.53.384,00_bat_bachelor,2022.2.4,60.066954605784794,
,,,,,,,,,,,,0,0,0,0,16,0,16,0,,,,,,,16,,,1,644.3671246704762,X,d,go,d,1,0.4039332568354439,,,,,,,,,,,,,,,,,38,001,20,w,Psychologie,2023-01-18_08h59.53.384,00_bat_bachelor,2022.2.4,60.066954605784794,
,,,,,,,,,,,,0,0,0,0,17,0,17,0,,,,,,,17,,,1,645.8833440565504,Y,l,go,l,1,0.4723792842414696,,,,,,,,,,,,,,,,,38,001,20,w,Psychologie,2023-01-18_08h59.53.384,00_bat_bachelor,2022.2.4,60.066954605784794,
,,,,,,,,,,,,0,0,0,0,18,0,18,0,,,,,,,18,,,1,647.4667158949305,X,d,go,d,1,0.4086949514748994,,,,,,,,,,,,,,,,,38,001,20,w,Psychologie,2023-01-18_08h59.53.384,00_bat_bachelor,2022.2.4,60.066954605784794,
,,,,,,,,,,,,0,0,0,0,19,0,19,0,,,,,,,19,,,1,648.9832373414538,Y,l,go,l,1,0.4923821836709976,,,,,,,,,,,,,,,,,38,001,20,w,Psychologie,2023-01-18_08h59.53.384,00_bat_bachelor,2022.2.4,60.066954605784794,
,,,,,,,,,,,,0,0,0,0,20,0,20,0,,,,,,,20,,,1,650.5835764443327,X,d,go,d,1,0.42744791207951494,,,,,,,,,,,,,,,,,38,001,20,w,Psychologie,2023-01-18_08h59.53.384,00_bat_bachelor,2022.2.4,60.066954605784794,
,,,,,,,,,,,,0,0,0,0,21,0,21,0,,,,,,,21,,,1,652.1167538827867,Y,l,go,l,1,0.5436747648345772,,,,,,,,,,,,,,,,,38,001,20,w,Psychologie,2023-01-18_08h59.53.384,00_bat_bachelor,2022.2.4,60.066954605784794,
,,,,,,,,,,,,0,0,0,0,22,0,22,0,,,,,,,22,,,1,653.7667079918901,Y,None,nogo,None,1,,654.56689814938,,,,,,,,,,,,,,,,38,001,20,w,Psychologie,2023-01-18_08h59.53.384,00_bat_bachelor,2022.2.4,60.066954605784794,
,,,,,,,,,,,,0,0,0,0,23,0,23,0,,,,,,,23,,,1,655.5665868768119,X,d,go,d,1,0.3573921884817537,,,,,,,,,,,,,,,,,38,001,20,w,Psychologie,2023-01-18_08h59.53.384,00_bat_bachelor,2022.2.4,60.066954605784794,
,,,,,,,,,,,,0,0,0,0,24,0,24,0,,,,,,,24,,,1,657.0332421656931,Y,l,go,l,1,0.47477588916081004,,,,,,,,,,,,,,,,,38,001,20,w,Psychologie,2023-01-18_08h59.53.384,00_bat_bachelor,2022.2.4,60.066954605784794,
,,,,,,,,,,,,0,0,0,0,25,0,25,0,,,,,,,25,,,1,658.6167439433921,Y,None,nogo,None,1,,659.4166795555502,,,,,,,,,,,,,,,,38,001,20,w,Psychologie,2023-01-18_08h59.53.384,00_bat_bachelor,2022.2.4,60.066954605784794,
,,,,,,,,,,,,0,0,0,0,26,0,26,0,,,,,,,26,,,1,660.4169205251383,X,d,go,d,1,0.4511555369826965,,,,,,,,,,,,,,,,,38,001,20,w,Psychologie,2023-01-18_08h59.53.384,00_bat_bachelor,2022.2.4,60.066954605784794,
,,,,,,,,,,,,0,0,0,0,27,0,27,0,,,,,,,27,,,1,661.9835612200841,Y,l,go,l,1,0.33961474255193025,,,,,,,,,,,,,,,,,38,001,20,w,Psychologie,2023-01-18_08h59.53.384,00_bat_bachelor,2022.2.4,60.066954605784794,
,,,,,,,,,,,,0,0,0,0,28,0,28,0,,,,,,,28,,,1,663.4335416079848,Y,None,nogo,None,1,,664.2336023109965,,,,,,,,,,,,,,,,38,001,20,w,Psychologie,2023-01-18_08h59.53.384,00_bat_bachelor,2022.2.4,60.066954605784794,
,,,,,,,,,,,,0,0,0,0,29,0,29,0,,,,,,,29,,,1,665.233558674634,Y,None,nogo,None,1,,666.0331602263614,,,,,,,,,,,,,,,,38,001,20,w,Psychologie,2023-01-18_08h59.53.384,00_bat_bachelor,2022.2.4,60.066954605784794,
,,,,,,,,,,,,0,0,0,0,30,0,30,0,,,,,,,30,,,1,667.033565074642,X,d,go,d,1,0.33029886829899624,,,,,,,,,,,,,,,,,38,001,20,w,Psychologie,2023-01-18_08h59.53.384,00_bat_bachelor,2022.2.4,60.066954605784794,
,,,,,,,,,,,,0,0,0,0,31,0,31,0,,,,,,,31,,,1,668.466885591828,Y,l,go,l,1,0.465031893865671,,,,,,,,,,,,,,,,,38,001,20,w,Psychologie,2023-01-18_08h59.53.384,00_bat_bachelor,2022.2.4,60.066954605784794,
,,,,,,,,,,,,0,0,0,0,32,0,32,0,,,,,,,32,,,1,670.0333081050776,X,d,go,d,1,0.4975264235690702,,,,,,,,,,,,,,,,,38,001,20,w,Psychologie,2023-01-18_08h59.53.384,00_bat_bachelor,2022.2.4,60.066954605784794,
,,,,,,,,,,,,0,0,0,0,33,0,33,0,,,,,,,33,,,1,671.6335817534127,X,None,nogo,None,1,,672.4333394262649,,,,,,,,,,,,,,,,38,001,20,w,Psychologie,2023-01-18_08h59.53.384,00_bat_bachelor,2022.2.4,60.066954605784794,
,,,,,,,,,,,,0,0,0,0,34,0,34,0,,,,,,,34,,,1,673.4335386988823,Y,l,go,l,1,0.3147924515651539,,,,,,,,,,,,,,,,,38,001,20,w,Psychologie,2023-01-18_08h59.53.384,00_bat_bachelor,2022.2.4,60.066954605784794,
,,,,,,,,,,,,0,0,0,0,35,0,35,0,,,,,,,35,,,1,674.8505751027551,X,d,go,None,0,,675.6499158061051,,,,,,,,,,,,,,,,38,001,20,w,Psychologie,2023-01-18_08h59.53.384,00_bat_bachelor,2022.2.4,60.066954605784794,
,,,,,,,,,,,,0,0,0,0,36,0,36,0,,,,,,,36,,,1,676.6502833210689,X,None,nogo,None,1,,677.4501995393075,,,,,,,,,,,,,,,,38,001,20,w,Psychologie,2023-01-18_08h59.53.384,00_bat_bachelor,2022.2.4,60.066954605784794,
,,,,,,,,,,,,0,0,0,0,37,0,37,0,,,,,,,37,,,1,678.4499042667157,X,None,nogo,None,1,,679.2500401212019,,,,,,,,,,,,,,,,38,001,20,w,Psychologie,2023-01-18_08h59.53.384,00_bat_bachelor,2022.2.4,60.066954605784794,
,,,,,,,,,,,,0,0,0,0,38,0,38,0,,,,,,,38,,,1,680.2498791515827,Y,l,go,l,1,0.42513809504453093,,,,,,,,,,,,,,,,,38,001,20,w,Psychologie,2023-01-18_08h59.53.384,00_bat_bachelor,2022.2.4,60.066954605784794,
,,,,,,,,,,,,0,0,0,0,39,0,39,0,,,,,,,39,,,1,681.783326650504,X,d,go,d,1,0.5887549853941891,,,,,,,,,,,,,,,,,38,001,20,w,Psychologie,2023-01-18_08h59.53.384,00_bat_bachelor,2022.2.4,60.066954605784794,
,,,,,,,,,,,,0,0,0,0,40,0,40,0,,,,,,,40,,,1,683.4835488564568,Y,l,go,l,1,0.520413685211679,,,,,,,,,,,,,,,,,38,001,20,w,Psychologie,2023-01-18_08h59.53.384,00_bat_bachelor,2022.2.4,60.066954605784794,
,,,,,,,,,,,,0,0,0,0,41,0,41,0,,,,,,,41,,,1,685.1168421251641,X,d,go,d,1,0.5021727243729401,,,,,,,,,,,,,,,,,38,001,20,w,Psychologie,2023-01-18_08h59.53.384,00_bat_bachelor,2022.2.4,60.066954605784794,
,,,,,,,,,,,,0,0,0,0,42,0,42,0,,,,,,,42,,,1,686.7336418261111,Y,l,go,l,1,0.3579061276395805,,,,,,,,,,,,,,,,,38,001,20,w,Psychologie,2023-01-18_08h59.53.384,00_bat_bachelor,2022.2.4,60.066954605784794,
,,,,,,,,,,,,0,0,0,0,43,0,43,0,,,,,,,43,,,1,688.2002171150525,X,d,go,None,0,,689.0002681210754,,,,,,,,,,,,,,,,38,001,20,w,Psychologie,2023-01-18_08h59.53.384,00_bat_bachelor,2022.2.4,60.066954605784794,
,,,,,,,,,,,,0,0,0,0,44,0,44,0,,,,,,,44,,,1,690.0001997574873,X,None,nogo,None,1,,690.8002556120045,,,,,,,,,,,,,,,,38,001,20,w,Psychologie,2023-01-18_08h59.53.384,00_bat_bachelor,2022.2.4,60.066954605784794,
,,,,,,,,,,,,0,0,0,0,45,0,45,0,,,,,,,45,,,1,691.799885672779,Y,l,go,None,0,,692.6001771635492,,,,,,,,,,,,,,,,38,001,20,w,Psychologie,2023-01-18_08h59.53.384,00_bat_bachelor,2022.2.4,60.066954605784794,
,,,,,,,,,,,,0,0,0,0,46,0,46,0,,,,,,,46,,,1,693.5998794667248,X,d,go,d,1,0.32291850823094137,,,,,,,,,,,,,,,,,38,001,20,w,Psychologie,2023-01-18_08h59.53.384,00_bat_bachelor,2022.2.4,60.066954605784794,
,,,,,,,,,,,,0,0,0,0,47,0,47,0,,,,,,,47,,,1,695.0335325898195,Y,l,go,l,1,0.4111880411801394,,,,,,,,,,,,,,,,,38,001,20,w,Psychologie,2023-01-18_08h59.53.384,00_bat_bachelor,2022.2.4,60.066954605784794,
,,,,,,,,,,,,0,0,0,0,48,0,48,0,,,,,,,48,,,1,696.5498712485423,X,d,go,d,1,0.3982968959317077,,,,,,,,,,,,,,,,,38,001,20,w,Psychologie,2023-01-18_08h59.53.384,00_bat_bachelor,2022.2.4,60.066954605784794,
,,,,,,,,,,,,0,0,0,0,49,0,49,0,,,,,,,49,,,1,698.0501948847668,X,None,nogo,None,1,,698.8502066180808,,,,,,,,,,,,,,,,38,001,20,w,Psychologie,2023-01-18_08h59.53.384,00_bat_bachelor,2022.2.4,60.066954605784794,
,,,,,,,,,,,,0,0,0,0,50,0,50,0,,,,,,,50,,,1,699.8501809211157,Y,l,go,l,1,0.4742367378785275,,,,,,,,,,,,,,,,,38,001,20,w,Psychologie,2023-01-18_08h59.53.384,00_bat_bachelor,2022.2.4,60.066954605784794,
,,,,,,,,,,,,0,0,0,0,51,0,51,0,,,,,,,51,,,1,701.4334339716588,X,d,go,d,1,0.4433712983154692,,,,,,,,,,,,,,,,,38,001,20,w,Psychologie,2023-01-18_08h59.53.384,00_bat_bachelor,2022.2.4,60.066954605784794,
,,,,,,,,,,,,0,0,0,0,52,0,52,0,,,,,,,52,,,1,702.983524371637,X,None,nogo,None,1,,703.783222892991,,,,,,,,,,,,,,,,38,001,20,w,Psychologie,2023-01-18_08h59.53.384,00_bat_bachelor,2022.2.4,60.066954605784794,
,,,,,,,,,,,,0,0,0,0,53,0,53,0,,,,,,,53,,,1,704.7837557412277,X,None,nogo,None,1,,705.5835483231349,,,,,,,,,,,,,,,,38,001,20,w,Psychologie,2023-01-18_08h59.53.384,00_bat_bachelor,2022.2.4,60.066954605784794,
,,,,,,,,,,,,0,0,0,0,54,0,54,0,,,,,,,54,,,1,706.5835056564829,Y,l,go,l,1,0.31563123906380497,,,,,,,,,,,,,,,,,38,001,20,w,Psychologie,2023-01-18_08h59.53.384,00_bat_bachelor,2022.2.4,60.066954605784794,
,,,,,,,,,,,,0,0,0,0,55,0,55,0,,,,,,,55,,,1,708.0001973332546,X,d,go,d,1,0.54730724793626,,,,,,,,,,,,,,,,,38,001,20,w,Psychologie,2023-01-18_08h59.53.384,00_bat_bachelor,2022.2.4,60.066954605784794,
,,,,,,,,,,,,0,0,0,0,56,0,56,0,,,,,,,56,,,1,709.6501461090229,X,None,nogo,None,1,,710.4499512969924,,,,,,,,,,,,,,,,38,001,20,w,Psychologie,2023-01-18_08h59.53.384,00_bat_bachelor,2022.2.4,60.066954605784794,
,,,,,,,,,,,,0,0,0,0,57,0,57,0,,,,,,,57,,,1,711.4500012363715,X,None,nogo,None,1,,712.2501870302076,,,,,,,,,,,,,,,,38,001,20,w,Psychologie,2023-01-18_08h59.53.384,00_bat_bachelor,2022.2.4,60.066954605784794,
,,,,,,,,,,,,0,0,0,0,58,0,58,0,,,,,,,58,,,1,713.2501482423686,Y,l,go,l,1,0.28960264558554627,,,,,,,,,,,,,,,,,38,001,20,w,Psychologie,2023-01-18_08h59.53.384,00_bat_bachelor,2022.2.4,60.066954605784794,
,,,,,,,,,,,,0,0,0,0,59,0,59,0,,,,,,,59,,,1,714.6499730182113,X,d,go,d,1,0.40956816318794154,,,,,,,,,,,,,,,,,38,001,20,w,Psychologie,2023-01-18_08h59.53.384,00_bat_bachelor,2022.2.4,60.066954605784794,
,,,,,,,,,,,,0,0,0,0,60,0,60,0,,,,,,,60,,,1,716.1665114344214,X,None,nogo,None,1,,716.9668882584956,,,,,,,,,,,,,,,,38,001,20,w,Psychologie,2023-01-18_08h59.53.384,00_bat_bachelor,2022.2.4,60.066954605784794,
,,,,,,,,,,,,0,0,0,0,61,0,61,0,,,,,,,61,,,1,717.9668523797009,Y,l,go,l,1,0.40497131695155986,,,,,,,,,,,,,,,,,38,001,20,w,Psychologie,2023-01-18_08h59.53.384,00_bat_bachelor,2022.2.4,60.066954605784794,
,,,,,,,,,,,,0,0,0,0,62,0,62,0,,,,,,,62,,,1,719.4835406140483,X,d,go,None,0,,720.283228468732,,,,,,,,,,,,,,,,38,001,20,w,Psychologie,2023-01-18_08h59.53.384,00_bat_bachelor,2022.2.4,60.066954605784794,
,,,,,,,,,,,,0,0,0,0,63,0,63,0,,,,,,,63,,,1,721.2832837414462,Y,l,go,l,1,0.4002411373949144,,,,,,,,,,,,,,,,,38,001,20,w,Psychologie,2023-01-18_08h59.53.384,00_bat_bachelor,2022.2.4,60.066954605784794,
,,,,,,,,,,,,0,0,0,0,64,0,64,0,,,,,,,64,,,1,722.8005077331036,X,d,go,d,1,0.4189659768017009,,,,,,,,,,,,,,,,,38,001,20,w,Psychologie,2023-01-18_08h59.53.384,00_bat_bachelor,2022.2.4,60.066954605784794,
,,,,,,,,,,,,0,0,0,0,65,0,65,0,,,,,,,65,,,1,724.3335111110355,Y,l,go,l,1,0.3427255289279856,,,,,,,,,,,,,,,,,38,001,20,w,Psychologie,2023-01-18_08h59.53.384,00_bat_bachelor,2022.2.4,60.066954605784794,
,,,,,,,,,,,,0,0,0,0,66,0,66,0,,,,,,,66,,,1,725.7833019232494,X,d,go,d,1,0.41267264654743485,,,,,,,,,,,,,,,,,38,001,20,w,Psychologie,2023-01-18_08h59.53.384,00_bat_bachelor,2022.2.4,60.066954605784794,
,,,,,,,,,,,,0,0,0,0,67,0,67,0,,,,,,,67,,,1,727.3002514907857,Y,l,go,l,1,0.4798954018333461,,,,,,,,,,,,,,,,,38,001,20,w,Psychologie,2023-01-18_08h59.53.384,00_bat_bachelor,2022.2.4,60.066954605784794,
,,,,,,,,,,,,0,0,0,0,68,0,68,0,,,,,,,68,,,1,728.8835084201128,X,d,go,d,1,0.3522911000472959,,,,,,,,,,,,,,,,,38,001,20,w,Psychologie,2023-01-18_08h59.53.384,00_bat_bachelor,2022.2.4,60.066954605784794,
,,,,,,,,,,,,0,0,0,0,69,0,69,0,,,,,,,69,,,1,730.3505089209648,Y,l,go,l,1,0.5168999899469782,,,,,,,,,,,,,,,,,38,001,20,w,Psychologie,2023-01-18_08h59.53.384,00_bat_bachelor,2022.2.4,60.066954605784794,
,,,,,,,,,,,,0,0,0,0,70,0,70,0,,,,,,,70,,,1,731.9665115313837,Y,None,nogo,None,1,,732.7665111435053,,,,,,,,,,,,,,,,38,001,20,w,Psychologie,2023-01-18_08h59.53.384,00_bat_bachelor,2022.2.4,60.066954605784794,
,,,,,,,,,,,,0,0,0,0,71,0,71,0,,,,,,,71,,,1,733.7668650827254,X,d,go,d,1,0.5246755013067741,,,,,,,,,,,,,,,,,38,001,20,w,Psychologie,2023-01-18_08h59.53.384,00_bat_bachelor,2022.2.4,60.066954605784794,
,,,,,,,,,,,,0,0,0,0,72,0,72,0,,,,,,,72,,,1,735.4001811393246,Y,l,go,l,1,0.49110121454577893,,,,,,,,,,,,,,,,,38,001,20,w,Psychologie,2023-01-18_08h59.53.384,00_bat_bachelor,2022.2.4,60.066954605784794,
,,,,,,,,,,,,0,0,0,0,73,0,73,0,,,,,,,73,,,1,737.0001759999141,X,d,go,d,1,0.5074449642270338,,,,,,,,,,,,,,,,,38,001,20,w,Psychologie,2023-01-18_08h59.53.384,00_bat_bachelor,2022.2.4,60.066954605784794,
,,,,,,,,,,,,0,0,0,0,74,0,74,0,,,,,,,74,,,1,738.6164855192765,Y,l,go,l,1,0.4271414880058728,,,,,,,,,,,,,,,,,38,001,20,w,Psychologie,2023-01-18_08h59.53.384,00_bat_bachelor,2022.2.4,60.066954605784794,
,,,,,,,,,,,,0,0,0,0,75,0,75,0,,,,,,,75,,,1,740.1501982301997,X,d,go,d,1,0.492961577285314,,,,,,,,,,,,,,,,,38,001,20,w,Psychologie,2023-01-18_08h59.53.384,00_bat_bachelor,2022.2.4,60.066954605784794,
,,,,,,,,,,,,0,0,0,0,76,0,76,0,,,,,,,76,,,1,741.7501639999391,Y,l,go,l,1,0.36485691214329563,,,,,,,,,,,,,,,,,38,001,20,w,Psychologie,2023-01-18_08h59.53.384,00_bat_bachelor,2022.2.4,60.066954605784794,
,,,,,,,,,,,,0,0,0,0,77,0,77,0,,,,,,,77,,,1,743.2168445009156,X,d,go,d,1,0.3389892883133143,,,,,,,,,,,,,,,,,38,001,20,w,Psychologie,2023-01-18_08h59.53.384,00_bat_bachelor,2022.2.4,60.066954605784794,
,,,,,,,,,,,,0,0,0,0,78,0,78,0,,,,,,,78,,,1,744.6665082829131,Y,l,go,l,1,0.5370808286243118,,,,,,,,,,,,,,,,,38,001,20,w,Psychologie,2023-01-18_08h59.53.384,00_bat_bachelor,2022.2.4,60.066954605784794,
,,,,,,,,,,,,0,0,0,0,79,0,79,0,,,,,,,79,,,1,746.3169351190736,Y,None,nogo,None,1,,747.1165187314036,,,,,,,,,,,,,,,,38,001,20,w,Psychologie,2023-01-18_08h59.53.384,00_bat_bachelor,2022.2.4,60.066954605784794,
,,,,,,,,,,,,0,0,0,0,80,0,80,0,,,,,,,80,,,1,748.1165090344148,X,d,go,d,1,0.36658248704043217,,,,,,,,,,,,,,,,,38,001,20,w,Psychologie,2023-01-18_08h59.53.384,00_bat_bachelor,2022.2.4,60.066954605784794,
,,,,,,,,,,,,0,0,0,0,81,0,81,0,,,,,,,81,,,1,749.583208929369,Y,l,go,l,1,0.32393523503560573,,,,,,,,,,,,,,,,,38,001,20,w,Psychologie,2023-01-18_08h59.53.384,00_bat_bachelor,2022.2.4,60.066954605784794,
,,,,,,,,,,,,0,0,0,0,82,0,82,0,,,,,,,82,,,1,751.0168625372753,X,d,go,d,1,0.44377129813074134,,,,,,,,,,,,,,,,,38,001,20,w,Psychologie,2023-01-18_08h59.53.384,00_bat_bachelor,2022.2.4,60.066954605784794,
,,,,,,,,,,,,0,0,0,0,83,0,83,0,,,,,,,83,,,1,752.566855482728,X,None,nogo,None,1,,753.3667523070471,,,,,,,,,,,,,,,,38,001,20,w,Psychologie,2023-01-18_08h59.53.384,00_bat_bachelor,2022.2.4,60.066954605784794,
,,,,,,,,,,,,0,0,0,0,84,0,84,0,,,,,,,84,,,1,754.3668410342652,X,None,nogo,d,0,0.5815952312841546,,,,,,,,,,,,,,,,,38,001,20,w,Psychologie,2023-01-18_08h59.53.384,00_bat_bachelor,2022.2.4,60.066954605784794,
,,,,,,,,,,,,0,0,0,0,85,0,85,0,,,,,,,85,,,1,756.0501604605233,Y,l,go,l,1,0.513580718805315,,,,,,,,,,,,,,,,,38,001,20,w,Psychologie,2023-01-18_08h59.53.384,00_bat_bachelor,2022.2.4,60.066954605784794,
,,,,,,,,,,,,0,0,0,0,86,0,86,0,,,,,,,86,,,1,757.6668413736625,X,d,go,None,0,,758.4668351676082,,,,,,,,,,,,,,,,38,001,20,w,Psychologie,2023-01-18_08h59.53.384,00_bat_bachelor,2022.2.4,60.066954605784794,
,,,,,,,,,,,,0,0,0,0,87,0,87,0,,,,,,,87,,,1,759.4665195313864,X,None,nogo,None,1,,760.2668338100193,,,,,,,,,,,,,,,,38,001,20,w,Psychologie,2023-01-18_08h59.53.384,00_bat_bachelor,2022.2.4,60.066954605784794,
,,,,,,,,,,,,0,0,0,0,88,0,88,0,,,,,,,88,,,1,761.2668333251786,Y,l,go,l,1,0.38477253884775564,,,,,,,,,,,,,,,,,38,001,20,w,Psychologie,2023-01-18_08h59.53.384,00_bat_bachelor,2022.2.4,60.066954605784794,
,,,,,,,,,,,,0,0,0,0,89,0,89,0,,,,,,,89,,,1,762.7668209615513,X,d,go,d,1,0.4362081502622459,,,,,,,,,,,,,,,,,38,001,20,w,Psychologie,2023-01-18_08h59.53.384,00_bat_bachelor,2022.2.4,60.066954605784794,
,,,,,,,,,,,,0,0,0,0,90,0,90,0,,,,,,,90,,,1,764.3168187554984,X,None,nogo,None,1,,765.1168057615578,,,,,,,,,,,,,,,,38,001,20,w,Psychologie,2023-01-18_08h59.53.384,00_bat_bachelor,2022.2.4,60.066954605784794,
,,,,,,,,,,,,0,0,0,0,91,0,91,0,,,,,,,91,,,1,766.1168721857539,Y,l,go,l,1,0.2707633820245974,,,,,,,,,,,,,,,,,38,001,20,w,Psychologie,2023-01-18_08h59.53.384,00_bat_bachelor,2022.2.4,60.066954605784794,
,,,,,,,,,,,,0,0,0,0,92,0,92,0,,,,,,,92,,,1,767.5003376968089,X,d,go,d,1,0.45470802011550404,,,,,,,,,,,,,,,,,38,001,20,w,Psychologie,2023-01-18_08h59.53.384,00_bat_bachelor,2022.2.4,60.066954605784794,
,,,,,,,,,,,,0,0,0,0,93,0,93,0,,,,,,,93,,,1,769.0668290585163,Y,l,go,l,1,0.4886221854540054,,,,,,,,,,,,,,,,,38,001,20,w,Psychologie,2023-01-18_08h59.53.384,00_bat_bachelor,2022.2.4,60.066954605784794,
,,,,,,,,,,,,0,0,0,0,94,0,94,0,,,,,,,94,,,1,770.6667056161386,Y,None,nogo,None,1,,771.4668143191375,,,,,,,,,,,,,,,,38,001,20,w,Psychologie,2023-01-18_08h59.53.384,00_bat_bachelor,2022.2.4,60.066954605784794,
,,,,,,,,,,,,0,0,0,0,95,0,95,0,,,,,,,95,,,1,772.4668264403299,X,d,go,d,1,0.35242831212235615,,,,,,,,,,,,,,,,,38,001,20,w,Psychologie,2023-01-18_08h59.53.384,00_bat_bachelor,2022.2.4,60.066954605784794,
,,,,,,,,,,,,0,0,0,0,96,0,96,0,,,,,,,96,,,1,773.9332456081174,Y,l,go,l,1,0.43834051286103204,,,,,,,,,,,,,,,,,38,001,20,w,Psychologie,2023-01-18_08h59.53.384,00_bat_bachelor,2022.2.4,60.066954605784794,
,,,,,,,,,,,,0,0,0,0,97,0,97,0,,,,,,,97,,,1,775.4831546748464,X,d,go,d,1,0.5669726929336321,,,,,,,,,,,,,,,,,38,001,20,w,Psychologie,2023-01-18_08h59.53.384,00_bat_bachelor,2022.2.4,60.066954605784794,
,,,,,,,,,,,,0,0,0,0,98,0,98,0,,,,,,,98,,,1,777.1668188282056,Y,l,go,l,1,0.276745439710794,,,,,,,,,,,,,,,,,38,001,20,w,Psychologie,2023-01-18_08h59.53.384,00_bat_bachelor,2022.2.4,60.066954605784794,
,,,,,,,,,,,,0,0,0,0,99,0,99,0,,,,,,,99,,,1,778.5498557334067,X,d,go,d,1,0.3815075707389042,,,,,,,,,,,,,,,,,38,001,20,w,Psychologie,2023-01-18_08h59.53.384,00_bat_bachelor,2022.2.4,60.066954605784794,
,,,,,,,,,,,,0,0,0,0,100,0,100,0,,,,,,,100,,,1,780.033487014065,Y,l,go,l,1,0.32286420522723347,,,,,,,,,,,,,,,,,38,001,20,w,Psychologie,2023-01-18_08h59.53.384,00_bat_bachelor,2022.2.4,60.066954605784794,
,,,,,,,,,,,,0,0,0,0,101,0,101,0,,,,,,,101,,,1,781.4668826827256,Y,None,nogo,d,0,0.3288923235377297,,,,,,,,,,,,,,,,,38,001,20,w,Psychologie,2023-01-18_08h59.53.384,00_bat_bachelor,2022.2.4,60.066954605784794,
,,,,,,,,,,,,0,0,0,0,102,0,102,0,,,,,,,102,,,1,782.9000019878731,X,d,go,d,1,0.4146915546443779,,,,,,,,,,,,,,,,,38,001,20,w,Psychologie,2023-01-18_08h59.53.384,00_bat_bachelor,2022.2.4,60.066954605784794,
,,,,,,,,,,,,0,0,0,0,103,0,103,0,,,,,,,103,,,1,784.416806100955,Y,l,go,l,1,0.6595214965345804,,,,,,,,,,,,,,,,,38,001,20,w,Psychologie,2023-01-18_08h59.53.384,00_bat_bachelor,2022.2.4,60.066954605784794,
,,,,,,,,,,,,0,0,0,0,104,0,104,0,,,,,,,104,,,1,786.1832600323542,X,d,go,d,1,0.38162490402464755,,,,,,,,,,,,,,,,,38,001,20,w,Psychologie,2023-01-18_08h59.53.384,00_bat_bachelor,2022.2.4,60.066954605784794,
,,,,,,,,,,,,0,0,0,0,105,0,105,0,,,,,,,105,,,1,787.6668084039702,X,None,nogo,None,1,,788.4668371070002,,,,,,,,,,,,,,,,38,001,20,w,Psychologie,2023-01-18_08h59.53.384,00_bat_bachelor,2022.2.4,60.066954605784794,
,,,,,,,,,,,,0,0,0,0,106,0,106,0,,,,,,,106,,,1,789.4666135919397,Y,l,go,l,1,0.3297243231208995,,,,,,,,,,,,,,,,,38,001,20,w,Psychologie,2023-01-18_08h59.53.384,00_bat_bachelor,2022.2.4,60.066954605784794,
,,,,,,,,,,,,0,0,0,0,107,0,107,0,,,,,,,107,,,1,790.9001290181186,X,d,go,d,1,0.6069038250716403,,,,,,,,,,,,,,,,,38,001,20,w,Psychologie,2023-01-18_08h59.53.384,00_bat_bachelor,2022.2.4,60.066954605784794,
,,,,,,,,,,,,0,0,0,0,108,0,108,0,,,,,,,108,,,1,792.6164937617141,X,None,nogo,None,1,,793.4168070706364,,,,,,,,,,,,,,,,38,001,20,w,Psychologie,2023-01-18_08h59.53.384,00_bat_bachelor,2022.2.4,60.066954605784794,
,,,,,,,,,,,,0,0,0,0,109,0,109,0,,,,,,,109,,,1,794.4169680402556,Y,l,go,l,1,0.19515226714429446,,,,,,,,,,,,,,,,,38,001,20,w,Psychologie,2023-01-18_08h59.53.384,00_bat_bachelor,2022.2.4,60.066954605784794,
,,,,,,,,,,,,0,0,0,0,110,0,110,0,,,,,,,110,,,1,795.7164903192897,X,d,go,d,1,0.36712454742519185,,,,,,,,,,,,,,,,,38,001,20,w,Psychologie,2023-01-18_08h59.53.384,00_bat_bachelor,2022.2.4,60.066954605784794,
,,,,,,,,,,,,0,0,0,0,111,0,111,0,,,,,,,111,,,1,797.1834224565246,X,None,nogo,None,1,,797.9834904322634,,,,,,,,,,,,,,,,38,001,20,w,Psychologie,2023-01-18_08h59.53.384,00_bat_bachelor,2022.2.4,60.066954605784794,
,,,,,,,,,,,,0,0,0,0,112,0,112,0,,,,,,,112,,,1,798.9834758868092,Y,l,go,l,1,0.46126995628583245,,,,,,,,,,,,,,,,,38,001,20,w,Psychologie,2023-01-18_08h59.53.384,00_bat_bachelor,2022.2.4,60.066954605784794,
,,,,,,,,,,,,0,0,0,0,113,0,113,0,,,,,,,113,,,1,800.549790278892,X,d,go,d,1,0.5901038332376629,,,,,,,,,,,,,,,,,38,001,20,w,Psychologie,2023-01-18_08h59.53.384,00_bat_bachelor,2022.2.4,60.066954605784794,
,,,,,,,,,,,,0,0,0,0,114,0,114,0,,,,,,,114,,,1,802.2501341817551,Y,l,go,l,1,0.6491030773613602,,,,,,,,,,,,,,,,,38,001,20,w,Psychologie,2023-01-18_08h59.53.384,00_bat_bachelor,2022.2.4,60.066954605784794,
,,,,,,,,,,,,0,0,0,0,115,0,115,0,,,,,,,115,,,1,804.0178991428402,X,d,go,d,1,0.40173495485214517,,,,,,,,,,,,,,,,,38,001,20,w,Psychologie,2023-01-18_08h59.53.384,00_bat_bachelor,2022.2.4,60.066954605784794,
,,,,,,,,,,,,0,0,0,0,116,0,116,0,,,,,,,116,,,1,805.5678276034887,Y,l,go,l,1,0.24414472823264077,,,,,,,,,,,,,,,,,38,001,20,w,Psychologie,2023-01-18_08h59.53.384,00_bat_bachelor,2022.2.4,60.066954605784794,
,,,,,,,,,,,,0,0,0,0,117,0,117,0,,,,,,,117,,,1,806.9509731146973,Y,None,nogo,d,0,0.3164288144034799,,,,,,,,,,,,,,,,,38,001,20,w,Psychologie,2023-01-18_08h59.53.384,00_bat_bachelor,2022.2.4,60.066954605784794,
,,,,,,,,,,,,0,0,0,0,118,0,118,0,,,,,,,118,,,1,808.4011135025066,X,d,go,d,1,0.30517694109585136,,,,,,,,,,,,,,,,,38,001,20,w,Psychologie,2023-01-18_08h59.53.384,00_bat_bachelor,2022.2.4,60.066954605784794,
,,,,,,,,,,,,0,0,0,0,119,0,119,0,,,,,,,119,,,1,809.8510507388855,Y,l,go,l,1,0.4399904514721129,,,,,,,,,,,,,,,,,38,001,20,w,Psychologie,2023-01-18_08h59.53.384,00_bat_bachelor,2022.2.4,60.066954605784794,
,,,,,,,,,,,,0,0,0,0,120,0,120,0,,,,,,,120,,,1,811.4336090018915,X,d,go,None,0,,812.2337526139454,,,,,,,,,,,,,,,,38,001,20,w,Psychologie,2023-01-18_08h59.53.384,00_bat_bachelor,2022.2.4,60.066954605784794,
,,,,,,,,,,,,0,0,0,0,121,0,121,0,,,,,,,121,,,1,813.2335984322126,Y,l,go,l,1,0.3863395683874842,,,,,,,,,,,,,,,,,38,001,20,w,Psychologie,2023-01-18_08h59.53.384,00_bat_bachelor,2022.2.4,60.066954605784794,
,,,,,,,,,,,,0,0,0,0,122,0,122,0,,,,,,,122,,,1,814.7334120080341,Y,None,nogo,None,1,,815.5335182867711,,,,,,,,,,,,,,,,38,001,20,w,Psychologie,2023-01-18_08h59.53.384,00_bat_bachelor,2022.2.4,60.066954605784794,
,,,,,,,,,,,,0,0,0,0,123,0,123,0,,,,,,,123,,,1,816.5336055594671,X,d,go,d,1,0.39826974441530183,,,,,,,,,,,,,,,,,38,001,20,w,Psychologie,2023-01-18_08h59.53.384,00_bat_bachelor,2022.2.4,60.066954605784794,
,,,,,,,,,,,,0,0,0,0,124,0,124,0,,,,,,,124,,,1,818.0501211878145,Y,l,go,l,1,0.43329809108399786,,,,,,,,,,,,,,,,,38,001,20,w,Psychologie,2023-01-18_08h59.53.384,00_bat_bachelor,2022.2.4,60.066954605784794,
,,,,,,,,,,,,0,0,0,0,125,0,125,0,,,,,,,125,,,1,819.58327002023,X,d,go,d,1,0.3243473560141865,,,,,,,,,,,,,,,,,38,001,20,w,Psychologie,2023-01-18_08h59.53.384,00_bat_bachelor,2022.2.4,60.066954605784794,
,,,,,,,,,,,,0,0,0,0,126,0,126,0,,,,,,,126,,,1,821.0165764768026,X,None,nogo,None,1,,821.8168112403364,,,,,,,,,,,,,,,,38,001,20,w,Psychologie,2023-01-18_08h59.53.384,00_bat_bachelor,2022.2.4,60.066954605784794,
,,,,,,,,,,,,0,0,0,0,127,0,127,0,,,,,,,127,,,1,822.8168029979279,Y,l,go,l,1,0.48230170368333347,,,,,,,,,,,,,,,,,38,001,20,w,Psychologie,2023-01-18_08h59.53.384,00_bat_bachelor,2022.2.4,60.066954605784794,
,,,,,,,,,,,,0,0,0,0,128,0,128,0,,,,,,,128,,,1,824.4002150786982,X,d,go,d,1,0.3239357198763173,,,,,,,,,,,,,,,,,38,001,20,w,Psychologie,2023-01-18_08h59.53.384,00_bat_bachelor,2022.2.4,60.066954605784794,
,,,,,,,,,,,,0,0,0,0,129,0,129,0,,,,,,,129,,,1,825.8334546262049,Y,l,go,l,1,0.3629626100300811,,,,,,,,,,,,,,,,,38,001,20,w,Psychologie,2023-01-18_08h59.53.384,00_bat_bachelor,2022.2.4,60.066954605784794,
,,,,,,,,,,,,0,0,0,0,130,0,130,0,,,,,,,130,,,1,827.3002199756447,Y,None,nogo,None,1,,828.1001264969236,,,,,,,,,,,,,,,,38,001,20,w,Psychologie,2023-01-18_08h59.53.384,00_bat_bachelor,2022.2.4,60.066954605784794,
,,,,,,,,,,,,0,0,0,0,131,0,131,0,,,,,,,131,,,1,829.1001260120538,X,d,go,d,1,0.23004825023235753,,,,,,,,,,,,,,,,,38,001,20,w,Psychologie,2023-01-18_08h59.53.384,00_bat_bachelor,2022.2.4,60.066954605784794,
,,,,,,,,,,,,0,0,0,0,132,0,132,0,,,,,,,132,,,1,830.4499338424648,Y,l,go,l,1,0.5302405895199627,,,,,,,,,,,,,,,,,38,001,20,w,Psychologie,2023-01-18_08h59.53.384,00_bat_bachelor,2022.2.4,60.066954605784794,
,,,,,,,,,,,,0,0,0,0,133,0,133,0,,,,,,,133,,,1,832.0831432324194,X,d,go,d,1,0.4002498647023458,,,,,,,,,,,,,,,,,38,001,20,w,Psychologie,2023-01-18_08h59.53.384,00_bat_bachelor,2022.2.4,60.066954605784794,
,,,,,,,,,,,,0,0,0,0,134,0,134,0,,,,,,,134,,,1,833.5831803233013,Y,l,go,l,1,0.40386343869613484,,,,,,,,,,,,,,,,,38,001,20,w,Psychologie,2023-01-18_08h59.53.384,00_bat_bachelor,2022.2.4,60.066954605784794,
,,,,,,,,,,,,0,0,0,0,135,0,135,0,,,,,,,135,,,1,835.1002127999091,X,d,go,d,1,0.4080457396921702,,,,,,,,,,,,,,,,,38,001,20,w,Psychologie,2023-01-18_08h59.53.384,00_bat_bachelor,2022.2.4,60.066954605784794,
,,,,,,,,,,,,0,0,0,0,136,0,136,0,,,,,,,136,,,1,836.6167769130843,Y,l,go,l,1,0.3787672084290534,,,,,,,,,,,,,,,,,38,001,20,w,Psychologie,2023-01-18_08h59.53.384,00_bat_bachelor,2022.2.4,60.066954605784794,
,,,,,,,,,,,,0,0,0,0,137,0,137,0,,,,,,,137,,,1,838.0997934061743,X,d,go,d,1,0.4639506822859403,,,,,,,,,,,,,,,,,38,001,20,w,Psychologie,2023-01-18_08h59.53.384,00_bat_bachelor,2022.2.4,60.066954605784794,
,,,,,,,,,,,,0,0,0,0,138,0,138,0,,,,,,,138,,,1,839.6668030706351,Y,l,go,l,1,0.40049374336376786,,,,,,,,,,,,,,,,,38,001,20,w,Psychologie,2023-01-18_08h59.53.384,00_bat_bachelor,2022.2.4,60.066954605784794,
,,,,,,,,,,,,0,0,0,0,139,0,139,0,,,,,,,139,,,1,841.1667785858153,X,d,go,d,1,0.42011215808452107,,,,,,,,,,,,,,,,,38,001,20,w,Psychologie,2023-01-18_08h59.53.384,00_bat_bachelor,2022.2.4,60.066954605784794,
,,,,,,,,,,,,0,0,0,0,140,0,140,0,,,,,,,140,,,1,842.7001262060076,X,None,nogo,None,1,,843.4998024243396,,,,,,,,,,,,,,,,38,001,20,w,Psychologie,2023-01-18_08h59.53.384,00_bat_bachelor,2022.2.4,60.066954605784794,
,,,,,,,,,,,,0,0,0,0,141,0,141,0,,,,,,,141,,,1,844.4999663030612,X,None,nogo,None,1,,845.2998059152451,,,,,,,,,,,,,,,,38,001,20,w,Psychologie,2023-01-18_08h59.53.384,00_bat_bachelor,2022.2.4,60.066954605784794,
,,,,,,,,,,,,0,0,0,0,142,0,142,0,,,,,,,142,,,1,846.2997705213202,Y,l,go,l,1,0.3590697634208482,,,,,,,,,,,,,,,,,38,001,20,w,Psychologie,2023-01-18_08h59.53.384,00_bat_bachelor,2022.2.4,60.066954605784794,
,,,,,,,,,,,,0,0,0,0,143,0,143,0,,,,,,,143,,,1,847.7667681130988,X,d,go,d,1,0.41297325247433037,,,,,,,,,,,,,,,,,38,001,20,w,Psychologie,2023-01-18_08h59.53.384,00_bat_bachelor,2022.2.4,60.066954605784794,
,,,,,,,,,,,,0,0,0,0,144,0,144,0,,,,,,,144,,,1,849.283384105016,X,None,nogo,None,1,,850.0834578989306,,,,,,,,,,,,,,,,38,001,20,w,Psychologie,2023-01-18_08h59.53.384,00_bat_bachelor,2022.2.4,60.066954605784794,
,,,,,,,,,,,,0,0,0,0,145,0,145,0,,,,,,,145,,,1,851.0831718384579,Y,l,go,l,1,0.4410556630755309,,,,,,,,,,,,,,,,,38,001,20,w,Psychologie,2023-01-18_08h59.53.384,00_bat_bachelor,2022.2.4,60.066954605784794,
,,,,,,,,,,,,0,0,0,0,146,0,146,0,,,,,,,146,,,1,852.6332302384253,X,d,go,d,1,0.5856747444486246,,,,,,,,,,,,,,,,,38,001,20,w,Psychologie,2023-01-18_08h59.53.384,00_bat_bachelor,2022.2.4,60.066954605784794,
,,,,,,,,,,,,0,0,0,0,147,0,147,0,,,,,,,147,,,1,854.333080080949,Y,l,go,l,1,0.38978490003501065,,,,,,,,,,,,,,,,,38,001,20,w,Psychologie,2023-01-18_08h59.53.384,00_bat_bachelor,2022.2.4,60.066954605784794,
,,,,,,,,,,,,0,0,0,0,148,0,148,0,,,,,,,148,,,1,855.833461898932,X,d,go,d,1,0.45776013983413577,,,,,,,,,,,,,,,,,38,001,20,w,Psychologie,2023-01-18_08h59.53.384,00_bat_bachelor,2022.2.4,60.066954605784794,
,,,,,,,,,,,,0,0,0,0,149,0,149,0,,,,,,,149,,,1,857.3998519273591,Y,l,go,l,1,0.44435408571735024,,,,,,,,,,,,,,,,,38,001,20,w,Psychologie,2023-01-18_08h59.53.384,00_bat_bachelor,2022.2.4,60.066954605784794,
,,,,,,,,,,,,0,0,0,0,150,0,150,0,,,,,,,150,,,1,858.9501226908469,Y,None,nogo,None,1,,859.7501591514447,,,,,,,,,,,,,,,,38,001,20,w,Psychologie,2023-01-18_08h59.53.384,00_bat_bachelor,2022.2.4,60.066954605784794,
,,,,,,,,,,,,0,0,0,0,151,0,151,0,,,,,,,151,,,1,860.7497979394975,X,d,go,d,1,0.22975685642450117,,,,,,,,,,,,,,,,,38,001,20,w,Psychologie,2023-01-18_08h59.53.384,00_bat_bachelor,2022.2.4,60.066954605784794,
,,,,,,,,,,,,0,0,0,0,152,0,152,0,,,,,,,152,,,1,862.0831020203186,Y,l,go,l,1,0.43174415244720876,,,,,,,,,,,,,,,,,38,001,20,w,Psychologie,2023-01-18_08h59.53.384,00_bat_bachelor,2022.2.4,60.066954605784794,
,,,,,,,,,,,,0,0,0,0,153,0,153,0,,,,,,,153,,,1,863.6167778827657,X,d,go,d,1,0.35410103856702335,,,,,,,,,,,,,,,,,38,001,20,w,Psychologie,2023-01-18_08h59.53.384,00_bat_bachelor,2022.2.4,60.066954605784794,
,,,,,,,,,,,,0,0,0,0,154,0,154,0,,,,,,,154,,,1,865.0834273535002,Y,l,go,l,1,0.3293180202890653,,,,,,,,,,,,,,,,,38,001,20,w,Psychologie,2023-01-18_08h59.53.384,00_bat_bachelor,2022.2.4,60.066954605784794,
,,,,,,,,,,,,0,0,0,0,155,0,155,0,,,,,,,155,,,1,866.516772113071,Y,None,nogo,None,1,,867.3167615433922,,,,,,,,,,,,,,,,38,001,20,w,Psychologie,2023-01-18_08h59.53.384,00_bat_bachelor,2022.2.4,60.066954605784794,
,,,,,,,,,,,,0,0,0,0,156,0,156,0,,,,,,,156,,,1,868.3164391193131,X,d,go,d,1,0.1827406368101947,,,,,,,,,,,,,,,,,38,001,20,w,Psychologie,2023-01-18_08h59.53.384,00_bat_bachelor,2022.2.4,60.066954605784794,
,,,,,,,,,,,,0,0,0,0,157,0,157,0,,,,,,,157,,,1,869.6000583757414,Y,l,go,l,1,0.26040459916112013,,,,,,,,,,,,,,,,,38,001,20,w,Psychologie,2023-01-18_08h59.53.384,00_bat_bachelor,2022.2.4,60.066954605784794,
,,,,,,,,,,,,0,0,0,0,158,0,158,0,,,,,,,158,,,1,870.9667767433857,Y,None,nogo,None,1,,871.7664418102067,,,,,,,,,,,,,,,,38,001,20,w,Psychologie,2023-01-18_08h59.53.384,00_bat_bachelor,2022.2.4,60.066954605784794,
,,,,,,,,,,,,0,0,0,0,159,0,159,0,,,,,,,159,,,1,872.7668820524123,X,d,go,d,1,0.21341989465872757,,,,,,,,,,,,,,,,,38,001,20,w,Psychologie,2023-01-18_08h59.53.384,00_bat_bachelor,2022.2.4,60.066954605784794,
,,,,,,,,,,,,0,0,0,0,160,0,160,0,,,,,,,160,,,1,874.0832542626595,Y,l,go,l,1,0.3356782596092671,,,,,,,,,,,,,,,,,38,001,20,w,Psychologie,2023-01-18_08h59.53.384,00_bat_bachelor,2022.2.4,60.066954605784794,
,,,,,,,,,,,,0,0,0,0,161,0,161,0,,,,,,,161,,,1,875.5334819231648,X,d,go,d,1,0.27906155979144387,,,,,,,,,,,,,,,,,38,001,20,w,Psychologie,2023-01-18_08h59.53.384,00_bat_bachelor,2022.2.4,60.066954605784794,
,,,,,,,,,,,,0,0,0,0,162,0,162,0,,,,,,,162,,,1,876.9166957979614,Y,l,go,l,1,0.28724143462022766,,,,,,,,,,,,,,,,,38,001,20,w,Psychologie,2023-01-18_08h59.53.384,00_bat_bachelor,2022.2.4,60.066954605784794,
,,,,,,,,,,,,0,0,0,0,163,0,163,0,,,,,,,163,,,1,878.3167227555241,X,d,go,d,1,0.3438334071834106,,,,,,,,,,,,,,,,,38,001,20,w,Psychologie,2023-01-18_08h59.53.384,00_bat_bachelor,2022.2.4,60.066954605784794,
,,,,,,,,,,,,0,0,0,0,164,0,164,0,,,,,,,164,,,1,879.766745325207,Y,l,go,l,1,0.2682547771546524,,,,,,,,,,,,,,,,,38,001,20,w,Psychologie,2023-01-18_08h59.53.384,00_bat_bachelor,2022.2.4,60.066954605784794,
,,,,,,,,,,,,0,0,0,0,165,0,165,0,,,,,,,165,,,1,881.1501482908498,X,d,go,d,1,0.5974177690804936,,,,,,,,,,,,,,,,,38,001,20,w,Psychologie,2023-01-18_08h59.53.384,00_bat_bachelor,2022.2.4,60.066954605784794,
,,,,,,,,,,,,0,0,0,0,166,0,166,0,,,,,,,166,,,1,882.8499840727309,Y,l,go,l,1,0.4333756667911075,,,,,,,,,,,,,,,,,38,001,20,w,Psychologie,2023-01-18_08h59.53.384,00_bat_bachelor,2022.2.4,60.066954605784794,
,,,,,,,,,,,,0,0,0,0,167,0,167,0,,,,,,,167,,,1,884.3834204201703,X,d,go,d,1,0.4672932261019014,,,,,,,,,,,,,,,,,38,001,20,w,Psychologie,2023-01-18_08h59.53.384,00_bat_bachelor,2022.2.4,60.066954605784794,
,,,,,,,,,,,,0,0,0,0,168,0,168,0,,,,,,,168,,,1,885.9667491070286,Y,l,go,l,1,0.3568418857466895,,,,,,,,,,,,,,,,,38,001,20,w,Psychologie,2023-01-18_08h59.53.384,00_bat_bachelor,2022.2.4,60.066954605784794,
,,,,,,,,,,,,0,0,0,0,169,0,169,0,,,,,,,169,,,1,887.4330742142629,X,d,go,d,1,0.37905472342390567,,,,,,,,,,,,,,,,,38,001,20,w,Psychologie,2023-01-18_08h59.53.384,00_bat_bachelor,2022.2.4,60.066954605784794,
,,,,,,,,,,,,0,0,0,0,170,0,170,0,,,,,,,170,,,1,888.9166056161921,X,None,nogo,None,1,,889.716706561594,,,,,,,,,,,,,,,,38,001,20,w,Psychologie,2023-01-18_08h59.53.384,00_bat_bachelor,2022.2.4,60.066954605784794,
,,,,,,,,,,,,0,0,0,0,171,0,171,0,,,,,,,171,,,1,890.716728864616,Y,l,go,l,1,0.534764708543662,,,,,,,,,,,,,,,,,38,001,20,w,Psychologie,2023-01-18_08h59.53.384,00_bat_bachelor,2022.2.4,60.066954605784794,
,,,,,,,,,,,,0,0,0,0,172,0,172,0,,,,,,,172,,,1,892.3665612768091,X,d,go,d,1,0.3576486732054036,,,,,,,,,,,,,,,,,38,001,20,w,Psychologie,2023-01-18_08h59.53.384,00_bat_bachelor,2022.2.4,60.066954605784794,
,,,,,,,,,,,,0,0,0,0,173,0,173,0,,,,,,,173,,,1,893.8330919597065,Y,l,go,l,1,0.2505704220966436,,,,,,,,,,,,,,,,,38,001,20,w,Psychologie,2023-01-18_08h59.53.384,00_bat_bachelor,2022.2.4,60.066954605784794,
,,,,,,,,,,,,0,0,0,0,174,0,174,0,,,,,,,174,,,1,895.1997851152555,Y,None,nogo,None,1,,896.0000775757362,,,,,,,,,,,,,,,,38,001,20,w,Psychologie,2023-01-18_08h59.53.384,00_bat_bachelor,2022.2.4,60.066954605784794,
,,,,,,,,,,,,0,0,0,0,175,0,175,0,,,,,,,175,,,1,896.9997803637525,X,d,go,d,1,0.4909223055583425,,,,,,,,,,,,,,,,,38,001,20,w,Psychologie,2023-01-18_08h59.53.384,00_bat_bachelor,2022.2.4,60.066954605784794,
,,,,,,,,,,,,0,0,0,0,176,0,176,0,,,,,,,176,,,1,898.600070012093,Y,l,go,l,1,0.2989796107285656,,,,,,,,,,,,,,,,,38,001,20,w,Psychologie,2023-01-18_08h59.53.384,00_bat_bachelor,2022.2.4,60.066954605784794,
,,,,,,,,,,,,0,0,0,0,177,0,177,0,,,,,,,177,,,1,900.0000867878553,Y,None,nogo,None,1,,900.7997654304199,,,,,,,,,,,,,,,,38,001,20,w,Psychologie,2023-01-18_08h59.53.384,00_bat_bachelor,2022.2.4,60.066954605784794,
,,,,,,,,,,,,0,0,0,0,178,0,178,0,,,,,,,178,,,1,901.8000873696583,X,d,go,d,1,0.2348705509211868,,,,,,,,,,,,,,,,,38,001,20,w,Psychologie,2023-01-18_08h59.53.384,00_bat_bachelor,2022.2.4,60.066954605784794,
,,,,,,,,,,,,0,0,0,0,179,0,179,0,,,,,,,179,,,1,903.150073624216,Y,l,go,l,1,0.29447634020471014,,,,,,,,,,,,,,,,,38,001,20,w,Psychologie,2023-01-18_08h59.53.384,00_bat_bachelor,2022.2.4,60.066954605784794,
,,,,,,,,,,,,0,0,0,0,180,0,180,0,,,,,,,180,,,1,904.5501568241743,Y,None,nogo,None,1,,905.3499547394167,,,,,,,,,,,,,,,,38,001,20,w,Psychologie,2023-01-18_08h59.53.384,00_bat_bachelor,2022.2.4,60.066954605784794,
,,,,,,,,,,,,0,0,0,0,181,0,181,0,,,,,,,181,,,1,906.3498529212957,X,d,go,d,1,0.21404825799982063,,,,,,,,,,,,,,,,,38,001,20,w,Psychologie,2023-01-18_08h59.53.384,00_bat_bachelor,2022.2.4,60.066954605784794,
,,,,,,,,,,,,0,0,0,0,182,0,182,0,,,,,,,182,,,1,907.6665397980541,Y,l,go,l,1,0.44822172020212747,,,,,,,,,,,,,,,,,38,001,20,w,Psychologie,2023-01-18_08h59.53.384,00_bat_bachelor,2022.2.4,60.066954605784794,
,,,,,,,,,,,,0,0,0,0,183,0,183,0,,,,,,,183,,,1,909.2166103192139,Y,None,nogo,None,1,,910.016414537502,,,,,,,,,,,,,,,,38,001,20,w,Psychologie,2023-01-18_08h59.53.384,00_bat_bachelor,2022.2.4,60.066954605784794,
,,,,,,,,,,,,0,0,0,0,184,0,184,0,,,,,,,184,,,1,911.0166715070663,Y,None,nogo,None,1,,911.8170444523566,,,,,,,,,,,,,,,,38,001,20,w,Psychologie,2023-01-18_08h59.53.384,00_bat_bachelor,2022.2.4,60.066954605784794,
,,,,,,,,,,,,0,0,0,0,185,0,185,0,,,,,,,185,,,1,912.8171186341206,X,d,go,d,1,0.28998809994664043,,,,,,,,,,,,,,,,,38,001,20,w,Psychologie,2023-01-18_08h59.53.384,00_bat_bachelor,2022.2.4,60.066954605784794,
,,,,,,,,,,,,0,0,0,0,186,0,186,0,,,,,,,186,,,1,914.2339121290133,Y,l,go,l,1,0.3780215118313208,,,,,,,,,,,,,,,,,38,001,20,w,Psychologie,2023-01-18_08h59.53.384,00_bat_bachelor,2022.2.4,60.066954605784794,
,,,,,,,,,,,,0,0,0,0,187,0,187,0,,,,,,,187,,,1,915.7168709251564,X,d,go,d,1,0.42987506242934614,,,,,,,,,,,,,,,,,38,001,20,w,Psychologie,2023-01-18_08h59.53.384,00_bat_bachelor,2022.2.4,60.066954605784794,
,,,,,,,,,,,,0,0,0,0,188,0,188,0,,,,,,,188,,,1,917.250297575607,X,None,nogo,None,1,,918.0503597331699,,,,,,,,,,,,,,,,38,001,20,w,Psychologie,2023-01-18_08h59.53.384,00_bat_bachelor,2022.2.4,60.066954605784794,
,,,,,,,,,,,,0,0,0,0,189,0,189,0,,,,,,,189,,,1,919.0501701574831,Y,l,go,l,1,0.44150996589451097,,,,,,,,,,,,,,,,,38,001,20,w,Psychologie,2023-01-18_08h59.53.384,00_bat_bachelor,2022.2.4,60.066954605784794,
,,,,,,,,,,,,0,0,0,0,190,0,190,0,,,,,,,190,,,1,920.6003085574193,X,d,go,None,0,,921.4002611392643,,,,,,,,,,,,,,,,38,001,20,w,Psychologie,2023-01-18_08h59.53.384,00_bat_bachelor,2022.2.4,60.066954605784794,
,,,,,,,,,,,,0,0,0,0,191,0,191,0,,,,,,,191,,,1,922.4001646544784,Y,l,go,l,1,0.3235114776471164,,,,,,,,,,,,,,,,,38,001,20,w,Psychologie,2023-01-18_08h59.53.384,00_bat_bachelor,2022.2.4,60.066954605784794,
,,,,,,,,,,,,0,0,0,0,192,0,192,0,,,,,,,192,,,1,923.833606383705,Y,None,nogo,None,1,,924.6336026018835,,,,,,,,,,,,,,,,38,001,20,w,Psychologie,2023-01-18_08h59.53.384,00_bat_bachelor,2022.2.4,60.066954605784794,
,,,,,,,,,,,,0,0,0,0,193,0,193,0,,,,,,,193,,,1,925.6335754503962,X,d,go,d,1,0.2258145553059876,,,,,,,,,,,,,,,,,38,001,20,w,Psychologie,2023-01-18_08h59.53.384,00_bat_bachelor,2022.2.4,60.066954605784794,
,,,,,,,,,,,,0,0,0,0,194,0,194,0,,,,,,,194,,,1,926.9669061978639,Y,l,go,l,1,0.42800597244058736,,,,,,,,,,,,,,,,,38,001,20,w,Psychologie,2023-01-18_08h59.53.384,00_bat_bachelor,2022.2.4,60.066954605784794,
,,,,,,,,,,,,0,0,0,0,195,0,195,0,,,,,,,195,,,1,928.500027878792,Y,None,nogo,None,1,,929.3002611877455,,,,,,,,,,,,,,,,38,001,20,w,Psychologie,2023-01-18_08h59.53.384,00_bat_bachelor,2022.2.4,60.066954605784794,
,,,,,,,,,,,,0,0,0,0,196,0,196,0,,,,,,,196,,,1,930.3002039756684,X,d,go,d,1,0.1992516590980813,,,,,,,,,,,,,,,,,38,001,20,w,Psychologie,2023-01-18_08h59.53.384,00_bat_bachelor,2022.2.4,60.066954605784794,
,,,,,,,,,,,,0,0,0,0,197,0,197,0,,,,,,,197,,,1,931.5997354667925,Y,l,go,l,1,0.41947070384048857,,,,,,,,,,,,,,,,,38,001,20,w,Psychologie,2023-01-18_08h59.53.384,00_bat_bachelor,2022.2.4,60.066954605784794,
,,,,,,,,,,,,0,0,0,0,198,0,198,0,,,,,,,198,,,1,933.1333807838091,X,d,go,d,1,0.35766224897815846,,,,,,,,,,,,,,,,,38,001,20,w,Psychologie,2023-01-18_08h59.53.384,00_bat_bachelor,2022.2.4,60.066954605784794,
,,,,,,,,,,,,0,0,0,0,199,0,199,0,,,,,,,199,,,1,934.6000632242067,Y,l,go,l,1,0.28348676979658194,,,,,,,,,,,,,,,,,38,001,20,w,Psychologie,2023-01-18_08h59.53.384,00_bat_bachelor,2022.2.4,60.066954605784794,
,,,,,,,,,,,,0,0,0,0,200,0,200,0,,,,,,,200,,,1,935.9834589171223,X,d,go,d,1,0.32528796163387597,,,,,,,,,,,,,,,,,38,001,20,w,Psychologie,2023-01-18_08h59.53.384,00_bat_bachelor,2022.2.4,60.066954605784794,
,,,,,,,,,,,,0,0,0,0,201,0,201,0,,,,,,,201,,,1,937.4167154343158,Y,l,go,l,1,0.31472893644240685,,,,,,,,,,,,,,,,,38,001,20,w,Psychologie,2023-01-18_08h59.53.384,00_bat_bachelor,2022.2.4,60.066954605784794,
,,,,,,,,,,,,0,0,0,0,202,0,202,0,,,,,,,202,,,1,938.8333983838093,Y,None,nogo,None,1,,939.6330498748866,,,,,,,,,,,,,,,,38,001,20,w,Psychologie,2023-01-18_08h59.53.384,00_bat_bachelor,2022.2.4,60.066954605784794,
,,,,,,,,,,,,0,0,0,0,203,0,203,0,,,,,,,203,,,1,940.6336268442974,X,d,go,d,1,0.39486320060677826,,,,,,,,,,,,,,,,,38,001,20,w,Psychologie,2023-01-18_08h59.53.384,00_bat_bachelor,2022.2.4,60.066954605784794,
,,,,,,,,,,,,0,0,0,0,204,0,204,0,,,,,,,204,,,1,942.1332726626715,Y,l,go,l,1,0.3981795626459643,,,,,,,,,,,,,,,,,38,001,20,w,Psychologie,2023-01-18_08h59.53.384,00_bat_bachelor,2022.2.4,60.066954605784794,
,,,,,,,,,,,,0,0,0,0,205,0,205,0,,,,,,,205,,,1,943.6333417535352,X,d,go,d,1,0.337369895161828,,,,,,,,,,,,,,,,,38,001,20,w,Psychologie,2023-01-18_08h59.53.384,00_bat_bachelor,2022.2.4,60.066954605784794,
,,,,,,,,,,,,0,0,0,0,206,0,206,0,,,,,,,206,,,1,945.083358989883,X,None,nogo,l,0,0.28047828638227656,,,,,,,,,,,,,,,,,38,001,20,w,Psychologie,2023-01-18_08h59.53.384,00_bat_bachelor,2022.2.4,60.066954605784794,
,,,,,,,,,,,,0,0,0,0,207,0,207,0,,,,,,,207,,,1,946.4667251070496,Y,l,go,l,1,0.3371648043685127,,,,,,,,,,,,,,,,,38,001,20,w,Psychologie,2023-01-18_08h59.53.384,00_bat_bachelor,2022.2.4,60.066954605784794,
,,,,,,,,,,,,0,0,0,0,208,0,208,0,,,,,,,208,,,1,947.9164073132561,X,d,go,d,1,0.40790901248692535,,,,,,,,,,,,,,,,,38,001,20,w,Psychologie,2023-01-18_08h59.53.384,00_bat_bachelor,2022.2.4,60.066954605784794,
,,,,,,,,,,,,0,0,0,0,209,0,209,0,,,,,,,209,,,1,949.4334426989371,Y,l,go,l,1,0.34716092073358595,,,,,,,,,,,,,,,,,38,001,20,w,Psychologie,2023-01-18_08h59.53.384,00_bat_bachelor,2022.2.4,60.066954605784794,
,,,,,,,,,,,,0,0,0,0,210,0,210,0,,,,,,,210,,,1,950.8830453900446,X,d,go,d,1,0.44828717471682467,,,,,,,,,,,,,,,,,38,001,20,w,Psychologie,2023-01-18_08h59.53.384,00_bat_bachelor,2022.2.4,60.066954605784794,
,,,,,,,,,,,,0,0,0,0,211,0,211,0,,,,,,,211,,,1,952.4331721536291,Y,l,go,l,1,0.46567625721218064,,,,,,,,,,,,,,,,,38,001,20,w,Psychologie,2023-01-18_08h59.53.384,00_bat_bachelor,2022.2.4,60.066954605784794,
,,,,,,,,,,,,0,0,0,0,212,0,212,0,,,,,,,212,,,1,954.000022303022,X,d,go,d,1,0.5638085732643958,,,,,,,,,,,,,,,,,38,001,20,w,Psychologie,2023-01-18_08h59.53.384,00_bat_bachelor,2022.2.4,60.066954605784794,
,,,,,,,,,,,,0,0,0,0,213,0,213,0,,,,,,,213,,,1,955.6666968888894,Y,l,go,l,1,0.3850804174726363,,,,,,,,,,,,,,,,,38,001,20,w,Psychologie,2023-01-18_08h59.53.384,00_bat_bachelor,2022.2.4,60.066954605784794,
,,,,,,,,,,,,0,0,0,0,214,0,214,0,,,,,,,214,,,1,957.1666898585681,X,d,go,d,1,0.5648888151627034,,,,,,,,,,,,,,,,,38,001,20,w,Psychologie,2023-01-18_08h59.53.384,00_bat_bachelor,2022.2.4,60.066954605784794,
,,,,,,,,,,,,0,0,0,0,215,0,215,0,,,,,,,215,,,1,958.8331753536186,X,None,nogo,None,1,,959.6333611474547,,,,,,,,,,,,,,,,38,001,20,w,Psychologie,2023-01-18_08h59.53.384,00_bat_bachelor,2022.2.4,60.066954605784794,
,,,,,,,,,,,,0,0,0,0,216,0,216,0,,,,,,,216,,,1,960.6335177534493,Y,l,go,l,1,0.39459168558823876,,,,,,,,,,,,,,,,,38,001,20,w,Psychologie,2023-01-18_08h59.53.384,00_bat_bachelor,2022.2.4,60.066954605784794,
,,,,,,,,,,,,0,0,0,0,217,0,217,0,,,,,,,217,,,1,962.1336067231023,X,d,go,d,1,0.3175463896477595,,,,,,,,,,,,,,,,,38,001,20,w,Psychologie,2023-01-18_08h59.53.384,00_bat_bachelor,2022.2.4,60.066954605784794,
,,,,,,,,,,,,0,0,0,0,218,0,218,0,,,,,,,218,,,1,963.5664128162898,X,None,nogo,None,1,,964.3666407919372,,,,,,,,,,,,,,,,38,001,20,w,Psychologie,2023-01-18_08h59.53.384,00_bat_bachelor,2022.2.4,60.066954605784794,
,,,,,,,,,,,,0,0,0,0,219,0,219,0,,,,,,,219,,,1,965.366726610082,Y,l,go,l,1,0.44533929735189304,,,,,,,,,,,,,,,,,38,001,20,w,Psychologie,2023-01-18_08h59.53.384,00_bat_bachelor,2022.2.4,60.066954605784794,
,,,,,,,,,,,,0,0,0,0,220,0,220,0,,,,,,,220,,,1,966.9164077980968,X,d,go,d,1,0.47830655408324674,,,,,,,,,,,,,,,,,38,001,20,w,Psychologie,2023-01-18_08h59.53.384,00_bat_bachelor,2022.2.4,60.066954605784794,
,,,,,,,,,,,,0,0,0,0,221,0,221,0,,,,,,,221,,,1,968.4997263031546,Y,l,go,l,1,0.3349771690554917,,,,,,,,,,,,,,,,,38,001,20,w,Psychologie,2023-01-18_08h59.53.384,00_bat_bachelor,2022.2.4,60.066954605784794,
,,,,,,,,,,,,0,0,0,0,222,0,222,0,,,,,,,222,,,1,969.9500659636105,X,d,go,d,1,0.3398974091105629,,,,,,,,,,,,,,,,,38,001,20,w,Psychologie,2023-01-18_08h59.53.384,00_bat_bachelor,2022.2.4,60.066954605784794,
,,,,,,,,,,,,0,0,0,0,223,0,223,0,,,,,,,223,,,1,971.416383313277,Y,l,go,l,1,0.3790183598175645,,,,,,,,,,,,,,,,,38,001,20,w,Psychologie,2023-01-18_08h59.53.384,00_bat_bachelor,2022.2.4,60.066954605784794,
,,,,,,,,,,,,0,0,0,0,224,0,224,0,,,,,,,224,,,1,972.9000519272522,Y,None,nogo,None,1,,973.7000117818243,,,,,,,,,,,,,,,,38,001,20,w,Psychologie,2023-01-18_08h59.53.384,00_bat_bachelor,2022.2.4,60.066954605784794,
,,,,,,,,,,,,0,0,0,0,225,0,225,0,,,,,,,225,,,1,974.7000384484709,X,d,go,d,1,0.2794775596121326,,,,,,,,,,,,,,,,,38,001,20,w,Psychologie,2023-01-18_08h59.53.384,00_bat_bachelor,2022.2.4,60.066954605784794,
,,,,,,,,,,,,0,0,0,0,226,0,226,0,,,,,,,226,,,1,976.083131111227,Y,l,go,l,1,0.38362684243475087,,,,,,,,,,,,,,,,,38,001,20,w,Psychologie,2023-01-18_08h59.53.384,00_bat_bachelor,2022.2.4,60.066954605784794,
,,,,,,,,,,,,0,0,0,0,227,0,227,0,,,,,,,227,,,1,977.5666988767625,Y,None,nogo,d,0,0.38905035494826734,,,,,,,,,,,,,,,,,38,001,20,w,Psychologie,2023-01-18_08h59.53.384,00_bat_bachelor,2022.2.4,60.066954605784794,
,,,,,,,,,,,,0,0,0,0,228,0,228,0,,,,,,,228,,,1,979.0668906342471,X,d,go,d,1,0.2486606048187241,,,,,,,,,,,,,,,,,38,001,20,w,Psychologie,2023-01-18_08h59.53.384,00_bat_bachelor,2022.2.4,60.066954605784794,
,,,,,,,,,,,,0,0,0,0,229,0,229,0,,,,,,,229,,,1,980.4163915556855,Y,l,go,l,1,0.43486609030514956,,,,,,,,,,,,,,,,,38,001,20,w,Psychologie,2023-01-18_08h59.53.384,00_bat_bachelor,2022.2.4,60.066954605784794,
,,,,,,,,,,,,0,0,0,0,230,0,230,0,,,,,,,230,,,1,981.9664974707994,X,d,go,d,1,0.45267117259209044,,,,,,,,,,,,,,,,,38,001,20,w,Psychologie,2023-01-18_08h59.53.384,00_bat_bachelor,2022.2.4,60.066954605784794,
,,,,,,,,,,,,0,0,0,0,231,0,231,0,,,,,,,231,,,1,983.5330251961132,X,None,nogo,None,1,,984.3333225050592,,,,,,,,,,,,,,,,38,001,20,w,Psychologie,2023-01-18_08h59.53.384,00_bat_bachelor,2022.2.4,60.066954605784794,
,,,,,,,,,,,,0,0,0,0,232,0,232,0,,,,,,,232,,,1,985.3333317171782,Y,l,go,l,1,0.38208841893356293,,,,,,,,,,,,,,,,,38,001,20,w,Psychologie,2023-01-18_08h59.53.384,00_bat_bachelor,2022.2.4,60.066954605784794,
,,,,,,,,,,,,0,0,0,0,233,0,233,0,,,,,,,233,,,1,986.8167874827632,X,d,go,None,0,,987.6163657617581,,,,,,,,,,,,,,,,38,001,20,w,Psychologie,2023-01-18_08h59.53.384,00_bat_bachelor,2022.2.4,60.066954605784794,
,,,,,,,,,,,,0,0,0,0,234,0,234,0,,,,,,,234,,,1,988.6166760646447,Y,l,go,l,1,0.44342220737598836,,,,,,,,,,,,,,,,,38,001,20,w,Psychologie,2023-01-18_08h59.53.384,00_bat_bachelor,2022.2.4,60.066954605784794,
,,,,,,,,,,,,0,0,0,0,235,0,235,0,,,,,,,235,,,1,990.1666181010369,X,d,go,d,1,0.5404015542881098,,,,,,,,,,,,,,,,,38,001,20,w,Psychologie,2023-01-18_08h59.53.384,00_bat_bachelor,2022.2.4,60.066954605784794,
,,,,,,,,,,,,0,0,0,0,236,0,236,0,,,,,,,236,,,1,991.8163423920923,X,None,nogo,None,1,,992.6166435798223,,,,,,,,,,,,,,,,38,001,20,w,Psychologie,2023-01-18_08h59.53.384,00_bat_bachelor,2022.2.4,60.066954605784794,
,,,,,,,,,,,,0,0,0,0,237,0,237,0,,,,,,,237,,,1,993.6166731555422,Y,l,go,l,1,0.3227827507071197,,,,,,,,,,,,,,,,,38,001,20,w,Psychologie,2023-01-18_08h59.53.384,00_bat_bachelor,2022.2.4,60.066954605784794,
,,,,,,,,,,,,0,0,0,0,238,0,238,0,,,,,,,238,,,1,995.0497265213635,X,d,go,d,1,0.5049048442451749,,,,,,,,,,,,,,,,,38,001,20,w,Psychologie,2023-01-18_08h59.53.384,00_bat_bachelor,2022.2.4,60.066954605784794,
,,,,,,,,,,,,0,0,0,0,239,0,239,0,,,,,,,239,,,1,996.6664661011018,Y,l,go,l,1,0.489911881799344,,,,,,,,,,,,,,,,,38,001,20,w,Psychologie,2023-01-18_08h59.53.384,00_bat_bachelor,2022.2.4,60.066954605784794,
,,,,,,,,,,,,0,0,0,0,240,0,240,0,,,,,,,240,,,1,998.2666616888891,X,d,go,d,1,0.31281281614792533,,,,,,,,,,,,,,,,,38,001,20,w,Psychologie,2023-01-18_08h59.53.384,00_bat_bachelor,2022.2.4,60.066954605784794,
,,,,,,,,,,,,0,0,0,0,241,0,241,0,,,,,,,241,,,1,999.6830149415764,Y,l,go,l,1,0.44852475039078854,,,,,,,,,,,,,,,,,38,001,20,w,Psychologie,2023-01-18_08h59.53.384,00_bat_bachelor,2022.2.4,60.066954605784794,
,,,,,,,,,,,,0,0,0,0,242,0,242,0,,,,,,,242,,,1,1001.2331969778461,X,d,go,d,1,0.2907720995717682,,,,,,,,,,,,,,,,,38,001,20,w,Psychologie,2023-01-18_08h59.53.384,00_bat_bachelor,2022.2.4,60.066954605784794,
,,,,,,,,,,,,0,0,0,0,243,0,243,0,,,,,,,243,,,1,1002.6333354505186,Y,l,go,l,1,0.26616653575911187,,,,,,,,,,,,,,,,,38,001,20,w,Psychologie,2023-01-18_08h59.53.384,00_bat_bachelor,2022.2.4,60.066954605784794,
,,,,,,,,,,,,0,0,0,0,244,0,244,0,,,,,,,244,,,1,1003.9996838789375,X,d,go,d,1,0.3393005608813837,,,,,,,,,,,,,,,,,38,001,20,w,Psychologie,2023-01-18_08h59.53.384,00_bat_bachelor,2022.2.4,60.066954605784794,
,,,,,,,,,,,,0,0,0,0,245,0,245,0,,,,,,,245,,,1,1005.4499008727726,X,None,nogo,None,1,,1006.2500183030206,,,,,,,,,,,,,,,,38,001,20,w,Psychologie,2023-01-18_08h59.53.384,00_bat_bachelor,2022.2.4,60.066954605784794,
,,,,,,,,,,,,0,0,0,0,246,0,246,0,,,,,,,246,,,1,1007.2503145452938,Y,l,go,l,1,0.3052438501326833,,,,,,,,,,,,,,,,,38,001,20,w,Psychologie,2023-01-18_08h59.53.384,00_bat_bachelor,2022.2.4,60.066954605784794,
,,,,,,,,,,,,0,0,0,0,247,0,247,0,,,,,,,247,,,1,1008.6666770101001,X,d,go,d,1,0.3618702469393611,,,,,,,,,,,,,,,,,38,001,20,w,Psychologie,2023-01-18_08h59.53.384,00_bat_bachelor,2022.2.4,60.066954605784794,
,,,,,,,,,,,,0,0,0,0,248,0,248,0,,,,,,,248,,,1,1010.1330079355102,Y,l,go,l,1,0.5429969469842035,,,,,,,,,,,,,,,,,38,001,20,w,Psychologie,2023-01-18_08h59.53.384,00_bat_bachelor,2022.2.4,60.066954605784794,
,,,,,,,,,,,,0,0,0,0,249,0,249,0,,,,,,,249,,,1,1011.7832301657181,Y,None,nogo,None,1,,1012.5878697755688,,,,,,,,,,,,,,,,38,001,20,w,Psychologie,2023-01-18_08h59.53.384,00_bat_bachelor,2022.2.4,60.066954605784794,
,,,,,,,,,,,,1,0,1,0,0,0,0,0,,,,,,,0,,,0.2,1040.366874973639,X,d,go,d,1,0.5649440878478345,,,,,,,,,1012.5878697755688,space,27.562322513374966,,,,,,38,001,20,w,Psychologie,2023-01-18_08h59.53.384,00_bat_bachelor,2022.2.4,60.066954605784794,
,,,,,,,,,,,,1,0,1,0,1,0,1,0,,,,,,,1,,,0.2,1041.2333274020348,Y,l,go,l,1,0.3854585991066415,,,,,,,,,,,,,,,,,38,001,20,w,Psychologie,2023-01-18_08h59.53.384,00_bat_bachelor,2022.2.4,60.066954605784794,
,,,,,,,,,,,,1,0,1,0,2,0,2,0,,,,,,,2,,,0.2,1041.9330448809487,X,d,go,d,1,0.4231725202407688,,,,,,,,,,,,,,,,,38,001,20,w,Psychologie,2023-01-18_08h59.53.384,00_bat_bachelor,2022.2.4,60.066954605784794,
,,,,,,,,,,,,1,0,1,0,3,0,3,0,,,,,,,3,,,0.2,1042.666808888811,Y,l,go,l,1,0.4098556782118976,,,,,,,,,,,,,,,,,38,001,20,w,Psychologie,2023-01-18_08h59.53.384,00_bat_bachelor,2022.2.4,60.066954605784794,
,,,,,,,,,,,,1,0,1,0,4,0,4,0,,,,,,,4,,,0.2,1043.382986965822,X,d,go,d,1,0.3973640478798188,,,,,,,,,,,,,,,,,38,001,20,w,Psychologie,2023-01-18_08h59.53.384,00_bat_bachelor,2022.2.4,60.066954605784794,
,,,,,,,,,,,,1,0,1,0,5,0,5,0,,,,,,,5,,,0.2,1044.0831461415219,X,None,nogo,None,1,,1044.8831593293871,,,,,,,,,,,,,,,,38,001,20,w,Psychologie,2023-01-18_08h59.53.384,00_bat_bachelor,2022.2.4,60.066954605784794,
,,,,,,,,,,,,1,0,1,0,6,0,6,0,,,,,,,6,,,0.2,1045.0829778991756,Y,l,go,l,1,0.4085519212530926,,,,,,,,,,,,,,,,,38,001,20,w,Psychologie,2023-01-18_08h59.53.384,00_bat_bachelor,2022.2.4,60.066954605784794,
,,,,,,,,,,,,1,0,1,0,7,0,7,0,,,,,,,7,,,0.2,1045.8000796120905,X,d,go,d,1,0.6032781298854388,,,,,,,,,,,,,,,,,38,001,20,w,Psychologie,2023-01-18_08h59.53.384,00_bat_bachelor,2022.2.4,60.066954605784794,
,,,,,,,,,,,,1,0,1,0,8,0,8,0,,,,,,,8,,,0.2,1046.7166459555738,Y,l,go,l,1,0.47103286065976135,,,,,,,,,,,,,,,,,38,001,20,w,Psychologie,2023-01-18_08h59.53.384,00_bat_bachelor,2022.2.4,60.066954605784794,
,,,,,,,,,,,,1,0,1,0,9,0,9,0,,,,,,,9,,,0.2,1047.4996802425885,X,d,go,d,1,0.5193552614946384,,,,,,,,,,,,,,,,,38,001,20,w,Psychologie,2023-01-18_08h59.53.384,00_bat_bachelor,2022.2.4,60.066954605784794,
,,,,,,,,,,,,1,0,1,0,10,0,10,0,,,,,,,10,,,0.2,1048.3333181414346,Y,l,go,l,1,0.4222629449213855,,,,,,,,,,,,,,,,,38,001,20,w,Psychologie,2023-01-18_08h59.53.384,00_bat_bachelor,2022.2.4,60.066954605784794,
,,,,,,,,,,,,1,0,1,0,11,0,11,0,,,,,,,11,,,0.2,1049.0666613010108,Y,None,nogo,None,1,,1049.8665106101835,,,,,,,,,,,,,,,,38,001,20,w,Psychologie,2023-01-18_08h59.53.384,00_bat_bachelor,2022.2.4,60.066954605784794,
,,,,,,,,,,,,1,0,1,0,12,0,12,0,,,,,,,12,,,0.2,1050.0663655435783,X,d,go,d,1,0.4169999171572272,,,,,,,,,,,,,,,,,38,001,20,w,Psychologie,2023-01-18_08h59.53.384,00_bat_bachelor,2022.2.4,60.066954605784794,
,,,,,,,,,,,,1,0,1,0,13,0,13,0,,,,,,,13,,,0.2,1050.7832830141706,Y,l,go,l,1,0.4201359156286344,,,,,,,,,,,,,,,,,38,001,20,w,Psychologie,2023-01-18_08h59.53.384,00_bat_bachelor,2022.2.4,60.066954605784794,
,,,,,,,,,,,,1,0,1,0,14,0,14,0,,,,,,,14,,,0.2,1051.5167662948952,Y,None,nogo,None,1,,1052.316632088914,,,,,,,,,,,,,,,,38,001,20,w,Psychologie,2023-01-18_08h59.53.384,00_bat_bachelor,2022.2.4,60.066954605784794,
,,,,,,,,,,,,1,0,1,0,15,0,15,0,,,,,,,15,,,0.2,1052.516642658593,X,d,go,d,1,0.2705262912204489,,,,,,,,,,,,,,,,,38,001,20,w,Psychologie,2023-01-18_08h59.53.384,00_bat_bachelor,2022.2.4,60.066954605784794,
,,,,,,,,,,,,1,0,1,0,16,0,16,0,,,,,,,16,,,0.2,1053.0997885576799,Y,l,go,None,0,,1053.8999370182282,,,,,,,,,,,,,,,,38,001,20,w,Psychologie,2023-01-18_08h59.53.384,00_bat_bachelor,2022.2.4,60.066954605784794,
,,,,,,,,,,,,1,0,1,0,17,0,17,0,,,,,,,17,,,0.2,1054.0996397092822,X,d,go,None,0,,1054.8999695030507,,,,,,,,,,,,,,,,38,001,20,w,Psychologie,2023-01-18_08h59.53.384,00_bat_bachelor,2022.2.4,60.066954605784794,
,,,,,,,,,,,,1,0,1,0,18,0,18,0,,,,,,,18,,,0.2,1055.099632436555,Y,l,go,None,0,,1055.8997682910122,,,,,,,,,,,,,,,,38,001,20,w,Psychologie,2023-01-18_08h59.53.384,00_bat_bachelor,2022.2.4,60.066954605784794,
,,,,,,,,,,,,1,0,1,0,19,0,19,0,,,,,,,19,,,0.2,1056.0999786182074,X,d,go,d,1,0.24082060865475796,,,,,,,,,,,,,,,,,38,001,20,w,Psychologie,2023-01-18_08h59.53.384,00_bat_bachelor,2022.2.4,60.066954605784794,
,,,,,,,,,,,,1,0,1,0,20,0,20,0,,,,,,,20,,,0.2,1056.650003078801,Y,l,go,l,1,0.5849770478380378,,,,,,,,,,,,,,,,,38,001,20,w,Psychologie,2023-01-18_08h59.53.384,00_bat_bachelor,2022.2.4,60.066954605784794,
,,,,,,,,,,,,1,0,1,0,21,0,21,0,,,,,,,21,,,0.2,1057.5499871272768,X,d,go,d,1,0.48573636868968606,,,,,,,,,,,,,,,,,38,001,20,w,Psychologie,2023-01-18_08h59.53.384,00_bat_bachelor,2022.2.4,60.066954605784794,
,,,,,,,,,,,,1,0,1,0,22,0,22,0,,,,,,,22,,,0.2,1058.350017284858,Y,l,go,l,1,0.4380229372764006,,,,,,,,,,,,,,,,,38,001,20,w,Psychologie,2023-01-18_08h59.53.384,00_bat_bachelor,2022.2.4,60.066954605784794,
,,,,,,,,,,,,1,0,1,0,23,0,23,0,,,,,,,23,,,0.2,1059.100099830248,X,d,go,d,1,0.487948246387532,,,,,,,,,,,,,,,,,38,001,20,w,Psychologie,2023-01-18_08h59.53.384,00_bat_bachelor,2022.2.4,60.066954605784794,
,,,,,,,,,,,,1,0,1,0,24,0,24,0,,,,,,,24,,,0.2,1059.89963495775,X,None,nogo,d,0,0.5512703974964097,,,,,,,,,,,,,,,,,38,001,20,w,Psychologie,2023-01-18_08h59.53.384,00_bat_bachelor,2022.2.4,60.066954605784794,
,,,,,,,,,,,,1,0,1,0,25,0,25,0,,,,,,,25,,,0.2,1060.766428234463,Y,l,go,None,0,,1061.566775967629,,,,,,,,,,,,,,,,38,001,20,w,Psychologie,2023-01-18_08h59.53.384,00_bat_bachelor,2022.2.4,60.066954605784794,
,,,,,,,,,,,,1,0,1,0,26,0,26,0,,,,,,,26,,,0.2,1061.766803022154,X,d,go,d,1,0.5095525995420758,,,,,,,,,,,,,,,,,38,001,20,w,Psychologie,2023-01-18_08h59.53.384,00_bat_bachelor,2022.2.4,60.066954605784794,
,,,,,,,,,,,,1,0,1,0,27,0,27,0,,,,,,,27,,,0.2,1062.5833204444498,Y,l,go,l,1,0.41226876791915856,,,,,,,,,,,,,,,,,38,001,20,w,Psychologie,2023-01-18_08h59.53.384,00_bat_bachelor,2022.2.4,60.066954605784794,
,,,,,,,,,,,,1,0,1,0,28,0,28,0,,,,,,,28,,,0.2,1063.299633794115,Y,None,nogo,None,1,,1064.0999781333376,,,,,,,,,,,,,,,,38,001,20,w,Psychologie,2023-01-18_08h59.53.384,00_bat_bachelor,2022.2.4,60.066954605784794,
,,,,,,,,,,,,1,0,1,0,29,0,29,0,,,,,,,29,,,0.2,1064.300019248476,X,d,go,d,1,0.3282285662717186,,,,,,,,,,,,,,,,,38,001,20,w,Psychologie,2023-01-18_08h59.53.384,00_bat_bachelor,2022.2.4,60.066954605784794,
,,,,,,,,,,,,1,0,1,0,30,0,30,0,,,,,,,30,,,0.2,1064.9332451232767,Y,l,go,l,1,0.398640653322218,,,,,,,,,,,,,,,,,38,001,20,w,Psychologie,2023-01-18_08h59.53.384,00_bat_bachelor,2022.2.4,60.066954605784794,
,,,,,,,,,,,,1,0,1,0,31,0,31,0,,,,,,,31,,,0.2,1065.6333000565937,X,d,go,d,1,0.45007384053315036,,,,,,,,,,,,,,,,,38,001,20,w,Psychologie,2023-01-18_08h59.53.384,00_bat_bachelor,2022.2.4,60.066954605784794,
,,,,,,,,,,,,1,0,1,0,32,0,32,0,,,,,,,32,,,0.2,1066.3833156929468,X,None,nogo,None,1,,1067.1832866990298,,,,,,,,,,,,,,,,38,001,20,w,Psychologie,2023-01-18_08h59.53.384,00_bat_bachelor,2022.2.4,60.066954605784794,
,,,,,,,,,,,,1,0,1,0,33,0,33,0,,,,,,,33,,,0.2,1067.3829447840399,Y,l,go,l,1,0.3639914579980541,,,,,,,,,,,,,,,,,38,001,20,w,Psychologie,2023-01-18_08h59.53.384,00_bat_bachelor,2022.2.4,60.066954605784794,
,,,,,,,,,,,,1,0,1,0,34,0,34,0,,,,,,,34,,,0.2,1068.049977672752,X,d,go,d,1,0.370342970098136,,,,,,,,,,,,,,,,,38,001,20,w,Psychologie,2023-01-18_08h59.53.384,00_bat_bachelor,2022.2.4,60.066954605784794,
,,,,,,,,,,,,1,0,1,0,35,0,35,0,,,,,,,35,,,0.2,1068.7332995232427,Y,l,go,l,1,0.4860515200707596,,,,,,,,,,,,,,,,,38,001,20,w,Psychologie,2023-01-18_08h59.53.384,00_bat_bachelor,2022.2.4,60.066954605784794,
,,,,,,,,,,,,1,0,1,0,36,0,36,0,,,,,,,36,,,0.2,1069.5332874990127,X,d,go,d,1,0.43763845262583345,,,,,,,,,,,,,,,,,38,001,20,w,Psychologie,2023-01-18_08h59.53.384,00_bat_bachelor,2022.2.4,60.066954605784794,
,,,,,,,,,,,,1,0,1,0,37,0,37,0,,,,,,,37,,,0.2,1070.2829302870668,Y,l,go,l,1,0.37657908827532083,,,,,,,,,,,,,,,,,38,001,20,w,Psychologie,2023-01-18_08h59.53.384,00_bat_bachelor,2022.2.4,60.066954605784794,
,,,,,,,,,,,,1,0,1,0,38,0,38,0,,,,,,,38,,,0.2,1070.966557591979,Y,None,nogo,None,1,,1071.7664582950529,,,,,,,,,,,,,,,,38,001,20,w,Psychologie,2023-01-18_08h59.53.384,00_bat_bachelor,2022.2.4,60.066954605784794,
,,,,,,,,,,,,1,0,1,0,39,0,39,0,,,,,,,39,,,0.2,1071.9666303192207,X,d,go,d,1,0.42111191517324187,,,,,,,,,,,,,,,,,38,001,20,w,Psychologie,2023-01-18_08h59.53.384,00_bat_bachelor,2022.2.4,60.066954605784794,
,,,,,,,,,,,,1,0,1,0,40,0,40,0,,,,,,,40,,,0.2,1072.6999637818371,Y,l,go,l,1,0.42434245903859846,,,,,,,,,,,,,,,,,38,001,20,w,Psychologie,2023-01-18_08h59.53.384,00_bat_bachelor,2022.2.4,60.066954605784794,
,,,,,,,,,,,,1,0,1,0,41,0,41,0,,,,,,,41,,,0.2,1073.4332584566146,Y,None,nogo,None,1,,1074.2331979475566,,,,,,,,,,,,,,,,38,001,20,w,Psychologie,2023-01-18_08h59.53.384,00_bat_bachelor,2022.2.4,60.066954605784794,
,,,,,,,,,,,,1,0,1,0,42,0,42,0,,,,,,,42,,,0.2,1074.4331663354533,X,d,go,d,1,0.2264560095500201,,,,,,,,,,,,,,,,,38,001,20,w,Psychologie,2023-01-18_08h59.53.384,00_bat_bachelor,2022.2.4,60.066954605784794,
,,,,,,,,,,,,1,0,1,0,43,0,43,0,,,,,,,43,,,0.2,1074.966553713195,Y,l,go,l,1,0.4612112896575127,,,,,,,,,,,,,,,,,38,001,20,w,Psychologie,2023-01-18_08h59.53.384,00_bat_bachelor,2022.2.4,60.066954605784794,
,,,,,,,,,,,,1,0,1,0,44,0,44,0,,,,,,,44,,,0.2,1075.7332932202262,Y,None,nogo,None,1,,1076.5332918626373,,,,,,,,,,,,,,,,38,001,20,w,Psychologie,2023-01-18_08h59.53.384,00_bat_bachelor,2022.2.4,60.066954605784794,
,,,,,,,,,,,,1,0,1,0,45,0,45,0,,,,,,,45,,,0.2,1076.7333043717372,X,d,go,d,1,0.2948719763662666,,,,,,,,,,,,,,,,,38,001,20,w,Psychologie,2023-01-18_08h59.53.384,00_bat_bachelor,2022.2.4,60.066954605784794,
,,,,,,,,,,,,1,0,1,0,46,0,46,0,,,,,,,46,,,0.2,1077.333472808008,Y,l,go,l,1,0.4948568491381593,,,,,,,,,,,,,,,,,38,001,20,w,Psychologie,2023-01-18_08h59.53.384,00_bat_bachelor,2022.2.4,60.066954605784794,
,,,,,,,,,,,,1,0,1,0,47,0,47,0,,,,,,,47,,,0.2,1078.1329909658234,X,d,go,d,1,0.5429683409456629,,,,,,,,,,,,,,,,,38,001,20,w,Psychologie,2023-01-18_08h59.53.384,00_bat_bachelor,2022.2.4,60.066954605784794,
,,,,,,,,,,,,1,0,1,0,48,0,48,0,,,,,,,48,,,0.2,1078.9833003717358,Y,l,go,l,1,0.26805017120204866,,,,,,,,,,,,,,,,,38,001,20,w,Psychologie,2023-01-18_08h59.53.384,00_bat_bachelor,2022.2.4,60.066954605784794,
,,,,,,,,,,,,1,0,1,0,49,0,49,0,,,,,,,49,,,0.2,1079.566506876843,Y,None,nogo,None,1,,,,,,,,,,,,,,,,,,38,001,20,w,Psychologie,2023-01-18_08h59.53.384,00_bat_bachelor,2022.2.4,60.066954605784794,
,,,,,,,,,,,,1,0,1,0,50,0,50,0,,,,,,,50,,,0.2,1080.5666019071068,X,d,go,d,1,0.38159920705948025,,,,,,,,,,,,,,,,,38,001,20,w,Psychologie,2023-01-18_08h59.53.384,00_bat_bachelor,2022.2.4,60.066954605784794,
,,,,,,,,,,,,1,0,1,0,51,0,51,0,,,,,,,51,,,0.2,1081.2496595153352,Y,l,go,l,1,0.4166149476659484,,,,,,,,,,,,,,,,,38,001,20,w,Psychologie,2023-01-18_08h59.53.384,00_bat_bachelor,2022.2.4,60.066954605784794,
,,,,,,,,,,,,1,0,1,0,52,0,52,0,,,,,,,52,,,0.2,1081.9666143192153,Y,None,nogo,None,1,,1082.7665058101702,,,,,,,,,,,,,,,,38,001,20,w,Psychologie,2023-01-18_08h59.53.384,00_bat_bachelor,2022.2.4,60.066954605784794,
,,,,,,,,,,,,1,0,1,0,53,0,53,0,,,,,,,53,,,0.2,1082.966611410142,X,d,go,d,1,0.22050643668626435,,,,,,,,,,,,,,,,,38,001,20,w,Psychologie,2023-01-18_08h59.53.384,00_bat_bachelor,2022.2.4,60.066954605784794,
,,,,,,,,,,,,1,0,1,0,54,0,54,0,,,,,,,54,,,0.2,1083.499621575931,Y,l,go,l,1,0.4558706861862447,,,,,,,,,,,,,,,,,38,001,20,w,Psychologie,2023-01-18_08h59.53.384,00_bat_bachelor,2022.2.4,60.066954605784794,
,,,,,,,,,,,,1,0,1,0,55,0,55,0,,,,,,,55,,,0.2,1084.2662951436068,Y,None,nogo,None,1,,1085.0666297858697,,,,,,,,,,,,,,,,38,001,20,w,Psychologie,2023-01-18_08h59.53.384,00_bat_bachelor,2022.2.4,60.066954605784794,
,,,,,,,,,,,,1,0,1,0,56,0,56,0,,,,,,,56,,,0.2,1085.2666461737535,X,d,go,d,1,0.3048477291013114,,,,,,,,,,,,,,,,,38,001,20,w,Psychologie,2023-01-18_08h59.53.384,00_bat_bachelor,2022.2.4,60.066954605784794,
,,,,,,,,,,,,1,0,1,0,57,0,57,0,,,,,,,57,,,0.2,1085.883007571887,Y,l,go,l,1,0.4728423143387772,,,,,,,,,,,,,,,,,38,001,20,w,Psychologie,2023-01-18_08h59.53.384,00_bat_bachelor,2022.2.4,60.066954605784794,
,,,,,,,,,,,,1,0,1,0,58,0,58,0,,,,,,,58,,,0.2,1086.6663356769423,X,d,go,d,1,0.5681717226398177,,,,,,,,,,,,,,,,,38,001,20,w,Psychologie,2023-01-18_08h59.53.384,00_bat_bachelor,2022.2.4,60.066954605784794,
,,,,,,,,,,,,1,0,1,0,59,0,59,0,,,,,,,59,,,0.2,1087.5497369455989,Y,l,go,l,1,0.37429254394373856,,,,,,,,,,,,,,,,,38,001,20,w,Psychologie,2023-01-18_08h59.53.384,00_bat_bachelor,2022.2.4,60.066954605784794,
,,,,,,,,,,,,1,0,1,0,60,0,60,0,,,,,,,60,,,0.2,1088.232952614344,X,d,go,d,1,0.41049228396150284,,,,,,,,,,,,,,,,,38,001,20,w,Psychologie,2023-01-18_08h59.53.384,00_bat_bachelor,2022.2.4,60.066954605784794,
,,,,,,,,,,,,1,0,1,0,61,0,61,0,,,,,,,61,,,0.2,1088.94995396366,Y,l,go,l,1,0.3821116916660685,,,,,,,,,,,,,,,,,38,001,20,w,Psychologie,2023-01-18_08h59.53.384,00_bat_bachelor,2022.2.4,60.066954605784794,
,,,,,,,,,,,,1,0,1,0,62,0,62,0,,,,,,,62,,,0.2,1089.6329815112986,Y,None,nogo,None,1,,1090.433200274827,,,,,,,,,,,,,,,,38,001,20,w,Psychologie,2023-01-18_08h59.53.384,00_bat_bachelor,2022.2.4,60.066954605784794,
,,,,,,,,,,,,1,0,1,0,63,0,63,0,,,,,,,63,,,0.2,1090.633097390004,X,d,go,d,1,0.2334402485867031,,,,,,,,,,,,,,,,,38,001,20,w,Psychologie,2023-01-18_08h59.53.384,00_bat_bachelor,2022.2.4,60.066954605784794,
,,,,,,,,,,,,1,0,1,0,64,0,64,0,,,,,,,64,,,0.2,1091.1664256162767,Y,l,go,l,1,0.46822655899450183,,,,,,,,,,,,,,,,,38,001,20,w,Psychologie,2023-01-18_08h59.53.384,00_bat_bachelor,2022.2.4,60.066954605784794,
,,,,,,,,,,,,1,0,1,0,65,0,65,0,,,,,,,65,,,0.2,1091.9499689939548,Y,None,nogo,None,1,,1092.7499332121515,,,,,,,,,,,,,,,,38,001,20,w,Psychologie,2023-01-18_08h59.53.384,00_bat_bachelor,2022.2.4,60.066954605784794,
,,,,,,,,,,,,1,0,1,0,66,0,66,0,,,,,,,66,,,0.2,1092.9499791757844,X,d,go,d,1,0.20598426190554164,,,,,,,,,,,,,,,,,38,001,20,w,Psychologie,2023-01-18_08h59.53.384,00_bat_bachelor,2022.2.4,60.066954605784794,
,,,,,,,,,,,,1,0,1,0,67,0,67,0,,,,,,,67,,,0.2,1093.4666310464963,Y,l,go,None,0,,1094.2662995072606,,,,,,,,,,,,,,,,38,001,20,w,Psychologie,2023-01-18_08h59.53.384,00_bat_bachelor,2022.2.4,60.066954605784794,
,,,,,,,,,,,,1,0,1,0,68,0,68,0,,,,,,,68,,,0.2,1094.4662969860365,Y,None,nogo,None,1,,1095.2665845980227,,,,,,,,,,,,,,,,38,001,20,w,Psychologie,2023-01-18_08h59.53.384,00_bat_bachelor,2022.2.4,60.066954605784794,
,,,,,,,,,,,,1,0,1,0,69,0,69,0,,,,,,,69,,,0.2,1095.4665040162508,X,d,go,d,1,0.1846940904215444,,,,,,,,,,,,,,,,,38,001,20,w,Psychologie,2023-01-18_08h59.53.384,00_bat_bachelor,2022.2.4,60.066954605784794,
,,,,,,,,,,,,1,0,1,0,70,0,70,0,,,,,,,70,,,0.2,1095.9665052283672,Y,l,go,l,1,0.3571104916627519,,,,,,,,,,,,,,,,,38,001,20,w,Psychologie,2023-01-18_08h59.53.384,00_bat_bachelor,2022.2.4,60.066954605784794,
,,,,,,,,,,,,1,0,1,0,71,0,71,0,,,,,,,71,,,0.2,1096.6332268445112,Y,None,nogo,None,1,,1097.43292003253,,,,,,,,,,,,,,,,38,001,20,w,Psychologie,2023-01-18_08h59.53.384,00_bat_bachelor,2022.2.4,60.066954605784794,
,,,,,,,,,,,,1,0,1,0,72,0,72,0,,,,,,,72,,,0.2,1097.6329747234122,X,d,go,d,1,0.14708247227827087,,,,,,,,,,,,,,,,,38,001,20,w,Psychologie,2023-01-18_08h59.53.384,00_bat_bachelor,2022.2.4,60.066954605784794,
,,,,,,,,,,,,1,0,1,0,73,0,73,0,,,,,,,73,,,0.2,1098.0831582627143,Y,l,go,l,1,0.3843914481403772,,,,,,,,,,,,,,,,,38,001,20,w,Psychologie,2023-01-18_08h59.53.384,00_bat_bachelor,2022.2.4,60.066954605784794,
,,,,,,,,,,,,1,0,1,0,74,0,74,0,,,,,,,74,,,0.2,1098.7829426506942,X,d,go,d,1,0.4040122870937921,,,,,,,,,,,,,,,,,38,001,20,w,Psychologie,2023-01-18_08h59.53.384,00_bat_bachelor,2022.2.4,60.066954605784794,
,,,,,,,,,,,,1,0,1,0,75,0,75,0,,,,,,,75,,,0.2,1099.4996744244127,Y,l,go,l,1,0.3277568088960834,,,,,,,,,,,,,,,,,38,001,20,w,Psychologie,2023-01-18_08h59.53.384,00_bat_bachelor,2022.2.4,60.066954605784794,
,,,,,,,,,,,,1,0,1,0,76,0,76,0,,,,,,,76,,,0.2,1100.1333133899025,X,d,go,d,1,0.2701456853246782,,,,,,,,,,,,,,,,,38,001,20,w,Psychologie,2023-01-18_08h59.53.384,00_bat_bachelor,2022.2.4,60.066954605784794,
,,,,,,,,,,,,1,0,1,0,77,0,77,0,,,,,,,77,,,0.2,1100.7162740769563,X,None,nogo,None,1,,1101.516273689078,,,,,,,,,,,,,,,,38,001,20,w,Psychologie,2023-01-18_08h59.53.384,00_bat_bachelor,2022.2.4,60.066954605784794,
,,,,,,,,,,,,1,0,1,0,78,0,78,0,,,,,,,78,,,0.2,1101.716354561766,Y,l,go,d,0,0.17517845865222625,,,,,,,,,,,,,,,,,38,001,20,w,Psychologie,2023-01-18_08h59.53.384,00_bat_bachelor,2022.2.4,60.066954605784794,
,,,,,,,,,,,,1,0,1,0,79,0,79,0,,,,,,,79,,,0.2,1102.199912145501,X,d,go,None,0,,1102.9999578182178,,,,,,,,,,,,,,,,38,001,20,w,Psychologie,2023-01-18_08h59.53.384,00_bat_bachelor,2022.2.4,60.066954605784794,
,,,,,,,,,,,,1,0,1,0,80,0,80,0,,,,,,,80,,,0.2,1103.199676509248,X,None,nogo,l,0,0.09925073789781891,,,,,,,,,,,,,,,,,38,001,20,w,Psychologie,2023-01-18_08h59.53.384,00_bat_bachelor,2022.2.4,60.066954605784794,
,,,,,,,,,,,,1,0,1,0,81,0,81,0,,,,,,,81,,,0.2,1103.5995875880762,Y,l,go,None,0,,1104.3999445333611,,,,,,,,,,,,,,,,38,001,20,w,Psychologie,2023-01-18_08h59.53.384,00_bat_bachelor,2022.2.4,60.066954605784794,
,,,,,,,,,,,,1,0,1,0,82,0,82,0,,,,,,,82,,,0.2,1104.5996486789663,X,d,go,d,1,0.20313674813951366,,,,,,,,,,,,,,,,,38,001,20,w,Psychologie,2023-01-18_08h59.53.384,00_bat_bachelor,2022.2.4,60.066954605784794,
,,,,,,,,,,,,1,0,1,0,83,0,83,0,,,,,,,83,,,0.2,1105.11627145877,X,None,nogo,None,1,,1105.916605616192,,,,,,,,,,,,,,,,38,001,20,w,Psychologie,2023-01-18_08h59.53.384,00_bat_bachelor,2022.2.4,60.066954605784794,
,,,,,,,,,,,,1,0,1,0,84,0,84,0,,,,,,,84,,,0.2,1106.1166409131547,Y,l,go,l,1,0.41481325155473314,,,,,,,,,,,,,,,,,38,001,20,w,Psychologie,2023-01-18_08h59.53.384,00_bat_bachelor,2022.2.4,60.066954605784794,
,,,,,,,,,,,,1,0,1,0,85,0,85,0,,,,,,,85,,,0.2,1106.8332941414264,X,d,go,d,1,0.33800989485462196,,,,,,,,,,,,,,,,,38,001,20,w,Psychologie,2023-01-18_08h59.53.384,00_bat_bachelor,2022.2.4,60.066954605784794,
,,,,,,,,,,,,1,0,1,0,86,0,86,0,,,,,,,86,,,0.2,1107.4832084929803,X,None,nogo,None,1,,1108.2831130748673,,,,,,,,,,,,,,,,38,001,20,w,Psychologie,2023-01-18_08h59.53.384,00_bat_bachelor,2022.2.4,60.066954605784794,
,,,,,,,,,,,,1,0,1,0,87,0,87,0,,,,,,,87,,,0.2,1108.4829258264508,Y,l,go,d,0,0.22439201053930447,,,,,,,,,,,,,,,,,38,001,20,w,Psychologie,2023-01-18_08h59.53.384,00_bat_bachelor,2022.2.4,60.066954605784794,
,,,,,,,,,,,,1,0,1,0,88,0,88,0,,,,,,,88,,,0.2,1109.016692355537,X,d,go,None,0,,1109.8163331799733,,,,,,,,,,,,,,,,38,001,20,w,Psychologie,2023-01-18_08h59.53.384,00_bat_bachelor,2022.2.4,60.066954605784794,
,,,,,,,,,,,,1,0,1,0,89,0,89,0,,,,,,,89,,,0.2,1110.0168290827423,X,None,nogo,d,0,0.3233233565406408,,,,,,,,,,,,,,,,,38,001,20,w,Psychologie,2023-01-18_08h59.53.384,00_bat_bachelor,2022.2.4,60.066954605784794,
,,,,,,,,,,,,1,0,1,0,90,0,90,0,,,,,,,90,,,0.2,1110.6499036849127,Y,l,go,l,1,0.5213358665641863,,,,,,,,,,,,,,,,,38,001,20,w,Psychologie,2023-01-18_08h59.53.384,00_bat_bachelor,2022.2.4,60.066954605784794,
,,,,,,,,,,,,1,0,1,0,91,0,91,0,,,,,,,91,,,0.2,1111.483505704964,X,d,go,d,1,0.3290004446753301,,,,,,,,,,,,,,,,,38,001,20,w,Psychologie,2023-01-18_08h59.53.384,00_bat_bachelor,2022.2.4,60.066954605784794,
,,,,,,,,,,,,1,0,1,0,92,0,92,0,,,,,,,92,,,0.2,1112.1165933980083,Y,l,go,l,1,0.4639826822676696,,,,,,,,,,,,,,,,,38,001,20,w,Psychologie,2023-01-18_08h59.53.384,00_bat_bachelor,2022.2.4,60.066954605784794,
,,,,,,,,,,,,1,0,1,0,93,0,93,0,,,,,,,93,,,0.2,1112.8832815111382,X,d,go,d,1,0.3841630846145563,,,,,,,,,,,,,,,,,38,001,20,w,Psychologie,2023-01-18_08h59.53.384,00_bat_bachelor,2022.2.4,60.066954605784794,
,,,,,,,,,,,,1,0,1,0,94,0,94,0,,,,,,,94,,,0.2,1113.5833102626493,X,None,nogo,None,1,,1114.3829656325106,,,,,,,,,,,,,,,,38,001,20,w,Psychologie,2023-01-18_08h59.53.384,00_bat_bachelor,2022.2.4,60.066954605784794,
,,,,,,,,,,,,1,0,1,0,95,0,95,0,,,,,,,95,,,0.2,1114.5833650504937,Y,l,go,l,1,0.44452087351237424,,,,,,,,,,,,,,,,,38,001,20,w,Psychologie,2023-01-18_08h59.53.384,00_bat_bachelor,2022.2.4,60.066954605784794,
,,,,,,,,,,,,1,0,1,0,96,0,96,0,,,,,,,96,,,0.2,1115.3332982626453,X,d,go,d,1,0.3815866009972524,,,,,,,,,,,,,,,,,38,001,20,w,Psychologie,2023-01-18_08h59.53.384,00_bat_bachelor,2022.2.4,60.066954605784794,
,,,,,,,,,,,,1,0,1,0,97,0,97,0,,,,,,,97,,,0.2,1116.0164916283684,X,None,nogo,None,1,,1116.8168592403235,,,,,,,,,,,,,,,,38,001,20,w,Psychologie,2023-01-18_08h59.53.384,00_bat_bachelor,2022.2.4,60.066954605784794,
,,,,,,,,,,,,1,0,1,0,98,0,98,0,,,,,,,98,,,0.2,1117.016279264848,Y,l,go,l,1,0.3150591180892661,,,,,,,,,,,,,,,,,38,001,20,w,Psychologie,2023-01-18_08h59.53.384,00_bat_bachelor,2022.2.4,60.066954605784794,
,,,,,,,,,,,,1,0,1,0,99,0,99,0,,,,,,,99,,,0.2,1117.6329592082766,X,d,go,d,1,0.3854265991249122,,,,,,,,,,,,,,,,,38,001,20,w,Psychologie,2023-01-18_08h59.53.384,00_bat_bachelor,2022.2.4,60.066954605784794,
,,,,,,,,,,,,1,0,1,0,100,0,100,0,,,,,,,100,,,0.2,1118.3332604444877,Y,l,go,l,1,0.3912578690215014,,,,,,,,,,,,,,,,,38,001,20,w,Psychologie,2023-01-18_08h59.53.384,00_bat_bachelor,2022.2.4,60.066954605784794,
,,,,,,,,,,,,1,0,1,0,101,0,101,0,,,,,,,101,,,0.2,1119.0332688323688,X,d,go,d,1,0.31477936066221446,,,,,,,,,,,,,,,,,38,001,20,w,Psychologie,2023-01-18_08h59.53.384,00_bat_bachelor,2022.2.4,60.066954605784794,
,,,,,,,,,,,,1,0,1,0,102,0,102,0,,,,,,,102,,,0.2,1119.6499279272975,X,None,nogo,l,0,0.4171696140547283,,,,,,,,,,,,,,,,,38,001,20,w,Psychologie,2023-01-18_08h59.53.384,00_bat_bachelor,2022.2.4,60.066954605784794,
,,,,,,,,,,,,1,0,1,0,103,0,103,0,,,,,,,103,,,0.2,1120.36644103445,Y,l,go,l,1,0.5808039589319378,,,,,,,,,,,,,,,,,38,001,20,w,Psychologie,2023-01-18_08h59.53.384,00_bat_bachelor,2022.2.4,60.066954605784794,
,,,,,,,,,,,,1,0,1,0,104,0,104,0,,,,,,,104,,,0.2,1121.2499203636835,X,d,go,None,0,,1122.0498215515981,,,,,,,,,,,,,,,,38,001,20,w,Psychologie,2023-01-18_08h59.53.384,00_bat_bachelor,2022.2.4,60.066954605784794,
,,,,,,,,,,,,1,0,1,0,105,0,105,0,,,,,,,105,,,0.2,1122.2498083637329,X,None,nogo,None,1,,1123.0499233697483,,,,,,,,,,,,,,,,38,001,20,w,Psychologie,2023-01-18_08h59.53.384,00_bat_bachelor,2022.2.4,60.066954605784794,
,,,,,,,,,,,,1,0,1,0,106,0,106,0,,,,,,,106,,,0.2,1123.2499562424491,Y,l,go,l,1,0.44907262886408716,,,,,,,,,,,,,,,,,38,001,20,w,Psychologie,2023-01-18_08h59.53.384,00_bat_bachelor,2022.2.4,60.066954605784794,
,,,,,,,,,,,,1,0,1,0,107,0,107,0,,,,,,,107,,,0.2,1123.9996412122855,X,d,go,d,1,0.41999046117416583,,,,,,,,,,,,,,,,,38,001,20,w,Psychologie,2023-01-18_08h59.53.384,00_bat_bachelor,2022.2.4,60.066954605784794,
,,,,,,,,,,,,1,0,1,0,108,0,108,0,,,,,,,108,,,0.2,1124.7331744324183,Y,l,go,l,1,0.4065911949437577,,,,,,,,,,,,,,,,,38,001,20,w,Psychologie,2023-01-18_08h59.53.384,00_bat_bachelor,2022.2.4,60.066954605784794,
,,,,,,,,,,,,1,0,1,0,109,0,109,0,,,,,,,109,,,0.2,1125.4499304485216,Y,None,nogo,None,1,,1126.2496216971485,,,,,,,,,,,,,,,,38,001,20,w,Psychologie,2023-01-18_08h59.53.384,00_bat_bachelor,2022.2.4,60.066954605784794,
,,,,,,,,,,,,1,0,1,0,110,0,110,0,,,,,,,110,,,0.2,1126.4500041454448,X,d,go,d,1,0.3058135468454566,,,,,,,,,,,,,,,,,38,001,20,w,Psychologie,2023-01-18_08h59.53.384,00_bat_bachelor,2022.2.4,60.066954605784794,
,,,,,,,,,,,,1,0,1,0,111,0,111,0,,,,,,,111,,,0.2,1127.0664678465691,Y,l,go,l,1,0.44170002642204054,,,,,,,,,,,,,,,,,38,001,20,w,Psychologie,2023-01-18_08h59.53.384,00_bat_bachelor,2022.2.4,60.066954605784794,
,,,,,,,,,,,,1,0,1,0,112,0,112,0,,,,,,,112,,,0.2,1127.8166051798325,X,d,go,d,1,0.36289279189077206,,,,,,,,,,,,,,,,,38,001,20,w,Psychologie,2023-01-18_08h59.53.384,00_bat_bachelor,2022.2.4,60.066954605784794,
,,,,,,,,,,,,1,0,1,0,113,0,113,0,,,,,,,113,,,0.2,1128.4833442505042,Y,l,go,l,1,0.41576888744020835,,,,,,,,,,,,,,,,,38,001,20,w,Psychologie,2023-01-18_08h59.53.384,00_bat_bachelor,2022.2.4,60.066954605784794,
,,,,,,,,,,,,1,0,1,0,114,0,114,0,,,,,,,114,,,0.2,1129.1995926304953,Y,None,nogo,d,0,0.3710266061243601,,,,,,,,,,,,,,,,,38,001,20,w,Psychologie,2023-01-18_08h59.53.384,00_bat_bachelor,2022.2.4,60.066954605784794,
,,,,,,,,,,,,1,0,1,0,115,0,115,0,,,,,,,115,,,0.2,1129.88335423838,X,d,go,None,0,,1130.6832816081005,,,,,,,,,,,,,,,,38,001,20,w,Psychologie,2023-01-18_08h59.53.384,00_bat_bachelor,2022.2.4,60.066954605784794,
,,,,,,,,,,,,1,0,1,0,116,0,116,0,,,,,,,116,,,0.2,1130.8832693899458,Y,l,go,l,1,0.41655191738391295,,,,,,,,,,,,,,,,,38,001,20,w,Psychologie,2023-01-18_08h59.53.384,00_bat_bachelor,2022.2.4,60.066954605784794,
,,,,,,,,,,,,1,0,1,0,117,0,117,0,,,,,,,117,,,0.2,1131.599608436547,X,d,go,d,1,0.4355502112011891,,,,,,,,,,,,,,,,,38,001,20,w,Psychologie,2023-01-18_08h59.53.384,00_bat_bachelor,2022.2.4,60.066954605784794,
,,,,,,,,,,,,1,0,1,0,118,0,118,0,,,,,,,118,,,0.2,1132.3496788607736,X,None,nogo,None,1,,1133.1499276848917,,,,,,,,,,,,,,,,38,001,20,w,Psychologie,2023-01-18_08h59.53.384,00_bat_bachelor,2022.2.4,60.066954605784794,
,,,,,,,,,,,,1,0,1,0,119,0,119,0,,,,,,,119,,,0.2,1133.349924678827,Y,l,go,l,1,0.4304195470176637,,,,,,,,,,,,,,,,,38,001,20,w,Psychologie,2023-01-18_08h59.53.384,00_bat_bachelor,2022.2.4,60.066954605784794,
,,,,,,,,,,,,1,0,1,0,120,0,120,0,,,,,,,120,,,0.2,1134.0831262627325,X,d,go,d,1,0.4325165156915318,,,,,,,,,,,,,,,,,38,001,20,w,Psychologie,2023-01-18_08h59.53.384,00_bat_bachelor,2022.2.4,60.066954605784794,
,,,,,,,,,,,,1,0,1,0,121,0,121,0,,,,,,,121,,,0.2,1134.8165620283398,X,None,nogo,None,1,,1135.6165732768131,,,,,,,,,,,,,,,,38,001,20,w,Psychologie,2023-01-18_08h59.53.384,00_bat_bachelor,2022.2.4,60.066954605784794,
,,,,,,,,,,,,1,0,1,0,122,0,122,0,,,,,,,122,,,0.2,1135.8167234827997,Y,l,go,l,1,0.4903720027941745,,,,,,,,,,,,,,,,,38,001,20,w,Psychologie,2023-01-18_08h59.53.384,00_bat_bachelor,2022.2.4,60.066954605784794,
,,,,,,,,,,,,1,0,1,0,123,0,123,0,,,,,,,123,,,0.2,1136.6165970343864,X,d,go,d,1,0.3954309579276014,,,,,,,,,,,,,,,,,38,001,20,w,Psychologie,2023-01-18_08h59.53.384,00_bat_bachelor,2022.2.4,60.066954605784794,
,,,,,,,,,,,,1,0,1,0,124,0,124,0,,,,,,,124,,,0.2,1137.3162786345347,Y,l,go,l,1,0.6543040445249062,,,,,,,,,,,,,,,,,38,001,20,w,Psychologie,2023-01-18_08h59.53.384,00_bat_bachelor,2022.2.4,60.066954605784794,
,,,,,,,,,,,,1,0,1,0,125,0,125,0,,,,,,,125,,,0.2,1138.2829346506915,Y,None,nogo,None,1,,1139.0832969293115,,,,,,,,,,,,,,,,38,001,20,w,Psychologie,2023-01-18_08h59.53.384,00_bat_bachelor,2022.2.4,60.066954605784794,
,,,,,,,,,,,,1,0,1,0,126,0,126,0,,,,,,,126,,,0.2,1139.2830384082336,X,d,go,d,1,0.3676292744348757,,,,,,,,,,,,,,,,,38,001,20,w,Psychologie,2023-01-18_08h59.53.384,00_bat_bachelor,2022.2.4,60.066954605784794,
,,,,,,,,,,,,1,0,1,0,127,0,127,0,,,,,,,127,,,0.2,1139.9663064405904,Y,l,go,l,1,0.4526731119840406,,,,,,,,,,,,,,,,,38,001,20,w,Psychologie,2023-01-18_08h59.53.384,00_bat_bachelor,2022.2.4,60.066954605784794,
,,,,,,,,,,,,1,0,1,0,128,0,128,0,,,,,,,128,,,0.2,1140.7329499476764,X,d,go,None,0,,1141.532941802201,,,,,,,,,,,,,,,,38,001,20,w,Psychologie,2023-01-18_08h59.53.384,00_bat_bachelor,2022.2.4,60.066954605784794,
,,,,,,,,,,,,1,0,1,0,129,0,129,0,,,,,,,129,,,0.2,1141.7332631596364,X,None,nogo,None,1,,1142.5332671353826,,,,,,,,,,,,,,,,38,001,20,w,Psychologie,2023-01-18_08h59.53.384,00_bat_bachelor,2022.2.4,60.066954605784794,
,,,,,,,,,,,,1,0,1,0,130,0,130,0,,,,,,,130,,,0.2,1142.7331482506124,Y,l,go,l,1,0.3105214233219158,,,,,,,,,,,,,,,,,38,001,20,w,Psychologie,2023-01-18_08h59.53.384,00_bat_bachelor,2022.2.4,60.066954605784794,
,,,,,,,,,,,,1,0,1,0,131,0,131,0,,,,,,,131,,,0.2,1143.3498626182554,X,d,go,d,1,0.5412180387647822,,,,,,,,,,,,,,,,,38,001,20,w,Psychologie,2023-01-18_08h59.53.384,00_bat_bachelor,2022.2.4,60.066954605784794,
,,,,,,,,,,,,1,0,1,0,132,0,132,0,,,,,,,132,,,0.2,1144.1998384485778,Y,l,go,l,1,0.31599681460647844,,,,,,,,,,,,,,,,,38,001,20,w,Psychologie,2023-01-18_08h59.53.384,00_bat_bachelor,2022.2.4,60.066954605784794,
,,,,,,,,,,,,1,0,1,0,133,0,133,0,,,,,,,133,,,0.2,1144.816580452578,Y,None,nogo,d,0,0.3380089251731988,,,,,,,,,,,,,,,,,38,001,20,w,Psychologie,2023-01-18_08h59.53.384,00_bat_bachelor,2022.2.4,60.066954605784794,
,,,,,,,,,,,,1,0,1,0,134,0,134,0,,,,,,,134,,,0.2,1145.4664841374615,X,d,go,None,0,,1146.2663848405355,,,,,,,,,,,,,,,,38,001,20,w,Psychologie,2023-01-18_08h59.53.384,00_bat_bachelor,2022.2.4,60.066954605784794,
,,,,,,,,,,,,1,0,1,0,135,0,135,0,,,,,,,135,,,0.2,1146.4665006223076,Y,l,go,l,1,0.5937629829568323,,,,,,,,,,,,,,,,,38,001,20,w,Psychologie,2023-01-18_08h59.53.384,00_bat_bachelor,2022.2.4,60.066954605784794,
,,,,,,,,,,,,1,0,1,0,136,0,136,0,,,,,,,136,,,0.2,1147.3665860040928,Y,None,nogo,None,1,,1148.1662927678553,,,,,,,,,,,,,,,,38,001,20,w,Psychologie,2023-01-18_08h59.53.384,00_bat_bachelor,2022.2.4,60.066954605784794,
,,,,,,,,,,,,1,0,1,0,137,0,137,0,,,,,,,137,,,0.2,1148.366236913338,X,d,go,d,1,0.35786249130615033,,,,,,,,,,,,,,,,,38,001,20,w,Psychologie,2023-01-18_08h59.53.384,00_bat_bachelor,2022.2.4,60.066954605784794,
,,,,,,,,,,,,1,0,1,0,138,0,138,0,,,,,,,138,,,0.2,1149.033060832473,Y,l,go,l,1,0.4267957912234124,,,,,,,,,,,,,,,,,38,001,20,w,Psychologie,2023-01-18_08h59.53.384,00_bat_bachelor,2022.2.4,60.066954605784794,
,,,,,,,,,,,,1,0,1,0,139,0,139,0,,,,,,,139,,,0.2,1149.766407870833,X,d,go,d,1,0.31756190475425683,,,,,,,,,,,,,,,,,38,001,20,w,Psychologie,2023-01-18_08h59.53.384,00_bat_bachelor,2022.2.4,60.066954605784794,
,,,,,,,,,,,,1,0,1,0,140,0,140,0,,,,,,,140,,,0.2,1150.3997122910514,Y,l,go,l,1,0.4355560293770395,,,,,,,,,,,,,,,,,38,001,20,w,Psychologie,2023-01-18_08h59.53.384,00_bat_bachelor,2022.2.4,60.066954605784794,
,,,,,,,,,,,,1,0,1,0,141,0,141,0,,,,,,,141,,,0.2,1151.1496091395966,X,d,go,d,1,0.326618870079983,,,,,,,,,,,,,,,,,38,001,20,w,Psychologie,2023-01-18_08h59.53.384,00_bat_bachelor,2022.2.4,60.066954605784794,
,,,,,,,,,,,,1,0,1,0,142,0,142,0,,,,,,,142,,,0.2,1151.783184105123,Y,l,go,None,0,,1152.5832302626804,,,,,,,,,,,,,,,,38,001,20,w,Psychologie,2023-01-18_08h59.53.384,00_bat_bachelor,2022.2.4,60.066954605784794,
,,,,,,,,,,,,1,0,1,0,143,0,143,0,,,,,,,143,,,0.2,1152.782901923434,Y,None,nogo,None,1,,1153.5829383840319,,,,,,,,,,,,,,,,38,001,20,w,Psychologie,2023-01-18_08h59.53.384,00_bat_bachelor,2022.2.4,60.066954605784794,
,,,,,,,,,,,,1,0,1,0,144,0,144,0,,,,,,,144,,,0.2,1153.783096832456,X,d,go,d,1,0.3318658978387248,,,,,,,,,,,,,,,,,38,001,20,w,Psychologie,2023-01-18_08h59.53.384,00_bat_bachelor,2022.2.4,60.066954605784794,
,,,,,,,,,,,,1,0,1,0,145,0,145,0,,,,,,,145,,,0.2,1154.4163028284675,Y,l,go,l,1,0.6111685502983164,,,,,,,,,,,,,,,,,38,001,20,w,Psychologie,2023-01-18_08h59.53.384,00_bat_bachelor,2022.2.4,60.066954605784794,
,,,,,,,,,,,,1,0,1,0,146,0,146,0,,,,,,,146,,,0.2,1155.3329249295057,X,d,go,d,1,0.4634566219174303,,,,,,,,,,,,,,,,,38,001,20,w,Psychologie,2023-01-18_08h59.53.384,00_bat_bachelor,2022.2.4,60.066954605784794,
,,,,,,,,,,,,1,0,1,0,147,0,147,0,,,,,,,147,,,0.2,1156.0998297697806,Y,l,go,l,1,0.44790026580449194,,,,,,,,,,,,,,,,,38,001,20,w,Psychologie,2023-01-18_08h59.53.384,00_bat_bachelor,2022.2.4,60.066954605784794,
,,,,,,,,,,,,1,0,1,0,148,0,148,0,,,,,,,148,,,0.2,1156.8500679514837,Y,None,nogo,None,1,,1157.6497087758908,,,,,,,,,,,,,,,,38,001,20,w,Psychologie,2023-01-18_08h59.53.384,00_bat_bachelor,2022.2.4,60.066954605784794,
,,,,,,,,,,,,1,0,1,0,149,0,149,0,,,,,,,149,,,0.2,1157.8498934061208,X,d,go,d,1,0.2983066413726192,,,,,,,,,,,,,,,,,38,001,20,w,Psychologie,2023-01-18_08h59.53.384,00_bat_bachelor,2022.2.4,60.066954605784794,
,,,,,,,,,,,,1,0,1,0,150,0,150,0,,,,,,,150,,,0.2,1158.4495464487118,Y,l,go,l,1,0.4011361672601197,,,,,,,,,,,,,,,,,38,001,20,w,Psychologie,2023-01-18_08h59.53.384,00_bat_bachelor,2022.2.4,60.066954605784794,
,,,,,,,,,,,,1,0,1,0,151,0,151,0,,,,,,,151,,,0.2,1159.1665865858959,Y,None,nogo,None,1,,1159.9665997737611,,,,,,,,,,,,,,,,38,001,20,w,Psychologie,2023-01-18_08h59.53.384,00_bat_bachelor,2022.2.4,60.066954605784794,
,,,,,,,,,,,,1,0,1,0,152,0,152,0,,,,,,,152,,,0.2,1160.1663965253974,X,d,go,d,1,0.20432074755080976,,,,,,,,,,,,,,,,,38,001,20,w,Psychologie,2023-01-18_08h59.53.384,00_bat_bachelor,2022.2.4,60.066954605784794,
,,,,,,,,,,,,1,0,1,0,153,0,153,0,,,,,,,153,,,0.2,1160.6831148203055,Y,l,go,l,1,0.5524602151126601,,,,,,,,,,,,,,,,,38,001,20,w,Psychologie,2023-01-18_08h59.53.384,00_bat_bachelor,2022.2.4,60.066954605784794,
,,,,,,,,,,,,1,0,1,0,154,0,154,0,,,,,,,154,,,0.2,1161.5498232485843,X,d,go,d,1,0.4211434302851558,,,,,,,,,,,,,,,,,38,001,20,w,Psychologie,2023-01-18_08h59.53.384,00_bat_bachelor,2022.2.4,60.066954605784794,
,,,,,,,,,,,,1,0,1,0,155,0,155,0,,,,,,,155,,,0.2,1162.2832231353968,Y,l,go,l,1,0.4563531102030538,,,,,,,,,,,,,,,,,38,001,20,w,Psychologie,2023-01-18_08h59.53.384,00_bat_bachelor,2022.2.4,60.066954605784794,
,,,,,,,,,,,,1,0,1,0,156,0,156,0,,,,,,,156,,,0.2,1163.0498952485505,X,d,go,d,1,0.39448647352401167,,,,,,,,,,,,,,,,,38,001,20,w,Psychologie,2023-01-18_08h59.53.384,00_bat_bachelor,2022.2.4,60.066954605784794,
,,,,,,,,,,,,1,0,1,0,157,0,157,0,,,,,,,157,,,0.2,1163.7499496969976,X,None,nogo,None,1,,1164.5495803396043,,,,,,,,,,,,,,,,38,001,20,w,Psychologie,2023-01-18_08h59.53.384,00_bat_bachelor,2022.2.4,60.066954605784794,
,,,,,,,,,,,,1,0,1,0,158,0,158,0,,,,,,,158,,,0.2,1164.7495860608178,Y,l,go,l,1,0.5168175657454412,,,,,,,,,,,,,,,,,38,001,20,w,Psychologie,2023-01-18_08h59.53.384,00_bat_bachelor,2022.2.4,60.066954605784794,
,,,,,,,,,,,,1,0,1,0,159,0,159,0,,,,,,,159,,,0.2,1165.5665146344109,X,d,go,d,1,0.34081037834403105,,,,,,,,,,,,,,,,,38,001,20,w,Psychologie,2023-01-18_08h59.53.384,00_bat_bachelor,2022.2.4,60.066954605784794,
,,,,,,,,,,,,1,0,1,0,160,0,160,0,,,,,,,160,,,0.2,1166.2332391596574,X,None,nogo,None,1,,1167.0329095598136,,,,,,,,,,,,,,,,38,001,20,w,Psychologie,2023-01-18_08h59.53.384,00_bat_bachelor,2022.2.4,60.066954605784794,
,,,,,,,,,,,,1,0,1,0,161,0,161,0,,,,,,,161,,,0.2,1167.2330345536757,Y,l,go,l,1,0.25811805480043404,,,,,,,,,,,,,,,,,38,001,20,w,Psychologie,2023-01-18_08h59.53.384,00_bat_bachelor,2022.2.4,60.066954605784794,
,,,,,,,,,,,,1,0,1,0,162,0,162,0,,,,,,,162,,,0.2,1167.7996960971213,X,d,go,d,1,0.6196412734570913,,,,,,,,,,,,,,,,,38,001,20,w,Psychologie,2023-01-18_08h59.53.384,00_bat_bachelor,2022.2.4,60.066954605784794,
,,,,,,,,,,,,1,0,1,0,163,0,163,0,,,,,,,163,,,0.2,1168.7329315234383,X,None,nogo,None,1,,1169.5329597415985,,,,,,,,,,,,,,,,38,001,20,w,Psychologie,2023-01-18_08h59.53.384,00_bat_bachelor,2022.2.4,60.066954605784794,
,,,,,,,,,,,,1,0,1,0,164,0,164,0,,,,,,,164,,,0.2,1169.7329067961837,Y,l,go,l,1,0.3815313282830175,,,,,,,,,,,,,,,,,38,001,20,w,Psychologie,2023-01-18_08h59.53.384,00_bat_bachelor,2022.2.4,60.066954605784794,
,,,,,,,,,,,,1,0,1,0,165,0,165,0,,,,,,,165,,,0.2,1170.4163978587312,X,d,go,d,1,0.4671089837793261,,,,,,,,,,,,,,,,,38,001,20,w,Psychologie,2023-01-18_08h59.53.384,00_bat_bachelor,2022.2.4,60.066954605784794,
,,,,,,,,,,,,1,0,1,0,166,0,166,0,,,,,,,166,,,0.2,1171.1995751759678,Y,l,go,None,0,,1171.9998952727765,,,,,,,,,,,,,,,,38,001,20,w,Psychologie,2023-01-18_08h59.53.384,00_bat_bachelor,2022.2.4,60.066954605784794,
,,,,,,,,,,,,1,0,1,0,167,0,167,0,,,,,,,167,,,0.2,1172.1995640244568,X,d,go,d,1,0.5394216759887058,,,,,,,,,,,,,,,,,38,001,20,w,Psychologie,2023-01-18_08h59.53.384,00_bat_bachelor,2022.2.4,60.066954605784794,
,,,,,,,,,,,,1,0,1,0,168,0,168,0,,,,,,,168,,,0.2,1173.0495941577828,Y,l,go,l,1,0.3940559283073526,,,,,,,,,,,,,,,,,38,001,20,w,Psychologie,2023-01-18_08h59.53.384,00_bat_bachelor,2022.2.4,60.066954605784794,
,,,,,,,,,,,,1,0,1,0,169,0,169,0,,,,,,,169,,,0.2,1173.7497412122611,X,d,go,d,1,0.2691498070198577,,,,,,,,,,,,,,,,,38,001,20,w,Psychologie,2023-01-18_08h59.53.384,00_bat_bachelor,2022.2.4,60.066954605784794,
,,,,,,,,,,,,1,0,1,0,170,0,170,0,,,,,,,170,,,0.2,1174.3332362020737,Y,l,go,None,0,,1175.132891571935,,,,,,,,,,,,,,,,38,001,20,w,Psychologie,2023-01-18_08h59.53.384,00_bat_bachelor,2022.2.4,60.066954605784794,
,,,,,,,,,,,,1,0,1,0,171,0,171,0,,,,,,,171,,,0.2,1175.3332352323632,Y,None,nogo,None,1,,1176.1329439355468,,,,,,,,,,,,,,,,38,001,20,w,Psychologie,2023-01-18_08h59.53.384,00_bat_bachelor,2022.2.4,60.066954605784794,
,,,,,,,,,,,,1,0,1,0,172,0,172,0,,,,,,,172,,,0.2,1176.3331106263795,Y,None,nogo,None,1,,1177.1334806625673,,,,,,,,,,,,,,,,38,001,20,w,Psychologie,2023-01-18_08h59.53.384,00_bat_bachelor,2022.2.4,60.066954605784794,
,,,,,,,,,,,,1,0,1,0,173,0,173,0,,,,,,,173,,,0.2,1177.3333137777809,X,d,go,d,1,0.5905062572855968,,,,,,,,,,,,,,,,,38,001,20,w,Psychologie,2023-01-18_08h59.53.384,00_bat_bachelor,2022.2.4,60.066954605784794,
,,,,,,,,,,,,1,0,1,0,174,0,174,0,,,,,,,174,,,0.2,1178.2333298262674,Y,l,go,l,1,0.42654560948722064,,,,,,,,,,,,,,,,,38,001,20,w,Psychologie,2023-01-18_08h59.53.384,00_bat_bachelor,2022.2.4,60.066954605784794,
,,,,,,,,,,,,1,0,1,0,175,0,175,0,,,,,,,175,,,0.2,1178.9665638949955,Y,None,nogo,None,1,,1179.7664849616995,,,,,,,,,,,,,,,,38,001,20,w,Psychologie,2023-01-18_08h59.53.384,00_bat_bachelor,2022.2.4,60.066954605784794,
,,,,,,,,,,,,1,0,1,0,176,0,176,0,,,,,,,176,,,0.2,1179.9662472890923,X,d,go,d,1,0.4211293697007932,,,,,,,,,,,,,,,,,38,001,20,w,Psychologie,2023-01-18_08h59.53.384,00_bat_bachelor,2022.2.4,60.066954605784794,
,,,,,,,,,,,,1,0,1,0,177,0,177,0,,,,,,,177,,,0.2,1180.6998929939873,Y,l,go,l,1,0.42418051973800175,,,,,,,,,,,,,,,,,38,001,20,w,Psychologie,2023-01-18_08h59.53.384,00_bat_bachelor,2022.2.4,60.066954605784794,
,,,,,,,,,,,,1,0,1,0,178,0,178,0,,,,,,,178,,,0.2,1181.4331042748527,X,d,go,d,1,0.5219302905315999,,,,,,,,,,,,,,,,,38,001,20,w,Psychologie,2023-01-18_08h59.53.384,00_bat_bachelor,2022.2.4,60.066954605784794,
,,,,,,,,,,,,1,0,1,0,179,0,179,0,,,,,,,179,,,0.2,1182.2662398709217,X,None,nogo,None,1,,1183.0663126951258,,,,,,,,,,,,,,,,38,001,20,w,Psychologie,2023-01-18_08h59.53.384,00_bat_bachelor,2022.2.4,60.066954605784794,
,,,,,,,,,,,,1,0,1,0,180,0,180,0,,,,,,,180,,,0.2,1183.2664629011124,Y,l,go,l,1,0.3844738723419141,,,,,,,,,,,,,,,,,38,001,20,w,Psychologie,2023-01-18_08h59.53.384,00_bat_bachelor,2022.2.4,60.066954605784794,
,,,,,,,,,,,,1,0,1,0,181,0,181,0,,,,,,,181,,,0.2,1183.9665512889624,X,d,go,d,1,0.4364273016981315,,,,,,,,,,,,,,,,,38,001,20,w,Psychologie,2023-01-18_08h59.53.384,00_bat_bachelor,2022.2.4,60.066954605784794,
,,,,,,,,,,,,1,0,1,0,182,0,182,0,,,,,,,182,,,0.2,1184.716575167724,X,None,nogo,None,1,,1185.516227143642,,,,,,,,,,,,,,,,38,001,20,w,Psychologie,2023-01-18_08h59.53.384,00_bat_bachelor,2022.2.4,60.066954605784794,
,,,,,,,,,,,,1,0,1,0,183,0,183,0,,,,,,,183,,,0.2,1185.716647410125,Y,l,go,l,1,0.448310932260938,,,,,,,,,,,,,,,,,38,001,20,w,Psychologie,2023-01-18_08h59.53.384,00_bat_bachelor,2022.2.4,60.066954605784794,
,,,,,,,,,,,,1,0,1,0,184,0,184,0,,,,,,,184,,,0.2,1186.4663323799614,X,d,go,d,1,0.35259122113347985,,,,,,,,,,,,,,,,,38,001,20,w,Psychologie,2023-01-18_08h59.53.384,00_bat_bachelor,2022.2.4,60.066954605784794,
,,,,,,,,,,,,1,0,1,0,185,0,185,0,,,,,,,185,,,0.2,1187.1333696322981,Y,l,go,l,1,0.6306313287350349,,,,,,,,,,,,,,,,,38,001,20,w,Psychologie,2023-01-18_08h59.53.384,00_bat_bachelor,2022.2.4,60.066954605784794,
,,,,,,,,,,,,1,0,1,0,186,0,186,0,,,,,,,186,,,0.2,1188.0664465132286,Y,None,nogo,None,1,,1188.8666919434327,,,,,,,,,,,,,,,,38,001,20,w,Psychologie,2023-01-18_08h59.53.384,00_bat_bachelor,2022.2.4,60.066954605784794,
,,,,,,,,,,,,1,0,1,0,187,0,187,0,,,,,,,187,,,0.2,1189.0662496648438,Y,None,nogo,None,1,,1189.866352064797,,,,,,,,,,,,,,,,38,001,20,w,Psychologie,2023-01-18_08h59.53.384,00_bat_bachelor,2022.2.4,60.066954605784794,
,,,,,,,,,,,,1,0,1,0,188,0,188,0,,,,,,,188,,,0.2,1190.066460573842,X,d,go,d,1,0.4973591509333346,,,,,,,,,,,,,,,,,38,001,20,w,Psychologie,2023-01-18_08h59.53.384,00_bat_bachelor,2022.2.4,60.066954605784794,
,,,,,,,,,,,,1,0,1,0,189,0,189,0,,,,,,,189,,,0.2,1190.8665140041267,Y,l,go,l,1,0.3851410235220101,,,,,,,,,,,,,,,,,38,001,20,w,Psychologie,2023-01-18_08h59.53.384,00_bat_bachelor,2022.2.4,60.066954605784794,
,,,,,,,,,,,,1,0,1,0,190,0,190,0,,,,,,,190,,,0.2,1191.5663633617805,X,d,go,None,0,,1192.3665593374171,,,,,,,,,,,,,,,,38,001,20,w,Psychologie,2023-01-18_08h59.53.384,00_bat_bachelor,2022.2.4,60.066954605784794,
,,,,,,,,,,,,1,0,1,0,191,0,191,0,,,,,,,191,,,0.2,1192.5665859071014,X,None,nogo,None,1,,1193.366431822331,,,,,,,,,,,,,,,,38,001,20,w,Psychologie,2023-01-18_08h59.53.384,00_bat_bachelor,2022.2.4,60.066954605784794,
,,,,,,,,,,,,1,0,1,0,192,0,192,0,,,,,,,192,,,0.2,1193.566418149625,Y,l,go,l,1,0.37309690815163776,,,,,,,,,,,,,,,,,38,001,20,w,Psychologie,2023-01-18_08h59.53.384,00_bat_bachelor,2022.2.4,60.066954605784794,
,,,,,,,,,,,,1,0,1,0,193,0,193,0,,,,,,,193,,,0.2,1194.2495877577749,X,d,go,d,1,0.33019414107548073,,,,,,,,,,,,,,,,,38,001,20,w,Psychologie,2023-01-18_08h59.53.384,00_bat_bachelor,2022.2.4,60.066954605784794,
,,,,,,,,,,,,1,0,1,0,194,0,194,0,,,,,,,194,,,0.2,1194.8832015111693,Y,l,go,l,1,0.4643594093504362,,,,,,,,,,,,,,,,,38,001,20,w,Psychologie,2023-01-18_08h59.53.384,00_bat_bachelor,2022.2.4,60.066954605784794,
,,,,,,,,,,,,1,0,1,0,195,0,195,0,,,,,,,195,,,0.2,1195.6496801698522,Y,None,nogo,None,1,,1196.4495697214152,,,,,,,,,,,,,,,,38,001,20,w,Psychologie,2023-01-18_08h59.53.384,00_bat_bachelor,2022.2.4,60.066954605784794,
