loop_instruction.thisRepN,loop_instruction.thisTrialN,loop_instruction.thisN,loop_instruction.thisIndex,loop_rsi_practice.thisRepN,loop_rsi_practice.thisTrialN,loop_rsi_practice.thisN,loop_rsi_practice.thisIndex,loop_practice.thisRepN,loop_practice.thisTrialN,loop_practice.thisN,loop_practice.thisIndex,loop_exp.thisRepN,loop_exp.thisTrialN,loop_exp.thisN,loop_exp.thisIndex,loop_trials.thisRepN,loop_trials.thisTrialN,loop_trials.thisN,loop_trials.thisIndex,map_condition,map_x_key,map_y_key,key_resp_welcome.started,key_resp_welcome.keys,key_resp_welcome.rt,index,text_empty_rsi_practice.started,text_empty_rsi_practice.stopped,rsi,stimulus.started,stimulus,correct,trial_type,key_resp_trial.keys,key_resp_trial.corr,key_resp_trial.rt,stimulus.stopped,key_resp_instruction_rsi.started,key_resp_instruction_rsi.keys,key_resp_instruction_rsi.rt,key_resp_instruction_rsi.stopped,key_resp_instruction_final.started,key_resp_instruction_final.keys,key_resp_instruction_final.rt,key_resp_break.started,key_resp_break.keys,key_resp_break.rt,key_resp_break.stopped,key_resp_end_screen.started,image_end_screen.started,key_resp_end_screen.keys,key_resp_end_screen.rt,participant,session,date,expName,psychopyVersion,frameRate,
,,,,0,0,0,0,0,0,0,0,,,,,,,,,1,l,d,555.0413963235915,j,14.47490456351079,0,569.5394074770156,570.5590375184547,1,570.5590375184547,X,l,go,l,1,0.7331864950247109,,,,,,,,,,,,,,,,,3,001,2022-12-14_14h24.57.588,00_bat_bachelor,2022.2.4,60.024155189709255,
,,,,0,0,0,0,1,0,1,0,,,,,,,,,,,,,,,1,571.9199176533148,572.9214594701771,1,572.9214594701771,Y,d,go,d,1,0.4993680550251156,,,,,,,,,,,,,,,,,3,001,2022-12-14_14h24.57.588,00_bat_bachelor,2022.2.4,60.024155189709255,
,,,,0,0,0,0,2,0,2,0,,,,,,,,,,,,,,,2,574.0533420089632,575.0532324332744,1,575.0532324332744,X,l,go,l,1,0.43182581732980907,,,,,,,,,,,,,,,,,3,001,2022-12-14_14h24.57.588,00_bat_bachelor,2022.2.4,60.024155189709255,
,,,,0,0,0,0,3,0,3,0,,,,,,,,,,,,,,,3,576.1036023236811,577.1035577177536,1,577.1035577177536,Y,d,go,d,1,0.47717171302065253,,,,,,,,,,,,,,,,,3,001,2022-12-14_14h24.57.588,00_bat_bachelor,2022.2.4,60.024155189709255,
,,,,0,0,0,0,4,0,4,0,,,,,,,,,,,,,,,4,578.2035644087009,579.2033336209133,1,579.2033336209133,X,l,go,l,1,0.47306505031883717,,,,,,,,,,,,,,,,,3,001,2022-12-14_14h24.57.588,00_bat_bachelor,2022.2.4,60.024155189709255,
,,,,0,0,0,0,5,0,5,0,,,,,,,,,,,,,,,5,580.3034367966466,581.3036011601798,1,581.3036011601798,X,None,nogo,None,1,,582.1034229299985,,,,,,,,,,,,,,,,3,001,2022-12-14_14h24.57.588,00_bat_bachelor,2022.2.4,60.024155189709255,
,,,,0,0,0,0,6,0,6,0,,,,,,,,,,,,,,,6,582.7037404084112,583.7035479238257,1,583.7035479238257,X,None,nogo,l,0,0.5802004614379257,,,,,,,,,,,,,,,,,3,001,2022-12-14_14h24.57.588,00_bat_bachelor,2022.2.4,60.024155189709255,
,,,,0,0,0,0,7,0,7,0,,,,,,,,,,,,,,,7,585.3035774026066,586.3035580087453,1,586.3035580087453,Y,d,go,d,1,0.6210333914496005,,,,,,,,,,,,,,,,,3,001,2022-12-14_14h24.57.588,00_bat_bachelor,2022.2.4,60.024155189709255,
,,,,0,0,0,0,8,0,8,0,,,,,,,,,,,,,,,8,587.553410372464,588.5535703722853,1,588.5535703722853,X,l,go,l,1,0.6586677792947739,,,,,,,,,,,,,,,,,3,001,2022-12-14_14h24.57.588,00_bat_bachelor,2022.2.4,60.024155189709255,
,,,,0,0,0,0,9,0,9,0,,,,,,,,,,,,,,,9,589.836665855255,590.8367002794985,1,590.8367002794985,X,None,nogo,l,0,0.3909332510083914,,,,,,,,,,,,,,,,,3,001,2022-12-14_14h24.57.588,00_bat_bachelor,2022.2.4,60.024155189709255,
,,,,0,0,0,0,10,0,10,0,,,,,,,,,,,,,,,10,592.2535789057147,593.2536472692154,1,593.2536472692154,Y,d,go,None,0,,594.0532818876673,,,,,,,,,,,,,,,,3,001,2022-12-14_14h24.57.588,00_bat_bachelor,2022.2.4,60.024155189709255,
,,,,0,0,0,0,11,0,11,0,,,,,,,,,,,,,,,11,594.6535508814268,595.6532459119335,1,595.6532459119335,X,l,go,l,1,0.37510393327102065,,,,,,,,,,,,,,,,,3,001,2022-12-14_14h24.57.588,00_bat_bachelor,2022.2.4,60.024155189709255,
,,,,0,0,0,0,12,0,12,0,,,,,,,,,,,,,,,12,596.6537307600956,597.6535950026009,1,597.6535950026009,Y,d,go,d,1,0.4386975683737546,,,,,,,,,,,,,,,,,3,001,2022-12-14_14h24.57.588,00_bat_bachelor,2022.2.4,60.024155189709255,
,,,,0,0,0,0,13,0,13,0,,,,,,,,,,,,,,,13,598.7198625747114,599.7202126348857,1,599.7202126348857,X,l,go,l,1,0.4199043745175004,,,,,,,,,,,,,,,,,3,001,2022-12-14_14h24.57.588,00_bat_bachelor,2022.2.4,60.024155189709255,
,,,,0,0,0,0,14,0,14,0,,,,,,,,,,,,,,,14,600.769883859437,601.7701379198115,1,601.7701379198115,Y,d,go,l,0,0.4658437240868807,,,,,,,,,,,,,,,,,3,001,2022-12-14_14h24.57.588,00_bat_bachelor,2022.2.4,60.024155189709255,
,,,,1,0,1,0,0,0,0,0,,,,,,,,,,,,,,,0,623.5035612087231,623.7037738629151,0.2,623.7037738629151,X,l,go,l,1,0.596628081984818,,602.8812398726586,j,20.603502742014825,,,,,,,,,,,,,3,001,2022-12-14_14h24.57.588,00_bat_bachelor,2022.2.4,60.024155189709255,
,,,,1,0,1,0,1,0,1,0,,,,,,,,,,,,,,,1,624.9202793501318,625.1202020652127,0.2,625.1202020652127,Y,d,go,d,1,0.44409441156312823,,,,,,,,,,,,,,,,,3,001,2022-12-14_14h24.57.588,00_bat_bachelor,2022.2.4,60.024155189709255,
,,,,1,0,1,0,2,0,2,0,,,,,,,,,,,,,,,2,626.1867983643897,626.3872408366296,0.2,626.3872408366296,X,l,go,l,1,0.5048516860697418,,,,,,,,,,,,,,,,,3,001,2022-12-14_14h24.57.588,00_bat_bachelor,2022.2.4,60.024155189709255,
,,,,1,0,1,0,3,0,3,0,,,,,,,,,,,,,,,3,627.5205905255862,627.7203716652002,0.2,627.7203716652002,X,None,nogo,l,0,0.483303101034835,,,,,,,,,,,,,,,,,3,001,2022-12-14_14h24.57.588,00_bat_bachelor,2022.2.4,60.024155189709255,
,,,,1,0,1,0,4,0,4,0,,,,,,,,,,,,,,,4,629.2372371032834,629.4368708489928,0.2,629.4368708489928,Y,d,go,d,1,0.5913519659079611,,,,,,,,,,,,,,,,,3,001,2022-12-14_14h24.57.588,00_bat_bachelor,2022.2.4,60.024155189709255,
,,,,1,0,1,0,5,0,5,0,,,,,,,,,,,,,,,5,630.6537637296133,630.8535957783461,0.2,630.8535957783461,X,l,go,l,1,0.4062389333266765,,,,,,,,,,,,,,,,,3,001,2022-12-14_14h24.57.588,00_bat_bachelor,2022.2.4,60.024155189709255,
,,,,1,0,1,0,6,0,6,0,,,,,,,,,,,,,,,6,631.8870793823153,632.0868294916581,0.2,632.0868294916581,Y,d,go,d,1,0.4209215857554227,,,,,,,,,,,,,,,,,3,001,2022-12-14_14h24.57.588,00_bat_bachelor,2022.2.4,60.024155189709255,
,,,,1,0,1,0,7,0,7,0,,,,,,,,,,,,,,,7,633.1368696854915,633.3368888853583,0.2,633.3368888853583,X,l,go,l,1,0.4989646614994854,,,,,,,,,,,,,,,,,3,001,2022-12-14_14h24.57.588,00_bat_bachelor,2022.2.4,60.024155189709255,
,,,,1,0,1,0,8,0,8,0,,,,,,,,,,,,,,,8,634.4535025905352,634.653498517815,0.2,634.653498517815,Y,d,go,d,1,0.44631889439187944,,,,,,,,,,,,,,,,,3,001,2022-12-14_14h24.57.588,00_bat_bachelor,2022.2.4,60.024155189709255,
,,,,1,0,1,0,9,0,9,0,,,,,,,,,,,,,,,9,635.7204584528226,635.920537289232,0.2,635.920537289232,Y,None,nogo,d,0,0.5240497281774879,,,,,,,,,,,,,,,,,3,001,2022-12-14_14h24.57.588,00_bat_bachelor,2022.2.4,60.024155189709255,
,,,,1,0,1,0,10,0,10,0,,,,,,,,,,,,,,,10,637.4869042551145,637.6868327886332,0.2,637.6868327886332,X,l,go,None,0,,638.487099648919,,,,,,,,,,,,,,,,3,001,2022-12-14_14h24.57.588,00_bat_bachelor,2022.2.4,60.024155189709255,
,,,,1,0,1,0,11,0,11,0,,,,,,,,,,,,,,,11,639.0870578549802,639.2865519644693,0.2,639.2865519644693,Y,d,go,d,1,0.45334434206597507,,,,,,,,,,,,,,,,,3,001,2022-12-14_14h24.57.588,00_bat_bachelor,2022.2.4,60.024155189709255,
,,,,1,0,1,0,12,0,12,0,,,,,,,,,,,,,,,12,640.3701770955231,640.570145386504,0.2,640.570145386504,X,l,go,l,1,0.5782930692657828,,,,,,,,,,,,,,,,,3,001,2022-12-14_14h24.57.588,00_bat_bachelor,2022.2.4,60.024155189709255,
,,,,1,0,1,0,13,0,13,0,,,,,,,,,,,,,,,13,641.7699391322676,641.9698739685118,0.2,641.9698739685118,Y,d,go,d,1,0.4578471255954355,,,,,,,,,,,,,,,,,3,001,2022-12-14_14h24.57.588,00_bat_bachelor,2022.2.4,60.024155189709255,
,,,,1,0,1,0,14,0,14,0,,,,,,,,,,,,,,,14,643.0532896453515,643.2533287240658,0.2,643.2533287240658,X,l,go,l,1,0.3751771452371031,,,,,,,,,,,,,,,,,3,001,2022-12-14_14h24.57.588,00_bat_bachelor,2022.2.4,60.024155189709255,
,,,,,,,,,,,,,,,,,,,,,,,,,,,,,,,,,,,,,,644.2884079627693,None,,644.2884079627693,644.2884079627693,space,8.90757953794673,,,,,,,,,3,001,2022-12-14_14h24.57.588,00_bat_bachelor,2022.2.4,60.024155189709255,
,,,,,,,,,,,,0,0,0,0,0,0,0,0,,,,,,,0,,,1,654.220358089311,X,l,go,l,1,0.3513269864488393,,,,,,,,,,,,,,,,,3,001,2022-12-14_14h24.57.588,00_bat_bachelor,2022.2.4,60.024155189709255,
,,,,,,,,,,,,0,0,0,0,1,0,1,0,,,,,,,1,,,1,655.6038757781498,Y,d,go,d,1,0.43997805193066597,,,,,,,,,,,,,,,,,3,001,2022-12-14_14h24.57.588,00_bat_bachelor,2022.2.4,60.024155189709255,
,,,,,,,,,,,,0,0,0,0,2,0,2,0,,,,,,,2,,,1,657.0705512042623,X,l,go,l,1,0.3489740190561861,,,,,,,,,,,,,,,,,3,001,2022-12-14_14h24.57.588,00_bat_bachelor,2022.2.4,60.024155189709255,
,,,,,,,,,,,,0,0,0,0,3,0,3,0,,,,,,,3,,,1,658.4369479399174,Y,d,go,d,1,0.4712929306551814,,,,,,,,,,,,,,,,,3,001,2022-12-14_14h24.57.588,00_bat_bachelor,2022.2.4,60.024155189709255,
,,,,,,,,,,,,0,0,0,0,4,0,4,0,,,,,,,4,,,1,659.9371811519377,Y,None,nogo,d,0,0.4905661242082715,,,,,,,,,,,,,,,,,3,001,2022-12-14_14h24.57.588,00_bat_bachelor,2022.2.4,60.024155189709255,
,,,,,,,,,,,,0,0,0,0,5,0,5,0,,,,,,,5,,,1,661.453786226688,X,l,go,l,1,0.43139236350543797,,,,,,,,,,,,,,,,,3,001,2022-12-14_14h24.57.588,00_bat_bachelor,2022.2.4,60.024155189709255,
,,,,,,,,,,,,0,0,0,0,6,0,6,0,,,,,,,6,,,1,662.9038890628144,Y,d,go,d,1,0.5322969928383827,,,,,,,,,,,,,,,,,3,001,2022-12-14_14h24.57.588,00_bat_bachelor,2022.2.4,60.024155189709255,
,,,,,,,,,,,,0,0,0,0,7,0,7,0,,,,,,,7,,,1,664.4538162872195,X,l,go,l,1,0.47010408341884613,,,,,,,,,,,,,,,,,3,001,2022-12-14_14h24.57.588,00_bat_bachelor,2022.2.4,60.024155189709255,
,,,,,,,,,,,,0,0,0,0,8,0,8,0,,,,,,,8,,,1,665.9538788325153,Y,d,go,d,1,0.6498954242561013,,,,,,,,,,,,,,,,,3,001,2022-12-14_14h24.57.588,00_bat_bachelor,2022.2.4,60.024155189709255,
,,,,,,,,,,,,0,0,0,0,9,0,9,0,,,,,,,9,,,1,667.6203974590171,Y,None,nogo,None,1,,668.4205280770548,,,,,,,,,,,,,,,,3,001,2022-12-14_14h24.57.588,00_bat_bachelor,2022.2.4,60.024155189709255,
,,,,,,,,,,,,0,0,0,0,10,0,10,0,,,,,,,10,,,1,669.4204509861302,X,l,go,l,1,0.33525863848626614,,,,,,,,,,,,,,,,,3,001,2022-12-14_14h24.57.588,00_bat_bachelor,2022.2.4,60.024155189709255,
,,,,,,,,,,,,0,0,0,0,11,0,11,0,,,,,,,11,,,1,670.7870193580166,Y,d,go,None,0,,671.5870020973962,,,,,,,,,,,,,,,,3,001,2022-12-14_14h24.57.588,00_bat_bachelor,2022.2.4,60.024155189709255,
,,,,,,,,,,,,0,0,0,0,12,0,12,0,,,,,,,12,,,1,672.5871688851621,Y,None,nogo,None,1,,673.3872064123861,,,,,,,,,,,,,,,,3,001,2022-12-14_14h24.57.588,00_bat_bachelor,2022.2.4,60.024155189709255,
,,,,,,,,,,,,0,0,0,0,13,0,13,0,,,,,,,13,,,1,674.3871889577713,X,l,go,l,1,0.3291927049867809,,,,,,,,,,,,,,,,,3,001,2022-12-14_14h24.57.588,00_bat_bachelor,2022.2.4,60.024155189709255,
,,,,,,,,,,,,0,0,0,0,14,0,14,0,,,,,,,14,,,1,675.736844376428,Y,d,go,d,1,0.7231506258249283,,,,,,,,,,,,,,,,,3,001,2022-12-14_14h24.57.588,00_bat_bachelor,2022.2.4,60.024155189709255,
,,,,,,,,,,,,0,0,0,0,15,0,15,0,,,,,,,15,,,1,677.486768982606,Y,None,nogo,None,1,,678.2868879642338,,,,,,,,,,,,,,,,3,001,2022-12-14_14h24.57.588,00_bat_bachelor,2022.2.4,60.024155189709255,
,,,,,,,,,,,,0,0,0,0,16,0,16,0,,,,,,,16,,,1,679.2864671160933,X,l,go,l,1,0.32630495028570294,,,,,,,,,,,,,,,,,3,001,2022-12-14_14h24.57.588,00_bat_bachelor,2022.2.4,60.024155189709255,
,,,,,,,,,,,,0,0,0,0,17,0,17,0,,,,,,,17,,,1,680.6367712612264,Y,d,go,d,1,0.6237238133326173,,,,,,,,,,,,,,,,,3,001,2022-12-14_14h24.57.588,00_bat_bachelor,2022.2.4,60.024155189709255,
,,,,,,,,,,,,0,0,0,0,18,0,18,0,,,,,,,18,,,1,682.286431722343,Y,None,nogo,None,1,,683.0867703401018,,,,,,,,,,,,,,,,3,001,2022-12-14_14h24.57.588,00_bat_bachelor,2022.2.4,60.024155189709255,
,,,,,,,,,,,,0,0,0,0,19,0,19,0,,,,,,,19,,,1,684.0868105825502,X,l,go,l,1,0.3103403595741838,,,,,,,,,,,,,,,,,3,001,2022-12-14_14h24.57.588,00_bat_bachelor,2022.2.4,60.024155189709255,
,,,,,,,,,,,,0,0,0,0,20,0,20,0,,,,,,,20,,,1,685.4198114715982,Y,d,go,d,1,0.4809894061181694,,,,,,,,,,,,,,,,,3,001,2022-12-14_14h24.57.588,00_bat_bachelor,2022.2.4,60.024155189709255,
,,,,,,,,,,,,0,0,0,0,21,0,21,0,,,,,,,21,,,1,686.9201028654352,X,l,go,l,1,0.6612108070403337,,,,,,,,,,,,,,,,,3,001,2022-12-14_14h24.57.588,00_bat_bachelor,2022.2.4,60.024155189709255,
,,,,,,,,,,,,0,0,0,0,22,0,22,0,,,,,,,22,,,1,688.6036260812543,Y,d,go,d,1,0.46471548243425786,,,,,,,,,,,,,,,,,3,001,2022-12-14_14h24.57.588,00_bat_bachelor,2022.2.4,60.024155189709255,
,,,,,,,,,,,,0,0,0,0,23,0,23,0,,,,,,,23,,,1,690.0867553097196,X,l,go,l,1,0.5168875532690436,,,,,,,,,,,,,,,,,3,001,2022-12-14_14h24.57.588,00_bat_bachelor,2022.2.4,60.024155189709255,
,,,,,,,,,,,,0,0,0,0,24,0,24,0,,,,,,,24,,,1,691.6197598839644,Y,d,go,d,1,0.5045365348923951,,,,,,,,,,,,,,,,,3,001,2022-12-14_14h24.57.588,00_bat_bachelor,2022.2.4,60.024155189709255,
,,,,,,,,,,,,0,0,0,0,25,0,25,0,,,,,,,25,,,1,693.153428214835,X,l,go,l,1,0.5539876383263618,,,,,,,,,,,,,,,,,3,001,2022-12-14_14h24.57.588,00_bat_bachelor,2022.2.4,60.024155189709255,
,,,,,,,,,,,,0,0,0,0,26,0,26,0,,,,,,,26,,,1,694.7364443768747,Y,d,go,d,1,0.41200474579818547,,,,,,,,,,,,,,,,,3,001,2022-12-14_14h24.57.588,00_bat_bachelor,2022.2.4,60.024155189709255,
,,,,,,,,,,,,0,0,0,0,27,0,27,0,,,,,,,27,,,1,696.1701574106701,X,l,go,l,1,0.49787763226777315,,,,,,,,,,,,,,,,,3,001,2022-12-14_14h24.57.588,00_bat_bachelor,2022.2.4,60.024155189709255,
,,,,,,,,,,,,0,0,0,0,28,0,28,0,,,,,,,28,,,1,697.6867586066946,Y,d,go,d,1,0.4534965844359249,,,,,,,,,,,,,,,,,3,001,2022-12-14_14h24.57.588,00_bat_bachelor,2022.2.4,60.024155189709255,
,,,,,,,,,,,,0,0,0,0,29,0,29,0,,,,,,,29,,,1,699.1700725622941,X,l,go,l,1,0.3948018532246351,,,,,,,,,,,,,,,,,3,001,2022-12-14_14h24.57.588,00_bat_bachelor,2022.2.4,60.024155189709255,
,,,,,,,,,,,,0,0,0,0,30,0,30,0,,,,,,,30,,,1,700.5864348253235,Y,d,go,d,1,0.4652754820417613,,,,,,,,,,,,,,,,,3,001,2022-12-14_14h24.57.588,00_bat_bachelor,2022.2.4,60.024155189709255,
,,,,,,,,,,,,0,0,0,0,31,0,31,0,,,,,,,31,,,1,702.0700978713576,Y,None,nogo,None,1,,702.8698677625507,,,,,,,,,,,,,,,,3,001,2022-12-14_14h24.57.588,00_bat_bachelor,2022.2.4,60.024155189709255,
,,,,,,,,,,,,0,0,0,0,32,0,32,0,,,,,,,32,,,1,703.8700970956124,X,l,go,l,1,0.382303441176191,,,,,,,,,,,,,,,,,3,001,2022-12-14_14h24.57.588,00_bat_bachelor,2022.2.4,60.024155189709255,
,,,,,,,,,,,,0,0,0,0,33,0,33,0,,,,,,,33,,,1,705.2698925868608,Y,d,go,d,1,0.5343449907377362,,,,,,,,,,,,,,,,,3,001,2022-12-14_14h24.57.588,00_bat_bachelor,2022.2.4,60.024155189709255,
,,,,,,,,,,,,0,0,0,0,34,0,34,0,,,,,,,34,,,1,706.8367511886172,X,l,go,d,0,0.45469318935647607,,,,,,,,,,,,,,,,,3,001,2022-12-14_14h24.57.588,00_bat_bachelor,2022.2.4,60.024155189709255,
,,,,,,,,,,,,0,0,0,0,35,0,35,0,,,,,,,35,,,1,708.3200971442275,Y,d,go,None,0,,709.1200910350308,,,,,,,,,,,,,,,,3,001,2022-12-14_14h24.57.588,00_bat_bachelor,2022.2.4,60.024155189709255,
,,,,,,,,,,,,0,0,0,0,36,0,36,0,,,,,,,36,,,1,710.1199397624005,Y,None,nogo,None,1,,710.9201096531469,,,,,,,,,,,,,,,,3,001,2022-12-14_14h24.57.588,00_bat_bachelor,2022.2.4,60.024155189709255,
,,,,,,,,,,,,0,0,0,0,37,0,37,0,,,,,,,37,,,1,711.9197891687509,X,l,go,l,1,0.4615702733863145,,,,,,,,,,,,,,,,,3,001,2022-12-14_14h24.57.588,00_bat_bachelor,2022.2.4,60.024155189709255,
,,,,,,,,,,,,0,0,0,0,38,0,38,0,,,,,,,38,,,1,713.4034434875939,Y,d,go,d,1,0.688154781004414,,,,,,,,,,,,,,,,,3,001,2022-12-14_14h24.57.588,00_bat_bachelor,2022.2.4,60.024155189709255,
,,,,,,,,,,,,0,0,0,0,39,0,39,0,,,,,,,39,,,1,715.1200614592526,X,l,go,l,1,0.49281533411704004,,,,,,,,,,,,,,,,,3,001,2022-12-14_14h24.57.588,00_bat_bachelor,2022.2.4,60.024155189709255,
,,,,,,,,,,,,0,0,0,0,40,0,40,0,,,,,,,40,,,1,716.6365128373727,Y,d,go,d,1,0.43188642361201346,,,,,,,,,,,,,,,,,3,001,2022-12-14_14h24.57.588,00_bat_bachelor,2022.2.4,60.024155189709255,
,,,,,,,,,,,,0,0,0,0,41,0,41,0,,,,,,,41,,,1,718.0866898554377,Y,None,nogo,None,1,,718.8864689585753,,,,,,,,,,,,,,,,3,001,2022-12-14_14h24.57.588,00_bat_bachelor,2022.2.4,60.024155189709255,
,,,,,,,,,,,,0,0,0,0,42,0,42,0,,,,,,,42,,,1,719.8871715033893,X,l,go,l,1,0.3487665040884167,,,,,,,,,,,,,,,,,3,001,2022-12-14_14h24.57.588,00_bat_bachelor,2022.2.4,60.024155189709255,
,,,,,,,,,,,,0,0,0,0,43,0,43,0,,,,,,,43,,,1,721.2538077537902,Y,d,go,d,1,0.614564064424485,,,,,,,,,,,,,,,,,3,001,2022-12-14_14h24.57.588,00_bat_bachelor,2022.2.4,60.024155189709255,
,,,,,,,,,,,,0,0,0,0,44,0,44,0,,,,,,,44,,,1,722.8871147760656,X,l,go,l,1,0.5176288858056068,,,,,,,,,,,,,,,,,3,001,2022-12-14_14h24.57.588,00_bat_bachelor,2022.2.4,60.024155189709255,
,,,,,,,,,,,,0,0,0,0,45,0,45,0,,,,,,,45,,,1,724.4369329095352,Y,d,go,d,1,0.45541173382662237,,,,,,,,,,,,,,,,,3,001,2022-12-14_14h24.57.588,00_bat_bachelor,2022.2.4,60.024155189709255,
,,,,,,,,,,,,0,0,0,0,46,0,46,0,,,,,,,46,,,1,725.9203055319376,X,l,go,l,1,0.6032438329420984,,,,,,,,,,,,,,,,,3,001,2022-12-14_14h24.57.588,00_bat_bachelor,2022.2.4,60.024155189709255,
,,,,,,,,,,,,0,0,0,0,47,0,47,0,,,,,,,47,,,1,727.5537555841729,X,None,nogo,None,1,,728.3536171116866,,,,,,,,,,,,,,,,3,001,2022-12-14_14h24.57.588,00_bat_bachelor,2022.2.4,60.024155189709255,
,,,,,,,,,,,,0,0,0,0,48,0,48,0,,,,,,,48,,,1,729.3538314143661,Y,d,go,d,1,0.4498733151704073,,,,,,,,,,,,,,,,,3,001,2022-12-14_14h24.57.588,00_bat_bachelor,2022.2.4,60.024155189709255,
,,,,,,,,,,,,0,0,0,0,49,0,49,0,,,,,,,49,,,1,730.8203104774002,X,l,go,None,0,,731.6204532166012,,,,,,,,,,,,,,,,3,001,2022-12-14_14h24.57.588,00_bat_bachelor,2022.2.4,60.024155189709255,
,,,,,,,,,,,,0,0,0,0,50,0,50,0,,,,,,,50,,,1,732.6201627925038,Y,d,go,d,1,0.5116933763492852,,,,,,,,,,,,,,,,,3,001,2022-12-14_14h24.57.588,00_bat_bachelor,2022.2.4,60.024155189709255,
,,,,,,,,,,,,0,0,0,0,51,0,51,0,,,,,,,51,,,1,734.1537006995641,X,l,go,l,1,0.530893842689693,,,,,,,,,,,,,,,,,3,001,2022-12-14_14h24.57.588,00_bat_bachelor,2022.2.4,60.024155189709255,
,,,,,,,,,,,,0,0,0,0,52,0,52,0,,,,,,,52,,,1,735.7035799238365,Y,d,go,d,1,0.4041943291667849,,,,,,,,,,,,,,,,,3,001,2022-12-14_14h24.57.588,00_bat_bachelor,2022.2.4,60.024155189709255,
,,,,,,,,,,,,0,0,0,0,53,0,53,0,,,,,,,53,,,1,737.1367882310878,Y,None,nogo,None,1,,737.9367316977587,,,,,,,,,,,,,,,,3,001,2022-12-14_14h24.57.588,00_bat_bachelor,2022.2.4,60.024155189709255,
,,,,,,,,,,,,0,0,0,0,54,0,54,0,,,,,,,54,,,1,738.9368223643396,X,l,go,l,1,0.40355239040218294,,,,,,,,,,,,,,,,,3,001,2022-12-14_14h24.57.588,00_bat_bachelor,2022.2.4,60.024155189709255,
,,,,,,,,,,,,0,0,0,0,55,0,55,0,,,,,,,55,,,1,740.3699492169544,Y,d,go,d,1,0.5387895926833153,,,,,,,,,,,,,,,,,3,001,2022-12-14_14h24.57.588,00_bat_bachelor,2022.2.4,60.024155189709255,
,,,,,,,,,,,,0,0,0,0,56,0,56,0,,,,,,,56,,,1,741.9367050311994,X,l,go,l,1,0.4429826552513987,,,,,,,,,,,,,,,,,3,001,2022-12-14_14h24.57.588,00_bat_bachelor,2022.2.4,60.024155189709255,
,,,,,,,,,,,,0,0,0,0,57,0,57,0,,,,,,,57,,,1,743.4035579117481,X,None,nogo,None,1,,744.2033404088579,,,,,,,,,,,,,,,,3,001,2022-12-14_14h24.57.588,00_bat_bachelor,2022.2.4,60.024155189709255,
,,,,,,,,,,,,0,0,0,0,58,0,58,0,,,,,,,58,,,1,745.2034577419981,Y,d,go,d,1,0.5365689888130873,,,,,,,,,,,,,,,,,3,001,2022-12-14_14h24.57.588,00_bat_bachelor,2022.2.4,60.024155189709255,
,,,,,,,,,,,,0,0,0,0,59,0,59,0,,,,,,,59,,,1,746.7702988893725,X,l,go,None,0,,747.5699010230601,,,,,,,,,,,,,,,,3,001,2022-12-14_14h24.57.588,00_bat_bachelor,2022.2.4,60.024155189709255,
,,,,,,,,,,,,0,0,0,0,60,0,60,0,,,,,,,60,,,1,748.5701065987814,X,None,nogo,l,0,0.5457098281476647,,,,,,,,,,,,,,,,,3,001,2022-12-14_14h24.57.588,00_bat_bachelor,2022.2.4,60.024155189709255,
,,,,,,,,,,,,0,0,0,0,61,0,61,0,,,,,,,61,,,1,750.1367586553097,Y,d,go,d,1,0.5465486154425889,,,,,,,,,,,,,,,,,3,001,2022-12-14_14h24.57.588,00_bat_bachelor,2022.2.4,60.024155189709255,
,,,,,,,,,,,,0,0,0,0,62,0,62,0,,,,,,,62,,,1,751.7032259847037,X,l,go,None,0,,752.5036193905398,,,,,,,,,,,,,,,,3,001,2022-12-14_14h24.57.588,00_bat_bachelor,2022.2.4,60.024155189709255,
,,,,,,,,,,,,0,0,0,0,63,0,63,0,,,,,,,63,,,1,753.5032349058893,Y,d,go,d,1,0.6043308624066412,,,,,,,,,,,,,,,,,3,001,2022-12-14_14h24.57.588,00_bat_bachelor,2022.2.4,60.024155189709255,
,,,,,,,,,,,,0,0,0,0,64,0,64,0,,,,,,,64,,,1,755.1367979280185,Y,None,nogo,None,1,,755.9367903643288,,,,,,,,,,,,,,,,3,001,2022-12-14_14h24.57.588,00_bat_bachelor,2022.2.4,60.024155189709255,
,,,,,,,,,,,,0,0,0,0,65,0,65,0,,,,,,,65,,,1,756.9368941218127,X,l,go,l,1,0.4026103306096047,,,,,,,,,,,,,,,,,3,001,2022-12-14_14h24.57.588,00_bat_bachelor,2022.2.4,60.024155189709255,
,,,,,,,,,,,,0,0,0,0,66,0,66,0,,,,,,,66,,,1,758.3701358835679,Y,d,go,d,1,0.6179773944895715,,,,,,,,,,,,,,,,,3,001,2022-12-14_14h24.57.588,00_bat_bachelor,2022.2.4,60.024155189709255,
,,,,,,,,,,,,0,0,0,0,67,0,67,0,,,,,,,67,,,1,760.0199830108322,X,l,go,l,1,0.5841587607283145,,,,,,,,,,,,,,,,,3,001,2022-12-14_14h24.57.588,00_bat_bachelor,2022.2.4,60.024155189709255,
,,,,,,,,,,,,0,0,0,0,68,0,68,0,,,,,,,68,,,1,761.6367751401849,Y,d,go,d,1,0.6147715793922544,,,,,,,,,,,,,,,,,3,001,2022-12-14_14h24.57.588,00_bat_bachelor,2022.2.4,60.024155189709255,
,,,,,,,,,,,,0,0,0,0,69,0,69,0,,,,,,,69,,,1,763.2701204654295,X,l,go,l,1,0.4061831757426262,,,,,,,,,,,,,,,,,3,001,2022-12-14_14h24.57.588,00_bat_bachelor,2022.2.4,60.024155189709255,
,,,,,,,,,,,,0,0,0,0,70,0,70,0,,,,,,,70,,,1,764.7031901059672,Y,d,go,d,1,0.4608827589545399,,,,,,,,,,,,,,,,,3,001,2022-12-14_14h24.57.588,00_bat_bachelor,2022.2.4,60.024155189709255,
,,,,,,,,,,,,0,0,0,0,71,0,71,0,,,,,,,71,,,1,766.1867891522124,Y,None,nogo,None,1,,766.9868921339512,,,,,,,,,,,,,,,,3,001,2022-12-14_14h24.57.588,00_bat_bachelor,2022.2.4,60.024155189709255,
,,,,,,,,,,,,0,0,0,0,72,0,72,0,,,,,,,72,,,1,767.986768982606,X,l,go,l,1,0.37662150734104216,,,,,,,,,,,,,,,,,3,001,2022-12-14_14h24.57.588,00_bat_bachelor,2022.2.4,60.024155189709255,
,,,,,,,,,,,,0,0,0,0,73,0,73,0,,,,,,,73,,,1,769.3867264129221,Y,d,go,d,1,0.5621995092369616,,,,,,,,,,,,,,,,,3,001,2022-12-14_14h24.57.588,00_bat_bachelor,2022.2.4,60.024155189709255,
,,,,,,,,,,,,0,0,0,0,74,0,74,0,,,,,,,74,,,1,770.9702182107139,X,l,go,l,1,0.546296009561047,,,,,,,,,,,,,,,,,3,001,2022-12-14_14h24.57.588,00_bat_bachelor,2022.2.4,60.024155189709255,
,,,,,,,,,,,,0,0,0,0,75,0,75,0,,,,,,,75,,,1,772.5368402067106,Y,d,go,d,1,0.435349693056196,,,,,,,,,,,,,,,,,3,001,2022-12-14_14h24.57.588,00_bat_bachelor,2022.2.4,60.024155189709255,
,,,,,,,,,,,,0,0,0,0,76,0,76,0,,,,,,,76,,,1,774.0033847240265,X,l,go,l,1,0.4413278689607978,,,,,,,,,,,,,,,,,3,001,2022-12-14_14h24.57.588,00_bat_bachelor,2022.2.4,60.024155189709255,
,,,,,,,,,,,,0,0,0,0,77,0,77,0,,,,,,,77,,,1,775.4699820897076,Y,d,go,d,1,0.42948933504521847,,,,,,,,,,,,,,,,,3,001,2022-12-14_14h24.57.588,00_bat_bachelor,2022.2.4,60.024155189709255,
,,,,,,,,,,,,0,0,0,0,78,0,78,0,,,,,,,78,,,1,776.9198735321406,X,l,go,l,1,0.3569463749881834,,,,,,,,,,,,,,,,,3,001,2022-12-14_14h24.57.588,00_bat_bachelor,2022.2.4,60.024155189709255,
,,,,,,,,,,,,0,0,0,0,79,0,79,0,,,,,,,79,,,1,778.303393645212,Y,d,go,d,1,0.3481667472515255,,,,,,,,,,,,,,,,,3,001,2022-12-14_14h24.57.588,00_bat_bachelor,2022.2.4,60.024155189709255,
,,,,,,,,,,,,0,0,0,0,80,0,80,0,,,,,,,80,,,1,779.6701166834682,X,l,go,l,1,0.4225147960241884,,,,,,,,,,,,,,,,,3,001,2022-12-14_14h24.57.588,00_bat_bachelor,2022.2.4,60.024155189709255,
,,,,,,,,,,,,0,0,0,0,81,0,81,0,,,,,,,81,,,1,781.1200706714299,Y,d,go,d,1,0.37944574700668454,,,,,,,,,,,,,,,,,3,001,2022-12-14_14h24.57.588,00_bat_bachelor,2022.2.4,60.024155189709255,
,,,,,,,,,,,,0,0,0,0,82,0,82,0,,,,,,,82,,,1,782.5202773136552,X,l,go,l,1,0.38826464768499136,,,,,,,,,,,,,,,,,3,001,2022-12-14_14h24.57.588,00_bat_bachelor,2022.2.4,60.024155189709255,
,,,,,,,,,,,,0,0,0,0,83,0,83,0,,,,,,,83,,,1,783.9367326674983,X,None,nogo,d,0,0.34791414136998355,,,,,,,,,,,,,,,,,3,001,2022-12-14_14h24.57.588,00_bat_bachelor,2022.2.4,60.024155189709255,
,,,,,,,,,,,,0,0,0,0,84,0,84,0,,,,,,,84,,,1,785.303182736272,Y,d,go,None,0,,786.1033822027966,,,,,,,,,,,,,,,,3,001,2022-12-14_14h24.57.588,00_bat_bachelor,2022.2.4,60.024155189709255,
,,,,,,,,,,,,0,0,0,0,85,0,85,0,,,,,,,85,,,1,787.1036406268831,X,l,go,l,1,0.42773806396871805,,,,,,,,,,,,,,,,,3,001,2022-12-14_14h24.57.588,00_bat_bachelor,2022.2.4,60.024155189709255,
,,,,,,,,,,,,0,0,0,0,86,0,86,0,,,,,,,86,,,1,788.5534331602976,X,None,nogo,l,0,0.4980599351692945,,,,,,,,,,,,,,,,,3,001,2022-12-14_14h24.57.588,00_bat_bachelor,2022.2.4,60.024155189709255,
,,,,,,,,,,,,0,0,0,0,87,0,87,0,,,,,,,87,,,1,790.0700920531526,Y,d,go,d,1,0.5013971438165754,,,,,,,,,,,,,,,,,3,001,2022-12-14_14h24.57.588,00_bat_bachelor,2022.2.4,60.024155189709255,
,,,,,,,,,,,,0,0,0,0,88,0,88,0,,,,,,,88,,,1,791.6034175967798,X,l,go,None,0,,792.4031763363164,,,,,,,,,,,,,,,,3,001,2022-12-14_14h24.57.588,00_bat_bachelor,2022.2.4,60.024155189709255,
,,,,,,,,,,,,0,0,0,0,89,0,89,0,,,,,,,89,,,1,793.4034197300207,X,None,nogo,None,1,,794.2035154390614,,,,,,,,,,,,,,,,3,001,2022-12-14_14h24.57.588,00_bat_bachelor,2022.2.4,60.024155189709255,
,,,,,,,,,,,,0,0,0,0,90,0,90,0,,,,,,,90,,,1,795.2034126513172,Y,d,go,d,1,0.37606926541775465,,,,,,,,,,,,,,,,,3,001,2022-12-14_14h24.57.588,00_bat_bachelor,2022.2.4,60.024155189709255,
,,,,,,,,,,,,0,0,0,0,91,0,91,0,,,,,,,91,,,1,796.6035771116149,X,l,go,l,1,0.593329660827294,,,,,,,,,,,,,,,,,3,001,2022-12-14_14h24.57.588,00_bat_bachelor,2022.2.4,60.024155189709255,
,,,,,,,,,,,,0,0,0,0,92,0,92,0,,,,,,,92,,,1,798.2196351808961,Y,d,go,d,1,0.36776769789867103,,,,,,,,,,,,,,,,,3,001,2022-12-14_14h24.57.588,00_bat_bachelor,2022.2.4,60.024155189709255,
,,,,,,,,,,,,0,0,0,0,93,0,93,0,,,,,,,93,,,1,799.6200110351201,X,l,go,l,1,0.5675061708316207,,,,,,,,,,,,,,,,,3,001,2022-12-14_14h24.57.588,00_bat_bachelor,2022.2.4,60.024155189709255,
,,,,,,,,,,,,0,0,0,0,94,0,94,0,,,,,,,94,,,1,801.2199639079627,X,None,nogo,l,0,0.5041719293221831,,,,,,,,,,,,,,,,,3,001,2022-12-14_14h24.57.588,00_bat_bachelor,2022.2.4,60.024155189709255,
,,,,,,,,,,,,0,0,0,0,95,0,95,0,,,,,,,95,,,1,802.7533204816282,Y,d,go,d,1,0.507585259154439,,,,,,,,,,,,,,,,,3,001,2022-12-14_14h24.57.588,00_bat_bachelor,2022.2.4,60.024155189709255,
,,,,,,,,,,,,0,0,0,0,96,0,96,0,,,,,,,96,,,1,804.2864254191518,X,l,go,l,1,0.5584807249251753,,,,,,,,,,,,,,,,,3,001,2022-12-14_14h24.57.588,00_bat_bachelor,2022.2.4,60.024155189709255,
,,,,,,,,,,,,0,0,0,0,97,0,97,0,,,,,,,97,,,1,805.870190186426,Y,d,go,d,1,0.4147295916918665,,,,,,,,,,,,,,,,,3,001,2022-12-14_14h24.57.588,00_bat_bachelor,2022.2.4,60.024155189709255,
,,,,,,,,,,,,0,0,0,0,98,0,98,0,,,,,,,98,,,1,807.3033354633953,X,l,go,l,1,0.45248761563561857,,,,,,,,,,,,,,,,,3,001,2022-12-14_14h24.57.588,00_bat_bachelor,2022.2.4,60.024155189709255,
,,,,,,,,,,,,0,0,0,0,99,0,99,0,,,,,,,99,,,1,808.786516570719,Y,d,go,d,1,0.6169786078389734,,,,,,,,,,,,,,,,,3,001,2022-12-14_14h24.57.588,00_bat_bachelor,2022.2.4,60.024155189709255,
,,,,,,,,,,,,0,0,0,0,100,0,100,0,,,,,,,100,,,1,810.4200155928265,Y,None,nogo,None,1,,811.2198397868779,,,,,,,,,,,,,,,,3,001,2022-12-14_14h24.57.588,00_bat_bachelor,2022.2.4,60.024155189709255,
,,,,,,,,,,,,0,0,0,0,101,0,101,0,,,,,,,101,,,1,812.2201554228086,X,l,go,l,1,0.31965477485209703,,,,,,,,,,,,,,,,,3,001,2022-12-14_14h24.57.588,00_bat_bachelor,2022.2.4,60.024155189709255,
,,,,,,,,,,,,0,0,0,0,102,0,102,0,,,,,,,102,,,1,813.5699655078351,Y,d,go,d,1,0.5220885179005563,,,,,,,,,,,,,,,,,3,001,2022-12-14_14h24.57.588,00_bat_bachelor,2022.2.4,60.024155189709255,
,,,,,,,,,,,,0,0,0,0,103,0,103,0,,,,,,,103,,,1,815.1199067928828,X,l,go,l,1,0.477099955547601,,,,,,,,,,,,,,,,,3,001,2022-12-14_14h24.57.588,00_bat_bachelor,2022.2.4,60.024155189709255,
,,,,,,,,,,,,0,0,0,0,104,0,104,0,,,,,,,104,,,1,816.6199717624113,X,None,nogo,l,0,0.7519908403046429,,,,,,,,,,,,,,,,,3,001,2022-12-14_14h24.57.588,00_bat_bachelor,2022.2.4,60.024155189709255,
,,,,,,,,,,,,0,0,0,0,105,0,105,0,,,,,,,105,,,1,818.4029770637862,Y,d,go,d,1,0.6650265611242503,,,,,,,,,,,,,,,,,3,001,2022-12-14_14h24.57.588,00_bat_bachelor,2022.2.4,60.024155189709255,
,,,,,,,,,,,,0,0,0,0,106,0,106,0,,,,,,,106,,,1,820.086631673621,X,l,go,l,1,0.5490329766180366,,,,,,,,,,,,,,,,,3,001,2022-12-14_14h24.57.588,00_bat_bachelor,2022.2.4,60.024155189709255,
,,,,,,,,,,,,0,0,0,0,107,0,107,0,,,,,,,107,,,1,821.6531552453525,Y,d,go,d,1,0.5187556727323681,,,,,,,,,,,,,,,,,3,001,2022-12-14_14h24.57.588,00_bat_bachelor,2022.2.4,60.024155189709255,
,,,,,,,,,,,,0,0,0,0,108,0,108,0,,,,,,,108,,,1,823.2032686513849,X,l,go,l,1,0.5046519285533577,,,,,,,,,,,,,,,,,3,001,2022-12-14_14h24.57.588,00_bat_bachelor,2022.2.4,60.024155189709255,
,,,,,,,,,,,,0,0,0,0,109,0,109,0,,,,,,,109,,,1,824.7362809830811,Y,d,go,d,1,0.49186163814738393,,,,,,,,,,,,,,,,,3,001,2022-12-14_14h24.57.588,00_bat_bachelor,2022.2.4,60.024155189709255,
,,,,,,,,,,,,0,0,0,0,110,0,110,0,,,,,,,110,,,1,826.25297333044,X,l,go,l,1,0.35080965352244675,,,,,,,,,,,,,,,,,3,001,2022-12-14_14h24.57.588,00_bat_bachelor,2022.2.4,60.024155189709255,
,,,,,,,,,,,,0,0,0,0,111,0,111,0,,,,,,,111,,,1,827.636671382701,X,None,nogo,None,1,,828.4366070916876,,,,,,,,,,,,,,,,3,001,2022-12-14_14h24.57.588,00_bat_bachelor,2022.2.4,60.024155189709255,
,,,,,,,,,,,,0,0,0,0,112,0,112,0,,,,,,,112,,,1,829.4364112131298,Y,d,go,d,1,0.49570163432508707,,,,,,,,,,,,,,,,,3,001,2022-12-14_14h24.57.588,00_bat_bachelor,2022.2.4,60.024155189709255,
,,,,,,,,,,,,0,0,0,0,113,0,113,0,,,,,,,113,,,1,830.9532805301715,X,l,go,l,1,0.7061494304798543,,,,,,,,,,,,,,,,,3,001,2022-12-14_14h24.57.588,00_bat_bachelor,2022.2.4,60.024155189709255,
,,,,,,,,,,,,0,0,0,0,114,0,114,0,,,,,,,114,,,1,832.6866034553386,Y,d,go,d,1,0.6695017081219703,,,,,,,,,,,,,,,,,3,001,2022-12-14_14h24.57.588,00_bat_bachelor,2022.2.4,60.024155189709255,
,,,,,,,,,,,,0,0,0,0,115,0,115,0,,,,,,,115,,,1,834.3866430190392,Y,None,nogo,None,1,,835.1863324253354,,,,,,,,,,,,,,,,3,001,2022-12-14_14h24.57.588,00_bat_bachelor,2022.2.4,60.024155189709255,
,,,,,,,,,,,,0,0,0,0,116,0,116,0,,,,,,,116,,,1,836.1865292736329,X,l,go,l,1,0.36941278725862503,,,,,,,,,,,,,,,,,3,001,2022-12-14_14h24.57.588,00_bat_bachelor,2022.2.4,60.024155189709255,
,,,,,,,,,,,,0,0,0,0,117,0,117,0,,,,,,,117,,,1,837.5866156734992,Y,d,go,d,1,0.56900629051961,,,,,,,,,,,,,,,,,3,001,2022-12-14_14h24.57.588,00_bat_bachelor,2022.2.4,60.024155189709255,
,,,,,,,,,,,,0,0,0,0,118,0,118,0,,,,,,,118,,,1,839.1866024858318,Y,None,nogo,None,1,,839.9865857099649,,,,,,,,,,,,,,,,3,001,2022-12-14_14h24.57.588,00_bat_bachelor,2022.2.4,60.024155189709255,
,,,,,,,,,,,,0,0,0,0,119,0,119,0,,,,,,,119,,,1,840.9866332251113,X,l,go,l,1,0.35325959068723023,,,,,,,,,,,,,,,,,3,001,2022-12-14_14h24.57.588,00_bat_bachelor,2022.2.4,60.024155189709255,
,,,,,,,,,,,,0,0,0,0,120,0,120,0,,,,,,,120,,,1,842.3699254593812,Y,d,go,d,1,0.7304645583499223,,,,,,,,,,,,,,,,,3,001,2022-12-14_14h24.57.588,00_bat_bachelor,2022.2.4,60.024155189709255,
,,,,,,,,,,,,0,0,0,0,121,0,121,0,,,,,,,121,,,1,844.1368493218906,X,l,go,l,1,0.562910781474784,,,,,,,,,,,,,,,,,3,001,2022-12-14_14h24.57.588,00_bat_bachelor,2022.2.4,60.024155189709255,
,,,,,,,,,,,,0,0,0,0,122,0,122,0,,,,,,,122,,,1,845.7203750589397,Y,d,go,d,1,0.5473980691749603,,,,,,,,,,,,,,,,,3,001,2022-12-14_14h24.57.588,00_bat_bachelor,2022.2.4,60.024155189709255,
,,,,,,,,,,,,0,0,0,0,123,0,123,0,,,,,,,123,,,1,847.2870339034125,X,l,go,l,1,0.4846412814222276,,,,,,,,,,,,,,,,,3,001,2022-12-14_14h24.57.588,00_bat_bachelor,2022.2.4,60.024155189709255,
,,,,,,,,,,,,0,0,0,0,124,0,124,0,,,,,,,124,,,1,848.8039943717886,X,None,nogo,None,1,,849.6042864443734,,,,,,,,,,,,,,,,3,001,2022-12-14_14h24.57.588,00_bat_bachelor,2022.2.4,60.024155189709255,
,,,,,,,,,,,,0,0,0,0,125,0,125,0,,,,,,,125,,,1,850.6041012324858,Y,d,go,d,1,0.5287309356499463,,,,,,,,,,,,,,,,,3,001,2022-12-14_14h24.57.588,00_bat_bachelor,2022.2.4,60.024155189709255,
,,,,,,,,,,,,0,0,0,0,126,0,126,0,,,,,,,126,,,1,852.1708895312622,X,l,go,None,0,,852.9712543308269,,,,,,,,,,,,,,,,3,001,2022-12-14_14h24.57.588,00_bat_bachelor,2022.2.4,60.024155189709255,
,,,,,,,,,,,,0,0,0,0,127,0,127,0,,,,,,,127,,,1,853.9706443920732,Y,d,go,d,1,0.5209806400816888,,,,,,,,,,,,,,,,,3,001,2022-12-14_14h24.57.588,00_bat_bachelor,2022.2.4,60.024155189709255,
,,,,,,,,,,,,0,0,0,0,128,0,128,0,,,,,,,128,,,1,855.5370191156399,X,l,go,l,1,0.52335881954059,,,,,,,,,,,,,,,,,3,001,2022-12-14_14h24.57.588,00_bat_bachelor,2022.2.4,60.024155189709255,
,,,,,,,,,,,,0,0,0,0,129,0,129,0,,,,,,,129,,,1,857.0869928854518,X,None,nogo,None,1,,857.8870619277004,,,,,,,,,,,,,,,,3,001,2022-12-14_14h24.57.588,00_bat_bachelor,2022.2.4,60.024155189709255,
,,,,,,,,,,,,0,0,0,0,130,0,130,0,,,,,,,130,,,1,858.8870173217729,Y,d,go,d,1,0.4211795248556882,,,,,,,,,,,,,,,,,3,001,2022-12-14_14h24.57.588,00_bat_bachelor,2022.2.4,60.024155189709255,
,,,,,,,,,,,,0,0,0,0,131,0,131,0,,,,,,,131,,,1,860.3368384612259,X,l,go,l,1,0.3949022169690579,,,,,,,,,,,,,,,,,3,001,2022-12-14_14h24.57.588,00_bat_bachelor,2022.2.4,60.024155189709255,
,,,,,,,,,,,,0,0,0,0,132,0,132,0,,,,,,,132,,,1,861.7542004808784,Y,d,go,d,1,0.46523330034688115,,,,,,,,,,,,,,,,,3,001,2022-12-14_14h24.57.588,00_bat_bachelor,2022.2.4,60.024155189709255,
,,,,,,,,,,,,0,0,0,0,133,0,133,0,,,,,,,133,,,1,863.2537917539012,Y,None,nogo,None,1,,864.0538195841946,,,,,,,,,,,,,,,,3,001,2022-12-14_14h24.57.588,00_bat_bachelor,2022.2.4,60.024155189709255,
,,,,,,,,,,,,0,0,0,0,134,0,134,0,,,,,,,134,,,1,865.053411826957,X,l,go,l,1,0.35026613902300596,,,,,,,,,,,,,,,,,3,001,2022-12-14_14h24.57.588,00_bat_bachelor,2022.2.4,60.024155189709255,
,,,,,,,,,,,,0,0,0,0,135,0,135,0,,,,,,,135,,,1,866.4203612892888,Y,d,go,d,1,0.4875731572974473,,,,,,,,,,,,,,,,,3,001,2022-12-14_14h24.57.588,00_bat_bachelor,2022.2.4,60.024155189709255,
,,,,,,,,,,,,0,0,0,0,136,0,136,0,,,,,,,136,,,1,867.9368058794644,Y,None,nogo,None,1,,868.7367963765282,,,,,,,,,,,,,,,,3,001,2022-12-14_14h24.57.588,00_bat_bachelor,2022.2.4,60.024155189709255,
,,,,,,,,,,,,0,0,0,0,137,0,137,0,,,,,,,137,,,1,869.7368492248934,X,l,go,l,1,0.40302293631248176,,,,,,,,,,,,,,,,,3,001,2022-12-14_14h24.57.588,00_bat_bachelor,2022.2.4,60.024155189709255,
,,,,,,,,,,,,0,0,0,0,138,0,138,0,,,,,,,138,,,1,871.1698854109272,Y,d,go,d,1,0.45794845884665847,,,,,,,,,,,,,,,,,3,001,2022-12-14_14h24.57.588,00_bat_bachelor,2022.2.4,60.024155189709255,
,,,,,,,,,,,,0,0,0,0,139,0,139,0,,,,,,,139,,,1,872.6532386392355,Y,None,nogo,l,0,0.4147465613204986,,,,,,,,,,,,,,,,,3,001,2022-12-14_14h24.57.588,00_bat_bachelor,2022.2.4,60.024155189709255,
,,,,,,,,,,,,0,0,0,0,140,0,140,0,,,,,,,140,,,1,874.0865414917935,X,l,go,l,1,0.5982348683755845,,,,,,,,,,,,,,,,,3,001,2022-12-14_14h24.57.588,00_bat_bachelor,2022.2.4,60.024155189709255,
,,,,,,,,,,,,0,0,0,0,141,0,141,0,,,,,,,141,,,1,875.7032473180443,Y,d,go,d,1,0.6288185962475836,,,,,,,,,,,,,,,,,3,001,2022-12-14_14h24.57.588,00_bat_bachelor,2022.2.4,60.024155189709255,
,,,,,,,,,,,,0,0,0,0,142,0,142,0,,,,,,,142,,,1,877.3532083847094,X,l,go,l,1,0.5316831751260906,,,,,,,,,,,,,,,,,3,001,2022-12-14_14h24.57.588,00_bat_bachelor,2022.2.4,60.024155189709255,
,,,,,,,,,,,,0,0,0,0,143,0,143,0,,,,,,,143,,,1,878.9028587609064,Y,d,go,d,1,0.3893623435869813,,,,,,,,,,,,,,,,,3,001,2022-12-14_14h24.57.588,00_bat_bachelor,2022.2.4,60.024155189709255,
,,,,,,,,,,,,0,0,0,0,144,0,144,0,,,,,,,144,,,1,880.319903204916,X,l,go,l,1,0.5413093478418887,,,,,,,,,,,,,,,,,3,001,2022-12-14_14h24.57.588,00_bat_bachelor,2022.2.4,60.024155189709255,
,,,,,,,,,,,,0,0,0,0,145,0,145,0,,,,,,,145,,,1,881.8865538069513,Y,d,go,d,1,0.4456483495887369,,,,,,,,,,,,,,,,,3,001,2022-12-14_14h24.57.588,00_bat_bachelor,2022.2.4,60.024155189709255,
,,,,,,,,,,,,0,0,0,0,146,0,146,0,,,,,,,146,,,1,883.3530076576862,X,l,go,l,1,0.3393168163020164,,,,,,,,,,,,,,,,,3,001,2022-12-14_14h24.57.588,00_bat_bachelor,2022.2.4,60.024155189709255,
,,,,,,,,,,,,0,0,0,0,147,0,147,0,,,,,,,147,,,1,884.7199129988439,X,None,nogo,d,0,0.36477182200178504,,,,,,,,,,,,,,,,,3,001,2022-12-14_14h24.57.588,00_bat_bachelor,2022.2.4,60.024155189709255,
,,,,,,,,,,,,0,0,0,0,148,0,148,0,,,,,,,148,,,1,886.1028997791,Y,d,go,d,1,0.6617329884320498,,,,,,,,,,,,,,,,,3,001,2022-12-14_14h24.57.588,00_bat_bachelor,2022.2.4,60.024155189709255,
,,,,,,,,,,,,0,0,0,0,149,0,149,0,,,,,,,149,,,1,887.7863391162828,X,l,go,l,1,0.5627580541186035,,,,,,,,,,,,,,,,,3,001,2022-12-14_14h24.57.588,00_bat_bachelor,2022.2.4,60.024155189709255,
,,,,,,,,,,,,0,0,0,0,150,0,150,0,,,,,,,150,,,1,889.3698658230714,Y,d,go,d,1,0.5471493420191109,,,,,,,,,,,,,,,,,3,001,2022-12-14_14h24.57.588,00_bat_bachelor,2022.2.4,60.024155189709255,
,,,,,,,,,,,,0,0,0,0,151,0,151,0,,,,,,,151,,,1,890.9365164251067,X,l,go,l,1,0.38735313317738473,,,,,,,,,,,,,,,,,3,001,2022-12-14_14h24.57.588,00_bat_bachelor,2022.2.4,60.024155189709255,
,,,,,,,,,,,,0,0,0,0,152,0,152,0,,,,,,,152,,,1,892.3532326272689,X,None,nogo,d,0,0.4580953677650541,,,,,,,,,,,,,,,,,3,001,2022-12-14_14h24.57.588,00_bat_bachelor,2022.2.4,60.024155189709255,
,,,,,,,,,,,,0,0,0,0,153,0,153,0,,,,,,,153,,,1,893.8362144618295,Y,d,go,d,1,0.5285689965821803,,,,,,,,,,,,,,,,,3,001,2022-12-14_14h24.57.588,00_bat_bachelor,2022.2.4,60.024155189709255,
,,,,,,,,,,,,0,0,0,0,154,0,154,0,,,,,,,154,,,1,895.3862187769264,X,l,go,l,1,0.5618989036884159,,,,,,,,,,,,,,,,,3,001,2022-12-14_14h24.57.588,00_bat_bachelor,2022.2.4,60.024155189709255,
,,,,,,,,,,,,0,0,0,0,155,0,155,0,,,,,,,155,,,1,896.9696208778769,Y,d,go,d,1,0.6268525375053287,,,,,,,,,,,,,,,,,3,001,2022-12-14_14h24.57.588,00_bat_bachelor,2022.2.4,60.024155189709255,
,,,,,,,,,,,,0,0,0,0,156,0,156,0,,,,,,,156,,,1,898.619874792872,X,l,go,l,1,0.4648318460676819,,,,,,,,,,,,,,,,,3,001,2022-12-14_14h24.57.588,00_bat_bachelor,2022.2.4,60.024155189709255,
,,,,,,,,,,,,0,0,0,0,157,0,157,0,,,,,,,157,,,1,900.1032144452911,Y,d,go,d,1,0.45246822154149413,,,,,,,,,,,,,,,,,3,001,2022-12-14_14h24.57.588,00_bat_bachelor,2022.2.4,60.024155189709255,
,,,,,,,,,,,,0,0,0,0,158,0,158,0,,,,,,,158,,,1,901.5862161589321,X,l,go,l,1,0.5536259417422116,,,,,,,,,,,,,,,,,3,001,2022-12-14_14h24.57.588,00_bat_bachelor,2022.2.4,60.024155189709255,
,,,,,,,,,,,,0,0,0,0,159,0,159,0,,,,,,,159,,,1,903.1698665020522,Y,d,go,d,1,0.42697006464004517,,,,,,,,,,,,,,,,,3,001,2022-12-14_14h24.57.588,00_bat_bachelor,2022.2.4,60.024155189709255,
,,,,,,,,,,,,0,0,0,0,160,0,160,0,,,,,,,160,,,1,904.6198937019799,X,l,go,l,1,0.4969006634783,,,,,,,,,,,,,,,,,3,001,2022-12-14_14h24.57.588,00_bat_bachelor,2022.2.4,60.024155189709255,
,,,,,,,,,,,,0,0,0,0,161,0,161,0,,,,,,,161,,,1,906.1365205948241,Y,d,go,d,1,0.4191252237651497,,,,,,,,,,,,,,,,,3,001,2022-12-14_14h24.57.588,00_bat_bachelor,2022.2.4,60.024155189709255,
,,,,,,,,,,,,0,0,0,0,162,0,162,0,,,,,,,162,,,1,907.5865676735993,X,l,go,l,1,0.6978944081347436,,,,,,,,,,,,,,,,,3,001,2022-12-14_14h24.57.588,00_bat_bachelor,2022.2.4,60.024155189709255,
,,,,,,,,,,,,0,0,0,0,163,0,163,0,,,,,,,163,,,1,909.3029747365508,X,None,nogo,l,0,0.5170805228408426,,,,,,,,,,,,,,,,,3,001,2022-12-14_14h24.57.588,00_bat_bachelor,2022.2.4,60.024155189709255,
,,,,,,,,,,,,0,0,0,0,164,0,164,0,,,,,,,164,,,1,910.8363633102272,Y,d,go,d,1,0.4876827329862863,,,,,,,,,,,,,,,,,3,001,2022-12-14_14h24.57.588,00_bat_bachelor,2022.2.4,60.024155189709255,
,,,,,,,,,,,,0,0,0,0,165,0,165,0,,,,,,,165,,,1,912.3528597790282,X,l,go,l,1,0.4919498802628368,,,,,,,,,,,,,,,,,3,001,2022-12-14_14h24.57.588,00_bat_bachelor,2022.2.4,60.024155189709255,
,,,,,,,,,,,,0,0,0,0,166,0,166,0,,,,,,,166,,,1,913.8700006108265,Y,d,go,d,1,0.7180330550763756,,,,,,,,,,,,,,,,,3,001,2022-12-14_14h24.57.588,00_bat_bachelor,2022.2.4,60.024155189709255,
,,,,,,,,,,,,0,0,0,0,167,0,167,0,,,,,,,167,,,1,915.6196444900706,X,l,go,l,1,0.5361064437311143,,,,,,,,,,,,,,,,,3,001,2022-12-14_14h24.57.588,00_bat_bachelor,2022.2.4,60.024155189709255,
,,,,,,,,,,,,0,0,0,0,168,0,168,0,,,,,,,168,,,1,917.1862427284941,X,None,nogo,None,1,,917.9865129827522,,,,,,,,,,,,,,,,3,001,2022-12-14_14h24.57.588,00_bat_bachelor,2022.2.4,60.024155189709255,
,,,,,,,,,,,,0,0,0,0,169,0,169,0,,,,,,,169,,,1,918.9862720132805,Y,d,go,d,1,0.3695155750028789,,,,,,,,,,,,,,,,,3,001,2022-12-14_14h24.57.588,00_bat_bachelor,2022.2.4,60.024155189709255,
,,,,,,,,,,,,0,0,0,0,170,0,170,0,,,,,,,170,,,1,920.3861756254919,X,l,go,l,1,0.6818430298008025,,,,,,,,,,,,,,,,,3,001,2022-12-14_14h24.57.588,00_bat_bachelor,2022.2.4,60.024155189709255,
,,,,,,,,,,,,0,0,0,0,171,0,171,0,,,,,,,171,,,1,922.0865303403698,X,None,nogo,None,1,,922.8865353828296,,,,,,,,,,,,,,,,3,001,2022-12-14_14h24.57.588,00_bat_bachelor,2022.2.4,60.024155189709255,
,,,,,,,,,,,,0,0,0,0,172,0,172,0,,,,,,,172,,,1,923.8865067767911,Y,d,go,d,1,0.5576778165996075,,,,,,,,,,,,,,,,,3,001,2022-12-14_14h24.57.588,00_bat_bachelor,2022.2.4,60.024155189709255,
,,,,,,,,,,,,0,0,0,0,173,0,173,0,,,,,,,173,,,1,925.4695331205148,X,l,go,None,0,,926.269607496215,,,,,,,,,,,,,,,,3,001,2022-12-14_14h24.57.588,00_bat_bachelor,2022.2.4,60.024155189709255,
,,,,,,,,,,,,0,0,0,0,174,0,174,0,,,,,,,174,,,1,927.2698499201797,X,None,nogo,None,1,,928.0696624778211,,,,,,,,,,,,,,,,3,001,2022-12-14_14h24.57.588,00_bat_bachelor,2022.2.4,60.024155189709255,
,,,,,,,,,,,,0,0,0,0,175,0,175,0,,,,,,,175,,,1,929.06984235649,Y,d,go,d,1,0.3824212593026459,,,,,,,,,,,,,,,,,3,001,2022-12-14_14h24.57.588,00_bat_bachelor,2022.2.4,60.024155189709255,
,,,,,,,,,,,,0,0,0,0,176,0,176,0,,,,,,,176,,,1,930.4698220898863,X,l,go,l,1,0.6465999123174697,,,,,,,,,,,,,,,,,3,001,2022-12-14_14h24.57.588,00_bat_bachelor,2022.2.4,60.024155189709255,
,,,,,,,,,,,,0,0,0,0,177,0,177,0,,,,,,,177,,,1,932.1361807163339,Y,d,go,None,0,,932.9364839403424,,,,,,,,,,,,,,,,3,001,2022-12-14_14h24.57.588,00_bat_bachelor,2022.2.4,60.024155189709255,
,,,,,,,,,,,,0,0,0,0,178,0,178,0,,,,,,,178,,,1,933.9366803038865,Y,None,nogo,None,1,,934.7364962555002,,,,,,,,,,,,,,,,3,001,2022-12-14_14h24.57.588,00_bat_bachelor,2022.2.4,60.024155189709255,
,,,,,,,,,,,,0,0,0,0,179,0,179,0,,,,,,,179,,,1,935.7365452251397,X,l,go,l,1,0.5315571147948503,,,,,,,,,,,,,,,,,3,001,2022-12-14_14h24.57.588,00_bat_bachelor,2022.2.4,60.024155189709255,
,,,,,,,,,,,,0,0,0,0,180,0,180,0,,,,,,,180,,,1,937.2864622676279,Y,d,go,d,1,0.4533341603819281,,,,,,,,,,,,,,,,,3,001,2022-12-14_14h24.57.588,00_bat_bachelor,2022.2.4,60.024155189709255,
,,,,,,,,,,,,0,0,0,0,181,0,181,0,,,,,,,181,,,1,938.7694877386093,Y,None,nogo,d,0,0.7466502396855503,,,,,,,,,,,,,,,,,3,001,2022-12-14_14h24.57.588,00_bat_bachelor,2022.2.4,60.024155189709255,
,,,,,,,,,,,,0,0,0,0,182,0,182,0,,,,,,,182,,,1,940.5361216620076,X,l,go,None,0,,941.3362799163442,,,,,,,,,,,,,,,,3,001,2022-12-14_14h24.57.588,00_bat_bachelor,2022.2.4,60.024155189709255,
,,,,,,,,,,,,0,0,0,0,183,0,183,0,,,,,,,183,,,1,942.3362377346493,Y,d,go,d,1,0.5236856073606759,,,,,,,,,,,,,,,,,3,001,2022-12-14_14h24.57.588,00_bat_bachelor,2022.2.4,60.024155189709255,
,,,,,,,,,,,,0,0,0,0,184,0,184,0,,,,,,,184,,,1,943.8864631403703,Y,None,nogo,d,0,0.5407643786165863,,,,,,,,,,,,,,,,,3,001,2022-12-14_14h24.57.588,00_bat_bachelor,2022.2.4,60.024155189709255,
,,,,,,,,,,,,0,0,0,0,185,0,185,0,,,,,,,185,,,1,945.4531573788263,X,l,go,l,1,0.5741325884591788,,,,,,,,,,,,,,,,,3,001,2022-12-14_14h24.57.588,00_bat_bachelor,2022.2.4,60.024155189709255,
,,,,,,,,,,,,0,0,0,0,186,0,186,0,,,,,,,186,,,1,947.0529337669723,Y,d,go,d,1,0.7184495395049453,,,,,,,,,,,,,,,,,3,001,2022-12-14_14h24.57.588,00_bat_bachelor,2022.2.4,60.024155189709255,
,,,,,,,,,,,,0,0,0,0,187,0,187,0,,,,,,,187,,,1,948.8031604334246,X,l,go,l,1,0.3934307030867785,,,,,,,,,,,,,,,,,3,001,2022-12-14_14h24.57.588,00_bat_bachelor,2022.2.4,60.024155189709255,
,,,,,,,,,,,,0,0,0,0,188,0,188,0,,,,,,,188,,,1,950.2198189382907,Y,d,go,d,1,0.3679369096644223,,,,,,,,,,,,,,,,,3,001,2022-12-14_14h24.57.588,00_bat_bachelor,2022.2.4,60.024155189709255,
,,,,,,,,,,,,0,0,0,0,189,0,189,0,,,,,,,189,,,1,951.6198243687395,Y,None,nogo,None,1,,952.4195103810634,,,,,,,,,,,,,,,,3,001,2022-12-14_14h24.57.588,00_bat_bachelor,2022.2.4,60.024155189709255,
,,,,,,,,,,,,0,0,0,0,190,0,190,0,,,,,,,190,,,1,953.4198134110775,X,l,go,l,1,0.351287713740021,,,,,,,,,,,,,,,,,3,001,2022-12-14_14h24.57.588,00_bat_bachelor,2022.2.4,60.024155189709255,
,,,,,,,,,,,,0,0,0,0,191,0,191,0,,,,,,,191,,,1,954.802913645748,Y,d,go,d,1,0.4082379615865648,,,,,,,,,,,,,,,,,3,001,2022-12-14_14h24.57.588,00_bat_bachelor,2022.2.4,60.024155189709255,
,,,,,,,,,,,,0,0,0,0,192,0,192,0,,,,,,,192,,,1,956.2362664376851,X,l,go,l,1,0.5285083905328065,,,,,,,,,,,,,,,,,3,001,2022-12-14_14h24.57.588,00_bat_bachelor,2022.2.4,60.024155189709255,
,,,,,,,,,,,,0,0,0,0,193,0,193,0,,,,,,,193,,,1,957.7864763282705,Y,d,go,d,1,0.4166869232431054,,,,,,,,,,,,,,,,,3,001,2022-12-14_14h24.57.588,00_bat_bachelor,2022.2.4,60.024155189709255,
,,,,,,,,,,,,0,0,0,0,194,0,194,0,,,,,,,194,,,1,959.2197602717206,Y,None,nogo,d,0,0.5514843680430204,,,,,,,,,,,,,,,,,3,001,2022-12-14_14h24.57.588,00_bat_bachelor,2022.2.4,60.024155189709255,
,,,,,,,,,,,,0,0,0,0,195,0,195,0,,,,,,,195,,,1,960.803166736383,X,l,go,l,1,0.5047794436104596,,,,,,,,,,,,,,,,,3,001,2022-12-14_14h24.57.588,00_bat_bachelor,2022.2.4,60.024155189709255,
,,,,,,,,,,,,0,0,0,0,196,0,196,0,,,,,,,196,,,1,962.3364748251624,Y,d,go,d,1,0.39571870118379593,,,,,,,,,,,,,,,,,3,001,2022-12-14_14h24.57.588,00_bat_bachelor,2022.2.4,60.024155189709255,
,,,,,,,,,,,,0,0,0,0,197,0,197,0,,,,,,,197,,,1,963.7531347847544,X,l,go,l,1,0.3552537704817951,,,,,,,,,,,,,,,,,3,001,2022-12-14_14h24.57.588,00_bat_bachelor,2022.2.4,60.024155189709255,
,,,,,,,,,,,,0,0,0,0,198,0,198,0,,,,,,,198,,,1,965.136483746348,Y,d,go,d,1,0.3797555649653077,,,,,,,,,,,,,,,,,3,001,2022-12-14_14h24.57.588,00_bat_bachelor,2022.2.4,60.024155189709255,
,,,,,,,,,,,,0,0,0,0,199,0,199,0,,,,,,,199,,,1,966.5362511163112,Y,None,nogo,l,0,0.35615510307252407,,,,,,,,,,,,,,,,,3,001,2022-12-14_14h24.57.588,00_bat_bachelor,2022.2.4,60.024155189709255,
,,,,,,,,,,,,0,0,0,0,200,0,200,0,,,,,,,200,,,1,967.9197974111885,X,l,go,None,0,,968.7200089988764,,,,,,,,,,,,,,,,3,001,2022-12-14_14h24.57.588,00_bat_bachelor,2022.2.4,60.024155189709255,
,,,,,,,,,,,,0,0,0,0,201,0,201,0,,,,,,,201,,,1,969.7196153022815,Y,d,go,d,1,0.500048296758905,,,,,,,,,,,,,,,,,3,001,2022-12-14_14h24.57.588,00_bat_bachelor,2022.2.4,60.024155189709255,
,,,,,,,,,,,,0,0,0,0,202,0,202,0,,,,,,,202,,,1,971.2365054676775,Y,None,nogo,d,0,0.502631566952914,,,,,,,,,,,,,,,,,3,001,2022-12-14_14h24.57.588,00_bat_bachelor,2022.2.4,60.024155189709255,
,,,,,,,,,,,,0,0,0,0,203,0,203,0,,,,,,,203,,,1,972.7697451929562,X,l,go,l,1,0.41053759562782943,,,,,,,,,,,,,,,,,3,001,2022-12-14_14h24.57.588,00_bat_bachelor,2022.2.4,60.024155189709255,
,,,,,,,,,,,,0,0,0,0,204,0,204,0,,,,,,,204,,,1,974.2027663488407,Y,d,go,d,1,0.44924786128103733,,,,,,,,,,,,,,,,,3,001,2022-12-14_14h24.57.588,00_bat_bachelor,2022.2.4,60.024155189709255,
,,,,,,,,,,,,0,0,0,0,205,0,205,0,,,,,,,205,,,1,975.6694912295789,X,l,go,l,1,0.43799793254584074,,,,,,,,,,,,,,,,,3,001,2022-12-14_14h24.57.588,00_bat_bachelor,2022.2.4,60.024155189709255,
,,,,,,,,,,,,0,0,0,0,206,0,206,0,,,,,,,206,,,1,977.136467746459,Y,d,go,d,1,0.3800299889408052,,,,,,,,,,,,,,,,,3,001,2022-12-14_14h24.57.588,00_bat_bachelor,2022.2.4,60.024155189709255,
,,,,,,,,,,,,0,0,0,0,207,0,207,0,,,,,,,207,,,1,978.5364823888522,Y,None,nogo,None,1,,979.3361044013873,,,,,,,,,,,,,,,,3,001,2022-12-14_14h24.57.588,00_bat_bachelor,2022.2.4,60.024155189709255,
,,,,,,,,,,,,0,0,0,0,208,0,208,0,,,,,,,208,,,1,980.3360976134427,X,l,go,l,1,0.6356709531974047,,,,,,,,,,,,,,,,,3,001,2022-12-14_14h24.57.588,00_bat_bachelor,2022.2.4,60.024155189709255,
,,,,,,,,,,,,0,0,0,0,209,0,209,0,,,,,,,209,,,1,982.0031437545549,Y,d,go,d,1,0.5049908375367522,,,,,,,,,,,,,,,,,3,001,2022-12-14_14h24.57.588,00_bat_bachelor,2022.2.4,60.024155189709255,
,,,,,,,,,,,,0,0,0,0,210,0,210,0,,,,,,,210,,,1,983.5361090558581,X,l,go,l,1,0.5560729696881026,,,,,,,,,,,,,,,,,3,001,2022-12-14_14h24.57.588,00_bat_bachelor,2022.2.4,60.024155189709255,
,,,,,,,,,,,,0,0,0,0,211,0,211,0,,,,,,,211,,,1,985.1197545505129,Y,d,go,d,1,0.444523987127468,,,,,,,,,,,,,,,,,3,001,2022-12-14_14h24.57.588,00_bat_bachelor,2022.2.4,60.024155189709255,
,,,,,,,,,,,,0,0,0,0,212,0,212,0,,,,,,,212,,,1,986.5861254923511,Y,None,nogo,None,1,,987.3863797464874,,,,,,,,,,,,,,,,3,001,2022-12-14_14h24.57.588,00_bat_bachelor,2022.2.4,60.024155189709255,
,,,,,,,,,,,,0,0,0,0,213,0,213,0,,,,,,,213,,,1,988.3862245951314,Y,None,nogo,None,1,,989.1861060012598,,,,,,,,,,,,,,,,3,001,2022-12-14_14h24.57.588,00_bat_bachelor,2022.2.4,60.024155189709255,
,,,,,,,,,,,,0,0,0,0,214,0,214,0,,,,,,,214,,,1,990.1864652738441,X,l,go,l,1,0.5138557984028012,,,,,,,,,,,,,,,,,3,001,2022-12-14_14h24.57.588,00_bat_bachelor,2022.2.4,60.024155189709255,
,,,,,,,,,,,,0,0,0,0,215,0,215,0,,,,,,,215,,,1,991.7197956657037,Y,d,go,None,0,,992.5197333141696,,,,,,,,,,,,,,,,3,001,2022-12-14_14h24.57.588,00_bat_bachelor,2022.2.4,60.024155189709255,
,,,,,,,,,,,,0,0,0,0,216,0,216,0,,,,,,,216,,,1,993.5197774353437,Y,None,nogo,d,0,0.572345923865214,,,,,,,,,,,,,,,,,3,001,2022-12-14_14h24.57.588,00_bat_bachelor,2022.2.4,60.024155189709255,
,,,,,,,,,,,,0,0,0,0,217,0,217,0,,,,,,,217,,,1,995.1198903080076,X,l,go,l,1,0.4124934726860374,,,,,,,,,,,,,,,,,3,001,2022-12-14_14h24.57.588,00_bat_bachelor,2022.2.4,60.024155189709255,
,,,,,,,,,,,,0,0,0,0,218,0,218,0,,,,,,,218,,,1,996.5532954635564,Y,d,go,d,1,0.48273146501742303,,,,,,,,,,,,,,,,,3,001,2022-12-14_14h24.57.588,00_bat_bachelor,2022.2.4,60.024155189709255,
,,,,,,,,,,,,0,0,0,0,219,0,219,0,,,,,,,219,,,1,998.0529041911941,Y,None,nogo,None,1,,998.853054203093,,,,,,,,,,,,,,,,3,001,2022-12-14_14h24.57.588,00_bat_bachelor,2022.2.4,60.024155189709255,
,,,,,,,,,,,,0,0,0,0,220,0,220,0,,,,,,,220,,,1,999.8527928700205,X,l,go,l,1,0.49563908902928233,,,,,,,,,,,,,,,,,3,001,2022-12-14_14h24.57.588,00_bat_bachelor,2022.2.4,60.024155189709255,
,,,,,,,,,,,,0,0,0,0,221,0,221,0,,,,,,,221,,,1,1001.3697596413549,Y,d,go,None,0,,1002.1697302595712,,,,,,,,,,,,,,,,3,001,2022-12-14_14h24.57.588,00_bat_bachelor,2022.2.4,60.024155189709255,
,,,,,,,,,,,,0,0,0,0,222,0,222,0,,,,,,,222,,,1,1003.1697966838256,X,l,go,l,1,0.5224085175432265,,,,,,,,,,,,,,,,,3,001,2022-12-14_14h24.57.588,00_bat_bachelor,2022.2.4,60.024155189709255,
,,,,,,,,,,,,0,0,0,0,223,0,223,0,,,,,,,223,,,1,1004.7197496050503,X,None,nogo,None,1,,1005.5198031323962,,,,,,,,,,,,,,,,3,001,2022-12-14_14h24.57.588,00_bat_bachelor,2022.2.4,60.024155189709255,
,,,,,,,,,,,,0,0,0,0,224,0,224,0,,,,,,,224,,,1,1006.5197522232775,Y,d,go,d,1,0.34031220921315253,,,,,,,,,,,,,,,,,3,001,2022-12-14_14h24.57.588,00_bat_bachelor,2022.2.4,60.024155189709255,
,,,,,,,,,,,,0,0,0,0,225,0,225,0,,,,,,,225,,,1,1007.8864190191962,X,l,go,l,1,0.6374537392985076,,,,,,,,,,,,,,,,,3,001,2022-12-14_14h24.57.588,00_bat_bachelor,2022.2.4,60.024155189709255,
,,,,,,,,,,,,0,0,0,0,226,0,226,0,,,,,,,226,,,1,1009.5529032214545,Y,d,go,d,1,0.3469100212678313,,,,,,,,,,,,,,,,,3,001,2022-12-14_14h24.57.588,00_bat_bachelor,2022.2.4,60.024155189709255,
,,,,,,,,,,,,0,0,0,0,227,0,227,0,,,,,,,227,,,1,1010.9197489263024,X,l,go,l,1,0.5321074172388762,,,,,,,,,,,,,,,,,3,001,2022-12-14_14h24.57.588,00_bat_bachelor,2022.2.4,60.024155189709255,
,,,,,,,,,,,,0,0,0,0,228,0,228,0,,,,,,,228,,,1,1012.4700523926876,Y,d,go,d,1,0.3901439185719937,,,,,,,,,,,,,,,,,3,001,2022-12-14_14h24.57.588,00_bat_bachelor,2022.2.4,60.024155189709255,
,,,,,,,,,,,,0,0,0,0,229,0,229,0,,,,,,,229,,,1,1013.8863487162162,Y,None,nogo,None,1,,1014.6863489102107,,,,,,,,,,,,,,,,3,001,2022-12-14_14h24.57.588,00_bat_bachelor,2022.2.4,60.024155189709255,
,,,,,,,,,,,,0,0,0,0,230,0,230,0,,,,,,,230,,,1,1015.6862747285049,X,l,go,l,1,0.45314409979619086,,,,,,,,,,,,,,,,,3,001,2022-12-14_14h24.57.588,00_bat_bachelor,2022.2.4,60.024155189709255,
,,,,,,,,,,,,0,0,0,0,231,0,231,0,,,,,,,231,,,1,1017.1698572898749,Y,d,go,d,1,0.47418650379404426,,,,,,,,,,,,,,,,,3,001,2022-12-14_14h24.57.588,00_bat_bachelor,2022.2.4,60.024155189709255,
,,,,,,,,,,,,0,0,0,0,232,0,232,0,,,,,,,232,,,1,1018.6698980170768,Y,None,nogo,d,0,0.44594992510974407,,,,,,,,,,,,,,,,,3,001,2022-12-14_14h24.57.588,00_bat_bachelor,2022.2.4,60.024155189709255,
,,,,,,,,,,,,0,0,0,0,233,0,233,0,,,,,,,233,,,1,1020.1366452008951,X,l,go,l,1,0.3233958622440696,,,,,,,,,,,,,,,,,3,001,2022-12-14_14h24.57.588,00_bat_bachelor,2022.2.4,60.024155189709255,
,,,,,,,,,,,,0,0,0,0,234,0,234,0,,,,,,,234,,,1,1021.4865217099432,Y,d,go,None,0,,1022.2865859039593,,,,,,,,,,,,,,,,3,001,2022-12-14_14h24.57.588,00_bat_bachelor,2022.2.4,60.024155189709255,
,,,,,,,,,,,,0,0,0,0,235,0,235,0,,,,,,,235,,,1,1023.2865834797267,X,l,go,l,1,0.3898903429508209,,,,,,,,,,,,,,,,,3,001,2022-12-14_14h24.57.588,00_bat_bachelor,2022.2.4,60.024155189709255,
,,,,,,,,,,,,0,0,0,0,236,0,236,0,,,,,,,236,,,1,1024.703167802887,X,None,nogo,None,1,,1025.503159754444,,,,,,,,,,,,,,,,3,001,2022-12-14_14h24.57.588,00_bat_bachelor,2022.2.4,60.024155189709255,
,,,,,,,,,,,,0,0,0,0,237,0,237,0,,,,,,,237,,,1,1026.5031907847151,Y,d,go,d,1,0.42090461612679064,,,,,,,,,,,,,,,,,3,001,2022-12-14_14h24.57.588,00_bat_bachelor,2022.2.4,60.024155189709255,
,,,,,,,,,,,,0,0,0,0,238,0,238,0,,,,,,,238,,,1,1027.9530095001683,X,l,go,None,0,,1028.7531861786265,,,,,,,,,,,,,,,,3,001,2022-12-14_14h24.57.588,00_bat_bachelor,2022.2.4,60.024155189709255,
,,,,,,,,,,,,0,0,0,0,239,0,239,0,,,,,,,239,,,1,1029.75322060287,X,None,nogo,None,1,,1030.5532101301942,,,,,,,,,,,,,,,,3,001,2022-12-14_14h24.57.588,00_bat_bachelor,2022.2.4,60.024155189709255,
,,,,,,,,,,,,0,0,0,0,240,0,240,0,,,,,,,240,,,1,1031.5530045547057,Y,d,go,d,1,0.6343351968098432,,,,,,,,,,,,,,,,,3,001,2022-12-14_14h24.57.588,00_bat_bachelor,2022.2.4,60.024155189709255,
,,,,,,,,,,,,0,0,0,0,241,0,241,0,,,,,,,241,,,1,1033.2197049991228,X,l,go,l,1,0.39264185540378094,,,,,,,,,,,,,,,,,3,001,2022-12-14_14h24.57.588,00_bat_bachelor,2022.2.4,60.024155189709255,
,,,,,,,,,,,,0,0,0,0,242,0,242,0,,,,,,,242,,,1,1034.6364425343927,Y,d,go,d,1,0.3838331368751824,,,,,,,,,,,,,,,,,3,001,2022-12-14_14h24.57.588,00_bat_bachelor,2022.2.4,60.024155189709255,
,,,,,,,,,,,,0,0,0,0,243,0,243,0,,,,,,,243,,,1,1036.0528183730785,X,l,go,l,1,0.567201201338321,,,,,,,,,,,,,,,,,3,001,2022-12-14_14h24.57.588,00_bat_bachelor,2022.2.4,60.024155189709255,
,,,,,,,,,,,,0,0,0,0,244,0,244,0,,,,,,,244,,,1,1037.6530320940074,X,None,nogo,d,0,0.29553698003292084,,,,,,,,,,,,,,,,,3,001,2022-12-14_14h24.57.588,00_bat_bachelor,2022.2.4,60.024155189709255,
,,,,,,,,,,,,0,0,0,0,245,0,245,0,,,,,,,245,,,1,1038.969480756903,Y,d,go,d,1,0.5794087047688663,,,,,,,,,,,,,,,,,3,001,2022-12-14_14h24.57.588,00_bat_bachelor,2022.2.4,60.024155189709255,
,,,,,,,,,,,,0,0,0,0,246,0,246,0,,,,,,,246,,,1,1040.5696983565576,X,l,go,l,1,0.531026691198349,,,,,,,,,,,,,,,,,3,001,2022-12-14_14h24.57.588,00_bat_bachelor,2022.2.4,60.024155189709255,
,,,,,,,,,,,,0,0,0,0,247,0,247,0,,,,,,,247,,,1,1042.1193763690535,Y,d,go,d,1,0.5001952056773007,,,,,,,,,,,,,,,,,3,001,2022-12-14_14h24.57.588,00_bat_bachelor,2022.2.4,60.024155189709255,
,,,,,,,,,,,,0,0,0,0,248,0,248,0,,,,,,,248,,,1,1043.6363635042217,X,l,go,l,1,0.5189903390128165,,,,,,,,,,,,,,,,,3,001,2022-12-14_14h24.57.588,00_bat_bachelor,2022.2.4,60.024155189709255,
,,,,,,,,,,,,0,0,0,0,249,0,249,0,,,,,,,249,,,1,1045.1860458801966,Y,d,go,d,1,0.34613426425494254,,,,,,,,,,,,,,,,,3,001,2022-12-14_14h24.57.588,00_bat_bachelor,2022.2.4,60.024155189709255,
,,,,,,,,,,,,1,0,1,0,0,0,0,0,,,,,,,0,,,0.2,1219.6198340656701,X,l,go,l,1,0.456182157387957,,,,,,,,,1045.56616429938,space,173.83693233388476,,,,,,3,001,2022-12-14_14h24.57.588,00_bat_bachelor,2022.2.4,60.024155189709255,
,,,,,,,,,,,,1,0,1,0,1,0,1,0,,,,,,,1,,,0.2,1220.302916554734,Y,d,go,d,1,0.3643204285763204,,,,,,,,,,,,,,,,,3,001,2022-12-14_14h24.57.588,00_bat_bachelor,2022.2.4,60.024155189709255,
,,,,,,,,,,,,1,0,1,0,2,0,2,0,,,,,,,2,,,0.2,1220.8862420497462,X,l,go,l,1,0.5492865520063788,,,,,,,,,,,,,,,,,3,001,2022-12-14_14h24.57.588,00_bat_bachelor,2022.2.4,60.024155189709255,
,,,,,,,,,,,,1,0,1,0,3,0,3,0,,,,,,,3,,,0.2,1221.653409305727,X,None,nogo,l,0,0.42277418985031545,,,,,,,,,,,,,,,,,3,001,2022-12-14_14h24.57.588,00_bat_bachelor,2022.2.4,60.024155189709255,
,,,,,,,,,,,,1,0,1,0,4,0,4,0,,,,,,,4,,,0.2,1222.3025146157015,Y,d,go,d,1,0.4612371828407049,,,,,,,,,,,,,,,,,3,001,2022-12-14_14h24.57.588,00_bat_bachelor,2022.2.4,60.024155189709255,
,,,,,,,,,,,,1,0,1,0,5,0,5,0,,,,,,,5,,,0.2,1222.9861735892482,X,l,go,l,1,0.5940113570541143,,,,,,,,,,,,,,,,,3,001,2022-12-14_14h24.57.588,00_bat_bachelor,2022.2.4,60.024155189709255,
,,,,,,,,,,,,1,0,1,0,6,0,6,0,,,,,,,6,,,0.2,1223.8025083127432,Y,d,go,d,1,0.4491887097246945,,,,,,,,,,,,,,,,,3,001,2022-12-14_14h24.57.588,00_bat_bachelor,2022.2.4,60.024155189709255,
,,,,,,,,,,,,1,0,1,0,7,0,7,0,,,,,,,7,,,0.2,1224.4695840294007,Y,None,nogo,None,1,,1225.2695061629638,,,,,,,,,,,,,,,,3,001,2022-12-14_14h24.57.588,00_bat_bachelor,2022.2.4,60.024155189709255,
,,,,,,,,,,,,1,0,1,0,8,0,8,0,,,,,,,8,,,0.2,1225.4695515446365,X,l,go,l,1,0.33350930688902736,,,,,,,,,,,,,,,,,3,001,2022-12-14_14h24.57.588,00_bat_bachelor,2022.2.4,60.024155189709255,
,,,,,,,,,,,,1,0,1,0,9,0,9,0,,,,,,,9,,,0.2,1226.0195127082989,Y,d,go,d,1,0.5835284583736211,,,,,,,,,,,,,,,,,3,001,2022-12-14_14h24.57.588,00_bat_bachelor,2022.2.4,60.024155189709255,
,,,,,,,,,,,,1,0,1,0,10,0,10,0,,,,,,,10,,,0.2,1226.8194910841994,Y,None,nogo,None,1,,1227.619501459878,,,,,,,,,,,,,,,,3,001,2022-12-14_14h24.57.588,00_bat_bachelor,2022.2.4,60.024155189709255,
,,,,,,,,,,,,1,0,1,0,11,0,11,0,,,,,,,11,,,0.2,1227.8191482964903,X,l,go,l,1,0.25595156382769346,,,,,,,,,,,,,,,,,3,001,2022-12-14_14h24.57.588,00_bat_bachelor,2022.2.4,60.024155189709255,
,,,,,,,,,,,,1,0,1,0,12,0,12,0,,,,,,,12,,,0.2,1228.3028210396878,Y,d,go,d,1,0.6046673469245434,,,,,,,,,,,,,,,,,3,001,2022-12-14_14h24.57.588,00_bat_bachelor,2022.2.4,60.024155189709255,
,,,,,,,,,,,,1,0,1,0,13,0,13,0,,,,,,,13,,,0.2,1229.1361681104172,Y,None,nogo,None,1,,1229.9358298804145,,,,,,,,,,,,,,,,3,001,2022-12-14_14h24.57.588,00_bat_bachelor,2022.2.4,60.024155189709255,
,,,,,,,,,,,,1,0,1,0,14,0,14,0,,,,,,,14,,,0.2,1230.1361555042677,X,l,go,l,1,0.32423464907333255,,,,,,,,,,,,,,,,,3,001,2022-12-14_14h24.57.588,00_bat_bachelor,2022.2.4,60.024155189709255,
,,,,,,,,,,,,1,0,1,0,15,0,15,0,,,,,,,15,,,0.2,1230.6858257593121,Y,d,go,None,0,,1231.486228861846,,,,,,,,,,,,,,,,3,001,2022-12-14_14h24.57.588,00_bat_bachelor,2022.2.4,60.024155189709255,
,,,,,,,,,,,,1,0,1,0,16,0,16,0,,,,,,,16,,,0.2,1231.6861607891042,X,l,go,l,1,0.48523473530076444,,,,,,,,,,,,,,,,,3,001,2022-12-14_14h24.57.588,00_bat_bachelor,2022.2.4,60.024155189709255,
,,,,,,,,,,,,1,0,1,0,17,0,17,0,,,,,,,17,,,0.2,1232.4028117305133,X,None,nogo,None,1,,1233.2028405305464,,,,,,,,,,,,,,,,3,001,2022-12-14_14h24.57.588,00_bat_bachelor,2022.2.4,60.024155189709255,
,,,,,,,,,,,,1,0,1,0,18,0,18,0,,,,,,,18,,,0.2,1233.4028534274548,X,None,nogo,None,1,,1234.2024351975415,,,,,,,,,,,,,,,,3,001,2022-12-14_14h24.57.588,00_bat_bachelor,2022.2.4,60.024155189709255,
,,,,,,,,,,,,1,0,1,0,19,0,19,0,,,,,,,19,,,0.2,1234.4028131852392,Y,d,go,d,1,0.4729186261538416,,,,,,,,,,,,,,,,,3,001,2022-12-14_14h24.57.588,00_bat_bachelor,2022.2.4,60.024155189709255,
,,,,,,,,,,,,1,0,1,0,20,0,20,0,,,,,,,20,,,0.2,1235.1027809912339,X,l,go,None,0,,1235.9028427607846,,,,,,,,,,,,,,,,3,001,2022-12-14_14h24.57.588,00_bat_bachelor,2022.2.4,60.024155189709255,
,,,,,,,,,,,,1,0,1,0,21,0,21,0,,,,,,,21,,,0.2,1236.1026161429472,X,None,nogo,None,1,,1236.9025906398892,,,,,,,,,,,,,,,,3,001,2022-12-14_14h24.57.588,00_bat_bachelor,2022.2.4,60.024155189709255,
,,,,,,,,,,,,1,0,1,0,22,0,22,0,,,,,,,22,,,0.2,1237.1028832942247,Y,d,go,d,1,0.7482221168465912,,,,,,,,,,,,,,,,,3,001,2022-12-14_14h24.57.588,00_bat_bachelor,2022.2.4,60.024155189709255,
,,,,,,,,,,,,1,0,1,0,23,0,23,0,,,,,,,23,,,0.2,1238.0695325385313,X,l,go,l,1,0.5182116732466966,,,,,,,,,,,,,,,,,3,001,2022-12-14_14h24.57.588,00_bat_bachelor,2022.2.4,60.024155189709255,
,,,,,,,,,,,,1,0,1,0,24,0,24,0,,,,,,,24,,,0.2,1238.819127448136,Y,d,go,d,1,0.6162266083993018,,,,,,,,,,,,,,,,,3,001,2022-12-14_14h24.57.588,00_bat_bachelor,2022.2.4,60.024155189709255,
,,,,,,,,,,,,1,0,1,0,25,0,25,0,,,,,,,25,,,0.2,1239.6525157308206,Y,None,nogo,None,1,,1240.4526982277166,,,,,,,,,,,,,,,,3,001,2022-12-14_14h24.57.588,00_bat_bachelor,2022.2.4,60.024155189709255,
,,,,,,,,,,,,1,0,1,0,26,0,26,0,,,,,,,26,,,0.2,1240.6531125789043,Y,None,nogo,None,1,,1241.4527981064748,,,,,,,,,,,,,,,,3,001,2022-12-14_14h24.57.588,00_bat_bachelor,2022.2.4,60.024155189709255,
,,,,,,,,,,,,1,0,1,0,27,0,27,0,,,,,,,27,,,0.2,1241.6527935487684,X,l,go,l,1,0.5988874738104641,,,,,,,,,,,,,,,,,3,001,2022-12-14_14h24.57.588,00_bat_bachelor,2022.2.4,60.024155189709255,
,,,,,,,,,,,,1,0,1,0,28,0,28,0,,,,,,,28,,,0.2,1242.469472029712,Y,d,go,d,1,0.6469567604362965,,,,,,,,,,,,,,,,,3,001,2022-12-14_14h24.57.588,00_bat_bachelor,2022.2.4,60.024155189709255,
,,,,,,,,,,,,1,0,1,0,29,0,29,0,,,,,,,29,,,0.2,1243.3361538557801,X,l,go,l,1,0.5149520398117602,,,,,,,,,,,,,,,,,3,001,2022-12-14_14h24.57.588,00_bat_bachelor,2022.2.4,60.024155189709255,
,,,,,,,,,,,,1,0,1,0,30,0,30,0,,,,,,,30,,,0.2,1244.069507326465,Y,d,go,d,1,0.4055160249117762,,,,,,,,,,,,,,,,,3,001,2022-12-14_14h24.57.588,00_bat_bachelor,2022.2.4,60.024155189709255,
,,,,,,,,,,,,1,0,1,0,31,0,31,0,,,,,,,31,,,0.2,1244.7028119245078,X,l,go,l,1,0.30019297543913126,,,,,,,,,,,,,,,,,3,001,2022-12-14_14h24.57.588,00_bat_bachelor,2022.2.4,60.024155189709255,
,,,,,,,,,,,,1,0,1,0,32,0,32,0,,,,,,,32,,,0.2,1245.2191483934876,Y,d,go,d,1,0.3455083256121725,,,,,,,,,,,,,,,,,3,001,2022-12-14_14h24.57.588,00_bat_bachelor,2022.2.4,60.024155189709255,
,,,,,,,,,,,,1,0,1,0,33,0,33,0,,,,,,,33,,,0.2,1245.7861514801625,X,l,go,l,1,0.2574502290226519,,,,,,,,,,,,,,,,,3,001,2022-12-14_14h24.57.588,00_bat_bachelor,2022.2.4,60.024155189709255,
,,,,,,,,,,,,1,0,1,0,34,0,34,0,,,,,,,34,,,0.2,1246.2695139204152,Y,d,go,d,1,0.31797283701598644,,,,,,,,,,,,,,,,,3,001,2022-12-14_14h24.57.588,00_bat_bachelor,2022.2.4,60.024155189709255,
,,,,,,,,,,,,1,0,1,0,35,0,35,0,,,,,,,35,,,0.2,1246.8194833265152,Y,None,nogo,l,0,0.31162278237752616,,,,,,,,,,,,,,,,,3,001,2022-12-14_14h24.57.588,00_bat_bachelor,2022.2.4,60.024155189709255,
,,,,,,,,,,,,1,0,1,0,36,0,36,0,,,,,,,36,,,0.2,1247.3525999004487,X,l,go,l,1,0.7397023674566299,,,,,,,,,,,,,,,,,3,001,2022-12-14_14h24.57.588,00_bat_bachelor,2022.2.4,60.024155189709255,
,,,,,,,,,,,,1,0,1,0,37,0,37,0,,,,,,,37,,,0.2,1248.3192224784289,Y,d,go,d,1,0.3640746106393635,,,,,,,,,,,,,,,,,3,001,2022-12-14_14h24.57.588,00_bat_bachelor,2022.2.4,60.024155189709255,
,,,,,,,,,,,,1,0,1,0,38,0,38,0,,,,,,,38,,,0.2,1248.9029848214705,Y,None,nogo,l,0,0.37327605625614524,,,,,,,,,,,,,,,,,3,001,2022-12-14_14h24.57.588,00_bat_bachelor,2022.2.4,60.024155189709255,
,,,,,,,,,,,,1,0,1,0,39,0,39,0,,,,,,,39,,,0.2,1249.5028024215717,X,l,go,l,1,0.5577602407429367,,,,,,,,,,,,,,,,,3,001,2022-12-14_14h24.57.588,00_bat_bachelor,2022.2.4,60.024155189709255,
,,,,,,,,,,,,1,0,1,0,40,0,40,0,,,,,,,40,,,0.2,1250.286212086212,Y,d,go,d,1,0.4622257880400866,,,,,,,,,,,,,,,,,3,001,2022-12-14_14h24.57.588,00_bat_bachelor,2022.2.4,60.024155189709255,
,,,,,,,,,,,,1,0,1,0,41,0,41,0,,,,,,,41,,,0.2,1250.969474938698,Y,None,nogo,None,1,,1251.7694761024322,,,,,,,,,,,,,,,,3,001,2022-12-14_14h24.57.588,00_bat_bachelor,2022.2.4,60.024155189709255,
,,,,,,,,,,,,1,0,1,0,42,0,42,0,,,,,,,42,,,0.2,1251.9692586965393,X,l,go,l,1,0.3464091729838401,,,,,,,,,,,,,,,,,3,001,2022-12-14_14h24.57.588,00_bat_bachelor,2022.2.4,60.024155189709255,
,,,,,,,,,,,,1,0,1,0,43,0,43,0,,,,,,,43,,,0.2,1252.5361400861293,Y,d,go,d,1,0.5791507656686008,,,,,,,,,,,,,,,,,3,001,2022-12-14_14h24.57.588,00_bat_bachelor,2022.2.4,60.024155189709255,
,,,,,,,,,,,,1,0,1,0,44,0,44,0,,,,,,,44,,,0.2,1253.335967674153,X,l,go,l,1,0.45163961639627814,,,,,,,,,,,,,,,,,3,001,2022-12-14_14h24.57.588,00_bat_bachelor,2022.2.4,60.024155189709255,
,,,,,,,,,,,,1,0,1,0,45,0,45,0,,,,,,,45,,,0.2,1254.0194710113574,Y,d,go,d,1,0.4082525069825351,,,,,,,,,,,,,,,,,3,001,2022-12-14_14h24.57.588,00_bat_bachelor,2022.2.4,60.024155189709255,
,,,,,,,,,,,,1,0,1,0,46,0,46,0,,,,,,,46,,,0.2,1254.6527722154278,X,l,go,l,1,0.6228612686973065,,,,,,,,,,,,,,,,,3,001,2022-12-14_14h24.57.588,00_bat_bachelor,2022.2.4,60.024155189709255,
,,,,,,,,,,,,1,0,1,0,47,0,47,0,,,,,,,47,,,0.2,1255.502478058217,Y,d,go,d,1,0.429815637646243,,,,,,,,,,,,,,,,,3,001,2022-12-14_14h24.57.588,00_bat_bachelor,2022.2.4,60.024155189709255,
,,,,,,,,,,,,1,0,1,0,48,0,48,0,,,,,,,48,,,0.2,1256.1528008214664,X,l,go,l,1,0.6907705361954868,,,,,,,,,,,,,,,,,3,001,2022-12-14_14h24.57.588,00_bat_bachelor,2022.2.4,60.024155189709255,
,,,,,,,,,,,,1,0,1,0,49,0,49,0,,,,,,,49,,,0.2,1257.0694665992633,X,None,nogo,None,1,,1257.8694440054242,,,,,,,,,,,,,,,,3,001,2022-12-14_14h24.57.588,00_bat_bachelor,2022.2.4,60.024155189709255,
,,,,,,,,,,,,1,0,1,0,50,0,50,0,,,,,,,50,,,0.2,1258.0694695084821,Y,d,go,d,1,0.4869215216021985,,,,,,,,,,,,,,,,,3,001,2022-12-14_14h24.57.588,00_bat_bachelor,2022.2.4,60.024155189709255,
,,,,,,,,,,,,1,0,1,0,51,0,51,0,,,,,,,51,,,0.2,1258.785973540973,X,l,go,l,1,0.6017437134869397,,,,,,,,,,,,,,,,,3,001,2022-12-14_14h24.57.588,00_bat_bachelor,2022.2.4,60.024155189709255,
,,,,,,,,,,,,1,0,1,0,52,0,52,0,,,,,,,52,,,0.2,1259.6191329753492,X,None,nogo,None,1,,1260.419446866028,,,,,,,,,,,,,,,,3,001,2022-12-14_14h24.57.588,00_bat_bachelor,2022.2.4,60.024155189709255,
,,,,,,,,,,,,1,0,1,0,53,0,53,0,,,,,,,53,,,0.2,1260.6196323689073,Y,d,go,d,1,0.6235754499211907,,,,,,,,,,,,,,,,,3,001,2022-12-14_14h24.57.588,00_bat_bachelor,2022.2.4,60.024155189709255,
,,,,,,,,,,,,1,0,1,0,54,0,54,0,,,,,,,54,,,0.2,1261.4694497266319,X,l,go,l,1,0.6054469824302942,,,,,,,,,,,,,,,,,3,001,2022-12-14_14h24.57.588,00_bat_bachelor,2022.2.4,60.024155189709255,
,,,,,,,,,,,,1,0,1,0,55,0,55,0,,,,,,,55,,,0.2,1262.3027769185137,Y,d,go,d,1,0.6366479217540473,,,,,,,,,,,,,,,,,3,001,2022-12-14_14h24.57.588,00_bat_bachelor,2022.2.4,60.024155189709255,
,,,,,,,,,,,,1,0,1,0,56,0,56,0,,,,,,,56,,,0.2,1263.1692681994755,Y,None,nogo,None,1,,1263.9695146961603,,,,,,,,,,,,,,,,3,001,2022-12-14_14h24.57.588,00_bat_bachelor,2022.2.4,60.024155189709255,
,,,,,,,,,,,,1,0,1,0,57,0,57,0,,,,,,,57,,,0.2,1264.169465047773,X,l,go,l,1,0.32292168075218797,,,,,,,,,,,,,,,,,3,001,2022-12-14_14h24.57.588,00_bat_bachelor,2022.2.4,60.024155189709255,
,,,,,,,,,,,,1,0,1,0,58,0,58,0,,,,,,,58,,,0.2,1264.7192700903397,Y,d,go,d,1,0.5403086212463677,,,,,,,,,,,,,,,,,3,001,2022-12-14_14h24.57.588,00_bat_bachelor,2022.2.4,60.024155189709255,
,,,,,,,,,,,,1,0,1,0,59,0,59,0,,,,,,,59,,,0.2,1265.486306437524,X,l,go,l,1,0.49436781741678715,,,,,,,,,,,,,,,,,3,001,2022-12-14_14h24.57.588,00_bat_bachelor,2022.2.4,60.024155189709255,
,,,,,,,,,,,,1,0,1,0,60,0,60,0,,,,,,,60,,,0.2,1266.2024415007327,X,None,nogo,None,1,,1267.0028082397766,,,,,,,,,,,,,,,,3,001,2022-12-14_14h24.57.588,00_bat_bachelor,2022.2.4,60.024155189709255,
,,,,,,,,,,,,1,0,1,0,61,0,61,0,,,,,,,61,,,0.2,1267.202761015622,X,None,nogo,None,1,,1268.0028324821033,,,,,,,,,,,,,,,,3,001,2022-12-14_14h24.57.588,00_bat_bachelor,2022.2.4,60.024155189709255,
,,,,,,,,,,,,1,0,1,0,62,0,62,0,,,,,,,62,,,0.2,1268.2028671973385,Y,d,go,d,1,0.4648585126269609,,,,,,,,,,,,,,,,,3,001,2022-12-14_14h24.57.588,00_bat_bachelor,2022.2.4,60.024155189709255,
,,,,,,,,,,,,1,0,1,0,63,0,63,0,,,,,,,63,,,0.2,1268.8861475044396,X,l,go,l,1,0.5336715369485319,,,,,,,,,,,,,,,,,3,001,2022-12-14_14h24.57.588,00_bat_bachelor,2022.2.4,60.024155189709255,
,,,,,,,,,,,,1,0,1,0,64,0,64,0,,,,,,,64,,,0.2,1269.65278724581,Y,d,go,d,1,0.5824632472358644,,,,,,,,,,,,,,,,,3,001,2022-12-14_14h24.57.588,00_bat_bachelor,2022.2.4,60.024155189709255,
,,,,,,,,,,,,1,0,1,0,65,0,65,0,,,,,,,65,,,0.2,1270.4526288944762,X,l,go,l,1,0.4233109166380018,,,,,,,,,,,,,,,,,3,001,2022-12-14_14h24.57.588,00_bat_bachelor,2022.2.4,60.024155189709255,
,,,,,,,,,,,,1,0,1,0,66,0,66,0,,,,,,,66,,,0.2,1271.1024144461844,X,None,nogo,None,1,,1271.9025954883546,,,,,,,,,,,,,,,,3,001,2022-12-14_14h24.57.588,00_bat_bachelor,2022.2.4,60.024155189709255,
,,,,,,,,,,,,1,0,1,0,67,0,67,0,,,,,,,67,,,0.2,1272.1028333548456,Y,d,go,l,0,0.020989367505535483,,,,,,,,,,,,,,,,,3,001,2022-12-14_14h24.57.588,00_bat_bachelor,2022.2.4,60.024155189709255,
,,,,,,,,,,,,1,0,1,0,68,0,68,0,,,,,,,68,,,0.2,1272.352436506655,X,l,go,None,0,,1273.1524381551426,,,,,,,,,,,,,,,,3,001,2022-12-14_14h24.57.588,00_bat_bachelor,2022.2.4,60.024155189709255,
,,,,,,,,,,,,1,0,1,0,69,0,69,0,,,,,,,69,,,0.2,1273.3527574760374,Y,d,go,d,1,0.4823440716136247,,,,,,,,,,,,,,,,,3,001,2022-12-14_14h24.57.588,00_bat_bachelor,2022.2.4,60.024155189709255,
,,,,,,,,,,,,1,0,1,0,70,0,70,0,,,,,,,70,,,0.2,1274.0526496458333,X,l,go,l,1,0.48702382459305227,,,,,,,,,,,,,,,,,3,001,2022-12-14_14h24.57.588,00_bat_bachelor,2022.2.4,60.024155189709255,
,,,,,,,,,,,,1,0,1,0,71,0,71,0,,,,,,,71,,,0.2,1274.7694421629421,Y,d,go,d,1,0.4414340506773442,,,,,,,,,,,,,,,,,3,001,2022-12-14_14h24.57.588,00_bat_bachelor,2022.2.4,60.024155189709255,
,,,,,,,,,,,,1,0,1,0,72,0,72,0,,,,,,,72,,,0.2,1275.4361348499078,X,l,go,l,1,0.6564079029485583,,,,,,,,,,,,,,,,,3,001,2022-12-14_14h24.57.588,00_bat_bachelor,2022.2.4,60.024155189709255,
,,,,,,,,,,,,1,0,1,0,73,0,73,0,,,,,,,73,,,0.2,1276.319033872569,Y,d,go,d,1,0.4453239862341434,,,,,,,,,,,,,,,,,3,001,2022-12-14_14h24.57.588,00_bat_bachelor,2022.2.4,60.024155189709255,
,,,,,,,,,,,,1,0,1,0,74,0,74,0,,,,,,,74,,,0.2,1276.98660219484,X,l,go,l,1,0.41654340806417167,,,,,,,,,,,,,,,,,3,001,2022-12-14_14h24.57.588,00_bat_bachelor,2022.2.4,60.024155189709255,
,,,,,,,,,,,,1,0,1,0,75,0,75,0,,,,,,,75,,,0.2,1277.6198713988997,Y,d,go,d,1,0.471760808955878,,,,,,,,,,,,,,,,,3,001,2022-12-14_14h24.57.588,00_bat_bachelor,2022.2.4,60.024155189709255,
,,,,,,,,,,,,1,0,1,0,76,0,76,0,,,,,,,76,,,0.2,1278.3196685384028,X,l,go,l,1,0.5074005320202559,,,,,,,,,,,,,,,,,3,001,2022-12-14_14h24.57.588,00_bat_bachelor,2022.2.4,60.024155189709255,
,,,,,,,,,,,,1,0,1,0,77,0,77,0,,,,,,,77,,,0.2,1279.0532047969755,Y,d,go,d,1,0.4778737728483975,,,,,,,,,,,,,,,,,3,001,2022-12-14_14h24.57.588,00_bat_bachelor,2022.2.4,60.024155189709255,
,,,,,,,,,,,,1,0,1,0,78,0,78,0,,,,,,,78,,,0.2,1279.7531149061397,X,l,go,l,1,0.546776978764683,,,,,,,,,,,,,,,,,3,001,2022-12-14_14h24.57.588,00_bat_bachelor,2022.2.4,60.024155189709255,
,,,,,,,,,,,,1,0,1,0,79,0,79,0,,,,,,,79,,,0.2,1280.51961404155,Y,d,go,d,1,0.4200541926547885,,,,,,,,,,,,,,,,,3,001,2022-12-14_14h24.57.588,00_bat_bachelor,2022.2.4,60.024155189709255,
,,,,,,,,,,,,1,0,1,0,80,0,80,0,,,,,,,80,,,0.2,1281.1698374110274,X,l,go,l,1,0.442354777129367,,,,,,,,,,,,,,,,,3,001,2022-12-14_14h24.57.588,00_bat_bachelor,2022.2.4,60.024155189709255,
,,,,,,,,,,,,1,0,1,0,81,0,81,0,,,,,,,81,,,0.2,1281.8362682799343,X,None,nogo,d,0,0.3833337433170527,,,,,,,,,,,,,,,,,3,001,2022-12-14_14h24.57.588,00_bat_bachelor,2022.2.4,60.024155189709255,
,,,,,,,,,,,,1,0,1,0,82,0,82,0,,,,,,,82,,,0.2,1282.4365047889296,Y,d,go,None,0,,1283.2364472858608,,,,,,,,,,,,,,,,3,001,2022-12-14_14h24.57.588,00_bat_bachelor,2022.2.4,60.024155189709255,
,,,,,,,,,,,,1,0,1,0,83,0,83,0,,,,,,,83,,,0.2,1283.4364887888078,X,l,go,None,0,,1284.2362814678345,,,,,,,,,,,,,,,,3,001,2022-12-14_14h24.57.588,00_bat_bachelor,2022.2.4,60.024155189709255,
,,,,,,,,,,,,1,0,1,0,84,0,84,0,,,,,,,84,,,0.2,1284.4362400618847,Y,d,go,d,1,0.5029937485232949,,,,,,,,,,,,,,,,,3,001,2022-12-14_14h24.57.588,00_bat_bachelor,2022.2.4,60.024155189709255,
,,,,,,,,,,,,1,0,1,0,85,0,85,0,,,,,,,85,,,0.2,1285.169831108069,X,l,go,l,1,0.7619132550898939,,,,,,,,,,,,,,,,,3,001,2022-12-14_14h24.57.588,00_bat_bachelor,2022.2.4,60.024155189709255,
,,,,,,,,,,,,1,0,1,0,86,0,86,0,,,,,,,86,,,0.2,1286.1531373059843,Y,d,go,d,1,0.43430290604010224,,,,,,,,,,,,,,,,,3,001,2022-12-14_14h24.57.588,00_bat_bachelor,2022.2.4,60.024155189709255,
,,,,,,,,,,,,1,0,1,0,87,0,87,0,,,,,,,87,,,0.2,1286.8198707201518,X,l,go,l,1,0.4390786588191986,,,,,,,,,,,,,,,,,3,001,2022-12-14_14h24.57.588,00_bat_bachelor,2022.2.4,60.024155189709255,
,,,,,,,,,,,,1,0,1,0,88,0,88,0,,,,,,,88,,,0.2,1287.486241952749,X,None,nogo,None,1,,1288.2862688133027,,,,,,,,,,,,,,,,3,001,2022-12-14_14h24.57.588,00_bat_bachelor,2022.2.4,60.024155189709255,
,,,,,,,,,,,,1,0,1,0,89,0,89,0,,,,,,,89,,,0.2,1288.4862414679956,Y,d,go,d,1,0.37411969155073166,,,,,,,,,,,,,,,,,3,001,2022-12-14_14h24.57.588,00_bat_bachelor,2022.2.4,60.024155189709255,
,,,,,,,,,,,,1,0,1,0,90,0,90,0,,,,,,,90,,,0.2,1289.0864673100878,X,l,go,l,1,0.6212539975531399,,,,,,,,,,,,,,,,,3,001,2022-12-14_14h24.57.588,00_bat_bachelor,2022.2.4,60.024155189709255,
,,,,,,,,,,,,1,0,1,0,91,0,91,0,,,,,,,91,,,0.2,1289.9365232130513,Y,d,go,d,1,0.555089213186875,,,,,,,,,,,,,,,,,3,001,2022-12-14_14h24.57.588,00_bat_bachelor,2022.2.4,60.024155189709255,
,,,,,,,,,,,,1,0,1,0,92,0,92,0,,,,,,,92,,,0.2,1290.7196768778376,X,l,go,l,1,0.5563769696746022,,,,,,,,,,,,,,,,,3,001,2022-12-14_14h24.57.588,00_bat_bachelor,2022.2.4,60.024155189709255,
,,,,,,,,,,,,1,0,1,0,93,0,93,0,,,,,,,93,,,0.2,1291.5029721183237,Y,d,go,d,1,0.41283092671073973,,,,,,,,,,,,,,,,,3,001,2022-12-14_14h24.57.588,00_bat_bachelor,2022.2.4,60.024155189709255,
,,,,,,,,,,,,1,0,1,0,94,0,94,0,,,,,,,94,,,0.2,1292.1364900495391,X,l,go,l,1,0.3065183025319129,,,,,,,,,,,,,,,,,3,001,2022-12-14_14h24.57.588,00_bat_bachelor,2022.2.4,60.024155189709255,
,,,,,,,,,,,,1,0,1,0,95,0,95,0,,,,,,,95,,,0.2,1292.6697840779088,X,None,nogo,d,0,0.34990056371316314,,,,,,,,,,,,,,,,,3,001,2022-12-14_14h24.57.588,00_bat_bachelor,2022.2.4,60.024155189709255,
,,,,,,,,,,,,1,0,1,0,96,0,96,0,,,,,,,96,,,0.2,1293.2362620739732,Y,d,go,None,0,,1294.0364707524423,,,,,,,,,,,,,,,,3,001,2022-12-14_14h24.57.588,00_bat_bachelor,2022.2.4,60.024155189709255,
,,,,,,,,,,,,1,0,1,0,97,0,97,0,,,,,,,97,,,0.2,1294.2365306797437,X,l,go,l,1,0.4144871677272022,,,,,,,,,,,,,,,,,3,001,2022-12-14_14h24.57.588,00_bat_bachelor,2022.2.4,60.024155189709255,
,,,,,,,,,,,,1,0,1,0,98,0,98,0,,,,,,,98,,,0.2,1294.8699506716803,Y,d,go,d,1,0.46951741725206375,,,,,,,,,,,,,,,,,3,001,2022-12-14_14h24.57.588,00_bat_bachelor,2022.2.4,60.024155189709255,
,,,,,,,,,,,,1,0,1,0,99,0,99,0,,,,,,,99,,,0.2,1295.569843810983,X,l,go,l,1,0.3300620373338461,,,,,,,,,,,,,,,,,3,001,2022-12-14_14h24.57.588,00_bat_bachelor,2022.2.4,60.024155189709255,
,,,,,,,,,,,,1,0,1,0,100,0,100,0,,,,,,,100,,,0.2,1296.11994073214,X,None,nogo,None,1,,1296.9196315931622,,,,,,,,,,,,,,,,3,001,2022-12-14_14h24.57.588,00_bat_bachelor,2022.2.4,60.024155189709255,
,,,,,,,,,,,,1,0,1,0,101,0,101,0,,,,,,,101,,,0.2,1297.119713823311,Y,d,go,d,1,0.15584596409462392,,,,,,,,,,,,,,,,,3,001,2022-12-14_14h24.57.588,00_bat_bachelor,2022.2.4,60.024155189709255,
,,,,,,,,,,,,1,0,1,0,102,0,102,0,,,,,,,102,,,0.2,1297.502422300633,X,l,go,l,1,0.5572298169136047,,,,,,,,,,,,,,,,,3,001,2022-12-14_14h24.57.588,00_bat_bachelor,2022.2.4,60.024155189709255,
,,,,,,,,,,,,1,0,1,0,103,0,103,0,,,,,,,103,,,0.2,1298.2859454196878,X,None,nogo,None,1,,1299.0857851288747,,,,,,,,,,,,,,,,3,001,2022-12-14_14h24.57.588,00_bat_bachelor,2022.2.4,60.024155189709255,
,,,,,,,,,,,,1,0,1,0,104,0,104,0,,,,,,,104,,,0.2,1299.28613741952,Y,d,go,d,1,0.5812831271905452,,,,,,,,,,,,,,,,,3,001,2022-12-14_14h24.57.588,00_bat_bachelor,2022.2.4,60.024155189709255,
,,,,,,,,,,,,1,0,1,0,105,0,105,0,,,,,,,105,,,0.2,1300.0860702195205,X,l,go,l,1,0.5169016139116138,,,,,,,,,,,,,,,,,3,001,2022-12-14_14h24.57.588,00_bat_bachelor,2022.2.4,60.024155189709255,
,,,,,,,,,,,,1,0,1,0,106,0,106,0,,,,,,,106,,,0.2,1300.8360796740744,X,None,nogo,None,1,,1301.636037686374,,,,,,,,,,,,,,,,3,001,2022-12-14_14h24.57.588,00_bat_bachelor,2022.2.4,60.024155189709255,
,,,,,,,,,,,,1,0,1,0,107,0,107,0,,,,,,,107,,,0.2,1301.836099552922,X,None,nogo,None,1,,1302.635766656138,,,,,,,,,,,,,,,,3,001,2022-12-14_14h24.57.588,00_bat_bachelor,2022.2.4,60.024155189709255,
,,,,,,,,,,,,1,0,1,0,108,0,108,0,,,,,,,108,,,0.2,1302.8359303409234,Y,d,go,d,1,0.5355760199017823,,,,,,,,,,,,,,,,,3,001,2022-12-14_14h24.57.588,00_bat_bachelor,2022.2.4,60.024155189709255,
,,,,,,,,,,,,1,0,1,0,109,0,109,0,,,,,,,109,,,0.2,1303.6027339610737,X,l,go,l,1,0.488283944549039,,,,,,,,,,,,,,,,,3,001,2022-12-14_14h24.57.588,00_bat_bachelor,2022.2.4,60.024155189709255,
,,,,,,,,,,,,1,0,1,0,110,0,110,0,,,,,,,110,,,0.2,1304.3195177507587,Y,d,go,d,1,0.5885417866520584,,,,,,,,,,,,,,,,,3,001,2022-12-14_14h24.57.588,00_bat_bachelor,2022.2.4,60.024155189709255,
,,,,,,,,,,,,1,0,1,0,111,0,111,0,,,,,,,111,,,0.2,1305.1360425348394,X,l,go,l,1,0.5244550611823797,,,,,,,,,,,,,,,,,3,001,2022-12-14_14h24.57.588,00_bat_bachelor,2022.2.4,60.024155189709255,
,,,,,,,,,,,,1,0,1,0,112,0,112,0,,,,,,,112,,,0.2,1305.8857736864593,Y,d,go,d,1,0.5098558026365936,,,,,,,,,,,,,,,,,3,001,2022-12-14_14h24.57.588,00_bat_bachelor,2022.2.4,60.024155189709255,
,,,,,,,,,,,,1,0,1,0,113,0,113,0,,,,,,,113,,,0.2,1306.6191145512275,Y,None,nogo,None,1,,1307.4191128057428,,,,,,,,,,,,,,,,3,001,2022-12-14_14h24.57.588,00_bat_bachelor,2022.2.4,60.024155189709255,
,,,,,,,,,,,,1,0,1,0,114,0,114,0,,,,,,,114,,,0.2,1307.6194141872693,X,l,go,l,1,0.36040915944613516,,,,,,,,,,,,,,,,,3,001,2022-12-14_14h24.57.588,00_bat_bachelor,2022.2.4,60.024155189709255,
,,,,,,,,,,,,1,0,1,0,115,0,115,0,,,,,,,115,,,0.2,1308.2025767732412,Y,d,go,d,1,0.7051220373250544,,,,,,,,,,,,,,,,,3,001,2022-12-14_14h24.57.588,00_bat_bachelor,2022.2.4,60.024155189709255,
,,,,,,,,,,,,1,0,1,0,116,0,116,0,,,,,,,116,,,0.2,1309.1360852012876,X,l,go,l,1,0.5876249391585588,,,,,,,,,,,,,,,,,3,001,2022-12-14_14h24.57.588,00_bat_bachelor,2022.2.4,60.024155189709255,
,,,,,,,,,,,,1,0,1,0,117,0,117,0,,,,,,,117,,,0.2,1309.953082227381,X,None,nogo,None,1,,1310.752816724591,,,,,,,,,,,,,,,,3,001,2022-12-14_14h24.57.588,00_bat_bachelor,2022.2.4,60.024155189709255,
,,,,,,,,,,,,1,0,1,0,118,0,118,0,,,,,,,118,,,0.2,1310.952845136635,Y,d,go,d,1,0.43473296612501144,,,,,,,,,,,,,,,,,3,001,2022-12-14_14h24.57.588,00_bat_bachelor,2022.2.4,60.024155189709255,
,,,,,,,,,,,,1,0,1,0,119,0,119,0,,,,,,,119,,,0.2,1311.619795762701,X,l,go,l,1,0.5682130791246891,,,,,,,,,,,,,,,,,3,001,2022-12-14_14h24.57.588,00_bat_bachelor,2022.2.4,60.024155189709255,
,,,,,,,,,,,,1,0,1,0,120,0,120,0,,,,,,,120,,,0.2,1312.4194289266597,Y,d,go,d,1,0.5044099895749241,,,,,,,,,,,,,,,,,3,001,2022-12-14_14h24.57.588,00_bat_bachelor,2022.2.4,60.024155189709255,
,,,,,,,,,,,,1,0,1,0,121,0,121,0,,,,,,,121,,,0.2,1313.1525385186542,Y,None,nogo,None,1,,1313.952724894276,,,,,,,,,,,,,,,,3,001,2022-12-14_14h24.57.588,00_bat_bachelor,2022.2.4,60.024155189709255,
,,,,,,,,,,,,1,0,1,0,122,0,122,0,,,,,,,122,,,0.2,1314.1527261550073,X,l,go,l,1,0.49829363194294274,,,,,,,,,,,,,,,,,3,001,2022-12-14_14h24.57.588,00_bat_bachelor,2022.2.4,60.024155189709255,
,,,,,,,,,,,,1,0,1,0,123,0,123,0,,,,,,,123,,,0.2,1314.887057079235,Y,d,go,d,1,0.5482475226745009,,,,,,,,,,,,,,,,,3,001,2022-12-14_14h24.57.588,00_bat_bachelor,2022.2.4,60.024155189709255,
,,,,,,,,,,,,1,0,1,0,124,0,124,0,,,,,,,124,,,0.2,1315.670287834946,X,l,go,l,1,0.5493476430419832,,,,,,,,,,,,,,,,,3,001,2022-12-14_14h24.57.588,00_bat_bachelor,2022.2.4,60.024155189709255,
,,,,,,,,,,,,1,0,1,0,125,0,125,0,,,,,,,125,,,0.2,1316.436524182791,Y,d,go,d,1,0.502890476025641,,,,,,,,,,,,,,,,,3,001,2022-12-14_14h24.57.588,00_bat_bachelor,2022.2.4,60.024155189709255,
,,,,,,,,,,,,1,0,1,0,126,0,126,0,,,,,,,126,,,0.2,1317.1698524414096,Y,None,nogo,l,0,0.36111121950671077,,,,,,,,,,,,,,,,,3,001,2022-12-14_14h24.57.588,00_bat_bachelor,2022.2.4,60.024155189709255,
,,,,,,,,,,,,1,0,1,0,127,0,127,0,,,,,,,127,,,0.2,1317.7529801183846,X,l,go,l,1,0.6109519468154758,,,,,,,,,,,,,,,,,3,001,2022-12-14_14h24.57.588,00_bat_bachelor,2022.2.4,60.024155189709255,
,,,,,,,,,,,,1,0,1,0,128,0,128,0,,,,,,,128,,,0.2,1318.586520158453,Y,d,go,d,1,0.46526190638542175,,,,,,,,,,,,,,,,,3,001,2022-12-14_14h24.57.588,00_bat_bachelor,2022.2.4,60.024155189709255,
,,,,,,,,,,,,1,0,1,0,129,0,129,0,,,,,,,129,,,0.2,1319.2695376779884,X,l,go,l,1,0.40529929776676,,,,,,,,,,,,,,,,,3,001,2022-12-14_14h24.57.588,00_bat_bachelor,2022.2.4,60.024155189709255,
,,,,,,,,,,,,1,0,1,0,130,0,130,0,,,,,,,130,,,0.2,1319.9031695483718,X,None,nogo,None,1,,1320.703293863451,,,,,,,,,,,,,,,,3,001,2022-12-14_14h24.57.588,00_bat_bachelor,2022.2.4,60.024155189709255,
,,,,,,,,,,,,1,0,1,0,131,0,131,0,,,,,,,131,,,0.2,1320.903123002965,X,None,nogo,None,1,,1321.7032201664988,,,,,,,,,,,,,,,,3,001,2022-12-14_14h24.57.588,00_bat_bachelor,2022.2.4,60.024155189709255,
,,,,,,,,,,,,1,0,1,0,132,0,132,0,,,,,,,132,,,0.2,1321.9028369428124,Y,d,go,d,1,0.5084880462381989,,,,,,,,,,,,,,,,,3,001,2022-12-14_14h24.57.588,00_bat_bachelor,2022.2.4,60.024155189709255,
,,,,,,,,,,,,1,0,1,0,133,0,133,0,,,,,,,133,,,0.2,1322.6360381711274,X,l,go,l,1,0.5285840267315507,,,,,,,,,,,,,,,,,3,001,2022-12-14_14h24.57.588,00_bat_bachelor,2022.2.4,60.024155189709255,
,,,,,,,,,,,,1,0,1,0,134,0,134,0,,,,,,,134,,,0.2,1323.386014655931,X,None,nogo,None,1,,1324.1861792134587,,,,,,,,,,,,,,,,3,001,2022-12-14_14h24.57.588,00_bat_bachelor,2022.2.4,60.024155189709255,
,,,,,,,,,,,,1,0,1,0,135,0,135,0,,,,,,,135,,,0.2,1324.3859390197322,Y,d,go,d,1,0.4098001418169588,,,,,,,,,,,,,,,,,3,001,2022-12-14_14h24.57.588,00_bat_bachelor,2022.2.4,60.024155189709255,
,,,,,,,,,,,,1,0,1,0,136,0,136,0,,,,,,,136,,,0.2,1325.0194021631032,X,l,go,l,1,0.7047773103695363,,,,,,,,,,,,,,,,,3,001,2022-12-14_14h24.57.588,00_bat_bachelor,2022.2.4,60.024155189709255,
,,,,,,,,,,,,1,0,1,0,137,0,137,0,,,,,,,137,,,0.2,1325.9528703487013,Y,d,go,d,1,0.5388589259237051,,,,,,,,,,,,,,,,,3,001,2022-12-14_14h24.57.588,00_bat_bachelor,2022.2.4,60.024155189709255,
,,,,,,,,,,,,1,0,1,0,138,0,138,0,,,,,,,138,,,0.2,1326.7195527567528,Y,None,nogo,None,1,,1327.5195922234561,,,,,,,,,,,,,,,,3,001,2022-12-14_14h24.57.588,00_bat_bachelor,2022.2.4,60.024155189709255,
,,,,,,,,,,,,1,0,1,0,139,0,139,0,,,,,,,139,,,0.2,1327.7195013628807,X,l,go,None,0,,1328.5194962234236,,,,,,,,,,,,,,,,3,001,2022-12-14_14h24.57.588,00_bat_bachelor,2022.2.4,60.024155189709255,
,,,,,,,,,,,,1,0,1,0,140,0,140,0,,,,,,,140,,,0.2,1328.7194892417174,Y,d,go,d,1,0.5402165004052222,,,,,,,,,,,,,,,,,3,001,2022-12-14_14h24.57.588,00_bat_bachelor,2022.2.4,60.024155189709255,
,,,,,,,,,,,,1,0,1,0,141,0,141,0,,,,,,,141,,,0.2,1329.485997589305,X,l,go,l,1,0.4937297576107085,,,,,,,,,,,,,,,,,3,001,2022-12-14_14h24.57.588,00_bat_bachelor,2022.2.4,60.024155189709255,
,,,,,,,,,,,,1,0,1,0,142,0,142,0,,,,,,,142,,,0.2,1330.2025961671025,X,None,nogo,None,1,,1331.0026996338274,,,,,,,,,,,,,,,,3,001,2022-12-14_14h24.57.588,00_bat_bachelor,2022.2.4,60.024155189709255,
,,,,,,,,,,,,1,0,1,0,143,0,143,0,,,,,,,143,,,0.2,1331.2027076822706,Y,d,go,d,1,0.4419077471829951,,,,,,,,,,,,,,,,,3,001,2022-12-14_14h24.57.588,00_bat_bachelor,2022.2.4,60.024155189709255,
,,,,,,,,,,,,1,0,1,0,144,0,144,0,,,,,,,144,,,0.2,1331.8693606115412,X,l,go,l,1,0.5265350590925664,,,,,,,,,,,,,,,,,3,001,2022-12-14_14h24.57.588,00_bat_bachelor,2022.2.4,60.024155189709255,
,,,,,,,,,,,,1,0,1,0,145,0,145,0,,,,,,,145,,,0.2,1332.6194772175513,Y,d,go,d,1,0.44798580184578896,,,,,,,,,,,,,,,,,3,001,2022-12-14_14h24.57.588,00_bat_bachelor,2022.2.4,60.024155189709255,
,,,,,,,,,,,,1,0,1,0,146,0,146,0,,,,,,,146,,,0.2,1333.286391964648,X,l,go,l,1,0.5652176882140338,,,,,,,,,,,,,,,,,3,001,2022-12-14_14h24.57.588,00_bat_bachelor,2022.2.4,60.024155189709255,
,,,,,,,,,,,,1,0,1,0,147,0,147,0,,,,,,,147,,,0.2,1334.069262963254,Y,d,go,d,1,0.5658906570170075,,,,,,,,,,,,,,,,,3,001,2022-12-14_14h24.57.588,00_bat_bachelor,2022.2.4,60.024155189709255,
,,,,,,,,,,,,1,0,1,0,148,0,148,0,,,,,,,148,,,0.2,1334.8528209913056,X,l,go,l,1,0.4714403245598078,,,,,,,,,,,,,,,,,3,001,2022-12-14_14h24.57.588,00_bat_bachelor,2022.2.4,60.024155189709255,
,,,,,,,,,,,,1,0,1,0,149,0,149,0,,,,,,,149,,,0.2,1335.5528969184961,X,None,nogo,None,1,,1336.3530435364228,,,,,,,,,,,,,,,,3,001,2022-12-14_14h24.57.588,00_bat_bachelor,2022.2.4,60.024155189709255,
,,,,,,,,,,,,1,0,1,0,150,0,150,0,,,,,,,150,,,0.2,1336.5525628582109,Y,d,go,d,1,0.38697883067652583,,,,,,,,,,,,,,,,,3,001,2022-12-14_14h24.57.588,00_bat_bachelor,2022.2.4,60.024155189709255,
,,,,,,,,,,,,1,0,1,0,151,0,151,0,,,,,,,151,,,0.2,1337.1693200783338,X,l,go,None,0,,1337.9693595448043,,,,,,,,,,,,,,,,3,001,2022-12-14_14h24.57.588,00_bat_bachelor,2022.2.4,60.024155189709255,
,,,,,,,,,,,,1,0,1,0,152,0,152,0,,,,,,,152,,,0.2,1338.1697414112277,X,None,nogo,None,1,,1338.969341605436,,,,,,,,,,,,,,,,3,001,2022-12-14_14h24.57.588,00_bat_bachelor,2022.2.4,60.024155189709255,
,,,,,,,,,,,,1,0,1,0,153,0,153,0,,,,,,,153,,,0.2,1339.1693486843724,Y,d,go,d,1,0.4428139282390475,,,,,,,,,,,,,,,,,3,001,2022-12-14_14h24.57.588,00_bat_bachelor,2022.2.4,60.024155189709255,
,,,,,,,,,,,,1,0,1,0,154,0,154,0,,,,,,,154,,,0.2,1339.8360316741746,X,l,go,l,1,0.6227536322548985,,,,,,,,,,,,,,,,,3,001,2022-12-14_14h24.57.588,00_bat_bachelor,2022.2.4,60.024155189709255,
,,,,,,,,,,,,1,0,1,0,155,0,155,0,,,,,,,155,,,0.2,1340.6860618800856,Y,d,go,d,1,0.44649489410221577,,,,,,,,,,,,,,,,,3,001,2022-12-14_14h24.57.588,00_bat_bachelor,2022.2.4,60.024155189709255,
,,,,,,,,,,,,1,0,1,0,156,0,156,0,,,,,,,156,,,0.2,1341.352745354874,Y,None,nogo,l,0,0.4990727826952934,,,,,,,,,,,,,,,,,3,001,2022-12-14_14h24.57.588,00_bat_bachelor,2022.2.4,60.024155189709255,
,,,,,,,,,,,,1,0,1,0,157,0,157,0,,,,,,,157,,,0.2,1342.0693618720397,X,l,go,l,1,0.5018092647660524,,,,,,,,,,,,,,,,,3,001,2022-12-14_14h24.57.588,00_bat_bachelor,2022.2.4,60.024155189709255,
,,,,,,,,,,,,1,0,1,0,158,0,158,0,,,,,,,158,,,0.2,1342.8026435852516,Y,d,go,d,1,0.4888235805556178,,,,,,,,,,,,,,,,,3,001,2022-12-14_14h24.57.588,00_bat_bachelor,2022.2.4,60.024155189709255,
,,,,,,,,,,,,1,0,1,0,159,0,159,0,,,,,,,159,,,0.2,1343.5190457997378,X,l,go,l,1,0.4443765932228416,,,,,,,,,,,,,,,,,3,001,2022-12-14_14h24.57.588,00_bat_bachelor,2022.2.4,60.024155189709255,
,,,,,,,,,,,,1,0,1,0,160,0,160,0,,,,,,,160,,,0.2,1344.203374348348,X,None,nogo,None,1,,1345.0035369661637,,,,,,,,,,,,,,,,3,001,2022-12-14_14h24.57.588,00_bat_bachelor,2022.2.4,60.024155189709255,
,,,,,,,,,,,,1,0,1,0,161,0,161,0,,,,,,,161,,,0.2,1345.2036894995254,Y,d,go,d,1,0.424397945869714,,,,,,,,,,,,,,,,,3,001,2022-12-14_14h24.57.588,00_bat_bachelor,2022.2.4,60.024155189709255,
,,,,,,,,,,,,1,0,1,0,162,0,162,0,,,,,,,162,,,0.2,1345.870415640762,X,l,go,l,1,0.6051051646936685,,,,,,,,,,,,,,,,,3,001,2022-12-14_14h24.57.588,00_bat_bachelor,2022.2.4,60.024155189709255,
,,,,,,,,,,,,1,0,1,0,163,0,163,0,,,,,,,163,,,0.2,1346.7029181062244,X,None,nogo,None,1,,1347.5030947849154,,,,,,,,,,,,,,,,3,001,2022-12-14_14h24.57.588,00_bat_bachelor,2022.2.4,60.024155189709255,
,,,,,,,,,,,,1,0,1,0,164,0,164,0,,,,,,,164,,,0.2,1347.702982106246,Y,d,go,d,1,0.4367741763126105,,,,,,,,,,,,,,,,,3,001,2022-12-14_14h24.57.588,00_bat_bachelor,2022.2.4,60.024155189709255,
,,,,,,,,,,,,1,0,1,0,165,0,165,0,,,,,,,165,,,0.2,1348.3695307932794,X,l,go,None,0,,1349.1693835933693,,,,,,,,,,,,,,,,3,001,2022-12-14_14h24.57.588,00_bat_bachelor,2022.2.4,60.024155189709255,
,,,,,,,,,,,,1,0,1,0,166,0,166,0,,,,,,,166,,,0.2,1349.3694338235073,Y,d,go,d,1,0.514640282606706,,,,,,,,,,,,,,,,,3,001,2022-12-14_14h24.57.588,00_bat_bachelor,2022.2.4,60.024155189709255,
,,,,,,,,,,,,1,0,1,0,167,0,167,0,,,,,,,167,,,0.2,1350.1029366275761,X,l,go,l,1,0.4046500863041729,,,,,,,,,,,,,,,,,3,001,2022-12-14_14h24.57.588,00_bat_bachelor,2022.2.4,60.024155189709255,
,,,,,,,,,,,,1,0,1,0,168,0,168,0,,,,,,,168,,,0.2,1350.736210680101,Y,d,go,d,1,0.4113157766405493,,,,,,,,,,,,,,,,,3,001,2022-12-14_14h24.57.588,00_bat_bachelor,2022.2.4,60.024155189709255,
,,,,,,,,,,,,1,0,1,0,169,0,169,0,,,,,,,169,,,0.2,1351.369357217569,X,l,go,l,1,0.40222536120563745,,,,,,,,,,,,,,,,,3,001,2022-12-14_14h24.57.588,00_bat_bachelor,2022.2.4,60.024155189709255,
,,,,,,,,,,,,1,0,1,0,170,0,170,0,,,,,,,170,,,0.2,1352.0029745425563,X,None,nogo,d,0,0.36155873420648277,,,,,,,,,,,,,,,,,3,001,2022-12-14_14h24.57.588,00_bat_bachelor,2022.2.4,60.024155189709255,
,,,,,,,,,,,,1,0,1,0,171,0,171,0,,,,,,,171,,,0.2,1352.5862064617686,Y,d,go,d,1,0.5136119201779366,,,,,,,,,,,,,,,,,3,001,2022-12-14_14h24.57.588,00_bat_bachelor,2022.2.4,60.024155189709255,
,,,,,,,,,,,,1,0,1,0,172,0,172,0,,,,,,,172,,,0.2,1353.319147811737,X,l,go,l,1,0.5159959176089615,,,,,,,,,,,,,,,,,3,001,2022-12-14_14h24.57.588,00_bat_bachelor,2022.2.4,60.024155189709255,
,,,,,,,,,,,,1,0,1,0,173,0,173,0,,,,,,,173,,,0.2,1354.0526574035175,X,None,nogo,None,1,,1354.8527579610236,,,,,,,,,,,,,,,,3,001,2022-12-14_14h24.57.588,00_bat_bachelor,2022.2.4,60.024155189709255,
,,,,,,,,,,,,1,0,1,0,174,0,174,0,,,,,,,174,,,0.2,1355.0527097671293,X,None,nogo,d,0,0.44706652988679707,,,,,,,,,,,,,,,,,3,001,2022-12-14_14h24.57.588,00_bat_bachelor,2022.2.4,60.024155189709255,
,,,,,,,,,,,,1,0,1,0,175,0,175,0,,,,,,,175,,,0.2,1355.7193476660177,Y,d,go,d,1,0.6125170362647623,,,,,,,,,,,,,,,,,3,001,2022-12-14_14h24.57.588,00_bat_bachelor,2022.2.4,60.024155189709255,
,,,,,,,,,,,,1,0,1,0,176,0,176,0,,,,,,,176,,,0.2,1356.5526840700768,X,l,go,l,1,0.514934585429728,,,,,,,,,,,,,,,,,3,001,2022-12-14_14h24.57.588,00_bat_bachelor,2022.2.4,60.024155189709255,
,,,,,,,,,,,,1,0,1,0,177,0,177,0,,,,,,,177,,,0.2,1357.2859716014937,Y,d,go,d,1,0.45420688670128584,,,,,,,,,,,,,,,,,3,001,2022-12-14_14h24.57.588,00_bat_bachelor,2022.2.4,60.024155189709255,
,,,,,,,,,,,,1,0,1,0,178,0,178,0,,,,,,,178,,,0.2,1357.969348878134,X,l,go,l,1,0.346965778619051,,,,,,,,,,,,,,,,,3,001,2022-12-14_14h24.57.588,00_bat_bachelor,2022.2.4,60.024155189709255,
,,,,,,,,,,,,1,0,1,0,179,0,179,0,,,,,,,179,,,0.2,1358.5359805712942,X,None,nogo,d,0,0.4669055410195142,,,,,,,,,,,,,,,,,3,001,2022-12-14_14h24.57.588,00_bat_bachelor,2022.2.4,60.024155189709255,
,,,,,,,,,,,,1,0,1,0,180,0,180,0,,,,,,,180,,,0.2,1359.2193879084662,Y,d,go,d,1,0.47170311235822737,,,,,,,,,,,,,,,,,3,001,2022-12-14_14h24.57.588,00_bat_bachelor,2022.2.4,60.024155189709255,
,,,,,,,,,,,,1,0,1,0,181,0,181,0,,,,,,,181,,,0.2,1359.9193319571204,X,l,go,l,1,0.492614122107625,,,,,,,,,,,,,,,,,3,001,2022-12-14_14h24.57.588,00_bat_bachelor,2022.2.4,60.024155189709255,
,,,,,,,,,,,,1,0,1,0,182,0,182,0,,,,,,,182,,,0.2,1360.6356822927482,X,None,nogo,None,1,,1361.4360921832267,,,,,,,,,,,,,,,,3,001,2022-12-14_14h24.57.588,00_bat_bachelor,2022.2.4,60.024155189709255,
,,,,,,,,,,,,1,0,1,0,183,0,183,0,,,,,,,183,,,0.2,1361.6356992623769,X,None,nogo,d,0,0.4877186119556427,,,,,,,,,,,,,,,,,3,001,2022-12-14_14h24.57.588,00_bat_bachelor,2022.2.4,60.024155189709255,
,,,,,,,,,,,,1,0,1,0,184,0,184,0,,,,,,,184,,,0.2,1362.3523826885503,Y,d,go,d,1,0.6509422110393643,,,,,,,,,,,,,,,,,3,001,2022-12-14_14h24.57.588,00_bat_bachelor,2022.2.4,60.024155189709255,
,,,,,,,,,,,,1,0,1,0,185,0,185,0,,,,,,,185,,,0.2,1363.235985225765,X,l,go,l,1,0.4403828999493271,,,,,,,,,,,,,,,,,3,001,2022-12-14_14h24.57.588,00_bat_bachelor,2022.2.4,60.024155189709255,
,,,,,,,,,,,,1,0,1,0,186,0,186,0,,,,,,,186,,,0.2,1363.9025188824162,X,None,nogo,None,1,,1364.702456530882,,,,,,,,,,,,,,,,3,001,2022-12-14_14h24.57.588,00_bat_bachelor,2022.2.4,60.024155189709255,
,,,,,,,,,,,,1,0,1,0,187,0,187,0,,,,,,,187,,,0.2,1364.902663367102,Y,d,go,d,1,0.4526510094292462,,,,,,,,,,,,,,,,,3,001,2022-12-14_14h24.57.588,00_bat_bachelor,2022.2.4,60.024155189709255,
,,,,,,,,,,,,1,0,1,0,188,0,188,0,,,,,,,188,,,0.2,1365.586015431676,X,l,go,l,1,0.6971598633099347,,,,,,,,,,,,,,,,,3,001,2022-12-14_14h24.57.588,00_bat_bachelor,2022.2.4,60.024155189709255,
,,,,,,,,,,,,1,0,1,0,189,0,189,0,,,,,,,189,,,0.2,1366.5026787852403,Y,d,go,d,1,0.5814959753770381,,,,,,,,,,,,,,,,,3,001,2022-12-14_14h24.57.588,00_bat_bachelor,2022.2.4,60.024155189709255,
,,,,,,,,,,,,1,0,1,0,190,0,190,0,,,,,,,190,,,0.2,1367.3027769185137,Y,None,nogo,None,1,,1368.10268887016,,,,,,,,,,,,,,,,3,001,2022-12-14_14h24.57.588,00_bat_bachelor,2022.2.4,60.024155189709255,
,,,,,,,,,,,,1,0,1,0,191,0,191,0,,,,,,,191,,,0.2,1368.3026503731962,X,l,go,l,1,0.7488199344370514,,,,,,,,,,,,,,,,,3,001,2022-12-14_14h24.57.588,00_bat_bachelor,2022.2.4,60.024155189709255,
,,,,,,,,,,,,1,0,1,0,192,0,192,0,,,,,,,192,,,0.2,1369.2693888295908,Y,d,go,d,1,0.5503343087621033,,,,,,,,,,,,,,,,,3,001,2022-12-14_14h24.57.588,00_bat_bachelor,2022.2.4,60.024155189709255,
,,,,,,,,,,,,1,0,1,0,193,0,193,0,,,,,,,193,,,0.2,1370.0527698881924,X,l,go,l,1,0.4066277814563364,,,,,,,,,,,,,,,,,3,001,2022-12-14_14h24.57.588,00_bat_bachelor,2022.2.4,60.024155189709255,
,,,,,,,,,,,,1,0,1,0,194,0,194,0,,,,,,,194,,,0.2,1370.6859833349008,X,None,nogo,None,1,,1371.4856853471138,,,,,,,,,,,,,,,,3,001,2022-12-14_14h24.57.588,00_bat_bachelor,2022.2.4,60.024155189709255,
,,,,,,,,,,,,1,0,1,0,195,0,195,0,,,,,,,195,,,0.2,1371.6858000622597,Y,d,go,d,1,0.3907853723503649,,,,,,,,,,,,,,,,,3,001,2022-12-14_14h24.57.588,00_bat_bachelor,2022.2.4,60.024155189709255,
,,,,,,,,,,,,1,0,1,0,196,0,196,0,,,,,,,196,,,0.2,1372.3026707367972,X,l,go,l,1,0.604147105012089,,,,,,,,,,,,,,,,,3,001,2022-12-14_14h24.57.588,00_bat_bachelor,2022.2.4,60.024155189709255,
,,,,,,,,,,,,1,0,1,0,197,0,197,0,,,,,,,197,,,0.2,1373.135665807873,Y,d,go,d,1,0.4918606684077531,,,,,,,,,,,,,,,,,3,001,2022-12-14_14h24.57.588,00_bat_bachelor,2022.2.4,60.024155189709255,
,,,,,,,,,,,,1,0,1,0,198,0,198,0,,,,,,,198,,,0.2,1373.8524917794857,X,l,go,l,1,0.5904971787240356,,,,,,,,,,,,,,,,,3,001,2022-12-14_14h24.57.588,00_bat_bachelor,2022.2.4,60.024155189709255,
,,,,,,,,,,,,1,0,1,0,199,0,199,0,,,,,,,199,,,0.2,1374.6693370479625,Y,d,go,d,1,0.41491189459338784,,,,,,,,,,,,,,,,,3,001,2022-12-14_14h24.57.588,00_bat_bachelor,2022.2.4,60.024155189709255,
,,,,,,,,,,,,1,0,1,0,200,0,200,0,,,,,,,200,,,0.2,1375.3024452824611,X,l,go,l,1,0.4849326750263572,,,,,,,,,,,,,,,,,3,001,2022-12-14_14h24.57.588,00_bat_bachelor,2022.2.4,60.024155189709255,
,,,,,,,,,,,,1,0,1,0,201,0,201,0,,,,,,,201,,,0.2,1376.0191791329999,X,None,nogo,d,0,0.47294965642504394,,,,,,,,,,,,,,,,,3,001,2022-12-14_14h24.57.588,00_bat_bachelor,2022.2.4,60.024155189709255,
,,,,,,,,,,,,1,0,1,0,202,0,202,0,,,,,,,202,,,0.2,1376.7193573629484,Y,d,go,None,0,,1377.5194215569645,,,,,,,,,,,,,,,,3,001,2022-12-14_14h24.57.588,00_bat_bachelor,2022.2.4,60.024155189709255,
,,,,,,,,,,,,1,0,1,0,203,0,203,0,,,,,,,203,,,0.2,1377.719336514594,X,l,go,l,1,0.5480724927037954,,,,,,,,,,,,,,,,,3,001,2022-12-14_14h24.57.588,00_bat_bachelor,2022.2.4,60.024155189709255,
,,,,,,,,,,,,1,0,1,0,204,0,204,0,,,,,,,204,,,0.2,1378.4858298320323,Y,d,go,d,1,0.5170286439824849,,,,,,,,,,,,,,,,,3,001,2022-12-14_14h24.57.588,00_bat_bachelor,2022.2.4,60.024155189709255,
,,,,,,,,,,,,1,0,1,0,205,0,205,0,,,,,,,205,,,0.2,1379.2189903331455,Y,None,nogo,None,1,,1380.0190104057547,,,,,,,,,,,,,,,,3,001,2022-12-14_14h24.57.588,00_bat_bachelor,2022.2.4,60.024155189709255,
,,,,,,,,,,,,1,0,1,0,206,0,206,0,,,,,,,206,,,0.2,1380.2189791817218,X,l,go,l,1,0.5610877526924014,,,,,,,,,,,,,,,,,3,001,2022-12-14_14h24.57.588,00_bat_bachelor,2022.2.4,60.024155189709255,
,,,,,,,,,,,,1,0,1,0,207,0,207,0,,,,,,,207,,,0.2,1381.0023330885451,Y,d,go,d,1,0.6575206289999187,,,,,,,,,,,,,,,,,3,001,2022-12-14_14h24.57.588,00_bat_bachelor,2022.2.4,60.024155189709255,
,,,,,,,,,,,,1,0,1,0,208,0,208,0,,,,,,,208,,,0.2,1381.8856747774407,Y,None,nogo,d,0,0.6211124218534678,,,,,,,,,,,,,,,,,3,001,2022-12-14_14h24.57.588,00_bat_bachelor,2022.2.4,60.024155189709255,
,,,,,,,,,,,,1,0,1,0,209,0,209,0,,,,,,,209,,,0.2,1382.7356424382888,X,l,go,l,1,0.6682406184263527,,,,,,,,,,,,,,,,,3,001,2022-12-14_14h24.57.588,00_bat_bachelor,2022.2.4,60.024155189709255,
,,,,,,,,,,,,1,0,1,0,210,0,210,0,,,,,,,210,,,0.2,1383.6360333226621,Y,d,go,d,1,0.5038514446932822,,,,,,,,,,,,,,,,,3,001,2022-12-14_14h24.57.588,00_bat_bachelor,2022.2.4,60.024155189709255,
,,,,,,,,,,,,1,0,1,0,211,0,211,0,,,,,,,211,,,0.2,1384.3692995207384,X,l,go,l,1,0.5861306376755238,,,,,,,,,,,,,,,,,3,001,2022-12-14_14h24.57.588,00_bat_bachelor,2022.2.4,60.024155189709255,
,,,,,,,,,,,,1,0,1,0,212,0,212,0,,,,,,,212,,,0.2,1385.1859416379593,X,None,nogo,None,1,,1385.9860426802188,,,,,,,,,,,,,,,,3,001,2022-12-14_14h24.57.588,00_bat_bachelor,2022.2.4,60.024155189709255,
,,,,,,,,,,,,1,0,1,0,213,0,213,0,,,,,,,213,,,0.2,1386.1859881833661,Y,d,go,d,1,0.4013550591189414,,,,,,,,,,,,,,,,,3,001,2022-12-14_14h24.57.588,00_bat_bachelor,2022.2.4,60.024155189709255,
,,,,,,,,,,,,1,0,1,0,214,0,214,0,,,,,,,214,,,0.2,1386.819379084278,X,l,go,l,1,0.6646527433767915,,,,,,,,,,,,,,,,,3,001,2022-12-14_14h24.57.588,00_bat_bachelor,2022.2.4,60.024155189709255,
,,,,,,,,,,,,1,0,1,0,215,0,215,0,,,,,,,215,,,0.2,1387.7026553186588,Y,d,go,d,1,0.4682442066259682,,,,,,,,,,,,,,,,,3,001,2022-12-14_14h24.57.588,00_bat_bachelor,2022.2.4,60.024155189709255,
,,,,,,,,,,,,1,0,1,0,216,0,216,0,,,,,,,216,,,0.2,1388.4026643368416,Y,None,nogo,None,1,,1389.2024264703505,,,,,,,,,,,,,,,,3,001,2022-12-14_14h24.57.588,00_bat_bachelor,2022.2.4,60.024155189709255,
,,,,,,,,,,,,1,0,1,0,217,0,217,0,,,,,,,217,,,0.2,1389.4026425187476,X,l,go,l,1,0.40057978709228337,,,,,,,,,,,,,,,,,3,001,2022-12-14_14h24.57.588,00_bat_bachelor,2022.2.4,60.024155189709255,
,,,,,,,,,,,,1,0,1,0,218,0,218,0,,,,,,,218,,,0.2,1390.0359839650337,Y,d,go,d,1,0.6313301087357104,,,,,,,,,,,,,,,,,3,001,2022-12-14_14h24.57.588,00_bat_bachelor,2022.2.4,60.024155189709255,
,,,,,,,,,,,,1,0,1,0,219,0,219,0,,,,,,,219,,,0.2,1390.8859627773054,X,l,go,l,1,0.4692749932873994,,,,,,,,,,,,,,,,,3,001,2022-12-14_14h24.57.588,00_bat_bachelor,2022.2.4,60.024155189709255,
,,,,,,,,,,,,1,0,1,0,220,0,220,0,,,,,,,220,,,0.2,1391.5860004015267,X,None,nogo,d,0,0.4407591421622783,,,,,,,,,,,,,,,,,3,001,2022-12-14_14h24.57.588,00_bat_bachelor,2022.2.4,60.024155189709255,
,,,,,,,,,,,,1,0,1,0,221,0,221,0,,,,,,,221,,,0.2,1392.2526378156617,Y,d,go,d,1,0.6707831614185125,,,,,,,,,,,,,,,,,3,001,2022-12-14_14h24.57.588,00_bat_bachelor,2022.2.4,60.024155189709255,
,,,,,,,,,,,,1,0,1,0,222,0,222,0,,,,,,,222,,,0.2,1393.1527426398825,X,l,go,l,1,0.4430873824749142,,,,,,,,,,,,,,,,,3,001,2022-12-14_14h24.57.588,00_bat_bachelor,2022.2.4,60.024155189709255,
,,,,,,,,,,,,1,0,1,0,223,0,223,0,,,,,,,223,,,0.2,1393.8192152057309,Y,d,go,d,1,0.5603202383499593,,,,,,,,,,,,,,,,,3,001,2022-12-14_14h24.57.588,00_bat_bachelor,2022.2.4,60.024155189709255,
,,,,,,,,,,,,1,0,1,0,224,0,224,0,,,,,,,224,,,0.2,1394.60244159773,X,l,go,l,1,0.5456836465746164,,,,,,,,,,,,,,,,,3,001,2022-12-14_14h24.57.588,00_bat_bachelor,2022.2.4,60.024155189709255,
,,,,,,,,,,,,1,0,1,0,225,0,225,0,,,,,,,225,,,0.2,1395.3695298235398,Y,d,go,d,1,0.5462824339047074,,,,,,,,,,,,,,,,,3,001,2022-12-14_14h24.57.588,00_bat_bachelor,2022.2.4,60.024155189709255,
,,,,,,,,,,,,1,0,1,0,226,0,226,0,,,,,,,226,,,0.2,1396.1360304134432,X,l,go,l,1,0.4839440700598061,,,,,,,,,,,,,,,,,3,001,2022-12-14_14h24.57.588,00_bat_bachelor,2022.2.4,60.024155189709255,
,,,,,,,,,,,,1,0,1,0,227,0,227,0,,,,,,,227,,,0.2,1396.852360385703,Y,d,go,d,1,0.5518678829539567,,,,,,,,,,,,,,,,,3,001,2022-12-14_14h24.57.588,00_bat_bachelor,2022.2.4,60.024155189709255,
,,,,,,,,,,,,1,0,1,0,228,0,228,0,,,,,,,228,,,0.2,1397.635659989668,Y,None,nogo,l,0,0.42386752227321267,,,,,,,,,,,,,,,,,3,001,2022-12-14_14h24.57.588,00_bat_bachelor,2022.2.4,60.024155189709255,
,,,,,,,,,,,,1,0,1,0,229,0,229,0,,,,,,,229,,,0.2,1398.2857490561437,X,l,go,l,1,0.717345540644601,,,,,,,,,,,,,,,,,3,001,2022-12-14_14h24.57.588,00_bat_bachelor,2022.2.4,60.024155189709255,
,,,,,,,,,,,,1,0,1,0,230,0,230,0,,,,,,,230,,,0.2,1399.2356526199728,Y,d,go,d,1,0.5515304286964238,,,,,,,,,,,,,,,,,3,001,2022-12-14_14h24.57.588,00_bat_bachelor,2022.2.4,60.024155189709255,
,,,,,,,,,,,,1,0,1,0,231,0,231,0,,,,,,,231,,,0.2,1400.0193294358905,X,l,go,l,1,0.5514082470908761,,,,,,,,,,,,,,,,,3,001,2022-12-14_14h24.57.588,00_bat_bachelor,2022.2.4,60.024155189709255,
,,,,,,,,,,,,1,0,1,0,232,0,232,0,,,,,,,232,,,0.2,1400.8023051614873,Y,d,go,d,1,0.5047018681652844,,,,,,,,,,,,,,,,,3,001,2022-12-14_14h24.57.588,00_bat_bachelor,2022.2.4,60.024155189709255,
,,,,,,,,,,,,1,0,1,0,233,0,233,0,,,,,,,233,,,0.2,1401.5358079653233,X,l,go,l,1,0.5877849389798939,,,,,,,,,,,,,,,,,3,001,2022-12-14_14h24.57.588,00_bat_bachelor,2022.2.4,60.024155189709255,
,,,,,,,,,,,,1,0,1,0,234,0,234,0,,,,,,,234,,,0.2,1402.3526338399388,Y,d,go,d,1,0.45948057854548097,,,,,,,,,,,,,,,,,3,001,2022-12-14_14h24.57.588,00_bat_bachelor,2022.2.4,60.024155189709255,
,,,,,,,,,,,,1,0,1,0,235,0,235,0,,,,,,,235,,,0.2,1403.035975722596,X,l,go,l,1,0.7031457968987525,,,,,,,,,,,,,,,,,3,001,2022-12-14_14h24.57.588,00_bat_bachelor,2022.2.4,60.024155189709255,
,,,,,,,,,,,,1,0,1,0,236,0,236,0,,,,,,,236,,,0.2,1403.969155908795,Y,d,go,d,1,0.5701650772243738,,,,,,,,,,,,,,,,,3,001,2022-12-14_14h24.57.588,00_bat_bachelor,2022.2.4,60.024155189709255,
,,,,,,,,,,,,1,0,1,0,237,0,237,0,,,,,,,237,,,0.2,1404.7692996177357,X,l,go,l,1,0.6506459689699113,,,,,,,,,,,,,,,,,3,001,2022-12-14_14h24.57.588,00_bat_bachelor,2022.2.4,60.024155189709255,
,,,,,,,,,,,,1,0,1,0,238,0,238,0,,,,,,,238,,,0.2,1405.652286882745,X,None,nogo,l,0,0.7431787275709212,,,,,,,,,,,,,,,,,3,001,2022-12-14_14h24.57.588,00_bat_bachelor,2022.2.4,60.024155189709255,
,,,,,,,,,,,,1,0,1,0,239,0,239,0,,,,,,,239,,,0.2,1406.6193225509487,Y,d,go,None,0,,1407.419285896467,,,,,,,,,,,,,,,,3,001,2022-12-14_14h24.57.588,00_bat_bachelor,2022.2.4,60.024155189709255,
,,,,,,,,,,,,1,0,1,0,240,0,240,0,,,,,,,240,,,0.2,1407.6192929751705,X,l,go,l,1,0.5522470339201391,,,,,,,,,,,,,,,,,3,001,2022-12-14_14h24.57.588,00_bat_bachelor,2022.2.4,60.024155189709255,
,,,,,,,,,,,,1,0,1,0,241,0,241,0,,,,,,,241,,,0.2,1408.4026294278447,Y,d,go,d,1,0.6169679411686957,,,,,,,,,,,,,,,,,3,001,2022-12-14_14h24.57.588,00_bat_bachelor,2022.2.4,60.024155189709255,
