loop_instruction.thisRepN,loop_instruction.thisTrialN,loop_instruction.thisN,loop_instruction.thisIndex,loop_rsi_practice.thisRepN,loop_rsi_practice.thisTrialN,loop_rsi_practice.thisN,loop_rsi_practice.thisIndex,loop_practice.thisRepN,loop_practice.thisTrialN,loop_practice.thisN,loop_practice.thisIndex,loop_exp.thisRepN,loop_exp.thisTrialN,loop_exp.thisN,loop_exp.thisIndex,loop_trials.thisRepN,loop_trials.thisTrialN,loop_trials.thisN,loop_trials.thisIndex,map_condition,map_x_key,map_y_key,key_resp_welcome.started,key_resp_welcome.keys,key_resp_welcome.rt,index,text_empty_rsi_practice.started,text_empty_rsi_practice.stopped,rsi,stimulus.started,stimulus,correct,trial_type,key_resp_trial.keys,key_resp_trial.corr,key_resp_trial.rt,stimulus.stopped,key_resp_instruction_rsi.started,key_resp_instruction_rsi.keys,key_resp_instruction_rsi.rt,key_resp_instruction_rsi.stopped,key_resp_instruction_final.started,key_resp_instruction_final.keys,key_resp_instruction_final.rt,key_resp_break.started,key_resp_break.keys,key_resp_break.rt,key_resp_break.stopped,key_resp_end_screen.started,image_end_screen.started,key_resp_end_screen.stopped,image_end_screen.stopped,key_resp_end_screen.keys,participant,session,Alter,Geschlecht (w/m/d/andere),Studiengang,date,expName,psychopyVersion,frameRate,
,,,,0,0,0,0,0,0,0,0,,,,,,,,,1,l,d,391.1624343454605,j,24.296513565583155,0,415.49399297253694,416.50868726847693,1,416.50868726847693,X,l,go,None,0,,,,,,,,,,,,,,,,,,,43,001,19,w,Psychologie,2023-01-18_12h00.01.356,00_bat_bachelor,2022.2.4,59.96252527238995,
,,,,0,0,0,0,1,0,1,0,,,,,,,,,,,,,,,1,417.91020077082794,418.91064149781596,1,418.91064149781596,Y,d,go,d,1,0.5772043386241421,,,,,,,,,,,,,,,,,,43,001,19,w,Psychologie,2023-01-18_12h00.01.356,00_bat_bachelor,2022.2.4,59.96252527238995,
,,,,0,0,0,0,2,0,2,0,,,,,,,,,,,,,,,2,420.1949521478964,421.19587578380015,1,421.19587578380015,X,l,go,l,1,0.4683389369165525,,,,,,,,,,,,,,,,,,43,001,19,w,Psychologie,2023-01-18_12h00.01.356,00_bat_bachelor,2022.2.4,59.96252527238995,
,,,,0,0,0,0,3,0,3,0,,,,,,,,,,,,,,,3,422.38014042167924,423.38090842135716,1,423.38090842135716,X,None,nogo,None,1,,424.1814345786115,,,,,,,,,,,,,,,,,43,001,19,w,Psychologie,2023-01-18_12h00.01.356,00_bat_bachelor,2022.2.4,59.96252527238995,
,,,,0,0,0,0,4,0,4,0,,,,,,,,,,,,,,,4,424.7817906512646,425.7828238628572,1,425.7828238628572,Y,d,go,d,1,0.42602089676074684,,,,,,,,,,,,,,,,,,43,001,19,w,Psychologie,2023-01-18_12h00.01.356,00_bat_bachelor,2022.2.4,59.96252527238995,
,,,,0,0,0,0,5,0,5,0,,,,,,,,,,,,,,,5,426.9169227068778,427.917484646081,1,427.917484646081,X,l,go,l,1,0.5147010962245986,,,,,,,,,,,,,,,,,,43,001,19,w,Psychologie,2023-01-18_12h00.01.356,00_bat_bachelor,2022.2.4,59.96252527238995,
,,,,0,0,0,0,6,0,6,0,,,,,,,,,,,,,,,6,429.13527508592233,430.13599702494685,1,430.13599702494685,X,None,nogo,None,1,,430.9366773640504,,,,,,,,,,,,,,,,,43,001,19,w,Psychologie,2023-01-18_12h00.01.356,00_bat_bachelor,2022.2.4,59.96252527238995,
,,,,0,0,0,0,7,0,7,0,,,,,,,,,,,,,,,7,431.5371851940872,432.5376865271246,1,432.5376865271246,Y,d,go,d,1,0.3901479443302378,,,,,,,,,,,,,,,,,,43,001,19,w,Psychologie,2023-01-18_12h00.01.356,00_bat_bachelor,2022.2.4,59.96252527238995,
,,,,0,0,0,0,8,0,8,0,,,,,,,,,,,,,,,8,433.63870465999935,434.63949108379893,1,434.63949108379893,X,l,go,l,1,0.41608053783420473,,,,,,,,,,,,,,,,,,43,001,19,w,Psychologie,2023-01-18_12h00.01.356,00_bat_bachelor,2022.2.4,59.96252527238995,
,,,,0,0,0,0,9,0,9,0,,,,,,,,,,,,,,,9,435.7570798753295,436.75780569319613,1,436.75780569319613,Y,d,go,d,1,0.5541653194231912,,,,,,,,,,,,,,,,,,43,001,19,w,Psychologie,2023-01-18_12h00.01.356,00_bat_bachelor,2022.2.4,59.96252527238995,
,,,,0,0,0,0,10,0,10,0,,,,,,,,,,,,,,,10,438.02544968458824,439.0261187751312,1,439.0261187751312,Y,None,nogo,None,1,,439.82672299304977,,,,,,,,,,,,,,,,,43,001,19,w,Psychologie,2023-01-18_12h00.01.356,00_bat_bachelor,2022.2.4,59.96252527238995,
,,,,0,0,0,0,11,0,11,0,,,,,,,,,,,,,,,11,440.42713724740315,441.4279871863546,1,441.4279871863546,X,l,go,l,1,0.44384149415418506,,,,,,,,,,,,,,,,,,43,001,19,w,Psychologie,2023-01-18_12h00.01.356,00_bat_bachelor,2022.2.4,59.96252527238995,
,,,,0,0,0,0,12,0,12,0,,,,,,,,,,,,,,,12,442.57885256782174,443.57943584024906,1,443.57943584024906,Y,d,go,d,1,0.4675520281307399,,,,,,,,,,,,,,,,,,43,001,19,w,Psychologie,2023-01-18_12h00.01.356,00_bat_bachelor,2022.2.4,59.96252527238995,
,,,,0,0,0,0,13,0,13,0,,,,,,,,,,,,,,,13,444.76383429626003,445.7644238717621,1,445.7644238717621,Y,None,nogo,None,1,,446.5650518472539,,,,,,,,,,,,,,,,,43,001,19,w,Psychologie,2023-01-18_12h00.01.356,00_bat_bachelor,2022.2.4,59.96252527238995,
,,,,0,0,0,0,14,0,14,0,,,,,,,,,,,,,,,14,447.16551798034925,448.1664193131728,1,448.1664193131728,X,l,go,l,1,0.3624306245474145,,,,,,,,,,,,,,,,,,43,001,19,w,Psychologie,2023-01-18_12h00.01.356,00_bat_bachelor,2022.2.4,59.96252527238995,
,,,,1,0,1,0,0,0,0,0,,,,,,,,,,,,,,,0,465.2795237432001,465.4796981916297,0.2,465.4796981916297,X,l,go,l,1,0.5200669118203223,,449.2612570853671,j,15.990394441294484,,,,,,,,,,,,,,43,001,19,w,Psychologie,2023-01-18_12h00.01.356,00_bat_bachelor,2022.2.4,59.96252527238995,
,,,,1,0,1,0,1,0,1,0,,,,,,,,,,,,,,,1,466.71391092659906,466.9140761628514,0.2,466.9140761628514,Y,d,go,d,1,0.41313847876153886,,,,,,,,,,,,,,,,,,43,001,19,w,Psychologie,2023-01-18_12h00.01.356,00_bat_bachelor,2022.2.4,59.96252527238995,
,,,,1,0,1,0,2,0,2,0,,,,,,,,,,,,,,,2,468.03155149985105,468.2318122512661,0.2,468.2318122512661,X,l,go,l,1,0.42364271613769233,,,,,,,,,,,,,,,,,,43,001,19,w,Psychologie,2023-01-18_12h00.01.356,00_bat_bachelor,2022.2.4,59.96252527238995,
,,,,1,0,1,0,3,0,3,0,,,,,,,,,,,,,,,3,469.36596248915885,469.5659076044103,0.2,469.5659076044103,Y,d,go,d,1,0.4013809086754918,,,,,,,,,,,,,,,,,,43,001,19,w,Psychologie,2023-01-18_12h00.01.356,00_bat_bachelor,2022.2.4,59.96252527238995,
,,,,1,0,1,0,4,0,4,0,,,,,,,,,,,,,,,4,470.6835894867545,470.883806116879,0.2,470.883806116879,X,l,go,l,1,0.4435025852872059,,,,,,,,,,,,,,,,,,43,001,19,w,Psychologie,2023-01-18_12h00.01.356,00_bat_bachelor,2022.2.4,59.96252527238995,
,,,,1,0,1,0,5,0,5,0,,,,,,,,,,,,,,,5,472.0344775590347,472.2345889771823,0.2,472.2345889771823,Y,d,go,d,1,0.3733654072275385,,,,,,,,,,,,,,,,,,43,001,19,w,Psychologie,2023-01-18_12h00.01.356,00_bat_bachelor,2022.2.4,59.96252527238995,
,,,,1,0,1,0,6,0,6,0,,,,,,,,,,,,,,,6,473.31895111803897,473.51894762716256,0.2,473.51894762716256,Y,None,nogo,None,1,,474.31951693596784,,,,,,,,,,,,,,,,,43,001,19,w,Psychologie,2023-01-18_12h00.01.356,00_bat_bachelor,2022.2.4,59.96252527238995,
,,,,1,0,1,0,7,0,7,0,,,,,,,,,,,,,,,7,474.9202657355927,475.11979048734065,0.2,475.11979048734065,X,l,go,l,1,0.4003496364457533,,,,,,,,,,,,,,,,,,43,001,19,w,Psychologie,2023-01-18_12h00.01.356,00_bat_bachelor,2022.2.4,59.96252527238995,
,,,,1,0,1,0,8,0,8,0,,,,,,,,,,,,,,,8,476.2209162565414,476.4210325231543,0.2,476.4210325231543,Y,d,go,d,1,0.5067495848052204,,,,,,,,,,,,,,,,,,43,001,19,w,Psychologie,2023-01-18_12h00.01.356,00_bat_bachelor,2022.2.4,59.96252527238995,
,,,,1,0,1,0,9,0,9,0,,,,,,,,,,,,,,,9,477.63857375096995,477.83879813877866,0.2,477.83879813877866,Y,None,nogo,None,1,,,,,,,,,,,,,,,,,,,43,001,19,w,Psychologie,2023-01-18_12h00.01.356,00_bat_bachelor,2022.2.4,59.96252527238995,
,,,,1,0,1,0,10,0,10,0,,,,,,,,,,,,,,,10,479.23992570186965,479.44035469554365,0.2,479.44035469554365,X,l,go,l,1,0.399202000699006,,,,,,,,,,,,,,,,,,43,001,19,w,Psychologie,2023-01-18_12h00.01.356,00_bat_bachelor,2022.2.4,59.96252527238995,
,,,,1,0,1,0,11,0,11,0,,,,,,,,,,,,,,,11,480.5409616770921,480.7410614588298,0.2,480.7410614588298,Y,d,go,d,1,0.42601313907653093,,,,,,,,,,,,,,,,,,43,001,19,w,Psychologie,2023-01-18_12h00.01.356,00_bat_bachelor,2022.2.4,59.96252527238995,
,,,,1,0,1,0,12,0,12,0,,,,,,,,,,,,,,,12,481.87543424218893,482.07544044824317,0.2,482.07544044824317,Y,None,nogo,None,1,,482.8761586054461,,,,,,,,,,,,,,,,,43,001,19,w,Psychologie,2023-01-18_12h00.01.356,00_bat_bachelor,2022.2.4,59.96252527238995,
,,,,1,0,1,0,13,0,13,0,,,,,,,,,,,,,,,13,483.476462314371,483.67681130813435,0.2,483.67681130813435,X,l,go,l,1,0.3716931655071676,,,,,,,,,,,,,,,,,,43,001,19,w,Psychologie,2023-01-18_12h00.01.356,00_bat_bachelor,2022.2.4,59.96252527238995,
,,,,1,0,1,0,14,0,14,0,,,,,,,,,,,,,,,14,484.76103041891474,484.960581837222,0.2,484.960581837222,Y,d,go,d,1,0.5911592409247532,,,,,,,,,,,,,,,,,,43,001,19,w,Psychologie,2023-01-18_12h00.01.356,00_bat_bachelor,2022.2.4,59.96252527238995,
,,,,,,,,,,,,,,,,,,,,,,,,,,,,,,,,,,,,,,486.3083445777884,None,,486.3083445777884,486.3083445777884,space,6.959172638133168,,,,,,,,,,43,001,19,w,Psychologie,2023-01-18_12h00.01.356,00_bat_bachelor,2022.2.4,59.96252527238995,
,,,,,,,,,,,,0,0,0,0,0,0,0,0,,,,,,,0,,,1,494.3009705207078,X,l,go,l,1,0.37019207526464015,,,,,,,,,,,,,,,,,,43,001,19,w,Psychologie,2023-01-18_12h00.01.356,00_bat_bachelor,2022.2.4,59.96252527238995,
,,,,,,,,,,,,0,0,0,0,1,0,1,0,,,,,,,1,,,1,495.78583137656096,Y,d,go,d,1,0.45369651971850544,,,,,,,,,,,,,,,,,,43,001,19,w,Psychologie,2023-01-18_12h00.01.356,00_bat_bachelor,2022.2.4,59.96252527238995,
,,,,,,,,,,,,0,0,0,0,2,0,2,0,,,,,,,2,,,1,497.35353098006453,X,l,go,l,1,0.46998984506353736,,,,,,,,,,,,,,,,,,43,001,19,w,Psychologie,2023-01-18_12h00.01.356,00_bat_bachelor,2022.2.4,59.96252527238995,
,,,,,,,,,,,,0,0,0,0,3,0,3,0,,,,,,,3,,,1,498.9381765148137,Y,d,go,d,1,0.5013144359691069,,,,,,,,,,,,,,,,,,43,001,19,w,Psychologie,2023-01-18_12h00.01.356,00_bat_bachelor,2022.2.4,59.96252527238995,
,,,,,,,,,,,,0,0,0,0,4,0,4,0,,,,,,,4,,,1,500.556369669619,Y,None,nogo,None,1,,501.35701073601376,,,,,,,,,,,,,,,,,43,001,19,w,Psychologie,2023-01-18_12h00.01.356,00_bat_bachelor,2022.2.4,59.96252527238995,
,,,,,,,,,,,,0,0,0,0,5,0,5,0,,,,,,,5,,,1,502.35737970552873,X,l,go,l,1,0.39484951784834266,,,,,,,,,,,,,,,,,,43,001,19,w,Psychologie,2023-01-18_12h00.01.356,00_bat_bachelor,2022.2.4,59.96252527238995,
,,,,,,,,,,,,0,0,0,0,6,0,6,0,,,,,,,6,,,1,503.85846843221225,Y,d,go,d,1,0.42981289490126073,,,,,,,,,,,,,,,,,,43,001,19,w,Psychologie,2023-01-18_12h00.01.356,00_bat_bachelor,2022.2.4,59.96252527238995,
,,,,,,,,,,,,0,0,0,0,7,0,7,0,,,,,,,7,,,1,505.3932832032442,X,l,go,l,1,0.46410863590426743,,,,,,,,,,,,,,,,,,43,001,19,w,Psychologie,2023-01-18_12h00.01.356,00_bat_bachelor,2022.2.4,59.96252527238995,
,,,,,,,,,,,,0,0,0,0,8,0,8,0,,,,,,,8,,,1,506.96080486744177,Y,d,go,d,1,0.36721122823655605,,,,,,,,,,,,,,,,,,43,001,19,w,Psychologie,2023-01-18_12h00.01.356,00_bat_bachelor,2022.2.4,59.96252527238995,
,,,,,,,,,,,,0,0,0,0,9,0,9,0,,,,,,,9,,,1,508.42839785281103,X,l,go,l,1,0.5957599659450352,,,,,,,,,,,,,,,,,,43,001,19,w,Psychologie,2023-01-18_12h00.01.356,00_bat_bachelor,2022.2.4,59.96252527238995,
,,,,,,,,,,,,0,0,0,0,10,0,10,0,,,,,,,10,,,1,510.13007702783216,X,None,nogo,None,1,,510.9310657304013,,,,,,,,,,,,,,,,,43,001,19,w,Psychologie,2023-01-18_12h00.01.356,00_bat_bachelor,2022.2.4,59.96252527238995,
,,,,,,,,,,,,0,0,0,0,11,0,11,0,,,,,,,11,,,1,511.931508881622,Y,d,go,d,1,0.372410740936175,,,,,,,,,,,,,,,,,,43,001,19,w,Psychologie,2023-01-18_12h00.01.356,00_bat_bachelor,2022.2.4,59.96252527238995,
,,,,,,,,,,,,0,0,0,0,12,0,12,0,,,,,,,12,,,1,513.4160987073556,X,l,go,l,1,0.5357847223058343,,,,,,,,,,,,,,,,,,43,001,19,w,Psychologie,2023-01-18_12h00.01.356,00_bat_bachelor,2022.2.4,59.96252527238995,
,,,,,,,,,,,,0,0,0,0,13,0,13,0,,,,,,,13,,,1,515.0673895430518,X,None,nogo,None,1,,515.8677600640804,,,,,,,,,,,,,,,,,43,001,19,w,Psychologie,2023-01-18_12h00.01.356,00_bat_bachelor,2022.2.4,59.96252527238995,
,,,,,,,,,,,,0,0,0,0,14,0,14,0,,,,,,,14,,,1,516.8688509726198,Y,d,go,d,1,0.37945558596402407,,,,,,,,,,,,,,,,,,43,001,19,w,Psychologie,2023-01-18_12h00.01.356,00_bat_bachelor,2022.2.4,59.96252527238995,
,,,,,,,,,,,,0,0,0,0,15,0,15,0,,,,,,,15,,,1,518.3526277077617,X,l,go,l,1,0.49431565147824585,,,,,,,,,,,,,,,,,,43,001,19,w,Psychologie,2023-01-18_12h00.01.356,00_bat_bachelor,2022.2.4,59.96252527238995,
,,,,,,,,,,,,0,0,0,0,16,0,16,0,,,,,,,16,,,1,519.9541265676962,Y,d,go,d,1,0.4463544626487419,,,,,,,,,,,,,,,,,,43,001,19,w,Psychologie,2023-01-18_12h00.01.356,00_bat_bachelor,2022.2.4,59.96252527238995,
,,,,,,,,,,,,0,0,0,0,17,0,17,0,,,,,,,17,,,1,521.5052322398406,Y,None,nogo,None,1,,,,,,,,,,,,,,,,,,,43,001,19,w,Psychologie,2023-01-18_12h00.01.356,00_bat_bachelor,2022.2.4,59.96252527238995,
,,,,,,,,,,,,0,0,0,0,18,0,18,0,,,,,,,18,,,1,523.3066844573477,X,l,go,l,1,0.3581028690095991,,,,,,,,,,,,,,,,,,43,001,19,w,Psychologie,2023-01-18_12h00.01.356,00_bat_bachelor,2022.2.4,59.96252527238995,
,,,,,,,,,,,,0,0,0,0,19,0,19,0,,,,,,,19,,,1,524.7911394952098,Y,d,go,d,1,0.4093765411525965,,,,,,,,,,,,,,,,,,43,001,19,w,Psychologie,2023-01-18_12h00.01.356,00_bat_bachelor,2022.2.4,59.96252527238995,
,,,,,,,,,,,,0,0,0,0,20,0,20,0,,,,,,,20,,,1,526.3090606986079,X,l,go,l,1,0.3798817675560713,,,,,,,,,,,,,,,,,,43,001,19,w,Psychologie,2023-01-18_12h00.01.356,00_bat_bachelor,2022.2.4,59.96252527238995,
,,,,,,,,,,,,0,0,0,0,21,0,21,0,,,,,,,21,,,1,527.7931584032485,Y,d,go,d,1,0.5106244920752943,,,,,,,,,,,,,,,,,,43,001,19,w,Psychologie,2023-01-18_12h00.01.356,00_bat_bachelor,2022.2.4,59.96252527238995,
,,,,,,,,,,,,0,0,0,0,22,0,22,0,,,,,,,22,,,1,529.411127073341,Y,None,nogo,None,1,,,,,,,,,,,,,,,,,,,43,001,19,w,Psychologie,2023-01-18_12h00.01.356,00_bat_bachelor,2022.2.4,59.96252527238995,
,,,,,,,,,,,,0,0,0,0,23,0,23,0,,,,,,,23,,,1,531.2127373514231,X,l,go,l,1,0.35534262796863914,,,,,,,,,,,,,,,,,,43,001,19,w,Psychologie,2023-01-18_12h00.01.356,00_bat_bachelor,2022.2.4,59.96252527238995,
,,,,,,,,,,,,0,0,0,0,24,0,24,0,,,,,,,24,,,1,532.680499548791,Y,d,go,d,1,0.440164405037649,,,,,,,,,,,,,,,,,,43,001,19,w,Psychologie,2023-01-18_12h00.01.356,00_bat_bachelor,2022.2.4,59.96252527238995,
,,,,,,,,,,,,0,0,0,0,25,0,25,0,,,,,,,25,,,1,534.2316551604308,X,l,go,l,1,0.3924359433585778,,,,,,,,,,,,,,,,,,43,001,19,w,Psychologie,2023-01-18_12h00.01.356,00_bat_bachelor,2022.2.4,59.96252527238995,
,,,,,,,,,,,,0,0,0,0,26,0,26,0,,,,,,,26,,,1,535.732616856927,Y,d,go,d,1,0.3799278282094747,,,,,,,,,,,,,,,,,,43,001,19,w,Psychologie,2023-01-18_12h00.01.356,00_bat_bachelor,2022.2.4,59.96252527238995,
,,,,,,,,,,,,0,0,0,0,27,0,27,0,,,,,,,27,,,1,537.2169972280972,Y,None,nogo,None,1,,,,,,,,,,,,,,,,,,,43,001,19,w,Psychologie,2023-01-18_12h00.01.356,00_bat_bachelor,2022.2.4,59.96252527238995,
,,,,,,,,,,,,0,0,0,0,28,0,28,0,,,,,,,28,,,1,539.0184523547068,X,l,go,l,1,0.35771256615407765,,,,,,,,,,,,,,,,,,43,001,19,w,Psychologie,2023-01-18_12h00.01.356,00_bat_bachelor,2022.2.4,59.96252527238995,
,,,,,,,,,,,,0,0,0,0,29,0,29,0,,,,,,,29,,,1,540.4865636428585,Y,d,go,d,1,0.3940441849408671,,,,,,,,,,,,,,,,,,43,001,19,w,Psychologie,2023-01-18_12h00.01.356,00_bat_bachelor,2022.2.4,59.96252527238995,
,,,,,,,,,,,,0,0,0,0,30,0,30,0,,,,,,,30,,,1,541.9873071576003,Y,None,nogo,None,1,,,,,,,,,,,,,,,,,,,43,001,19,w,Psychologie,2023-01-18_12h00.01.356,00_bat_bachelor,2022.2.4,59.96252527238995,
,,,,,,,,,,,,0,0,0,0,31,0,31,0,,,,,,,31,,,1,543.788723496371,X,l,go,l,1,0.33934942353516817,,,,,,,,,,,,,,,,,,43,001,19,w,Psychologie,2023-01-18_12h00.01.356,00_bat_bachelor,2022.2.4,59.96252527238995,
,,,,,,,,,,,,0,0,0,0,32,0,32,0,,,,,,,32,,,1,545.2397807321977,Y,d,go,d,1,0.37715401127934456,,,,,,,,,,,,,,,,,,43,001,19,w,Psychologie,2023-01-18_12h00.01.356,00_bat_bachelor,2022.2.4,59.96252527238995,
,,,,,,,,,,,,0,0,0,0,33,0,33,0,,,,,,,33,,,1,546.7242512851954,Y,None,nogo,None,1,,,,,,,,,,,,,,,,,,,43,001,19,w,Psychologie,2023-01-18_12h00.01.356,00_bat_bachelor,2022.2.4,59.96252527238995,
,,,,,,,,,,,,0,0,0,0,34,0,34,0,,,,,,,34,,,1,548.5256918662926,X,l,go,l,1,0.4176121734781191,,,,,,,,,,,,,,,,,,43,001,19,w,Psychologie,2023-01-18_12h00.01.356,00_bat_bachelor,2022.2.4,59.96252527238995,
,,,,,,,,,,,,0,0,0,0,35,0,35,0,,,,,,,35,,,1,550.0603655464947,Y,d,go,d,1,0.37215861992444843,,,,,,,,,,,,,,,,,,43,001,19,w,Psychologie,2023-01-18_12h00.01.356,00_bat_bachelor,2022.2.4,59.96252527238995,
,,,,,,,,,,,,0,0,0,0,36,0,36,0,,,,,,,36,,,1,551.5448884631041,X,l,go,l,1,0.40788223885465413,,,,,,,,,,,,,,,,,,43,001,19,w,Psychologie,2023-01-18_12h00.01.356,00_bat_bachelor,2022.2.4,59.96252527238995,
,,,,,,,,,,,,0,0,0,0,37,0,37,0,,,,,,,37,,,1,553.0626685756724,Y,d,go,d,1,0.37830891995690763,,,,,,,,,,,,,,,,,,43,001,19,w,Psychologie,2023-01-18_12h00.01.356,00_bat_bachelor,2022.2.4,59.96252527238995,
,,,,,,,,,,,,0,0,0,0,38,0,38,0,,,,,,,38,,,1,554.5468777953647,X,l,go,l,1,0.3975394560256973,,,,,,,,,,,,,,,,,,43,001,19,w,Psychologie,2023-01-18_12h00.01.356,00_bat_bachelor,2022.2.4,59.96252527238995,
,,,,,,,,,,,,0,0,0,0,39,0,39,0,,,,,,,39,,,1,556.0483737946488,X,None,nogo,None,1,,,,,,,,,,,,,,,,,,,43,001,19,w,Psychologie,2023-01-18_12h00.01.356,00_bat_bachelor,2022.2.4,59.96252527238995,
,,,,,,,,,,,,0,0,0,0,40,0,40,0,,,,,,,40,,,1,557.8496854061959,Y,d,go,d,1,0.4062061185250059,,,,,,,,,,,,,,,,,,43,001,19,w,Psychologie,2023-01-18_12h00.01.356,00_bat_bachelor,2022.2.4,59.96252527238995,
,,,,,,,,,,,,0,0,0,0,41,0,41,0,,,,,,,41,,,1,559.3674698823597,X,l,go,l,1,0.4087573899887502,,,,,,,,,,,,,,,,,,43,001,19,w,Psychologie,2023-01-18_12h00.01.356,00_bat_bachelor,2022.2.4,59.96252527238995,
,,,,,,,,,,,,0,0,0,0,42,0,42,0,,,,,,,42,,,1,560.8850308435503,X,None,nogo,None,1,,,,,,,,,,,,,,,,,,,43,001,19,w,Psychologie,2023-01-18_12h00.01.356,00_bat_bachelor,2022.2.4,59.96252527238995,
,,,,,,,,,,,,0,0,0,0,43,0,43,0,,,,,,,43,,,1,562.6866115458542,Y,d,go,d,1,0.3214119777549058,,,,,,,,,,,,,,,,,,43,001,19,w,Psychologie,2023-01-18_12h00.01.356,00_bat_bachelor,2022.2.4,59.96252527238995,
,,,,,,,,,,,,0,0,0,0,44,0,44,0,,,,,,,44,,,1,564.1208392140688,X,l,go,l,1,0.47083639015909284,,,,,,,,,,,,,,,,,,43,001,19,w,Psychologie,2023-01-18_12h00.01.356,00_bat_bachelor,2022.2.4,59.96252527238995,
,,,,,,,,,,,,0,0,0,0,45,0,45,0,,,,,,,45,,,1,565.7060025667306,X,None,nogo,None,1,,566.506601451314,,,,,,,,,,,,,,,,,43,001,19,w,Psychologie,2023-01-18_12h00.01.356,00_bat_bachelor,2022.2.4,59.96252527238995,
,,,,,,,,,,,,0,0,0,0,46,0,46,0,,,,,,,46,,,1,567.5074193902547,Y,d,go,d,1,0.33256542682647705,,,,,,,,,,,,,,,,,,43,001,19,w,Psychologie,2023-01-18_12h00.01.356,00_bat_bachelor,2022.2.4,59.96252527238995,
,,,,,,,,,,,,0,0,0,0,47,0,47,0,,,,,,,47,,,1,568.9414361495292,X,l,go,l,1,0.40223230223637074,,,,,,,,,,,,,,,,,,43,001,19,w,Psychologie,2023-01-18_12h00.01.356,00_bat_bachelor,2022.2.4,59.96252527238995,
,,,,,,,,,,,,0,0,0,0,48,0,48,0,,,,,,,48,,,1,570.4592424440198,Y,d,go,d,1,0.3888150965794921,,,,,,,,,,,,,,,,,,43,001,19,w,Psychologie,2023-01-18_12h00.01.356,00_bat_bachelor,2022.2.4,59.96252527238995,
,,,,,,,,,,,,0,0,0,0,49,0,49,0,,,,,,,49,,,1,571.9605251100147,Y,None,nogo,None,1,,,,,,,,,,,,,,,,,,,43,001,19,w,Psychologie,2023-01-18_12h00.01.356,00_bat_bachelor,2022.2.4,59.96252527238995,
,,,,,,,,,,,,0,0,0,0,50,0,50,0,,,,,,,50,,,1,573.7618425396504,X,l,go,l,1,0.34972372162155807,,,,,,,,,,,,,,,,,,43,001,19,w,Psychologie,2023-01-18_12h00.01.356,00_bat_bachelor,2022.2.4,59.96252527238995,
,,,,,,,,,,,,0,0,0,0,51,0,51,0,,,,,,,51,,,1,575.212646199856,Y,d,go,d,1,0.46653481642715633,,,,,,,,,,,,,,,,,,43,001,19,w,Psychologie,2023-01-18_12h00.01.356,00_bat_bachelor,2022.2.4,59.96252527238995,
,,,,,,,,,,,,0,0,0,0,52,0,52,0,,,,,,,52,,,1,576.780473318533,X,l,go,l,1,0.4343714382266626,,,,,,,,,,,,,,,,,,43,001,19,w,Psychologie,2023-01-18_12h00.01.356,00_bat_bachelor,2022.2.4,59.96252527238995,
,,,,,,,,,,,,0,0,0,0,53,0,53,0,,,,,,,53,,,1,578.3321496570716,Y,d,go,d,1,0.4042754527181387,,,,,,,,,,,,,,,,,,43,001,19,w,Psychologie,2023-01-18_12h00.01.356,00_bat_bachelor,2022.2.4,59.96252527238995,
,,,,,,,,,,,,0,0,0,0,54,0,54,0,,,,,,,54,,,1,579.8496199516812,Y,None,nogo,None,1,,,,,,,,,,,,,,,,,,,43,001,19,w,Psychologie,2023-01-18_12h00.01.356,00_bat_bachelor,2022.2.4,59.96252527238995,
,,,,,,,,,,,,0,0,0,0,55,0,55,0,,,,,,,55,,,1,581.6512001691153,X,l,go,l,1,0.33279960870277137,,,,,,,,,,,,,,,,,,43,001,19,w,Psychologie,2023-01-18_12h00.01.356,00_bat_bachelor,2022.2.4,59.96252527238995,
,,,,,,,,,,,,0,0,0,0,56,0,56,0,,,,,,,56,,,1,583.0853449283168,Y,d,go,d,1,0.3378546363674104,,,,,,,,,,,,,,,,,,43,001,19,w,Psychologie,2023-01-18_12h00.01.356,00_bat_bachelor,2022.2.4,59.96252527238995,
,,,,,,,,,,,,0,0,0,0,57,0,57,0,,,,,,,57,,,1,584.5366125883302,X,l,go,l,1,0.4545813676668331,,,,,,,,,,,,,,,,,,43,001,19,w,Psychologie,2023-01-18_12h00.01.356,00_bat_bachelor,2022.2.4,59.96252527238995,
,,,,,,,,,,,,0,0,0,0,58,0,58,0,,,,,,,58,,,1,586.1043112220941,X,None,nogo,None,1,,,,,,,,,,,,,,,,,,,43,001,19,w,Psychologie,2023-01-18_12h00.01.356,00_bat_bachelor,2022.2.4,59.96252527238995,
,,,,,,,,,,,,0,0,0,0,59,0,59,0,,,,,,,59,,,1,587.9056398032699,Y,d,go,d,1,0.5413493256783113,,,,,,,,,,,,,,,,,,43,001,19,w,Psychologie,2023-01-18_12h00.01.356,00_bat_bachelor,2022.2.4,59.96252527238995,
,,,,,,,,,,,,0,0,0,0,60,0,60,0,,,,,,,60,,,1,589.556903487537,X,l,go,l,1,0.4273939869599417,,,,,,,,,,,,,,,,,,43,001,19,w,Psychologie,2023-01-18_12h00.01.356,00_bat_bachelor,2022.2.4,59.96252527238995,
,,,,,,,,,,,,0,0,0,0,61,0,61,0,,,,,,,61,,,1,591.091663955478,Y,d,go,d,1,0.41322235751431435,,,,,,,,,,,,,,,,,,43,001,19,w,Psychologie,2023-01-18_12h00.01.356,00_bat_bachelor,2022.2.4,59.96252527238995,
,,,,,,,,,,,,0,0,0,0,62,0,62,0,,,,,,,62,,,1,592.6094014014816,X,l,go,l,1,0.4789231742033735,,,,,,,,,,,,,,,,,,43,001,19,w,Psychologie,2023-01-18_12h00.01.356,00_bat_bachelor,2022.2.4,59.96252527238995,
,,,,,,,,,,,,0,0,0,0,63,0,63,0,,,,,,,63,,,1,594.1938069362659,X,None,nogo,None,1,,,,,,,,,,,,,,,,,,,43,001,19,w,Psychologie,2023-01-18_12h00.01.356,00_bat_bachelor,2022.2.4,59.96252527238995,
,,,,,,,,,,,,0,0,0,0,64,0,64,0,,,,,,,64,,,1,595.9954647294944,Y,d,go,d,1,0.4365081643918529,,,,,,,,,,,,,,,,,,43,001,19,w,Psychologie,2023-01-18_12h00.01.356,00_bat_bachelor,2022.2.4,59.96252527238995,
,,,,,,,,,,,,0,0,0,0,65,0,65,0,,,,,,,65,,,1,597.5465340380324,X,l,go,l,1,0.43721846712287515,,,,,,,,,,,,,,,,,,43,001,19,w,Psychologie,2023-01-18_12h00.01.356,00_bat_bachelor,2022.2.4,59.96252527238995,
,,,,,,,,,,,,0,0,0,0,66,0,66,0,,,,,,,66,,,1,599.0978016494773,Y,d,go,d,1,0.5015539510641247,,,,,,,,,,,,,,,,,,43,001,19,w,Psychologie,2023-01-18_12h00.01.356,00_bat_bachelor,2022.2.4,59.96252527238995,
,,,,,,,,,,,,0,0,0,0,67,0,67,0,,,,,,,67,,,1,600.7155788044911,X,l,go,l,1,0.5487292008474469,,,,,,,,,,,,,,,,,,43,001,19,w,Psychologie,2023-01-18_12h00.01.356,00_bat_bachelor,2022.2.4,59.96252527238995,
,,,,,,,,,,,,0,0,0,0,68,0,68,0,,,,,,,68,,,1,602.3668856403092,Y,d,go,d,1,0.4329794388031587,,,,,,,,,,,,,,,,,,43,001,19,w,Psychologie,2023-01-18_12h00.01.356,00_bat_bachelor,2022.2.4,59.96252527238995,
,,,,,,,,,,,,0,0,0,0,69,0,69,0,,,,,,,69,,,1,603.901455562911,X,l,go,l,1,0.43399374128784984,,,,,,,,,,,,,,,,,,43,001,19,w,Psychologie,2023-01-18_12h00.01.356,00_bat_bachelor,2022.2.4,59.96252527238995,
,,,,,,,,,,,,0,0,0,0,70,0,70,0,,,,,,,70,,,1,605.4358810007107,Y,d,go,d,1,0.5642302843043581,,,,,,,,,,,,,,,,,,43,001,19,w,Psychologie,2023-01-18_12h00.01.356,00_bat_bachelor,2022.2.4,59.96252527238995,
,,,,,,,,,,,,0,0,0,0,71,0,71,0,,,,,,,71,,,1,607.1039849192603,X,l,go,l,1,0.4972421955317259,,,,,,,,,,,,,,,,,,43,001,19,w,Psychologie,2023-01-18_12h00.01.356,00_bat_bachelor,2022.2.4,59.96252527238995,
,,,,,,,,,,,,0,0,0,0,72,0,72,0,,,,,,,72,,,1,608.7048457188066,Y,d,go,d,1,0.3343050624243915,,,,,,,,,,,,,,,,,,43,001,19,w,Psychologie,2023-01-18_12h00.01.356,00_bat_bachelor,2022.2.4,59.96252527238995,
,,,,,,,,,,,,0,0,0,0,73,0,73,0,,,,,,,73,,,1,610.1562408938771,X,l,go,l,1,0.3711118324426934,,,,,,,,,,,,,,,,,,43,001,19,w,Psychologie,2023-01-18_12h00.01.356,00_bat_bachelor,2022.2.4,59.96252527238995,
,,,,,,,,,,,,0,0,0,0,74,0,74,0,,,,,,,74,,,1,611.6403836894315,Y,d,go,d,1,0.4080301176290959,,,,,,,,,,,,,,,,,,43,001,19,w,Psychologie,2023-01-18_12h00.01.356,00_bat_bachelor,2022.2.4,59.96252527238995,
,,,,,,,,,,,,0,0,0,0,75,0,75,0,,,,,,,75,,,1,613.1584202868398,Y,None,nogo,None,1,,,,,,,,,,,,,,,,,,,43,001,19,w,Psychologie,2023-01-18_12h00.01.356,00_bat_bachelor,2022.2.4,59.96252527238995,
,,,,,,,,,,,,0,0,0,0,76,0,76,0,,,,,,,76,,,1,614.9598128679208,X,l,go,l,1,0.4159360531484708,,,,,,,,,,,,,,,,,,43,001,19,w,Psychologie,2023-01-18_12h00.01.356,00_bat_bachelor,2022.2.4,59.96252527238995,
,,,,,,,,,,,,0,0,0,0,77,0,77,0,,,,,,,77,,,1,616.4775556472596,Y,d,go,d,1,0.37029195413924754,,,,,,,,,,,,,,,,,,43,001,19,w,Psychologie,2023-01-18_12h00.01.356,00_bat_bachelor,2022.2.4,59.96252527238995,
,,,,,,,,,,,,0,0,0,0,78,0,78,0,,,,,,,78,,,1,617.9620048669167,X,l,go,l,1,0.38968830835074186,,,,,,,,,,,,,,,,,,43,001,19,w,Psychologie,2023-01-18_12h00.01.356,00_bat_bachelor,2022.2.4,59.96252527238995,
,,,,,,,,,,,,0,0,0,0,79,0,79,0,,,,,,,79,,,1,619.4631808663253,Y,d,go,d,1,0.28104205802083015,,,,,,,,,,,,,,,,,,43,001,19,w,Psychologie,2023-01-18_12h00.01.356,00_bat_bachelor,2022.2.4,59.96252527238995,
,,,,,,,,,,,,0,0,0,0,80,0,80,0,,,,,,,80,,,1,620.8474022557493,X,l,go,l,1,0.38358212949242443,,,,,,,,,,,,,,,,,,43,001,19,w,Psychologie,2023-01-18_12h00.01.356,00_bat_bachelor,2022.2.4,59.96252527238995,
,,,,,,,,,,,,0,0,0,0,81,0,81,0,,,,,,,81,,,1,622.332141414634,Y,d,go,d,1,0.35597680951468647,,,,,,,,,,,,,,,,,,43,001,19,w,Psychologie,2023-01-18_12h00.01.356,00_bat_bachelor,2022.2.4,59.96252527238995,
,,,,,,,,,,,,0,0,0,0,82,0,82,0,,,,,,,82,,,1,623.8006270057522,Y,None,nogo,None,1,,624.6011871023802,,,,,,,,,,,,,,,,,43,001,19,w,Psychologie,2023-01-18_12h00.01.356,00_bat_bachelor,2022.2.4,59.96252527238995,
,,,,,,,,,,,,0,0,0,0,83,0,83,0,,,,,,,83,,,1,625.6017805567244,X,l,go,l,1,0.3187210699543357,,,,,,,,,,,,,,,,,,43,001,19,w,Psychologie,2023-01-18_12h00.01.356,00_bat_bachelor,2022.2.4,59.96252527238995,
,,,,,,,,,,,,0,0,0,0,84,0,84,0,,,,,,,84,,,1,627.0364208307583,Y,d,go,d,1,0.371722741285339,,,,,,,,,,,,,,,,,,43,001,19,w,Psychologie,2023-01-18_12h00.01.356,00_bat_bachelor,2022.2.4,59.96252527238995,
,,,,,,,,,,,,0,0,0,0,85,0,85,0,,,,,,,85,,,1,628.5206809596857,X,l,go,l,1,0.37389874015934765,,,,,,,,,,,,,,,,,,43,001,19,w,Psychologie,2023-01-18_12h00.01.356,00_bat_bachelor,2022.2.4,59.96252527238995,
,,,,,,,,,,,,0,0,0,0,86,0,86,0,,,,,,,86,,,1,630.0220111408271,X,None,nogo,None,1,,630.8222769346321,,,,,,,,,,,,,,,,,43,001,19,w,Psychologie,2023-01-18_12h00.01.356,00_bat_bachelor,2022.2.4,59.96252527238995,
,,,,,,,,,,,,0,0,0,0,87,0,87,0,,,,,,,87,,,1,631.8231414190959,Y,d,go,d,1,0.3684514701599255,,,,,,,,,,,,,,,,,,43,001,19,w,Psychologie,2023-01-18_12h00.01.356,00_bat_bachelor,2022.2.4,59.96252527238995,
,,,,,,,,,,,,0,0,0,0,88,0,88,0,,,,,,,88,,,1,633.3073079722235,X,l,go,l,1,0.3880970363970846,,,,,,,,,,,,,,,,,,43,001,19,w,Psychologie,2023-01-18_12h00.01.356,00_bat_bachelor,2022.2.4,59.96252527238995,
,,,,,,,,,,,,0,0,0,0,89,0,89,0,,,,,,,89,,,1,634.8085004565073,Y,d,go,None,0,,,,,,,,,,,,,,,,,,,43,001,19,w,Psychologie,2023-01-18_12h00.01.356,00_bat_bachelor,2022.2.4,59.96252527238995,
,,,,,,,,,,,,0,0,0,0,90,0,90,0,,,,,,,90,,,1,636.6093805530109,X,l,go,l,1,0.4473740984685719,,,,,,,,,,,,,,,,,,43,001,19,w,Psychologie,2023-01-18_12h00.01.356,00_bat_bachelor,2022.2.4,59.96252527238995,
,,,,,,,,,,,,0,0,0,0,91,0,91,0,,,,,,,91,,,1,638.160964770359,X,None,nogo,l,0,0.43092853075359017,,,,,,,,,,,,,,,,,,43,001,19,w,Psychologie,2023-01-18_12h00.01.356,00_bat_bachelor,2022.2.4,59.96252527238995,
,,,,,,,,,,,,0,0,0,0,92,0,92,0,,,,,,,92,,,1,639.6954580870224,Y,d,go,d,1,0.5295966040575877,,,,,,,,,,,,,,,,,,43,001,19,w,Psychologie,2023-01-18_12h00.01.356,00_bat_bachelor,2022.2.4,59.96252527238995,
,,,,,,,,,,,,0,0,0,0,93,0,93,0,,,,,,,93,,,1,641.329830143135,X,l,go,l,1,0.4784043865511194,,,,,,,,,,,,,,,,,,43,001,19,w,Psychologie,2023-01-18_12h00.01.356,00_bat_bachelor,2022.2.4,59.96252527238995,
,,,,,,,,,,,,0,0,0,0,94,0,94,0,,,,,,,94,,,1,642.9143859809265,X,None,nogo,None,1,,643.7151797744446,,,,,,,,,,,,,,,,,43,001,19,w,Psychologie,2023-01-18_12h00.01.356,00_bat_bachelor,2022.2.4,59.96252527238995,
,,,,,,,,,,,,0,0,0,0,95,0,95,0,,,,,,,95,,,1,644.7158406225499,Y,d,go,d,1,0.5490283522522077,,,,,,,,,,,,,,,,,,43,001,19,w,Psychologie,2023-01-18_12h00.01.356,00_bat_bachelor,2022.2.4,59.96252527238995,
,,,,,,,,,,,,0,0,0,0,96,0,96,0,,,,,,,96,,,1,646.3671256401576,X,l,go,l,1,0.40030939411371946,,,,,,,,,,,,,,,,,,43,001,19,w,Psychologie,2023-01-18_12h00.01.356,00_bat_bachelor,2022.2.4,59.96252527238995,
,,,,,,,,,,,,0,0,0,0,97,0,97,0,,,,,,,97,,,1,647.8679612760898,X,None,nogo,None,1,,,,,,,,,,,,,,,,,,,43,001,19,w,Psychologie,2023-01-18_12h00.01.356,00_bat_bachelor,2022.2.4,59.96252527238995,
,,,,,,,,,,,,0,0,0,0,98,0,98,0,,,,,,,98,,,1,649.6696481601102,Y,d,go,d,1,0.42720295675098896,,,,,,,,,,,,,,,,,,43,001,19,w,Psychologie,2023-01-18_12h00.01.356,00_bat_bachelor,2022.2.4,59.96252527238995,
,,,,,,,,,,,,0,0,0,0,99,0,99,0,,,,,,,99,,,1,651.2040503253229,X,l,go,l,1,0.39609218400437385,,,,,,,,,,,,,,,,,,43,001,19,w,Psychologie,2023-01-18_12h00.01.356,00_bat_bachelor,2022.2.4,59.96252527238995,
,,,,,,,,,,,,0,0,0,0,100,0,100,0,,,,,,,100,,,1,652.7049829309108,X,None,nogo,None,1,,653.5059522395022,,,,,,,,,,,,,,,,,43,001,19,w,Psychologie,2023-01-18_12h00.01.356,00_bat_bachelor,2022.2.4,59.96252527238995,
,,,,,,,,,,,,0,0,0,0,101,0,101,0,,,,,,,101,,,1,654.506366299931,Y,d,go,d,1,0.3734871040796861,,,,,,,,,,,,,,,,,,43,001,19,w,Psychologie,2023-01-18_12h00.01.356,00_bat_bachelor,2022.2.4,59.96252527238995,
,,,,,,,,,,,,0,0,0,0,102,0,102,0,,,,,,,102,,,1,655.9909575801576,X,l,go,l,1,0.5208164871437475,,,,,,,,,,,,,,,,,,43,001,19,w,Psychologie,2023-01-18_12h00.01.356,00_bat_bachelor,2022.2.4,59.96252527238995,
,,,,,,,,,,,,0,0,0,0,103,0,103,0,,,,,,,103,,,1,657.6254566664575,Y,d,go,d,1,0.4378191940486431,,,,,,,,,,,,,,,,,,43,001,19,w,Psychologie,2023-01-18_12h00.01.356,00_bat_bachelor,2022.2.4,59.96252527238995,
,,,,,,,,,,,,0,0,0,0,104,0,104,0,,,,,,,104,,,1,659.176764035481,Y,None,nogo,None,1,,,,,,,,,,,,,,,,,,,43,001,19,w,Psychologie,2023-01-18_12h00.01.356,00_bat_bachelor,2022.2.4,59.96252527238995,
,,,,,,,,,,,,0,0,0,0,105,0,105,0,,,,,,,105,,,1,660.9779520106968,X,l,go,l,1,0.5108349162619561,,,,,,,,,,,,,,,,,,43,001,19,w,Psychologie,2023-01-18_12h00.01.356,00_bat_bachelor,2022.2.4,59.96252527238995,
,,,,,,,,,,,,0,0,0,0,106,0,106,0,,,,,,,106,,,1,662.5958600747399,Y,d,go,d,1,0.5089139473857358,,,,,,,,,,,,,,,,,,43,001,19,w,Psychologie,2023-01-18_12h00.01.356,00_bat_bachelor,2022.2.4,59.96252527238995,
,,,,,,,,,,,,0,0,0,0,107,0,107,0,,,,,,,107,,,1,664.214081350714,X,l,go,l,1,0.5060048579471186,,,,,,,,,,,,,,,,,,43,001,19,w,Psychologie,2023-01-18_12h00.01.356,00_bat_bachelor,2022.2.4,59.96252527238995,
,,,,,,,,,,,,0,0,0,0,108,0,108,0,,,,,,,108,,,1,665.8316626270534,Y,d,go,d,1,0.48771298804786056,,,,,,,,,,,,,,,,,,43,001,19,w,Psychologie,2023-01-18_12h00.01.356,00_bat_bachelor,2022.2.4,59.96252527238995,
,,,,,,,,,,,,0,0,0,0,109,0,109,0,,,,,,,109,,,1,667.4329243961256,X,l,go,l,1,0.43882040574681014,,,,,,,,,,,,,,,,,,43,001,19,w,Psychologie,2023-01-18_12h00.01.356,00_bat_bachelor,2022.2.4,59.96252527238995,
,,,,,,,,,,,,0,0,0,0,110,0,110,0,,,,,,,110,,,1,668.984465946909,Y,d,go,d,1,0.34424784546718,,,,,,,,,,,,,,,,,,43,001,19,w,Psychologie,2023-01-18_12h00.01.356,00_bat_bachelor,2022.2.4,59.96252527238995,
,,,,,,,,,,,,0,0,0,0,111,0,111,0,,,,,,,111,,,1,670.4355561523698,X,l,go,l,1,0.41304441809188575,,,,,,,,,,,,,,,,,,43,001,19,w,Psychologie,2023-01-18_12h00.01.356,00_bat_bachelor,2022.2.4,59.96252527238995,
,,,,,,,,,,,,0,0,0,0,112,0,112,0,,,,,,,112,,,1,671.9529988106806,X,None,nogo,None,1,,,,,,,,,,,,,,,,,,,43,001,19,w,Psychologie,2023-01-18_12h00.01.356,00_bat_bachelor,2022.2.4,59.96252527238995,
,,,,,,,,,,,,0,0,0,0,113,0,113,0,,,,,,,113,,,1,673.7547366037033,Y,d,go,d,1,0.5813565789721906,,,,,,,,,,,,,,,,,,43,001,19,w,Psychologie,2023-01-18_12h00.01.356,00_bat_bachelor,2022.2.4,59.96252527238995,
,,,,,,,,,,,,0,0,0,0,114,0,114,0,,,,,,,114,,,1,675.4390136052389,X,l,go,l,1,0.4975258318008855,,,,,,,,,,,,,,,,,,43,001,19,w,Psychologie,2023-01-18_12h00.01.356,00_bat_bachelor,2022.2.4,59.96252527238995,
,,,,,,,,,,,,0,0,0,0,115,0,115,0,,,,,,,115,,,1,677.0404843440047,Y,d,go,d,1,0.43196368170902133,,,,,,,,,,,,,,,,,,43,001,19,w,Psychologie,2023-01-18_12h00.01.356,00_bat_bachelor,2022.2.4,59.96252527238995,
,,,,,,,,,,,,0,0,0,0,116,0,116,0,,,,,,,116,,,1,678.5746891759336,X,l,go,l,1,0.4008441816549748,,,,,,,,,,,,,,,,,,43,001,19,w,Psychologie,2023-01-18_12h00.01.356,00_bat_bachelor,2022.2.4,59.96252527238995,
,,,,,,,,,,,,0,0,0,0,117,0,117,0,,,,,,,117,,,1,680.0928615307203,Y,d,go,d,1,0.4190172638045624,,,,,,,,,,,,,,,,,,43,001,19,w,Psychologie,2023-01-18_12h00.01.356,00_bat_bachelor,2022.2.4,59.96252527238995,
,,,,,,,,,,,,0,0,0,0,118,0,118,0,,,,,,,118,,,1,681.6271638170583,Y,None,nogo,None,1,,,,,,,,,,,,,,,,,,,43,001,19,w,Psychologie,2023-01-18_12h00.01.356,00_bat_bachelor,2022.2.4,59.96252527238995,
,,,,,,,,,,,,0,0,0,0,119,0,119,0,,,,,,,119,,,1,683.4286868224153,Y,None,nogo,None,1,,,,,,,,,,,,,,,,,,,43,001,19,w,Psychologie,2023-01-18_12h00.01.356,00_bat_bachelor,2022.2.4,59.96252527238995,
,,,,,,,,,,,,0,0,0,0,120,0,120,0,,,,,,,120,,,1,685.2300192824332,X,l,go,l,1,0.5142458237241954,,,,,,,,,,,,,,,,,,43,001,19,w,Psychologie,2023-01-18_12h00.01.356,00_bat_bachelor,2022.2.4,59.96252527238995,
,,,,,,,,,,,,0,0,0,0,121,0,121,0,,,,,,,121,,,1,686.8479608009802,Y,d,go,d,1,0.4477886437671259,,,,,,,,,,,,,,,,,,43,001,19,w,Psychologie,2023-01-18_12h00.01.356,00_bat_bachelor,2022.2.4,59.96252527238995,
,,,,,,,,,,,,0,0,0,0,122,0,122,0,,,,,,,122,,,1,688.399139685207,Y,None,nogo,None,1,,,,,,,,,,,,,,,,,,,43,001,19,w,Psychologie,2023-01-18_12h00.01.356,00_bat_bachelor,2022.2.4,59.96252527238995,
,,,,,,,,,,,,0,0,0,0,123,0,123,0,,,,,,,123,,,1,690.2005502057727,X,l,go,l,1,0.37613437545951456,,,,,,,,,,,,,,,,,,43,001,19,w,Psychologie,2023-01-18_12h00.01.356,00_bat_bachelor,2022.2.4,59.96252527238995,
,,,,,,,,,,,,0,0,0,0,124,0,124,0,,,,,,,124,,,1,691.6846866982523,Y,d,go,d,1,0.5715262807207182,,,,,,,,,,,,,,,,,,43,001,19,w,Psychologie,2023-01-18_12h00.01.356,00_bat_bachelor,2022.2.4,59.96252527238995,
,,,,,,,,,,,,0,0,0,0,125,0,125,0,,,,,,,125,,,1,693.3703440628015,X,l,go,l,1,0.5172746706521139,,,,,,,,,,,,,,,,,,43,001,19,w,Psychologie,2023-01-18_12h00.01.356,00_bat_bachelor,2022.2.4,59.96252527238995,
,,,,,,,,,,,,0,0,0,0,126,0,126,0,,,,,,,126,,,1,694.9882729753153,X,None,nogo,None,1,,695.7888665265637,,,,,,,,,,,,,,,,,43,001,19,w,Psychologie,2023-01-18_12h00.01.356,00_bat_bachelor,2022.2.4,59.96252527238995,
,,,,,,,,,,,,0,0,0,0,127,0,127,0,,,,,,,127,,,1,696.7893741626758,Y,d,go,d,1,0.3785717076389119,,,,,,,,,,,,,,,,,,43,001,19,w,Psychologie,2023-01-18_12h00.01.356,00_bat_bachelor,2022.2.4,59.96252527238995,
,,,,,,,,,,,,0,0,0,0,128,0,128,0,,,,,,,128,,,1,698.2905162227107,X,l,go,l,1,0.412293873145245,,,,,,,,,,,,,,,,,,43,001,19,w,Psychologie,2023-01-18_12h00.01.356,00_bat_bachelor,2022.2.4,59.96252527238995,
,,,,,,,,,,,,0,0,0,0,129,0,129,0,,,,,,,129,,,1,699.8250536605483,Y,d,go,d,1,0.4303195613902062,,,,,,,,,,,,,,,,,,43,001,19,w,Psychologie,2023-01-18_12h00.01.356,00_bat_bachelor,2022.2.4,59.96252527238995,
,,,,,,,,,,,,0,0,0,0,130,0,130,0,,,,,,,130,,,1,701.3927013853099,Y,None,nogo,None,1,,702.1931116639171,,,,,,,,,,,,,,,,,43,001,19,w,Psychologie,2023-01-18_12h00.01.356,00_bat_bachelor,2022.2.4,59.96252527238995,
,,,,,,,,,,,,0,0,0,0,131,0,131,0,,,,,,,131,,,1,703.1939456028631,X,l,go,l,1,0.4850502014160156,,,,,,,,,,,,,,,,,,43,001,19,w,Psychologie,2023-01-18_12h00.01.356,00_bat_bachelor,2022.2.4,59.96252527238995,
,,,,,,,,,,,,0,0,0,0,132,0,132,0,,,,,,,132,,,1,704.7951278568944,Y,d,go,d,1,0.4198691421188414,,,,,,,,,,,,,,,,,,43,001,19,w,Psychologie,2023-01-18_12h00.01.356,00_bat_bachelor,2022.2.4,59.96252527238995,
,,,,,,,,,,,,0,0,0,0,133,0,133,0,,,,,,,133,,,1,706.3296134158736,X,l,go,l,1,0.48592826165258884,,,,,,,,,,,,,,,,,,43,001,19,w,Psychologie,2023-01-18_12h00.01.356,00_bat_bachelor,2022.2.4,59.96252527238995,
,,,,,,,,,,,,0,0,0,0,134,0,134,0,,,,,,,134,,,1,707.9309585789451,Y,d,go,d,1,0.45263033837545663,,,,,,,,,,,,,,,,,,43,001,19,w,Psychologie,2023-01-18_12h00.01.356,00_bat_bachelor,2022.2.4,59.96252527238995,
,,,,,,,,,,,,0,0,0,0,135,0,135,0,,,,,,,135,,,1,709.4984467886388,X,l,go,l,1,0.3245329459896311,,,,,,,,,,,,,,,,,,43,001,19,w,Psychologie,2023-01-18_12h00.01.356,00_bat_bachelor,2022.2.4,59.96252527238995,
,,,,,,,,,,,,0,0,0,0,136,0,136,0,,,,,,,136,,,1,710.9327573658666,Y,d,go,d,1,0.4921886222437024,,,,,,,,,,,,,,,,,,43,001,19,w,Psychologie,2023-01-18_12h00.01.356,00_bat_bachelor,2022.2.4,59.96252527238995,
,,,,,,,,,,,,0,0,0,0,137,0,137,0,,,,,,,137,,,1,712.5341893166769,Y,None,nogo,None,1,,,,,,,,,,,,,,,,,,,43,001,19,w,Psychologie,2023-01-18_12h00.01.356,00_bat_bachelor,2022.2.4,59.96252527238995,
,,,,,,,,,,,,0,0,0,0,138,0,138,0,,,,,,,138,,,1,714.3352778980043,X,l,go,l,1,0.351878872141242,,,,,,,,,,,,,,,,,,43,001,19,w,Psychologie,2023-01-18_12h00.01.356,00_bat_bachelor,2022.2.4,59.96252527238995,
,,,,,,,,,,,,0,0,0,0,139,0,139,0,,,,,,,139,,,1,715.8033484589541,Y,d,go,d,1,0.38858479366172105,,,,,,,,,,,,,,,,,,43,001,19,w,Psychologie,2023-01-18_12h00.01.356,00_bat_bachelor,2022.2.4,59.96252527238995,
,,,,,,,,,,,,0,0,0,0,140,0,140,0,,,,,,,140,,,1,717.3044163371669,Y,None,nogo,d,0,0.42353168583940715,,,,,,,,,,,,,,,,,,43,001,19,w,Psychologie,2023-01-18_12h00.01.356,00_bat_bachelor,2022.2.4,59.96252527238995,
,,,,,,,,,,,,0,0,0,0,141,0,141,0,,,,,,,141,,,1,718.8389911083505,X,l,go,l,1,0.3617431097663939,,,,,,,,,,,,,,,,,,43,001,19,w,Psychologie,2023-01-18_12h00.01.356,00_bat_bachelor,2022.2.4,59.96252527238995,
,,,,,,,,,,,,0,0,0,0,142,0,142,0,,,,,,,142,,,1,720.3068308815127,Y,d,go,d,1,0.4609629404731095,,,,,,,,,,,,,,,,,,43,001,19,w,Psychologie,2023-01-18_12h00.01.356,00_bat_bachelor,2022.2.4,59.96252527238995,
,,,,,,,,,,,,0,0,0,0,143,0,143,0,,,,,,,143,,,1,721.874621636467,Y,None,nogo,None,1,,,,,,,,,,,,,,,,,,,43,001,19,w,Psychologie,2023-01-18_12h00.01.356,00_bat_bachelor,2022.2.4,59.96252527238995,
,,,,,,,,,,,,0,0,0,0,144,0,144,0,,,,,,,144,,,1,723.6758808844024,X,l,go,l,1,0.4522603991208598,,,,,,,,,,,,,,,,,,43,001,19,w,Psychologie,2023-01-18_12h00.01.356,00_bat_bachelor,2022.2.4,59.96252527238995,
,,,,,,,,,,,,0,0,0,0,145,0,145,0,,,,,,,145,,,1,725.2439484877978,Y,d,go,d,1,0.3881280665518716,,,,,,,,,,,,,,,,,,43,001,19,w,Psychologie,2023-01-18_12h00.01.356,00_bat_bachelor,2022.2.4,59.96252527238995,
,,,,,,,,,,,,0,0,0,0,146,0,146,0,,,,,,,146,,,1,726.7448447297793,X,l,go,l,1,0.32708470232319087,,,,,,,,,,,,,,,,,,43,001,19,w,Psychologie,2023-01-18_12h00.01.356,00_bat_bachelor,2022.2.4,59.96252527238995,
,,,,,,,,,,,,0,0,0,0,147,0,147,0,,,,,,,147,,,1,728.1794510644395,Y,d,go,d,1,0.5083311598282307,,,,,,,,,,,,,,,,,,43,001,19,w,Psychologie,2023-01-18_12h00.01.356,00_bat_bachelor,2022.2.4,59.96252527238995,
,,,,,,,,,,,,0,0,0,0,148,0,148,0,,,,,,,148,,,1,729.7973984011915,Y,None,nogo,None,1,,,,,,,,,,,,,,,,,,,43,001,19,w,Psychologie,2023-01-18_12h00.01.356,00_bat_bachelor,2022.2.4,59.96252527238995,
,,,,,,,,,,,,0,0,0,0,149,0,149,0,,,,,,,149,,,1,731.5987158309435,X,l,go,l,1,0.3525954778306186,,,,,,,,,,,,,,,,,,43,001,19,w,Psychologie,2023-01-18_12h00.01.356,00_bat_bachelor,2022.2.4,59.96252527238995,
,,,,,,,,,,,,0,0,0,0,150,0,150,0,,,,,,,150,,,1,733.0665391192306,Y,d,go,d,1,0.35743523307610303,,,,,,,,,,,,,,,,,,43,001,19,w,Psychologie,2023-01-18_12h00.01.356,00_bat_bachelor,2022.2.4,59.96252527238995,
,,,,,,,,,,,,0,0,0,0,151,0,151,0,,,,,,,151,,,1,734.534207740915,X,l,go,l,1,0.47406499460339546,,,,,,,,,,,,,,,,,,43,001,19,w,Psychologie,2023-01-18_12h00.01.356,00_bat_bachelor,2022.2.4,59.96252527238995,
,,,,,,,,,,,,0,0,0,0,152,0,152,0,,,,,,,152,,,1,736.1188702454092,Y,d,go,d,1,0.5369774489663541,,,,,,,,,,,,,,,,,,43,001,19,w,Psychologie,2023-01-18_12h00.01.356,00_bat_bachelor,2022.2.4,59.96252527238995,
,,,,,,,,,,,,0,0,0,0,153,0,153,0,,,,,,,153,,,1,737.770080596325,Y,None,nogo,None,1,,738.5707720868522,,,,,,,,,,,,,,,,,43,001,19,w,Psychologie,2023-01-18_12h00.01.356,00_bat_bachelor,2022.2.4,59.96252527238995,
,,,,,,,,,,,,0,0,0,0,154,0,154,0,,,,,,,154,,,1,739.5714528138051,X,l,go,l,1,0.5397924779681489,,,,,,,,,,,,,,,,,,43,001,19,w,Psychologie,2023-01-18_12h00.01.356,00_bat_bachelor,2022.2.4,59.96252527238995,
,,,,,,,,,,,,0,0,0,0,155,0,155,0,,,,,,,155,,,1,741.2225773466052,Y,d,go,d,1,0.5373735700268298,,,,,,,,,,,,,,,,,,43,001,19,w,Psychologie,2023-01-18_12h00.01.356,00_bat_bachelor,2022.2.4,59.96252527238995,
,,,,,,,,,,,,0,0,0,0,156,0,156,0,,,,,,,156,,,1,742.874047576217,X,l,go,l,1,0.4698986936127767,,,,,,,,,,,,,,,,,,43,001,19,w,Psychologie,2023-01-18_12h00.01.356,00_bat_bachelor,2022.2.4,59.96252527238995,
,,,,,,,,,,,,0,0,0,0,157,0,157,0,,,,,,,157,,,1,744.4584584443364,Y,d,go,d,1,0.5015510419616476,,,,,,,,,,,,,,,,,,43,001,19,w,Psychologie,2023-01-18_12h00.01.356,00_bat_bachelor,2022.2.4,59.96252527238995,
,,,,,,,,,,,,0,0,0,0,158,0,158,0,,,,,,,158,,,1,746.076397053781,Y,None,nogo,None,1,,,,,,,,,,,,,,,,,,,43,001,19,w,Psychologie,2023-01-18_12h00.01.356,00_bat_bachelor,2022.2.4,59.96252527238995,
,,,,,,,,,,,,0,0,0,0,159,0,159,0,,,,,,,159,,,1,747.8778899986064,X,l,go,l,1,0.5069672816898674,,,,,,,,,,,,,,,,,,43,001,19,w,Psychologie,2023-01-18_12h00.01.356,00_bat_bachelor,2022.2.4,59.96252527238995,
,,,,,,,,,,,,0,0,0,0,160,0,160,0,,,,,,,160,,,1,749.4956186687341,Y,d,go,d,1,0.4727180862100795,,,,,,,,,,,,,,,,,,43,001,19,w,Psychologie,2023-01-18_12h00.01.356,00_bat_bachelor,2022.2.4,59.96252527238995,
,,,,,,,,,,,,0,0,0,0,161,0,161,0,,,,,,,161,,,1,751.0800402036402,X,l,go,l,1,0.4875748062040657,,,,,,,,,,,,,,,,,,43,001,19,w,Psychologie,2023-01-18_12h00.01.356,00_bat_bachelor,2022.2.4,59.96252527238995,
,,,,,,,,,,,,0,0,0,0,162,0,162,0,,,,,,,162,,,1,752.6814847604837,X,None,nogo,None,1,,,,,,,,,,,,,,,,,,,43,001,19,w,Psychologie,2023-01-18_12h00.01.356,00_bat_bachelor,2022.2.4,59.96252527238995,
,,,,,,,,,,,,0,0,0,0,163,0,163,0,,,,,,,163,,,1,754.48282352346,Y,d,go,d,1,0.4462637959513813,,,,,,,,,,,,,,,,,,43,001,19,w,Psychologie,2023-01-18_12h00.01.356,00_bat_bachelor,2022.2.4,59.96252527238995,
,,,,,,,,,,,,0,0,0,0,164,0,164,0,,,,,,,164,,,1,756.0338816804579,X,l,go,l,1,0.47830596228595823,,,,,,,,,,,,,,,,,,43,001,19,w,Psychologie,2023-01-18_12h00.01.356,00_bat_bachelor,2022.2.4,59.96252527238995,
,,,,,,,,,,,,0,0,0,0,165,0,165,0,,,,,,,165,,,1,757.6182392153423,Y,d,go,d,1,0.46172415220644325,,,,,,,,,,,,,,,,,,43,001,19,w,Psychologie,2023-01-18_12h00.01.356,00_bat_bachelor,2022.2.4,59.96252527238995,
,,,,,,,,,,,,0,0,0,0,166,0,166,0,,,,,,,166,,,1,759.1861342127668,Y,None,nogo,None,1,,,,,,,,,,,,,,,,,,,43,001,19,w,Psychologie,2023-01-18_12h00.01.356,00_bat_bachelor,2022.2.4,59.96252527238995,
,,,,,,,,,,,,0,0,0,0,167,0,167,0,,,,,,,167,,,1,760.9877944301115,X,l,go,l,1,0.30834143864922225,,,,,,,,,,,,,,,,,,43,001,19,w,Psychologie,2023-01-18_12h00.01.356,00_bat_bachelor,2022.2.4,59.96252527238995,
,,,,,,,,,,,,0,0,0,0,168,0,168,0,,,,,,,168,,,1,762.4054402882466,Y,d,go,d,1,0.39508563897106797,,,,,,,,,,,,,,,,,,43,001,19,w,Psychologie,2023-01-18_12h00.01.356,00_bat_bachelor,2022.2.4,59.96252527238995,
,,,,,,,,,,,,0,0,0,0,169,0,169,0,,,,,,,169,,,1,763.9063583484385,X,l,go,l,1,0.5085604931227863,,,,,,,,,,,,,,,,,,43,001,19,w,Psychologie,2023-01-18_12h00.01.356,00_bat_bachelor,2022.2.4,59.96252527238995,
,,,,,,,,,,,,0,0,0,0,170,0,170,0,,,,,,,170,,,1,765.5246024122462,Y,d,go,d,1,0.4746511761331931,,,,,,,,,,,,,,,,,,43,001,19,w,Psychologie,2023-01-18_12h00.01.356,00_bat_bachelor,2022.2.4,59.96252527238995,
,,,,,,,,,,,,0,0,0,0,171,0,171,0,,,,,,,171,,,1,767.1090544925537,Y,None,nogo,None,1,,767.9094128924189,,,,,,,,,,,,,,,,,43,001,19,w,Psychologie,2023-01-18_12h00.01.356,00_bat_bachelor,2022.2.4,59.96252527238995,
,,,,,,,,,,,,0,0,0,0,172,0,172,0,,,,,,,172,,,1,768.9102143464843,X,l,go,None,0,,,,,,,,,,,,,,,,,,,43,001,19,w,Psychologie,2023-01-18_12h00.01.356,00_bat_bachelor,2022.2.4,59.96252527238995,
,,,,,,,,,,,,0,0,0,0,173,0,173,0,,,,,,,173,,,1,770.7116316548781,Y,d,go,d,1,0.43989967787638307,,,,,,,,,,,,,,,,,,43,001,19,w,Psychologie,2023-01-18_12h00.01.356,00_bat_bachelor,2022.2.4,59.96252527238995,
,,,,,,,,,,,,0,0,0,0,174,0,174,0,,,,,,,174,,,1,772.2630432663718,Y,None,nogo,None,1,,,,,,,,,,,,,,,,,,,43,001,19,w,Psychologie,2023-01-18_12h00.01.356,00_bat_bachelor,2022.2.4,59.96252527238995,
,,,,,,,,,,,,0,0,0,0,175,0,175,0,,,,,,,175,,,1,774.0645463928813,X,l,go,l,1,0.5281115139368922,,,,,,,,,,,,,,,,,,43,001,19,w,Psychologie,2023-01-18_12h00.01.356,00_bat_bachelor,2022.2.4,59.96252527238995,
,,,,,,,,,,,,0,0,0,0,176,0,176,0,,,,,,,176,,,1,775.6990711762337,Y,d,go,None,0,,,,,,,,,,,,,,,,,,,43,001,19,w,Psychologie,2023-01-18_12h00.01.356,00_bat_bachelor,2022.2.4,59.96252527238995,
,,,,,,,,,,,,0,0,0,0,177,0,177,0,,,,,,,177,,,1,777.5009151510894,X,l,go,l,1,0.3700718330219388,,,,,,,,,,,,,,,,,,43,001,19,w,Psychologie,2023-01-18_12h00.01.356,00_bat_bachelor,2022.2.4,59.96252527238995,
,,,,,,,,,,,,0,0,0,0,178,0,178,0,,,,,,,178,,,1,779.0017023021355,X,None,nogo,None,1,,779.802547974512,,,,,,,,,,,,,,,,,43,001,19,w,Psychologie,2023-01-18_12h00.01.356,00_bat_bachelor,2022.2.4,59.96252527238995,
,,,,,,,,,,,,0,0,0,0,179,0,179,0,,,,,,,179,,,1,780.8032340348,Y,d,go,d,1,0.34856202523224056,,,,,,,,,,,,,,,,,,43,001,19,w,Psychologie,2023-01-18_12h00.01.356,00_bat_bachelor,2022.2.4,59.96252527238995,
,,,,,,,,,,,,0,0,0,0,180,0,180,0,,,,,,,180,,,1,782.253971755621,X,l,go,l,1,0.41628078022040427,,,,,,,,,,,,,,,,,,43,001,19,w,Psychologie,2023-01-18_12h00.01.356,00_bat_bachelor,2022.2.4,59.96252527238995,
,,,,,,,,,,,,0,0,0,0,181,0,181,0,,,,,,,181,,,1,783.7886958599556,Y,d,go,d,1,0.3721004379913211,,,,,,,,,,,,,,,,,,43,001,19,w,Psychologie,2023-01-18_12h00.01.356,00_bat_bachelor,2022.2.4,59.96252527238995,
,,,,,,,,,,,,0,0,0,0,182,0,182,0,,,,,,,182,,,1,785.2729327161796,Y,None,nogo,None,1,,,,,,,,,,,,,,,,,,,43,001,19,w,Psychologie,2023-01-18_12h00.01.356,00_bat_bachelor,2022.2.4,59.96252527238995,
,,,,,,,,,,,,0,0,0,0,183,0,183,0,,,,,,,183,,,1,787.0743500245735,X,l,go,l,1,0.3982502435101196,,,,,,,,,,,,,,,,,,43,001,19,w,Psychologie,2023-01-18_12h00.01.356,00_bat_bachelor,2022.2.4,59.96252527238995,
,,,,,,,,,,,,0,0,0,0,184,0,184,0,,,,,,,184,,,1,788.5756103876047,Y,d,go,None,0,,789.3763513326412,,,,,,,,,,,,,,,,,43,001,19,w,Psychologie,2023-01-18_12h00.01.356,00_bat_bachelor,2022.2.4,59.96252527238995,
,,,,,,,,,,,,0,0,0,0,185,0,185,0,,,,,,,185,,,1,790.3768342415569,X,l,go,l,1,0.359235959360376,,,,,,,,,,,,,,,,,,43,001,19,w,Psychologie,2023-01-18_12h00.01.356,00_bat_bachelor,2022.2.4,59.96252527238995,
,,,,,,,,,,,,0,0,0,0,186,0,186,0,,,,,,,186,,,1,791.8447806813056,Y,d,go,d,1,0.3799287978326902,,,,,,,,,,,,,,,,,,43,001,19,w,Psychologie,2023-01-18_12h00.01.356,00_bat_bachelor,2022.2.4,59.96252527238995,
,,,,,,,,,,,,0,0,0,0,187,0,187,0,,,,,,,187,,,1,793.3292798403418,X,l,go,l,1,0.38209267565980554,,,,,,,,,,,,,,,,,,43,001,19,w,Psychologie,2023-01-18_12h00.01.356,00_bat_bachelor,2022.2.4,59.96252527238995,
,,,,,,,,,,,,0,0,0,0,188,0,188,0,,,,,,,188,,,1,794.8136902721599,Y,d,go,d,1,0.3703166813356802,,,,,,,,,,,,,,,,,,43,001,19,w,Psychologie,2023-01-18_12h00.01.356,00_bat_bachelor,2022.2.4,59.96252527238995,
,,,,,,,,,,,,0,0,0,0,189,0,189,0,,,,,,,189,,,1,796.2981448251521,X,l,go,l,1,0.3735273464117199,,,,,,,,,,,,,,,,,,43,001,19,w,Psychologie,2023-01-18_12h00.01.356,00_bat_bachelor,2022.2.4,59.96252527238995,
,,,,,,,,,,,,0,0,0,0,190,0,190,0,,,,,,,190,,,1,797.7826929538278,Y,d,go,d,1,0.34533681464381516,,,,,,,,,,,,,,,,,,43,001,19,w,Psychologie,2023-01-18_12h00.01.356,00_bat_bachelor,2022.2.4,59.96252527238995,
,,,,,,,,,,,,0,0,0,0,191,0,191,0,,,,,,,191,,,1,799.2335387958447,Y,None,nogo,None,1,,,,,,,,,,,,,,,,,,,43,001,19,w,Psychologie,2023-01-18_12h00.01.356,00_bat_bachelor,2022.2.4,59.96252527238995,
,,,,,,,,,,,,0,0,0,0,192,0,192,0,,,,,,,192,,,1,801.0351553768851,X,l,go,l,1,0.3731874678051099,,,,,,,,,,,,,,,,,,43,001,19,w,Psychologie,2023-01-18_12h00.01.356,00_bat_bachelor,2022.2.4,59.96252527238995,
,,,,,,,,,,,,0,0,0,0,193,0,193,0,,,,,,,193,,,1,802.5196070207749,Y,d,go,d,1,0.3606439586728811,,,,,,,,,,,,,,,,,,43,001,19,w,Psychologie,2023-01-18_12h00.01.356,00_bat_bachelor,2022.2.4,59.96252527238995,
,,,,,,,,,,,,0,0,0,0,194,0,194,0,,,,,,,194,,,1,803.9874366121367,X,l,go,l,1,0.2840359959518537,,,,,,,,,,,,,,,,,,43,001,19,w,Psychologie,2023-01-18_12h00.01.356,00_bat_bachelor,2022.2.4,59.96252527238995,
,,,,,,,,,,,,0,0,0,0,195,0,195,0,,,,,,,195,,,1,805.3717491530115,Y,d,go,d,1,0.451184036093764,,,,,,,,,,,,,,,,,,43,001,19,w,Psychologie,2023-01-18_12h00.01.356,00_bat_bachelor,2022.2.4,59.96252527238995,
,,,,,,,,,,,,0,0,0,0,196,0,196,0,,,,,,,196,,,1,806.9396262110677,Y,None,nogo,None,1,,807.7400544290431,,,,,,,,,,,,,,,,,43,001,19,w,Psychologie,2023-01-18_12h00.01.356,00_bat_bachelor,2022.2.4,59.96252527238995,
,,,,,,,,,,,,0,0,0,0,197,0,197,0,,,,,,,197,,,1,808.7410013376502,Y,None,nogo,None,1,,809.5416971918894,,,,,,,,,,,,,,,,,43,001,19,w,Psychologie,2023-01-18_12h00.01.356,00_bat_bachelor,2022.2.4,59.96252527238995,
,,,,,,,,,,,,0,0,0,0,198,0,198,0,,,,,,,198,,,1,810.5422402218683,X,l,go,l,1,0.3692892878316343,,,,,,,,,,,,,,,,,,43,001,19,w,Psychologie,2023-01-18_12h00.01.356,00_bat_bachelor,2022.2.4,59.96252527238995,
,,,,,,,,,,,,0,0,0,0,199,0,199,0,,,,,,,199,,,1,812.026943017263,Y,d,go,d,1,0.45287082309369,,,,,,,,,,,,,,,,,,43,001,19,w,Psychologie,2023-01-18_12h00.01.356,00_bat_bachelor,2022.2.4,59.96252527238995,
,,,,,,,,,,,,0,0,0,0,200,0,200,0,,,,,,,200,,,1,813.5945844389498,X,l,go,l,1,0.34203305875416845,,,,,,,,,,,,,,,,,,43,001,19,w,Psychologie,2023-01-18_12h00.01.356,00_bat_bachelor,2022.2.4,59.96252527238995,
,,,,,,,,,,,,0,0,0,0,201,0,201,0,,,,,,,201,,,1,815.0456179172033,Y,d,go,d,1,0.41004078334663063,,,,,,,,,,,,,,,,,,43,001,19,w,Psychologie,2023-01-18_12h00.01.356,00_bat_bachelor,2022.2.4,59.96252527238995,
,,,,,,,,,,,,0,0,0,0,202,0,202,0,,,,,,,202,,,1,816.5637844539015,Y,None,nogo,d,0,0.41267496382351965,,,,,,,,,,,,,,,,,,43,001,19,w,Psychologie,2023-01-18_12h00.01.356,00_bat_bachelor,2022.2.4,59.96252527238995,
,,,,,,,,,,,,0,0,0,0,203,0,203,0,,,,,,,203,,,1,818.0815209301654,X,l,go,l,1,0.3023186536738649,,,,,,,,,,,,,,,,,,43,001,19,w,Psychologie,2023-01-18_12h00.01.356,00_bat_bachelor,2022.2.4,59.96252527238995,
,,,,,,,,,,,,0,0,0,0,204,0,204,0,,,,,,,204,,,1,819.4989980610553,Y,d,go,d,1,0.6611601766198874,,,,,,,,,,,,,,,,,,43,001,19,w,Psychologie,2023-01-18_12h00.01.356,00_bat_bachelor,2022.2.4,59.96252527238995,
,,,,,,,,,,,,0,0,0,0,205,0,205,0,,,,,,,205,,,1,821.2672187795397,X,l,go,l,1,0.47682475089095533,,,,,,,,,,,,,,,,,,43,001,19,w,Psychologie,2023-01-18_12h00.01.356,00_bat_bachelor,2022.2.4,59.96252527238995,
,,,,,,,,,,,,0,0,0,0,206,0,206,0,,,,,,,206,,,1,822.8517382537248,X,None,nogo,None,1,,823.6522813807242,,,,,,,,,,,,,,,,,43,001,19,w,Psychologie,2023-01-18_12h00.01.356,00_bat_bachelor,2022.2.4,59.96252527238995,
,,,,,,,,,,,,0,0,0,0,207,0,207,0,,,,,,,207,,,1,824.653052774258,Y,d,go,d,1,0.4509367634309456,,,,,,,,,,,,,,,,,,43,001,19,w,Psychologie,2023-01-18_12h00.01.356,00_bat_bachelor,2022.2.4,59.96252527238995,
,,,,,,,,,,,,0,0,0,0,208,0,208,0,,,,,,,208,,,1,826.2209986806847,X,l,go,l,1,0.4986104372655973,,,,,,,,,,,,,,,,,,43,001,19,w,Psychologie,2023-01-18_12h00.01.356,00_bat_bachelor,2022.2.4,59.96252527238995,
,,,,,,,,,,,,0,0,0,0,209,0,209,0,,,,,,,209,,,1,827.8220451771049,X,None,nogo,None,1,,,,,,,,,,,,,,,,,,,43,001,19,w,Psychologie,2023-01-18_12h00.01.356,00_bat_bachelor,2022.2.4,59.96252527238995,
,,,,,,,,,,,,0,0,0,0,210,0,210,0,,,,,,,210,,,1,829.6236215158133,Y,d,go,d,1,0.4401018596254289,,,,,,,,,,,,,,,,,,43,001,19,w,Psychologie,2023-01-18_12h00.01.356,00_bat_bachelor,2022.2.4,59.96252527238995,
,,,,,,,,,,,,0,0,0,0,211,0,211,0,,,,,,,211,,,1,831.1747693697689,X,l,go,l,1,0.36219256394542754,,,,,,,,,,,,,,,,,,43,001,19,w,Psychologie,2023-01-18_12h00.01.356,00_bat_bachelor,2022.2.4,59.96252527238995,
,,,,,,,,,,,,0,0,0,0,212,0,212,0,,,,,,,212,,,1,832.6425102339126,X,None,nogo,None,1,,833.4429651185637,,,,,,,,,,,,,,,,,43,001,19,w,Psychologie,2023-01-18_12h00.01.356,00_bat_bachelor,2022.2.4,59.96252527238995,
,,,,,,,,,,,,0,0,0,0,213,0,213,0,,,,,,,213,,,1,834.4437219667016,Y,d,go,d,1,0.3882003090111539,,,,,,,,,,,,,,,,,,43,001,19,w,Psychologie,2023-01-18_12h00.01.356,00_bat_bachelor,2022.2.4,59.96252527238995,
,,,,,,,,,,,,0,0,0,0,214,0,214,0,,,,,,,214,,,1,835.9449866933282,X,l,go,l,1,0.43951228412333876,,,,,,,,,,,,,,,,,,43,001,19,w,Psychologie,2023-01-18_12h00.01.356,00_bat_bachelor,2022.2.4,59.96252527238995,
,,,,,,,,,,,,0,0,0,0,215,0,215,0,,,,,,,215,,,1,837.4962198806461,Y,d,go,d,1,0.6156595926731825,,,,,,,,,,,,,,,,,,43,001,19,w,Psychologie,2023-01-18_12h00.01.356,00_bat_bachelor,2022.2.4,59.96252527238995,
,,,,,,,,,,,,0,0,0,0,216,0,216,0,,,,,,,216,,,1,839.2142340779537,Y,None,nogo,None,1,,,,,,,,,,,,,,,,,,,43,001,19,w,Psychologie,2023-01-18_12h00.01.356,00_bat_bachelor,2022.2.4,59.96252527238995,
,,,,,,,,,,,,0,0,0,0,217,0,217,0,,,,,,,217,,,1,841.0154317501001,X,l,go,l,1,0.45616876089479774,,,,,,,,,,,,,,,,,,43,001,19,w,Psychologie,2023-01-18_12h00.01.356,00_bat_bachelor,2022.2.4,59.96252527238995,
,,,,,,,,,,,,0,0,0,0,218,0,218,0,,,,,,,218,,,1,842.5834372928366,Y,d,go,None,0,,,,,,,,,,,,,,,,,,,43,001,19,w,Psychologie,2023-01-18_12h00.01.356,00_bat_bachelor,2022.2.4,59.96252527238995,
,,,,,,,,,,,,0,0,0,0,219,0,219,0,,,,,,,219,,,1,844.3848395709647,X,l,go,l,1,0.5268484841799363,,,,,,,,,,,,,,,,,,43,001,19,w,Psychologie,2023-01-18_12h00.01.356,00_bat_bachelor,2022.2.4,59.96252527238995,
,,,,,,,,,,,,0,0,0,0,220,0,220,0,,,,,,,220,,,1,846.0192412027391,X,None,nogo,None,1,,846.8200543902349,,,,,,,,,,,,,,,,,43,001,19,w,Psychologie,2023-01-18_12h00.01.356,00_bat_bachelor,2022.2.4,59.96252527238995,
,,,,,,,,,,,,0,0,0,0,221,0,221,0,,,,,,,221,,,1,847.8208117232425,Y,d,go,d,1,0.4351428316440433,,,,,,,,,,,,,,,,,,43,001,19,w,Psychologie,2023-01-18_12h00.01.356,00_bat_bachelor,2022.2.4,59.96252527238995,
,,,,,,,,,,,,0,0,0,0,222,0,222,0,,,,,,,222,,,1,849.3719382438576,X,l,go,l,1,0.6444959423970431,,,,,,,,,,,,,,,,,,43,001,19,w,Psychologie,2023-01-18_12h00.01.356,00_bat_bachelor,2022.2.4,59.96252527238995,
,,,,,,,,,,,,0,0,0,0,223,0,223,0,,,,,,,223,,,1,851.1232498795725,X,None,nogo,None,1,,851.9237309460295,,,,,,,,,,,,,,,,,43,001,19,w,Psychologie,2023-01-18_12h00.01.356,00_bat_bachelor,2022.2.4,59.96252527238995,
,,,,,,,,,,,,0,0,0,0,224,0,224,0,,,,,,,224,,,1,852.9246584607754,Y,d,go,d,1,0.4031530290376395,,,,,,,,,,,,,,,,,,43,001,19,w,Psychologie,2023-01-18_12h00.01.356,00_bat_bachelor,2022.2.4,59.96252527238995,
,,,,,,,,,,,,0,0,0,0,225,0,225,0,,,,,,,225,,,1,854.4423018461093,X,l,go,l,1,0.40469533135183156,,,,,,,,,,,,,,,,,,43,001,19,w,Psychologie,2023-01-18_12h00.01.356,00_bat_bachelor,2022.2.4,59.96252527238995,
,,,,,,,,,,,,0,0,0,0,226,0,226,0,,,,,,,226,,,1,855.9603137162048,Y,d,go,None,0,,,,,,,,,,,,,,,,,,,43,001,19,w,Psychologie,2023-01-18_12h00.01.356,00_bat_bachelor,2022.2.4,59.96252527238995,
,,,,,,,,,,,,0,0,0,0,227,0,227,0,,,,,,,227,,,1,857.7618406002875,Y,None,nogo,d,0,0.3497465094551444,,,,,,,,,,,,,,,,,,43,001,19,w,Psychologie,2023-01-18_12h00.01.356,00_bat_bachelor,2022.2.4,59.96252527238995,
,,,,,,,,,,,,0,0,0,0,228,0,228,0,,,,,,,228,,,1,859.2127960179932,X,l,go,l,1,0.6120702610351145,,,,,,,,,,,,,,,,,,43,001,19,w,Psychologie,2023-01-18_12h00.01.356,00_bat_bachelor,2022.2.4,59.96252527238995,
,,,,,,,,,,,,0,0,0,0,229,0,229,0,,,,,,,229,,,1,860.9307326396229,Y,d,go,d,1,0.6531752108130604,,,,,,,,,,,,,,,,,,43,001,19,w,Psychologie,2023-01-18_12h00.01.356,00_bat_bachelor,2022.2.4,59.96252527238995,
,,,,,,,,,,,,0,0,0,0,230,0,230,0,,,,,,,230,,,1,862.6989237823291,X,l,go,l,1,0.4212659898912534,,,,,,,,,,,,,,,,,,43,001,19,w,Psychologie,2023-01-18_12h00.01.356,00_bat_bachelor,2022.2.4,59.96252527238995,
,,,,,,,,,,,,0,0,0,0,231,0,231,0,,,,,,,231,,,1,864.2333118868992,X,None,nogo,None,1,,865.033695983584,,,,,,,,,,,,,,,,,43,001,19,w,Psychologie,2023-01-18_12h00.01.356,00_bat_bachelor,2022.2.4,59.96252527238995,
,,,,,,,,,,,,0,0,0,0,232,0,232,0,,,,,,,232,,,1,866.0346099225571,Y,d,go,d,1,0.5413013257784769,,,,,,,,,,,,,,,,,,43,001,19,w,Psychologie,2023-01-18_12h00.01.356,00_bat_bachelor,2022.2.4,59.96252527238995,
,,,,,,,,,,,,0,0,0,0,233,0,233,0,,,,,,,233,,,1,867.6858866977273,X,l,go,l,1,0.37899982859380543,,,,,,,,,,,,,,,,,,43,001,19,w,Psychologie,2023-01-18_12h00.01.356,00_bat_bachelor,2022.2.4,59.96252527238995,
,,,,,,,,,,,,0,0,0,0,234,0,234,0,,,,,,,234,,,1,869.1703654931625,Y,d,go,d,1,0.3814478274434805,,,,,,,,,,,,,,,,,,43,001,19,w,Psychologie,2023-01-18_12h00.01.356,00_bat_bachelor,2022.2.4,59.96252527238995,
,,,,,,,,,,,,0,0,0,0,235,0,235,0,,,,,,,235,,,1,870.6550023490563,X,l,go,l,1,0.40113024215679616,,,,,,,,,,,,,,,,,,43,001,19,w,Psychologie,2023-01-18_12h00.01.356,00_bat_bachelor,2022.2.4,59.96252527238995,
,,,,,,,,,,,,0,0,0,0,236,0,236,0,,,,,,,236,,,1,872.1726311889943,Y,d,go,d,1,0.6270758295431733,,,,,,,,,,,,,,,,,,43,001,19,w,Psychologie,2023-01-18_12h00.01.356,00_bat_bachelor,2022.2.4,59.96252527238995,
,,,,,,,,,,,,0,0,0,0,237,0,237,0,,,,,,,237,,,1,873.906895075459,Y,None,nogo,None,1,,,,,,,,,,,,,,,,,,,43,001,19,w,Psychologie,2023-01-18_12h00.01.356,00_bat_bachelor,2022.2.4,59.96252527238995,
,,,,,,,,,,,,0,0,0,0,238,0,238,0,,,,,,,238,,,1,875.7084631716134,X,l,go,l,1,0.46641311969142407,,,,,,,,,,,,,,,,,,43,001,19,w,Psychologie,2023-01-18_12h00.01.356,00_bat_bachelor,2022.2.4,59.96252527238995,
,,,,,,,,,,,,0,0,0,0,239,0,239,0,,,,,,,239,,,1,877.2763096841518,Y,d,go,d,1,0.5486225342610851,,,,,,,,,,,,,,,,,,43,001,19,w,Psychologie,2023-01-18_12h00.01.356,00_bat_bachelor,2022.2.4,59.96252527238995,
,,,,,,,,,,,,0,0,0,0,240,0,240,0,,,,,,,240,,,1,878.9276325198589,X,l,go,l,1,0.4154933866811916,,,,,,,,,,,,,,,,,,43,001,19,w,Psychologie,2023-01-18_12h00.01.356,00_bat_bachelor,2022.2.4,59.96252527238995,
,,,,,,,,,,,,0,0,0,0,241,0,241,0,,,,,,,241,,,1,880.4453733598348,Y,d,go,None,0,,,,,,,,,,,,,,,,,,,43,001,19,w,Psychologie,2023-01-18_12h00.01.356,00_bat_bachelor,2022.2.4,59.96252527238995,
,,,,,,,,,,,,0,0,0,0,242,0,242,0,,,,,,,242,,,1,882.2468536985107,Y,None,nogo,None,1,,,,,,,,,,,,,,,,,,,43,001,19,w,Psychologie,2023-01-18_12h00.01.356,00_bat_bachelor,2022.2.4,59.96252527238995,
,,,,,,,,,,,,0,0,0,0,243,0,243,0,,,,,,,243,,,1,884.0478962191846,X,l,go,None,0,,,,,,,,,,,,,,,,,,,43,001,19,w,Psychologie,2023-01-18_12h00.01.356,00_bat_bachelor,2022.2.4,59.96252527238995,
,,,,,,,,,,,,0,0,0,0,244,0,244,0,,,,,,,244,,,1,885.8492757093627,Y,d,go,d,1,0.5336072688223794,,,,,,,,,,,,,,,,,,43,001,19,w,Psychologie,2023-01-18_12h00.01.356,00_bat_bachelor,2022.2.4,59.96252527238995,
,,,,,,,,,,,,0,0,0,0,245,0,245,0,,,,,,,245,,,1,887.4838412199169,X,l,go,l,1,0.3243821581127122,,,,,,,,,,,,,,,,,,43,001,19,w,Psychologie,2023-01-18_12h00.01.356,00_bat_bachelor,2022.2.4,59.96252527238995,
,,,,,,,,,,,,0,0,0,0,246,0,246,0,,,,,,,246,,,1,888.918587190914,X,None,nogo,None,1,,,,,,,,,,,,,,,,,,,43,001,19,w,Psychologie,2023-01-18_12h00.01.356,00_bat_bachelor,2022.2.4,59.96252527238995,
,,,,,,,,,,,,0,0,0,0,247,0,247,0,,,,,,,247,,,1,890.7199361358071,Y,d,go,d,1,0.5289216953096911,,,,,,,,,,,,,,,,,,43,001,19,w,Psychologie,2023-01-18_12h00.01.356,00_bat_bachelor,2022.2.4,59.96252527238995,
,,,,,,,,,,,,0,0,0,0,248,0,248,0,,,,,,,248,,,1,892.3545166765107,X,l,go,l,1,0.23765492741949856,,,,,,,,,,,,,,,,,,43,001,19,w,Psychologie,2023-01-18_12h00.01.356,00_bat_bachelor,2022.2.4,59.96252527238995,
,,,,,,,,,,,,0,0,0,0,249,0,249,0,,,,,,,249,,,1,893.7055652335985,Y,d,go,d,1,0.40685629996005446,,,,,,,,,,,,,,,,,,43,001,19,w,Psychologie,2023-01-18_12h00.01.356,00_bat_bachelor,2022.2.4,59.96252527238995,
,,,,,,,,,,,,1,0,1,0,0,0,0,0,,,,,,,0,,,0.2,908.6001897695241,X,l,go,l,1,0.5033444955479354,,,,,,,,,894.2284575861413,space,14.142139337374829,,,,,,,43,001,19,w,Psychologie,2023-01-18_12h00.01.356,00_bat_bachelor,2022.2.4,59.96252527238995,
,,,,,,,,,,,,1,0,1,0,1,0,1,0,,,,,,,1,,,0.2,909.4172196764266,Y,d,go,d,1,0.45435979205649346,,,,,,,,,,,,,,,,,,43,001,19,w,Psychologie,2023-01-18_12h00.01.356,00_bat_bachelor,2022.2.4,59.96252527238995,
,,,,,,,,,,,,1,0,1,0,2,0,2,0,,,,,,,2,,,0.2,910.1847810012987,X,l,go,l,1,0.5664140407461673,,,,,,,,,,,,,,,,,,43,001,19,w,Psychologie,2023-01-18_12h00.01.356,00_bat_bachelor,2022.2.4,59.96252527238995,
,,,,,,,,,,,,1,0,1,0,3,0,3,0,,,,,,,3,,,0.2,911.0521061564796,Y,d,go,d,1,0.498990073450841,,,,,,,,,,,,,,,,,,43,001,19,w,Psychologie,2023-01-18_12h00.01.356,00_bat_bachelor,2022.2.4,59.96252527238995,
,,,,,,,,,,,,1,0,1,0,4,0,4,0,,,,,,,4,,,0.2,911.852521283552,Y,None,nogo,None,1,,,,,,,,,,,,,,,,,,,43,001,19,w,Psychologie,2023-01-18_12h00.01.356,00_bat_bachelor,2022.2.4,59.96252527238995,
,,,,,,,,,,,,1,0,1,0,5,0,5,0,,,,,,,5,,,0.2,912.8535113437101,X,l,go,l,1,0.5064693426247686,,,,,,,,,,,,,,,,,,43,001,19,w,Psychologie,2023-01-18_12h00.01.356,00_bat_bachelor,2022.2.4,59.96252527238995,
,,,,,,,,,,,,1,0,1,0,6,0,6,0,,,,,,,6,,,0.2,913.6707526444225,Y,d,go,d,1,0.44173773762304336,,,,,,,,,,,,,,,,,,43,001,19,w,Psychologie,2023-01-18_12h00.01.356,00_bat_bachelor,2022.2.4,59.96252527238995,
,,,,,,,,,,,,1,0,1,0,7,0,7,0,,,,,,,7,,,0.2,914.4210315534147,X,l,go,l,1,0.4908591683488339,,,,,,,,,,,,,,,,,,43,001,19,w,Psychologie,2023-01-18_12h00.01.356,00_bat_bachelor,2022.2.4,59.96252527238995,
,,,,,,,,,,,,1,0,1,0,8,0,8,0,,,,,,,8,,,0.2,915.2219979529036,Y,d,go,d,1,0.4580805174773559,,,,,,,,,,,,,,,,,,43,001,19,w,Psychologie,2023-01-18_12h00.01.356,00_bat_bachelor,2022.2.4,59.96252527238995,
,,,,,,,,,,,,1,0,1,0,9,0,9,0,,,,,,,9,,,0.2,915.9891903082607,Y,None,nogo,None,1,,,,,,,,,,,,,,,,,,,43,001,19,w,Psychologie,2023-01-18_12h00.01.356,00_bat_bachelor,2022.2.4,59.96252527238995,
,,,,,,,,,,,,1,0,1,0,10,0,10,0,,,,,,,10,,,0.2,916.9899471563986,Y,None,nogo,None,1,,,,,,,,,,,,,,,,,,,43,001,19,w,Psychologie,2023-01-18_12h00.01.356,00_bat_bachelor,2022.2.4,59.96252527238995,
,,,,,,,,,,,,1,0,1,0,11,0,11,0,,,,,,,11,,,0.2,917.9906913983868,X,l,go,l,1,0.45742500270716846,,,,,,,,,,,,,,,,,,43,001,19,w,Psychologie,2023-01-18_12h00.01.356,00_bat_bachelor,2022.2.4,59.96252527238995,
,,,,,,,,,,,,1,0,1,0,12,0,12,0,,,,,,,12,,,0.2,918.7577596325427,Y,d,go,d,1,0.4431113126920536,,,,,,,,,,,,,,,,,,43,001,19,w,Psychologie,2023-01-18_12h00.01.356,00_bat_bachelor,2022.2.4,59.96252527238995,
,,,,,,,,,,,,1,0,1,0,13,0,13,0,,,,,,,13,,,0.2,919.5083158747293,X,l,go,l,1,0.49129504687152803,,,,,,,,,,,,,,,,,,43,001,19,w,Psychologie,2023-01-18_12h00.01.356,00_bat_bachelor,2022.2.4,59.96252527238995,
,,,,,,,,,,,,1,0,1,0,14,0,14,0,,,,,,,14,,,0.2,920.3089065168751,Y,d,go,d,1,0.4589008807670325,,,,,,,,,,,,,,,,,,43,001,19,w,Psychologie,2023-01-18_12h00.01.356,00_bat_bachelor,2022.2.4,59.96252527238995,
,,,,,,,,,,,,1,0,1,0,15,0,15,0,,,,,,,15,,,0.2,921.0764227508334,X,l,go,l,1,0.4920441374415532,,,,,,,,,,,,,,,,,,43,001,19,w,Psychologie,2023-01-18_12h00.01.356,00_bat_bachelor,2022.2.4,59.96252527238995,
,,,,,,,,,,,,1,0,1,0,16,0,16,0,,,,,,,16,,,0.2,921.8767375142779,Y,d,go,d,1,0.4433910701191053,,,,,,,,,,,,,,,,,,43,001,19,w,Psychologie,2023-01-18_12h00.01.356,00_bat_bachelor,2022.2.4,59.96252527238995,
,,,,,,,,,,,,1,0,1,0,17,0,17,0,,,,,,,17,,,0.2,922.6276559380349,Y,None,nogo,None,1,,,,,,,,,,,,,,,,,,,43,001,19,w,Psychologie,2023-01-18_12h00.01.356,00_bat_bachelor,2022.2.4,59.96252527238995,
,,,,,,,,,,,,1,0,1,0,18,0,18,0,,,,,,,18,,,0.2,923.6282057559583,X,l,go,l,1,0.5473250802606344,,,,,,,,,,,,,,,,,,43,001,19,w,Psychologie,2023-01-18_12h00.01.356,00_bat_bachelor,2022.2.4,59.96252527238995,
,,,,,,,,,,,,1,0,1,0,19,0,19,0,,,,,,,19,,,0.2,924.4788923738524,Y,d,go,d,1,0.5940106334164739,,,,,,,,,,,,,,,,,,43,001,19,w,Psychologie,2023-01-18_12h00.01.356,00_bat_bachelor,2022.2.4,59.96252527238995,
,,,,,,,,,,,,1,0,1,0,20,0,20,0,,,,,,,20,,,0.2,925.3797743612668,Y,None,nogo,d,0,0.6522990900557488,,,,,,,,,,,,,,,,,,43,001,19,w,Psychologie,2023-01-18_12h00.01.356,00_bat_bachelor,2022.2.4,59.96252527238995,
,,,,,,,,,,,,1,0,1,0,21,0,21,0,,,,,,,21,,,0.2,926.3467770440038,X,l,go,None,0,,,,,,,,,,,,,,,,,,,43,001,19,w,Psychologie,2023-01-18_12h00.01.356,00_bat_bachelor,2022.2.4,59.96252527238995,
,,,,,,,,,,,,1,0,1,0,22,0,22,0,,,,,,,22,,,0.2,927.3477898919955,Y,d,go,None,0,,,,,,,,,,,,,,,,,,,43,001,19,w,Psychologie,2023-01-18_12h00.01.356,00_bat_bachelor,2022.2.4,59.96252527238995,
,,,,,,,,,,,,1,0,1,0,23,0,23,0,,,,,,,23,,,0.2,928.3486228612019,Y,None,nogo,None,1,,,,,,,,,,,,,,,,,,,43,001,19,w,Psychologie,2023-01-18_12h00.01.356,00_bat_bachelor,2022.2.4,59.96252527238995,
,,,,,,,,,,,,1,0,1,0,24,0,24,0,,,,,,,24,,,0.2,929.3493438306032,X,l,go,l,1,0.5703864024253562,,,,,,,,,,,,,,,,,,43,001,19,w,Psychologie,2023-01-18_12h00.01.356,00_bat_bachelor,2022.2.4,59.96252527238995,
,,,,,,,,,,,,1,0,1,0,25,0,25,0,,,,,,,25,,,0.2,930.2334612200502,Y,d,go,d,1,0.469848754350096,,,,,,,,,,,,,,,,,,43,001,19,w,Psychologie,2023-01-18_12h00.01.356,00_bat_bachelor,2022.2.4,59.96252527238995,
,,,,,,,,,,,,1,0,1,0,26,0,26,0,,,,,,,26,,,0.2,931.0171965976479,Y,None,nogo,None,1,,,,,,,,,,,,,,,,,,,43,001,19,w,Psychologie,2023-01-18_12h00.01.356,00_bat_bachelor,2022.2.4,59.96252527238995,
,,,,,,,,,,,,1,0,1,0,27,0,27,0,,,,,,,27,,,0.2,932.0180615669815,X,l,go,l,1,0.5414123559603468,,,,,,,,,,,,,,,,,,43,001,19,w,Psychologie,2023-01-18_12h00.01.356,00_bat_bachelor,2022.2.4,59.96252527238995,
,,,,,,,,,,,,1,0,1,0,28,0,28,0,,,,,,,28,,,0.2,932.8687520636013,Y,d,go,d,1,0.6026603262871504,,,,,,,,,,,,,,,,,,43,001,19,w,Psychologie,2023-01-18_12h00.01.356,00_bat_bachelor,2022.2.4,59.96252527238995,
,,,,,,,,,,,,1,0,1,0,29,0,29,0,,,,,,,29,,,0.2,933.7859971945873,X,l,go,l,1,0.6146229871083051,,,,,,,,,,,,,,,,,,43,001,19,w,Psychologie,2023-01-18_12h00.01.356,00_bat_bachelor,2022.2.4,59.96252527238995,
,,,,,,,,,,,,1,0,1,0,30,0,30,0,,,,,,,30,,,0.2,934.703165234765,X,None,nogo,None,1,,,,,,,,,,,,,,,,,,,43,001,19,w,Psychologie,2023-01-18_12h00.01.356,00_bat_bachelor,2022.2.4,59.96252527238995,
,,,,,,,,,,,,1,0,1,0,31,0,31,0,,,,,,,31,,,0.2,935.7039230526425,Y,d,go,d,1,0.4718017230043188,,,,,,,,,,,,,,,,,,43,001,19,w,Psychologie,2023-01-18_12h00.01.356,00_bat_bachelor,2022.2.4,59.96252527238995,
,,,,,,,,,,,,1,0,1,0,32,0,32,0,,,,,,,32,,,0.2,936.488110793638,X,l,go,None,0,,,,,,,,,,,,,,,,,,,43,001,19,w,Psychologie,2023-01-18_12h00.01.356,00_bat_bachelor,2022.2.4,59.96252527238995,
,,,,,,,,,,,,1,0,1,0,33,0,33,0,,,,,,,33,,,0.2,937.4886150357779,Y,d,go,None,0,,,,,,,,,,,,,,,,,,,43,001,19,w,Psychologie,2023-01-18_12h00.01.356,00_bat_bachelor,2022.2.4,59.96252527238995,
,,,,,,,,,,,,1,0,1,0,34,0,34,0,,,,,,,34,,,0.2,938.4896593989106,X,l,go,None,0,,,,,,,,,,,,,,,,,,,43,001,19,w,Psychologie,2023-01-18_12h00.01.356,00_bat_bachelor,2022.2.4,59.96252527238995,
,,,,,,,,,,,,1,0,1,0,35,0,35,0,,,,,,,35,,,0.2,939.4905156409368,X,None,nogo,None,1,,940.2910767073045,,,,,,,,,,,,,,,,,43,001,19,w,Psychologie,2023-01-18_12h00.01.356,00_bat_bachelor,2022.2.4,59.96252527238995,
,,,,,,,,,,,,1,0,1,0,36,0,36,0,,,,,,,36,,,0.2,940.4912303072633,Y,d,go,d,1,0.4214410202112049,,,,,,,,,,,,,,,,,,43,001,19,w,Psychologie,2023-01-18_12h00.01.356,00_bat_bachelor,2022.2.4,59.96252527238995,
,,,,,,,,,,,,1,0,1,0,37,0,37,0,,,,,,,37,,,0.2,941.2250874059973,X,l,go,l,1,0.5670937979593873,,,,,,,,,,,,,,,,,,43,001,19,w,Psychologie,2023-01-18_12h00.01.356,00_bat_bachelor,2022.2.4,59.96252527238995,
,,,,,,,,,,,,1,0,1,0,38,0,38,0,,,,,,,38,,,0.2,942.0925410459749,Y,d,go,d,1,0.5306841187411919,,,,,,,,,,,,,,,,,,43,001,19,w,Psychologie,2023-01-18_12h00.01.356,00_bat_bachelor,2022.2.4,59.96252527238995,
,,,,,,,,,,,,1,0,1,0,39,0,39,0,,,,,,,39,,,0.2,942.9264252478024,Y,None,nogo,None,1,,,,,,,,,,,,,,,,,,,43,001,19,w,Psychologie,2023-01-18_12h00.01.356,00_bat_bachelor,2022.2.4,59.96252527238995,
,,,,,,,,,,,,1,0,1,0,40,0,40,0,,,,,,,40,,,0.2,943.9268373687519,X,l,go,l,1,0.39264054934028536,,,,,,,,,,,,,,,,,,43,001,19,w,Psychologie,2023-01-18_12h00.01.356,00_bat_bachelor,2022.2.4,59.96252527238995,
,,,,,,,,,,,,1,0,1,0,41,0,41,0,,,,,,,41,,,0.2,944.6276995744556,Y,d,go,d,1,0.47743178089149296,,,,,,,,,,,,,,,,,,43,001,19,w,Psychologie,2023-01-18_12h00.01.356,00_bat_bachelor,2022.2.4,59.96252527238995,
,,,,,,,,,,,,1,0,1,0,42,0,42,0,,,,,,,42,,,0.2,945.4117505882168,Y,None,nogo,None,1,,,,,,,,,,,,,,,,,,,43,001,19,w,Psychologie,2023-01-18_12h00.01.356,00_bat_bachelor,2022.2.4,59.96252527238995,
,,,,,,,,,,,,1,0,1,0,43,0,43,0,,,,,,,43,,,0.2,946.4124594363384,X,l,go,l,1,0.46747202810365707,,,,,,,,,,,,,,,,,,43,001,19,w,Psychologie,2023-01-18_12h00.01.356,00_bat_bachelor,2022.2.4,59.96252527238995,
,,,,,,,,,,,,1,0,1,0,44,0,44,0,,,,,,,44,,,0.2,947.1960653593997,Y,d,go,None,0,,,,,,,,,,,,,,,,,,,43,001,19,w,Psychologie,2023-01-18_12h00.01.356,00_bat_bachelor,2022.2.4,59.96252527238995,
,,,,,,,,,,,,1,0,1,0,45,0,45,0,,,,,,,45,,,0.2,948.1967727530282,X,l,go,None,0,,948.9976087283576,,,,,,,,,,,,,,,,,43,001,19,w,Psychologie,2023-01-18_12h00.01.356,00_bat_bachelor,2022.2.4,59.96252527238995,
,,,,,,,,,,,,1,0,1,0,46,0,46,0,,,,,,,46,,,0.2,949.197598449653,X,None,nogo,None,1,,,,,,,,,,,,,,,,,,,43,001,19,w,Psychologie,2023-01-18_12h00.01.356,00_bat_bachelor,2022.2.4,59.96252527238995,
,,,,,,,,,,,,1,0,1,0,47,0,47,0,,,,,,,47,,,0.2,950.1985211158171,Y,d,go,d,1,0.40910211706068367,,,,,,,,,,,,,,,,,,43,001,19,w,Psychologie,2023-01-18_12h00.01.356,00_bat_bachelor,2022.2.4,59.96252527238995,
,,,,,,,,,,,,1,0,1,0,48,0,48,0,,,,,,,48,,,0.2,950.9157445256133,X,l,go,l,1,0.36445825989358127,,,,,,,,,,,,,,,,,,43,001,19,w,Psychologie,2023-01-18_12h00.01.356,00_bat_bachelor,2022.2.4,59.96252527238995,
,,,,,,,,,,,,1,0,1,0,49,0,49,0,,,,,,,49,,,0.2,951.5828157174401,Y,d,go,d,1,0.5928562097251415,,,,,,,,,,,,,,,,,,43,001,19,w,Psychologie,2023-01-18_12h00.01.356,00_bat_bachelor,2022.2.4,59.96252527238995,
,,,,,,,,,,,,1,0,1,0,50,0,50,0,,,,,,,50,,,0.2,952.4835275231162,X,l,go,l,1,0.5882307575084269,,,,,,,,,,,,,,,,,,43,001,19,w,Psychologie,2023-01-18_12h00.01.356,00_bat_bachelor,2022.2.4,59.96252527238995,
,,,,,,,,,,,,1,0,1,0,51,0,51,0,,,,,,,51,,,0.2,953.3844284196384,Y,d,go,d,1,0.5511636239243671,,,,,,,,,,,,,,,,,,43,001,19,w,Psychologie,2023-01-18_12h00.01.356,00_bat_bachelor,2022.2.4,59.96252527238995,
,,,,,,,,,,,,1,0,1,0,52,0,52,0,,,,,,,52,,,0.2,954.2517555142986,Y,None,nogo,None,1,,,,,,,,,,,,,,,,,,,43,001,19,w,Psychologie,2023-01-18_12h00.01.356,00_bat_bachelor,2022.2.4,59.96252527238995,
,,,,,,,,,,,,1,0,1,0,53,0,53,0,,,,,,,53,,,0.2,955.2521972110262,X,l,go,l,1,0.4277057443978265,,,,,,,,,,,,,,,,,,43,001,19,w,Psychologie,2023-01-18_12h00.01.356,00_bat_bachelor,2022.2.4,59.96252527238995,
,,,,,,,,,,,,1,0,1,0,54,0,54,0,,,,,,,54,,,0.2,955.9863583096303,Y,d,go,d,1,0.510718552628532,,,,,,,,,,,,,,,,,,43,001,19,w,Psychologie,2023-01-18_12h00.01.356,00_bat_bachelor,2022.2.4,59.96252527238995,
,,,,,,,,,,,,1,0,1,0,55,0,55,0,,,,,,,55,,,0.2,956.8036878526909,Y,None,nogo,None,1,,,,,,,,,,,,,,,,,,,43,001,19,w,Psychologie,2023-01-18_12h00.01.356,00_bat_bachelor,2022.2.4,59.96252527238995,
,,,,,,,,,,,,1,0,1,0,56,0,56,0,,,,,,,56,,,0.2,957.8041314888978,X,l,go,l,1,0.4677503310376778,,,,,,,,,,,,,,,,,,43,001,19,w,Psychologie,2023-01-18_12h00.01.356,00_bat_bachelor,2022.2.4,59.96252527238995,
,,,,,,,,,,,,1,0,1,0,57,0,57,0,,,,,,,57,,,0.2,958.5883061389904,Y,d,go,d,1,0.5319747847970575,,,,,,,,,,,,,,,,,,43,001,19,w,Psychologie,2023-01-18_12h00.01.356,00_bat_bachelor,2022.2.4,59.96252527238995,
,,,,,,,,,,,,1,0,1,0,58,0,58,0,,,,,,,58,,,0.2,959.4222155528842,X,l,go,None,0,,,,,,,,,,,,,,,,,,,43,001,19,w,Psychologie,2023-01-18_12h00.01.356,00_bat_bachelor,2022.2.4,59.96252527238995,
,,,,,,,,,,,,1,0,1,0,59,0,59,0,,,,,,,59,,,0.2,960.4227517950349,X,None,nogo,None,1,,,,,,,,,,,,,,,,,,,43,001,19,w,Psychologie,2023-01-18_12h00.01.356,00_bat_bachelor,2022.2.4,59.96252527238995,
,,,,,,,,,,,,1,0,1,0,60,0,60,0,,,,,,,60,,,0.2,961.4234999158652,Y,d,go,None,0,,962.2243853457039,,,,,,,,,,,,,,,,,43,001,19,w,Psychologie,2023-01-18_12h00.01.356,00_bat_bachelor,2022.2.4,59.96252527238995,
,,,,,,,,,,,,1,0,1,0,61,0,61,0,,,,,,,61,,,0.2,962.4243697336642,X,l,go,l,1,0.3906933986581862,,,,,,,,,,,,,,,,,,43,001,19,w,Psychologie,2023-01-18_12h00.01.356,00_bat_bachelor,2022.2.4,59.96252527238995,
,,,,,,,,,,,,1,0,1,0,62,0,62,0,,,,,,,62,,,0.2,963.1251310908701,Y,d,go,d,1,0.41195011569652706,,,,,,,,,,,,,,,,,,43,001,19,w,Psychologie,2023-01-18_12h00.01.356,00_bat_bachelor,2022.2.4,59.96252527238995,
,,,,,,,,,,,,1,0,1,0,63,0,63,0,,,,,,,63,,,0.2,963.8422386219027,X,l,go,None,0,,,,,,,,,,,,,,,,,,,43,001,19,w,Psychologie,2023-01-18_12h00.01.356,00_bat_bachelor,2022.2.4,59.96252527238995,
,,,,,,,,,,,,1,0,1,0,64,0,64,0,,,,,,,64,,,0.2,964.8429741366999,Y,d,go,d,1,0.4522022174205631,,,,,,,,,,,,,,,,,,43,001,19,w,Psychologie,2023-01-18_12h00.01.356,00_bat_bachelor,2022.2.4,59.96252527238995,
,,,,,,,,,,,,1,0,1,0,65,0,65,0,,,,,,,65,,,0.2,965.6102784919785,X,l,go,l,1,0.6298569191712886,,,,,,,,,,,,,,,,,,43,001,19,w,Psychologie,2023-01-18_12h00.01.356,00_bat_bachelor,2022.2.4,59.96252527238995,
,,,,,,,,,,,,1,0,1,0,66,0,66,0,,,,,,,66,,,0.2,966.5440753725125,Y,d,go,d,1,0.5116688552079722,,,,,,,,,,,,,,,,,,43,001,19,w,Psychologie,2023-01-18_12h00.01.356,00_bat_bachelor,2022.2.4,59.96252527238995,
,,,,,,,,,,,,1,0,1,0,67,0,67,0,,,,,,,67,,,0.2,967.3615014004754,Y,None,nogo,None,1,,,,,,,,,,,,,,,,,,,43,001,19,w,Psychologie,2023-01-18_12h00.01.356,00_bat_bachelor,2022.2.4,59.96252527238995,
,,,,,,,,,,,,1,0,1,0,68,0,68,0,,,,,,,68,,,0.2,968.3624647939578,X,l,go,l,1,0.3100568316876888,,,,,,,,,,,,,,,,,,43,001,19,w,Psychologie,2023-01-18_12h00.01.356,00_bat_bachelor,2022.2.4,59.96252527238995,
,,,,,,,,,,,,1,0,1,0,69,0,69,0,,,,,,,69,,,0.2,968.9792577070184,Y,d,go,d,1,0.36473850219044834,,,,,,,,,,,,,,,,,,43,001,19,w,Psychologie,2023-01-18_12h00.01.356,00_bat_bachelor,2022.2.4,59.96252527238995,
,,,,,,,,,,,,1,0,1,0,70,0,70,0,,,,,,,70,,,0.2,969.6467177469749,Y,None,nogo,None,1,,,,,,,,,,,,,,,,,,,43,001,19,w,Psychologie,2023-01-18_12h00.01.356,00_bat_bachelor,2022.2.4,59.96252527238995,
,,,,,,,,,,,,1,0,1,0,71,0,71,0,,,,,,,71,,,0.2,970.6474299890688,X,l,go,l,1,0.24861055857036263,,,,,,,,,,,,,,,,,,43,001,19,w,Psychologie,2023-01-18_12h00.01.356,00_bat_bachelor,2022.2.4,59.96252527238995,
,,,,,,,,,,,,1,0,1,0,72,0,72,0,,,,,,,72,,,0.2,971.1979485100601,Y,d,go,d,1,0.48232680885121226,,,,,,,,,,,,,,,,,,43,001,19,w,Psychologie,2023-01-18_12h00.01.356,00_bat_bachelor,2022.2.4,59.96252527238995,
,,,,,,,,,,,,1,0,1,0,73,0,73,0,,,,,,,73,,,0.2,971.9818729785038,X,l,go,l,1,0.514480005367659,,,,,,,,,,,,,,,,,,43,001,19,w,Psychologie,2023-01-18_12h00.01.356,00_bat_bachelor,2022.2.4,59.96252527238995,
,,,,,,,,,,,,1,0,1,0,74,0,74,0,,,,,,,74,,,0.2,972.799446400255,Y,d,go,d,1,0.3997872124891728,,,,,,,,,,,,,,,,,,43,001,19,w,Psychologie,2023-01-18_12h00.01.356,00_bat_bachelor,2022.2.4,59.96252527238995,
,,,,,,,,,,,,1,0,1,0,75,0,75,0,,,,,,,75,,,0.2,973.4999876363436,Y,None,nogo,d,0,0.499580618692562,,,,,,,,,,,,,,,,,,43,001,19,w,Psychologie,2023-01-18_12h00.01.356,00_bat_bachelor,2022.2.4,59.96252527238995,
,,,,,,,,,,,,1,0,1,0,76,0,76,0,,,,,,,76,,,0.2,974.300408581621,X,l,go,l,1,0.5471146561903879,,,,,,,,,,,,,,,,,,43,001,19,w,Psychologie,2023-01-18_12h00.01.356,00_bat_bachelor,2022.2.4,59.96252527238995,
,,,,,,,,,,,,1,0,1,0,77,0,77,0,,,,,,,77,,,0.2,975.1512120479019,Y,d,go,d,1,0.6079505055677146,,,,,,,,,,,,,,,,,,43,001,19,w,Psychologie,2023-01-18_12h00.01.356,00_bat_bachelor,2022.2.4,59.96252527238995,
,,,,,,,,,,,,1,0,1,0,78,0,78,0,,,,,,,78,,,0.2,976.0683514819248,X,l,go,l,1,0.6511432118713856,,,,,,,,,,,,,,,,,,43,001,19,w,Psychologie,2023-01-18_12h00.01.356,00_bat_bachelor,2022.2.4,59.96252527238995,
,,,,,,,,,,,,1,0,1,0,79,0,79,0,,,,,,,79,,,0.2,977.0359941642964,Y,d,go,d,1,0.38794043043162674,,,,,,,,,,,,,,,,,,43,001,19,w,Psychologie,2023-01-18_12h00.01.356,00_bat_bachelor,2022.2.4,59.96252527238995,
,,,,,,,,,,,,1,0,1,0,80,0,80,0,,,,,,,80,,,0.2,977.7364224308403,Y,None,nogo,None,1,,,,,,,,,,,,,,,,,,,43,001,19,w,Psychologie,2023-01-18_12h00.01.356,00_bat_bachelor,2022.2.4,59.96252527238995,
,,,,,,,,,,,,1,0,1,0,81,0,81,0,,,,,,,81,,,0.2,978.737105097156,X,l,go,l,1,0.34995838813483715,,,,,,,,,,,,,,,,,,43,001,19,w,Psychologie,2023-01-18_12h00.01.356,00_bat_bachelor,2022.2.4,59.96252527238995,
,,,,,,,,,,,,1,0,1,0,82,0,82,0,,,,,,,82,,,0.2,979.3877729028463,Y,d,go,d,1,0.45162427821196616,,,,,,,,,,,,,,,,,,43,001,19,w,Psychologie,2023-01-18_12h00.01.356,00_bat_bachelor,2022.2.4,59.96252527238995,
,,,,,,,,,,,,1,0,1,0,83,0,83,0,,,,,,,83,,,0.2,980.1546738643665,Y,None,nogo,d,0,0.5488654432119802,,,,,,,,,,,,,,,,,,43,001,19,w,Psychologie,2023-01-18_12h00.01.356,00_bat_bachelor,2022.2.4,59.96252527238995,
,,,,,,,,,,,,1,0,1,0,84,0,84,0,,,,,,,84,,,0.2,981.00510545203,X,l,go,l,1,0.5625745275756344,,,,,,,,,,,,,,,,,,43,001,19,w,Psychologie,2023-01-18_12h00.01.356,00_bat_bachelor,2022.2.4,59.96252527238995,
,,,,,,,,,,,,1,0,1,0,85,0,85,0,,,,,,,85,,,0.2,981.8724291527178,Y,d,go,None,0,,982.673397491686,,,,,,,,,,,,,,,,,43,001,19,w,Psychologie,2023-01-18_12h00.01.356,00_bat_bachelor,2022.2.4,59.96252527238995,
,,,,,,,,,,,,1,0,1,0,86,0,86,0,,,,,,,86,,,0.2,982.8731738796923,X,l,go,l,1,0.6306578884832561,,,,,,,,,,,,,,,,,,43,001,19,w,Psychologie,2023-01-18_12h00.01.356,00_bat_bachelor,2022.2.4,59.96252527238995,
,,,,,,,,,,,,1,0,1,0,87,0,87,0,,,,,,,87,,,0.2,983.8073392448714,X,None,nogo,None,1,,,,,,,,,,,,,,,,,,,43,001,19,w,Psychologie,2023-01-18_12h00.01.356,00_bat_bachelor,2022.2.4,59.96252527238995,
,,,,,,,,,,,,1,0,1,0,88,0,88,0,,,,,,,88,,,0.2,984.8079937900184,Y,d,go,d,1,0.5188872759463266,,,,,,,,,,,,,,,,,,43,001,19,w,Psychologie,2023-01-18_12h00.01.356,00_bat_bachelor,2022.2.4,59.96252527238995,
,,,,,,,,,,,,1,0,1,0,89,0,89,0,,,,,,,89,,,0.2,985.6421669613337,X,l,go,l,1,0.6138094117632136,,,,,,,,,,,,,,,,,,43,001,19,w,Psychologie,2023-01-18_12h00.01.356,00_bat_bachelor,2022.2.4,59.96252527238995,
,,,,,,,,,,,,1,0,1,0,90,0,90,0,,,,,,,90,,,0.2,986.5597728195135,Y,d,go,d,1,0.35205875081010163,,,,,,,,,,,,,,,,,,43,001,19,w,Psychologie,2023-01-18_12h00.01.356,00_bat_bachelor,2022.2.4,59.96252527238995,
,,,,,,,,,,,,1,0,1,0,91,0,91,0,,,,,,,91,,,0.2,987.2271475262241,X,l,go,l,1,0.4363830735674128,,,,,,,,,,,,,,,,,,43,001,19,w,Psychologie,2023-01-18_12h00.01.356,00_bat_bachelor,2022.2.4,59.96252527238995,
,,,,,,,,,,,,1,0,1,0,92,0,92,0,,,,,,,92,,,0.2,987.9776378290262,Y,d,go,d,1,0.42240926215890795,,,,,,,,,,,,,,,,,,43,001,19,w,Psychologie,2023-01-18_12h00.01.356,00_bat_bachelor,2022.2.4,59.96252527238995,
,,,,,,,,,,,,1,0,1,0,93,0,93,0,,,,,,,93,,,0.2,988.7113218369195,Y,None,nogo,None,1,,989.5116967215436,,,,,,,,,,,,,,,,,43,001,19,w,Psychologie,2023-01-18_12h00.01.356,00_bat_bachelor,2022.2.4,59.96252527238995,
,,,,,,,,,,,,1,0,1,0,94,0,94,0,,,,,,,94,,,0.2,989.7120360183762,X,l,go,l,1,0.33489706204272807,,,,,,,,,,,,,,,,,,43,001,19,w,Psychologie,2023-01-18_12h00.01.356,00_bat_bachelor,2022.2.4,59.96252527238995,
,,,,,,,,,,,,1,0,1,0,95,0,95,0,,,,,,,95,,,0.2,990.3625612787437,Y,d,go,d,1,0.4207622326212004,,,,,,,,,,,,,,,,,,43,001,19,w,Psychologie,2023-01-18_12h00.01.356,00_bat_bachelor,2022.2.4,59.96252527238995,
,,,,,,,,,,,,1,0,1,0,96,0,96,0,,,,,,,96,,,0.2,991.0963873472065,Y,None,nogo,None,1,,,,,,,,,,,,,,,,,,,43,001,19,w,Psychologie,2023-01-18_12h00.01.356,00_bat_bachelor,2022.2.4,59.96252527238995,
,,,,,,,,,,,,1,0,1,0,97,0,97,0,,,,,,,97,,,0.2,992.0970205590129,X,l,go,l,1,0.35000881226733327,,,,,,,,,,,,,,,,,,43,001,19,w,Psychologie,2023-01-18_12h00.01.356,00_bat_bachelor,2022.2.4,59.96252527238995,
,,,,,,,,,,,,1,0,1,0,98,0,98,0,,,,,,,98,,,0.2,992.7476941829082,Y,d,go,d,1,0.452081490191631,,,,,,,,,,,,,,,,,,43,001,19,w,Psychologie,2023-01-18_12h00.01.356,00_bat_bachelor,2022.2.4,59.96252527238995,
,,,,,,,,,,,,1,0,1,0,99,0,99,0,,,,,,,99,,,0.2,993.5146174473921,X,l,go,l,1,0.48509771667886525,,,,,,,,,,,,,,,,,,43,001,19,w,Psychologie,2023-01-18_12h00.01.356,00_bat_bachelor,2022.2.4,59.96252527238995,
,,,,,,,,,,,,1,0,1,0,100,0,100,0,,,,,,,100,,,0.2,994.3155164530035,X,None,nogo,None,1,,,,,,,,,,,,,,,,,,,43,001,19,w,Psychologie,2023-01-18_12h00.01.356,00_bat_bachelor,2022.2.4,59.96252527238995,
,,,,,,,,,,,,1,0,1,0,101,0,101,0,,,,,,,101,,,0.2,995.3162437254796,Y,d,go,d,1,0.3476524499710649,,,,,,,,,,,,,,,,,,43,001,19,w,Psychologie,2023-01-18_12h00.01.356,00_bat_bachelor,2022.2.4,59.96252527238995,
,,,,,,,,,,,,1,0,1,0,102,0,102,0,,,,,,,102,,,0.2,995.9664485011017,X,l,go,l,1,0.4643636660184711,,,,,,,,,,,,,,,,,,43,001,19,w,Psychologie,2023-01-18_12h00.01.356,00_bat_bachelor,2022.2.4,59.96252527238995,
,,,,,,,,,,,,1,0,1,0,103,0,103,0,,,,,,,103,,,0.2,996.7340379471425,Y,d,go,d,1,0.417669870541431,,,,,,,,,,,,,,,,,,43,001,19,w,Psychologie,2023-01-18_12h00.01.356,00_bat_bachelor,2022.2.4,59.96252527238995,
,,,,,,,,,,,,1,0,1,0,104,0,104,0,,,,,,,104,,,0.2,997.4676264398731,Y,None,nogo,None,1,,,,,,,,,,,,,,,,,,,43,001,19,w,Psychologie,2023-01-18_12h00.01.356,00_bat_bachelor,2022.2.4,59.96252527238995,
,,,,,,,,,,,,1,0,1,0,105,0,105,0,,,,,,,105,,,0.2,998.4683512880001,X,l,go,l,1,0.4114618734456599,,,,,,,,,,,,,,,,,,43,001,19,w,Psychologie,2023-01-18_12h00.01.356,00_bat_bachelor,2022.2.4,59.96252527238995,
,,,,,,,,,,,,1,0,1,0,106,0,106,0,,,,,,,106,,,0.2,999.1858345764922,Y,d,go,d,1,0.49389092449564487,,,,,,,,,,,,,,,,,,43,001,19,w,Psychologie,2023-01-18_12h00.01.356,00_bat_bachelor,2022.2.4,59.96252527238995,
,,,,,,,,,,,,1,0,1,0,107,0,107,0,,,,,,,107,,,0.2,999.9864358853083,X,l,go,l,1,0.542232234380208,,,,,,,,,,,,,,,,,,43,001,19,w,Psychologie,2023-01-18_12h00.01.356,00_bat_bachelor,2022.2.4,59.96252527238995,
,,,,,,,,,,,,1,0,1,0,108,0,108,0,,,,,,,108,,,0.2,1000.8368728063069,X,None,nogo,None,1,,,,,,,,,,,,,,,,,,,43,001,19,w,Psychologie,2023-01-18_12h00.01.356,00_bat_bachelor,2022.2.4,59.96252527238995,
,,,,,,,,,,,,1,0,1,0,109,0,109,0,,,,,,,109,,,0.2,1001.8379709876608,Y,d,go,d,1,0.5786181560251862,,,,,,,,,,,,,,,,,,43,001,19,w,Psychologie,2023-01-18_12h00.01.356,00_bat_bachelor,2022.2.4,59.96252527238995,
,,,,,,,,,,,,1,0,1,0,110,0,110,0,,,,,,,110,,,0.2,1002.7219686196186,X,l,go,l,1,0.5264184238621965,,,,,,,,,,,,,,,,,,43,001,19,w,Psychologie,2023-01-18_12h00.01.356,00_bat_bachelor,2022.2.4,59.96252527238995,
,,,,,,,,,,,,1,0,1,0,111,0,111,0,,,,,,,111,,,0.2,1003.5558814273681,Y,d,go,d,1,0.6514292723732069,,,,,,,,,,,,,,,,,,43,001,19,w,Psychologie,2023-01-18_12h00.01.356,00_bat_bachelor,2022.2.4,59.96252527238995,
,,,,,,,,,,,,1,0,1,0,112,0,112,0,,,,,,,112,,,0.2,1004.5230188978603,X,l,go,None,0,,,,,,,,,,,,,,,,,,,43,001,19,w,Psychologie,2023-01-18_12h00.01.356,00_bat_bachelor,2022.2.4,59.96252527238995,
,,,,,,,,,,,,1,0,1,0,113,0,113,0,,,,,,,113,,,0.2,1005.524080230738,Y,d,go,None,0,,1006.3247814183123,,,,,,,,,,,,,,,,,43,001,19,w,Psychologie,2023-01-18_12h00.01.356,00_bat_bachelor,2022.2.4,59.96252527238995,
,,,,,,,,,,,,1,0,1,0,114,0,114,0,,,,,,,114,,,0.2,1006.5245277456706,X,l,go,None,0,,,,,,,,,,,,,,,,,,,43,001,19,w,Psychologie,2023-01-18_12h00.01.356,00_bat_bachelor,2022.2.4,59.96252527238995,
,,,,,,,,,,,,1,0,1,0,115,0,115,0,,,,,,,115,,,0.2,1007.5256011997117,X,None,nogo,l,0,0.522081941133365,,,,,,,,,,,,,,,,,,43,001,19,w,Psychologie,2023-01-18_12h00.01.356,00_bat_bachelor,2022.2.4,59.96252527238995,
,,,,,,,,,,,,1,0,1,0,116,0,116,0,,,,,,,116,,,0.2,1008.359744310379,Y,d,go,d,1,0.4400897384621203,,,,,,,,,,,,,,,,,,43,001,19,w,Psychologie,2023-01-18_12h00.01.356,00_bat_bachelor,2022.2.4,59.96252527238995,
,,,,,,,,,,,,1,0,1,0,117,0,117,0,,,,,,,117,,,0.2,1009.1101463708328,X,l,go,l,1,0.4414419801905751,,,,,,,,,,,,,,,,,,43,001,19,w,Psychologie,2023-01-18_12h00.01.356,00_bat_bachelor,2022.2.4,59.96252527238995,
,,,,,,,,,,,,1,0,1,0,118,0,118,0,,,,,,,118,,,0.2,1009.860682249302,Y,d,go,d,1,0.5073415845399722,,,,,,,,,,,,,,,,,,43,001,19,w,Psychologie,2023-01-18_12h00.01.356,00_bat_bachelor,2022.2.4,59.96252527238995,
,,,,,,,,,,,,1,0,1,0,119,0,119,0,,,,,,,119,,,0.2,1010.6779429439921,X,l,go,l,1,0.458288517431356,,,,,,,,,,,,,,,,,,43,001,19,w,Psychologie,2023-01-18_12h00.01.356,00_bat_bachelor,2022.2.4,59.96252527238995,
,,,,,,,,,,,,1,0,1,0,120,0,120,0,,,,,,,120,,,0.2,1011.4450344508514,Y,d,go,d,1,0.37937946477904916,,,,,,,,,,,,,,,,,,43,001,19,w,Psychologie,2023-01-18_12h00.01.356,00_bat_bachelor,2022.2.4,59.96252527238995,
,,,,,,,,,,,,1,0,1,0,121,0,121,0,,,,,,,121,,,0.2,1012.129144664621,X,l,go,None,0,,,,,,,,,,,,,,,,,,,43,001,19,w,Psychologie,2023-01-18_12h00.01.356,00_bat_bachelor,2022.2.4,59.96252527238995,
,,,,,,,,,,,,1,0,1,0,122,0,122,0,,,,,,,122,,,0.2,1013.129895209684,Y,d,go,d,1,0.5656184047693387,,,,,,,,,,,,,,,,,,43,001,19,w,Psychologie,2023-01-18_12h00.01.356,00_bat_bachelor,2022.2.4,59.96252527238995,
,,,,,,,,,,,,1,0,1,0,123,0,123,0,,,,,,,123,,,0.2,1013.9971636376576,Y,None,nogo,None,1,,,,,,,,,,,,,,,,,,,43,001,19,w,Psychologie,2023-01-18_12h00.01.356,00_bat_bachelor,2022.2.4,59.96252527238995,
,,,,,,,,,,,,1,0,1,0,124,0,124,0,,,,,,,124,,,0.2,1014.9980518796947,X,l,go,l,1,0.3298982767155394,,,,,,,,,,,,,,,,,,43,001,19,w,Psychologie,2023-01-18_12h00.01.356,00_bat_bachelor,2022.2.4,59.96252527238995,
,,,,,,,,,,,,1,0,1,0,125,0,125,0,,,,,,,125,,,0.2,1015.6316864815308,Y,d,go,d,1,0.36742795538157225,,,,,,,,,,,,,,,,,,43,001,19,w,Psychologie,2023-01-18_12h00.01.356,00_bat_bachelor,2022.2.4,59.96252527238995,
,,,,,,,,,,,,1,0,1,0,126,0,126,0,,,,,,,126,,,0.2,1016.3156095439335,X,l,go,l,1,0.5154724896419793,,,,,,,,,,,,,,,,,,43,001,19,w,Psychologie,2023-01-18_12h00.01.356,00_bat_bachelor,2022.2.4,59.96252527238995,
,,,,,,,,,,,,1,0,1,0,127,0,127,0,,,,,,,127,,,0.2,1017.1329866021406,X,None,nogo,d,0,0.6435272154631093,,,,,,,,,,,,,,,,,,43,001,19,w,Psychologie,2023-01-18_12h00.01.356,00_bat_bachelor,2022.2.4,59.96252527238995,
,,,,,,,,,,,,1,0,1,0,128,0,128,0,,,,,,,128,,,0.2,1018.0836402018322,Y,d,go,None,0,,,,,,,,,,,,,,,,,,,43,001,19,w,Psychologie,2023-01-18_12h00.01.356,00_bat_bachelor,2022.2.4,59.96252527238995,
,,,,,,,,,,,,1,0,1,0,129,0,129,0,,,,,,,129,,,0.2,1019.0844140195986,X,l,go,l,1,0.2601751589681953,,,,,,,,,,,,,,,,,,43,001,19,w,Psychologie,2023-01-18_12h00.01.356,00_bat_bachelor,2022.2.4,59.96252527238995,
,,,,,,,,,,,,1,0,1,0,130,0,130,0,,,,,,,130,,,0.2,1019.6514333811356,X,None,nogo,l,0,0.42871034995187074,,,,,,,,,,,,,,,,,,43,001,19,w,Psychologie,2023-01-18_12h00.01.356,00_bat_bachelor,2022.2.4,59.96252527238995,
,,,,,,,,,,,,1,0,1,0,131,0,131,0,,,,,,,131,,,0.2,1020.38530066167,X,None,nogo,l,0,0.4306322884513065,,,,,,,,,,,,,,,,,,43,001,19,w,Psychologie,2023-01-18_12h00.01.356,00_bat_bachelor,2022.2.4,59.96252527238995,
,,,,,,,,,,,,1,0,1,0,132,0,132,0,,,,,,,132,,,0.2,1021.1193759420421,Y,d,go,d,1,0.5121173397637904,,,,,,,,,,,,,,,,,,43,001,19,w,Psychologie,2023-01-18_12h00.01.356,00_bat_bachelor,2022.2.4,59.96252527238995,
,,,,,,,,,,,,1,0,1,0,133,0,133,0,,,,,,,133,,,0.2,1021.9368368791183,X,l,go,l,1,0.46367615123745054,,,,,,,,,,,,,,,,,,43,001,19,w,Psychologie,2023-01-18_12h00.01.356,00_bat_bachelor,2022.2.4,59.96252527238995,
,,,,,,,,,,,,1,0,1,0,134,0,134,0,,,,,,,134,,,0.2,1022.7041208706796,Y,d,go,d,1,0.43188853026367724,,,,,,,,,,,,,,,,,,43,001,19,w,Psychologie,2023-01-18_12h00.01.356,00_bat_bachelor,2022.2.4,59.96252527238995,
,,,,,,,,,,,,1,0,1,0,135,0,135,0,,,,,,,135,,,0.2,1023.438021605718,X,l,go,None,0,,1024.238369338913,,,,,,,,,,,,,,,,,43,001,19,w,Psychologie,2023-01-18_12h00.01.356,00_bat_bachelor,2022.2.4,59.96252527238995,
,,,,,,,,,,,,1,0,1,0,136,0,136,0,,,,,,,136,,,0.2,1024.438192272326,Y,d,go,d,1,0.3615360795520246,,,,,,,,,,,,,,,,,,43,001,19,w,Psychologie,2023-01-18_12h00.01.356,00_bat_bachelor,2022.2.4,59.96252527238995,
,,,,,,,,,,,,1,0,1,0,137,0,137,0,,,,,,,137,,,0.2,1025.1053638276644,X,l,go,l,1,0.589990756707266,,,,,,,,,,,,,,,,,,43,001,19,w,Psychologie,2023-01-18_12h00.01.356,00_bat_bachelor,2022.2.4,59.96252527238995,
,,,,,,,,,,,,1,0,1,0,138,0,138,0,,,,,,,138,,,0.2,1026.0064576937584,Y,d,go,d,1,0.24896837654523551,,,,,,,,,,,,,,,,,,43,001,19,w,Psychologie,2023-01-18_12h00.01.356,00_bat_bachelor,2022.2.4,59.96252527238995,
,,,,,,,,,,,,1,0,1,0,139,0,139,0,,,,,,,139,,,0.2,1026.5565854270244,Y,None,nogo,d,0,0.3703879539389163,,,,,,,,,,,,,,,,,,43,001,19,w,Psychologie,2023-01-18_12h00.01.356,00_bat_bachelor,2022.2.4,59.96252527238995,
,,,,,,,,,,,,1,0,1,0,140,0,140,0,,,,,,,140,,,0.2,1027.2403601258993,X,l,go,l,1,0.45517870073672384,,,,,,,,,,,,,,,,,,43,001,19,w,Psychologie,2023-01-18_12h00.01.356,00_bat_bachelor,2022.2.4,59.96252527238995,
,,,,,,,,,,,,1,0,1,0,141,0,141,0,,,,,,,141,,,0.2,1028.0079112688545,Y,d,go,d,1,0.3764946177834645,,,,,,,,,,,,,,,,,,43,001,19,w,Psychologie,2023-01-18_12h00.01.356,00_bat_bachelor,2022.2.4,59.96252527238995,
,,,,,,,,,,,,1,0,1,0,142,0,142,0,,,,,,,142,,,0.2,1028.6917077858234,X,l,go,l,1,0.5082080083666369,,,,,,,,,,,,,,,,,,43,001,19,w,Psychologie,2023-01-18_12h00.01.356,00_bat_bachelor,2022.2.4,59.96252527238995,
,,,,,,,,,,,,1,0,1,0,143,0,143,0,,,,,,,143,,,0.2,1029.5089563592337,Y,d,go,d,1,0.3781363139860332,,,,,,,,,,,,,,,,,,43,001,19,w,Psychologie,2023-01-18_12h00.01.356,00_bat_bachelor,2022.2.4,59.96252527238995,
,,,,,,,,,,,,1,0,1,0,144,0,144,0,,,,,,,144,,,0.2,1030.1927087550284,X,l,go,l,1,0.464373362949118,,,,,,,,,,,,,,,,,,43,001,19,w,Psychologie,2023-01-18_12h00.01.356,00_bat_bachelor,2022.2.4,59.96252527238995,
,,,,,,,,,,,,1,0,1,0,145,0,145,0,,,,,,,145,,,0.2,1030.9598249892006,X,None,nogo,l,0,0.4958637719973922,,,,,,,,,,,,,,,,,,43,001,19,w,Psychologie,2023-01-18_12h00.01.356,00_bat_bachelor,2022.2.4,59.96252527238995,
,,,,,,,,,,,,1,0,1,0,146,0,146,0,,,,,,,146,,,0.2,1031.760402540327,Y,d,go,None,0,,,,,,,,,,,,,,,,,,,43,001,19,w,Psychologie,2023-01-18_12h00.01.356,00_bat_bachelor,2022.2.4,59.96252527238995,
,,,,,,,,,,,,1,0,1,0,147,0,147,0,,,,,,,147,,,0.2,1032.761557933758,X,l,go,None,0,,,,,,,,,,,,,,,,,,,43,001,19,w,Psychologie,2023-01-18_12h00.01.356,00_bat_bachelor,2022.2.4,59.96252527238995,
,,,,,,,,,,,,1,0,1,0,148,0,148,0,,,,,,,148,,,0.2,1033.761959872907,Y,d,go,d,1,0.5421439920319244,,,,,,,,,,,,,,,,,,43,001,19,w,Psychologie,2023-01-18_12h00.01.356,00_bat_bachelor,2022.2.4,59.96252527238995,
,,,,,,,,,,,,1,0,1,0,149,0,149,0,,,,,,,149,,,0.2,1034.6129441875964,X,l,go,l,1,0.3628088062396273,,,,,,,,,,,,,,,,,,43,001,19,w,Psychologie,2023-01-18_12h00.01.356,00_bat_bachelor,2022.2.4,59.96252527238995,
,,,,,,,,,,,,1,0,1,0,150,0,150,0,,,,,,,150,,,0.2,1035.280122530763,Y,d,go,None,0,,,,,,,,,,,,,,,,,,,43,001,19,w,Psychologie,2023-01-18_12h00.01.356,00_bat_bachelor,2022.2.4,59.96252527238995,
,,,,,,,,,,,,1,0,1,0,151,0,151,0,,,,,,,151,,,0.2,1036.2808425304247,Y,None,nogo,l,0,0.3272834900999442,,,,,,,,,,,,,,,,,,43,001,19,w,Psychologie,2023-01-18_12h00.01.356,00_bat_bachelor,2022.2.4,59.96252527238995,
,,,,,,,,,,,,1,0,1,0,152,0,152,0,,,,,,,152,,,0.2,1036.9147583442973,Y,None,nogo,None,1,,1037.7150929865893,,,,,,,,,,,,,,,,,43,001,19,w,Psychologie,2023-01-18_12h00.01.356,00_bat_bachelor,2022.2.4,59.96252527238995,
,,,,,,,,,,,,1,0,1,0,153,0,153,0,,,,,,,153,,,0.2,1037.9154957984574,X,l,go,None,0,,1038.716118440614,,,,,,,,,,,,,,,,,43,001,19,w,Psychologie,2023-01-18_12h00.01.356,00_bat_bachelor,2022.2.4,59.96252527238995,
,,,,,,,,,,,,1,0,1,0,154,0,154,0,,,,,,,154,,,0.2,1038.916158586042,Y,d,go,d,1,0.5080092205898836,,,,,,,,,,,,,,,,,,43,001,19,w,Psychologie,2023-01-18_12h00.01.356,00_bat_bachelor,2022.2.4,59.96252527238995,
,,,,,,,,,,,,1,0,1,0,155,0,155,0,,,,,,,155,,,0.2,1039.7334013413638,Y,None,nogo,None,1,,,,,,,,,,,,,,,,,,,43,001,19,w,Psychologie,2023-01-18_12h00.01.356,00_bat_bachelor,2022.2.4,59.96252527238995,
,,,,,,,,,,,,1,0,1,0,156,0,156,0,,,,,,,156,,,0.2,1040.7342857045587,Y,None,nogo,None,1,,,,,,,,,,,,,,,,,,,43,001,19,w,Psychologie,2023-01-18_12h00.01.356,00_bat_bachelor,2022.2.4,59.96252527238995,
,,,,,,,,,,,,1,0,1,0,157,0,157,0,,,,,,,157,,,0.2,1041.7346861892147,X,l,go,l,1,0.3618274732725695,,,,,,,,,,,,,,,,,,43,001,19,w,Psychologie,2023-01-18_12h00.01.356,00_bat_bachelor,2022.2.4,59.96252527238995,
,,,,,,,,,,,,1,0,1,0,158,0,158,0,,,,,,,158,,,0.2,1042.4018625930184,Y,d,go,d,1,0.557038530241698,,,,,,,,,,,,,,,,,,43,001,19,w,Psychologie,2023-01-18_12h00.01.356,00_bat_bachelor,2022.2.4,59.96252527238995,
,,,,,,,,,,,,1,0,1,0,159,0,159,0,,,,,,,159,,,0.2,1043.2694568390725,Y,None,nogo,d,0,0.44143470737617463,,,,,,,,,,,,,,,,,,43,001,19,w,Psychologie,2023-01-18_12h00.01.356,00_bat_bachelor,2022.2.4,59.96252527238995,
,,,,,,,,,,,,1,0,1,0,160,0,160,0,,,,,,,160,,,0.2,1044.0197944146348,X,l,go,None,0,,,,,,,,,,,,,,,,,,,43,001,19,w,Psychologie,2023-01-18_12h00.01.356,00_bat_bachelor,2022.2.4,59.96252527238995,
,,,,,,,,,,,,1,0,1,0,161,0,161,0,,,,,,,161,,,0.2,1045.0207204747712,Y,d,go,None,0,,,,,,,,,,,,,,,,,,,43,001,19,w,Psychologie,2023-01-18_12h00.01.356,00_bat_bachelor,2022.2.4,59.96252527238995,
,,,,,,,,,,,,1,0,1,0,162,0,162,0,,,,,,,162,,,0.2,1046.0215238683159,X,l,go,l,1,0.4743035399587825,,,,,,,,,,,,,,,,,,43,001,19,w,Psychologie,2023-01-18_12h00.01.356,00_bat_bachelor,2022.2.4,59.96252527238995,
,,,,,,,,,,,,1,0,1,0,163,0,163,0,,,,,,,163,,,0.2,1046.8056059123483,X,None,nogo,None,1,,,,,,,,,,,,,,,,,,,43,001,19,w,Psychologie,2023-01-18_12h00.01.356,00_bat_bachelor,2022.2.4,59.96252527238995,
,,,,,,,,,,,,1,0,1,0,164,0,164,0,,,,,,,164,,,0.2,1047.8063845786965,Y,d,go,d,1,0.43285968131385744,,,,,,,,,,,,,,,,,,43,001,19,w,Psychologie,2023-01-18_12h00.01.356,00_bat_bachelor,2022.2.4,59.96252527238995,
,,,,,,,,,,,,1,0,1,0,165,0,165,0,,,,,,,165,,,0.2,1048.5399750109063,X,l,go,None,0,,,,,,,,,,,,,,,,,,,43,001,19,w,Psychologie,2023-01-18_12h00.01.356,00_bat_bachelor,2022.2.4,59.96252527238995,
,,,,,,,,,,,,1,0,1,0,166,0,166,0,,,,,,,166,,,0.2,1049.5410344043048,Y,d,go,d,1,0.44377216091379523,,,,,,,,,,,,,,,,,,43,001,19,w,Psychologie,2023-01-18_12h00.01.356,00_bat_bachelor,2022.2.4,59.96252527238995,
,,,,,,,,,,,,1,0,1,0,167,0,167,0,,,,,,,167,,,0.2,1050.2915082222316,X,l,go,None,0,,,,,,,,,,,,,,,,,,,43,001,19,w,Psychologie,2023-01-18_12h00.01.356,00_bat_bachelor,2022.2.4,59.96252527238995,
,,,,,,,,,,,,1,0,1,0,168,0,168,0,,,,,,,168,,,0.2,1051.2922199794557,Y,d,go,None,0,,1052.0929449246032,,,,,,,,,,,,,,,,,43,001,19,w,Psychologie,2023-01-18_12h00.01.356,00_bat_bachelor,2022.2.4,59.96252527238995,
,,,,,,,,,,,,1,0,1,0,169,0,169,0,,,,,,,169,,,0.2,1052.2930897972547,Y,None,nogo,d,0,0.42760732024908066,,,,,,,,,,,,,,,,,,43,001,19,w,Psychologie,2023-01-18_12h00.01.356,00_bat_bachelor,2022.2.4,59.96252527238995,
,,,,,,,,,,,,1,0,1,0,170,0,170,0,,,,,,,170,,,0.2,1053.0268654414685,X,l,go,None,0,,1053.8274517200189,,,,,,,,,,,,,,,,,43,001,19,w,Psychologie,2023-01-18_12h00.01.356,00_bat_bachelor,2022.2.4,59.96252527238995,
,,,,,,,,,,,,1,0,1,0,171,0,171,0,,,,,,,171,,,0.2,1054.0274293200346,Y,d,go,d,1,0.5324615724384785,,,,,,,,,,,,,,,,,,43,001,19,w,Psychologie,2023-01-18_12h00.01.356,00_bat_bachelor,2022.2.4,59.96252527238995,
,,,,,,,,,,,,1,0,1,0,172,0,172,0,,,,,,,172,,,0.2,1054.8617203094764,X,l,go,l,1,0.28970047796610743,,,,,,,,,,,,,,,,,,43,001,19,w,Psychologie,2023-01-18_12h00.01.356,00_bat_bachelor,2022.2.4,59.96252527238995,
,,,,,,,,,,,,1,0,1,0,173,0,173,0,,,,,,,173,,,0.2,1055.4621820788598,Y,d,go,d,1,0.36217171559110284,,,,,,,,,,,,,,,,,,43,001,19,w,Psychologie,2023-01-18_12h00.01.356,00_bat_bachelor,2022.2.4,59.96252527238995,
,,,,,,,,,,,,1,0,1,0,174,0,174,0,,,,,,,174,,,0.2,1056.1293376341928,X,l,go,l,1,0.415586962364614,,,,,,,,,,,,,,,,,,43,001,19,w,Psychologie,2023-01-18_12h00.01.356,00_bat_bachelor,2022.2.4,59.96252527238995,
,,,,,,,,,,,,1,0,1,0,175,0,175,0,,,,,,,175,,,0.2,1056.846216316917,X,None,nogo,None,1,,,,,,,,,,,,,,,,,,,43,001,19,w,Psychologie,2023-01-18_12h00.01.356,00_bat_bachelor,2022.2.4,59.96252527238995,
,,,,,,,,,,,,1,0,1,0,176,0,176,0,,,,,,,176,,,0.2,1057.847162255901,Y,d,go,d,1,0.4883287452394143,,,,,,,,,,,,,,,,,,43,001,19,w,Psychologie,2023-01-18_12h00.01.356,00_bat_bachelor,2022.2.4,59.96252527238995,
,,,,,,,,,,,,1,0,1,0,177,0,177,0,,,,,,,177,,,0.2,1058.6478998070816,X,l,go,l,1,0.40861726889852434,,,,,,,,,,,,,,,,,,43,001,19,w,Psychologie,2023-01-18_12h00.01.356,00_bat_bachelor,2022.2.4,59.96252527238995,
,,,,,,,,,,,,1,0,1,0,178,0,178,0,,,,,,,178,,,0.2,1059.3650844290387,X,None,nogo,l,0,0.39496782096102834,,,,,,,,,,,,,,,,,,43,001,19,w,Psychologie,2023-01-18_12h00.01.356,00_bat_bachelor,2022.2.4,59.96252527238995,
,,,,,,,,,,,,1,0,1,0,179,0,179,0,,,,,,,179,,,0.2,1060.0656620287336,Y,d,go,d,1,0.495471044909209,,,,,,,,,,,,,,,,,,43,001,19,w,Psychologie,2023-01-18_12h00.01.356,00_bat_bachelor,2022.2.4,59.96252527238995,
,,,,,,,,,,,,1,0,1,0,180,0,180,0,,,,,,,180,,,0.2,1060.866242489079,X,l,go,None,0,,1061.666820040322,,,,,,,,,,,,,,,,,43,001,19,w,Psychologie,2023-01-18_12h00.01.356,00_bat_bachelor,2022.2.4,59.96252527238995,
,,,,,,,,,,,,1,0,1,0,181,0,181,0,,,,,,,181,,,0.2,1061.8667161858175,Y,d,go,d,1,0.6611732675228268,,,,,,,,,,,,,,,,,,43,001,19,w,Psychologie,2023-01-18_12h00.01.356,00_bat_bachelor,2022.2.4,59.96252527238995,
,,,,,,,,,,,,1,0,1,0,182,0,182,0,,,,,,,182,,,0.2,1062.8343060197076,X,l,go,l,1,0.5249566063284874,,,,,,,,,,,,,,,,,,43,001,19,w,Psychologie,2023-01-18_12h00.01.356,00_bat_bachelor,2022.2.4,59.96252527238995,
,,,,,,,,,,,,1,0,1,0,183,0,183,0,,,,,,,183,,,0.2,1063.668263918371,Y,d,go,d,1,0.5384295695694163,,,,,,,,,,,,,,,,,,43,001,19,w,Psychologie,2023-01-18_12h00.01.356,00_bat_bachelor,2022.2.4,59.96252527238995,
,,,,,,,,,,,,1,0,1,0,184,0,184,0,,,,,,,184,,,0.2,1064.5189961119322,X,l,go,l,1,0.5524504112545401,,,,,,,,,,,,,,,,,,43,001,19,w,Psychologie,2023-01-18_12h00.01.356,00_bat_bachelor,2022.2.4,59.96252527238995,
,,,,,,,,,,,,1,0,1,0,185,0,185,0,,,,,,,185,,,0.2,1065.3863663581433,X,None,nogo,None,1,,,,,,,,,,,,,,,,,,,43,001,19,w,Psychologie,2023-01-18_12h00.01.356,00_bat_bachelor,2022.2.4,59.96252527238995,
,,,,,,,,,,,,1,0,1,0,186,0,186,0,,,,,,,186,,,0.2,1066.38715084258,Y,d,go,d,1,0.4449037966551259,,,,,,,,,,,,,,,,,,43,001,19,w,Psychologie,2023-01-18_12h00.01.356,00_bat_bachelor,2022.2.4,59.96252527238995,
,,,,,,,,,,,,1,0,1,0,187,0,187,0,,,,,,,187,,,0.2,1067.1373866000213,X,l,go,l,1,0.5584504082798958,,,,,,,,,,,,,,,,,,43,001,19,w,Psychologie,2023-01-18_12h00.01.356,00_bat_bachelor,2022.2.4,59.96252527238995,
,,,,,,,,,,,,1,0,1,0,188,0,188,0,,,,,,,188,,,0.2,1068.005071997526,Y,d,go,None,0,,,,,,,,,,,,,,,,,,,43,001,19,w,Psychologie,2023-01-18_12h00.01.356,00_bat_bachelor,2022.2.4,59.96252527238995,
,,,,,,,,,,,,1,0,1,0,189,0,189,0,,,,,,,189,,,0.2,1069.005695027532,X,l,go,None,0,,,,,,,,,,,,,,,,,,,43,001,19,w,Psychologie,2023-01-18_12h00.01.356,00_bat_bachelor,2022.2.4,59.96252527238995,
,,,,,,,,,,,,1,0,1,0,190,0,190,0,,,,,,,190,,,0.2,1070.0065973300952,Y,d,go,None,0,,,,,,,,,,,,,,,,,,,43,001,19,w,Psychologie,2023-01-18_12h00.01.356,00_bat_bachelor,2022.2.4,59.96252527238995,
,,,,,,,,,,,,1,0,1,0,191,0,191,0,,,,,,,191,,,0.2,1071.0070952692768,Y,None,nogo,None,1,,1071.807818274945,,,,,,,,,,,,,,,,,43,001,19,w,Psychologie,2023-01-18_12h00.01.356,00_bat_bachelor,2022.2.4,59.96252527238995,
,,,,,,,,,,,,1,0,1,0,192,0,192,0,,,,,,,192,,,0.2,1072.0080271476181,X,l,go,None,0,,1072.8086633654311,,,,,,,,,,,,,,,,,43,001,19,w,Psychologie,2023-01-18_12h00.01.356,00_bat_bachelor,2022.2.4,59.96252527238995,
,,,,,,,,,,,,1,0,1,0,193,0,193,0,,,,,,,193,,,0.2,1073.0089207228739,Y,d,go,d,1,0.6390321874059737,,,,,,,,,,,,,,,,,,43,001,19,w,Psychologie,2023-01-18_12h00.01.356,00_bat_bachelor,2022.2.4,59.96252527238995,
,,,,,,,,,,,,1,0,1,0,194,0,194,0,,,,,,,194,,,0.2,1073.959296989371,X,l,go,l,1,0.4415990710258484,,,,,,,,,,,,,,,,,,43,001,19,w,Psychologie,2023-01-18_12h00.01.356,00_bat_bachelor,2022.2.4,59.96252527238995,
,,,,,,,,,,,,1,0,1,0,195,0,195,0,,,,,,,195,,,0.2,1074.710030201124,X,None,nogo,None,1,,,,,,,,,,,,,,,,,,,43,001,19,w,Psychologie,2023-01-18_12h00.01.356,00_bat_bachelor,2022.2.4,59.96252527238995,
,,,,,,,,,,,,1,0,1,0,196,0,196,0,,,,,,,196,,,0.2,1075.7109247462358,X,None,nogo,None,1,,,,,,,,,,,,,,,,,,,43,001,19,w,Psychologie,2023-01-18_12h00.01.356,00_bat_bachelor,2022.2.4,59.96252527238995,
,,,,,,,,,,,,1,0,1,0,197,0,197,0,,,,,,,197,,,0.2,1076.7115846246015,Y,d,go,d,1,0.3924955796683207,,,,,,,,,,,,,,,,,,43,001,19,w,Psychologie,2023-01-18_12h00.01.356,00_bat_bachelor,2022.2.4,59.96252527238995,
,,,,,,,,,,,,1,0,1,0,198,0,198,0,,,,,,,198,,,0.2,1077.4121758000692,X,l,go,l,1,0.3804209189256653,,,,,,,,,,,,,,,,,,43,001,19,w,Psychologie,2023-01-18_12h00.01.356,00_bat_bachelor,2022.2.4,59.96252527238995,
,,,,,,,,,,,,1,0,1,0,199,0,199,0,,,,,,,199,,,0.2,1078.0957589838654,X,None,nogo,None,1,,1078.8965358077548,,,,,,,,,,,,,,,,,43,001,19,w,Psychologie,2023-01-18_12h00.01.356,00_bat_bachelor,2022.2.4,59.96252527238995,
,,,,,,,,,,,,1,0,1,0,200,0,200,0,,,,,,,200,,,0.2,1079.0969415287254,Y,d,go,d,1,0.39096927735954523,,,,,,,,,,,,,,,,,,43,001,19,w,Psychologie,2023-01-18_12h00.01.356,00_bat_bachelor,2022.2.4,59.96252527238995,
,,,,,,,,,,,,1,0,1,0,201,0,201,0,,,,,,,201,,,0.2,1079.7973402194912,X,l,go,l,1,0.6664901134790853,,,,,,,,,,,,,,,,,,43,001,19,w,Psychologie,2023-01-18_12h00.01.356,00_bat_bachelor,2022.2.4,59.96252527238995,
,,,,,,,,,,,,1,0,1,0,202,0,202,0,,,,,,,202,,,0.2,1080.7646755080204,Y,d,go,d,1,0.5308455731719732,,,,,,,,,,,,,,,,,,43,001,19,w,Psychologie,2023-01-18_12h00.01.356,00_bat_bachelor,2022.2.4,59.96252527238995,
,,,,,,,,,,,,1,0,1,0,203,0,203,0,,,,,,,203,,,0.2,1081.5987046794035,X,l,go,l,1,0.4329013782553375,,,,,,,,,,,,,,,,,,43,001,19,w,Psychologie,2023-01-18_12h00.01.356,00_bat_bachelor,2022.2.4,59.96252527238995,
