loop_instruction.thisRepN,loop_instruction.thisTrialN,loop_instruction.thisN,loop_instruction.thisIndex,loop_rsi_practice.thisRepN,loop_rsi_practice.thisTrialN,loop_rsi_practice.thisN,loop_rsi_practice.thisIndex,loop_practice.thisRepN,loop_practice.thisTrialN,loop_practice.thisN,loop_practice.thisIndex,loop_exp.thisRepN,loop_exp.thisTrialN,loop_exp.thisN,loop_exp.thisIndex,loop_trials.thisRepN,loop_trials.thisTrialN,loop_trials.thisN,loop_trials.thisIndex,map_condition,map_x_key,map_y_key,key_resp_welcome.started,key_resp_welcome.keys,key_resp_welcome.rt,index,text_empty_rsi_practice.started,text_empty_rsi_practice.stopped,rsi,stimulus.started,stimulus,correct,trial_type,key_resp_trial.keys,key_resp_trial.corr,key_resp_trial.rt,stimulus.stopped,key_resp_instruction_rsi.started,key_resp_instruction_rsi.keys,key_resp_instruction_rsi.rt,key_resp_instruction_rsi.stopped,key_resp_instruction_final.started,key_resp_instruction_final.keys,key_resp_instruction_final.rt,key_resp_break.started,key_resp_break.keys,key_resp_break.rt,key_resp_break.stopped,key_resp_end_screen.started,image_end_screen.started,key_resp_end_screen.keys,key_resp_end_screen.rt,participant,session,Alter,Geschlecht (w/m/d/andere),Studiengang,date,expName,psychopyVersion,frameRate,
,,,,0,0,0,0,0,0,0,0,,,,,,,,,0,d,l,1162.0050269066414,j,6.5483731821295805,0,1168.5731652978575,1169.5875235939166,1,1169.5875235939166,X,d,go,None,0,,,,,,,,,,,,,,,,,,44,001, 22,m,Psychologie,2023-01-18_13h30.28.953,00_bat_bachelor,2022.2.4,59.96496594882416,
,,,,0,0,0,0,1,0,1,0,,,,,,,,,,,,,,,1,1170.9885944297712,1171.9890492174309,1,1171.9890492174309,Y,l,go,d,0,0.39970804209588096,,,,,,,,,,,,,,,,,44,001, 22,m,Psychologie,2023-01-18_13h30.28.953,00_bat_bachelor,2022.2.4,59.96496594882416,
,,,,0,0,0,0,2,0,2,0,,,,,,,,,,,,,,,2,1173.090109047218,1174.0909643195337,1,1174.0909643195337,X,d,go,d,1,0.6504594356520101,,,,,,,,,,,,,,,,,44,001, 22,m,Psychologie,2023-01-18_13h30.28.953,00_bat_bachelor,2022.2.4,59.96496594882416,
,,,,0,0,0,0,3,0,3,0,,,,,,,,,,,,,,,3,1175.4593782015145,1176.459957595158,1,1176.459957595158,Y,l,go,l,1,0.5201957412355114,,,,,,,,,,,,,,,,,44,001, 22,m,Psychologie,2023-01-18_13h30.28.953,00_bat_bachelor,2022.2.4,59.96496594882416,
,,,,0,0,0,0,4,0,4,0,,,,,,,,,,,,,,,4,1177.7110900794505,1178.711907048768,1,1178.711907048768,Y,None,nogo,l,0,0.4618815876892768,,,,,,,,,,,,,,,,,44,001, 22,m,Psychologie,2023-01-18_13h30.28.953,00_bat_bachelor,2022.2.4,59.96496594882416,
,,,,0,0,0,0,5,0,5,0,,,,,,,,,,,,,,,5,1180.3124333030428,1181.3132716056716,1,1181.3132716056716,X,d,go,d,1,0.643871317646699,,,,,,,,,,,,,,,,,44,001, 22,m,Psychologie,2023-01-18_13h30.28.953,00_bat_bachelor,2022.2.4,59.96496594882416,
,,,,0,0,0,0,6,0,6,0,,,,,,,,,,,,,,,6,1182.6642842839647,1183.6649281624414,1,1183.6649281624414,Y,l,go,l,1,0.5171402275736909,,,,,,,,,,,,,,,,,44,001, 22,m,Psychologie,2023-01-18_13h30.28.953,00_bat_bachelor,2022.2.4,59.96496594882416,
,,,,0,0,0,0,7,0,7,0,,,,,,,,,,,,,,,7,1184.882551329676,1185.8829489052296,1,1185.8829489052296,X,d,go,d,1,0.4255814841017127,,,,,,,,,,,,,,,,,44,001, 22,m,Psychologie,2023-01-18_13h30.28.953,00_bat_bachelor,2022.2.4,59.96496594882416,
,,,,0,0,0,0,8,0,8,0,,,,,,,,,,,,,,,8,1187.0173881127848,1188.0182065366243,1,1188.0182065366243,Y,l,go,l,1,0.5787673492159229,,,,,,,,,,,,,,,,,44,001, 22,m,Psychologie,2023-01-18_13h30.28.953,00_bat_bachelor,2022.2.4,59.96496594882416,
,,,,0,0,0,0,9,0,9,0,,,,,,,,,,,,,,,9,1189.3021637322672,1190.303195004497,1,1190.303195004497,Y,None,nogo,None,1,,,,,,,,,,,,,,,,,,44,001, 22,m,Psychologie,2023-01-18_13h30.28.953,00_bat_bachelor,2022.2.4,59.96496594882416,
,,,,0,0,0,0,10,0,10,0,,,,,,,,,,,,,,,10,1191.7041082646756,1192.704822930973,1,1192.704822930973,X,d,go,d,1,0.3082545106881298,,,,,,,,,,,,,,,,,44,001, 22,m,Psychologie,2023-01-18_13h30.28.953,00_bat_bachelor,2022.2.4,59.96496594882416,
,,,,0,0,0,0,11,0,11,0,,,,,,,,,,,,,,,11,1193.722605710238,1194.7231894675351,1,1194.7231894675351,Y,l,go,l,1,0.5137181686295662,,,,,,,,,,,,,,,,,44,001, 22,m,Psychologie,2023-01-18_13h30.28.953,00_bat_bachelor,2022.2.4,59.96496594882416,
,,,,0,0,0,0,12,0,12,0,,,,,,,,,,,,,,,12,1195.9405614833522,1196.9414977253182,1,1196.9414977253182,X,d,go,d,1,0.6309030815027654,,,,,,,,,,,,,,,,,44,001, 22,m,Psychologie,2023-01-18_13h30.28.953,00_bat_bachelor,2022.2.4,59.96496594882416,
,,,,0,0,0,0,13,0,13,0,,,,,,,,,,,,,,,13,1198.2758262905118,1199.2769273808808,1,1199.2769273808808,Y,l,go,l,1,0.40873397709219716,,,,,,,,,,,,,,,,,44,001, 22,m,Psychologie,2023-01-18_13h30.28.953,00_bat_bachelor,2022.2.4,59.96496594882416,
,,,,0,0,0,0,14,0,14,0,,,,,,,,,,,,,,,14,1200.3944027178513,1201.39520077809,1,1201.39520077809,Y,None,nogo,None,1,,1202.1960595413111,,,,,,,,,,,,,,,,44,001, 22,m,Psychologie,2023-01-18_13h30.28.953,00_bat_bachelor,2022.2.4,59.96496594882416,
,,,,1,0,1,0,0,0,0,0,,,,,,,,,,,,,,,0,1224.0958462565613,1224.2958563413995,0.2,1224.2958563413995,X,d,go,None,0,,1225.0965764380235,1202.817214149225,j,21.255135021259775,,,,,,,,,,,,,44,001, 22,m,Psychologie,2023-01-18_13h30.28.953,00_bat_bachelor,2022.2.4,59.96496594882416,
,,,,1,0,1,0,1,0,1,0,,,,,,,,,,,,,,,1,1225.697019783256,1225.8972553225467,0.2,1225.8972553225467,Y,l,go,l,1,0.5564182691450696,,,,,,,,,,,,,,,,,44,001, 22,m,Psychologie,2023-01-18_13h30.28.953,00_bat_bachelor,2022.2.4,59.96496594882416,
,,,,1,0,1,0,2,0,2,0,,,,,,,,,,,,,,,2,1227.164674829255,1227.3650572775514,0.2,1227.3650572775514,X,d,go,d,1,0.46470485904137604,,,,,,,,,,,,,,,,,44,001, 22,m,Psychologie,2023-01-18_13h30.28.953,00_bat_bachelor,2022.2.4,59.96496594882416,
,,,,1,0,1,0,3,0,3,0,,,,,,,,,,,,,,,3,1228.532563620567,1228.7327235235134,0.2,1228.7327235235134,Y,l,go,l,1,0.5682917179365177,,,,,,,,,,,,,,,,,44,001, 22,m,Psychologie,2023-01-18_13h30.28.953,00_bat_bachelor,2022.2.4,59.96496594882416,
,,,,1,0,1,0,4,0,4,0,,,,,,,,,,,,,,,4,1230.0168644766673,1230.2169710463204,0.2,1230.2169710463204,Y,None,nogo,None,1,,1231.0178036277357,,,,,,,,,,,,,,,,44,001, 22,m,Psychologie,2023-01-18_13h30.28.953,00_bat_bachelor,2022.2.4,59.96496594882416,
,,,,1,0,1,0,5,0,5,0,,,,,,,,,,,,,,,5,1231.6182135184354,1231.8184325728798,0.2,1231.8184325728798,X,d,go,d,1,0.2672707729798276,,,,,,,,,,,,,,,,,44,001, 22,m,Psychologie,2023-01-18_13h30.28.953,00_bat_bachelor,2022.2.4,59.96496594882416,
,,,,1,0,1,0,6,0,6,0,,,,,,,,,,,,,,,6,1232.8023065200832,1233.0025677563099,0.2,1233.0025677563099,Y,l,go,l,1,0.5538888158043846,,,,,,,,,,,,,,,,,44,001, 22,m,Psychologie,2023-01-18_13h30.28.953,00_bat_bachelor,2022.2.4,59.96496594882416,
,,,,1,0,1,0,7,0,7,0,,,,,,,,,,,,,,,7,1234.270210293238,1234.4701937114005,0.2,1234.4701937114005,X,d,go,d,1,0.46346898085903376,,,,,,,,,,,,,,,,,44,001, 22,m,Psychologie,2023-01-18_13h30.28.953,00_bat_bachelor,2022.2.4,59.96496594882416,
,,,,1,0,1,0,8,0,8,0,,,,,,,,,,,,,,,8,1235.6379201755335,1235.8379229876737,0.2,1235.8379229876737,X,None,nogo,None,1,,1236.63854417525,,,,,,,,,,,,,,,,44,001, 22,m,Psychologie,2023-01-18_13h30.28.953,00_bat_bachelor,2022.2.4,59.96496594882416,
,,,,1,0,1,0,9,0,9,0,,,,,,,,,,,,,,,9,1237.238975884131,1237.439253120363,0.2,1237.439253120363,Y,l,go,l,1,0.2947650626592804,,,,,,,,,,,,,,,,,44,001, 22,m,Psychologie,2023-01-18_13h30.28.953,00_bat_bachelor,2022.2.4,59.96496594882416,
,,,,1,0,1,0,10,0,10,0,,,,,,,,,,,,,,,10,1238.43988730188,1238.6400539926835,0.2,1238.6400539926835,X,d,go,d,1,0.45340789484907873,,,,,,,,,,,,,,,,,44,001, 22,m,Psychologie,2023-01-18_13h30.28.953,00_bat_bachelor,2022.2.4,59.96496594882416,
,,,,1,0,1,0,11,0,11,0,,,,,,,,,,,,,,,11,1239.8077319719887,1240.0075020569493,0.2,1240.0075020569493,Y,l,go,l,1,0.5250190116348676,,,,,,,,,,,,,,,,,44,001, 22,m,Psychologie,2023-01-18_13h30.28.953,00_bat_bachelor,2022.2.4,59.96496594882416,
,,,,1,0,1,0,12,0,12,0,,,,,,,,,,,,,,,12,1241.2421341856243,1241.441946937237,0.2,1241.441946937237,Y,None,nogo,None,1,,,,,,,,,,,,,,,,,,44,001, 22,m,Psychologie,2023-01-18_13h30.28.953,00_bat_bachelor,2022.2.4,59.96496594882416,
,,,,1,0,1,0,13,0,13,0,,,,,,,,,,,,,,,13,1242.8433620153228,1243.0434894334467,0.2,1243.0434894334467,X,d,go,d,1,0.6584007651545107,,,,,,,,,,,,,,,,,44,001, 22,m,Psychologie,2023-01-18_13h30.28.953,00_bat_bachelor,2022.2.4,59.96496594882416,
,,,,1,0,1,0,14,0,14,0,,,,,,,,,,,,,,,14,1244.4112298612017,1244.6112855217943,0.2,1244.6112855217943,Y,l,go,l,1,0.35440285195363685,,,,,,,,,,,,,,,,,44,001, 22,m,Psychologie,2023-01-18_13h30.28.953,00_bat_bachelor,2022.2.4,59.96496594882416,
,,,,,,,,,,,,,,,,,,,,,,,,,,,,,,,,,,,,,,1245.7082255959976,None,,1245.7082255959976,1245.7082255959976,space,11.243997087265598,,,,,,,,,44,001, 22,m,Psychologie,2023-01-18_13h30.28.953,00_bat_bachelor,2022.2.4,59.96496594882416,
,,,,,,,,,,,,0,0,0,0,0,0,0,0,,,,,,,0,,,1,1257.9714031653712,X,d,go,d,1,0.5297719790250994,,,,,,,,,,,,,,,,,44,001, 22,m,Psychologie,2023-01-18_13h30.28.953,00_bat_bachelor,2022.2.4,59.96496594882416,
,,,,,,,,,,,,0,0,0,0,1,0,1,0,,,,,,,1,,,1,1259.6061262515723,Y,l,go,l,1,0.28707197550102137,,,,,,,,,,,,,,,,,44,001, 22,m,Psychologie,2023-01-18_13h30.28.953,00_bat_bachelor,2022.2.4,59.96496594882416,
,,,,,,,,,,,,0,0,0,0,2,0,2,0,,,,,,,2,,,1,1261.0069342996576,X,d,go,d,1,0.4856517580046784,,,,,,,,,,,,,,,,,44,001, 22,m,Psychologie,2023-01-18_13h30.28.953,00_bat_bachelor,2022.2.4,59.96496594882416,
,,,,,,,,,,,,0,0,0,0,3,0,3,0,,,,,,,3,,,1,1262.6083909777517,X,None,nogo,None,1,,,,,,,,,,,,,,,,,,44,001, 22,m,Psychologie,2023-01-18_13h30.28.953,00_bat_bachelor,2022.2.4,59.96496594882416,
,,,,,,,,,,,,0,0,0,0,4,0,4,0,,,,,,,4,,,1,1264.4093985893705,Y,l,go,l,1,0.23526254604803398,,,,,,,,,,,,,,,,,44,001, 22,m,Psychologie,2023-01-18_13h30.28.953,00_bat_bachelor,2022.2.4,59.96496594882416,
,,,,,,,,,,,,0,0,0,0,5,0,5,0,,,,,,,5,,,1,1265.7607598735776,X,d,go,d,1,0.4210816074919421,,,,,,,,,,,,,,,,,44,001, 22,m,Psychologie,2023-01-18_13h30.28.953,00_bat_bachelor,2022.2.4,59.96496594882416,
,,,,,,,,,,,,0,0,0,0,6,0,6,0,,,,,,,6,,,1,1267.2952885841078,Y,l,go,l,1,0.614234483538894,,,,,,,,,,,,,,,,,44,001, 22,m,Psychologie,2023-01-18_13h30.28.953,00_bat_bachelor,2022.2.4,59.96496594882416,
,,,,,,,,,,,,0,0,0,0,7,0,7,0,,,,,,,7,,,1,1269.01317575117,Y,None,nogo,None,1,,,,,,,,,,,,,,,,,,44,001, 22,m,Psychologie,2023-01-18_13h30.28.953,00_bat_bachelor,2022.2.4,59.96496594882416,
,,,,,,,,,,,,0,0,0,0,8,0,8,0,,,,,,,8,,,1,1270.814570756571,X,d,go,d,1,0.42281542482669465,,,,,,,,,,,,,,,,,44,001, 22,m,Psychologie,2023-01-18_13h30.28.953,00_bat_bachelor,2022.2.4,59.96496594882416,
,,,,,,,,,,,,0,0,0,0,9,0,9,0,,,,,,,9,,,1,1272.3488255278207,Y,l,go,l,1,0.55195087735774,,,,,,,,,,,,,,,,,44,001, 22,m,Psychologie,2023-01-18_13h30.28.953,00_bat_bachelor,2022.2.4,59.96496594882416,
,,,,,,,,,,,,0,0,0,0,10,0,10,0,,,,,,,10,,,1,1274.0167781736818,Y,None,nogo,None,1,,1274.8176636035496,,,,,,,,,,,,,,,,44,001, 22,m,Psychologie,2023-01-18_13h30.28.953,00_bat_bachelor,2022.2.4,59.96496594882416,
,,,,,,,,,,,,0,0,0,0,11,0,11,0,,,,,,,11,,,1,1275.818191118451,Y,None,nogo,l,0,0.379146112682065,,,,,,,,,,,,,,,,,44,001, 22,m,Psychologie,2023-01-18_13h30.28.953,00_bat_bachelor,2022.2.4,59.96496594882416,
,,,,,,,,,,,,0,0,0,0,12,0,12,0,,,,,,,12,,,1,1277.3029453076597,X,d,go,d,1,0.4620958906307351,,,,,,,,,,,,,,,,,44,001, 22,m,Psychologie,2023-01-18_13h30.28.953,00_bat_bachelor,2022.2.4,59.96496594882416,
,,,,,,,,,,,,0,0,0,0,13,0,13,0,,,,,,,13,,,1,1278.8707127899397,Y,l,go,l,1,0.41458561064791866,,,,,,,,,,,,,,,,,44,001, 22,m,Psychologie,2023-01-18_13h30.28.953,00_bat_bachelor,2022.2.4,59.96496594882416,
,,,,,,,,,,,,0,0,0,0,14,0,14,0,,,,,,,14,,,1,1280.3882931450498,X,d,go,d,1,0.48032569998758845,,,,,,,,,,,,,,,,,44,001, 22,m,Psychologie,2023-01-18_13h30.28.953,00_bat_bachelor,2022.2.4,59.96496594882416,
,,,,,,,,,,,,0,0,0,0,15,0,15,0,,,,,,,15,,,1,1281.9730817100208,Y,l,go,l,1,0.4476425643078983,,,,,,,,,,,,,,,,,44,001, 22,m,Psychologie,2023-01-18_13h30.28.953,00_bat_bachelor,2022.2.4,59.96496594882416,
,,,,,,,,,,,,0,0,0,0,16,0,16,0,,,,,,,16,,,1,1283.5242436245899,Y,None,nogo,None,1,,,,,,,,,,,,,,,,,,44,001, 22,m,Psychologie,2023-01-18_13h30.28.953,00_bat_bachelor,2022.2.4,59.96496594882416,
,,,,,,,,,,,,0,0,0,0,17,0,17,0,,,,,,,17,,,1,1285.3257288117602,X,d,go,d,1,0.20003686618292704,,,,,,,,,,,,,,,,,44,001, 22,m,Psychologie,2023-01-18_13h30.28.953,00_bat_bachelor,2022.2.4,59.96496594882416,
,,,,,,,,,,,,0,0,0,0,18,0,18,0,,,,,,,18,,,1,1286.626634847693,Y,l,go,l,1,0.5945443112577777,,,,,,,,,,,,,,,,,44,001, 22,m,Psychologie,2023-01-18_13h30.28.953,00_bat_bachelor,2022.2.4,59.96496594882416,
,,,,,,,,,,,,0,0,0,0,19,0,19,0,,,,,,,19,,,1,1288.3279106288974,Y,None,nogo,l,0,0.46103649720316753,,,,,,,,,,,,,,,,,44,001, 22,m,Psychologie,2023-01-18_13h30.28.953,00_bat_bachelor,2022.2.4,59.96496594882416,
,,,,,,,,,,,,0,0,0,0,20,0,20,0,,,,,,,20,,,1,1289.8957964141446,X,d,go,d,1,0.5574374201532919,,,,,,,,,,,,,,,,,44,001, 22,m,Psychologie,2023-01-18_13h30.28.953,00_bat_bachelor,2022.2.4,59.96496594882416,
,,,,,,,,,,,,0,0,0,0,21,0,21,0,,,,,,,21,,,1,1291.563813059969,Y,l,go,l,1,0.47375018801540136,,,,,,,,,,,,,,,,,44,001, 22,m,Psychologie,2023-01-18_13h30.28.953,00_bat_bachelor,2022.2.4,59.96496594882416,
,,,,,,,,,,,,0,0,0,0,22,0,22,0,,,,,,,22,,,1,1293.14834756442,X,d,go,d,1,0.5530054222908802,,,,,,,,,,,,,,,,,44,001, 22,m,Psychologie,2023-01-18_13h30.28.953,00_bat_bachelor,2022.2.4,59.96496594882416,
,,,,,,,,,,,,0,0,0,0,23,0,23,0,,,,,,,23,,,1,1294.8160674831015,Y,l,go,l,1,0.46882703885785304,,,,,,,,,,,,,,,,,44,001, 22,m,Psychologie,2023-01-18_13h30.28.953,00_bat_bachelor,2022.2.4,59.96496594882416,
,,,,,,,,,,,,0,0,0,0,24,0,24,0,,,,,,,24,,,1,1296.4007949571824,X,d,go,d,1,0.3719034495006781,,,,,,,,,,,,,,,,,44,001, 22,m,Psychologie,2023-01-18_13h30.28.953,00_bat_bachelor,2022.2.4,59.96496594882416,
,,,,,,,,,,,,0,0,0,0,25,0,25,0,,,,,,,25,,,1,1297.8851733889896,Y,l,go,l,1,0.455832136067329,,,,,,,,,,,,,,,,,44,001, 22,m,Psychologie,2023-01-18_13h30.28.953,00_bat_bachelor,2022.2.4,59.96496594882416,
,,,,,,,,,,,,0,0,0,0,26,0,26,0,,,,,,,26,,,1,1299.4531643863302,Y,None,nogo,None,1,,,,,,,,,,,,,,,,,,44,001, 22,m,Psychologie,2023-01-18_13h30.28.953,00_bat_bachelor,2022.2.4,59.96496594882416,
,,,,,,,,,,,,0,0,0,0,27,0,27,0,,,,,,,27,,,1,1301.2551242399204,X,d,go,d,1,0.28589864273089916,,,,,,,,,,,,,,,,,44,001, 22,m,Psychologie,2023-01-18_13h30.28.953,00_bat_bachelor,2022.2.4,59.96496594882416,
,,,,,,,,,,,,0,0,0,0,28,0,28,0,,,,,,,28,,,1,1302.6563356817642,Y,l,go,l,1,0.3561720632133074,,,,,,,,,,,,,,,,,44,001, 22,m,Psychologie,2023-01-18_13h30.28.953,00_bat_bachelor,2022.2.4,59.96496594882416,
,,,,,,,,,,,,0,0,0,0,29,0,29,0,,,,,,,29,,,1,1304.1571470753115,X,d,go,d,1,0.4866738181153778,,,,,,,,,,,,,,,,,44,001, 22,m,Psychologie,2023-01-18_13h30.28.953,00_bat_bachelor,2022.2.4,59.96496594882416,
,,,,,,,,,,,,0,0,0,0,30,0,30,0,,,,,,,30,,,1,1305.7750464121054,Y,l,go,l,1,0.3893177441204898,,,,,,,,,,,,,,,,,44,001, 22,m,Psychologie,2023-01-18_13h30.28.953,00_bat_bachelor,2022.2.4,59.96496594882416,
,,,,,,,,,,,,0,0,0,0,31,0,31,0,,,,,,,31,,,1,1307.293067009421,X,d,go,d,1,0.45646874184603803,,,,,,,,,,,,,,,,,44,001, 22,m,Psychologie,2023-01-18_13h30.28.953,00_bat_bachelor,2022.2.4,59.96496594882416,
,,,,,,,,,,,,0,0,0,0,32,0,32,0,,,,,,,32,,,1,1308.8606929160305,Y,l,go,l,1,0.43941323496983387,,,,,,,,,,,,,,,,,44,001, 22,m,Psychologie,2023-01-18_13h30.28.953,00_bat_bachelor,2022.2.4,59.96496594882416,
,,,,,,,,,,,,0,0,0,0,33,0,33,0,,,,,,,33,,,1,1310.4453069356096,X,d,go,d,1,0.3433298876043409,,,,,,,,,,,,,,,,,44,001, 22,m,Psychologie,2023-01-18_13h30.28.953,00_bat_bachelor,2022.2.4,59.96496594882416,
,,,,,,,,,,,,0,0,0,0,34,0,34,0,,,,,,,34,,,1,1311.912974102801,Y,l,go,l,1,0.4586646195675712,,,,,,,,,,,,,,,,,44,001, 22,m,Psychologie,2023-01-18_13h30.28.953,00_bat_bachelor,2022.2.4,59.96496594882416,
,,,,,,,,,,,,0,0,0,0,35,0,35,0,,,,,,,35,,,1,1313.4976133344753,X,d,go,d,1,0.3151151133934036,,,,,,,,,,,,,,,,,44,001, 22,m,Psychologie,2023-01-18_13h30.28.953,00_bat_bachelor,2022.2.4,59.96496594882416,
,,,,,,,,,,,,0,0,0,0,36,0,36,0,,,,,,,36,,,1,1314.9156412530283,Y,l,go,l,1,0.44984232081333175,,,,,,,,,,,,,,,,,44,001, 22,m,Psychologie,2023-01-18_13h30.28.953,00_bat_bachelor,2022.2.4,59.96496594882416,
,,,,,,,,,,,,0,0,0,0,37,0,37,0,,,,,,,37,,,1,1316.4666882585734,X,d,go,d,1,0.5458466378913727,,,,,,,,,,,,,,,,,44,001, 22,m,Psychologie,2023-01-18_13h30.28.953,00_bat_bachelor,2022.2.4,59.96496594882416,
,,,,,,,,,,,,0,0,0,0,38,0,38,0,,,,,,,38,,,1,1318.1348207831034,X,None,nogo,None,1,,1318.9350812436023,,,,,,,,,,,,,,,,44,001, 22,m,Psychologie,2023-01-18_13h30.28.953,00_bat_bachelor,2022.2.4,59.96496594882416,
,,,,,,,,,,,,0,0,0,0,39,0,39,0,,,,,,,39,,,1,1319.9358070614107,Y,l,go,l,1,0.24552241986384615,,,,,,,,,,,,,,,,,44,001, 22,m,Psychologie,2023-01-18_13h30.28.953,00_bat_bachelor,2022.2.4,59.96496594882416,
,,,,,,,,,,,,0,0,0,0,40,0,40,0,,,,,,,40,,,1,1321.286706285231,X,d,go,d,1,0.47886873097741045,,,,,,,,,,,,,,,,,44,001, 22,m,Psychologie,2023-01-18_13h30.28.953,00_bat_bachelor,2022.2.4,59.96496594882416,
,,,,,,,,,,,,0,0,0,0,41,0,41,0,,,,,,,41,,,1,1322.8712504866708,Y,l,go,l,1,0.5425205789215397,,,,,,,,,,,,,,,,,44,001, 22,m,Psychologie,2023-01-18_13h30.28.953,00_bat_bachelor,2022.2.4,59.96496594882416,
,,,,,,,,,,,,0,0,0,0,42,0,42,0,,,,,,,42,,,1,1324.522311989189,X,d,go,d,1,0.37964744574856013,,,,,,,,,,,,,,,,,44,001, 22,m,Psychologie,2023-01-18_13h30.28.953,00_bat_bachelor,2022.2.4,59.96496594882416,
,,,,,,,,,,,,0,0,0,0,43,0,43,0,,,,,,,43,,,1,1326.0067175724835,X,None,nogo,None,1,,,,,,,,,,,,,,,,,,44,001, 22,m,Psychologie,2023-01-18_13h30.28.953,00_bat_bachelor,2022.2.4,59.96496594882416,
,,,,,,,,,,,,0,0,0,0,44,0,44,0,,,,,,,44,,,1,1327.8078497901151,Y,l,go,l,1,0.2928033666394185,,,,,,,,,,,,,,,,,44,001, 22,m,Psychologie,2023-01-18_13h30.28.953,00_bat_bachelor,2022.2.4,59.96496594882416,
,,,,,,,,,,,,0,0,0,0,45,0,45,0,,,,,,,45,,,1,1329.2089356562647,X,d,go,d,1,0.5075688382785302,,,,,,,,,,,,,,,,,44,001, 22,m,Psychologie,2023-01-18_13h30.28.953,00_bat_bachelor,2022.2.4,59.96496594882416,
,,,,,,,,,,,,0,0,0,0,46,0,46,0,,,,,,,46,,,1,1330.8267166900623,Y,l,go,l,1,0.5056614452623762,,,,,,,,,,,,,,,,,44,001, 22,m,Psychologie,2023-01-18_13h30.28.953,00_bat_bachelor,2022.2.4,59.96496594882416,
,,,,,,,,,,,,0,0,0,0,47,0,47,0,,,,,,,47,,,1,1332.4449374812248,X,d,go,d,1,0.3444324325246271,,,,,,,,,,,,,,,,,44,001, 22,m,Psychologie,2023-01-18_13h30.28.953,00_bat_bachelor,2022.2.4,59.96496594882416,
,,,,,,,,,,,,0,0,0,0,48,0,48,0,,,,,,,48,,,1,1333.89568053541,Y,l,go,l,1,0.5736056547611952,,,,,,,,,,,,,,,,,44,001, 22,m,Psychologie,2023-01-18_13h30.28.953,00_bat_bachelor,2022.2.4,59.96496594882416,
,,,,,,,,,,,,0,0,0,0,49,0,49,0,,,,,,,49,,,1,1335.5805572942772,Y,None,nogo,None,1,,,,,,,,,,,,,,,,,,44,001, 22,m,Psychologie,2023-01-18_13h30.28.953,00_bat_bachelor,2022.2.4,59.96496594882416,
,,,,,,,,,,,,0,0,0,0,50,0,50,0,,,,,,,50,,,1,1337.3816623603925,X,d,go,d,1,0.3512130352901295,,,,,,,,,,,,,,,,,44,001, 22,m,Psychologie,2023-01-18_13h30.28.953,00_bat_bachelor,2022.2.4,59.96496594882416,
,,,,,,,,,,,,0,0,0,0,51,0,51,0,,,,,,,51,,,1,1338.8498987394269,Y,l,go,l,1,0.6437758025422227,,,,,,,,,,,,,,,,,44,001, 22,m,Psychologie,2023-01-18_13h30.28.953,00_bat_bachelor,2022.2.4,59.96496594882416,
,,,,,,,,,,,,0,0,0,0,52,0,52,0,,,,,,,52,,,1,1340.60108770855,X,d,go,d,1,0.49161539145279676,,,,,,,,,,,,,,,,,44,001, 22,m,Psychologie,2023-01-18_13h30.28.953,00_bat_bachelor,2022.2.4,59.96496594882416,
,,,,,,,,,,,,0,0,0,0,53,0,53,0,,,,,,,53,,,1,1342.202233114047,X,None,nogo,None,1,,,,,,,,,,,,,,,,,,44,001, 22,m,Psychologie,2023-01-18_13h30.28.953,00_bat_bachelor,2022.2.4,59.96496594882416,
,,,,,,,,,,,,0,0,0,0,54,0,54,0,,,,,,,54,,,1,1344.0036858163949,Y,l,go,l,1,0.2415689672343433,,,,,,,,,,,,,,,,,44,001, 22,m,Psychologie,2023-01-18_13h30.28.953,00_bat_bachelor,2022.2.4,59.96496594882416,
,,,,,,,,,,,,0,0,0,0,55,0,55,0,,,,,,,55,,,1,1345.354394009977,X,d,go,d,1,0.3787107189418748,,,,,,,,,,,,,,,,,44,001, 22,m,Psychologie,2023-01-18_13h30.28.953,00_bat_bachelor,2022.2.4,59.96496594882416,
,,,,,,,,,,,,0,0,0,0,56,0,56,0,,,,,,,56,,,1,1346.8392112294678,Y,l,go,l,1,0.3983402851736173,,,,,,,,,,,,,,,,,44,001, 22,m,Psychologie,2023-01-18_13h30.28.953,00_bat_bachelor,2022.2.4,59.96496594882416,
,,,,,,,,,,,,0,0,0,0,57,0,57,0,,,,,,,57,,,1,1348.3403886834276,X,d,go,None,0,,,,,,,,,,,,,,,,,,44,001, 22,m,Psychologie,2023-01-18_13h30.28.953,00_bat_bachelor,2022.2.4,59.96496594882416,
,,,,,,,,,,,,0,0,0,0,58,0,58,0,,,,,,,58,,,1,1350.1417337494495,Y,l,go,l,1,0.4230200307792984,,,,,,,,,,,,,,,,,44,001, 22,m,Psychologie,2023-01-18_13h30.28.953,00_bat_bachelor,2022.2.4,59.96496594882416,
,,,,,,,,,,,,0,0,0,0,59,0,59,0,,,,,,,59,,,1,1351.6762930054392,Y,None,nogo,None,1,,,,,,,,,,,,,,,,,,44,001, 22,m,Psychologie,2023-01-18_13h30.28.953,00_bat_bachelor,2022.2.4,59.96496594882416,
,,,,,,,,,,,,0,0,0,0,60,0,60,0,,,,,,,60,,,1,1353.4775401320949,X,d,go,d,1,0.431989238539245,,,,,,,,,,,,,,,,,44,001, 22,m,Psychologie,2023-01-18_13h30.28.953,00_bat_bachelor,2022.2.4,59.96496594882416,
,,,,,,,,,,,,0,0,0,0,61,0,61,0,,,,,,,61,,,1,1355.0120766001928,Y,l,go,l,1,0.30439075495814905,,,,,,,,,,,,,,,,,44,001, 22,m,Psychologie,2023-01-18_13h30.28.953,00_bat_bachelor,2022.2.4,59.96496594882416,
,,,,,,,,,,,,0,0,0,0,62,0,62,0,,,,,,,62,,,1,1356.429555185663,X,d,go,l,0,0.31182444834848866,,,,,,,,,,,,,,,,,44,001, 22,m,Psychologie,2023-01-18_13h30.28.953,00_bat_bachelor,2022.2.4,59.96496594882416,
,,,,,,,,,,,,0,0,0,0,63,0,63,0,,,,,,,63,,,1,1357.8475952254084,Y,l,go,l,1,0.5901166770490818,,,,,,,,,,,,,,,,,44,001, 22,m,Psychologie,2023-01-18_13h30.28.953,00_bat_bachelor,2022.2.4,59.96496594882416,
,,,,,,,,,,,,0,0,0,0,64,0,64,0,,,,,,,64,,,1,1359.5493243397214,Y,None,nogo,d,0,0.5042238702008035,,,,,,,,,,,,,,,,,44,001, 22,m,Psychologie,2023-01-18_13h30.28.953,00_bat_bachelor,2022.2.4,59.96496594882416,
,,,,,,,,,,,,0,0,0,0,65,0,65,0,,,,,,,65,,,1,1361.167168403801,X,d,go,None,0,,,,,,,,,,,,,,,,,,44,001, 22,m,Psychologie,2023-01-18_13h30.28.953,00_bat_bachelor,2022.2.4,59.96496594882416,
,,,,,,,,,,,,0,0,0,0,66,0,66,0,,,,,,,66,,,1,1362.9682312881341,Y,l,go,l,1,0.4606214671221096,,,,,,,,,,,,,,,,,44,001, 22,m,Psychologie,2023-01-18_13h30.28.953,00_bat_bachelor,2022.2.4,59.96496594882416,
,,,,,,,,,,,,0,0,0,0,67,0,67,0,,,,,,,67,,,1,1364.5362576793705,X,d,go,d,1,0.4295140882313717,,,,,,,,,,,,,,,,,44,001, 22,m,Psychologie,2023-01-18_13h30.28.953,00_bat_bachelor,2022.2.4,59.96496594882416,
,,,,,,,,,,,,0,0,0,0,68,0,68,0,,,,,,,68,,,1,1366.0705846930505,Y,l,go,l,1,0.5270970712299459,,,,,,,,,,,,,,,,,44,001, 22,m,Psychologie,2023-01-18_13h30.28.953,00_bat_bachelor,2022.2.4,59.96496594882416,
,,,,,,,,,,,,0,0,0,0,69,0,69,0,,,,,,,69,,,1,1367.705138082354,X,d,go,d,1,0.4918767246999778,,,,,,,,,,,,,,,,,44,001, 22,m,Psychologie,2023-01-18_13h30.28.953,00_bat_bachelor,2022.2.4,59.96496594882416,
,,,,,,,,,,,,0,0,0,0,70,0,70,0,,,,,,,70,,,1,1369.3062553666532,Y,l,go,l,1,0.4588866800768301,,,,,,,,,,,,,,,,,44,001, 22,m,Psychologie,2023-01-18_13h30.28.953,00_bat_bachelor,2022.2.4,59.96496594882416,
,,,,,,,,,,,,0,0,0,0,71,0,71,0,,,,,,,71,,,1,1370.8740965458855,Y,None,nogo,None,1,,,,,,,,,,,,,,,,,,44,001, 22,m,Psychologie,2023-01-18_13h30.28.953,00_bat_bachelor,2022.2.4,59.96496594882416,
,,,,,,,,,,,,0,0,0,0,72,0,72,0,,,,,,,72,,,1,1372.6752753089531,Y,None,nogo,None,1,,1373.4758819510753,,,,,,,,,,,,,,,,44,001, 22,m,Psychologie,2023-01-18_13h30.28.953,00_bat_bachelor,2022.2.4,59.96496594882416,
,,,,,,,,,,,,0,0,0,0,73,0,73,0,,,,,,,73,,,1,1374.4769301929919,X,d,go,d,1,0.3926748333906289,,,,,,,,,,,,,,,,,44,001, 22,m,Psychologie,2023-01-18_13h30.28.953,00_bat_bachelor,2022.2.4,59.96496594882416,
,,,,,,,,,,,,0,0,0,0,74,0,74,0,,,,,,,74,,,1,1375.9780358894204,Y,l,go,l,1,0.41075385492877103,,,,,,,,,,,,,,,,,44,001, 22,m,Psychologie,2023-01-18_13h30.28.953,00_bat_bachelor,2022.2.4,59.96496594882416,
,,,,,,,,,,,,0,0,0,0,75,0,75,0,,,,,,,75,,,1,1377.4959512746718,Y,None,nogo,l,0,0.42931336106266826,,,,,,,,,,,,,,,,,44,001, 22,m,Psychologie,2023-01-18_13h30.28.953,00_bat_bachelor,2022.2.4,59.96496594882416,
,,,,,,,,,,,,0,0,0,0,76,0,76,0,,,,,,,76,,,1,1379.0302414398757,X,d,go,d,1,0.5753210478578694,,,,,,,,,,,,,,,,,44,001, 22,m,Psychologie,2023-01-18_13h30.28.953,00_bat_bachelor,2022.2.4,59.96496594882416,
,,,,,,,,,,,,0,0,0,0,77,0,77,0,,,,,,,77,,,1,1380.715095410851,Y,l,go,l,1,0.6346601705881767,,,,,,,,,,,,,,,,,44,001, 22,m,Psychologie,2023-01-18_13h30.28.953,00_bat_bachelor,2022.2.4,59.96496594882416,
,,,,,,,,,,,,0,0,0,0,78,0,78,0,,,,,,,78,,,1,1382.4663420769211,Y,None,nogo,None,1,,,,,,,,,,,,,,,,,,44,001, 22,m,Psychologie,2023-01-18_13h30.28.953,00_bat_bachelor,2022.2.4,59.96496594882416,
,,,,,,,,,,,,0,0,0,0,79,0,79,0,,,,,,,79,,,1,1384.2677399913955,X,d,go,d,1,0.48966387726250105,,,,,,,,,,,,,,,,,44,001, 22,m,Psychologie,2023-01-18_13h30.28.953,00_bat_bachelor,2022.2.4,59.96496594882416,
,,,,,,,,,,,,0,0,0,0,80,0,80,0,,,,,,,80,,,1,1385.8688645484217,Y,l,go,l,1,0.42384572737501003,,,,,,,,,,,,,,,,,44,001, 22,m,Psychologie,2023-01-18_13h30.28.953,00_bat_bachelor,2022.2.4,59.96496594882416,
,,,,,,,,,,,,0,0,0,0,81,0,81,0,,,,,,,81,,,1,1387.4034136225819,Y,None,nogo,None,1,,1388.203986810171,,,,,,,,,,,,,,,,44,001, 22,m,Psychologie,2023-01-18_13h30.28.953,00_bat_bachelor,2022.2.4,59.96496594882416,
,,,,,,,,,,,,0,0,0,0,82,0,82,0,,,,,,,82,,,1,1389.2046995371056,X,d,go,d,1,0.30525039092754014,,,,,,,,,,,,,,,,,44,001, 22,m,Psychologie,2023-01-18_13h30.28.953,00_bat_bachelor,2022.2.4,59.96496594882416,
,,,,,,,,,,,,0,0,0,0,83,0,83,0,,,,,,,83,,,1,1390.6226101223729,Y,l,go,l,1,0.5187610752764158,,,,,,,,,,,,,,,,,44,001, 22,m,Psychologie,2023-01-18_13h30.28.953,00_bat_bachelor,2022.2.4,59.96496594882416,
,,,,,,,,,,,,0,0,0,0,84,0,84,0,,,,,,,84,,,1,1392.2570941783779,X,d,go,d,1,0.5965530375833623,,,,,,,,,,,,,,,,,44,001, 22,m,Psychologie,2023-01-18_13h30.28.953,00_bat_bachelor,2022.2.4,59.96496594882416,
,,,,,,,,,,,,0,0,0,0,85,0,85,0,,,,,,,85,,,1,1393.9584882625495,Y,l,go,l,1,0.4789681248657871,,,,,,,,,,,,,,,,,44,001, 22,m,Psychologie,2023-01-18_13h30.28.953,00_bat_bachelor,2022.2.4,59.96496594882416,
,,,,,,,,,,,,0,0,0,0,86,0,86,0,,,,,,,86,,,1,1395.542910282209,X,d,go,d,1,0.6221947220910806,,,,,,,,,,,,,,,,,44,001, 22,m,Psychologie,2023-01-18_13h30.28.953,00_bat_bachelor,2022.2.4,59.96496594882416,
,,,,,,,,,,,,0,0,0,0,87,0,87,0,,,,,,,87,,,1,1397.277666774462,X,None,nogo,None,1,,,,,,,,,,,,,,,,,,44,001, 22,m,Psychologie,2023-01-18_13h30.28.953,00_bat_bachelor,2022.2.4,59.96496594882416,
,,,,,,,,,,,,0,0,0,0,88,0,88,0,,,,,,,88,,,1,1399.0786865073023,Y,l,go,l,1,0.25461526395520195,,,,,,,,,,,,,,,,,44,001, 22,m,Psychologie,2023-01-18_13h30.28.953,00_bat_bachelor,2022.2.4,59.96496594882416,
,,,,,,,,,,,,0,0,0,0,89,0,89,0,,,,,,,89,,,1,1400.4463687532698,X,d,go,d,1,0.3265337745542638,,,,,,,,,,,,,,,,,44,001, 22,m,Psychologie,2023-01-18_13h30.28.953,00_bat_bachelor,2022.2.4,59.96496594882416,
,,,,,,,,,,,,0,0,0,0,90,0,90,0,,,,,,,90,,,1,1401.8811496333801,Y,l,go,l,1,0.6202155715436675,,,,,,,,,,,,,,,,,44,001, 22,m,Psychologie,2023-01-18_13h30.28.953,00_bat_bachelor,2022.2.4,59.96496594882416,
,,,,,,,,,,,,0,0,0,0,91,0,91,0,,,,,,,91,,,1,1403.6154886712611,X,d,go,d,1,0.3570724263845477,,,,,,,,,,,,,,,,,44,001, 22,m,Psychologie,2023-01-18_13h30.28.953,00_bat_bachelor,2022.2.4,59.96496594882416,
,,,,,,,,,,,,0,0,0,0,92,0,92,0,,,,,,,92,,,1,1405.083633413975,X,None,nogo,None,1,,,,,,,,,,,,,,,,,,44,001, 22,m,Psychologie,2023-01-18_13h30.28.953,00_bat_bachelor,2022.2.4,59.96496594882416,
,,,,,,,,,,,,0,0,0,0,93,0,93,0,,,,,,,93,,,1,1406.8849901163485,Y,l,go,d,0,0.33604116388596594,,,,,,,,,,,,,,,,,44,001, 22,m,Psychologie,2023-01-18_13h30.28.953,00_bat_bachelor,2022.2.4,59.96496594882416,
,,,,,,,,,,,,0,0,0,0,94,0,94,0,,,,,,,94,,,1,1408.3360410491878,X,d,go,d,1,0.549792332953075,,,,,,,,,,,,,,,,,44,001, 22,m,Psychologie,2023-01-18_13h30.28.953,00_bat_bachelor,2022.2.4,59.96496594882416,
,,,,,,,,,,,,0,0,0,0,95,0,95,0,,,,,,,95,,,1,1409.9873154000961,Y,l,go,None,0,,,,,,,,,,,,,,,,,,44,001, 22,m,Psychologie,2023-01-18_13h30.28.953,00_bat_bachelor,2022.2.4,59.96496594882416,
,,,,,,,,,,,,0,0,0,0,96,0,96,0,,,,,,,96,,,1,1411.788690041838,Y,None,nogo,None,1,,,,,,,,,,,,,,,,,,44,001, 22,m,Psychologie,2023-01-18_13h30.28.953,00_bat_bachelor,2022.2.4,59.96496594882416,
,,,,,,,,,,,,0,0,0,0,97,0,97,0,,,,,,,97,,,1,1413.5900908654148,X,d,go,d,1,0.38356404993101023,,,,,,,,,,,,,,,,,44,001, 22,m,Psychologie,2023-01-18_13h30.28.953,00_bat_bachelor,2022.2.4,59.96496594882416,
,,,,,,,,,,,,0,0,0,0,98,0,98,0,,,,,,,98,,,1,1415.0745754789968,Y,l,go,l,1,0.402756767871324,,,,,,,,,,,,,,,,,44,001, 22,m,Psychologie,2023-01-18_13h30.28.953,00_bat_bachelor,2022.2.4,59.96496594882416,
,,,,,,,,,,,,0,0,0,0,99,0,99,0,,,,,,,99,,,1,1416.5920404402132,X,d,go,d,1,0.484780970524298,,,,,,,,,,,,,,,,,44,001, 22,m,Psychologie,2023-01-18_13h30.28.953,00_bat_bachelor,2022.2.4,59.96496594882416,
,,,,,,,,,,,,0,0,0,0,100,0,100,0,,,,,,,100,,,1,1418.1936129970418,Y,l,go,l,1,0.3074103898543399,,,,,,,,,,,,,,,,,44,001, 22,m,Psychologie,2023-01-18_13h30.28.953,00_bat_bachelor,2022.2.4,59.96496594882416,
,,,,,,,,,,,,0,0,0,0,101,0,101,0,,,,,,,101,,,1,1419.628677513363,X,d,go,d,1,0.39246731833554804,,,,,,,,,,,,,,,,,44,001, 22,m,Psychologie,2023-01-18_13h30.28.953,00_bat_bachelor,2022.2.4,59.96496594882416,
,,,,,,,,,,,,0,0,0,0,102,0,102,0,,,,,,,102,,,1,1421.1462947169493,X,None,nogo,None,1,,1421.9472048740718,,,,,,,,,,,,,,,,44,001, 22,m,Psychologie,2023-01-18_13h30.28.953,00_bat_bachelor,2022.2.4,59.96496594882416,
,,,,,,,,,,,,0,0,0,0,103,0,103,0,,,,,,,103,,,1,1422.9479782070266,X,None,nogo,d,0,0.49768908551777713,,,,,,,,,,,,,,,,,44,001, 22,m,Psychologie,2023-01-18_13h30.28.953,00_bat_bachelor,2022.2.4,59.96496594882416,
,,,,,,,,,,,,0,0,0,0,104,0,104,0,,,,,,,104,,,1,1424.5491148852743,Y,l,go,l,1,0.30420020961901173,,,,,,,,,,,,,,,,,44,001, 22,m,Psychologie,2023-01-18_13h30.28.953,00_bat_bachelor,2022.2.4,59.96496594882416,
,,,,,,,,,,,,0,0,0,0,105,0,105,0,,,,,,,105,,,1,1425.9666191676806,X,d,go,d,1,0.40541761508211493,,,,,,,,,,,,,,,,,44,001, 22,m,Psychologie,2023-01-18_13h30.28.953,00_bat_bachelor,2022.2.4,59.96496594882416,
,,,,,,,,,,,,0,0,0,0,106,0,106,0,,,,,,,106,,,1,1427.50155175681,Y,l,go,l,1,0.2948809413937852,,,,,,,,,,,,,,,,,44,001, 22,m,Psychologie,2023-01-18_13h30.28.953,00_bat_bachelor,2022.2.4,59.96496594882416,
,,,,,,,,,,,,0,0,0,0,107,0,107,0,,,,,,,107,,,1,1428.9190599180292,X,d,go,d,1,0.46169540597475134,,,,,,,,,,,,,,,,,44,001, 22,m,Psychologie,2023-01-18_13h30.28.953,00_bat_bachelor,2022.2.4,59.96496594882416,
,,,,,,,,,,,,0,0,0,0,108,0,108,0,,,,,,,108,,,1,1430.5036899375846,Y,l,go,l,1,0.41281736906967126,,,,,,,,,,,,,,,,,44,001, 22,m,Psychologie,2023-01-18_13h30.28.953,00_bat_bachelor,2022.2.4,59.96496594882416,
,,,,,,,,,,,,0,0,0,0,109,0,109,0,,,,,,,109,,,1,1432.0382002239057,X,d,go,d,1,0.3984086487616878,,,,,,,,,,,,,,,,,44,001, 22,m,Psychologie,2023-01-18_13h30.28.953,00_bat_bachelor,2022.2.4,59.96496594882416,
,,,,,,,,,,,,0,0,0,0,110,0,110,0,,,,,,,110,,,1,1433.5560036092065,Y,l,go,l,1,0.3380552234884817,,,,,,,,,,,,,,,,,44,001, 22,m,Psychologie,2023-01-18_13h30.28.953,00_bat_bachelor,2022.2.4,59.96496594882416,
,,,,,,,,,,,,0,0,0,0,111,0,111,0,,,,,,,111,,,1,1435.0070758753573,X,d,go,d,1,0.19815032163751312,,,,,,,,,,,,,,,,,44,001, 22,m,Psychologie,2023-01-18_13h30.28.953,00_bat_bachelor,2022.2.4,59.96496594882416,
,,,,,,,,,,,,0,0,0,0,112,0,112,0,,,,,,,112,,,1,1436.3078170628578,Y,l,go,l,1,0.4326961473270785,,,,,,,,,,,,,,,,,44,001, 22,m,Psychologie,2023-01-18_13h30.28.953,00_bat_bachelor,2022.2.4,59.96496594882416,
,,,,,,,,,,,,0,0,0,0,113,0,113,0,,,,,,,113,,,1,1437.8592466136906,Y,None,nogo,None,1,,1438.6596345892467,,,,,,,,,,,,,,,,44,001, 22,m,Psychologie,2023-01-18_13h30.28.953,00_bat_bachelor,2022.2.4,59.96496594882416,
,,,,,,,,,,,,0,0,0,0,114,0,114,0,,,,,,,114,,,1,1439.659875073994,X,d,go,d,1,0.20135274433414452,,,,,,,,,,,,,,,,,44,001, 22,m,Psychologie,2023-01-18_13h30.28.953,00_bat_bachelor,2022.2.4,59.96496594882416,
,,,,,,,,,,,,0,0,0,0,115,0,115,0,,,,,,,115,,,1,1440.9775849805446,Y,l,go,l,1,0.3552154576173052,,,,,,,,,,,,,,,,,44,001, 22,m,Psychologie,2023-01-18_13h30.28.953,00_bat_bachelor,2022.2.4,59.96496594882416,
,,,,,,,,,,,,0,0,0,0,116,0,116,0,,,,,,,116,,,1,1442.4453423295345,Y,None,nogo,l,0,0.29616142564918846,,,,,,,,,,,,,,,,,44,001, 22,m,Psychologie,2023-01-18_13h30.28.953,00_bat_bachelor,2022.2.4,59.96496594882416,
,,,,,,,,,,,,0,0,0,0,117,0,117,0,,,,,,,117,,,1,1443.846496559272,X,d,go,d,1,0.2872455511824228,,,,,,,,,,,,,,,,,44,001, 22,m,Psychologie,2023-01-18_13h30.28.953,00_bat_bachelor,2022.2.4,59.96496594882416,
,,,,,,,,,,,,0,0,0,0,118,0,118,0,,,,,,,118,,,1,1445.2475557587459,Y,l,go,l,1,0.6293801731662825,,,,,,,,,,,,,,,,,44,001, 22,m,Psychologie,2023-01-18_13h30.28.953,00_bat_bachelor,2022.2.4,59.96496594882416,
,,,,,,,,,,,,0,0,0,0,119,0,119,0,,,,,,,119,,,1,1446.9822249783028,Y,None,nogo,None,1,,,,,,,,,,,,,,,,,,44,001, 22,m,Psychologie,2023-01-18_13h30.28.953,00_bat_bachelor,2022.2.4,59.96496594882416,
,,,,,,,,,,,,0,0,0,0,120,0,120,0,,,,,,,120,,,1,1448.7832311353995,X,d,go,d,1,0.21400485938647762,,,,,,,,,,,,,,,,,44,001, 22,m,Psychologie,2023-01-18_13h30.28.953,00_bat_bachelor,2022.2.4,59.96496594882416,
,,,,,,,,,,,,0,0,0,0,121,0,121,0,,,,,,,121,,,1,1450.1010351025325,Y,l,go,l,1,0.367842845414998,,,,,,,,,,,,,,,,,44,001, 22,m,Psychologie,2023-01-18_13h30.28.953,00_bat_bachelor,2022.2.4,59.96496594882416,
,,,,,,,,,,,,0,0,0,0,122,0,122,0,,,,,,,122,,,1,1451.5856157160597,X,d,go,d,1,0.3235000790155027,,,,,,,,,,,,,,,,,44,001, 22,m,Psychologie,2023-01-18_13h30.28.953,00_bat_bachelor,2022.2.4,59.96496594882416,
,,,,,,,,,,,,0,0,0,0,123,0,123,0,,,,,,,123,,,1,1453.0201454447815,Y,l,go,l,1,0.3457870985439513,,,,,,,,,,,,,,,,,44,001, 22,m,Psychologie,2023-01-18_13h30.28.953,00_bat_bachelor,2022.2.4,59.96496594882416,
,,,,,,,,,,,,0,0,0,0,124,0,124,0,,,,,,,124,,,1,1454.4712894684635,X,d,go,d,1,0.3335829832649324,,,,,,,,,,,,,,,,,44,001, 22,m,Psychologie,2023-01-18_13h30.28.953,00_bat_bachelor,2022.2.4,59.96496594882416,
,,,,,,,,,,,,0,0,0,0,125,0,125,0,,,,,,,125,,,1,1455.905285864108,X,None,nogo,None,1,,,,,,,,,,,,,,,,,,44,001, 22,m,Psychologie,2023-01-18_13h30.28.953,00_bat_bachelor,2022.2.4,59.96496594882416,
,,,,,,,,,,,,0,0,0,0,126,0,126,0,,,,,,,126,,,1,1457.7070789299032,Y,l,go,l,1,0.28190688710310496,,,,,,,,,,,,,,,,,44,001, 22,m,Psychologie,2023-01-18_13h30.28.953,00_bat_bachelor,2022.2.4,59.96496594882416,
,,,,,,,,,,,,0,0,0,0,127,0,127,0,,,,,,,127,,,1,1459.091332319338,X,d,go,d,1,0.43312087436788715,,,,,,,,,,,,,,,,,44,001, 22,m,Psychologie,2023-01-18_13h30.28.953,00_bat_bachelor,2022.2.4,59.96496594882416,
,,,,,,,,,,,,0,0,0,0,128,0,128,0,,,,,,,128,,,1,1460.625755817804,Y,l,go,l,1,0.25971974633284844,,,,,,,,,,,,,,,,,44,001, 22,m,Psychologie,2023-01-18_13h30.28.953,00_bat_bachelor,2022.2.4,59.96496594882416,
,,,,,,,,,,,,0,0,0,0,129,0,129,0,,,,,,,129,,,1,1461.9936334576341,Y,None,nogo,None,1,,,,,,,,,,,,,,,,,,44,001, 22,m,Psychologie,2023-01-18_13h30.28.953,00_bat_bachelor,2022.2.4,59.96496594882416,
,,,,,,,,,,,,0,0,0,0,130,0,130,0,,,,,,,130,,,1,1463.7948640994437,X,d,go,d,1,0.17845093726646155,,,,,,,,,,,,,,,,,44,001, 22,m,Psychologie,2023-01-18_13h30.28.953,00_bat_bachelor,2022.2.4,59.96496594882416,
,,,,,,,,,,,,0,0,0,0,131,0,131,0,,,,,,,131,,,1,1465.079332325171,Y,l,go,l,1,0.43003481527557597,,,,,,,,,,,,,,,,,44,001, 22,m,Psychologie,2023-01-18_13h30.28.953,00_bat_bachelor,2022.2.4,59.96496594882416,
,,,,,,,,,,,,0,0,0,0,132,0,132,0,,,,,,,132,,,1,1466.613436793472,Y,None,nogo,None,1,,,,,,,,,,,,,,,,,,44,001, 22,m,Psychologie,2023-01-18_13h30.28.953,00_bat_bachelor,2022.2.4,59.96496594882416,
,,,,,,,,,,,,0,0,0,0,133,0,133,0,,,,,,,133,,,1,1468.4152070714044,X,d,go,d,1,0.21376970800338313,,,,,,,,,,,,,,,,,44,001, 22,m,Psychologie,2023-01-18_13h30.28.953,00_bat_bachelor,2022.2.4,59.96496594882416,
,,,,,,,,,,,,0,0,0,0,134,0,134,0,,,,,,,134,,,1,1469.7328937052516,Y,l,go,l,1,0.5126616843044758,,,,,,,,,,,,,,,,,44,001, 22,m,Psychologie,2023-01-18_13h30.28.953,00_bat_bachelor,2022.2.4,59.96496594882416,
,,,,,,,,,,,,0,0,0,0,135,0,135,0,,,,,,,135,,,1,1471.3507814056647,Y,None,nogo,None,1,,,,,,,,,,,,,,,,,,44,001, 22,m,Psychologie,2023-01-18_13h30.28.953,00_bat_bachelor,2022.2.4,59.96496594882416,
,,,,,,,,,,,,0,0,0,0,136,0,136,0,,,,,,,136,,,1,1473.1520760474668,X,d,go,d,1,0.19661189813632518,,,,,,,,,,,,,,,,,44,001, 22,m,Psychologie,2023-01-18_13h30.28.953,00_bat_bachelor,2022.2.4,59.96496594882416,
,,,,,,,,,,,,0,0,0,0,137,0,137,0,,,,,,,137,,,1,1474.4531546893704,Y,l,go,l,1,0.3844876858347561,,,,,,,,,,,,,,,,,44,001, 22,m,Psychologie,2023-01-18_13h30.28.953,00_bat_bachelor,2022.2.4,59.96496594882416,
,,,,,,,,,,,,0,0,0,0,138,0,138,0,,,,,,,138,,,1,1475.9547112946748,X,d,go,d,1,0.3849487765110098,,,,,,,,,,,,,,,,,44,001, 22,m,Psychologie,2023-01-18_13h30.28.953,00_bat_bachelor,2022.2.4,59.96496594882416,
,,,,,,,,,,,,0,0,0,0,139,0,139,0,,,,,,,139,,,1,1477.4729859524814,X,None,nogo,d,0,0.5475334249786101,,,,,,,,,,,,,,,,,44,001, 22,m,Psychologie,2023-01-18_13h30.28.953,00_bat_bachelor,2022.2.4,59.96496594882416,
,,,,,,,,,,,,0,0,0,0,140,0,140,0,,,,,,,140,,,1,1479.1406670832948,Y,l,go,l,1,0.35260794369969517,,,,,,,,,,,,,,,,,44,001, 22,m,Psychologie,2023-01-18_13h30.28.953,00_bat_bachelor,2022.2.4,59.96496594882416,
,,,,,,,,,,,,0,0,0,0,141,0,141,0,,,,,,,141,,,1,1480.6082203111728,X,d,go,d,1,0.3397890408523381,,,,,,,,,,,,,,,,,44,001, 22,m,Psychologie,2023-01-18_13h30.28.953,00_bat_bachelor,2022.2.4,59.96496594882416,
,,,,,,,,,,,,0,0,0,0,142,0,142,0,,,,,,,142,,,1,1482.0759888116445,Y,l,go,l,1,0.21727952448418364,,,,,,,,,,,,,,,,,44,001, 22,m,Psychologie,2023-01-18_13h30.28.953,00_bat_bachelor,2022.2.4,59.96496594882416,
,,,,,,,,,,,,0,0,0,0,143,0,143,0,,,,,,,143,,,1,1483.3936104758177,X,d,go,d,1,0.3865575030213222,,,,,,,,,,,,,,,,,44,001, 22,m,Psychologie,2023-01-18_13h30.28.953,00_bat_bachelor,2022.2.4,59.96496594882416,
,,,,,,,,,,,,0,0,0,0,144,0,144,0,,,,,,,144,,,1,1484.9117605276115,X,None,nogo,None,1,,1485.712438927294,,,,,,,,,,,,,,,,44,001, 22,m,Psychologie,2023-01-18_13h30.28.953,00_bat_bachelor,2022.2.4,59.96496594882416,
,,,,,,,,,,,,0,0,0,0,145,0,145,0,,,,,,,145,,,1,1486.7128869270673,Y,l,go,l,1,0.18790014478145167,,,,,,,,,,,,,,,,,44,001, 22,m,Psychologie,2023-01-18_13h30.28.953,00_bat_bachelor,2022.2.4,59.96496594882416,
,,,,,,,,,,,,0,0,0,0,146,0,146,0,,,,,,,146,,,1,1488.0308188941272,X,d,go,d,1,0.38908065331634134,,,,,,,,,,,,,,,,,44,001, 22,m,Psychologie,2023-01-18_13h30.28.953,00_bat_bachelor,2022.2.4,59.96496594882416,
,,,,,,,,,,,,0,0,0,0,147,0,147,0,,,,,,,147,,,1,1489.5651148775069,Y,l,go,l,1,0.4554617120302282,,,,,,,,,,,,,,,,,44,001, 22,m,Psychologie,2023-01-18_13h30.28.953,00_bat_bachelor,2022.2.4,59.96496594882416,
,,,,,,,,,,,,0,0,0,0,148,0,148,0,,,,,,,148,,,1,1491.1497982303845,X,d,go,d,1,0.35986369775491767,,,,,,,,,,,,,,,,,44,001, 22,m,Psychologie,2023-01-18_13h30.28.953,00_bat_bachelor,2022.2.4,59.96496594882416,
,,,,,,,,,,,,0,0,0,0,149,0,149,0,,,,,,,149,,,1,1492.6175701247994,Y,l,go,l,1,0.3162448098300956,,,,,,,,,,,,,,,,,44,001, 22,m,Psychologie,2023-01-18_13h30.28.953,00_bat_bachelor,2022.2.4,59.96496594882416,
,,,,,,,,,,,,0,0,0,0,150,0,150,0,,,,,,,150,,,1,1494.0351820435317,Y,None,nogo,None,1,,1494.8359297765128,,,,,,,,,,,,,,,,44,001, 22,m,Psychologie,2023-01-18_13h30.28.953,00_bat_bachelor,2022.2.4,59.96496594882416,
,,,,,,,,,,,,0,0,0,0,151,0,151,0,,,,,,,151,,,1,1495.8367103821947,X,d,go,d,1,0.31163244842900895,,,,,,,,,,,,,,,,,44,001, 22,m,Psychologie,2023-01-18_13h30.28.953,00_bat_bachelor,2022.2.4,59.96496594882416,
,,,,,,,,,,,,0,0,0,0,152,0,152,0,,,,,,,152,,,1,1497.2876696786843,Y,l,go,l,1,0.23699054520693608,,,,,,,,,,,,,,,,,44,001, 22,m,Psychologie,2023-01-18_13h30.28.953,00_bat_bachelor,2022.2.4,59.96496594882416,
,,,,,,,,,,,,0,0,0,0,153,0,153,0,,,,,,,153,,,1,1498.6389194477815,X,d,go,d,1,0.35848333479953,,,,,,,,,,,,,,,,,44,001, 22,m,Psychologie,2023-01-18_13h30.28.953,00_bat_bachelor,2022.2.4,59.96496594882416,
,,,,,,,,,,,,0,0,0,0,154,0,154,0,,,,,,,154,,,1,1500.1234278189368,X,None,nogo,l,0,0.21737988805398345,,,,,,,,,,,,,,,,,44,001, 22,m,Psychologie,2023-01-18_13h30.28.953,00_bat_bachelor,2022.2.4,59.96496594882416,
,,,,,,,,,,,,0,0,0,0,155,0,155,0,,,,,,,155,,,1,1501.4576535962697,Y,l,go,None,0,,1502.2581361172488,,,,,,,,,,,,,,,,44,001, 22,m,Psychologie,2023-01-18_13h30.28.953,00_bat_bachelor,2022.2.4,59.96496594882416,
,,,,,,,,,,,,0,0,0,0,156,0,156,0,,,,,,,156,,,1,1503.2588430260075,X,d,go,d,1,0.3609643033123575,,,,,,,,,,,,,,,,,44,001, 22,m,Psychologie,2023-01-18_13h30.28.953,00_bat_bachelor,2022.2.4,59.96496594882416,
,,,,,,,,,,,,0,0,0,0,157,0,157,0,,,,,,,157,,,1,1504.7603244798374,X,None,nogo,None,1,,1505.5609810613387,,,,,,,,,,,,,,,,44,001, 22,m,Psychologie,2023-01-18_13h30.28.953,00_bat_bachelor,2022.2.4,59.96496594882416,
,,,,,,,,,,,,0,0,0,0,158,0,158,0,,,,,,,158,,,1,1506.5613102733041,Y,l,go,l,1,0.2596843524079304,,,,,,,,,,,,,,,,,44,001, 22,m,Psychologie,2023-01-18_13h30.28.953,00_bat_bachelor,2022.2.4,59.96496594882416,
,,,,,,,,,,,,0,0,0,0,159,0,159,0,,,,,,,159,,,1,1507.945993723144,X,d,go,d,1,0.45817443798296154,,,,,,,,,,,,,,,,,44,001, 22,m,Psychologie,2023-01-18_13h30.28.953,00_bat_bachelor,2022.2.4,59.96496594882416,
,,,,,,,,,,,,0,0,0,0,160,0,160,0,,,,,,,160,,,1,1509.5302809550194,Y,l,go,l,1,0.4742626725928858,,,,,,,,,,,,,,,,,44,001, 22,m,Psychologie,2023-01-18_13h30.28.953,00_bat_bachelor,2022.2.4,59.96496594882416,
,,,,,,,,,,,,0,0,0,0,161,0,161,0,,,,,,,161,,,1,1511.1150205502927,Y,None,nogo,None,1,,1511.9155016167206,,,,,,,,,,,,,,,,44,001, 22,m,Psychologie,2023-01-18_13h30.28.953,00_bat_bachelor,2022.2.4,59.96496594882416,
,,,,,,,,,,,,0,0,0,0,162,0,162,0,,,,,,,162,,,1,1512.9164082829375,X,d,go,d,1,0.22480630871723406,,,,,,,,,,,,,,,,,44,001, 22,m,Psychologie,2023-01-18_13h30.28.953,00_bat_bachelor,2022.2.4,59.96496594882416,
,,,,,,,,,,,,0,0,0,0,163,0,163,0,,,,,,,163,,,1,1514.2507863026403,Y,l,go,l,1,0.5537428765092045,,,,,,,,,,,,,,,,,44,001, 22,m,Psychologie,2023-01-18_13h30.28.953,00_bat_bachelor,2022.2.4,59.96496594882416,
,,,,,,,,,,,,0,0,0,0,164,0,164,0,,,,,,,164,,,1,1515.9521289929107,Y,None,nogo,None,1,,1516.7526459381043,,,,,,,,,,,,,,,,44,001, 22,m,Psychologie,2023-01-18_13h30.28.953,00_bat_bachelor,2022.2.4,59.96496594882416,
,,,,,,,,,,,,0,0,0,0,165,0,165,0,,,,,,,165,,,1,1517.7531181802915,X,d,go,d,1,0.21936679619830102,,,,,,,,,,,,,,,,,44,001, 22,m,Psychologie,2023-01-18_13h30.28.953,00_bat_bachelor,2022.2.4,59.96496594882416,
,,,,,,,,,,,,0,0,0,0,166,0,166,0,,,,,,,166,,,1,1519.1041871009802,Y,l,go,l,1,0.5647591135639232,,,,,,,,,,,,,,,,,44,001, 22,m,Psychologie,2023-01-18_13h30.28.953,00_bat_bachelor,2022.2.4,59.96496594882416,
,,,,,,,,,,,,0,0,0,0,167,0,167,0,,,,,,,167,,,1,1520.8056063972763,Y,None,nogo,None,1,,1521.6065815240727,,,,,,,,,,,,,,,,44,001, 22,m,Psychologie,2023-01-18_13h30.28.953,00_bat_bachelor,2022.2.4,59.96496594882416,
,,,,,,,,,,,,0,0,0,0,168,0,168,0,,,,,,,168,,,1,1522.6069281905657,X,d,go,d,1,0.26118738198420033,,,,,,,,,,,,,,,,,44,001, 22,m,Psychologie,2023-01-18_13h30.28.953,00_bat_bachelor,2022.2.4,59.96496594882416,
,,,,,,,,,,,,0,0,0,0,169,0,169,0,,,,,,,169,,,1,1523.9912795193668,Y,l,go,l,1,0.5416163369372953,,,,,,,,,,,,,,,,,44,001, 22,m,Psychologie,2023-01-18_13h30.28.953,00_bat_bachelor,2022.2.4,59.96496594882416,
,,,,,,,,,,,,0,0,0,0,170,0,170,0,,,,,,,170,,,1,1525.6761242782231,Y,None,nogo,None,1,,1526.4769331020943,,,,,,,,,,,,,,,,44,001, 22,m,Psychologie,2023-01-18_13h30.28.953,00_bat_bachelor,2022.2.4,59.96496594882416,
,,,,,,,,,,,,0,0,0,0,171,0,171,0,,,,,,,171,,,1,1527.4774678896938,X,d,go,d,1,0.17458136338973418,,,,,,,,,,,,,,,,,44,001, 22,m,Psychologie,2023-01-18_13h30.28.953,00_bat_bachelor,2022.2.4,59.96496594882416,
,,,,,,,,,,,,0,0,0,0,172,0,172,0,,,,,,,172,,,1,1528.7782604711247,Y,l,go,l,1,0.34613861350226216,,,,,,,,,,,,,,,,,44,001, 22,m,Psychologie,2023-01-18_13h30.28.953,00_bat_bachelor,2022.2.4,59.96496594882416,
,,,,,,,,,,,,0,0,0,0,173,0,173,0,,,,,,,173,,,1,1530.2463790320617,Y,None,nogo,None,1,,1531.0469905226782,,,,,,,,,,,,,,,,44,001, 22,m,Psychologie,2023-01-18_13h30.28.953,00_bat_bachelor,2022.2.4,59.96496594882416,
,,,,,,,,,,,,0,0,0,0,174,0,174,0,,,,,,,174,,,1,1532.0476382799388,X,d,go,d,1,0.27711804091813974,,,,,,,,,,,,,,,,,44,001, 22,m,Psychologie,2023-01-18_13h30.28.953,00_bat_bachelor,2022.2.4,59.96496594882416,
,,,,,,,,,,,,0,0,0,0,175,0,175,0,,,,,,,175,,,1,1533.4486034188594,Y,l,go,l,1,0.4439766267023515,,,,,,,,,,,,,,,,,44,001, 22,m,Psychologie,2023-01-18_13h30.28.953,00_bat_bachelor,2022.2.4,59.96496594882416,
,,,,,,,,,,,,0,0,0,0,176,0,176,0,,,,,,,176,,,1,1534.99971636376,Y,None,nogo,None,1,,1535.800399127067,,,,,,,,,,,,,,,,44,001, 22,m,Psychologie,2023-01-18_13h30.28.953,00_bat_bachelor,2022.2.4,59.96496594882416,
,,,,,,,,,,,,0,0,0,0,177,0,177,0,,,,,,,177,,,1,1536.80125197515,X,d,go,d,1,0.38682368470472284,,,,,,,,,,,,,,,,,44,001, 22,m,Psychologie,2023-01-18_13h30.28.953,00_bat_bachelor,2022.2.4,59.96496594882416,
,,,,,,,,,,,,0,0,0,0,178,0,178,0,,,,,,,178,,,1,1538.3355707463925,Y,l,go,l,1,0.38807750228443183,,,,,,,,,,,,,,,,,44,001, 22,m,Psychologie,2023-01-18_13h30.28.953,00_bat_bachelor,2022.2.4,59.96496594882416,
,,,,,,,,,,,,0,0,0,0,179,0,179,0,,,,,,,179,,,1,1539.8535826164298,X,d,go,d,1,0.21602958568837494,,,,,,,,,,,,,,,,,44,001, 22,m,Psychologie,2023-01-18_13h30.28.953,00_bat_bachelor,2022.2.4,59.96496594882416,
,,,,,,,,,,,,0,0,0,0,180,0,180,0,,,,,,,180,,,1,1541.1710137352638,Y,l,go,l,1,0.19308026347425766,,,,,,,,,,,,,,,,,44,001, 22,m,Psychologie,2023-01-18_13h30.28.953,00_bat_bachelor,2022.2.4,59.96496594882416,
,,,,,,,,,,,,0,0,0,0,181,0,181,0,,,,,,,181,,,1,1542.5054363609815,Y,None,nogo,None,1,,1543.3063368211733,,,,,,,,,,,,,,,,44,001, 22,m,Psychologie,2023-01-18_13h30.28.953,00_bat_bachelor,2022.2.4,59.96496594882416,
,,,,,,,,,,,,0,0,0,0,182,0,182,0,,,,,,,182,,,1,1544.3066985179612,X,d,go,d,1,0.2100717703870032,,,,,,,,,,,,,,,,,44,001, 22,m,Psychologie,2023-01-18_13h30.28.953,00_bat_bachelor,2022.2.4,59.96496594882416,
,,,,,,,,,,,,0,0,0,0,183,0,183,0,,,,,,,183,,,1,1545.6246581213782,Y,l,go,l,1,0.47666994418250397,,,,,,,,,,,,,,,,,44,001, 22,m,Psychologie,2023-01-18_13h30.28.953,00_bat_bachelor,2022.2.4,59.96496594882416,
,,,,,,,,,,,,0,0,0,0,184,0,184,0,,,,,,,184,,,1,1547.2089865653252,X,d,go,d,1,0.41121300621307455,,,,,,,,,,,,,,,,,44,001, 22,m,Psychologie,2023-01-18_13h30.28.953,00_bat_bachelor,2022.2.4,59.96496594882416,
,,,,,,,,,,,,0,0,0,0,185,0,185,0,,,,,,,185,,,1,1548.7599976921047,X,None,nogo,None,1,,1549.560819122009,,,,,,,,,,,,,,,,44,001, 22,m,Psychologie,2023-01-18_13h30.28.953,00_bat_bachelor,2022.2.4,59.96496594882416,
,,,,,,,,,,,,0,0,0,0,186,0,186,0,,,,,,,186,,,1,1550.5616094246798,X,None,nogo,None,1,,1551.3623222485767,,,,,,,,,,,,,,,,44,001, 22,m,Psychologie,2023-01-18_13h30.28.953,00_bat_bachelor,2022.2.4,59.96496594882416,
,,,,,,,,,,,,0,0,0,0,187,0,187,0,,,,,,,187,,,1,1552.3627891574288,Y,l,go,l,1,0.3460649165790528,,,,,,,,,,,,,,,,,44,001, 22,m,Psychologie,2023-01-18_13h30.28.953,00_bat_bachelor,2022.2.4,59.96496594882416,
,,,,,,,,,,,,0,0,0,0,188,0,188,0,,,,,,,188,,,1,1553.8140655446914,X,d,go,d,1,0.49557175318477675,,,,,,,,,,,,,,,,,44,001, 22,m,Psychologie,2023-01-18_13h30.28.953,00_bat_bachelor,2022.2.4,59.96496594882416,
,,,,,,,,,,,,0,0,0,0,189,0,189,0,,,,,,,189,,,1,1555.4151435562817,Y,l,go,l,1,0.34921885444782674,,,,,,,,,,,,,,,,,44,001, 22,m,Psychologie,2023-01-18_13h30.28.953,00_bat_bachelor,2022.2.4,59.96496594882416,
,,,,,,,,,,,,0,0,0,0,190,0,190,0,,,,,,,190,,,1,1556.8833081777848,X,d,go,d,1,0.40041543569532223,,,,,,,,,,,,,,,,,44,001, 22,m,Psychologie,2023-01-18_13h30.28.953,00_bat_bachelor,2022.2.4,59.96496594882416,
,,,,,,,,,,,,0,0,0,0,191,0,191,0,,,,,,,191,,,1,1558.401042229787,Y,l,go,l,1,0.3394283137458842,,,,,,,,,,,,,,,,,44,001, 22,m,Psychologie,2023-01-18_13h30.28.953,00_bat_bachelor,2022.2.4,59.96496594882416,
,,,,,,,,,,,,0,0,0,0,192,0,192,0,,,,,,,192,,,1,1559.8686032152036,X,d,go,d,1,0.3129609326424543,,,,,,,,,,,,,,,,,44,001, 22,m,Psychologie,2023-01-18_13h30.28.953,00_bat_bachelor,2022.2.4,59.96496594882416,
,,,,,,,,,,,,0,0,0,0,193,0,193,0,,,,,,,193,,,1,1561.2863770732656,Y,l,go,l,1,0.33344334695721045,,,,,,,,,,,,,,,,,44,001, 22,m,Psychologie,2023-01-18_13h30.28.953,00_bat_bachelor,2022.2.4,59.96496594882416,
,,,,,,,,,,,,0,0,0,0,194,0,194,0,,,,,,,194,,,1,1562.7376098241948,Y,None,nogo,None,1,,1563.5382843450643,,,,,,,,,,,,,,,,44,001, 22,m,Psychologie,2023-01-18_13h30.28.953,00_bat_bachelor,2022.2.4,59.96496594882416,
,,,,,,,,,,,,0,0,0,0,195,0,195,0,,,,,,,195,,,1,1564.539110041631,Y,None,nogo,d,0,0.18524996427004226,,,,,,,,,,,,,,,,,44,001, 22,m,Psychologie,2023-01-18_13h30.28.953,00_bat_bachelor,2022.2.4,59.96496594882416,
,,,,,,,,,,,,0,0,0,0,196,0,196,0,,,,,,,196,,,1,1565.8567297664122,X,d,go,d,1,0.6118698786303867,,,,,,,,,,,,,,,,,44,001, 22,m,Psychologie,2023-01-18_13h30.28.953,00_bat_bachelor,2022.2.4,59.96496594882416,
,,,,,,,,,,,,0,0,0,0,197,0,197,0,,,,,,,197,,,1,1567.5747168122616,Y,l,go,l,1,0.397967436874751,,,,,,,,,,,,,,,,,44,001, 22,m,Psychologie,2023-01-18_13h30.28.953,00_bat_bachelor,2022.2.4,59.96496594882416,
,,,,,,,,,,,,0,0,0,0,198,0,198,0,,,,,,,198,,,1,1569.09226516739,X,d,go,d,1,0.511829684721306,,,,,,,,,,,,,,,,,44,001, 22,m,Psychologie,2023-01-18_13h30.28.953,00_bat_bachelor,2022.2.4,59.96496594882416,
,,,,,,,,,,,,0,0,0,0,199,0,199,0,,,,,,,199,,,1,1570.7268893445435,X,None,nogo,l,0,0.33417934659519233,,,,,,,,,,,,,,,,,44,001, 22,m,Psychologie,2023-01-18_13h30.28.953,00_bat_bachelor,2022.2.4,59.96496594882416,
,,,,,,,,,,,,0,0,0,0,200,0,200,0,,,,,,,200,,,1,1572.1779742167273,Y,l,go,l,1,0.5294573125138413,,,,,,,,,,,,,,,,,44,001, 22,m,Psychologie,2023-01-18_13h30.28.953,00_bat_bachelor,2022.2.4,59.96496594882416,
,,,,,,,,,,,,0,0,0,0,201,0,201,0,,,,,,,201,,,1,1573.8292330525,X,d,go,d,1,0.4942345417221077,,,,,,,,,,,,,,,,,44,001, 22,m,Psychologie,2023-01-18_13h30.28.953,00_bat_bachelor,2022.2.4,59.96496594882416,
,,,,,,,,,,,,0,0,0,0,202,0,202,0,,,,,,,202,,,1,1575.4638053508825,Y,l,go,l,1,0.4126898539834656,,,,,,,,,,,,,,,,,44,001, 22,m,Psychologie,2023-01-18_13h30.28.953,00_bat_bachelor,2022.2.4,59.96496594882416,
,,,,,,,,,,,,0,0,0,0,203,0,203,0,,,,,,,203,,,1,1576.9986167279421,Y,None,nogo,None,1,,1577.7989174308314,,,,,,,,,,,,,,,,44,001, 22,m,Psychologie,2023-01-18_13h30.28.953,00_bat_bachelor,2022.2.4,59.96496594882416,
,,,,,,,,,,,,0,0,0,0,204,0,204,0,,,,,,,204,,,1,1578.7996432486398,X,d,go,d,1,0.437379781389609,,,,,,,,,,,,,,,,,44,001, 22,m,Psychologie,2023-01-18_13h30.28.953,00_bat_bachelor,2022.2.4,59.96496594882416,
,,,,,,,,,,,,0,0,0,0,205,0,205,0,,,,,,,205,,,1,1580.350845890498,Y,l,go,l,1,0.5007925991376396,,,,,,,,,,,,,,,,,44,001, 22,m,Psychologie,2023-01-18_13h30.28.953,00_bat_bachelor,2022.2.4,59.96496594882416,
,,,,,,,,,,,,0,0,0,0,206,0,206,0,,,,,,,206,,,1,1581.9854298252321,X,d,go,d,1,0.4510515323490836,,,,,,,,,,,,,,,,,44,001, 22,m,Psychologie,2023-01-18_13h30.28.953,00_bat_bachelor,2022.2.4,59.96496594882416,
,,,,,,,,,,,,0,0,0,0,207,0,207,0,,,,,,,207,,,1,1583.5535468831076,Y,l,go,l,1,0.3398889195814263,,,,,,,,,,,,,,,,,44,001, 22,m,Psychologie,2023-01-18_13h30.28.953,00_bat_bachelor,2022.2.4,59.96496594882416,
,,,,,,,,,,,,0,0,0,0,208,0,208,0,,,,,,,208,,,1,1585.0047369673848,Y,None,nogo,None,1,,1585.8054861549172,,,,,,,,,,,,,,,,44,001, 22,m,Psychologie,2023-01-18_13h30.28.953,00_bat_bachelor,2022.2.4,59.96496594882416,
,,,,,,,,,,,,0,0,0,0,209,0,209,0,,,,,,,209,,,1,1586.8058303971775,X,d,go,d,1,0.20623322678147815,,,,,,,,,,,,,,,,,44,001, 22,m,Psychologie,2023-01-18_13h30.28.953,00_bat_bachelor,2022.2.4,59.96496594882416,
,,,,,,,,,,,,0,0,0,0,210,0,210,0,,,,,,,210,,,1,1588.1405216288404,Y,l,go,None,0,,1588.941089967935,,,,,,,,,,,,,,,,44,001, 22,m,Psychologie,2023-01-18_13h30.28.953,00_bat_bachelor,2022.2.4,59.96496594882416,
,,,,,,,,,,,,0,0,0,0,211,0,211,0,,,,,,,211,,,1,1589.9417745736719,Y,None,nogo,None,1,,1590.7425116399827,,,,,,,,,,,,,,,,44,001, 22,m,Psychologie,2023-01-18_13h30.28.953,00_bat_bachelor,2022.2.4,59.96496594882416,
,,,,,,,,,,,,0,0,0,0,212,0,212,0,,,,,,,212,,,1,1591.7430386700435,X,d,go,d,1,0.19804123078938574,,,,,,,,,,,,,,,,,44,001, 22,m,Psychologie,2023-01-18_13h30.28.953,00_bat_bachelor,2022.2.4,59.96496594882416,
,,,,,,,,,,,,0,0,0,0,213,0,213,0,,,,,,,213,,,1,1593.060579849407,Y,l,go,l,1,0.5752289266674779,,,,,,,,,,,,,,,,,44,001, 22,m,Psychologie,2023-01-18_13h30.28.953,00_bat_bachelor,2022.2.4,59.96496594882416,
,,,,,,,,,,,,0,0,0,0,214,0,214,0,,,,,,,214,,,1,1594.7620612062747,X,d,go,d,1,0.28274228060035966,,,,,,,,,,,,,,,,,44,001, 22,m,Psychologie,2023-01-18_13h30.28.953,00_bat_bachelor,2022.2.4,59.96496594882416,
,,,,,,,,,,,,0,0,0,0,215,0,215,0,,,,,,,215,,,1,1596.1631451330031,Y,l,go,l,1,0.4174132456246298,,,,,,,,,,,,,,,,,44,001, 22,m,Psychologie,2023-01-18_13h30.28.953,00_bat_bachelor,2022.2.4,59.96496594882416,
,,,,,,,,,,,,0,0,0,0,216,0,216,0,,,,,,,216,,,1,1597.6975458436063,X,d,go,d,1,0.35450467007467523,,,,,,,,,,,,,,,,,44,001, 22,m,Psychologie,2023-01-18_13h30.28.953,00_bat_bachelor,2022.2.4,59.96496594882416,
,,,,,,,,,,,,0,0,0,0,217,0,217,0,,,,,,,217,,,1,1599.1985613582656,Y,l,go,l,1,0.4548246214108076,,,,,,,,,,,,,,,,,44,001, 22,m,Psychologie,2023-01-18_13h30.28.953,00_bat_bachelor,2022.2.4,59.96496594882416,
,,,,,,,,,,,,0,0,0,0,218,0,218,0,,,,,,,218,,,1,1600.7660452043347,X,d,go,d,1,0.375168902479345,,,,,,,,,,,,,,,,,44,001, 22,m,Psychologie,2023-01-18_13h30.28.953,00_bat_bachelor,2022.2.4,59.96496594882416,
,,,,,,,,,,,,0,0,0,0,219,0,219,0,,,,,,,219,,,1,1602.250175393856,Y,l,go,l,1,0.506429929722799,,,,,,,,,,,,,,,,,44,001, 22,m,Psychologie,2023-01-18_13h30.28.953,00_bat_bachelor,2022.2.4,59.96496594882416,
,,,,,,,,,,,,0,0,0,0,220,0,220,0,,,,,,,220,,,1,1603.8683103668736,Y,None,nogo,None,1,,,,,,,,,,,,,,,,,,44,001, 22,m,Psychologie,2023-01-18_13h30.28.953,00_bat_bachelor,2022.2.4,59.96496594882416,
,,,,,,,,,,,,0,0,0,0,221,0,221,0,,,,,,,221,,,1,1605.6704103416123,X,d,go,d,1,0.1895879015501123,,,,,,,,,,,,,,,,,44,001, 22,m,Psychologie,2023-01-18_13h30.28.953,00_bat_bachelor,2022.2.4,59.96496594882416,
,,,,,,,,,,,,0,0,0,0,222,0,222,0,,,,,,,222,,,1,1606.9877934604592,Y,l,go,l,1,0.5205598622851539,,,,,,,,,,,,,,,,,44,001, 22,m,Psychologie,2023-01-18_13h30.28.953,00_bat_bachelor,2022.2.4,59.96496594882416,
,,,,,,,,,,,,0,0,0,0,223,0,223,0,,,,,,,223,,,1,1608.6393475687946,X,d,go,d,1,0.3243272301333491,,,,,,,,,,,,,,,,,44,001, 22,m,Psychologie,2023-01-18_13h30.28.953,00_bat_bachelor,2022.2.4,59.96496594882416,
,,,,,,,,,,,,0,0,0,0,224,0,224,0,,,,,,,224,,,1,1610.0904329258483,Y,l,go,l,1,0.37745981046464294,,,,,,,,,,,,,,,,,44,001, 22,m,Psychologie,2023-01-18_13h30.28.953,00_bat_bachelor,2022.2.4,59.96496594882416,
,,,,,,,,,,,,0,0,0,0,225,0,225,0,,,,,,,225,,,1,1611.60763025083,Y,None,nogo,l,0,0.5095887160860002,,,,,,,,,,,,,,,,,44,001, 22,m,Psychologie,2023-01-18_13h30.28.953,00_bat_bachelor,2022.2.4,59.96496594882416,
,,,,,,,,,,,,0,0,0,0,226,0,226,0,,,,,,,226,,,1,1613.2255169815617,X,d,go,d,1,0.36419339262647554,,,,,,,,,,,,,,,,,44,001, 22,m,Psychologie,2023-01-18_13h30.28.953,00_bat_bachelor,2022.2.4,59.96496594882416,
,,,,,,,,,,,,0,0,0,0,227,0,227,0,,,,,,,227,,,1,1614.6936617242754,Y,l,go,l,1,0.46333952638087794,,,,,,,,,,,,,,,,,44,001, 22,m,Psychologie,2023-01-18_13h30.28.953,00_bat_bachelor,2022.2.4,59.96496594882416,
,,,,,,,,,,,,0,0,0,0,228,0,228,0,,,,,,,228,,,1,1616.278224834794,X,d,go,d,1,0.23798642351175658,,,,,,,,,,,,,,,,,44,001, 22,m,Psychologie,2023-01-18_13h30.28.953,00_bat_bachelor,2022.2.4,59.96496594882416,
,,,,,,,,,,,,0,0,0,0,229,0,229,0,,,,,,,229,,,1,1617.646021020104,Y,l,go,l,1,0.374457145226188,,,,,,,,,,,,,,,,,44,001, 22,m,Psychologie,2023-01-18_13h30.28.953,00_bat_bachelor,2022.2.4,59.96496594882416,
,,,,,,,,,,,,0,0,0,0,230,0,230,0,,,,,,,230,,,1,1619.130622482102,X,d,go,d,1,0.29798687930451706,,,,,,,,,,,,,,,,,44,001, 22,m,Psychologie,2023-01-18_13h30.28.953,00_bat_bachelor,2022.2.4,59.96496594882416,
,,,,,,,,,,,,0,0,0,0,231,0,231,0,,,,,,,231,,,1,1620.548383249261,X,None,nogo,d,0,0.4173216093040537,,,,,,,,,,,,,,,,,44,001, 22,m,Psychologie,2023-01-18_13h30.28.953,00_bat_bachelor,2022.2.4,59.96496594882416,
,,,,,,,,,,,,0,0,0,0,232,0,232,0,,,,,,,232,,,1,1622.0661095436953,Y,l,go,None,0,,1622.8666832161543,,,,,,,,,,,,,,,,44,001, 22,m,Psychologie,2023-01-18_13h30.28.953,00_bat_bachelor,2022.2.4,59.96496594882416,
,,,,,,,,,,,,0,0,0,0,233,0,233,0,,,,,,,233,,,1,1623.8675026096753,X,d,go,None,0,,1624.6681941002607,,,,,,,,,,,,,,,,44,001, 22,m,Psychologie,2023-01-18_13h30.28.953,00_bat_bachelor,2022.2.4,59.96496594882416,
,,,,,,,,,,,,0,0,0,0,234,0,234,0,,,,,,,234,,,1,1625.6686338576255,X,None,nogo,d,0,0.35278685271623544,,,,,,,,,,,,,,,,,44,001, 22,m,Psychologie,2023-01-18_13h30.28.953,00_bat_bachelor,2022.2.4,59.96496594882416,
,,,,,,,,,,,,0,0,0,0,235,0,235,0,,,,,,,235,,,1,1627.1364178732329,Y,l,go,l,1,0.5633147506450769,,,,,,,,,,,,,,,,,44,001, 22,m,Psychologie,2023-01-18_13h30.28.953,00_bat_bachelor,2022.2.4,59.96496594882416,
,,,,,,,,,,,,0,0,0,0,236,0,236,0,,,,,,,236,,,1,1628.8211283291457,X,d,go,d,1,0.5754543811199255,,,,,,,,,,,,,,,,,44,001, 22,m,Psychologie,2023-01-18_13h30.28.953,00_bat_bachelor,2022.2.4,59.96496594882416,
,,,,,,,,,,,,0,0,0,0,237,0,237,0,,,,,,,237,,,1,1630.5057500578114,X,None,nogo,None,1,,1631.306427972624,,,,,,,,,,,,,,,,44,001, 22,m,Psychologie,2023-01-18_13h30.28.953,00_bat_bachelor,2022.2.4,59.96496594882416,
,,,,,,,,,,,,0,0,0,0,238,0,238,0,,,,,,,238,,,1,1632.30718288137,Y,l,go,l,1,0.27317234585643746,,,,,,,,,,,,,,,,,44,001, 22,m,Psychologie,2023-01-18_13h30.28.953,00_bat_bachelor,2022.2.4,59.96496594882416,
,,,,,,,,,,,,0,0,0,0,239,0,239,0,,,,,,,239,,,1,1633.6914251192939,X,d,go,d,1,0.6488890121981967,,,,,,,,,,,,,,,,,44,001, 22,m,Psychologie,2023-01-18_13h30.28.953,00_bat_bachelor,2022.2.4,59.96496594882416,
,,,,,,,,,,,,0,0,0,0,240,0,240,0,,,,,,,240,,,1,1635.4428351792158,Y,l,go,l,1,0.6259333869384136,,,,,,,,,,,,,,,,,44,001, 22,m,Psychologie,2023-01-18_13h30.28.953,00_bat_bachelor,2022.2.4,59.96496594882416,
,,,,,,,,,,,,0,0,0,0,241,0,241,0,,,,,,,241,,,1,1637.1772614897927,X,d,go,d,1,0.36267145397141576,,,,,,,,,,,,,,,,,44,001, 22,m,Psychologie,2023-01-18_13h30.28.953,00_bat_bachelor,2022.2.4,59.96496594882416,
,,,,,,,,,,,,0,0,0,0,242,0,242,0,,,,,,,242,,,1,1638.6617824670102,X,None,nogo,d,0,0.414775186276529,,,,,,,,,,,,,,,,,44,001, 22,m,Psychologie,2023-01-18_13h30.28.953,00_bat_bachelor,2022.2.4,59.96496594882416,
,,,,,,,,,,,,0,0,0,0,243,0,243,0,,,,,,,243,,,1,1640.1797187007323,X,None,nogo,d,0,0.49807599440100603,,,,,,,,,,,,,,,,,44,001, 22,m,Psychologie,2023-01-18_13h30.28.953,00_bat_bachelor,2022.2.4,59.96496594882416,
,,,,,,,,,,,,0,0,0,0,244,0,244,0,,,,,,,244,,,1,1641.7808917425864,Y,l,go,l,1,0.416092518978985,,,,,,,,,,,,,,,,,44,001, 22,m,Psychologie,2023-01-18_13h30.28.953,00_bat_bachelor,2022.2.4,59.96496594882416,
,,,,,,,,,,,,0,0,0,0,245,0,245,0,,,,,,,245,,,1,1643.298697552149,X,d,go,None,0,,1644.0993027397199,,,,,,,,,,,,,,,,44,001, 22,m,Psychologie,2023-01-18_13h30.28.953,00_bat_bachelor,2022.2.4,59.96496594882416,
,,,,,,,,,,,,0,0,0,0,246,0,246,0,,,,,,,246,,,1,1645.099736194068,X,None,nogo,None,1,,,,,,,,,,,,,,,,,,44,001, 22,m,Psychologie,2023-01-18_13h30.28.953,00_bat_bachelor,2022.2.4,59.96496594882416,
,,,,,,,,,,,,0,0,0,0,247,0,247,0,,,,,,,247,,,1,1646.9008577450295,Y,l,go,l,1,0.4954035108385142,,,,,,,,,,,,,,,,,44,001, 22,m,Psychologie,2023-01-18_13h30.28.953,00_bat_bachelor,2022.2.4,59.96496594882416,
,,,,,,,,,,,,0,0,0,0,248,0,248,0,,,,,,,248,,,1,1648.5021966049972,X,d,go,d,1,0.49431890531559475,,,,,,,,,,,,,,,,,44,001, 22,m,Psychologie,2023-01-18_13h30.28.953,00_bat_bachelor,2022.2.4,59.96496594882416,
,,,,,,,,,,,,0,0,0,0,249,0,249,0,,,,,,,249,,,1,1650.103634858824,Y,l,go,l,1,0.44509711099090055,,,,,,,,,,,,,,,,,44,001, 22,m,Psychologie,2023-01-18_13h30.28.953,00_bat_bachelor,2022.2.4,59.96496594882416,
,,,,,,,,,,,,1,0,1,0,0,0,0,0,,,,,,,0,,,0.2,1659.344646620768,X,d,go,None,0,,1660.1453802931355,,,,,,,,1650.6588137411745,space,8.45308159198612,,,,,,44,001, 22,m,Psychologie,2023-01-18_13h30.28.953,00_bat_bachelor,2022.2.4,59.96496594882416,
,,,,,,,,,,,,1,0,1,0,1,0,1,0,,,,,,,1,,,0.2,1660.345326862851,Y,l,go,None,0,,1661.1461027170299,,,,,,,,,,,,,,,,44,001, 22,m,Psychologie,2023-01-18_13h30.28.953,00_bat_bachelor,2022.2.4,59.96496594882416,
,,,,,,,,,,,,1,0,1,0,2,0,2,0,,,,,,,2,,,0.2,1661.3461467412417,X,d,go,None,0,,1662.1465996865008,,,,,,,,,,,,,,,,44,001, 22,m,Psychologie,2023-01-18_13h30.28.953,00_bat_bachelor,2022.2.4,59.96496594882416,
,,,,,,,,,,,,1,0,1,0,3,0,3,0,,,,,,,3,,,0.2,1662.346735831874,X,None,nogo,None,1,,1663.1476072011574,,,,,,,,,,,,,,,,44,001, 22,m,Psychologie,2023-01-18_13h30.28.953,00_bat_bachelor,2022.2.4,59.96496594882416,
,,,,,,,,,,,,1,0,1,0,4,0,4,0,,,,,,,4,,,0.2,1663.3474708618305,Y,l,go,l,1,0.44844110938720405,,,,,,,,,,,,,,,,,44,001, 22,m,Psychologie,2023-01-18_13h30.28.953,00_bat_bachelor,2022.2.4,59.96496594882416,
,,,,,,,,,,,,1,0,1,0,5,0,5,0,,,,,,,5,,,0.2,1664.13132890602,X,d,go,d,1,0.5927644333278295,,,,,,,,,,,,,,,,,44,001, 22,m,Psychologie,2023-01-18_13h30.28.953,00_bat_bachelor,2022.2.4,59.96496594882416,
,,,,,,,,,,,,1,0,1,0,6,0,6,0,,,,,,,6,,,0.2,1665.0656600893708,Y,l,go,l,1,0.538747489801608,,,,,,,,,,,,,,,,,44,001, 22,m,Psychologie,2023-01-18_13h30.28.953,00_bat_bachelor,2022.2.4,59.96496594882416,
,,,,,,,,,,,,1,0,1,0,7,0,7,0,,,,,,,7,,,0.2,1665.9163069496572,X,d,go,d,1,0.6656094889040105,,,,,,,,,,,,,,,,,44,001, 22,m,Psychologie,2023-01-18_13h30.28.953,00_bat_bachelor,2022.2.4,59.96496594882416,
,,,,,,,,,,,,1,0,1,0,8,0,8,0,,,,,,,8,,,0.2,1666.9003816240584,Y,l,go,l,1,0.6396099863632116,,,,,,,,,,,,,,,,,44,001, 22,m,Psychologie,2023-01-18_13h30.28.953,00_bat_bachelor,2022.2.4,59.96496594882416,
,,,,,,,,,,,,1,0,1,0,9,0,9,0,,,,,,,9,,,0.2,1667.867503094545,X,d,go,d,1,0.5683634754677769,,,,,,,,,,,,,,,,,44,001, 22,m,Psychologie,2023-01-18_13h30.28.953,00_bat_bachelor,2022.2.4,59.96496594882416,
,,,,,,,,,,,,1,0,1,0,10,0,10,0,,,,,,,10,,,0.2,1668.7682541729591,Y,l,go,l,1,0.6120846663834527,,,,,,,,,,,,,,,,,44,001, 22,m,Psychologie,2023-01-18_13h30.28.953,00_bat_bachelor,2022.2.4,59.96496594882416,
,,,,,,,,,,,,1,0,1,0,11,0,11,0,,,,,,,11,,,0.2,1669.7191918937315,Y,None,nogo,None,1,,1670.5199711418245,,,,,,,,,,,,,,,,44,001, 22,m,Psychologie,2023-01-18_13h30.28.953,00_bat_bachelor,2022.2.4,59.96496594882416,
,,,,,,,,,,,,1,0,1,0,12,0,12,0,,,,,,,12,,,0.2,1670.7199337115453,Y,None,nogo,l,0,0.6612822182942182,,,,,,,,,,,,,,,,,44,001, 22,m,Psychologie,2023-01-18_13h30.28.953,00_bat_bachelor,2022.2.4,59.96496594882416,
,,,,,,,,,,,,1,0,1,0,13,0,13,0,,,,,,,13,,,0.2,1671.6875933635747,X,d,go,d,1,0.4128401569323614,,,,,,,,,,,,,,,,,44,001, 22,m,Psychologie,2023-01-18_13h30.28.953,00_bat_bachelor,2022.2.4,59.96496594882416,
,,,,,,,,,,,,1,0,1,0,14,0,14,0,,,,,,,14,,,0.2,1672.4379100906954,Y,l,go,l,1,0.46285031450679526,,,,,,,,,,,,,,,,,44,001, 22,m,Psychologie,2023-01-18_13h30.28.953,00_bat_bachelor,2022.2.4,59.96496594882416,
,,,,,,,,,,,,1,0,1,0,15,0,15,0,,,,,,,15,,,0.2,1673.2216134683113,X,d,go,d,1,0.4787397613399662,,,,,,,,,,,,,,,,,44,001, 22,m,Psychologie,2023-01-18_13h30.28.953,00_bat_bachelor,2022.2.4,59.96496594882416,
,,,,,,,,,,,,1,0,1,0,16,0,16,0,,,,,,,16,,,0.2,1674.038965314423,Y,l,go,l,1,0.5431411846657284,,,,,,,,,,,,,,,,,44,001, 22,m,Psychologie,2023-01-18_13h30.28.953,00_bat_bachelor,2022.2.4,59.96496594882416,
,,,,,,,,,,,,1,0,1,0,17,0,17,0,,,,,,,17,,,0.2,1674.8896150838118,Y,None,nogo,None,1,,1675.6901325138751,,,,,,,,,,,,,,,,44,001, 22,m,Psychologie,2023-01-18_13h30.28.953,00_bat_bachelor,2022.2.4,59.96496594882416,
,,,,,,,,,,,,1,0,1,0,18,0,18,0,,,,,,,18,,,0.2,1675.8903278107464,X,d,go,d,1,0.41828742701909505,,,,,,,,,,,,,,,,,44,001, 22,m,Psychologie,2023-01-18_13h30.28.953,00_bat_bachelor,2022.2.4,59.96496594882416,
,,,,,,,,,,,,1,0,1,0,19,0,19,0,,,,,,,19,,,0.2,1676.6242547276197,Y,l,go,l,1,0.5325967049284372,,,,,,,,,,,,,,,,,44,001, 22,m,Psychologie,2023-01-18_13h30.28.953,00_bat_bachelor,2022.2.4,59.96496594882416,
,,,,,,,,,,,,1,0,1,0,20,0,20,0,,,,,,,20,,,0.2,1677.4580666869879,Y,None,nogo,None,1,,1678.2587218139379,,,,,,,,,,,,,,,,44,001, 22,m,Psychologie,2023-01-18_13h30.28.953,00_bat_bachelor,2022.2.4,59.96496594882416,
,,,,,,,,,,,,1,0,1,0,21,0,21,0,,,,,,,21,,,0.2,1678.4586363836715,X,d,go,d,1,0.3617764241353143,,,,,,,,,,,,,,,,,44,001, 22,m,Psychologie,2023-01-18_13h30.28.953,00_bat_bachelor,2022.2.4,59.96496594882416,
,,,,,,,,,,,,1,0,1,0,22,0,22,0,,,,,,,22,,,0.2,1679.1260498782794,Y,l,go,None,0,,1679.9266424597881,,,,,,,,,,,,,,,,44,001, 22,m,Psychologie,2023-01-18_13h30.28.953,00_bat_bachelor,2022.2.4,59.96496594882416,
,,,,,,,,,,,,1,0,1,0,23,0,23,0,,,,,,,23,,,0.2,1680.1266045446682,X,d,go,d,1,0.5819828628154937,,,,,,,,,,,,,,,,,44,001, 22,m,Psychologie,2023-01-18_13h30.28.953,00_bat_bachelor,2022.2.4,59.96496594882416,
,,,,,,,,,,,,1,0,1,0,24,0,24,0,,,,,,,24,,,0.2,1681.0109182977176,Y,l,go,l,1,0.62588490213966,,,,,,,,,,,,,,,,,44,001, 22,m,Psychologie,2023-01-18_13h30.28.953,00_bat_bachelor,2022.2.4,59.96496594882416,
,,,,,,,,,,,,1,0,1,0,25,0,25,0,,,,,,,25,,,0.2,1681.9448097237328,Y,None,nogo,None,1,,1682.7452408507816,,,,,,,,,,,,,,,,44,001, 22,m,Psychologie,2023-01-18_13h30.28.953,00_bat_bachelor,2022.2.4,59.96496594882416,
,,,,,,,,,,,,1,0,1,0,26,0,26,0,,,,,,,26,,,0.2,1682.9456344505888,X,d,go,d,1,0.27495076923514716,,,,,,,,,,,,,,,,,44,001, 22,m,Psychologie,2023-01-18_13h30.28.953,00_bat_bachelor,2022.2.4,59.96496594882416,
,,,,,,,,,,,,1,0,1,0,27,0,27,0,,,,,,,27,,,0.2,1683.528903985978,Y,l,go,None,0,,,,,,,,,,,,,,,,,,44,001, 22,m,Psychologie,2023-01-18_13h30.28.953,00_bat_bachelor,2022.2.4,59.96496594882416,
,,,,,,,,,,,,1,0,1,0,28,0,28,0,,,,,,,28,,,0.2,1684.5297485916235,X,d,go,l,0,0.3559083057625685,,,,,,,,,,,,,,,,,44,001, 22,m,Psychologie,2023-01-18_13h30.28.953,00_bat_bachelor,2022.2.4,59.96496594882416,
,,,,,,,,,,,,1,0,1,0,29,0,29,0,,,,,,,29,,,0.2,1685.1966980864527,X,None,nogo,None,1,,,,,,,,,,,,,,,,,,44,001, 22,m,Psychologie,2023-01-18_13h30.28.953,00_bat_bachelor,2022.2.4,59.96496594882416,
,,,,,,,,,,,,1,0,1,0,30,0,30,0,,,,,,,30,,,0.2,1686.1977822071349,Y,l,go,d,0,0.5111964728566818,,,,,,,,,,,,,,,,,44,001, 22,m,Psychologie,2023-01-18_13h30.28.953,00_bat_bachelor,2022.2.4,59.96496594882416,
,,,,,,,,,,,,1,0,1,0,31,0,31,0,,,,,,,31,,,0.2,1687.014736477693,X,d,go,None,0,,,,,,,,,,,,,,,,,,44,001, 22,m,Psychologie,2023-01-18_13h30.28.953,00_bat_bachelor,2022.2.4,59.96496594882416,
,,,,,,,,,,,,1,0,1,0,32,0,32,0,,,,,,,32,,,0.2,1688.0154302955489,Y,l,go,l,1,0.08526164907380007,,,,,,,,,,,,,,,,,44,001, 22,m,Psychologie,2023-01-18_13h30.28.953,00_bat_bachelor,2022.2.4,59.96496594882416,
,,,,,,,,,,,,1,0,1,0,33,0,33,0,,,,,,,33,,,0.2,1688.4161326467292,X,d,go,d,1,0.5805321968509816,,,,,,,,,,,,,,,,,44,001, 22,m,Psychologie,2023-01-18_13h30.28.953,00_bat_bachelor,2022.2.4,59.96496594882416,
,,,,,,,,,,,,1,0,1,0,34,0,34,0,,,,,,,34,,,0.2,1689.300165672641,Y,l,go,l,1,0.36884454189566895,,,,,,,,,,,,,,,,,44,001, 22,m,Psychologie,2023-01-18_13h30.28.953,00_bat_bachelor,2022.2.4,59.96496594882416,
,,,,,,,,,,,,1,0,1,0,35,0,35,0,,,,,,,35,,,0.2,1689.984050916828,X,d,go,d,1,0.35724309299257584,,,,,,,,,,,,,,,,,44,001, 22,m,Psychologie,2023-01-18_13h30.28.953,00_bat_bachelor,2022.2.4,59.96496594882416,
,,,,,,,,,,,,1,0,1,0,36,0,36,0,,,,,,,36,,,0.2,1690.6508956844045,X,None,nogo,None,1,,1691.4514509326254,,,,,,,,,,,,,,,,44,001, 22,m,Psychologie,2023-01-18_13h30.28.953,00_bat_bachelor,2022.2.4,59.96496594882416,
,,,,,,,,,,,,1,0,1,0,37,0,37,0,,,,,,,37,,,0.2,1691.651616168907,Y,l,go,l,1,0.5296425245469436,,,,,,,,,,,,,,,,,44,001, 22,m,Psychologie,2023-01-18_13h30.28.953,00_bat_bachelor,2022.2.4,59.96496594882416,
,,,,,,,,,,,,1,0,1,0,38,0,38,0,,,,,,,38,,,0.2,1692.4855352797313,X,d,go,d,1,0.5273816771514248,,,,,,,,,,,,,,,,,44,001, 22,m,Psychologie,2023-01-18_13h30.28.953,00_bat_bachelor,2022.2.4,59.96496594882416,
,,,,,,,,,,,,1,0,1,0,39,0,39,0,,,,,,,39,,,0.2,1693.3199663903215,X,None,nogo,None,1,,,,,,,,,,,,,,,,,,44,001, 22,m,Psychologie,2023-01-18_13h30.28.953,00_bat_bachelor,2022.2.4,59.96496594882416,
,,,,,,,,,,,,1,0,1,0,40,0,40,0,,,,,,,40,,,0.2,1694.3204832385527,Y,l,go,l,1,0.5807382573548239,,,,,,,,,,,,,,,,,44,001, 22,m,Psychologie,2023-01-18_13h30.28.953,00_bat_bachelor,2022.2.4,59.96496594882416,
,,,,,,,,,,,,1,0,1,0,41,0,41,0,,,,,,,41,,,0.2,1695.2045768705138,X,d,go,d,1,0.4645521318598185,,,,,,,,,,,,,,,,,44,001, 22,m,Psychologie,2023-01-18_13h30.28.953,00_bat_bachelor,2022.2.4,59.96496594882416,
,,,,,,,,,,,,1,0,1,0,42,0,42,0,,,,,,,42,,,0.2,1695.9719015893643,X,None,nogo,None,1,,,,,,,,,,,,,,,,,,44,001, 22,m,Psychologie,2023-01-18_13h30.28.953,00_bat_bachelor,2022.2.4,59.96496594882416,
,,,,,,,,,,,,1,0,1,0,43,0,43,0,,,,,,,43,,,0.2,1696.972547407233,Y,l,go,l,1,0.32870153107796796,,,,,,,,,,,,,,,,,44,001, 22,m,Psychologie,2023-01-18_13h30.28.953,00_bat_bachelor,2022.2.4,59.96496594882416,
,,,,,,,,,,,,1,0,1,0,44,0,44,0,,,,,,,44,,,0.2,1697.606139827316,X,d,go,d,1,0.590794979740167,,,,,,,,,,,,,,,,,44,001, 22,m,Psychologie,2023-01-18_13h30.28.953,00_bat_bachelor,2022.2.4,59.96496594882416,
,,,,,,,,,,,,1,0,1,0,45,0,45,0,,,,,,,45,,,0.2,1698.5068506633397,X,None,nogo,None,1,,,,,,,,,,,,,,,,,,44,001, 22,m,Psychologie,2023-01-18_13h30.28.953,00_bat_bachelor,2022.2.4,59.96496594882416,
,,,,,,,,,,,,1,0,1,0,46,0,46,0,,,,,,,46,,,0.2,1699.507764117443,Y,l,go,l,1,0.2566210811783094,,,,,,,,,,,,,,,,,44,001, 22,m,Psychologie,2023-01-18_13h30.28.953,00_bat_bachelor,2022.2.4,59.96496594882416,
,,,,,,,,,,,,1,0,1,0,47,0,47,0,,,,,,,47,,,0.2,1700.0745948729164,X,d,go,d,1,0.5380837325647008,,,,,,,,,,,,,,,,,44,001, 22,m,Psychologie,2023-01-18_13h30.28.953,00_bat_bachelor,2022.2.4,59.96496594882416,
,,,,,,,,,,,,1,0,1,0,48,0,48,0,,,,,,,48,,,0.2,1700.9255641572818,Y,l,go,l,1,0.4560338329465594,,,,,,,,,,,,,,,,,44,001, 22,m,Psychologie,2023-01-18_13h30.28.953,00_bat_bachelor,2022.2.4,59.96496594882416,
,,,,,,,,,,,,1,0,1,0,49,0,49,0,,,,,,,49,,,0.2,1701.692861724674,X,d,go,d,1,0.5841152254142798,,,,,,,,,,,,,,,,,44,001, 22,m,Psychologie,2023-01-18_13h30.28.953,00_bat_bachelor,2022.2.4,59.96496594882416,
,,,,,,,,,,,,1,0,1,0,50,0,50,0,,,,,,,50,,,0.2,1702.5932288032782,X,None,nogo,d,0,0.5798631062789354,,,,,,,,,,,,,,,,,44,001, 22,m,Psychologie,2023-01-18_13h30.28.953,00_bat_bachelor,2022.2.4,59.96496594882416,
,,,,,,,,,,,,1,0,1,0,51,0,51,0,,,,,,,51,,,0.2,1703.4775197684648,Y,l,go,l,1,0.5111736850230955,,,,,,,,,,,,,,,,,44,001, 22,m,Psychologie,2023-01-18_13h30.28.953,00_bat_bachelor,2022.2.4,59.96496594882416,
,,,,,,,,,,,,1,0,1,0,52,0,52,0,,,,,,,52,,,0.2,1704.2949181600416,X,d,go,d,1,0.558058510767296,,,,,,,,,,,,,,,,,44,001, 22,m,Psychologie,2023-01-18_13h30.28.953,00_bat_bachelor,2022.2.4,59.96496594882416,
,,,,,,,,,,,,1,0,1,0,53,0,53,0,,,,,,,53,,,0.2,1705.1620934971725,X,None,nogo,None,1,,,,,,,,,,,,,,,,,,44,001, 22,m,Psychologie,2023-01-18_13h30.28.953,00_bat_bachelor,2022.2.4,59.96496594882416,
,,,,,,,,,,,,1,0,1,0,54,0,54,0,,,,,,,54,,,0.2,1706.1630239209626,Y,l,go,l,1,0.3857996852020733,,,,,,,,,,,,,,,,,44,001, 22,m,Psychologie,2023-01-18_13h30.28.953,00_bat_bachelor,2022.2.4,59.96496594882416,
,,,,,,,,,,,,1,0,1,0,55,0,55,0,,,,,,,55,,,0.2,1706.8634555813333,X,d,go,d,1,0.6612914304423612,,,,,,,,,,,,,,,,,44,001, 22,m,Psychologie,2023-01-18_13h30.28.953,00_bat_bachelor,2022.2.4,59.96496594882416,
,,,,,,,,,,,,1,0,1,0,56,0,56,0,,,,,,,56,,,0.2,1707.8309654152836,X,None,nogo,None,1,,,,,,,,,,,,,,,,,,44,001, 22,m,Psychologie,2023-01-18_13h30.28.953,00_bat_bachelor,2022.2.4,59.96496594882416,
,,,,,,,,,,,,1,0,1,0,57,0,57,0,,,,,,,57,,,0.2,1708.8315908695222,Y,l,go,l,1,0.27740894988528453,,,,,,,,,,,,,,,,,44,001, 22,m,Psychologie,2023-01-18_13h30.28.953,00_bat_bachelor,2022.2.4,59.96496594882416,
,,,,,,,,,,,,1,0,1,0,58,0,58,0,,,,,,,58,,,0.2,1709.4154291319137,X,d,go,d,1,0.4457555349217728,,,,,,,,,,,,,,,,,44,001, 22,m,Psychologie,2023-01-18_13h30.28.953,00_bat_bachelor,2022.2.4,59.96496594882416,
,,,,,,,,,,,,1,0,1,0,59,0,59,0,,,,,,,59,,,0.2,1710.1656663439062,X,None,nogo,None,1,,,,,,,,,,,,,,,,,,44,001, 22,m,Psychologie,2023-01-18_13h30.28.953,00_bat_bachelor,2022.2.4,59.96496594882416,
,,,,,,,,,,,,1,0,1,0,60,0,60,0,,,,,,,60,,,0.2,1711.166816403973,Y,l,go,l,1,0.29446154765901156,,,,,,,,,,,,,,,,,44,001, 22,m,Psychologie,2023-01-18_13h30.28.953,00_bat_bachelor,2022.2.4,59.96496594882416,
,,,,,,,,,,,,1,0,1,0,61,0,61,0,,,,,,,61,,,0.2,1711.767025082634,X,d,go,d,1,0.4295873003429733,,,,,,,,,,,,,,,,,44,001, 22,m,Psychologie,2023-01-18_13h30.28.953,00_bat_bachelor,2022.2.4,59.96496594882416,
,,,,,,,,,,,,1,0,1,0,62,0,62,0,,,,,,,62,,,0.2,1712.501021332835,Y,l,go,l,1,0.639562471274985,,,,,,,,,,,,,,,,,44,001, 22,m,Psychologie,2023-01-18_13h30.28.953,00_bat_bachelor,2022.2.4,59.96496594882416,
,,,,,,,,,,,,1,0,1,0,63,0,63,0,,,,,,,63,,,0.2,1713.4516099628527,X,d,go,d,1,0.5690068691037595,,,,,,,,,,,,,,,,,44,001, 22,m,Psychologie,2023-01-18_13h30.28.953,00_bat_bachelor,2022.2.4,59.96496594882416,
,,,,,,,,,,,,1,0,1,0,64,0,64,0,,,,,,,64,,,0.2,1714.3357777765777,X,None,nogo,None,1,,,,,,,,,,,,,,,,,,44,001, 22,m,Psychologie,2023-01-18_13h30.28.953,00_bat_bachelor,2022.2.4,59.96496594882416,
,,,,,,,,,,,,1,0,1,0,65,0,65,0,,,,,,,65,,,0.2,1715.3366131701332,Y,l,go,l,1,0.28398591637960635,,,,,,,,,,,,,,,,,44,001, 22,m,Psychologie,2023-01-18_13h30.28.953,00_bat_bachelor,2022.2.4,59.96496594882416,
,,,,,,,,,,,,1,0,1,0,66,0,66,0,,,,,,,66,,,0.2,1715.936783545796,X,d,go,d,1,0.5154413193231449,,,,,,,,,,,,,,,,,44,001, 22,m,Psychologie,2023-01-18_13h30.28.953,00_bat_bachelor,2022.2.4,59.96496594882416,
,,,,,,,,,,,,1,0,1,0,67,0,67,0,,,,,,,67,,,0.2,1716.754064604087,Y,l,go,l,1,0.5949132807727437,,,,,,,,,,,,,,,,,44,001, 22,m,Psychologie,2023-01-18_13h30.28.953,00_bat_bachelor,2022.2.4,59.96496594882416,
,,,,,,,,,,,,1,0,1,0,68,0,68,0,,,,,,,68,,,0.2,1717.6547429552593,X,d,go,d,1,0.5744812906777952,,,,,,,,,,,,,,,,,44,001, 22,m,Psychologie,2023-01-18_13h30.28.953,00_bat_bachelor,2022.2.4,59.96496594882416,
,,,,,,,,,,,,1,0,1,0,69,0,69,0,,,,,,,69,,,0.2,1718.5390964658873,X,None,nogo,None,1,,,,,,,,,,,,,,,,,,44,001, 22,m,Psychologie,2023-01-18_13h30.28.953,00_bat_bachelor,2022.2.4,59.96496594882416,
,,,,,,,,,,,,1,0,1,0,70,0,70,0,,,,,,,70,,,0.2,1719.5395226475084,Y,l,go,l,1,0.24092993725207634,,,,,,,,,,,,,,,,,44,001, 22,m,Psychologie,2023-01-18_13h30.28.953,00_bat_bachelor,2022.2.4,59.96496594882416,
,,,,,,,,,,,,1,0,1,0,71,0,71,0,,,,,,,71,,,0.2,1720.0901187441777,X,d,go,d,1,0.5065113842429128,,,,,,,,,,,,,,,,,44,001, 22,m,Psychologie,2023-01-18_13h30.28.953,00_bat_bachelor,2022.2.4,59.96496594882416,
,,,,,,,,,,,,1,0,1,0,72,0,72,0,,,,,,,72,,,0.2,1720.907388166117,Y,l,go,l,1,0.5535756038734689,,,,,,,,,,,,,,,,,44,001, 22,m,Psychologie,2023-01-18_13h30.28.953,00_bat_bachelor,2022.2.4,59.96496594882416,
,,,,,,,,,,,,1,0,1,0,73,0,73,0,,,,,,,73,,,0.2,1721.774802533415,X,d,go,d,1,0.6140996957255993,,,,,,,,,,,,,,,,,44,001, 22,m,Psychologie,2023-01-18_13h30.28.953,00_bat_bachelor,2022.2.4,59.96496594882416,
,,,,,,,,,,,,1,0,1,0,74,0,74,0,,,,,,,74,,,0.2,1722.6922226946626,Y,l,go,l,1,0.5931256453040987,,,,,,,,,,,,,,,,,44,001, 22,m,Psychologie,2023-01-18_13h30.28.953,00_bat_bachelor,2022.2.4,59.96496594882416,
,,,,,,,,,,,,1,0,1,0,75,0,75,0,,,,,,,75,,,0.2,1723.592962136725,Y,None,nogo,None,1,,,,,,,,,,,,,,,,,,44,001, 22,m,Psychologie,2023-01-18_13h30.28.953,00_bat_bachelor,2022.2.4,59.96496594882416,
,,,,,,,,,,,,1,0,1,0,76,0,76,0,,,,,,,76,,,0.2,1724.593499833456,X,d,go,d,1,0.3558554572809953,,,,,,,,,,,,,,,,,44,001, 22,m,Psychologie,2023-01-18_13h30.28.953,00_bat_bachelor,2022.2.4,59.96496594882416,
,,,,,,,,,,,,1,0,1,0,77,0,77,0,,,,,,,77,,,0.2,1725.2608890856209,Y,l,go,l,1,0.5038675067480654,,,,,,,,,,,,,,,,,44,001, 22,m,Psychologie,2023-01-18_13h30.28.953,00_bat_bachelor,2022.2.4,59.96496594882416,
,,,,,,,,,,,,1,0,1,0,78,0,78,0,,,,,,,78,,,0.2,1726.07783414406,X,d,go,d,1,0.55087936273776,,,,,,,,,,,,,,,,,44,001, 22,m,Psychologie,2023-01-18_13h30.28.953,00_bat_bachelor,2022.2.4,59.96496594882416,
,,,,,,,,,,,,1,0,1,0,79,0,79,0,,,,,,,79,,,0.2,1726.9454560264421,Y,l,go,l,1,0.5798534092900809,,,,,,,,,,,,,,,,,44,001, 22,m,Psychologie,2023-01-18_13h30.28.953,00_bat_bachelor,2022.2.4,59.96496594882416,
,,,,,,,,,,,,1,0,1,0,80,0,80,0,,,,,,,80,,,0.2,1727.8294939008483,X,d,go,None,0,,1728.6297790885728,,,,,,,,,,,,,,,,44,001, 22,m,Psychologie,2023-01-18_13h30.28.953,00_bat_bachelor,2022.2.4,59.96496594882416,
,,,,,,,,,,,,1,0,1,0,81,0,81,0,,,,,,,81,,,0.2,1728.8301125672006,Y,l,go,l,1,0.5665787490725052,,,,,,,,,,,,,,,,,44,001, 22,m,Psychologie,2023-01-18_13h30.28.953,00_bat_bachelor,2022.2.4,59.96496594882416,
,,,,,,,,,,,,1,0,1,0,82,0,82,0,,,,,,,82,,,0.2,1729.6975851163152,Y,None,nogo,None,1,,,,,,,,,,,,,,,,,,44,001, 22,m,Psychologie,2023-01-18_13h30.28.953,00_bat_bachelor,2022.2.4,59.96496594882416,
,,,,,,,,,,,,1,0,1,0,83,0,83,0,,,,,,,83,,,0.2,1730.6980059646012,X,d,go,d,1,0.31523147696862,,,,,,,,,,,,,,,,,44,001, 22,m,Psychologie,2023-01-18_13h30.28.953,00_bat_bachelor,2022.2.4,59.96496594882416,
,,,,,,,,,,,,1,0,1,0,84,0,84,0,,,,,,,84,,,0.2,1731.315530998516,Y,l,go,l,1,0.4970558736822568,,,,,,,,,,,,,,,,,44,001, 22,m,Psychologie,2023-01-18_13h30.28.953,00_bat_bachelor,2022.2.4,59.96496594882416,
,,,,,,,,,,,,1,0,1,0,85,0,85,0,,,,,,,85,,,0.2,1732.1161327921727,X,d,go,d,1,0.46563722225255333,,,,,,,,,,,,,,,,,44,001, 22,m,Psychologie,2023-01-18_13h30.28.953,00_bat_bachelor,2022.2.4,59.96496594882416,
,,,,,,,,,,,,1,0,1,0,86,0,86,0,,,,,,,86,,,0.2,1732.883133632422,Y,l,go,l,1,0.44922704837517813,,,,,,,,,,,,,,,,,44,001, 22,m,Psychologie,2023-01-18_13h30.28.953,00_bat_bachelor,2022.2.4,59.96496594882416,
,,,,,,,,,,,,1,0,1,0,87,0,87,0,,,,,,,87,,,0.2,1733.6335987230996,Y,None,nogo,None,1,,,,,,,,,,,,,,,,,,44,001, 22,m,Psychologie,2023-01-18_13h30.28.953,00_bat_bachelor,2022.2.4,59.96496594882416,
,,,,,,,,,,,,1,0,1,0,88,0,88,0,,,,,,,88,,,0.2,1734.6343613893841,X,d,go,d,1,0.3148324468929786,,,,,,,,,,,,,,,,,44,001, 22,m,Psychologie,2023-01-18_13h30.28.953,00_bat_bachelor,2022.2.4,59.96496594882416,
,,,,,,,,,,,,1,0,1,0,89,0,89,0,,,,,,,89,,,0.2,1735.2518747869763,Y,l,go,l,1,0.6096521827275865,,,,,,,,,,,,,,,,,44,001, 22,m,Psychologie,2023-01-18_13h30.28.953,00_bat_bachelor,2022.2.4,59.96496594882416,
,,,,,,,,,,,,1,0,1,0,90,0,90,0,,,,,,,90,,,0.2,1736.1688653726596,Y,None,nogo,None,1,,,,,,,,,,,,,,,,,,44,001, 22,m,Psychologie,2023-01-18_13h30.28.953,00_bat_bachelor,2022.2.4,59.96496594882416,
,,,,,,,,,,,,1,0,1,0,91,0,91,0,,,,,,,91,,,0.2,1737.1698947054974,X,d,go,d,1,0.29181815503397956,,,,,,,,,,,,,,,,,44,001, 22,m,Psychologie,2023-01-18_13h30.28.953,00_bat_bachelor,2022.2.4,59.96496594882416,
,,,,,,,,,,,,1,0,1,0,92,0,92,0,,,,,,,92,,,0.2,1737.770436474937,Y,l,go,l,1,0.5067281114170328,,,,,,,,,,,,,,,,,44,001, 22,m,Psychologie,2023-01-18_13h30.28.953,00_bat_bachelor,2022.2.4,59.96496594882416,
,,,,,,,,,,,,1,0,1,0,93,0,93,0,,,,,,,93,,,0.2,1738.5876084423508,X,d,go,d,1,0.632923444150947,,,,,,,,,,,,,,,,,44,001, 22,m,Psychologie,2023-01-18_13h30.28.953,00_bat_bachelor,2022.2.4,59.96496594882416,
,,,,,,,,,,,,1,0,1,0,94,0,94,0,,,,,,,94,,,0.2,1739.5216952621995,Y,l,go,l,1,0.595209038205212,,,,,,,,,,,,,,,,,44,001, 22,m,Psychologie,2023-01-18_13h30.28.953,00_bat_bachelor,2022.2.4,59.96496594882416,
,,,,,,,,,,,,1,0,1,0,95,0,95,0,,,,,,,95,,,0.2,1740.4223551891628,X,d,go,None,0,,1741.222701952618,,,,,,,,,,,,,,,,44,001, 22,m,Psychologie,2023-01-18_13h30.28.953,00_bat_bachelor,2022.2.4,59.96496594882416,
,,,,,,,,,,,,1,0,1,0,96,0,96,0,,,,,,,96,,,0.2,1741.4229947039858,X,None,nogo,None,1,,,,,,,,,,,,,,,,,,44,001, 22,m,Psychologie,2023-01-18_13h30.28.953,00_bat_bachelor,2022.2.4,59.96496594882416,
,,,,,,,,,,,,1,0,1,0,97,0,97,0,,,,,,,97,,,0.2,1742.4239086429588,X,None,nogo,l,0,0.28476894632331096,,,,,,,,,,,,,,,,,44,001, 22,m,Psychologie,2023-01-18_13h30.28.953,00_bat_bachelor,2022.2.4,59.96496594882416,
,,,,,,,,,,,,1,0,1,0,98,0,98,0,,,,,,,98,,,0.2,1743.0242239882355,Y,l,go,None,0,,,,,,,,,,,,,,,,,,44,001, 22,m,Psychologie,2023-01-18_13h30.28.953,00_bat_bachelor,2022.2.4,59.96496594882416,
,,,,,,,,,,,,1,0,1,0,99,0,99,0,,,,,,,99,,,0.2,1744.0251131999248,X,d,go,d,1,0.6202170260658022,,,,,,,,,,,,,,,,,44,001, 22,m,Psychologie,2023-01-18_13h30.28.953,00_bat_bachelor,2022.2.4,59.96496594882416,
,,,,,,,,,,,,1,0,1,0,100,0,100,0,,,,,,,100,,,0.2,1744.9588921411487,Y,l,go,l,1,0.6458126500365324,,,,,,,,,,,,,,,,,44,001, 22,m,Psychologie,2023-01-18_13h30.28.953,00_bat_bachelor,2022.2.4,59.96496594882416,
,,,,,,,,,,,,1,0,1,0,101,0,101,0,,,,,,,101,,,0.2,1745.9096102256444,Y,None,nogo,None,1,,,,,,,,,,,,,,,,,,44,001, 22,m,Psychologie,2023-01-18_13h30.28.953,00_bat_bachelor,2022.2.4,59.96496594882416,
,,,,,,,,,,,,1,0,1,0,102,0,102,0,,,,,,,102,,,0.2,1746.9106977402698,X,d,go,d,1,0.4057953118754085,,,,,,,,,,,,,,,,,44,001, 22,m,Psychologie,2023-01-18_13h30.28.953,00_bat_bachelor,2022.2.4,59.96496594882416,
,,,,,,,,,,,,1,0,1,0,103,0,103,0,,,,,,,103,,,0.2,1747.6275904835784,Y,l,go,l,1,0.4246098481817171,,,,,,,,,,,,,,,,,44,001, 22,m,Psychologie,2023-01-18_13h30.28.953,00_bat_bachelor,2022.2.4,59.96496594882416,
,,,,,,,,,,,,1,0,1,0,104,0,104,0,,,,,,,104,,,0.2,1748.3617651579261,X,d,go,d,1,0.4586607407836709,,,,,,,,,,,,,,,,,44,001, 22,m,Psychologie,2023-01-18_13h30.28.953,00_bat_bachelor,2022.2.4,59.96496594882416,
,,,,,,,,,,,,1,0,1,0,105,0,105,0,,,,,,,105,,,0.2,1749.1287204224209,X,None,nogo,None,1,,,,,,,,,,,,,,,,,,44,001, 22,m,Psychologie,2023-01-18_13h30.28.953,00_bat_bachelor,2022.2.4,59.96496594882416,
,,,,,,,,,,,,1,0,1,0,106,0,106,0,,,,,,,106,,,0.2,1750.1297032098228,Y,l,go,l,1,0.35583363912883215,,,,,,,,,,,,,,,,,44,001, 22,m,Psychologie,2023-01-18_13h30.28.953,00_bat_bachelor,2022.2.4,59.96496594882416,
,,,,,,,,,,,,1,0,1,0,107,0,107,0,,,,,,,107,,,0.2,1750.7969266439031,X,d,go,d,1,0.5208721045346465,,,,,,,,,,,,,,,,,44,001, 22,m,Psychologie,2023-01-18_13h30.28.953,00_bat_bachelor,2022.2.4,59.96496594882416,
,,,,,,,,,,,,1,0,1,0,108,0,108,0,,,,,,,108,,,0.2,1751.630628057872,X,None,nogo,None,1,,,,,,,,,,,,,,,,,,44,001, 22,m,Psychologie,2023-01-18_13h30.28.953,00_bat_bachelor,2022.2.4,59.96496594882416,
,,,,,,,,,,,,1,0,1,0,109,0,109,0,,,,,,,109,,,0.2,1752.6317257542978,Y,l,go,l,1,0.39681689196731895,,,,,,,,,,,,,,,,,44,001, 22,m,Psychologie,2023-01-18_13h30.28.953,00_bat_bachelor,2022.2.4,59.96496594882416,
,,,,,,,,,,,,1,0,1,0,110,0,110,0,,,,,,,110,,,0.2,1753.3321200813807,X,d,go,None,0,,1754.1326719356584,,,,,,,,,,,,,,,,44,001, 22,m,Psychologie,2023-01-18_13h30.28.953,00_bat_bachelor,2022.2.4,59.96496594882416,
,,,,,,,,,,,,1,0,1,0,111,0,111,0,,,,,,,111,,,0.2,1754.3330364445865,Y,l,go,l,1,0.5679688090167474,,,,,,,,,,,,,,,,,44,001, 22,m,Psychologie,2023-01-18_13h30.28.953,00_bat_bachelor,2022.2.4,59.96496594882416,
,,,,,,,,,,,,1,0,1,0,112,0,112,0,,,,,,,112,,,0.2,1755.216947773588,X,d,go,d,1,0.5638558412902057,,,,,,,,,,,,,,,,,44,001, 22,m,Psychologie,2023-01-18_13h30.28.953,00_bat_bachelor,2022.2.4,59.96496594882416,
,,,,,,,,,,,,1,0,1,0,113,0,113,0,,,,,,,113,,,0.2,1756.08432674699,Y,l,go,l,1,0.5445404567290097,,,,,,,,,,,,,,,,,44,001, 22,m,Psychologie,2023-01-18_13h30.28.953,00_bat_bachelor,2022.2.4,59.96496594882416,
,,,,,,,,,,,,1,0,1,0,114,0,114,0,,,,,,,114,,,0.2,1756.934670092276,X,d,go,d,1,0.5746340178884566,,,,,,,,,,,,,,,,,44,001, 22,m,Psychologie,2023-01-18_13h30.28.953,00_bat_bachelor,2022.2.4,59.96496594882416,
,,,,,,,,,,,,1,0,1,0,115,0,115,0,,,,,,,115,,,0.2,1757.8190168150177,Y,l,go,l,1,0.45745055956649594,,,,,,,,,,,,,,,,,44,001, 22,m,Psychologie,2023-01-18_13h30.28.953,00_bat_bachelor,2022.2.4,59.96496594882416,
,,,,,,,,,,,,1,0,1,0,116,0,116,0,,,,,,,116,,,0.2,1758.5861277157965,X,d,go,d,1,0.41027773392852396,,,,,,,,,,,,,,,,,44,001, 22,m,Psychologie,2023-01-18_13h30.28.953,00_bat_bachelor,2022.2.4,59.96496594882416,
,,,,,,,,,,,,1,0,1,0,117,0,117,0,,,,,,,117,,,0.2,1759.3031547621067,X,None,nogo,None,1,,,,,,,,,,,,,,,,,,44,001, 22,m,Psychologie,2023-01-18_13h30.28.953,00_bat_bachelor,2022.2.4,59.96496594882416,
,,,,,,,,,,,,1,0,1,0,118,0,118,0,,,,,,,118,,,0.2,1760.3041661555471,Y,l,go,l,1,0.40489979716949165,,,,,,,,,,,,,,,,,44,001, 22,m,Psychologie,2023-01-18_13h30.28.953,00_bat_bachelor,2022.2.4,59.96496594882416,
,,,,,,,,,,,,1,0,1,0,119,0,119,0,,,,,,,119,,,0.2,1761.0212358684803,X,d,go,d,1,0.4558641360781621,,,,,,,,,,,,,,,,,44,001, 22,m,Psychologie,2023-01-18_13h30.28.953,00_bat_bachelor,2022.2.4,59.96496594882416,
,,,,,,,,,,,,1,0,1,0,120,0,120,0,,,,,,,120,,,0.2,1761.7885761024954,Y,l,go,l,1,0.5049147789832205,,,,,,,,,,,,,,,,,44,001, 22,m,Psychologie,2023-01-18_13h30.28.953,00_bat_bachelor,2022.2.4,59.96496594882416,
,,,,,,,,,,,,1,0,1,0,121,0,121,0,,,,,,,121,,,0.2,1762.60594152438,X,d,go,d,1,0.4223984553536866,,,,,,,,,,,,,,,,,44,001, 22,m,Psychologie,2023-01-18_13h30.28.953,00_bat_bachelor,2022.2.4,59.96496594882416,
,,,,,,,,,,,,1,0,1,0,122,0,122,0,,,,,,,122,,,0.2,1763.3399401988136,X,None,nogo,d,0,0.5372420359926764,,,,,,,,,,,,,,,,,44,001, 22,m,Psychologie,2023-01-18_13h30.28.953,00_bat_bachelor,2022.2.4,59.96496594882416,
,,,,,,,,,,,,1,0,1,0,123,0,123,0,,,,,,,123,,,0.2,1764.1905487561016,Y,l,go,l,1,0.5673709911061451,,,,,,,,,,,,,,,,,44,001, 22,m,Psychologie,2023-01-18_13h30.28.953,00_bat_bachelor,2022.2.4,59.96496594882416,
,,,,,,,,,,,,1,0,1,0,124,0,124,0,,,,,,,124,,,0.2,1765.0578283355862,X,d,go,d,1,0.5476686976326164,,,,,,,,,,,,,,,,,44,001, 22,m,Psychologie,2023-01-18_13h30.28.953,00_bat_bachelor,2022.2.4,59.96496594882416,
,,,,,,,,,,,,1,0,1,0,125,0,125,0,,,,,,,125,,,0.2,1765.9083006505098,Y,l,go,l,1,0.5119765937270131,,,,,,,,,,,,,,,,,44,001, 22,m,Psychologie,2023-01-18_13h30.28.953,00_bat_bachelor,2022.2.4,59.96496594882416,
,,,,,,,,,,,,1,0,1,0,126,0,126,0,,,,,,,126,,,0.2,1766.7256510420993,Y,None,nogo,None,1,,1767.526128714584,,,,,,,,,,,,,,,,44,001, 22,m,Psychologie,2023-01-18_13h30.28.953,00_bat_bachelor,2022.2.4,59.96496594882416,
,,,,,,,,,,,,1,0,1,0,127,0,127,0,,,,,,,127,,,0.2,1767.726578556816,X,d,go,d,1,0.5338340376620181,,,,,,,,,,,,,,,,,44,001, 22,m,Psychologie,2023-01-18_13h30.28.953,00_bat_bachelor,2022.2.4,59.96496594882416,
,,,,,,,,,,,,1,0,1,0,128,0,128,0,,,,,,,128,,,0.2,1768.5604826373456,Y,l,go,l,1,0.4839790315600112,,,,,,,,,,,,,,,,,44,001, 22,m,Psychologie,2023-01-18_13h30.28.953,00_bat_bachelor,2022.2.4,59.96496594882416,
,,,,,,,,,,,,1,0,1,0,129,0,129,0,,,,,,,129,,,0.2,1769.3441612876777,Y,None,nogo,l,0,0.5640177805908024,,,,,,,,,,,,,,,,,44,001, 22,m,Psychologie,2023-01-18_13h30.28.953,00_bat_bachelor,2022.2.4,59.96496594882416,
,,,,,,,,,,,,1,0,1,0,130,0,130,0,,,,,,,130,,,0.2,1770.2117914124683,X,d,go,d,1,0.6414281673205551,,,,,,,,,,,,,,,,,44,001, 22,m,Psychologie,2023-01-18_13h30.28.953,00_bat_bachelor,2022.2.4,59.96496594882416,
,,,,,,,,,,,,1,0,1,0,131,0,131,0,,,,,,,131,,,0.2,1771.1623713152076,Y,l,go,l,1,0.394178832648322,,,,,,,,,,,,,,,,,44,001, 22,m,Psychologie,2023-01-18_13h30.28.953,00_bat_bachelor,2022.2.4,59.96496594882416,
,,,,,,,,,,,,1,0,1,0,132,0,132,0,,,,,,,132,,,0.2,1771.8629891573219,X,d,go,d,1,0.6543256156146526,,,,,,,,,,,,,,,,,44,001, 22,m,Psychologie,2023-01-18_13h30.28.953,00_bat_bachelor,2022.2.4,59.96496594882416,
,,,,,,,,,,,,1,0,1,0,133,0,133,0,,,,,,,133,,,0.2,1772.830226506543,X,None,nogo,None,1,,,,,,,,,,,,,,,,,,44,001, 22,m,Psychologie,2023-01-18_13h30.28.953,00_bat_bachelor,2022.2.4,59.96496594882416,
,,,,,,,,,,,,1,0,1,0,134,0,134,0,,,,,,,134,,,0.2,1773.8314730513957,Y,l,go,l,1,0.3815315660322085,,,,,,,,,,,,,,,,,44,001, 22,m,Psychologie,2023-01-18_13h30.28.953,00_bat_bachelor,2022.2.4,59.96496594882416,
,,,,,,,,,,,,1,0,1,0,135,0,135,0,,,,,,,135,,,0.2,1774.5152894471248,X,d,go,d,1,0.5142665320017841,,,,,,,,,,,,,,,,,44,001, 22,m,Psychologie,2023-01-18_13h30.28.953,00_bat_bachelor,2022.2.4,59.96496594882416,
,,,,,,,,,,,,1,0,1,0,136,0,136,0,,,,,,,136,,,0.2,1775.3324240812508,Y,l,go,l,1,0.44795141264330596,,,,,,,,,,,,,,,,,44,001, 22,m,Psychologie,2023-01-18_13h30.28.953,00_bat_bachelor,2022.2.4,59.96496594882416,
,,,,,,,,,,,,1,0,1,0,137,0,137,0,,,,,,,137,,,0.2,1776.0828460204357,X,d,go,d,1,0.5295610700559337,,,,,,,,,,,,,,,,,44,001, 22,m,Psychologie,2023-01-18_13h30.28.953,00_bat_bachelor,2022.2.4,59.96496594882416,
,,,,,,,,,,,,1,0,1,0,138,0,138,0,,,,,,,138,,,0.2,1776.933578214026,X,None,nogo,None,1,,,,,,,,,,,,,,,,,,44,001, 22,m,Psychologie,2023-01-18_13h30.28.953,00_bat_bachelor,2022.2.4,59.96496594882416,
,,,,,,,,,,,,1,0,1,0,139,0,139,0,,,,,,,139,,,0.2,1777.9342453652062,Y,l,go,l,1,0.3272581378405448,,,,,,,,,,,,,,,,,44,001, 22,m,Psychologie,2023-01-18_13h30.28.953,00_bat_bachelor,2022.2.4,59.96496594882416,
,,,,,,,,,,,,1,0,1,0,140,0,140,0,,,,,,,140,,,0.2,1778.5679885730788,X,d,go,d,1,0.5734500184480567,,,,,,,,,,,,,,,,,44,001, 22,m,Psychologie,2023-01-18_13h30.28.953,00_bat_bachelor,2022.2.4,59.96496594882416,
,,,,,,,,,,,,1,0,1,0,141,0,141,0,,,,,,,141,,,0.2,1779.4521151747322,Y,l,go,l,1,0.553406876657391,,,,,,,,,,,,,,,,,44,001, 22,m,Psychologie,2023-01-18_13h30.28.953,00_bat_bachelor,2022.2.4,59.96496594882416,
,,,,,,,,,,,,1,0,1,0,142,0,142,0,,,,,,,142,,,0.2,1780.3194097845117,X,d,go,d,1,0.43782341753831133,,,,,,,,,,,,,,,,,44,001, 22,m,Psychologie,2023-01-18_13h30.28.953,00_bat_bachelor,2022.2.4,59.96496594882416,
,,,,,,,,,,,,1,0,1,0,143,0,143,0,,,,,,,143,,,0.2,1781.0700324508944,X,None,nogo,None,1,,,,,,,,,,,,,,,,,,44,001, 22,m,Psychologie,2023-01-18_13h30.28.953,00_bat_bachelor,2022.2.4,59.96496594882416,
,,,,,,,,,,,,1,0,1,0,144,0,144,0,,,,,,,144,,,0.2,1782.0707422687265,Y,l,go,l,1,0.526063859637361,,,,,,,,,,,,,,,,,44,001, 22,m,Psychologie,2023-01-18_13h30.28.953,00_bat_bachelor,2022.2.4,59.96496594882416,
,,,,,,,,,,,,1,0,1,0,145,0,145,0,,,,,,,145,,,0.2,1782.9046642886533,X,d,go,d,1,0.49255405768053606,,,,,,,,,,,,,,,,,44,001, 22,m,Psychologie,2023-01-18_13h30.28.953,00_bat_bachelor,2022.2.4,59.96496594882416,
,,,,,,,,,,,,1,0,1,0,146,0,146,0,,,,,,,146,,,0.2,1783.7053548095282,Y,l,go,l,1,0.6195595718745608,,,,,,,,,,,,,,,,,44,001, 22,m,Psychologie,2023-01-18_13h30.28.953,00_bat_bachelor,2022.2.4,59.96496594882416,
,,,,,,,,,,,,1,0,1,0,147,0,147,0,,,,,,,147,,,0.2,1784.6391036901332,Y,None,nogo,None,1,,,,,,,,,,,,,,,,,,44,001, 22,m,Psychologie,2023-01-18_13h30.28.953,00_bat_bachelor,2022.2.4,59.96496594882416,
,,,,,,,,,,,,1,0,1,0,148,0,148,0,,,,,,,148,,,0.2,1785.6401010229602,X,d,go,d,1,0.3166903853707481,,,,,,,,,,,,,,,,,44,001, 22,m,Psychologie,2023-01-18_13h30.28.953,00_bat_bachelor,2022.2.4,59.96496594882416,
,,,,,,,,,,,,1,0,1,0,149,0,149,0,,,,,,,149,,,0.2,1786.2570301784144,Y,l,go,l,1,0.531467008520849,,,,,,,,,,,,,,,,,44,001, 22,m,Psychologie,2023-01-18_13h30.28.953,00_bat_bachelor,2022.2.4,59.96496594882416,
,,,,,,,,,,,,1,0,1,0,150,0,150,0,,,,,,,150,,,0.2,1787.091323107219,X,d,go,d,1,0.4336154195771087,,,,,,,,,,,,,,,,,44,001, 22,m,Psychologie,2023-01-18_13h30.28.953,00_bat_bachelor,2022.2.4,59.96496594882416,
,,,,,,,,,,,,1,0,1,0,151,0,151,0,,,,,,,151,,,0.2,1787.8251743877772,Y,l,go,l,1,0.5324163413897622,,,,,,,,,,,,,,,,,44,001, 22,m,Psychologie,2023-01-18_13h30.28.953,00_bat_bachelor,2022.2.4,59.96496594882416,
,,,,,,,,,,,,1,0,1,0,152,0,152,0,,,,,,,152,,,0.2,1788.6592074379441,X,d,go,d,1,0.6582053712918423,,,,,,,,,,,,,,,,,44,001, 22,m,Psychologie,2023-01-18_13h30.28.953,00_bat_bachelor,2022.2.4,59.96496594882416,
,,,,,,,,,,,,1,0,1,0,153,0,153,0,,,,,,,153,,,0.2,1789.626565999235,Y,l,go,l,1,0.6497724056825973,,,,,,,,,,,,,,,,,44,001, 22,m,Psychologie,2023-01-18_13h30.28.953,00_bat_bachelor,2022.2.4,59.96496594882416,
,,,,,,,,,,,,1,0,1,0,154,0,154,0,,,,,,,154,,,0.2,1790.5769800838898,X,d,go,d,1,0.4355805095692631,,,,,,,,,,,,,,,,,44,001, 22,m,Psychologie,2023-01-18_13h30.28.953,00_bat_bachelor,2022.2.4,59.96496594882416,
,,,,,,,,,,,,1,0,1,0,155,0,155,0,,,,,,,155,,,0.2,1791.3277821441006,Y,l,go,l,1,0.5820274688594509,,,,,,,,,,,,,,,,,44,001, 22,m,Psychologie,2023-01-18_13h30.28.953,00_bat_bachelor,2022.2.4,59.96496594882416,
,,,,,,,,,,,,1,0,1,0,156,0,156,0,,,,,,,156,,,0.2,1792.2291746767587,X,d,go,d,1,0.367140300309984,,,,,,,,,,,,,,,,,44,001, 22,m,Psychologie,2023-01-18_13h30.28.953,00_bat_bachelor,2022.2.4,59.96496594882416,
,,,,,,,,,,,,1,0,1,0,157,0,157,0,,,,,,,157,,,0.2,1792.9294715493452,X,None,nogo,None,1,,1793.730316251953,,,,,,,,,,,,,,,,44,001, 22,m,Psychologie,2023-01-18_13h30.28.953,00_bat_bachelor,2022.2.4,59.96496594882416,
,,,,,,,,,,,,1,0,1,0,158,0,158,0,,,,,,,158,,,0.2,1793.9302705792652,Y,l,go,l,1,0.3940042872854974,,,,,,,,,,,,,,,,,44,001, 22,m,Psychologie,2023-01-18_13h30.28.953,00_bat_bachelor,2022.2.4,59.96496594882416,
,,,,,,,,,,,,1,0,1,0,159,0,159,0,,,,,,,159,,,0.2,1794.6476903526345,X,d,go,d,1,0.36492551350966096,,,,,,,,,,,,,,,,,44,001, 22,m,Psychologie,2023-01-18_13h30.28.953,00_bat_bachelor,2022.2.4,59.96496594882416,
,,,,,,,,,,,,1,0,1,0,160,0,160,0,,,,,,,160,,,0.2,1795.3480643160874,Y,l,go,l,1,0.46486146506504156,,,,,,,,,,,,,,,,,44,001, 22,m,Psychologie,2023-01-18_13h30.28.953,00_bat_bachelor,2022.2.4,59.96496594882416,
,,,,,,,,,,,,1,0,1,0,161,0,161,0,,,,,,,161,,,0.2,1796.1487393218267,Y,None,nogo,None,1,,1796.949227176112,,,,,,,,,,,,,,,,44,001, 22,m,Psychologie,2023-01-18_13h30.28.953,00_bat_bachelor,2022.2.4,59.96496594882416,
,,,,,,,,,,,,1,0,1,0,162,0,162,0,,,,,,,162,,,0.2,1797.1493545942358,X,d,go,d,1,0.4387489928631112,,,,,,,,,,,,,,,,,44,001, 22,m,Psychologie,2023-01-18_13h30.28.953,00_bat_bachelor,2022.2.4,59.96496594882416,
,,,,,,,,,,,,1,0,1,0,163,0,163,0,,,,,,,163,,,0.2,1797.9333231838245,Y,l,go,l,1,0.31148020605905913,,,,,,,,,,,,,,,,,44,001, 22,m,Psychologie,2023-01-18_13h30.28.953,00_bat_bachelor,2022.2.4,59.96496594882416,
,,,,,,,,,,,,1,0,1,0,164,0,164,0,,,,,,,164,,,0.2,1798.5839240805071,Y,None,nogo,d,0,0.4437046268139966,,,,,,,,,,,,,,,,,44,001, 22,m,Psychologie,2023-01-18_13h30.28.953,00_bat_bachelor,2022.2.4,59.96496594882416,
,,,,,,,,,,,,1,0,1,0,165,0,165,0,,,,,,,165,,,0.2,1799.3678597004327,X,d,go,None,0,,1800.1683742213936,,,,,,,,,,,,,,,,44,001, 22,m,Psychologie,2023-01-18_13h30.28.953,00_bat_bachelor,2022.2.4,59.96496594882416,
,,,,,,,,,,,,1,0,1,0,166,0,166,0,,,,,,,166,,,0.2,1800.3687498818035,Y,l,go,l,1,0.25950495855067857,,,,,,,,,,,,,,,,,44,001, 22,m,Psychologie,2023-01-18_13h30.28.953,00_bat_bachelor,2022.2.4,59.96496594882416,
,,,,,,,,,,,,1,0,1,0,167,0,167,0,,,,,,,167,,,0.2,1800.952267174638,Y,None,nogo,None,1,,1801.7529736955184,,,,,,,,,,,,,,,,44,001, 22,m,Psychologie,2023-01-18_13h30.28.953,00_bat_bachelor,2022.2.4,59.96496594882416,
,,,,,,,,,,,,1,0,1,0,168,0,168,0,,,,,,,168,,,0.2,1801.9535190528259,Y,None,nogo,None,1,,1802.753897816292,,,,,,,,,,,,,,,,44,001, 22,m,Psychologie,2023-01-18_13h30.28.953,00_bat_bachelor,2022.2.4,59.96496594882416,
,,,,,,,,,,,,1,0,1,0,169,0,169,0,,,,,,,169,,,0.2,1802.953802204196,X,d,go,d,1,0.37916890051565133,,,,,,,,,,,,,,,,,44,001, 22,m,Psychologie,2023-01-18_13h30.28.953,00_bat_bachelor,2022.2.4,59.96496594882416,
,,,,,,,,,,,,1,0,1,0,170,0,170,0,,,,,,,170,,,0.2,1803.6547439249698,Y,l,go,l,1,0.49379236009554006,,,,,,,,,,,,,,,,,44,001, 22,m,Psychologie,2023-01-18_13h30.28.953,00_bat_bachelor,2022.2.4,59.96496594882416,
,,,,,,,,,,,,1,0,1,0,171,0,171,0,,,,,,,171,,,0.2,1804.488329460204,Y,None,nogo,None,1,,1805.2889482235187,,,,,,,,,,,,,,,,44,001, 22,m,Psychologie,2023-01-18_13h30.28.953,00_bat_bachelor,2022.2.4,59.96496594882416,
,,,,,,,,,,,,1,0,1,0,172,0,172,0,,,,,,,172,,,0.2,1805.4890722477285,X,d,go,d,1,0.4994898119184654,,,,,,,,,,,,,,,,,44,001, 22,m,Psychologie,2023-01-18_13h30.28.953,00_bat_bachelor,2022.2.4,59.96496594882416,
,,,,,,,,,,,,1,0,1,0,173,0,173,0,,,,,,,173,,,0.2,1806.3232827523316,Y,l,go,None,0,,1807.1239883035014,,,,,,,,,,,,,,,,44,001, 22,m,Psychologie,2023-01-18_13h30.28.953,00_bat_bachelor,2022.2.4,59.96496594882416,
,,,,,,,,,,,,1,0,1,0,174,0,174,0,,,,,,,174,,,0.2,1807.3240900246892,X,d,go,l,0,0.5358699154749047,,,,,,,,,,,,,,,,,44,001, 22,m,Psychologie,2023-01-18_13h30.28.953,00_bat_bachelor,2022.2.4,59.96496594882416,
,,,,,,,,,,,,1,0,1,0,175,0,175,0,,,,,,,175,,,0.2,1808.191348755703,Y,l,go,d,0,0.3091786314325873,,,,,,,,,,,,,,,,,44,001, 22,m,Psychologie,2023-01-18_13h30.28.953,00_bat_bachelor,2022.2.4,59.96496594882416,
,,,,,,,,,,,,1,0,1,0,176,0,176,0,,,,,,,176,,,0.2,1808.8251753574878,X,d,go,None,0,,1809.6259686661942,,,,,,,,,,,,,,,,44,001, 22,m,Psychologie,2023-01-18_13h30.28.953,00_bat_bachelor,2022.2.4,59.96496594882416,
,,,,,,,,,,,,1,0,1,0,177,0,177,0,,,,,,,177,,,0.2,1809.825643720891,Y,l,go,l,1,0.35478345782030374,,,,,,,,,,,,,,,,,44,001, 22,m,Psychologie,2023-01-18_13h30.28.953,00_bat_bachelor,2022.2.4,59.96496594882416,
,,,,,,,,,,,,1,0,1,0,178,0,178,0,,,,,,,178,,,0.2,1810.526202896377,X,d,go,d,1,0.6464240436907858,,,,,,,,,,,,,,,,,44,001, 22,m,Psychologie,2023-01-18_13h30.28.953,00_bat_bachelor,2022.2.4,59.96496594882416,
,,,,,,,,,,,,1,0,1,0,179,0,179,0,,,,,,,179,,,0.2,1811.4936210940068,Y,l,go,l,1,0.4619858300720807,,,,,,,,,,,,,,,,,44,001, 22,m,Psychologie,2023-01-18_13h30.28.953,00_bat_bachelor,2022.2.4,59.96496594882416,
,,,,,,,,,,,,1,0,1,0,180,0,180,0,,,,,,,180,,,0.2,1812.294261190662,X,d,go,d,1,0.5894485561584588,,,,,,,,,,,,,,,,,44,001, 22,m,Psychologie,2023-01-18_13h30.28.953,00_bat_bachelor,2022.2.4,59.96496594882416,
,,,,,,,,,,,,1,0,1,0,181,0,181,0,,,,,,,181,,,0.2,1813.2284347983368,X,None,nogo,None,1,,1814.0290341677319,,,,,,,,,,,,,,,,44,001, 22,m,Psychologie,2023-01-18_13h30.28.953,00_bat_bachelor,2022.2.4,59.96496594882416,
,,,,,,,,,,,,1,0,1,0,182,0,182,0,,,,,,,182,,,0.2,1814.229340979713,Y,l,go,l,1,0.4309249966754578,,,,,,,,,,,,,,,,,44,001, 22,m,Psychologie,2023-01-18_13h30.28.953,00_bat_bachelor,2022.2.4,59.96496594882416,
,,,,,,,,,,,,1,0,1,0,183,0,183,0,,,,,,,183,,,0.2,1814.9963282441895,X,d,go,None,0,,1815.7973116134235,,,,,,,,,,,,,,,,44,001, 22,m,Psychologie,2023-01-18_13h30.28.953,00_bat_bachelor,2022.2.4,59.96496594882416,
,,,,,,,,,,,,1,0,1,0,184,0,184,0,,,,,,,184,,,0.2,1815.9971248498769,X,None,nogo,None,1,,1816.79776300714,,,,,,,,,,,,,,,,44,001, 22,m,Psychologie,2023-01-18_13h30.28.953,00_bat_bachelor,2022.2.4,59.96496594882416,
,,,,,,,,,,,,1,0,1,0,185,0,185,0,,,,,,,185,,,0.2,1816.9979112737346,Y,l,go,l,1,0.44701711006928235,,,,,,,,,,,,,,,,,44,001, 22,m,Psychologie,2023-01-18_13h30.28.953,00_bat_bachelor,2022.2.4,59.96496594882416,
,,,,,,,,,,,,1,0,1,0,186,0,186,0,,,,,,,186,,,0.2,1817.765086174506,X,d,go,d,1,0.5279988889815286,,,,,,,,,,,,,,,,,44,001, 22,m,Psychologie,2023-01-18_13h30.28.953,00_bat_bachelor,2022.2.4,59.96496594882416,
,,,,,,,,,,,,1,0,1,0,187,0,187,0,,,,,,,187,,,0.2,1818.6160326710087,Y,l,go,l,1,0.5089118679461535,,,,,,,,,,,,,,,,,44,001, 22,m,Psychologie,2023-01-18_13h30.28.953,00_bat_bachelor,2022.2.4,59.96496594882416,
,,,,,,,,,,,,1,0,1,0,188,0,188,0,,,,,,,188,,,0.2,1819.433250214177,X,d,go,None,0,,1820.233944128995,,,,,,,,,,,,,,,,44,001, 22,m,Psychologie,2023-01-18_13h30.28.953,00_bat_bachelor,2022.2.4,59.96496594882416,
,,,,,,,,,,,,1,0,1,0,189,0,189,0,,,,,,,189,,,0.2,1820.4341210016282,X,None,nogo,None,1,,1821.234806189168,,,,,,,,,,,,,,,,44,001, 22,m,Psychologie,2023-01-18_13h30.28.953,00_bat_bachelor,2022.2.4,59.96496594882416,
,,,,,,,,,,,,1,0,1,0,190,0,190,0,,,,,,,190,,,0.2,1821.4348138497735,X,None,nogo,l,0,0.6339644133695401,,,,,,,,,,,,,,,,,44,001, 22,m,Psychologie,2023-01-18_13h30.28.953,00_bat_bachelor,2022.2.4,59.96496594882416,
,,,,,,,,,,,,1,0,1,0,191,0,191,0,,,,,,,191,,,0.2,1822.385478600976,Y,l,go,None,0,,1823.1862447581661,,,,,,,,,,,,,,,,44,001, 22,m,Psychologie,2023-01-18_13h30.28.953,00_bat_bachelor,2022.2.4,59.96496594882416,
,,,,,,,,,,,,1,0,1,0,192,0,192,0,,,,,,,192,,,0.2,1823.3859668431687,X,d,go,None,0,,1824.1871063335275,,,,,,,,,,,,,,,,44,001, 22,m,Psychologie,2023-01-18_13h30.28.953,00_bat_bachelor,2022.2.4,59.96496594882416,
,,,,,,,,,,,,1,0,1,0,193,0,193,0,,,,,,,193,,,0.2,1824.3872022365103,X,None,nogo,None,1,,1825.187585363601,,,,,,,,,,,,,,,,44,001, 22,m,Psychologie,2023-01-18_13h30.28.953,00_bat_bachelor,2022.2.4,59.96496594882416,
,,,,,,,,,,,,1,0,1,0,194,0,194,0,,,,,,,194,,,0.2,1825.3878863573773,Y,l,go,l,1,0.4246253633464221,,,,,,,,,,,,,,,,,44,001, 22,m,Psychologie,2023-01-18_13h30.28.953,00_bat_bachelor,2022.2.4,59.96496594882416,
,,,,,,,,,,,,1,0,1,0,195,0,195,0,,,,,,,195,,,0.2,1826.1381313269667,X,d,go,d,1,0.5540076036413666,,,,,,,,,,,,,,,,,44,001, 22,m,Psychologie,2023-01-18_13h30.28.953,00_bat_bachelor,2022.2.4,59.96496594882416,
,,,,,,,,,,,,1,0,1,0,196,0,196,0,,,,,,,196,,,0.2,1827.0224407163914,X,None,nogo,None,1,,1827.8227918435005,,,,,,,,,,,,,,,,44,001, 22,m,Psychologie,2023-01-18_13h30.28.953,00_bat_bachelor,2022.2.4,59.96496594882416,
,,,,,,,,,,,,1,0,1,0,197,0,197,0,,,,,,,197,,,0.2,1828.0229304131062,Y,l,go,l,1,0.413217853725655,,,,,,,,,,,,,,,,,44,001, 22,m,Psychologie,2023-01-18_13h30.28.953,00_bat_bachelor,2022.2.4,59.96496594882416,
,,,,,,,,,,,,1,0,1,0,198,0,198,0,,,,,,,198,,,0.2,1828.7736805945751,X,d,go,d,1,0.5593869949807413,,,,,,,,,,,,,,,,,44,001, 22,m,Psychologie,2023-01-18_13h30.28.953,00_bat_bachelor,2022.2.4,59.96496594882416,
