loop_instruction.thisRepN,loop_instruction.thisTrialN,loop_instruction.thisN,loop_instruction.thisIndex,loop_rsi_practice.thisRepN,loop_rsi_practice.thisTrialN,loop_rsi_practice.thisN,loop_rsi_practice.thisIndex,loop_practice.thisRepN,loop_practice.thisTrialN,loop_practice.thisN,loop_practice.thisIndex,loop_exp.thisRepN,loop_exp.thisTrialN,loop_exp.thisN,loop_exp.thisIndex,loop_trials.thisRepN,loop_trials.thisTrialN,loop_trials.thisN,loop_trials.thisIndex,map_condition,map_x_key,map_y_key,key_resp_welcome.started,key_resp_welcome.keys,key_resp_welcome.rt,index,text_empty_rsi_practice.started,text_empty_rsi_practice.stopped,rsi,stimulus.started,stimulus,correct,trial_type,key_resp_trial.keys,key_resp_trial.corr,key_resp_trial.rt,stimulus.stopped,key_resp_instruction_rsi.started,key_resp_instruction_rsi.keys,key_resp_instruction_rsi.rt,key_resp_instruction_rsi.stopped,key_resp_instruction_final.started,key_resp_instruction_final.keys,key_resp_instruction_final.rt,key_resp_break.started,key_resp_break.keys,key_resp_break.rt,key_resp_break.stopped,key_resp_end_screen.started,image_end_screen.started,key_resp_end_screen.keys,key_resp_end_screen.rt,participant,session,Alter,Geschlecht (w/m/d/andere),Studiengang,date,expName,psychopyVersion,frameRate,
,,,,0,0,0,0,0,0,0,0,,,,,,,,,1,l,d,1171.1507562905317,j,21.693986157653853,0,1192.877592301811,1193.8904519318603,1,1193.8904519318603,X,l,go,l,1,0.3759271602611989,,,,,,,,,,,,,,,,,45,001, 20,w,Psychologie,2023-01-18_13h30.28.497,00_bat_bachelor,2022.2.4,59.96357121786363,
,,,,0,0,0,0,1,0,1,0,,,,,,,,,,,,,,,1,1194.972686558729,1195.9736063157907,1,1195.9736063157907,Y,d,go,None,0,,1196.7738507762551,,,,,,,,,,,,,,,,45,001, 20,w,Psychologie,2023-01-18_13h30.28.497,00_bat_bachelor,2022.2.4,59.96357121786363,
,,,,0,0,0,0,2,0,2,0,,,,,,,,,,,,,,,2,1197.3745113335317,1198.3752754543675,1,1198.3752754543675,X,l,go,None,0,,,,,,,,,,,,,,,,,,45,001, 20,w,Psychologie,2023-01-18_13h30.28.497,00_bat_bachelor,2022.2.4,59.96357121786363,
,,,,0,0,0,0,3,0,3,0,,,,,,,,,,,,,,,3,1199.7764030174585,1200.7768980475375,1,1200.7768980475375,Y,d,go,l,0,0.2881672027288005,,,,,,,,,,,,,,,,,45,001, 20,w,Psychologie,2023-01-18_13h30.28.497,00_bat_bachelor,2022.2.4,59.96357121786363,
,,,,0,0,0,0,4,0,4,0,,,,,,,,,,,,,,,4,1201.777878410765,1202.7785814406816,1,1202.7785814406816,Y,None,nogo,d,0,0.4306747700320557,,,,,,,,,,,,,,,,,45,001, 20,w,Psychologie,2023-01-18_13h30.28.497,00_bat_bachelor,2022.2.4,59.96357121786363,
,,,,0,0,0,0,5,0,5,0,,,,,,,,,,,,,,,5,1204.3298122037668,1205.3306475972058,1,1205.3306475972058,X,l,go,l,1,0.326200638897717,,,,,,,,,,,,,,,,,45,001, 20,w,Psychologie,2023-01-18_13h30.28.497,00_bat_bachelor,2022.2.4,59.96357121786363,
,,,,0,0,0,0,6,0,6,0,,,,,,,,,,,,,,,6,1206.3645413989434,1207.36527885322,1,1207.36527885322,Y,d,go,d,1,0.5315973878605291,,,,,,,,,,,,,,,,,45,001, 20,w,Psychologie,2023-01-18_13h30.28.497,00_bat_bachelor,2022.2.4,59.96357121786363,
,,,,0,0,0,0,7,0,7,0,,,,,,,,,,,,,,,7,1208.5998314666795,1209.6002358301776,1,1209.6002358301776,Y,None,nogo,d,0,0.45688372710719705,,,,,,,,,,,,,,,,,45,001, 20,w,Psychologie,2023-01-18_13h30.28.497,00_bat_bachelor,2022.2.4,59.96357121786363,
,,,,0,0,0,0,8,0,8,0,,,,,,,,,,,,,,,8,1211.1678937367396,1212.1689051302383,1,1212.1689051302383,X,l,go,None,0,,,,,,,,,,,,,,,,,,45,001, 20,w,Psychologie,2023-01-18_13h30.28.497,00_bat_bachelor,2022.2.4,59.96357121786363,
,,,,0,0,0,0,9,0,9,0,,,,,,,,,,,,,,,9,1213.5697980266996,1214.5704947536578,1,1214.5704947536578,Y,d,go,d,1,0.2866699914447963,,,,,,,,,,,,,,,,,45,001, 20,w,Psychologie,2023-01-18_13h30.28.497,00_bat_bachelor,2022.2.4,59.96357121786363,
,,,,0,0,0,0,10,0,10,0,,,,,,,,,,,,,,,10,1215.5715779046295,1216.5722974194214,1,1216.5722974194214,Y,None,nogo,None,1,,,,,,,,,,,,,,,,,,45,001, 20,w,Psychologie,2023-01-18_13h30.28.497,00_bat_bachelor,2022.2.4,59.96357121786363,
,,,,0,0,0,0,11,0,11,0,,,,,,,,,,,,,,,11,1217.973045831197,1218.9741100731771,1,1218.9741100731771,X,l,go,l,1,0.266798970871605,,,,,,,,,,,,,,,,,45,001, 20,w,Psychologie,2023-01-18_13h30.28.497,00_bat_bachelor,2022.2.4,59.96357121786363,
,,,,0,0,0,0,12,0,12,0,,,,,,,,,,,,,,,12,1219.9415214828914,1220.942274937057,1,1220.942274937057,Y,d,go,d,1,0.33185348473489285,,,,,,,,,,,,,,,,,45,001, 20,w,Psychologie,2023-01-18_13h30.28.497,00_bat_bachelor,2022.2.4,59.96357121786363,
,,,,0,0,0,0,13,0,13,0,,,,,,,,,,,,,,,13,1221.9764038901776,1222.9768790415255,1,1222.9768790415255,Y,None,nogo,l,0,0.2798651462653652,,,,,,,,,,,,,,,,,45,001, 20,w,Psychologie,2023-01-18_13h30.28.497,00_bat_bachelor,2022.2.4,59.96357121786363,
,,,,0,0,0,0,14,0,14,0,,,,,,,,,,,,,,,14,1224.3615852792282,1225.3623382485239,1,1225.3623382485239,X,l,go,None,0,,,,,,,,,,,,,,,,,,45,001, 20,w,Psychologie,2023-01-18_13h30.28.497,00_bat_bachelor,2022.2.4,59.96357121786363,
,,,,1,0,1,0,0,0,0,0,,,,,,,,,,,,,,,0,1244.660429740441,1244.8606056433637,0.2,1244.8606056433637,X,l,go,l,1,0.5560235579032451,,1226.7730958675966,j,17.86391043884214,,,,,,,,,,,,,45,001, 20,w,Psychologie,2023-01-18_13h30.28.497,00_bat_bachelor,2022.2.4,59.96357121786363,
,,,,1,0,1,0,1,0,1,0,,,,,,,,,,,,,,,1,1246.1278564227978,1246.328352325596,0.2,1246.328352325596,Y,d,go,d,1,0.32100742927286774,,,,,,,,,,,,,,,,,45,001, 20,w,Psychologie,2023-01-18_13h30.28.497,00_bat_bachelor,2022.2.4,59.96357121786363,
,,,,1,0,1,0,2,0,2,0,,,,,,,,,,,,,,,2,1247.3624807939632,1247.5626106363488,0.2,1247.5626106363488,X,l,go,l,1,0.2871238093357533,,,,,,,,,,,,,,,,,45,001, 20,w,Psychologie,2023-01-18_13h30.28.497,00_bat_bachelor,2022.2.4,59.96357121786363,
,,,,1,0,1,0,3,0,3,0,,,,,,,,,,,,,,,3,1248.5631148784887,1248.7632233875338,0.2,1248.7632233875338,Y,d,go,d,1,0.26989327231422067,,,,,,,,,,,,,,,,,45,001, 20,w,Psychologie,2023-01-18_13h30.28.497,00_bat_bachelor,2022.2.4,59.96357121786363,
,,,,1,0,1,0,4,0,4,0,,,,,,,,,,,,,,,4,1249.747516728472,1249.9478060859255,0.2,1249.9478060859255,X,l,go,l,1,0.3654748017434031,,,,,,,,,,,,,,,,,45,001, 20,w,Psychologie,2023-01-18_13h30.28.497,00_bat_bachelor,2022.2.4,59.96357121786363,
,,,,1,0,1,0,5,0,5,0,,,,,,,,,,,,,,,5,1251.0151684774319,1251.2150442593265,0.2,1251.2150442593265,X,None,nogo,None,1,,,,,,,,,,,,,,,,,,45,001, 20,w,Psychologie,2023-01-18_13h30.28.497,00_bat_bachelor,2022.2.4,59.96357121786363,
,,,,1,0,1,0,6,0,6,0,,,,,,,,,,,,,,,6,1252.6162261255085,1252.8166333009722,0.2,1252.8166333009722,Y,d,go,d,1,0.29623847163747996,,,,,,,,,,,,,,,,,45,001, 20,w,Psychologie,2023-01-18_13h30.28.497,00_bat_bachelor,2022.2.4,59.96357121786363,
,,,,1,0,1,0,7,0,7,0,,,,,,,,,,,,,,,7,1253.817427482456,1254.0172557492042,0.2,1254.0172557492042,X,l,go,l,1,0.4240056824637577,,,,,,,,,,,,,,,,,45,001, 20,w,Psychologie,2023-01-18_13h30.28.497,00_bat_bachelor,2022.2.4,59.96357121786363,
,,,,1,0,1,0,8,0,8,0,,,,,,,,,,,,,,,8,1255.1517861082684,1255.3515595870558,0.2,1255.3515595870558,Y,d,go,d,1,0.2739063613116741,,,,,,,,,,,,,,,,,45,001, 20,w,Psychologie,2023-01-18_13h30.28.497,00_bat_bachelor,2022.2.4,59.96357121786363,
,,,,1,0,1,0,9,0,9,0,,,,,,,,,,,,,,,9,1256.3356221403228,1256.5360787704121,0.2,1256.5360787704121,X,l,go,l,1,0.43274410243611783,,,,,,,,,,,,,,,,,45,001, 20,w,Psychologie,2023-01-18_13h30.28.497,00_bat_bachelor,2022.2.4,59.96357121786363,
,,,,1,0,1,0,10,0,10,0,,,,,,,,,,,,,,,10,1257.6699351903517,1257.8703670931282,0.2,1257.8703670931282,Y,d,go,d,1,0.29850174335297197,,,,,,,,,,,,,,,,,45,001, 20,w,Psychologie,2023-01-18_13h30.28.497,00_bat_bachelor,2022.2.4,59.96357121786363,
,,,,1,0,1,0,11,0,11,0,,,,,,,,,,,,,,,11,1258.8711690321798,1259.071176692727,0.2,1259.071176692727,X,l,go,l,1,0.3134559178724885,,,,,,,,,,,,,,,,,45,001, 20,w,Psychologie,2023-01-18_13h30.28.497,00_bat_bachelor,2022.2.4,59.96357121786363,
,,,,1,0,1,0,12,0,12,0,,,,,,,,,,,,,,,12,1260.0885085631162,1260.2888973144582,0.2,1260.2888973144582,Y,d,go,d,1,0.37587576638907194,,,,,,,,,,,,,,,,,45,001, 20,w,Psychologie,2023-01-18_13h30.28.497,00_bat_bachelor,2022.2.4,59.96357121786363,
,,,,1,0,1,0,13,0,13,0,,,,,,,,,,,,,,,13,1261.373231819016,1261.5733762067975,0.2,1261.5733762067975,X,l,go,l,1,0.30787579936441034,,,,,,,,,,,,,,,,,45,001, 20,w,Psychologie,2023-01-18_13h30.28.497,00_bat_bachelor,2022.2.4,59.96357121786363,
,,,,1,0,1,0,14,0,14,0,,,,,,,,,,,,,,,14,1262.5910091679543,1262.791251980001,0.2,1262.791251980001,Y,d,go,d,1,0.37062243558466434,,,,,,,,,,,,,,,,,45,001, 20,w,Psychologie,2023-01-18_13h30.28.497,00_bat_bachelor,2022.2.4,59.96357121786363,
,,,,,,,,,,,,,,,,,,,,,,,,,,,,,,,,,,,,,,1263.9006705936044,None,,1263.9006705936044,1263.9006705936044,space,6.688060827204026,,,,,,,,,45,001, 20,w,Psychologie,2023-01-18_13h30.28.497,00_bat_bachelor,2022.2.4,59.96357121786363,
,,,,,,,,,,,,0,0,0,0,0,0,0,0,,,,,,,0,,,1,1271.6146940049948,X,l,go,l,1,0.2185924487421289,,,,,,,,,,,,,,,,,45,001, 20,w,Psychologie,2023-01-18_13h30.28.497,00_bat_bachelor,2022.2.4,59.96357121786363,
,,,,,,,,,,,,0,0,0,0,1,0,1,0,,,,,,,1,,,1,1272.9489144489635,Y,d,go,d,1,0.14820024045184255,,,,,,,,,,,,,,,,,45,001, 20,w,Psychologie,2023-01-18_13h30.28.497,00_bat_bachelor,2022.2.4,59.96357121786363,
,,,,,,,,,,,,0,0,0,0,2,0,2,0,,,,,,,2,,,1,1274.1999649939826,X,l,go,l,1,0.3534956560470164,,,,,,,,,,,,,,,,,45,001, 20,w,Psychologie,2023-01-18_13h30.28.497,00_bat_bachelor,2022.2.4,59.96357121786363,
,,,,,,,,,,,,0,0,0,0,3,0,3,0,,,,,,,3,,,1,1275.667556039989,X,None,nogo,d,0,0.21367705706506968,,,,,,,,,,,,,,,,,45,001, 20,w,Psychologie,2023-01-18_13h30.28.497,00_bat_bachelor,2022.2.4,59.96357121786363,
,,,,,,,,,,,,0,0,0,0,4,0,4,0,,,,,,,4,,,1,1276.9851117647486,Y,d,go,d,1,0.2882428391603753,,,,,,,,,,,,,,,,,45,001, 20,w,Psychologie,2023-01-18_13h30.28.497,00_bat_bachelor,2022.2.4,59.96357121786363,
,,,,,,,,,,,,0,0,0,0,5,0,5,0,,,,,,,5,,,1,1278.3860807825113,X,l,go,l,1,0.24647898052353412,,,,,,,,,,,,,,,,,45,001, 20,w,Psychologie,2023-01-18_13h30.28.497,00_bat_bachelor,2022.2.4,59.96357121786363,
,,,,,,,,,,,,0,0,0,0,6,0,6,0,,,,,,,6,,,1,1279.7370197639102,Y,d,go,d,1,0.22491971834097058,,,,,,,,,,,,,,,,,45,001, 20,w,Psychologie,2023-01-18_13h30.28.497,00_bat_bachelor,2022.2.4,59.96357121786363,
,,,,,,,,,,,,0,0,0,0,7,0,7,0,,,,,,,7,,,1,1281.0711272382177,Y,None,nogo,None,1,,1281.8720189711312,,,,,,,,,,,,,,,,45,001, 20,w,Psychologie,2023-01-18_13h30.28.497,00_bat_bachelor,2022.2.4,59.96357121786363,
,,,,,,,,,,,,0,0,0,0,8,0,8,0,,,,,,,8,,,1,1282.8727278192528,X,l,go,l,1,0.22446444584056735,,,,,,,,,,,,,,,,,45,001, 20,w,Psychologie,2023-01-18_13h30.28.497,00_bat_bachelor,2022.2.4,59.96357121786363,
,,,,,,,,,,,,0,0,0,0,9,0,9,0,,,,,,,9,,,1,1284.2072571116732,Y,d,go,d,1,0.2181483277818188,,,,,,,,,,,,,,,,,45,001, 20,w,Psychologie,2023-01-18_13h30.28.497,00_bat_bachelor,2022.2.4,59.96357121786363,
,,,,,,,,,,,,0,0,0,0,10,0,10,0,,,,,,,10,,,1,1285.5415081010433,X,l,go,l,1,0.3078345872927457,,,,,,,,,,,,,,,,,45,001, 20,w,Psychologie,2023-01-18_13h30.28.497,00_bat_bachelor,2022.2.4,59.96357121786363,
,,,,,,,,,,,,0,0,0,0,11,0,11,0,,,,,,,11,,,1,1286.9592228076654,Y,d,go,d,1,0.21808626712299883,,,,,,,,,,,,,,,,,45,001, 20,w,Psychologie,2023-01-18_13h30.28.497,00_bat_bachelor,2022.2.4,59.96357121786363,
,,,,,,,,,,,,0,0,0,0,12,0,12,0,,,,,,,12,,,1,1288.2932977972087,Y,None,nogo,None,1,,,,,,,,,,,,,,,,,,45,001, 20,w,Psychologie,2023-01-18_13h30.28.497,00_bat_bachelor,2022.2.4,59.96357121786363,
,,,,,,,,,,,,0,0,0,0,13,0,13,0,,,,,,,13,,,1,1290.0946724389214,X,l,go,l,1,0.2503606757381931,,,,,,,,,,,,,,,,,45,001, 20,w,Psychologie,2023-01-18_13h30.28.497,00_bat_bachelor,2022.2.4,59.96357121786363,
,,,,,,,,,,,,0,0,0,0,14,0,14,0,,,,,,,14,,,1,1291.4460109352367,Y,d,go,d,1,0.22684844466857612,,,,,,,,,,,,,,,,,45,001, 20,w,Psychologie,2023-01-18_13h30.28.497,00_bat_bachelor,2022.2.4,59.96357121786363,
,,,,,,,,,,,,0,0,0,0,15,0,15,0,,,,,,,15,,,1,1292.7803162276978,X,l,go,l,1,0.2531063713831827,,,,,,,,,,,,,,,,,45,001, 20,w,Psychologie,2023-01-18_13h30.28.497,00_bat_bachelor,2022.2.4,59.96357121786363,
,,,,,,,,,,,,0,0,0,0,16,0,16,0,,,,,,,16,,,1,1294.1477885344066,Y,d,go,d,1,0.30828307184856385,,,,,,,,,,,,,,,,,45,001, 20,w,Psychologie,2023-01-18_13h30.28.497,00_bat_bachelor,2022.2.4,59.96357121786363,
,,,,,,,,,,,,0,0,0,0,17,0,17,0,,,,,,,17,,,1,1295.5654809379485,Y,None,nogo,l,0,0.23586565244477242,,,,,,,,,,,,,,,,,45,001, 20,w,Psychologie,2023-01-18_13h30.28.497,00_bat_bachelor,2022.2.4,59.96357121786363,
,,,,,,,,,,,,0,0,0,0,18,0,18,0,,,,,,,18,,,1,1296.9168853736483,X,l,go,l,1,0.22817208035849035,,,,,,,,,,,,,,,,,45,001, 20,w,Psychologie,2023-01-18_13h30.28.497,00_bat_bachelor,2022.2.4,59.96357121786363,
,,,,,,,,,,,,0,0,0,0,19,0,19,0,,,,,,,19,,,1,1298.2511659387965,Y,d,go,d,1,0.17368725838605314,,,,,,,,,,,,,,,,,45,001, 20,w,Psychologie,2023-01-18_13h30.28.497,00_bat_bachelor,2022.2.4,59.96357121786363,
,,,,,,,,,,,,0,0,0,0,20,0,20,0,,,,,,,20,,,1,1299.535490649403,X,l,go,l,1,0.23396310792304575,,,,,,,,,,,,,,,,,45,001, 20,w,Psychologie,2023-01-18_13h30.28.497,00_bat_bachelor,2022.2.4,59.96357121786363,
,,,,,,,,,,,,0,0,0,0,21,0,21,0,,,,,,,21,,,1,1300.8698846690822,Y,d,go,d,1,0.25965715595521033,,,,,,,,,,,,,,,,,45,001, 20,w,Psychologie,2023-01-18_13h30.28.497,00_bat_bachelor,2022.2.4,59.96357121786363,
,,,,,,,,,,,,0,0,0,0,22,0,22,0,,,,,,,22,,,1,1302.237405460677,X,l,go,l,1,0.23578419792465866,,,,,,,,,,,,,,,,,45,001, 20,w,Psychologie,2023-01-18_13h30.28.497,00_bat_bachelor,2022.2.4,59.96357121786363,
,,,,,,,,,,,,0,0,0,0,23,0,23,0,,,,,,,23,,,1,1303.5885505025508,Y,d,go,d,1,0.21286396670620888,,,,,,,,,,,,,,,,,45,001, 20,w,Psychologie,2023-01-18_13h30.28.497,00_bat_bachelor,2022.2.4,59.96357121786363,
,,,,,,,,,,,,0,0,0,0,24,0,24,0,,,,,,,24,,,1,1304.906171681825,X,l,go,l,1,0.27040042355656624,,,,,,,,,,,,,,,,,45,001, 20,w,Psychologie,2023-01-18_13h30.28.497,00_bat_bachelor,2022.2.4,59.96357121786363,
,,,,,,,,,,,,0,0,0,0,25,0,25,0,,,,,,,25,,,1,1306.29067040456,X,None,nogo,d,0,0.1825226480141282,,,,,,,,,,,,,,,,,45,001, 20,w,Psychologie,2023-01-18_13h30.28.497,00_bat_bachelor,2022.2.4,59.96357121786363,
,,,,,,,,,,,,0,0,0,0,26,0,26,0,,,,,,,26,,,1,1307.5746712365653,Y,d,go,d,1,0.20957814995199442,,,,,,,,,,,,,,,,,45,001, 20,w,Psychologie,2023-01-18_13h30.28.497,00_bat_bachelor,2022.2.4,59.96357121786363,
,,,,,,,,,,,,0,0,0,0,27,0,27,0,,,,,,,27,,,1,1308.892601264175,X,l,go,l,1,0.30028840911109,,,,,,,,,,,,,,,,,45,001, 20,w,Psychologie,2023-01-18_13h30.28.497,00_bat_bachelor,2022.2.4,59.96357121786363,
,,,,,,,,,,,,0,0,0,0,28,0,28,0,,,,,,,28,,,1,1310.3103348797886,Y,d,go,d,1,0.19501815713010728,,,,,,,,,,,,,,,,,45,001, 20,w,Psychologie,2023-01-18_13h30.28.497,00_bat_bachelor,2022.2.4,59.96357121786363,
,,,,,,,,,,,,0,0,0,0,29,0,29,0,,,,,,,29,,,1,1311.611408188357,X,l,go,l,1,0.1895587657345459,,,,,,,,,,,,,,,,,45,001, 20,w,Psychologie,2023-01-18_13h30.28.497,00_bat_bachelor,2022.2.4,59.96357121786363,
,,,,,,,,,,,,0,0,0,0,30,0,30,0,,,,,,,30,,,1,1312.9120238001924,Y,d,go,d,1,0.361231894697994,,,,,,,,,,,,,,,,,45,001, 20,w,Psychologie,2023-01-18_13h30.28.497,00_bat_bachelor,2022.2.4,59.96357121786363,
,,,,,,,,,,,,0,0,0,0,31,0,31,0,,,,,,,31,,,1,1314.3801961792633,Y,None,nogo,l,0,0.1894094324670732,,,,,,,,,,,,,,,,,45,001, 20,w,Psychologie,2023-01-18_13h30.28.497,00_bat_bachelor,2022.2.4,59.96357121786363,
,,,,,,,,,,,,0,0,0,0,32,0,32,0,,,,,,,32,,,1,1315.6811123969965,X,l,go,l,1,0.16805865510832518,,,,,,,,,,,,,,,,,45,001, 20,w,Psychologie,2023-01-18_13h30.28.497,00_bat_bachelor,2022.2.4,59.96357121786363,
,,,,,,,,,,,,0,0,0,0,33,0,33,0,,,,,,,33,,,1,1316.965480259154,Y,d,go,d,1,0.16416144475806504,,,,,,,,,,,,,,,,,45,001, 20,w,Psychologie,2023-01-18_13h30.28.497,00_bat_bachelor,2022.2.4,59.96357121786363,
,,,,,,,,,,,,0,0,0,0,34,0,34,0,,,,,,,34,,,1,1318.233104371815,X,l,go,l,1,0.1914443407440558,,,,,,,,,,,,,,,,,45,001, 20,w,Psychologie,2023-01-18_13h30.28.497,00_bat_bachelor,2022.2.4,59.96357121786363,
,,,,,,,,,,,,0,0,0,0,35,0,35,0,,,,,,,35,,,1,1319.5341408319073,Y,d,go,d,1,0.1715529563371092,,,,,,,,,,,,,,,,,45,001, 20,w,Psychologie,2023-01-18_13h30.28.497,00_bat_bachelor,2022.2.4,59.96357121786363,
,,,,,,,,,,,,0,0,0,0,36,0,36,0,,,,,,,36,,,1,1320.8180922094034,X,l,go,l,1,0.1664858072763309,,,,,,,,,,,,,,,,,45,001, 20,w,Psychologie,2023-01-18_13h30.28.497,00_bat_bachelor,2022.2.4,59.96357121786363,
,,,,,,,,,,,,0,0,0,0,37,0,37,0,,,,,,,37,,,1,1322.0860532915685,Y,d,go,d,1,0.19575270218774676,,,,,,,,,,,,,,,,,45,001, 20,w,Psychologie,2023-01-18_13h30.28.497,00_bat_bachelor,2022.2.4,59.96357121786363,
,,,,,,,,,,,,0,0,0,0,38,0,38,0,,,,,,,38,,,1,1323.3869806608418,X,l,go,l,1,0.22164602286648005,,,,,,,,,,,,,,,,,45,001, 20,w,Psychologie,2023-01-18_13h30.28.497,00_bat_bachelor,2022.2.4,59.96357121786363,
,,,,,,,,,,,,0,0,0,0,39,0,39,0,,,,,,,39,,,1,1324.721398922964,X,None,nogo,None,1,,1325.5219105348224,,,,,,,,,,,,,,,,45,001, 20,w,Psychologie,2023-01-18_13h30.28.497,00_bat_bachelor,2022.2.4,59.96357121786363,
,,,,,,,,,,,,0,0,0,0,40,0,40,0,,,,,,,40,,,1,1326.5227667768486,Y,d,go,d,1,0.1740591370034963,,,,,,,,,,,,,,,,,45,001, 20,w,Psychologie,2023-01-18_13h30.28.497,00_bat_bachelor,2022.2.4,59.96357121786363,
,,,,,,,,,,,,0,0,0,0,41,0,41,0,,,,,,,41,,,1,1327.8070701541146,X,l,go,l,1,0.2018976688850671,,,,,,,,,,,,,,,,,45,001, 20,w,Psychologie,2023-01-18_13h30.28.497,00_bat_bachelor,2022.2.4,59.96357121786363,
,,,,,,,,,,,,0,0,0,0,42,0,42,0,,,,,,,42,,,1,1329.1246830910677,Y,d,go,d,1,0.16409889934584498,,,,,,,,,,,,,,,,,45,001, 20,w,Psychologie,2023-01-18_13h30.28.497,00_bat_bachelor,2022.2.4,59.96357121786363,
,,,,,,,,,,,,0,0,0,0,43,0,43,0,,,,,,,43,,,1,1330.3924793248298,X,l,go,l,1,0.2084707566536963,,,,,,,,,,,,,,,,,45,001, 20,w,Psychologie,2023-01-18_13h30.28.497,00_bat_bachelor,2022.2.4,59.96357121786363,
,,,,,,,,,,,,0,0,0,0,44,0,44,0,,,,,,,44,,,1,1331.7097499589436,X,None,nogo,d,0,0.18706761545035988,,,,,,,,,,,,,,,,,45,001, 20,w,Psychologie,2023-01-18_13h30.28.497,00_bat_bachelor,2022.2.4,59.96357121786363,
,,,,,,,,,,,,0,0,0,0,45,0,45,0,,,,,,,45,,,1,1333.0106957523385,Y,d,go,d,1,0.31089494936168194,,,,,,,,,,,,,,,,,45,001, 20,w,Psychologie,2023-01-18_13h30.28.497,00_bat_bachelor,2022.2.4,59.96357121786363,
,,,,,,,,,,,,0,0,0,0,46,0,46,0,,,,,,,46,,,1,1334.4286645194516,X,l,go,l,1,0.20498372800648212,,,,,,,,,,,,,,,,,45,001, 20,w,Psychologie,2023-01-18_13h30.28.497,00_bat_bachelor,2022.2.4,59.96357121786363,
,,,,,,,,,,,,0,0,0,0,47,0,47,0,,,,,,,47,,,1,1335.7471564862644,Y,d,go,d,1,0.16504241398070008,,,,,,,,,,,,,,,,,45,001, 20,w,Psychologie,2023-01-18_13h30.28.497,00_bat_bachelor,2022.2.4,59.96357121786363,
,,,,,,,,,,,,0,0,0,0,48,0,48,0,,,,,,,48,,,1,1337.047895249445,X,l,go,l,1,0.22401208232622594,,,,,,,,,,,,,,,,,45,001, 20,w,Psychologie,2023-01-18_13h30.28.497,00_bat_bachelor,2022.2.4,59.96357121786363,
,,,,,,,,,,,,0,0,0,0,49,0,49,0,,,,,,,49,,,1,1338.3989244126715,Y,d,go,d,1,0.1692043513758108,,,,,,,,,,,,,,,,,45,001, 20,w,Psychologie,2023-01-18_13h30.28.497,00_bat_bachelor,2022.2.4,59.96357121786363,
,,,,,,,,,,,,0,0,0,0,50,0,50,0,,,,,,,50,,,1,1339.7001232969342,X,l,go,l,1,0.27740308677311987,,,,,,,,,,,,,,,,,45,001, 20,w,Psychologie,2023-01-18_13h30.28.497,00_bat_bachelor,2022.2.4,59.96357121786363,
,,,,,,,,,,,,0,0,0,0,51,0,51,0,,,,,,,51,,,1,1341.0845614135033,Y,d,go,d,1,0.123426434234716,,,,,,,,,,,,,,,,,45,001, 20,w,Psychologie,2023-01-18_13h30.28.497,00_bat_bachelor,2022.2.4,59.96357121786363,
,,,,,,,,,,,,0,0,0,0,52,0,52,0,,,,,,,52,,,1,1342.3354762009112,Y,None,nogo,l,0,0.16865307895932347,,,,,,,,,,,,,,,,,45,001, 20,w,Psychologie,2023-01-18_13h30.28.497,00_bat_bachelor,2022.2.4,59.96357121786363,
,,,,,,,,,,,,0,0,0,0,53,0,53,0,,,,,,,53,,,1,1343.636241630884,X,l,go,l,1,0.14846884633880109,,,,,,,,,,,,,,,,,45,001, 20,w,Psychologie,2023-01-18_13h30.28.497,00_bat_bachelor,2022.2.4,59.96357121786363,
,,,,,,,,,,,,0,0,0,0,54,0,54,0,,,,,,,54,,,1,1344.8874303576304,Y,d,go,d,1,0.16110253718215972,,,,,,,,,,,,,,,,,45,001, 20,w,Psychologie,2023-01-18_13h30.28.497,00_bat_bachelor,2022.2.4,59.96357121786363,
,,,,,,,,,,,,0,0,0,0,55,0,55,0,,,,,,,55,,,1,1346.1717424622038,Y,None,nogo,l,0,0.22196602274198085,,,,,,,,,,,,,,,,,45,001, 20,w,Psychologie,2023-01-18_13h30.28.497,00_bat_bachelor,2022.2.4,59.96357121786363,
,,,,,,,,,,,,0,0,0,0,56,0,56,0,,,,,,,56,,,1,1347.5061650879215,X,l,go,l,1,0.11820558819454163,,,,,,,,,,,,,,,,,45,001, 20,w,Psychologie,2023-01-18_13h30.28.497,00_bat_bachelor,2022.2.4,59.96357121786363,
,,,,,,,,,,,,0,0,0,0,57,0,57,0,,,,,,,57,,,1,1348.757056602626,Y,d,go,d,1,0.16401017212774605,,,,,,,,,,,,,,,,,45,001, 20,w,Psychologie,2023-01-18_13h30.28.497,00_bat_bachelor,2022.2.4,59.96357121786363,
,,,,,,,,,,,,0,0,0,0,58,0,58,0,,,,,,,58,,,1,1350.0411631315947,Y,None,nogo,l,0,0.19181961310096085,,,,,,,,,,,,,,,,,45,001, 20,w,Psychologie,2023-01-18_13h30.28.497,00_bat_bachelor,2022.2.4,59.96357121786363,
,,,,,,,,,,,,0,0,0,0,59,0,59,0,,,,,,,59,,,1,1351.342180682579,X,l,go,l,1,0.15514714608434588,,,,,,,,,,,,,,,,,45,001, 20,w,Psychologie,2023-01-18_13h30.28.497,00_bat_bachelor,2022.2.4,59.96357121786363,
,,,,,,,,,,,,0,0,0,0,60,0,60,0,,,,,,,60,,,1,1352.6099710981362,Y,d,go,d,1,0.1986540340585634,,,,,,,,,,,,,,,,,45,001, 20,w,Psychologie,2023-01-18_13h30.28.497,00_bat_bachelor,2022.2.4,59.96357121786363,
,,,,,,,,,,,,0,0,0,0,61,0,61,0,,,,,,,61,,,1,1353.9276572471717,X,l,go,l,1,0.22518008190672845,,,,,,,,,,,,,,,,,45,001, 20,w,Psychologie,2023-01-18_13h30.28.497,00_bat_bachelor,2022.2.4,59.96357121786363,
,,,,,,,,,,,,0,0,0,0,62,0,62,0,,,,,,,62,,,1,1355.2617715094239,Y,d,go,d,1,0.20318639546167105,,,,,,,,,,,,,,,,,45,001, 20,w,Psychologie,2023-01-18_13h30.28.497,00_bat_bachelor,2022.2.4,59.96357121786363,
,,,,,,,,,,,,0,0,0,0,63,0,63,0,,,,,,,63,,,1,1356.579494991689,X,l,go,l,1,0.1810041032731533,,,,,,,,,,,,,,,,,45,001, 20,w,Psychologie,2023-01-18_13h30.28.497,00_bat_bachelor,2022.2.4,59.96357121786363,
,,,,,,,,,,,,0,0,0,0,64,0,64,0,,,,,,,64,,,1,1357.8637372781523,Y,d,go,d,1,0.2730535132577643,,,,,,,,,,,,,,,,,45,001, 20,w,Psychologie,2023-01-18_13h30.28.497,00_bat_bachelor,2022.2.4,59.96357121786363,
,,,,,,,,,,,,0,0,0,0,65,0,65,0,,,,,,,65,,,1,1359.2481191523839,Y,None,nogo,l,0,0.21684941928833723,,,,,,,,,,,,,,,,,45,001, 20,w,Psychologie,2023-01-18_13h30.28.497,00_bat_bachelor,2022.2.4,59.96357121786363,
,,,,,,,,,,,,0,0,0,0,66,0,66,0,,,,,,,66,,,1,1360.565822271048,X,l,go,l,1,0.16272968787234277,,,,,,,,,,,,,,,,,45,001, 20,w,Psychologie,2023-01-18_13h30.28.497,00_bat_bachelor,2022.2.4,59.96357121786363,
,,,,,,,,,,,,0,0,0,0,67,0,67,0,,,,,,,67,,,1,1361.8337256563827,Y,d,go,d,1,0.1589789018034935,,,,,,,,,,,,,,,,,45,001, 20,w,Psychologie,2023-01-18_13h30.28.497,00_bat_bachelor,2022.2.4,59.96357121786363,
,,,,,,,,,,,,0,0,0,0,68,0,68,0,,,,,,,68,,,1,1363.1177376399282,Y,None,nogo,l,0,0.21938905434217304,,,,,,,,,,,,,,,,,45,001, 20,w,Psychologie,2023-01-18_13h30.28.497,00_bat_bachelor,2022.2.4,59.96357121786363,
,,,,,,,,,,,,0,0,0,0,69,0,69,0,,,,,,,69,,,1,1364.452160265646,X,l,go,l,1,0.1645255658077076,,,,,,,,,,,,,,,,,45,001, 20,w,Psychologie,2023-01-18_13h30.28.497,00_bat_bachelor,2022.2.4,59.96357121786363,
,,,,,,,,,,,,0,0,0,0,70,0,70,0,,,,,,,70,,,1,1365.7366168549052,Y,d,go,d,1,0.25667679379694164,,,,,,,,,,,,,,,,,45,001, 20,w,Psychologie,2023-01-18_13h30.28.497,00_bat_bachelor,2022.2.4,59.96357121786363,
,,,,,,,,,,,,0,0,0,0,71,0,71,0,,,,,,,71,,,1,1367.1043611614732,Y,None,nogo,l,0,0.1838516170391813,,,,,,,,,,,,,,,,,45,001, 20,w,Psychologie,2023-01-18_13h30.28.497,00_bat_bachelor,2022.2.4,59.96357121786363,
,,,,,,,,,,,,0,0,0,0,72,0,72,0,,,,,,,72,,,1,1368.4217500985833,X,l,go,l,1,0.19528094481211156,,,,,,,,,,,,,,,,,45,001, 20,w,Psychologie,2023-01-18_13h30.28.497,00_bat_bachelor,2022.2.4,59.96357121786363,
,,,,,,,,,,,,0,0,0,0,73,0,73,0,,,,,,,73,,,1,1369.722481104196,Y,d,go,d,1,0.15814593248069286,,,,,,,,,,,,,,,,,45,001, 20,w,Psychologie,2023-01-18_13h30.28.497,00_bat_bachelor,2022.2.4,59.96357121786363,
,,,,,,,,,,,,0,0,0,0,74,0,74,0,,,,,,,74,,,1,1370.9902288531885,X,l,go,l,1,0.6181898306822404,,,,,,,,,,,,,,,,,45,001, 20,w,Psychologie,2023-01-18_13h30.28.497,00_bat_bachelor,2022.2.4,59.96357121786363,
,,,,,,,,,,,,0,0,0,0,75,0,75,0,,,,,,,75,,,1,1372.7248607394286,X,None,nogo,None,1,,,,,,,,,,,,,,,,,,45,001, 20,w,Psychologie,2023-01-18_13h30.28.497,00_bat_bachelor,2022.2.4,59.96357121786363,
,,,,,,,,,,,,0,0,0,0,76,0,76,0,,,,,,,76,,,1,1374.5256540481932,Y,d,go,d,1,0.17053962347563356,,,,,,,,,,,,,,,,,45,001, 20,w,Psychologie,2023-01-18_13h30.28.497,00_bat_bachelor,2022.2.4,59.96357121786363,
,,,,,,,,,,,,0,0,0,0,77,0,77,0,,,,,,,77,,,1,1375.8270589929307,X,l,go,l,1,0.19861088262405246,,,,,,,,,,,,,,,,,45,001, 20,w,Psychologie,2023-01-18_13h30.28.497,00_bat_bachelor,2022.2.4,59.96357121786363,
,,,,,,,,,,,,0,0,0,0,78,0,78,0,,,,,,,78,,,1,1377.1276169078192,Y,d,go,d,1,0.19291003688704222,,,,,,,,,,,,,,,,,45,001, 20,w,Psychologie,2023-01-18_13h30.28.497,00_bat_bachelor,2022.2.4,59.96357121786363,
,,,,,,,,,,,,0,0,0,0,79,0,79,0,,,,,,,79,,,1,1378.4287842769409,Y,None,nogo,None,1,,,,,,,,,,,,,,,,,,45,001, 20,w,Psychologie,2023-01-18_13h30.28.497,00_bat_bachelor,2022.2.4,59.96357121786363,
,,,,,,,,,,,,0,0,0,0,80,0,80,0,,,,,,,80,,,1,1380.2302040095674,X,l,go,l,1,0.21092651295475662,,,,,,,,,,,,,,,,,45,001, 20,w,Psychologie,2023-01-18_13h30.28.497,00_bat_bachelor,2022.2.4,59.96357121786363,
,,,,,,,,,,,,0,0,0,0,81,0,81,0,,,,,,,81,,,1,1381.547954643378,Y,d,go,d,1,0.25335558329243213,,,,,,,,,,,,,,,,,45,001, 20,w,Psychologie,2023-01-18_13h30.28.497,00_bat_bachelor,2022.2.4,59.96357121786363,
,,,,,,,,,,,,0,0,0,0,82,0,82,0,,,,,,,82,,,1,1382.9157910711365,Y,None,nogo,l,0,0.16491780802607536,,,,,,,,,,,,,,,,,45,001, 20,w,Psychologie,2023-01-18_13h30.28.497,00_bat_bachelor,2022.2.4,59.96357121786363,
,,,,,,,,,,,,0,0,0,0,83,0,83,0,,,,,,,83,,,1,1384.1830311840167,X,l,go,l,1,0.29013520188163966,,,,,,,,,,,,,,,,,45,001, 20,w,Psychologie,2023-01-18_13h30.28.497,00_bat_bachelor,2022.2.4,59.96357121786363,
,,,,,,,,,,,,0,0,0,0,84,0,84,0,,,,,,,84,,,1,1385.5841015349142,Y,d,go,d,1,0.2807446609949693,,,,,,,,,,,,,,,,,45,001, 20,w,Psychologie,2023-01-18_13h30.28.497,00_bat_bachelor,2022.2.4,59.96357121786363,
,,,,,,,,,,,,0,0,0,0,85,0,85,0,,,,,,,85,,,1,1386.9687432878418,Y,None,nogo,None,1,,,,,,,,,,,,,,,,,,45,001, 20,w,Psychologie,2023-01-18_13h30.28.497,00_bat_bachelor,2022.2.4,59.96357121786363,
,,,,,,,,,,,,0,0,0,0,86,0,86,0,,,,,,,86,,,1,1388.7701867780415,X,l,go,l,1,0.19851051911246032,,,,,,,,,,,,,,,,,45,001, 20,w,Psychologie,2023-01-18_13h30.28.497,00_bat_bachelor,2022.2.4,59.96357121786363,
,,,,,,,,,,,,0,0,0,0,87,0,87,0,,,,,,,87,,,1,1390.070858147461,Y,d,go,d,1,0.17744822625536472,,,,,,,,,,,,,,,,,45,001, 20,w,Psychologie,2023-01-18_13h30.28.497,00_bat_bachelor,2022.2.4,59.96357121786363,
,,,,,,,,,,,,0,0,0,0,88,0,88,0,,,,,,,88,,,1,1391.355052433908,X,l,go,l,1,0.22144868969917297,,,,,,,,,,,,,,,,,45,001, 20,w,Psychologie,2023-01-18_13h30.28.497,00_bat_bachelor,2022.2.4,59.96357121786363,
,,,,,,,,,,,,0,0,0,0,89,0,89,0,,,,,,,89,,,1,1392.6897426958894,X,None,nogo,d,0,0.10362377716228366,,,,,,,,,,,,,,,,,45,001, 20,w,Psychologie,2023-01-18_13h30.28.497,00_bat_bachelor,2022.2.4,59.96357121786363,
,,,,,,,,,,,,0,0,0,0,90,0,90,0,,,,,,,90,,,1,1393.9074739842908,Y,d,go,d,1,0.23017353401519358,,,,,,,,,,,,,,,,,45,001, 20,w,Psychologie,2023-01-18_13h30.28.497,00_bat_bachelor,2022.2.4,59.96357121786363,
,,,,,,,,,,,,0,0,0,0,91,0,91,0,,,,,,,91,,,1,1395.2418374584522,X,l,go,l,1,0.19080967432819307,,,,,,,,,,,,,,,,,45,001, 20,w,Psychologie,2023-01-18_13h30.28.497,00_bat_bachelor,2022.2.4,59.96357121786363,
,,,,,,,,,,,,0,0,0,0,92,0,92,0,,,,,,,92,,,1,1396.5428273731377,Y,d,go,d,1,0.23415122891310602,,,,,,,,,,,,,,,,,45,001, 20,w,Psychologie,2023-01-18_13h30.28.497,00_bat_bachelor,2022.2.4,59.96357121786363,
,,,,,,,,,,,,0,0,0,0,93,0,93,0,,,,,,,93,,,1,1397.8938444150845,Y,None,nogo,l,0,0.2589900048915297,,,,,,,,,,,,,,,,,45,001, 20,w,Psychologie,2023-01-18_13h30.28.497,00_bat_bachelor,2022.2.4,59.96357121786363,
,,,,,,,,,,,,0,0,0,0,94,0,94,0,,,,,,,94,,,1,1399.2615896913921,Y,None,nogo,l,0,0.13980703230481595,,,,,,,,,,,,,,,,,45,001, 20,w,Psychologie,2023-01-18_13h30.28.497,00_bat_bachelor,2022.2.4,59.96357121786363,
,,,,,,,,,,,,0,0,0,0,95,0,95,0,,,,,,,95,,,1,1400.5121306608198,X,l,go,l,1,0.32846148626413196,,,,,,,,,,,,,,,,,45,001, 20,w,Psychologie,2023-01-18_13h30.28.497,00_bat_bachelor,2022.2.4,59.96357121786363,
,,,,,,,,,,,,0,0,0,0,96,0,96,0,,,,,,,96,,,1,1401.9468538439833,Y,d,go,d,1,0.19002422015182674,,,,,,,,,,,,,,,,,45,001, 20,w,Psychologie,2023-01-18_13h30.28.497,00_bat_bachelor,2022.2.4,59.96357121786363,
,,,,,,,,,,,,0,0,0,0,97,0,97,0,,,,,,,97,,,1,1403.2479310312774,X,l,go,l,1,0.297034592484124,,,,,,,,,,,,,,,,,45,001, 20,w,Psychologie,2023-01-18_13h30.28.497,00_bat_bachelor,2022.2.4,59.96357121786363,
,,,,,,,,,,,,0,0,0,0,98,0,98,0,,,,,,,98,,,1,1404.649003806524,Y,d,go,d,1,0.22381474915891886,,,,,,,,,,,,,,,,,45,001, 20,w,Psychologie,2023-01-18_13h30.28.497,00_bat_bachelor,2022.2.4,59.96357121786363,
,,,,,,,,,,,,0,0,0,0,99,0,99,0,,,,,,,99,,,1,1405.9833430383587,X,l,go,l,1,0.2505240695318207,,,,,,,,,,,,,,,,,45,001, 20,w,Psychologie,2023-01-18_13h30.28.497,00_bat_bachelor,2022.2.4,59.96357121786363,
,,,,,,,,,,,,0,0,0,0,100,0,100,0,,,,,,,100,,,1,1407.33435571671,X,None,nogo,d,0,0.19428894540760666,,,,,,,,,,,,,,,,,45,001, 20,w,Psychologie,2023-01-18_13h30.28.497,00_bat_bachelor,2022.2.4,59.96357121786363,
,,,,,,,,,,,,0,0,0,0,101,0,101,0,,,,,,,101,,,1,1408.6352447828976,Y,d,go,d,1,0.18912191747222096,,,,,,,,,,,,,,,,,45,001, 20,w,Psychologie,2023-01-18_13h30.28.497,00_bat_bachelor,2022.2.4,59.96357121786363,
,,,,,,,,,,,,0,0,0,0,102,0,102,0,,,,,,,102,,,1,1409.9362511824584,X,l,go,l,1,0.31305543310008943,,,,,,,,,,,,,,,,,45,001, 20,w,Psychologie,2023-01-18_13h30.28.497,00_bat_bachelor,2022.2.4,59.96357121786363,
,,,,,,,,,,,,0,0,0,0,103,0,103,0,,,,,,,103,,,1,1411.35413267673,Y,d,go,d,1,0.47945923125371337,,,,,,,,,,,,,,,,,45,001, 20,w,Psychologie,2023-01-18_13h30.28.497,00_bat_bachelor,2022.2.4,59.96357121786363,
,,,,,,,,,,,,0,0,0,0,104,0,104,0,,,,,,,104,,,1,1412.9386230600066,X,l,go,l,1,0.2069046968827024,,,,,,,,,,,,,,,,,45,001, 20,w,Psychologie,2023-01-18_13h30.28.497,00_bat_bachelor,2022.2.4,59.96357121786363,
,,,,,,,,,,,,0,0,0,0,105,0,105,0,,,,,,,105,,,1,1414.2563368453411,Y,d,go,d,1,0.23328238097019494,,,,,,,,,,,,,,,,,45,001, 20,w,Psychologie,2023-01-18_13h30.28.497,00_bat_bachelor,2022.2.4,59.96357121786363,
,,,,,,,,,,,,0,0,0,0,106,0,106,0,,,,,,,106,,,1,1415.5905180167174,X,l,go,l,1,0.29008914122823626,,,,,,,,,,,,,,,,,45,001, 20,w,Psychologie,2023-01-18_13h30.28.497,00_bat_bachelor,2022.2.4,59.96357121786363,
,,,,,,,,,,,,0,0,0,0,107,0,107,0,,,,,,,107,,,1,1416.9917265494587,Y,d,go,d,1,0.24898952490184456,,,,,,,,,,,,,,,,,45,001, 20,w,Psychologie,2023-01-18_13h30.28.497,00_bat_bachelor,2022.2.4,59.96357121786363,
,,,,,,,,,,,,0,0,0,0,108,0,108,0,,,,,,,108,,,1,1418.3423746218905,X,l,go,l,1,0.29024865641258657,,,,,,,,,,,,,,,,,45,001, 20,w,Psychologie,2023-01-18_13h30.28.497,00_bat_bachelor,2022.2.4,59.96357121786363,
,,,,,,,,,,,,0,0,0,0,109,0,109,0,,,,,,,109,,,1,1419.7438255787129,Y,d,go,d,1,0.36062486469745636,,,,,,,,,,,,,,,,,45,001, 20,w,Psychologie,2023-01-18_13h30.28.497,00_bat_bachelor,2022.2.4,59.96357121786363,
,,,,,,,,,,,,0,0,0,0,110,0,110,0,,,,,,,110,,,1,1421.2112289884826,X,l,go,l,1,0.2537584922974929,,,,,,,,,,,,,,,,,45,001, 20,w,Psychologie,2023-01-18_13h30.28.497,00_bat_bachelor,2022.2.4,59.96357121786363,
,,,,,,,,,,,,0,0,0,0,111,0,111,0,,,,,,,111,,,1,1422.5792234766996,X,None,nogo,d,0,0.1822113754460588,,,,,,,,,,,,,,,,,45,001, 20,w,Psychologie,2023-01-18_13h30.28.497,00_bat_bachelor,2022.2.4,59.96357121786363,
,,,,,,,,,,,,0,0,0,0,112,0,112,0,,,,,,,112,,,1,1423.8640189750586,Y,d,go,d,1,0.20942978642415255,,,,,,,,,,,,,,,,,45,001, 20,w,Psychologie,2023-01-18_13h30.28.497,00_bat_bachelor,2022.2.4,59.96357121786363,
,,,,,,,,,,,,0,0,0,0,113,0,113,0,,,,,,,113,,,1,1425.1814423362957,X,l,go,l,1,0.13984339591115713,,,,,,,,,,,,,,,,,45,001, 20,w,Psychologie,2023-01-18_13h30.28.497,00_bat_bachelor,2022.2.4,59.96357121786363,
,,,,,,,,,,,,0,0,0,0,114,0,114,0,,,,,,,114,,,1,1426.4323469419032,Y,d,go,d,1,0.04005629278253764,,,,,,,,,,,,,,,,,45,001, 20,w,Psychologie,2023-01-18_13h30.28.497,00_bat_bachelor,2022.2.4,59.96357121786363,
,,,,,,,,,,,,0,0,0,0,115,0,115,0,,,,,,,115,,,1,1427.5827536567813,X,l,go,l,1,0.2497177670011297,,,,,,,,,,,,,,,,,45,001, 20,w,Psychologie,2023-01-18_13h30.28.497,00_bat_bachelor,2022.2.4,59.96357121786363,
,,,,,,,,,,,,0,0,0,0,116,0,116,0,,,,,,,116,,,1,1428.9339879107429,X,None,nogo,d,0,0.2594263684004545,,,,,,,,,,,,,,,,,45,001, 20,w,Psychologie,2023-01-18_13h30.28.497,00_bat_bachelor,2022.2.4,59.96357121786363,
,,,,,,,,,,,,0,0,0,0,117,0,117,0,,,,,,,117,,,1,1430.3017661566846,Y,d,go,d,1,0.10690523008815944,,,,,,,,,,,,,,,,,45,001, 20,w,Psychologie,2023-01-18_13h30.28.497,00_bat_bachelor,2022.2.4,59.96357121786363,
,,,,,,,,,,,,0,0,0,0,118,0,118,0,,,,,,,118,,,1,1431.5192642330658,X,l,go,l,1,0.2497284336714074,,,,,,,,,,,,,,,,,45,001, 20,w,Psychologie,2023-01-18_13h30.28.497,00_bat_bachelor,2022.2.4,59.96357121786363,
,,,,,,,,,,,,0,0,0,0,119,0,119,0,,,,,,,119,,,1,1432.8705493960297,Y,d,go,d,1,0.2096421499736607,,,,,,,,,,,,,,,,,45,001, 20,w,Psychologie,2023-01-18_13h30.28.497,00_bat_bachelor,2022.2.4,59.96357121786363,
,,,,,,,,,,,,0,0,0,0,120,0,120,0,,,,,,,120,,,1,1434.1884062116733,X,l,go,l,1,0.20496627339161932,,,,,,,,,,,,,,,,,45,001, 20,w,Psychologie,2023-01-18_13h30.28.497,00_bat_bachelor,2022.2.4,59.96357121786363,
,,,,,,,,,,,,0,0,0,0,121,0,121,0,,,,,,,121,,,1,1435.5058329668827,Y,d,go,d,1,0.19912530668079853,,,,,,,,,,,,,,,,,45,001, 20,w,Psychologie,2023-01-18_13h30.28.497,00_bat_bachelor,2022.2.4,59.96357121786363,
,,,,,,,,,,,,0,0,0,0,122,0,122,0,,,,,,,122,,,1,1436.8067777906545,X,l,go,l,1,0.2419844373362139,,,,,,,,,,,,,,,,,45,001, 20,w,Psychologie,2023-01-18_13h30.28.497,00_bat_bachelor,2022.2.4,59.96357121786363,
,,,,,,,,,,,,0,0,0,0,123,0,123,0,,,,,,,123,,,1,1438.1744091275614,Y,d,go,d,1,0.17109477473422885,,,,,,,,,,,,,,,,,45,001, 20,w,Psychologie,2023-01-18_13h30.28.497,00_bat_bachelor,2022.2.4,59.96357121786363,
,,,,,,,,,,,,0,0,0,0,124,0,124,0,,,,,,,124,,,1,1439.45873771701,X,l,go,l,1,0.2783087834250182,,,,,,,,,,,,,,,,,45,001, 20,w,Psychologie,2023-01-18_13h30.28.497,00_bat_bachelor,2022.2.4,59.96357121786363,
,,,,,,,,,,,,0,0,0,0,125,0,125,0,,,,,,,125,,,1,1440.8430691669928,Y,d,go,d,1,0.23829037859104574,,,,,,,,,,,,,,,,,45,001, 20,w,Psychologie,2023-01-18_13h30.28.497,00_bat_bachelor,2022.2.4,59.96357121786363,
,,,,,,,,,,,,0,0,0,0,126,0,126,0,,,,,,,126,,,1,1442.1942554209381,X,l,go,l,1,0.310487192007713,,,,,,,,,,,,,,,,,45,001, 20,w,Psychologie,2023-01-18_13h30.28.497,00_bat_bachelor,2022.2.4,59.96357121786363,
,,,,,,,,,,,,0,0,0,0,127,0,127,0,,,,,,,127,,,1,1443.6120641881134,X,None,nogo,None,1,,,,,,,,,,,,,,,,,,45,001, 20,w,Psychologie,2023-01-18_13h30.28.497,00_bat_bachelor,2022.2.4,59.96357121786363,
,,,,,,,,,,,,0,0,0,0,128,0,128,0,,,,,,,128,,,1,1445.4130291331094,Y,d,go,d,1,0.19630785344634205,,,,,,,,,,,,,,,,,45,001, 20,w,Psychologie,2023-01-18_13h30.28.497,00_bat_bachelor,2022.2.4,59.96357121786363,
,,,,,,,,,,,,0,0,0,0,129,0,129,0,,,,,,,129,,,1,1446.7141727446578,X,l,go,l,1,0.19114712870214134,,,,,,,,,,,,,,,,,45,001, 20,w,Psychologie,2023-01-18_13h30.28.497,00_bat_bachelor,2022.2.4,59.96357121786363,
,,,,,,,,,,,,0,0,0,0,130,0,130,0,,,,,,,130,,,1,1448.01497599273,X,None,nogo,d,0,0.21783269138541073,,,,,,,,,,,,,,,,,45,001, 20,w,Psychologie,2023-01-18_13h30.28.497,00_bat_bachelor,2022.2.4,59.96357121786363,
,,,,,,,,,,,,0,0,0,0,131,0,131,0,,,,,,,131,,,1,1449.3495673456928,Y,d,go,d,1,0.2427684370195493,,,,,,,,,,,,,,,,,45,001, 20,w,Psychologie,2023-01-18_13h30.28.497,00_bat_bachelor,2022.2.4,59.96357121786363,
,,,,,,,,,,,,0,0,0,0,132,0,132,0,,,,,,,132,,,1,1450.7005999027751,X,l,go,l,1,0.2517473417101428,,,,,,,,,,,,,,,,,45,001, 20,w,Psychologie,2023-01-18_13h30.28.497,00_bat_bachelor,2022.2.4,59.96357121786363,
,,,,,,,,,,,,0,0,0,0,133,0,133,0,,,,,,,133,,,1,1452.0683781486005,X,None,nogo,None,1,,,,,,,,,,,,,,,,,,45,001, 20,w,Psychologie,2023-01-18_13h30.28.497,00_bat_bachelor,2022.2.4,59.96357121786363,
,,,,,,,,,,,,0,0,0,0,134,0,134,0,,,,,,,134,,,1,1453.869738729787,Y,d,go,d,1,0.3158239166950807,,,,,,,,,,,,,,,,,45,001, 20,w,Psychologie,2023-01-18_13h30.28.497,00_bat_bachelor,2022.2.4,59.96357121786363,
,,,,,,,,,,,,0,0,0,0,135,0,135,0,,,,,,,135,,,1,1455.2874864060432,X,l,go,l,1,0.24102249834686518,,,,,,,,,,,,,,,,,45,001, 20,w,Psychologie,2023-01-18_13h30.28.497,00_bat_bachelor,2022.2.4,59.96357121786363,
,,,,,,,,,,,,0,0,0,0,136,0,136,0,,,,,,,136,,,1,1456.6385829631472,Y,d,go,d,1,0.21830444876104593,,,,,,,,,,,,,,,,,45,001, 20,w,Psychologie,2023-01-18_13h30.28.497,00_bat_bachelor,2022.2.4,59.96357121786363,
,,,,,,,,,,,,0,0,0,0,137,0,137,0,,,,,,,137,,,1,1457.9729474070482,X,l,go,l,1,0.2763310873415321,,,,,,,,,,,,,,,,,45,001, 20,w,Psychologie,2023-01-18_13h30.28.497,00_bat_bachelor,2022.2.4,59.96357121786363,
,,,,,,,,,,,,0,0,0,0,138,0,138,0,,,,,,,138,,,1,1459.3569001905853,X,None,nogo,None,1,,,,,,,,,,,,,,,,,,45,001, 20,w,Psychologie,2023-01-18_13h30.28.497,00_bat_bachelor,2022.2.4,59.96357121786363,
,,,,,,,,,,,,0,0,0,0,139,0,139,0,,,,,,,139,,,1,1461.1587029533694,Y,d,go,d,1,0.2581429750425741,,,,,,,,,,,,,,,,,45,001, 20,w,Psychologie,2023-01-18_13h30.28.497,00_bat_bachelor,2022.2.4,59.96357121786363,
,,,,,,,,,,,,0,0,0,0,140,0,140,0,,,,,,,140,,,1,1462.5262950175675,X,l,go,l,1,0.2031335470965132,,,,,,,,,,,,,,,,,45,001, 20,w,Psychologie,2023-01-18_13h30.28.497,00_bat_bachelor,2022.2.4,59.96357121786363,
,,,,,,,,,,,,0,0,0,0,141,0,141,0,,,,,,,141,,,1,1463.8440383786801,Y,d,go,d,1,0.22858080745209008,,,,,,,,,,,,,,,,,45,001, 20,w,Psychologie,2023-01-18_13h30.28.497,00_bat_bachelor,2022.2.4,59.96357121786363,
,,,,,,,,,,,,0,0,0,0,142,0,142,0,,,,,,,142,,,1,1465.178386337706,Y,None,nogo,l,0,0.22223171964287758,,,,,,,,,,,,,,,,,45,001, 20,w,Psychologie,2023-01-18_13h30.28.497,00_bat_bachelor,2022.2.4,59.96357121786363,
,,,,,,,,,,,,0,0,0,0,143,0,143,0,,,,,,,143,,,1,1466.5127624180168,X,l,go,l,1,0.20008870016317815,,,,,,,,,,,,,,,,,45,001, 20,w,Psychologie,2023-01-18_13h30.28.497,00_bat_bachelor,2022.2.4,59.96357121786363,
,,,,,,,,,,,,0,0,0,0,144,0,144,0,,,,,,,144,,,1,1467.8136776661268,Y,d,go,d,1,0.14754327095579356,,,,,,,,,,,,,,,,,45,001, 20,w,Psychologie,2023-01-18_13h30.28.497,00_bat_bachelor,2022.2.4,59.96357121786363,
,,,,,,,,,,,,0,0,0,0,145,0,145,0,,,,,,,145,,,1,1469.0643781506224,Y,None,nogo,None,1,,,,,,,,,,,,,,,,,,45,001, 20,w,Psychologie,2023-01-18_13h30.28.497,00_bat_bachelor,2022.2.4,59.96357121786363,
,,,,,,,,,,,,0,0,0,0,146,0,146,0,,,,,,,146,,,1,1470.866101883119,X,l,go,l,1,0.24727946508210152,,,,,,,,,,,,,,,,,45,001, 20,w,Psychologie,2023-01-18_13h30.28.497,00_bat_bachelor,2022.2.4,59.96357121786363,
,,,,,,,,,,,,0,0,0,0,147,0,147,0,,,,,,,147,,,1,1472.217169834068,Y,d,go,d,1,0.3517778387758881,,,,,,,,,,,,,,,,,45,001, 20,w,Psychologie,2023-01-18_13h30.28.497,00_bat_bachelor,2022.2.4,59.96357121786363,
,,,,,,,,,,,,0,0,0,0,148,0,148,0,,,,,,,148,,,1,1473.684877243708,X,l,go,l,1,0.2920348373008892,,,,,,,,,,,,,,,,,45,001, 20,w,Psychologie,2023-01-18_13h30.28.497,00_bat_bachelor,2022.2.4,59.96357121786363,
,,,,,,,,,,,,0,0,0,0,149,0,149,0,,,,,,,149,,,1,1475.0858714735368,Y,d,go,d,1,0.3475174771156162,,,,,,,,,,,,,,,,,45,001, 20,w,Psychologie,2023-01-18_13h30.28.497,00_bat_bachelor,2022.2.4,59.96357121786363,
,,,,,,,,,,,,0,0,0,0,150,0,150,0,,,,,,,150,,,1,1476.537061072886,X,l,go,l,1,0.256577399908565,,,,,,,,,,,,,,,,,45,001, 20,w,Psychologie,2023-01-18_13h30.28.497,00_bat_bachelor,2022.2.4,59.96357121786363,
,,,,,,,,,,,,0,0,0,0,151,0,151,0,,,,,,,151,,,1,1477.9046696219593,Y,d,go,d,1,0.2489172825589776,,,,,,,,,,,,,,,,,45,001, 20,w,Psychologie,2023-01-18_13h30.28.497,00_bat_bachelor,2022.2.4,59.96357121786363,
,,,,,,,,,,,,0,0,0,0,152,0,152,0,,,,,,,152,,,1,1479.2558427850017,Y,None,nogo,l,0,0.17747683217749,,,,,,,,,,,,,,,,,45,001, 20,w,Psychologie,2023-01-18_13h30.28.497,00_bat_bachelor,2022.2.4,59.96357121786363,
,,,,,,,,,,,,0,0,0,0,153,0,153,0,,,,,,,153,,,1,1480.5399585260311,X,l,go,l,1,0.2530016441596672,,,,,,,,,,,,,,,,,45,001, 20,w,Psychologie,2023-01-18_13h30.28.497,00_bat_bachelor,2022.2.4,59.96357121786363,
,,,,,,,,,,,,0,0,0,0,154,0,154,0,,,,,,,154,,,1,1481.9078502265038,Y,d,go,d,1,0.24521449638996273,,,,,,,,,,,,,,,,,45,001, 20,w,Psychologie,2023-01-18_13h30.28.497,00_bat_bachelor,2022.2.4,59.96357121786363,
,,,,,,,,,,,,0,0,0,0,155,0,155,0,,,,,,,155,,,1,1483.2588212077972,Y,None,nogo,d,0,0.46211863367352635,,,,,,,,,,,,,,,,,45,001, 20,w,Psychologie,2023-01-18_13h30.28.497,00_bat_bachelor,2022.2.4,59.96357121786363,
,,,,,,,,,,,,0,0,0,0,156,0,156,0,,,,,,,156,,,1,1484.826669174945,X,l,go,l,1,0.4948148602852598,,,,,,,,,,,,,,,,,45,001, 20,w,Psychologie,2023-01-18_13h30.28.497,00_bat_bachelor,2022.2.4,59.96357121786363,
,,,,,,,,,,,,0,0,0,0,157,0,157,0,,,,,,,157,,,1,1486.4278640350094,Y,d,go,d,1,0.25308164407033473,,,,,,,,,,,,,,,,,45,001, 20,w,Psychologie,2023-01-18_13h30.28.497,00_bat_bachelor,2022.2.4,59.96357121786363,
,,,,,,,,,,,,0,0,0,0,158,0,158,0,,,,,,,158,,,1,1487.7957024020143,Y,None,nogo,None,1,,,,,,,,,,,,,,,,,,45,001, 20,w,Psychologie,2023-01-18_13h30.28.497,00_bat_bachelor,2022.2.4,59.96357121786363,
,,,,,,,,,,,,0,0,0,0,159,0,159,0,,,,,,,159,,,1,1489.5968617711915,X,l,go,l,1,0.2033769409172237,,,,,,,,,,,,,,,,,45,001, 20,w,Psychologie,2023-01-18_13h30.28.497,00_bat_bachelor,2022.2.4,59.96357121786363,
,,,,,,,,,,,,0,0,0,0,160,0,160,0,,,,,,,160,,,1,1490.9144941020058,Y,d,go,d,1,0.5984599009389058,,,,,,,,,,,,,,,,,45,001, 20,w,Psychologie,2023-01-18_13h30.28.497,00_bat_bachelor,2022.2.4,59.96357121786363,
,,,,,,,,,,,,0,0,0,0,161,0,161,0,,,,,,,161,,,1,1492.6156249135965,X,l,go,l,1,0.43288858723826706,,,,,,,,,,,,,,,,,45,001, 20,w,Psychologie,2023-01-18_13h30.28.497,00_bat_bachelor,2022.2.4,59.96357121786363,
,,,,,,,,,,,,0,0,0,0,162,0,162,0,,,,,,,162,,,1,1494.1505065936362,X,None,nogo,None,1,,,,,,,,,,,,,,,,,,45,001, 20,w,Psychologie,2023-01-18_13h30.28.497,00_bat_bachelor,2022.2.4,59.96357121786363,
,,,,,,,,,,,,0,0,0,0,163,0,163,0,,,,,,,163,,,1,1495.951796386973,Y,d,go,d,1,0.31370561465155333,,,,,,,,,,,,,,,,,45,001, 20,w,Psychologie,2023-01-18_13h30.28.497,00_bat_bachelor,2022.2.4,59.96357121786363,
,,,,,,,,,,,,0,0,0,0,164,0,164,0,,,,,,,164,,,1,1497.3691760634538,X,l,go,l,1,0.27106418076436967,,,,,,,,,,,,,,,,,45,001, 20,w,Psychologie,2023-01-18_13h30.28.497,00_bat_bachelor,2022.2.4,59.96357121786363,
,,,,,,,,,,,,0,0,0,0,165,0,165,0,,,,,,,165,,,1,1498.7537276345538,X,None,nogo,None,1,,1499.5542780342512,,,,,,,,,,,,,,,,45,001, 20,w,Psychologie,2023-01-18_13h30.28.497,00_bat_bachelor,2022.2.4,59.96357121786363,
,,,,,,,,,,,,0,0,0,0,166,0,166,0,,,,,,,166,,,1,1500.5554106397321,Y,d,go,d,1,0.2863766582449898,,,,,,,,,,,,,,,,,45,001, 20,w,Psychologie,2023-01-18_13h30.28.497,00_bat_bachelor,2022.2.4,59.96357121786363,
,,,,,,,,,,,,0,0,0,0,167,0,167,0,,,,,,,167,,,1,1501.95644414227,X,l,go,l,1,0.38831891189329326,,,,,,,,,,,,,,,,,45,001, 20,w,Psychologie,2023-01-18_13h30.28.497,00_bat_bachelor,2022.2.4,59.96357121786363,
,,,,,,,,,,,,0,0,0,0,168,0,168,0,,,,,,,168,,,1,1503.45752123266,Y,d,go,d,1,0.3273953050374985,,,,,,,,,,,,,,,,,45,001, 20,w,Psychologie,2023-01-18_13h30.28.497,00_bat_bachelor,2022.2.4,59.96357121786363,
,,,,,,,,,,,,0,0,0,0,169,0,169,0,,,,,,,169,,,1,1504.8919122947846,X,l,go,l,1,0.23648334911558777,,,,,,,,,,,,,,,,,45,001, 20,w,Psychologie,2023-01-18_13h30.28.497,00_bat_bachelor,2022.2.4,59.96357121786363,
,,,,,,,,,,,,0,0,0,0,170,0,170,0,,,,,,,170,,,1,1506.2428764882497,X,None,nogo,d,0,0.24563243566080928,,,,,,,,,,,,,,,,,45,001, 20,w,Psychologie,2023-01-18_13h30.28.497,00_bat_bachelor,2022.2.4,59.96357121786363,
,,,,,,,,,,,,0,0,0,0,171,0,171,0,,,,,,,171,,,1,1507.5938586211996,Y,d,go,d,1,0.19078155304305255,,,,,,,,,,,,,,,,,45,001, 20,w,Psychologie,2023-01-18_13h30.28.497,00_bat_bachelor,2022.2.4,59.96357121786363,
,,,,,,,,,,,,0,0,0,0,172,0,172,0,,,,,,,172,,,1,1508.8951064751018,X,l,go,l,1,0.5700909449951723,,,,,,,,,,,,,,,,,45,001, 20,w,Psychologie,2023-01-18_13h30.28.497,00_bat_bachelor,2022.2.4,59.96357121786363,
,,,,,,,,,,,,0,0,0,0,173,0,173,0,,,,,,,173,,,1,1510.5796045674942,Y,d,go,d,1,0.21393499639816582,,,,,,,,,,,,,,,,,45,001, 20,w,Psychologie,2023-01-18_13h30.28.497,00_bat_bachelor,2022.2.4,59.96357121786363,
,,,,,,,,,,,,0,0,0,0,174,0,174,0,,,,,,,174,,,1,1511.8969944742275,X,l,go,l,1,0.3044658616418019,,,,,,,,,,,,,,,,,45,001, 20,w,Psychologie,2023-01-18_13h30.28.497,00_bat_bachelor,2022.2.4,59.96357121786363,
,,,,,,,,,,,,0,0,0,0,175,0,175,0,,,,,,,175,,,1,1513.315134392702,X,None,nogo,None,1,,1514.1157410347369,,,,,,,,,,,,,,,,45,001, 20,w,Psychologie,2023-01-18_13h30.28.497,00_bat_bachelor,2022.2.4,59.96357121786363,
,,,,,,,,,,,,0,0,0,0,176,0,176,0,,,,,,,176,,,1,1515.1165104889078,Y,d,go,d,1,0.220344205503352,,,,,,,,,,,,,,,,,45,001, 20,w,Psychologie,2023-01-18_13h30.28.497,00_bat_bachelor,2022.2.4,59.96357121786363,
,,,,,,,,,,,,0,0,0,0,177,0,177,0,,,,,,,177,,,1,1516.4507212359458,X,l,go,l,1,0.27794854110106826,,,,,,,,,,,,,,,,,45,001, 20,w,Psychologie,2023-01-18_13h30.28.497,00_bat_bachelor,2022.2.4,59.96357121786363,
,,,,,,,,,,,,0,0,0,0,178,0,178,0,,,,,,,178,,,1,1517.835115716327,Y,d,go,d,1,0.2221211742144078,,,,,,,,,,,,,,,,,45,001, 20,w,Psychologie,2023-01-18_13h30.28.497,00_bat_bachelor,2022.2.4,59.96357121786363,
,,,,,,,,,,,,0,0,0,0,179,0,179,0,,,,,,,179,,,1,1519.1694142208435,Y,None,nogo,l,0,0.23185838165227324,,,,,,,,,,,,,,,,,45,001, 20,w,Psychologie,2023-01-18_13h30.28.497,00_bat_bachelor,2022.2.4,59.96357121786363,
,,,,,,,,,,,,0,0,0,0,180,0,180,0,,,,,,,180,,,1,1520.50382860424,X,l,go,l,1,0.2891262327320874,,,,,,,,,,,,,,,,,45,001, 20,w,Psychologie,2023-01-18_13h30.28.497,00_bat_bachelor,2022.2.4,59.96357121786363,
,,,,,,,,,,,,0,0,0,0,181,0,181,0,,,,,,,181,,,1,1521.9048911975697,Y,d,go,d,1,0.311736645991914,,,,,,,,,,,,,,,,,45,001, 20,w,Psychologie,2023-01-18_13h30.28.497,00_bat_bachelor,2022.2.4,59.96357121786363,
,,,,,,,,,,,,0,0,0,0,182,0,182,0,,,,,,,182,,,1,1523.3227266314207,X,l,go,l,1,0.23906031751539558,,,,,,,,,,,,,,,,,45,001, 20,w,Psychologie,2023-01-18_13h30.28.497,00_bat_bachelor,2022.2.4,59.96357121786363,
,,,,,,,,,,,,0,0,0,0,183,0,183,0,,,,,,,183,,,1,1524.6736612491077,Y,d,go,d,1,0.5034611589508131,,,,,,,,,,,,,,,,,45,001, 20,w,Psychologie,2023-01-18_13h30.28.497,00_bat_bachelor,2022.2.4,59.96357121786363,
,,,,,,,,,,,,0,0,0,0,184,0,184,0,,,,,,,184,,,1,1526.2912968284218,X,l,go,l,1,0.22987341287080199,,,,,,,,,,,,,,,,,45,001, 20,w,Psychologie,2023-01-18_13h30.28.497,00_bat_bachelor,2022.2.4,59.96357121786363,
,,,,,,,,,,,,0,0,0,0,185,0,185,0,,,,,,,185,,,1,1527.6260156964418,X,None,nogo,d,0,0.23950734757818282,,,,,,,,,,,,,,,,,45,001, 20,w,Psychologie,2023-01-18_13h30.28.497,00_bat_bachelor,2022.2.4,59.96357121786363,
,,,,,,,,,,,,0,0,0,0,186,0,186,0,,,,,,,186,,,1,1528.976870799088,Y,d,go,d,1,0.2001502758357674,,,,,,,,,,,,,,,,,45,001, 20,w,Psychologie,2023-01-18_13h30.28.497,00_bat_bachelor,2022.2.4,59.96357121786363,
,,,,,,,,,,,,0,0,0,0,187,0,187,0,,,,,,,187,,,1,1530.2780449560378,X,l,go,l,1,0.24298855802044272,,,,,,,,,,,,,,,,,45,001, 20,w,Psychologie,2023-01-18_13h30.28.497,00_bat_bachelor,2022.2.4,59.96357121786363,
,,,,,,,,,,,,0,0,0,0,188,0,188,0,,,,,,,188,,,1,1531.6290668464499,X,None,nogo,None,1,,,,,,,,,,,,,,,,,,45,001, 20,w,Psychologie,2023-01-18_13h30.28.497,00_bat_bachelor,2022.2.4,59.96357121786363,
,,,,,,,,,,,,0,0,0,0,189,0,189,0,,,,,,,189,,,1,1533.430424518534,Y,d,go,d,1,0.17846107424702495,,,,,,,,,,,,,,,,,45,001, 20,w,Psychologie,2023-01-18_13h30.28.497,00_bat_bachelor,2022.2.4,59.96357121786363,
,,,,,,,,,,,,0,0,0,0,190,0,190,0,,,,,,,190,,,1,1534.714605714078,X,l,go,l,1,0.446748944115825,,,,,,,,,,,,,,,,,45,001, 20,w,Psychologie,2023-01-18_13h30.28.497,00_bat_bachelor,2022.2.4,59.96357121786363,
,,,,,,,,,,,,0,0,0,0,191,0,191,0,,,,,,,191,,,1,1536.265571750002,Y,d,go,d,1,0.31853615771979094,,,,,,,,,,,,,,,,,45,001, 20,w,Psychologie,2023-01-18_13h30.28.497,00_bat_bachelor,2022.2.4,59.96357121786363,
,,,,,,,,,,,,0,0,0,0,192,0,192,0,,,,,,,192,,,1,1537.6999894788023,X,l,go,l,1,0.21246542129665613,,,,,,,,,,,,,,,,,45,001, 20,w,Psychologie,2023-01-18_13h30.28.497,00_bat_bachelor,2022.2.4,59.96357121786363,
,,,,,,,,,,,,0,0,0,0,193,0,193,0,,,,,,,193,,,1,1539.0179359912872,Y,d,go,d,1,0.27085472643375397,,,,,,,,,,,,,,,,,45,001, 20,w,Psychologie,2023-01-18_13h30.28.497,00_bat_bachelor,2022.2.4,59.96357121786363,
,,,,,,,,,,,,0,0,0,0,194,0,194,0,,,,,,,194,,,1,1540.4024958048249,Y,None,nogo,l,0,0.2783538743387908,,,,,,,,,,,,,,,,,45,001, 20,w,Psychologie,2023-01-18_13h30.28.497,00_bat_bachelor,2022.2.4,59.96357121786363,
,,,,,,,,,,,,0,0,0,0,195,0,195,0,,,,,,,195,,,1,1541.7864359823288,X,l,go,l,1,0.28576671914197505,,,,,,,,,,,,,,,,,45,001, 20,w,Psychologie,2023-01-18_13h30.28.497,00_bat_bachelor,2022.2.4,59.96357121786363,
,,,,,,,,,,,,0,0,0,0,196,0,196,0,,,,,,,196,,,1,1543.1875223333482,Y,d,go,d,1,0.3250510636717081,,,,,,,,,,,,,,,,,45,001, 20,w,Psychologie,2023-01-18_13h30.28.497,00_bat_bachelor,2022.2.4,59.96357121786363,
,,,,,,,,,,,,0,0,0,0,197,0,197,0,,,,,,,197,,,1,1544.622071940801,X,l,go,l,1,0.2835747201461345,,,,,,,,,,,,,,,,,45,001, 20,w,Psychologie,2023-01-18_13h30.28.497,00_bat_bachelor,2022.2.4,59.96357121786363,
,,,,,,,,,,,,0,0,0,0,198,0,198,0,,,,,,,198,,,1,1546.0066157543333,X,None,nogo,None,1,,,,,,,,,,,,,,,,,,45,001, 20,w,Psychologie,2023-01-18_13h30.28.497,00_bat_bachelor,2022.2.4,59.96357121786363,
,,,,,,,,,,,,0,0,0,0,199,0,199,0,,,,,,,199,,,1,1547.8076873659156,Y,d,go,d,1,0.2172266311245039,,,,,,,,,,,,,,,,,45,001, 20,w,Psychologie,2023-01-18_13h30.28.497,00_bat_bachelor,2022.2.4,59.96357121786363,
,,,,,,,,,,,,0,0,0,0,200,0,200,0,,,,,,,200,,,1,1549.1257468480617,X,l,go,l,1,0.30764016311150044,,,,,,,,,,,,,,,,,45,001, 20,w,Psychologie,2023-01-18_13h30.28.497,00_bat_bachelor,2022.2.4,59.96357121786363,
,,,,,,,,,,,,0,0,0,0,201,0,201,0,,,,,,,201,,,1,1550.5433529486181,X,None,nogo,None,1,,,,,,,,,,,,,,,,,,45,001, 20,w,Psychologie,2023-01-18_13h30.28.497,00_bat_bachelor,2022.2.4,59.96357121786363,
,,,,,,,,,,,,0,0,0,0,202,0,202,0,,,,,,,202,,,1,1552.3444565602113,Y,d,go,d,1,0.2249425061745569,,,,,,,,,,,,,,,,,45,001, 20,w,Psychologie,2023-01-18_13h30.28.497,00_bat_bachelor,2022.2.4,59.96357121786363,
,,,,,,,,,,,,0,0,0,0,203,0,203,0,,,,,,,203,,,1,1553.6790605192073,X,l,go,l,1,0.42566968163009733,,,,,,,,,,,,,,,,,45,001, 20,w,Psychologie,2023-01-18_13h30.28.497,00_bat_bachelor,2022.2.4,59.96357121786363,
,,,,,,,,,,,,0,0,0,0,204,0,204,0,,,,,,,204,,,1,1555.213579047937,Y,d,go,d,1,0.2512474631657824,,,,,,,,,,,,,,,,,45,001, 20,w,Psychologie,2023-01-18_13h30.28.497,00_bat_bachelor,2022.2.4,59.96357121786363,
,,,,,,,,,,,,0,0,0,0,205,0,205,0,,,,,,,205,,,1,1556.5814261423657,X,l,go,l,1,0.4676061461213976,,,,,,,,,,,,,,,,,45,001, 20,w,Psychologie,2023-01-18_13h30.28.497,00_bat_bachelor,2022.2.4,59.96357121786363,
,,,,,,,,,,,,0,0,0,0,206,0,206,0,,,,,,,206,,,1,1558.1657545863418,X,None,nogo,None,1,,,,,,,,,,,,,,,,,,45,001, 20,w,Psychologie,2023-01-18_13h30.28.497,00_bat_bachelor,2022.2.4,59.96357121786363,
,,,,,,,,,,,,0,0,0,0,207,0,207,0,,,,,,,207,,,1,1559.9672475310508,Y,d,go,d,1,0.3133230694802478,,,,,,,,,,,,,,,,,45,001, 20,w,Psychologie,2023-01-18_13h30.28.497,00_bat_bachelor,2022.2.4,59.96357121786363,
,,,,,,,,,,,,0,0,0,0,208,0,208,0,,,,,,,208,,,1,1561.3848730254686,X,l,go,l,1,0.2883107179077342,,,,,,,,,,,,,,,,,45,001, 20,w,Psychologie,2023-01-18_13h30.28.497,00_bat_bachelor,2022.2.4,59.96357121786363,
,,,,,,,,,,,,0,0,0,0,209,0,209,0,,,,,,,209,,,1,1562.786112588481,X,None,nogo,None,1,,,,,,,,,,,,,,,,,,45,001, 20,w,Psychologie,2023-01-18_13h30.28.497,00_bat_bachelor,2022.2.4,59.96357121786363,
,,,,,,,,,,,,0,0,0,0,210,0,210,0,,,,,,,210,,,1,1564.587420806056,Y,d,go,d,1,0.188831978244707,,,,,,,,,,,,,,,,,45,001, 20,w,Psychologie,2023-01-18_13h30.28.497,00_bat_bachelor,2022.2.4,59.96357121786363,
,,,,,,,,,,,,0,0,0,0,211,0,211,0,,,,,,,211,,,1,1565.8883704784093,X,l,go,l,1,0.15272096556145698,,,,,,,,,,,,,,,,,45,001, 20,w,Psychologie,2023-01-18_13h30.28.497,00_bat_bachelor,2022.2.4,59.96357121786363,
,,,,,,,,,,,,0,0,0,0,212,0,212,0,,,,,,,212,,,1,1567.1557938638143,Y,d,go,d,1,0.22917038295418024,,,,,,,,,,,,,,,,,45,001, 20,w,Psychologie,2023-01-18_13h30.28.497,00_bat_bachelor,2022.2.4,59.96357121786363,
,,,,,,,,,,,,0,0,0,0,213,0,213,0,,,,,,,213,,,1,1568.4903808531817,X,l,go,l,1,0.23858371167443693,,,,,,,,,,,,,,,,,45,001, 20,w,Psychologie,2023-01-18_13h30.28.497,00_bat_bachelor,2022.2.4,59.96357121786363,
,,,,,,,,,,,,0,0,0,0,214,0,214,0,,,,,,,214,,,1,1569.8415389859583,X,None,nogo,None,1,,,,,,,,,,,,,,,,,,45,001, 20,w,Psychologie,2023-01-18_13h30.28.497,00_bat_bachelor,2022.2.4,59.96357121786363,
,,,,,,,,,,,,0,0,0,0,215,0,215,0,,,,,,,215,,,1,1571.6428898700979,Y,d,go,d,1,0.20589912147261202,,,,,,,,,,,,,,,,,45,001, 20,w,Psychologie,2023-01-18_13h30.28.497,00_bat_bachelor,2022.2.4,59.96357121786363,
,,,,,,,,,,,,0,0,0,0,216,0,216,0,,,,,,,216,,,1,1572.9604596555,X,l,go,l,1,0.23222492693457752,,,,,,,,,,,,,,,,,45,001, 20,w,Psychologie,2023-01-18_13h30.28.497,00_bat_bachelor,2022.2.4,59.96357121786363,
,,,,,,,,,,,,0,0,0,0,217,0,217,0,,,,,,,217,,,1,1574.2948507660767,Y,d,go,d,1,0.2256460210774094,,,,,,,,,,,,,,,,,45,001, 20,w,Psychologie,2023-01-18_13h30.28.497,00_bat_bachelor,2022.2.4,59.96357121786363,
,,,,,,,,,,,,0,0,0,0,218,0,218,0,,,,,,,218,,,1,1575.6289063617587,X,l,go,l,1,0.2199970540823415,,,,,,,,,,,,,,,,,45,001, 20,w,Psychologie,2023-01-18_13h30.28.497,00_bat_bachelor,2022.2.4,59.96357121786363,
,,,,,,,,,,,,0,0,0,0,219,0,219,0,,,,,,,219,,,1,1576.963528260123,Y,d,go,d,1,0.29396404849831015,,,,,,,,,,,,,,,,,45,001, 20,w,Psychologie,2023-01-18_13h30.28.497,00_bat_bachelor,2022.2.4,59.96357121786363,
,,,,,,,,,,,,0,0,0,0,220,0,220,0,,,,,,,220,,,1,1578.364358611172,Y,None,nogo,l,0,0.20493718259967864,,,,,,,,,,,,,,,,,45,001, 20,w,Psychologie,2023-01-18_13h30.28.497,00_bat_bachelor,2022.2.4,59.96357121786363,
,,,,,,,,,,,,0,0,0,0,221,0,221,0,,,,,,,221,,,1,1579.682214457076,X,l,go,l,1,0.26218612445518374,,,,,,,,,,,,,,,,,45,001, 20,w,Psychologie,2023-01-18_13h30.28.497,00_bat_bachelor,2022.2.4,59.96357121786363,
,,,,,,,,,,,,0,0,0,0,222,0,222,0,,,,,,,222,,,1,1581.0499340363313,Y,d,go,d,1,0.17431077326182276,,,,,,,,,,,,,,,,,45,001, 20,w,Psychologie,2023-01-18_13h30.28.497,00_bat_bachelor,2022.2.4,59.96357121786363,
,,,,,,,,,,,,0,0,0,0,223,0,223,0,,,,,,,223,,,1,1582.334267959115,X,l,go,l,1,0.18657355511095375,,,,,,,,,,,,,,,,,45,001, 20,w,Psychologie,2023-01-18_13h30.28.497,00_bat_bachelor,2022.2.4,59.96357121786363,
,,,,,,,,,,,,0,0,0,0,224,0,224,0,,,,,,,224,,,1,1583.635031449725,X,None,nogo,d,0,0.2139791176887229,,,,,,,,,,,,,,,,,45,001, 20,w,Psychologie,2023-01-18_13h30.28.497,00_bat_bachelor,2022.2.4,59.96357121786363,
,,,,,,,,,,,,0,0,0,0,225,0,225,0,,,,,,,225,,,1,1584.9527951744385,Y,d,go,d,1,0.19142737099900842,,,,,,,,,,,,,,,,,45,001, 20,w,Psychologie,2023-01-18_13h30.28.497,00_bat_bachelor,2022.2.4,59.96357121786363,
,,,,,,,,,,,,0,0,0,0,226,0,226,0,,,,,,,226,,,1,1586.2542393918848,X,l,go,l,1,0.20252651697956026,,,,,,,,,,,,,,,,,45,001, 20,w,Psychologie,2023-01-18_13h30.28.497,00_bat_bachelor,2022.2.4,59.96357121786363,
,,,,,,,,,,,,0,0,0,0,227,0,227,0,,,,,,,227,,,1,1587.5716981469886,Y,d,go,d,1,0.2774326626677066,,,,,,,,,,,,,,,,,45,001, 20,w,Psychologie,2023-01-18_13h30.28.497,00_bat_bachelor,2022.2.4,59.96357121786363,
,,,,,,,,,,,,0,0,0,0,228,0,228,0,,,,,,,228,,,1,1588.9557139608078,X,l,go,l,1,0.20490857656113803,,,,,,,,,,,,,,,,,45,001, 20,w,Psychologie,2023-01-18_13h30.28.497,00_bat_bachelor,2022.2.4,59.96357121786363,
,,,,,,,,,,,,0,0,0,0,229,0,229,0,,,,,,,229,,,1,1590.2737996247597,Y,d,go,d,1,0.3916406072676182,,,,,,,,,,,,,,,,,45,001, 20,w,Psychologie,2023-01-18_13h30.28.497,00_bat_bachelor,2022.2.4,59.96357121786363,
,,,,,,,,,,,,0,0,0,0,230,0,230,0,,,,,,,230,,,1,1591.774733684957,X,l,go,l,1,0.2984304705169052,,,,,,,,,,,,,,,,,45,001, 20,w,Psychologie,2023-01-18_13h30.28.497,00_bat_bachelor,2022.2.4,59.96357121786363,
,,,,,,,,,,,,0,0,0,0,231,0,231,0,,,,,,,231,,,1,1593.1755848845933,X,None,nogo,d,0,0.209049180499278,,,,,,,,,,,,,,,,,45,001, 20,w,Psychologie,2023-01-18_13h30.28.497,00_bat_bachelor,2022.2.4,59.96357121786363,
,,,,,,,,,,,,0,0,0,0,232,0,232,0,,,,,,,232,,,1,1594.49341988191,Y,d,go,d,1,0.2667916980572045,,,,,,,,,,,,,,,,,45,001, 20,w,Psychologie,2023-01-18_13h30.28.497,00_bat_bachelor,2022.2.4,59.96357121786363,
,,,,,,,,,,,,0,0,0,0,233,0,233,0,,,,,,,233,,,1,1595.8612378854305,X,l,go,l,1,0.16395538428332657,,,,,,,,,,,,,,,,,45,001, 20,w,Psychologie,2023-01-18_13h30.28.497,00_bat_bachelor,2022.2.4,59.96357121786363,
,,,,,,,,,,,,0,0,0,0,234,0,234,0,,,,,,,234,,,1,1597.1289899980184,X,None,nogo,None,1,,,,,,,,,,,,,,,,,,45,001, 20,w,Psychologie,2023-01-18_13h30.28.497,00_bat_bachelor,2022.2.4,59.96357121786363,
,,,,,,,,,,,,0,0,0,0,235,0,235,0,,,,,,,235,,,1,1598.9304082761519,Y,d,go,d,1,0.31058610102627426,,,,,,,,,,,,,,,,,45,001, 20,w,Psychologie,2023-01-18_13h30.28.497,00_bat_bachelor,2022.2.4,59.96357121786363,
,,,,,,,,,,,,0,0,0,0,236,0,236,0,,,,,,,236,,,1,1600.3481283159927,X,l,go,l,1,0.300561863463372,,,,,,,,,,,,,,,,,45,001, 20,w,Psychologie,2023-01-18_13h30.28.497,00_bat_bachelor,2022.2.4,59.96357121786363,
,,,,,,,,,,,,0,0,0,0,237,0,237,0,,,,,,,237,,,1,1601.7492636366514,Y,d,go,d,1,0.34010075335390866,,,,,,,,,,,,,,,,,45,001, 20,w,Psychologie,2023-01-18_13h30.28.497,00_bat_bachelor,2022.2.4,59.96357121786363,
,,,,,,,,,,,,0,0,0,0,238,0,238,0,,,,,,,238,,,1,1603.200382933137,Y,None,nogo,l,0,0.23291486606467515,,,,,,,,,,,,,,,,,45,001, 20,w,Psychologie,2023-01-18_13h30.28.497,00_bat_bachelor,2022.2.4,59.96357121786363,
,,,,,,,,,,,,0,0,0,0,239,0,239,0,,,,,,,239,,,1,1604.5346853164956,X,l,go,l,1,0.22538856661412865,,,,,,,,,,,,,,,,,45,001, 20,w,Psychologie,2023-01-18_13h30.28.497,00_bat_bachelor,2022.2.4,59.96357121786363,
,,,,,,,,,,,,0,0,0,0,240,0,240,0,,,,,,,240,,,1,1605.8691510937642,Y,d,go,d,1,0.21975026628933847,,,,,,,,,,,,,,,,,45,001, 20,w,Psychologie,2023-01-18_13h30.28.497,00_bat_bachelor,2022.2.4,59.96357121786363,
,,,,,,,,,,,,0,0,0,0,241,0,241,0,,,,,,,241,,,1,1607.2036362648942,X,l,go,l,1,0.26091145840473473,,,,,,,,,,,,,,,,,45,001, 20,w,Psychologie,2023-01-18_13h30.28.497,00_bat_bachelor,2022.2.4,59.96357121786363,
,,,,,,,,,,,,0,0,0,0,242,0,242,0,,,,,,,242,,,1,1608.5712457835907,Y,d,go,d,1,0.2054608187172562,,,,,,,,,,,,,,,,,45,001, 20,w,Psychologie,2023-01-18_13h30.28.497,00_bat_bachelor,2022.2.4,59.96357121786363,
,,,,,,,,,,,,0,0,0,0,243,0,243,0,,,,,,,243,,,1,1609.888941629557,Y,None,nogo,l,0,0.1996891851304099,,,,,,,,,,,,,,,,,45,001, 20,w,Psychologie,2023-01-18_13h30.28.497,00_bat_bachelor,2022.2.4,59.96357121786363,
,,,,,,,,,,,,0,0,0,0,244,0,244,0,,,,,,,244,,,1,1611.1896896050312,X,l,go,l,1,0.17904725577682257,,,,,,,,,,,,,,,,,45,001, 20,w,Psychologie,2023-01-18_13h30.28.497,00_bat_bachelor,2022.2.4,59.96357121786363,
,,,,,,,,,,,,0,0,0,0,245,0,245,0,,,,,,,245,,,1,1612.4738829217386,Y,d,go,d,1,0.20686493930406868,,,,,,,,,,,,,,,,,45,001, 20,w,Psychologie,2023-01-18_13h30.28.497,00_bat_bachelor,2022.2.4,59.96357121786363,
,,,,,,,,,,,,0,0,0,0,246,0,246,0,,,,,,,246,,,1,1613.791298040538,X,l,go,l,1,0.36171819758601487,,,,,,,,,,,,,,,,,45,001, 20,w,Psychologie,2023-01-18_13h30.28.497,00_bat_bachelor,2022.2.4,59.96357121786363,
,,,,,,,,,,,,0,0,0,0,247,0,247,0,,,,,,,247,,,1,1615.2593273894163,X,None,nogo,d,0,0.22171826532576233,,,,,,,,,,,,,,,,,45,001, 20,w,Psychologie,2023-01-18_13h30.28.497,00_bat_bachelor,2022.2.4,59.96357121786363,
,,,,,,,,,,,,0,0,0,0,248,0,248,0,,,,,,,248,,,1,1616.5937592273112,Y,d,go,d,1,0.16684944345615804,,,,,,,,,,,,,,,,,45,001, 20,w,Psychologie,2023-01-18_13h30.28.497,00_bat_bachelor,2022.2.4,59.96357121786363,
,,,,,,,,,,,,0,0,0,0,249,0,249,0,,,,,,,249,,,1,1617.8614725519437,X,l,go,l,1,0.30825446581002325,,,,,,,,,,,,,,,,,45,001, 20,w,Psychologie,2023-01-18_13h30.28.497,00_bat_bachelor,2022.2.4,59.96357121786363,
,,,,,,,,,,,,1,0,1,0,0,0,0,0,,,,,,,0,,,0.2,1627.0015883628512,X,l,go,l,1,0.6390397599898279,,,,,,,,,1618.2830776809715,space,8.497732676914893,,,,,,45,001, 20,w,Psychologie,2023-01-18_13h30.28.497,00_bat_bachelor,2022.2.4,59.96357121786363,
,,,,,,,,,,,,1,0,1,0,1,0,1,0,,,,,,,1,,,0.2,1627.9522390534403,Y,d,go,d,1,0.29644501698203385,,,,,,,,,,,,,,,,,45,001, 20,w,Psychologie,2023-01-18_13h30.28.497,00_bat_bachelor,2022.2.4,59.96357121786363,
,,,,,,,,,,,,1,0,1,0,2,0,2,0,,,,,,,2,,,0.2,1628.5527992470888,X,l,go,l,1,0.20840627187862992,,,,,,,,,,,,,,,,,45,001, 20,w,Psychologie,2023-01-18_13h30.28.497,00_bat_bachelor,2022.2.4,59.96357121786363,
,,,,,,,,,,,,1,0,1,0,3,0,3,0,,,,,,,3,,,0.2,1629.0699703902937,Y,d,go,d,1,0.3473191742086783,,,,,,,,,,,,,,,,,45,001, 20,w,Psychologie,2023-01-18_13h30.28.497,00_bat_bachelor,2022.2.4,59.96357121786363,
,,,,,,,,,,,,1,0,1,0,4,0,4,0,,,,,,,4,,,0.2,1629.7204486203846,X,l,go,l,1,0.22465353668667376,,,,,,,,,,,,,,,,,45,001, 20,w,Psychologie,2023-01-18_13h30.28.497,00_bat_bachelor,2022.2.4,59.96357121786363,
,,,,,,,,,,,,1,0,1,0,5,0,5,0,,,,,,,5,,,0.2,1630.2540270283353,Y,d,go,d,1,0.2182331761578098,,,,,,,,,,,,,,,,,45,001, 20,w,Psychologie,2023-01-18_13h30.28.497,00_bat_bachelor,2022.2.4,59.96357121786363,
,,,,,,,,,,,,1,0,1,0,6,0,6,0,,,,,,,6,,,0.2,1630.7879399815574,Y,None,nogo,l,0,0.22951123130042106,,,,,,,,,,,,,,,,,45,001, 20,w,Psychologie,2023-01-18_13h30.28.497,00_bat_bachelor,2022.2.4,59.96357121786363,
,,,,,,,,,,,,1,0,1,0,7,0,7,0,,,,,,,7,,,0.2,1631.3216366925044,X,l,go,d,0,0.22349523415323347,,,,,,,,,,,,,,,,,45,001, 20,w,Psychologie,2023-01-18_13h30.28.497,00_bat_bachelor,2022.2.4,59.96357121786363,
,,,,,,,,,,,,1,0,1,0,8,0,8,0,,,,,,,8,,,0.2,1631.8553571610246,Y,d,go,d,1,0.5697418542113155,,,,,,,,,,,,,,,,,45,001, 20,w,Psychologie,2023-01-18_13h30.28.497,00_bat_bachelor,2022.2.4,59.96357121786363,
,,,,,,,,,,,,1,0,1,0,9,0,9,0,,,,,,,9,,,0.2,1632.739341217326,X,l,go,l,1,0.45349027414340526,,,,,,,,,,,,,,,,,45,001, 20,w,Psychologie,2023-01-18_13h30.28.497,00_bat_bachelor,2022.2.4,59.96357121786363,
,,,,,,,,,,,,1,0,1,0,10,0,10,0,,,,,,,10,,,0.2,1633.5065670270706,Y,d,go,d,1,0.37431843380909413,,,,,,,,,,,,,,,,,45,001, 20,w,Psychologie,2023-01-18_13h30.28.497,00_bat_bachelor,2022.2.4,59.96357121786363,
,,,,,,,,,,,,1,0,1,0,11,0,11,0,,,,,,,11,,,0.2,1634.1905211197445,Y,None,nogo,None,1,,,,,,,,,,,,,,,,,,45,001, 20,w,Psychologie,2023-01-18_13h30.28.497,00_bat_bachelor,2022.2.4,59.96357121786363,
,,,,,,,,,,,,1,0,1,0,12,0,12,0,,,,,,,12,,,0.2,1635.1912328769686,X,l,go,l,1,0.2730932707199827,,,,,,,,,,,,,,,,,45,001, 20,w,Psychologie,2023-01-18_13h30.28.497,00_bat_bachelor,2022.2.4,59.96357121786363,
,,,,,,,,,,,,1,0,1,0,13,0,13,0,,,,,,,13,,,0.2,1635.7747128364863,Y,d,go,d,1,0.39378800010308623,,,,,,,,,,,,,,,,,45,001, 20,w,Psychologie,2023-01-18_13h30.28.497,00_bat_bachelor,2022.2.4,59.96357121786363,
,,,,,,,,,,,,1,0,1,0,14,0,14,0,,,,,,,14,,,0.2,1636.4752400120487,Y,None,nogo,None,1,,1637.2762364720693,,,,,,,,,,,,,,,,45,001, 20,w,Psychologie,2023-01-18_13h30.28.497,00_bat_bachelor,2022.2.4,59.96357121786363,
,,,,,,,,,,,,1,0,1,0,15,0,15,0,,,,,,,15,,,0.2,1637.4760501934215,X,l,go,l,1,0.26084697362966835,,,,,,,,,,,,,,,,,45,001, 20,w,Psychologie,2023-01-18_13h30.28.497,00_bat_bachelor,2022.2.4,59.96357121786363,
,,,,,,,,,,,,1,0,1,0,16,0,16,0,,,,,,,16,,,0.2,1638.043471978861,Y,d,go,d,1,0.3173051282064989,,,,,,,,,,,,,,,,,45,001, 20,w,Psychologie,2023-01-18_13h30.28.497,00_bat_bachelor,2022.2.4,59.96357121786363,
,,,,,,,,,,,,1,0,1,0,17,0,17,0,,,,,,,17,,,0.2,1638.677269974607,X,l,go,l,1,0.467795236967504,,,,,,,,,,,,,,,,,45,001, 20,w,Psychologie,2023-01-18_13h30.28.497,00_bat_bachelor,2022.2.4,59.96357121786363,
,,,,,,,,,,,,1,0,1,0,18,0,18,0,,,,,,,18,,,0.2,1639.4611731097102,X,None,nogo,None,1,,,,,,,,,,,,,,,,,,45,001, 20,w,Psychologie,2023-01-18_13h30.28.497,00_bat_bachelor,2022.2.4,59.96357121786363,
,,,,,,,,,,,,1,0,1,0,19,0,19,0,,,,,,,19,,,0.2,1640.461998806335,Y,d,go,d,1,0.25150685699190944,,,,,,,,,,,,,,,,,45,001, 20,w,Psychologie,2023-01-18_13h30.28.497,00_bat_bachelor,2022.2.4,59.96357121786363,
,,,,,,,,,,,,1,0,1,0,20,0,20,0,,,,,,,20,,,0.2,1641.0288494405104,X,l,go,l,1,0.45199936581775546,,,,,,,,,,,,,,,,,45,001, 20,w,Psychologie,2023-01-18_13h30.28.497,00_bat_bachelor,2022.2.4,59.96357121786363,
,,,,,,,,,,,,1,0,1,0,21,0,21,0,,,,,,,21,,,0.2,1641.7959264019737,X,None,nogo,d,0,0.35642753331921995,,,,,,,,,,,,,,,,,45,001, 20,w,Psychologie,2023-01-18_13h30.28.497,00_bat_bachelor,2022.2.4,59.96357121786363,
,,,,,,,,,,,,1,0,1,0,22,0,22,0,,,,,,,22,,,0.2,1642.463513472234,Y,d,go,d,1,0.4889763176906854,,,,,,,,,,,,,,,,,45,001, 20,w,Psychologie,2023-01-18_13h30.28.497,00_bat_bachelor,2022.2.4,59.96357121786363,
,,,,,,,,,,,,1,0,1,0,23,0,23,0,,,,,,,23,,,0.2,1643.2637467811583,X,l,go,l,1,0.6646038688486442,,,,,,,,,,,,,,,,,45,001, 20,w,Psychologie,2023-01-18_13h30.28.497,00_bat_bachelor,2022.2.4,59.96357121786363,
,,,,,,,,,,,,1,0,1,0,24,0,24,0,,,,,,,24,,,0.2,1644.2312847363064,Y,d,go,d,1,0.433980465400964,,,,,,,,,,,,,,,,,45,001, 20,w,Psychologie,2023-01-18_13h30.28.497,00_bat_bachelor,2022.2.4,59.96357121786363,
,,,,,,,,,,,,1,0,1,0,25,0,25,0,,,,,,,25,,,0.2,1644.965042441152,Y,None,nogo,None,1,,,,,,,,,,,,,,,,,,45,001, 20,w,Psychologie,2023-01-18_13h30.28.497,00_bat_bachelor,2022.2.4,59.96357121786363,
,,,,,,,,,,,,1,0,1,0,26,0,26,0,,,,,,,26,,,0.2,1645.9657629256835,Y,None,nogo,l,0,0.25174055388197303,,,,,,,,,,,,,,,,,45,001, 20,w,Psychologie,2023-01-18_13h30.28.497,00_bat_bachelor,2022.2.4,59.96357121786363,
,,,,,,,,,,,,1,0,1,0,27,0,27,0,,,,,,,27,,,0.2,1646.5331847111229,X,l,go,l,1,0.6123226819327101,,,,,,,,,,,,,,,,,45,001, 20,w,Psychologie,2023-01-18_13h30.28.497,00_bat_bachelor,2022.2.4,59.96357121786363,
,,,,,,,,,,,,1,0,1,0,28,0,28,0,,,,,,,28,,,0.2,1647.4505059634103,Y,d,go,d,1,0.5260138754965737,,,,,,,,,,,,,,,,,45,001, 20,w,Psychologie,2023-01-18_13h30.28.497,00_bat_bachelor,2022.2.4,59.96357121786363,
,,,,,,,,,,,,1,0,1,0,29,0,29,0,,,,,,,29,,,0.2,1648.2846156195737,Y,None,nogo,l,0,0.2848125377204269,,,,,,,,,,,,,,,,,45,001, 20,w,Psychologie,2023-01-18_13h30.28.497,00_bat_bachelor,2022.2.4,59.96357121786363,
,,,,,,,,,,,,1,0,1,0,30,0,30,0,,,,,,,30,,,0.2,1648.8849479345372,X,l,go,None,0,,,,,,,,,,,,,,,,,,45,001, 20,w,Psychologie,2023-01-18_13h30.28.497,00_bat_bachelor,2022.2.4,59.96357121786363,
,,,,,,,,,,,,1,0,1,0,31,0,31,0,,,,,,,31,,,0.2,1649.8854609039845,Y,d,go,None,0,,,,,,,,,,,,,,,,,,45,001, 20,w,Psychologie,2023-01-18_13h30.28.497,00_bat_bachelor,2022.2.4,59.96357121786363,
,,,,,,,,,,,,1,0,1,0,32,0,32,0,,,,,,,32,,,0.2,1650.8866570246173,X,l,go,l,1,0.22584189975168556,,,,,,,,,,,,,,,,,45,001, 20,w,Psychologie,2023-01-18_13h30.28.497,00_bat_bachelor,2022.2.4,59.96357121786363,
,,,,,,,,,,,,1,0,1,0,33,0,33,0,,,,,,,33,,,0.2,1651.4199067055015,X,None,nogo,None,1,,,,,,,,,,,,,,,,,,45,001, 20,w,Psychologie,2023-01-18_13h30.28.497,00_bat_bachelor,2022.2.4,59.96357121786363,
,,,,,,,,,,,,1,0,1,0,34,0,34,0,,,,,,,34,,,0.2,1652.4209859777475,Y,d,go,d,1,0.2596969136502594,,,,,,,,,,,,,,,,,45,001, 20,w,Psychologie,2023-01-18_13h30.28.497,00_bat_bachelor,2022.2.4,59.96357121786363,
,,,,,,,,,,,,1,0,1,0,35,0,35,0,,,,,,,35,,,0.2,1652.9877750362502,X,l,go,l,1,0.5408424743218347,,,,,,,,,,,,,,,,,45,001, 20,w,Psychologie,2023-01-18_13h30.28.497,00_bat_bachelor,2022.2.4,59.96357121786363,
,,,,,,,,,,,,1,0,1,0,36,0,36,0,,,,,,,36,,,0.2,1653.8387923205737,X,None,nogo,None,1,,,,,,,,,,,,,,,,,,45,001, 20,w,Psychologie,2023-01-18_13h30.28.497,00_bat_bachelor,2022.2.4,59.96357121786363,
,,,,,,,,,,,,1,0,1,0,37,0,37,0,,,,,,,37,,,0.2,1654.8394866232993,Y,d,go,d,1,0.24123777099885046,,,,,,,,,,,,,,,,,45,001, 20,w,Psychologie,2023-01-18_13h30.28.497,00_bat_bachelor,2022.2.4,59.96357121786363,
,,,,,,,,,,,,1,0,1,0,38,0,38,0,,,,,,,38,,,0.2,1655.390044416883,X,l,go,l,1,0.6198121329071,,,,,,,,,,,,,,,,,45,001, 20,w,Psychologie,2023-01-18_13h30.28.497,00_bat_bachelor,2022.2.4,59.96357121786363,
,,,,,,,,,,,,1,0,1,0,39,0,39,0,,,,,,,39,,,0.2,1656.3239372974494,Y,d,go,d,1,0.4209884718293324,,,,,,,,,,,,,,,,,45,001, 20,w,Psychologie,2023-01-18_13h30.28.497,00_bat_bachelor,2022.2.4,59.96357121786363,
,,,,,,,,,,,,1,0,1,0,40,0,40,0,,,,,,,40,,,0.2,1657.057459850912,X,l,go,l,1,0.5671997948084027,,,,,,,,,,,,,,,,,45,001, 20,w,Psychologie,2023-01-18_13h30.28.497,00_bat_bachelor,2022.2.4,59.96357121786363,
,,,,,,,,,,,,1,0,1,0,41,0,41,0,,,,,,,41,,,0.2,1657.925183551386,Y,d,go,d,1,0.3399446322582662,,,,,,,,,,,,,,,,,45,001, 20,w,Psychologie,2023-01-18_13h30.28.497,00_bat_bachelor,2022.2.4,59.96357121786363,
,,,,,,,,,,,,1,0,1,0,42,0,42,0,,,,,,,42,,,0.2,1658.5756123269675,Y,None,nogo,l,0,0.48864468140527606,,,,,,,,,,,,,,,,,45,001, 20,w,Psychologie,2023-01-18_13h30.28.497,00_bat_bachelor,2022.2.4,59.96357121786363,
,,,,,,,,,,,,1,0,1,0,43,0,43,0,,,,,,,43,,,0.2,1659.376288787229,X,l,go,l,1,0.664368232479319,,,,,,,,,,,,,,,,,45,001, 20,w,Psychologie,2023-01-18_13h30.28.497,00_bat_bachelor,2022.2.4,59.96357121786363,
,,,,,,,,,,,,1,0,1,0,44,0,44,0,,,,,,,44,,,0.2,1660.3437700151699,Y,d,go,d,1,0.3213909443002194,,,,,,,,,,,,,,,,,45,001, 20,w,Psychologie,2023-01-18_13h30.28.497,00_bat_bachelor,2022.2.4,59.96357121786363,
,,,,,,,,,,,,1,0,1,0,45,0,45,0,,,,,,,45,,,0.2,1660.9772310412955,Y,None,nogo,None,1,,,,,,,,,,,,,,,,,,45,001, 20,w,Psychologie,2023-01-18_13h30.28.497,00_bat_bachelor,2022.2.4,59.96357121786363,
,,,,,,,,,,,,1,0,1,0,46,0,46,0,,,,,,,46,,,0.2,1661.9780232834164,X,l,go,l,1,0.22227923467289656,,,,,,,,,,,,,,,,,45,001, 20,w,Psychologie,2023-01-18_13h30.28.497,00_bat_bachelor,2022.2.4,59.96357121786363,
,,,,,,,,,,,,1,0,1,0,47,0,47,0,,,,,,,47,,,0.2,1662.5120235093636,Y,d,go,None,0,,,,,,,,,,,,,,,,,,45,001, 20,w,Psychologie,2023-01-18_13h30.28.497,00_bat_bachelor,2022.2.4,59.96357121786363,
,,,,,,,,,,,,1,0,1,0,48,0,48,0,,,,,,,48,,,0.2,1663.5132453269325,X,l,go,l,1,0.5593874349724501,,,,,,,,,,,,,,,,,45,001, 20,w,Psychologie,2023-01-18_13h30.28.497,00_bat_bachelor,2022.2.4,59.96357121786363,
,,,,,,,,,,,,1,0,1,0,49,0,49,0,,,,,,,49,,,0.2,1664.3805840578862,Y,d,go,d,1,0.364809105056338,,,,,,,,,,,,,,,,,45,001, 20,w,Psychologie,2023-01-18_13h30.28.497,00_bat_bachelor,2022.2.4,59.96357121786363,
,,,,,,,,,,,,1,0,1,0,50,0,50,0,,,,,,,50,,,0.2,1665.0476203404833,X,l,go,l,1,0.608779895817861,,,,,,,,,,,,,,,,,45,001, 20,w,Psychologie,2023-01-18_13h30.28.497,00_bat_bachelor,2022.2.4,59.96357121786363,
,,,,,,,,,,,,1,0,1,0,51,0,51,0,,,,,,,51,,,0.2,1665.9647534716642,Y,d,go,d,1,0.34815165866166353,,,,,,,,,,,,,,,,,45,001, 20,w,Psychologie,2023-01-18_13h30.28.497,00_bat_bachelor,2022.2.4,59.96357121786363,
,,,,,,,,,,,,1,0,1,0,52,0,52,0,,,,,,,52,,,0.2,1666.6148879443062,Y,None,nogo,None,1,,,,,,,,,,,,,,,,,,45,001, 20,w,Psychologie,2023-01-18_13h30.28.497,00_bat_bachelor,2022.2.4,59.96357121786363,
,,,,,,,,,,,,1,0,1,0,53,0,53,0,,,,,,,53,,,0.2,1667.6156452771975,X,l,go,l,1,0.24925182783044875,,,,,,,,,,,,,,,,,45,001, 20,w,Psychologie,2023-01-18_13h30.28.497,00_bat_bachelor,2022.2.4,59.96357121786363,
,,,,,,,,,,,,1,0,1,0,54,0,54,0,,,,,,,54,,,0.2,1668.1663029496558,Y,d,go,d,1,0.3062021031510085,,,,,,,,,,,,,,,,,45,001, 20,w,Psychologie,2023-01-18_13h30.28.497,00_bat_bachelor,2022.2.4,59.96357121786363,
,,,,,,,,,,,,1,0,1,0,55,0,55,0,,,,,,,55,,,0.2,1668.7834832564695,X,l,go,l,1,0.3779688562499359,,,,,,,,,,,,,,,,,45,001, 20,w,Psychologie,2023-01-18_13h30.28.497,00_bat_bachelor,2022.2.4,59.96357121786363,
,,,,,,,,,,,,1,0,1,0,56,0,56,0,,,,,,,56,,,0.2,1669.4669714099728,X,None,nogo,None,1,,,,,,,,,,,,,,,,,,45,001, 20,w,Psychologie,2023-01-18_13h30.28.497,00_bat_bachelor,2022.2.4,59.96357121786363,
,,,,,,,,,,,,1,0,1,0,57,0,57,0,,,,,,,57,,,0.2,1670.4681612275308,Y,d,go,d,1,0.2767543599475175,,,,,,,,,,,,,,,,,45,001, 20,w,Psychologie,2023-01-18_13h30.28.497,00_bat_bachelor,2022.2.4,59.96357121786363,
,,,,,,,,,,,,1,0,1,0,58,0,58,0,,,,,,,58,,,0.2,1671.0517929445487,X,l,go,l,1,0.4768851719563827,,,,,,,,,,,,,,,,,45,001, 20,w,Psychologie,2023-01-18_13h30.28.497,00_bat_bachelor,2022.2.4,59.96357121786363,
,,,,,,,,,,,,1,0,1,0,59,0,59,0,,,,,,,59,,,0.2,1671.8358934129355,X,None,nogo,None,1,,,,,,,,,,,,,,,,,,45,001, 20,w,Psychologie,2023-01-18_13h30.28.497,00_bat_bachelor,2022.2.4,59.96357121786363,
,,,,,,,,,,,,1,0,1,0,60,0,60,0,,,,,,,60,,,0.2,1672.8364810489584,Y,d,go,d,1,0.2288823832059279,,,,,,,,,,,,,,,,,45,001, 20,w,Psychologie,2023-01-18_13h30.28.497,00_bat_bachelor,2022.2.4,59.96357121786363,
,,,,,,,,,,,,1,0,1,0,61,0,61,0,,,,,,,61,,,0.2,1673.370282002259,X,l,go,l,1,0.493937284918502,,,,,,,,,,,,,,,,,45,001, 20,w,Psychologie,2023-01-18_13h30.28.497,00_bat_bachelor,2022.2.4,59.96357121786363,
,,,,,,,,,,,,1,0,1,0,62,0,62,0,,,,,,,62,,,0.2,1674.1709841594566,Y,d,go,d,1,0.33367699896916747,,,,,,,,,,,,,,,,,45,001, 20,w,Psychologie,2023-01-18_13h30.28.497,00_bat_bachelor,2022.2.4,59.96357121786363,
,,,,,,,,,,,,1,0,1,0,63,0,63,0,,,,,,,63,,,0.2,1674.804390882724,Y,None,nogo,l,0,0.33946317806839943,,,,,,,,,,,,,,,,,45,001, 20,w,Psychologie,2023-01-18_13h30.28.497,00_bat_bachelor,2022.2.4,59.96357121786363,
,,,,,,,,,,,,1,0,1,0,64,0,64,0,,,,,,,64,,,0.2,1675.4551624460146,X,l,go,None,0,,,,,,,,,,,,,,,,,,45,001, 20,w,Psychologie,2023-01-18_13h30.28.497,00_bat_bachelor,2022.2.4,59.96357121786363,
,,,,,,,,,,,,1,0,1,0,65,0,65,0,,,,,,,65,,,0.2,1676.4559575971216,Y,d,go,d,1,0.4333642233395949,,,,,,,,,,,,,,,,,45,001, 20,w,Psychologie,2023-01-18_13h30.28.497,00_bat_bachelor,2022.2.4,59.96357121786363,
,,,,,,,,,,,,1,0,1,0,66,0,66,0,,,,,,,66,,,0.2,1677.189895180636,X,l,go,None,0,,,,,,,,,,,,,,,,,,45,001, 20,w,Psychologie,2023-01-18_13h30.28.497,00_bat_bachelor,2022.2.4,59.96357121786363,
,,,,,,,,,,,,1,0,1,0,67,0,67,0,,,,,,,67,,,0.2,1678.1907228166237,Y,d,go,l,0,0.28202369064092636,,,,,,,,,,,,,,,,,45,001, 20,w,Psychologie,2023-01-18_13h30.28.497,00_bat_bachelor,2022.2.4,59.96357121786363,
,,,,,,,,,,,,1,0,1,0,68,0,68,0,,,,,,,68,,,0.2,1678.7743996245554,X,l,go,None,0,,,,,,,,,,,,,,,,,,45,001, 20,w,Psychologie,2023-01-18_13h30.28.497,00_bat_bachelor,2022.2.4,59.96357121786363,
,,,,,,,,,,,,1,0,1,0,69,0,69,0,,,,,,,69,,,0.2,1679.7752582908142,X,None,nogo,None,1,,,,,,,,,,,,,,,,,,45,001, 20,w,Psychologie,2023-01-18_13h30.28.497,00_bat_bachelor,2022.2.4,59.96357121786363,
,,,,,,,,,,,,1,0,1,0,70,0,70,0,,,,,,,70,,,0.2,1680.775656835991,Y,d,go,d,1,0.33774196659214795,,,,,,,,,,,,,,,,,45,001, 20,w,Psychologie,2023-01-18_13h30.28.497,00_bat_bachelor,2022.2.4,59.96357121786363,
,,,,,,,,,,,,1,0,1,0,71,0,71,0,,,,,,,71,,,0.2,1681.4264851264888,X,l,go,l,1,0.40656859998125583,,,,,,,,,,,,,,,,,45,001, 20,w,Psychologie,2023-01-18_13h30.28.497,00_bat_bachelor,2022.2.4,59.96357121786363,
,,,,,,,,,,,,1,0,1,0,72,0,72,0,,,,,,,72,,,0.2,1682.1433701122878,Y,d,go,d,1,0.3615165005903691,,,,,,,,,,,,,,,,,45,001, 20,w,Psychologie,2023-01-18_13h30.28.497,00_bat_bachelor,2022.2.4,59.96357121786363,
,,,,,,,,,,,,1,0,1,0,73,0,73,0,,,,,,,73,,,0.2,1682.8109188795788,X,l,go,l,1,0.3335378475021571,,,,,,,,,,,,,,,,,45,001, 20,w,Psychologie,2023-01-18_13h30.28.497,00_bat_bachelor,2022.2.4,59.96357121786363,
,,,,,,,,,,,,1,0,1,0,74,0,74,0,,,,,,,74,,,0.2,1683.444571905653,Y,d,go,d,1,0.35689589683897793,,,,,,,,,,,,,,,,,45,001, 20,w,Psychologie,2023-01-18_13h30.28.497,00_bat_bachelor,2022.2.4,59.96357121786363,
,,,,,,,,,,,,1,0,1,0,75,0,75,0,,,,,,,75,,,0.2,1684.1118510973174,X,l,go,l,1,0.3772318868432194,,,,,,,,,,,,,,,,,45,001, 20,w,Psychologie,2023-01-18_13h30.28.497,00_bat_bachelor,2022.2.4,59.96357121786363,
,,,,,,,,,,,,1,0,1,0,76,0,76,0,,,,,,,76,,,0.2,1684.7957693111384,Y,d,go,d,1,0.28496332559734583,,,,,,,,,,,,,,,,,45,001, 20,w,Psychologie,2023-01-18_13h30.28.497,00_bat_bachelor,2022.2.4,59.96357121786363,
,,,,,,,,,,,,1,0,1,0,77,0,77,0,,,,,,,77,,,0.2,1685.3961530200904,X,l,go,l,1,0.3245128821581602,,,,,,,,,,,,,,,,,45,001, 20,w,Psychologie,2023-01-18_13h30.28.497,00_bat_bachelor,2022.2.4,59.96357121786363,
,,,,,,,,,,,,1,0,1,0,78,0,78,0,,,,,,,78,,,0.2,1686.0298118643695,Y,d,go,d,1,0.330490576219745,,,,,,,,,,,,,,,,,45,001, 20,w,Psychologie,2023-01-18_13h30.28.497,00_bat_bachelor,2022.2.4,59.96357121786363,
,,,,,,,,,,,,1,0,1,0,79,0,79,0,,,,,,,79,,,0.2,1686.6637407690287,X,l,go,l,1,0.5452541084960103,,,,,,,,,,,,,,,,,45,001, 20,w,Psychologie,2023-01-18_13h30.28.497,00_bat_bachelor,2022.2.4,59.96357121786363,
,,,,,,,,,,,,1,0,1,0,80,0,80,0,,,,,,,80,,,0.2,1687.5145170838805,X,None,nogo,None,1,,,,,,,,,,,,,,,,,,45,001, 20,w,Psychologie,2023-01-18_13h30.28.497,00_bat_bachelor,2022.2.4,59.96357121786363,
,,,,,,,,,,,,1,0,1,0,81,0,81,0,,,,,,,81,,,0.2,1688.514866174548,Y,d,go,d,1,0.21311366348527372,,,,,,,,,,,,,,,,,45,001, 20,w,Psychologie,2023-01-18_13h30.28.497,00_bat_bachelor,2022.2.4,59.96357121786363,
,,,,,,,,,,,,1,0,1,0,82,0,82,0,,,,,,,82,,,0.2,1689.0322196207708,X,l,go,l,1,0.4329336780356243,,,,,,,,,,,,,,,,,45,001, 20,w,Psychologie,2023-01-18_13h30.28.497,00_bat_bachelor,2022.2.4,59.96357121786363,
,,,,,,,,,,,,1,0,1,0,83,0,83,0,,,,,,,83,,,0.2,1689.7660180528183,X,None,nogo,d,0,0.2748605426168069,,,,,,,,,,,,,,,,,45,001, 20,w,Psychologie,2023-01-18_13h30.28.497,00_bat_bachelor,2022.2.4,59.96357121786363,
,,,,,,,,,,,,1,0,1,0,84,0,84,0,,,,,,,84,,,0.2,1690.3495387396542,Y,d,go,d,1,0.5703702175524086,,,,,,,,,,,,,,,,,45,001, 20,w,Psychologie,2023-01-18_13h30.28.497,00_bat_bachelor,2022.2.4,59.96357121786363,
,,,,,,,,,,,,1,0,1,0,85,0,85,0,,,,,,,85,,,0.2,1691.2339964925777,X,l,go,l,1,0.4238815613789484,,,,,,,,,,,,,,,,,45,001, 20,w,Psychologie,2023-01-18_13h30.28.497,00_bat_bachelor,2022.2.4,59.96357121786363,
,,,,,,,,,,,,1,0,1,0,86,0,86,0,,,,,,,86,,,0.2,1691.9676392883994,X,None,nogo,None,1,,1692.7684534456348,,,,,,,,,,,,,,,,45,001, 20,w,Psychologie,2023-01-18_13h30.28.497,00_bat_bachelor,2022.2.4,59.96357121786363,
,,,,,,,,,,,,1,0,1,0,87,0,87,0,,,,,,,87,,,0.2,1692.9685813485412,Y,d,go,d,1,0.22430299129337072,,,,,,,,,,,,,,,,,45,001, 20,w,Psychologie,2023-01-18_13h30.28.497,00_bat_bachelor,2022.2.4,59.96357121786363,
,,,,,,,,,,,,1,0,1,0,88,0,88,0,,,,,,,88,,,0.2,1693.5023270291276,X,l,go,l,1,0.44282700668554753,,,,,,,,,,,,,,,,,45,001, 20,w,Psychologie,2023-01-18_13h30.28.497,00_bat_bachelor,2022.2.4,59.96357121786363,
,,,,,,,,,,,,1,0,1,0,89,0,89,0,,,,,,,89,,,0.2,1694.2525841199094,X,None,nogo,None,1,,,,,,,,,,,,,,,,,,45,001, 20,w,Psychologie,2023-01-18_13h30.28.497,00_bat_bachelor,2022.2.4,59.96357121786363,
,,,,,,,,,,,,1,0,1,0,90,0,90,0,,,,,,,90,,,0.2,1695.2535290891537,Y,d,go,d,1,0.24289304297417402,,,,,,,,,,,,,,,,,45,001, 20,w,Psychologie,2023-01-18_13h30.28.497,00_bat_bachelor,2022.2.4,59.96357121786363,
,,,,,,,,,,,,1,0,1,0,91,0,91,0,,,,,,,91,,,0.2,1695.804179488914,X,l,go,l,1,0.5087217625696212,,,,,,,,,,,,,,,,,45,001, 20,w,Psychologie,2023-01-18_13h30.28.497,00_bat_bachelor,2022.2.4,59.96357121786363,
,,,,,,,,,,,,1,0,1,0,92,0,92,0,,,,,,,92,,,0.2,1696.621374728973,X,None,nogo,None,1,,,,,,,,,,,,,,,,,,45,001, 20,w,Psychologie,2023-01-18_13h30.28.497,00_bat_bachelor,2022.2.4,59.96357121786363,
,,,,,,,,,,,,1,0,1,0,93,0,93,0,,,,,,,93,,,0.2,1697.6220491529675,Y,d,go,d,1,0.22727802023291588,,,,,,,,,,,,,,,,,45,001, 20,w,Psychologie,2023-01-18_13h30.28.497,00_bat_bachelor,2022.2.4,59.96357121786363,
,,,,,,,,,,,,1,0,1,0,94,0,94,0,,,,,,,94,,,0.2,1698.1558142274152,X,l,go,l,1,0.4607964523602277,,,,,,,,,,,,,,,,,45,001, 20,w,Psychologie,2023-01-18_13h30.28.497,00_bat_bachelor,2022.2.4,59.96357121786363,
,,,,,,,,,,,,1,0,1,0,95,0,95,0,,,,,,,95,,,0.2,1698.9394540899666,X,None,nogo,None,1,,,,,,,,,,,,,,,,,,45,001, 20,w,Psychologie,2023-01-18_13h30.28.497,00_bat_bachelor,2022.2.4,59.96357121786363,
,,,,,,,,,,,,1,0,1,0,96,0,96,0,,,,,,,96,,,0.2,1699.9405391803011,Y,d,go,d,1,0.24391704250592738,,,,,,,,,,,,,,,,,45,001, 20,w,Psychologie,2023-01-18_13h30.28.497,00_bat_bachelor,2022.2.4,59.96357121786363,
,,,,,,,,,,,,1,0,1,0,97,0,97,0,,,,,,,97,,,0.2,1700.4908269135049,X,l,go,l,1,0.3505618392955512,,,,,,,,,,,,,,,,,45,001, 20,w,Psychologie,2023-01-18_13h30.28.497,00_bat_bachelor,2022.2.4,59.96357121786363,
,,,,,,,,,,,,1,0,1,0,98,0,98,0,,,,,,,98,,,0.2,1701.141525264713,X,None,nogo,None,1,,,,,,,,,,,,,,,,,,45,001, 20,w,Psychologie,2023-01-18_13h30.28.497,00_bat_bachelor,2022.2.4,59.96357121786363,
,,,,,,,,,,,,1,0,1,0,99,0,99,0,,,,,,,99,,,0.2,1702.1418898706324,X,None,nogo,d,0,0.1707209567539394,,,,,,,,,,,,,,,,,45,001, 20,w,Psychologie,2023-01-18_13h30.28.497,00_bat_bachelor,2022.2.4,59.96357121786363,
,,,,,,,,,,,,1,0,1,0,100,0,100,0,,,,,,,100,,,0.2,1702.6256263633259,Y,d,go,d,1,0.5031741289421916,,,,,,,,,,,,,,,,,45,001, 20,w,Psychologie,2023-01-18_13h30.28.497,00_bat_bachelor,2022.2.4,59.96357121786363,
,,,,,,,,,,,,1,0,1,0,101,0,101,0,,,,,,,101,,,0.2,1703.4432153002126,X,l,go,l,1,0.4061317517189309,,,,,,,,,,,,,,,,,45,001, 20,w,Psychologie,2023-01-18_13h30.28.497,00_bat_bachelor,2022.2.4,59.96357121786363,
,,,,,,,,,,,,1,0,1,0,102,0,102,0,,,,,,,102,,,0.2,1704.160455194884,X,None,nogo,None,1,,,,,,,,,,,,,,,,,,45,001, 20,w,Psychologie,2023-01-18_13h30.28.497,00_bat_bachelor,2022.2.4,59.96357121786363,
,,,,,,,,,,,,1,0,1,0,103,0,103,0,,,,,,,103,,,0.2,1705.1608716795454,Y,d,go,d,1,0.4310796183999628,,,,,,,,,,,,,,,,,45,001, 20,w,Psychologie,2023-01-18_13h30.28.497,00_bat_bachelor,2022.2.4,59.96357121786363,
,,,,,,,,,,,,1,0,1,0,104,0,104,0,,,,,,,104,,,0.2,1705.8950948386919,X,l,go,l,1,0.20977596810553223,,,,,,,,,,,,,,,,,45,001, 20,w,Psychologie,2023-01-18_13h30.28.497,00_bat_bachelor,2022.2.4,59.96357121786363,
,,,,,,,,,,,,1,0,1,0,105,0,105,0,,,,,,,105,,,0.2,1706.4120885274606,Y,d,go,d,1,0.4765758387511596,,,,,,,,,,,,,,,,,45,001, 20,w,Psychologie,2023-01-18_13h30.28.497,00_bat_bachelor,2022.2.4,59.96357121786363,
,,,,,,,,,,,,1,0,1,0,106,0,106,0,,,,,,,106,,,0.2,1707.19615748059,Y,None,nogo,l,0,0.31716840085573494,,,,,,,,,,,,,,,,,45,001, 20,w,Psychologie,2023-01-18_13h30.28.497,00_bat_bachelor,2022.2.4,59.96357121786363,
,,,,,,,,,,,,1,0,1,0,107,0,107,0,,,,,,,107,,,0.2,1707.8130977875553,X,l,go,l,1,0.4511348813539371,,,,,,,,,,,,,,,,,45,001, 20,w,Psychologie,2023-01-18_13h30.28.497,00_bat_bachelor,2022.2.4,59.96357121786363,
,,,,,,,,,,,,1,0,1,0,108,0,108,0,,,,,,,108,,,0.2,1708.5804768094094,Y,d,go,d,1,0.34059917740523815,,,,,,,,,,,,,,,,,45,001, 20,w,Psychologie,2023-01-18_13h30.28.497,00_bat_bachelor,2022.2.4,59.96357121786363,
,,,,,,,,,,,,1,0,1,0,109,0,109,0,,,,,,,109,,,0.2,1709.2310049788794,Y,None,nogo,None,1,,,,,,,,,,,,,,,,,,45,001, 20,w,Psychologie,2023-01-18_13h30.28.497,00_bat_bachelor,2022.2.4,59.96357121786363,
,,,,,,,,,,,,1,0,1,0,110,0,110,0,,,,,,,110,,,0.2,1710.2315829179715,X,l,go,l,1,0.27366490673739463,,,,,,,,,,,,,,,,,45,001, 20,w,Psychologie,2023-01-18_13h30.28.497,00_bat_bachelor,2022.2.4,59.96357121786363,
,,,,,,,,,,,,1,0,1,0,111,0,111,0,,,,,,,111,,,0.2,1710.815591846942,Y,d,go,d,1,0.5213986049639061,,,,,,,,,,,,,,,,,45,001, 20,w,Psychologie,2023-01-18_13h30.28.497,00_bat_bachelor,2022.2.4,59.96357121786363,
,,,,,,,,,,,,1,0,1,0,112,0,112,0,,,,,,,112,,,0.2,1711.6494328972185,Y,None,nogo,None,1,,,,,,,,,,,,,,,,,,45,001, 20,w,Psychologie,2023-01-18_13h30.28.497,00_bat_bachelor,2022.2.4,59.96357121786363,
,,,,,,,,,,,,1,0,1,0,113,0,113,0,,,,,,,113,,,0.2,1712.6502231998602,X,l,go,l,1,0.22306177986320108,,,,,,,,,,,,,,,,,45,001, 20,w,Psychologie,2023-01-18_13h30.28.497,00_bat_bachelor,2022.2.4,59.96357121786363,
,,,,,,,,,,,,1,0,1,0,114,0,114,0,,,,,,,114,,,0.2,1713.1839567592833,Y,d,go,None,0,,,,,,,,,,,,,,,,,,45,001, 20,w,Psychologie,2023-01-18_13h30.28.497,00_bat_bachelor,2022.2.4,59.96357121786363,
,,,,,,,,,,,,1,0,1,0,115,0,115,0,,,,,,,115,,,0.2,1714.1847000316484,X,l,go,None,0,,,,,,,,,,,,,,,,,,45,001, 20,w,Psychologie,2023-01-18_13h30.28.497,00_bat_bachelor,2022.2.4,59.96357121786363,
,,,,,,,,,,,,1,0,1,0,116,0,116,0,,,,,,,116,,,0.2,1715.1855262130266,Y,d,go,d,1,0.2789628435857594,,,,,,,,,,,,,,,,,45,001, 20,w,Psychologie,2023-01-18_13h30.28.497,00_bat_bachelor,2022.2.4,59.96357121786363,
,,,,,,,,,,,,1,0,1,0,117,0,117,0,,,,,,,117,,,0.2,1715.7691550210584,X,l,go,None,0,,,,,,,,,,,,,,,,,,45,001, 20,w,Psychologie,2023-01-18_13h30.28.497,00_bat_bachelor,2022.2.4,59.96357121786363,
,,,,,,,,,,,,1,0,1,0,118,0,118,0,,,,,,,118,,,0.2,1716.7701043538982,X,None,nogo,None,1,,,,,,,,,,,,,,,,,,45,001, 20,w,Psychologie,2023-01-18_13h30.28.497,00_bat_bachelor,2022.2.4,59.96357121786363,
,,,,,,,,,,,,1,0,1,0,119,0,119,0,,,,,,,119,,,0.2,1717.7705484748585,Y,d,go,d,1,0.3179073096252978,,,,,,,,,,,,,,,,,45,001, 20,w,Psychologie,2023-01-18_13h30.28.497,00_bat_bachelor,2022.2.4,59.96357121786363,
,,,,,,,,,,,,1,0,1,0,120,0,120,0,,,,,,,120,,,0.2,1718.4046921674162,X,l,go,l,1,0.48381510796025395,,,,,,,,,,,,,,,,,45,001, 20,w,Psychologie,2023-01-18_13h30.28.497,00_bat_bachelor,2022.2.4,59.96357121786363,
,,,,,,,,,,,,1,0,1,0,121,0,121,0,,,,,,,121,,,0.2,1719.204959900584,X,None,nogo,None,1,,,,,,,,,,,,,,,,,,45,001, 20,w,Psychologie,2023-01-18_13h30.28.497,00_bat_bachelor,2022.2.4,59.96357121786363,
,,,,,,,,,,,,1,0,1,0,122,0,122,0,,,,,,,122,,,0.2,1720.20602802129,X,None,nogo,d,0,0.2985924099339172,,,,,,,,,,,,,,,,,45,001, 20,w,Psychologie,2023-01-18_13h30.28.497,00_bat_bachelor,2022.2.4,59.96357121786363,
,,,,,,,,,,,,1,0,1,0,123,0,123,0,,,,,,,123,,,0.2,1720.8064088211395,Y,d,go,None,0,,,,,,,,,,,,,,,,,,45,001, 20,w,Psychologie,2023-01-18_13h30.28.497,00_bat_bachelor,2022.2.4,59.96357121786363,
,,,,,,,,,,,,1,0,1,0,124,0,124,0,,,,,,,124,,,0.2,1721.807103123865,X,l,go,l,1,0.3614326218375936,,,,,,,,,,,,,,,,,45,001, 20,w,Psychologie,2023-01-18_13h30.28.497,00_bat_bachelor,2022.2.4,59.96357121786363,
,,,,,,,,,,,,1,0,1,0,125,0,125,0,,,,,,,125,,,0.2,1722.4743648609146,Y,d,go,d,1,0.4789898982271552,,,,,,,,,,,,,,,,,45,001, 20,w,Psychologie,2023-01-18_13h30.28.497,00_bat_bachelor,2022.2.4,59.96357121786363,
,,,,,,,,,,,,1,0,1,0,126,0,126,0,,,,,,,126,,,0.2,1723.2579838748788,Y,None,nogo,None,1,,,,,,,,,,,,,,,,,,45,001, 20,w,Psychologie,2023-01-18_13h30.28.497,00_bat_bachelor,2022.2.4,59.96357121786363,
,,,,,,,,,,,,1,0,1,0,127,0,127,0,,,,,,,127,,,0.2,1724.2591019349638,Y,None,nogo,None,1,,,,,,,,,,,,,,,,,,45,001, 20,w,Psychologie,2023-01-18_13h30.28.497,00_bat_bachelor,2022.2.4,59.96357121786363,
,,,,,,,,,,,,1,0,1,0,128,0,128,0,,,,,,,128,,,0.2,1725.259820480016,X,l,go,l,1,0.2851703556952998,,,,,,,,,,,,,,,,,45,001, 20,w,Psychologie,2023-01-18_13h30.28.497,00_bat_bachelor,2022.2.4,59.96357121786363,
,,,,,,,,,,,,1,0,1,0,129,0,129,0,,,,,,,129,,,0.2,1725.8603195828618,Y,d,go,None,0,,,,,,,,,,,,,,,,,,45,001, 20,w,Psychologie,2023-01-18_13h30.28.497,00_bat_bachelor,2022.2.4,59.96357121786363,
,,,,,,,,,,,,1,0,1,0,130,0,130,0,,,,,,,130,,,0.2,1726.861057037022,X,l,go,None,0,,,,,,,,,,,,,,,,,,45,001, 20,w,Psychologie,2023-01-18_13h30.28.497,00_bat_bachelor,2022.2.4,59.96357121786363,
,,,,,,,,,,,,1,0,1,0,131,0,131,0,,,,,,,131,,,0.2,1727.8618885518517,Y,d,go,d,1,0.3707121325423941,,,,,,,,,,,,,,,,,45,001, 20,w,Psychologie,2023-01-18_13h30.28.497,00_bat_bachelor,2022.2.4,59.96357121786363,
,,,,,,,,,,,,1,0,1,0,132,0,132,0,,,,,,,132,,,0.2,1728.5453505234327,X,l,go,l,1,0.45529972796794027,,,,,,,,,,,,,,,,,45,001, 20,w,Psychologie,2023-01-18_13h30.28.497,00_bat_bachelor,2022.2.4,59.96357121786363,
,,,,,,,,,,,,1,0,1,0,133,0,133,0,,,,,,,133,,,0.2,1729.312992817955,Y,d,go,d,1,0.31185640348121524,,,,,,,,,,,,,,,,,45,001, 20,w,Psychologie,2023-01-18_13h30.28.497,00_bat_bachelor,2022.2.4,59.96357121786363,
,,,,,,,,,,,,1,0,1,0,134,0,134,0,,,,,,,134,,,0.2,1729.930026215734,X,l,go,l,1,0.3032338621560484,,,,,,,,,,,,,,,,,45,001, 20,w,Psychologie,2023-01-18_13h30.28.497,00_bat_bachelor,2022.2.4,59.96357121786363,
,,,,,,,,,,,,1,0,1,0,135,0,135,0,,,,,,,135,,,0.2,1730.5472511285916,Y,d,go,d,1,0.32523433631286025,,,,,,,,,,,,,,,,,45,001, 20,w,Psychologie,2023-01-18_13h30.28.497,00_bat_bachelor,2022.2.4,59.96357121786363,
,,,,,,,,,,,,1,0,1,0,136,0,136,0,,,,,,,136,,,0.2,1731.1807058517588,X,l,go,l,1,0.31550731079187244,,,,,,,,,,,,,,,,,45,001, 20,w,Psychologie,2023-01-18_13h30.28.497,00_bat_bachelor,2022.2.4,59.96357121786363,
,,,,,,,,,,,,1,0,1,0,137,0,137,0,,,,,,,137,,,0.2,1731.7981009463547,Y,d,go,d,1,0.35512426134664565,,,,,,,,,,,,,,,,,45,001, 20,w,Psychologie,2023-01-18_13h30.28.497,00_bat_bachelor,2022.2.4,59.96357121786363,
,,,,,,,,,,,,1,0,1,0,138,0,138,0,,,,,,,138,,,0.2,1732.465313228895,X,l,go,l,1,0.5517045296728611,,,,,,,,,,,,,,,,,45,001, 20,w,Psychologie,2023-01-18_13h30.28.497,00_bat_bachelor,2022.2.4,59.96357121786363,
,,,,,,,,,,,,1,0,1,0,139,0,139,0,,,,,,,139,,,0.2,1733.332649535616,Y,d,go,d,1,0.3564425635850057,,,,,,,,,,,,,,,,,45,001, 20,w,Psychologie,2023-01-18_13h30.28.497,00_bat_bachelor,2022.2.4,59.96357121786363,
,,,,,,,,,,,,1,0,1,0,140,0,140,0,,,,,,,140,,,0.2,1734.0001158787636,Y,None,nogo,l,0,0.5535934984218329,,,,,,,,,,,,,,,,,45,001, 20,w,Psychologie,2023-01-18_13h30.28.497,00_bat_bachelor,2022.2.4,59.96357121786363,
,,,,,,,,,,,,1,0,1,0,141,0,141,0,,,,,,,141,,,0.2,1734.867347458261,Y,None,nogo,None,1,,1735.667930827709,,,,,,,,,,,,,,,,45,001, 20,w,Psychologie,2023-01-18_13h30.28.497,00_bat_bachelor,2022.2.4,59.96357121786363,
,,,,,,,,,,,,1,0,1,0,142,0,142,0,,,,,,,142,,,0.2,1735.8682662456995,X,l,go,l,1,0.22027487214654684,,,,,,,,,,,,,,,,,45,001, 20,w,Psychologie,2023-01-18_13h30.28.497,00_bat_bachelor,2022.2.4,59.96357121786363,
,,,,,,,,,,,,1,0,1,0,143,0,143,0,,,,,,,143,,,0.2,1736.4015416235197,Y,d,go,d,1,0.29530416906345636,,,,,,,,,,,,,,,,,45,001, 20,w,Psychologie,2023-01-18_13h30.28.497,00_bat_bachelor,2022.2.4,59.96357121786363,
,,,,,,,,,,,,1,0,1,0,144,0,144,0,,,,,,,144,,,0.2,1737.0020703020273,X,l,go,l,1,0.6221801318461075,,,,,,,,,,,,,,,,,45,001, 20,w,Psychologie,2023-01-18_13h30.28.497,00_bat_bachelor,2022.2.4,59.96357121786363,
,,,,,,,,,,,,1,0,1,0,145,0,145,0,,,,,,,145,,,0.2,1737.9361900915392,Y,d,go,d,1,0.34402317577041686,,,,,,,,,,,,,,,,,45,001, 20,w,Psychologie,2023-01-18_13h30.28.497,00_bat_bachelor,2022.2.4,59.96357121786363,
,,,,,,,,,,,,1,0,1,0,146,0,146,0,,,,,,,146,,,0.2,1738.5867454124382,X,l,go,l,1,0.5096007924294099,,,,,,,,,,,,,,,,,45,001, 20,w,Psychologie,2023-01-18_13h30.28.497,00_bat_bachelor,2022.2.4,59.96357121786363,
,,,,,,,,,,,,1,0,1,0,147,0,147,0,,,,,,,147,,,0.2,1739.4038271980826,Y,d,go,d,1,0.5572555572725832,,,,,,,,,,,,,,,,,45,001, 20,w,Psychologie,2023-01-18_13h30.28.497,00_bat_bachelor,2022.2.4,59.96357121786363,
,,,,,,,,,,,,1,0,1,0,148,0,148,0,,,,,,,148,,,0.2,1740.2712599897059,X,l,go,l,1,0.3615155308507383,,,,,,,,,,,,,,,,,45,001, 20,w,Psychologie,2023-01-18_13h30.28.497,00_bat_bachelor,2022.2.4,59.96357121786363,
,,,,,,,,,,,,1,0,1,0,149,0,149,0,,,,,,,149,,,0.2,1740.9381265754346,X,None,nogo,None,1,,,,,,,,,,,,,,,,,,45,001, 20,w,Psychologie,2023-01-18_13h30.28.497,00_bat_bachelor,2022.2.4,59.96357121786363,
,,,,,,,,,,,,1,0,1,0,150,0,150,0,,,,,,,150,,,0.2,1741.939115665853,Y,d,go,d,1,0.3893589113140479,,,,,,,,,,,,,,,,,45,001, 20,w,Psychologie,2023-01-18_13h30.28.497,00_bat_bachelor,2022.2.4,59.96357121786363,
,,,,,,,,,,,,1,0,1,0,151,0,151,0,,,,,,,151,,,0.2,1742.6397184777306,X,l,go,l,1,0.3612129857065156,,,,,,,,,,,,,,,,,45,001, 20,w,Psychologie,2023-01-18_13h30.28.497,00_bat_bachelor,2022.2.4,59.96357121786363,
,,,,,,,,,,,,1,0,1,0,152,0,152,0,,,,,,,152,,,0.2,1743.3066602149047,X,None,nogo,None,1,,,,,,,,,,,,,,,,,,45,001, 20,w,Psychologie,2023-01-18_13h30.28.497,00_bat_bachelor,2022.2.4,59.96357121786363,
,,,,,,,,,,,,1,0,1,0,153,0,153,0,,,,,,,153,,,0.2,1744.3076638508355,Y,d,go,d,1,0.10083056637085974,,,,,,,,,,,,,,,,,45,001, 20,w,Psychologie,2023-01-18_13h30.28.497,00_bat_bachelor,2022.2.4,59.96357121786363,
,,,,,,,,,,,,1,0,1,0,154,0,154,0,,,,,,,154,,,0.2,1744.7245785577688,X,l,go,l,1,0.4042437525931746,,,,,,,,,,,,,,,,,45,001, 20,w,Psychologie,2023-01-18_13h30.28.497,00_bat_bachelor,2022.2.4,59.96357121786363,
,,,,,,,,,,,,1,0,1,0,155,0,155,0,,,,,,,155,,,0.2,1745.441813119105,Y,d,go,d,1,0.45545924291945994,,,,,,,,,,,,,,,,,45,001, 20,w,Psychologie,2023-01-18_13h30.28.497,00_bat_bachelor,2022.2.4,59.96357121786363,
,,,,,,,,,,,,1,0,1,0,156,0,156,0,,,,,,,156,,,0.2,1746.2092425652081,Y,None,nogo,None,1,,,,,,,,,,,,,,,,,,45,001, 20,w,Psychologie,2023-01-18_13h30.28.497,00_bat_bachelor,2022.2.4,59.96357121786363,
,,,,,,,,,,,,1,0,1,0,157,0,157,0,,,,,,,157,,,0.2,1747.2098137164721,X,l,go,l,1,0.33510099817067385,,,,,,,,,,,,,,,,,45,001, 20,w,Psychologie,2023-01-18_13h30.28.497,00_bat_bachelor,2022.2.4,59.96357121786363,
,,,,,,,,,,,,1,0,1,0,158,0,158,0,,,,,,,158,,,0.2,1747.8604621283012,Y,d,go,d,1,0.4365622823825106,,,,,,,,,,,,,,,,,45,001, 20,w,Psychologie,2023-01-18_13h30.28.497,00_bat_bachelor,2022.2.4,59.96357121786363,
,,,,,,,,,,,,1,0,1,0,159,0,159,0,,,,,,,159,,,0.2,1748.6106460070005,X,l,go,l,1,0.3262374873738736,,,,,,,,,,,,,,,,,45,001, 20,w,Psychologie,2023-01-18_13h30.28.497,00_bat_bachelor,2022.2.4,59.96357121786363,
,,,,,,,,,,,,1,0,1,0,160,0,160,0,,,,,,,160,,,0.2,1749.244831881253,Y,d,go,d,1,0.3005419847322628,,,,,,,,,,,,,,,,,45,001, 20,w,Psychologie,2023-01-18_13h30.28.497,00_bat_bachelor,2022.2.4,59.96357121786363,
,,,,,,,,,,,,1,0,1,0,161,0,161,0,,,,,,,161,,,0.2,1749.8619331577793,Y,None,nogo,l,0,0.32286730722989887,,,,,,,,,,,,,,,,,45,001, 20,w,Psychologie,2023-01-18_13h30.28.497,00_bat_bachelor,2022.2.4,59.96357121786363,
,,,,,,,,,,,,1,0,1,0,162,0,162,0,,,,,,,162,,,0.2,1750.4957369717304,X,l,go,l,1,0.3929613338550553,,,,,,,,,,,,,,,,,45,001, 20,w,Psychologie,2023-01-18_13h30.28.497,00_bat_bachelor,2022.2.4,59.96357121786363,
,,,,,,,,,,,,1,0,1,0,163,0,163,0,,,,,,,163,,,0.2,1751.1962360260077,Y,d,go,d,1,0.22060553857591003,,,,,,,,,,,,,,,,,45,001, 20,w,Psychologie,2023-01-18_13h30.28.497,00_bat_bachelor,2022.2.4,59.96357121786363,
,,,,,,,,,,,,1,0,1,0,164,0,164,0,,,,,,,164,,,0.2,1751.7300796459895,X,l,go,l,1,0.4545016676420346,,,,,,,,,,,,,,,,,45,001, 20,w,Psychologie,2023-01-18_13h30.28.497,00_bat_bachelor,2022.2.4,59.96357121786363,
,,,,,,,,,,,,1,0,1,0,165,0,165,0,,,,,,,165,,,0.2,1752.496961213532,X,None,nogo,None,1,,,,,,,,,,,,,,,,,,45,001, 20,w,Psychologie,2023-01-18_13h30.28.497,00_bat_bachelor,2022.2.4,59.96357121786363,
,,,,,,,,,,,,1,0,1,0,166,0,166,0,,,,,,,166,,,0.2,1753.4979575767647,Y,d,go,d,1,0.38352812628727406,,,,,,,,,,,,,,,,,45,001, 20,w,Psychologie,2023-01-18_13h30.28.497,00_bat_bachelor,2022.2.4,59.96357121786363,
,,,,,,,,,,,,1,0,1,0,167,0,167,0,,,,,,,167,,,0.2,1754.1816818512743,X,l,go,l,1,0.37141564732883126,,,,,,,,,,,,,,,,,45,001, 20,w,Psychologie,2023-01-18_13h30.28.497,00_bat_bachelor,2022.2.4,59.96357121786363,
,,,,,,,,,,,,1,0,1,0,168,0,168,0,,,,,,,168,,,0.2,1754.865809034789,Y,d,go,d,1,0.3586941988905892,,,,,,,,,,,,,,,,,45,001, 20,w,Psychologie,2023-01-18_13h30.28.497,00_bat_bachelor,2022.2.4,59.96357121786363,
,,,,,,,,,,,,1,0,1,0,169,0,169,0,,,,,,,169,,,0.2,1755.5327202265617,X,l,go,l,1,0.46024857403244823,,,,,,,,,,,,,,,,,45,001, 20,w,Psychologie,2023-01-18_13h30.28.497,00_bat_bachelor,2022.2.4,59.96357121786363,
,,,,,,,,,,,,1,0,1,0,170,0,170,0,,,,,,,170,,,0.2,1756.300254884758,X,None,nogo,None,1,,,,,,,,,,,,,,,,,,45,001, 20,w,Psychologie,2023-01-18_13h30.28.497,00_bat_bachelor,2022.2.4,59.96357121786363,
,,,,,,,,,,,,1,0,1,0,171,0,171,0,,,,,,,171,,,0.2,1757.3010068843141,Y,d,go,d,1,0.2593114592600614,,,,,,,,,,,,,,,,,45,001, 20,w,Psychologie,2023-01-18_13h30.28.497,00_bat_bachelor,2022.2.4,59.96357121786363,
,,,,,,,,,,,,1,0,1,0,172,0,172,0,,,,,,,172,,,0.2,1757.86797194276,X,l,go,l,1,0.4127344151493162,,,,,,,,,,,,,,,,,45,001, 20,w,Psychologie,2023-01-18_13h30.28.497,00_bat_bachelor,2022.2.4,59.96357121786363,
,,,,,,,,,,,,1,0,1,0,173,0,173,0,,,,,,,173,,,0.2,1758.5851265041856,Y,d,go,d,1,0.38360958080738783,,,,,,,,,,,,,,,,,45,001, 20,w,Psychologie,2023-01-18_13h30.28.497,00_bat_bachelor,2022.2.4,59.96357121786363,
,,,,,,,,,,,,1,0,1,0,174,0,174,0,,,,,,,174,,,0.2,1759.2691722330637,X,l,go,l,1,0.41939089680090547,,,,,,,,,,,,,,,,,45,001, 20,w,Psychologie,2023-01-18_13h30.28.497,00_bat_bachelor,2022.2.4,59.96357121786363,
,,,,,,,,,,,,1,0,1,0,175,0,175,0,,,,,,,175,,,0.2,1760.0030390288448,X,None,nogo,None,1,,,,,,,,,,,,,,,,,,45,001, 20,w,Psychologie,2023-01-18_13h30.28.497,00_bat_bachelor,2022.2.4,59.96357121786363,
,,,,,,,,,,,,1,0,1,0,176,0,176,0,,,,,,,176,,,0.2,1761.0034293317003,Y,d,go,d,1,0.19014058378525078,,,,,,,,,,,,,,,,,45,001, 20,w,Psychologie,2023-01-18_13h30.28.497,00_bat_bachelor,2022.2.4,59.96357121786363,
,,,,,,,,,,,,1,0,1,0,177,0,177,0,,,,,,,177,,,0.2,1761.503849937464,X,l,go,l,1,0.36067141022067517,,,,,,,,,,,,,,,,,45,001, 20,w,Psychologie,2023-01-18_13h30.28.497,00_bat_bachelor,2022.2.4,59.96357121786363,
,,,,,,,,,,,,1,0,1,0,178,0,178,0,,,,,,,178,,,0.2,1762.1713012502296,Y,d,go,d,1,0.33410948351956904,,,,,,,,,,,,,,,,,45,001, 20,w,Psychologie,2023-01-18_13h30.28.497,00_bat_bachelor,2022.2.4,59.96357121786363,
,,,,,,,,,,,,1,0,1,0,179,0,179,0,,,,,,,179,,,0.2,1762.8218662681757,Y,None,nogo,None,1,,,,,,,,,,,,,,,,,,45,001, 20,w,Psychologie,2023-01-18_13h30.28.497,00_bat_bachelor,2022.2.4,59.96357121786363,
,,,,,,,,,,,,1,0,1,0,180,0,180,0,,,,,,,180,,,0.2,1763.8225819042418,X,l,go,l,1,0.2025119715835899,,,,,,,,,,,,,,,,,45,001, 20,w,Psychologie,2023-01-18_13h30.28.497,00_bat_bachelor,2022.2.4,59.96357121786363,
,,,,,,,,,,,,1,0,1,0,181,0,181,0,,,,,,,181,,,0.2,1764.3392851687968,Y,d,go,d,1,0.2935470789670944,,,,,,,,,,,,,,,,,45,001, 20,w,Psychologie,2023-01-18_13h30.28.497,00_bat_bachelor,2022.2.4,59.96357121786363,
,,,,,,,,,,,,1,0,1,0,182,0,182,0,,,,,,,182,,,0.2,1764.9400727562606,X,l,go,l,1,0.4930049217073247,,,,,,,,,,,,,,,,,45,001, 20,w,Psychologie,2023-01-18_13h30.28.497,00_bat_bachelor,2022.2.4,59.96357121786363,
,,,,,,,,,,,,1,0,1,0,183,0,183,0,,,,,,,183,,,0.2,1765.7407787923003,X,None,nogo,None,1,,,,,,,,,,,,,,,,,,45,001, 20,w,Psychologie,2023-01-18_13h30.28.497,00_bat_bachelor,2022.2.4,59.96357121786363,
,,,,,,,,,,,,1,0,1,0,184,0,184,0,,,,,,,184,,,0.2,1766.741243276978,Y,d,go,d,1,0.0674628249835223,,,,,,,,,,,,,,,,,45,001, 20,w,Psychologie,2023-01-18_13h30.28.497,00_bat_bachelor,2022.2.4,59.96357121786363,
,,,,,,,,,,,,1,0,1,0,185,0,185,0,,,,,,,185,,,0.2,1767.1247999394545,X,l,go,l,1,0.35554607934318483,,,,,,,,,,,,,,,,,45,001, 20,w,Psychologie,2023-01-18_13h30.28.497,00_bat_bachelor,2022.2.4,59.96357121786363,
,,,,,,,,,,,,1,0,1,0,186,0,186,0,,,,,,,186,,,0.2,1767.792315736995,X,None,nogo,None,1,,1768.5927803186933,,,,,,,,,,,,,,,,45,001, 20,w,Psychologie,2023-01-18_13h30.28.497,00_bat_bachelor,2022.2.4,59.96357121786363,
,,,,,,,,,,,,1,0,1,0,187,0,187,0,,,,,,,187,,,0.2,1768.7928219186142,X,None,nogo,d,0,0.11190062167588621,,,,,,,,,,,,,,,,,45,001, 20,w,Psychologie,2023-01-18_13h30.28.497,00_bat_bachelor,2022.2.4,59.96357121786363,
,,,,,,,,,,,,1,0,1,0,188,0,188,0,,,,,,,188,,,0.2,1769.2103455950273,Y,d,go,None,0,,,,,,,,,,,,,,,,,,45,001, 20,w,Psychologie,2023-01-18_13h30.28.497,00_bat_bachelor,2022.2.4,59.96357121786363,
,,,,,,,,,,,,1,0,1,0,189,0,189,0,,,,,,,189,,,0.2,1770.211196503602,X,l,go,l,1,0.4220827743411064,,,,,,,,,,,,,,,,,45,001, 20,w,Psychologie,2023-01-18_13h30.28.497,00_bat_bachelor,2022.2.4,59.96357121786363,
,,,,,,,,,,,,1,0,1,0,190,0,190,0,,,,,,,190,,,0.2,1770.961026927922,Y,d,go,None,0,,,,,,,,,,,,,,,,,,45,001, 20,w,Psychologie,2023-01-18_13h30.28.497,00_bat_bachelor,2022.2.4,59.96357121786363,
,,,,,,,,,,,,1,0,1,0,191,0,191,0,,,,,,,191,,,0.2,1771.9621590486495,Y,None,nogo,None,1,,,,,,,,,,,,,,,,,,45,001, 20,w,Psychologie,2023-01-18_13h30.28.497,00_bat_bachelor,2022.2.4,59.96357121786363,
,,,,,,,,,,,,1,0,1,0,192,0,192,0,,,,,,,192,,,0.2,1772.9629168664105,X,l,go,l,1,0.2784115712856874,,,,,,,,,,,,,,,,,45,001, 20,w,Psychologie,2023-01-18_13h30.28.497,00_bat_bachelor,2022.2.4,59.96357121786363,
,,,,,,,,,,,,1,0,1,0,193,0,193,0,,,,,,,193,,,0.2,1773.5465282198275,Y,d,go,d,1,0.35005371819715947,,,,,,,,,,,,,,,,,45,001, 20,w,Psychologie,2023-01-18_13h30.28.497,00_bat_bachelor,2022.2.4,59.96357121786363,
,,,,,,,,,,,,1,0,1,0,194,0,194,0,,,,,,,194,,,0.2,1774.1967795409728,X,l,go,l,1,0.40350435907021165,,,,,,,,,,,,,,,,,45,001, 20,w,Psychologie,2023-01-18_13h30.28.497,00_bat_bachelor,2022.2.4,59.96357121786363,
,,,,,,,,,,,,1,0,1,0,195,0,195,0,,,,,,,195,,,0.2,1774.9140407689847,X,None,nogo,None,1,,,,,,,,,,,,,,,,,,45,001, 20,w,Psychologie,2023-01-18_13h30.28.497,00_bat_bachelor,2022.2.4,59.96357121786363,
,,,,,,,,,,,,1,0,1,0,196,0,196,0,,,,,,,196,,,0.2,1775.9151850107592,Y,d,go,d,1,0.20547681860625744,,,,,,,,,,,,,,,,,45,001, 20,w,Psychologie,2023-01-18_13h30.28.497,00_bat_bachelor,2022.2.4,59.96357121786363,
,,,,,,,,,,,,1,0,1,0,197,0,197,0,,,,,,,197,,,0.2,1776.4321350632235,X,l,go,l,1,0.40919259877409786,,,,,,,,,,,,,,,,,45,001, 20,w,Psychologie,2023-01-18_13h30.28.497,00_bat_bachelor,2022.2.4,59.96357121786363,
,,,,,,,,,,,,1,0,1,0,198,0,198,0,,,,,,,198,,,0.2,1777.1494360486977,X,None,nogo,None,1,,,,,,,,,,,,,,,,,,45,001, 20,w,Psychologie,2023-01-18_13h30.28.497,00_bat_bachelor,2022.2.4,59.96357121786363,
,,,,,,,,,,,,1,0,1,0,199,0,199,0,,,,,,,199,,,0.2,1778.1502408968518,Y,d,go,d,1,0.370201587327756,,,,,,,,,,,,,,,,,45,001, 20,w,Psychologie,2023-01-18_13h30.28.497,00_bat_bachelor,2022.2.4,59.96357121786363,
