loop_instruction.thisRepN,loop_instruction.thisTrialN,loop_instruction.thisN,loop_instruction.thisIndex,loop_rsi_practice.thisRepN,loop_rsi_practice.thisTrialN,loop_rsi_practice.thisN,loop_rsi_practice.thisIndex,loop_practice.thisRepN,loop_practice.thisTrialN,loop_practice.thisN,loop_practice.thisIndex,loop_exp.thisRepN,loop_exp.thisTrialN,loop_exp.thisN,loop_exp.thisIndex,loop_trials.thisRepN,loop_trials.thisTrialN,loop_trials.thisN,loop_trials.thisIndex,map_condition,map_x_key,map_y_key,key_resp_welcome.started,key_resp_welcome.keys,key_resp_welcome.rt,index,text_empty_rsi_practice.started,text_empty_rsi_practice.stopped,rsi,stimulus.started,stimulus,correct,trial_type,key_resp_trial.keys,key_resp_trial.corr,key_resp_trial.rt,stimulus.stopped,key_resp_instruction_rsi.started,key_resp_instruction_rsi.keys,key_resp_instruction_rsi.rt,key_resp_instruction_rsi.stopped,key_resp_instruction_final.started,key_resp_instruction_final.keys,key_resp_instruction_final.rt,key_resp_break.started,key_resp_break.keys,key_resp_break.rt,key_resp_break.stopped,key_resp_end_screen.started,image_end_screen.started,key_resp_end_screen.stopped,image_end_screen.stopped,key_resp_end_screen.keys,participant,session,Alter,Geschlecht (w/m/d/andere),Studiengang,date,expName,psychopyVersion,frameRate,
,,,,0,0,0,0,0,0,0,0,,,,,,,,,1,l,d,592.1243844245328,j,16.18181295733666,0,608.3373642000661,609.3521394656273,1,609.3521394656273,X,l,go,l,1,0.4855306282406673,,,,,,,,,,,,,,,,,,47,001,20,w,Psychologie,2023-01-19_09h04.49.537,00_bat_bachelor,2022.2.4,60.025348876884635,
,,,,0,0,0,0,1,0,1,0,,,,,,,,,,,,,,,1,610.5529607015778,611.553655489115,1,611.553655489115,Y,d,go,d,1,0.3808766184083652,,,,,,,,,,,,,,,,,,47,001,20,w,Psychologie,2023-01-19_09h04.49.537,00_bat_bachelor,2022.2.4,60.025348876884635,
,,,,0,0,0,0,2,0,2,0,,,,,,,,,,,,,,,2,612.6379109634145,613.6386508418655,1,613.6386508418655,X,l,go,l,1,0.3920213402598165,,,,,,,,,,,,,,,,,,47,001,20,w,Psychologie,2023-01-19_09h04.49.537,00_bat_bachelor,2022.2.4,60.025348876884635,
,,,,0,0,0,0,3,0,3,0,,,,,,,,,,,,,,,3,614.7394381869235,615.7402905501367,1,615.7402905501367,X,None,nogo,None,1,,616.5405073742731,,,,,,,,,,,,,,,,,47,001,20,w,Psychologie,2023-01-19_09h04.49.537,00_bat_bachelor,2022.2.4,60.025348876884635,
,,,,0,0,0,0,4,0,4,0,,,,,,,,,,,,,,,4,617.1412319315132,618.1420382341603,1,618.1420382341603,Y,d,go,d,1,0.28808005730388686,,,,,,,,,,,,,,,,,,47,001,20,w,Psychologie,2023-01-19_09h04.49.537,00_bat_bachelor,2022.2.4,60.025348876884635,
,,,,0,0,0,0,5,0,5,0,,,,,,,,,,,,,,,5,619.1427485368331,620.1436600515444,1,620.1436600515444,X,l,go,l,1,0.3020305960380938,,,,,,,,,,,,,,,,,,47,001,20,w,Psychologie,2023-01-19_09h04.49.537,00_bat_bachelor,2022.2.4,60.025348876884635,
,,,,0,0,0,0,6,0,6,0,,,,,,,,,,,,,,,6,621.1617259821796,622.163885011425,1,622.163885011425,Y,d,go,d,1,0.23444032575935125,,,,,,,,,,,,,,,,,,47,001,20,w,Psychologie,2023-01-19_09h04.49.537,00_bat_bachelor,2022.2.4,60.025348876884635,
,,,,0,0,0,0,7,0,7,0,,,,,,,,,,,,,,,7,623.1298952097422,624.1306641790725,1,624.1306641790725,Y,None,nogo,None,1,,624.9313105787442,,,,,,,,,,,,,,,,,47,001,20,w,Psychologie,2023-01-19_09h04.49.537,00_bat_bachelor,2022.2.4,60.025348876884635,
,,,,0,0,0,0,8,0,8,0,,,,,,,,,,,,,,,8,625.5317379240005,626.5325747720781,1,626.5325747720781,X,l,go,l,1,0.2646167959901504,,,,,,,,,,,,,,,,,,47,001,20,w,Psychologie,2023-01-19_09h04.49.537,00_bat_bachelor,2022.2.4,60.025348876884635,
,,,,0,0,0,0,9,0,9,0,,,,,,,,,,,,,,,9,627.5164855677576,628.5173670218792,1,628.5173670218792,Y,d,go,d,1,0.32747494732029736,,,,,,,,,,,,,,,,,,47,001,20,w,Psychologie,2023-01-19_09h04.49.537,00_bat_bachelor,2022.2.4,60.025348876884635,
,,,,0,0,0,0,10,0,10,0,,,,,,,,,,,,,,,10,629.5681573002657,630.5690266331949,1,630.5690266331949,Y,None,nogo,None,1,,631.3695513359562,,,,,,,,,,,,,,,,,47,001,20,w,Psychologie,2023-01-19_09h04.49.537,00_bat_bachelor,2022.2.4,60.025348876884635,
,,,,0,0,0,0,11,0,11,0,,,,,,,,,,,,,,,11,631.9698186812748,632.9708344383689,1,632.9708344383689,X,l,go,l,1,0.3714274108351674,,,,,,,,,,,,,,,,,,47,001,20,w,Psychologie,2023-01-19_09h04.49.537,00_bat_bachelor,2022.2.4,60.025348876884635,
,,,,0,0,0,0,12,0,12,0,,,,,,,,,,,,,,,12,634.0715723289177,635.072315116442,1,635.072315116442,Y,d,go,d,1,0.26913946043350734,,,,,,,,,,,,,,,,,,47,001,20,w,Psychologie,2023-01-19_09h04.49.537,00_bat_bachelor,2022.2.4,60.025348876884635,
,,,,0,0,0,0,13,0,13,0,,,,,,,,,,,,,,,13,636.0730385100178,637.0738676005276,1,637.0738676005276,Y,None,nogo,None,1,,637.8741275761568,,,,,,,,,,,,,,,,,47,001,20,w,Psychologie,2023-01-19_09h04.49.537,00_bat_bachelor,2022.2.4,60.025348876884635,
,,,,0,0,0,0,14,0,14,0,,,,,,,,,,,,,,,14,638.4748579515726,639.4754809815786,1,639.4754809815786,X,l,go,l,1,0.25077098450856283,,,,,,,,,,,,,,,,,,47,001,20,w,Psychologie,2023-01-19_09h04.49.537,00_bat_bachelor,2022.2.4,60.025348876884635,
,,,,1,0,1,0,0,0,0,0,,,,,,,,,,,,,,,0,653.6691371301131,653.8692727906455,0.2,653.8692727906455,X,l,go,l,1,0.6088226897118147,,640.4572943237145,j,13.193100224569207,,,,,,,,,,,,,,47,001,20,w,Psychologie,2023-01-19_09h04.49.537,00_bat_bachelor,2022.2.4,60.025348876884635,
,,,,1,0,1,0,1,0,1,0,,,,,,,,,,,,,,,1,655.1869240305678,655.3873549636919,0.2,655.3873549636919,Y,d,go,d,1,0.3229382222343702,,,,,,,,,,,,,,,,,,47,001,20,w,Psychologie,2023-01-19_09h04.49.537,00_bat_bachelor,2022.2.4,60.025348876884635,
,,,,1,0,1,0,2,0,2,0,,,,,,,,,,,,,,,2,656.4213210078306,656.621549274394,0.2,656.621549274394,X,l,go,l,1,0.3039966556534637,,,,,,,,,,,,,,,,,,47,001,20,w,Psychologie,2023-01-19_09h04.49.537,00_bat_bachelor,2022.2.4,60.025348876884635,
,,,,1,0,1,0,3,0,3,0,,,,,,,,,,,,,,,3,657.6387933872466,657.8392025021894,0.2,657.8392025021894,Y,d,go,d,1,0.302985262213042,,,,,,,,,,,,,,,,,,47,001,20,w,Psychologie,2023-01-19_09h04.49.537,00_bat_bachelor,2022.2.4,60.025348876884635,
,,,,1,0,1,0,4,0,4,0,,,,,,,,,,,,,,,4,658.8563758271921,659.0568353663839,0.2,659.0568353663839,X,l,go,l,1,0.2527103775064461,,,,,,,,,,,,,,,,,,47,001,20,w,Psychologie,2023-01-19_09h04.49.537,00_bat_bachelor,2022.2.4,60.025348876884635,
,,,,1,0,1,0,5,0,5,0,,,,,,,,,,,,,,,5,660.0239515035355,660.224272376101,0.2,660.224272376101,Y,d,go,d,1,0.26947061181999743,,,,,,,,,,,,,,,,,,47,001,20,w,Psychologie,2023-01-19_09h04.49.537,00_bat_bachelor,2022.2.4,60.025348876884635,
,,,,1,0,1,0,6,0,6,0,,,,,,,,,,,,,,,6,661.2084949291893,661.408643195784,0.2,661.408643195784,Y,None,nogo,l,0,0.2695370360161178,,,,,,,,,,,,,,,,,,47,001,20,w,Psychologie,2023-01-19_09h04.49.537,00_bat_bachelor,2022.2.4,60.025348876884635,
,,,,1,0,1,0,7,0,7,0,,,,,,,,,,,,,,,7,662.8091889409989,663.0095422983868,0.2,663.0095422983868,X,l,go,l,1,0.47663269317126833,,,,,,,,,,,,,,,,,,47,001,20,w,Psychologie,2023-01-19_09h04.49.537,00_bat_bachelor,2022.2.4,60.025348876884635,
,,,,1,0,1,0,8,0,8,0,,,,,,,,,,,,,,,8,664.1938054817729,664.3938548393198,0.2,664.3938548393198,Y,d,go,d,1,0.27696491120150313,,,,,,,,,,,,,,,,,,47,001,20,w,Psychologie,2023-01-19_09h04.49.537,00_bat_bachelor,2022.2.4,60.025348876884635,
,,,,1,0,1,0,9,0,9,0,,,,,,,,,,,,,,,9,665.3780216348823,665.5783706286456,0.2,665.5783706286456,X,l,go,l,1,0.3243724033527542,,,,,,,,,,,,,,,,,,47,001,20,w,Psychologie,2023-01-19_09h04.49.537,00_bat_bachelor,2022.2.4,60.025348876884635,
,,,,1,0,1,0,10,0,10,0,,,,,,,,,,,,,,,10,666.6122566728445,666.8122347577009,0.2,666.8122347577009,Y,d,go,d,1,0.30673750283312984,,,,,,,,,,,,,,,,,,47,001,20,w,Psychologie,2023-01-19_09h04.49.537,00_bat_bachelor,2022.2.4,60.025348876884635,
,,,,1,0,1,0,11,0,11,0,,,,,,,,,,,,,,,11,667.8301659005228,668.0303451973887,0.2,668.0303451973887,X,l,go,l,1,0.2551835884223692,,,,,,,,,,,,,,,,,,47,001,20,w,Psychologie,2023-01-19_09h04.49.537,00_bat_bachelor,2022.2.4,60.025348876884635,
,,,,1,0,1,0,12,0,12,0,,,,,,,,,,,,,,,12,668.9976063041831,669.1978980858694,0.2,669.1978980858694,Y,d,go,d,1,0.2723695194872562,,,,,,,,,,,,,,,,,,47,001,20,w,Psychologie,2023-01-19_09h04.49.537,00_bat_bachelor,2022.2.4,60.025348876884635,
,,,,1,0,1,0,13,0,13,0,,,,,,,,,,,,,,,13,670.1818103360711,670.3820943601895,0.2,670.3820943601895,X,l,go,l,1,0.25606649709516205,,,,,,,,,,,,,,,,,,47,001,20,w,Psychologie,2023-01-19_09h04.49.537,00_bat_bachelor,2022.2.4,60.025348876884635,
,,,,1,0,1,0,14,0,14,0,,,,,,,,,,,,,,,14,671.3494800729677,671.5495575517125,0.2,671.5495575517125,Y,d,go,d,1,0.25646213328582235,,,,,,,,,,,,,,,,,,47,001,20,w,Psychologie,2023-01-19_09h04.49.537,00_bat_bachelor,2022.2.4,60.025348876884635,
,,,,,,,,,,,,,,,,,,,,,,,,,,,,,,,,,,,,,,672.5660103922128,None,,672.5660103922128,672.5660103922128,space,4.027195335336728,,,,,,,,,,47,001,20,w,Psychologie,2023-01-19_09h04.49.537,00_bat_bachelor,2022.2.4,60.025348876884635,
,,,,,,,,,,,,0,0,0,0,0,0,0,0,,,,,,,0,,,1,677.6208326686756,X,l,go,l,1,0.1838148957467638,,,,,,,,,,,,,,,,,,47,001,20,w,Psychologie,2023-01-19_09h04.49.537,00_bat_bachelor,2022.2.4,60.025348876884635,
,,,,,,,,,,,,0,0,0,0,1,0,1,0,,,,,,,1,,,1,678.9219253711635,Y,d,go,d,1,0.2753833362075966,,,,,,,,,,,,,,,,,,47,001,20,w,Psychologie,2023-01-19_09h04.49.537,00_bat_bachelor,2022.2.4,60.025348876884635,
,,,,,,,,,,,,0,0,0,0,2,0,2,0,,,,,,,2,,,1,680.3225118436094,X,l,go,l,1,0.21866287884768099,,,,,,,,,,,,,,,,,,47,001,20,w,Psychologie,2023-01-19_09h04.49.537,00_bat_bachelor,2022.2.4,60.025348876884635,
,,,,,,,,,,,,0,0,0,0,3,0,3,0,,,,,,,3,,,1,681.6568593178818,Y,d,go,d,1,0.1981266463699285,,,,,,,,,,,,,,,,,,47,001,20,w,Psychologie,2023-01-19_09h04.49.537,00_bat_bachelor,2022.2.4,60.025348876884635,
,,,,,,,,,,,,0,0,0,0,4,0,4,0,,,,,,,4,,,1,682.9577609901608,X,l,go,l,1,0.19240931584499776,,,,,,,,,,,,,,,,,,47,001,20,w,Psychologie,2023-01-19_09h04.49.537,00_bat_bachelor,2022.2.4,60.025348876884635,
,,,,,,,,,,,,0,0,0,0,5,0,5,0,,,,,,,5,,,1,684.2589797532128,X,None,nogo,d,0,0.21843984865699895,,,,,,,,,,,,,,,,,,47,001,20,w,Psychologie,2023-01-19_09h04.49.537,00_bat_bachelor,2022.2.4,60.025348876884635,
,,,,,,,,,,,,0,0,0,0,6,0,6,0,,,,,,,6,,,1,685.5934009244083,Y,d,go,d,1,0.2919855100044515,,,,,,,,,,,,,,,,,,47,001,20,w,Psychologie,2023-01-19_09h04.49.537,00_bat_bachelor,2022.2.4,60.025348876884635,
,,,,,,,,,,,,0,0,0,0,7,0,7,0,,,,,,,7,,,1,686.9945158814371,X,l,go,l,1,0.29922429434373043,,,,,,,,,,,,,,,,,,47,001,20,w,Psychologie,2023-01-19_09h04.49.537,00_bat_bachelor,2022.2.4,60.025348876884635,
,,,,,,,,,,,,0,0,0,0,8,0,8,0,,,,,,,8,,,1,688.395478596125,Y,d,go,l,0,0.30629386665532365,,,,,,,,,,,,,,,,,,47,001,20,w,Psychologie,2023-01-19_09h04.49.537,00_bat_bachelor,2022.2.4,60.025348876884635,
,,,,,,,,,,,,0,0,0,0,9,0,9,0,,,,,,,9,,,1,689.8132548784197,Y,None,nogo,d,0,0.4097570892481599,,,,,,,,,,,,,,,,,,47,001,20,w,Psychologie,2023-01-19_09h04.49.537,00_bat_bachelor,2022.2.4,60.025348876884635,
,,,,,,,,,,,,0,0,0,0,10,0,10,0,,,,,,,10,,,1,691.3309040819877,X,l,go,l,1,0.3640373538364656,,,,,,,,,,,,,,,,,,47,001,20,w,Psychologie,2023-01-19_09h04.49.537,00_bat_bachelor,2022.2.4,60.025348876884635,
,,,,,,,,,,,,0,0,0,0,11,0,11,0,,,,,,,11,,,1,692.7989174308022,Y,d,go,d,1,0.2709532777662389,,,,,,,,,,,,,,,,,,47,001,20,w,Psychologie,2023-01-19_09h04.49.537,00_bat_bachelor,2022.2.4,60.025348876884635,
,,,,,,,,,,,,0,0,0,0,12,0,12,0,,,,,,,12,,,1,694.183321608085,X,l,go,l,1,0.2634832207695581,,,,,,,,,,,,,,,,,,47,001,20,w,Psychologie,2023-01-19_09h04.49.537,00_bat_bachelor,2022.2.4,60.025348876884635,
,,,,,,,,,,,,0,0,0,0,13,0,13,0,,,,,,,13,,,1,695.5510237328126,X,None,nogo,None,1,,,,,,,,,,,,,,,,,,,47,001,20,w,Psychologie,2023-01-19_09h04.49.537,00_bat_bachelor,2022.2.4,60.025348876884635,
,,,,,,,,,,,,0,0,0,0,14,0,14,0,,,,,,,14,,,1,697.3521365565248,Y,d,go,d,1,0.21445100210257806,,,,,,,,,,,,,,,,,,47,001,20,w,Psychologie,2023-01-19_09h04.49.537,00_bat_bachelor,2022.2.4,60.025348876884635,
,,,,,,,,,,,,0,0,0,0,15,0,15,0,,,,,,,15,,,1,698.669843554002,X,l,go,l,1,0.20732955101993866,,,,,,,,,,,,,,,,,,47,001,20,w,Psychologie,2023-01-19_09h04.49.537,00_bat_bachelor,2022.2.4,60.025348876884635,
,,,,,,,,,,,,0,0,0,0,16,0,16,0,,,,,,,16,,,1,699.9875117636111,Y,d,go,d,1,0.2822410298686009,,,,,,,,,,,,,,,,,,47,001,20,w,Psychologie,2023-01-19_09h04.49.537,00_bat_bachelor,2022.2.4,60.025348876884635,
,,,,,,,,,,,,0,0,0,0,17,0,17,0,,,,,,,17,,,1,701.372241758887,X,l,go,l,1,0.22616445098537952,,,,,,,,,,,,,,,,,,47,001,20,w,Psychologie,2023-01-19_09h04.49.537,00_bat_bachelor,2022.2.4,60.025348876884635,
,,,,,,,,,,,,0,0,0,0,18,0,18,0,,,,,,,18,,,1,702.7061509303458,Y,d,go,d,1,0.21889027269207872,,,,,,,,,,,,,,,,,,47,001,20,w,Psychologie,2023-01-19_09h04.49.537,00_bat_bachelor,2022.2.4,60.025348876884635,
,,,,,,,,,,,,0,0,0,0,19,0,19,0,,,,,,,19,,,1,704.0407563438639,X,l,go,l,1,0.30929071371792816,,,,,,,,,,,,,,,,,,47,001,20,w,Psychologie,2023-01-19_09h04.49.537,00_bat_bachelor,2022.2.4,60.025348876884635,
,,,,,,,,,,,,0,0,0,0,20,0,20,0,,,,,,,20,,,1,705.4586853533401,X,None,nogo,None,1,,,,,,,,,,,,,,,,,,,47,001,20,w,Psychologie,2023-01-19_09h04.49.537,00_bat_bachelor,2022.2.4,60.025348876884635,
,,,,,,,,,,,,0,0,0,0,21,0,21,0,,,,,,,21,,,1,707.2597109043563,Y,d,go,d,1,0.21039136772742495,,,,,,,,,,,,,,,,,,47,001,20,w,Psychologie,2023-01-19_09h04.49.537,00_bat_bachelor,2022.2.4,60.025348876884635,
,,,,,,,,,,,,0,0,0,0,22,0,22,0,,,,,,,22,,,1,708.577686022938,X,l,go,l,1,0.18886798422317952,,,,,,,,,,,,,,,,,,47,001,20,w,Psychologie,2023-01-19_09h04.49.537,00_bat_bachelor,2022.2.4,60.025348876884635,
,,,,,,,,,,,,0,0,0,0,23,0,23,0,,,,,,,23,,,1,709.8786502406292,X,None,nogo,d,0,0.3435311819484923,,,,,,,,,,,,,,,,,,47,001,20,w,Psychologie,2023-01-19_09h04.49.537,00_bat_bachelor,2022.2.4,60.025348876884635,
,,,,,,,,,,,,0,0,0,0,24,0,24,0,,,,,,,24,,,1,711.3296812946792,Y,d,go,d,1,0.2674759461078793,,,,,,,,,,,,,,,,,,47,001,20,w,Psychologie,2023-01-19_09h04.49.537,00_bat_bachelor,2022.2.4,60.025348876884635,
,,,,,,,,,,,,0,0,0,0,25,0,25,0,,,,,,,25,,,1,712.7148471685359,X,l,go,l,1,0.27466721535893157,,,,,,,,,,,,,,,,,,47,001,20,w,Psychologie,2023-01-19_09h04.49.537,00_bat_bachelor,2022.2.4,60.025348876884635,
,,,,,,,,,,,,0,0,0,0,26,0,26,0,,,,,,,26,,,1,714.1157381256926,Y,d,go,d,1,0.3290560374734923,,,,,,,,,,,,,,,,,,47,001,20,w,Psychologie,2023-01-19_09h04.49.537,00_bat_bachelor,2022.2.4,60.025348876884635,
,,,,,,,,,,,,0,0,0,0,27,0,27,0,,,,,,,27,,,1,715.5833378989773,X,l,go,l,1,0.23805293007171713,,,,,,,,,,,,,,,,,,47,001,20,w,Psychologie,2023-01-19_09h04.49.537,00_bat_bachelor,2022.2.4,60.025348876884635,
,,,,,,,,,,,,0,0,0,0,28,0,28,0,,,,,,,28,,,1,716.93467397106,X,None,nogo,None,1,,717.7354047343251,,,,,,,,,,,,,,,,,47,001,20,w,Psychologie,2023-01-19_09h04.49.537,00_bat_bachelor,2022.2.4,60.025348876884635,
,,,,,,,,,,,,0,0,0,0,29,0,29,0,,,,,,,29,,,1,718.7360544309777,Y,d,go,d,1,0.20513609756017104,,,,,,,,,,,,,,,,,,47,001,20,w,Psychologie,2023-01-19_09h04.49.537,00_bat_bachelor,2022.2.4,60.025348876884635,
,,,,,,,,,,,,0,0,0,0,30,0,30,0,,,,,,,30,,,1,720.0700537842058,X,l,go,l,1,0.18303477493464015,,,,,,,,,,,,,,,,,,47,001,20,w,Psychologie,2023-01-19_09h04.49.537,00_bat_bachelor,2022.2.4,60.025348876884635,
,,,,,,,,,,,,0,0,0,0,31,0,31,0,,,,,,,31,,,1,721.3708953353052,Y,d,go,d,1,0.29042526832199655,,,,,,,,,,,,,,,,,,47,001,20,w,Psychologie,2023-01-19_09h04.49.537,00_bat_bachelor,2022.2.4,60.025348876884635,
,,,,,,,,,,,,0,0,0,0,32,0,32,0,,,,,,,32,,,1,722.7719792620628,X,l,go,l,1,0.23405971989268437,,,,,,,,,,,,,,,,,,47,001,20,w,Psychologie,2023-01-19_09h04.49.537,00_bat_bachelor,2022.2.4,60.025348876884635,
,,,,,,,,,,,,0,0,0,0,33,0,33,0,,,,,,,33,,,1,724.1063296454086,Y,d,go,d,1,0.3064819877909031,,,,,,,,,,,,,,,,,,47,001,20,w,Psychologie,2023-01-19_09h04.49.537,00_bat_bachelor,2022.2.4,60.025348876884635,
,,,,,,,,,,,,0,0,0,0,34,0,34,0,,,,,,,34,,,1,725.5409665255866,Y,None,nogo,l,0,0.1838405927119311,,,,,,,,,,,,,,,,,,47,001,20,w,Psychologie,2023-01-19_09h04.49.537,00_bat_bachelor,2022.2.4,60.025348876884635,
,,,,,,,,,,,,0,0,0,0,35,0,35,0,,,,,,,35,,,1,726.8419564402429,X,l,go,l,1,0.25948225302272476,,,,,,,,,,,,,,,,,,47,001,20,w,Psychologie,2023-01-19_09h04.49.537,00_bat_bachelor,2022.2.4,60.025348876884635,
,,,,,,,,,,,,0,0,0,0,36,0,36,0,,,,,,,36,,,1,728.2094510499446,Y,d,go,d,1,0.3009207783907186,,,,,,,,,,,,,,,,,,47,001,20,w,Psychologie,2023-01-19_09h04.49.537,00_bat_bachelor,2022.2.4,60.025348876884635,
,,,,,,,,,,,,0,0,0,0,37,0,37,0,,,,,,,37,,,1,729.62693496875,X,l,go,l,1,0.40215951719437726,,,,,,,,,,,,,,,,,,47,001,20,w,Psychologie,2023-01-19_09h04.49.537,00_bat_bachelor,2022.2.4,60.025348876884635,
,,,,,,,,,,,,0,0,0,0,38,0,38,0,,,,,,,38,,,1,731.1446796874225,Y,d,go,d,1,0.24631474426132627,,,,,,,,,,,,,,,,,,47,001,20,w,Psychologie,2023-01-19_09h04.49.537,00_bat_bachelor,2022.2.4,60.025348876884635,
,,,,,,,,,,,,0,0,0,0,39,0,39,0,,,,,,,39,,,1,732.4963056987617,X,l,go,l,1,0.28567666455637664,,,,,,,,,,,,,,,,,,47,001,20,w,Psychologie,2023-01-19_09h04.49.537,00_bat_bachelor,2022.2.4,60.025348876884635,
,,,,,,,,,,,,0,0,0,0,40,0,40,0,,,,,,,40,,,1,733.8972795649315,Y,d,go,d,1,0.21255136668332852,,,,,,,,,,,,,,,,,,47,001,20,w,Psychologie,2023-01-19_09h04.49.537,00_bat_bachelor,2022.2.4,60.025348876884635,
,,,,,,,,,,,,0,0,0,0,41,0,41,0,,,,,,,41,,,1,735.2149923805846,X,l,go,l,1,0.25550504282000475,,,,,,,,,,,,,,,,,,47,001,20,w,Psychologie,2023-01-19_09h04.49.537,00_bat_bachelor,2022.2.4,60.025348876884635,
,,,,,,,,,,,,0,0,0,0,42,0,42,0,,,,,,,42,,,1,736.5824472327367,X,None,nogo,d,0,0.2146459111245349,,,,,,,,,,,,,,,,,,47,001,20,w,Psychologie,2023-01-19_09h04.49.537,00_bat_bachelor,2022.2.4,60.025348876884635,
,,,,,,,,,,,,0,0,0,0,43,0,43,0,,,,,,,43,,,1,737.9003137452819,Y,d,go,d,1,0.17786823195638135,,,,,,,,,,,,,,,,,,47,001,20,w,Psychologie,2023-01-19_09h04.49.537,00_bat_bachelor,2022.2.4,60.025348876884635,
,,,,,,,,,,,,0,0,0,0,44,0,44,0,,,,,,,44,,,1,739.1846418498608,X,l,go,l,1,0.25313365002512,,,,,,,,,,,,,,,,,,47,001,20,w,Psychologie,2023-01-19_09h04.49.537,00_bat_bachelor,2022.2.4,60.025348876884635,
,,,,,,,,,,,,0,0,0,0,45,0,45,0,,,,,,,45,,,1,740.5523580352019,Y,d,go,d,1,0.22974699470796622,,,,,,,,,,,,,,,,,,47,001,20,w,Psychologie,2023-01-19_09h04.49.537,00_bat_bachelor,2022.2.4,60.025348876884635,
,,,,,,,,,,,,0,0,0,0,46,0,46,0,,,,,,,46,,,1,741.886548418639,X,l,go,l,1,0.20800106585375033,,,,,,,,,,,,,,,,,,47,001,20,w,Psychologie,2023-01-19_09h04.49.537,00_bat_bachelor,2022.2.4,60.025348876884635,
,,,,,,,,,,,,0,0,0,0,47,0,47,0,,,,,,,47,,,1,743.2043291130394,X,None,nogo,None,1,,744.0049473915424,,,,,,,,,,,,,,,,,47,001,20,w,Psychologie,2023-01-19_09h04.49.537,00_bat_bachelor,2022.2.4,60.025348876884635,
,,,,,,,,,,,,0,0,0,0,48,0,48,0,,,,,,,48,,,1,745.0055350275943,Y,d,go,d,1,0.24061923185945489,,,,,,,,,,,,,,,,,,47,001,20,w,Psychologie,2023-01-19_09h04.49.537,00_bat_bachelor,2022.2.4,60.025348876884635,
,,,,,,,,,,,,0,0,0,0,49,0,49,0,,,,,,,49,,,1,746.3565510998305,X,l,go,l,1,0.21682142521603964,,,,,,,,,,,,,,,,,,47,001,20,w,Psychologie,2023-01-19_09h04.49.537,00_bat_bachelor,2022.2.4,60.025348876884635,
,,,,,,,,,,,,0,0,0,0,50,0,50,0,,,,,,,50,,,1,747.6741771276575,X,None,nogo,None,1,,,,,,,,,,,,,,,,,,,47,001,20,w,Psychologie,2023-01-19_09h04.49.537,00_bat_bachelor,2022.2.4,60.025348876884635,
,,,,,,,,,,,,0,0,0,0,51,0,51,0,,,,,,,51,,,1,749.4753549210145,Y,d,go,d,1,0.34708027113811113,,,,,,,,,,,,,,,,,,47,001,20,w,Psychologie,2023-01-19_09h04.49.537,00_bat_bachelor,2022.2.4,60.025348876884635,
,,,,,,,,,,,,0,0,0,0,52,0,52,0,,,,,,,52,,,1,750.926470338658,X,l,go,l,1,0.20740373281296343,,,,,,,,,,,,,,,,,,47,001,20,w,Psychologie,2023-01-19_09h04.49.537,00_bat_bachelor,2022.2.4,60.025348876884635,
,,,,,,,,,,,,0,0,0,0,53,0,53,0,,,,,,,53,,,1,752.2444236390584,X,None,nogo,l,0,0.3291389465157408,,,,,,,,,,,,,,,,,,47,001,20,w,Psychologie,2023-01-19_09h04.49.537,00_bat_bachelor,2022.2.4,60.025348876884635,
,,,,,,,,,,,,0,0,0,0,54,0,54,0,,,,,,,54,,,1,753.6787157921353,Y,d,go,d,1,0.41588751049130224,,,,,,,,,,,,,,,,,,47,001,20,w,Psychologie,2023-01-19_09h04.49.537,00_bat_bachelor,2022.2.4,60.025348876884635,
,,,,,,,,,,,,0,0,0,0,55,0,55,0,,,,,,,55,,,1,755.1965957834618,X,l,go,l,1,0.3687622000288684,,,,,,,,,,,,,,,,,,47,001,20,w,Psychologie,2023-01-19_09h04.49.537,00_bat_bachelor,2022.2.4,60.025348876884635,
,,,,,,,,,,,,0,0,0,0,56,0,56,0,,,,,,,56,,,1,756.6810309425055,Y,d,go,d,1,0.30951277422718704,,,,,,,,,,,,,,,,,,47,001,20,w,Psychologie,2023-01-19_09h04.49.537,00_bat_bachelor,2022.2.4,60.025348876884635,
,,,,,,,,,,,,0,0,0,0,57,0,57,0,,,,,,,57,,,1,758.0987829823862,X,l,go,l,1,0.2830337567429524,,,,,,,,,,,,,,,,,,47,001,20,w,Psychologie,2023-01-19_09h04.49.537,00_bat_bachelor,2022.2.4,60.025348876884635,
,,,,,,,,,,,,0,0,0,0,58,0,58,0,,,,,,,58,,,1,759.4832123717642,Y,d,go,d,1,0.2917920555337332,,,,,,,,,,,,,,,,,,47,001,20,w,Psychologie,2023-01-19_09h04.49.537,00_bat_bachelor,2022.2.4,60.025348876884635,
,,,,,,,,,,,,0,0,0,0,59,0,59,0,,,,,,,59,,,1,760.8843132682086,Y,None,nogo,None,1,,761.6848980921495,,,,,,,,,,,,,,,,,47,001,20,w,Psychologie,2023-01-19_09h04.49.537,00_bat_bachelor,2022.2.4,60.025348876884635,
,,,,,,,,,,,,0,0,0,0,60,0,60,0,,,,,,,60,,,1,762.6854624555272,Y,None,nogo,None,1,,763.4860574612976,,,,,,,,,,,,,,,,,47,001,20,w,Psychologie,2023-01-19_09h04.49.537,00_bat_bachelor,2022.2.4,60.025348876884635,
,,,,,,,,,,,,0,0,0,0,61,0,61,0,,,,,,,61,,,1,764.4868303094117,X,l,go,l,1,0.23105802436475642,,,,,,,,,,,,,,,,,,47,001,20,w,Psychologie,2023-01-19_09h04.49.537,00_bat_bachelor,2022.2.4,60.025348876884635,
,,,,,,,,,,,,0,0,0,0,62,0,62,0,,,,,,,62,,,1,765.8213726926479,Y,d,go,d,1,0.25684128460125066,,,,,,,,,,,,,,,,,,47,001,20,w,Psychologie,2023-01-19_09h04.49.537,00_bat_bachelor,2022.2.4,60.025348876884635,
,,,,,,,,,,,,0,0,0,0,63,0,63,0,,,,,,,63,,,1,767.1890248780255,Y,None,nogo,None,1,,767.9895980656438,,,,,,,,,,,,,,,,,47,001,20,w,Psychologie,2023-01-19_09h04.49.537,00_bat_bachelor,2022.2.4,60.025348876884635,
,,,,,,,,,,,,0,0,0,0,64,0,64,0,,,,,,,64,,,1,768.9904867924924,X,l,go,l,1,0.35140463267453015,,,,,,,,,,,,,,,,,,47,001,20,w,Psychologie,2023-01-19_09h04.49.537,00_bat_bachelor,2022.2.4,60.025348876884635,
,,,,,,,,,,,,0,0,0,0,65,0,65,0,,,,,,,65,,,1,770.4582189293287,Y,d,go,d,1,0.2609033432381693,,,,,,,,,,,,,,,,,,47,001,20,w,Psychologie,2023-01-19_09h04.49.537,00_bat_bachelor,2022.2.4,60.025348876884635,
,,,,,,,,,,,,0,0,0,0,66,0,66,0,,,,,,,66,,,1,771.8260029934463,X,l,go,l,1,0.25169122646912,,,,,,,,,,,,,,,,,,47,001,20,w,Psychologie,2023-01-19_09h04.49.537,00_bat_bachelor,2022.2.4,60.025348876884635,
,,,,,,,,,,,,0,0,0,0,67,0,67,0,,,,,,,67,,,1,773.1934481486096,Y,d,go,d,1,0.2609382523223758,,,,,,,,,,,,,,,,,,47,001,20,w,Psychologie,2023-01-19_09h04.49.537,00_bat_bachelor,2022.2.4,60.025348876884635,
,,,,,,,,,,,,0,0,0,0,68,0,68,0,,,,,,,68,,,1,774.561347606621,Y,None,nogo,None,1,,775.3618868548365,,,,,,,,,,,,,,,,,47,001,20,w,Psychologie,2023-01-19_09h04.49.537,00_bat_bachelor,2022.2.4,60.025348876884635,
,,,,,,,,,,,,0,0,0,0,69,0,69,0,,,,,,,69,,,1,776.3627295210899,X,l,go,l,1,0.2439661393291317,,,,,,,,,,,,,,,,,,47,001,20,w,Psychologie,2023-01-19_09h04.49.537,00_bat_bachelor,2022.2.4,60.025348876884635,
,,,,,,,,,,,,0,0,0,0,70,0,70,0,,,,,,,70,,,1,777.7137771084672,Y,d,go,d,1,0.23625559761421755,,,,,,,,,,,,,,,,,,47,001,20,w,Psychologie,2023-01-19_09h04.49.537,00_bat_bachelor,2022.2.4,60.025348876884635,
,,,,,,,,,,,,0,0,0,0,71,0,71,0,,,,,,,71,,,1,779.0646094231925,Y,None,nogo,None,1,,,,,,,,,,,,,,,,,,,47,001,20,w,Psychologie,2023-01-19_09h04.49.537,00_bat_bachelor,2022.2.4,60.025348876884635,
,,,,,,,,,,,,0,0,0,0,72,0,72,0,,,,,,,72,,,1,780.8659443074139,X,l,go,l,1,0.23630990061792545,,,,,,,,,,,,,,,,,,47,001,20,w,Psychologie,2023-01-19_09h04.49.537,00_bat_bachelor,2022.2.4,60.025348876884635,
,,,,,,,,,,,,0,0,0,0,73,0,73,0,,,,,,,73,,,1,782.2170675311063,Y,d,go,d,1,0.19711864687269554,,,,,,,,,,,,,,,,,,47,001,20,w,Psychologie,2023-01-19_09h04.49.537,00_bat_bachelor,2022.2.4,60.025348876884635,
,,,,,,,,,,,,0,0,0,0,74,0,74,0,,,,,,,74,,,1,783.5179915064073,X,l,go,l,1,0.20808155063423328,,,,,,,,,,,,,,,,,,47,001,20,w,Psychologie,2023-01-19_09h04.49.537,00_bat_bachelor,2022.2.4,60.025348876884635,
,,,,,,,,,,,,0,0,0,0,75,0,75,0,,,,,,,75,,,1,784.8358100189944,Y,d,go,d,1,0.26590843169833533,,,,,,,,,,,,,,,,,,47,001,20,w,Psychologie,2023-01-19_09h04.49.537,00_bat_bachelor,2022.2.4,60.025348876884635,
,,,,,,,,,,,,0,0,0,0,76,0,76,0,,,,,,,76,,,1,786.2032289923518,Y,None,nogo,None,1,,787.0037667860452,,,,,,,,,,,,,,,,,47,001,20,w,Psychologie,2023-01-19_09h04.49.537,00_bat_bachelor,2022.2.4,60.025348876884635,
,,,,,,,,,,,,0,0,0,0,77,0,77,0,,,,,,,77,,,1,788.0047073916357,X,l,go,l,1,0.20127864484675229,,,,,,,,,,,,,,,,,,47,001,20,w,Psychologie,2023-01-19_09h04.49.537,00_bat_bachelor,2022.2.4,60.025348876884635,
,,,,,,,,,,,,0,0,0,0,78,0,78,0,,,,,,,78,,,1,789.3224172982154,Y,d,go,d,1,0.19663816227694042,,,,,,,,,,,,,,,,,,47,001,20,w,Psychologie,2023-01-19_09h04.49.537,00_bat_bachelor,2022.2.4,60.025348876884635,
,,,,,,,,,,,,0,0,0,0,79,0,79,0,,,,,,,79,,,1,790.6234076977416,X,l,go,l,1,0.20631718786899,,,,,,,,,,,,,,,,,,47,001,20,w,Psychologie,2023-01-19_09h04.49.537,00_bat_bachelor,2022.2.4,60.025348876884635,
,,,,,,,,,,,,0,0,0,0,80,0,80,0,,,,,,,80,,,1,791.9408005135483,X,None,nogo,d,0,0.18483404678408988,,,,,,,,,,,,,,,,,,47,001,20,w,Psychologie,2023-01-19_09h04.49.537,00_bat_bachelor,2022.2.4,60.025348876884635,
,,,,,,,,,,,,0,0,0,0,81,0,81,0,,,,,,,81,,,1,793.24223115528,Y,d,go,d,1,0.24481510859914124,,,,,,,,,,,,,,,,,,47,001,20,w,Psychologie,2023-01-19_09h04.49.537,00_bat_bachelor,2022.2.4,60.025348876884635,
,,,,,,,,,,,,0,0,0,0,82,0,82,0,,,,,,,82,,,1,794.5932249244943,X,l,go,l,1,0.20497997640632093,,,,,,,,,,,,,,,,,,47,001,20,w,Psychologie,2023-01-19_09h04.49.537,00_bat_bachelor,2022.2.4,60.025348876884635,
,,,,,,,,,,,,0,0,0,0,83,0,83,0,,,,,,,83,,,1,795.9107772553689,Y,d,go,d,1,0.29561169003136456,,,,,,,,,,,,,,,,,,47,001,20,w,Psychologie,2023-01-19_09h04.49.537,00_bat_bachelor,2022.2.4,60.025348876884635,
,,,,,,,,,,,,0,0,0,0,84,0,84,0,,,,,,,84,,,1,797.3118626366486,Y,None,nogo,None,1,,,,,,,,,,,,,,,,,,,47,001,20,w,Psychologie,2023-01-19_09h04.49.537,00_bat_bachelor,2022.2.4,60.025348876884635,
,,,,,,,,,,,,0,0,0,0,85,0,85,0,,,,,,,85,,,1,799.1131281875714,X,l,go,l,1,0.24471086624544114,,,,,,,,,,,,,,,,,,47,001,20,w,Psychologie,2023-01-19_09h04.49.537,00_bat_bachelor,2022.2.4,60.025348876884635,
,,,,,,,,,,,,0,0,0,0,86,0,86,0,,,,,,,86,,,1,800.4642756536778,Y,d,go,d,1,0.23722238503978588,,,,,,,,,,,,,,,,,,47,001,20,w,Psychologie,2023-01-19_09h04.49.537,00_bat_bachelor,2022.2.4,60.025348876884635,
,,,,,,,,,,,,0,0,0,0,87,0,87,0,,,,,,,87,,,1,801.8152893016522,Y,None,nogo,None,1,,802.6157000651001,,,,,,,,,,,,,,,,,47,001,20,w,Psychologie,2023-01-19_09h04.49.537,00_bat_bachelor,2022.2.4,60.025348876884635,
,,,,,,,,,,,,0,0,0,0,88,0,88,0,,,,,,,88,,,1,803.6164520647435,X,l,go,l,1,0.2056330670020543,,,,,,,,,,,,,,,,,,47,001,20,w,Psychologie,2023-01-19_09h04.49.537,00_bat_bachelor,2022.2.4,60.025348876884635,
,,,,,,,,,,,,0,0,0,0,89,0,89,0,,,,,,,89,,,1,804.9343210015213,Y,d,go,d,1,0.21546627435600385,,,,,,,,,,,,,,,,,,47,001,20,w,Psychologie,2023-01-19_09h04.49.537,00_bat_bachelor,2022.2.4,60.025348876884635,
,,,,,,,,,,,,0,0,0,0,90,0,90,0,,,,,,,90,,,1,806.251789938513,X,l,go,l,1,0.2587772836559452,,,,,,,,,,,,,,,,,,47,001,20,w,Psychologie,2023-01-19_09h04.49.537,00_bat_bachelor,2022.2.4,60.025348876884635,
,,,,,,,,,,,,0,0,0,0,91,0,91,0,,,,,,,91,,,1,807.619693760149,Y,d,go,d,1,0.29898138536373153,,,,,,,,,,,,,,,,,,47,001,20,w,Psychologie,2023-01-19_09h04.49.537,00_bat_bachelor,2022.2.4,60.025348876884635,
,,,,,,,,,,,,0,0,0,0,92,0,92,0,,,,,,,92,,,1,809.0207965959562,X,l,go,l,1,0.2586861321760807,,,,,,,,,,,,,,,,,,47,001,20,w,Psychologie,2023-01-19_09h04.49.537,00_bat_bachelor,2022.2.4,60.025348876884635,
,,,,,,,,,,,,0,0,0,0,93,0,93,0,,,,,,,93,,,1,810.3884793267935,Y,d,go,d,1,0.28223860560683534,,,,,,,,,,,,,,,,,,47,001,20,w,Psychologie,2023-01-19_09h04.49.537,00_bat_bachelor,2022.2.4,60.025348876884635,
,,,,,,,,,,,,0,0,0,0,94,0,94,0,,,,,,,94,,,1,811.7728612010251,Y,None,nogo,None,1,,,,,,,,,,,,,,,,,,,47,001,20,w,Psychologie,2023-01-19_09h04.49.537,00_bat_bachelor,2022.2.4,60.025348876884635,
,,,,,,,,,,,,0,0,0,0,95,0,95,0,,,,,,,95,,,1,813.5742406912614,X,l,go,l,1,0.2157324560394045,,,,,,,,,,,,,,,,,,47,001,20,w,Psychologie,2023-01-19_09h04.49.537,00_bat_bachelor,2022.2.4,60.025348876884635,
,,,,,,,,,,,,0,0,0,0,96,0,96,0,,,,,,,96,,,1,814.891957870539,Y,d,go,d,1,0.21083742810878903,,,,,,,,,,,,,,,,,,47,001,20,w,Psychologie,2023-01-19_09h04.49.537,00_bat_bachelor,2022.2.4,60.025348876884635,
,,,,,,,,,,,,0,0,0,0,97,0,97,0,,,,,,,97,,,1,816.2095960195875,Y,None,nogo,None,1,,,,,,,,,,,,,,,,,,,47,001,20,w,Psychologie,2023-01-19_09h04.49.537,00_bat_bachelor,2022.2.4,60.025348876884635,
,,,,,,,,,,,,0,0,0,0,98,0,98,0,,,,,,,98,,,1,818.0116232670844,X,l,go,l,1,0.16129466422717087,,,,,,,,,,,,,,,,,,47,001,20,w,Psychologie,2023-01-19_09h04.49.537,00_bat_bachelor,2022.2.4,60.025348876884635,
,,,,,,,,,,,,0,0,0,0,99,0,99,0,,,,,,,99,,,1,819.2962233715225,Y,d,go,d,1,0.1566003635234665,,,,,,,,,,,,,,,,,,47,001,20,w,Psychologie,2023-01-19_09h04.49.537,00_bat_bachelor,2022.2.4,60.025348876884635,
,,,,,,,,,,,,0,0,0,0,100,0,100,0,,,,,,,100,,,1,820.5968414075905,X,l,go,l,1,0.21611354674678296,,,,,,,,,,,,,,,,,,47,001,20,w,Psychologie,2023-01-19_09h04.49.537,00_bat_bachelor,2022.2.4,60.025348876884635,
,,,,,,,,,,,,0,0,0,0,101,0,101,0,,,,,,,101,,,1,821.93129603329,Y,d,go,d,1,0.20938045912771486,,,,,,,,,,,,,,,,,,47,001,20,w,Psychologie,2023-01-19_09h04.49.537,00_bat_bachelor,2022.2.4,60.025348876884635,
,,,,,,,,,,,,0,0,0,0,102,0,102,0,,,,,,,102,,,1,823.2823334388668,X,l,go,l,1,0.1549761218484491,,,,,,,,,,,,,,,,,,47,001,20,w,Psychologie,2023-01-19_09h04.49.537,00_bat_bachelor,2022.2.4,60.025348876884635,
,,,,,,,,,,,,0,0,0,0,103,0,103,0,,,,,,,103,,,1,824.5833282020176,X,None,nogo,d,0,0.24503280548378825,,,,,,,,,,,,,,,,,,47,001,20,w,Psychologie,2023-01-19_09h04.49.537,00_bat_bachelor,2022.2.4,60.025348876884635,
,,,,,,,,,,,,0,0,0,0,104,0,104,0,,,,,,,104,,,1,825.9513076599687,Y,d,go,l,0,0.2379898998187855,,,,,,,,,,,,,,,,,,47,001,20,w,Psychologie,2023-01-19_09h04.49.537,00_bat_bachelor,2022.2.4,60.025348876884635,
,,,,,,,,,,,,0,0,0,0,105,0,105,0,,,,,,,105,,,1,827.3181947548001,X,l,go,l,1,0.2641678265063092,,,,,,,,,,,,,,,,,,47,001,20,w,Psychologie,2023-01-19_09h04.49.537,00_bat_bachelor,2022.2.4,60.025348876884635,
,,,,,,,,,,,,0,0,0,0,106,0,106,0,,,,,,,106,,,1,828.6856883947912,Y,d,go,d,1,0.20781536895083264,,,,,,,,,,,,,,,,,,47,001,20,w,Psychologie,2023-01-19_09h04.49.537,00_bat_bachelor,2022.2.4,60.025348876884635,
,,,,,,,,,,,,0,0,0,0,107,0,107,0,,,,,,,107,,,1,830.0035456952464,X,l,go,l,1,0.13774897868279368,,,,,,,,,,,,,,,,,,47,001,20,w,Psychologie,2023-01-19_09h04.49.537,00_bat_bachelor,2022.2.4,60.025348876884635,
,,,,,,,,,,,,0,0,0,0,108,0,108,0,,,,,,,108,,,1,831.2545322402148,Y,d,go,d,1,0.3112703491060529,,,,,,,,,,,,,,,,,,47,001,20,w,Psychologie,2023-01-19_09h04.49.537,00_bat_bachelor,2022.2.4,60.025348876884635,
,,,,,,,,,,,,0,0,0,0,109,0,109,0,,,,,,,109,,,1,832.6722682800901,Y,None,nogo,l,0,0.20559476400376298,,,,,,,,,,,,,,,,,,47,001,20,w,Psychologie,2023-01-19_09h04.49.537,00_bat_bachelor,2022.2.4,60.025348876884635,
,,,,,,,,,,,,0,0,0,0,110,0,110,0,,,,,,,110,,,1,833.9897643685981,X,l,go,l,1,0.26340225111925974,,,,,,,,,,,,,,,,,,47,001,20,w,Psychologie,2023-01-19_09h04.49.537,00_bat_bachelor,2022.2.4,60.025348876884635,
,,,,,,,,,,,,0,0,0,0,111,0,111,0,,,,,,,111,,,1,835.357499463018,Y,d,go,d,1,0.2565610423043836,,,,,,,,,,,,,,,,,,47,001,20,w,Psychologie,2023-01-19_09h04.49.537,00_bat_bachelor,2022.2.4,60.025348876884635,
,,,,,,,,,,,,0,0,0,0,112,0,112,0,,,,,,,112,,,1,836.7252035271667,X,l,go,l,1,0.28112684856751,,,,,,,,,,,,,,,,,,47,001,20,w,Psychologie,2023-01-19_09h04.49.537,00_bat_bachelor,2022.2.4,60.025348876884635,
,,,,,,,,,,,,0,0,0,0,113,0,113,0,,,,,,,113,,,1,838.10977885584,X,None,nogo,None,1,,838.9103825888888,,,,,,,,,,,,,,,,,47,001,20,w,Psychologie,2023-01-19_09h04.49.537,00_bat_bachelor,2022.2.4,60.025348876884635,
,,,,,,,,,,,,0,0,0,0,114,0,114,0,,,,,,,114,,,1,839.9109406492207,Y,d,go,d,1,0.2960252656193916,,,,,,,,,,,,,,,,,,47,001,20,w,Psychologie,2023-01-19_09h04.49.537,00_bat_bachelor,2022.2.4,60.025348876884635,
,,,,,,,,,,,,0,0,0,0,115,0,115,0,,,,,,,115,,,1,841.3122311213228,X,l,go,l,1,0.253314013563795,,,,,,,,,,,,,,,,,,47,001,20,w,Psychologie,2023-01-19_09h04.49.537,00_bat_bachelor,2022.2.4,60.025348876884635,
,,,,,,,,,,,,0,0,0,0,116,0,116,0,,,,,,,116,,,1,842.6797107007296,Y,d,go,d,1,0.31070792514947243,,,,,,,,,,,,,,,,,,47,001,20,w,Psychologie,2023-01-19_09h04.49.537,00_bat_bachelor,2022.2.4,60.025348876884635,
,,,,,,,,,,,,0,0,0,0,117,0,117,0,,,,,,,117,,,1,844.0976382556837,X,l,go,l,1,0.36441359607852064,,,,,,,,,,,,,,,,,,47,001,20,w,Psychologie,2023-01-19_09h04.49.537,00_bat_bachelor,2022.2.4,60.025348876884635,
,,,,,,,,,,,,0,0,0,0,118,0,118,0,,,,,,,118,,,1,845.5654562106647,Y,d,go,d,1,0.30448635239736177,,,,,,,,,,,,,,,,,,47,001,20,w,Psychologie,2023-01-19_09h04.49.537,00_bat_bachelor,2022.2.4,60.025348876884635,
,,,,,,,,,,,,0,0,0,0,119,0,119,0,,,,,,,119,,,1,846.98314231119,Y,None,nogo,None,1,,847.7837775593798,,,,,,,,,,,,,,,,,47,001,20,w,Psychologie,2023-01-19_09h04.49.537,00_bat_bachelor,2022.2.4,60.025348876884635,
,,,,,,,,,,,,0,0,0,0,120,0,120,0,,,,,,,120,,,1,848.7845785286627,X,l,go,l,1,0.22101924137677997,,,,,,,,,,,,,,,,,,47,001,20,w,Psychologie,2023-01-19_09h04.49.537,00_bat_bachelor,2022.2.4,60.025348876884635,
,,,,,,,,,,,,0,0,0,0,121,0,121,0,,,,,,,121,,,1,850.1189318211109,Y,d,go,d,1,0.2788267284631729,,,,,,,,,,,,,,,,,,47,001,20,w,Psychologie,2023-01-19_09h04.49.537,00_bat_bachelor,2022.2.4,60.025348876884635,
,,,,,,,,,,,,0,0,0,0,122,0,122,0,,,,,,,122,,,1,851.5033049680933,X,l,go,l,1,0.2386798388324678,,,,,,,,,,,,,,,,,,47,001,20,w,Psychologie,2023-01-19_09h04.49.537,00_bat_bachelor,2022.2.4,60.025348876884635,
,,,,,,,,,,,,0,0,0,0,123,0,123,0,,,,,,,123,,,1,852.8542153433955,Y,d,go,d,1,0.20011113028158434,,,,,,,,,,,,,,,,,,47,001,20,w,Psychologie,2023-01-19_09h04.49.537,00_bat_bachelor,2022.2.4,60.025348876884635,
,,,,,,,,,,,,0,0,0,0,124,0,124,0,,,,,,,124,,,1,854.155232894409,Y,None,nogo,None,1,,,,,,,,,,,,,,,,,,,47,001,20,w,Psychologie,2023-01-19_09h04.49.537,00_bat_bachelor,2022.2.4,60.025348876884635,
,,,,,,,,,,,,0,0,0,0,125,0,125,0,,,,,,,125,,,1,855.9566070513392,X,l,go,l,1,0.2497911062091589,,,,,,,,,,,,,,,,,,47,001,20,w,Psychologie,2023-01-19_09h04.49.537,00_bat_bachelor,2022.2.4,60.025348876884635,
,,,,,,,,,,,,0,0,0,0,126,0,126,0,,,,,,,126,,,1,857.3077191235207,Y,d,go,d,1,0.2263937842217274,,,,,,,,,,,,,,,,,,47,001,20,w,Psychologie,2023-01-19_09h04.49.537,00_bat_bachelor,2022.2.4,60.025348876884635,
,,,,,,,,,,,,0,0,0,0,127,0,127,0,,,,,,,127,,,1,858.6416021131445,Y,None,nogo,l,0,0.2996936274576001,,,,,,,,,,,,,,,,,,47,001,20,w,Psychologie,2023-01-19_09h04.49.537,00_bat_bachelor,2022.2.4,60.025348876884635,
,,,,,,,,,,,,0,0,0,0,128,0,128,0,,,,,,,128,,,1,860.042947373091,X,l,go,l,1,0.2758599420194514,,,,,,,,,,,,,,,,,,47,001,20,w,Psychologie,2023-01-19_09h04.49.537,00_bat_bachelor,2022.2.4,60.025348876884635,
,,,,,,,,,,,,0,0,0,0,129,0,129,0,,,,,,,129,,,1,861.4273883988208,Y,d,go,d,1,0.37973625530139543,,,,,,,,,,,,,,,,,,47,001,20,w,Psychologie,2023-01-19_09h04.49.537,00_bat_bachelor,2022.2.4,60.025348876884635,
,,,,,,,,,,,,0,0,0,0,130,0,130,0,,,,,,,130,,,1,862.9118201639503,X,l,go,l,1,0.34936439123703167,,,,,,,,,,,,,,,,,,47,001,20,w,Psychologie,2023-01-19_09h04.49.537,00_bat_bachelor,2022.2.4,60.025348876884635,
,,,,,,,,,,,,0,0,0,0,131,0,131,0,,,,,,,131,,,1,864.3629821270297,Y,d,go,d,1,0.4665701525809709,,,,,,,,,,,,,,,,,,47,001,20,w,Psychologie,2023-01-19_09h04.49.537,00_bat_bachelor,2022.2.4,60.025348876884635,
,,,,,,,,,,,,0,0,0,0,132,0,132,0,,,,,,,132,,,1,865.9308267002052,X,l,go,l,1,0.25973485893337056,,,,,,,,,,,,,,,,,,47,001,20,w,Psychologie,2023-01-19_09h04.49.537,00_bat_bachelor,2022.2.4,60.025348876884635,
,,,,,,,,,,,,0,0,0,0,133,0,133,0,,,,,,,133,,,1,867.2983111280773,Y,d,go,d,1,0.21952009055530652,,,,,,,,,,,,,,,,,,47,001,20,w,Psychologie,2023-01-19_09h04.49.537,00_bat_bachelor,2022.2.4,60.025348876884635,
,,,,,,,,,,,,0,0,0,0,134,0,134,0,,,,,,,134,,,1,868.6329073294764,X,l,go,l,1,0.21440930516109802,,,,,,,,,,,,,,,,,,47,001,20,w,Psychologie,2023-01-19_09h04.49.537,00_bat_bachelor,2022.2.4,60.025348876884635,
,,,,,,,,,,,,0,0,0,0,135,0,135,0,,,,,,,135,,,1,869.950548872439,Y,d,go,d,1,0.2726153375406284,,,,,,,,,,,,,,,,,,47,001,20,w,Psychologie,2023-01-19_09h04.49.537,00_bat_bachelor,2022.2.4,60.025348876884635,
,,,,,,,,,,,,0,0,0,0,136,0,136,0,,,,,,,136,,,1,871.3346713528736,Y,None,nogo,None,1,,,,,,,,,,,,,,,,,,,47,001,20,w,Psychologie,2023-01-19_09h04.49.537,00_bat_bachelor,2022.2.4,60.025348876884635,
,,,,,,,,,,,,0,0,0,0,137,0,137,0,,,,,,,137,,,1,873.136443570198,X,l,go,l,1,0.22157827139017172,,,,,,,,,,,,,,,,,,47,001,20,w,Psychologie,2023-01-19_09h04.49.537,00_bat_bachelor,2022.2.4,60.025348876884635,
,,,,,,,,,,,,0,0,0,0,138,0,138,0,,,,,,,138,,,1,874.4706242566463,Y,d,go,d,1,0.24755450122756884,,,,,,,,,,,,,,,,,,47,001,20,w,Psychologie,2023-01-19_09h04.49.537,00_bat_bachelor,2022.2.4,60.025348876884635,
,,,,,,,,,,,,0,0,0,0,139,0,139,0,,,,,,,139,,,1,875.8216257834283,X,l,go,l,1,0.32051689008949324,,,,,,,,,,,,,,,,,,47,001,20,w,Psychologie,2023-01-19_09h04.49.537,00_bat_bachelor,2022.2.4,60.025348876884635,
,,,,,,,,,,,,0,0,0,0,140,0,140,0,,,,,,,140,,,1,877.2561336939689,Y,d,go,d,1,0.2614691611379385,,,,,,,,,,,,,,,,,,47,001,20,w,Psychologie,2023-01-19_09h04.49.537,00_bat_bachelor,2022.2.4,60.025348876884635,
,,,,,,,,,,,,0,0,0,0,141,0,141,0,,,,,,,141,,,1,878.6238144854142,X,l,go,l,1,0.3019176263769623,,,,,,,,,,,,,,,,,,47,001,20,w,Psychologie,2023-01-19_09h04.49.537,00_bat_bachelor,2022.2.4,60.025348876884635,
,,,,,,,,,,,,0,0,0,0,142,0,142,0,,,,,,,142,,,1,880.041573798022,Y,d,go,d,1,0.42028120535542257,,,,,,,,,,,,,,,,,,47,001,20,w,Psychologie,2023-01-19_09h04.49.537,00_bat_bachelor,2022.2.4,60.025348876884635,
,,,,,,,,,,,,0,0,0,0,143,0,143,0,,,,,,,143,,,1,881.5760772964277,Y,None,nogo,None,1,,,,,,,,,,,,,,,,,,,47,001,20,w,Psychologie,2023-01-19_09h04.49.537,00_bat_bachelor,2022.2.4,60.025348876884635,
,,,,,,,,,,,,0,0,0,0,144,0,144,0,,,,,,,144,,,1,883.3772652716143,X,l,go,l,1,0.2680829761084169,,,,,,,,,,,,,,,,,,47,001,20,w,Psychologie,2023-01-19_09h04.49.537,00_bat_bachelor,2022.2.4,60.025348876884635,
,,,,,,,,,,,,0,0,0,0,145,0,145,0,,,,,,,145,,,1,884.7615147822944,Y,d,go,d,1,0.1965373138373252,,,,,,,,,,,,,,,,,,47,001,20,w,Psychologie,2023-01-19_09h04.49.537,00_bat_bachelor,2022.2.4,60.025348876884635,
,,,,,,,,,,,,0,0,0,0,146,0,146,0,,,,,,,146,,,1,886.062800939224,X,l,go,l,1,0.43141623024712317,,,,,,,,,,,,,,,,,,47,001,20,w,Psychologie,2023-01-19_09h04.49.537,00_bat_bachelor,2022.2.4,60.025348876884635,
,,,,,,,,,,,,0,0,0,0,147,0,147,0,,,,,,,147,,,1,887.5973742557981,Y,d,go,d,1,0.2564810423355084,,,,,,,,,,,,,,,,,,47,001,20,w,Psychologie,2023-01-19_09h04.49.537,00_bat_bachelor,2022.2.4,60.025348876884635,
,,,,,,,,,,,,0,0,0,0,148,0,148,0,,,,,,,148,,,1,888.9648009867524,X,l,go,l,1,0.28197048453148454,,,,,,,,,,,,,,,,,,47,001,20,w,Psychologie,2023-01-19_09h04.49.537,00_bat_bachelor,2022.2.4,60.025348876884635,
,,,,,,,,,,,,0,0,0,0,149,0,149,0,,,,,,,149,,,1,890.3491964367277,Y,d,go,d,1,0.2877033302502241,,,,,,,,,,,,,,,,,,47,001,20,w,Psychologie,2023-01-19_09h04.49.537,00_bat_bachelor,2022.2.4,60.025348876884635,
,,,,,,,,,,,,0,0,0,0,150,0,150,0,,,,,,,150,,,1,891.7504922421649,Y,None,nogo,None,1,,,,,,,,,,,,,,,,,,,47,001,20,w,Psychologie,2023-01-19_09h04.49.537,00_bat_bachelor,2022.2.4,60.025348876884635,
,,,,,,,,,,,,0,0,0,0,151,0,151,0,,,,,,,151,,,1,893.551798035478,X,l,go,l,1,0.17448205180699006,,,,,,,,,,,,,,,,,,47,001,20,w,Psychologie,2023-01-19_09h04.49.537,00_bat_bachelor,2022.2.4,60.025348876884635,
,,,,,,,,,,,,0,0,0,0,152,0,152,0,,,,,,,152,,,1,894.835857049271,Y,d,go,d,1,0.1849237437127158,,,,,,,,,,,,,,,,,,47,001,20,w,Psychologie,2023-01-19_09h04.49.537,00_bat_bachelor,2022.2.4,60.025348876884635,
,,,,,,,,,,,,0,0,0,0,153,0,153,0,,,,,,,153,,,1,896.1371882971143,X,l,go,l,1,0.3091699864889961,,,,,,,,,,,,,,,,,,47,001,20,w,Psychologie,2023-01-19_09h04.49.537,00_bat_bachelor,2022.2.4,60.025348876884635,
,,,,,,,,,,,,0,0,0,0,154,0,154,0,,,,,,,154,,,1,897.5545931856323,X,None,nogo,None,1,,,,,,,,,,,,,,,,,,,47,001,20,w,Psychologie,2023-01-19_09h04.49.537,00_bat_bachelor,2022.2.4,60.025348876884635,
,,,,,,,,,,,,0,0,0,0,155,0,155,0,,,,,,,155,,,1,899.3562863726984,Y,d,go,d,1,0.41781187322339974,,,,,,,,,,,,,,,,,,47,001,20,w,Psychologie,2023-01-19_09h04.49.537,00_bat_bachelor,2022.2.4,60.025348876884635,
,,,,,,,,,,,,0,0,0,0,156,0,156,0,,,,,,,156,,,1,900.8908058711095,X,l,go,l,1,0.24331498809624463,,,,,,,,,,,,,,,,,,47,001,20,w,Psychologie,2023-01-19_09h04.49.537,00_bat_bachelor,2022.2.4,60.025348876884635,
,,,,,,,,,,,,0,0,0,0,157,0,157,0,,,,,,,157,,,1,902.2417972160911,X,None,nogo,None,1,,,,,,,,,,,,,,,,,,,47,001,20,w,Psychologie,2023-01-19_09h04.49.537,00_bat_bachelor,2022.2.4,60.025348876884635,
,,,,,,,,,,,,0,0,0,0,158,0,158,0,,,,,,,158,,,1,904.0432891911187,Y,d,go,d,1,0.24153171625221148,,,,,,,,,,,,,,,,,,47,001,20,w,Psychologie,2023-01-19_09h04.49.537,00_bat_bachelor,2022.2.4,60.025348876884635,
,,,,,,,,,,,,0,0,0,0,159,0,159,0,,,,,,,159,,,1,905.3949748387968,X,l,go,l,1,0.18566022819140926,,,,,,,,,,,,,,,,,,47,001,20,w,Psychologie,2023-01-19_09h04.49.537,00_bat_bachelor,2022.2.4,60.025348876884635,
,,,,,,,,,,,,0,0,0,0,160,0,160,0,,,,,,,160,,,1,906.7292946766829,Y,d,go,d,1,0.24391183629631996,,,,,,,,,,,,,,,,,,47,001,20,w,Psychologie,2023-01-19_09h04.49.537,00_bat_bachelor,2022.2.4,60.025348876884635,
,,,,,,,,,,,,0,0,0,0,161,0,161,0,,,,,,,161,,,1,908.1134874601266,X,l,go,l,1,0.21883209090447053,,,,,,,,,,,,,,,,,,47,001,20,w,Psychologie,2023-01-19_09h04.49.537,00_bat_bachelor,2022.2.4,60.025348876884635,
,,,,,,,,,,,,0,0,0,0,162,0,162,0,,,,,,,162,,,1,909.4649006230757,Y,d,go,d,1,0.29230696434387937,,,,,,,,,,,,,,,,,,47,001,20,w,Psychologie,2023-01-19_09h04.49.537,00_bat_bachelor,2022.2.4,60.025348876884635,
,,,,,,,,,,,,0,0,0,0,163,0,163,0,,,,,,,163,,,1,910.8992805336602,X,l,go,l,1,0.28155303018866107,,,,,,,,,,,,,,,,,,47,001,20,w,Psychologie,2023-01-19_09h04.49.537,00_bat_bachelor,2022.2.4,60.025348876884635,
,,,,,,,,,,,,0,0,0,0,164,0,164,0,,,,,,,164,,,1,912.3170577856654,Y,d,go,d,1,0.2566551028576214,,,,,,,,,,,,,,,,,,47,001,20,w,Psychologie,2023-01-19_09h04.49.537,00_bat_bachelor,2022.2.4,60.025348876884635,
,,,,,,,,,,,,0,0,0,0,165,0,165,0,,,,,,,165,,,1,913.7013407508493,X,l,go,l,1,0.29532369019580074,,,,,,,,,,,,,,,,,,47,001,20,w,Psychologie,2023-01-19_09h04.49.537,00_bat_bachelor,2022.2.4,60.025348876884635,
,,,,,,,,,,,,0,0,0,0,166,0,166,0,,,,,,,166,,,1,915.135746358399,Y,d,go,d,1,0.25322625605622306,,,,,,,,,,,,,,,,,,47,001,20,w,Psychologie,2023-01-19_09h04.49.537,00_bat_bachelor,2022.2.4,60.025348876884635,
,,,,,,,,,,,,0,0,0,0,167,0,167,0,,,,,,,167,,,1,916.5199333236669,X,l,go,l,1,0.3567544482939411,,,,,,,,,,,,,,,,,,47,001,20,w,Psychologie,2023-01-19_09h04.49.537,00_bat_bachelor,2022.2.4,60.025348876884635,
,,,,,,,,,,,,0,0,0,0,168,0,168,0,,,,,,,168,,,1,918.0211733230681,Y,d,go,d,1,0.3440281514194794,,,,,,,,,,,,,,,,,,47,001,20,w,Psychologie,2023-01-19_09h04.49.537,00_bat_bachelor,2022.2.4,60.025348876884635,
,,,,,,,,,,,,0,0,0,0,169,0,169,0,,,,,,,169,,,1,919.5059764819453,X,l,go,l,1,0.34785457380348817,,,,,,,,,,,,,,,,,,47,001,20,w,Psychologie,2023-01-19_09h04.49.537,00_bat_bachelor,2022.2.4,60.025348876884635,
,,,,,,,,,,,,0,0,0,0,170,0,170,0,,,,,,,170,,,1,920.9734492249845,Y,d,go,d,1,0.3035627164936159,,,,,,,,,,,,,,,,,,47,001,20,w,Psychologie,2023-01-19_09h04.49.537,00_bat_bachelor,2022.2.4,60.025348876884635,
,,,,,,,,,,,,0,0,0,0,171,0,171,0,,,,,,,171,,,1,922.4244027032983,X,l,go,l,1,0.2936039334454108,,,,,,,,,,,,,,,,,,47,001,20,w,Psychologie,2023-01-19_09h04.49.537,00_bat_bachelor,2022.2.4,60.025348876884635,
,,,,,,,,,,,,0,0,0,0,172,0,172,0,,,,,,,172,,,1,923.8421474704519,X,None,nogo,None,1,,924.6432132638874,,,,,,,,,,,,,,,,,47,001,20,w,Psychologie,2023-01-19_09h04.49.537,00_bat_bachelor,2022.2.4,60.025348876884635,
,,,,,,,,,,,,0,0,0,0,173,0,173,0,,,,,,,173,,,1,925.6433650213876,Y,d,go,d,1,0.3066269574337639,,,,,,,,,,,,,,,,,,47,001,20,w,Psychologie,2023-01-19_09h04.49.537,00_bat_bachelor,2022.2.4,60.025348876884635,
,,,,,,,,,,,,0,0,0,0,174,0,174,0,,,,,,,174,,,1,927.0611223946034,X,l,go,l,1,0.21765293995849788,,,,,,,,,,,,,,,,,,47,001,20,w,Psychologie,2023-01-19_09h04.49.537,00_bat_bachelor,2022.2.4,60.025348876884635,
,,,,,,,,,,,,0,0,0,0,175,0,175,0,,,,,,,175,,,1,928.3954213840188,Y,d,go,d,1,0.3058119275374338,,,,,,,,,,,,,,,,,,47,001,20,w,Psychologie,2023-01-19_09h04.49.537,00_bat_bachelor,2022.2.4,60.025348876884635,
,,,,,,,,,,,,0,0,0,0,176,0,176,0,,,,,,,176,,,1,929.8131613027072,Y,None,nogo,None,1,,930.6134484298236,,,,,,,,,,,,,,,,,47,001,20,w,Psychologie,2023-01-19_09h04.49.537,00_bat_bachelor,2022.2.4,60.025348876884635,
,,,,,,,,,,,,0,0,0,0,177,0,177,0,,,,,,,177,,,1,931.6141533991904,X,l,go,l,1,0.23980468680383638,,,,,,,,,,,,,,,,,,47,001,20,w,Psychologie,2023-01-19_09h04.49.537,00_bat_bachelor,2022.2.4,60.025348876884635,
,,,,,,,,,,,,0,0,0,0,178,0,178,0,,,,,,,178,,,1,932.965300380456,Y,d,go,d,1,0.20086652383906767,,,,,,,,,,,,,,,,,,47,001,20,w,Psychologie,2023-01-19_09h04.49.537,00_bat_bachelor,2022.2.4,60.025348876884635,
,,,,,,,,,,,,0,0,0,0,179,0,179,0,,,,,,,179,,,1,934.2831106506055,Y,None,nogo,None,1,,935.0836450503557,,,,,,,,,,,,,,,,,47,001,20,w,Psychologie,2023-01-19_09h04.49.537,00_bat_bachelor,2022.2.4,60.025348876884635,
,,,,,,,,,,,,0,0,0,0,180,0,180,0,,,,,,,180,,,1,936.0845051711367,X,l,go,l,1,0.5690321635338478,,,,,,,,,,,,,,,,,,47,001,20,w,Psychologie,2023-01-19_09h04.49.537,00_bat_bachelor,2022.2.4,60.025348876884635,
,,,,,,,,,,,,0,0,0,0,181,0,181,0,,,,,,,181,,,1,937.7690730816394,Y,d,go,d,1,0.24577413845690899,,,,,,,,,,,,,,,,,,47,001,20,w,Psychologie,2023-01-19_09h04.49.537,00_bat_bachelor,2022.2.4,60.025348876884635,
,,,,,,,,,,,,0,0,0,0,182,0,182,0,,,,,,,182,,,1,939.1201856386906,X,l,go,l,1,0.2695229754317552,,,,,,,,,,,,,,,,,,47,001,20,w,Psychologie,2023-01-19_09h04.49.537,00_bat_bachelor,2022.2.4,60.025348876884635,
,,,,,,,,,,,,0,0,0,0,183,0,183,0,,,,,,,183,,,1,940.5043061797041,Y,d,go,d,1,0.2308956001943443,,,,,,,,,,,,,,,,,,47,001,20,w,Psychologie,2023-01-19_09h04.49.537,00_bat_bachelor,2022.2.4,60.025348876884635,
,,,,,,,,,,,,0,0,0,0,184,0,184,0,,,,,,,184,,,1,941.8387462599785,X,l,go,l,1,0.3029498683172278,,,,,,,,,,,,,,,,,,47,001,20,w,Psychologie,2023-01-19_09h04.49.537,00_bat_bachelor,2022.2.4,60.025348876884635,
,,,,,,,,,,,,0,0,0,0,185,0,185,0,,,,,,,185,,,1,943.2563872696192,Y,d,go,d,1,0.27781533502275124,,,,,,,,,,,,,,,,,,47,001,20,w,Psychologie,2023-01-19_09h04.49.537,00_bat_bachelor,2022.2.4,60.025348876884635,
,,,,,,,,,,,,0,0,0,0,186,0,186,0,,,,,,,186,,,1,944.6407638105156,X,l,go,l,1,0.25308128641336225,,,,,,,,,,,,,,,,,,47,001,20,w,Psychologie,2023-01-19_09h04.49.537,00_bat_bachelor,2022.2.4,60.025348876884635,
,,,,,,,,,,,,0,0,0,0,187,0,187,0,,,,,,,187,,,1,946.0084635110397,Y,d,go,d,1,0.2137256691348739,,,,,,,,,,,,,,,,,,47,001,20,w,Psychologie,2023-01-19_09h04.49.537,00_bat_bachelor,2022.2.4,60.025348876884635,
,,,,,,,,,,,,0,0,0,0,188,0,188,0,,,,,,,188,,,1,947.3261215388484,X,l,go,l,1,0.2083642171928659,,,,,,,,,,,,,,,,,,47,001,20,w,Psychologie,2023-01-19_09h04.49.537,00_bat_bachelor,2022.2.4,60.025348876884635,
,,,,,,,,,,,,0,0,0,0,189,0,189,0,,,,,,,189,,,1,948.6435095061606,X,None,nogo,None,1,,949.4441166331526,,,,,,,,,,,,,,,,,47,001,20,w,Psychologie,2023-01-19_09h04.49.537,00_bat_bachelor,2022.2.4,60.025348876884635,
,,,,,,,,,,,,0,0,0,0,190,0,190,0,,,,,,,190,,,1,950.4448952994426,Y,d,go,d,1,0.20892373207607307,,,,,,,,,,,,,,,,,,47,001,20,w,Psychologie,2023-01-19_09h04.49.537,00_bat_bachelor,2022.2.4,60.025348876884635,
,,,,,,,,,,,,0,0,0,0,191,0,191,0,,,,,,,191,,,1,951.7628364786215,X,l,go,l,1,0.23465123475762084,,,,,,,,,,,,,,,,,,47,001,20,w,Psychologie,2023-01-19_09h04.49.537,00_bat_bachelor,2022.2.4,60.025348876884635,
,,,,,,,,,,,,0,0,0,0,192,0,192,0,,,,,,,192,,,1,953.1136872175848,Y,d,go,d,1,0.21294894223683514,,,,,,,,,,,,,,,,,,47,001,20,w,Psychologie,2023-01-19_09h04.49.537,00_bat_bachelor,2022.2.4,60.025348876884635,
,,,,,,,,,,,,0,0,0,0,193,0,193,0,,,,,,,193,,,1,954.4315396695456,Y,None,nogo,None,1,,,,,,,,,,,,,,,,,,,47,001,20,w,Psychologie,2023-01-19_09h04.49.537,00_bat_bachelor,2022.2.4,60.025348876884635,
,,,,,,,,,,,,0,0,0,0,194,0,194,0,,,,,,,194,,,1,956.2326796447451,X,l,go,l,1,0.29266041875234805,,,,,,,,,,,,,,,,,,47,001,20,w,Psychologie,2023-01-19_09h04.49.537,00_bat_bachelor,2022.2.4,60.025348876884635,
,,,,,,,,,,,,0,0,0,0,195,0,195,0,,,,,,,195,,,1,957.6339085411164,Y,d,go,d,1,0.17200932573177852,,,,,,,,,,,,,,,,,,47,001,20,w,Psychologie,2023-01-19_09h04.49.537,00_bat_bachelor,2022.2.4,60.025348876884635,
,,,,,,,,,,,,0,0,0,0,196,0,196,0,,,,,,,196,,,1,958.9180979790981,X,l,go,l,1,0.24865559159661643,,,,,,,,,,,,,,,,,,47,001,20,w,Psychologie,2023-01-19_09h04.49.537,00_bat_bachelor,2022.2.4,60.025348876884635,
,,,,,,,,,,,,0,0,0,0,197,0,197,0,,,,,,,197,,,1,960.2690437483252,X,None,nogo,None,1,,,,,,,,,,,,,,,,,,,47,001,20,w,Psychologie,2023-01-19_09h04.49.537,00_bat_bachelor,2022.2.4,60.025348876884635,
,,,,,,,,,,,,0,0,0,0,198,0,198,0,,,,,,,198,,,1,962.0705255415523,Y,d,go,d,1,0.1994415548397228,,,,,,,,,,,,,,,,,,47,001,20,w,Psychologie,2023-01-19_09h04.49.537,00_bat_bachelor,2022.2.4,60.025348876884635,
,,,,,,,,,,,,0,0,0,0,199,0,199,0,,,,,,,199,,,1,963.371453880507,X,l,go,l,1,0.2421581402013544,,,,,,,,,,,,,,,,,,47,001,20,w,Psychologie,2023-01-19_09h04.49.537,00_bat_bachelor,2022.2.4,60.025348876884635,
,,,,,,,,,,,,0,0,0,0,200,0,200,0,,,,,,,200,,,1,964.7226784374798,X,None,nogo,None,1,,,,,,,,,,,,,,,,,,,47,001,20,w,Psychologie,2023-01-19_09h04.49.537,00_bat_bachelor,2022.2.4,60.025348876884635,
,,,,,,,,,,,,0,0,0,0,201,0,201,0,,,,,,,201,,,1,966.5241272610147,Y,d,go,d,1,0.49850128864636645,,,,,,,,,,,,,,,,,,47,001,20,w,Psychologie,2023-01-19_09h04.49.537,00_bat_bachelor,2022.2.4,60.025348876884635,
,,,,,,,,,,,,0,0,0,0,202,0,202,0,,,,,,,202,,,1,968.1253531513212,X,l,go,l,1,0.30459592808620073,,,,,,,,,,,,,,,,,,47,001,20,w,Psychologie,2023-01-19_09h04.49.537,00_bat_bachelor,2022.2.4,60.025348876884635,
,,,,,,,,,,,,0,0,0,0,203,0,203,0,,,,,,,203,,,1,969.5427682216687,X,None,nogo,None,1,,,,,,,,,,,,,,,,,,,47,001,20,w,Psychologie,2023-01-19_09h04.49.537,00_bat_bachelor,2022.2.4,60.025348876884635,
,,,,,,,,,,,,0,0,0,0,204,0,204,0,,,,,,,204,,,1,971.3441404391779,X,None,nogo,l,0,0.3819946784642525,,,,,,,,,,,,,,,,,,47,001,20,w,Psychologie,2023-01-19_09h04.49.537,00_bat_bachelor,2022.2.4,60.025348876884635,
,,,,,,,,,,,,0,0,0,0,205,0,205,0,,,,,,,205,,,1,972.8288151132874,Y,d,go,d,1,0.4172877522651106,,,,,,,,,,,,,,,,,,47,001,20,w,Psychologie,2023-01-19_09h04.49.537,00_bat_bachelor,2022.2.4,60.025348876884635,
,,,,,,,,,,,,0,0,0,0,206,0,206,0,,,,,,,206,,,1,974.3464948622859,X,l,go,l,1,0.24373826064402238,,,,,,,,,,,,,,,,,,47,001,20,w,Psychologie,2023-01-19_09h04.49.537,00_bat_bachelor,2022.2.4,60.025348876884635,
,,,,,,,,,,,,0,0,0,0,207,0,207,0,,,,,,,207,,,1,975.69780232833,Y,d,go,d,1,0.1554735761601478,,,,,,,,,,,,,,,,,,47,001,20,w,Psychologie,2023-01-19_09h04.49.537,00_bat_bachelor,2022.2.4,60.025348876884635,
,,,,,,,,,,,,0,0,0,0,208,0,208,0,,,,,,,208,,,1,976.9653997743444,Y,None,nogo,l,0,0.20065900881309062,,,,,,,,,,,,,,,,,,47,001,20,w,Psychologie,2023-01-19_09h04.49.537,00_bat_bachelor,2022.2.4,60.025348876884635,
,,,,,,,,,,,,0,0,0,0,209,0,209,0,,,,,,,209,,,1,978.2837128321407,X,l,go,l,1,0.36934595729690045,,,,,,,,,,,,,,,,,,47,001,20,w,Psychologie,2023-01-19_09h04.49.537,00_bat_bachelor,2022.2.4,60.025348876884635,
,,,,,,,,,,,,0,0,0,0,210,0,210,0,,,,,,,210,,,1,979.7850013163406,Y,d,go,d,1,0.24562238092767075,,,,,,,,,,,,,,,,,,47,001,20,w,Psychologie,2023-01-19_09h04.49.537,00_bat_bachelor,2022.2.4,60.025348876884635,
,,,,,,,,,,,,0,0,0,0,211,0,211,0,,,,,,,211,,,1,981.1356804190436,X,l,go,l,1,0.22124469580012374,,,,,,,,,,,,,,,,,,47,001,20,w,Psychologie,2023-01-19_09h04.49.537,00_bat_bachelor,2022.2.4,60.025348876884635,
,,,,,,,,,,,,0,0,0,0,212,0,212,0,,,,,,,212,,,1,982.4866863094794,Y,d,go,d,1,0.31030453139101155,,,,,,,,,,,,,,,,,,47,001,20,w,Psychologie,2023-01-19_09h04.49.537,00_bat_bachelor,2022.2.4,60.025348876884635,
,,,,,,,,,,,,0,0,0,0,213,0,213,0,,,,,,,213,,,1,983.9213668259908,X,l,go,l,1,0.28412175620906055,,,,,,,,,,,,,,,,,,47,001,20,w,Psychologie,2023-01-19_09h04.49.537,00_bat_bachelor,2022.2.4,60.025348876884635,
,,,,,,,,,,,,0,0,0,0,214,0,214,0,,,,,,,214,,,1,985.305770033563,Y,d,go,d,1,0.2431661397276912,,,,,,,,,,,,,,,,,,47,001,20,w,Psychologie,2023-01-19_09h04.49.537,00_bat_bachelor,2022.2.4,60.025348876884635,
,,,,,,,,,,,,0,0,0,0,215,0,215,0,,,,,,,215,,,1,986.6734721582907,Y,None,nogo,None,1,,987.4738868005225,,,,,,,,,,,,,,,,,47,001,20,w,Psychologie,2023-01-19_09h04.49.537,00_bat_bachelor,2022.2.4,60.025348876884635,
,,,,,,,,,,,,0,0,0,0,216,0,216,0,,,,,,,216,,,1,988.4749316484958,X,l,go,l,1,0.19466046628076583,,,,,,,,,,,,,,,,,,47,001,20,w,Psychologie,2023-01-19_09h04.49.537,00_bat_bachelor,2022.2.4,60.025348876884635,
,,,,,,,,,,,,0,0,0,0,217,0,217,0,,,,,,,217,,,1,989.7922905249288,Y,d,go,d,1,0.1889586508332286,,,,,,,,,,,,,,,,,,47,001,20,w,Psychologie,2023-01-19_09h04.49.537,00_bat_bachelor,2022.2.4,60.025348876884635,
,,,,,,,,,,,,0,0,0,0,218,0,218,0,,,,,,,218,,,1,991.109966007265,Y,None,nogo,None,1,,991.9105067100318,,,,,,,,,,,,,,,,,47,001,20,w,Psychologie,2023-01-19_09h04.49.537,00_bat_bachelor,2022.2.4,60.025348876884635,
,,,,,,,,,,,,0,0,0,0,219,0,219,0,,,,,,,219,,,1,992.9113231945084,X,l,go,l,1,0.15777078716200776,,,,,,,,,,,,,,,,,,47,001,20,w,Psychologie,2023-01-19_09h04.49.537,00_bat_bachelor,2022.2.4,60.025348876884635,
,,,,,,,,,,,,0,0,0,0,220,0,220,0,,,,,,,220,,,1,994.1955717839592,Y,d,go,d,1,0.2817401816137135,,,,,,,,,,,,,,,,,,47,001,20,w,Psychologie,2023-01-19_09h04.49.537,00_bat_bachelor,2022.2.4,60.025348876884635,
,,,,,,,,,,,,0,0,0,0,221,0,221,0,,,,,,,221,,,1,995.5799454157823,X,l,go,l,1,0.3535859649418853,,,,,,,,,,,,,,,,,,47,001,20,w,Psychologie,2023-01-19_09h04.49.537,00_bat_bachelor,2022.2.4,60.025348876884635,
,,,,,,,,,,,,0,0,0,0,222,0,222,0,,,,,,,222,,,1,997.0475980375195,Y,d,go,d,1,0.21435936581110582,,,,,,,,,,,,,,,,,,47,001,20,w,Psychologie,2023-01-19_09h04.49.537,00_bat_bachelor,2022.2.4,60.025348876884635,
,,,,,,,,,,,,0,0,0,0,223,0,223,0,,,,,,,223,,,1,998.3649593381851,Y,None,nogo,None,1,,,,,,,,,,,,,,,,,,,47,001,20,w,Psychologie,2023-01-19_09h04.49.537,00_bat_bachelor,2022.2.4,60.025348876884635,
,,,,,,,,,,,,0,0,0,0,224,0,224,0,,,,,,,224,,,1,1000.1665187071194,X,l,go,l,1,0.4080722415819764,,,,,,,,,,,,,,,,,,47,001,20,w,Psychologie,2023-01-19_09h04.49.537,00_bat_bachelor,2022.2.4,60.025348876884635,
,,,,,,,,,,,,0,0,0,0,225,0,225,0,,,,,,,225,,,1,1001.6843565166637,Y,d,go,d,1,0.23373535642167553,,,,,,,,,,,,,,,,,,47,001,20,w,Psychologie,2023-01-19_09h04.49.537,00_bat_bachelor,2022.2.4,60.025348876884635,
,,,,,,,,,,,,0,0,0,0,226,0,226,0,,,,,,,226,,,1,1003.0187117485038,X,l,go,l,1,0.27475885167950764,,,,,,,,,,,,,,,,,,47,001,20,w,Psychologie,2023-01-19_09h04.49.537,00_bat_bachelor,2022.2.4,60.025348876884635,
,,,,,,,,,,,,0,0,0,0,227,0,227,0,,,,,,,227,,,1,1004.4029433197866,Y,d,go,d,1,0.2659515832201578,,,,,,,,,,,,,,,,,,47,001,20,w,Psychologie,2023-01-19_09h04.49.537,00_bat_bachelor,2022.2.4,60.025348876884635,
,,,,,,,,,,,,0,0,0,0,228,0,228,0,,,,,,,228,,,1,1005.7706439899921,X,l,go,l,1,0.2595094045100268,,,,,,,,,,,,,,,,,,47,001,20,w,Psychologie,2023-01-19_09h04.49.537,00_bat_bachelor,2022.2.4,60.025348876884635,
,,,,,,,,,,,,0,0,0,0,229,0,229,0,,,,,,,229,,,1,1007.1383102359541,Y,d,go,d,1,0.23536396169220097,,,,,,,,,,,,,,,,,,47,001,20,w,Psychologie,2023-01-19_09h04.49.537,00_bat_bachelor,2022.2.4,60.025348876884635,
,,,,,,,,,,,,0,0,0,0,230,0,230,0,,,,,,,230,,,1,1008.4895881262491,X,l,go,l,1,0.21175427615526132,,,,,,,,,,,,,,,,,,47,001,20,w,Psychologie,2023-01-19_09h04.49.537,00_bat_bachelor,2022.2.4,60.025348876884635,
,,,,,,,,,,,,0,0,0,0,231,0,231,0,,,,,,,231,,,1,1009.8072131843655,X,None,nogo,d,0,0.25437340699136257,,,,,,,,,,,,,,,,,,47,001,20,w,Psychologie,2023-01-19_09h04.49.537,00_bat_bachelor,2022.2.4,60.025348876884635,
,,,,,,,,,,,,0,0,0,0,232,0,232,0,,,,,,,232,,,1,1011.1749022182194,Y,d,go,d,1,0.3122085304639768,,,,,,,,,,,,,,,,,,47,001,20,w,Psychologie,2023-01-19_09h04.49.537,00_bat_bachelor,2022.2.4,60.025348876884635,
,,,,,,,,,,,,0,0,0,0,233,0,233,0,,,,,,,233,,,1,1012.5926145005506,X,l,go,l,1,0.36539783800253645,,,,,,,,,,,,,,,,,,47,001,20,w,Psychologie,2023-01-19_09h04.49.537,00_bat_bachelor,2022.2.4,60.025348876884635,
,,,,,,,,,,,,0,0,0,0,234,0,234,0,,,,,,,234,,,1,1014.0604329403723,Y,d,go,d,1,0.24169607984367758,,,,,,,,,,,,,,,,,,47,001,20,w,Psychologie,2023-01-19_09h04.49.537,00_bat_bachelor,2022.2.4,60.025348876884635,
,,,,,,,,,,,,0,0,0,0,235,0,235,0,,,,,,,235,,,1,1015.4114567701763,X,l,go,l,1,0.21799572766758502,,,,,,,,,,,,,,,,,,47,001,20,w,Psychologie,2023-01-19_09h04.49.537,00_bat_bachelor,2022.2.4,60.025348876884635,
,,,,,,,,,,,,0,0,0,0,236,0,236,0,,,,,,,236,,,1,1016.7458338201977,X,None,nogo,None,1,,1017.5464530683821,,,,,,,,,,,,,,,,,47,001,20,w,Psychologie,2023-01-19_09h04.49.537,00_bat_bachelor,2022.2.4,60.025348876884635,
,,,,,,,,,,,,0,0,0,0,237,0,237,0,,,,,,,237,,,1,1018.5471924619633,X,None,nogo,None,1,,1019.3478383767942,,,,,,,,,,,,,,,,,47,001,20,w,Psychologie,2023-01-19_09h04.49.537,00_bat_bachelor,2022.2.4,60.025348876884635,
,,,,,,,,,,,,0,0,0,0,238,0,238,0,,,,,,,238,,,1,1020.3486839521502,Y,d,go,d,1,0.28947254150989465,,,,,,,,,,,,,,,,,,47,001,20,w,Psychologie,2023-01-19_09h04.49.537,00_bat_bachelor,2022.2.4,60.025348876884635,
,,,,,,,,,,,,0,0,0,0,239,0,239,0,,,,,,,239,,,1,1021.7496122425946,X,l,go,l,1,0.200746281479951,,,,,,,,,,,,,,,,,,47,001,20,w,Psychologie,2023-01-19_09h04.49.537,00_bat_bachelor,2022.2.4,60.025348876884635,
,,,,,,,,,,,,0,0,0,0,240,0,240,0,,,,,,,240,,,1,1023.0671233613684,X,None,nogo,d,0,0.2424364430771675,,,,,,,,,,,,,,,,,,47,001,20,w,Psychologie,2023-01-19_09h04.49.537,00_bat_bachelor,2022.2.4,60.025348876884635,
,,,,,,,,,,,,0,0,0,0,241,0,241,0,,,,,,,241,,,1,1024.4181937366084,Y,d,go,d,1,0.1715569623047486,,,,,,,,,,,,,,,,,,47,001,20,w,Psychologie,2023-01-19_09h04.49.537,00_bat_bachelor,2022.2.4,60.025348876884635,
,,,,,,,,,,,,0,0,0,0,242,0,242,0,,,,,,,242,,,1,1025.7026639017276,X,l,go,l,1,0.31046841011266224,,,,,,,,,,,,,,,,,,47,001,20,w,Psychologie,2023-01-19_09h04.49.537,00_bat_bachelor,2022.2.4,60.025348876884635,
,,,,,,,,,,,,0,0,0,0,243,0,243,0,,,,,,,243,,,1,1027.1204319415847,X,None,nogo,d,0,0.3176645278581418,,,,,,,,,,,,,,,,,,47,001,20,w,Psychologie,2023-01-19_09h04.49.537,00_bat_bachelor,2022.2.4,60.025348876884635,
,,,,,,,,,,,,0,0,0,0,244,0,244,0,,,,,,,244,,,1,1028.5547037310316,Y,d,go,d,1,0.22766117751598358,,,,,,,,,,,,,,,,,,47,001,20,w,Psychologie,2023-01-19_09h04.49.537,00_bat_bachelor,2022.2.4,60.025348876884635,
,,,,,,,,,,,,0,0,0,0,245,0,245,0,,,,,,,245,,,1,1029.889193750685,X,l,go,l,1,0.46062688273377717,,,,,,,,,,,,,,,,,,47,001,20,w,Psychologie,2023-01-19_09h04.49.537,00_bat_bachelor,2022.2.4,60.025348876884635,
,,,,,,,,,,,,0,0,0,0,246,0,246,0,,,,,,,246,,,1,1031.4570577177801,Y,d,go,d,1,0.2853459980688058,,,,,,,,,,,,,,,,,,47,001,20,w,Psychologie,2023-01-19_09h04.49.537,00_bat_bachelor,2022.2.4,60.025348876884635,
,,,,,,,,,,,,0,0,0,0,247,0,247,0,,,,,,,247,,,1,1032.8578376446676,X,l,go,l,1,0.2607229796703905,,,,,,,,,,,,,,,,,,47,001,20,w,Psychologie,2023-01-19_09h04.49.537,00_bat_bachelor,2022.2.4,60.025348876884635,
,,,,,,,,,,,,0,0,0,0,248,0,248,0,,,,,,,248,,,1,1034.2256954057084,Y,d,go,d,1,0.21981002984102815,,,,,,,,,,,,,,,,,,47,001,20,w,Psychologie,2023-01-19_09h04.49.537,00_bat_bachelor,2022.2.4,60.025348876884635,
,,,,,,,,,,,,0,0,0,0,249,0,249,0,,,,,,,249,,,1,1035.5599449406145,X,l,go,l,1,0.21392639633268118,,,,,,,,,,,,,,,,,,47,001,20,w,Psychologie,2023-01-19_09h04.49.537,00_bat_bachelor,2022.2.4,60.025348876884635,
,,,,,,,,,,,,1,0,1,0,0,0,0,0,,,,,,,0,,,0.2,1049.5370450729388,X,l,go,l,1,0.4295844735461287,,,,,,,,,1035.8826618750463,space,13.431286775768967,,,,,,,47,001,20,w,Psychologie,2023-01-19_09h04.49.537,00_bat_bachelor,2022.2.4,60.025348876884635,
,,,,,,,,,,,,1,0,1,0,1,0,1,0,,,,,,,1,,,0.2,1050.2712556260522,Y,d,go,d,1,0.3825527387962211,,,,,,,,,,,,,,,,,,47,001,20,w,Psychologie,2023-01-19_09h04.49.537,00_bat_bachelor,2022.2.4,60.025348876884635,
,,,,,,,,,,,,1,0,1,0,2,0,2,0,,,,,,,2,,,0.2,1050.955059415719,X,l,go,l,1,0.3866676459147129,,,,,,,,,,,,,,,,,,47,001,20,w,Psychologie,2023-01-19_09h04.49.537,00_bat_bachelor,2022.2.4,60.025348876884635,
,,,,,,,,,,,,1,0,1,0,3,0,3,0,,,,,,,3,,,0.2,1051.655457136745,X,None,nogo,None,1,,,,,,,,,,,,,,,,,,,47,001,20,w,Psychologie,2023-01-19_09h04.49.537,00_bat_bachelor,2022.2.4,60.025348876884635,
,,,,,,,,,,,,1,0,1,0,4,0,4,0,,,,,,,4,,,0.2,1052.6571235601732,Y,d,go,d,1,0.5243150943133514,,,,,,,,,,,,,,,,,,47,001,20,w,Psychologie,2023-01-19_09h04.49.537,00_bat_bachelor,2022.2.4,60.025348876884635,
,,,,,,,,,,,,1,0,1,0,5,0,5,0,,,,,,,5,,,0.2,1053.5242848366906,X,l,go,None,0,,1054.3253031149798,,,,,,,,,,,,,,,,,47,001,20,w,Psychologie,2023-01-19_09h04.49.537,00_bat_bachelor,2022.2.4,60.025348876884635,
,,,,,,,,,,,,1,0,1,0,6,0,6,0,,,,,,,6,,,0.2,1054.5252467756218,Y,d,go,None,0,,1055.326038629777,,,,,,,,,,,,,,,,,47,001,20,w,Psychologie,2023-01-19_09h04.49.537,00_bat_bachelor,2022.2.4,60.025348876884635,
,,,,,,,,,,,,1,0,1,0,7,0,7,0,,,,,,,7,,,0.2,1055.525923138921,X,l,go,l,1,0.5665337404934689,,,,,,,,,,,,,,,,,,47,001,20,w,Psychologie,2023-01-19_09h04.49.537,00_bat_bachelor,2022.2.4,60.025348876884635,
,,,,,,,,,,,,1,0,1,0,8,0,8,0,,,,,,,8,,,0.2,1056.426361005375,Y,d,go,d,1,0.35504875212791376,,,,,,,,,,,,,,,,,,47,001,20,w,Psychologie,2023-01-19_09h04.49.537,00_bat_bachelor,2022.2.4,60.025348876884635,
,,,,,,,,,,,,1,0,1,0,9,0,9,0,,,,,,,9,,,0.2,1057.1099281891074,X,l,go,l,1,0.3274017352377996,,,,,,,,,,,,,,,,,,47,001,20,w,Psychologie,2023-01-19_09h04.49.537,00_bat_bachelor,2022.2.4,60.025348876884635,
,,,,,,,,,,,,1,0,1,0,10,0,10,0,,,,,,,10,,,0.2,1057.7437562454434,X,None,nogo,None,1,,,,,,,,,,,,,,,,,,,47,001,20,w,Psychologie,2023-01-19_09h04.49.537,00_bat_bachelor,2022.2.4,60.025348876884635,
,,,,,,,,,,,,1,0,1,0,11,0,11,0,,,,,,,11,,,0.2,1058.7445247299038,Y,d,go,d,1,0.3419563948409632,,,,,,,,,,,,,,,,,,47,001,20,w,Psychologie,2023-01-19_09h04.49.537,00_bat_bachelor,2022.2.4,60.025348876884635,
,,,,,,,,,,,,1,0,1,0,12,0,12,0,,,,,,,12,,,0.2,1059.3950199296814,X,l,go,l,1,0.3149833170173224,,,,,,,,,,,,,,,,,,47,001,20,w,Psychologie,2023-01-19_09h04.49.537,00_bat_bachelor,2022.2.4,60.025348876884635,
,,,,,,,,,,,,1,0,1,0,13,0,13,0,,,,,,,13,,,0.2,1060.0121289638046,X,None,nogo,None,1,,1060.8125518484449,,,,,,,,,,,,,,,,,47,001,20,w,Psychologie,2023-01-19_09h04.49.537,00_bat_bachelor,2022.2.4,60.025348876884635,
,,,,,,,,,,,,1,0,1,0,14,0,14,0,,,,,,,14,,,0.2,1061.0127335695724,Y,d,go,d,1,0.42545453619095497,,,,,,,,,,,,,,,,,,47,001,20,w,Psychologie,2023-01-19_09h04.49.537,00_bat_bachelor,2022.2.4,60.025348876884635,
,,,,,,,,,,,,1,0,1,0,15,0,15,0,,,,,,,15,,,0.2,1061.7467351530795,X,l,go,l,1,0.28278212051372975,,,,,,,,,,,,,,,,,,47,001,20,w,Psychologie,2023-01-19_09h04.49.537,00_bat_bachelor,2022.2.4,60.025348876884635,
,,,,,,,,,,,,1,0,1,0,16,0,16,0,,,,,,,16,,,0.2,1062.3303848094947,X,None,nogo,None,1,,,,,,,,,,,,,,,,,,,47,001,20,w,Psychologie,2023-01-19_09h04.49.537,00_bat_bachelor,2022.2.4,60.025348876884635,
,,,,,,,,,,,,1,0,1,0,17,0,17,0,,,,,,,17,,,0.2,1063.3313418999314,Y,d,go,d,1,0.4427961035107728,,,,,,,,,,,,,,,,,,47,001,20,w,Psychologie,2023-01-19_09h04.49.537,00_bat_bachelor,2022.2.4,60.025348876884635,
,,,,,,,,,,,,1,0,1,0,18,0,18,0,,,,,,,18,,,0.2,1064.0819829905522,X,l,go,l,1,0.5082307384582236,,,,,,,,,,,,,,,,,,47,001,20,w,Psychologie,2023-01-19_09h04.49.537,00_bat_bachelor,2022.2.4,60.025348876884635,
,,,,,,,,,,,,1,0,1,0,19,0,19,0,,,,,,,19,,,0.2,1064.899238351878,Y,d,go,d,1,0.4277071411488578,,,,,,,,,,,,,,,,,,47,001,20,w,Psychologie,2023-01-19_09h04.49.537,00_bat_bachelor,2022.2.4,60.025348876884635,
,,,,,,,,,,,,1,0,1,0,20,0,20,0,,,,,,,20,,,0.2,1065.6328782385972,X,l,go,None,0,,1066.4335343352577,,,,,,,,,,,,,,,,,47,001,20,w,Psychologie,2023-01-19_09h04.49.537,00_bat_bachelor,2022.2.4,60.025348876884635,
,,,,,,,,,,,,1,0,1,0,21,0,21,0,,,,,,,21,,,0.2,1066.6337412684807,Y,d,go,d,1,0.3410865770711098,,,,,,,,,,,,,,,,,,47,001,20,w,Psychologie,2023-01-19_09h04.49.537,00_bat_bachelor,2022.2.4,60.025348876884635,
,,,,,,,,,,,,1,0,1,0,22,0,22,0,,,,,,,22,,,0.2,1067.2841521046357,Y,None,nogo,None,1,,,,,,,,,,,,,,,,,,,47,001,20,w,Psychologie,2023-01-19_09h04.49.537,00_bat_bachelor,2022.2.4,60.025348876884635,
,,,,,,,,,,,,1,0,1,0,23,0,23,0,,,,,,,23,,,0.2,1068.2850883466017,X,l,go,l,1,0.5118995851662476,,,,,,,,,,,,,,,,,,47,001,20,w,Psychologie,2023-01-19_09h04.49.537,00_bat_bachelor,2022.2.4,60.025348876884635,
,,,,,,,,,,,,1,0,1,0,24,0,24,0,,,,,,,24,,,0.2,1069.1024755866674,Y,d,go,d,1,0.38352825347101316,,,,,,,,,,,,,,,,,,47,001,20,w,Psychologie,2023-01-19_09h04.49.537,00_bat_bachelor,2022.2.4,60.025348876884635,
,,,,,,,,,,,,1,0,1,0,25,0,25,0,,,,,,,25,,,0.2,1069.7862813157262,Y,None,nogo,None,1,,1070.5864094126446,,,,,,,,,,,,,,,,,47,001,20,w,Psychologie,2023-01-19_09h04.49.537,00_bat_bachelor,2022.2.4,60.025348876884635,
,,,,,,,,,,,,1,0,1,0,26,0,26,0,,,,,,,26,,,0.2,1070.7868946487724,Y,None,nogo,l,0,0.18697562150191516,,,,,,,,,,,,,,,,,,47,001,20,w,Psychologie,2023-01-19_09h04.49.537,00_bat_bachelor,2022.2.4,60.025348876884635,
,,,,,,,,,,,,1,0,1,0,27,0,27,0,,,,,,,27,,,0.2,1071.287194042554,X,l,go,None,0,,,,,,,,,,,,,,,,,,,47,001,20,w,Psychologie,2023-01-19_09h04.49.537,00_bat_bachelor,2022.2.4,60.025348876884635,
,,,,,,,,,,,,1,0,1,0,28,0,28,0,,,,,,,28,,,0.2,1072.287979981571,Y,d,go,None,0,,1073.0883136541524,,,,,,,,,,,,,,,,,47,001,20,w,Psychologie,2023-01-19_09h04.49.537,00_bat_bachelor,2022.2.4,60.025348876884635,
,,,,,,,,,,,,1,0,1,0,29,0,29,0,,,,,,,29,,,0.2,1073.2887630114856,Y,None,nogo,d,0,0.35825165966525674,,,,,,,,,,,,,,,,,,47,001,20,w,Psychologie,2023-01-19_09h04.49.537,00_bat_bachelor,2022.2.4,60.025348876884635,
,,,,,,,,,,,,1,0,1,0,30,0,30,0,,,,,,,30,,,0.2,1073.9557522638643,X,l,go,l,1,0.5217327925201971,,,,,,,,,,,,,,,,,,47,001,20,w,Psychologie,2023-01-19_09h04.49.537,00_bat_bachelor,2022.2.4,60.025348876884635,
,,,,,,,,,,,,1,0,1,0,31,0,31,0,,,,,,,31,,,0.2,1074.7899676169618,Y,d,go,d,1,0.29619496248778887,,,,,,,,,,,,,,,,,,47,001,20,w,Psychologie,2023-01-19_09h04.49.537,00_bat_bachelor,2022.2.4,60.025348876884635,
,,,,,,,,,,,,1,0,1,0,32,0,32,0,,,,,,,32,,,0.2,1075.3904206591833,Y,None,nogo,None,1,,1076.1910156649537,,,,,,,,,,,,,,,,,47,001,20,w,Psychologie,2023-01-19_09h04.49.537,00_bat_bachelor,2022.2.4,60.025348876884635,
,,,,,,,,,,,,1,0,1,0,33,0,33,0,,,,,,,33,,,0.2,1076.3908390832075,X,l,go,None,0,,,,,,,,,,,,,,,,,,,47,001,20,w,Psychologie,2023-01-19_09h04.49.537,00_bat_bachelor,2022.2.4,60.025348876884635,
,,,,,,,,,,,,1,0,1,0,34,0,34,0,,,,,,,34,,,0.2,1077.3926815065788,Y,d,go,d,1,0.4287893224391155,,,,,,,,,,,,,,,,,,47,001,20,w,Psychologie,2023-01-19_09h04.49.537,00_bat_bachelor,2022.2.4,60.025348876884635,
,,,,,,,,,,,,1,0,1,0,35,0,35,0,,,,,,,35,,,0.2,1078.160090104182,X,l,go,None,0,,1078.9607626856887,,,,,,,,,,,,,,,,,47,001,20,w,Psychologie,2023-01-19_09h04.49.537,00_bat_bachelor,2022.2.4,60.025348876884635,
,,,,,,,,,,,,1,0,1,0,36,0,36,0,,,,,,,36,,,0.2,1079.1605143464112,X,None,nogo,None,1,,1079.9615398974274,,,,,,,,,,,,,,,,,47,001,20,w,Psychologie,2023-01-19_09h04.49.537,00_bat_bachelor,2022.2.4,60.025348876884635,
,,,,,,,,,,,,1,0,1,0,37,0,37,0,,,,,,,37,,,0.2,1080.1612149521243,Y,d,go,d,1,0.2836388473515399,,,,,,,,,,,,,,,,,,47,001,20,w,Psychologie,2023-01-19_09h04.49.537,00_bat_bachelor,2022.2.4,60.025348876884635,
,,,,,,,,,,,,1,0,1,0,38,0,38,0,,,,,,,38,,,0.2,1080.778582410363,X,l,go,l,1,0.6099465679435525,,,,,,,,,,,,,,,,,,47,001,20,w,Psychologie,2023-01-19_09h04.49.537,00_bat_bachelor,2022.2.4,60.025348876884635,
,,,,,,,,,,,,1,0,1,0,39,0,39,0,,,,,,,39,,,0.2,1081.7290187980398,Y,d,go,d,1,0.36411541438428685,,,,,,,,,,,,,,,,,,47,001,20,w,Psychologie,2023-01-19_09h04.49.537,00_bat_bachelor,2022.2.4,60.025348876884635,
,,,,,,,,,,,,1,0,1,0,40,0,40,0,,,,,,,40,,,0.2,1082.4295270644652,X,l,go,l,1,0.31927131494740024,,,,,,,,,,,,,,,,,,47,001,20,w,Psychologie,2023-01-19_09h04.49.537,00_bat_bachelor,2022.2.4,60.025348876884635,
,,,,,,,,,,,,1,0,1,0,41,0,41,0,,,,,,,41,,,0.2,1083.0971669831779,Y,d,go,d,1,0.30811301732319407,,,,,,,,,,,,,,,,,,47,001,20,w,Psychologie,2023-01-19_09h04.49.537,00_bat_bachelor,2022.2.4,60.025348876884635,
,,,,,,,,,,,,1,0,1,0,42,0,42,0,,,,,,,42,,,0.2,1083.7472001225688,X,l,go,l,1,0.3622026880620979,,,,,,,,,,,,,,,,,,47,001,20,w,Psychologie,2023-01-19_09h04.49.537,00_bat_bachelor,2022.2.4,60.025348876884635,
,,,,,,,,,,,,1,0,1,0,43,0,43,0,,,,,,,43,,,0.2,1084.4478276616428,X,None,nogo,d,0,0.3012446570210159,,,,,,,,,,,,,,,,,,47,001,20,w,Psychologie,2023-01-19_09h04.49.537,00_bat_bachelor,2022.2.4,60.025348876884635,
,,,,,,,,,,,,1,0,1,0,44,0,44,0,,,,,,,44,,,0.2,1085.0983480735158,X,None,nogo,None,1,,1085.8993265942554,,,,,,,,,,,,,,,,,47,001,20,w,Psychologie,2023-01-19_09h04.49.537,00_bat_bachelor,2022.2.4,60.025348876884635,
,,,,,,,,,,,,1,0,1,0,45,0,45,0,,,,,,,45,,,0.2,1086.099241163989,Y,d,go,d,1,0.47437620942946523,,,,,,,,,,,,,,,,,,47,001,20,w,Psychologie,2023-01-19_09h04.49.537,00_bat_bachelor,2022.2.4,60.025348876884635,
,,,,,,,,,,,,1,0,1,0,46,0,46,0,,,,,,,46,,,0.2,1086.9165086465364,X,l,go,l,1,0.45690470273257233,,,,,,,,,,,,,,,,,,47,001,20,w,Psychologie,2023-01-19_09h04.49.537,00_bat_bachelor,2022.2.4,60.025348876884635,
,,,,,,,,,,,,1,0,1,0,47,0,47,0,,,,,,,47,,,0.2,1087.7171065613802,Y,d,go,d,1,0.3919554009044077,,,,,,,,,,,,,,,,,,47,001,20,w,Psychologie,2023-01-19_09h04.49.537,00_bat_bachelor,2022.2.4,60.025348876884635,
,,,,,,,,,,,,1,0,1,0,48,0,48,0,,,,,,,48,,,0.2,1088.450810448092,X,l,go,None,0,,1089.251986302057,,,,,,,,,,,,,,,,,47,001,20,w,Psychologie,2023-01-19_09h04.49.537,00_bat_bachelor,2022.2.4,60.025348876884635,
,,,,,,,,,,,,1,0,1,0,49,0,49,0,,,,,,,49,,,0.2,1089.4518325082026,X,None,nogo,None,1,,1090.2526151502389,,,,,,,,,,,,,,,,,47,001,20,w,Psychologie,2023-01-19_09h04.49.537,00_bat_bachelor,2022.2.4,60.025348876884635,
,,,,,,,,,,,,1,0,1,0,50,0,50,0,,,,,,,50,,,0.2,1090.452519538172,Y,d,go,d,1,0.24956759114866145,,,,,,,,,,,,,,,,,,47,001,20,w,Psychologie,2023-01-19_09h04.49.537,00_bat_bachelor,2022.2.4,60.025348876884635,
,,,,,,,,,,,,1,0,1,0,51,0,51,0,,,,,,,51,,,0.2,1091.0363611944776,X,l,go,l,1,0.4164213284384459,,,,,,,,,,,,,,,,,,47,001,20,w,Psychologie,2023-01-19_09h04.49.537,00_bat_bachelor,2022.2.4,60.025348876884635,
,,,,,,,,,,,,1,0,1,0,52,0,52,0,,,,,,,52,,,0.2,1091.786767618527,X,None,nogo,l,0,0.5795044008700643,,,,,,,,,,,,,,,,,,47,001,20,w,Psychologie,2023-01-19_09h04.49.537,00_bat_bachelor,2022.2.4,60.025348876884635,
,,,,,,,,,,,,1,0,1,0,53,0,53,0,,,,,,,53,,,0.2,1092.6875603939116,Y,d,go,d,1,0.5570593208540231,,,,,,,,,,,,,,,,,,47,001,20,w,Psychologie,2023-01-19_09h04.49.537,00_bat_bachelor,2022.2.4,60.025348876884635,
,,,,,,,,,,,,1,0,1,0,54,0,54,0,,,,,,,54,,,0.2,1093.5885621388734,X,l,go,l,1,0.5856294888071716,,,,,,,,,,,,,,,,,,47,001,20,w,Psychologie,2023-01-19_09h04.49.537,00_bat_bachelor,2022.2.4,60.025348876884635,
,,,,,,,,,,,,1,0,1,0,55,0,55,0,,,,,,,55,,,0.2,1094.5221030195826,Y,d,go,d,1,0.5787737345672213,,,,,,,,,,,,,,,,,,47,001,20,w,Psychologie,2023-01-19_09h04.49.537,00_bat_bachelor,2022.2.4,60.025348876884635,
,,,,,,,,,,,,1,0,1,0,56,0,56,0,,,,,,,56,,,0.2,1095.4394931202405,X,l,go,l,1,0.477362389821792,,,,,,,,,,,,,,,,,,47,001,20,w,Psychologie,2023-01-19_09h04.49.537,00_bat_bachelor,2022.2.4,60.025348876884635,
,,,,,,,,,,,,1,0,1,0,57,0,57,0,,,,,,,57,,,0.2,1096.2399577018223,Y,d,go,None,0,,1097.040667131776,,,,,,,,,,,,,,,,,47,001,20,w,Psychologie,2023-01-19_09h04.49.537,00_bat_bachelor,2022.2.4,60.025348876884635,
,,,,,,,,,,,,1,0,1,0,58,0,58,0,,,,,,,58,,,0.2,1097.2407577014237,Y,None,nogo,None,1,,1098.0413914950623,,,,,,,,,,,,,,,,,47,001,20,w,Psychologie,2023-01-19_09h04.49.537,00_bat_bachelor,2022.2.4,60.025348876884635,
,,,,,,,,,,,,1,0,1,0,59,0,59,0,,,,,,,59,,,0.2,1098.2413346708636,X,l,go,l,1,0.17238944675773382,,,,,,,,,,,,,,,,,,47,001,20,w,Psychologie,2023-01-19_09h04.49.537,00_bat_bachelor,2022.2.4,60.025348876884635,
,,,,,,,,,,,,1,0,1,0,60,0,60,0,,,,,,,60,,,0.2,1098.7250604969158,Y,d,go,d,1,0.4879514755739365,,,,,,,,,,,,,,,,,,47,001,20,w,Psychologie,2023-01-19_09h04.49.537,00_bat_bachelor,2022.2.4,60.025348876884635,
,,,,,,,,,,,,1,0,1,0,61,0,61,0,,,,,,,61,,,0.2,1099.5423401006847,Y,None,nogo,None,1,,1100.343229894177,,,,,,,,,,,,,,,,,47,001,20,w,Psychologie,2023-01-19_09h04.49.537,00_bat_bachelor,2022.2.4,60.025348876884635,
,,,,,,,,,,,,1,0,1,0,62,0,62,0,,,,,,,62,,,0.2,1100.5430877366744,Y,None,nogo,l,0,0.06201083361520432,,,,,,,,,,,,,,,,,,47,001,20,w,Psychologie,2023-01-19_09h04.49.537,00_bat_bachelor,2022.2.4,60.025348876884635,
,,,,,,,,,,,,1,0,1,0,63,0,63,0,,,,,,,63,,,0.2,1100.9267171264219,X,l,go,None,0,,1101.7275021927198,,,,,,,,,,,,,,,,,47,001,20,w,Psychologie,2023-01-19_09h04.49.537,00_bat_bachelor,2022.2.4,60.025348876884635,
,,,,,,,,,,,,1,0,1,0,64,0,64,0,,,,,,,64,,,0.2,1101.9276257320598,Y,d,go,d,1,0.0066125574230682105,,,,,,,,,,,,,,,,,,47,001,20,w,Psychologie,2023-01-19_09h04.49.537,00_bat_bachelor,2022.2.4,60.025348876884635,
,,,,,,,,,,,,1,0,1,0,65,0,65,0,,,,,,,65,,,0.2,1102.244544851128,Y,None,nogo,None,1,,1103.0452484629059,,,,,,,,,,,,,,,,,47,001,20,w,Psychologie,2023-01-19_09h04.49.537,00_bat_bachelor,2022.2.4,60.025348876884635,
,,,,,,,,,,,,1,0,1,0,66,0,66,0,,,,,,,66,,,0.2,1103.245353093138,X,l,go,l,1,0.06403555991710164,,,,,,,,,,,,,,,,,,47,001,20,w,Psychologie,2023-01-19_09h04.49.537,00_bat_bachelor,2022.2.4,60.025348876884635,
,,,,,,,,,,,,1,0,1,0,67,0,67,0,,,,,,,67,,,0.2,1103.6289587253414,Y,d,go,None,0,,1104.4295488826174,,,,,,,,,,,,,,,,,47,001,20,w,Psychologie,2023-01-19_09h04.49.537,00_bat_bachelor,2022.2.4,60.025348876884635,
,,,,,,,,,,,,1,0,1,0,68,0,68,0,,,,,,,68,,,0.2,1104.6297533916077,Y,None,nogo,d,0,0.007446496427292004,,,,,,,,,,,,,,,,,,47,001,20,w,Psychologie,2023-01-19_09h04.49.537,00_bat_bachelor,2022.2.4,60.025348876884635,
,,,,,,,,,,,,1,0,1,0,69,0,69,0,,,,,,,69,,,0.2,1104.9467554197472,X,l,go,l,1,0.6029230561980512,,,,,,,,,,,,,,,,,,47,001,20,w,Psychologie,2023-01-19_09h04.49.537,00_bat_bachelor,2022.2.4,60.025348876884635,
,,,,,,,,,,,,1,0,1,0,70,0,70,0,,,,,,,70,,,0.2,1105.864115944656,Y,d,go,None,0,,1106.6644447687431,,,,,,,,,,,,,,,,,47,001,20,w,Psychologie,2023-01-19_09h04.49.537,00_bat_bachelor,2022.2.4,60.025348876884635,
,,,,,,,,,,,,1,0,1,0,71,0,71,0,,,,,,,71,,,0.2,1106.8646303686546,Y,None,nogo,None,1,,1107.6654008894984,,,,,,,,,,,,,,,,,47,001,20,w,Psychologie,2023-01-19_09h04.49.537,00_bat_bachelor,2022.2.4,60.025348876884635,
,,,,,,,,,,,,1,0,1,0,72,0,72,0,,,,,,,72,,,0.2,1107.8655811560748,X,l,go,None,0,,1108.666165495175,,,,,,,,,,,,,,,,,47,001,20,w,Psychologie,2023-01-19_09h04.49.537,00_bat_bachelor,2022.2.4,60.025348876884635,
,,,,,,,,,,,,1,0,1,0,73,0,73,0,,,,,,,73,,,0.2,1108.866127580055,Y,d,go,d,1,0.10778632655274123,,,,,,,,,,,,,,,,,,47,001,20,w,Psychologie,2023-01-19_09h04.49.537,00_bat_bachelor,2022.2.4,60.025348876884635,
,,,,,,,,,,,,1,0,1,0,74,0,74,0,,,,,,,74,,,0.2,1109.283100468776,X,l,go,l,1,0.6666010859480593,,,,,,,,,,,,,,,,,,47,001,20,w,Psychologie,2023-01-19_09h04.49.537,00_bat_bachelor,2022.2.4,60.025348876884635,
,,,,,,,,,,,,1,0,1,0,75,0,75,0,,,,,,,75,,,0.2,1110.2504856967134,Y,d,go,None,0,,1111.0512668842275,,,,,,,,,,,,,,,,,47,001,20,w,Psychologie,2023-01-19_09h04.49.537,00_bat_bachelor,2022.2.4,60.025348876884635,
,,,,,,,,,,,,1,0,1,0,76,0,76,0,,,,,,,76,,,0.2,1111.251394787192,Y,None,nogo,l,0,0.5065560726216063,,,,,,,,,,,,,,,,,,47,001,20,w,Psychologie,2023-01-19_09h04.49.537,00_bat_bachelor,2022.2.4,60.025348876884635,
,,,,,,,,,,,,1,0,1,0,77,0,77,0,,,,,,,77,,,0.2,1112.0687301484868,X,l,go,None,0,,1112.8690948513395,,,,,,,,,,,,,,,,,47,001,20,w,Psychologie,2023-01-19_09h04.49.537,00_bat_bachelor,2022.2.4,60.025348876884635,
,,,,,,,,,,,,1,0,1,0,78,0,78,0,,,,,,,78,,,0.2,1113.0692392391502,Y,d,go,None,0,,1113.869805638882,,,,,,,,,,,,,,,,,47,001,20,w,Psychologie,2023-01-19_09h04.49.537,00_bat_bachelor,2022.2.4,60.025348876884635,
,,,,,,,,,,,,1,0,1,0,79,0,79,0,,,,,,,79,,,0.2,1114.0700276024,X,l,go,None,0,,1114.8706909717876,,,,,,,,,,,,,,,,,47,001,20,w,Psychologie,2023-01-19_09h04.49.537,00_bat_bachelor,2022.2.4,60.025348876884635,
,,,,,,,,,,,,1,0,1,0,80,0,80,0,,,,,,,80,,,0.2,1115.0708348747285,Y,d,go,d,1,0.2073407025600318,,,,,,,,,,,,,,,,,,47,001,20,w,Psychologie,2023-01-19_09h04.49.537,00_bat_bachelor,2022.2.4,60.025348876884635,
,,,,,,,,,,,,1,0,1,0,81,0,81,0,,,,,,,81,,,0.2,1115.5877141392848,X,l,go,l,1,0.6017618446203414,,,,,,,,,,,,,,,,,,47,001,20,w,Psychologie,2023-01-19_09h04.49.537,00_bat_bachelor,2022.2.4,60.025348876884635,
,,,,,,,,,,,,1,0,1,0,82,0,82,0,,,,,,,82,,,0.2,1116.5052351489721,X,None,nogo,None,1,,1117.3058190032316,,,,,,,,,,,,,,,,,47,001,20,w,Psychologie,2023-01-19_09h04.49.537,00_bat_bachelor,2022.2.4,60.025348876884635,
,,,,,,,,,,,,1,0,1,0,83,0,83,0,,,,,,,83,,,0.2,1117.5059682395076,Y,d,go,None,0,,1118.3064085787046,,,,,,,,,,,,,,,,,47,001,20,w,Psychologie,2023-01-19_09h04.49.537,00_bat_bachelor,2022.2.4,60.025348876884635,
,,,,,,,,,,,,1,0,1,0,84,0,84,0,,,,,,,84,,,0.2,1118.506733330054,X,l,go,None,0,,1119.307177063165,,,,,,,,,,,,,,,,,47,001,20,w,Psychologie,2023-01-19_09h04.49.537,00_bat_bachelor,2022.2.4,60.025348876884635,
,,,,,,,,,,,,1,0,1,0,85,0,85,0,,,,,,,85,,,0.2,1119.507615753857,X,None,nogo,d,0,0.21790845500072464,,,,,,,,,,,,,,,,,,47,001,20,w,Psychologie,2023-01-19_09h04.49.537,00_bat_bachelor,2022.2.4,60.025348876884635,
,,,,,,,,,,,,1,0,1,0,86,0,86,0,,,,,,,86,,,0.2,1120.0410928285564,Y,d,go,None,0,,1120.841930258437,,,,,,,,,,,,,,,,,47,001,20,w,Psychologie,2023-01-19_09h04.49.537,00_bat_bachelor,2022.2.4,60.025348876884635,
,,,,,,,,,,,,1,0,1,0,87,0,87,0,,,,,,,87,,,0.2,1121.041977676592,X,l,go,None,0,,1121.8425465005566,,,,,,,,,,,,,,,,,47,001,20,w,Psychologie,2023-01-19_09h04.49.537,00_bat_bachelor,2022.2.4,60.025348876884635,
,,,,,,,,,,,,1,0,1,0,88,0,88,0,,,,,,,88,,,0.2,1122.0426312520576,Y,d,go,d,1,0.1477756405074615,,,,,,,,,,,,,,,,,,47,001,20,w,Psychologie,2023-01-19_09h04.49.537,00_bat_bachelor,2022.2.4,60.025348876884635,
,,,,,,,,,,,,1,0,1,0,89,0,89,0,,,,,,,89,,,0.2,1122.4928758822207,X,l,go,None,0,,,,,,,,,,,,,,,,,,,47,001,20,w,Psychologie,2023-01-19_09h04.49.537,00_bat_bachelor,2022.2.4,60.025348876884635,
,,,,,,,,,,,,1,0,1,0,90,0,90,0,,,,,,,90,,,0.2,1123.4938625484065,X,None,nogo,l,0,0.21545463800430298,,,,,,,,,,,,,,,,,,47,001,20,w,Psychologie,2023-01-19_09h04.49.537,00_bat_bachelor,2022.2.4,60.025348876884635,
,,,,,,,,,,,,1,0,1,0,91,0,91,0,,,,,,,91,,,0.2,1124.0104436312977,X,None,nogo,None,1,,1124.8113620308286,,,,,,,,,,,,,,,,,47,001,20,w,Psychologie,2023-01-19_09h04.49.537,00_bat_bachelor,2022.2.4,60.025348876884635,
,,,,,,,,,,,,1,0,1,0,92,0,92,0,,,,,,,92,,,0.2,1125.0115374489396,Y,d,go,d,1,0.05763701754040085,,,,,,,,,,,,,,,,,,47,001,20,w,Psychologie,2023-01-19_09h04.49.537,00_bat_bachelor,2022.2.4,60.025348876884635,
,,,,,,,,,,,,1,0,1,0,93,0,93,0,,,,,,,93,,,0.2,1125.3784963013313,X,l,go,None,0,,,,,,,,,,,,,,,,,,,47,001,20,w,Psychologie,2023-01-19_09h04.49.537,00_bat_bachelor,2022.2.4,60.025348876884635,
,,,,,,,,,,,,1,0,1,0,94,0,94,0,,,,,,,94,,,0.2,1126.3792555736727,Y,d,go,None,0,,,,,,,,,,,,,,,,,,,47,001,20,w,Psychologie,2023-01-19_09h04.49.537,00_bat_bachelor,2022.2.4,60.025348876884635,
,,,,,,,,,,,,1,0,1,0,95,0,95,0,,,,,,,95,,,0.2,1127.3800158157246,Y,None,nogo,None,1,,1128.1805914275756,,,,,,,,,,,,,,,,,47,001,20,w,Psychologie,2023-01-19_09h04.49.537,00_bat_bachelor,2022.2.4,60.025348876884635,
,,,,,,,,,,,,1,0,1,0,96,0,96,0,,,,,,,96,,,0.2,1128.3806630881445,X,l,go,None,0,,,,,,,,,,,,,,,,,,,47,001,20,w,Psychologie,2023-01-19_09h04.49.537,00_bat_bachelor,2022.2.4,60.025348876884635,
,,,,,,,,,,,,1,0,1,0,97,0,97,0,,,,,,,97,,,0.2,1129.3815183604602,Y,d,go,d,1,0.12007819939753972,,,,,,,,,,,,,,,,,,47,001,20,w,Psychologie,2023-01-19_09h04.49.537,00_bat_bachelor,2022.2.4,60.025348876884635,
,,,,,,,,,,,,1,0,1,0,98,0,98,0,,,,,,,98,,,0.2,1129.8148684533953,Y,None,nogo,None,1,,,,,,,,,,,,,,,,,,,47,001,20,w,Psychologie,2023-01-19_09h04.49.537,00_bat_bachelor,2022.2.4,60.025348876884635,
,,,,,,,,,,,,1,0,1,0,99,0,99,0,,,,,,,99,,,0.2,1130.8157484529656,Y,None,nogo,l,0,0.12556037853937596,,,,,,,,,,,,,,,,,,47,001,20,w,Psychologie,2023-01-19_09h04.49.537,00_bat_bachelor,2022.2.4,60.025348876884635,
,,,,,,,,,,,,1,0,1,0,100,0,100,0,,,,,,,100,,,0.2,1131.2495717577694,X,l,go,None,0,,1132.0502671271388,,,,,,,,,,,,,,,,,47,001,20,w,Psychologie,2023-01-19_09h04.49.537,00_bat_bachelor,2022.2.4,60.025348876884635,
,,,,,,,,,,,,1,0,1,0,101,0,101,0,,,,,,,101,,,0.2,1132.2503775755758,Y,d,go,d,1,0.035258846561191604,,,,,,,,,,,,,,,,,,47,001,20,w,Psychologie,2023-01-19_09h04.49.537,00_bat_bachelor,2022.2.4,60.025348876884635,
,,,,,,,,,,,,1,0,1,0,102,0,102,0,,,,,,,102,,,0.2,1132.600550011848,X,l,go,None,0,,1133.4012521690747,,,,,,,,,,,,,,,,,47,001,20,w,Psychologie,2023-01-19_09h04.49.537,00_bat_bachelor,2022.2.4,60.025348876884635,
,,,,,,,,,,,,1,0,1,0,103,0,103,0,,,,,,,103,,,0.2,1133.6015313446987,X,None,nogo,l,0,0.4771568141586613,,,,,,,,,,,,,,,,,,47,001,20,w,Psychologie,2023-01-19_09h04.49.537,00_bat_bachelor,2022.2.4,60.025348876884635,
,,,,,,,,,,,,1,0,1,0,104,0,104,0,,,,,,,104,,,0.2,1134.38530066167,Y,d,go,d,1,0.47595536019071005,,,,,,,,,,,,,,,,,,47,001,20,w,Psychologie,2023-01-19_09h04.49.537,00_bat_bachelor,2022.2.4,60.025348876884635,
,,,,,,,,,,,,1,0,1,0,105,0,105,0,,,,,,,105,,,0.2,1135.1692517967022,X,l,go,l,1,0.4445895572134759,,,,,,,,,,,,,,,,,,47,001,20,w,Psychologie,2023-01-19_09h04.49.537,00_bat_bachelor,2022.2.4,60.025348876884635,
,,,,,,,,,,,,1,0,1,0,106,0,106,0,,,,,,,106,,,0.2,1135.9197513116233,Y,d,go,d,1,0.30191374756395817,,,,,,,,,,,,,,,,,,47,001,20,w,Psychologie,2023-01-19_09h04.49.537,00_bat_bachelor,2022.2.4,60.025348876884635,
,,,,,,,,,,,,1,0,1,0,107,0,107,0,,,,,,,107,,,0.2,1136.5369088305742,X,l,go,l,1,0.3881939481943846,,,,,,,,,,,,,,,,,,47,001,20,w,Psychologie,2023-01-19_09h04.49.537,00_bat_bachelor,2022.2.4,60.025348876884635,
,,,,,,,,,,,,1,0,1,0,108,0,108,0,,,,,,,108,,,0.2,1137.2381700663245,Y,d,go,d,1,0.3435704546573106,,,,,,,,,,,,,,,,,,47,001,20,w,Psychologie,2023-01-19_09h04.49.537,00_bat_bachelor,2022.2.4,60.025348876884635,
,,,,,,,,,,,,1,0,1,0,109,0,109,0,,,,,,,109,,,0.2,1137.9054458640167,X,l,go,l,1,0.31537168045178987,,,,,,,,,,,,,,,,,,47,001,20,w,Psychologie,2023-01-19_09h04.49.537,00_bat_bachelor,2022.2.4,60.025348876884635,
,,,,,,,,,,,,1,0,1,0,110,0,110,0,,,,,,,110,,,0.2,1138.5557214275177,X,None,nogo,None,1,,1139.3567712209478,,,,,,,,,,,,,,,,,47,001,20,w,Psychologie,2023-01-19_09h04.49.537,00_bat_bachelor,2022.2.4,60.025348876884635,
,,,,,,,,,,,,1,0,1,0,111,0,111,0,,,,,,,111,,,0.2,1139.5565510028682,Y,d,go,d,1,0.19993464552680962,,,,,,,,,,,,,,,,,,47,001,20,w,Psychologie,2023-01-19_09h04.49.537,00_bat_bachelor,2022.2.4,60.025348876884635,
,,,,,,,,,,,,1,0,1,0,112,0,112,0,,,,,,,112,,,0.2,1140.0735083279724,X,l,go,l,1,0.3723292285867501,,,,,,,,,,,,,,,,,,47,001,20,w,Psychologie,2023-01-19_09h04.49.537,00_bat_bachelor,2022.2.4,60.025348876884635,
,,,,,,,,,,,,1,0,1,0,113,0,113,0,,,,,,,113,,,0.2,1140.7575589054031,Y,d,go,d,1,0.3606759009126108,,,,,,,,,,,,,,,,,,47,001,20,w,Psychologie,2023-01-19_09h04.49.537,00_bat_bachelor,2022.2.4,60.025348876884635,
,,,,,,,,,,,,1,0,1,0,114,0,114,0,,,,,,,114,,,0.2,1141.4245622183953,X,l,go,l,1,0.3964795198990032,,,,,,,,,,,,,,,,,,47,001,20,w,Psychologie,2023-01-19_09h04.49.537,00_bat_bachelor,2022.2.4,60.025348876884635,
,,,,,,,,,,,,1,0,1,0,115,0,115,0,,,,,,,115,,,0.2,1142.1417836888286,Y,d,go,d,1,0.30336053477367386,,,,,,,,,,,,,,,,,,47,001,20,w,Psychologie,2023-01-19_09h04.49.537,00_bat_bachelor,2022.2.4,60.025348876884635,
,,,,,,,,,,,,1,0,1,0,116,0,116,0,,,,,,,116,,,0.2,1142.7588655714353,X,l,go,l,1,0.3095888953830581,,,,,,,,,,,,,,,,,,47,001,20,w,Psychologie,2023-01-19_09h04.49.537,00_bat_bachelor,2022.2.4,60.025348876884635,
,,,,,,,,,,,,1,0,1,0,117,0,117,0,,,,,,,117,,,0.2,1143.3925355672545,Y,d,go,d,1,0.3976441254199017,,,,,,,,,,,,,,,,,,47,001,20,w,Psychologie,2023-01-19_09h04.49.537,00_bat_bachelor,2022.2.4,60.025348876884635,
,,,,,,,,,,,,1,0,1,0,118,0,118,0,,,,,,,118,,,0.2,1144.0929526822001,Y,None,nogo,None,1,,1144.8934027183277,,,,,,,,,,,,,,,,,47,001,20,w,Psychologie,2023-01-19_09h04.49.537,00_bat_bachelor,2022.2.4,60.025348876884635,
,,,,,,,,,,,,1,0,1,0,119,0,119,0,,,,,,,119,,,0.2,1145.0937938939023,X,l,go,l,1,0.12051504765986465,,,,,,,,,,,,,,,,,,47,001,20,w,Psychologie,2023-01-19_09h04.49.537,00_bat_bachelor,2022.2.4,60.025348876884635,
,,,,,,,,,,,,1,0,1,0,120,0,120,0,,,,,,,120,,,0.2,1145.5273907745723,Y,d,go,d,1,0.37458862146013416,,,,,,,,,,,,,,,,,,47,001,20,w,Psychologie,2023-01-19_09h04.49.537,00_bat_bachelor,2022.2.4,60.025348876884635,
,,,,,,,,,,,,1,0,1,0,121,0,121,0,,,,,,,121,,,0.2,1146.211228503642,X,l,go,l,1,0.31505071092396975,,,,,,,,,,,,,,,,,,47,001,20,w,Psychologie,2023-01-19_09h04.49.537,00_bat_bachelor,2022.2.4,60.025348876884635,
,,,,,,,,,,,,1,0,1,0,122,0,122,0,,,,,,,122,,,0.2,1146.8281591136183,Y,d,go,d,1,0.28905945079168305,,,,,,,,,,,,,,,,,,47,001,20,w,Psychologie,2023-01-19_09h04.49.537,00_bat_bachelor,2022.2.4,60.025348876884635,
,,,,,,,,,,,,1,0,1,0,123,0,123,0,,,,,,,123,,,0.2,1147.4288347011607,X,l,go,l,1,0.3611840218654834,,,,,,,,,,,,,,,,,,47,001,20,w,Psychologie,2023-01-19_09h04.49.537,00_bat_bachelor,2022.2.4,60.025348876884635,
,,,,,,,,,,,,1,0,1,0,124,0,124,0,,,,,,,124,,,0.2,1148.0958540141291,X,None,nogo,d,0,0.3662118982174434,,,,,,,,,,,,,,,,,,47,001,20,w,Psychologie,2023-01-19_09h04.49.537,00_bat_bachelor,2022.2.4,60.025348876884635,
,,,,,,,,,,,,1,0,1,0,125,0,125,0,,,,,,,125,,,0.2,1148.7631113875832,Y,d,go,l,0,0.4990675913868472,,,,,,,,,,,,,,,,,,47,001,20,w,Psychologie,2023-01-19_09h04.49.537,00_bat_bachelor,2022.2.4,60.025348876884635,
,,,,,,,,,,,,1,0,1,0,126,0,126,0,,,,,,,126,,,0.2,1149.5635604540294,X,l,go,d,0,0.4345405923668295,,,,,,,,,,,,,,,,,,47,001,20,w,Psychologie,2023-01-19_09h04.49.537,00_bat_bachelor,2022.2.4,60.025348876884635,
,,,,,,,,,,,,1,0,1,0,127,0,127,0,,,,,,,127,,,0.2,1150.3141331810039,Y,d,go,None,0,,,,,,,,,,,,,,,,,,,47,001,20,w,Psychologie,2023-01-19_09h04.49.537,00_bat_bachelor,2022.2.4,60.025348876884635,
,,,,,,,,,,,,1,0,1,0,128,0,128,0,,,,,,,128,,,0.2,1151.3148880897497,X,l,go,None,0,,,,,,,,,,,,,,,,,,,47,001,20,w,Psychologie,2023-01-19_09h04.49.537,00_bat_bachelor,2022.2.4,60.025348876884635,
,,,,,,,,,,,,1,0,1,0,129,0,129,0,,,,,,,129,,,0.2,1152.3153462713235,X,None,nogo,d,0,0.0016341356094926596,,,,,,,,,,,,,,,,,,47,001,20,w,Psychologie,2023-01-19_09h04.49.537,00_bat_bachelor,2022.2.4,60.025348876884635,
,,,,,,,,,,,,1,0,1,0,130,0,130,0,,,,,,,130,,,0.2,1152.6326110872033,Y,d,go,None,0,,1153.4329767597665,,,,,,,,,,,,,,,,,47,001,20,w,Psychologie,2023-01-19_09h04.49.537,00_bat_bachelor,2022.2.4,60.025348876884635,
,,,,,,,,,,,,1,0,1,0,131,0,131,0,,,,,,,131,,,0.2,1153.633340298984,X,l,go,None,0,,,,,,,,,,,,,,,,,,,47,001,20,w,Psychologie,2023-01-19_09h04.49.537,00_bat_bachelor,2022.2.4,60.025348876884635,
,,,,,,,,,,,,1,0,1,0,132,0,132,0,,,,,,,132,,,0.2,1154.634120419796,Y,d,go,d,1,0.0030974076071288437,,,,,,,,,,,,,,,,,,47,001,20,w,Psychologie,2023-01-19_09h04.49.537,00_bat_bachelor,2022.2.4,60.025348876884635,
,,,,,,,,,,,,1,0,1,0,133,0,133,0,,,,,,,133,,,0.2,1154.9510429328075,X,l,go,None,0,,1155.751597211347,,,,,,,,,,,,,,,,,47,001,20,w,Psychologie,2023-01-19_09h04.49.537,00_bat_bachelor,2022.2.4,60.025348876884635,
,,,,,,,,,,,,1,0,1,0,134,0,134,0,,,,,,,134,,,0.2,1155.9518603869656,X,None,nogo,l,0,0.479108328348957,,,,,,,,,,,,,,,,,,47,001,20,w,Psychologie,2023-01-19_09h04.49.537,00_bat_bachelor,2022.2.4,60.025348876884635,
,,,,,,,,,,,,1,0,1,0,135,0,135,0,,,,,,,135,,,0.2,1156.7357014614681,Y,d,go,None,0,,,,,,,,,,,,,,,,,,,47,001,20,w,Psychologie,2023-01-19_09h04.49.537,00_bat_bachelor,2022.2.4,60.025348876884635,
,,,,,,,,,,,,1,0,1,0,136,0,136,0,,,,,,,136,,,0.2,1157.7364966126042,X,l,go,d,0,0.10097663290798664,,,,,,,,,,,,,,,,,,47,001,20,w,Psychologie,2023-01-19_09h04.49.537,00_bat_bachelor,2022.2.4,60.025348876884635,
,,,,,,,,,,,,1,0,1,0,137,0,137,0,,,,,,,137,,,0.2,1158.1531281681673,X,None,nogo,l,0,0.38753552426351234,,,,,,,,,,,,,,,,,,47,001,20,w,Psychologie,2023-01-19_09h04.49.537,00_bat_bachelor,2022.2.4,60.025348876884635,
,,,,,,,,,,,,1,0,1,0,138,0,138,0,,,,,,,138,,,0.2,1158.8540989798203,Y,d,go,d,1,0.5040658919897396,,,,,,,,,,,,,,,,,,47,001,20,w,Psychologie,2023-01-19_09h04.49.537,00_bat_bachelor,2022.2.4,60.025348876884635,
,,,,,,,,,,,,1,0,1,0,139,0,139,0,,,,,,,139,,,0.2,1159.671284038166,X,l,go,l,1,0.6155887469940353,,,,,,,,,,,,,,,,,,47,001,20,w,Psychologie,2023-01-19_09h04.49.537,00_bat_bachelor,2022.2.4,60.025348876884635,
,,,,,,,,,,,,1,0,1,0,140,0,140,0,,,,,,,140,,,0.2,1160.5887051690952,Y,d,go,d,1,0.30540804893826135,,,,,,,,,,,,,,,,,,47,001,20,w,Psychologie,2023-01-19_09h04.49.537,00_bat_bachelor,2022.2.4,60.025348876884635,
,,,,,,,,,,,,1,0,1,0,141,0,141,0,,,,,,,141,,,0.2,1161.2058083850425,Y,None,nogo,l,0,0.2641683113470208,,,,,,,,,,,,,,,,,,47,001,20,w,Psychologie,2023-01-19_09h04.49.537,00_bat_bachelor,2022.2.4,60.025348876884635,
,,,,,,,,,,,,1,0,1,0,142,0,142,0,,,,,,,142,,,0.2,1161.7726308981073,X,l,go,None,0,,1162.5734668734658,,,,,,,,,,,,,,,,,47,001,20,w,Psychologie,2023-01-19_09h04.49.537,00_bat_bachelor,2022.2.4,60.025348876884635,
,,,,,,,,,,,,1,0,1,0,143,0,143,0,,,,,,,143,,,0.2,1162.7733348977636,Y,d,go,None,0,,,,,,,,,,,,,,,,,,,47,001,20,w,Psychologie,2023-01-19_09h04.49.537,00_bat_bachelor,2022.2.4,60.025348876884635,
,,,,,,,,,,,,1,0,1,0,144,0,144,0,,,,,,,144,,,0.2,1163.7743734427204,Y,None,nogo,None,1,,1164.5749776606099,,,,,,,,,,,,,,,,,47,001,20,w,Psychologie,2023-01-19_09h04.49.537,00_bat_bachelor,2022.2.4,60.025348876884635,
,,,,,,,,,,,,1,0,1,0,145,0,145,0,,,,,,,145,,,0.2,1164.7751220484206,X,l,go,None,0,,1165.5757519632461,,,,,,,,,,,,,,,,,47,001,20,w,Psychologie,2023-01-19_09h04.49.537,00_bat_bachelor,2022.2.4,60.025348876884635,
,,,,,,,,,,,,1,0,1,0,146,0,146,0,,,,,,,146,,,0.2,1165.7760515025002,Y,d,go,d,1,0.22220760441268794,,,,,,,,,,,,,,,,,,47,001,20,w,Psychologie,2023-01-19_09h04.49.537,00_bat_bachelor,2022.2.4,60.025348876884635,
,,,,,,,,,,,,1,0,1,0,147,0,147,0,,,,,,,147,,,0.2,1166.3093501530238,Y,None,nogo,None,1,,,,,,,,,,,,,,,,,,,47,001,20,w,Psychologie,2023-01-19_09h04.49.537,00_bat_bachelor,2022.2.4,60.025348876884635,
,,,,,,,,,,,,1,0,1,0,148,0,148,0,,,,,,,148,,,0.2,1167.3101050617406,Y,None,nogo,None,1,,,,,,,,,,,,,,,,,,,47,001,20,w,Psychologie,2023-01-19_09h04.49.537,00_bat_bachelor,2022.2.4,60.025348876884635,
,,,,,,,,,,,,1,0,1,0,149,0,149,0,,,,,,,149,,,0.2,1168.3112837278459,X,l,go,d,0,0.02309448883170262,,,,,,,,,,,,,,,,,,47,001,20,w,Psychologie,2023-01-19_09h04.49.537,00_bat_bachelor,2022.2.4,60.025348876884635,
,,,,,,,,,,,,1,0,1,0,150,0,150,0,,,,,,,150,,,0.2,1168.644786111603,Y,d,go,None,0,,,,,,,,,,,,,,,,,,,47,001,20,w,Psychologie,2023-01-19_09h04.49.537,00_bat_bachelor,2022.2.4,60.025348876884635,
,,,,,,,,,,,,1,0,1,0,151,0,151,0,,,,,,,151,,,0.2,1169.6452239295759,X,l,go,None,0,,,,,,,,,,,,,,,,,,,47,001,20,w,Psychologie,2023-01-19_09h04.49.537,00_bat_bachelor,2022.2.4,60.025348876884635,
,,,,,,,,,,,,1,0,1,0,152,0,152,0,,,,,,,152,,,0.2,1170.6459715655656,X,None,nogo,None,1,,,,,,,,,,,,,,,,,,,47,001,20,w,Psychologie,2023-01-19_09h04.49.537,00_bat_bachelor,2022.2.4,60.025348876884635,
,,,,,,,,,,,,1,0,1,0,153,0,153,0,,,,,,,153,,,0.2,1171.6470634438447,Y,d,go,None,0,,1172.4477219647379,,,,,,,,,,,,,,,,,47,001,20,w,Psychologie,2023-01-19_09h04.49.537,00_bat_bachelor,2022.2.4,60.025348876884635,
,,,,,,,,,,,,1,0,1,0,154,0,154,0,,,,,,,154,,,0.2,1172.6475070799934,X,l,go,None,0,,,,,,,,,,,,,,,,,,,47,001,20,w,Psychologie,2023-01-19_09h04.49.537,00_bat_bachelor,2022.2.4,60.025348876884635,
,,,,,,,,,,,,1,0,1,0,155,0,155,0,,,,,,,155,,,0.2,1173.648549503734,X,None,nogo,None,1,,1174.4490945701255,,,,,,,,,,,,,,,,,47,001,20,w,Psychologie,2023-01-19_09h04.49.537,00_bat_bachelor,2022.2.4,60.025348876884635,
,,,,,,,,,,,,1,0,1,0,156,0,156,0,,,,,,,156,,,0.2,1174.6490324125916,Y,d,go,None,0,,,,,,,,,,,,,,,,,,,47,001,20,w,Psychologie,2023-01-19_09h04.49.537,00_bat_bachelor,2022.2.4,60.025348876884635,
,,,,,,,,,,,,1,0,1,0,157,0,157,0,,,,,,,157,,,0.2,1175.6497907152516,X,l,go,None,0,,,,,,,,,,,,,,,,,,,47,001,20,w,Psychologie,2023-01-19_09h04.49.537,00_bat_bachelor,2022.2.4,60.025348876884635,
,,,,,,,,,,,,1,0,1,0,158,0,158,0,,,,,,,158,,,0.2,1176.6508423510822,Y,d,go,l,0,0.11516377751831897,,,,,,,,,,,,,,,,,,47,001,20,w,Psychologie,2023-01-19_09h04.49.537,00_bat_bachelor,2022.2.4,60.025348876884635,
,,,,,,,,,,,,1,0,1,0,159,0,159,0,,,,,,,159,,,0.2,1177.067860330717,X,l,go,None,0,,,,,,,,,,,,,,,,,,,47,001,20,w,Psychologie,2023-01-19_09h04.49.537,00_bat_bachelor,2022.2.4,60.025348876884635,
,,,,,,,,,,,,1,0,1,0,160,0,160,0,,,,,,,160,,,0.2,1178.0685861485545,Y,d,go,None,0,,,,,,,,,,,,,,,,,,,47,001,20,w,Psychologie,2023-01-19_09h04.49.537,00_bat_bachelor,2022.2.4,60.025348876884635,
,,,,,,,,,,,,1,0,1,0,161,0,161,0,,,,,,,161,,,0.2,1179.0694966935553,Y,None,nogo,None,1,,,,,,,,,,,,,,,,,,,47,001,20,w,Psychologie,2023-01-19_09h04.49.537,00_bat_bachelor,2022.2.4,60.025348876884635,
,,,,,,,,,,,,1,0,1,0,162,0,162,0,,,,,,,162,,,0.2,1180.069814269169,Y,None,nogo,l,0,0.2321130541677121,,,,,,,,,,,,,,,,,,47,001,20,w,Psychologie,2023-01-19_09h04.49.537,00_bat_bachelor,2022.2.4,60.025348876884635,
,,,,,,,,,,,,1,0,1,0,163,0,163,0,,,,,,,163,,,0.2,1180.6035754649201,X,l,go,None,0,,1181.4044890159857,,,,,,,,,,,,,,,,,47,001,20,w,Psychologie,2023-01-19_09h04.49.537,00_bat_bachelor,2022.2.4,60.025348876884635,
,,,,,,,,,,,,1,0,1,0,164,0,164,0,,,,,,,164,,,0.2,1181.6046877068002,Y,d,go,None,0,,1182.4049452581967,,,,,,,,,,,,,,,,,47,001,20,w,Psychologie,2023-01-19_09h04.49.537,00_bat_bachelor,2022.2.4,60.025348876884635,
,,,,,,,,,,,,1,0,1,0,165,0,165,0,,,,,,,165,,,0.2,1182.605377645872,Y,None,nogo,None,1,,,,,,,,,,,,,,,,,,,47,001,20,w,Psychologie,2023-01-19_09h04.49.537,00_bat_bachelor,2022.2.4,60.025348876884635,
,,,,,,,,,,,,1,0,1,0,166,0,166,0,,,,,,,166,,,0.2,1183.6061771606328,Y,None,nogo,l,0,0.312281257705763,,,,,,,,,,,,,,,,,,47,001,20,w,Psychologie,2023-01-19_09h04.49.537,00_bat_bachelor,2022.2.4,60.025348876884635,
,,,,,,,,,,,,1,0,1,0,167,0,167,0,,,,,,,167,,,0.2,1184.2231926190434,X,l,go,None,0,,,,,,,,,,,,,,,,,,,47,001,20,w,Psychologie,2023-01-19_09h04.49.537,00_bat_bachelor,2022.2.4,60.025348876884635,
,,,,,,,,,,,,1,0,1,0,168,0,168,0,,,,,,,168,,,0.2,1185.224031406513,Y,d,go,None,0,,,,,,,,,,,,,,,,,,,47,001,20,w,Psychologie,2023-01-19_09h04.49.537,00_bat_bachelor,2022.2.4,60.025348876884635,
,,,,,,,,,,,,1,0,1,0,169,0,169,0,,,,,,,169,,,0.2,1186.224708254682,Y,None,nogo,l,0,0.029841637064237148,,,,,,,,,,,,,,,,,,47,001,20,w,Psychologie,2023-01-19_09h04.49.537,00_bat_bachelor,2022.2.4,60.025348876884635,
,,,,,,,,,,,,1,0,1,0,170,0,170,0,,,,,,,170,,,0.2,1186.5584118504485,X,l,go,None,0,,1187.359001038043,,,,,,,,,,,,,,,,,47,001,20,w,Psychologie,2023-01-19_09h04.49.537,00_bat_bachelor,2022.2.4,60.025348876884635,
,,,,,,,,,,,,1,0,1,0,171,0,171,0,,,,,,,171,,,0.2,1187.5591483349563,Y,d,go,None,0,,,,,,,,,,,,,,,,,,,47,001,20,w,Psychologie,2023-01-19_09h04.49.537,00_bat_bachelor,2022.2.4,60.025348876884635,
,,,,,,,,,,,,1,0,1,0,172,0,172,0,,,,,,,172,,,0.2,1188.5597311225429,X,l,go,l,1,0.06206368206767365,,,,,,,,,,,,,,,,,,47,001,20,w,Psychologie,2023-01-19_09h04.49.537,00_bat_bachelor,2022.2.4,60.025348876884635,
,,,,,,,,,,,,1,0,1,0,173,0,173,0,,,,,,,173,,,0.2,1188.9268344597076,Y,d,go,None,0,,,,,,,,,,,,,,,,,,,47,001,20,w,Psychologie,2023-01-19_09h04.49.537,00_bat_bachelor,2022.2.4,60.025348876884635,
,,,,,,,,,,,,1,0,1,0,174,0,174,0,,,,,,,174,,,0.2,1189.9276320350764,X,l,go,None,0,,,,,,,,,,,,,,,,,,,47,001,20,w,Psychologie,2023-01-19_09h04.49.537,00_bat_bachelor,2022.2.4,60.025348876884635,
,,,,,,,,,,,,1,0,1,0,175,0,175,0,,,,,,,175,,,0.2,1190.9284203983261,Y,d,go,d,1,0.09454657539026812,,,,,,,,,,,,,,,,,,47,001,20,w,Psychologie,2023-01-19_09h04.49.537,00_bat_bachelor,2022.2.4,60.025348876884635,
,,,,,,,,,,,,1,0,1,0,176,0,176,0,,,,,,,176,,,0.2,1191.3287765678542,X,l,go,None,0,,,,,,,,,,,,,,,,,,,47,001,20,w,Psychologie,2023-01-19_09h04.49.537,00_bat_bachelor,2022.2.4,60.025348876884635,
,,,,,,,,,,,,1,0,1,0,177,0,177,0,,,,,,,177,,,0.2,1192.329490749311,Y,d,go,None,0,,,,,,,,,,,,,,,,,,,47,001,20,w,Psychologie,2023-01-19_09h04.49.537,00_bat_bachelor,2022.2.4,60.025348876884635,
,,,,,,,,,,,,1,0,1,0,178,0,178,0,,,,,,,178,,,0.2,1193.329931961227,Y,None,nogo,None,1,,1194.1307432093308,,,,,,,,,,,,,,,,,47,001,20,w,Psychologie,2023-01-19_09h04.49.537,00_bat_bachelor,2022.2.4,60.025348876884635,
,,,,,,,,,,,,1,0,1,0,179,0,179,0,,,,,,,179,,,0.2,1194.3309031122772,X,l,go,d,0,0.35415129803004675,,,,,,,,,,,,,,,,,,47,001,20,w,Psychologie,2023-01-19_09h04.49.537,00_bat_bachelor,2022.2.4,60.025348876884635,
,,,,,,,,,,,,1,0,1,0,180,0,180,0,,,,,,,180,,,0.2,1194.9978560010204,Y,d,go,None,0,,,,,,,,,,,,,,,,,,,47,001,20,w,Psychologie,2023-01-19_09h04.49.537,00_bat_bachelor,2022.2.4,60.025348876884635,
,,,,,,,,,,,,1,0,1,0,181,0,181,0,,,,,,,181,,,0.2,1195.9988489702519,X,l,go,None,0,,,,,,,,,,,,,,,,,,,47,001,20,w,Psychologie,2023-01-19_09h04.49.537,00_bat_bachelor,2022.2.4,60.025348876884635,
,,,,,,,,,,,,1,0,1,0,182,0,182,0,,,,,,,182,,,0.2,1196.9996693334833,Y,d,go,None,0,,,,,,,,,,,,,,,,,,,47,001,20,w,Psychologie,2023-01-19_09h04.49.537,00_bat_bachelor,2022.2.4,60.025348876884635,
,,,,,,,,,,,,1,0,1,0,183,0,183,0,,,,,,,183,,,0.2,1198.0004256967513,X,l,go,l,1,0.349410936672939,,,,,,,,,,,,,,,,,,47,001,20,w,Psychologie,2023-01-19_09h04.49.537,00_bat_bachelor,2022.2.4,60.025348876884635,
,,,,,,,,,,,,1,0,1,0,184,0,184,0,,,,,,,184,,,0.2,1198.650651805743,X,None,nogo,d,0,0.2900868442375213,,,,,,,,,,,,,,,,,,47,001,20,w,Psychologie,2023-01-19_09h04.49.537,00_bat_bachelor,2022.2.4,60.025348876884635,
,,,,,,,,,,,,1,0,1,0,185,0,185,0,,,,,,,185,,,0.2,1199.2518592718116,Y,d,go,None,0,,,,,,,,,,,,,,,,,,,47,001,20,w,Psychologie,2023-01-19_09h04.49.537,00_bat_bachelor,2022.2.4,60.025348876884635,
,,,,,,,,,,,,1,0,1,0,186,0,186,0,,,,,,,186,,,0.2,1200.2522093322477,X,l,go,l,1,0.0008583784219808877,,,,,,,,,,,,,,,,,,47,001,20,w,Psychologie,2023-01-19_09h04.49.537,00_bat_bachelor,2022.2.4,60.025348876884635,
,,,,,,,,,,,,1,0,1,0,187,0,187,0,,,,,,,187,,,0.2,1200.5688952393248,Y,d,go,d,1,0.40502642485080287,,,,,,,,,,,,,,,,,,47,001,20,w,Psychologie,2023-01-19_09h04.49.537,00_bat_bachelor,2022.2.4,60.025348876884635,
,,,,,,,,,,,,1,0,1,0,188,0,188,0,,,,,,,188,,,0.2,1201.2862030127435,Y,None,nogo,None,1,,,,,,,,,,,,,,,,,,,47,001,20,w,Psychologie,2023-01-19_09h04.49.537,00_bat_bachelor,2022.2.4,60.025348876884635,
,,,,,,,,,,,,1,0,1,0,189,0,189,0,,,,,,,189,,,0.2,1202.2870898002002,X,l,go,l,1,0.19087186205433682,,,,,,,,,,,,,,,,,,47,001,20,w,Psychologie,2023-01-19_09h04.49.537,00_bat_bachelor,2022.2.4,60.025348876884635,
,,,,,,,,,,,,1,0,1,0,190,0,190,0,,,,,,,190,,,0.2,1202.7874493151612,Y,d,go,d,1,0.36336341476999223,,,,,,,,,,,,,,,,,,47,001,20,w,Psychologie,2023-01-19_09h04.49.537,00_bat_bachelor,2022.2.4,60.025348876884635,
,,,,,,,,,,,,1,0,1,0,191,0,191,0,,,,,,,191,,,0.2,1203.4544206281425,X,l,go,l,1,0.5592973803868517,,,,,,,,,,,,,,,,,,47,001,20,w,Psychologie,2023-01-19_09h04.49.537,00_bat_bachelor,2022.2.4,60.025348876884635,
,,,,,,,,,,,,1,0,1,0,192,0,192,0,,,,,,,192,,,0.2,1204.3220071165997,Y,d,go,d,1,0.4604751252627466,,,,,,,,,,,,,,,,,,47,001,20,w,Psychologie,2023-01-19_09h04.49.537,00_bat_bachelor,2022.2.4,60.025348876884635,
,,,,,,,,,,,,1,0,1,0,193,0,193,0,,,,,,,193,,,0.2,1205.0891364416166,X,l,go,l,1,0.46198930632090196,,,,,,,,,,,,,,,,,,47,001,20,w,Psychologie,2023-01-19_09h04.49.537,00_bat_bachelor,2022.2.4,60.025348876884635,
,,,,,,,,,,,,1,0,1,0,194,0,194,0,,,,,,,194,,,0.2,1205.8564054029412,X,None,nogo,d,0,0.33290621743071824,,,,,,,,,,,,,,,,,,47,001,20,w,Psychologie,2023-01-19_09h04.49.537,00_bat_bachelor,2022.2.4,60.025348876884635,
,,,,,,,,,,,,1,0,1,0,195,0,195,0,,,,,,,195,,,0.2,1206.4900550351012,Y,d,go,None,0,,,,,,,,,,,,,,,,,,,47,001,20,w,Psychologie,2023-01-19_09h04.49.537,00_bat_bachelor,2022.2.4,60.025348876884635,
,,,,,,,,,,,,1,0,1,0,196,0,196,0,,,,,,,196,,,0.2,1207.4907197620487,X,l,go,l,1,0.28262551451916806,,,,,,,,,,,,,,,,,,47,001,20,w,Psychologie,2023-01-19_09h04.49.537,00_bat_bachelor,2022.2.4,60.025348876884635,
,,,,,,,,,,,,1,0,1,0,197,0,197,0,,,,,,,197,,,0.2,1208.0745701456617,X,None,nogo,None,1,,,,,,,,,,,,,,,,,,,47,001,20,w,Psychologie,2023-01-19_09h04.49.537,00_bat_bachelor,2022.2.4,60.025348876884635,
