loop_instruction.thisRepN,loop_instruction.thisTrialN,loop_instruction.thisN,loop_instruction.thisIndex,loop_rsi_practice.thisRepN,loop_rsi_practice.thisTrialN,loop_rsi_practice.thisN,loop_rsi_practice.thisIndex,loop_practice.thisRepN,loop_practice.thisTrialN,loop_practice.thisN,loop_practice.thisIndex,loop_exp.thisRepN,loop_exp.thisTrialN,loop_exp.thisN,loop_exp.thisIndex,loop_trials.thisRepN,loop_trials.thisTrialN,loop_trials.thisN,loop_trials.thisIndex,map_condition,map_x_key,map_y_key,key_resp_welcome.started,key_resp_welcome.keys,key_resp_welcome.rt,index,text_empty_rsi_practice.started,text_empty_rsi_practice.stopped,rsi,stimulus.started,stimulus,correct,trial_type,key_resp_trial.keys,key_resp_trial.corr,stimulus.stopped,key_resp_trial.rt,key_resp_instruction_rsi.started,key_resp_instruction_rsi.keys,key_resp_instruction_rsi.rt,key_resp_instruction_rsi.stopped,key_resp_instruction_final.started,key_resp_instruction_final.keys,key_resp_instruction_final.rt,key_resp_break.started,key_resp_break.keys,key_resp_break.rt,key_resp_break.stopped,key_resp_end_screen.started,image_end_screen.started,key_resp_end_screen.stopped,image_end_screen.stopped,key_resp_end_screen.keys,participant,session,Alter,Geschlecht (w/m/d/andere),Studiengang,date,expName,psychopyVersion,frameRate,
,,,,0,0,0,0,0,0,0,0,,,,,,,,,0,d,l,595.0822035964811,j,22.810961569775827,0,617.9160717983032,618.9289290041197,1,618.9289290041197,X,d,go,None,0,,,,,,,,,,,,,,,,,,,48,001,19,w,Psychologie,2023-01-19_09h05.07.239,00_bat_bachelor,2022.2.4,60.018012639702455,
,,,,0,0,0,0,1,0,1,0,,,,,,,,,,,,,,,1,620.3304895367473,621.332768323482,1,621.332768323482,Y,l,go,None,0,622.1319209056674,,,,,,,,,,,,,,,,,,48,001,19,w,Psychologie,2023-01-19_09h05.07.239,00_bat_bachelor,2022.2.4,60.018012639702455,
,,,,0,0,0,0,2,0,2,0,,,,,,,,,,,,,,,2,622.7321305541554,623.7329203719273,1,623.7329203719273,X,d,go,d,1,,0.5882872533984482,,,,,,,,,,,,,,,,,48,001,19,w,Psychologie,2023-01-19_09h05.07.239,00_bat_bachelor,2022.2.4,60.018012639702455,
,,,,0,0,0,0,3,0,3,0,,,,,,,,,,,,,,,3,625.0674588764086,626.0682869971497,1,626.0682869971497,Y,l,go,None,0,626.8687510939781,,,,,,,,,,,,,,,,,,48,001,19,w,Psychologie,2023-01-19_09h05.07.239,00_bat_bachelor,2022.2.4,60.018012639702455,
,,,,0,0,0,0,4,0,4,0,,,,,,,,,,,,,,,4,627.4690019544214,628.4697849843651,1,628.4697849843651,Y,None,nogo,None,1,629.2703130810987,,,,,,,,,,,,,,,,,,48,001,19,w,Psychologie,2023-01-19_09h05.07.239,00_bat_bachelor,2022.2.4,60.018012639702455,
,,,,0,0,0,0,5,0,5,0,,,,,,,,,,,,,,,5,629.8709290322149,630.8718963045394,1,630.8718963045394,X,d,go,None,0,631.6723424618831,,,,,,,,,,,,,,,,,,48,001,19,w,Psychologie,2023-01-19_09h05.07.239,00_bat_bachelor,2022.2.4,60.018012639702455,
,,,,0,0,0,0,6,0,6,0,,,,,,,,,,,,,,,6,632.2726127163041,633.2734752612887,1,633.2734752612887,Y,l,go,None,0,634.0739752368536,,,,,,,,,,,,,,,,,,48,001,19,w,Psychologie,2023-01-19_09h05.07.239,00_bat_bachelor,2022.2.4,60.018012639702455,
,,,,0,0,0,0,7,0,7,0,,,,,,,,,,,,,,,7,634.6745490062749,635.6754464603728,1,635.6754464603728,X,d,go,None,0,636.4757098299451,,,,,,,,,,,,,,,,,,48,001,19,w,Psychologie,2023-01-19_09h05.07.239,00_bat_bachelor,2022.2.4,60.018012639702455,
,,,,0,0,0,0,8,0,8,0,,,,,,,,,,,,,,,8,637.0762709933333,638.0773182655685,1,638.0773182655685,Y,l,go,d,0,,0.5958261588821188,,,,,,,,,,,,,,,,,48,001,19,w,Psychologie,2023-01-19_09h05.07.239,00_bat_bachelor,2022.2.4,60.018012639702455,
,,,,0,0,0,0,9,0,9,0,,,,,,,,,,,,,,,9,639.3948356873589,640.3956182324328,1,640.3956182324328,X,d,go,None,0,641.1962311775424,,,,,,,,,,,,,,,,,,48,001,19,w,Psychologie,2023-01-19_09h05.07.239,00_bat_bachelor,2022.2.4,60.018012639702455,
,,,,0,0,0,0,10,0,10,0,,,,,,,,,,,,,,,10,641.7965135532431,642.7974226436345,1,642.7974226436345,X,None,nogo,d,0,,0.1960852617630735,,,,,,,,,,,,,,,,,48,001,19,w,Psychologie,2023-01-19_09h05.07.239,00_bat_bachelor,2022.2.4,60.018012639702455,
,,,,0,0,0,0,11,0,11,0,,,,,,,,,,,,,,,11,644.1147873383015,645.1155340045225,1,645.1155340045225,Y,l,go,None,0,645.9159743437776,,,,,,,,,,,,,,,,,,48,001,19,w,Psychologie,2023-01-19_09h05.07.239,00_bat_bachelor,2022.2.4,60.018012639702455,
,,,,0,0,0,0,12,0,12,0,,,,,,,,,,,,,,,12,646.5165781737305,647.5173485976411,1,647.5173485976411,X,d,go,d,1,,0.5648375678574666,,,,,,,,,,,,,,,,,48,001,19,w,Psychologie,2023-01-19_09h05.07.239,00_bat_bachelor,2022.2.4,60.018012639702455,
,,,,0,0,0,0,13,0,13,0,,,,,,,,,,,,,,,13,648.7848272558767,649.7857402251102,1,649.7857402251102,Y,l,go,None,0,650.5863187459763,,,,,,,,,,,,,,,,,,48,001,19,w,Psychologie,2023-01-19_09h05.07.239,00_bat_bachelor,2022.2.4,60.018012639702455,
,,,,0,0,0,0,14,0,14,0,,,,,,,,,,,,,,,14,651.1869725154247,652.1876823332859,1,652.1876823332859,Y,None,nogo,None,1,652.9883418238023,,,,,,,,,,,,,,,,,,48,001,19,w,Psychologie,2023-01-19_09h05.07.239,00_bat_bachelor,2022.2.4,60.018012639702455,
,,,,1,0,1,0,0,0,0,0,,,,,,,,,,,,,,,0,685.0959660140797,685.2961414321326,0.2,685.2961414321326,X,d,go,d,1,,0.6256399626145139,653.6102770374855,j,31.467601251322776,,,,,,,,,,,,,,48,001,19,w,Psychologie,2023-01-19_09h05.07.239,00_bat_bachelor,2022.2.4,60.018012639702455,
,,,,1,0,1,0,1,0,1,0,,,,,,,,,,,,,,,1,686.6304724215297,686.8307622638531,0.2,686.8307622638531,Y,l,go,l,1,,0.4348788430215791,,,,,,,,,,,,,,,,,48,001,19,w,Psychologie,2023-01-19_09h05.07.239,00_bat_bachelor,2022.2.4,60.018012639702455,
,,,,1,0,1,0,2,0,2,0,,,,,,,,,,,,,,,2,687.9813372211065,688.181482093758,0.2,688.181482093758,X,d,go,d,1,,0.3323033775668591,,,,,,,,,,,,,,,,,48,001,19,w,Psychologie,2023-01-19_09h05.07.239,00_bat_bachelor,2022.2.4,60.018012639702455,
,,,,1,0,1,0,3,0,3,0,,,,,,,,,,,,,,,3,689.2157841378357,689.4159474347252,0.2,689.4159474347252,X,None,nogo,None,1,690.2165293495636,,,,,,,,,,,,,,,,,,48,001,19,w,Psychologie,2023-01-19_09h05.07.239,00_bat_bachelor,2022.2.4,60.018012639702455,
,,,,1,0,1,0,4,0,4,0,,,,,,,,,,,,,,,4,690.8168650584994,691.0170361129567,0.2,691.0170361129567,Y,l,go,l,1,,0.32770459190942347,,,,,,,,,,,,,,,,,48,001,19,w,Psychologie,2023-01-19_09h05.07.239,00_bat_bachelor,2022.2.4,60.018012639702455,
,,,,1,0,1,0,5,0,5,0,,,,,,,,,,,,,,,5,692.0514482174767,692.2514529690379,0.2,692.2514529690379,X,d,go,d,1,,0.45455446979030967,,,,,,,,,,,,,,,,,48,001,19,w,Psychologie,2023-01-19_09h05.07.239,00_bat_bachelor,2022.2.4,60.018012639702455,
,,,,1,0,1,0,6,0,6,0,,,,,,,,,,,,,,,6,693.4189016150776,693.6191269725095,0.2,693.6191269725095,X,None,nogo,d,0,,0.41388103493954986,,,,,,,,,,,,,,,,,48,001,19,w,Psychologie,2023-01-19_09h05.07.239,00_bat_bachelor,2022.2.4,60.018012639702455,
,,,,1,0,1,0,7,0,7,0,,,,,,,,,,,,,,,7,695.1368455094052,695.3371663819999,0.2,695.3371663819999,X,None,nogo,d,0,,0.6167143911588937,,,,,,,,,,,,,,,,,48,001,19,w,Psychologie,2023-01-19_09h05.07.239,00_bat_bachelor,2022.2.4,60.018012639702455,
,,,,1,0,1,0,8,0,8,0,,,,,,,,,,,,,,,8,697.0550928217126,697.255059755058,0.2,697.255059755058,Y,l,go,l,1,,0.4424264756962657,,,,,,,,,,,,,,,,,48,001,19,w,Psychologie,2023-01-19_09h05.07.239,00_bat_bachelor,2022.2.4,60.018012639702455,
,,,,1,0,1,0,9,0,9,0,,,,,,,,,,,,,,,9,698.4058349546976,698.6061456454918,0.2,698.6061456454918,X,d,go,d,1,,0.3715683282352984,,,,,,,,,,,,,,,,,48,001,19,w,Psychologie,2023-01-19_09h05.07.239,00_bat_bachelor,2022.2.4,60.018012639702455,
,,,,1,0,1,0,10,0,10,0,,,,,,,,,,,,,,,10,699.6902614835417,699.890395204653,0.2,699.890395204653,Y,l,go,l,1,,0.41547424625605345,,,,,,,,,,,,,,,,,48,001,19,w,Psychologie,2023-01-19_09h05.07.239,00_bat_bachelor,2022.2.4,60.018012639702455,
,,,,1,0,1,0,11,0,11,0,,,,,,,,,,,,,,,11,701.0079355112975,701.2080498385476,0.2,701.2080498385476,X,d,go,d,1,,0.3785477187484503,,,,,,,,,,,,,,,,,48,001,19,w,Psychologie,2023-01-19_09h05.07.239,00_bat_bachelor,2022.2.4,60.018012639702455,
,,,,1,0,1,0,12,0,12,0,,,,,,,,,,,,,,,12,702.292201555334,702.4922635188559,0.2,702.4922635188559,X,None,nogo,None,1,,,,,,,,,,,,,,,,,,,48,001,19,w,Psychologie,2023-01-19_09h05.07.239,00_bat_bachelor,2022.2.4,60.018012639702455,
,,,,1,0,1,0,13,0,13,0,,,,,,,,,,,,,,,13,703.8931234457996,704.0935403183103,0.2,704.0935403183103,Y,l,go,l,1,,0.41980442602653056,,,,,,,,,,,,,,,,,48,001,19,w,Psychologie,2023-01-19_09h05.07.239,00_bat_bachelor,2022.2.4,60.018012639702455,
,,,,1,0,1,0,14,0,14,0,,,,,,,,,,,,,,,14,705.2278825561516,705.4279513076181,0.2,705.4279513076181,X,d,go,d,1,,0.334082770626992,,,,,,,,,,,,,,,,,48,001,19,w,Psychologie,2023-01-19_09h05.07.239,00_bat_bachelor,2022.2.4,60.018012639702455,
,,,,,,,,,,,,,,,,,,,,,,,,,,,,,,,,,,,,,,706.5079076325055,None,,706.5079076325055,706.5079076325055,space,5.44818210916128,,,,,,,,,,48,001,19,w,Psychologie,2023-01-19_09h05.07.239,00_bat_bachelor,2022.2.4,60.018012639702455,
,,,,,,,,,,,,0,0,0,0,0,0,0,0,,,,,,,0,,,1,712.9840407349402,X,d,go,d,1,,0.26512813731096685,,,,,,,,,,,,,,,,,48,001,19,w,Psychologie,2023-01-19_09h05.07.239,00_bat_bachelor,2022.2.4,60.018012639702455,
,,,,,,,,,,,,0,0,0,0,1,0,1,0,,,,,,,1,,,1,714.3516812840244,Y,l,go,l,1,,0.434494843124412,,,,,,,,,,,,,,,,,48,001,19,w,Psychologie,2023-01-19_09h05.07.239,00_bat_bachelor,2022.2.4,60.018012639702455,
,,,,,,,,,,,,0,0,0,0,2,0,2,0,,,,,,,2,,,1,715.9027467138367,X,d,go,d,1,,0.45099810778629035,,,,,,,,,,,,,,,,,48,001,19,w,Psychologie,2023-01-19_09h05.07.239,00_bat_bachelor,2022.2.4,60.018012639702455,
,,,,,,,,,,,,0,0,0,0,3,0,3,0,,,,,,,3,,,1,717.47059904458,Y,l,go,l,1,,0.4023280708352104,,,,,,,,,,,,,,,,,48,001,19,w,Psychologie,2023-01-19_09h05.07.239,00_bat_bachelor,2022.2.4,60.018012639702455,
,,,,,,,,,,,,0,0,0,0,4,0,4,0,,,,,,,4,,,1,718.9885997631354,X,d,go,d,1,,0.3568080929107964,,,,,,,,,,,,,,,,,48,001,19,w,Psychologie,2023-01-19_09h05.07.239,00_bat_bachelor,2022.2.4,60.018012639702455,
,,,,,,,,,,,,0,0,0,0,5,0,5,0,,,,,,,5,,,1,720.4560177183012,X,None,nogo,d,0,,0.553298179525882,,,,,,,,,,,,,,,,,48,001,19,w,Psychologie,2023-01-19_09h05.07.239,00_bat_bachelor,2022.2.4,60.018012639702455,
,,,,,,,,,,,,0,0,0,0,6,0,6,0,,,,,,,6,,,1,722.1243834547931,Y,l,go,l,1,,0.5331498256418854,,,,,,,,,,,,,,,,,48,001,19,w,Psychologie,2023-01-19_09h05.07.239,00_bat_bachelor,2022.2.4,60.018012639702455,
,,,,,,,,,,,,0,0,0,0,7,0,7,0,,,,,,,7,,,1,723.759203995578,X,d,go,d,1,,0.48329384985845536,,,,,,,,,,,,,,,,,48,001,19,w,Psychologie,2023-01-19_09h05.07.239,00_bat_bachelor,2022.2.4,60.018012639702455,
,,,,,,,,,,,,0,0,0,0,8,0,8,0,,,,,,,8,,,1,725.3436609242344,Y,l,go,l,1,,0.5137670470867306,,,,,,,,,,,,,,,,,48,001,19,w,Psychologie,2023-01-19_09h05.07.239,00_bat_bachelor,2022.2.4,60.018012639702455,
,,,,,,,,,,,,0,0,0,0,9,0,9,0,,,,,,,9,,,1,726.9776887380285,Y,None,nogo,None,1,727.7782381681027,,,,,,,,,,,,,,,,,,48,001,19,w,Psychologie,2023-01-19_09h05.07.239,00_bat_bachelor,2022.2.4,60.018012639702455,
,,,,,,,,,,,,0,0,0,0,10,0,10,0,,,,,,,10,,,1,728.779022167786,X,d,go,d,1,,0.35941754619125277,,,,,,,,,,,,,,,,,48,001,19,w,Psychologie,2023-01-19_09h05.07.239,00_bat_bachelor,2022.2.4,60.018012639702455,
,,,,,,,,,,,,0,0,0,0,11,0,11,0,,,,,,,11,,,1,730.2469574559946,Y,l,go,l,1,,0.44318574806675315,,,,,,,,,,,,,,,,,48,001,19,w,Psychologie,2023-01-19_09h05.07.239,00_bat_bachelor,2022.2.4,60.018012639702455,
,,,,,,,,,,,,0,0,0,0,12,0,12,0,,,,,,,12,,,1,731.7980931887869,Y,None,nogo,None,1,732.5983323159162,,,,,,,,,,,,,,,,,,48,001,19,w,Psychologie,2023-01-19_09h05.07.239,00_bat_bachelor,2022.2.4,60.018012639702455,
,,,,,,,,,,,,0,0,0,0,13,0,13,0,,,,,,,13,,,1,733.5994406790705,X,d,go,d,1,,0.2586898375302553,,,,,,,,,,,,,,,,,48,001,19,w,Psychologie,2023-01-19_09h05.07.239,00_bat_bachelor,2022.2.4,60.018012639702455,
,,,,,,,,,,,,0,0,0,0,14,0,14,0,,,,,,,14,,,1,734.9667806221405,Y,l,go,l,1,,0.4117152177495882,,,,,,,,,,,,,,,,,48,001,19,w,Psychologie,2023-01-19_09h05.07.239,00_bat_bachelor,2022.2.4,60.018012639702455,
,,,,,,,,,,,,0,0,0,0,15,0,15,0,,,,,,,15,,,1,736.5012928477954,X,d,go,d,1,,0.3968032250413671,,,,,,,,,,,,,,,,,48,001,19,w,Psychologie,2023-01-19_09h05.07.239,00_bat_bachelor,2022.2.4,60.018012639702455,
,,,,,,,,,,,,0,0,0,0,16,0,16,0,,,,,,,16,,,1,738.0024795139907,X,None,nogo,None,1,,,,,,,,,,,,,,,,,,,48,001,19,w,Psychologie,2023-01-19_09h05.07.239,00_bat_bachelor,2022.2.4,60.018012639702455,
,,,,,,,,,,,,0,0,0,0,17,0,17,0,,,,,,,17,,,1,739.8040301556466,Y,l,go,l,1,,0.2622752903262153,,,,,,,,,,,,,,,,,48,001,19,w,Psychologie,2023-01-19_09h05.07.239,00_bat_bachelor,2022.2.4,60.018012639702455,
,,,,,,,,,,,,0,0,0,0,18,0,18,0,,,,,,,18,,,1,741.1715795531636,X,d,go,d,1,,0.2538321428000927,,,,,,,,,,,,,,,,,48,001,19,w,Psychologie,2023-01-19_09h05.07.239,00_bat_bachelor,2022.2.4,60.018012639702455,
,,,,,,,,,,,,0,0,0,0,19,0,19,0,,,,,,,19,,,1,742.5394809505669,Y,l,go,l,1,,0.2625007446622476,,,,,,,,,,,,,,,,,48,001,19,w,Psychologie,2023-01-19_09h05.07.239,00_bat_bachelor,2022.2.4,60.018012639702455,
,,,,,,,,,,,,0,0,0,0,20,0,20,0,,,,,,,20,,,1,743.9072136207251,X,d,go,d,1,,0.34974870237056166,,,,,,,,,,,,,,,,,48,001,19,w,Psychologie,2023-01-19_09h05.07.239,00_bat_bachelor,2022.2.4,60.018012639702455,
,,,,,,,,,,,,0,0,0,0,21,0,21,0,,,,,,,21,,,1,745.3583047959255,Y,l,go,l,1,,0.2602481397334486,,,,,,,,,,,,,,,,,48,001,19,w,Psychologie,2023-01-19_09h05.07.239,00_bat_bachelor,2022.2.4,60.018012639702455,
,,,,,,,,,,,,0,0,0,0,22,0,22,0,,,,,,,22,,,1,746.725942920777,Y,None,nogo,None,1,,,,,,,,,,,,,,,,,,,48,001,19,w,Psychologie,2023-01-19_09h05.07.239,00_bat_bachelor,2022.2.4,60.018012639702455,
,,,,,,,,,,,,0,0,0,0,23,0,23,0,,,,,,,23,,,1,748.5274470170261,X,d,go,d,1,,0.16262927802745253,,,,,,,,,,,,,,,,,48,001,19,w,Psychologie,2023-01-19_09h05.07.239,00_bat_bachelor,2022.2.4,60.018012639702455,
,,,,,,,,,,,,0,0,0,0,24,0,24,0,,,,,,,24,,,1,749.7949184024474,Y,l,go,l,1,,0.4152420039754361,,,,,,,,,,,,,,,,,48,001,19,w,Psychologie,2023-01-19_09h05.07.239,00_bat_bachelor,2022.2.4,60.018012639702455,
,,,,,,,,,,,,0,0,0,0,25,0,25,0,,,,,,,25,,,1,751.3126063938253,Y,None,nogo,l,0,,0.4644904648885131,,,,,,,,,,,,,,,,,48,001,19,w,Psychologie,2023-01-19_09h05.07.239,00_bat_bachelor,2022.2.4,60.018012639702455,
,,,,,,,,,,,,0,0,0,0,26,0,26,0,,,,,,,26,,,1,752.8804558154661,X,d,go,d,1,,0.3208517467137426,,,,,,,,,,,,,,,,,48,001,19,w,Psychologie,2023-01-19_09h05.07.239,00_bat_bachelor,2022.2.4,60.018012639702455,
,,,,,,,,,,,,0,0,0,0,27,0,27,0,,,,,,,27,,,1,754.3150534229353,Y,l,go,l,1,,0.5182019540807232,,,,,,,,,,,,,,,,,48,001,19,w,Psychologie,2023-01-19_09h05.07.239,00_bat_bachelor,2022.2.4,60.018012639702455,
,,,,,,,,,,,,0,0,0,0,28,0,28,0,,,,,,,28,,,1,755.949659175938,X,d,go,d,1,,0.3720119643257931,,,,,,,,,,,,,,,,,48,001,19,w,Psychologie,2023-01-19_09h05.07.239,00_bat_bachelor,2022.2.4,60.018012639702455,
,,,,,,,,,,,,0,0,0,0,29,0,29,0,,,,,,,29,,,1,757.4342039106414,X,None,nogo,None,1,,,,,,,,,,,,,,,,,,,48,001,19,w,Psychologie,2023-01-19_09h05.07.239,00_bat_bachelor,2022.2.4,60.018012639702455,
,,,,,,,,,,,,0,0,0,0,30,0,30,0,,,,,,,30,,,1,759.2356677645585,Y,l,go,l,1,,0.34979767201002687,,,,,,,,,,,,,,,,,48,001,19,w,Psychologie,2023-01-19_09h05.07.239,00_bat_bachelor,2022.2.4,60.018012639702455,
,,,,,,,,,,,,0,0,0,0,31,0,31,0,,,,,,,31,,,1,760.6868156669661,X,d,go,d,1,,0.29081054916605353,,,,,,,,,,,,,,,,,48,001,19,w,Psychologie,2023-01-19_09h05.07.239,00_bat_bachelor,2022.2.4,60.018012639702455,
,,,,,,,,,,,,0,0,0,0,32,0,32,0,,,,,,,32,,,1,762.0874821393518,X,None,nogo,None,1,762.8883535086643,,,,,,,,,,,,,,,,,,48,001,19,w,Psychologie,2023-01-19_09h05.07.239,00_bat_bachelor,2022.2.4,60.018012639702455,
,,,,,,,,,,,,0,0,0,0,33,0,33,0,,,,,,,33,,,1,763.8890478113899,Y,l,go,l,1,,0.4957980861654505,,,,,,,,,,,,,,,,,48,001,19,w,Psychologie,2023-01-19_09h05.07.239,00_bat_bachelor,2022.2.4,60.018012639702455,
,,,,,,,,,,,,0,0,0,0,34,0,34,0,,,,,,,34,,,1,765.490329944063,X,d,go,d,1,,0.2882030352484435,,,,,,,,,,,,,,,,,48,001,19,w,Psychologie,2023-01-19_09h05.07.239,00_bat_bachelor,2022.2.4,60.018012639702455,
,,,,,,,,,,,,0,0,0,0,35,0,35,0,,,,,,,35,,,1,766.8911360527854,X,None,nogo,None,1,,,,,,,,,,,,,,,,,,,48,001,19,w,Psychologie,2023-01-19_09h05.07.239,00_bat_bachelor,2022.2.4,60.018012639702455,
,,,,,,,,,,,,0,0,0,0,36,0,36,0,,,,,,,36,,,1,768.6927041489398,Y,l,go,l,1,,0.3329084680881351,,,,,,,,,,,,,,,,,48,001,19,w,Psychologie,2023-01-19_09h05.07.239,00_bat_bachelor,2022.2.4,60.018012639702455,
,,,,,,,,,,,,0,0,0,0,37,0,37,0,,,,,,,37,,,1,770.1270186051261,X,d,go,d,1,,0.40196443465538323,,,,,,,,,,,,,,,,,48,001,19,w,Psychologie,2023-01-19_09h05.07.239,00_bat_bachelor,2022.2.4,60.018012639702455,
,,,,,,,,,,,,0,0,0,0,38,0,38,0,,,,,,,38,,,1,771.6448728994001,Y,l,go,l,1,,0.40501267556101084,,,,,,,,,,,,,,,,,48,001,19,w,Psychologie,2023-01-19_09h05.07.239,00_bat_bachelor,2022.2.4,60.018012639702455,
,,,,,,,,,,,,0,0,0,0,39,0,39,0,,,,,,,39,,,1,773.1636299812235,X,d,go,d,1,,0.22945300315041095,,,,,,,,,,,,,,,,,48,001,19,w,Psychologie,2023-01-19_09h05.07.239,00_bat_bachelor,2022.2.4,60.018012639702455,
,,,,,,,,,,,,0,0,0,0,40,0,40,0,,,,,,,40,,,1,774.514280477888,X,None,nogo,None,1,775.3149428776233,,,,,,,,,,,,,,,,,,48,001,19,w,Psychologie,2023-01-19_09h05.07.239,00_bat_bachelor,2022.2.4,60.018012639702455,
,,,,,,,,,,,,0,0,0,0,41,0,41,0,,,,,,,41,,,1,776.3156677257502,Y,l,go,l,1,,0.2774398890323937,,,,,,,,,,,,,,,,,48,001,19,w,Psychologie,2023-01-19_09h05.07.239,00_bat_bachelor,2022.2.4,60.018012639702455,
,,,,,,,,,,,,0,0,0,0,42,0,42,0,,,,,,,42,,,1,777.7000942060258,X,d,go,d,1,,0.3169181728735566,,,,,,,,,,,,,,,,,48,001,19,w,Psychologie,2023-01-19_09h05.07.239,00_bat_bachelor,2022.2.4,60.018012639702455,
,,,,,,,,,,,,0,0,0,0,43,0,43,0,,,,,,,43,,,1,779.1177924277727,X,None,nogo,l,0,,0.48323033459018916,,,,,,,,,,,,,,,,,48,001,19,w,Psychologie,2023-01-19_09h05.07.239,00_bat_bachelor,2022.2.4,60.018012639702455,
,,,,,,,,,,,,0,0,0,0,44,0,44,0,,,,,,,44,,,1,780.7190246210666,X,None,nogo,None,1,781.5196889601648,,,,,,,,,,,,,,,,,,48,001,19,w,Psychologie,2023-01-19_09h05.07.239,00_bat_bachelor,2022.2.4,60.018012639702455,
,,,,,,,,,,,,0,0,0,0,45,0,45,0,,,,,,,45,,,1,782.5204152627848,Y,l,go,l,1,,0.4248638175195083,,,,,,,,,,,,,,,,,48,001,19,w,Psychologie,2023-01-19_09h05.07.239,00_bat_bachelor,2022.2.4,60.018012639702455,
,,,,,,,,,,,,0,0,0,0,46,0,46,0,,,,,,,46,,,1,784.054815973388,X,d,go,d,1,,0.3295082274125889,,,,,,,,,,,,,,,,,48,001,19,w,Psychologie,2023-01-19_09h05.07.239,00_bat_bachelor,2022.2.4,60.018012639702455,
,,,,,,,,,,,,0,0,0,0,47,0,47,0,,,,,,,47,,,1,785.5059469061671,X,None,nogo,None,1,786.3065137907397,,,,,,,,,,,,,,,,,,48,001,19,w,Psychologie,2023-01-19_09h05.07.239,00_bat_bachelor,2022.2.4,60.018012639702455,
,,,,,,,,,,,,0,0,0,0,48,0,48,0,,,,,,,48,,,1,787.3072837297805,Y,l,go,l,1,,0.32632616825867444,,,,,,,,,,,,,,,,,48,001,19,w,Psychologie,2023-01-19_09h05.07.239,00_bat_bachelor,2022.2.4,60.018012639702455,
,,,,,,,,,,,,0,0,0,0,49,0,49,0,,,,,,,49,,,1,788.7416137009859,X,d,go,d,1,,0.3482447031419724,,,,,,,,,,,,,,,,,48,001,19,w,Psychologie,2023-01-19_09h05.07.239,00_bat_bachelor,2022.2.4,60.018012639702455,
,,,,,,,,,,,,0,0,0,0,50,0,50,0,,,,,,,50,,,1,790.1929356639739,Y,l,go,l,1,,0.3681826329557225,,,,,,,,,,,,,,,,,48,001,19,w,Psychologie,2023-01-19_09h05.07.239,00_bat_bachelor,2022.2.4,60.018012639702455,
,,,,,,,,,,,,0,0,0,0,51,0,51,0,,,,,,,51,,,1,791.6772399140755,X,d,go,d,1,,0.40371037321165204,,,,,,,,,,,,,,,,,48,001,19,w,Psychologie,2023-01-19_09h05.07.239,00_bat_bachelor,2022.2.4,60.018012639702455,
,,,,,,,,,,,,0,0,0,0,52,0,52,0,,,,,,,52,,,1,793.1951955417171,X,None,nogo,None,1,793.995810426306,,,,,,,,,,,,,,,,,,48,001,19,w,Psychologie,2023-01-19_09h05.07.239,00_bat_bachelor,2022.2.4,60.018012639702455,
,,,,,,,,,,,,0,0,0,0,53,0,53,0,,,,,,,53,,,1,794.9963738198858,Y,l,go,l,1,,0.33285077125765383,,,,,,,,,,,,,,,,,48,001,19,w,Psychologie,2023-01-19_09h05.07.239,00_bat_bachelor,2022.2.4,60.018012639702455,
,,,,,,,,,,,,0,0,0,0,54,0,54,0,,,,,,,54,,,1,796.4312085182173,X,d,go,d,1,,0.3068827837705612,,,,,,,,,,,,,,,,,48,001,19,w,Psychologie,2023-01-19_09h05.07.239,00_bat_bachelor,2022.2.4,60.018012639702455,
,,,,,,,,,,,,0,0,0,0,55,0,55,0,,,,,,,55,,,1,797.8487569218269,Y,l,go,l,1,,0.32821319764479995,,,,,,,,,,,,,,,,,48,001,19,w,Psychologie,2023-01-19_09h05.07.239,00_bat_bachelor,2022.2.4,60.018012639702455,
,,,,,,,,,,,,0,0,0,0,56,0,56,0,,,,,,,56,,,1,799.283145074849,X,d,go,d,1,,0.3661103914491832,,,,,,,,,,,,,,,,,48,001,19,w,Psychologie,2023-01-19_09h05.07.239,00_bat_bachelor,2022.2.4,60.018012639702455,
,,,,,,,,,,,,0,0,0,0,57,0,57,0,,,,,,,57,,,1,800.7676369611872,Y,l,go,l,1,,0.36921875353436917,,,,,,,,,,,,,,,,,48,001,19,w,Psychologie,2023-01-19_09h05.07.239,00_bat_bachelor,2022.2.4,60.018012639702455,
,,,,,,,,,,,,0,0,0,0,58,0,58,0,,,,,,,58,,,1,802.2521220595809,Y,None,nogo,l,0,,0.34103064611554146,,,,,,,,,,,,,,,,,48,001,19,w,Psychologie,2023-01-19_09h05.07.239,00_bat_bachelor,2022.2.4,60.018012639702455,
,,,,,,,,,,,,0,0,0,0,59,0,59,0,,,,,,,59,,,1,803.7196573480032,X,d,go,d,1,,0.42587763525079936,,,,,,,,,,,,,,,,,48,001,19,w,Psychologie,2023-01-19_09h05.07.239,00_bat_bachelor,2022.2.4,60.018012639702455,
,,,,,,,,,,,,0,0,0,0,60,0,60,0,,,,,,,60,,,1,805.2543271493632,Y,l,go,l,1,,0.5381500656949356,,,,,,,,,,,,,,,,,48,001,19,w,Psychologie,2023-01-19_09h05.07.239,00_bat_bachelor,2022.2.4,60.018012639702455,
,,,,,,,,,,,,0,0,0,0,61,0,61,0,,,,,,,61,,,1,806.9220902195666,Y,None,nogo,None,1,807.7229494675994,,,,,,,,,,,,,,,,,,48,001,19,w,Psychologie,2023-01-19_09h05.07.239,00_bat_bachelor,2022.2.4,60.018012639702455,
,,,,,,,,,,,,0,0,0,0,62,0,62,0,,,,,,,62,,,1,808.7236369824968,X,d,go,d,1,,0.2862447331426665,,,,,,,,,,,,,,,,,48,001,19,w,Psychologie,2023-01-19_09h05.07.239,00_bat_bachelor,2022.2.4,60.018012639702455,
,,,,,,,,,,,,0,0,0,0,63,0,63,0,,,,,,,63,,,1,810.1245269698557,Y,l,go,l,1,,0.5809548933757469,,,,,,,,,,,,,,,,,48,001,19,w,Psychologie,2023-01-19_09h05.07.239,00_bat_bachelor,2022.2.4,60.018012639702455,
,,,,,,,,,,,,0,0,0,0,64,0,64,0,,,,,,,64,,,1,811.8093174258247,Y,None,nogo,None,1,812.6099463709397,,,,,,,,,,,,,,,,,,48,001,19,w,Psychologie,2023-01-19_09h05.07.239,00_bat_bachelor,2022.2.4,60.018012639702455,
,,,,,,,,,,,,0,0,0,0,65,0,65,0,,,,,,,65,,,1,813.6107439462794,X,d,go,d,1,,0.19827192730735987,,,,,,,,,,,,,,,,,48,001,19,w,Psychologie,2023-01-19_09h05.07.239,00_bat_bachelor,2022.2.4,60.018012639702455,
,,,,,,,,,,,,0,0,0,0,66,0,66,0,,,,,,,66,,,1,814.9117173760897,Y,l,go,l,1,,0.30566096620168537,,,,,,,,,,,,,,,,,48,001,19,w,Psychologie,2023-01-19_09h05.07.239,00_bat_bachelor,2022.2.4,60.018012639702455,
,,,,,,,,,,,,0,0,0,0,67,0,67,0,,,,,,,67,,,1,816.3293016585521,Y,None,nogo,None,1,817.1302297550719,,,,,,,,,,,,,,,,,,48,001,19,w,Psychologie,2023-01-19_09h05.07.239,00_bat_bachelor,2022.2.4,60.018012639702455,
,,,,,,,,,,,,0,0,0,0,68,0,68,0,,,,,,,68,,,1,818.130959936534,X,d,go,d,1,,0.28674703591968864,,,,,,,,,,,,,,,,,48,001,19,w,Psychologie,2023-01-19_09h05.07.239,00_bat_bachelor,2022.2.4,60.018012639702455,
,,,,,,,,,,,,0,0,0,0,69,0,69,0,,,,,,,69,,,1,819.5317413179437,Y,l,go,l,1,,0.27821225218940526,,,,,,,,,,,,,,,,,48,001,19,w,Psychologie,2023-01-19_09h05.07.239,00_bat_bachelor,2022.2.4,60.018012639702455,
,,,,,,,,,,,,0,0,0,0,70,0,70,0,,,,,,,70,,,1,820.9157513135578,Y,None,nogo,None,1,,,,,,,,,,,,,,,,,,,48,001,19,w,Psychologie,2023-01-19_09h05.07.239,00_bat_bachelor,2022.2.4,60.018012639702455,
,,,,,,,,,,,,0,0,0,0,71,0,71,0,,,,,,,71,,,1,822.7169994099531,X,d,go,d,1,,0.2129390718182549,,,,,,,,,,,,,,,,,48,001,19,w,Psychologie,2023-01-19_09h05.07.239,00_bat_bachelor,2022.2.4,60.018012639702455,
,,,,,,,,,,,,0,0,0,0,72,0,72,0,,,,,,,72,,,1,824.0350045891246,Y,l,go,l,1,,0.2547940817894414,,,,,,,,,,,,,,,,,48,001,19,w,Psychologie,2023-01-19_09h05.07.239,00_bat_bachelor,2022.2.4,60.018012639702455,
,,,,,,,,,,,,0,0,0,0,73,0,73,0,,,,,,,73,,,1,825.4025690169074,X,d,go,d,1,,0.48656657547689974,,,,,,,,,,,,,,,,,48,001,19,w,Psychologie,2023-01-19_09h05.07.239,00_bat_bachelor,2022.2.4,60.018012639702455,
,,,,,,,,,,,,0,0,0,0,74,0,74,0,,,,,,,74,,,1,827.0039461798733,Y,l,go,l,1,,0.27816279768012464,,,,,,,,,,,,,,,,,48,001,19,w,Psychologie,2023-01-19_09h05.07.239,00_bat_bachelor,2022.2.4,60.018012639702455,
,,,,,,,,,,,,0,0,0,0,75,0,75,0,,,,,,,75,,,1,828.3879697512602,X,d,go,d,1,,0.2529429311398417,,,,,,,,,,,,,,,,,48,001,19,w,Psychologie,2023-01-19_09h05.07.239,00_bat_bachelor,2022.2.4,60.018012639702455,
,,,,,,,,,,,,0,0,0,0,76,0,76,0,,,,,,,76,,,1,829.7557339365594,Y,l,go,l,1,,0.2774815858574584,,,,,,,,,,,,,,,,,48,001,19,w,Psychologie,2023-01-19_09h05.07.239,00_bat_bachelor,2022.2.4,60.018012639702455,
,,,,,,,,,,,,0,0,0,0,77,0,77,0,,,,,,,77,,,1,831.1408435680205,X,d,go,d,1,,0.23600766668096185,,,,,,,,,,,,,,,,,48,001,19,w,Psychologie,2023-01-19_09h05.07.239,00_bat_bachelor,2022.2.4,60.018012639702455,
,,,,,,,,,,,,0,0,0,0,78,0,78,0,,,,,,,78,,,1,832.5085379352095,Y,l,go,l,1,,0.24455554131418467,,,,,,,,,,,,,,,,,48,001,19,w,Psychologie,2023-01-19_09h05.07.239,00_bat_bachelor,2022.2.4,60.018012639702455,
,,,,,,,,,,,,0,0,0,0,79,0,79,0,,,,,,,79,,,1,833.8761590903159,X,d,go,d,1,,0.2210437951143831,,,,,,,,,,,,,,,,,48,001,19,w,Psychologie,2023-01-19_09h05.07.239,00_bat_bachelor,2022.2.4,60.018012639702455,
,,,,,,,,,,,,0,0,0,0,80,0,80,0,,,,,,,80,,,1,835.210494443425,X,None,nogo,l,0,,0.19854829087853432,,,,,,,,,,,,,,,,,48,001,19,w,Psychologie,2023-01-19_09h05.07.239,00_bat_bachelor,2022.2.4,60.018012639702455,
,,,,,,,,,,,,0,0,0,0,81,0,81,0,,,,,,,81,,,1,836.5283745316556,Y,l,go,l,1,,0.497446570196189,,,,,,,,,,,,,,,,,48,001,19,w,Psychologie,2023-01-19_09h05.07.239,00_bat_bachelor,2022.2.4,60.018012639702455,
,,,,,,,,,,,,0,0,0,0,82,0,82,0,,,,,,,82,,,1,838.1295019978425,X,d,go,d,1,,0.2245419753016904,,,,,,,,,,,,,,,,,48,001,19,w,Psychologie,2023-01-19_09h05.07.239,00_bat_bachelor,2022.2.4,60.018012639702455,
,,,,,,,,,,,,0,0,0,0,83,0,83,0,,,,,,,83,,,1,839.4638169872342,Y,l,go,l,1,,0.3773302648914978,,,,,,,,,,,,,,,,,48,001,19,w,Psychologie,2023-01-19_09h05.07.239,00_bat_bachelor,2022.2.4,60.018012639702455,
,,,,,,,,,,,,0,0,0,0,84,0,84,0,,,,,,,84,,,1,840.9650012290804,X,d,go,d,1,,0.23585881828330457,,,,,,,,,,,,,,,,,48,001,19,w,Psychologie,2023-01-19_09h05.07.239,00_bat_bachelor,2022.2.4,60.018012639702455,
,,,,,,,,,,,,0,0,0,0,85,0,85,0,,,,,,,85,,,1,842.3158340286463,X,None,nogo,None,1,843.1166370343417,,,,,,,,,,,,,,,,,,48,001,19,w,Psychologie,2023-01-19_09h05.07.239,00_bat_bachelor,2022.2.4,60.018012639702455,
,,,,,,,,,,,,0,0,0,0,86,0,86,0,,,,,,,86,,,1,844.1173366704024,Y,l,go,l,1,,0.283883037394844,,,,,,,,,,,,,,,,,48,001,19,w,Psychologie,2023-01-19_09h05.07.239,00_bat_bachelor,2022.2.4,60.018012639702455,
,,,,,,,,,,,,0,0,0,0,87,0,87,0,,,,,,,87,,,1,845.5183905365411,X,d,go,d,1,,0.5459890920901671,,,,,,,,,,,,,,,,,48,001,19,w,Psychologie,2023-01-19_09h05.07.239,00_bat_bachelor,2022.2.4,60.018012639702455,
,,,,,,,,,,,,0,0,0,0,88,0,88,0,,,,,,,88,,,1,847.1861802733038,Y,l,go,l,1,,0.543269093381241,,,,,,,,,,,,,,,,,48,001,19,w,Psychologie,2023-01-19_09h05.07.239,00_bat_bachelor,2022.2.4,60.018012639702455,
,,,,,,,,,,,,0,0,0,0,89,0,89,0,,,,,,,89,,,1,848.8375535332598,X,d,go,d,1,,0.23576524248346686,,,,,,,,,,,,,,,,,48,001,19,w,Psychologie,2023-01-19_09h05.07.239,00_bat_bachelor,2022.2.4,60.018012639702455,
,,,,,,,,,,,,0,0,0,0,90,0,90,0,,,,,,,90,,,1,850.1885633025086,Y,l,go,l,1,,0.19620501925237477,,,,,,,,,,,,,,,,,48,001,19,w,Psychologie,2023-01-19_09h05.07.239,00_bat_bachelor,2022.2.4,60.018012639702455,
,,,,,,,,,,,,0,0,0,0,91,0,91,0,,,,,,,91,,,1,851.506091875839,Y,None,nogo,None,1,852.3069317300105,,,,,,,,,,,,,,,,,,48,001,19,w,Psychologie,2023-01-19_09h05.07.239,00_bat_bachelor,2022.2.4,60.018012639702455,
,,,,,,,,,,,,0,0,0,0,92,0,92,0,,,,,,,92,,,1,853.3076488205697,X,d,go,d,1,,0.18258999555837363,,,,,,,,,,,,,,,,,48,001,19,w,Psychologie,2023-01-19_09h05.07.239,00_bat_bachelor,2022.2.4,60.018012639702455,
,,,,,,,,,,,,0,0,0,0,93,0,93,0,,,,,,,93,,,1,854.5919342584675,Y,l,go,l,1,,0.36917754146270454,,,,,,,,,,,,,,,,,48,001,19,w,Psychologie,2023-01-19_09h05.07.239,00_bat_bachelor,2022.2.4,60.018012639702455,
,,,,,,,,,,,,0,0,0,0,94,0,94,0,,,,,,,94,,,1,856.076636568876,X,d,go,d,1,,0.1974331398960203,,,,,,,,,,,,,,,,,48,001,19,w,Psychologie,2023-01-19_09h05.07.239,00_bat_bachelor,2022.2.4,60.018012639702455,
,,,,,,,,,,,,0,0,0,0,95,0,95,0,,,,,,,95,,,1,857.3773792108987,Y,l,go,l,1,,0.20784089236985892,,,,,,,,,,,,,,,,,48,001,19,w,Psychologie,2023-01-19_09h05.07.239,00_bat_bachelor,2022.2.4,60.018012639702455,
,,,,,,,,,,,,0,0,0,0,96,0,96,0,,,,,,,96,,,1,858.7117843821179,Y,None,nogo,None,1,859.5124492060859,,,,,,,,,,,,,,,,,,48,001,19,w,Psychologie,2023-01-19_09h05.07.239,00_bat_bachelor,2022.2.4,60.018012639702455,
,,,,,,,,,,,,0,0,0,0,97,0,97,0,,,,,,,97,,,1,860.5132375693647,X,d,go,d,1,,0.06400920450687408,,,,,,,,,,,,,,,,,48,001,19,w,Psychologie,2023-01-19_09h05.07.239,00_bat_bachelor,2022.2.4,60.018012639702455,
,,,,,,,,,,,,0,0,0,0,98,0,98,0,,,,,,,98,,,1,861.6973824497545,Y,l,go,l,1,,0.19169496081303805,,,,,,,,,,,,,,,,,48,001,19,w,Psychologie,2023-01-19_09h05.07.239,00_bat_bachelor,2022.2.4,60.018012639702455,
,,,,,,,,,,,,0,0,0,0,99,0,99,0,,,,,,,99,,,1,863.0151985380799,Y,None,nogo,None,1,863.815947725554,,,,,,,,,,,,,,,,,,48,001,19,w,Psychologie,2023-01-19_09h05.07.239,00_bat_bachelor,2022.2.4,60.018012639702455,
,,,,,,,,,,,,0,0,0,0,100,0,100,0,,,,,,,100,,,1,864.8167380281957,X,d,go,d,1,,0.20848283148370683,,,,,,,,,,,,,,,,,48,001,19,w,Psychologie,2023-01-19_09h05.07.239,00_bat_bachelor,2022.2.4,60.018012639702455,
,,,,,,,,,,,,0,0,0,0,101,0,101,0,,,,,,,101,,,1,866.1341919349506,Y,l,go,l,1,,0.20262780401390046,,,,,,,,,,,,,,,,,48,001,19,w,Psychologie,2023-01-19_09h05.07.239,00_bat_bachelor,2022.2.4,60.018012639702455,
,,,,,,,,,,,,0,0,0,0,102,0,102,0,,,,,,,102,,,1,867.468591287965,Y,None,nogo,None,1,868.2690073846607,,,,,,,,,,,,,,,,,,48,001,19,w,Psychologie,2023-01-19_09h05.07.239,00_bat_bachelor,2022.2.4,60.018012639702455,
,,,,,,,,,,,,0,0,0,0,103,0,103,0,,,,,,,103,,,1,869.2699276267085,X,d,go,d,1,,0.17116066778544337,,,,,,,,,,,,,,,,,48,001,19,w,Psychologie,2023-01-19_09h05.07.239,00_bat_bachelor,2022.2.4,60.018012639702455,
,,,,,,,,,,,,0,0,0,0,104,0,104,0,,,,,,,104,,,1,870.5707240869524,Y,l,go,l,1,,0.29424812318757176,,,,,,,,,,,,,,,,,48,001,19,w,Psychologie,2023-01-19_09h05.07.239,00_bat_bachelor,2022.2.4,60.018012639702455,
,,,,,,,,,,,,0,0,0,0,105,0,105,0,,,,,,,105,,,1,871.9719723771559,X,d,go,d,1,,0.23724451451562345,,,,,,,,,,,,,,,,,48,001,19,w,Psychologie,2023-01-19_09h05.07.239,00_bat_bachelor,2022.2.4,60.018012639702455,
,,,,,,,,,,,,0,0,0,0,106,0,106,0,,,,,,,106,,,1,873.3231717221206,Y,l,go,l,1,,0.37378941802307963,,,,,,,,,,,,,,,,,48,001,19,w,Psychologie,2023-01-19_09h05.07.239,00_bat_bachelor,2022.2.4,60.018012639702455,
,,,,,,,,,,,,0,0,0,0,107,0,107,0,,,,,,,107,,,1,874.8240752368001,Y,None,nogo,None,1,875.6249000605894,,,,,,,,,,,,,,,,,,48,001,19,w,Psychologie,2023-01-19_09h05.07.239,00_bat_bachelor,2022.2.4,60.018012639702455,
,,,,,,,,,,,,0,0,0,0,108,0,108,0,,,,,,,108,,,1,876.6254106058041,X,d,go,d,1,,0.19124162779189646,,,,,,,,,,,,,,,,,48,001,19,w,Psychologie,2023-01-19_09h05.07.239,00_bat_bachelor,2022.2.4,60.018012639702455,
,,,,,,,,,,,,0,0,0,0,109,0,109,0,,,,,,,109,,,1,877.9431171184406,Y,l,go,l,1,,0.2181385844014585,,,,,,,,,,,,,,,,,48,001,19,w,Psychologie,2023-01-19_09h05.07.239,00_bat_bachelor,2022.2.4,60.018012639702455,
,,,,,,,,,,,,0,0,0,0,110,0,110,0,,,,,,,110,,,1,879.2943824026734,X,d,go,d,1,,0.19510877737775445,,,,,,,,,,,,,,,,,48,001,19,w,Psychologie,2023-01-19_09h05.07.239,00_bat_bachelor,2022.2.4,60.018012639702455,
,,,,,,,,,,,,0,0,0,0,111,0,111,0,,,,,,,111,,,1,880.5952380144736,Y,l,go,l,1,,0.20583895407617092,,,,,,,,,,,,,,,,,48,001,19,w,Psychologie,2023-01-19_09h05.07.239,00_bat_bachelor,2022.2.4,60.018012639702455,
,,,,,,,,,,,,0,0,0,0,112,0,112,0,,,,,,,112,,,1,881.9130662239622,Y,None,nogo,None,1,882.7135051086079,,,,,,,,,,,,,,,,,,48,001,19,w,Psychologie,2023-01-19_09h05.07.239,00_bat_bachelor,2022.2.4,60.018012639702455,
,,,,,,,,,,,,0,0,0,0,113,0,113,0,,,,,,,113,,,1,883.7141053507803,X,d,go,d,1,,0.2234874302521348,,,,,,,,,,,,,,,,,48,001,19,w,Psychologie,2023-01-19_09h05.07.239,00_bat_bachelor,2022.2.4,60.018012639702455,
,,,,,,,,,,,,0,0,0,0,114,0,114,0,,,,,,,114,,,1,885.0486690673279,Y,l,go,l,1,,0.23159215366467834,,,,,,,,,,,,,,,,,48,001,19,w,Psychologie,2023-01-19_09h05.07.239,00_bat_bachelor,2022.2.4,60.018012639702455,
,,,,,,,,,,,,0,0,0,0,115,0,115,0,,,,,,,115,,,1,886.3994722911157,X,d,go,d,1,,0.27432425413280725,,,,,,,,,,,,,,,,,48,001,19,w,Psychologie,2023-01-19_09h05.07.239,00_bat_bachelor,2022.2.4,60.018012639702455,
,,,,,,,,,,,,0,0,0,0,116,0,116,0,,,,,,,116,,,1,887.7838609532919,Y,l,go,l,1,,0.4574058623984456,,,,,,,,,,,,,,,,,48,001,19,w,Psychologie,2023-01-19_09h05.07.239,00_bat_bachelor,2022.2.4,60.018012639702455,
,,,,,,,,,,,,0,0,0,0,117,0,117,0,,,,,,,117,,,1,889.3517195869936,Y,None,nogo,None,1,890.1523921685293,,,,,,,,,,,,,,,,,,48,001,19,w,Psychologie,2023-01-19_09h05.07.239,00_bat_bachelor,2022.2.4,60.018012639702455,
,,,,,,,,,,,,0,0,0,0,118,0,118,0,,,,,,,118,,,1,891.1533158044331,Y,None,nogo,d,0,,0.17467290861532092,,,,,,,,,,,,,,,,,48,001,19,w,Psychologie,2023-01-19_09h05.07.239,00_bat_bachelor,2022.2.4,60.018012639702455,
,,,,,,,,,,,,0,0,0,0,119,0,119,0,,,,,,,119,,,1,892.4541602646932,X,d,go,d,1,,0.33167646871879697,,,,,,,,,,,,,,,,,48,001,19,w,Psychologie,2023-01-19_09h05.07.239,00_bat_bachelor,2022.2.4,60.018012639702455,
,,,,,,,,,,,,0,0,0,0,120,0,120,0,,,,,,,120,,,1,893.9053711973829,Y,l,go,l,1,,0.23923530150204897,,,,,,,,,,,,,,,,,48,001,19,w,Psychologie,2023-01-19_09h05.07.239,00_bat_bachelor,2022.2.4,60.018012639702455,
,,,,,,,,,,,,0,0,0,0,121,0,121,0,,,,,,,121,,,1,895.2730747766327,X,d,go,d,1,,0.40885412821080536,,,,,,,,,,,,,,,,,48,001,19,w,Psychologie,2023-01-19_09h05.07.239,00_bat_bachelor,2022.2.4,60.018012639702455,
,,,,,,,,,,,,0,0,0,0,122,0,122,0,,,,,,,122,,,1,896.7900146472966,Y,l,go,l,1,,0.31597611273173243,,,,,,,,,,,,,,,,,48,001,19,w,Psychologie,2023-01-19_09h05.07.239,00_bat_bachelor,2022.2.4,60.018012639702455,
,,,,,,,,,,,,0,0,0,0,123,0,123,0,,,,,,,123,,,1,898.2078476567985,Y,None,nogo,None,1,,,,,,,,,,,,,,,,,,,48,001,19,w,Psychologie,2023-01-19_09h05.07.239,00_bat_bachelor,2022.2.4,60.018012639702455,
,,,,,,,,,,,,0,0,0,0,124,0,124,0,,,,,,,124,,,1,900.0094273893628,X,d,go,d,1,,0.4554068329744041,,,,,,,,,,,,,,,,,48,001,19,w,Psychologie,2023-01-19_09h05.07.239,00_bat_bachelor,2022.2.4,60.018012639702455,
,,,,,,,,,,,,0,0,0,0,125,0,125,0,,,,,,,125,,,1,901.5770615383517,Y,l,go,l,1,,0.2320420928299427,,,,,,,,,,,,,,,,,48,001,19,w,Psychologie,2023-01-19_09h05.07.239,00_bat_bachelor,2022.2.4,60.018012639702455,
,,,,,,,,,,,,0,0,0,0,126,0,126,0,,,,,,,126,,,1,902.9114109519869,X,d,go,d,1,,0.4977331154514104,,,,,,,,,,,,,,,,,48,001,19,w,Psychologie,2023-01-19_09h05.07.239,00_bat_bachelor,2022.2.4,60.018012639702455,
,,,,,,,,,,,,0,0,0,0,127,0,127,0,,,,,,,127,,,1,904.5126387816854,Y,l,go,l,1,,0.2088939828099683,,,,,,,,,,,,,,,,,48,001,19,w,Psychologie,2023-01-19_09h05.07.239,00_bat_bachelor,2022.2.4,60.018012639702455,
,,,,,,,,,,,,0,0,0,0,128,0,128,0,,,,,,,128,,,1,905.8305222640047,Y,None,nogo,None,1,,,,,,,,,,,,,,,,,,,48,001,19,w,Psychologie,2023-01-19_09h05.07.239,00_bat_bachelor,2022.2.4,60.018012639702455,
,,,,,,,,,,,,0,0,0,0,129,0,129,0,,,,,,,129,,,1,907.6317703602836,X,d,go,d,1,,0.24199845164548606,,,,,,,,,,,,,,,,,48,001,19,w,Psychologie,2023-01-19_09h05.07.239,00_bat_bachelor,2022.2.4,60.018012639702455,
,,,,,,,,,,,,0,0,0,0,130,0,130,0,,,,,,,130,,,1,908.9827520083636,Y,l,go,l,1,,0.16991412290371954,,,,,,,,,,,,,,,,,48,001,19,w,Psychologie,2023-01-19_09h05.07.239,00_bat_bachelor,2022.2.4,60.018012639702455,
,,,,,,,,,,,,0,0,0,0,131,0,131,0,,,,,,,131,,,1,910.2672871431569,X,d,go,d,1,,0.2631135929841548,,,,,,,,,,,,,,,,,48,001,19,w,Psychologie,2023-01-19_09h05.07.239,00_bat_bachelor,2022.2.4,60.018012639702455,
,,,,,,,,,,,,0,0,0,0,132,0,132,0,,,,,,,132,,,1,911.6348874497926,Y,l,go,l,1,,0.20659143838565797,,,,,,,,,,,,,,,,,48,001,19,w,Psychologie,2023-01-19_09h05.07.239,00_bat_bachelor,2022.2.4,60.018012639702455,
,,,,,,,,,,,,0,0,0,0,133,0,133,0,,,,,,,133,,,1,912.9525959017919,X,d,go,d,1,,0.3771547497017309,,,,,,,,,,,,,,,,,48,001,19,w,Psychologie,2023-01-19_09h05.07.239,00_bat_bachelor,2022.2.4,60.018012639702455,
,,,,,,,,,,,,0,0,0,0,134,0,134,0,,,,,,,134,,,1,914.4370945759583,Y,l,go,l,1,,0.23600669694133103,,,,,,,,,,,,,,,,,48,001,19,w,Psychologie,2023-01-19_09h05.07.239,00_bat_bachelor,2022.2.4,60.018012639702455,
,,,,,,,,,,,,0,0,0,0,135,0,135,0,,,,,,,135,,,1,915.7880970723927,X,d,go,d,1,,0.38961050123907626,,,,,,,,,,,,,,,,,48,001,19,w,Psychologie,2023-01-19_09h05.07.239,00_bat_bachelor,2022.2.4,60.018012639702455,
,,,,,,,,,,,,0,0,0,0,136,0,136,0,,,,,,,136,,,1,917.2893574354239,Y,l,go,l,1,,0.2162917973473668,,,,,,,,,,,,,,,,,48,001,19,w,Psychologie,2023-01-19_09h05.07.239,00_bat_bachelor,2022.2.4,60.018012639702455,
,,,,,,,,,,,,0,0,0,0,137,0,137,0,,,,,,,137,,,1,918.6067555845948,X,d,go,d,1,,0.466168524697423,,,,,,,,,,,,,,,,,48,001,19,w,Psychologie,2023-01-19_09h05.07.239,00_bat_bachelor,2022.2.4,60.018012639702455,
,,,,,,,,,,,,0,0,0,0,138,0,138,0,,,,,,,138,,,1,920.1745220972225,X,None,nogo,l,0,,0.22663409542292356,,,,,,,,,,,,,,,,,48,001,19,w,Psychologie,2023-01-19_09h05.07.239,00_bat_bachelor,2022.2.4,60.018012639702455,
,,,,,,,,,,,,0,0,0,0,139,0,139,0,,,,,,,139,,,1,921.5092133288272,Y,l,go,l,1,,0.4920657242182642,,,,,,,,,,,,,,,,,48,001,19,w,Psychologie,2023-01-19_09h05.07.239,00_bat_bachelor,2022.2.4,60.018012639702455,
,,,,,,,,,,,,0,0,0,0,140,0,140,0,,,,,,,140,,,1,923.1103834615787,X,d,go,d,1,,0.23549615172669291,,,,,,,,,,,,,,,,,48,001,19,w,Psychologie,2023-01-19_09h05.07.239,00_bat_bachelor,2022.2.4,60.018012639702455,
,,,,,,,,,,,,0,0,0,0,141,0,141,0,,,,,,,141,,,1,924.4611828066409,Y,l,go,l,1,,0.24401590519119054,,,,,,,,,,,,,,,,,48,001,19,w,Psychologie,2023-01-19_09h05.07.239,00_bat_bachelor,2022.2.4,60.018012639702455,
,,,,,,,,,,,,0,0,0,0,142,0,142,0,,,,,,,142,,,1,925.812184333452,X,d,go,d,1,,0.38124202040489763,,,,,,,,,,,,,,,,,48,001,19,w,Psychologie,2023-01-19_09h05.07.239,00_bat_bachelor,2022.2.4,60.018012639702455,
,,,,,,,,,,,,0,0,0,0,143,0,143,0,,,,,,,143,,,1,927.2966922197957,X,None,nogo,None,1,,,,,,,,,,,,,,,,,,,48,001,19,w,Psychologie,2023-01-19_09h05.07.239,00_bat_bachelor,2022.2.4,60.018012639702455,
,,,,,,,,,,,,0,0,0,0,144,0,144,0,,,,,,,144,,,1,929.0982559523545,Y,l,go,l,1,,0.4073389775585383,,,,,,,,,,,,,,,,,48,001,19,w,Psychologie,2023-01-19_09h05.07.239,00_bat_bachelor,2022.2.4,60.018012639702455,
,,,,,,,,,,,,0,0,0,0,145,0,145,0,,,,,,,145,,,1,930.6164060041774,X,d,go,d,1,,0.23369397083297372,,,,,,,,,,,,,,,,,48,001,19,w,Psychologie,2023-01-19_09h05.07.239,00_bat_bachelor,2022.2.4,60.018012639702455,
,,,,,,,,,,,,0,0,0,0,146,0,146,0,,,,,,,146,,,1,931.9506351754535,X,None,nogo,d,0,,0.46625240345019847,,,,,,,,,,,,,,,,,48,001,19,w,Psychologie,2023-01-19_09h05.07.239,00_bat_bachelor,2022.2.4,60.018012639702455,
,,,,,,,,,,,,0,0,0,0,147,0,147,0,,,,,,,147,,,1,933.5185238698032,Y,l,go,l,1,,0.5320724927587435,,,,,,,,,,,,,,,,,48,001,19,w,Psychologie,2023-01-19_09h05.07.239,00_bat_bachelor,2022.2.4,60.018012639702455,
,,,,,,,,,,,,0,0,0,0,148,0,148,0,,,,,,,148,,,1,935.1526564108208,X,d,go,d,1,,0.240673846215941,,,,,,,,,,,,,,,,,48,001,19,w,Psychologie,2023-01-19_09h05.07.239,00_bat_bachelor,2022.2.4,60.018012639702455,
,,,,,,,,,,,,0,0,0,0,149,0,149,0,,,,,,,149,,,1,936.503707877011,Y,l,go,l,1,,0.45808901358395815,,,,,,,,,,,,,,,,,48,001,19,w,Psychologie,2023-01-19_09h05.07.239,00_bat_bachelor,2022.2.4,60.018012639702455,
,,,,,,,,,,,,0,0,0,0,150,0,150,0,,,,,,,150,,,1,938.0719262681669,X,d,go,d,1,,0.3931804388994351,,,,,,,,,,,,,,,,,48,001,19,w,Psychologie,2023-01-19_09h05.07.239,00_bat_bachelor,2022.2.4,60.018012639702455,
,,,,,,,,,,,,0,0,0,0,151,0,151,0,,,,,,,151,,,1,939.5730659039691,Y,l,go,l,1,,0.39557898323982954,,,,,,,,,,,,,,,,,48,001,19,w,Psychologie,2023-01-19_09h05.07.239,00_bat_bachelor,2022.2.4,60.018012639702455,
,,,,,,,,,,,,0,0,0,0,152,0,152,0,,,,,,,152,,,1,941.0744979032315,X,d,go,d,1,,0.23985736176837236,,,,,,,,,,,,,,,,,48,001,19,w,Psychologie,2023-01-19_09h05.07.239,00_bat_bachelor,2022.2.4,60.018012639702455,
,,,,,,,,,,,,0,0,0,0,153,0,153,0,,,,,,,153,,,1,942.4248395515606,Y,l,go,l,1,,0.3287290761945769,,,,,,,,,,,,,,,,,48,001,19,w,Psychologie,2023-01-19_09h05.07.239,00_bat_bachelor,2022.2.4,60.018012639702455,
,,,,,,,,,,,,0,0,0,0,154,0,154,0,,,,,,,154,,,1,943.859592795372,Y,None,nogo,None,1,,,,,,,,,,,,,,,,,,,48,001,19,w,Psychologie,2023-01-19_09h05.07.239,00_bat_bachelor,2022.2.4,60.018012639702455,
,,,,,,,,,,,,0,0,0,0,155,0,155,0,,,,,,,155,,,1,945.6606256191153,X,d,go,d,1,,0.2287126398878172,,,,,,,,,,,,,,,,,48,001,19,w,Psychologie,2023-01-19_09h05.07.239,00_bat_bachelor,2022.2.4,60.018012639702455,
,,,,,,,,,,,,0,0,0,0,156,0,156,0,,,,,,,156,,,1,946.9953260628972,Y,l,go,l,1,,0.3178413239074871,,,,,,,,,,,,,,,,,48,001,19,w,Psychologie,2023-01-19_09h05.07.239,00_bat_bachelor,2022.2.4,60.018012639702455,
,,,,,,,,,,,,0,0,0,0,157,0,157,0,,,,,,,157,,,1,948.4303387004184,Y,None,nogo,l,0,,0.40216370730195194,,,,,,,,,,,,,,,,,48,001,19,w,Psychologie,2023-01-19_09h05.07.239,00_bat_bachelor,2022.2.4,60.018012639702455,
,,,,,,,,,,,,0,0,0,0,158,0,158,0,,,,,,,158,,,1,949.9646885019029,X,d,go,d,1,,0.29155479127075523,,,,,,,,,,,,,,,,,48,001,19,w,Psychologie,2023-01-19_09h05.07.239,00_bat_bachelor,2022.2.4,60.018012639702455,
,,,,,,,,,,,,0,0,0,0,159,0,159,0,,,,,,,159,,,1,951.3824594508624,Y,l,go,l,1,,0.3310660447459668,,,,,,,,,,,,,,,,,48,001,19,w,Psychologie,2023-01-19_09h05.07.239,00_bat_bachelor,2022.2.4,60.018012639702455,
,,,,,,,,,,,,0,0,0,0,160,0,160,0,,,,,,,160,,,1,952.8170866341097,X,d,go,d,1,,0.2239761573728174,,,,,,,,,,,,,,,,,48,001,19,w,Psychologie,2023-01-19_09h05.07.239,00_bat_bachelor,2022.2.4,60.018012639702455,
,,,,,,,,,,,,0,0,0,0,161,0,161,0,,,,,,,161,,,1,954.1681642821059,Y,l,go,l,1,,0.21631361555773765,,,,,,,,,,,,,,,,,48,001,19,w,Psychologie,2023-01-19_09h05.07.239,00_bat_bachelor,2022.2.4,60.018012639702455,
,,,,,,,,,,,,0,0,0,0,162,0,162,0,,,,,,,162,,,1,955.502235392807,X,d,go,d,1,,0.27499237505253404,,,,,,,,,,,,,,,,,48,001,19,w,Psychologie,2023-01-19_09h05.07.239,00_bat_bachelor,2022.2.4,60.018012639702455,
,,,,,,,,,,,,0,0,0,0,163,0,163,0,,,,,,,163,,,1,956.9033319256268,Y,l,go,l,1,,0.4565311960177496,,,,,,,,,,,,,,,,,48,001,19,w,Psychologie,2023-01-19_09h05.07.239,00_bat_bachelor,2022.2.4,60.018012639702455,
,,,,,,,,,,,,0,0,0,0,164,0,164,0,,,,,,,164,,,1,958.4880768542644,X,d,go,d,1,,0.4407489007571712,,,,,,,,,,,,,,,,,48,001,19,w,Psychologie,2023-01-19_09h05.07.239,00_bat_bachelor,2022.2.4,60.018012639702455,
,,,,,,,,,,,,0,0,0,0,165,0,165,0,,,,,,,165,,,1,960.0561391243245,Y,l,go,l,1,,0.26558631903026253,,,,,,,,,,,,,,,,,48,001,19,w,Psychologie,2023-01-19_09h05.07.239,00_bat_bachelor,2022.2.4,60.018012639702455,
,,,,,,,,,,,,0,0,0,0,166,0,166,0,,,,,,,166,,,1,961.4571188086411,X,d,go,d,1,,0.38410989788826555,,,,,,,,,,,,,,,,,48,001,19,w,Psychologie,2023-01-19_09h05.07.239,00_bat_bachelor,2022.2.4,60.018012639702455,
,,,,,,,,,,,,0,0,0,0,167,0,167,0,,,,,,,167,,,1,962.9581449900288,Y,l,go,l,1,,0.22580355033278465,,,,,,,,,,,,,,,,,48,001,19,w,Psychologie,2023-01-19_09h05.07.239,00_bat_bachelor,2022.2.4,60.018012639702455,
,,,,,,,,,,,,0,0,0,0,168,0,168,0,,,,,,,168,,,1,964.3088604563382,X,d,go,d,1,,0.5083750498015434,,,,,,,,,,,,,,,,,48,001,19,w,Psychologie,2023-01-19_09h05.07.239,00_bat_bachelor,2022.2.4,60.018012639702455,
,,,,,,,,,,,,0,0,0,0,169,0,169,0,,,,,,,169,,,1,965.9266371264821,X,None,nogo,l,0,,0.23430100083351135,,,,,,,,,,,,,,,,,48,001,19,w,Psychologie,2023-01-19_09h05.07.239,00_bat_bachelor,2022.2.4,60.018012639702455,
,,,,,,,,,,,,0,0,0,0,170,0,170,0,,,,,,,170,,,1,967.2943358572666,Y,l,go,d,0,,0.2916027911705896,,,,,,,,,,,,,,,,,48,001,19,w,Psychologie,2023-01-19_09h05.07.239,00_bat_bachelor,2022.2.4,60.018012639702455,
,,,,,,,,,,,,0,0,0,0,171,0,171,0,,,,,,,171,,,1,968.6954188143136,X,d,go,d,1,,0.2494088722160086,,,,,,,,,,,,,,,,,48,001,19,w,Psychologie,2023-01-19_09h05.07.239,00_bat_bachelor,2022.2.4,60.018012639702455,
,,,,,,,,,,,,0,0,0,0,172,0,172,0,,,,,,,172,,,1,970.0463776744436,Y,l,go,l,1,,0.1957924134330824,,,,,,,,,,,,,,,,,48,001,19,w,Psychologie,2023-01-19_09h05.07.239,00_bat_bachelor,2022.2.4,60.018012639702455,
,,,,,,,,,,,,0,0,0,0,173,0,173,0,,,,,,,173,,,1,971.3473404375836,X,d,go,d,1,,0.3663833609316498,,,,,,,,,,,,,,,,,48,001,19,w,Psychologie,2023-01-19_09h05.07.239,00_bat_bachelor,2022.2.4,60.018012639702455,
,,,,,,,,,,,,0,0,0,0,174,0,174,0,,,,,,,174,,,1,972.8151026350679,X,None,nogo,l,0,,0.17939145164564252,,,,,,,,,,,,,,,,,48,001,19,w,Psychologie,2023-01-19_09h05.07.239,00_bat_bachelor,2022.2.4,60.018012639702455,
,,,,,,,,,,,,0,0,0,0,175,0,175,0,,,,,,,175,,,1,974.0992358307121,Y,l,go,l,1,,0.5093966249842197,,,,,,,,,,,,,,,,,48,001,19,w,Psychologie,2023-01-19_09h05.07.239,00_bat_bachelor,2022.2.4,60.018012639702455,
,,,,,,,,,,,,0,0,0,0,176,0,176,0,,,,,,,176,,,1,975.7173378339503,X,d,go,d,1,,0.2203276741784066,,,,,,,,,,,,,,,,,48,001,19,w,Psychologie,2023-01-19_09h05.07.239,00_bat_bachelor,2022.2.4,60.018012639702455,
,,,,,,,,,,,,0,0,0,0,177,0,177,0,,,,,,,177,,,1,977.0516484597465,Y,l,go,l,1,,0.26274704770185053,,,,,,,,,,,,,,,,,48,001,19,w,Psychologie,2023-01-19_09h05.07.239,00_bat_bachelor,2022.2.4,60.018012639702455,
,,,,,,,,,,,,0,0,0,0,178,0,178,0,,,,,,,178,,,1,978.4193893724587,Y,None,nogo,None,1,979.2199960144935,,,,,,,,,,,,,,,,,,48,001,19,w,Psychologie,2023-01-19_09h05.07.239,00_bat_bachelor,2022.2.4,60.018012639702455,
,,,,,,,,,,,,0,0,0,0,179,0,179,0,,,,,,,179,,,1,980.2205676506273,Y,None,nogo,None,1,981.021488959319,,,,,,,,,,,,,,,,,,48,001,19,w,Psychologie,2023-01-19_09h05.07.239,00_bat_bachelor,2022.2.4,60.018012639702455,
,,,,,,,,,,,,0,0,0,0,180,0,180,0,,,,,,,180,,,1,982.0221575649921,X,d,go,d,1,,0.3152158707380295,,,,,,,,,,,,,,,,,48,001,19,w,Psychologie,2023-01-19_09h05.07.239,00_bat_bachelor,2022.2.4,60.018012639702455,
,,,,,,,,,,,,0,0,0,0,181,0,181,0,,,,,,,181,,,1,983.4398722716141,Y,l,go,l,1,,0.36923717777244747,,,,,,,,,,,,,,,,,48,001,19,w,Psychologie,2023-01-19_09h05.07.239,00_bat_bachelor,2022.2.4,60.018012639702455,
,,,,,,,,,,,,0,0,0,0,182,0,182,0,,,,,,,182,,,1,984.9242856124183,Y,None,nogo,None,1,985.7248403758276,,,,,,,,,,,,,,,,,,48,001,19,w,Psychologie,2023-01-19_09h05.07.239,00_bat_bachelor,2022.2.4,60.018012639702455,
,,,,,,,,,,,,0,0,0,0,183,0,183,0,,,,,,,183,,,1,986.7257223147899,X,d,go,d,1,,0.23572500003501773,,,,,,,,,,,,,,,,,48,001,19,w,Psychologie,2023-01-19_09h05.07.239,00_bat_bachelor,2022.2.4,60.018012639702455,
,,,,,,,,,,,,0,0,0,0,184,0,184,0,,,,,,,184,,,1,988.0767669930356,Y,l,go,l,1,,0.37341317581012845,,,,,,,,,,,,,,,,,48,001,19,w,Psychologie,2023-01-19_09h05.07.239,00_bat_bachelor,2022.2.4,60.018012639702455,
,,,,,,,,,,,,0,0,0,0,185,0,185,0,,,,,,,185,,,1,989.561067364295,X,d,go,d,1,,0.31255696283187717,,,,,,,,,,,,,,,,,48,001,19,w,Psychologie,2023-01-19_09h05.07.239,00_bat_bachelor,2022.2.4,60.018012639702455,
,,,,,,,,,,,,0,0,0,0,186,0,186,0,,,,,,,186,,,1,990.9785236467142,Y,l,go,l,1,,0.2699203775264323,,,,,,,,,,,,,,,,,48,001,19,w,Psychologie,2023-01-19_09h05.07.239,00_bat_bachelor,2022.2.4,60.018012639702455,
,,,,,,,,,,,,0,0,0,0,187,0,187,0,,,,,,,187,,,1,992.3632245511981,Y,None,nogo,None,1,,,,,,,,,,,,,,,,,,,48,001,19,w,Psychologie,2023-01-19_09h05.07.239,00_bat_bachelor,2022.2.4,60.018012639702455,
,,,,,,,,,,,,0,0,0,0,188,0,188,0,,,,,,,188,,,1,994.1646137383068,X,d,go,d,1,,0.26887213555164635,,,,,,,,,,,,,,,,,48,001,19,w,Psychologie,2023-01-19_09h05.07.239,00_bat_bachelor,2022.2.4,60.018012639702455,
,,,,,,,,,,,,0,0,0,0,189,0,189,0,,,,,,,189,,,1,995.5489039763343,Y,l,go,l,1,,0.35561439662706107,,,,,,,,,,,,,,,,,48,001,19,w,Psychologie,2023-01-19_09h05.07.239,00_bat_bachelor,2022.2.4,60.018012639702455,
,,,,,,,,,,,,0,0,0,0,190,0,190,0,,,,,,,190,,,1,997.0164232647512,X,d,go,d,1,,0.2813390386290848,,,,,,,,,,,,,,,,,48,001,19,w,Psychologie,2023-01-19_09h05.07.239,00_bat_bachelor,2022.2.4,60.018012639702455,
,,,,,,,,,,,,0,0,0,0,191,0,191,0,,,,,,,191,,,1,998.4011028357781,Y,l,go,l,1,,0.4487823514500633,,,,,,,,,,,,,,,,,48,001,19,w,Psychologie,2023-01-19_09h05.07.239,00_bat_bachelor,2022.2.4,60.018012639702455,
,,,,,,,,,,,,0,0,0,0,192,0,192,0,,,,,,,192,,,1,999.9522676594788,X,d,go,d,1,,0.29036933719180524,,,,,,,,,,,,,,,,,48,001,19,w,Psychologie,2023-01-19_09h05.07.239,00_bat_bachelor,2022.2.4,60.018012639702455,
,,,,,,,,,,,,0,0,0,0,193,0,193,0,,,,,,,193,,,1,1001.3533089195844,Y,l,go,l,1,,0.4084327950840816,,,,,,,,,,,,,,,,,48,001,19,w,Psychologie,2023-01-19_09h05.07.239,00_bat_bachelor,2022.2.4,60.018012639702455,
,,,,,,,,,,,,0,0,0,0,194,0,194,0,,,,,,,194,,,1,1002.8710744867567,X,d,go,d,1,,0.39433631708379835,,,,,,,,,,,,,,,,,48,001,19,w,Psychologie,2023-01-19_09h05.07.239,00_bat_bachelor,2022.2.4,60.018012639702455,
,,,,,,,,,,,,0,0,0,0,195,0,195,0,,,,,,,195,,,1,1004.3721273347037,Y,l,go,l,1,,0.3172207181341946,,,,,,,,,,,,,,,,,48,001,19,w,Psychologie,2023-01-19_09h05.07.239,00_bat_bachelor,2022.2.4,60.018012639702455,
,,,,,,,,,,,,0,0,0,0,196,0,196,0,,,,,,,196,,,1,1005.8066410634201,X,d,go,d,1,,0.21178804198279977,,,,,,,,,,,,,,,,,48,001,19,w,Psychologie,2023-01-19_09h05.07.239,00_bat_bachelor,2022.2.4,60.018012639702455,
,,,,,,,,,,,,0,0,0,0,197,0,197,0,,,,,,,197,,,1,1007.1244513335405,X,None,nogo,l,0,,0.36529196763876826,,,,,,,,,,,,,,,,,48,001,19,w,Psychologie,2023-01-19_09h05.07.239,00_bat_bachelor,2022.2.4,60.018012639702455,
,,,,,,,,,,,,0,0,0,0,198,0,198,0,,,,,,,198,,,1,1008.5922154703876,Y,l,go,l,1,,0.28986218594945967,,,,,,,,,,,,,,,,,48,001,19,w,Psychologie,2023-01-19_09h05.07.239,00_bat_bachelor,2022.2.4,60.018012639702455,
,,,,,,,,,,,,0,0,0,0,199,0,199,0,,,,,,,199,,,1,1009.993288730504,X,d,go,d,1,,0.31310241715982556,,,,,,,,,,,,,,,,,48,001,19,w,Psychologie,2023-01-19_09h05.07.239,00_bat_bachelor,2022.2.4,60.018012639702455,
,,,,,,,,,,,,0,0,0,0,200,0,200,0,,,,,,,200,,,1,1011.4110562854912,X,None,nogo,None,1,,,,,,,,,,,,,,,,,,,48,001,19,w,Psychologie,2023-01-19_09h05.07.239,00_bat_bachelor,2022.2.4,60.018012639702455,
,,,,,,,,,,,,0,0,0,0,201,0,201,0,,,,,,,201,,,1,1013.2124372302787,Y,l,go,l,1,,0.4207217589719221,,,,,,,,,,,,,,,,,48,001,19,w,Psychologie,2023-01-19_09h05.07.239,00_bat_bachelor,2022.2.4,60.018012639702455,
,,,,,,,,,,,,0,0,0,0,202,0,202,0,,,,,,,202,,,1,1014.7466624258086,X,d,go,d,1,,0.39102625811938196,,,,,,,,,,,,,,,,,48,001,19,w,Psychologie,2023-01-19_09h05.07.239,00_bat_bachelor,2022.2.4,60.018012639702455,
,,,,,,,,,,,,0,0,0,0,203,0,203,0,,,,,,,203,,,1,1016.2479038798483,X,None,nogo,l,0,,0.23353784973733127,,,,,,,,,,,,,,,,,48,001,19,w,Psychologie,2023-01-19_09h05.07.239,00_bat_bachelor,2022.2.4,60.018012639702455,
,,,,,,,,,,,,0,0,0,0,204,0,204,0,,,,,,,204,,,1,1017.5821015359834,Y,l,go,l,1,,0.4662829489680007,,,,,,,,,,,,,,,,,48,001,19,w,Psychologie,2023-01-19_09h05.07.239,00_bat_bachelor,2022.2.4,60.018012639702455,
,,,,,,,,,,,,0,0,0,0,205,0,205,0,,,,,,,205,,,1,1019.1502084119711,X,d,go,d,1,,0.24393978400621563,,,,,,,,,,,,,,,,,48,001,19,w,Psychologie,2023-01-19_09h05.07.239,00_bat_bachelor,2022.2.4,60.018012639702455,
,,,,,,,,,,,,0,0,0,0,206,0,206,0,,,,,,,206,,,1,1020.5012783023994,X,None,nogo,None,1,,,,,,,,,,,,,,,,,,,48,001,19,w,Psychologie,2023-01-19_09h05.07.239,00_bat_bachelor,2022.2.4,60.018012639702455,
,,,,,,,,,,,,0,0,0,0,207,0,207,0,,,,,,,207,,,1,1022.3031290650833,Y,l,go,l,1,,0.24111942178569734,,,,,,,,,,,,,,,,,48,001,19,w,Psychologie,2023-01-19_09h05.07.239,00_bat_bachelor,2022.2.4,60.018012639702455,
,,,,,,,,,,,,0,0,0,0,208,0,208,0,,,,,,,208,,,1,1023.671059553395,X,d,go,d,1,,0.40929437056183815,,,,,,,,,,,,,,,,,48,001,19,w,Psychologie,2023-01-19_09h05.07.239,00_bat_bachelor,2022.2.4,60.018012639702455,
,,,,,,,,,,,,0,0,0,0,209,0,209,0,,,,,,,209,,,1,1025.2054127488518,Y,l,go,l,1,,0.23524306097533554,,,,,,,,,,,,,,,,,48,001,19,w,Psychologie,2023-01-19_09h05.07.239,00_bat_bachelor,2022.2.4,60.018012639702455,
,,,,,,,,,,,,0,0,0,0,210,0,210,0,,,,,,,210,,,1,1026.5730882069329,Y,None,nogo,d,0,,0.19509714108426124,,,,,,,,,,,,,,,,,48,001,19,w,Psychologie,2023-01-19_09h05.07.239,00_bat_bachelor,2022.2.4,60.018012639702455,
,,,,,,,,,,,,0,0,0,0,211,0,211,0,,,,,,,211,,,1,1027.890942113474,X,d,go,d,1,,0.1903771433280781,,,,,,,,,,,,,,,,,48,001,19,w,Psychologie,2023-01-19_09h05.07.239,00_bat_bachelor,2022.2.4,60.018012639702455,
,,,,,,,,,,,,0,0,0,0,212,0,212,0,,,,,,,212,,,1,1029.2083926262567,Y,l,go,l,1,,0.40864467388018966,,,,,,,,,,,,,,,,,48,001,19,w,Psychologie,2023-01-19_09h05.07.239,00_bat_bachelor,2022.2.4,60.018012639702455,
,,,,,,,,,,,,0,0,0,0,213,0,213,0,,,,,,,213,,,1,1030.743124488159,Y,None,nogo,None,1,1031.5438625242095,,,,,,,,,,,,,,,,,,48,001,19,w,Psychologie,2023-01-19_09h05.07.239,00_bat_bachelor,2022.2.4,60.018012639702455,
,,,,,,,,,,,,0,0,0,0,214,0,214,0,,,,,,,214,,,1,1032.544541796553,X,d,go,d,1,,0.32025974697899073,,,,,,,,,,,,,,,,,48,001,19,w,Psychologie,2023-01-19_09h05.07.239,00_bat_bachelor,2022.2.4,60.018012639702455,
,,,,,,,,,,,,0,0,0,0,215,0,215,0,,,,,,,215,,,1,1033.995648486889,Y,l,go,l,1,,0.3567421535262838,,,,,,,,,,,,,,,,,48,001,19,w,Psychologie,2023-01-19_09h05.07.239,00_bat_bachelor,2022.2.4,60.018012639702455,
,,,,,,,,,,,,0,0,0,0,216,0,216,0,,,,,,,216,,,1,1035.4801510398975,X,d,go,d,1,,0.3930660147452727,,,,,,,,,,,,,,,,,48,001,19,w,Psychologie,2023-01-19_09h05.07.239,00_bat_bachelor,2022.2.4,60.018012639702455,
,,,,,,,,,,,,0,0,0,0,217,0,217,0,,,,,,,217,,,1,1036.9976567283738,Y,l,go,l,1,,0.26659868215210736,,,,,,,,,,,,,,,,,48,001,19,w,Psychologie,2023-01-19_09h05.07.239,00_bat_bachelor,2022.2.4,60.018012639702455,
,,,,,,,,,,,,0,0,0,0,218,0,218,0,,,,,,,218,,,1,1038.3820739965886,X,d,go,d,1,,0.3075252076378092,,,,,,,,,,,,,,,,,48,001,19,w,Psychologie,2023-01-19_09h05.07.239,00_bat_bachelor,2022.2.4,60.018012639702455,
,,,,,,,,,,,,0,0,0,0,219,0,219,0,,,,,,,219,,,1,1039.799796460662,X,None,nogo,None,1,1040.600467102835,,,,,,,,,,,,,,,,,,48,001,19,w,Psychologie,2023-01-19_09h05.07.239,00_bat_bachelor,2022.2.4,60.018012639702455,
,,,,,,,,,,,,0,0,0,0,220,0,220,0,,,,,,,220,,,1,1041.601167708519,Y,l,go,l,1,,0.6406974098645151,,,,,,,,,,,,,,,,,48,001,19,w,Psychologie,2023-01-19_09h05.07.239,00_bat_bachelor,2022.2.4,60.018012639702455,
,,,,,,,,,,,,0,0,0,0,221,0,221,0,,,,,,,221,,,1,1043.352650010842,X,d,go,d,1,,0.31315575051121414,,,,,,,,,,,,,,,,,48,001,19,w,Psychologie,2023-01-19_09h05.07.239,00_bat_bachelor,2022.2.4,60.018012639702455,
,,,,,,,,,,,,0,0,0,0,222,0,222,0,,,,,,,222,,,1,1044.7701198690338,X,None,nogo,None,1,1045.5708215413615,,,,,,,,,,,,,,,,,,48,001,19,w,Psychologie,2023-01-19_09h05.07.239,00_bat_bachelor,2022.2.4,60.018012639702455,
,,,,,,,,,,,,0,0,0,0,223,0,223,0,,,,,,,223,,,1,1046.5718416621676,Y,l,go,l,1,,0.21314076869748533,,,,,,,,,,,,,,,,,48,001,19,w,Psychologie,2023-01-19_09h05.07.239,00_bat_bachelor,2022.2.4,60.018012639702455,
,,,,,,,,,,,,0,0,0,0,224,0,224,0,,,,,,,224,,,1,1047.9059816213557,X,d,go,d,1,,0.5431061844574288,,,,,,,,,,,,,,,,,48,001,19,w,Psychologie,2023-01-19_09h05.07.239,00_bat_bachelor,2022.2.4,60.018012639702455,
,,,,,,,,,,,,0,0,0,0,225,0,225,0,,,,,,,225,,,1,1049.557435850962,Y,l,go,l,1,,0.2836105526657775,,,,,,,,,,,,,,,,,48,001,19,w,Psychologie,2023-01-19_09h05.07.239,00_bat_bachelor,2022.2.4,60.018012639702455,
,,,,,,,,,,,,0,0,0,0,226,0,226,0,,,,,,,226,,,1,1050.9585532322526,Y,None,nogo,None,1,1051.759346056031,,,,,,,,,,,,,,,,,,48,001,19,w,Psychologie,2023-01-19_09h05.07.239,00_bat_bachelor,2022.2.4,60.018012639702455,
,,,,,,,,,,,,0,0,0,0,227,0,227,0,,,,,,,227,,,1,1052.7596810861723,X,d,go,d,1,,0.29655794030986726,,,,,,,,,,,,,,,,,48,001,19,w,Psychologie,2023-01-19_09h05.07.239,00_bat_bachelor,2022.2.4,60.018012639702455,
,,,,,,,,,,,,0,0,0,0,228,0,228,0,,,,,,,228,,,1,1054.1774825806497,Y,l,go,l,1,,0.35176615603268147,,,,,,,,,,,,,,,,,48,001,19,w,Psychologie,2023-01-19_09h05.07.239,00_bat_bachelor,2022.2.4,60.018012639702455,
,,,,,,,,,,,,0,0,0,0,229,0,229,0,,,,,,,229,,,1,1055.6453815052519,Y,None,nogo,None,1,1056.446014329209,,,,,,,,,,,,,,,,,,48,001,19,w,Psychologie,2023-01-19_09h05.07.239,00_bat_bachelor,2022.2.4,60.018012639702455,
,,,,,,,,,,,,0,0,0,0,230,0,230,0,,,,,,,230,,,1,1057.4468123894185,X,d,go,d,1,,0.1859907212201506,,,,,,,,,,,,,,,,,48,001,19,w,Psychologie,2023-01-19_09h05.07.239,00_bat_bachelor,2022.2.4,60.018012639702455,
,,,,,,,,,,,,0,0,0,0,231,0,231,0,,,,,,,231,,,1,1058.7645528414287,Y,l,go,l,1,,0.3247576841386035,,,,,,,,,,,,,,,,,48,001,19,w,Psychologie,2023-01-19_09h05.07.239,00_bat_bachelor,2022.2.4,60.018012639702455,
,,,,,,,,,,,,0,0,0,0,232,0,232,0,,,,,,,232,,,1,1060.2153647440718,Y,None,nogo,None,1,1061.0162370830076,,,,,,,,,,,,,,,,,,48,001,19,w,Psychologie,2023-01-19_09h05.07.239,00_bat_bachelor,2022.2.4,60.018012639702455,
,,,,,,,,,,,,0,0,0,0,233,0,233,0,,,,,,,233,,,1,1062.0169585371623,X,d,go,d,1,,0.28827479283791035,,,,,,,,,,,,,,,,,48,001,19,w,Psychologie,2023-01-19_09h05.07.239,00_bat_bachelor,2022.2.4,60.018012639702455,
,,,,,,,,,,,,0,0,0,0,234,0,234,0,,,,,,,234,,,1,1063.4347076680278,Y,l,go,l,1,,0.310361085110344,,,,,,,,,,,,,,,,,48,001,19,w,Psychologie,2023-01-19_09h05.07.239,00_bat_bachelor,2022.2.4,60.018012639702455,
,,,,,,,,,,,,0,0,0,0,235,0,235,0,,,,,,,235,,,1,1064.8690245483303,Y,None,nogo,None,1,1065.6694610087434,,,,,,,,,,,,,,,,,,48,001,19,w,Psychologie,2023-01-19_09h05.07.239,00_bat_bachelor,2022.2.4,60.018012639702455,
,,,,,,,,,,,,0,0,0,0,236,0,236,0,,,,,,,236,,,1,1066.670071917586,X,d,go,d,1,,0.306703389971517,,,,,,,,,,,,,,,,,48,001,19,w,Psychologie,2023-01-19_09h05.07.239,00_bat_bachelor,2022.2.4,60.018012639702455,
,,,,,,,,,,,,0,0,0,0,237,0,237,0,,,,,,,237,,,1,1068.0880891693523,Y,l,go,l,1,,0.23224815330468118,,,,,,,,,,,,,,,,,48,001,19,w,Psychologie,2023-01-19_09h05.07.239,00_bat_bachelor,2022.2.4,60.018012639702455,
,,,,,,,,,,,,0,0,0,0,238,0,238,0,,,,,,,238,,,1,1069.438901120564,X,d,go,d,1,,0.40169243479613215,,,,,,,,,,,,,,,,,48,001,19,w,Psychologie,2023-01-19_09h05.07.239,00_bat_bachelor,2022.2.4,60.018012639702455,
,,,,,,,,,,,,0,0,0,0,239,0,239,0,,,,,,,239,,,1,1070.9734914067667,Y,l,go,l,1,,0.3401962221832946,,,,,,,,,,,,,,,,,48,001,19,w,Psychologie,2023-01-19_09h05.07.239,00_bat_bachelor,2022.2.4,60.018012639702455,
,,,,,,,,,,,,0,0,0,0,240,0,240,0,,,,,,,240,,,1,1072.4245690063108,Y,None,nogo,None,1,1073.2251606180798,,,,,,,,,,,,,,,,,,48,001,19,w,Psychologie,2023-01-19_09h05.07.239,00_bat_bachelor,2022.2.4,60.018012639702455,
,,,,,,,,,,,,0,0,0,0,241,0,241,0,,,,,,,241,,,1,1074.2260653448757,X,d,go,d,1,,0.22351846052333713,,,,,,,,,,,,,,,,,48,001,19,w,Psychologie,2023-01-19_09h05.07.239,00_bat_bachelor,2022.2.4,60.018012639702455,
,,,,,,,,,,,,0,0,0,0,242,0,242,0,,,,,,,242,,,1,1075.5602896676864,Y,l,go,l,1,,0.233051061979495,,,,,,,,,,,,,,,,,48,001,19,w,Psychologie,2023-01-19_09h05.07.239,00_bat_bachelor,2022.2.4,60.018012639702455,
,,,,,,,,,,,,0,0,0,0,243,0,243,0,,,,,,,243,,,1,1076.8945076875389,Y,None,nogo,None,1,1077.6950832993025,,,,,,,,,,,,,,,,,,48,001,19,w,Psychologie,2023-01-19_09h05.07.239,00_bat_bachelor,2022.2.4,60.018012639702455,
,,,,,,,,,,,,0,0,0,0,244,0,244,0,,,,,,,244,,,1,1078.6960481473943,X,d,go,d,1,,0.2654074099846184,,,,,,,,,,,,,,,,,48,001,19,w,Psychologie,2023-01-19_09h05.07.239,00_bat_bachelor,2022.2.4,60.018012639702455,
,,,,,,,,,,,,0,0,0,0,245,0,245,0,,,,,,,245,,,1,1080.0637381508714,Y,l,go,l,1,,0.20935313403606415,,,,,,,,,,,,,,,,,48,001,19,w,Psychologie,2023-01-19_09h05.07.239,00_bat_bachelor,2022.2.4,60.018012639702455,
,,,,,,,,,,,,0,0,0,0,246,0,246,0,,,,,,,246,,,1,1081.3812352090608,Y,None,nogo,None,1,1082.1820411238587,,,,,,,,,,,,,,,,,,48,001,19,w,Psychologie,2023-01-19_09h05.07.239,00_bat_bachelor,2022.2.4,60.018012639702455,
,,,,,,,,,,,,0,0,0,0,247,0,247,0,,,,,,,247,,,1,1083.182605487178,X,d,go,d,1,,0.6094450613018125,,,,,,,,,,,,,,,,,48,001,19,w,Psychologie,2023-01-19_09h05.07.239,00_bat_bachelor,2022.2.4,60.018012639702455,
,,,,,,,,,,,,0,0,0,0,248,0,248,0,,,,,,,248,,,1,1084.9172601613682,Y,l,go,None,0,1085.718013227568,,,,,,,,,,,,,,,,,,48,001,19,w,Psychologie,2023-01-19_09h05.07.239,00_bat_bachelor,2022.2.4,60.018012639702455,
,,,,,,,,,,,,0,0,0,0,249,0,249,0,,,,,,,249,,,1,1086.7188122575171,X,d,go,d,1,,0.4024512222968042,,,,,,,,,,,,,,,,,48,001,19,w,Psychologie,2023-01-19_09h05.07.239,00_bat_bachelor,2022.2.4,60.018012639702455,
,,,,,,,,,,,,1,0,1,0,0,0,0,0,,,,,,,0,,,0.2,1102.3136163328309,X,d,go,None,0,1103.1143068536185,,,,,,,,,1087.2529249682557,space,14.832126650377177,,,,,,,48,001,19,w,Psychologie,2023-01-19_09h05.07.239,00_bat_bachelor,2022.2.4,60.018012639702455,
,,,,,,,,,,,,1,0,1,0,1,0,1,0,,,,,,,1,,,0.2,1103.3140783931594,Y,l,go,d,0,,0.14326007524505258,,,,,,,,,,,,,,,,,48,001,19,w,Psychologie,2023-01-19_09h05.07.239,00_bat_bachelor,2022.2.4,60.018012639702455,
,,,,,,,,,,,,1,0,1,0,2,0,2,0,,,,,,,2,,,0.2,1103.7646633868571,X,d,go,None,0,,,,,,,,,,,,,,,,,,,48,001,19,w,Psychologie,2023-01-19_09h05.07.239,00_bat_bachelor,2022.2.4,60.018012639702455,
,,,,,,,,,,,,1,0,1,0,3,0,3,0,,,,,,,3,,,0.2,1104.7654076288454,Y,l,go,None,0,,,,,,,,,,,,,,,,,,,48,001,19,w,Psychologie,2023-01-19_09h05.07.239,00_bat_bachelor,2022.2.4,60.018012639702455,
,,,,,,,,,,,,1,0,1,0,4,0,4,0,,,,,,,4,,,0.2,1105.766185325454,X,d,go,d,1,,0.347786036785692,,,,,,,,,,,,,,,,,48,001,19,w,Psychologie,2023-01-19_09h05.07.239,00_bat_bachelor,2022.2.4,60.018012639702455,
,,,,,,,,,,,,1,0,1,0,5,0,5,0,,,,,,,5,,,0.2,1106.4165791919222,Y,l,go,l,1,,0.32043138332664967,,,,,,,,,,,,,,,,,48,001,19,w,Psychologie,2023-01-19_09h05.07.239,00_bat_bachelor,2022.2.4,60.018012639702455,
,,,,,,,,,,,,1,0,1,0,6,0,6,0,,,,,,,6,,,0.2,1107.050313187763,Y,None,nogo,None,1,,,,,,,,,,,,,,,,,,,48,001,19,w,Psychologie,2023-01-19_09h05.07.239,00_bat_bachelor,2022.2.4,60.018012639702455,
,,,,,,,,,,,,1,0,1,0,7,0,7,0,,,,,,,7,,,0.2,1108.0512799751014,X,d,go,d,1,,0.3178340512095019,,,,,,,,,,,,,,,,,48,001,19,w,Psychologie,2023-01-19_09h05.07.239,00_bat_bachelor,2022.2.4,60.018012639702455,
,,,,,,,,,,,,1,0,1,0,8,0,8,0,,,,,,,8,,,0.2,1108.684865607298,Y,l,go,l,1,,0.5646562345791608,,,,,,,,,,,,,,,,,48,001,19,w,Psychologie,2023-01-19_09h05.07.239,00_bat_bachelor,2022.2.4,60.018012639702455,
,,,,,,,,,,,,1,0,1,0,9,0,9,0,,,,,,,9,,,0.2,1109.5524370655185,X,d,go,d,1,,0.43338793457951397,,,,,,,,,,,,,,,,,48,001,19,w,Psychologie,2023-01-19_09h05.07.239,00_bat_bachelor,2022.2.4,60.018012639702455,
,,,,,,,,,,,,1,0,1,0,10,0,10,0,,,,,,,10,,,0.2,1110.2864202247001,X,None,nogo,None,1,,,,,,,,,,,,,,,,,,,48,001,19,w,Psychologie,2023-01-19_09h05.07.239,00_bat_bachelor,2022.2.4,60.018012639702455,
,,,,,,,,,,,,1,0,1,0,11,0,11,0,,,,,,,11,,,0.2,1111.2871848304057,X,None,nogo,None,1,,,,,,,,,,,,,,,,,,,48,001,19,w,Psychologie,2023-01-19_09h05.07.239,00_bat_bachelor,2022.2.4,60.018012639702455,
,,,,,,,,,,,,1,0,1,0,12,0,12,0,,,,,,,12,,,0.2,1112.2876788908616,Y,l,go,l,1,,0.33785392029676586,,,,,,,,,,,,,,,,,48,001,19,w,Psychologie,2023-01-19_09h05.07.239,00_bat_bachelor,2022.2.4,60.018012639702455,
,,,,,,,,,,,,1,0,1,0,13,0,13,0,,,,,,,13,,,0.2,1112.938531908556,X,d,go,d,1,,0.4387411440256983,,,,,,,,,,,,,,,,,48,001,19,w,Psychologie,2023-01-19_09h05.07.239,00_bat_bachelor,2022.2.4,60.018012639702455,
,,,,,,,,,,,,1,0,1,0,14,0,14,0,,,,,,,14,,,0.2,1113.6889262114419,Y,l,go,l,1,,0.3448386442614719,,,,,,,,,,,,,,,,,48,001,19,w,Psychologie,2023-01-19_09h05.07.239,00_bat_bachelor,2022.2.4,60.018012639702455,
,,,,,,,,,,,,1,0,1,0,15,0,15,0,,,,,,,15,,,0.2,1114.3391721991356,Y,None,nogo,d,0,,0.2695727413520217,,,,,,,,,,,,,,,,,48,001,19,w,Psychologie,2023-01-19_09h05.07.239,00_bat_bachelor,2022.2.4,60.018012639702455,
,,,,,,,,,,,,1,0,1,0,16,0,16,0,,,,,,,16,,,0.2,1114.9233178553404,X,d,go,None,0,,,,,,,,,,,,,,,,,,,48,001,19,w,Psychologie,2023-01-19_09h05.07.239,00_bat_bachelor,2022.2.4,60.018012639702455,
,,,,,,,,,,,,1,0,1,0,17,0,17,0,,,,,,,17,,,0.2,1115.9237774914363,Y,l,go,l,1,,0.35013270226772875,,,,,,,,,,,,,,,,,48,001,19,w,Psychologie,2023-01-19_09h05.07.239,00_bat_bachelor,2022.2.4,60.018012639702455,
,,,,,,,,,,,,1,0,1,0,18,0,18,0,,,,,,,18,,,0.2,1116.574597539613,Y,None,nogo,None,1,,,,,,,,,,,,,,,,,,,48,001,19,w,Psychologie,2023-01-19_09h05.07.239,00_bat_bachelor,2022.2.4,60.018012639702455,
,,,,,,,,,,,,1,0,1,0,19,0,19,0,,,,,,,19,,,0.2,1117.5752283271868,X,d,go,d,1,,0.21802173589821905,,,,,,,,,,,,,,,,,48,001,19,w,Psychologie,2023-01-19_09h05.07.239,00_bat_bachelor,2022.2.4,60.018012639702455,
,,,,,,,,,,,,1,0,1,0,20,0,20,0,,,,,,,20,,,0.2,1118.1089987349696,Y,l,go,l,1,,0.4517641681013629,,,,,,,,,,,,,,,,,48,001,19,w,Psychologie,2023-01-19_09h05.07.239,00_bat_bachelor,2022.2.4,60.018012639702455,
,,,,,,,,,,,,1,0,1,0,21,0,21,0,,,,,,,21,,,0.2,1118.875954969204,X,d,go,d,1,,0.4536405308172107,,,,,,,,,,,,,,,,,48,001,19,w,Psychologie,2023-01-19_09h05.07.239,00_bat_bachelor,2022.2.4,60.018012639702455,
,,,,,,,,,,,,1,0,1,0,22,0,22,0,,,,,,,22,,,0.2,1119.643416415318,X,None,nogo,None,1,1120.4438184514875,,,,,,,,,,,,,,,,,,48,001,19,w,Psychologie,2023-01-19_09h05.07.239,00_bat_bachelor,2022.2.4,60.018012639702455,
,,,,,,,,,,,,1,0,1,0,23,0,23,0,,,,,,,23,,,0.2,1120.6442144755274,Y,l,go,l,1,,0.3649651799350977,,,,,,,,,,,,,,,,,48,001,19,w,Psychologie,2023-01-19_09h05.07.239,00_bat_bachelor,2022.2.4,60.018012639702455,
,,,,,,,,,,,,1,0,1,0,24,0,24,0,,,,,,,24,,,0.2,1121.311518879258,X,d,go,d,1,,0.3858689273474738,,,,,,,,,,,,,,,,,48,001,19,w,Psychologie,2023-01-19_09h05.07.239,00_bat_bachelor,2022.2.4,60.018012639702455,
,,,,,,,,,,,,1,0,1,0,25,0,25,0,,,,,,,25,,,0.2,1122.0119675092865,X,None,nogo,None,1,,,,,,,,,,,,,,,,,,,48,001,19,w,Psychologie,2023-01-19_09h05.07.239,00_bat_bachelor,2022.2.4,60.018012639702455,
,,,,,,,,,,,,1,0,1,0,26,0,26,0,,,,,,,26,,,0.2,1123.0124232666567,Y,l,go,l,1,,0.45953192189335823,,,,,,,,,,,,,,,,,48,001,19,w,Psychologie,2023-01-19_09h05.07.239,00_bat_bachelor,2022.2.4,60.018012639702455,
,,,,,,,,,,,,1,0,1,0,27,0,27,0,,,,,,,27,,,0.2,1123.797188461991,X,d,go,d,1,,0.4117055208189413,,,,,,,,,,,,,,,,,48,001,19,w,Psychologie,2023-01-19_09h05.07.239,00_bat_bachelor,2022.2.4,60.018012639702455,
,,,,,,,,,,,,1,0,1,0,28,0,28,0,,,,,,,28,,,0.2,1124.5310256818775,X,None,nogo,None,1,1125.331693414948,,,,,,,,,,,,,,,,,,48,001,19,w,Psychologie,2023-01-19_09h05.07.239,00_bat_bachelor,2022.2.4,60.018012639702455,
,,,,,,,,,,,,1,0,1,0,29,0,29,0,,,,,,,29,,,0.2,1125.5320099238306,Y,l,go,l,1,,0.3899149859789759,,,,,,,,,,,,,,,,,48,001,19,w,Psychologie,2023-01-19_09h05.07.239,00_bat_bachelor,2022.2.4,60.018012639702455,
,,,,,,,,,,,,1,0,1,0,30,0,30,0,,,,,,,30,,,0.2,1126.232540493249,X,d,go,None,0,1127.033019620343,,,,,,,,,,,,,,,,,,48,001,19,w,Psychologie,2023-01-19_09h05.07.239,00_bat_bachelor,2022.2.4,60.018012639702455,
,,,,,,,,,,,,1,0,1,0,31,0,31,0,,,,,,,31,,,0.2,1127.233313826262,Y,l,go,l,1,,0.41498357988893986,,,,,,,,,,,,,,,,,48,001,19,w,Psychologie,2023-01-19_09h05.07.239,00_bat_bachelor,2022.2.4,60.018012639702455,
,,,,,,,,,,,,1,0,1,0,32,0,32,0,,,,,,,32,,,0.2,1127.9836930987658,X,d,go,d,1,,0.5459216982126236,,,,,,,,,,,,,,,,,48,001,19,w,Psychologie,2023-01-19_09h05.07.239,00_bat_bachelor,2022.2.4,60.018012639702455,
,,,,,,,,,,,,1,0,1,0,33,0,33,0,,,,,,,33,,,0.2,1128.8512097691419,Y,l,go,l,1,,0.4933413601247594,,,,,,,,,,,,,,,,,48,001,19,w,Psychologie,2023-01-19_09h05.07.239,00_bat_bachelor,2022.2.4,60.018012639702455,
,,,,,,,,,,,,1,0,1,0,34,0,34,0,,,,,,,34,,,0.2,1129.6849766375963,X,d,go,d,1,,0.45877846772782505,,,,,,,,,,,,,,,,,48,001,19,w,Psychologie,2023-01-19_09h05.07.239,00_bat_bachelor,2022.2.4,60.018012639702455,
,,,,,,,,,,,,1,0,1,0,35,0,35,0,,,,,,,35,,,0.2,1130.4855924918083,Y,l,go,l,1,,0.5074998986674473,,,,,,,,,,,,,,,,,48,001,19,w,Psychologie,2023-01-19_09h05.07.239,00_bat_bachelor,2022.2.4,60.018012639702455,
,,,,,,,,,,,,1,0,1,0,36,0,36,0,,,,,,,36,,,0.2,1131.336637897417,Y,None,nogo,None,1,1132.1368295093998,,,,,,,,,,,,,,,,,,48,001,19,w,Psychologie,2023-01-19_09h05.07.239,00_bat_bachelor,2022.2.4,60.018012639702455,
,,,,,,,,,,,,1,0,1,0,37,0,37,0,,,,,,,37,,,0.2,1132.3372017758666,X,d,go,d,1,,0.3359310121741146,,,,,,,,,,,,,,,,,48,001,19,w,Psychologie,2023-01-19_09h05.07.239,00_bat_bachelor,2022.2.4,60.018012639702455,
,,,,,,,,,,,,1,0,1,0,38,0,38,0,,,,,,,38,,,0.2,1132.9877018241677,Y,l,go,l,1,,0.46845700847916305,,,,,,,,,,,,,,,,,48,001,19,w,Psychologie,2023-01-19_09h05.07.239,00_bat_bachelor,2022.2.4,60.018012639702455,
,,,,,,,,,,,,1,0,1,0,39,0,39,0,,,,,,,39,,,0.2,1133.7880956178997,Y,None,nogo,None,1,1134.5887158357073,,,,,,,,,,,,,,,,,,48,001,19,w,Psychologie,2023-01-19_09h05.07.239,00_bat_bachelor,2022.2.4,60.018012639702455,
,,,,,,,,,,,,1,0,1,0,40,0,40,0,,,,,,,40,,,0.2,1134.7891855566995,X,d,go,d,1,,0.011323169455863535,,,,,,,,,,,,,,,,,48,001,19,w,Psychologie,2023-01-19_09h05.07.239,00_bat_bachelor,2022.2.4,60.018012639702455,
,,,,,,,,,,,,1,0,1,0,41,0,41,0,,,,,,,41,,,0.2,1135.1390995689435,Y,l,go,l,1,,0.589089677319862,,,,,,,,,,,,,,,,,48,001,19,w,Psychologie,2023-01-19_09h05.07.239,00_bat_bachelor,2022.2.4,60.018012639702455,
,,,,,,,,,,,,1,0,1,0,42,0,42,0,,,,,,,42,,,0.2,1136.0733686917229,Y,None,nogo,None,1,1136.8740698791808,,,,,,,,,,,,,,,,,,48,001,19,w,Psychologie,2023-01-19_09h05.07.239,00_bat_bachelor,2022.2.4,60.018012639702455,
,,,,,,,,,,,,1,0,1,0,43,0,43,0,,,,,,,43,,,0.2,1137.0741551155224,X,d,go,d,1,,0.06258908403106034,,,,,,,,,,,,,,,,,48,001,19,w,Psychologie,2023-01-19_09h05.07.239,00_bat_bachelor,2022.2.4,60.018012639702455,
,,,,,,,,,,,,1,0,1,0,44,0,44,0,,,,,,,44,,,0.2,1137.4410906952107,Y,l,go,None,0,1138.2418209736934,,,,,,,,,,,,,,,,,,48,001,19,w,Psychologie,2023-01-19_09h05.07.239,00_bat_bachelor,2022.2.4,60.018012639702455,
,,,,,,,,,,,,1,0,1,0,45,0,45,0,,,,,,,45,,,0.2,1138.4416822100757,Y,None,nogo,None,1,1139.2427009731764,,,,,,,,,,,,,,,,,,48,001,19,w,Psychologie,2023-01-19_09h05.07.239,00_bat_bachelor,2022.2.4,60.018012639702455,
,,,,,,,,,,,,1,0,1,0,46,0,46,0,,,,,,,46,,,0.2,1139.4426106944447,X,d,go,d,1,,0.526104980497621,,,,,,,,,,,,,,,,,48,001,19,w,Psychologie,2023-01-19_09h05.07.239,00_bat_bachelor,2022.2.4,60.018012639702455,
,,,,,,,,,,,,1,0,1,0,47,0,47,0,,,,,,,47,,,0.2,1140.293239615392,Y,l,go,l,1,,0.4277787251630798,,,,,,,,,,,,,,,,,48,001,19,w,Psychologie,2023-01-19_09h05.07.239,00_bat_bachelor,2022.2.4,60.018012639702455,
,,,,,,,,,,,,1,0,1,0,48,0,48,0,,,,,,,48,,,0.2,1141.0438230090076,Y,None,nogo,None,1,1141.8442080755485,,,,,,,,,,,,,,,,,,48,001,19,w,Psychologie,2023-01-19_09h05.07.239,00_bat_bachelor,2022.2.4,60.018012639702455,
,,,,,,,,,,,,1,0,1,0,49,0,49,0,,,,,,,49,,,0.2,1142.0443122208817,X,d,go,d,1,,0.24398196581751108,,,,,,,,,,,,,,,,,48,001,19,w,Psychologie,2023-01-19_09h05.07.239,00_bat_bachelor,2022.2.4,60.018012639702455,
,,,,,,,,,,,,1,0,1,0,50,0,50,0,,,,,,,50,,,0.2,1142.611469764146,Y,l,go,None,0,1143.4124996787868,,,,,,,,,,,,,,,,,,48,001,19,w,Psychologie,2023-01-19_09h05.07.239,00_bat_bachelor,2022.2.4,60.018012639702455,
,,,,,,,,,,,,1,0,1,0,51,0,51,0,,,,,,,51,,,0.2,1143.6124467334012,Y,None,nogo,None,1,1144.4130587087711,,,,,,,,,,,,,,,,,,48,001,19,w,Psychologie,2023-01-19_09h05.07.239,00_bat_bachelor,2022.2.4,60.018012639702455,
,,,,,,,,,,,,1,0,1,0,52,0,52,0,,,,,,,52,,,0.2,1144.6132157027023,X,d,go,d,1,,0.1559374025091529,,,,,,,,,,,,,,,,,48,001,19,w,Psychologie,2023-01-19_09h05.07.239,00_bat_bachelor,2022.2.4,60.018012639702455,
,,,,,,,,,,,,1,0,1,0,53,0,53,0,,,,,,,53,,,0.2,1145.080257415655,Y,l,go,l,1,,0.32965659094043076,,,,,,,,,,,,,,,,,48,001,19,w,Psychologie,2023-01-19_09h05.07.239,00_bat_bachelor,2022.2.4,60.018012639702455,
,,,,,,,,,,,,1,0,1,0,54,0,54,0,,,,,,,54,,,0.2,1145.7307288578013,X,d,go,d,1,,0.5902038584463298,,,,,,,,,,,,,,,,,48,001,19,w,Psychologie,2023-01-19_09h05.07.239,00_bat_bachelor,2022.2.4,60.018012639702455,
,,,,,,,,,,,,1,0,1,0,55,0,55,0,,,,,,,55,,,0.2,1146.6480855039554,X,None,nogo,None,1,1147.4487091157353,,,,,,,,,,,,,,,,,,48,001,19,w,Psychologie,2023-01-19_09h05.07.239,00_bat_bachelor,2022.2.4,60.018012639702455,
,,,,,,,,,,,,1,0,1,0,56,0,56,0,,,,,,,56,,,0.2,1147.6484874431044,Y,l,go,l,1,,0.03250909864436835,,,,,,,,,,,,,,,,,48,001,19,w,Psychologie,2023-01-19_09h05.07.239,00_bat_bachelor,2022.2.4,60.018012639702455,
,,,,,,,,,,,,1,0,1,0,57,0,57,0,,,,,,,57,,,0.2,1147.9820509178098,X,d,go,d,1,,0.6588098859647289,,,,,,,,,,,,,,,,,48,001,19,w,Psychologie,2023-01-19_09h05.07.239,00_bat_bachelor,2022.2.4,60.018012639702455,
,,,,,,,,,,,,1,0,1,0,58,0,58,0,,,,,,,58,,,0.2,1148.9493411154253,X,None,nogo,None,1,1149.750236242311,,,,,,,,,,,,,,,,,,48,001,19,w,Psychologie,2023-01-19_09h05.07.239,00_bat_bachelor,2022.2.4,60.018012639702455,
,,,,,,,,,,,,1,0,1,0,59,0,59,0,,,,,,,59,,,0.2,1149.950264751329,Y,l,go,l,1,,0.051301331957802176,,,,,,,,,,,,,,,,,48,001,19,w,Psychologie,2023-01-19_09h05.07.239,00_bat_bachelor,2022.2.4,60.018012639702455,
,,,,,,,,,,,,1,0,1,0,60,0,60,0,,,,,,,60,,,0.2,1150.3171760885743,X,d,go,d,1,,0.5477413337212056,,,,,,,,,,,,,,,,,48,001,19,w,Psychologie,2023-01-19_09h05.07.239,00_bat_bachelor,2022.2.4,60.018012639702455,
,,,,,,,,,,,,1,0,1,0,61,0,61,0,,,,,,,61,,,0.2,1151.1846316680312,Y,l,go,None,0,1151.9853726131842,,,,,,,,,,,,,,,,,,48,001,19,w,Psychologie,2023-01-19_09h05.07.239,00_bat_bachelor,2022.2.4,60.018012639702455,
,,,,,,,,,,,,1,0,1,0,62,0,62,0,,,,,,,62,,,0.2,1152.185751667479,Y,None,nogo,None,1,1152.986341824755,,,,,,,,,,,,,,,,,,48,001,19,w,Psychologie,2023-01-19_09h05.07.239,00_bat_bachelor,2022.2.4,60.018012639702455,
,,,,,,,,,,,,1,0,1,0,63,0,63,0,,,,,,,63,,,0.2,1153.1864173641661,X,d,go,d,1,,0.17404260579496622,,,,,,,,,,,,,,,,,48,001,19,w,Psychologie,2023-01-19_09h05.07.239,00_bat_bachelor,2022.2.4,60.018012639702455,
,,,,,,,,,,,,1,0,1,0,64,0,64,0,,,,,,,64,,,0.2,1153.7032617196674,Y,l,go,None,0,1154.5042383009568,,,,,,,,,,,,,,,,,,48,001,19,w,Psychologie,2023-01-19_09h05.07.239,00_bat_bachelor,2022.2.4,60.018012639702455,
,,,,,,,,,,,,1,0,1,0,65,0,65,0,,,,,,,65,,,0.2,1154.7040791737381,X,d,go,d,1,,0.4160929126664996,,,,,,,,,,,,,,,,,48,001,19,w,Psychologie,2023-01-19_09h05.07.239,00_bat_bachelor,2022.2.4,60.018012639702455,
,,,,,,,,,,,,1,0,1,0,66,0,66,0,,,,,,,66,,,0.2,1155.4548196583055,Y,l,go,l,1,,0.49798038811422884,,,,,,,,,,,,,,,,,48,001,19,w,Psychologie,2023-01-19_09h05.07.239,00_bat_bachelor,2022.2.4,60.018012639702455,
,,,,,,,,,,,,1,0,1,0,67,0,67,0,,,,,,,67,,,0.2,1156.2719378075562,Y,None,nogo,None,1,1157.0726976617007,,,,,,,,,,,,,,,,,,48,001,19,w,Psychologie,2023-01-19_09h05.07.239,00_bat_bachelor,2022.2.4,60.018012639702455,
,,,,,,,,,,,,1,0,1,0,68,0,68,0,,,,,,,68,,,0.2,1157.272657807218,X,d,go,d,1,,0.05593114788644016,,,,,,,,,,,,,,,,,48,001,19,w,Psychologie,2023-01-19_09h05.07.239,00_bat_bachelor,2022.2.4,60.018012639702455,
,,,,,,,,,,,,1,0,1,0,69,0,69,0,,,,,,,69,,,0.2,1157.6562445303425,Y,l,go,l,1,,0.4722727641928941,,,,,,,,,,,,,,,,,48,001,19,w,Psychologie,2023-01-19_09h05.07.239,00_bat_bachelor,2022.2.4,60.018012639702455,
,,,,,,,,,,,,1,0,1,0,70,0,70,0,,,,,,,70,,,0.2,1158.4571847480256,X,d,go,None,0,1159.257579996367,,,,,,,,,,,,,,,,,,48,001,19,w,Psychologie,2023-01-19_09h05.07.239,00_bat_bachelor,2022.2.4,60.018012639702455,
,,,,,,,,,,,,1,0,1,0,71,0,71,0,,,,,,,71,,,0.2,1159.4578378385631,X,None,nogo,d,0,,0.04689163714647293,,,,,,,,,,,,,,,,,48,001,19,w,Psychologie,2023-01-19_09h05.07.239,00_bat_bachelor,2022.2.4,60.018012639702455,
,,,,,,,,,,,,1,0,1,0,72,0,72,0,,,,,,,72,,,0.2,1159.8248296607053,Y,l,go,None,0,1160.6255875754869,,,,,,,,,,,,,,,,,,48,001,19,w,Psychologie,2023-01-19_09h05.07.239,00_bat_bachelor,2022.2.4,60.018012639702455,
,,,,,,,,,,,,1,0,1,0,73,0,73,0,,,,,,,73,,,0.2,1160.8253833573544,X,d,go,None,0,1161.6263739992864,,,,,,,,,,,,,,,,,,48,001,19,w,Psychologie,2023-01-19_09h05.07.239,00_bat_bachelor,2022.2.4,60.018012639702455,
,,,,,,,,,,,,1,0,1,0,74,0,74,0,,,,,,,74,,,0.2,1161.8261077206116,Y,l,go,d,0,,0.07844653085339814,,,,,,,,,,,,,,,,,48,001,19,w,Psychologie,2023-01-19_09h05.07.239,00_bat_bachelor,2022.2.4,60.018012639702455,
,,,,,,,,,,,,1,0,1,0,75,0,75,0,,,,,,,75,,,0.2,1162.2430961244972,Y,None,nogo,l,0,,0.4615382240153849,,,,,,,,,,,,,,,,,48,001,19,w,Psychologie,2023-01-19_09h05.07.239,00_bat_bachelor,2022.2.4,60.018012639702455,
,,,,,,,,,,,,1,0,1,0,76,0,76,0,,,,,,,76,,,0.2,1163.0439170695608,X,d,go,d,1,,0.3480788851156831,,,,,,,,,,,,,,,,,48,001,19,w,Psychologie,2023-01-19_09h05.07.239,00_bat_bachelor,2022.2.4,60.018012639702455,
,,,,,,,,,,,,1,0,1,0,77,0,77,0,,,,,,,77,,,0.2,1163.7277935865568,Y,l,go,l,1,,0.4816933657275513,,,,,,,,,,,,,,,,,48,001,19,w,Psychologie,2023-01-19_09h05.07.239,00_bat_bachelor,2022.2.4,60.018012639702455,
,,,,,,,,,,,,1,0,1,0,78,0,78,0,,,,,,,78,,,0.2,1164.5451347660273,Y,None,nogo,None,1,1165.3458383777179,,,,,,,,,,,,,,,,,,48,001,19,w,Psychologie,2023-01-19_09h05.07.239,00_bat_bachelor,2022.2.4,60.018012639702455,
,,,,,,,,,,,,1,0,1,0,79,0,79,0,,,,,,,79,,,0.2,1165.545648220228,X,d,go,d,1,,0.24694050976540893,,,,,,,,,,,,,,,,,48,001,19,w,Psychologie,2023-01-19_09h05.07.239,00_bat_bachelor,2022.2.4,60.018012639702455,
,,,,,,,,,,,,1,0,1,0,80,0,80,0,,,,,,,80,,,0.2,1166.1129866119009,Y,l,go,None,0,1166.913352284464,,,,,,,,,,,,,,,,,,48,001,19,w,Psychologie,2023-01-19_09h05.07.239,00_bat_bachelor,2022.2.4,60.018012639702455,
,,,,,,,,,,,,1,0,1,0,81,0,81,0,,,,,,,81,,,0.2,1167.1137841872405,Y,None,nogo,None,1,1167.914103314397,,,,,,,,,,,,,,,,,,48,001,19,w,Psychologie,2023-01-19_09h05.07.239,00_bat_bachelor,2022.2.4,60.018012639702455,
,,,,,,,,,,,,1,0,1,0,82,0,82,0,,,,,,,82,,,0.2,1168.1144508535508,X,d,go,d,1,,0.38290311046876013,,,,,,,,,,,,,,,,,48,001,19,w,Psychologie,2023-01-19_09h05.07.239,00_bat_bachelor,2022.2.4,60.018012639702455,
,,,,,,,,,,,,1,0,1,0,83,0,83,0,,,,,,,83,,,0.2,1168.831670869491,Y,l,go,l,1,,0.49724681267980486,,,,,,,,,,,,,,,,,48,001,19,w,Psychologie,2023-01-19_09h05.07.239,00_bat_bachelor,2022.2.4,60.018012639702455,
,,,,,,,,,,,,1,0,1,0,84,0,84,0,,,,,,,84,,,0.2,1169.665648647002,X,d,go,d,1,,0.6074508804595098,,,,,,,,,,,,,,,,,48,001,19,w,Psychologie,2023-01-19_09h05.07.239,00_bat_bachelor,2022.2.4,60.018012639702455,
,,,,,,,,,,,,1,0,1,0,85,0,85,0,,,,,,,85,,,0.2,1170.5992346185958,Y,l,go,l,1,,0.4740662178955972,,,,,,,,,,,,,,,,,48,001,19,w,Psychologie,2023-01-19_09h05.07.239,00_bat_bachelor,2022.2.4,60.018012639702455,
,,,,,,,,,,,,1,0,1,0,86,0,86,0,,,,,,,86,,,0.2,1171.3832007838646,Y,None,nogo,None,1,1172.1839989410946,,,,,,,,,,,,,,,,,,48,001,19,w,Psychologie,2023-01-19_09h05.07.239,00_bat_bachelor,2022.2.4,60.018012639702455,
,,,,,,,,,,,,1,0,1,0,87,0,87,0,,,,,,,87,,,0.2,1172.3839508441743,X,d,go,d,1,,0.017453590757213533,,,,,,,,,,,,,,,,,48,001,19,w,Psychologie,2023-01-19_09h05.07.239,00_bat_bachelor,2022.2.4,60.018012639702455,
,,,,,,,,,,,,1,0,1,0,88,0,88,0,,,,,,,88,,,0.2,1172.7176476520253,Y,l,go,l,1,,0.40306067653000355,,,,,,,,,,,,,,,,,48,001,19,w,Psychologie,2023-01-19_09h05.07.239,00_bat_bachelor,2022.2.4,60.018012639702455,
,,,,,,,,,,,,1,0,1,0,89,0,89,0,,,,,,,89,,,0.2,1173.4347658498446,Y,None,nogo,None,1,1174.2356265523704,,,,,,,,,,,,,,,,,,48,001,19,w,Psychologie,2023-01-19_09h05.07.239,00_bat_bachelor,2022.2.4,60.018012639702455,
,,,,,,,,,,,,1,0,1,0,90,0,90,0,,,,,,,90,,,0.2,1174.4354945766972,X,d,go,d,1,,0.20558004500344396,,,,,,,,,,,,,,,,,48,001,19,w,Psychologie,2023-01-19_09h05.07.239,00_bat_bachelor,2022.2.4,60.018012639702455,
,,,,,,,,,,,,1,0,1,0,91,0,91,0,,,,,,,91,,,0.2,1174.9525508108782,Y,l,go,l,1,,0.5691212021047249,,,,,,,,,,,,,,,,,48,001,19,w,Psychologie,2023-01-19_09h05.07.239,00_bat_bachelor,2022.2.4,60.018012639702455,
,,,,,,,,,,,,1,0,1,0,92,0,92,0,,,,,,,92,,,0.2,1175.836578503484,X,d,go,None,0,1176.6373989636777,,,,,,,,,,,,,,,,,,48,001,19,w,Psychologie,2023-01-19_09h05.07.239,00_bat_bachelor,2022.2.4,60.018012639702455,
,,,,,,,,,,,,1,0,1,0,93,0,93,0,,,,,,,93,,,0.2,1176.8372446849244,Y,l,go,None,0,1177.638082599733,,,,,,,,,,,,,,,,,,48,001,19,w,Psychologie,2023-01-19_09h05.07.239,00_bat_bachelor,2022.2.4,60.018012639702455,
,,,,,,,,,,,,1,0,1,0,94,0,94,0,,,,,,,94,,,0.2,1177.8382415329106,X,d,go,None,0,1178.638656659983,,,,,,,,,,,,,,,,,,48,001,19,w,Psychologie,2023-01-19_09h05.07.239,00_bat_bachelor,2022.2.4,60.018012639702455,
,,,,,,,,,,,,1,0,1,0,95,0,95,0,,,,,,,95,,,0.2,1178.8388204417424,X,None,nogo,None,1,1179.6396321747452,,,,,,,,,,,,,,,,,,48,001,19,w,Psychologie,2023-01-19_09h05.07.239,00_bat_bachelor,2022.2.4,60.018012639702455,
,,,,,,,,,,,,1,0,1,0,96,0,96,0,,,,,,,96,,,0.2,1179.8397915927926,Y,l,go,l,1,,0.25689347472507507,,,,,,,,,,,,,,,,,48,001,19,w,Psychologie,2023-01-19_09h05.07.239,00_bat_bachelor,2022.2.4,60.018012639702455,
,,,,,,,,,,,,1,0,1,0,97,0,97,0,,,,,,,97,,,0.2,1180.4403125137324,X,d,go,d,1,,0.6329349894076586,,,,,,,,,,,,,,,,,48,001,19,w,Psychologie,2023-01-19_09h05.07.239,00_bat_bachelor,2022.2.4,60.018012639702455,
,,,,,,,,,,,,1,0,1,0,98,0,98,0,,,,,,,98,,,0.2,1181.4078800446587,Y,l,go,l,1,,0.44950719946064055,,,,,,,,,,,,,,,,,48,001,19,w,Psychologie,2023-01-19_09h05.07.239,00_bat_bachelor,2022.2.4,60.018012639702455,
,,,,,,,,,,,,1,0,1,0,99,0,99,0,,,,,,,99,,,0.2,1182.1751058545196,Y,None,nogo,None,1,1182.9756029208656,,,,,,,,,,,,,,,,,,48,001,19,w,Psychologie,2023-01-19_09h05.07.239,00_bat_bachelor,2022.2.4,60.018012639702455,
,,,,,,,,,,,,1,0,1,0,100,0,100,0,,,,,,,100,,,0.2,1183.175918944995,X,d,go,d,1,,0.5207052255282179,,,,,,,,,,,,,,,,,48,001,19,w,Psychologie,2023-01-19_09h05.07.239,00_bat_bachelor,2022.2.4,60.018012639702455,
,,,,,,,,,,,,1,0,1,0,101,0,101,0,,,,,,,101,,,0.2,1184.0432654335164,Y,l,go,l,1,,0.48542524268850684,,,,,,,,,,,,,,,,,48,001,19,w,Psychologie,2023-01-19_09h05.07.239,00_bat_bachelor,2022.2.4,60.018012639702455,
,,,,,,,,,,,,1,0,1,0,102,0,102,0,,,,,,,102,,,0.2,1184.8605125524336,X,d,go,None,0,1185.6613364065997,,,,,,,,,,,,,,,,,,48,001,19,w,Psychologie,2023-01-19_09h05.07.239,00_bat_bachelor,2022.2.4,60.018012639702455,
,,,,,,,,,,,,1,0,1,0,103,0,103,0,,,,,,,103,,,0.2,1185.8614095217781,X,None,nogo,d,0,,0.012064502574503422,,,,,,,,,,,,,,,,,48,001,19,w,Psychologie,2023-01-19_09h05.07.239,00_bat_bachelor,2022.2.4,60.018012639702455,
,,,,,,,,,,,,1,0,1,0,104,0,104,0,,,,,,,104,,,0.2,1186.1947160267737,Y,l,go,l,1,,0.6531415249919519,,,,,,,,,,,,,,,,,48,001,19,w,Psychologie,2023-01-19_09h05.07.239,00_bat_bachelor,2022.2.4,60.018012639702455,
,,,,,,,,,,,,1,0,1,0,105,0,105,0,,,,,,,105,,,0.2,1187.1787567618303,X,d,go,d,1,,0.6138882107334211,,,,,,,,,,,,,,,,,48,001,19,w,Psychologie,2023-01-19_09h05.07.239,00_bat_bachelor,2022.2.4,60.018012639702455,
,,,,,,,,,,,,1,0,1,0,106,0,106,0,,,,,,,106,,,0.2,1188.1295160583686,X,None,nogo,None,1,1188.930433973088,,,,,,,,,,,,,,,,,,48,001,19,w,Psychologie,2023-01-19_09h05.07.239,00_bat_bachelor,2022.2.4,60.018012639702455,
,,,,,,,,,,,,1,0,1,0,107,0,107,0,,,,,,,107,,,0.2,1189.130216664169,Y,l,go,l,1,,0.006837353575974703,,,,,,,,,,,,,,,,,48,001,19,w,Psychologie,2023-01-19_09h05.07.239,00_bat_bachelor,2022.2.4,60.018012639702455,
,,,,,,,,,,,,1,0,1,0,108,0,108,0,,,,,,,108,,,0.2,1189.463857714436,X,d,go,d,1,,0.5687129598809406,,,,,,,,,,,,,,,,,48,001,19,w,Psychologie,2023-01-19_09h05.07.239,00_bat_bachelor,2022.2.4,60.018012639702455,
,,,,,,,,,,,,1,0,1,0,109,0,109,0,,,,,,,109,,,0.2,1190.3645283080405,X,None,nogo,None,1,1191.165165980463,,,,,,,,,,,,,,,,,,48,001,19,w,Psychologie,2023-01-19_09h05.07.239,00_bat_bachelor,2022.2.4,60.018012639702455,
,,,,,,,,,,,,1,0,1,0,110,0,110,0,,,,,,,110,,,0.2,1191.3653355804272,Y,l,go,l,1,,0.17093957704491913,,,,,,,,,,,,,,,,,48,001,19,w,Psychologie,2023-01-19_09h05.07.239,00_bat_bachelor,2022.2.4,60.018012639702455,
,,,,,,,,,,,,1,0,1,0,111,0,111,0,,,,,,,111,,,0.2,1191.8657077014213,X,d,go,None,0,1192.666234343662,,,,,,,,,,,,,,,,,,48,001,19,w,Psychologie,2023-01-19_09h05.07.239,00_bat_bachelor,2022.2.4,60.018012639702455,
,,,,,,,,,,,,1,0,1,0,112,0,112,0,,,,,,,112,,,0.2,1192.8663190951338,X,None,nogo,None,1,1193.6669814947527,,,,,,,,,,,,,,,,,,48,001,19,w,Psychologie,2023-01-19_09h05.07.239,00_bat_bachelor,2022.2.4,60.018012639702455,
,,,,,,,,,,,,1,0,1,0,113,0,113,0,,,,,,,113,,,0.2,1193.8672238219297,Y,l,go,l,1,,0.4059775236528367,,,,,,,,,,,,,,,,,48,001,19,w,Psychologie,2023-01-19_09h05.07.239,00_bat_bachelor,2022.2.4,60.018012639702455,
,,,,,,,,,,,,1,0,1,0,114,0,114,0,,,,,,,114,,,0.2,1194.6013218902517,X,d,go,d,1,,0.47103106777649373,,,,,,,,,,,,,,,,,48,001,19,w,Psychologie,2023-01-19_09h05.07.239,00_bat_bachelor,2022.2.4,60.018012639702455,
,,,,,,,,,,,,1,0,1,0,115,0,115,0,,,,,,,115,,,0.2,1195.4018252596725,Y,l,go,None,0,1196.202470204793,,,,,,,,,,,,,,,,,,48,001,19,w,Psychologie,2023-01-19_09h05.07.239,00_bat_bachelor,2022.2.4,60.018012639702455,
,,,,,,,,,,,,1,0,1,0,116,0,116,0,,,,,,,116,,,0.2,1196.4025093805976,Y,None,nogo,None,1,1197.2031121439068,,,,,,,,,,,,,,,,,,48,001,19,w,Psychologie,2023-01-19_09h05.07.239,00_bat_bachelor,2022.2.4,60.018012639702455,
,,,,,,,,,,,,1,0,1,0,117,0,117,0,,,,,,,117,,,0.2,1197.4031348348362,X,d,go,d,1,,0.5182974691269919,,,,,,,,,,,,,,,,,48,001,19,w,Psychologie,2023-01-19_09h05.07.239,00_bat_bachelor,2022.2.4,60.018012639702455,
,,,,,,,,,,,,1,0,1,0,118,0,118,0,,,,,,,118,,,0.2,1198.2371111577377,Y,l,go,l,1,,0.6111919694812968,,,,,,,,,,,,,,,,,48,001,19,w,Psychologie,2023-01-19_09h05.07.239,00_bat_bachelor,2022.2.4,60.018012639702455,
,,,,,,,,,,,,1,0,1,0,119,0,119,0,,,,,,,119,,,0.2,1199.1713109472767,Y,None,nogo,None,1,1199.9720228014048,,,,,,,,,,,,,,,,,,48,001,19,w,Psychologie,2023-01-19_09h05.07.239,00_bat_bachelor,2022.2.4,60.018012639702455,
,,,,,,,,,,,,1,0,1,0,120,0,120,0,,,,,,,120,,,0.2,1200.1720668256748,X,d,go,d,1,,0.10114373208489269,,,,,,,,,,,,,,,,,48,001,19,w,Psychologie,2023-01-19_09h05.07.239,00_bat_bachelor,2022.2.4,60.018012639702455,
,,,,,,,,,,,,1,0,1,0,121,0,121,0,,,,,,,121,,,0.2,1200.5890688053332,Y,l,go,l,1,,0.5324109168723226,,,,,,,,,,,,,,,,,48,001,19,w,Psychologie,2023-01-19_09h05.07.239,00_bat_bachelor,2022.2.4,60.018012639702455,
,,,,,,,,,,,,1,0,1,0,122,0,122,0,,,,,,,122,,,0.2,1201.4231740977848,X,d,go,None,0,1202.2234985582763,,,,,,,,,,,,,,,,,,48,001,19,w,Psychologie,2023-01-19_09h05.07.239,00_bat_bachelor,2022.2.4,60.018012639702455,
,,,,,,,,,,,,1,0,1,0,123,0,123,0,,,,,,,123,,,0.2,1202.4237908248324,Y,l,go,None,0,1203.224206921528,,,,,,,,,,,,,,,,,,48,001,19,w,Psychologie,2023-01-19_09h05.07.239,00_bat_bachelor,2022.2.4,60.018012639702455,
,,,,,,,,,,,,1,0,1,0,124,0,124,0,,,,,,,124,,,0.2,1203.4245020971866,X,d,go,d,1,,0.5761054411996156,,,,,,,,,,,,,,,,,48,001,19,w,Psychologie,2023-01-19_09h05.07.239,00_bat_bachelor,2022.2.4,60.018012639702455,
,,,,,,,,,,,,1,0,1,0,125,0,125,0,,,,,,,125,,,0.2,1204.3418311069254,Y,l,go,l,1,,0.4102427336620167,,,,,,,,,,,,,,,,,48,001,19,w,Psychologie,2023-01-19_09h05.07.239,00_bat_bachelor,2022.2.4,60.018012639702455,
,,,,,,,,,,,,1,0,1,0,126,0,126,0,,,,,,,126,,,0.2,1205.0759475994855,X,d,go,d,1,,0.556788117159158,,,,,,,,,,,,,,,,,48,001,19,w,Psychologie,2023-01-19_09h05.07.239,00_bat_bachelor,2022.2.4,60.018012639702455,
,,,,,,,,,,,,1,0,1,0,127,0,127,0,,,,,,,127,,,0.2,1205.97661819309,X,None,nogo,l,0,,0.5680516267893836,,,,,,,,,,,,,,,,,48,001,19,w,Psychologie,2023-01-19_09h05.07.239,00_bat_bachelor,2022.2.4,60.018012639702455,
,,,,,,,,,,,,1,0,1,0,128,0,128,0,,,,,,,128,,,0.2,1206.8940199301578,Y,l,go,None,0,1207.694520875346,,,,,,,,,,,,,,,,,,48,001,19,w,Psychologie,2023-01-19_09h05.07.239,00_bat_bachelor,2022.2.4,60.018012639702455,
,,,,,,,,,,,,1,0,1,0,129,0,129,0,,,,,,,129,,,0.2,1207.8948267176747,X,d,go,d,1,,0.44308392982929945,,,,,,,,,,,,,,,,,48,001,19,w,Psychologie,2023-01-19_09h05.07.239,00_bat_bachelor,2022.2.4,60.018012639702455,
,,,,,,,,,,,,1,0,1,0,130,0,130,0,,,,,,,130,,,0.2,1208.66179216397,Y,l,go,None,0,1209.4625689878594,,,,,,,,,,,,,,,,,,48,001,19,w,Psychologie,2023-01-19_09h05.07.239,00_bat_bachelor,2022.2.4,60.018012639702455,
,,,,,,,,,,,,1,0,1,0,131,0,131,0,,,,,,,131,,,0.2,1209.662561133271,X,d,go,d,1,,0.3856706244405359,,,,,,,,,,,,,,,,,48,001,19,w,Psychologie,2023-01-19_09h05.07.239,00_bat_bachelor,2022.2.4,60.018012639702455,
,,,,,,,,,,,,1,0,1,0,132,0,132,0,,,,,,,132,,,0.2,1210.3797767854994,X,None,nogo,None,1,1211.1806660941802,,,,,,,,,,,,,,,,,,48,001,19,w,Psychologie,2023-01-19_09h05.07.239,00_bat_bachelor,2022.2.4,60.018012639702455,
,,,,,,,,,,,,1,0,1,0,133,0,133,0,,,,,,,133,,,0.2,1211.3805724214762,Y,l,go,l,1,,0.36438627098686993,,,,,,,,,,,,,,,,,48,001,19,w,Psychologie,2023-01-19_09h05.07.239,00_bat_bachelor,2022.2.4,60.018012639702455,
,,,,,,,,,,,,1,0,1,0,134,0,134,0,,,,,,,134,,,0.2,1212.0813192332862,X,d,go,None,0,1212.882013632916,,,,,,,,,,,,,,,,,,48,001,19,w,Psychologie,2023-01-19_09h05.07.239,00_bat_bachelor,2022.2.4,60.018012639702455,
,,,,,,,,,,,,1,0,1,0,135,0,135,0,,,,,,,135,,,0.2,1213.0820246874355,Y,l,go,d,0,,0.05411975481547415,,,,,,,,,,,,,,,,,48,001,19,w,Psychologie,2023-01-19_09h05.07.239,00_bat_bachelor,2022.2.4,60.018012639702455,
,,,,,,,,,,,,1,0,1,0,136,0,136,0,,,,,,,136,,,0.2,1213.4821781904902,Y,None,nogo,l,0,,0.24695554014761,,,,,,,,,,,,,,,,,48,001,19,w,Psychologie,2023-01-19_09h05.07.239,00_bat_bachelor,2022.2.4,60.018012639702455,
,,,,,,,,,,,,1,0,1,0,137,0,137,0,,,,,,,137,,,0.2,1214.0492314912844,X,d,go,d,1,,0.5922276151832193,,,,,,,,,,,,,,,,,48,001,19,w,Psychologie,2023-01-19_09h05.07.239,00_bat_bachelor,2022.2.4,60.018012639702455,
,,,,,,,,,,,,1,0,1,0,138,0,138,0,,,,,,,138,,,0.2,1214.9666191677097,Y,l,go,l,1,,0.3945578928105533,,,,,,,,,,,,,,,,,48,001,19,w,Psychologie,2023-01-19_09h05.07.239,00_bat_bachelor,2022.2.4,60.018012639702455,
,,,,,,,,,,,,1,0,1,0,139,0,139,0,,,,,,,139,,,0.2,1215.6673160400242,X,d,go,d,1,,0.4451154440175742,,,,,,,,,,,,,,,,,48,001,19,w,Psychologie,2023-01-19_09h05.07.239,00_bat_bachelor,2022.2.4,60.018012639702455,
,,,,,,,,,,,,1,0,1,0,140,0,140,0,,,,,,,140,,,0.2,1216.4343605166068,Y,l,go,l,1,,0.35061367170419544,,,,,,,,,,,,,,,,,48,001,19,w,Psychologie,2023-01-19_09h05.07.239,00_bat_bachelor,2022.2.4,60.018012639702455,
,,,,,,,,,,,,1,0,1,0,141,0,141,0,,,,,,,141,,,0.2,1217.0848857769743,X,d,go,d,1,,0.40457922127097845,,,,,,,,,,,,,,,,,48,001,19,w,Psychologie,2023-01-19_09h05.07.239,00_bat_bachelor,2022.2.4,60.018012639702455,
,,,,,,,,,,,,1,0,1,0,142,0,142,0,,,,,,,142,,,0.2,1217.8190619058441,X,None,nogo,None,1,1218.6197800631635,,,,,,,,,,,,,,,,,,48,001,19,w,Psychologie,2023-01-19_09h05.07.239,00_bat_bachelor,2022.2.4,60.018012639702455,
,,,,,,,,,,,,1,0,1,0,143,0,143,0,,,,,,,143,,,0.2,1218.819722269196,Y,l,go,l,1,,0.5246538297506049,,,,,,,,,,,,,,,,,48,001,19,w,Psychologie,2023-01-19_09h05.07.239,00_bat_bachelor,2022.2.4,60.018012639702455,
,,,,,,,,,,,,1,0,1,0,144,0,144,0,,,,,,,144,,,0.2,1219.6870842729695,X,d,go,None,0,1220.4879871573066,,,,,,,,,,,,,,,,,,48,001,19,w,Psychologie,2023-01-19_09h05.07.239,00_bat_bachelor,2022.2.4,60.018012639702455,
,,,,,,,,,,,,1,0,1,0,145,0,145,0,,,,,,,145,,,0.2,1220.6876311817905,Y,l,go,l,1,,0.513290441245772,,,,,,,,,,,,,,,,,48,001,19,w,Psychologie,2023-01-19_09h05.07.239,00_bat_bachelor,2022.2.4,60.018012639702455,
,,,,,,,,,,,,1,0,1,0,146,0,146,0,,,,,,,146,,,0.2,1221.5385708903195,X,d,go,None,0,1222.3389186235145,,,,,,,,,,,,,,,,,,48,001,19,w,Psychologie,2023-01-19_09h05.07.239,00_bat_bachelor,2022.2.4,60.018012639702455,
,,,,,,,,,,,,1,0,1,0,147,0,147,0,,,,,,,147,,,0.2,1222.5392816779204,X,None,nogo,None,1,1223.3401627441635,,,,,,,,,,,,,,,,,,48,001,19,w,Psychologie,2023-01-19_09h05.07.239,00_bat_bachelor,2022.2.4,60.018012639702455,
,,,,,,,,,,,,1,0,1,0,148,0,148,0,,,,,,,148,,,0.2,1223.5401558593148,Y,l,go,l,1,,0.3644890588475391,,,,,,,,,,,,,,,,,48,001,19,w,Psychologie,2023-01-19_09h05.07.239,00_bat_bachelor,2022.2.4,60.018012639702455,
,,,,,,,,,,,,1,0,1,0,149,0,149,0,,,,,,,149,,,0.2,1224.2405506712385,X,d,go,None,0,1225.0412489497103,,,,,,,,,,,,,,,,,,48,001,19,w,Psychologie,2023-01-19_09h05.07.239,00_bat_bachelor,2022.2.4,60.018012639702455,
,,,,,,,,,,,,1,0,1,0,150,0,150,0,,,,,,,150,,,0.2,1225.241098549799,Y,l,go,l,1,,0.36039936379529536,,,,,,,,,,,,,,,,,48,001,19,w,Psychologie,2023-01-19_09h05.07.239,00_bat_bachelor,2022.2.4,60.018012639702455,
,,,,,,,,,,,,1,0,1,0,151,0,151,0,,,,,,,151,,,0.2,1225.908255559625,Y,None,nogo,l,0,,0.5405680038966238,,,,,,,,,,,,,,,,,48,001,19,w,Psychologie,2023-01-19_09h05.07.239,00_bat_bachelor,2022.2.4,60.018012639702455,
,,,,,,,,,,,,1,0,1,0,152,0,152,0,,,,,,,152,,,0.2,1226.7590328441001,X,d,go,d,1,,0.5219566188752651,,,,,,,,,,,,,,,,,48,001,19,w,Psychologie,2023-01-19_09h05.07.239,00_bat_bachelor,2022.2.4,60.018012639702455,
,,,,,,,,,,,,1,0,1,0,153,0,153,0,,,,,,,153,,,0.2,1227.609672916471,Y,l,go,l,1,,0.5040409911889583,,,,,,,,,,,,,,,,,48,001,19,w,Psychologie,2023-01-19_09h05.07.239,00_bat_bachelor,2022.2.4,60.018012639702455,
,,,,,,,,,,,,1,0,1,0,154,0,154,0,,,,,,,154,,,0.2,1228.4267328840215,X,d,go,d,1,,0.6305330512113869,,,,,,,,,,,,,,,,,48,001,19,w,Psychologie,2023-01-19_09h05.07.239,00_bat_bachelor,2022.2.4,60.018012639702455,
,,,,,,,,,,,,1,0,1,0,155,0,155,0,,,,,,,155,,,0.2,1229.360914249206,X,None,nogo,None,1,1230.1613478005165,,,,,,,,,,,,,,,,,,48,001,19,w,Psychologie,2023-01-19_09h05.07.239,00_bat_bachelor,2022.2.4,60.018012639702455,
,,,,,,,,,,,,1,0,1,0,156,0,156,0,,,,,,,156,,,0.2,1230.361676430679,Y,l,go,l,1,,0.3592856675386429,,,,,,,,,,,,,,,,,48,001,19,w,Psychologie,2023-01-19_09h05.07.239,00_bat_bachelor,2022.2.4,60.018012639702455,
,,,,,,,,,,,,1,0,1,0,157,0,157,0,,,,,,,157,,,0.2,1231.045739129302,X,d,go,d,1,,0.5075590501073748,,,,,,,,,,,,,,,,,48,001,19,w,Psychologie,2023-01-19_09h05.07.239,00_bat_bachelor,2022.2.4,60.018012639702455,
,,,,,,,,,,,,1,0,1,0,158,0,158,0,,,,,,,158,,,0.2,1231.8793450281955,Y,l,go,l,1,,0.5540317548438907,,,,,,,,,,,,,,,,,48,001,19,w,Psychologie,2023-01-19_09h05.07.239,00_bat_bachelor,2022.2.4,60.018012639702455,
,,,,,,,,,,,,1,0,1,0,159,0,159,0,,,,,,,159,,,0.2,1232.7467598803341,Y,None,nogo,None,1,1233.547332098242,,,,,,,,,,,,,,,,,,48,001,19,w,Psychologie,2023-01-19_09h05.07.239,00_bat_bachelor,2022.2.4,60.018012639702455,
,,,,,,,,,,,,1,0,1,0,160,0,160,0,,,,,,,160,,,0.2,1233.74759430415,X,d,go,d,1,,0.3654170584632084,,,,,,,,,,,,,,,,,48,001,19,w,Psychologie,2023-01-19_09h05.07.239,00_bat_bachelor,2022.2.4,60.018012639702455,
,,,,,,,,,,,,1,0,1,0,161,0,161,0,,,,,,,161,,,0.2,1234.4146514353342,Y,l,go,l,1,,0.4652056160848588,,,,,,,,,,,,,,,,,48,001,19,w,Psychologie,2023-01-19_09h05.07.239,00_bat_bachelor,2022.2.4,60.018012639702455,
,,,,,,,,,,,,1,0,1,0,162,0,162,0,,,,,,,162,,,0.2,1235.198601600714,Y,None,nogo,None,1,1235.9993541821605,,,,,,,,,,,,,,,,,,48,001,19,w,Psychologie,2023-01-19_09h05.07.239,00_bat_bachelor,2022.2.4,60.018012639702455,
,,,,,,,,,,,,1,0,1,0,163,0,163,0,,,,,,,163,,,0.2,1236.1995315395761,X,d,go,d,1,,0.234605485573411,,,,,,,,,,,,,,,,,48,001,19,w,Psychologie,2023-01-19_09h05.07.239,00_bat_bachelor,2022.2.4,60.018012639702455,
,,,,,,,,,,,,1,0,1,0,164,0,164,0,,,,,,,164,,,0.2,1236.7499409697484,Y,l,go,l,1,,0.43525411549489945,,,,,,,,,,,,,,,,,48,001,19,w,Psychologie,2023-01-19_09h05.07.239,00_bat_bachelor,2022.2.4,60.018012639702455,
,,,,,,,,,,,,1,0,1,0,165,0,165,0,,,,,,,165,,,0.2,1237.5005088482285,Y,None,nogo,None,1,1238.3012396114646,,,,,,,,,,,,,,,,,,48,001,19,w,Psychologie,2023-01-19_09h05.07.239,00_bat_bachelor,2022.2.4,60.018012639702455,
,,,,,,,,,,,,1,0,1,0,166,0,166,0,,,,,,,166,,,0.2,1238.5012889690697,X,d,go,d,1,,0.07666956202592701,,,,,,,,,,,,,,,,,48,001,19,w,Psychologie,2023-01-19_09h05.07.239,00_bat_bachelor,2022.2.4,60.018012639702455,
,,,,,,,,,,,,1,0,1,0,167,0,167,0,,,,,,,167,,,0.2,1238.8847341164947,Y,l,go,l,1,,0.5890542833367363,,,,,,,,,,,,,,,,,48,001,19,w,Psychologie,2023-01-19_09h05.07.239,00_bat_bachelor,2022.2.4,60.018012639702455,
,,,,,,,,,,,,1,0,1,0,168,0,168,0,,,,,,,168,,,0.2,1239.7857232553652,X,d,go,d,1,,0.44011084048543125,,,,,,,,,,,,,,,,,48,001,19,w,Psychologie,2023-01-19_09h05.07.239,00_bat_bachelor,2022.2.4,60.018012639702455,
,,,,,,,,,,,,1,0,1,0,169,0,169,0,,,,,,,169,,,0.2,1240.551976459683,X,None,nogo,None,1,,,,,,,,,,,,,,,,,,,48,001,19,w,Psychologie,2023-01-19_09h05.07.239,00_bat_bachelor,2022.2.4,60.018012639702455,
,,,,,,,,,,,,1,0,1,0,170,0,170,0,,,,,,,170,,,0.2,1241.5529592470266,Y,l,go,l,1,,0.2088285282952711,,,,,,,,,,,,,,,,,48,001,19,w,Psychologie,2023-01-19_09h05.07.239,00_bat_bachelor,2022.2.4,60.018012639702455,
,,,,,,,,,,,,1,0,1,0,171,0,171,0,,,,,,,171,,,0.2,1242.0701415417716,X,d,go,d,1,,0.5555095723830163,,,,,,,,,,,,,,,,,48,001,19,w,Psychologie,2023-01-19_09h05.07.239,00_bat_bachelor,2022.2.4,60.018012639702455,
,,,,,,,,,,,,1,0,1,0,172,0,172,0,,,,,,,172,,,0.2,1242.937441969756,X,None,nogo,None,1,1243.7379977027886,,,,,,,,,,,,,,,,,,48,001,19,w,Psychologie,2023-01-19_09h05.07.239,00_bat_bachelor,2022.2.4,60.018012639702455,
,,,,,,,,,,,,1,0,1,0,173,0,173,0,,,,,,,173,,,0.2,1243.9381653632736,Y,l,go,l,1,,0.07963634852785617,,,,,,,,,,,,,,,,,48,001,19,w,Psychologie,2023-01-19_09h05.07.239,00_bat_bachelor,2022.2.4,60.018012639702455,
,,,,,,,,,,,,1,0,1,0,174,0,174,0,,,,,,,174,,,0.2,1244.3218282075832,X,d,go,d,1,,0.47994500293862075,,,,,,,,,,,,,,,,,48,001,19,w,Psychologie,2023-01-19_09h05.07.239,00_bat_bachelor,2022.2.4,60.018012639702455,
,,,,,,,,,,,,1,0,1,0,175,0,175,0,,,,,,,175,,,0.2,1245.1058496456826,Y,l,go,l,1,,0.5915284639922902,,,,,,,,,,,,,,,,,48,001,19,w,Psychologie,2023-01-19_09h05.07.239,00_bat_bachelor,2022.2.4,60.018012639702455,
,,,,,,,,,,,,1,0,1,0,176,0,176,0,,,,,,,176,,,0.2,1246.0063985423185,X,d,go,d,1,,0.6192006929777563,,,,,,,,,,,,,,,,,48,001,19,w,Psychologie,2023-01-19_09h05.07.239,00_bat_bachelor,2022.2.4,60.018012639702455,
,,,,,,,,,,,,1,0,1,0,177,0,177,0,,,,,,,177,,,0.2,1246.940387422801,Y,l,go,l,1,,0.46840900857932866,,,,,,,,,,,,,,,,,48,001,19,w,Psychologie,2023-01-19_09h05.07.239,00_bat_bachelor,2022.2.4,60.018012639702455,
,,,,,,,,,,,,1,0,1,0,178,0,178,0,,,,,,,178,,,0.2,1247.7244830426062,Y,None,nogo,None,1,,,,,,,,,,,,,,,,,,,48,001,19,w,Psychologie,2023-01-19_09h05.07.239,00_bat_bachelor,2022.2.4,60.018012639702455,
,,,,,,,,,,,,1,0,1,0,179,0,179,0,,,,,,,179,,,0.2,1248.7250018302584,X,d,go,d,1,,0.2673846210818738,,,,,,,,,,,,,,,,,48,001,19,w,Psychologie,2023-01-19_09h05.07.239,00_bat_bachelor,2022.2.4,60.018012639702455,
,,,,,,,,,,,,1,0,1,0,180,0,180,0,,,,,,,180,,,0.2,1249.3089079713682,Y,l,go,l,1,,0.38832904724404216,,,,,,,,,,,,,,,,,48,001,19,w,Psychologie,2023-01-19_09h05.07.239,00_bat_bachelor,2022.2.4,60.018012639702455,
,,,,,,,,,,,,1,0,1,0,181,0,181,0,,,,,,,181,,,0.2,1250.009464237839,X,d,go,None,0,,,,,,,,,,,,,,,,,,,48,001,19,w,Psychologie,2023-01-19_09h05.07.239,00_bat_bachelor,2022.2.4,60.018012639702455,
,,,,,,,,,,,,1,0,1,0,182,0,182,0,,,,,,,182,,,0.2,1251.0099369648378,Y,l,go,l,1,,0.6067822747863829,,,,,,,,,,,,,,,,,48,001,19,w,Psychologie,2023-01-19_09h05.07.239,00_bat_bachelor,2022.2.4,60.018012639702455,
,,,,,,,,,,,,1,0,1,0,183,0,183,0,,,,,,,183,,,0.2,1251.9276805198751,X,d,go,d,1,,0.521667649387382,,,,,,,,,,,,,,,,,48,001,19,w,Psychologie,2023-01-19_09h05.07.239,00_bat_bachelor,2022.2.4,60.018012639702455,
,,,,,,,,,,,,1,0,1,0,184,0,184,0,,,,,,,184,,,0.2,1252.7614881156478,Y,l,go,l,1,,0.6309485660167411,,,,,,,,,,,,,,,,,48,001,19,w,Psychologie,2023-01-19_09h05.07.239,00_bat_bachelor,2022.2.4,60.018012639702455,
,,,,,,,,,,,,1,0,1,0,185,0,185,0,,,,,,,185,,,0.2,1253.6954474203521,X,d,go,d,1,,0.3697283291257918,,,,,,,,,,,,,,,,,48,001,19,w,Psychologie,2023-01-19_09h05.07.239,00_bat_bachelor,2022.2.4,60.018012639702455,
,,,,,,,,,,,,1,0,1,0,186,0,186,0,,,,,,,186,,,0.2,1254.3794427250978,Y,l,go,None,0,1255.1797773673898,,,,,,,,,,,,,,,,,,48,001,19,w,Psychologie,2023-01-19_09h05.07.239,00_bat_bachelor,2022.2.4,60.018012639702455,
,,,,,,,,,,,,1,0,1,0,187,0,187,0,,,,,,,187,,,0.2,1255.3801147247432,Y,None,nogo,None,1,,,,,,,,,,,,,,,,,,,48,001,19,w,Psychologie,2023-01-19_09h05.07.239,00_bat_bachelor,2022.2.4,60.018012639702455,
,,,,,,,,,,,,1,0,1,0,188,0,188,0,,,,,,,188,,,0.2,1256.3810417546192,X,d,go,None,0,,,,,,,,,,,,,,,,,,,48,001,19,w,Psychologie,2023-01-19_09h05.07.239,00_bat_bachelor,2022.2.4,60.018012639702455,
,,,,,,,,,,,,1,0,1,0,189,0,189,0,,,,,,,189,,,0.2,1257.3817719360813,Y,l,go,l,1,,0.33210022607818246,,,,,,,,,,,,,,,,,48,001,19,w,Psychologie,2023-01-19_09h05.07.239,00_bat_bachelor,2022.2.4,60.018012639702455,
,,,,,,,,,,,,1,0,1,0,190,0,190,0,,,,,,,190,,,0.2,1258.015509325778,X,d,go,d,1,,0.48119348706677556,,,,,,,,,,,,,,,,,48,001,19,w,Psychologie,2023-01-19_09h05.07.239,00_bat_bachelor,2022.2.4,60.018012639702455,
,,,,,,,,,,,,1,0,1,0,191,0,191,0,,,,,,,191,,,0.2,1258.7993867639452,Y,l,go,l,1,,0.49760317627806216,,,,,,,,,,,,,,,,,48,001,19,w,Psychologie,2023-01-19_09h05.07.239,00_bat_bachelor,2022.2.4,60.018012639702455,
,,,,,,,,,,,,1,0,1,0,192,0,192,0,,,,,,,192,,,0.2,1259.6001223756466,Y,None,nogo,None,1,,,,,,,,,,,,,,,,,,,48,001,19,w,Psychologie,2023-01-19_09h05.07.239,00_bat_bachelor,2022.2.4,60.018012639702455,
,,,,,,,,,,,,1,0,1,0,193,0,193,0,,,,,,,193,,,0.2,1260.600817163242,Y,None,nogo,d,0,,0.2809792811749503,,,,,,,,,,,,,,,,,48,001,19,w,Psychologie,2023-01-19_09h05.07.239,00_bat_bachelor,2022.2.4,60.018012639702455,
,,,,,,,,,,,,1,0,1,0,194,0,194,0,,,,,,,194,,,0.2,1261.1847460921854,X,d,go,None,0,,,,,,,,,,,,,,,,,,,48,001,19,w,Psychologie,2023-01-19_09h05.07.239,00_bat_bachelor,2022.2.4,60.018012639702455,
