loop_instruction.thisRepN,loop_instruction.thisTrialN,loop_instruction.thisN,loop_instruction.thisIndex,loop_rsi_practice.thisRepN,loop_rsi_practice.thisTrialN,loop_rsi_practice.thisN,loop_rsi_practice.thisIndex,loop_practice.thisRepN,loop_practice.thisTrialN,loop_practice.thisN,loop_practice.thisIndex,loop_exp.thisRepN,loop_exp.thisTrialN,loop_exp.thisN,loop_exp.thisIndex,loop_trials.thisRepN,loop_trials.thisTrialN,loop_trials.thisN,loop_trials.thisIndex,map_condition,map_x_key,map_y_key,key_resp_welcome.started,key_resp_welcome.keys,key_resp_welcome.rt,index,text_empty_rsi_practice.started,text_empty_rsi_practice.stopped,rsi,stimulus.started,stimulus.stopped,stimulus,correct,trial_type,key_resp_trial.keys,key_resp_trial.corr,key_resp_trial.rt,key_resp_instruction_rsi.started,key_resp_instruction_rsi.keys,key_resp_instruction_rsi.rt,key_resp_instruction_rsi.stopped,key_resp_instruction_final.started,key_resp_instruction_final.keys,key_resp_instruction_final.rt,key_resp_break.started,key_resp_break.keys,key_resp_break.rt,key_resp_break.stopped,key_resp_end_screen.started,image_end_screen.started,key_resp_end_screen.stopped,image_end_screen.stopped,key_resp_end_screen.keys,participant,session,Alter,Geschlecht (w/m/d/andere),Studiengang,date,expName,psychopyVersion,frameRate,
,,,,0,0,0,0,0,0,0,0,,,,,,,,,0,d,l,1056.2648765064878,j,17.303061543196236,0,1073.5945923800136,1074.6091868254844,1,1074.6091868254844,1075.4093407166183,X,d,go,None,0,,,,,,,,,,,,,,,,,,52,001,23,w,Psychologie ,2023-01-23_14h00.48.293,00_bat_bachelor,2022.2.4,59.9805444648726,
,,,,0,0,0,0,1,0,1,0,,,,,,,,,,,,,,,1,1076.0102254694211,1077.0106516518572,1,1077.0106516518572,,Y,l,go,None,0,,,,,,,,,,,,,,,,,,52,001,23,w,Psychologie ,2023-01-23_14h00.48.293,00_bat_bachelor,2022.2.4,59.9805444648726,
,,,,0,0,0,0,2,0,2,0,,,,,,,,,,,,,,,2,1078.412013690202,1079.412691994221,1,1079.412691994221,,X,d,go,d,1,0.6632734610793705,,,,,,,,,,,,,,,,,52,001,23,w,Psychologie ,2023-01-23_14h00.48.293,00_bat_bachelor,2022.2.4,59.9805444648726,
,,,,0,0,0,0,3,0,3,0,,,,,,,,,,,,,,,3,1080.7804418624619,1081.7812088938808,1,1081.7812088938808,,Y,l,go,l,1,0.18307591412667534,,,,,,,,,,,,,,,,,52,001,23,w,Psychologie ,2023-01-23_14h00.48.293,00_bat_bachelor,2022.2.4,59.9805444648726,
,,,,0,0,0,0,4,0,4,0,,,,,,,,,,,,,,,4,1082.6651646038772,1083.6659558777537,1,1083.6659558777537,,Y,None,nogo,None,1,,,,,,,,,,,,,,,,,,52,001,23,w,Psychologie ,2023-01-23_14h00.48.293,00_bat_bachelor,2022.2.4,59.9805444648726,
,,,,0,0,0,0,5,0,5,0,,,,,,,,,,,,,,,5,1085.0667055515732,1086.0677625228054,1,1086.0677625228054,,X,d,go,d,1,0.552555724279955,,,,,,,,,,,,,,,,,52,001,23,w,Psychologie ,2023-01-23_14h00.48.293,00_bat_bachelor,2022.2.4,59.9805444648726,
,,,,0,0,0,0,6,0,6,0,,,,,,,,,,,,,,,6,1087.335277578586,1088.336261337594,1,1088.336261337594,,Y,l,go,l,1,0.46003195333469193,,,,,,,,,,,,,,,,,52,001,23,w,Psychologie ,2023-01-23_14h00.48.293,00_bat_bachelor,2022.2.4,59.9805444648726,
,,,,0,0,0,0,7,0,7,0,,,,,,,,,,,,,,,7,1089.5036899447623,1090.5050315224726,1,1090.5050315224726,,X,d,go,d,1,0.4503456362144789,,,,,,,,,,,,,,,,,52,001,23,w,Psychologie ,2023-01-23_14h00.48.293,00_bat_bachelor,2022.2.4,59.9805444648726,
,,,,0,0,0,0,8,0,8,0,,,,,,,,,,,,,,,8,1091.6726017056026,1092.6733929794827,1,1092.6733929794827,1093.473748567878,X,None,nogo,None,1,,,,,,,,,,,,,,,,,,52,001,23,w,Psychologie ,2023-01-23_14h00.48.293,00_bat_bachelor,2022.2.4,59.9805444648726,
,,,,0,0,0,0,9,0,9,0,,,,,,,,,,,,,,,9,1094.0744427749487,1095.0750047151596,1,1095.0750047151596,1095.8757258798432,Y,l,go,None,0,,,,,,,,,,,,,,,,,,52,001,23,w,Psychologie ,2023-01-23_14h00.48.293,00_bat_bachelor,2022.2.4,59.9805444648726,
,,,,0,0,0,0,10,0,10,0,,,,,,,,,,,,,,,10,1096.476198995686,1097.4771560879853,1,1097.4771560879853,,X,d,go,d,1,0.6473825288740045,,,,,,,,,,,,,,,,,52,001,23,w,Psychologie ,2023-01-23_14h00.48.293,00_bat_bachelor,2022.2.4,59.9805444648726,
,,,,0,0,0,0,11,0,11,0,,,,,,,,,,,,,,,11,1098.844722683236,1099.8453258356276,1,1099.8453258356276,1100.6460886973437,X,None,nogo,None,1,,,,,,,,,,,,,,,,,,52,001,23,w,Psychologie ,2023-01-23_14h00.48.293,00_bat_bachelor,2022.2.4,59.9805444648726,
,,,,0,0,0,0,12,0,12,0,,,,,,,,,,,,,,,12,1101.2464934494456,1102.2471644807265,1,1102.2471644807265,,Y,l,go,l,1,0.45373376235875185,,,,,,,,,,,,,,,,,52,001,23,w,Psychologie ,2023-01-23_14h00.48.293,00_bat_bachelor,2022.2.4,59.9805444648726,
,,,,0,0,0,0,13,0,13,0,,,,,,,,,,,,,,,13,1103.4148238761081,1104.415678180383,1,1104.415678180383,,X,d,go,d,1,0.3815203239864786,,,,,,,,,,,,,,,,,52,001,23,w,Psychologie ,2023-01-23_14h00.48.293,00_bat_bachelor,2022.2.4,59.9805444648726,
,,,,0,0,0,0,14,0,14,0,,,,,,,,,,,,,,,14,1105.4996196358115,1106.5005970917773,1,1106.5005970917773,,Y,l,go,l,1,0.5038278958272713,,,,,,,,,,,,,,,,,52,001,23,w,Psychologie ,2023-01-23_14h00.48.293,00_bat_bachelor,2022.2.4,59.9805444648726,
,,,,1,0,1,0,0,0,0,0,,,,,,,,,,,,,,,0,1126.3487495981826,1126.5488982529423,0.2,1126.5488982529423,,X,d,go,d,1,0.5999429447183502,1107.7458915091775,j,18.57369514896709,,,,,,,,,,,,,,52,001,23,w,Psychologie ,2023-01-23_14h00.48.293,00_bat_bachelor,2022.2.4,59.9805444648726,
,,,,1,0,1,0,1,0,1,0,,,,,,,,,,,,,,,1,1127.8498853574092,1128.0500504970441,0.2,1128.0500504970441,,Y,l,go,l,1,0.3797016546741361,,,,,,,,,,,,,,,,,52,001,23,w,Psychologie ,2023-01-23_14h00.48.293,00_bat_bachelor,2022.2.4,59.9805444648726,
,,,,1,0,1,0,2,0,2,0,,,,,,,,,,,,,,,2,1129.1342275891802,1129.3341856982115,0.2,1129.3341856982115,,X,d,go,d,1,0.4064241177838994,,,,,,,,,,,,,,,,,52,001,23,w,Psychologie ,2023-01-23_14h00.48.293,00_bat_bachelor,2022.2.4,59.9805444648726,
,,,,1,0,1,0,3,0,3,0,,,,,,,,,,,,,,,3,1130.4519201724906,1130.6518705239323,0.2,1130.6518705239323,,Y,l,go,l,1,0.40021562390757026,,,,,,,,,,,,,,,,,52,001,23,w,Psychologie ,2023-01-23_14h00.48.293,00_bat_bachelor,2022.2.4,59.9805444648726,
,,,,1,0,1,0,4,0,4,0,,,,,,,,,,,,,,,4,1131.7529000042196,1131.9532164168013,0.2,1131.9532164168013,,X,d,go,d,1,0.3480647601718374,,,,,,,,,,,,,,,,,52,001,23,w,Psychologie ,2023-01-23_14h00.48.293,00_bat_bachelor,2022.2.4,59.9805444648726,
,,,,1,0,1,0,5,0,5,0,,,,,,,,,,,,,,,5,1133.003863763195,1133.2039930239916,0.2,1133.2039930239916,,X,None,nogo,None,1,,,,,,,,,,,,,,,,,,52,001,23,w,Psychologie ,2023-01-23_14h00.48.293,00_bat_bachelor,2022.2.4,59.9805444648726,
,,,,1,0,1,0,6,0,6,0,,,,,,,,,,,,,,,6,1134.6048459706872,1134.8054164442437,0.2,1134.8054164442437,,Y,l,go,l,1,0.47179003104611184,,,,,,,,,,,,,,,,,52,001,23,w,Psychologie ,2023-01-23_14h00.48.293,00_bat_bachelor,2022.2.4,59.9805444648726,
,,,,1,0,1,0,7,0,7,0,,,,,,,,,,,,,,,7,1135.9894506513228,1136.1897151850426,0.2,1136.1897151850426,,X,d,go,d,1,0.4472658741615305,,,,,,,,,,,,,,,,,52,001,23,w,Psychologie ,2023-01-23_14h00.48.293,00_bat_bachelor,2022.2.4,59.9805444648726,
,,,,1,0,1,0,8,0,8,0,,,,,,,,,,,,,,,8,1137.3405086165003,1137.540803695716,0.2,1137.540803695716,,Y,l,go,l,1,0.3606902330793673,,,,,,,,,,,,,,,,,52,001,23,w,Psychologie ,2023-01-23_14h00.48.293,00_bat_bachelor,2022.2.4,59.9805444648726,
,,,,1,0,1,0,9,0,9,0,,,,,,,,,,,,,,,9,1138.607918460002,1138.8082760847647,0.2,1138.8082760847647,,X,d,go,d,1,0.3247338171458978,,,,,,,,,,,,,,,,,52,001,23,w,Psychologie ,2023-01-23_14h00.48.293,00_bat_bachelor,2022.2.4,59.9805444648726,
,,,,1,0,1,0,10,0,10,0,,,,,,,,,,,,,,,10,1139.8423769828514,1140.0425605467572,0.2,1140.0425605467572,,Y,l,go,l,1,0.44938514997193124,,,,,,,,,,,,,,,,,52,001,23,w,Psychologie ,2023-01-23_14h00.48.293,00_bat_bachelor,2022.2.4,59.9805444648726,
,,,,1,0,1,0,11,0,11,0,,,,,,,,,,,,,,,11,1141.1932206446872,1141.3935777845982,0.2,1141.3935777845982,,Y,None,nogo,None,1,,,,,,,,,,,,,,,,,,52,001,23,w,Psychologie ,2023-01-23_14h00.48.293,00_bat_bachelor,2022.2.4,59.9805444648726,
,,,,1,0,1,0,12,0,12,0,,,,,,,,,,,,,,,12,1142.7945567920833,1142.994894538031,0.2,1142.994894538031,,X,d,go,d,1,0.2657703374425182,,,,,,,,,,,,,,,,,52,001,23,w,Psychologie ,2023-01-23_14h00.48.293,00_bat_bachelor,2022.2.4,59.9805444648726,
,,,,1,0,1,0,13,0,13,0,,,,,,,,,,,,,,,13,1143.962061520575,1144.1625001151515,0.2,1144.1625001151515,,Y,l,go,l,1,0.40980788028537063,,,,,,,,,,,,,,,,,52,001,23,w,Psychologie ,2023-01-23_14h00.48.293,00_bat_bachelor,2022.2.4,59.9805444648726,
,,,,1,0,1,0,14,0,14,0,,,,,,,,,,,,,,,14,1145.2797075583621,1145.479835364611,0.2,1145.479835364611,,X,d,go,d,1,0.51601991356074,,,,,,,,,,,,,,,,,52,001,23,w,Psychologie ,2023-01-23_14h00.48.293,00_bat_bachelor,2022.2.4,59.9805444648726,
,,,,,,,,,,,,,,,,,,,,,,,,,,,,,,,,,,,,,,1146.7531050954276,None,,1146.7531050954276,1146.7531050954276,space,8.654699872855417,,,,,,,,,,52,001,23,w,Psychologie ,2023-01-23_14h00.48.293,00_bat_bachelor,2022.2.4,59.9805444648726,
,,,,,,,,,,,,0,0,0,0,0,0,0,0,,,,,,,0,,,1,1156.4385514257738,,X,d,go,d,1,0.3103701598884072,,,,,,,,,,,,,,,,,52,001,23,w,Psychologie ,2023-01-23_14h00.48.293,00_bat_bachelor,2022.2.4,59.9805444648726,
,,,,,,,,,,,,0,0,0,0,1,0,1,0,,,,,,,1,,,1,1157.8559546995712,,Y,l,go,l,1,0.47745064533955883,,,,,,,,,,,,,,,,,52,001,23,w,Psychologie ,2023-01-23_14h00.48.293,00_bat_bachelor,2022.2.4,59.9805444648726,
,,,,,,,,,,,,0,0,0,0,2,0,2,0,,,,,,,2,,,1,1159.440491792233,,X,d,go,d,1,0.4125390357694414,,,,,,,,,,,,,,,,,52,001,23,w,Psychologie ,2023-01-23_14h00.48.293,00_bat_bachelor,2022.2.4,59.9805444648726,
,,,,,,,,,,,,0,0,0,0,3,0,3,0,,,,,,,3,,,1,1160.958010120743,,Y,l,go,l,1,0.5102482688016607,,,,,,,,,,,,,,,,,52,001,23,w,Psychologie ,2023-01-23_14h00.48.293,00_bat_bachelor,2022.2.4,59.9805444648726,
,,,,,,,,,,,,0,0,0,0,4,0,4,0,,,,,,,4,,,1,1162.5761855653618,,X,d,go,d,1,0.36535690653545316,,,,,,,,,,,,,,,,,52,001,23,w,Psychologie ,2023-01-23_14h00.48.293,00_bat_bachelor,2022.2.4,59.9805444648726,
,,,,,,,,,,,,0,0,0,0,5,0,5,0,,,,,,,5,,,1,1164.0439947306586,,Y,l,go,l,1,0.3847547529330768,,,,,,,,,,,,,,,,,52,001,23,w,Psychologie ,2023-01-23_14h00.48.293,00_bat_bachelor,2022.2.4,59.9805444648726,
,,,,,,,,,,,,0,0,0,0,6,0,6,0,,,,,,,6,,,1,1165.5452085506076,,X,d,go,d,1,0.35551931646841695,,,,,,,,,,,,,,,,,52,001,23,w,Psychologie ,2023-01-23_14h00.48.293,00_bat_bachelor,2022.2.4,59.9805444648726,
,,,,,,,,,,,,0,0,0,0,7,0,7,0,,,,,,,7,,,1,1167.013279049621,,Y,l,go,l,1,0.40753539212892065,,,,,,,,,,,,,,,,,52,001,23,w,Psychologie ,2023-01-23_14h00.48.293,00_bat_bachelor,2022.2.4,59.9805444648726,
,,,,,,,,,,,,0,0,0,0,8,0,8,0,,,,,,,8,,,1,1168.531075681567,,X,d,go,d,1,0.361172658023861,,,,,,,,,,,,,,,,,52,001,23,w,Psychologie ,2023-01-23_14h00.48.293,00_bat_bachelor,2022.2.4,59.9805444648726,
,,,,,,,,,,,,0,0,0,0,9,0,9,0,,,,,,,9,,,1,1169.9988543013642,,Y,l,go,l,1,0.5245047743846953,,,,,,,,,,,,,,,,,52,001,23,w,Psychologie ,2023-01-23_14h00.48.293,00_bat_bachelor,2022.2.4,59.9805444648726,
,,,,,,,,,,,,0,0,0,0,10,0,10,0,,,,,,,10,,,1,1171.6498554907012,1172.450498109818,Y,None,nogo,None,1,,,,,,,,,,,,,,,,,,52,001,23,w,Psychologie ,2023-01-23_14h00.48.293,00_bat_bachelor,2022.2.4,59.9805444648726,
,,,,,,,,,,,,0,0,0,0,11,0,11,0,,,,,,,11,,,1,1173.45099798933,,X,d,go,d,1,0.3219473888457287,,,,,,,,,,,,,,,,,52,001,23,w,Psychologie ,2023-01-23_14h00.48.293,00_bat_bachelor,2022.2.4,59.9805444648726,
,,,,,,,,,,,,0,0,0,0,12,0,12,0,,,,,,,12,,,1,1174.885703591328,,Y,l,go,l,1,0.5511336616036715,,,,,,,,,,,,,,,,,52,001,23,w,Psychologie ,2023-01-23_14h00.48.293,00_bat_bachelor,2022.2.4,59.9805444648726,
,,,,,,,,,,,,0,0,0,0,13,0,13,0,,,,,,,13,,,1,1176.553816078278,,X,d,go,d,1,0.3550378612235363,,,,,,,,,,,,,,,,,52,001,23,w,Psychologie ,2023-01-23_14h00.48.293,00_bat_bachelor,2022.2.4,59.9805444648726,
,,,,,,,,,,,,0,0,0,0,14,0,14,0,,,,,,,14,,,1,1178.0216160314412,,Y,l,go,l,1,0.32749988177602063,,,,,,,,,,,,,,,,,52,001,23,w,Psychologie ,2023-01-23_14h00.48.293,00_bat_bachelor,2022.2.4,59.9805444648726,
,,,,,,,,,,,,0,0,0,0,15,0,15,0,,,,,,,15,,,1,1179.4558057538998,,X,d,go,d,1,0.28448115253195283,,,,,,,,,,,,,,,,,52,001,23,w,Psychologie ,2023-01-23_14h00.48.293,00_bat_bachelor,2022.2.4,59.9805444648726,
,,,,,,,,,,,,0,0,0,0,16,0,16,0,,,,,,,16,,,1,1180.8567488825465,,Y,l,go,l,1,0.32435660447299597,,,,,,,,,,,,,,,,,52,001,23,w,Psychologie ,2023-01-23_14h00.48.293,00_bat_bachelor,2022.2.4,59.9805444648726,
,,,,,,,,,,,,0,0,0,0,17,0,17,0,,,,,,,17,,,1,1182.291332302546,,X,d,go,d,1,0.32990279435762204,,,,,,,,,,,,,,,,,52,001,23,w,Psychologie ,2023-01-23_14h00.48.293,00_bat_bachelor,2022.2.4,59.9805444648726,
,,,,,,,,,,,,0,0,0,0,18,0,18,0,,,,,,,18,,,1,1183.726438389971,1184.5272987063763,X,None,nogo,None,1,,,,,,,,,,,,,,,,,,52,001,23,w,Psychologie ,2023-01-23_14h00.48.293,00_bat_bachelor,2022.2.4,59.9805444648726,
,,,,,,,,,,,,0,0,0,0,19,0,19,0,,,,,,,19,,,1,1185.52763082807,,Y,l,go,l,1,0.49996170838494436,,,,,,,,,,,,,,,,,52,001,23,w,Psychologie ,2023-01-23_14h00.48.293,00_bat_bachelor,2022.2.4,59.9805444648726,
,,,,,,,,,,,,0,0,0,0,20,0,20,0,,,,,,,20,,,1,1187.1622019329006,,X,d,go,d,1,0.4651781426400703,,,,,,,,,,,,,,,,,52,001,23,w,Psychologie ,2023-01-23_14h00.48.293,00_bat_bachelor,2022.2.4,59.9805444648726,
,,,,,,,,,,,,0,0,0,0,21,0,21,0,,,,,,,21,,,1,1188.7470250865845,1189.5477700088777,X,None,nogo,None,1,,,,,,,,,,,,,,,,,,52,001,23,w,Psychologie ,2023-01-23_14h00.48.293,00_bat_bachelor,2022.2.4,59.9805444648726,
,,,,,,,,,,,,0,0,0,0,22,0,22,0,,,,,,,22,,,1,1190.5481491609462,,Y,l,go,l,1,0.487841448331892,,,,,,,,,,,,,,,,,52,001,23,w,Psychologie ,2023-01-23_14h00.48.293,00_bat_bachelor,2022.2.4,59.9805444648726,
,,,,,,,,,,,,0,0,0,0,23,0,23,0,,,,,,,23,,,1,1192.1660850900626,,X,d,go,d,1,0.5338895153108751,,,,,,,,,,,,,,,,,52,001,23,w,Psychologie ,2023-01-23_14h00.48.293,00_bat_bachelor,2022.2.4,59.9805444648726,
,,,,,,,,,,,,0,0,0,0,24,0,24,0,,,,,,,24,,,1,1193.833968243347,,Y,l,go,l,1,0.4817410758223559,,,,,,,,,,,,,,,,,52,001,23,w,Psychologie ,2023-01-23_14h00.48.293,00_bat_bachelor,2022.2.4,59.9805444648726,
,,,,,,,,,,,,0,0,0,0,25,0,25,0,,,,,,,25,,,1,1195.4518905966906,,X,d,go,d,1,0.2881926730842679,,,,,,,,,,,,,,,,,52,001,23,w,Psychologie ,2023-01-23_14h00.48.293,00_bat_bachelor,2022.2.4,59.9805444648726,
,,,,,,,,,,,,0,0,0,0,26,0,26,0,,,,,,,26,,,1,1196.8698339924886,,Y,l,go,l,1,0.46990784648733097,,,,,,,,,,,,,,,,,52,001,23,w,Psychologie ,2023-01-23_14h00.48.293,00_bat_bachelor,2022.2.4,59.9805444648726,
,,,,,,,,,,,,0,0,0,0,27,0,27,0,,,,,,,27,,,1,1198.4710823821806,,X,d,go,d,1,0.404541448380769,,,,,,,,,,,,,,,,,52,001,23,w,Psychologie ,2023-01-23_14h00.48.293,00_bat_bachelor,2022.2.4,59.9805444648726,
,,,,,,,,,,,,0,0,0,0,28,0,28,0,,,,,,,28,,,1,1200.0221774868041,,Y,l,go,l,1,0.4853798689946416,,,,,,,,,,,,,,,,,52,001,23,w,Psychologie ,2023-01-23_14h00.48.293,00_bat_bachelor,2022.2.4,59.9805444648726,
,,,,,,,,,,,,0,0,0,0,29,0,29,0,,,,,,,29,,,1,1201.656618652054,1202.4575929080165,Y,None,nogo,None,1,,,,,,,,,,,,,,,,,,52,001,23,w,Psychologie ,2023-01-23_14h00.48.293,00_bat_bachelor,2022.2.4,59.9805444648726,
,,,,,,,,,,,,0,0,0,0,30,0,30,0,,,,,,,30,,,1,1203.4580379995714,,Y,None,nogo,l,0,0.5211331331192923,,,,,,,,,,,,,,,,,52,001,23,w,Psychologie ,2023-01-23_14h00.48.293,00_bat_bachelor,2022.2.4,59.9805444648726,
,,,,,,,,,,,,0,0,0,0,31,0,31,0,,,,,,,31,,,1,1205.1093698560544,,X,d,go,d,1,0.35916683692630613,,,,,,,,,,,,,,,,,52,001,23,w,Psychologie ,2023-01-23_14h00.48.293,00_bat_bachelor,2022.2.4,59.9805444648726,
,,,,,,,,,,,,0,0,0,0,32,0,32,0,,,,,,,32,,,1,1206.6105851305474,,Y,l,go,l,1,0.5226099837527727,,,,,,,,,,,,,,,,,52,001,23,w,Psychologie ,2023-01-23_14h00.48.293,00_bat_bachelor,2022.2.4,59.9805444648726,
,,,,,,,,,,,,0,0,0,0,33,0,33,0,,,,,,,33,,,1,1208.2451625384201,,X,d,go,d,1,0.40795672607418965,,,,,,,,,,,,,,,,,52,001,23,w,Psychologie ,2023-01-23_14h00.48.293,00_bat_bachelor,2022.2.4,59.9805444648726,
,,,,,,,,,,,,0,0,0,0,34,0,34,0,,,,,,,34,,,1,1209.762926685471,,Y,l,go,l,1,0.3447968766304257,,,,,,,,,,,,,,,,,52,001,23,w,Psychologie ,2023-01-23_14h00.48.293,00_bat_bachelor,2022.2.4,59.9805444648726,
,,,,,,,,,,,,0,0,0,0,35,0,35,0,,,,,,,35,,,1,1211.247243511145,,X,d,go,d,1,0.2681494924145227,,,,,,,,,,,,,,,,,52,001,23,w,Psychologie ,2023-01-23_14h00.48.293,00_bat_bachelor,2022.2.4,59.9805444648726,
,,,,,,,,,,,,0,0,0,0,36,0,36,0,,,,,,,36,,,1,1212.648539125148,1213.4493048959594,X,None,nogo,None,1,,,,,,,,,,,,,,,,,,52,001,23,w,Psychologie ,2023-01-23_14h00.48.293,00_bat_bachelor,2022.2.4,59.9805444648726,
,,,,,,,,,,,,0,0,0,0,37,0,37,0,,,,,,,37,,,1,1214.4496491388854,,Y,l,go,l,1,0.5076727499035769,,,,,,,,,,,,,,,,,52,001,23,w,Psychologie ,2023-01-23_14h00.48.293,00_bat_bachelor,2022.2.4,59.9805444648726,
,,,,,,,,,,,,0,0,0,0,38,0,38,0,,,,,,,38,,,1,1216.0676054316682,,X,d,go,d,1,0.31288749688246753,,,,,,,,,,,,,,,,,52,001,23,w,Psychologie ,2023-01-23_14h00.48.293,00_bat_bachelor,2022.2.4,59.9805444648726,
,,,,,,,,,,,,0,0,0,0,39,0,39,0,,,,,,,39,,,1,1217.5187275423923,,Y,l,go,l,1,0.3494708228208765,,,,,,,,,,,,,,,,,52,001,23,w,Psychologie ,2023-01-23_14h00.48.293,00_bat_bachelor,2022.2.4,59.9805444648726,
,,,,,,,,,,,,0,0,0,0,40,0,40,0,,,,,,,40,,,1,1219.003209701641,1219.804164563633,Y,None,nogo,None,1,,,,,,,,,,,,,,,,,,52,001,23,w,Psychologie ,2023-01-23_14h00.48.293,00_bat_bachelor,2022.2.4,59.9805444648726,
,,,,,,,,,,,,0,0,0,0,41,0,41,0,,,,,,,41,,,1,1220.8046077157924,,X,d,go,d,1,0.4406166523694992,,,,,,,,,,,,,,,,,52,001,23,w,Psychologie ,2023-01-23_14h00.48.293,00_bat_bachelor,2022.2.4,59.9805444648726,
,,,,,,,,,,,,0,0,0,0,42,0,42,0,,,,,,,42,,,1,1222.3724170265486,,Y,l,go,l,1,0.31110422156052664,,,,,,,,,,,,,,,,,52,001,23,w,Psychologie ,2023-01-23_14h00.48.293,00_bat_bachelor,2022.2.4,59.9805444648726,
,,,,,,,,,,,,0,0,0,0,43,0,43,0,,,,,,,43,,,1,1223.823572107016,,X,d,go,d,1,0.2686988265486434,,,,,,,,,,,,,,,,,52,001,23,w,Psychologie ,2023-01-23_14h00.48.293,00_bat_bachelor,2022.2.4,59.9805444648726,
,,,,,,,,,,,,0,0,0,0,44,0,44,0,,,,,,,44,,,1,1225.224797902738,,Y,l,go,l,1,0.4025909000883985,,,,,,,,,,,,,,,,,52,001,23,w,Psychologie ,2023-01-23_14h00.48.293,00_bat_bachelor,2022.2.4,59.9805444648726,
,,,,,,,,,,,,0,0,0,0,45,0,45,0,,,,,,,45,,,1,1226.7591021950575,,X,d,go,d,1,0.37333606965694344,,,,,,,,,,,,,,,,,52,001,23,w,Psychologie ,2023-01-23_14h00.48.293,00_bat_bachelor,2022.2.4,59.9805444648726,
,,,,,,,,,,,,0,0,0,0,46,0,46,0,,,,,,,46,,,1,1228.2603829241962,,Y,l,go,l,1,0.3112230096121493,,,,,,,,,,,,,,,,,52,001,23,w,Psychologie ,2023-01-23_14h00.48.293,00_bat_bachelor,2022.2.4,59.9805444648726,
,,,,,,,,,,,,0,0,0,0,47,0,47,0,,,,,,,47,,,1,1229.6946618589027,,X,d,go,d,1,0.2854862449057691,,,,,,,,,,,,,,,,,52,001,23,w,Psychologie ,2023-01-23_14h00.48.293,00_bat_bachelor,2022.2.4,59.9805444648726,
,,,,,,,,,,,,0,0,0,0,48,0,48,0,,,,,,,48,,,1,1231.1127686488762,1231.913382177041,X,None,nogo,None,1,,,,,,,,,,,,,,,,,,52,001,23,w,Psychologie ,2023-01-23_14h00.48.293,00_bat_bachelor,2022.2.4,59.9805444648726,
,,,,,,,,,,,,0,0,0,0,49,0,49,0,,,,,,,49,,,1,1232.914010056742,,Y,l,go,l,1,0.39352276568388334,,,,,,,,,,,,,,,,,52,001,23,w,Psychologie ,2023-01-23_14h00.48.293,00_bat_bachelor,2022.2.4,59.9805444648726,
,,,,,,,,,,,,0,0,0,0,50,0,50,0,,,,,,,50,,,1,1234.4315734762276,,X,d,go,d,1,0.396922528208961,,,,,,,,,,,,,,,,,52,001,23,w,Psychologie ,2023-01-23_14h00.48.293,00_bat_bachelor,2022.2.4,59.9805444648726,
,,,,,,,,,,,,0,0,0,0,51,0,51,0,,,,,,,51,,,1,1235.949519441725,1236.7503807278263,X,None,nogo,None,1,,,,,,,,,,,,,,,,,,52,001,23,w,Psychologie ,2023-01-23_14h00.48.293,00_bat_bachelor,2022.2.4,59.9805444648726,
,,,,,,,,,,,,0,0,0,0,52,0,52,0,,,,,,,52,,,1,1237.7507535768564,,Y,l,go,l,1,0.3245835138950497,,,,,,,,,,,,,,,,,52,001,23,w,Psychologie ,2023-01-23_14h00.48.293,00_bat_bachelor,2022.2.4,59.9805444648726,
,,,,,,,,,,,,0,0,0,0,53,0,53,0,,,,,,,53,,,1,1239.2018718087857,,X,d,go,d,1,0.5381406730084564,,,,,,,,,,,,,,,,,52,001,23,w,Psychologie ,2023-01-23_14h00.48.293,00_bat_bachelor,2022.2.4,59.9805444648726,
,,,,,,,,,,,,0,0,0,0,54,0,54,0,,,,,,,54,,,1,1240.870134114135,1241.6708286121138,Y,l,go,None,0,,,,,,,,,,,,,,,,,,52,001,23,w,Psychologie ,2023-01-23_14h00.48.293,00_bat_bachelor,2022.2.4,59.9805444648726,
,,,,,,,,,,,,0,0,0,0,55,0,55,0,,,,,,,55,,,1,1242.671234915735,1243.4722178989832,Y,None,nogo,None,1,,,,,,,,,,,,,,,,,,52,001,23,w,Psychologie ,2023-01-23_14h00.48.293,00_bat_bachelor,2022.2.4,59.9805444648726,
,,,,,,,,,,,,0,0,0,0,56,0,56,0,,,,,,,56,,,1,1244.4725451721897,,X,d,go,d,1,0.3555168922248413,,,,,,,,,,,,,,,,,52,001,23,w,Psychologie ,2023-01-23_14h00.48.293,00_bat_bachelor,2022.2.4,59.9805444648726,
,,,,,,,,,,,,0,0,0,0,57,0,57,0,,,,,,,57,,,1,1245.9570995739632,,Y,l,go,l,1,0.37466019279600005,,,,,,,,,,,,,,,,,52,001,23,w,Psychologie ,2023-01-23_14h00.48.293,00_bat_bachelor,2022.2.4,59.9805444648726,
,,,,,,,,,,,,0,0,0,0,58,0,58,0,,,,,,,58,,,1,1247.4749369332421,1248.2758408860718,Y,None,nogo,None,1,,,,,,,,,,,,,,,,,,52,001,23,w,Psychologie ,2023-01-23_14h00.48.293,00_bat_bachelor,2022.2.4,59.9805444648726,
,,,,,,,,,,,,0,0,0,0,59,0,59,0,,,,,,,59,,,1,1249.276272886702,,X,d,go,d,1,0.5591516126623901,,,,,,,,,,,,,,,,,52,001,23,w,Psychologie ,2023-01-23_14h00.48.293,00_bat_bachelor,2022.2.4,59.9805444648726,
,,,,,,,,,,,,0,0,0,0,60,0,60,0,,,,,,,60,,,1,1250.9609070946535,,Y,l,go,l,1,0.4106413360386796,,,,,,,,,,,,,,,,,52,001,23,w,Psychologie ,2023-01-23_14h00.48.293,00_bat_bachelor,2022.2.4,59.9805444648726,
,,,,,,,,,,,,0,0,0,0,61,0,61,0,,,,,,,61,,,1,1252.4956647209692,1253.2963567947008,Y,None,nogo,None,1,,,,,,,,,,,,,,,,,,52,001,23,w,Psychologie ,2023-01-23_14h00.48.293,00_bat_bachelor,2022.2.4,59.9805444648726,
,,,,,,,,,,,,0,0,0,0,62,0,62,0,,,,,,,62,,,1,1254.2967286740313,,X,d,go,d,1,0.33948923254502006,,,,,,,,,,,,,,,,,52,001,23,w,Psychologie ,2023-01-23_14h00.48.293,00_bat_bachelor,2022.2.4,59.9805444648726,
,,,,,,,,,,,,0,0,0,0,63,0,63,0,,,,,,,63,,,1,1255.7645902030417,,Y,l,go,l,1,0.39227670326727093,,,,,,,,,,,,,,,,,52,001,23,w,Psychologie ,2023-01-23_14h00.48.293,00_bat_bachelor,2022.2.4,59.9805444648726,
,,,,,,,,,,,,0,0,0,0,64,0,64,0,,,,,,,64,,,1,1257.2826219868439,1258.0834367274256,Y,None,nogo,None,1,,,,,,,,,,,,,,,,,,52,001,23,w,Psychologie ,2023-01-23_14h00.48.293,00_bat_bachelor,2022.2.4,59.9805444648726,
,,,,,,,,,,,,0,0,0,0,65,0,65,0,,,,,,,65,,,1,1259.084000122184,,X,d,go,d,1,0.49736825006766594,,,,,,,,,,,,,,,,,52,001,23,w,Psychologie ,2023-01-23_14h00.48.293,00_bat_bachelor,2022.2.4,59.9805444648726,
,,,,,,,,,,,,0,0,0,0,66,0,66,0,,,,,,,66,,,1,1260.701937021,,Y,l,go,l,1,0.4776169486103754,,,,,,,,,,,,,,,,,52,001,23,w,Psychologie ,2023-01-23_14h00.48.293,00_bat_bachelor,2022.2.4,59.9805444648726,
,,,,,,,,,,,,0,0,0,0,67,0,67,0,,,,,,,67,,,1,1262.3028552283977,,X,d,go,d,1,0.33276873792055994,,,,,,,,,,,,,,,,,52,001,23,w,Psychologie ,2023-01-23_14h00.48.293,00_bat_bachelor,2022.2.4,59.9805444648726,
,,,,,,,,,,,,0,0,0,0,68,0,68,0,,,,,,,68,,,1,1263.7540078846177,,Y,l,go,l,1,0.4015319894569984,,,,,,,,,,,,,,,,,52,001,23,w,Psychologie ,2023-01-23_14h00.48.293,00_bat_bachelor,2022.2.4,59.9805444648726,
,,,,,,,,,,,,0,0,0,0,69,0,69,0,,,,,,,69,,,1,1265.2887335108862,1266.089549706012,Y,None,nogo,None,1,,,,,,,,,,,,,,,,,,52,001,23,w,Psychologie ,2023-01-23_14h00.48.293,00_bat_bachelor,2022.2.4,59.9805444648726,
,,,,,,,,,,,,0,0,0,0,70,0,70,0,,,,,,,70,,,1,1267.0898886155956,,X,d,go,d,1,0.37832274357788265,,,,,,,,,,,,,,,,,52,001,23,w,Psychologie ,2023-01-23_14h00.48.293,00_bat_bachelor,2022.2.4,59.9805444648726,
,,,,,,,,,,,,0,0,0,0,71,0,71,0,,,,,,,71,,,1,1268.5910781930834,,Y,l,go,l,1,0.3813894147024257,,,,,,,,,,,,,,,,,52,001,23,w,Psychologie ,2023-01-23_14h00.48.293,00_bat_bachelor,2022.2.4,59.9805444648726,
,,,,,,,,,,,,0,0,0,0,72,0,72,0,,,,,,,72,,,1,1270.108883067467,,X,d,go,d,1,0.39953441079705954,,,,,,,,,,,,,,,,,52,001,23,w,Psychologie ,2023-01-23_14h00.48.293,00_bat_bachelor,2022.2.4,59.9805444648726,
,,,,,,,,,,,,0,0,0,0,73,0,73,0,,,,,,,73,,,1,1271.6267369116176,,Y,l,go,l,1,0.5927036614666576,,,,,,,,,,,,,,,,,52,001,23,w,Psychologie ,2023-01-23_14h00.48.293,00_bat_bachelor,2022.2.4,59.9805444648726,
,,,,,,,,,,,,0,0,0,0,74,0,74,0,,,,,,,74,,,1,1273.344921228978,,X,d,go,d,1,0.5870706835739838,,,,,,,,,,,,,,,,,52,001,23,w,Psychologie ,2023-01-23_14h00.48.293,00_bat_bachelor,2022.2.4,59.9805444648726,
,,,,,,,,,,,,0,0,0,0,75,0,75,0,,,,,,,75,,,1,1275.0626352426225,1275.863764165475,Y,l,go,None,0,,,,,,,,,,,,,,,,,,52,001,23,w,Psychologie ,2023-01-23_14h00.48.293,00_bat_bachelor,2022.2.4,59.9805444648726,
,,,,,,,,,,,,0,0,0,0,76,0,76,0,,,,,,,76,,,1,1276.8640521658963,,X,d,go,d,1,0.6194523064332316,,,,,,,,,,,,,,,,,52,001,23,w,Psychologie ,2023-01-23_14h00.48.293,00_bat_bachelor,2022.2.4,59.9805444648726,
,,,,,,,,,,,,0,0,0,0,77,0,77,0,,,,,,,77,,,1,1278.6154016224027,,Y,l,go,l,1,0.4685633596855041,,,,,,,,,,,,,,,,,52,001,23,w,Psychologie ,2023-01-23_14h00.48.293,00_bat_bachelor,2022.2.4,59.9805444648726,
,,,,,,,,,,,,0,0,0,0,78,0,78,0,,,,,,,78,,,1,1280.21679837595,1281.0177246318417,Y,None,nogo,None,1,,,,,,,,,,,,,,,,,,52,001,23,w,Psychologie ,2023-01-23_14h00.48.293,00_bat_bachelor,2022.2.4,59.9805444648726,
,,,,,,,,,,,,0,0,0,0,79,0,79,0,,,,,,,79,,,1,1282.0179064502881,,X,d,go,d,1,0.2980137782797101,,,,,,,,,,,,,,,,,52,001,23,w,Psychologie ,2023-01-23_14h00.48.293,00_bat_bachelor,2022.2.4,59.9805444648726,
,,,,,,,,,,,,0,0,0,0,80,0,80,0,,,,,,,80,,,1,1283.4526072037952,,Y,l,go,l,1,0.36871351748050074,,,,,,,,,,,,,,,,,52,001,23,w,Psychologie ,2023-01-23_14h00.48.293,00_bat_bachelor,2022.2.4,59.9805444648726,
,,,,,,,,,,,,0,0,0,0,81,0,81,0,,,,,,,81,,,1,1284.9368711809038,1285.7378003458907,Y,None,nogo,None,1,,,,,,,,,,,,,,,,,,52,001,23,w,Psychologie ,2023-01-23_14h00.48.293,00_bat_bachelor,2022.2.4,59.9805444648726,
,,,,,,,,,,,,0,0,0,0,82,0,82,0,,,,,,,82,,,1,1286.7384447104669,,X,d,go,d,1,0.3295570968875836,,,,,,,,,,,,,,,,,52,001,23,w,Psychologie ,2023-01-23_14h00.48.293,00_bat_bachelor,2022.2.4,59.9805444648726,
,,,,,,,,,,,,0,0,0,0,83,0,83,0,,,,,,,83,,,1,1288.1894014876161,,Y,l,go,l,1,0.5428568010829622,,,,,,,,,,,,,,,,,52,001,23,w,Psychologie ,2023-01-23_14h00.48.293,00_bat_bachelor,2022.2.4,59.9805444648726,
,,,,,,,,,,,,0,0,0,0,84,0,84,0,,,,,,,84,,,1,1289.857165368001,1290.6577502900618,Y,None,nogo,None,1,,,,,,,,,,,,,,,,,,52,001,23,w,Psychologie ,2023-01-23_14h00.48.293,00_bat_bachelor,2022.2.4,59.9805444648726,
,,,,,,,,,,,,0,0,0,0,85,0,85,0,,,,,,,85,,,1,1291.6587485945456,,X,d,go,d,1,0.3860250578109117,,,,,,,,,,,,,,,,,52,001,23,w,Psychologie ,2023-01-23_14h00.48.293,00_bat_bachelor,2022.2.4,59.9805444648726,
,,,,,,,,,,,,0,0,0,0,86,0,86,0,,,,,,,86,,,1,1293.1594877471362,,Y,l,go,l,1,0.2932816501852358,,,,,,,,,,,,,,,,,52,001,23,w,Psychologie ,2023-01-23_14h00.48.293,00_bat_bachelor,2022.2.4,59.9805444648726,
,,,,,,,,,,,,0,0,0,0,87,0,87,0,,,,,,,87,,,1,1294.560696088287,,X,d,go,d,1,0.47717670554629876,,,,,,,,,,,,,,,,,52,001,23,w,Psychologie ,2023-01-23_14h00.48.293,00_bat_bachelor,2022.2.4,59.9805444648726,
,,,,,,,,,,,,0,0,0,0,88,0,88,0,,,,,,,88,,,1,1296.1450620291835,,Y,l,go,l,1,0.411987277391745,,,,,,,,,,,,,,,,,52,001,23,w,Psychologie ,2023-01-23_14h00.48.293,00_bat_bachelor,2022.2.4,59.9805444648726,
,,,,,,,,,,,,0,0,0,0,89,0,89,0,,,,,,,89,,,1,1297.6627127215215,,X,d,go,d,1,0.42998536417871946,,,,,,,,,,,,,,,,,52,001,23,w,Psychologie ,2023-01-23_14h00.48.293,00_bat_bachelor,2022.2.4,59.9805444648726,
,,,,,,,,,,,,0,0,0,0,90,0,90,0,,,,,,,90,,,1,1299.197203195934,,Y,l,go,l,1,0.36780103130149655,,,,,,,,,,,,,,,,,52,001,23,w,Psychologie ,2023-01-23_14h00.48.293,00_bat_bachelor,2022.2.4,59.9805444648726,
,,,,,,,,,,,,0,0,0,0,91,0,91,0,,,,,,,91,,,1,1300.6818424463163,1301.4823856713483,Y,None,nogo,None,1,,,,,,,,,,,,,,,,,,52,001,23,w,Psychologie ,2023-01-23_14h00.48.293,00_bat_bachelor,2022.2.4,59.9805444648726,
,,,,,,,,,,,,0,0,0,0,92,0,92,0,,,,,,,92,,,1,1302.48322979379,,X,d,go,d,1,0.3470436677780526,,,,,,,,,,,,,,,,,52,001,23,w,Psychologie ,2023-01-23_14h00.48.293,00_bat_bachelor,2022.2.4,59.9805444648726,
,,,,,,,,,,,,0,0,0,0,93,0,93,0,,,,,,,93,,,1,1303.9342777225866,,Y,l,go,l,1,0.3666388477940927,,,,,,,,,,,,,,,,,52,001,23,w,Psychologie ,2023-01-23_14h00.48.293,00_bat_bachelor,2022.2.4,59.9805444648726,
,,,,,,,,,,,,0,0,0,0,94,0,94,0,,,,,,,94,,,1,1305.4021857971202,1306.2026984766526,Y,None,nogo,None,1,,,,,,,,,,,,,,,,,,52,001,23,w,Psychologie ,2023-01-23_14h00.48.293,00_bat_bachelor,2022.2.4,59.9805444648726,
,,,,,,,,,,,,0,0,0,0,95,0,95,0,,,,,,,95,,,1,1307.2035047808567,,X,d,go,d,1,0.44191265425251913,,,,,,,,,,,,,,,,,52,001,23,w,Psychologie ,2023-01-23_14h00.48.293,00_bat_bachelor,2022.2.4,59.9805444648726,
,,,,,,,,,,,,0,0,0,0,96,0,96,0,,,,,,,96,,,1,1308.7545218247615,,Y,l,go,l,1,0.4105346692194871,,,,,,,,,,,,,,,,,52,001,23,w,Psychologie ,2023-01-23_14h00.48.293,00_bat_bachelor,2022.2.4,59.9805444648726,
,,,,,,,,,,,,0,0,0,0,97,0,97,0,,,,,,,97,,,1,1310.2724590629732,,X,d,go,d,1,0.3798175336305576,,,,,,,,,,,,,,,,,52,001,23,w,Psychologie ,2023-01-23_14h00.48.293,00_bat_bachelor,2022.2.4,59.9805444648726,
,,,,,,,,,,,,0,0,0,0,98,0,98,0,,,,,,,98,,,1,1311.7568122523335,1312.5575925686207,X,None,nogo,None,1,,,,,,,,,,,,,,,,,,52,001,23,w,Psychologie ,2023-01-23_14h00.48.293,00_bat_bachelor,2022.2.4,59.9805444648726,
,,,,,,,,,,,,0,0,0,0,99,0,99,0,,,,,,,99,,,1,1313.5580711147704,,Y,l,go,l,1,0.5341644248001103,,,,,,,,,,,,,,,,,52,001,23,w,Psychologie ,2023-01-23_14h00.48.293,00_bat_bachelor,2022.2.4,59.9805444648726,
,,,,,,,,,,,,0,0,0,0,100,0,100,0,,,,,,,100,,,1,1315.2095969109287,,X,d,go,d,1,0.4828295622537553,,,,,,,,,,,,,,,,,52,001,23,w,Psychologie ,2023-01-23_14h00.48.293,00_bat_bachelor,2022.2.4,59.9805444648726,
,,,,,,,,,,,,0,0,0,0,101,0,101,0,,,,,,,101,,,1,1316.7941519430096,1317.5947325014313,X,None,nogo,None,1,,,,,,,,,,,,,,,,,,52,001,23,w,Psychologie ,2023-01-23_14h00.48.293,00_bat_bachelor,2022.2.4,59.9805444648726,
,,,,,,,,,,,,0,0,0,0,102,0,102,0,,,,,,,102,,,1,1318.5956086239166,,Y,l,go,l,1,0.4256042668930604,,,,,,,,,,,,,,,,,52,001,23,w,Psychologie ,2023-01-23_14h00.48.293,00_bat_bachelor,2022.2.4,59.9805444648726,
,,,,,,,,,,,,0,0,0,0,103,0,103,0,,,,,,,103,,,1,1320.1301548559823,,X,d,go,d,1,0.5715181761042913,,,,,,,,,,,,,,,,,52,001,23,w,Psychologie ,2023-01-23_14h00.48.293,00_bat_bachelor,2022.2.4,59.9805444648726,
,,,,,,,,,,,,0,0,0,0,104,0,104,0,,,,,,,104,,,1,1321.814388093655,,Y,l,go,l,1,0.582156737033074,,,,,,,,,,,,,,,,,52,001,23,w,Psychologie ,2023-01-23_14h00.48.293,00_bat_bachelor,2022.2.4,59.9805444648726,
,,,,,,,,,,,,0,0,0,0,105,0,105,0,,,,,,,105,,,1,1323.4992458170855,,X,d,go,d,1,0.4494704834287404,,,,,,,,,,,,,,,,,52,001,23,w,Psychologie ,2023-01-23_14h00.48.293,00_bat_bachelor,2022.2.4,59.9805444648726,
,,,,,,,,,,,,0,0,0,0,106,0,106,0,,,,,,,106,,,1,1325.0505120734742,,Y,l,go,l,1,0.3546344666974619,,,,,,,,,,,,,,,,,52,001,23,w,Psychologie ,2023-01-23_14h00.48.293,00_bat_bachelor,2022.2.4,59.9805444648726,
,,,,,,,,,,,,0,0,0,0,107,0,107,0,,,,,,,107,,,1,1326.5182441477518,,X,d,go,d,1,0.3751566783648741,,,,,,,,,,,,,,,,,52,001,23,w,Psychologie ,2023-01-23_14h00.48.293,00_bat_bachelor,2022.2.4,59.9805444648726,
,,,,,,,,,,,,0,0,0,0,108,0,108,0,,,,,,,108,,,1,1328.0026947918013,,Y,l,go,l,1,0.3468327583759674,,,,,,,,,,,,,,,,,52,001,23,w,Psychologie ,2023-01-23_14h00.48.293,00_bat_bachelor,2022.2.4,59.9805444648726,
,,,,,,,,,,,,0,0,0,0,109,0,109,0,,,,,,,109,,,1,1329.453899811735,1330.2542641274158,Y,None,nogo,None,1,,,,,,,,,,,,,,,,,,52,001,23,w,Psychologie ,2023-01-23_14h00.48.293,00_bat_bachelor,2022.2.4,59.9805444648726,
,,,,,,,,,,,,0,0,0,0,110,0,110,0,,,,,,,110,,,1,1331.2551426741484,,X,d,go,d,1,0.29426928798420704,,,,,,,,,,,,,,,,,52,001,23,w,Psychologie ,2023-01-23_14h00.48.293,00_bat_bachelor,2022.2.4,59.9805444648726,
,,,,,,,,,,,,0,0,0,0,111,0,111,0,,,,,,,111,,,1,1332.65629671219,,Y,l,go,l,1,0.33249431327931234,,,,,,,,,,,,,,,,,52,001,23,w,Psychologie ,2023-01-23_14h00.48.293,00_bat_bachelor,2022.2.4,59.9805444648726,
,,,,,,,,,,,,0,0,0,0,112,0,112,0,,,,,,,112,,,1,1334.0906556470145,,X,d,go,d,1,0.5148349421397143,,,,,,,,,,,,,,,,,52,001,23,w,Psychologie ,2023-01-23_14h00.48.293,00_bat_bachelor,2022.2.4,59.9805444648726,
,,,,,,,,,,,,0,0,0,0,113,0,113,0,,,,,,,113,,,1,1335.708582364001,,Y,l,go,l,1,0.4322074280171364,,,,,,,,,,,,,,,,,52,001,23,w,Psychologie ,2023-01-23_14h00.48.293,00_bat_bachelor,2022.2.4,59.9805444648726,
,,,,,,,,,,,,0,0,0,0,114,0,114,0,,,,,,,114,,,1,1337.2431237475757,,X,d,go,d,1,0.4012022920069285,,,,,,,,,,,,,,,,,52,001,23,w,Psychologie ,2023-01-23_14h00.48.293,00_bat_bachelor,2022.2.4,59.9805444648726,
,,,,,,,,,,,,0,0,0,0,115,0,115,0,,,,,,,115,,,1,1338.7608631673174,,Y,l,go,l,1,0.3082343992064125,,,,,,,,,,,,,,,,,52,001,23,w,Psychologie ,2023-01-23_14h00.48.293,00_bat_bachelor,2022.2.4,59.9805444648726,
,,,,,,,,,,,,0,0,0,0,116,0,116,0,,,,,,,116,,,1,1340.1784647444365,,Y,None,nogo,d,0,0.44164356295004836,,,,,,,,,,,,,,,,,52,001,23,w,Psychologie ,2023-01-23_14h00.48.293,00_bat_bachelor,2022.2.4,59.9805444648726,
,,,,,,,,,,,,0,0,0,0,117,0,117,0,,,,,,,117,,,1,1341.7298856677153,1342.5303425895909,X,d,go,None,0,,,,,,,,,,,,,,,,,,52,001,23,w,Psychologie ,2023-01-23_14h00.48.293,00_bat_bachelor,2022.2.4,59.9805444648726,
,,,,,,,,,,,,0,0,0,0,118,0,118,0,,,,,,,118,,,1,1343.5312332575522,1344.3316669066699,Y,l,go,None,0,,,,,,,,,,,,,,,,,,52,001,23,w,Psychologie ,2023-01-23_14h00.48.293,00_bat_bachelor,2022.2.4,59.9805444648726,
,,,,,,,,,,,,0,0,0,0,119,0,119,0,,,,,,,119,,,1,1345.3326438777876,,X,d,go,d,1,0.45722467652740306,,,,,,,,,,,,,,,,,52,001,23,w,Psychologie ,2023-01-23_14h00.48.293,00_bat_bachelor,2022.2.4,59.9805444648726,
,,,,,,,,,,,,0,0,0,0,120,0,120,0,,,,,,,120,,,1,1346.9003208247086,,X,None,nogo,None,1,,,,,,,,,,,,,,,,,,52,001,23,w,Psychologie ,2023-01-23_14h00.48.293,00_bat_bachelor,2022.2.4,59.9805444648726,
,,,,,,,,,,,,0,0,0,0,121,0,121,0,,,,,,,121,,,1,1348.7016970206496,,Y,l,go,l,1,0.4312440326757496,,,,,,,,,,,,,,,,,52,001,23,w,Psychologie ,2023-01-23_14h00.48.293,00_bat_bachelor,2022.2.4,59.9805444648726,
,,,,,,,,,,,,0,0,0,0,122,0,122,0,,,,,,,122,,,1,1350.2363911317225,,X,d,go,d,1,0.545697047637077,,,,,,,,,,,,,,,,,52,001,23,w,Psychologie ,2023-01-23_14h00.48.293,00_bat_bachelor,2022.2.4,59.9805444648726,
,,,,,,,,,,,,0,0,0,0,123,0,123,0,,,,,,,123,,,1,1351.8876555941679,1352.6880601523299,X,None,nogo,None,1,,,,,,,,,,,,,,,,,,52,001,23,w,Psychologie ,2023-01-23_14h00.48.293,00_bat_bachelor,2022.2.4,59.9805444648726,
,,,,,,,,,,,,0,0,0,0,124,0,124,0,,,,,,,124,,,1,1353.68911518417,,Y,l,go,l,1,0.4199853496320429,,,,,,,,,,,,,,,,,52,001,23,w,Psychologie ,2023-01-23_14h00.48.293,00_bat_bachelor,2022.2.4,59.9805444648726,
,,,,,,,,,,,,0,0,0,0,125,0,125,0,,,,,,,125,,,1,1355.2236216586025,,X,d,go,d,1,0.40558193474498694,,,,,,,,,,,,,,,,,52,001,23,w,Psychologie ,2023-01-23_14h00.48.293,00_bat_bachelor,2022.2.4,59.9805444648726,
,,,,,,,,,,,,0,0,0,0,126,0,126,0,,,,,,,126,,,1,1356.7410978052358,,Y,l,go,l,1,0.5830905565744615,,,,,,,,,,,,,,,,,52,001,23,w,Psychologie ,2023-01-23_14h00.48.293,00_bat_bachelor,2022.2.4,59.9805444648726,
,,,,,,,,,,,,0,0,0,0,127,0,127,0,,,,,,,127,,,1,1358.4259361346958,1359.2263402080098,Y,None,nogo,None,1,,,,,,,,,,,,,,,,,,52,001,23,w,Psychologie ,2023-01-23_14h00.48.293,00_bat_bachelor,2022.2.4,59.9805444648726,
,,,,,,,,,,,,0,0,0,0,128,0,128,0,,,,,,,128,,,1,1360.227124209152,,X,d,go,d,1,0.32978206691041123,,,,,,,,,,,,,,,,,52,001,23,w,Psychologie ,2023-01-23_14h00.48.293,00_bat_bachelor,2022.2.4,59.9805444648726,
,,,,,,,,,,,,0,0,0,0,129,0,129,0,,,,,,,129,,,1,1361.661716841285,,Y,l,go,l,1,0.5594299160984519,,,,,,,,,,,,,,,,,52,001,23,w,Psychologie ,2023-01-23_14h00.48.293,00_bat_bachelor,2022.2.4,59.9805444648726,
,,,,,,,,,,,,0,0,0,0,130,0,130,0,,,,,,,130,,,1,1363.3296038733642,,X,d,go,d,1,0.33224849474208895,,,,,,,,,,,,,,,,,52,001,23,w,Psychologie ,2023-01-23_14h00.48.293,00_bat_bachelor,2022.2.4,59.9805444648726,
,,,,,,,,,,,,0,0,0,0,131,0,131,0,,,,,,,131,,,1,1364.7639831718552,,Y,l,go,l,1,0.38429366135096643,,,,,,,,,,,,,,,,,52,001,23,w,Psychologie ,2023-01-23_14h00.48.293,00_bat_bachelor,2022.2.4,59.9805444648726,
,,,,,,,,,,,,0,0,0,0,132,0,132,0,,,,,,,132,,,1,1366.265113597743,1367.0658934291787,Y,None,nogo,None,1,,,,,,,,,,,,,,,,,,52,001,23,w,Psychologie ,2023-01-23_14h00.48.293,00_bat_bachelor,2022.2.4,59.9805444648726,
,,,,,,,,,,,,0,0,0,0,133,0,133,0,,,,,,,133,,,1,1368.066453914842,,X,d,go,d,1,0.4099669108145463,,,,,,,,,,,,,,,,,52,001,23,w,Psychologie ,2023-01-23_14h00.48.293,00_bat_bachelor,2022.2.4,59.9805444648726,
,,,,,,,,,,,,0,0,0,0,134,0,134,0,,,,,,,134,,,1,1369.6015756628985,,Y,l,go,l,1,0.3462931212307012,,,,,,,,,,,,,,,,,52,001,23,w,Psychologie ,2023-01-23_14h00.48.293,00_bat_bachelor,2022.2.4,59.9805444648726,
,,,,,,,,,,,,0,0,0,0,135,0,135,0,,,,,,,135,,,1,1371.069539979937,,X,d,go,d,1,0.3823857797906385,,,,,,,,,,,,,,,,,52,001,23,w,Psychologie ,2023-01-23_14h00.48.293,00_bat_bachelor,2022.2.4,59.9805444648726,
,,,,,,,,,,,,0,0,0,0,136,0,136,0,,,,,,,136,,,1,1372.570504587402,1373.3715646616693,X,None,nogo,None,1,,,,,,,,,,,,,,,,,,52,001,23,w,Psychologie ,2023-01-23_14h00.48.293,00_bat_bachelor,2022.2.4,59.9805444648726,
,,,,,,,,,,,,0,0,0,0,137,0,137,0,,,,,,,137,,,1,1374.3719666016477,,Y,l,go,l,1,0.3600633230780659,,,,,,,,,,,,,,,,,52,001,23,w,Psychologie ,2023-01-23_14h00.48.293,00_bat_bachelor,2022.2.4,59.9805444648726,
,,,,,,,,,,,,0,0,0,0,138,0,138,0,,,,,,,138,,,1,1375.873028663802,,X,d,go,d,1,0.5384883098777209,,,,,,,,,,,,,,,,,52,001,23,w,Psychologie ,2023-01-23_14h00.48.293,00_bat_bachelor,2022.2.4,59.9805444648726,
,,,,,,,,,,,,0,0,0,0,139,0,139,0,,,,,,,139,,,1,1377.541133393166,1378.341856982097,X,None,nogo,None,1,,,,,,,,,,,,,,,,,,52,001,23,w,Psychologie ,2023-01-23_14h00.48.293,00_bat_bachelor,2022.2.4,59.9805444648726,
,,,,,,,,,,,,0,0,0,0,140,0,140,0,,,,,,,140,,,1,1379.3425110436547,,X,None,nogo,d,0,0.4620266229030676,,,,,,,,,,,,,,,,,52,001,23,w,Psychologie ,2023-01-23_14h00.48.293,00_bat_bachelor,2022.2.4,59.9805444648726,
,,,,,,,,,,,,0,0,0,0,141,0,141,0,,,,,,,141,,,1,1380.9270670454316,,Y,l,go,l,1,0.47750882724358235,,,,,,,,,,,,,,,,,52,001,23,w,Psychologie ,2023-01-23_14h00.48.293,00_bat_bachelor,2022.2.4,59.9805444648726,
,,,,,,,,,,,,0,0,0,0,142,0,142,0,,,,,,,142,,,1,1382.5280250104624,1383.329109327191,X,d,go,None,0,,,,,,,,,,,,,,,,,,52,001,23,w,Psychologie ,2023-01-23_14h00.48.293,00_bat_bachelor,2022.2.4,59.9805444648726,
,,,,,,,,,,,,0,0,0,0,143,0,143,0,,,,,,,143,,,1,1384.3297149038299,,Y,l,go,l,1,0.4186408628265781,,,,,,,,,,,,,,,,,52,001,23,w,Psychologie ,2023-01-23_14h00.48.293,00_bat_bachelor,2022.2.4,59.9805444648726,
,,,,,,,,,,,,0,0,0,0,144,0,144,0,,,,,,,144,,,1,1385.8806252809118,,X,d,go,d,1,0.3715838246826024,,,,,,,,,,,,,,,,,52,001,23,w,Psychologie ,2023-01-23_14h00.48.293,00_bat_bachelor,2022.2.4,59.9805444648726,
,,,,,,,,,,,,0,0,0,0,145,0,145,0,,,,,,,145,,,1,1387.3818080705096,1388.1827808719245,X,None,nogo,None,1,,,,,,,,,,,,,,,,,,52,001,23,w,Psychologie ,2023-01-23_14h00.48.293,00_bat_bachelor,2022.2.4,59.9805444648726,
,,,,,,,,,,,,0,0,0,0,146,0,146,0,,,,,,,146,,,1,1389.1833491151738,,Y,l,go,l,1,0.5254914424876915,,,,,,,,,,,,,,,,,52,001,23,w,Psychologie ,2023-01-23_14h00.48.293,00_bat_bachelor,2022.2.4,59.9805444648726,
,,,,,,,,,,,,0,0,0,0,147,0,147,0,,,,,,,147,,,1,1390.8348390324936,,X,d,go,d,1,0.5374987326795235,,,,,,,,,,,,,,,,,52,001,23,w,Psychologie ,2023-01-23_14h00.48.293,00_bat_bachelor,2022.2.4,59.9805444648726,
,,,,,,,,,,,,0,0,0,0,148,0,148,0,,,,,,,148,,,1,1392.5022707911812,1393.3033740170285,X,None,nogo,None,1,,,,,,,,,,,,,,,,,,52,001,23,w,Psychologie ,2023-01-23_14h00.48.293,00_bat_bachelor,2022.2.4,59.9805444648726,
,,,,,,,,,,,,0,0,0,0,149,0,149,0,,,,,,,149,,,1,1394.303636320441,,Y,l,go,l,1,0.5096809952483454,,,,,,,,,,,,,,,,,52,001,23,w,Psychologie ,2023-01-23_14h00.48.293,00_bat_bachelor,2022.2.4,59.9805444648726,
,,,,,,,,,,,,0,0,0,0,150,0,150,0,,,,,,,150,,,1,1395.9215955223226,,X,d,go,d,1,0.6513481104011589,,,,,,,,,,,,,,,,,52,001,23,w,Psychologie ,2023-01-23_14h00.48.293,00_bat_bachelor,2022.2.4,59.9805444648726,
,,,,,,,,,,,,0,0,0,0,151,0,151,0,,,,,,,151,,,1,1397.7061697544304,1398.5066164944728,X,None,nogo,None,1,,,,,,,,,,,,,,,,,,52,001,23,w,Psychologie ,2023-01-23_14h00.48.293,00_bat_bachelor,2022.2.4,59.9805444648726,
,,,,,,,,,,,,0,0,0,0,152,0,152,0,,,,,,,152,,,1,1399.5075595261478,,Y,l,go,l,1,0.3139168317102303,,,,,,,,,,,,,,,,,52,001,23,w,Psychologie ,2023-01-23_14h00.48.293,00_bat_bachelor,2022.2.4,59.9805444648726,
,,,,,,,,,,,,0,0,0,0,153,0,153,0,,,,,,,153,,,1,1400.9253196489517,,X,d,go,d,1,0.6397616693066084,,,,,,,,,,,,,,,,,52,001,23,w,Psychologie ,2023-01-23_14h00.48.293,00_bat_bachelor,2022.2.4,59.9805444648726,
,,,,,,,,,,,,0,0,0,0,154,0,154,0,,,,,,,154,,,1,1402.676497468845,,Y,l,go,l,1,0.40835818120467593,,,,,,,,,,,,,,,,,52,001,23,w,Psychologie ,2023-01-23_14h00.48.293,00_bat_bachelor,2022.2.4,59.9805444648726,
,,,,,,,,,,,,0,0,0,0,155,0,155,0,,,,,,,155,,,1,1404.1945374950847,,X,d,go,d,1,0.37752807575452607,,,,,,,,,,,,,,,,,52,001,23,w,Psychologie ,2023-01-23_14h00.48.293,00_bat_bachelor,2022.2.4,59.9805444648726,
,,,,,,,,,,,,0,0,0,0,156,0,156,0,,,,,,,156,,,1,1405.69569895132,,Y,l,go,l,1,0.4135964918532409,,,,,,,,,,,,,,,,,52,001,23,w,Psychologie ,2023-01-23_14h00.48.293,00_bat_bachelor,2022.2.4,59.9805444648726,
,,,,,,,,,,,,0,0,0,0,157,0,157,0,,,,,,,157,,,1,1407.2135149772366,1408.0141047477882,Y,None,nogo,None,1,,,,,,,,,,,,,,,,,,52,001,23,w,Psychologie ,2023-01-23_14h00.48.293,00_bat_bachelor,2022.2.4,59.9805444648726,
,,,,,,,,,,,,0,0,0,0,158,0,158,0,,,,,,,158,,,1,1409.0146671728507,,X,d,go,d,1,0.43775313305013697,,,,,,,,,,,,,,,,,52,001,23,w,Psychologie ,2023-01-23_14h00.48.293,00_bat_bachelor,2022.2.4,59.9805444648726,
,,,,,,,,,,,,0,0,0,0,159,0,159,0,,,,,,,159,,,1,1410.582551635227,,Y,l,go,l,1,0.5514410559917451,,,,,,,,,,,,,,,,,52,001,23,w,Psychologie ,2023-01-23_14h00.48.293,00_bat_bachelor,2022.2.4,59.9805444648726,
,,,,,,,,,,,,0,0,0,0,160,0,160,0,,,,,,,160,,,1,1412.2506520009483,,X,d,go,d,1,0.3862073611053347,,,,,,,,,,,,,,,,,52,001,23,w,Psychologie ,2023-01-23_14h00.48.293,00_bat_bachelor,2022.2.4,59.9805444648726,
,,,,,,,,,,,,0,0,0,0,161,0,161,0,,,,,,,161,,,1,1413.7518275178118,,Y,l,go,l,1,0.3251653329243709,,,,,,,,,,,,,,,,,52,001,23,w,Psychologie ,2023-01-23_14h00.48.293,00_bat_bachelor,2022.2.4,59.9805444648726,
,,,,,,,,,,,,0,0,0,0,162,0,162,0,,,,,,,162,,,1,1415.202726597905,,X,d,go,d,1,0.4745231259294087,,,,,,,,,,,,,,,,,52,001,23,w,Psychologie ,2023-01-23_14h00.48.293,00_bat_bachelor,2022.2.4,59.9805444648726,
,,,,,,,,,,,,0,0,0,0,163,0,163,0,,,,,,,163,,,1,1416.78726708451,,Y,l,go,l,1,0.3127051935880445,,,,,,,,,,,,,,,,,52,001,23,w,Psychologie ,2023-01-23_14h00.48.293,00_bat_bachelor,2022.2.4,59.9805444648726,
,,,,,,,,,,,,0,0,0,0,164,0,164,0,,,,,,,164,,,1,1418.2219964441174,,X,d,go,d,1,0.33479055904535926,,,,,,,,,,,,,,,,,52,001,23,w,Psychologie ,2023-01-23_14h00.48.293,00_bat_bachelor,2022.2.4,59.9805444648726,
,,,,,,,,,,,,0,0,0,0,165,0,165,0,,,,,,,165,,,1,1419.6896688819434,,Y,l,go,l,1,0.274857380962203,,,,,,,,,,,,,,,,,52,001,23,w,Psychologie ,2023-01-23_14h00.48.293,00_bat_bachelor,2022.2.4,59.9805444648726,
,,,,,,,,,,,,0,0,0,0,166,0,166,0,,,,,,,166,,,1,1421.0908141926993,1421.8913714783594,Y,None,nogo,None,1,,,,,,,,,,,,,,,,,,52,001,23,w,Psychologie ,2023-01-23_14h00.48.293,00_bat_bachelor,2022.2.4,59.9805444648726,
,,,,,,,,,,,,0,0,0,0,167,0,167,0,,,,,,,167,,,1,1422.8921147521687,,X,d,go,d,1,0.33635080374006066,,,,,,,,,,,,,,,,,52,001,23,w,Psychologie ,2023-01-23_14h00.48.293,00_bat_bachelor,2022.2.4,59.9805444648726,
,,,,,,,,,,,,0,0,0,0,168,0,168,0,,,,,,,168,,,1,1424.3431844991792,,Y,l,go,l,1,0.3097204619734839,,,,,,,,,,,,,,,,,52,001,23,w,Psychologie ,2023-01-23_14h00.48.293,00_bat_bachelor,2022.2.4,59.9805444648726,
,,,,,,,,,,,,0,0,0,0,169,0,169,0,,,,,,,169,,,1,1425.7608820764362,,X,d,go,d,1,0.26765009775044746,,,,,,,,,,,,,,,,,52,001,23,w,Psychologie ,2023-01-23_14h00.48.293,00_bat_bachelor,2022.2.4,59.9805444648726,
,,,,,,,,,,,,0,0,0,0,170,0,170,0,,,,,,,170,,,1,1427.1451459080927,,Y,l,go,l,1,0.4509216370533977,,,,,,,,,,,,,,,,,52,001,23,w,Psychologie ,2023-01-23_14h00.48.293,00_bat_bachelor,2022.2.4,59.9805444648726,
,,,,,,,,,,,,0,0,0,0,171,0,171,0,,,,,,,171,,,1,1428.7132587344386,,X,d,go,d,1,0.4349279168200155,,,,,,,,,,,,,,,,,52,001,23,w,Psychologie ,2023-01-23_14h00.48.293,00_bat_bachelor,2022.2.4,59.9805444648726,
,,,,,,,,,,,,0,0,0,0,172,0,172,0,,,,,,,172,,,1,1430.2809497419876,,Y,l,go,l,1,0.2759807765360165,,,,,,,,,,,,,,,,,52,001,23,w,Psychologie ,2023-01-23_14h00.48.293,00_bat_bachelor,2022.2.4,59.9805444648726,
,,,,,,,,,,,,0,0,0,0,173,0,173,0,,,,,,,173,,,1,1431.6655490892845,,X,d,go,d,1,0.31617525923866197,,,,,,,,,,,,,,,,,52,001,23,w,Psychologie ,2023-01-23_14h00.48.293,00_bat_bachelor,2022.2.4,59.9805444648726,
,,,,,,,,,,,,0,0,0,0,174,0,174,0,,,,,,,174,,,1,1433.083186060394,,Y,l,go,l,1,0.35367495015088934,,,,,,,,,,,,,,,,,52,001,23,w,Psychologie ,2023-01-23_14h00.48.293,00_bat_bachelor,2022.2.4,59.9805444648726,
,,,,,,,,,,,,0,0,0,0,175,0,175,0,,,,,,,175,,,1,1434.5511246804235,1435.3516106932548,Y,None,nogo,None,1,,,,,,,,,,,,,,,,,,52,001,23,w,Psychologie ,2023-01-23_14h00.48.293,00_bat_bachelor,2022.2.4,59.9805444648726,
,,,,,,,,,,,,0,0,0,0,176,0,176,0,,,,,,,176,,,1,1436.3523452397749,,X,d,go,d,1,0.28449666770757176,,,,,,,,,,,,,,,,,52,001,23,w,Psychologie ,2023-01-23_14h00.48.293,00_bat_bachelor,2022.2.4,59.9805444648726,
,,,,,,,,,,,,0,0,0,0,177,0,177,0,,,,,,,177,,,1,1437.7534600050349,,Y,l,go,l,1,0.49945455613487866,,,,,,,,,,,,,,,,,52,001,23,w,Psychologie ,2023-01-23_14h00.48.293,00_bat_bachelor,2022.2.4,59.9805444648726,
,,,,,,,,,,,,0,0,0,0,178,0,178,0,,,,,,,178,,,1,1439.3547777281638,,X,d,go,d,1,0.37004200425872114,,,,,,,,,,,,,,,,,52,001,23,w,Psychologie ,2023-01-23_14h00.48.293,00_bat_bachelor,2022.2.4,59.9805444648726,
,,,,,,,,,,,,0,0,0,0,179,0,179,0,,,,,,,179,,,1,1440.8390184325144,1441.6398079609353,X,None,nogo,None,1,,,,,,,,,,,,,,,,,,52,001,23,w,Psychologie ,2023-01-23_14h00.48.293,00_bat_bachelor,2022.2.4,59.9805444648726,
,,,,,,,,,,,,0,0,0,0,180,0,180,0,,,,,,,180,,,1,1442.6405517195926,,Y,l,go,l,1,0.47609403730530175,,,,,,,,,,,,,,,,,52,001,23,w,Psychologie ,2023-01-23_14h00.48.293,00_bat_bachelor,2022.2.4,59.9805444648726,
,,,,,,,,,,,,0,0,0,0,181,0,181,0,,,,,,,181,,,1,1444.224907478656,,X,d,go,d,1,0.3952541621438286,,,,,,,,,,,,,,,,,52,001,23,w,Psychologie ,2023-01-23_14h00.48.293,00_bat_bachelor,2022.2.4,59.9805444648726,
,,,,,,,,,,,,0,0,0,0,182,0,182,0,,,,,,,182,,,1,1445.7260398439394,1446.5266538569522,X,None,nogo,None,1,,,,,,,,,,,,,,,,,,52,001,23,w,Psychologie ,2023-01-23_14h00.48.293,00_bat_bachelor,2022.2.4,59.9805444648726,
,,,,,,,,,,,,0,0,0,0,183,0,183,0,,,,,,,183,,,1,1447.5275852522464,,Y,l,go,l,1,0.5648611967226316,,,,,,,,,,,,,,,,,52,001,23,w,Psychologie ,2023-01-23_14h00.48.293,00_bat_bachelor,2022.2.4,59.9805444648726,
,,,,,,,,,,,,0,0,0,0,184,0,184,0,,,,,,,184,,,1,1449.2122432178112,,X,d,go,d,1,0.6557088440167718,,,,,,,,,,,,,,,,,52,001,23,w,Psychologie ,2023-01-23_14h00.48.293,00_bat_bachelor,2022.2.4,59.9805444648726,
,,,,,,,,,,,,0,0,0,0,185,0,185,0,,,,,,,185,,,1,1450.9967413285958,1451.7973946143939,X,None,nogo,None,1,,,,,,,,,,,,,,,,,,52,001,23,w,Psychologie ,2023-01-23_14h00.48.293,00_bat_bachelor,2022.2.4,59.9805444648726,
,,,,,,,,,,,,0,0,0,0,186,0,186,0,,,,,,,186,,,1,1452.7983366763692,,Y,l,go,l,1,0.2705228291997628,,,,,,,,,,,,,,,,,52,001,23,w,Psychologie ,2023-01-23_14h00.48.293,00_bat_bachelor,2022.2.4,59.9805444648726,
,,,,,,,,,,,,0,0,0,0,187,0,187,0,,,,,,,187,,,1,1454.1995871994004,,X,d,go,d,1,0.42135747283828096,,,,,,,,,,,,,,,,,52,001,23,w,Psychologie ,2023-01-23_14h00.48.293,00_bat_bachelor,2022.2.4,59.9805444648726,
,,,,,,,,,,,,0,0,0,0,188,0,188,0,,,,,,,188,,,1,1455.7339574312136,,Y,l,go,l,1,0.31142713112421916,,,,,,,,,,,,,,,,,52,001,23,w,Psychologie ,2023-01-23_14h00.48.293,00_bat_bachelor,2022.2.4,59.9805444648726,
,,,,,,,,,,,,0,0,0,0,189,0,189,0,,,,,,,189,,,1,1457.151389795963,1457.952341264012,Y,None,nogo,None,1,,,,,,,,,,,,,,,,,,52,001,23,w,Psychologie ,2023-01-23_14h00.48.293,00_bat_bachelor,2022.2.4,59.9805444648726,
,,,,,,,,,,,,0,0,0,0,190,0,190,0,,,,,,,190,,,1,1458.9527669616,,X,d,go,d,1,0.30840555097165634,,,,,,,,,,,,,,,,,52,001,23,w,Psychologie ,2023-01-23_14h00.48.293,00_bat_bachelor,2022.2.4,59.9805444648726,
,,,,,,,,,,,,0,0,0,0,191,0,191,0,,,,,,,191,,,1,1460.3703185992526,,Y,l,go,l,1,0.3790461385688104,,,,,,,,,,,,,,,,,52,001,23,w,Psychologie ,2023-01-23_14h00.48.293,00_bat_bachelor,2022.2.4,59.9805444648726,
,,,,,,,,,,,,0,0,0,0,192,0,192,0,,,,,,,192,,,1,1461.8548235464114,,X,d,go,d,1,0.39875719754127203,,,,,,,,,,,,,,,,,52,001,23,w,Psychologie ,2023-01-23_14h00.48.293,00_bat_bachelor,2022.2.4,59.9805444648726,
,,,,,,,,,,,,0,0,0,0,193,0,193,0,,,,,,,193,,,1,1463.3556368809259,,X,None,nogo,None,1,,,,,,,,,,,,,,,,,,52,001,23,w,Psychologie ,2023-01-23_14h00.48.293,00_bat_bachelor,2022.2.4,59.9805444648726,
,,,,,,,,,,,,0,0,0,0,194,0,194,0,,,,,,,194,,,1,1465.1573970774261,,Y,l,go,l,1,0.4563621298148064,,,,,,,,,,,,,,,,,52,001,23,w,Psychologie ,2023-01-23_14h00.48.293,00_bat_bachelor,2022.2.4,59.9805444648726,
,,,,,,,,,,,,0,0,0,0,195,0,195,0,,,,,,,195,,,1,1466.7248955998475,,X,d,go,d,1,0.6641146744223079,,,,,,,,,,,,,,,,,52,001,23,w,Psychologie ,2023-01-23_14h00.48.293,00_bat_bachelor,2022.2.4,59.9805444648726,
,,,,,,,,,,,,0,0,0,0,196,0,196,0,,,,,,,196,,,1,1468.4929156260587,,X,None,nogo,None,1,,,,,,,,,,,,,,,,,,52,001,23,w,Psychologie ,2023-01-23_14h00.48.293,00_bat_bachelor,2022.2.4,59.9805444648726,
,,,,,,,,,,,,0,0,0,0,197,0,197,0,,,,,,,197,,,1,1470.2945371556925,,X,None,nogo,d,0,0.3423275397035468,,,,,,,,,,,,,,,,,52,001,23,w,Psychologie ,2023-01-23_14h00.48.293,00_bat_bachelor,2022.2.4,59.9805444648726,
,,,,,,,,,,,,0,0,0,0,198,0,198,0,,,,,,,198,,,1,1471.7456262966698,,Y,l,go,l,1,0.5235859851709392,,,,,,,,,,,,,,,,,52,001,23,w,Psychologie ,2023-01-23_14h00.48.293,00_bat_bachelor,2022.2.4,59.9805444648726,
,,,,,,,,,,,,0,0,0,0,199,0,199,0,,,,,,,199,,,1,1473.379985522406,,X,d,go,d,1,0.45699776710534934,,,,,,,,,,,,,,,,,52,001,23,w,Psychologie ,2023-01-23_14h00.48.293,00_bat_bachelor,2022.2.4,59.9805444648726,
,,,,,,,,,,,,0,0,0,0,200,0,200,0,,,,,,,200,,,1,1474.9482103489136,,Y,l,go,l,1,0.45700261559613864,,,,,,,,,,,,,,,,,52,001,23,w,Psychologie ,2023-01-23_14h00.48.293,00_bat_bachelor,2022.2.4,59.9805444648726,
,,,,,,,,,,,,0,0,0,0,201,0,201,0,,,,,,,201,,,1,1476.5157108107305,,X,d,go,d,1,0.3124487083659915,,,,,,,,,,,,,,,,,52,001,23,w,Psychologie ,2023-01-23_14h00.48.293,00_bat_bachelor,2022.2.4,59.9805444648726,
,,,,,,,,,,,,0,0,0,0,202,0,202,0,,,,,,,202,,,1,1477.9337977218893,,X,None,nogo,None,1,,,,,,,,,,,,,,,,,,52,001,23,w,Psychologie ,2023-01-23_14h00.48.293,00_bat_bachelor,2022.2.4,59.9805444648726,
,,,,,,,,,,,,0,0,0,0,203,0,203,0,,,,,,,203,,,1,1479.7351133116827,,Y,l,go,l,1,0.2947366826047073,,,,,,,,,,,,,,,,,52,001,23,w,Psychologie ,2023-01-23_14h00.48.293,00_bat_bachelor,2022.2.4,59.9805444648726,
,,,,,,,,,,,,0,0,0,0,204,0,204,0,,,,,,,204,,,1,1481.1361446828778,,X,d,go,d,1,0.5246187139455287,,,,,,,,,,,,,,,,,52,001,23,w,Psychologie ,2023-01-23_14h00.48.293,00_bat_bachelor,2022.2.4,59.9805444648726,
,,,,,,,,,,,,0,0,0,0,205,0,205,0,,,,,,,205,,,1,1482.770812757546,,Y,l,go,l,1,0.41060448750067735,,,,,,,,,,,,,,,,,52,001,23,w,Psychologie ,2023-01-23_14h00.48.293,00_bat_bachelor,2022.2.4,59.9805444648726,
,,,,,,,,,,,,0,0,0,0,206,0,206,0,,,,,,,206,,,1,1484.2886399349918,,X,d,go,d,1,0.46060892387322383,,,,,,,,,,,,,,,,,52,001,23,w,Psychologie ,2023-01-23_14h00.48.293,00_bat_bachelor,2022.2.4,59.9805444648726,
,,,,,,,,,,,,0,0,0,0,207,0,207,0,,,,,,,207,,,1,1485.8562727606404,,Y,l,go,l,1,0.26857082636342966,,,,,,,,,,,,,,,,,52,001,23,w,Psychologie ,2023-01-23_14h00.48.293,00_bat_bachelor,2022.2.4,59.9805444648726,
,,,,,,,,,,,,0,0,0,0,208,0,208,0,,,,,,,208,,,1,1487.2408100472385,,X,d,go,d,1,0.3095599768930697,,,,,,,,,,,,,,,,,52,001,23,w,Psychologie ,2023-01-23_14h00.48.293,00_bat_bachelor,2022.2.4,59.9805444648726,
,,,,,,,,,,,,0,0,0,0,209,0,209,0,,,,,,,209,,,1,1488.6586186549612,,Y,l,go,l,1,0.44277568581310334,,,,,,,,,,,,,,,,,52,001,23,w,Psychologie ,2023-01-23_14h00.48.293,00_bat_bachelor,2022.2.4,59.9805444648726,
,,,,,,,,,,,,0,0,0,0,210,0,210,0,,,,,,,210,,,1,1490.2095052744335,,Y,None,nogo,None,1,,,,,,,,,,,,,,,,,,52,001,23,w,Psychologie ,2023-01-23_14h00.48.293,00_bat_bachelor,2022.2.4,59.9805444648726,
,,,,,,,,,,,,0,0,0,0,211,0,211,0,,,,,,,211,,,1,1492.011220864806,,X,d,go,d,1,0.24232593970009475,,,,,,,,,,,,,,,,,52,001,23,w,Psychologie ,2023-01-23_14h00.48.293,00_bat_bachelor,2022.2.4,59.9805444648726,
,,,,,,,,,,,,0,0,0,0,212,0,212,0,,,,,,,212,,,1,1493.3621988298655,,Y,l,go,l,1,0.4118069134929101,,,,,,,,,,,,,,,,,52,001,23,w,Psychologie ,2023-01-23_14h00.48.293,00_bat_bachelor,2022.2.4,59.9805444648726,
,,,,,,,,,,,,0,0,0,0,213,0,213,0,,,,,,,213,,,1,1494.8800502497725,,X,d,go,d,1,0.3648536330765637,,,,,,,,,,,,,,,,,52,001,23,w,Psychologie ,2023-01-23_14h00.48.293,00_bat_bachelor,2022.2.4,59.9805444648726,
,,,,,,,,,,,,0,0,0,0,214,0,214,0,,,,,,,214,,,1,1496.3478841423785,,Y,l,go,l,1,0.4009414431420737,,,,,,,,,,,,,,,,,52,001,23,w,Psychologie ,2023-01-23_14h00.48.293,00_bat_bachelor,2022.2.4,59.9805444648726,
,,,,,,,,,,,,0,0,0,0,215,0,215,0,,,,,,,215,,,1,1497.8656342288014,,X,d,go,d,1,0.3242562406921934,,,,,,,,,,,,,,,,,52,001,23,w,Psychologie ,2023-01-23_14h00.48.293,00_bat_bachelor,2022.2.4,59.9805444648726,
,,,,,,,,,,,,0,0,0,0,216,0,216,0,,,,,,,216,,,1,1499.2997769208887,,X,None,nogo,d,0,0.5845320132139022,,,,,,,,,,,,,,,,,52,001,23,w,Psychologie ,2023-01-23_14h00.48.293,00_bat_bachelor,2022.2.4,59.9805444648726,
,,,,,,,,,,,,0,0,0,0,217,0,217,0,,,,,,,217,,,1,1501.001396850519,,Y,l,go,l,1,0.4354079175172956,,,,,,,,,,,,,,,,,52,001,23,w,Psychologie ,2023-01-23_14h00.48.293,00_bat_bachelor,2022.2.4,59.9805444648726,
,,,,,,,,,,,,0,0,0,0,218,0,218,0,,,,,,,218,,,1,1502.553011713473,,X,d,go,d,1,0.4512615163366718,,,,,,,,,,,,,,,,,52,001,23,w,Psychologie ,2023-01-23_14h00.48.293,00_bat_bachelor,2022.2.4,59.9805444648726,
,,,,,,,,,,,,0,0,0,0,219,0,219,0,,,,,,,219,,,1,1504.120823933321,,Y,l,go,l,1,0.32317308759957086,,,,,,,,,,,,,,,,,52,001,23,w,Psychologie ,2023-01-23_14h00.48.293,00_bat_bachelor,2022.2.4,59.9805444648726,
,,,,,,,,,,,,0,0,0,0,220,0,220,0,,,,,,,220,,,1,1505.5720148926302,,X,d,go,d,1,0.6004597939572704,,,,,,,,,,,,,,,,,52,001,23,w,Psychologie ,2023-01-23_14h00.48.293,00_bat_bachelor,2022.2.4,59.9805444648726,
,,,,,,,,,,,,0,0,0,0,221,0,221,0,,,,,,,221,,,1,1507.3069139009676,1508.1072694893628,X,None,nogo,None,1,,,,,,,,,,,,,,,,,,52,001,23,w,Psychologie ,2023-01-23_14h00.48.293,00_bat_bachelor,2022.2.4,59.9805444648726,
,,,,,,,,,,,,0,0,0,0,222,0,222,0,,,,,,,222,,,1,1509.1080282783441,,Y,l,go,l,1,0.24789152355515398,,,,,,,,,,,,,,,,,52,001,23,w,Psychologie ,2023-01-23_14h00.48.293,00_bat_bachelor,2022.2.4,59.9805444648726,
,,,,,,,,,,,,0,0,0,0,223,0,223,0,,,,,,,223,,,1,1510.4926174438078,,X,d,go,d,1,0.30372821083437884,,,,,,,,,,,,,,,,,52,001,23,w,Psychologie ,2023-01-23_14h00.48.293,00_bat_bachelor,2022.2.4,59.9805444648726,
,,,,,,,,,,,,0,0,0,0,224,0,224,0,,,,,,,224,,,1,1511.9437885242987,,Y,l,go,l,1,0.37245849262399133,,,,,,,,,,,,,,,,,52,001,23,w,Psychologie ,2023-01-23_14h00.48.293,00_bat_bachelor,2022.2.4,59.9805444648726,
,,,,,,,,,,,,0,0,0,0,225,0,225,0,,,,,,,225,,,1,1513.4446096164029,1514.2450801140585,Y,None,nogo,None,1,,,,,,,,,,,,,,,,,,52,001,23,w,Psychologie ,2023-01-23_14h00.48.293,00_bat_bachelor,2022.2.4,59.9805444648726,
,,,,,,,,,,,,0,0,0,0,226,0,226,0,,,,,,,226,,,1,1515.2459921153823,,X,d,go,d,1,0.2709213752350479,,,,,,,,,,,,,,,,,52,001,23,w,Psychologie ,2023-01-23_14h00.48.293,00_bat_bachelor,2022.2.4,59.9805444648726,
,,,,,,,,,,,,0,0,0,0,227,0,227,0,,,,,,,227,,,1,1516.6303742502423,,Y,l,go,l,1,0.23037198292149696,,,,,,,,,,,,,,,,,52,001,23,w,Psychologie ,2023-01-23_14h00.48.293,00_bat_bachelor,2022.2.4,59.9805444648726,
,,,,,,,,,,,,0,0,0,0,228,0,228,0,,,,,,,228,,,1,1517.9814176699438,,X,d,go,d,1,0.3995014410465956,,,,,,,,,,,,,,,,,52,001,23,w,Psychologie ,2023-01-23_14h00.48.293,00_bat_bachelor,2022.2.4,59.9805444648726,
,,,,,,,,,,,,0,0,0,0,229,0,229,0,,,,,,,229,,,1,1519.4825893080088,1520.283193139192,X,None,nogo,None,1,,,,,,,,,,,,,,,,,,52,001,23,w,Psychologie ,2023-01-23_14h00.48.293,00_bat_bachelor,2022.2.4,59.9805444648726,
,,,,,,,,,,,,0,0,0,0,230,0,230,0,,,,,,,230,,,1,1521.283798715831,1522.0843773348533,X,None,nogo,None,1,,,,,,,,,,,,,,,,,,52,001,23,w,Psychologie ,2023-01-23_14h00.48.293,00_bat_bachelor,2022.2.4,59.9805444648726,
,,,,,,,,,,,,0,0,0,0,231,0,231,0,,,,,,,231,,,1,1523.0852321239763,,Y,l,go,l,1,0.35159106833089027,,,,,,,,,,,,,,,,,52,001,23,w,Psychologie ,2023-01-23_14h00.48.293,00_bat_bachelor,2022.2.4,59.9805444648726,
,,,,,,,,,,,,0,0,0,0,232,0,232,0,,,,,,,232,,,1,1524.553100440873,,X,d,go,d,1,0.3722412801871542,,,,,,,,,,,,,,,,,52,001,23,w,Psychologie ,2023-01-23_14h00.48.293,00_bat_bachelor,2022.2.4,59.9805444648726,
,,,,,,,,,,,,0,0,0,0,233,0,233,0,,,,,,,233,,,1,1526.0377779943447,1526.8382184313487,X,None,nogo,None,1,,,,,,,,,,,,,,,,,,52,001,23,w,Psychologie ,2023-01-23_14h00.48.293,00_bat_bachelor,2022.2.4,59.9805444648726,
,,,,,,,,,,,,0,0,0,0,234,0,234,0,,,,,,,234,,,1,1527.838801220074,,Y,l,go,l,1,0.4457056294668291,,,,,,,,,,,,,,,,,52,001,23,w,Psychologie ,2023-01-23_14h00.48.293,00_bat_bachelor,2022.2.4,59.9805444648726,
,,,,,,,,,,,,0,0,0,0,235,0,235,0,,,,,,,235,,,1,1529.39009268862,,X,d,go,d,1,0.5744612106864224,,,,,,,,,,,,,,,,,52,001,23,w,Psychologie ,2023-01-23_14h00.48.293,00_bat_bachelor,2022.2.4,59.9805444648726,
,,,,,,,,,,,,0,0,0,0,236,0,236,0,,,,,,,236,,,1,1531.074768108756,1531.8752075760603,X,None,nogo,None,1,,,,,,,,,,,,,,,,,,52,001,23,w,Psychologie ,2023-01-23_14h00.48.293,00_bat_bachelor,2022.2.4,59.9805444648726,
,,,,,,,,,,,,0,0,0,0,237,0,237,0,,,,,,,237,,,1,1532.8759440619797,,Y,l,go,l,1,0.38450747984461486,,,,,,,,,,,,,,,,,52,001,23,w,Psychologie ,2023-01-23_14h00.48.293,00_bat_bachelor,2022.2.4,59.9805444648726,
,,,,,,,,,,,,0,0,0,0,238,0,238,0,,,,,,,238,,,1,1534.393918633581,1535.194627677036,X,d,go,None,0,,,,,,,,,,,,,,,,,,52,001,23,w,Psychologie ,2023-01-23_14h00.48.293,00_bat_bachelor,2022.2.4,59.9805444648726,
,,,,,,,,,,,,0,0,0,0,239,0,239,0,,,,,,,239,,,1,1536.1953181022836,,Y,l,go,l,1,0.3932837350330374,,,,,,,,,,,,,,,,,52,001,23,w,Psychologie ,2023-01-23_14h00.48.293,00_bat_bachelor,2022.2.4,59.9805444648726,
,,,,,,,,,,,,0,0,0,0,240,0,240,0,,,,,,,240,,,1,1537.6964485281678,,X,d,go,d,1,0.41255649034064845,,,,,,,,,,,,,,,,,52,001,23,w,Psychologie ,2023-01-23_14h00.48.293,00_bat_bachelor,2022.2.4,59.9805444648726,
,,,,,,,,,,,,0,0,0,0,241,0,241,0,,,,,,,241,,,1,1539.2309777905139,1540.031550106498,X,None,nogo,None,1,,,,,,,,,,,,,,,,,,52,001,23,w,Psychologie ,2023-01-23_14h00.48.293,00_bat_bachelor,2022.2.4,59.9805444648726,
,,,,,,,,,,,,0,0,0,0,242,0,242,0,,,,,,,242,,,1,1541.0323588349456,,Y,l,go,l,1,0.32478133236509166,,,,,,,,,,,,,,,,,52,001,23,w,Psychologie ,2023-01-23_14h00.48.293,00_bat_bachelor,2022.2.4,59.9805444648726,
,,,,,,,,,,,,0,0,0,0,243,0,243,0,,,,,,,243,,,1,1542.466786618359,,X,d,go,d,1,0.4259131158287346,,,,,,,,,,,,,,,,,52,001,23,w,Psychologie ,2023-01-23_14h00.48.293,00_bat_bachelor,2022.2.4,59.9805444648726,
,,,,,,,,,,,,0,0,0,0,244,0,244,0,,,,,,,244,,,1,1544.0012630321398,,Y,l,go,l,1,0.41174873159252456,,,,,,,,,,,,,,,,,52,001,23,w,Psychologie ,2023-01-23_14h00.48.293,00_bat_bachelor,2022.2.4,59.9805444648726,
,,,,,,,,,,,,0,0,0,0,245,0,245,0,,,,,,,245,,,1,1545.5357564156475,1546.3362327314899,Y,None,nogo,None,1,,,,,,,,,,,,,,,,,,52,001,23,w,Psychologie ,2023-01-23_14h00.48.293,00_bat_bachelor,2022.2.4,59.9805444648726,
,,,,,,,,,,,,0,0,0,0,246,0,246,0,,,,,,,246,,,1,1547.337266914812,,X,d,go,l,0,0.3234135727980174,,,,,,,,,,,,,,,,,52,001,23,w,Psychologie ,2023-01-23_14h00.48.293,00_bat_bachelor,2022.2.4,59.9805444648726,
,,,,,,,,,,,,0,0,0,0,247,0,247,0,,,,,,,247,,,1,1548.788224176813,1549.5888435231682,Y,l,go,None,0,,,,,,,,,,,,,,,,,,52,001,23,w,Psychologie ,2023-01-23_14h00.48.293,00_bat_bachelor,2022.2.4,59.9805444648726,
,,,,,,,,,,,,0,0,0,0,248,0,248,0,,,,,,,248,,,1,1550.5895208574875,,Y,None,nogo,l,0,0.49507588309643324,,,,,,,,,,,,,,,,,52,001,23,w,Psychologie ,2023-01-23_14h00.48.293,00_bat_bachelor,2022.2.4,59.9805444648726,
,,,,,,,,,,,,0,0,0,0,249,0,249,0,,,,,,,249,,,1,1552.2076143625927,,X,d,go,d,1,0.43006633399272687,,,,,,,,,,,,,,,,,52,001,23,w,Psychologie ,2023-01-23_14h00.48.293,00_bat_bachelor,2022.2.4,59.9805444648726,
,,,,,,,,,,,,1,0,1,0,0,0,0,0,,,,,,,0,,,0.2,1560.213998856725,,X,d,go,d,1,0.5661111379376962,,,,,,,,1552.7600122569893,space,7.224744338374876,,,,,,,52,001,23,w,Psychologie ,2023-01-23_14h00.48.293,00_bat_bachelor,2022.2.4,59.9805444648726,
,,,,,,,,,,,,1,0,1,0,1,0,1,0,,,,,,,1,,,0.2,1561.114387075475,,Y,l,go,l,1,0.3534034346048429,,,,,,,,,,,,,,,,,52,001,23,w,Psychologie ,2023-01-23_14h00.48.293,00_bat_bachelor,2022.2.4,59.9805444648726,
,,,,,,,,,,,,1,0,1,0,2,0,2,0,,,,,,,2,,,0.2,1561.8151706402496,1562.6159747141464,X,d,go,None,0,,,,,,,,,,,,,,,,,,52,001,23,w,Psychologie ,2023-01-23_14h00.48.293,00_bat_bachelor,2022.2.4,59.9805444648726,
,,,,,,,,,,,,1,0,1,0,3,0,3,0,,,,,,,3,,,0.2,1562.8158130654265,1563.616648654519,X,None,nogo,None,1,,,,,,,,,,,,,,,,,,52,001,23,w,Psychologie ,2023-01-23_14h00.48.293,00_bat_bachelor,2022.2.4,59.9805444648726,
,,,,,,,,,,,,1,0,1,0,4,0,4,0,,,,,,,4,,,0.2,1563.816735248587,,Y,l,go,l,1,0.38780445433803834,,,,,,,,,,,,,,,,,52,001,23,w,Psychologie ,2023-01-23_14h00.48.293,00_bat_bachelor,2022.2.4,59.9805444648726,
,,,,,,,,,,,,1,0,1,0,5,0,5,0,,,,,,,5,,,0.2,1564.5506233463639,,X,d,go,d,1,0.48569986945949495,,,,,,,,,,,,,,,,,52,001,23,w,Psychologie ,2023-01-23_14h00.48.293,00_bat_bachelor,2022.2.4,59.9805444648726,
,,,,,,,,,,,,1,0,1,0,6,0,6,0,,,,,,,6,,,0.2,1565.3676470802166,1566.1682640023246,Y,l,go,None,0,,,,,,,,,,,,,,,,,,52,001,23,w,Psychologie ,2023-01-23_14h00.48.293,00_bat_bachelor,2022.2.4,59.9805444648726,
,,,,,,,,,,,,1,0,1,0,7,0,7,0,,,,,,,7,,,0.2,1566.3684218692215,1567.1690775792667,X,d,go,None,0,,,,,,,,,,,,,,,,,,52,001,23,w,Psychologie ,2023-01-23_14h00.48.293,00_bat_bachelor,2022.2.4,59.9805444648726,
,,,,,,,,,,,,1,0,1,0,8,0,8,0,,,,,,,8,,,0.2,1567.3693993251873,1568.1698480046289,Y,l,go,None,0,,,,,,,,,,,,,,,,,,52,001,23,w,Psychologie ,2023-01-23_14h00.48.293,00_bat_bachelor,2022.2.4,59.9805444648726,
,,,,,,,,,,,,1,0,1,0,9,0,9,0,,,,,,,9,,,0.2,1568.3699331441458,,X,d,go,d,1,0.4747907626806409,,,,,,,,,,,,,,,,,52,001,23,w,Psychologie ,2023-01-23_14h00.48.293,00_bat_bachelor,2022.2.4,59.9805444648726,
,,,,,,,,,,,,1,0,1,0,10,0,10,0,,,,,,,10,,,0.2,1569.1706344300146,1569.97139244324,X,None,nogo,None,1,,,,,,,,,,,,,,,,,,52,001,23,w,Psychologie ,2023-01-23_14h00.48.293,00_bat_bachelor,2022.2.4,59.9805444648726,
,,,,,,,,,,,,1,0,1,0,11,0,11,0,,,,,,,11,,,0.2,1570.1713549159103,,Y,l,go,l,1,0.4168789208706585,,,,,,,,,,,,,,,,,52,001,23,w,Psychologie ,2023-01-23_14h00.48.293,00_bat_bachelor,2022.2.4,59.9805444648726,
,,,,,,,,,,,,1,0,1,0,12,0,12,0,,,,,,,12,,,0.2,1570.921894674273,1571.7229382636688,X,d,go,None,0,,,,,,,,,,,,,,,,,,52,001,23,w,Psychologie ,2023-01-23_14h00.48.293,00_bat_bachelor,2022.2.4,59.9805444648726,
,,,,,,,,,,,,1,0,1,0,13,0,13,0,,,,,,,13,,,0.2,1571.9229467970144,1572.72367426474,X,None,nogo,None,1,,,,,,,,,,,,,,,,,,52,001,23,w,Psychologie ,2023-01-23_14h00.48.293,00_bat_bachelor,2022.2.4,59.9805444648726,
,,,,,,,,,,,,1,0,1,0,14,0,14,0,,,,,,,14,,,0.2,1572.9236328586194,,Y,l,go,l,1,0.3853360871107725,,,,,,,,,,,,,,,,,52,001,23,w,Psychologie ,2023-01-23_14h00.48.293,00_bat_bachelor,2022.2.4,59.9805444648726,
,,,,,,,,,,,,1,0,1,0,15,0,15,0,,,,,,,15,,,0.2,1573.6409216595239,,X,d,go,d,1,0.5959007570236281,,,,,,,,,,,,,,,,,52,001,23,w,Psychologie ,2023-01-23_14h00.48.293,00_bat_bachelor,2022.2.4,59.9805444648726,
,,,,,,,,,,,,1,0,1,0,16,0,16,0,,,,,,,16,,,0.2,1574.558384327349,1575.3586322792253,Y,l,go,None,0,,,,,,,,,,,,,,,,,,52,001,23,w,Psychologie ,2023-01-23_14h00.48.293,00_bat_bachelor,2022.2.4,59.9805444648726,
,,,,,,,,,,,,1,0,1,0,17,0,17,0,,,,,,,17,,,0.2,1575.5591431163302,1576.3596863413622,X,d,go,None,0,,,,,,,,,,,,,,,,,,52,001,23,w,Psychologie ,2023-01-23_14h00.48.293,00_bat_bachelor,2022.2.4,59.9805444648726,
,,,,,,,,,,,,1,0,1,0,18,0,18,0,,,,,,,18,,,0.2,1576.5595605714843,,Y,l,go,l,1,0.4603601962371613,,,,,,,,,,,,,,,,,52,001,23,w,Psychologie ,2023-01-23_14h00.48.293,00_bat_bachelor,2022.2.4,59.9805444648726,
,,,,,,,,,,,,1,0,1,0,19,0,19,0,,,,,,,19,,,0.2,1577.3604747061472,1578.1609980523608,Y,None,nogo,None,1,,,,,,,,,,,,,,,,,,52,001,23,w,Psychologie ,2023-01-23_14h00.48.293,00_bat_bachelor,2022.2.4,59.9805444648726,
,,,,,,,,,,,,1,0,1,0,20,0,20,0,,,,,,,20,,,0.2,1578.3611467071241,,X,d,go,d,1,0.292103951502213,,,,,,,,,,,,,,,,,52,001,23,w,Psychologie ,2023-01-23_14h00.48.293,00_bat_bachelor,2022.2.4,59.9805444648726,
,,,,,,,,,,,,1,0,1,0,21,0,21,0,,,,,,,21,,,0.2,1578.9782700290016,,Y,l,go,l,1,0.37804686438903445,,,,,,,,,,,,,,,,,52,001,23,w,Psychologie ,2023-01-23_14h00.48.293,00_bat_bachelor,2022.2.4,59.9805444648726,
,,,,,,,,,,,,1,0,1,0,22,0,22,0,,,,,,,22,,,0.2,1579.6952373748936,1580.496217449043,Y,None,nogo,None,1,,,,,,,,,,,,,,,,,,52,001,23,w,Psychologie ,2023-01-23_14h00.48.293,00_bat_bachelor,2022.2.4,59.9805444648726,
,,,,,,,,,,,,1,0,1,0,23,0,23,0,,,,,,,23,,,0.2,1580.6960000426661,,X,d,go,d,1,0.29224164867264335,,,,,,,,,,,,,,,,,52,001,23,w,Psychologie ,2023-01-23_14h00.48.293,00_bat_bachelor,2022.2.4,59.9805444648726,
,,,,,,,,,,,,1,0,1,0,24,0,24,0,,,,,,,24,,,0.2,1581.3299073889575,1582.130501038304,Y,l,go,None,0,,,,,,,,,,,,,,,,,,52,001,23,w,Psychologie ,2023-01-23_14h00.48.293,00_bat_bachelor,2022.2.4,59.9805444648726,
,,,,,,,,,,,,1,0,1,0,25,0,25,0,,,,,,,25,,,0.2,1582.3306191475676,1583.1312734030653,Y,None,nogo,None,1,,,,,,,,,,,,,,,,,,52,001,23,w,Psychologie ,2023-01-23_14h00.48.293,00_bat_bachelor,2022.2.4,59.9805444648726,
,,,,,,,,,,,,1,0,1,0,26,0,26,0,,,,,,,26,,,0.2,1583.3312169666206,,X,d,go,d,1,0.5533174223564856,,,,,,,,,,,,,,,,,52,001,23,w,Psychologie ,2023-01-23_14h00.48.293,00_bat_bachelor,2022.2.4,59.9805444648726,
,,,,,,,,,,,,1,0,1,0,27,0,27,0,,,,,,,27,,,0.2,1584.1988007740147,,Y,l,go,l,1,0.32630618306575343,,,,,,,,,,,,,,,,,52,001,23,w,Psychologie ,2023-01-23_14h00.48.293,00_bat_bachelor,2022.2.4,59.9805444648726,
,,,,,,,,,,,,1,0,1,0,28,0,28,0,,,,,,,28,,,0.2,1584.8321859377247,,Y,None,nogo,l,0,0.6531076281098649,,,,,,,,,,,,,,,,,52,001,23,w,Psychologie ,2023-01-23_14h00.48.293,00_bat_bachelor,2022.2.4,59.9805444648726,
,,,,,,,,,,,,1,0,1,0,29,0,29,0,,,,,,,29,,,0.2,1585.7996273449135,1586.6002112972783,X,d,go,None,0,,,,,,,,,,,,,,,,,,52,001,23,w,Psychologie ,2023-01-23_14h00.48.293,00_bat_bachelor,2022.2.4,59.9805444648726,
,,,,,,,,,,,,1,0,1,0,30,0,30,0,,,,,,,30,,,0.2,1586.8003914672372,,Y,l,go,l,1,0.5257692610757658,,,,,,,,,,,,,,,,,52,001,23,w,Psychologie ,2023-01-23_14h00.48.293,00_bat_bachelor,2022.2.4,59.9805444648726,
,,,,,,,,,,,,1,0,1,0,31,0,31,0,,,,,,,31,,,0.2,1587.633886982625,,Y,None,nogo,None,1,,,,,,,,,,,,,,,,,,52,001,23,w,Psychologie ,2023-01-23_14h00.48.293,00_bat_bachelor,2022.2.4,59.9805444648726,
,,,,,,,,,,,,1,0,1,0,32,0,32,0,,,,,,,32,,,0.2,1588.634976923604,,X,d,go,d,1,0.4023499300419644,,,,,,,,,,,,,,,,,52,001,23,w,Psychologie ,2023-01-23_14h00.48.293,00_bat_bachelor,2022.2.4,59.9805444648726,
,,,,,,,,,,,,1,0,1,0,33,0,33,0,,,,,,,33,,,0.2,1589.3521508152517,,Y,l,go,l,1,0.4532464889198309,,,,,,,,,,,,,,,,,52,001,23,w,Psychologie ,2023-01-23_14h00.48.293,00_bat_bachelor,2022.2.4,59.9805444648726,
,,,,,,,,,,,,1,0,1,0,34,0,34,0,,,,,,,34,,,0.2,1590.1191245369082,,X,d,go,d,1,0.5182899774699763,,,,,,,,,,,,,,,,,52,001,23,w,Psychologie ,2023-01-23_14h00.48.293,00_bat_bachelor,2022.2.4,59.9805444648726,
,,,,,,,,,,,,1,0,1,0,35,0,35,0,,,,,,,35,,,0.2,1590.953184416754,,Y,l,go,l,1,0.3570742278207035,,,,,,,,,,,,,,,,,52,001,23,w,Psychologie ,2023-01-23_14h00.48.293,00_bat_bachelor,2022.2.4,59.9805444648726,
,,,,,,,,,,,,1,0,1,0,36,0,36,0,,,,,,,36,,,0.2,1591.6205056298277,,X,d,go,d,1,0.3772609238476434,,,,,,,,,,,,,,,,,52,001,23,w,Psychologie ,2023-01-23_14h00.48.293,00_bat_bachelor,2022.2.4,59.9805444648726,
,,,,,,,,,,,,1,0,1,0,37,0,37,0,,,,,,,37,,,0.2,1592.304402867012,,Y,l,go,l,1,0.3335818300147366,,,,,,,,,,,,,,,,,52,001,23,w,Psychologie ,2023-01-23_14h00.48.293,00_bat_bachelor,2022.2.4,59.9805444648726,
,,,,,,,,,,,,1,0,1,0,38,0,38,0,,,,,,,38,,,0.2,1592.9383213648325,,X,d,go,d,1,0.37104903602812556,,,,,,,,,,,,,,,,,52,001,23,w,Psychologie ,2023-01-23_14h00.48.293,00_bat_bachelor,2022.2.4,59.9805444648726,
,,,,,,,,,,,,1,0,1,0,39,0,39,0,,,,,,,39,,,0.2,1593.6392222631112,,Y,l,go,l,1,0.37402552520507015,,,,,,,,,,,,,,,,,52,001,23,w,Psychologie ,2023-01-23_14h00.48.293,00_bat_bachelor,2022.2.4,59.9805444648726,
,,,,,,,,,,,,1,0,1,0,40,0,40,0,,,,,,,40,,,0.2,1594.3566642763617,,X,d,go,d,1,0.37654771069355775,,,,,,,,,,,,,,,,,52,001,23,w,Psychologie ,2023-01-23_14h00.48.293,00_bat_bachelor,2022.2.4,59.9805444648726,
,,,,,,,,,,,,1,0,1,0,41,0,41,0,,,,,,,41,,,0.2,1595.0570682042198,,X,None,nogo,l,0,0.33210982787204557,,,,,,,,,,,,,,,,,52,001,23,w,Psychologie ,2023-01-23_14h00.48.293,00_bat_bachelor,2022.2.4,59.9805444648726,
,,,,,,,,,,,,1,0,1,0,42,0,42,0,,,,,,,42,,,0.2,1595.7241809321422,1596.5251566426523,Y,l,go,None,0,,,,,,,,,,,,,,,,,,52,001,23,w,Psychologie ,2023-01-23_14h00.48.293,00_bat_bachelor,2022.2.4,59.9805444648726,
,,,,,,,,,,,,1,0,1,0,43,0,43,0,,,,,,,43,,,0.2,1596.7252495397588,,X,d,go,d,1,0.1682366198147065,,,,,,,,,,,,,,,,,52,001,23,w,Psychologie ,2023-01-23_14h00.48.293,00_bat_bachelor,2022.2.4,59.9805444648726,
,,,,,,,,,,,,1,0,1,0,44,0,44,0,,,,,,,44,,,0.2,1597.2254097824152,,Y,l,go,l,1,0.40265490018282435,,,,,,,,,,,,,,,,,52,001,23,w,Psychologie ,2023-01-23_14h00.48.293,00_bat_bachelor,2022.2.4,59.9805444648726,
,,,,,,,,,,,,1,0,1,0,45,0,45,0,,,,,,,45,,,0.2,1597.9594142439964,1598.7599128629045,Y,None,nogo,None,1,,,,,,,,,,,,,,,,,,52,001,23,w,Psychologie ,2023-01-23_14h00.48.293,00_bat_bachelor,2022.2.4,59.9805444648726,
,,,,,,,,,,,,1,0,1,0,46,0,46,0,,,,,,,46,,,0.2,1598.9600183660878,,X,d,go,d,1,0.28500915330369025,,,,,,,,,,,,,,,,,52,001,23,w,Psychologie ,2023-01-23_14h00.48.293,00_bat_bachelor,2022.2.4,59.9805444648726,
,,,,,,,,,,,,1,0,1,0,47,0,47,0,,,,,,,47,,,0.2,1599.5600129357772,,Y,l,go,l,1,0.4847927166229056,,,,,,,,,,,,,,,,,52,001,23,w,Psychologie ,2023-01-23_14h00.48.293,00_bat_bachelor,2022.2.4,59.9805444648726,
,,,,,,,,,,,,1,0,1,0,48,0,48,0,,,,,,,48,,,0.2,1600.3606381003228,,X,d,go,d,1,0.3408405072405003,,,,,,,,,,,,,,,,,52,001,23,w,Psychologie ,2023-01-23_14h00.48.293,00_bat_bachelor,2022.2.4,59.9805444648726,
,,,,,,,,,,,,1,0,1,0,49,0,49,0,,,,,,,49,,,0.2,1601.010772379308,,X,None,nogo,None,1,,,,,,,,,,,,,,,,,,52,001,23,w,Psychologie ,2023-01-23_14h00.48.293,00_bat_bachelor,2022.2.4,59.9805444648726,
,,,,,,,,,,,,1,0,1,0,50,0,50,0,,,,,,,50,,,0.2,1602.0119112900538,,Y,l,go,l,1,0.4493230892767315,,,,,,,,,,,,,,,,,52,001,23,w,Psychologie ,2023-01-23_14h00.48.293,00_bat_bachelor,2022.2.4,59.9805444648726,
,,,,,,,,,,,,1,0,1,0,51,0,51,0,,,,,,,51,,,0.2,1602.7621101994337,,X,d,go,d,1,0.3073223978790338,,,,,,,,,,,,,,,,,52,001,23,w,Psychologie ,2023-01-23_14h00.48.293,00_bat_bachelor,2022.2.4,59.9805444648726,
,,,,,,,,,,,,1,0,1,0,52,0,52,0,,,,,,,52,,,0.2,1603.379355218458,,Y,l,go,l,1,0.5855981965833053,,,,,,,,,,,,,,,,,52,001,23,w,Psychologie ,2023-01-23_14h00.48.293,00_bat_bachelor,2022.2.4,59.9805444648726,
,,,,,,,,,,,,1,0,1,0,53,0,53,0,,,,,,,53,,,0.2,1604.2803184683435,,Y,None,nogo,None,1,,,,,,,,,,,,,,,,,,52,001,23,w,Psychologie ,2023-01-23_14h00.48.293,00_bat_bachelor,2022.2.4,59.9805444648726,
,,,,,,,,,,,,1,0,1,0,54,0,54,0,,,,,,,54,,,0.2,1605.281461742732,,X,d,go,d,1,0.47611731006691116,,,,,,,,,,,,,,,,,52,001,23,w,Psychologie ,2023-01-23_14h00.48.293,00_bat_bachelor,2022.2.4,59.9805444648726,
,,,,,,,,,,,,1,0,1,0,55,0,55,0,,,,,,,55,,,0.2,1606.0820500587397,,Y,l,go,l,1,0.36283763014216674,,,,,,,,,,,,,,,,,52,001,23,w,Psychologie ,2023-01-23_14h00.48.293,00_bat_bachelor,2022.2.4,59.9805444648726,
,,,,,,,,,,,,1,0,1,0,56,0,56,0,,,,,,,56,,,0.2,1606.7660166293572,1607.5669273700769,Y,None,nogo,None,1,,,,,,,,,,,,,,,,,,52,001,23,w,Psychologie ,2023-01-23_14h00.48.293,00_bat_bachelor,2022.2.4,59.9805444648726,
,,,,,,,,,,,,1,0,1,0,57,0,57,0,,,,,,,57,,,0.2,1607.7667128727953,,X,d,go,d,1,0.34198959981949884,,,,,,,,,,,,,,,,,52,001,23,w,Psychologie ,2023-01-23_14h00.48.293,00_bat_bachelor,2022.2.4,59.9805444648726,
,,,,,,,,,,,,1,0,1,0,58,0,58,0,,,,,,,58,,,0.2,1608.4337829339893,1609.2344531895105,Y,l,go,None,0,,,,,,,,,,,,,,,,,,52,001,23,w,Psychologie ,2023-01-23_14h00.48.293,00_bat_bachelor,2022.2.4,59.9805444648726,
,,,,,,,,,,,,1,0,1,0,59,0,59,0,,,,,,,59,,,0.2,1609.4346018442702,,X,d,go,d,1,0.5150283969669545,,,,,,,,,,,,,,,,,52,001,23,w,Psychologie ,2023-01-23_14h00.48.293,00_bat_bachelor,2022.2.4,59.9805444648726,
,,,,,,,,,,,,1,0,1,0,60,0,60,0,,,,,,,60,,,0.2,1610.251687638818,1611.0525401976338,X,None,nogo,None,1,,,,,,,,,,,,,,,,,,52,001,23,w,Psychologie ,2023-01-23_14h00.48.293,00_bat_bachelor,2022.2.4,59.9805444648726,
,,,,,,,,,,,,1,0,1,0,61,0,61,0,,,,,,,61,,,0.2,1611.252730064578,,Y,l,go,l,1,0.39217973342965706,,,,,,,,,,,,,,,,,52,001,23,w,Psychologie ,2023-01-23_14h00.48.293,00_bat_bachelor,2022.2.4,59.9805444648726,
,,,,,,,,,,,,1,0,1,0,62,0,62,0,,,,,,,62,,,0.2,1611.953202841025,,X,d,go,d,1,0.49186812085463316,,,,,,,,,,,,,,,,,52,001,23,w,Psychologie ,2023-01-23_14h00.48.293,00_bat_bachelor,2022.2.4,59.9805444648726,
,,,,,,,,,,,,1,0,1,0,63,0,63,0,,,,,,,63,,,0.2,1612.7538755207897,,Y,l,go,l,1,0.5068097183429927,,,,,,,,,,,,,,,,,52,001,23,w,Psychologie ,2023-01-23_14h00.48.293,00_bat_bachelor,2022.2.4,59.9805444648726,
,,,,,,,,,,,,1,0,1,0,64,0,64,0,,,,,,,64,,,0.2,1613.5877904307272,,X,d,go,d,1,0.39333609874665854,,,,,,,,,,,,,,,,,52,001,23,w,Psychologie ,2023-01-23_14h00.48.293,00_bat_bachelor,2022.2.4,59.9805444648726,
,,,,,,,,,,,,1,0,1,0,65,0,65,0,,,,,,,65,,,0.2,1614.288107085733,,Y,l,go,l,1,0.5568403365723498,,,,,,,,,,,,,,,,,52,001,23,w,Psychologie ,2023-01-23_14h00.48.293,00_bat_bachelor,2022.2.4,59.9805444648726,
,,,,,,,,,,,,1,0,1,0,66,0,66,0,,,,,,,66,,,0.2,1615.1555978020842,1615.9565041791575,Y,None,nogo,None,1,,,,,,,,,,,,,,,,,,52,001,23,w,Psychologie ,2023-01-23_14h00.48.293,00_bat_bachelor,2022.2.4,59.9805444648726,
,,,,,,,,,,,,1,0,1,0,67,0,67,0,,,,,,,67,,,0.2,1616.1563512577231,,X,d,go,d,1,0.2727245293717715,,,,,,,,,,,,,,,,,52,001,23,w,Psychologie ,2023-01-23_14h00.48.293,00_bat_bachelor,2022.2.4,59.9805444648726,
,,,,,,,,,,,,1,0,1,0,68,0,68,0,,,,,,,68,,,0.2,1616.7568112826375,,Y,l,go,l,1,0.4558811594215513,,,,,,,,,,,,,,,,,52,001,23,w,Psychologie ,2023-01-23_14h00.48.293,00_bat_bachelor,2022.2.4,59.9805444648726,
,,,,,,,,,,,,1,0,1,0,69,0,69,0,,,,,,,69,,,0.2,1617.5241229441817,,X,d,go,d,1,0.6331119626629516,,,,,,,,,,,,,,,,,52,001,23,w,Psychologie ,2023-01-23_14h00.48.293,00_bat_bachelor,2022.2.4,59.9805444648726,
,,,,,,,,,,,,1,0,1,0,70,0,70,0,,,,,,,70,,,0.2,1618.4581819997802,,Y,l,go,l,1,0.609898353141034,,,,,,,,,,,,,,,,,52,001,23,w,Psychologie ,2023-01-23_14h00.48.293,00_bat_bachelor,2022.2.4,59.9805444648726,
,,,,,,,,,,,,1,0,1,0,71,0,71,0,,,,,,,71,,,0.2,1619.3921537825263,,X,d,go,d,1,0.5888078982206935,,,,,,,,,,,,,,,,,52,001,23,w,Psychologie ,2023-01-23_14h00.48.293,00_bat_bachelor,2022.2.4,59.9805444648726,
,,,,,,,,,,,,1,0,1,0,72,0,72,0,,,,,,,72,,,0.2,1620.3093614196769,,Y,l,go,l,1,0.5996617321907252,,,,,,,,,,,,,,,,,52,001,23,w,Psychologie ,2023-01-23_14h00.48.293,00_bat_bachelor,2022.2.4,59.9805444648726,
,,,,,,,,,,,,1,0,1,0,73,0,73,0,,,,,,,73,,,0.2,1621.2100958207448,1622.010861106708,Y,None,nogo,None,1,,,,,,,,,,,,,,,,,,52,001,23,w,Psychologie ,2023-01-23_14h00.48.293,00_bat_bachelor,2022.2.4,59.9805444648726,
,,,,,,,,,,,,1,0,1,0,74,0,74,0,,,,,,,74,,,0.2,1622.2109923069002,,X,d,go,d,1,0.24913079808538896,,,,,,,,,,,,,,,,,52,001,23,w,Psychologie ,2023-01-23_14h00.48.293,00_bat_bachelor,2022.2.4,59.9805444648726,
,,,,,,,,,,,,1,0,1,0,75,0,75,0,,,,,,,75,,,0.2,1622.7781218590862,,Y,l,go,l,1,0.4190011057762604,,,,,,,,,,,,,,,,,52,001,23,w,Psychologie ,2023-01-23_14h00.48.293,00_bat_bachelor,2022.2.4,59.9805444648726,
,,,,,,,,,,,,1,0,1,0,76,0,76,0,,,,,,,76,,,0.2,1623.5120211083959,,X,d,go,d,1,0.45356309544149553,,,,,,,,,,,,,,,,,52,001,23,w,Psychologie ,2023-01-23_14h00.48.293,00_bat_bachelor,2022.2.4,59.9805444648726,
,,,,,,,,,,,,1,0,1,0,77,0,77,0,,,,,,,77,,,0.2,1624.2792488910309,1625.0798750252725,X,None,nogo,None,1,,,,,,,,,,,,,,,,,,52,001,23,w,Psychologie ,2023-01-23_14h00.48.293,00_bat_bachelor,2022.2.4,59.9805444648726,
,,,,,,,,,,,,1,0,1,0,78,0,78,0,,,,,,,78,,,0.2,1625.2799878011938,1626.080459753397,X,None,nogo,None,1,,,,,,,,,,,,,,,,,,52,001,23,w,Psychologie ,2023-01-23_14h00.48.293,00_bat_bachelor,2022.2.4,59.9805444648726,
,,,,,,,,,,,,1,0,1,0,79,0,79,0,,,,,,,79,,,0.2,1626.2807451356312,,Y,l,go,l,1,0.32383781584212556,,,,,,,,,,,,,,,,,52,001,23,w,Psychologie ,2023-01-23_14h00.48.293,00_bat_bachelor,2022.2.4,59.9805444648726,
,,,,,,,,,,,,1,0,1,0,80,0,80,0,,,,,,,80,,,0.2,1626.93111602102,,X,d,go,d,1,0.4736833671304339,,,,,,,,,,,,,,,,,52,001,23,w,Psychologie ,2023-01-23_14h00.48.293,00_bat_bachelor,2022.2.4,59.9805444648726,
,,,,,,,,,,,,1,0,1,0,81,0,81,0,,,,,,,81,,,0.2,1627.7318536705752,,Y,l,go,l,1,0.3931242196522362,,,,,,,,,,,,,,,,,52,001,23,w,Psychologie ,2023-01-23_14h00.48.293,00_bat_bachelor,2022.2.4,59.9805444648726,
,,,,,,,,,,,,1,0,1,0,82,0,82,0,,,,,,,82,,,0.2,1628.4325111745638,1629.2331329451627,Y,None,nogo,None,1,,,,,,,,,,,,,,,,,,52,001,23,w,Psychologie ,2023-01-23_14h00.48.293,00_bat_bachelor,2022.2.4,59.9805444648726,
,,,,,,,,,,,,1,0,1,0,83,0,83,0,,,,,,,83,,,0.2,1629.4329848722227,1630.2335489457691,Y,None,nogo,None,1,,,,,,,,,,,,,,,,,,52,001,23,w,Psychologie ,2023-01-23_14h00.48.293,00_bat_bachelor,2022.2.4,59.9805444648726,
,,,,,,,,,,,,1,0,1,0,84,0,84,0,,,,,,,84,,,0.2,1630.4337281460284,,X,d,go,d,1,0.3004802061113878,,,,,,,,,,,,,,,,,52,001,23,w,Psychologie ,2023-01-23_14h00.48.293,00_bat_bachelor,2022.2.4,59.9805444648726,
,,,,,,,,,,,,1,0,1,0,85,0,85,0,,,,,,,85,,,0.2,1631.033993261568,1631.8344865471336,Y,l,go,None,0,,,,,,,,,,,,,,,,,,52,001,23,w,Psychologie ,2023-01-23_14h00.48.293,00_bat_bachelor,2022.2.4,59.9805444648726,
,,,,,,,,,,,,1,0,1,0,86,0,86,0,,,,,,,86,,,0.2,1632.0344907168364,,Y,None,nogo,None,1,,,,,,,,,,,,,,,,,,52,001,23,w,Psychologie ,2023-01-23_14h00.48.293,00_bat_bachelor,2022.2.4,59.9805444648726,
,,,,,,,,,,,,1,0,1,0,87,0,87,0,,,,,,,87,,,0.2,1633.0356320518295,,X,d,go,d,1,0.36984418578867917,,,,,,,,,,,,,,,,,52,001,23,w,Psychologie ,2023-01-23_14h00.48.293,00_bat_bachelor,2022.2.4,59.9805444648726,
,,,,,,,,,,,,1,0,1,0,88,0,88,0,,,,,,,88,,,0.2,1633.7194395919141,,Y,l,go,l,1,0.37373607023982913,,,,,,,,,,,,,,,,,52,001,23,w,Psychologie ,2023-01-23_14h00.48.293,00_bat_bachelor,2022.2.4,59.9805444648726,
,,,,,,,,,,,,1,0,1,0,89,0,89,0,,,,,,,89,,,0.2,1634.4030871317627,,X,d,go,d,1,0.5053862011227466,,,,,,,,,,,,,,,,,52,001,23,w,Psychologie ,2023-01-23_14h00.48.293,00_bat_bachelor,2022.2.4,59.9805444648726,
,,,,,,,,,,,,1,0,1,0,90,0,90,0,,,,,,,90,,,0.2,1635.220607836036,,Y,l,go,l,1,0.45697982768251677,,,,,,,,,,,,,,,,,52,001,23,w,Psychologie ,2023-01-23_14h00.48.293,00_bat_bachelor,2022.2.4,59.9805444648726,
,,,,,,,,,,,,1,0,1,0,91,0,91,0,,,,,,,91,,,0.2,1635.9877890731477,,Y,None,nogo,None,1,,,,,,,,,,,,,,,,,,52,001,23,w,Psychologie ,2023-01-23_14h00.48.293,00_bat_bachelor,2022.2.4,59.9805444648726,
,,,,,,,,,,,,1,0,1,0,92,0,92,0,,,,,,,92,,,0.2,1636.9885808318759,,X,d,go,d,1,0.24058920990501065,,,,,,,,,,,,,,,,,52,001,23,w,Psychologie ,2023-01-23_14h00.48.293,00_bat_bachelor,2022.2.4,59.9805444648726,
,,,,,,,,,,,,1,0,1,0,93,0,93,0,,,,,,,93,,,0.2,1637.5386659956348,1638.3396615849633,Y,l,go,None,0,,,,,,,,,,,,,,,,,,52,001,23,w,Psychologie ,2023-01-23_14h00.48.293,00_bat_bachelor,2022.2.4,59.9805444648726,
,,,,,,,,,,,,1,0,1,0,94,0,94,0,,,,,,,94,,,0.2,1638.5397452699326,,X,d,go,d,1,0.38564251179923303,,,,,,,,,,,,,,,,,52,001,23,w,Psychologie ,2023-01-23_14h00.48.293,00_bat_bachelor,2022.2.4,59.9805444648726,
,,,,,,,,,,,,1,0,1,0,95,0,95,0,,,,,,,95,,,0.2,1639.2401162280476,,Y,l,go,l,1,0.5331714536623622,,,,,,,,,,,,,,,,,52,001,23,w,Psychologie ,2023-01-23_14h00.48.293,00_bat_bachelor,2022.2.4,59.9805444648726,
,,,,,,,,,,,,1,0,1,0,96,0,96,0,,,,,,,96,,,0.2,1640.0743399869207,,X,d,go,d,1,0.48306519896141253,,,,,,,,,,,,,,,,,52,001,23,w,Psychologie ,2023-01-23_14h00.48.293,00_bat_bachelor,2022.2.4,59.9805444648726,
,,,,,,,,,,,,1,0,1,0,97,0,97,0,,,,,,,97,,,0.2,1640.8578873084443,,Y,l,go,l,1,0.6595653344738821,,,,,,,,,,,,,,,,,52,001,23,w,Psychologie ,2023-01-23_14h00.48.293,00_bat_bachelor,2022.2.4,59.9805444648726,
,,,,,,,,,,,,1,0,1,0,98,0,98,0,,,,,,,98,,,0.2,1641.8255478674655,,X,d,go,None,0,,,,,,,,,,,,,,,,,,52,001,23,w,Psychologie ,2023-01-23_14h00.48.293,00_bat_bachelor,2022.2.4,59.9805444648726,
,,,,,,,,,,,,1,0,1,0,99,0,99,0,,,,,,,99,,,0.2,1642.8262470199952,,X,None,nogo,None,1,,,,,,,,,,,,,,,,,,52,001,23,w,Psychologie ,2023-01-23_14h00.48.293,00_bat_bachelor,2022.2.4,59.9805444648726,
,,,,,,,,,,,,1,0,1,0,100,0,100,0,,,,,,,100,,,0.2,1643.8269243543145,,Y,l,go,l,1,0.5224470744251448,,,,,,,,,,,,,,,,,52,001,23,w,Psychologie ,2023-01-23_14h00.48.293,00_bat_bachelor,2022.2.4,59.9805444648726,
,,,,,,,,,,,,1,0,1,0,101,0,101,0,,,,,,,101,,,0.2,1644.6611432646932,,X,d,go,d,1,0.48857211606082274,,,,,,,,,,,,,,,,,52,001,23,w,Psychologie ,2023-01-23_14h00.48.293,00_bat_bachelor,2022.2.4,59.9805444648726,
,,,,,,,,,,,,1,0,1,0,102,0,102,0,,,,,,,102,,,0.2,1645.461675823044,,X,None,nogo,None,1,,,,,,,,,,,,,,,,,,52,001,23,w,Psychologie ,2023-01-23_14h00.48.293,00_bat_bachelor,2022.2.4,59.9805444648726,
,,,,,,,,,,,,1,0,1,0,103,0,103,0,,,,,,,103,,,0.2,1646.462523824277,,Y,l,go,l,1,0.23941199606997543,,,,,,,,,,,,,,,,,52,001,23,w,Psychologie ,2023-01-23_14h00.48.293,00_bat_bachelor,2022.2.4,59.9805444648726,
,,,,,,,,,,,,1,0,1,0,104,0,104,0,,,,,,,104,,,0.2,1647.0128189277384,,X,d,go,d,1,0.3931154923666327,,,,,,,,,,,,,,,,,52,001,23,w,Psychologie ,2023-01-23_14h00.48.293,00_bat_bachelor,2022.2.4,59.9805444648726,
,,,,,,,,,,,,1,0,1,0,105,0,105,0,,,,,,,105,,,0.2,1647.7134948559942,,Y,l,go,l,1,0.2352233839192195,,,,,,,,,,,,,,,,,52,001,23,w,Psychologie ,2023-01-23_14h00.48.293,00_bat_bachelor,2022.2.4,59.9805444648726,
,,,,,,,,,,,,1,0,1,0,106,0,106,0,,,,,,,106,,,0.2,1648.2639228081316,,Y,None,nogo,None,1,,,,,,,,,,,,,,,,,,52,001,23,w,Psychologie ,2023-01-23_14h00.48.293,00_bat_bachelor,2022.2.4,59.9805444648726,
,,,,,,,,,,,,1,0,1,0,107,0,107,0,,,,,,,107,,,0.2,1649.2646108091321,,X,d,go,None,0,,,,,,,,,,,,,,,,,,52,001,23,w,Psychologie ,2023-01-23_14h00.48.293,00_bat_bachelor,2022.2.4,59.9805444648726,
,,,,,,,,,,,,1,0,1,0,108,0,108,0,,,,,,,108,,,0.2,1650.2654505679275,,Y,l,go,None,0,,,,,,,,,,,,,,,,,,52,001,23,w,Psychologie ,2023-01-23_14h00.48.293,00_bat_bachelor,2022.2.4,59.9805444648726,
,,,,,,,,,,,,1,0,1,0,109,0,109,0,,,,,,,109,,,0.2,1651.2660595385132,,X,d,go,d,1,0.1713886243996967,,,,,,,,,,,,,,,,,52,001,23,w,Psychologie ,2023-01-23_14h00.48.293,00_bat_bachelor,2022.2.4,59.9805444648726,
,,,,,,,,,,,,1,0,1,0,110,0,110,0,,,,,,,110,,,0.2,1651.749893939239,,X,None,nogo,l,0,0.6155570280388929,,,,,,,,,,,,,,,,,52,001,23,w,Psychologie ,2023-01-23_14h00.48.293,00_bat_bachelor,2022.2.4,59.9805444648726,
,,,,,,,,,,,,1,0,1,0,111,0,111,0,,,,,,,111,,,0.2,1652.6672339402212,,Y,l,go,None,0,,,,,,,,,,,,,,,,,,52,001,23,w,Psychologie ,2023-01-23_14h00.48.293,00_bat_bachelor,2022.2.4,59.9805444648726,
,,,,,,,,,,,,1,0,1,0,112,0,112,0,,,,,,,112,,,0.2,1653.6679815776697,,X,d,go,d,1,0.20098818260521512,,,,,,,,,,,,,,,,,52,001,23,w,Psychologie ,2023-01-23_14h00.48.293,00_bat_bachelor,2022.2.4,59.9805444648726,
,,,,,,,,,,,,1,0,1,0,113,0,113,0,,,,,,,113,,,0.2,1654.1847231777792,,Y,l,go,None,0,,,,,,,,,,,,,,,,,,52,001,23,w,Psychologie ,2023-01-23_14h00.48.293,00_bat_bachelor,2022.2.4,59.9805444648726,
,,,,,,,,,,,,1,0,1,0,114,0,114,0,,,,,,,114,,,0.2,1655.1857626944438,,Y,None,nogo,None,1,,,,,,,,,,,,,,,,,,52,001,23,w,Psychologie ,2023-01-23_14h00.48.293,00_bat_bachelor,2022.2.4,59.9805444648726,
,,,,,,,,,,,,1,0,1,0,115,0,115,0,,,,,,,115,,,0.2,1656.186620392662,,X,d,go,d,1,0.3549336186442815,,,,,,,,,,,,,,,,,52,001,23,w,Psychologie ,2023-01-23_14h00.48.293,00_bat_bachelor,2022.2.4,59.9805444648726,
,,,,,,,,,,,,1,0,1,0,116,0,116,0,,,,,,,116,,,0.2,1656.8536235446663,,Y,l,go,l,1,0.34389699653183925,,,,,,,,,,,,,,,,,52,001,23,w,Psychologie ,2023-01-23_14h00.48.293,00_bat_bachelor,2022.2.4,59.9805444648726,
,,,,,,,,,,,,1,0,1,0,117,0,117,0,,,,,,,117,,,0.2,1657.5042475213304,1658.3045856551544,Y,None,nogo,None,1,,,,,,,,,,,,,,,,,,52,001,23,w,Psychologie ,2023-01-23_14h00.48.293,00_bat_bachelor,2022.2.4,59.9805444648726,
,,,,,,,,,,,,1,0,1,0,118,0,118,0,,,,,,,118,,,0.2,1658.5050581891774,,X,d,go,d,1,0.35662331807543524,,,,,,,,,,,,,,,,,52,001,23,w,Psychologie ,2023-01-23_14h00.48.293,00_bat_bachelor,2022.2.4,59.9805444648726,
,,,,,,,,,,,,1,0,1,0,119,0,119,0,,,,,,,119,,,0.2,1659.18929142685,,Y,l,go,l,1,0.35887932135665324,,,,,,,,,,,,,,,,,52,001,23,w,Psychologie ,2023-01-23_14h00.48.293,00_bat_bachelor,2022.2.4,59.9805444648726,
,,,,,,,,,,,,1,0,1,0,120,0,120,0,,,,,,,120,,,0.2,1659.8899183853355,1660.6904397921571,Y,None,nogo,None,1,,,,,,,,,,,,,,,,,,52,001,23,w,Psychologie ,2023-01-23_14h00.48.293,00_bat_bachelor,2022.2.4,59.9805444648726,
,,,,,,,,,,,,1,0,1,0,121,0,121,0,,,,,,,121,,,0.2,1660.8906020226932,1661.6912320357333,X,d,go,None,0,,,,,,,,,,,,,,,,,,52,001,23,w,Psychologie ,2023-01-23_14h00.48.293,00_bat_bachelor,2022.2.4,59.9805444648726,
,,,,,,,,,,,,1,0,1,0,122,0,122,0,,,,,,,122,,,0.2,1661.8911072355513,,Y,l,go,l,1,0.3785123196103086,,,,,,,,,,,,,,,,,52,001,23,w,Psychologie ,2023-01-23_14h00.48.293,00_bat_bachelor,2022.2.4,59.9805444648726,
,,,,,,,,,,,,1,0,1,0,123,0,123,0,,,,,,,123,,,0.2,1662.5749850787688,1663.3756301221292,X,d,go,None,0,,,,,,,,,,,,,,,,,,52,001,23,w,Psychologie ,2023-01-23_14h00.48.293,00_bat_bachelor,2022.2.4,59.9805444648726,
,,,,,,,,,,,,1,0,1,0,124,0,124,0,,,,,,,124,,,0.2,1663.5759693226246,1664.3764975173326,Y,l,go,None,0,,,,,,,,,,,,,,,,,,52,001,23,w,Psychologie ,2023-01-23_14h00.48.293,00_bat_bachelor,2022.2.4,59.9805444648726,
,,,,,,,,,,,,1,0,1,0,125,0,125,0,,,,,,,125,,,0.2,1664.576569081073,1665.3773232155,X,d,go,None,0,,,,,,,,,,,,,,,,,,52,001,23,w,Psychologie ,2023-01-23_14h00.48.293,00_bat_bachelor,2022.2.4,59.9805444648726,
,,,,,,,,,,,,1,0,1,0,126,0,126,0,,,,,,,126,,,0.2,1665.5774534459924,1666.378126125761,Y,l,go,None,0,,,,,,,,,,,,,,,,,,52,001,23,w,Psychologie ,2023-01-23_14h00.48.293,00_bat_bachelor,2022.2.4,59.9805444648726,
,,,,,,,,,,,,1,0,1,0,127,0,127,0,,,,,,,127,,,0.2,1666.5782631441398,,X,d,go,d,1,0.6350537836733565,,,,,,,,,,,,,,,,,52,001,23,w,Psychologie ,2023-01-23_14h00.48.293,00_bat_bachelor,2022.2.4,59.9805444648726,
,,,,,,,,,,,,1,0,1,0,128,0,128,0,,,,,,,128,,,0.2,1667.528984042161,,Y,l,go,l,1,0.5969843949642382,,,,,,,,,,,,,,,,,52,001,23,w,Psychologie ,2023-01-23_14h00.48.293,00_bat_bachelor,2022.2.4,59.9805444648726,
,,,,,,,,,,,,1,0,1,0,129,0,129,0,,,,,,,129,,,0.2,1668.4296699583101,1669.2300459103717,Y,None,nogo,None,1,,,,,,,,,,,,,,,,,,52,001,23,w,Psychologie ,2023-01-23_14h00.48.293,00_bat_bachelor,2022.2.4,59.9805444648726,
,,,,,,,,,,,,1,0,1,0,130,0,130,0,,,,,,,130,,,0.2,1669.4302731107018,,X,d,go,d,1,0.31079876657167915,,,,,,,,,,,,,,,,,52,001,23,w,Psychologie ,2023-01-23_14h00.48.293,00_bat_bachelor,2022.2.4,59.9805444648726,
,,,,,,,,,,,,1,0,1,0,131,0,131,0,,,,,,,131,,,0.2,1670.0473174021608,,Y,l,go,l,1,0.47825452529650647,,,,,,,,,,,,,,,,,52,001,23,w,Psychologie ,2023-01-23_14h00.48.293,00_bat_bachelor,2022.2.4,59.9805444648726,
,,,,,,,,,,,,1,0,1,0,132,0,132,0,,,,,,,132,,,0.2,1670.831487270043,1671.6320566769318,X,d,go,None,0,,,,,,,,,,,,,,,,,,52,001,23,w,Psychologie ,2023-01-23_14h00.48.293,00_bat_bachelor,2022.2.4,59.9805444648726,
,,,,,,,,,,,,1,0,1,0,133,0,133,0,,,,,,,133,,,0.2,1671.8323042409284,,Y,l,go,l,1,0.5647385298798326,,,,,,,,,,,,,,,,,52,001,23,w,Psychologie ,2023-01-23_14h00.48.293,00_bat_bachelor,2022.2.4,59.9805444648726,
,,,,,,,,,,,,1,0,1,0,134,0,134,0,,,,,,,134,,,0.2,1672.7163016479535,,X,d,go,d,1,0.24067114941499312,,,,,,,,,,,,,,,,,52,001,23,w,Psychologie ,2023-01-23_14h00.48.293,00_bat_bachelor,2022.2.4,59.9805444648726,
,,,,,,,,,,,,1,0,1,0,135,0,135,0,,,,,,,135,,,0.2,1673.2666302060097,1674.0672544008557,Y,l,go,None,0,,,,,,,,,,,,,,,,,,52,001,23,w,Psychologie ,2023-01-23_14h00.48.293,00_bat_bachelor,2022.2.4,59.9805444648726,
,,,,,,,,,,,,1,0,1,0,136,0,136,0,,,,,,,136,,,0.2,1674.2675034193999,,X,d,go,d,1,0.5142361533908115,,,,,,,,,,,,,,,,,52,001,23,w,Psychologie ,2023-01-23_14h00.48.293,00_bat_bachelor,2022.2.4,59.9805444648726,
,,,,,,,,,,,,1,0,1,0,137,0,137,0,,,,,,,137,,,0.2,1675.0845271532526,,Y,l,go,l,1,0.4487640581573942,,,,,,,,,,,,,,,,,52,001,23,w,Psychologie ,2023-01-23_14h00.48.293,00_bat_bachelor,2022.2.4,59.9805444648726,
,,,,,,,,,,,,1,0,1,0,138,0,138,0,,,,,,,138,,,0.2,1675.8519910574432,1676.6526525856789,Y,None,nogo,None,1,,,,,,,,,,,,,,,,,,52,001,23,w,Psychologie ,2023-01-23_14h00.48.293,00_bat_bachelor,2022.2.4,59.9805444648726,
,,,,,,,,,,,,1,0,1,0,139,0,139,0,,,,,,,139,,,0.2,1676.8525534825021,,X,d,go,d,1,0.29742129256919725,,,,,,,,,,,,,,,,,52,001,23,w,Psychologie ,2023-01-23_14h00.48.293,00_bat_bachelor,2022.2.4,59.9805444648726,
,,,,,,,,,,,,1,0,1,0,140,0,140,0,,,,,,,140,,,0.2,1677.4532093864873,,Y,l,go,l,1,0.5600868867477402,,,,,,,,,,,,,,,,,52,001,23,w,Psychologie ,2023-01-23_14h00.48.293,00_bat_bachelor,2022.2.4,59.9805444648726,
,,,,,,,,,,,,1,0,1,0,141,0,141,0,,,,,,,141,,,0.2,1678.320361193255,,X,d,go,d,1,0.33149116030472214,,,,,,,,,,,,,,,,,52,001,23,w,Psychologie ,2023-01-23_14h00.48.293,00_bat_bachelor,2022.2.4,59.9805444648726,
,,,,,,,,,,,,1,0,1,0,142,0,142,0,,,,,,,142,,,0.2,1678.971065170037,1679.7717029406595,X,None,nogo,None,1,,,,,,,,,,,,,,,,,,52,001,23,w,Psychologie ,2023-01-23_14h00.48.293,00_bat_bachelor,2022.2.4,59.9805444648726,
,,,,,,,,,,,,1,0,1,0,143,0,143,0,,,,,,,143,,,0.2,1679.9718448075328,,Y,l,go,l,1,0.2652224578559981,,,,,,,,,,,,,,,,,52,001,23,w,Psychologie ,2023-01-23_14h00.48.293,00_bat_bachelor,2022.2.4,59.9805444648726,
,,,,,,,,,,,,1,0,1,0,144,0,144,0,,,,,,,144,,,0.2,1680.555591596014,,X,d,go,d,1,0.3536793137936911,,,,,,,,,,,,,,,,,52,001,23,w,Psychologie ,2023-01-23_14h00.48.293,00_bat_bachelor,2022.2.4,59.9805444648726,
,,,,,,,,,,,,1,0,1,0,145,0,145,0,,,,,,,145,,,0.2,1681.222596202566,,Y,l,go,l,1,0.42298705096618505,,,,,,,,,,,,,,,,,52,001,23,w,Psychologie ,2023-01-23_14h00.48.293,00_bat_bachelor,2022.2.4,59.9805444648726,
,,,,,,,,,,,,1,0,1,0,146,0,146,0,,,,,,,146,,,0.2,1681.9564959367235,1682.7571506770691,Y,None,nogo,None,1,,,,,,,,,,,,,,,,,,52,001,23,w,Psychologie ,2023-01-23_14h00.48.293,00_bat_bachelor,2022.2.4,59.9805444648726,
,,,,,,,,,,,,1,0,1,0,147,0,147,0,,,,,,,147,,,0.2,1682.9574569078177,,X,d,go,d,1,0.35089676429197425,,,,,,,,,,,,,,,,,52,001,23,w,Psychologie ,2023-01-23_14h00.48.293,00_bat_bachelor,2022.2.4,59.9805444648726,
,,,,,,,,,,,,1,0,1,0,148,0,148,0,,,,,,,148,,,0.2,1683.6413366904308,,Y,l,go,l,1,0.3721205527399434,,,,,,,,,,,,,,,,,52,001,23,w,Psychologie ,2023-01-23_14h00.48.293,00_bat_bachelor,2022.2.4,59.9805444648726,
,,,,,,,,,,,,1,0,1,0,149,0,149,0,,,,,,,149,,,0.2,1684.3249313817178,1685.125734001067,X,d,go,None,0,,,,,,,,,,,,,,,,,,52,001,23,w,Psychologie ,2023-01-23_14h00.48.293,00_bat_bachelor,2022.2.4,59.9805444648726,
,,,,,,,,,,,,1,0,1,0,150,0,150,0,,,,,,,150,,,0.2,1685.3257270192407,1686.1264976385428,X,None,nogo,None,1,,,,,,,,,,,,,,,,,,52,001,23,w,Psychologie ,2023-01-23_14h00.48.293,00_bat_bachelor,2022.2.4,59.9805444648726,
,,,,,,,,,,,,1,0,1,0,151,0,151,0,,,,,,,151,,,0.2,1686.3266666569725,,X,None,nogo,d,0,0.2952040772215696,,,,,,,,,,,,,,,,,52,001,23,w,Psychologie ,2023-01-23_14h00.48.293,00_bat_bachelor,2022.2.4,59.9805444648726,
,,,,,,,,,,,,1,0,1,0,152,0,152,0,,,,,,,152,,,0.2,1686.9269065603512,,Y,l,go,l,1,0.5261813828874438,,,,,,,,,,,,,,,,,52,001,23,w,Psychologie ,2023-01-23_14h00.48.293,00_bat_bachelor,2022.2.4,59.9805444648726,
,,,,,,,,,,,,1,0,1,0,153,0,153,0,,,,,,,153,,,0.2,1687.7608975916082,,X,d,go,d,1,0.3639823590820015,,,,,,,,,,,,,,,,,52,001,23,w,Psychologie ,2023-01-23_14h00.48.293,00_bat_bachelor,2022.2.4,59.9805444648726,
,,,,,,,,,,,,1,0,1,0,154,0,154,0,,,,,,,154,,,0.2,1688.444954344177,,Y,l,go,l,1,0.6553432677283126,,,,,,,,,,,,,,,,,52,001,23,w,Psychologie ,2023-01-23_14h00.48.293,00_bat_bachelor,2022.2.4,59.9805444648726,
,,,,,,,,,,,,1,0,1,0,155,0,155,0,,,,,,,155,,,0.2,1689.4459288910475,1690.246785813506,Y,None,nogo,None,1,,,,,,,,,,,,,,,,,,52,001,23,w,Psychologie ,2023-01-23_14h00.48.293,00_bat_bachelor,2022.2.4,59.9805444648726,
,,,,,,,,,,,,1,0,1,0,156,0,156,0,,,,,,,156,,,0.2,1690.446810831727,1691.2475324812622,Y,None,nogo,None,1,,,,,,,,,,,,,,,,,,52,001,23,w,Psychologie ,2023-01-23_14h00.48.293,00_bat_bachelor,2022.2.4,59.9805444648726,
,,,,,,,,,,,,1,0,1,0,157,0,157,0,,,,,,,157,,,0.2,1691.4469810137925,,X,d,go,d,1,0.3909525801318523,,,,,,,,,,,,,,,,,52,001,23,w,Psychologie ,2023-01-23_14h00.48.293,00_bat_bachelor,2022.2.4,59.9805444648726,
,,,,,,,,,,,,1,0,1,0,158,0,158,0,,,,,,,158,,,0.2,1692.1476525784055,,Y,l,go,l,1,0.34549554431214347,,,,,,,,,,,,,,,,,52,001,23,w,Psychologie ,2023-01-23_14h00.48.293,00_bat_bachelor,2022.2.4,59.9805444648726,
,,,,,,,,,,,,1,0,1,0,159,0,159,0,,,,,,,159,,,0.2,1692.798142251846,,X,d,go,d,1,0.38272081057948526,,,,,,,,,,,,,,,,,52,001,23,w,Psychologie ,2023-01-23_14h00.48.293,00_bat_bachelor,2022.2.4,59.9805444648726,
,,,,,,,,,,,,1,0,1,0,160,0,160,0,,,,,,,160,,,0.2,1693.4818416705602,,Y,l,go,l,1,0.33937335358859855,,,,,,,,,,,,,,,,,52,001,23,w,Psychologie ,2023-01-23_14h00.48.293,00_bat_bachelor,2022.2.4,59.9805444648726,
,,,,,,,,,,,,1,0,1,0,161,0,161,0,,,,,,,161,,,0.2,1694.1326542535571,,X,d,go,d,1,0.37653801370834117,,,,,,,,,,,,,,,,,52,001,23,w,Psychologie ,2023-01-23_14h00.48.293,00_bat_bachelor,2022.2.4,59.9805444648726,
,,,,,,,,,,,,1,0,1,0,162,0,162,0,,,,,,,162,,,0.2,1694.8164011874942,,X,None,nogo,l,0,0.2691250089847017,,,,,,,,,,,,,,,,,52,001,23,w,Psychologie ,2023-01-23_14h00.48.293,00_bat_bachelor,2022.2.4,59.9805444648726,
,,,,,,,,,,,,1,0,1,0,163,0,163,0,,,,,,,163,,,0.2,1695.3996999753217,,Y,l,go,None,0,,,,,,,,,,,,,,,,,,52,001,23,w,Psychologie ,2023-01-23_14h00.48.293,00_bat_bachelor,2022.2.4,59.9805444648726,
,,,,,,,,,,,,1,0,1,0,164,0,164,0,,,,,,,164,,,0.2,1696.4003133095466,,X,d,go,d,1,0.28430660682715825,,,,,,,,,,,,,,,,,52,001,23,w,Psychologie ,2023-01-23_14h00.48.293,00_bat_bachelor,2022.2.4,59.9805444648726,
,,,,,,,,,,,,1,0,1,0,165,0,165,0,,,,,,,165,,,0.2,1697.0010870318838,,X,None,nogo,None,1,,,,,,,,,,,,,,,,,,52,001,23,w,Psychologie ,2023-01-23_14h00.48.293,00_bat_bachelor,2022.2.4,59.9805444648726,
,,,,,,,,,,,,1,0,1,0,166,0,166,0,,,,,,,166,,,0.2,1698.001529214347,,Y,l,go,l,1,0.3803552313838736,,,,,,,,,,,,,,,,,52,001,23,w,Psychologie ,2023-01-23_14h00.48.293,00_bat_bachelor,2022.2.4,59.9805444648726,
,,,,,,,,,,,,1,0,1,0,167,0,167,0,,,,,,,167,,,0.2,1698.6856465730634,,X,d,go,d,1,0.5442764395120321,,,,,,,,,,,,,,,,,52,001,23,w,Psychologie ,2023-01-23_14h00.48.293,00_bat_bachelor,2022.2.4,59.9805444648726,
,,,,,,,,,,,,1,0,1,0,168,0,168,0,,,,,,,168,,,0.2,1699.5363624771344,,X,None,nogo,None,1,,,,,,,,,,,,,,,,,,52,001,23,w,Psychologie ,2023-01-23_14h00.48.293,00_bat_bachelor,2022.2.4,59.9805444648726,
,,,,,,,,,,,,1,0,1,0,169,0,169,0,,,,,,,169,,,0.2,1700.5368512051173,,Y,l,go,l,1,0.4679088132761535,,,,,,,,,,,,,,,,,52,001,23,w,Psychologie ,2023-01-23_14h00.48.293,00_bat_bachelor,2022.2.4,59.9805444648726,
,,,,,,,,,,,,1,0,1,0,170,0,170,0,,,,,,,170,,,0.2,1701.3210380427226,,X,d,go,None,0,,,,,,,,,,,,,,,,,,52,001,23,w,Psychologie ,2023-01-23_14h00.48.293,00_bat_bachelor,2022.2.4,59.9805444648726,
,,,,,,,,,,,,1,0,1,0,171,0,171,0,,,,,,,171,,,0.2,1702.3218157408228,,X,None,nogo,None,1,,,,,,,,,,,,,,,,,,52,001,23,w,Psychologie ,2023-01-23_14h00.48.293,00_bat_bachelor,2022.2.4,59.9805444648726,
,,,,,,,,,,,,1,0,1,0,172,0,172,0,,,,,,,172,,,0.2,1703.322460105399,,Y,l,go,l,1,0.2756801700343203,,,,,,,,,,,,,,,,,52,001,23,w,Psychologie ,2023-01-23_14h00.48.293,00_bat_bachelor,2022.2.4,59.9805444648726,
,,,,,,,,,,,,1,0,1,0,173,0,173,0,,,,,,,173,,,0.2,1703.9060701664057,,X,d,go,d,1,0.28344066617137287,,,,,,,,,,,,,,,,,52,001,23,w,Psychologie ,2023-01-23_14h00.48.293,00_bat_bachelor,2022.2.4,59.9805444648726,
,,,,,,,,,,,,1,0,1,0,174,0,174,0,,,,,,,174,,,0.2,1704.490184470571,,Y,l,go,l,1,0.24435115477172076,,,,,,,,,,,,,,,,,52,001,23,w,Psychologie ,2023-01-23_14h00.48.293,00_bat_bachelor,2022.2.4,59.9805444648726,
,,,,,,,,,,,,1,0,1,0,175,0,175,0,,,,,,,175,,,0.2,1705.0402623615955,,Y,None,nogo,d,0,0.31669065392998164,,,,,,,,,,,,,,,,,52,001,23,w,Psychologie ,2023-01-23_14h00.48.293,00_bat_bachelor,2022.2.4,59.9805444648726,
,,,,,,,,,,,,1,0,1,0,176,0,176,0,,,,,,,176,,,0.2,1705.6574608350966,,X,d,go,None,0,,,,,,,,,,,,,,,,,,52,001,23,w,Psychologie ,2023-01-23_14h00.48.293,00_bat_bachelor,2022.2.4,59.9805444648726,
,,,,,,,,,,,,1,0,1,0,177,0,177,0,,,,,,,177,,,0.2,1706.6585250790667,,Y,l,go,l,1,0.28344745406138827,,,,,,,,,,,,,,,,,52,001,23,w,Psychologie ,2023-01-23_14h00.48.293,00_bat_bachelor,2022.2.4,59.9805444648726,
,,,,,,,,,,,,1,0,1,0,178,0,178,0,,,,,,,178,,,0.2,1707.24225780692,,X,d,go,d,1,0.40267090020279284,,,,,,,,,,,,,,,,,52,001,23,w,Psychologie ,2023-01-23_14h00.48.293,00_bat_bachelor,2022.2.4,59.9805444648726,
,,,,,,,,,,,,1,0,1,0,179,0,179,0,,,,,,,179,,,0.2,1707.9594792137905,,Y,l,go,l,1,0.3904051853933197,,,,,,,,,,,,,,,,,52,001,23,w,Psychologie ,2023-01-23_14h00.48.293,00_bat_bachelor,2022.2.4,59.9805444648726,
,,,,,,,,,,,,1,0,1,0,180,0,180,0,,,,,,,180,,,0.2,1708.6599636266146,,X,d,go,d,1,0.4255552971299039,,,,,,,,,,,,,,,,,52,001,23,w,Psychologie ,2023-01-23_14h00.48.293,00_bat_bachelor,2022.2.4,59.9805444648726,
,,,,,,,,,,,,1,0,1,0,181,0,181,0,,,,,,,181,,,0.2,1709.3937596030446,,Y,l,go,l,1,0.41257636915543117,,,,,,,,,,,,,,,,,52,001,23,w,Psychologie ,2023-01-23_14h00.48.293,00_bat_bachelor,2022.2.4,59.9805444648726,
,,,,,,,,,,,,1,0,1,0,182,0,182,0,,,,,,,182,,,0.2,1710.1111225858767,,X,d,go,d,1,0.36586308909318177,,,,,,,,,,,,,,,,,52,001,23,w,Psychologie ,2023-01-23_14h00.48.293,00_bat_bachelor,2022.2.4,59.9805444648726,
,,,,,,,,,,,,1,0,1,0,183,0,183,0,,,,,,,183,,,0.2,1710.7779444042826,,Y,l,go,l,1,0.6122886596494936,,,,,,,,,,,,,,,,,52,001,23,w,Psychologie ,2023-01-23_14h00.48.293,00_bat_bachelor,2022.2.4,59.9805444648726,
,,,,,,,,,,,,1,0,1,0,184,0,184,0,,,,,,,184,,,0.2,1711.69553070865,,Y,None,nogo,None,1,,,,,,,,,,,,,,,,,,52,001,23,w,Psychologie ,2023-01-23_14h00.48.293,00_bat_bachelor,2022.2.4,59.9805444648726,
,,,,,,,,,,,,1,0,1,0,185,0,185,0,,,,,,,185,,,0.2,1712.6964014977966,,X,d,go,d,1,0.24510897405343712,,,,,,,,,,,,,,,,,52,001,23,w,Psychologie ,2023-01-23_14h00.48.293,00_bat_bachelor,2022.2.4,59.9805444648726,
,,,,,,,,,,,,1,0,1,0,186,0,186,0,,,,,,,186,,,0.2,1713.2464958736928,,Y,l,go,l,1,0.47991513377201045,,,,,,,,,,,,,,,,,52,001,23,w,Psychologie ,2023-01-23_14h00.48.293,00_bat_bachelor,2022.2.4,59.9805444648726,
,,,,,,,,,,,,1,0,1,0,187,0,187,0,,,,,,,187,,,0.2,1714.030621135451,,Y,None,nogo,None,1,,,,,,,,,,,,,,,,,,52,001,23,w,Psychologie ,2023-01-23_14h00.48.293,00_bat_bachelor,2022.2.4,59.9805444648726,
,,,,,,,,,,,,1,0,1,0,188,0,188,0,,,,,,,188,,,0.2,1715.0314604093983,,X,d,go,d,1,0.30968603767905734,,,,,,,,,,,,,,,,,52,001,23,w,Psychologie ,2023-01-23_14h00.48.293,00_bat_bachelor,2022.2.4,59.9805444648726,
,,,,,,,,,,,,1,0,1,0,189,0,189,0,,,,,,,189,,,0.2,1715.6657658168733,,Y,l,go,l,1,0.3310659475646389,,,,,,,,,,,,,,,,,52,001,23,w,Psychologie ,2023-01-23_14h00.48.293,00_bat_bachelor,2022.2.4,59.9805444648726,
,,,,,,,,,,,,1,0,1,0,190,0,190,0,,,,,,,190,,,0.2,1716.3329449691337,1717.133901285677,Y,None,nogo,None,1,,,,,,,,,,,,,,,,,,52,001,23,w,Psychologie ,2023-01-23_14h00.48.293,00_bat_bachelor,2022.2.4,59.9805444648726,
,,,,,,,,,,,,1,0,1,0,191,0,191,0,,,,,,,191,,,0.2,1717.333732364219,,X,d,go,d,1,0.3588327758334344,,,,,,,,,,,,,,,,,52,001,23,w,Psychologie ,2023-01-23_14h00.48.293,00_bat_bachelor,2022.2.4,59.9805444648726,
,,,,,,,,,,,,1,0,1,0,192,0,192,0,,,,,,,192,,,0.2,1718.0344548379944,,Y,l,go,l,1,0.474710277718259,,,,,,,,,,,,,,,,,52,001,23,w,Psychologie ,2023-01-23_14h00.48.293,00_bat_bachelor,2022.2.4,59.9805444648726,
,,,,,,,,,,,,1,0,1,0,193,0,193,0,,,,,,,193,,,0.2,1718.8350824267873,,X,d,go,d,1,0.569686900715169,,,,,,,,,,,,,,,,,52,001,23,w,Psychologie ,2023-01-23_14h00.48.293,00_bat_bachelor,2022.2.4,59.9805444648726,
,,,,,,,,,,,,1,0,1,0,194,0,194,0,,,,,,,194,,,0.2,1719.7355889487371,,Y,l,go,l,1,0.4044522361291456,,,,,,,,,,,,,,,,,52,001,23,w,Psychologie ,2023-01-23_14h00.48.293,00_bat_bachelor,2022.2.4,59.9805444648726,
,,,,,,,,,,,,1,0,1,0,195,0,195,0,,,,,,,195,,,0.2,1720.4696860165132,,X,d,go,d,1,0.32731369968678337,,,,,,,,,,,,,,,,,52,001,23,w,Psychologie ,2023-01-23_14h00.48.293,00_bat_bachelor,2022.2.4,59.9805444648726,
,,,,,,,,,,,,1,0,1,0,196,0,196,0,,,,,,,196,,,0.2,1721.1199196895795,,Y,l,go,l,1,0.33294716242380673,,,,,,,,,,,,,,,,,52,001,23,w,Psychologie ,2023-01-23_14h00.48.293,00_bat_bachelor,2022.2.4,59.9805444648726,
