loop_instruction.thisRepN,loop_instruction.thisTrialN,loop_instruction.thisN,loop_instruction.thisIndex,loop_rsi_practice.thisRepN,loop_rsi_practice.thisTrialN,loop_rsi_practice.thisN,loop_rsi_practice.thisIndex,loop_practice.thisRepN,loop_practice.thisTrialN,loop_practice.thisN,loop_practice.thisIndex,loop_exp.thisRepN,loop_exp.thisTrialN,loop_exp.thisN,loop_exp.thisIndex,loop_trials.thisRepN,loop_trials.thisTrialN,loop_trials.thisN,loop_trials.thisIndex,map_condition,map_x_key,map_y_key,key_resp_welcome.started,key_resp_welcome.keys,key_resp_welcome.rt,index,text_empty_rsi_practice.started,text_empty_rsi_practice.stopped,rsi,stimulus.started,stimulus,correct,trial_type,key_resp_trial.keys,key_resp_trial.corr,key_resp_trial.rt,stimulus.stopped,key_resp_instruction_rsi.started,key_resp_instruction_rsi.keys,key_resp_instruction_rsi.rt,key_resp_instruction_rsi.stopped,key_resp_instruction_final.started,key_resp_instruction_final.keys,key_resp_instruction_final.rt,key_resp_break.started,key_resp_break.keys,key_resp_break.rt,key_resp_break.stopped,key_resp_end_screen.started,image_end_screen.started,key_resp_end_screen.stopped,image_end_screen.stopped,key_resp_end_screen.keys,participant,session,Alter,Geschlecht (w/m/d/andere),Studiengang,date,expName,psychopyVersion,frameRate,
,,,,0,0,0,0,0,0,0,0,,,,,,,,,0,d,l,1609.684910571992,j,15.924584221585974,0,1625.6297095220034,1626.6435989967504,1,1626.6435989967504,X,d,go,d,1,0.4027604322654952,,,,,,,,,,,,,,,,,,54,001,22,m,Psychologie,2023-01-23_15h30.26.053,00_bat_bachelor,2022.2.4,59.95160263635653,
,,,,0,0,0,0,1,0,1,0,,,,,,,,,,,,,,,1,1627.7619438961628,1628.7626062001546,1,1628.7626062001546,Y,l,go,l,1,0.4602591825678246,,,,,,,,,,,,,,,,,,54,001,22,m,Psychologie,2023-01-23_15h30.26.053,00_bat_bachelor,2022.2.4,59.95160263635653,
,,,,0,0,0,0,2,0,2,0,,,,,,,,,,,,,,,2,1629.9294927459305,1630.9304352927575,1,1630.9304352927575,X,d,go,d,1,0.38835944162201486,,,,,,,,,,,,,,,,,,54,001,22,m,Psychologie,2023-01-23_15h30.26.053,00_bat_bachelor,2022.2.4,59.95160263635653,
,,,,0,0,0,0,3,0,3,0,,,,,,,,,,,,,,,3,1632.0313862274706,1633.0317600461967,1,1633.0317600461967,Y,l,go,l,1,0.36625856099271914,,,,,,,,,,,,,,,,,,54,001,22,m,Psychologie,2023-01-23_15h30.26.053,00_bat_bachelor,2022.2.4,59.95160263635653,
,,,,0,0,0,0,4,0,4,0,,,,,,,,,,,,,,,4,1634.099437720397,1635.100234327616,1,1635.100234327616,X,d,go,d,1,0.4586606347875204,,,,,,,,,,,,,,,,,,54,001,22,m,Psychologie,2023-01-23_15h30.26.053,00_bat_bachelor,2022.2.4,59.95160263635653,
,,,,0,0,0,0,5,0,5,0,,,,,,,,,,,,,,,5,1636.2676745711651,1637.2683882691708,1,1637.2683882691708,X,None,nogo,d,0,0.46613361535492004,,,,,,,,,,,,,,,,,,54,001,22,m,Psychologie,2023-01-23_15h30.26.053,00_bat_bachelor,2022.2.4,59.95160263635653,
,,,,0,0,0,0,6,0,6,0,,,,,,,,,,,,,,,6,1638.8531285136414,1639.853918332974,1,1639.853918332974,Y,l,go,None,0,,1640.6543611942252,,,,,,,,,,,,,,,,,54,001,22,m,Psychologie,2023-01-23_15h30.26.053,00_bat_bachelor,2022.2.4,59.95160263635653,
,,,,0,0,0,0,7,0,7,0,,,,,,,,,,,,,,,7,1641.2549836436156,1642.2557472810877,1,1642.2557472810877,X,d,go,None,0,,,,,,,,,,,,,,,,,,,54,001,22,m,Psychologie,2023-01-23_15h30.26.053,00_bat_bachelor,2022.2.4,59.95160263635653,
,,,,0,0,0,0,8,0,8,0,,,,,,,,,,,,,,,8,1643.6567752583396,1644.6575864110346,1,1644.6575864110346,Y,l,go,None,0,,,,,,,,,,,,,,,,,,,54,001,22,m,Psychologie,2023-01-23_15h30.26.053,00_bat_bachelor,2022.2.4,59.95160263635653,
,,,,0,0,0,0,9,0,9,0,,,,,,,,,,,,,,,9,1646.0585697821625,1647.059385783352,1,1647.059385783352,X,d,go,None,0,,1647.860142342026,,,,,,,,,,,,,,,,,54,001,22,m,Psychologie,2023-01-23_15h30.26.053,00_bat_bachelor,2022.2.4,59.95160263635653,
,,,,0,0,0,0,10,0,10,0,,,,,,,,,,,,,,,10,1648.460475821299,1649.4613480649932,1,1649.4613480649932,Y,l,go,None,0,,1650.2618772293972,,,,,,,,,,,,,,,,,54,001,22,m,Psychologie,2023-01-23_15h30.26.053,00_bat_bachelor,2022.2.4,59.95160263635653,
,,,,0,0,0,0,11,0,11,0,,,,,,,,,,,,,,,11,1650.8621937389507,1651.8630824675165,1,1651.8630824675165,X,d,go,None,0,,1652.6634909044733,,,,,,,,,,,,,,,,,54,001,22,m,Psychologie,2023-01-23_15h30.26.053,00_bat_bachelor,2022.2.4,59.95160263635653,
,,,,0,0,0,0,12,0,12,0,,,,,,,,,,,,,,,12,1653.2641802630533,1654.2648881428686,1,1654.2648881428686,Y,l,go,l,1,0.4941045651321474,,,,,,,,,,,,,,,,,,54,001,22,m,Psychologie,2023-01-23_15h30.26.053,00_bat_bachelor,2022.2.4,59.95160263635653,
,,,,0,0,0,0,13,0,13,0,,,,,,,,,,,,,,,13,1655.4658755867313,1656.466116071926,1,1656.466116071926,Y,None,nogo,d,0,0.276981825074472,,,,,,,,,,,,,,,,,,54,001,22,m,Psychologie,2023-01-23_15h30.26.053,00_bat_bachelor,2022.2.4,59.95160263635653,
,,,,0,0,0,0,14,0,14,0,,,,,,,,,,,,,,,14,1657.850766328389,1658.8514392990655,1,1658.8514392990655,X,d,go,d,1,0.4510005024349084,,,,,,,,,,,,,,,,,,54,001,22,m,Psychologie,2023-01-23_15h30.26.053,00_bat_bachelor,2022.2.4,59.95160263635653,
,,,,1,0,1,0,0,0,0,0,,,,,,,,,,,,,,,0,1675.6812679000286,1675.8814121911455,0.2,1675.8814121911455,X,d,go,d,1,0.5413143307669088,,1660.029708164424,j,15.628486336350761,,,,,,,,,,,,,,54,001,22,m,Psychologie,2023-01-23_15h30.26.053,00_bat_bachelor,2022.2.4,59.95160263635653,
,,,,1,0,1,0,1,0,1,0,,,,,,,,,,,,,,,1,1677.1321703740687,1677.3326201201744,0.2,1677.3326201201744,Y,l,go,l,1,0.35424157381567056,,,,,,,,,,,,,,,,,,54,001,22,m,Psychologie,2023-01-23_15h30.26.053,00_bat_bachelor,2022.2.4,59.95160263635653,
,,,,1,0,1,0,2,0,2,0,,,,,,,,,,,,,,,2,1678.4001164607762,1678.5999751757226,0.2,1678.5999751757226,X,d,go,d,1,0.6066084863487049,,,,,,,,,,,,,,,,,,54,001,22,m,Psychologie,2023-01-23_15h30.26.053,00_bat_bachelor,2022.2.4,59.95160263635653,
,,,,1,0,1,0,3,0,3,0,,,,,,,,,,,,,,,3,1679.9176575771999,1680.1180413838192,0.2,1680.1180413838192,Y,l,go,l,1,0.5138607150802272,,,,,,,,,,,,,,,,,,54,001,22,m,Psychologie,2023-01-23_15h30.26.053,00_bat_bachelor,2022.2.4,59.95160263635653,
,,,,1,0,1,0,4,0,4,0,,,,,,,,,,,,,,,4,1681.3355078819513,1681.5357195671095,0.2,1681.5357195671095,X,d,go,d,1,0.43920993982828804,,,,,,,,,,,,,,,,,,54,001,22,m,Psychologie,2023-01-23_15h30.26.053,00_bat_bachelor,2022.2.4,59.95160263635653,
,,,,1,0,1,0,5,0,5,0,,,,,,,,,,,,,,,5,1682.6866303320712,1682.886771714093,0.2,1682.886771714093,Y,l,go,l,1,0.49626699251894024,,,,,,,,,,,,,,,,,,54,001,22,m,Psychologie,2023-01-23_15h30.26.053,00_bat_bachelor,2022.2.4,59.95160263635653,
,,,,1,0,1,0,6,0,6,0,,,,,,,,,,,,,,,6,1684.0876612184184,1684.2878186004637,0.2,1684.2878186004637,X,d,go,d,1,0.43863490869262023,,,,,,,,,,,,,,,,,,54,001,22,m,Psychologie,2023-01-23_15h30.26.053,00_bat_bachelor,2022.2.4,59.95160263635653,
,,,,1,0,1,0,7,0,7,0,,,,,,,,,,,,,,,7,1685.438495668117,1685.6389042020455,0.2,1685.6389042020455,Y,l,go,None,0,,1686.4393121541507,,,,,,,,,,,,,,,,,54,001,22,m,Psychologie,2023-01-23_15h30.26.053,00_bat_bachelor,2022.2.4,59.95160263635653,
,,,,1,0,1,0,8,0,8,0,,,,,,,,,,,,,,,8,1687.0399089065359,1687.2399208338247,0.2,1687.2399208338247,Y,None,nogo,None,1,,1688.0405266044036,,,,,,,,,,,,,,,,,54,001,22,m,Psychologie,2023-01-23_15h30.26.053,00_bat_bachelor,2022.2.4,59.95160263635653,
,,,,1,0,1,0,9,0,9,0,,,,,,,,,,,,,,,9,1688.64115681138,1688.841346193476,0.2,1688.841346193476,X,d,go,d,1,0.38193034136202186,,,,,,,,,,,,,,,,,,54,001,22,m,Psychologie,2023-01-23_15h30.26.053,00_bat_bachelor,2022.2.4,59.95160263635653,
,,,,1,0,1,0,10,0,10,0,,,,,,,,,,,,,,,10,1689.925308012571,1690.1257500010906,0.2,1690.1257500010906,Y,l,go,l,1,0.4096545029024128,,,,,,,,,,,,,,,,,,54,001,22,m,Psychologie,2023-01-23_15h30.26.053,00_bat_bachelor,2022.2.4,59.95160263635653,
,,,,1,0,1,0,11,0,11,0,,,,,,,,,,,,,,,11,1691.2430946566237,1691.443310220573,0.2,1691.443310220573,X,d,go,d,1,0.5316983167831495,,,,,,,,,,,,,,,,,,54,001,22,m,Psychologie,2023-01-23_15h30.26.053,00_bat_bachelor,2022.2.4,59.95160263635653,
,,,,1,0,1,0,12,0,12,0,,,,,,,,,,,,,,,12,1692.6775660764615,1692.8775813976972,0.2,1692.8775813976972,Y,l,go,l,1,0.4092641993011057,,,,,,,,,,,,,,,,,,54,001,22,m,Psychologie,2023-01-23_15h30.26.053,00_bat_bachelor,2022.2.4,59.95160263635653,
,,,,1,0,1,0,13,0,13,0,,,,,,,,,,,,,,,13,1693.9950661746443,1694.1953224659264,0.2,1694.1953224659264,X,d,go,d,1,0.46676004050823394,,,,,,,,,,,,,,,,,,54,001,22,m,Psychologie,2023-01-23_15h30.26.053,00_bat_bachelor,2022.2.4,59.95160263635653,
,,,,1,0,1,0,14,0,14,0,,,,,,,,,,,,,,,14,1695.3629876794985,1695.5631368191098,0.2,1695.5631368191098,X,None,nogo,None,1,,1696.363572407623,,,,,,,,,,,,,,,,,54,001,22,m,Psychologie,2023-01-23_15h30.26.053,00_bat_bachelor,2022.2.4,59.95160263635653,
,,,,,,,,,,,,,,,,,,,,,,,,,,,,,,,,,,,,,,1697.005323159261,None,,1697.005323159261,1697.005323159261,space,5.100861326474842,,,,,,,,,,54,001,22,m,Psychologie,2023-01-23_15h30.26.053,00_bat_bachelor,2022.2.4,59.95160263635653,
,,,,,,,,,,,,0,0,0,0,0,0,0,0,,,,,,,0,,,1,1703.1355458941289,X,d,go,d,1,0.3926605387860036,,,,,,,,,,,,,,,,,,54,001,22,m,Psychologie,2023-01-23_15h30.26.053,00_bat_bachelor,2022.2.4,59.95160263635653,
,,,,,,,,,,,,0,0,0,0,1,0,1,0,,,,,,,1,,,1,1704.6365686834943,Y,l,go,l,1,0.649656791389134,,,,,,,,,,,,,,,,,,54,001,22,m,Psychologie,2023-01-23_15h30.26.053,00_bat_bachelor,2022.2.4,59.95160263635653,
,,,,,,,,,,,,0,0,0,0,2,0,2,0,,,,,,,2,,,1,1706.3880616553652,X,d,go,d,1,0.4348244789071032,,,,,,,,,,,,,,,,,,54,001,22,m,Psychologie,2023-01-23_15h30.26.053,00_bat_bachelor,2022.2.4,59.95160263635653,
,,,,,,,,,,,,0,0,0,0,3,0,3,0,,,,,,,3,,,1,1707.9392546995223,X,None,nogo,None,1,,,,,,,,,,,,,,,,,,,54,001,22,m,Psychologie,2023-01-23_15h30.26.053,00_bat_bachelor,2022.2.4,59.95160263635653,
,,,,,,,,,,,,0,0,0,0,4,0,4,0,,,,,,,4,,,1,1709.7406115014965,Y,l,go,l,1,0.4589820898036123,,,,,,,,,,,,,,,,,,54,001,22,m,Psychologie,2023-01-23_15h30.26.053,00_bat_bachelor,2022.2.4,59.95160263635653,
,,,,,,,,,,,,0,0,0,0,5,0,5,0,,,,,,,5,,,1,1711.3085109942003,X,d,go,d,1,0.44170739800756564,,,,,,,,,,,,,,,,,,54,001,22,m,Psychologie,2023-01-23_15h30.26.053,00_bat_bachelor,2022.2.4,59.95160263635653,
,,,,,,,,,,,,0,0,0,0,6,0,6,0,,,,,,,6,,,1,1712.8597011292622,Y,l,go,l,1,0.42801089323620545,,,,,,,,,,,,,,,,,,54,001,22,m,Psychologie,2023-01-23_15h30.26.053,00_bat_bachelor,2022.2.4,59.95160263635653,
,,,,,,,,,,,,0,0,0,0,7,0,7,0,,,,,,,7,,,1,1714.3941566945323,X,d,go,d,1,0.4455745551495056,,,,,,,,,,,,,,,,,,54,001,22,m,Psychologie,2023-01-23_15h30.26.053,00_bat_bachelor,2022.2.4,59.95160263635653,
,,,,,,,,,,,,0,0,0,0,8,0,8,0,,,,,,,8,,,1,1715.9452139809182,Y,l,go,l,1,0.39883800231837085,,,,,,,,,,,,,,,,,,54,001,22,m,Psychologie,2023-01-23_15h30.26.053,00_bat_bachelor,2022.2.4,59.95160263635653,
,,,,,,,,,,,,0,0,0,0,9,0,9,0,,,,,,,9,,,1,1717.4462721642776,X,d,go,d,1,0.46581797853286844,,,,,,,,,,,,,,,,,,54,001,22,m,Psychologie,2023-01-23_15h30.26.053,00_bat_bachelor,2022.2.4,59.95160263635653,
,,,,,,,,,,,,0,0,0,0,10,0,10,0,,,,,,,10,,,1,1719.0140392931498,X,None,nogo,d,0,0.4657510693468794,,,,,,,,,,,,,,,,,,54,001,22,m,Psychologie,2023-01-23_15h30.26.053,00_bat_bachelor,2022.2.4,59.95160263635653,
,,,,,,,,,,,,0,0,0,0,11,0,11,0,,,,,,,11,,,1,1720.581953331326,X,None,nogo,None,1,,1721.382676435409,,,,,,,,,,,,,,,,,54,001,22,m,Psychologie,2023-01-23_15h30.26.053,00_bat_bachelor,2022.2.4,59.95160263635653,
,,,,,,,,,,,,0,0,0,0,12,0,12,0,,,,,,,12,,,1,1722.3834924365983,Y,l,go,l,1,0.40820916746451985,,,,,,,,,,,,,,,,,,54,001,22,m,Psychologie,2023-01-23_15h30.26.053,00_bat_bachelor,2022.2.4,59.95160263635653,
,,,,,,,,,,,,0,0,0,0,13,0,13,0,,,,,,,13,,,1,1723.9012885836928,X,d,go,d,1,0.49029268079902977,,,,,,,,,,,,,,,,,,54,001,22,m,Psychologie,2023-01-23_15h30.26.053,00_bat_bachelor,2022.2.4,59.95160263635653,
,,,,,,,,,,,,0,0,0,0,14,0,14,0,,,,,,,14,,,1,1725.5022315183996,X,None,nogo,None,1,,,,,,,,,,,,,,,,,,,54,001,22,m,Psychologie,2023-01-23_15h30.26.053,00_bat_bachelor,2022.2.4,59.95160263635653,
,,,,,,,,,,,,0,0,0,0,15,0,15,0,,,,,,,15,,,1,1727.3038690480535,Y,l,go,l,1,0.4464947989108623,,,,,,,,,,,,,,,,,,54,001,22,m,Psychologie,2023-01-23_15h30.26.053,00_bat_bachelor,2022.2.4,59.95160263635653,
,,,,,,,,,,,,0,0,0,0,16,0,16,0,,,,,,,16,,,1,1728.8548783343685,X,d,go,d,1,0.4157912391019636,,,,,,,,,,,,,,,,,,54,001,22,m,Psychologie,2023-01-23_15h30.26.053,00_bat_bachelor,2022.2.4,59.95160263635653,
,,,,,,,,,,,,0,0,0,0,17,0,17,0,,,,,,,17,,,1,1730.3729392091263,Y,l,go,l,1,0.3541242403080105,,,,,,,,,,,,,,,,,,54,001,22,m,Psychologie,2023-01-23_15h30.26.053,00_bat_bachelor,2022.2.4,59.95160263635653,
,,,,,,,,,,,,0,0,0,0,18,0,18,0,,,,,,,18,,,1,1731.8403755253967,X,d,go,d,1,0.3423879808142374,,,,,,,,,,,,,,,,,,54,001,22,m,Psychologie,2023-01-23_15h30.26.053,00_bat_bachelor,2022.2.4,59.95160263635653,
,,,,,,,,,,,,0,0,0,0,19,0,19,0,,,,,,,19,,,1,1733.2914898785311,X,None,nogo,None,1,,,,,,,,,,,,,,,,,,,54,001,22,m,Psychologie,2023-01-23_15h30.26.053,00_bat_bachelor,2022.2.4,59.95160263635653,
,,,,,,,,,,,,0,0,0,0,20,0,20,0,,,,,,,20,,,1,1735.0931288627326,Y,l,go,l,1,0.4178377875323349,,,,,,,,,,,,,,,,,,54,001,22,m,Psychologie,2023-01-23_15h30.26.053,00_bat_bachelor,2022.2.4,59.95160263635653,
,,,,,,,,,,,,0,0,0,0,21,0,21,0,,,,,,,21,,,1,1736.6275936401362,X,d,go,d,1,0.4676269508599944,,,,,,,,,,,,,,,,,,54,001,22,m,Psychologie,2023-01-23_15h30.26.053,00_bat_bachelor,2022.2.4,59.95160263635653,
,,,,,,,,,,,,0,0,0,0,22,0,22,0,,,,,,,22,,,1,1738.2119096415663,Y,l,go,l,1,0.33893973337399075,,,,,,,,,,,,,,,,,,54,001,22,m,Psychologie,2023-01-23_15h30.26.053,00_bat_bachelor,2022.2.4,59.95160263635653,
,,,,,,,,,,,,0,0,0,0,23,0,23,0,,,,,,,23,,,1,1739.6633430254697,Y,None,nogo,d,0,0.4081965613841021,,,,,,,,,,,,,,,,,,54,001,22,m,Psychologie,2023-01-23_15h30.26.053,00_bat_bachelor,2022.2.4,59.95160263635653,
,,,,,,,,,,,,0,0,0,0,24,0,24,0,,,,,,,24,,,1,1741.1810969906874,X,d,go,d,1,0.601328963519336,,,,,,,,,,,,,,,,,,54,001,22,m,Psychologie,2023-01-23_15h30.26.053,00_bat_bachelor,2022.2.4,59.95160263635653,
,,,,,,,,,,,,0,0,0,0,25,0,25,0,,,,,,,25,,,1,1742.8990248228256,Y,l,go,l,1,0.4200171846387093,,,,,,,,,,,,,,,,,,54,001,22,m,Psychologie,2023-01-23_15h30.26.053,00_bat_bachelor,2022.2.4,59.95160263635653,
,,,,,,,,,,,,0,0,0,0,26,0,26,0,,,,,,,26,,,1,1744.434129116311,Y,None,nogo,None,1,,1745.2349705235938,,,,,,,,,,,,,,,,,54,001,22,m,Psychologie,2023-01-23_15h30.26.053,00_bat_bachelor,2022.2.4,59.95160263635653,
,,,,,,,,,,,,0,0,0,0,27,0,27,0,,,,,,,27,,,1,1746.235310402877,X,d,go,d,1,0.42803222660222673,,,,,,,,,,,,,,,,,,54,001,22,m,Psychologie,2023-01-23_15h30.26.053,00_bat_bachelor,2022.2.4,59.95160263635653,
,,,,,,,,,,,,0,0,0,0,28,0,28,0,,,,,,,28,,,1,1747.7697940893995,Y,l,go,l,1,0.4444652202000725,,,,,,,,,,,,,,,,,,54,001,22,m,Psychologie,2023-01-23_15h30.26.053,00_bat_bachelor,2022.2.4,59.95160263635653,
,,,,,,,,,,,,0,0,0,0,29,0,29,0,,,,,,,29,,,1,1749.3211767095927,X,d,go,d,1,0.364999892492051,,,,,,,,,,,,,,,,,,54,001,22,m,Psychologie,2023-01-23_15h30.26.053,00_bat_bachelor,2022.2.4,59.95160263635653,
,,,,,,,,,,,,0,0,0,0,30,0,30,0,,,,,,,30,,,1,1750.7887478139382,X,None,nogo,d,0,0.4181466364643711,,,,,,,,,,,,,,,,,,54,001,22,m,Psychologie,2023-01-23_15h30.26.053,00_bat_bachelor,2022.2.4,59.95160263635653,
,,,,,,,,,,,,0,0,0,0,31,0,31,0,,,,,,,31,,,1,1752.3232315004607,Y,l,go,l,1,0.5313870436002617,,,,,,,,,,,,,,,,,,54,001,22,m,Psychologie,2023-01-23_15h30.26.053,00_bat_bachelor,2022.2.4,59.95160263635653,
,,,,,,,,,,,,0,0,0,0,32,0,32,0,,,,,,,32,,,1,1753.9581851512994,X,d,go,d,1,0.46454573425944545,,,,,,,,,,,,,,,,,,54,001,22,m,Psychologie,2023-01-23_15h30.26.053,00_bat_bachelor,2022.2.4,59.95160263635653,
,,,,,,,,,,,,0,0,0,0,33,0,33,0,,,,,,,33,,,1,1755.5259256134705,X,None,nogo,None,1,,1756.3265313840457,,,,,,,,,,,,,,,,,54,001,22,m,Psychologie,2023-01-23_15h30.26.053,00_bat_bachelor,2022.2.4,59.95160263635653,
,,,,,,,,,,,,0,0,0,0,34,0,34,0,,,,,,,34,,,1,1757.3272993851642,Y,l,go,l,1,0.26363004807717516,,,,,,,,,,,,,,,,,,54,001,22,m,Psychologie,2023-01-23_15h30.26.053,00_bat_bachelor,2022.2.4,59.95160263635653,
,,,,,,,,,,,,0,0,0,0,35,0,35,0,,,,,,,35,,,1,1758.6950793140568,X,d,go,d,1,0.5603558130133024,,,,,,,,,,,,,,,,,,54,001,22,m,Psychologie,2023-01-23_15h30.26.053,00_bat_bachelor,2022.2.4,59.95160263635653,
,,,,,,,,,,,,0,0,0,0,36,0,36,0,,,,,,,36,,,1,1760.362739436714,Y,l,go,l,1,0.31477436489149113,,,,,,,,,,,,,,,,,,54,001,22,m,Psychologie,2023-01-23_15h30.26.053,00_bat_bachelor,2022.2.4,59.95160263635653,
,,,,,,,,,,,,0,0,0,0,37,0,37,0,,,,,,,37,,,1,1761.7974174023038,X,d,go,d,1,0.4647993103826593,,,,,,,,,,,,,,,,,,54,001,22,m,Psychologie,2023-01-23_15h30.26.053,00_bat_bachelor,2022.2.4,59.95160263635653,
,,,,,,,,,,,,0,0,0,0,38,0,38,0,,,,,,,38,,,1,1763.365286349508,Y,l,go,l,1,0.3054841695629875,,,,,,,,,,,,,,,,,,54,001,22,m,Psychologie,2023-01-23_15h30.26.053,00_bat_bachelor,2022.2.4,59.95160263635653,
,,,,,,,,,,,,0,0,0,0,39,0,39,0,,,,,,,39,,,1,1764.7828670781128,Y,None,nogo,None,1,,1765.5830888481323,,,,,,,,,,,,,,,,,54,001,22,m,Psychologie,2023-01-23_15h30.26.053,00_bat_bachelor,2022.2.4,59.95160263635653,
,,,,,,,,,,,,0,0,0,0,40,0,40,0,,,,,,,40,,,1,1766.584103152636,Y,None,nogo,None,1,,1767.3846332867397,,,,,,,,,,,,,,,,,54,001,22,m,Psychologie,2023-01-23_15h30.26.053,00_bat_bachelor,2022.2.4,59.95160263635653,
,,,,,,,,,,,,0,0,0,0,41,0,41,0,,,,,,,41,,,1,1768.385273287673,X,d,go,d,1,0.38914732155535603,,,,,,,,,,,,,,,,,,54,001,22,m,Psychologie,2023-01-23_15h30.26.053,00_bat_bachelor,2022.2.4,59.95160263635653,
,,,,,,,,,,,,0,0,0,0,42,0,42,0,,,,,,,42,,,1,1769.886385774138,Y,l,go,l,1,0.3936011462137685,,,,,,,,,,,,,,,,,,54,001,22,m,Psychologie,2023-01-23_15h30.26.053,00_bat_bachelor,2022.2.4,59.95160263635653,
,,,,,,,,,,,,0,0,0,0,43,0,43,0,,,,,,,43,,,1,1771.387438624155,X,d,go,d,1,0.3155540023908543,,,,,,,,,,,,,,,,,,54,001,22,m,Psychologie,2023-01-23_15h30.26.053,00_bat_bachelor,2022.2.4,59.95160263635653,
,,,,,,,,,,,,0,0,0,0,44,0,44,0,,,,,,,44,,,1,1772.8049960799945,Y,l,go,l,1,0.49921729983907426,,,,,,,,,,,,,,,,,,54,001,22,m,Psychologie,2023-01-23_15h30.26.053,00_bat_bachelor,2022.2.4,59.95160263635653,
,,,,,,,,,,,,0,0,0,0,45,0,45,0,,,,,,,45,,,1,1774.4061921059765,X,d,go,d,1,0.4321292022577836,,,,,,,,,,,,,,,,,,54,001,22,m,Psychologie,2023-01-23_15h30.26.053,00_bat_bachelor,2022.2.4,59.95160263635653,
,,,,,,,,,,,,0,0,0,0,46,0,46,0,,,,,,,46,,,1,1775.9407237925698,Y,l,go,l,1,0.3382895506110799,,,,,,,,,,,,,,,,,,54,001,22,m,Psychologie,2023-01-23_15h30.26.053,00_bat_bachelor,2022.2.4,59.95160263635653,
,,,,,,,,,,,,0,0,0,0,47,0,47,0,,,,,,,47,,,1,1777.392025782341,X,d,go,d,1,0.3593000054170261,,,,,,,,,,,,,,,,,,54,001,22,m,Psychologie,2023-01-23_15h30.26.053,00_bat_bachelor,2022.2.4,59.95160263635653,
,,,,,,,,,,,,0,0,0,0,48,0,48,0,,,,,,,48,,,1,1778.859902826527,Y,l,go,l,1,0.5865716087209876,,,,,,,,,,,,,,,,,,54,001,22,m,Psychologie,2023-01-23_15h30.26.053,00_bat_bachelor,2022.2.4,59.95160263635653,
,,,,,,,,,,,,0,0,0,0,49,0,49,0,,,,,,,49,,,1,1780.5612779073163,X,d,go,d,1,0.3744340880366508,,,,,,,,,,,,,,,,,,54,001,22,m,Psychologie,2023-01-23_15h30.26.053,00_bat_bachelor,2022.2.4,59.95160263635653,
,,,,,,,,,,,,0,0,0,0,50,0,50,0,,,,,,,50,,,1,1782.0457110967945,Y,l,go,l,1,0.3455651975600631,,,,,,,,,,,,,,,,,,54,001,22,m,Psychologie,2023-01-23_15h30.26.053,00_bat_bachelor,2022.2.4,59.95160263635653,
,,,,,,,,,,,,0,0,0,0,51,0,51,0,,,,,,,51,,,1,1783.4965675101594,X,d,go,d,1,0.334340938807145,,,,,,,,,,,,,,,,,,54,001,22,m,Psychologie,2023-01-23_15h30.26.053,00_bat_bachelor,2022.2.4,59.95160263635653,
,,,,,,,,,,,,0,0,0,0,52,0,52,0,,,,,,,52,,,1,1784.9475776207219,Y,l,go,l,1,0.30805629451788263,,,,,,,,,,,,,,,,,,54,001,22,m,Psychologie,2023-01-23_15h30.26.053,00_bat_bachelor,2022.2.4,59.95160263635653,
,,,,,,,,,,,,0,0,0,0,53,0,53,0,,,,,,,53,,,1,1786.3653542283937,Y,None,nogo,d,0,0.2489522085452336,,,,,,,,,,,,,,,,,,54,001,22,m,Psychologie,2023-01-23_15h30.26.053,00_bat_bachelor,2022.2.4,59.95160263635653,
,,,,,,,,,,,,0,0,0,0,54,0,54,0,,,,,,,54,,,1,1787.7167084364264,Y,None,nogo,None,1,,,,,,,,,,,,,,,,,,,54,001,22,m,Psychologie,2023-01-23_15h30.26.053,00_bat_bachelor,2022.2.4,59.95160263635653,
,,,,,,,,,,,,0,0,0,0,55,0,55,0,,,,,,,55,,,1,1789.517740874293,X,d,go,d,1,0.2821052264662285,,,,,,,,,,,,,,,,,,54,001,22,m,Psychologie,2023-01-23_15h30.26.053,00_bat_bachelor,2022.2.4,59.95160263635653,
,,,,,,,,,,,,0,0,0,0,56,0,56,0,,,,,,,56,,,1,1790.9022660396622,Y,l,go,l,1,0.2738826690510905,,,,,,,,,,,,,,,,,,54,001,22,m,Psychologie,2023-01-23_15h30.26.053,00_bat_bachelor,2022.2.4,59.95160263635653,
,,,,,,,,,,,,0,0,0,0,57,0,57,0,,,,,,,57,,,1,1792.2868178717363,X,d,go,d,1,0.2806952850223752,,,,,,,,,,,,,,,,,,54,001,22,m,Psychologie,2023-01-23_15h30.26.053,00_bat_bachelor,2022.2.4,59.95160263635653,
,,,,,,,,,,,,0,0,0,0,58,0,58,0,,,,,,,58,,,1,1793.670933339541,Y,l,go,l,1,0.22334295917244162,,,,,,,,,,,,,,,,,,54,001,22,m,Psychologie,2023-01-23_15h30.26.053,00_bat_bachelor,2022.2.4,59.95160263635653,
,,,,,,,,,,,,0,0,0,0,59,0,59,0,,,,,,,59,,,1,1795.005471038261,Y,None,nogo,None,1,,,,,,,,,,,,,,,,,,,54,001,22,m,Psychologie,2023-01-23_15h30.26.053,00_bat_bachelor,2022.2.4,59.95160263635653,
,,,,,,,,,,,,0,0,0,0,60,0,60,0,,,,,,,60,,,1,1796.8069175373348,X,d,go,d,1,0.2404324385788641,,,,,,,,,,,,,,,,,,54,001,22,m,Psychologie,2023-01-23_15h30.26.053,00_bat_bachelor,2022.2.4,59.95160263635653,
,,,,,,,,,,,,0,0,0,0,61,0,61,0,,,,,,,61,,,1,1798.1579473812599,Y,l,go,l,1,0.2969682783841563,,,,,,,,,,,,,,,,,,54,001,22,m,Psychologie,2023-01-23_15h30.26.053,00_bat_bachelor,2022.2.4,59.95160263635653,
,,,,,,,,,,,,0,0,0,0,62,0,62,0,,,,,,,62,,,1,1799.559125661759,X,d,go,d,1,0.2558016730545205,,,,,,,,,,,,,,,,,,54,001,22,m,Psychologie,2023-01-23_15h30.26.053,00_bat_bachelor,2022.2.4,59.95160263635653,
,,,,,,,,,,,,0,0,0,0,63,0,63,0,,,,,,,63,,,1,1800.9267916510908,Y,l,go,l,1,0.3605077647480357,,,,,,,,,,,,,,,,,,54,001,22,m,Psychologie,2023-01-23_15h30.26.053,00_bat_bachelor,2022.2.4,59.95160263635653,
,,,,,,,,,,,,0,0,0,0,64,0,64,0,,,,,,,64,,,1,1802.3945343920532,X,d,go,d,1,0.2842889872190426,,,,,,,,,,,,,,,,,,54,001,22,m,Psychologie,2023-01-23_15h30.26.053,00_bat_bachelor,2022.2.4,59.95160263635653,
,,,,,,,,,,,,0,0,0,0,65,0,65,0,,,,,,,65,,,1,1803.7956132784675,Y,l,go,l,1,0.29203299848086317,,,,,,,,,,,,,,,,,,54,001,22,m,Psychologie,2023-01-23_15h30.26.053,00_bat_bachelor,2022.2.4,59.95160263635653,
,,,,,,,,,,,,0,0,0,0,66,0,66,0,,,,,,,66,,,1,1805.1966480436095,Y,None,nogo,d,0,0.2658904150011949,,,,,,,,,,,,,,,,,,54,001,22,m,Psychologie,2023-01-23_15h30.26.053,00_bat_bachelor,2022.2.4,59.95160263635653,
,,,,,,,,,,,,0,0,0,0,67,0,67,0,,,,,,,67,,,1,1806.5644536695108,X,d,go,d,1,0.5308769822549948,,,,,,,,,,,,,,,,,,54,001,22,m,Psychologie,2023-01-23_15h30.26.053,00_bat_bachelor,2022.2.4,59.95160263635653,
,,,,,,,,,,,,0,0,0,0,68,0,68,0,,,,,,,68,,,1,1808.1986708344302,Y,l,go,l,1,0.38392016243597027,,,,,,,,,,,,,,,,,,54,001,22,m,Psychologie,2023-01-23_15h30.26.053,00_bat_bachelor,2022.2.4,59.95160263635653,
,,,,,,,,,,,,0,0,0,0,69,0,69,0,,,,,,,69,,,1,1809.700172169949,Y,None,nogo,None,1,,,,,,,,,,,,,,,,,,,54,001,22,m,Psychologie,2023-01-23_15h30.26.053,00_bat_bachelor,2022.2.4,59.95160263635653,
,,,,,,,,,,,,0,0,0,0,70,0,70,0,,,,,,,70,,,1,1811.5015682447083,X,d,go,d,1,0.36224400969513226,,,,,,,,,,,,,,,,,,54,001,22,m,Psychologie,2023-01-23_15h30.26.053,00_bat_bachelor,2022.2.4,59.95160263635653,
,,,,,,,,,,,,0,0,0,0,71,0,71,0,,,,,,,71,,,1,1812.9689686821366,Y,l,go,l,1,0.3987003051515785,,,,,,,,,,,,,,,,,,54,001,22,m,Psychologie,2023-01-23_15h30.26.053,00_bat_bachelor,2022.2.4,59.95160263635653,
,,,,,,,,,,,,0,0,0,0,72,0,72,0,,,,,,,72,,,1,1814.4704952298125,X,d,go,d,1,0.36872838276758557,,,,,,,,,,,,,,,,,,54,001,22,m,Psychologie,2023-01-23_15h30.26.053,00_bat_bachelor,2022.2.4,59.95160263635653,
,,,,,,,,,,,,0,0,0,0,73,0,73,0,,,,,,,73,,,1,1815.954594358198,Y,l,go,l,1,0.29209748342327657,,,,,,,,,,,,,,,,,,54,001,22,m,Psychologie,2023-01-23_15h30.26.053,00_bat_bachelor,2022.2.4,59.95160263635653,
,,,,,,,,,,,,0,0,0,0,74,0,74,0,,,,,,,74,,,1,1817.3556402748727,X,d,go,d,1,0.37978342915084795,,,,,,,,,,,,,,,,,,54,001,22,m,Psychologie,2023-01-23_15h30.26.053,00_bat_bachelor,2022.2.4,59.95160263635653,
,,,,,,,,,,,,0,0,0,0,75,0,75,0,,,,,,,75,,,1,1818.8405680105243,Y,l,go,l,1,0.6071486083455966,,,,,,,,,,,,,,,,,,54,001,22,m,Psychologie,2023-01-23_15h30.26.053,00_bat_bachelor,2022.2.4,59.95160263635653,
,,,,,,,,,,,,0,0,0,0,76,0,76,0,,,,,,,76,,,1,1820.5584827517341,X,d,go,d,1,0.3615914026850078,,,,,,,,,,,,,,,,,,54,001,22,m,Psychologie,2023-01-23_15h30.26.053,00_bat_bachelor,2022.2.4,59.95160263635653,
,,,,,,,,,,,,0,0,0,0,77,0,77,0,,,,,,,77,,,1,1822.0262734927637,Y,l,go,l,1,0.34880350529783755,,,,,,,,,,,,,,,,,,54,001,22,m,Psychologie,2023-01-23_15h30.26.053,00_bat_bachelor,2022.2.4,59.95160263635653,
,,,,,,,,,,,,0,0,0,0,78,0,78,0,,,,,,,78,,,1,1823.4773946337882,X,d,go,d,1,0.289831783156842,,,,,,,,,,,,,,,,,,54,001,22,m,Psychologie,2023-01-23_15h30.26.053,00_bat_bachelor,2022.2.4,59.95160263635653,
,,,,,,,,,,,,0,0,0,0,79,0,79,0,,,,,,,79,,,1,1824.8780909741945,X,None,nogo,l,0,0.23212163860807777,,,,,,,,,,,,,,,,,,54,001,22,m,Psychologie,2023-01-23_15h30.26.053,00_bat_bachelor,2022.2.4,59.95160263635653,
,,,,,,,,,,,,0,0,0,0,80,0,80,0,,,,,,,80,,,1,1826.212453642358,Y,l,go,d,0,0.41822178808797617,,,,,,,,,,,,,,,,,,54,001,22,m,Psychologie,2023-01-23_15h30.26.053,00_bat_bachelor,2022.2.4,59.95160263635653,
,,,,,,,,,,,,0,0,0,0,81,0,81,0,,,,,,,81,,,1,1827.7472597535925,X,d,go,d,1,0.41987269958190154,,,,,,,,,,,,,,,,,,54,001,22,m,Psychologie,2023-01-23_15h30.26.053,00_bat_bachelor,2022.2.4,59.95160263635653,
,,,,,,,,,,,,0,0,0,0,82,0,82,0,,,,,,,82,,,1,1829.2817676825725,X,None,nogo,d,0,0.6460548467548506,,,,,,,,,,,,,,,,,,54,001,22,m,Psychologie,2023-01-23_15h30.26.053,00_bat_bachelor,2022.2.4,59.95160263635653,
,,,,,,,,,,,,0,0,0,0,83,0,83,0,,,,,,,83,,,1,1831.0329881691978,Y,l,go,None,0,,,,,,,,,,,,,,,,,,,54,001,22,m,Psychologie,2023-01-23_15h30.26.053,00_bat_bachelor,2022.2.4,59.95160263635653,
,,,,,,,,,,,,0,0,0,0,84,0,84,0,,,,,,,84,,,1,1832.8349524872065,X,d,go,d,1,0.4352821765387489,,,,,,,,,,,,,,,,,,54,001,22,m,Psychologie,2023-01-23_15h30.26.053,00_bat_bachelor,2022.2.4,59.95160263635653,
,,,,,,,,,,,,0,0,0,0,85,0,85,0,,,,,,,85,,,1,1834.386364198348,Y,l,go,l,1,0.4528196565916005,,,,,,,,,,,,,,,,,,54,001,22,m,Psychologie,2023-01-23_15h30.26.053,00_bat_bachelor,2022.2.4,59.95160263635653,
,,,,,,,,,,,,0,0,0,0,86,0,86,0,,,,,,,86,,,1,1835.954230721305,X,d,go,d,1,0.3397159769301652,,,,,,,,,,,,,,,,,,54,001,22,m,Psychologie,2023-01-23_15h30.26.053,00_bat_bachelor,2022.2.4,59.95160263635653,
,,,,,,,,,,,,0,0,0,0,87,0,87,0,,,,,,,87,,,1,1837.4220035229155,Y,l,go,l,1,0.34484034801789676,,,,,,,,,,,,,,,,,,54,001,22,m,Psychologie,2023-01-23_15h30.26.053,00_bat_bachelor,2022.2.4,59.95160263635653,
,,,,,,,,,,,,0,0,0,0,88,0,88,0,,,,,,,88,,,1,1838.8730863608544,X,d,go,d,1,0.4937559585632698,,,,,,,,,,,,,,,,,,54,001,22,m,Psychologie,2023-01-23_15h30.26.053,00_bat_bachelor,2022.2.4,59.95160263635653,
,,,,,,,,,,,,0,0,0,0,89,0,89,0,,,,,,,89,,,1,1840.4910227748223,Y,l,go,l,1,0.3323200873855967,,,,,,,,,,,,,,,,,,54,001,22,m,Psychologie,2023-01-23_15h30.26.053,00_bat_bachelor,2022.2.4,59.95160263635653,
,,,,,,,,,,,,0,0,0,0,90,0,90,0,,,,,,,90,,,1,1841.9254447400417,Y,None,nogo,d,0,0.2573090691839752,,,,,,,,,,,,,,,,,,54,001,22,m,Psychologie,2023-01-23_15h30.26.053,00_bat_bachelor,2022.2.4,59.95160263635653,
,,,,,,,,,,,,0,0,0,0,91,0,91,0,,,,,,,91,,,1,1843.3095316017461,X,d,go,d,1,0.6016630246085697,,,,,,,,,,,,,,,,,,54,001,22,m,Psychologie,2023-01-23_15h30.26.053,00_bat_bachelor,2022.2.4,59.95160263635653,
,,,,,,,,,,,,0,0,0,0,92,0,92,0,,,,,,,92,,,1,1845.0277566464356,Y,l,go,l,1,0.37146487159407116,,,,,,,,,,,,,,,,,,54,001,22,m,Psychologie,2023-01-23_15h30.26.053,00_bat_bachelor,2022.2.4,59.95160263635653,
,,,,,,,,,,,,0,0,0,0,93,0,93,0,,,,,,,93,,,1,1846.5290373755706,Y,None,nogo,None,1,,1847.3293488426898,,,,,,,,,,,,,,,,,54,001,22,m,Psychologie,2023-01-23_15h30.26.053,00_bat_bachelor,2022.2.4,59.95160263635653,
,,,,,,,,,,,,0,0,0,0,94,0,94,0,,,,,,,94,,,1,1848.3300222982143,X,d,go,d,1,0.26853381278488087,,,,,,,,,,,,,,,,,,54,001,22,m,Psychologie,2023-01-23_15h30.26.053,00_bat_bachelor,2022.2.4,59.95160263635653,
,,,,,,,,,,,,0,0,0,0,95,0,95,0,,,,,,,95,,,1,1849.714559584816,Y,l,go,l,1,0.29272730252341717,,,,,,,,,,,,,,,,,,54,001,22,m,Psychologie,2023-01-23_15h30.26.053,00_bat_bachelor,2022.2.4,59.95160263635653,
,,,,,,,,,,,,0,0,0,0,96,0,96,0,,,,,,,96,,,1,1851.1155390771492,X,d,go,d,1,0.3782537299557589,,,,,,,,,,,,,,,,,,54,001,22,m,Psychologie,2023-01-23_15h30.26.053,00_bat_bachelor,2022.2.4,59.95160263635653,
,,,,,,,,,,,,0,0,0,0,97,0,97,0,,,,,,,97,,,1,1852.616662715147,Y,l,go,l,1,0.3340354838182975,,,,,,,,,,,,,,,,,,54,001,22,m,Psychologie,2023-01-23_15h30.26.053,00_bat_bachelor,2022.2.4,59.95160263635653,
,,,,,,,,,,,,0,0,0,0,98,0,98,0,,,,,,,98,,,1,1854.0677799773766,X,d,go,d,1,0.3226919521657692,,,,,,,,,,,,,,,,,,54,001,22,m,Psychologie,2023-01-23_15h30.26.053,00_bat_bachelor,2022.2.4,59.95160263635653,
,,,,,,,,,,,,0,0,0,0,99,0,99,0,,,,,,,99,,,1,1855.5188744516963,Y,l,go,l,1,0.35938921766501153,,,,,,,,,,,,,,,,,,54,001,22,m,Psychologie,2023-01-23_15h30.26.053,00_bat_bachelor,2022.2.4,59.95160263635653,
,,,,,,,,,,,,0,0,0,0,100,0,100,0,,,,,,,100,,,1,1856.986767980754,X,d,go,d,1,0.4759881751415378,,,,,,,,,,,,,,,,,,54,001,22,m,Psychologie,2023-01-23_15h30.26.053,00_bat_bachelor,2022.2.4,59.95160263635653,
,,,,,,,,,,,,0,0,0,0,101,0,101,0,,,,,,,101,,,1,1858.5711770732305,Y,l,go,l,1,0.3948549662200094,,,,,,,,,,,,,,,,,,54,001,22,m,Psychologie,2023-01-23_15h30.26.053,00_bat_bachelor,2022.2.4,59.95160263635653,
,,,,,,,,,,,,0,0,0,0,102,0,102,0,,,,,,,102,,,1,1860.105756759891,Y,None,nogo,None,1,,1860.9066931976158,,,,,,,,,,,,,,,,,54,001,22,m,Psychologie,2023-01-23_15h30.26.053,00_bat_bachelor,2022.2.4,59.95160263635653,
,,,,,,,,,,,,0,0,0,0,103,0,103,0,,,,,,,103,,,1,1861.906982652581,X,d,go,d,1,0.38848162361682625,,,,,,,,,,,,,,,,,,54,001,22,m,Psychologie,2023-01-23_15h30.26.053,00_bat_bachelor,2022.2.4,59.95160263635653,
,,,,,,,,,,,,0,0,0,0,104,0,104,0,,,,,,,104,,,1,1863.4079569570313,Y,l,go,l,1,0.47021943947765976,,,,,,,,,,,,,,,,,,54,001,22,m,Psychologie,2023-01-23_15h30.26.053,00_bat_bachelor,2022.2.4,59.95160263635653,
,,,,,,,,,,,,0,0,0,0,105,0,105,0,,,,,,,105,,,1,1864.9932242325704,Y,None,nogo,d,0,0.4056549819288193,,,,,,,,,,,,,,,,,,54,001,22,m,Psychologie,2023-01-23_15h30.26.053,00_bat_bachelor,2022.2.4,59.95160263635653,
,,,,,,,,,,,,0,0,0,0,106,0,106,0,,,,,,,106,,,1,1866.510245105812,Y,None,nogo,None,1,,1867.310861543072,,,,,,,,,,,,,,,,,54,001,22,m,Psychologie,2023-01-23_15h30.26.053,00_bat_bachelor,2022.2.4,59.95160263635653,
,,,,,,,,,,,,0,0,0,0,107,0,107,0,,,,,,,107,,,1,1868.3115863926105,X,d,go,d,1,0.3835555558471242,,,,,,,,,,,,,,,,,,54,001,22,m,Psychologie,2023-01-23_15h30.26.053,00_bat_bachelor,2022.2.4,59.95160263635653,
,,,,,,,,,,,,0,0,0,0,108,0,108,0,,,,,,,108,,,1,1869.7963260067772,Y,l,go,l,1,0.4032898875848332,,,,,,,,,,,,,,,,,,54,001,22,m,Psychologie,2023-01-23_15h30.26.053,00_bat_bachelor,2022.2.4,59.95160263635653,
,,,,,,,,,,,,0,0,0,0,109,0,109,0,,,,,,,109,,,1,1871.3139490627145,X,d,go,d,1,0.38903726078933687,,,,,,,,,,,,,,,,,,54,001,22,m,Psychologie,2023-01-23_15h30.26.053,00_bat_bachelor,2022.2.4,59.95160263635653,
,,,,,,,,,,,,0,0,0,0,110,0,110,0,,,,,,,110,,,1,1872.8153146404584,X,None,nogo,l,0,0.3607555226808472,,,,,,,,,,,,,,,,,,54,001,22,m,Psychologie,2023-01-23_15h30.26.053,00_bat_bachelor,2022.2.4,59.95160263635653,
,,,,,,,,,,,,0,0,0,0,111,0,111,0,,,,,,,111,,,1,1874.2829099872652,Y,l,go,l,1,0.6353726493980503,,,,,,,,,,,,,,,,,,54,001,22,m,Psychologie,2023-01-23_15h30.26.053,00_bat_bachelor,2022.2.4,59.95160263635653,
,,,,,,,,,,,,0,0,0,0,112,0,112,0,,,,,,,112,,,1,1876.0342478073908,X,d,go,d,1,0.4844609147403389,,,,,,,,,,,,,,,,,,54,001,22,m,Psychologie,2023-01-23_15h30.26.053,00_bat_bachelor,2022.2.4,59.95160263635653,
,,,,,,,,,,,,0,0,0,0,113,0,113,0,,,,,,,113,,,1,1877.6355698941625,Y,l,go,l,1,0.43538932821320486,,,,,,,,,,,,,,,,,,54,001,22,m,Psychologie,2023-01-23_15h30.26.053,00_bat_bachelor,2022.2.4,59.95160263635653,
,,,,,,,,,,,,0,0,0,0,114,0,114,0,,,,,,,114,,,1,1879.1862426951411,X,d,go,d,1,0.3724772367022524,,,,,,,,,,,,,,,,,,54,001,22,m,Psychologie,2023-01-23_15h30.26.053,00_bat_bachelor,2022.2.4,59.95160263635653,
,,,,,,,,,,,,0,0,0,0,115,0,115,0,,,,,,,115,,,1,1880.6711301883115,X,None,nogo,None,1,,,,,,,,,,,,,,,,,,,54,001,22,m,Psychologie,2023-01-23_15h30.26.053,00_bat_bachelor,2022.2.4,59.95160263635653,
,,,,,,,,,,,,0,0,0,0,116,0,116,0,,,,,,,116,,,1,1882.4723231112584,X,None,nogo,None,1,,,,,,,,,,,,,,,,,,,54,001,22,m,Psychologie,2023-01-23_15h30.26.053,00_bat_bachelor,2022.2.4,59.95160263635653,
,,,,,,,,,,,,0,0,0,0,117,0,117,0,,,,,,,117,,,1,1884.273451064415,Y,l,go,l,1,0.38945568564304267,,,,,,,,,,,,,,,,,,54,001,22,m,Psychologie,2023-01-23_15h30.26.053,00_bat_bachelor,2022.2.4,59.95160263635653,
,,,,,,,,,,,,0,0,0,0,118,0,118,0,,,,,,,118,,,1,1885.7747216117168,X,d,go,d,1,0.29632682291048695,,,,,,,,,,,,,,,,,,54,001,22,m,Psychologie,2023-01-23_15h30.26.053,00_bat_bachelor,2022.2.4,59.95160263635653,
,,,,,,,,,,,,0,0,0,0,119,0,119,0,,,,,,,119,,,1,1887.1756356494116,X,None,nogo,None,1,,,,,,,,,,,,,,,,,,,54,001,22,m,Psychologie,2023-01-23_15h30.26.053,00_bat_bachelor,2022.2.4,59.95160263635653,
,,,,,,,,,,,,0,0,0,0,120,0,120,0,,,,,,,120,,,1,1888.9770530575333,Y,l,go,l,1,0.3422512533434201,,,,,,,,,,,,,,,,,,54,001,22,m,Psychologie,2023-01-23_15h30.26.053,00_bat_bachelor,2022.2.4,59.95160263635653,
,,,,,,,,,,,,0,0,0,0,121,0,121,0,,,,,,,121,,,1,1890.4284646232227,X,d,go,d,1,0.3630459502564918,,,,,,,,,,,,,,,,,,54,001,22,m,Psychologie,2023-01-23_15h30.26.053,00_bat_bachelor,2022.2.4,59.95160263635653,
,,,,,,,,,,,,0,0,0,0,122,0,122,0,,,,,,,122,,,1,1891.8962286975475,Y,l,go,l,1,0.2869415971363196,,,,,,,,,,,,,,,,,,54,001,22,m,Psychologie,2023-01-23_15h30.26.053,00_bat_bachelor,2022.2.4,59.95160263635653,
,,,,,,,,,,,,0,0,0,0,123,0,123,0,,,,,,,123,,,1,1893.2969759471162,X,d,go,d,1,0.2934715460287407,,,,,,,,,,,,,,,,,,54,001,22,m,Psychologie,2023-01-23_15h30.26.053,00_bat_bachelor,2022.2.4,59.95160263635653,
,,,,,,,,,,,,0,0,0,0,124,0,124,0,,,,,,,124,,,1,1894.6980999245097,Y,l,go,l,1,0.3318517230654834,,,,,,,,,,,,,,,,,,54,001,22,m,Psychologie,2023-01-23_15h30.26.053,00_bat_bachelor,2022.2.4,59.95160263635653,
,,,,,,,,,,,,0,0,0,0,125,0,125,0,,,,,,,125,,,1,1896.1326120716803,Y,None,nogo,None,1,,,,,,,,,,,,,,,,,,,54,001,22,m,Psychologie,2023-01-23_15h30.26.053,00_bat_bachelor,2022.2.4,59.95160263635653,
,,,,,,,,,,,,0,0,0,0,126,0,126,0,,,,,,,126,,,1,1897.9341060859733,X,d,go,d,1,0.31397193948578206,,,,,,,,,,,,,,,,,,54,001,22,m,Psychologie,2023-01-23_15h30.26.053,00_bat_bachelor,2022.2.4,59.95160263635653,
,,,,,,,,,,,,0,0,0,0,127,0,127,0,,,,,,,127,,,1,1899.3519176027912,Y,l,go,l,1,0.3033270755149715,,,,,,,,,,,,,,,,,,54,001,22,m,Psychologie,2023-01-23_15h30.26.053,00_bat_bachelor,2022.2.4,59.95160263635653,
,,,,,,,,,,,,0,0,0,0,128,0,128,0,,,,,,,128,,,1,1900.7694721495354,X,d,go,None,0,,1901.5702199809275,,,,,,,,,,,,,,,,,54,001,22,m,Psychologie,2023-01-23_15h30.26.053,00_bat_bachelor,2022.2.4,59.95160263635653,
,,,,,,,,,,,,0,0,0,0,129,0,129,0,,,,,,,129,,,1,1902.5709870123464,Y,l,go,l,1,0.41239050688091083,,,,,,,,,,,,,,,,,,54,001,22,m,Psychologie,2023-01-23_15h30.26.053,00_bat_bachelor,2022.2.4,59.95160263635653,
,,,,,,,,,,,,0,0,0,0,130,0,130,0,,,,,,,130,,,1,1904.0888534625774,X,d,go,d,1,0.4945074748065963,,,,,,,,,,,,,,,,,,54,001,22,m,Psychologie,2023-01-23_15h30.26.053,00_bat_bachelor,2022.2.4,59.95160263635653,
,,,,,,,,,,,,0,0,0,0,131,0,131,0,,,,,,,131,,,1,1905.6900577309934,X,None,nogo,None,1,,1906.4904293194122,,,,,,,,,,,,,,,,,54,001,22,m,Psychologie,2023-01-23_15h30.26.053,00_bat_bachelor,2022.2.4,59.95160263635653,
,,,,,,,,,,,,0,0,0,0,132,0,132,0,,,,,,,132,,,1,1907.4911968356828,X,None,nogo,None,1,,,,,,,,,,,,,,,,,,,54,001,22,m,Psychologie,2023-01-23_15h30.26.053,00_bat_bachelor,2022.2.4,59.95160263635653,
,,,,,,,,,,,,0,0,0,0,133,0,133,0,,,,,,,133,,,1,1909.2928978805794,Y,l,go,l,1,0.36237491897918517,,,,,,,,,,,,,,,,,,54,001,22,m,Psychologie,2023-01-23_15h30.26.053,00_bat_bachelor,2022.2.4,59.95160263635653,
,,,,,,,,,,,,0,0,0,0,134,0,134,0,,,,,,,134,,,1,1910.7603017119545,X,d,go,d,1,0.4155779054563027,,,,,,,,,,,,,,,,,,54,001,22,m,Psychologie,2023-01-23_15h30.26.053,00_bat_bachelor,2022.2.4,59.95160263635653,
,,,,,,,,,,,,0,0,0,0,135,0,135,0,,,,,,,135,,,1,1912.2785473142503,X,None,nogo,None,1,,,,,,,,,,,,,,,,,,,54,001,22,m,Psychologie,2023-01-23_15h30.26.053,00_bat_bachelor,2022.2.4,59.95160263635653,
,,,,,,,,,,,,0,0,0,0,136,0,136,0,,,,,,,136,,,1,1914.0798410858297,Y,l,go,l,1,0.3281198388503981,,,,,,,,,,,,,,,,,,54,001,22,m,Psychologie,2023-01-23_15h30.26.053,00_bat_bachelor,2022.2.4,59.95160263635653,
,,,,,,,,,,,,0,0,0,0,137,0,137,0,,,,,,,137,,,1,1915.5142940814003,X,d,go,d,1,0.38176937142998213,,,,,,,,,,,,,,,,,,54,001,22,m,Psychologie,2023-01-23_15h30.26.053,00_bat_bachelor,2022.2.4,59.95160263635653,
,,,,,,,,,,,,0,0,0,0,138,0,138,0,,,,,,,138,,,1,1916.9987956346122,Y,l,go,l,1,0.32004079679609276,,,,,,,,,,,,,,,,,,54,001,22,m,Psychologie,2023-01-23_15h30.26.053,00_bat_bachelor,2022.2.4,59.95160263635653,
,,,,,,,,,,,,0,0,0,0,139,0,139,0,,,,,,,139,,,1,1918.4331589330795,Y,None,nogo,None,1,,,,,,,,,,,,,,,,,,,54,001,22,m,Psychologie,2023-01-23_15h30.26.053,00_bat_bachelor,2022.2.4,59.95160263635653,
,,,,,,,,,,,,0,0,0,0,140,0,140,0,,,,,,,140,,,1,1920.2342510073977,X,d,go,d,1,0.4927081994646869,,,,,,,,,,,,,,,,,,54,001,22,m,Psychologie,2023-01-23_15h30.26.053,00_bat_bachelor,2022.2.4,59.95160263635653,
,,,,,,,,,,,,0,0,0,0,141,0,141,0,,,,,,,141,,,1,1921.8354882455606,Y,l,go,l,1,0.5080459187411179,,,,,,,,,,,,,,,,,,54,001,22,m,Psychologie,2023-01-23_15h30.26.053,00_bat_bachelor,2022.2.4,59.95160263635653,
,,,,,,,,,,,,0,0,0,0,142,0,142,0,,,,,,,142,,,1,1923.4537044175122,Y,None,nogo,None,1,,,,,,,,,,,,,,,,,,,54,001,22,m,Psychologie,2023-01-23_15h30.26.053,00_bat_bachelor,2022.2.4,59.95160263635653,
,,,,,,,,,,,,0,0,0,0,143,0,143,0,,,,,,,143,,,1,1925.2552600076524,X,d,go,d,1,0.656382619352371,,,,,,,,,,,,,,,,,,54,001,22,m,Psychologie,2023-01-23_15h30.26.053,00_bat_bachelor,2022.2.4,59.95160263635653,
,,,,,,,,,,,,0,0,0,0,144,0,144,0,,,,,,,144,,,1,1927.0227796694999,Y,l,go,l,1,0.4255808290945424,,,,,,,,,,,,,,,,,,54,001,22,m,Psychologie,2023-01-23_15h30.26.053,00_bat_bachelor,2022.2.4,59.95160263635653,
,,,,,,,,,,,,0,0,0,0,145,0,145,0,,,,,,,145,,,1,1928.55761050804,X,d,go,d,1,0.31377945435451693,,,,,,,,,,,,,,,,,,54,001,22,m,Psychologie,2023-01-23_15h30.26.053,00_bat_bachelor,2022.2.4,59.95160263635653,
,,,,,,,,,,,,0,0,0,0,146,0,146,0,,,,,,,146,,,1,1929.9752547518874,Y,l,go,l,1,0.33561657702739467,,,,,,,,,,,,,,,,,,54,001,22,m,Psychologie,2023-01-23_15h30.26.053,00_bat_bachelor,2022.2.4,59.95160263635653,
,,,,,,,,,,,,0,0,0,0,147,0,147,0,,,,,,,147,,,1,1931.426368620174,X,d,go,d,1,0.43682642120984383,,,,,,,,,,,,,,,,,,54,001,22,m,Psychologie,2023-01-23_15h30.26.053,00_bat_bachelor,2022.2.4,59.95160263635653,
,,,,,,,,,,,,0,0,0,0,148,0,148,0,,,,,,,148,,,1,1932.9776179068394,X,None,nogo,None,1,,,,,,,,,,,,,,,,,,,54,001,22,m,Psychologie,2023-01-23_15h30.26.053,00_bat_bachelor,2022.2.4,59.95160263635653,
,,,,,,,,,,,,0,0,0,0,149,0,149,0,,,,,,,149,,,1,1934.7791628302984,Y,l,go,l,1,0.4135977813639329,,,,,,,,,,,,,,,,,,54,001,22,m,Psychologie,2023-01-23_15h30.26.053,00_bat_bachelor,2022.2.4,59.95160263635653,
,,,,,,,,,,,,0,0,0,0,150,0,150,0,,,,,,,150,,,1,1936.296634613289,X,d,go,d,1,0.35057029574818444,,,,,,,,,,,,,,,,,,54,001,22,m,Psychologie,2023-01-23_15h30.26.053,00_bat_bachelor,2022.2.4,59.95160263635653,
,,,,,,,,,,,,0,0,0,0,151,0,151,0,,,,,,,151,,,1,1937.7479826637355,X,None,nogo,None,1,,,,,,,,,,,,,,,,,,,54,001,22,m,Psychologie,2023-01-23_15h30.26.053,00_bat_bachelor,2022.2.4,59.95160263635653,
,,,,,,,,,,,,0,0,0,0,152,0,152,0,,,,,,,152,,,1,1939.549023828884,Y,l,go,l,1,0.34686362369029666,,,,,,,,,,,,,,,,,,54,001,22,m,Psychologie,2023-01-23_15h30.26.053,00_bat_bachelor,2022.2.4,59.95160263635653,
,,,,,,,,,,,,0,0,0,0,153,0,153,0,,,,,,,153,,,1,1941.0002152730412,X,d,go,d,1,0.5432988185020804,,,,,,,,,,,,,,,,,,54,001,22,m,Psychologie,2023-01-23_15h30.26.053,00_bat_bachelor,2022.2.4,59.95160263635653,
,,,,,,,,,,,,0,0,0,0,154,0,154,0,,,,,,,154,,,1,1942.651705190361,Y,l,go,l,1,0.491007348504354,,,,,,,,,,,,,,,,,,54,001,22,m,Psychologie,2023-01-23_15h30.26.053,00_bat_bachelor,2022.2.4,59.95160263635653,
,,,,,,,,,,,,0,0,0,0,155,0,155,0,,,,,,,155,,,1,1944.2527707919107,Y,None,nogo,None,1,,,,,,,,,,,,,,,,,,,54,001,22,m,Psychologie,2023-01-23_15h30.26.053,00_bat_bachelor,2022.2.4,59.95160263635653,
,,,,,,,,,,,,0,0,0,0,156,0,156,0,,,,,,,156,,,1,1946.054035957386,X,d,go,d,1,0.3534275120255188,,,,,,,,,,,,,,,,,,54,001,22,m,Psychologie,2023-01-23_15h30.26.053,00_bat_bachelor,2022.2.4,59.95160263635653,
,,,,,,,,,,,,0,0,0,0,157,0,157,0,,,,,,,157,,,1,1947.521774334702,Y,l,go,l,1,0.3581795189384138,,,,,,,,,,,,,,,,,,54,001,22,m,Psychologie,2023-01-23_15h30.26.053,00_bat_bachelor,2022.2.4,59.95160263635653,
,,,,,,,,,,,,0,0,0,0,158,0,158,0,,,,,,,158,,,1,1948.9895655605833,Y,None,nogo,d,0,0.36247722215921385,,,,,,,,,,,,,,,,,,54,001,22,m,Psychologie,2023-01-23_15h30.26.053,00_bat_bachelor,2022.2.4,59.95160263635653,
,,,,,,,,,,,,0,0,0,0,159,0,159,0,,,,,,,159,,,1,1950.4573737561805,X,d,go,d,1,0.5256677625548036,,,,,,,,,,,,,,,,,,54,001,22,m,Psychologie,2023-01-23_15h30.26.053,00_bat_bachelor,2022.2.4,59.95160263635653,
,,,,,,,,,,,,0,0,0,0,160,0,160,0,,,,,,,160,,,1,1952.0923400131032,Y,l,go,l,1,0.38011409629689297,,,,,,,,,,,,,,,,,,54,001,22,m,Psychologie,2023-01-23_15h30.26.053,00_bat_bachelor,2022.2.4,59.95160263635653,
,,,,,,,,,,,,0,0,0,0,161,0,161,0,,,,,,,161,,,1,1953.5763305352702,X,d,go,d,1,0.4309568369171757,,,,,,,,,,,,,,,,,,54,001,22,m,Psychologie,2023-01-23_15h30.26.053,00_bat_bachelor,2022.2.4,59.95160263635653,
,,,,,,,,,,,,0,0,0,0,162,0,162,0,,,,,,,162,,,1,1955.11110319191,Y,l,go,l,1,0.496411477575748,,,,,,,,,,,,,,,,,,54,001,22,m,Psychologie,2023-01-23_15h30.26.053,00_bat_bachelor,2022.2.4,59.95160263635653,
,,,,,,,,,,,,0,0,0,0,163,0,163,0,,,,,,,163,,,1,1956.712476187844,Y,None,nogo,None,1,,1957.5130194128797,,,,,,,,,,,,,,,,,54,001,22,m,Psychologie,2023-01-23_15h30.26.053,00_bat_bachelor,2022.2.4,59.95160263635653,
,,,,,,,,,,,,0,0,0,0,164,0,164,0,,,,,,,164,,,1,1958.513565353067,X,d,go,d,1,0.5493880394824373,,,,,,,,,,,,,,,,,,54,001,22,m,Psychologie,2023-01-23_15h30.26.053,00_bat_bachelor,2022.2.4,59.95160263635653,
,,,,,,,,,,,,0,0,0,0,165,0,165,0,,,,,,,165,,,1,1960.1650698158592,Y,l,go,l,1,0.4979717222704494,,,,,,,,,,,,,,,,,,54,001,22,m,Psychologie,2023-01-23_15h30.26.053,00_bat_bachelor,2022.2.4,59.95160263635653,
,,,,,,,,,,,,0,0,0,0,166,0,166,0,,,,,,,166,,,1,1961.7661509325844,X,d,go,d,1,0.41653596745527466,,,,,,,,,,,,,,,,,,54,001,22,m,Psychologie,2023-01-23_15h30.26.053,00_bat_bachelor,2022.2.4,59.95160263635653,
,,,,,,,,,,,,0,0,0,0,167,0,167,0,,,,,,,167,,,1,1963.2841279284294,Y,l,go,l,1,0.46696367716867826,,,,,,,,,,,,,,,,,,54,001,22,m,Psychologie,2023-01-23_15h30.26.053,00_bat_bachelor,2022.2.4,59.95160263635653,
,,,,,,,,,,,,0,0,0,0,168,0,168,0,,,,,,,168,,,1,1964.852046330252,X,d,go,d,1,0.48349557999972603,,,,,,,,,,,,,,,,,,54,001,22,m,Psychologie,2023-01-23_15h30.26.053,00_bat_bachelor,2022.2.4,59.95160263635653,
,,,,,,,,,,,,0,0,0,0,169,0,169,0,,,,,,,169,,,1,1966.4364786954866,Y,l,go,l,1,0.40228576490699197,,,,,,,,,,,,,,,,,,54,001,22,m,Psychologie,2023-01-23_15h30.26.053,00_bat_bachelor,2022.2.4,59.95160263635653,
,,,,,,,,,,,,0,0,0,0,170,0,170,0,,,,,,,170,,,1,1967.95442563068,Y,None,nogo,None,1,,,,,,,,,,,,,,,,,,,54,001,22,m,Psychologie,2023-01-23_15h30.26.053,00_bat_bachelor,2022.2.4,59.95160263635653,
,,,,,,,,,,,,0,0,0,0,171,0,171,0,,,,,,,171,,,1,1969.755379522976,X,d,go,d,1,0.39585617979901144,,,,,,,,,,,,,,,,,,54,001,22,m,Psychologie,2023-01-23_15h30.26.053,00_bat_bachelor,2022.2.4,59.95160263635653,
,,,,,,,,,,,,0,0,0,0,172,0,172,0,,,,,,,172,,,1,1971.2569889798651,Y,l,go,l,1,0.3346153634483926,,,,,,,,,,,,,,,,,,54,001,22,m,Psychologie,2023-01-23_15h30.26.053,00_bat_bachelor,2022.2.4,59.95160263635653,
,,,,,,,,,,,,0,0,0,0,173,0,173,0,,,,,,,173,,,1,1972.7078434538344,X,d,go,d,1,0.3388451877835905,,,,,,,,,,,,,,,,,,54,001,22,m,Psychologie,2023-01-23_15h30.26.053,00_bat_bachelor,2022.2.4,59.95160263635653,
,,,,,,,,,,,,0,0,0,0,174,0,174,0,,,,,,,174,,,1,1974.158967503954,X,None,nogo,l,0,0.34522871221997775,,,,,,,,,,,,,,,,,,54,001,22,m,Psychologie,2023-01-23_15h30.26.053,00_bat_bachelor,2022.2.4,59.95160263635653,
,,,,,,,,,,,,0,0,0,0,175,0,175,0,,,,,,,175,,,1,1975.610145372335,Y,l,go,l,1,0.6050317567824095,,,,,,,,,,,,,,,,,,54,001,22,m,Psychologie,2023-01-23_15h30.26.053,00_bat_bachelor,2022.2.4,59.95160263635653,
,,,,,,,,,,,,0,0,0,0,176,0,176,0,,,,,,,176,,,1,1977.3284901747757,X,d,go,d,1,0.42316531043252326,,,,,,,,,,,,,,,,,,54,001,22,m,Psychologie,2023-01-23_15h30.26.053,00_bat_bachelor,2022.2.4,59.95160263635653,
,,,,,,,,,,,,0,0,0,0,177,0,177,0,,,,,,,177,,,1,1978.8630524068649,X,None,nogo,None,1,,,,,,,,,,,,,,,,,,,54,001,22,m,Psychologie,2023-01-23_15h30.26.053,00_bat_bachelor,2022.2.4,59.95160263635653,
,,,,,,,,,,,,0,0,0,0,178,0,178,0,,,,,,,178,,,1,1980.664350057239,Y,l,go,l,1,0.39819509229346295,,,,,,,,,,,,,,,,,,54,001,22,m,Psychologie,2023-01-23_15h30.26.053,00_bat_bachelor,2022.2.4,59.95160263635653,
,,,,,,,,,,,,0,0,0,0,179,0,179,0,,,,,,,179,,,1,1982.1655241195513,X,d,go,d,1,0.4652293716171698,,,,,,,,,,,,,,,,,,54,001,22,m,Psychologie,2023-01-23_15h30.26.053,00_bat_bachelor,2022.2.4,59.95160263635653,
,,,,,,,,,,,,0,0,0,0,180,0,180,0,,,,,,,180,,,1,1983.733303369656,Y,l,go,l,1,0.32099449515226297,,,,,,,,,,,,,,,,,,54,001,22,m,Psychologie,2023-01-23_15h30.26.053,00_bat_bachelor,2022.2.4,59.95160263635653,
,,,,,,,,,,,,0,0,0,0,181,0,181,0,,,,,,,181,,,1,1985.167770910699,X,d,go,d,1,0.5035392455210967,,,,,,,,,,,,,,,,,,54,001,22,m,Psychologie,2023-01-23_15h30.26.053,00_bat_bachelor,2022.2.4,59.95160263635653,
,,,,,,,,,,,,0,0,0,0,182,0,182,0,,,,,,,182,,,1,1986.7855070819496,Y,l,go,l,1,0.2774429166529444,,,,,,,,,,,,,,,,,,54,001,22,m,Psychologie,2023-01-23_15h30.26.053,00_bat_bachelor,2022.2.4,59.95160263635653,
,,,,,,,,,,,,0,0,0,0,183,0,183,0,,,,,,,183,,,1,1988.1697602469249,X,d,go,d,1,0.44579031303874217,,,,,,,,,,,,,,,,,,54,001,22,m,Psychologie,2023-01-23_15h30.26.053,00_bat_bachelor,2022.2.4,59.95160263635653,
,,,,,,,,,,,,0,0,0,0,184,0,184,0,,,,,,,184,,,1,1989.7208723212716,Y,l,go,l,1,0.5423848777827516,,,,,,,,,,,,,,,,,,54,001,22,m,Psychologie,2023-01-23_15h30.26.053,00_bat_bachelor,2022.2.4,59.95160263635653,
,,,,,,,,,,,,0,0,0,0,185,0,185,0,,,,,,,185,,,1,1991.3719360561518,X,d,go,d,1,0.6035073909260973,,,,,,,,,,,,,,,,,,54,001,22,m,Psychologie,2023-01-23_15h30.26.053,00_bat_bachelor,2022.2.4,59.95160263635653,
,,,,,,,,,,,,0,0,0,0,186,0,186,0,,,,,,,186,,,1,1993.090275040402,Y,l,go,None,0,,,,,,,,,,,,,,,,,,,54,001,22,m,Psychologie,2023-01-23_15h30.26.053,00_bat_bachelor,2022.2.4,59.95160263635653,
,,,,,,,,,,,,0,0,0,0,187,0,187,0,,,,,,,187,,,1,1994.8915862665526,Y,None,nogo,None,1,,1995.691887066987,,,,,,,,,,,,,,,,,54,001,22,m,Psychologie,2023-01-23_15h30.26.053,00_bat_bachelor,2022.2.4,59.95160263635653,
,,,,,,,,,,,,0,0,0,0,188,0,188,0,,,,,,,188,,,1,1996.6929517958088,X,d,go,None,0,,,,,,,,,,,,,,,,,,,54,001,22,m,Psychologie,2023-01-23_15h30.26.053,00_bat_bachelor,2022.2.4,59.95160263635653,
,,,,,,,,,,,,0,0,0,0,189,0,189,0,,,,,,,189,,,1,1998.494044354975,Y,l,go,l,1,0.3770120311783103,,,,,,,,,,,,,,,,,,54,001,22,m,Psychologie,2023-01-23_15h30.26.053,00_bat_bachelor,2022.2.4,59.95160263635653,
,,,,,,,,,,,,0,0,0,0,190,0,190,0,,,,,,,190,,,1,1999.9787582721365,Y,None,nogo,d,0,0.20461953800258925,,,,,,,,,,,,,,,,,,54,001,22,m,Psychologie,2023-01-23_15h30.26.053,00_bat_bachelor,2022.2.4,59.95160263635653,
,,,,,,,,,,,,0,0,0,0,191,0,191,0,,,,,,,191,,,1,2001.2965221282757,X,d,go,None,0,,2002.0967443831432,,,,,,,,,,,,,,,,,54,001,22,m,Psychologie,2023-01-23_15h30.26.053,00_bat_bachelor,2022.2.4,59.95160263635653,
,,,,,,,,,,,,0,0,0,0,192,0,192,0,,,,,,,192,,,1,2003.0978047483222,Y,l,go,l,1,0.3821179779988597,,,,,,,,,,,,,,,,,,54,001,22,m,Psychologie,2023-01-23_15h30.26.053,00_bat_bachelor,2022.2.4,59.95160263635653,
,,,,,,,,,,,,0,0,0,0,193,0,193,0,,,,,,,193,,,1,2004.5822970894042,Y,None,nogo,None,1,,,,,,,,,,,,,,,,,,,54,001,22,m,Psychologie,2023-01-23_15h30.26.053,00_bat_bachelor,2022.2.4,59.95160263635653,
,,,,,,,,,,,,0,0,0,0,194,0,194,0,,,,,,,194,,,1,2006.383714497526,X,d,go,d,1,0.3440442256505776,,,,,,,,,,,,,,,,,,54,001,22,m,Psychologie,2023-01-23_15h30.26.053,00_bat_bachelor,2022.2.4,59.95160263635653,
,,,,,,,,,,,,0,0,0,0,195,0,195,0,,,,,,,195,,,1,2007.8344797592435,Y,l,go,l,1,0.3657038935198216,,,,,,,,,,,,,,,,,,54,001,22,m,Psychologie,2023-01-23_15h30.26.053,00_bat_bachelor,2022.2.4,59.95160263635653,
,,,,,,,,,,,,0,0,0,0,196,0,196,0,,,,,,,196,,,1,2009.3025943795328,Y,None,nogo,d,0,0.36874729188275523,,,,,,,,,,,,,,,,,,54,001,22,m,Psychologie,2023-01-23_15h30.26.053,00_bat_bachelor,2022.2.4,59.95160263635653,
,,,,,,,,,,,,0,0,0,0,197,0,197,0,,,,,,,197,,,1,2010.7870881751587,X,d,go,None,0,,,,,,,,,,,,,,,,,,,54,001,22,m,Psychologie,2023-01-23_15h30.26.053,00_bat_bachelor,2022.2.4,59.95160263635653,
,,,,,,,,,,,,0,0,0,0,198,0,198,0,,,,,,,198,,,1,2012.5887940685498,Y,l,go,l,1,0.4892201943912369,,,,,,,,,,,,,,,,,,54,001,22,m,Psychologie,2023-01-23_15h30.26.053,00_bat_bachelor,2022.2.4,59.95160263635653,
,,,,,,,,,,,,0,0,0,0,199,0,199,0,,,,,,,199,,,1,2014.2067450279937,Y,None,nogo,d,0,0.32816056617957656,,,,,,,,,,,,,,,,,,54,001,22,m,Psychologie,2023-01-23_15h30.26.053,00_bat_bachelor,2022.2.4,59.95160263635653,
,,,,,,,,,,,,0,0,0,0,200,0,200,0,,,,,,,200,,,1,2015.6580727147739,X,d,go,d,1,0.3800040355308738,,,,,,,,,,,,,,,,,,54,001,22,m,Psychologie,2023-01-23_15h30.26.053,00_bat_bachelor,2022.2.4,59.95160263635653,
,,,,,,,,,,,,0,0,0,0,201,0,201,0,,,,,,,201,,,1,2017.1754388006411,Y,l,go,l,1,0.31893146185029764,,,,,,,,,,,,,,,,,,54,001,22,m,Psychologie,2023-01-23_15h30.26.053,00_bat_bachelor,2022.2.4,59.95160263635653,
,,,,,,,,,,,,0,0,0,0,202,0,202,0,,,,,,,202,,,1,2018.6098568870657,Y,None,nogo,None,1,,2019.4107157489198,,,,,,,,,,,,,,,,,54,001,22,m,Psychologie,2023-01-23_15h30.26.053,00_bat_bachelor,2022.2.4,59.95160263635653,
,,,,,,,,,,,,0,0,0,0,203,0,203,0,,,,,,,203,,,1,2020.4113804771623,X,d,go,d,1,0.28417359311060864,,,,,,,,,,,,,,,,,,54,001,22,m,Psychologie,2023-01-23_15h30.26.053,00_bat_bachelor,2022.2.4,59.95160263635653,
,,,,,,,,,,,,0,0,0,0,204,0,204,0,,,,,,,204,,,1,2021.8124671211663,Y,l,go,l,1,0.2749158826736675,,,,,,,,,,,,,,,,,,54,001,22,m,Psychologie,2023-01-23_15h30.26.053,00_bat_bachelor,2022.2.4,59.95160263635653,
,,,,,,,,,,,,0,0,0,0,205,0,205,0,,,,,,,205,,,1,2023.1970010138211,Y,None,nogo,None,1,,2023.9975907843764,,,,,,,,,,,,,,,,,54,001,22,m,Psychologie,2023-01-23_15h30.26.053,00_bat_bachelor,2022.2.4,59.95160263635653,
,,,,,,,,,,,,0,0,0,0,206,0,206,0,,,,,,,206,,,1,2024.9984741795997,X,d,go,d,1,0.5611902384662244,,,,,,,,,,,,,,,,,,54,001,22,m,Psychologie,2023-01-23_15h30.26.053,00_bat_bachelor,2022.2.4,59.95160263635653,
,,,,,,,,,,,,0,0,0,0,207,0,207,0,,,,,,,207,,,1,2026.6662429084754,Y,l,go,l,1,0.332374390491168,,,,,,,,,,,,,,,,,,54,001,22,m,Psychologie,2023-01-23_15h30.26.053,00_bat_bachelor,2022.2.4,59.95160263635653,
,,,,,,,,,,,,0,0,0,0,208,0,208,0,,,,,,,208,,,1,2028.1006469342756,X,d,go,d,1,0.22652066076625488,,,,,,,,,,,,,,,,,,54,001,22,m,Psychologie,2023-01-23_15h30.26.053,00_bat_bachelor,2022.2.4,59.95160263635653,
,,,,,,,,,,,,0,0,0,0,209,0,209,0,,,,,,,209,,,1,2029.434995056963,X,None,nogo,None,1,,2030.2355329486563,,,,,,,,,,,,,,,,,54,001,22,m,Psychologie,2023-01-23_15h30.26.053,00_bat_bachelor,2022.2.4,59.95160263635653,
,,,,,,,,,,,,0,0,0,0,210,0,210,0,,,,,,,210,,,1,2031.2362805861048,Y,l,go,l,1,0.4666737373518117,,,,,,,,,,,,,,,,,,54,001,22,m,Psychologie,2023-01-23_15h30.26.053,00_bat_bachelor,2022.2.4,59.95160263635653,
,,,,,,,,,,,,0,0,0,0,211,0,211,0,,,,,,,211,,,1,2032.8041592302943,X,d,go,d,1,0.4019027340473258,,,,,,,,,,,,,,,,,,54,001,22,m,Psychologie,2023-01-23_15h30.26.053,00_bat_bachelor,2022.2.4,59.95160263635653,
,,,,,,,,,,,,0,0,0,0,212,0,212,0,,,,,,,212,,,1,2034.3387665533592,Y,l,go,l,1,0.2607878621238342,,,,,,,,,,,,,,,,,,54,001,22,m,Psychologie,2023-01-23_15h30.26.053,00_bat_bachelor,2022.2.4,59.95160263635653,
,,,,,,,,,,,,0,0,0,0,213,0,213,0,,,,,,,213,,,1,2035.7064640578901,Y,None,nogo,d,0,0.3001236769159732,,,,,,,,,,,,,,,,,,54,001,22,m,Psychologie,2023-01-23_15h30.26.053,00_bat_bachelor,2022.2.4,59.95160263635653,
,,,,,,,,,,,,0,0,0,0,214,0,214,0,,,,,,,214,,,1,2037.1075371261177,X,d,go,d,1,0.46741119297075784,,,,,,,,,,,,,,,,,,54,001,22,m,Psychologie,2023-01-23_15h30.26.053,00_bat_bachelor,2022.2.4,59.95160263635653,
,,,,,,,,,,,,0,0,0,0,215,0,215,0,,,,,,,215,,,1,2038.675439527913,Y,l,go,l,1,0.3244572880685155,,,,,,,,,,,,,,,,,,54,001,22,m,Psychologie,2023-01-23_15h30.26.053,00_bat_bachelor,2022.2.4,59.95160263635653,
,,,,,,,,,,,,0,0,0,0,216,0,216,0,,,,,,,216,,,1,2040.1098168870085,X,d,go,d,1,0.3453950154944323,,,,,,,,,,,,,,,,,,54,001,22,m,Psychologie,2023-01-23_15h30.26.053,00_bat_bachelor,2022.2.4,59.95160263635653,
,,,,,,,,,,,,0,0,0,0,217,0,217,0,,,,,,,217,,,1,2041.5607794823482,X,None,nogo,d,0,0.38190997769561363,,,,,,,,,,,,,,,,,,54,001,22,m,Psychologie,2023-01-23_15h30.26.053,00_bat_bachelor,2022.2.4,59.95160263635653,
,,,,,,,,,,,,0,0,0,0,218,0,218,0,,,,,,,218,,,1,2043.0454080660493,Y,l,go,l,1,0.6095704300496436,,,,,,,,,,,,,,,,,,54,001,22,m,Psychologie,2023-01-23_15h30.26.053,00_bat_bachelor,2022.2.4,59.95160263635653,
,,,,,,,,,,,,0,0,0,0,219,0,219,0,,,,,,,219,,,1,2044.7634435347063,X,d,go,d,1,0.46003663679221063,,,,,,,,,,,,,,,,,,54,001,22,m,Psychologie,2023-01-23_15h30.26.053,00_bat_bachelor,2022.2.4,59.95160263635653,
,,,,,,,,,,,,0,0,0,0,220,0,220,0,,,,,,,220,,,1,2046.331054057293,X,None,nogo,d,0,0.44365455235310947,,,,,,,,,,,,,,,,,,54,001,22,m,Psychologie,2023-01-23_15h30.26.053,00_bat_bachelor,2022.2.4,59.95160263635653,
,,,,,,,,,,,,0,0,0,0,221,0,221,0,,,,,,,221,,,1,2047.8824914654433,Y,l,go,l,1,0.5562234433637059,,,,,,,,,,,,,,,,,,54,001,22,m,Psychologie,2023-01-23_15h30.26.053,00_bat_bachelor,2022.2.4,59.95160263635653,
,,,,,,,,,,,,0,0,0,0,222,0,222,0,,,,,,,222,,,1,2049.5502078306054,X,d,go,d,1,0.40851995579578215,,,,,,,,,,,,,,,,,,54,001,22,m,Psychologie,2023-01-23_15h30.26.053,00_bat_bachelor,2022.2.4,59.95160263635653,
,,,,,,,,,,,,0,0,0,0,223,0,223,0,,,,,,,223,,,1,2051.0683264024156,Y,l,go,l,1,0.39552793690018007,,,,,,,,,,,,,,,,,,54,001,22,m,Psychologie,2023-01-23_15h30.26.053,00_bat_bachelor,2022.2.4,59.95160263635653,
,,,,,,,,,,,,0,0,0,0,224,0,224,0,,,,,,,224,,,1,2052.569128100553,Y,None,nogo,d,0,0.5905895539581252,,,,,,,,,,,,,,,,,,54,001,22,m,Psychologie,2023-01-23_15h30.26.053,00_bat_bachelor,2022.2.4,59.95160263635653,
,,,,,,,,,,,,0,0,0,0,225,0,225,0,,,,,,,225,,,1,2054.2706830603893,X,d,go,d,1,0.5047857927856967,,,,,,,,,,,,,,,,,,54,001,22,m,Psychologie,2023-01-23_15h30.26.053,00_bat_bachelor,2022.2.4,59.95160263635653,
,,,,,,,,,,,,0,0,0,0,226,0,226,0,,,,,,,226,,,1,2055.888406625563,Y,l,go,l,1,0.3747056035826972,,,,,,,,,,,,,,,,,,54,001,22,m,Psychologie,2023-01-23_15h30.26.053,00_bat_bachelor,2022.2.4,59.95160263635653,
,,,,,,,,,,,,0,0,0,0,227,0,227,0,,,,,,,227,,,1,2057.3731084214924,Y,None,nogo,None,1,,2058.173642434391,,,,,,,,,,,,,,,,,54,001,22,m,Psychologie,2023-01-23_15h30.26.053,00_bat_bachelor,2022.2.4,59.95160263635653,
,,,,,,,,,,,,0,0,0,0,228,0,228,0,,,,,,,228,,,1,2059.1743852233485,X,d,go,d,1,0.3688578375003999,,,,,,,,,,,,,,,,,,54,001,22,m,Psychologie,2023-01-23_15h30.26.053,00_bat_bachelor,2022.2.4,59.95160263635653,
,,,,,,,,,,,,0,0,0,0,229,0,229,0,,,,,,,229,,,1,2060.65889453415,Y,l,go,l,1,0.4358189045924519,,,,,,,,,,,,,,,,,,54,001,22,m,Psychologie,2023-01-23_15h30.26.053,00_bat_bachelor,2022.2.4,59.95160263635653,
,,,,,,,,,,,,0,0,0,0,230,0,230,0,,,,,,,230,,,1,2062.2100560631116,X,d,go,d,1,0.37325348025842686,,,,,,,,,,,,,,,,,,54,001,22,m,Psychologie,2023-01-23_15h30.26.053,00_bat_bachelor,2022.2.4,59.95160263635653,
,,,,,,,,,,,,0,0,0,0,231,0,231,0,,,,,,,231,,,1,2063.694356888762,X,None,nogo,l,0,0.3776243957072438,,,,,,,,,,,,,,,,,,54,001,22,m,Psychologie,2023-01-23_15h30.26.053,00_bat_bachelor,2022.2.4,59.95160263635653,
,,,,,,,,,,,,0,0,0,0,232,0,232,0,,,,,,,232,,,1,2065.1789946846,Y,l,go,None,0,,2065.9793745154566,,,,,,,,,,,,,,,,,54,001,22,m,Psychologie,2023-01-23_15h30.26.053,00_bat_bachelor,2022.2.4,59.95160263635653,
,,,,,,,,,,,,0,0,0,0,233,0,233,0,,,,,,,233,,,1,2066.980118758962,X,d,go,d,1,0.3224214063193358,,,,,,,,,,,,,,,,,,54,001,22,m,Psychologie,2023-01-23_15h30.26.053,00_bat_bachelor,2022.2.4,59.95160263635653,
,,,,,,,,,,,,0,0,0,0,234,0,234,0,,,,,,,234,,,1,2068.4145067847385,X,None,nogo,None,1,,,,,,,,,,,,,,,,,,,54,001,22,m,Psychologie,2023-01-23_15h30.26.053,00_bat_bachelor,2022.2.4,59.95160263635653,
,,,,,,,,,,,,0,0,0,0,235,0,235,0,,,,,,,235,,,1,2070.2159464959223,X,None,nogo,d,0,0.46429409752818174,,,,,,,,,,,,,,,,,,54,001,22,m,Psychologie,2023-01-23_15h30.26.053,00_bat_bachelor,2022.2.4,59.95160263635653,
,,,,,,,,,,,,0,0,0,0,236,0,236,0,,,,,,,236,,,1,2071.7835987155377,Y,l,go,l,1,0.5596658726135502,,,,,,,,,,,,,,,,,,54,001,22,m,Psychologie,2023-01-23_15h30.26.053,00_bat_bachelor,2022.2.4,59.95160263635653,
,,,,,,,,,,,,0,0,0,0,237,0,237,0,,,,,,,237,,,1,2073.451280656409,X,d,go,d,1,0.3485363533945929,,,,,,,,,,,,,,,,,,54,001,22,m,Psychologie,2023-01-23_15h30.26.053,00_bat_bachelor,2022.2.4,59.95160263635653,
,,,,,,,,,,,,0,0,0,0,238,0,238,0,,,,,,,238,,,1,2074.902378039824,X,None,nogo,d,0,0.5293943134311121,,,,,,,,,,,,,,,,,,54,001,22,m,Psychologie,2023-01-23_15h30.26.053,00_bat_bachelor,2022.2.4,59.95160263635653,
,,,,,,,,,,,,0,0,0,0,239,0,239,0,,,,,,,239,,,1,2076.5369316900833,X,None,nogo,None,1,,2077.3375874001285,,,,,,,,,,,,,,,,,54,001,22,m,Psychologie,2023-01-23_15h30.26.053,00_bat_bachelor,2022.2.4,59.95160263635653,
,,,,,,,,,,,,0,0,0,0,240,0,240,0,,,,,,,240,,,1,2078.3387112805503,Y,l,go,l,1,0.4524560197023675,,,,,,,,,,,,,,,,,,54,001,22,m,Psychologie,2023-01-23_15h30.26.053,00_bat_bachelor,2022.2.4,59.95160263635653,
,,,,,,,,,,,,0,0,0,0,241,0,241,0,,,,,,,241,,,1,2079.9065191367554,X,d,go,d,1,0.3880544714847929,,,,,,,,,,,,,,,,,,54,001,22,m,Psychologie,2023-01-23_15h30.26.053,00_bat_bachelor,2022.2.4,59.95160263635653,
,,,,,,,,,,,,0,0,0,0,242,0,242,0,,,,,,,242,,,1,2081.4073862895348,X,None,nogo,None,1,,,,,,,,,,,,,,,,,,,54,001,22,m,Psychologie,2023-01-23_15h30.26.053,00_bat_bachelor,2022.2.4,59.95160263635653,
,,,,,,,,,,,,0,0,0,0,243,0,243,0,,,,,,,243,,,1,2083.2091935164026,Y,l,go,l,1,0.4303439875402546,,,,,,,,,,,,,,,,,,54,001,22,m,Psychologie,2023-01-23_15h30.26.053,00_bat_bachelor,2022.2.4,59.95160263635653,
,,,,,,,,,,,,0,0,0,0,244,0,244,0,,,,,,,244,,,1,2084.7434701723214,X,d,go,None,0,,,,,,,,,,,,,,,,,,,54,001,22,m,Psychologie,2023-01-23_15h30.26.053,00_bat_bachelor,2022.2.4,59.95160263635653,
,,,,,,,,,,,,0,0,0,0,245,0,245,0,,,,,,,245,,,1,2086.544888550143,X,None,nogo,None,1,,,,,,,,,,,,,,,,,,,54,001,22,m,Psychologie,2023-01-23_15h30.26.053,00_bat_bachelor,2022.2.4,59.95160263635653,
,,,,,,,,,,,,0,0,0,0,246,0,246,0,,,,,,,246,,,1,2088.34645335242,Y,l,go,l,1,0.36566704497818137,,,,,,,,,,,,,,,,,,54,001,22,m,Psychologie,2023-01-23_15h30.26.053,00_bat_bachelor,2022.2.4,59.95160263635653,
,,,,,,,,,,,,0,0,0,0,247,0,247,0,,,,,,,247,,,1,2089.8141946388314,X,d,go,d,1,0.32181389028482954,,,,,,,,,,,,,,,,,,54,001,22,m,Psychologie,2023-01-23_15h30.26.053,00_bat_bachelor,2022.2.4,59.95160263635653,
,,,,,,,,,,,,0,0,0,0,248,0,248,0,,,,,,,248,,,1,2091.2485530888043,X,None,nogo,d,0,0.40607195223492454,,,,,,,,,,,,,,,,,,54,001,22,m,Psychologie,2023-01-23_15h30.26.053,00_bat_bachelor,2022.2.4,59.95160263635653,
,,,,,,,,,,,,0,0,0,0,249,0,249,0,,,,,,,249,,,1,2092.7664588118205,Y,l,go,l,1,0.4416734585647646,,,,,,,,,,,,,,,,,,54,001,22,m,Psychologie,2023-01-23_15h30.26.053,00_bat_bachelor,2022.2.4,59.95160263635653,
,,,,,,,,,,,,1,0,1,0,0,0,0,0,,,,,,,0,,,0.2,2099.155223983358,X,d,go,d,1,0.43560557095042896,,,,,,,,,2093.3311287240685,space,5.591996586306777,,,,,,,54,001,22,m,Psychologie,2023-01-23_15h30.26.053,00_bat_bachelor,2022.2.4,59.95160263635653,
,,,,,,,,,,,,1,0,1,0,1,0,1,0,,,,,,,1,,,0.2,2099.9057874993305,Y,l,go,l,1,0.4540492341402569,,,,,,,,,,,,,,,,,,54,001,22,m,Psychologie,2023-01-23_15h30.26.053,00_bat_bachelor,2022.2.4,59.95160263635653,
,,,,,,,,,,,,1,0,1,0,2,0,2,0,,,,,,,2,,,0.2,2100.6894618513397,X,d,go,d,1,0.48572249233257025,,,,,,,,,,,,,,,,,,54,001,22,m,Psychologie,2023-01-23_15h30.26.053,00_bat_bachelor,2022.2.4,59.95160263635653,
,,,,,,,,,,,,1,0,1,0,3,0,3,0,,,,,,,3,,,0.2,2101.4903439859554,Y,l,go,l,1,0.4212011863637599,,,,,,,,,,,,,,,,,,54,001,22,m,Psychologie,2023-01-23_15h30.26.053,00_bat_bachelor,2022.2.4,59.95160263635653,
,,,,,,,,,,,,1,0,1,0,4,0,4,0,,,,,,,4,,,0.2,2102.224284447446,X,d,go,d,1,0.4075749847252155,,,,,,,,,,,,,,,,,,54,001,22,m,Psychologie,2023-01-23_15h30.26.053,00_bat_bachelor,2022.2.4,59.95160263635653,
,,,,,,,,,,,,1,0,1,0,5,0,5,0,,,,,,,5,,,0.2,2102.958127454247,Y,l,go,l,1,0.2961319135320082,,,,,,,,,,,,,,,,,,54,001,22,m,Psychologie,2023-01-23_15h30.26.053,00_bat_bachelor,2022.2.4,59.95160263635653,
,,,,,,,,,,,,1,0,1,0,6,0,6,0,,,,,,,6,,,0.2,2103.5919281337156,X,d,go,d,1,0.3033416209909774,,,,,,,,,,,,,,,,,,54,001,22,m,Psychologie,2023-01-23_15h30.26.053,00_bat_bachelor,2022.2.4,59.95160263635653,
,,,,,,,,,,,,1,0,1,0,7,0,7,0,,,,,,,7,,,0.2,2104.2088560613665,Y,l,go,l,1,0.3578100638515025,,,,,,,,,,,,,,,,,,54,001,22,m,Psychologie,2023-01-23_15h30.26.053,00_bat_bachelor,2022.2.4,59.95160263635653,
,,,,,,,,,,,,1,0,1,0,8,0,8,0,,,,,,,8,,,0.2,2104.8760502439545,Y,None,nogo,d,0,0.34644180489704013,,,,,,,,,,,,,,,,,,54,001,22,m,Psychologie,2023-01-23_15h30.26.053,00_bat_bachelor,2022.2.4,59.95160263635653,
,,,,,,,,,,,,1,0,1,0,9,0,9,0,,,,,,,9,,,0.2,2105.5434330328753,X,d,go,None,0,,2106.343912742661,,,,,,,,,,,,,,,,,54,001,22,m,Psychologie,2023-01-23_15h30.26.053,00_bat_bachelor,2022.2.4,59.95160263635653,
,,,,,,,,,,,,1,0,1,0,10,0,10,0,,,,,,,10,,,0.2,2106.5442844280515,Y,l,go,l,1,0.5674079444797826,,,,,,,,,,,,,,,,,,54,001,22,m,Psychologie,2023-01-23_15h30.26.053,00_bat_bachelor,2022.2.4,59.95160263635653,
,,,,,,,,,,,,1,0,1,0,11,0,11,0,,,,,,,11,,,0.2,2107.411294658854,Y,None,nogo,None,1,,2108.211977035604,,,,,,,,,,,,,,,,,54,001,22,m,Psychologie,2023-01-23_15h30.26.053,00_bat_bachelor,2022.2.4,59.95160263635653,
,,,,,,,,,,,,1,0,1,0,12,0,12,0,,,,,,,12,,,0.2,2108.4123055694145,X,d,go,d,1,0.42659270935473614,,,,,,,,,,,,,,,,,,54,001,22,m,Psychologie,2023-01-23_15h30.26.053,00_bat_bachelor,2022.2.4,59.95160263635653,
,,,,,,,,,,,,1,0,1,0,13,0,13,0,,,,,,,13,,,0.2,2109.1793302002407,Y,l,go,None,0,,2109.980173062071,,,,,,,,,,,,,,,,,54,001,22,m,Psychologie,2023-01-23_15h30.26.053,00_bat_bachelor,2022.2.4,59.95160263635653,
,,,,,,,,,,,,1,0,1,0,14,0,14,0,,,,,,,14,,,0.2,2110.180122928665,Y,None,nogo,None,1,,2110.980961426856,,,,,,,,,,,,,,,,,54,001,22,m,Psychologie,2023-01-23_15h30.26.053,00_bat_bachelor,2022.2.4,59.95160263635653,
,,,,,,,,,,,,1,0,1,0,15,0,15,0,,,,,,,15,,,0.2,2111.1810518997117,X,d,go,d,1,0.4261374359666661,,,,,,,,,,,,,,,,,,54,001,22,m,Psychologie,2023-01-23_15h30.26.053,00_bat_bachelor,2022.2.4,59.95160263635653,
,,,,,,,,,,,,1,0,1,0,16,0,16,0,,,,,,,16,,,0.2,2111.9147223002037,Y,l,go,l,1,0.571455950368545,,,,,,,,,,,,,,,,,,54,001,22,m,Psychologie,2023-01-23_15h30.26.053,00_bat_bachelor,2022.2.4,59.95160263635653,
,,,,,,,,,,,,1,0,1,0,17,0,17,0,,,,,,,17,,,0.2,2112.8156263984893,Y,None,nogo,None,1,,2113.6162830782305,,,,,,,,,,,,,,,,,54,001,22,m,Psychologie,2023-01-23_15h30.26.053,00_bat_bachelor,2022.2.4,59.95160263635653,
,,,,,,,,,,,,1,0,1,0,18,0,18,0,,,,,,,18,,,0.2,2113.8163817935274,X,d,go,d,1,0.4468215872620931,,,,,,,,,,,,,,,,,,54,001,22,m,Psychologie,2023-01-23_15h30.26.053,00_bat_bachelor,2022.2.4,59.95160263635653,
,,,,,,,,,,,,1,0,1,0,19,0,19,0,,,,,,,19,,,0.2,2114.5667188849256,Y,l,go,None,0,,2115.367796898616,,,,,,,,,,,,,,,,,54,001,22,m,Psychologie,2023-01-23_15h30.26.053,00_bat_bachelor,2022.2.4,59.95160263635653,
,,,,,,,,,,,,1,0,1,0,20,0,20,0,,,,,,,20,,,0.2,2115.567708462124,X,d,go,d,1,0.552217134507373,,,,,,,,,,,,,,,,,,54,001,22,m,Psychologie,2023-01-23_15h30.26.053,00_bat_bachelor,2022.2.4,59.95160263635653,
,,,,,,,,,,,,1,0,1,0,21,0,21,0,,,,,,,21,,,0.2,2116.4348641476827,Y,l,go,l,1,0.43641672364537953,,,,,,,,,,,,,,,,,,54,001,22,m,Psychologie,2023-01-23_15h30.26.053,00_bat_bachelor,2022.2.4,59.95160263635653,
,,,,,,,,,,,,1,0,1,0,22,0,22,0,,,,,,,22,,,0.2,2117.1856565124726,X,d,go,d,1,0.4214193685002101,,,,,,,,,,,,,,,,,,54,001,22,m,Psychologie,2023-01-23_15h30.26.053,00_bat_bachelor,2022.2.4,59.95160263635653,
,,,,,,,,,,,,1,0,1,0,23,0,23,0,,,,,,,23,,,0.2,2117.919293458366,Y,l,go,l,1,0.35990024870989146,,,,,,,,,,,,,,,,,,54,001,22,m,Psychologie,2023-01-23_15h30.26.053,00_bat_bachelor,2022.2.4,59.95160263635653,
,,,,,,,,,,,,1,0,1,0,24,0,24,0,,,,,,,24,,,0.2,2118.603147543974,X,d,go,d,1,0.3801843994297087,,,,,,,,,,,,,,,,,,54,001,22,m,Psychologie,2023-01-23_15h30.26.053,00_bat_bachelor,2022.2.4,59.95160263635653,
,,,,,,,,,,,,1,0,1,0,25,0,25,0,,,,,,,25,,,0.2,2119.3040014118815,Y,l,go,l,1,0.31843449142979807,,,,,,,,,,,,,,,,,,54,001,22,m,Psychologie,2023-01-23_15h30.26.053,00_bat_bachelor,2022.2.4,59.95160263635653,
,,,,,,,,,,,,1,0,1,0,26,0,26,0,,,,,,,26,,,0.2,2119.9540086603774,X,d,go,d,1,0.37369614756607916,,,,,,,,,,,,,,,,,,54,001,22,m,Psychologie,2023-01-23_15h30.26.053,00_bat_bachelor,2022.2.4,59.95160263635653,
,,,,,,,,,,,,1,0,1,0,27,0,27,0,,,,,,,27,,,0.2,2120.638065897794,X,None,nogo,None,1,,,,,,,,,,,,,,,,,,,54,001,22,m,Psychologie,2023-01-23_15h30.26.053,00_bat_bachelor,2022.2.4,59.95160263635653,
,,,,,,,,,,,,1,0,1,0,28,0,28,0,,,,,,,28,,,0.2,2121.6387723230655,Y,l,go,l,1,0.49699087236149353,,,,,,,,,,,,,,,,,,54,001,22,m,Psychologie,2023-01-23_15h30.26.053,00_bat_bachelor,2022.2.4,59.95160263635653,
,,,,,,,,,,,,1,0,1,0,29,0,29,0,,,,,,,29,,,0.2,2122.4394256088635,X,d,go,d,1,0.4159861484768044,,,,,,,,,,,,,,,,,,54,001,22,m,Psychologie,2023-01-23_15h30.26.053,00_bat_bachelor,2022.2.4,59.95160263635653,
,,,,,,,,,,,,1,0,1,0,30,0,30,0,,,,,,,30,,,0.2,2123.156614045987,X,None,nogo,l,0,0.3704646277183201,,,,,,,,,,,,,,,,,,54,001,22,m,Psychologie,2023-01-23_15h30.26.053,00_bat_bachelor,2022.2.4,59.95160263635653,
,,,,,,,,,,,,1,0,1,0,31,0,31,0,,,,,,,31,,,0.2,2123.840813829065,Y,l,go,None,0,,2124.6413817814064,,,,,,,,,,,,,,,,,54,001,22,m,Psychologie,2023-01-23_15h30.26.053,00_bat_bachelor,2022.2.4,59.95160263635653,
,,,,,,,,,,,,1,0,1,0,32,0,32,0,,,,,,,32,,,0.2,2124.8412157690436,X,d,go,d,1,0.5573676874519151,,,,,,,,,,,,,,,,,,54,001,22,m,Psychologie,2023-01-23_15h30.26.053,00_bat_bachelor,2022.2.4,59.95160263635653,
,,,,,,,,,,,,1,0,1,0,33,0,33,0,,,,,,,33,,,0.2,2125.708806364324,X,None,nogo,None,1,,2126.5090688616765,,,,,,,,,,,,,,,,,54,001,22,m,Psychologie,2023-01-23_15h30.26.053,00_bat_bachelor,2022.2.4,59.95160263635653,
,,,,,,,,,,,,1,0,1,0,34,0,34,0,,,,,,,34,,,0.2,2126.7091923042826,Y,l,go,l,1,0.4182920912207919,,,,,,,,,,,,,,,,,,54,001,22,m,Psychologie,2023-01-23_15h30.26.053,00_bat_bachelor,2022.2.4,59.95160263635653,
,,,,,,,,,,,,1,0,1,0,35,0,35,0,,,,,,,35,,,0.2,2127.443082826303,X,d,go,d,1,0.4360273897436855,,,,,,,,,,,,,,,,,,54,001,22,m,Psychologie,2023-01-23_15h30.26.053,00_bat_bachelor,2022.2.4,59.95160263635653,
,,,,,,,,,,,,1,0,1,0,36,0,36,0,,,,,,,36,,,0.2,2128.1936458574273,Y,l,go,l,1,0.5815257831964118,,,,,,,,,,,,,,,,,,54,001,22,m,Psychologie,2023-01-23_15h30.26.053,00_bat_bachelor,2022.2.4,59.95160263635653,
,,,,,,,,,,,,1,0,1,0,37,0,37,0,,,,,,,37,,,0.2,2129.077695628166,Y,None,nogo,None,1,,2129.878509883896,,,,,,,,,,,,,,,,,54,001,22,m,Psychologie,2023-01-23_15h30.26.053,00_bat_bachelor,2022.2.4,59.95160263635653,
,,,,,,,,,,,,1,0,1,0,38,0,38,0,,,,,,,38,,,0.2,2130.078419023157,X,d,go,None,0,,2130.8788531571226,,,,,,,,,,,,,,,,,54,001,22,m,Psychologie,2023-01-23_15h30.26.053,00_bat_bachelor,2022.2.4,59.95160263635653,
,,,,,,,,,,,,1,0,1,0,39,0,39,0,,,,,,,39,,,0.2,2131.079010539168,Y,l,go,d,0,0.3523002376568911,,,,,,,,,,,,,,,,,,54,001,22,m,Psychologie,2023-01-23_15h30.26.053,00_bat_bachelor,2022.2.4,59.95160263635653,
,,,,,,,,,,,,1,0,1,0,40,0,40,0,,,,,,,40,,,0.2,2131.746418540246,X,d,go,d,1,0.5964988958876347,,,,,,,,,,,,,,,,,,54,001,22,m,Psychologie,2023-01-23_15h30.26.053,00_bat_bachelor,2022.2.4,59.95160263635653,
,,,,,,,,,,,,1,0,1,0,41,0,41,0,,,,,,,41,,,0.2,2132.647056941176,X,None,nogo,l,0,0.4007972778927069,,,,,,,,,,,,,,,,,,54,001,22,m,Psychologie,2023-01-23_15h30.26.053,00_bat_bachelor,2022.2.4,59.95160263635653,
,,,,,,,,,,,,1,0,1,0,42,0,42,0,,,,,,,42,,,0.2,2133.364193014586,Y,l,go,None,0,,,,,,,,,,,,,,,,,,,54,001,22,m,Psychologie,2023-01-23_15h30.26.053,00_bat_bachelor,2022.2.4,59.95160263635653,
,,,,,,,,,,,,1,0,1,0,43,0,43,0,,,,,,,43,,,0.2,2134.3645052574648,X,d,go,None,0,,,,,,,,,,,,,,,,,,,54,001,22,m,Psychologie,2023-01-23_15h30.26.053,00_bat_bachelor,2022.2.4,59.95160263635653,
,,,,,,,,,,,,1,0,1,0,44,0,44,0,,,,,,,44,,,0.2,2135.365481743731,X,None,nogo,d,0,0.37002874829340726,,,,,,,,,,,,,,,,,,54,001,22,m,Psychologie,2023-01-23_15h30.26.053,00_bat_bachelor,2022.2.4,59.95160263635653,
,,,,,,,,,,,,1,0,1,0,45,0,45,0,,,,,,,45,,,0.2,2136.049424556739,Y,l,go,l,1,0.5988271416972566,,,,,,,,,,,,,,,,,,54,001,22,m,Psychologie,2023-01-23_15h30.26.053,00_bat_bachelor,2022.2.4,59.95160263635653,
,,,,,,,,,,,,1,0,1,0,46,0,46,0,,,,,,,46,,,0.2,2136.950098351659,X,d,go,d,1,0.49788978275682894,,,,,,,,,,,,,,,,,,54,001,22,m,Psychologie,2023-01-23_15h30.26.053,00_bat_bachelor,2022.2.4,59.95160263635653,
,,,,,,,,,,,,1,0,1,0,47,0,47,0,,,,,,,47,,,0.2,2137.7507385465287,Y,l,go,l,1,0.40144794551088125,,,,,,,,,,,,,,,,,,54,001,22,m,Psychologie,2023-01-23_15h30.26.053,00_bat_bachelor,2022.2.4,59.95160263635653,
,,,,,,,,,,,,1,0,1,0,48,0,48,0,,,,,,,48,,,0.2,2138.467976438271,X,d,go,d,1,0.5490452511039621,,,,,,,,,,,,,,,,,,54,001,22,m,Psychologie,2023-01-23_15h30.26.053,00_bat_bachelor,2022.2.4,59.95160263635653,
,,,,,,,,,,,,1,0,1,0,49,0,49,0,,,,,,,49,,,0.2,2139.318277796283,Y,l,go,l,1,0.3843424660808523,,,,,,,,,,,,,,,,,,54,001,22,m,Psychologie,2023-01-23_15h30.26.053,00_bat_bachelor,2022.2.4,59.95160263635653,
,,,,,,,,,,,,1,0,1,0,50,0,50,0,,,,,,,50,,,0.2,2140.0191224520568,X,d,go,d,1,0.4364957540637988,,,,,,,,,,,,,,,,,,54,001,22,m,Psychologie,2023-01-23_15h30.26.053,00_bat_bachelor,2022.2.4,59.95160263635653,
,,,,,,,,,,,,1,0,1,0,51,0,51,0,,,,,,,51,,,0.2,2140.769366937264,Y,l,go,l,1,0.6619899002362217,,,,,,,,,,,,,,,,,,54,001,22,m,Psychologie,2023-01-23_15h30.26.053,00_bat_bachelor,2022.2.4,59.95160263635653,
,,,,,,,,,,,,1,0,1,0,52,0,52,0,,,,,,,52,,,0.2,2141.7367908898777,Y,None,nogo,None,1,,,,,,,,,,,,,,,,,,,54,001,22,m,Psychologie,2023-01-23_15h30.26.053,00_bat_bachelor,2022.2.4,59.95160263635653,
,,,,,,,,,,,,1,0,1,0,53,0,53,0,,,,,,,53,,,0.2,2142.737750891276,X,d,go,d,1,0.45319783896411536,,,,,,,,,,,,,,,,,,54,001,22,m,Psychologie,2023-01-23_15h30.26.053,00_bat_bachelor,2022.2.4,59.95160263635653,
,,,,,,,,,,,,1,0,1,0,54,0,54,0,,,,,,,54,,,0.2,2143.5047556432837,Y,l,go,l,1,0.5021273646780173,,,,,,,,,,,,,,,,,,54,001,22,m,Psychologie,2023-01-23_15h30.26.053,00_bat_bachelor,2022.2.4,59.95160263635653,
,,,,,,,,,,,,1,0,1,0,55,0,55,0,,,,,,,55,,,0.2,2144.322401438647,X,d,go,d,1,0.4370140578466817,,,,,,,,,,,,,,,,,,54,001,22,m,Psychologie,2023-01-23_15h30.26.053,00_bat_bachelor,2022.2.4,59.95160263635653,
,,,,,,,,,,,,1,0,1,0,56,0,56,0,,,,,,,56,,,0.2,2145.0726342874696,X,None,nogo,None,1,,2145.873627452551,,,,,,,,,,,,,,,,,54,001,22,m,Psychologie,2023-01-23_15h30.26.053,00_bat_bachelor,2022.2.4,59.95160263635653,
,,,,,,,,,,,,1,0,1,0,57,0,57,0,,,,,,,57,,,0.2,2146.0737203496537,Y,l,go,None,0,,,,,,,,,,,,,,,,,,,54,001,22,m,Psychologie,2023-01-23_15h30.26.053,00_bat_bachelor,2022.2.4,59.95160263635653,
,,,,,,,,,,,,1,0,1,0,58,0,58,0,,,,,,,58,,,0.2,2147.074313805064,X,d,go,None,0,,,,,,,,,,,,,,,,,,,54,001,22,m,Psychologie,2023-01-23_15h30.26.053,00_bat_bachelor,2022.2.4,59.95160263635653,
,,,,,,,,,,,,1,0,1,0,59,0,59,0,,,,,,,59,,,0.2,2148.075242291263,X,None,nogo,l,0,0.09352895217307378,,,,,,,,,,,,,,,,,,54,001,22,m,Psychologie,2023-01-23_15h30.26.053,00_bat_bachelor,2022.2.4,59.95160263635653,
,,,,,,,,,,,,1,0,1,0,60,0,60,0,,,,,,,60,,,0.2,2148.475502752248,Y,l,go,None,0,,,,,,,,,,,,,,,,,,,54,001,22,m,Psychologie,2023-01-23_15h30.26.053,00_bat_bachelor,2022.2.4,59.95160263635653,
,,,,,,,,,,,,1,0,1,0,61,0,61,0,,,,,,,61,,,0.2,2149.476379359585,X,d,go,d,1,0.6117997666260635,,,,,,,,,,,,,,,,,,54,001,22,m,Psychologie,2023-01-23_15h30.26.053,00_bat_bachelor,2022.2.4,59.95160263635653,
,,,,,,,,,,,,1,0,1,0,62,0,62,0,,,,,,,62,,,0.2,2150.3938759668526,Y,l,go,l,1,0.3342071204315289,,,,,,,,,,,,,,,,,,54,001,22,m,Psychologie,2023-01-23_15h30.26.053,00_bat_bachelor,2022.2.4,59.95160263635653,
,,,,,,,,,,,,1,0,1,0,63,0,63,0,,,,,,,63,,,0.2,2151.044070367134,X,d,go,d,1,0.4186586372088641,,,,,,,,,,,,,,,,,,54,001,22,m,Psychologie,2023-01-23_15h30.26.053,00_bat_bachelor,2022.2.4,59.95160263635653,
,,,,,,,,,,,,1,0,1,0,64,0,64,0,,,,,,,64,,,0.2,2151.7780035558862,Y,l,go,l,1,0.3264262606280681,,,,,,,,,,,,,,,,,,54,001,22,m,Psychologie,2023-01-23_15h30.26.053,00_bat_bachelor,2022.2.4,59.95160263635653,
,,,,,,,,,,,,1,0,1,0,65,0,65,0,,,,,,,65,,,0.2,2152.411597689599,X,d,go,d,1,0.3637872846702521,,,,,,,,,,,,,,,,,,54,001,22,m,Psychologie,2023-01-23_15h30.26.053,00_bat_bachelor,2022.2.4,59.95160263635653,
,,,,,,,,,,,,1,0,1,0,66,0,66,0,,,,,,,66,,,0.2,2153.0789872664063,X,None,nogo,l,0,0.41639002784722834,,,,,,,,,,,,,,,,,,54,001,22,m,Psychologie,2023-01-23_15h30.26.053,00_bat_bachelor,2022.2.4,59.95160263635653,
,,,,,,,,,,,,1,0,1,0,67,0,67,0,,,,,,,67,,,0.2,2153.796308552206,Y,l,go,None,0,,,,,,,,,,,,,,,,,,,54,001,22,m,Psychologie,2023-01-23_15h30.26.053,00_bat_bachelor,2022.2.4,59.95160263635653,
,,,,,,,,,,,,1,0,1,0,68,0,68,0,,,,,,,68,,,0.2,2154.797045522977,X,d,go,d,1,0.25104384795122314,,,,,,,,,,,,,,,,,,54,001,22,m,Psychologie,2023-01-23_15h30.26.053,00_bat_bachelor,2022.2.4,59.95160263635653,
,,,,,,,,,,,,1,0,1,0,69,0,69,0,,,,,,,69,,,0.2,2155.364123196301,Y,l,go,l,1,0.38728307641940773,,,,,,,,,,,,,,,,,,54,001,22,m,Psychologie,2023-01-23_15h30.26.053,00_bat_bachelor,2022.2.4,59.95160263635653,
,,,,,,,,,,,,1,0,1,0,70,0,70,0,,,,,,,70,,,0.2,2156.0647016698713,X,d,go,d,1,0.43903345472426736,,,,,,,,,,,,,,,,,,54,001,22,m,Psychologie,2023-01-23_15h30.26.053,00_bat_bachelor,2022.2.4,59.95160263635653,
,,,,,,,,,,,,1,0,1,0,71,0,71,0,,,,,,,71,,,0.2,2156.814974761175,Y,l,go,l,1,0.5038970642199274,,,,,,,,,,,,,,,,,,54,001,22,m,Psychologie,2023-01-23_15h30.26.053,00_bat_bachelor,2022.2.4,59.95160263635653,
,,,,,,,,,,,,1,0,1,0,72,0,72,0,,,,,,,72,,,0.2,2157.6325735261707,X,d,go,d,1,0.4391895761655178,,,,,,,,,,,,,,,,,,54,001,22,m,Psychologie,2023-01-23_15h30.26.053,00_bat_bachelor,2022.2.4,59.95160263635653,
,,,,,,,,,,,,1,0,1,0,73,0,73,0,,,,,,,73,,,0.2,2158.3831884361534,X,None,nogo,l,0,0.344943136045913,,,,,,,,,,,,,,,,,,54,001,22,m,Psychologie,2023-01-23_15h30.26.053,00_bat_bachelor,2022.2.4,59.95160263635653,
,,,,,,,,,,,,1,0,1,0,74,0,74,0,,,,,,,74,,,0.2,2159.0335229578523,X,None,nogo,None,1,,2159.8342664256015,,,,,,,,,,,,,,,,,54,001,22,m,Psychologie,2023-01-23_15h30.26.053,00_bat_bachelor,2022.2.4,59.95160263635653,
,,,,,,,,,,,,1,0,1,0,75,0,75,0,,,,,,,75,,,0.2,2160.0340873223104,Y,l,go,l,1,0.42077694331965176,,,,,,,,,,,,,,,,,,54,001,22,m,Psychologie,2023-01-23_15h30.26.053,00_bat_bachelor,2022.2.4,59.95160263635653,
,,,,,,,,,,,,1,0,1,0,76,0,76,0,,,,,,,76,,,0.2,2160.768270693243,X,d,go,d,1,0.5193482382128423,,,,,,,,,,,,,,,,,,54,001,22,m,Psychologie,2023-01-23_15h30.26.053,00_bat_bachelor,2022.2.4,59.95160263635653,
,,,,,,,,,,,,1,0,1,0,77,0,77,0,,,,,,,77,,,0.2,2161.6019567543626,Y,l,go,None,0,,,,,,,,,,,,,,,,,,,54,001,22,m,Psychologie,2023-01-23_15h30.26.053,00_bat_bachelor,2022.2.4,59.95160263635653,
,,,,,,,,,,,,1,0,1,0,78,0,78,0,,,,,,,78,,,0.2,2162.6030476650412,X,d,go,d,1,0.5566976258705836,,,,,,,,,,,,,,,,,,54,001,22,m,Psychologie,2023-01-23_15h30.26.053,00_bat_bachelor,2022.2.4,59.95160263635653,
,,,,,,,,,,,,1,0,1,0,79,0,79,0,,,,,,,79,,,0.2,2163.4702726840333,Y,l,go,l,1,0.4896051646464912,,,,,,,,,,,,,,,,,,54,001,22,m,Psychologie,2023-01-23_15h30.26.053,00_bat_bachelor,2022.2.4,59.95160263635653,
,,,,,,,,,,,,1,0,1,0,80,0,80,0,,,,,,,80,,,0.2,2164.270890090993,X,d,go,d,1,0.48779328322416404,,,,,,,,,,,,,,,,,,54,001,22,m,Psychologie,2023-01-23_15h30.26.053,00_bat_bachelor,2022.2.4,59.95160263635653,
,,,,,,,,,,,,1,0,1,0,81,0,81,0,,,,,,,81,,,0.2,2165.0717499225466,Y,l,go,l,1,0.5673390958945674,,,,,,,,,,,,,,,,,,54,001,22,m,Psychologie,2023-01-23_15h30.26.053,00_bat_bachelor,2022.2.4,59.95160263635653,
,,,,,,,,,,,,1,0,1,0,82,0,82,0,,,,,,,82,,,0.2,2165.9390418507282,X,d,go,d,1,0.5163319913990563,,,,,,,,,,,,,,,,,,54,001,22,m,Psychologie,2023-01-23_15h30.26.053,00_bat_bachelor,2022.2.4,59.95160263635653,
,,,,,,,,,,,,1,0,1,0,83,0,83,0,,,,,,,83,,,0.2,2166.756329342541,Y,l,go,l,1,0.5478787039537565,,,,,,,,,,,,,,,,,,54,001,22,m,Psychologie,2023-01-23_15h30.26.053,00_bat_bachelor,2022.2.4,59.95160263635653,
,,,,,,,,,,,,1,0,1,0,84,0,84,0,,,,,,,84,,,0.2,2167.606952155569,Y,None,nogo,None,1,,2168.407555501901,,,,,,,,,,,,,,,,,54,001,22,m,Psychologie,2023-01-23_15h30.26.053,00_bat_bachelor,2022.2.4,59.95160263635653,
,,,,,,,,,,,,1,0,1,0,85,0,85,0,,,,,,,85,,,0.2,2168.6078239144117,X,d,go,d,1,0.3440199831893551,,,,,,,,,,,,,,,,,,54,001,22,m,Psychologie,2023-01-23_15h30.26.053,00_bat_bachelor,2022.2.4,59.95160263635653,
,,,,,,,,,,,,1,0,1,0,86,0,86,0,,,,,,,86,,,0.2,2169.2581952846485,Y,l,go,l,1,0.5256401261503925,,,,,,,,,,,,,,,,,,54,001,22,m,Psychologie,2023-01-23_15h30.26.053,00_bat_bachelor,2022.2.4,59.95160263635653,
,,,,,,,,,,,,1,0,1,0,87,0,87,0,,,,,,,87,,,0.2,2170.0918037698975,X,d,go,d,1,0.5554171391631826,,,,,,,,,,,,,,,,,,54,001,22,m,Psychologie,2023-01-23_15h30.26.053,00_bat_bachelor,2022.2.4,59.95160263635653,
,,,,,,,,,,,,1,0,1,0,88,0,88,0,,,,,,,88,,,0.2,2170.959609638223,X,None,nogo,None,1,,2171.760095166199,,,,,,,,,,,,,,,,,54,001,22,m,Psychologie,2023-01-23_15h30.26.053,00_bat_bachelor,2022.2.4,59.95160263635653,
,,,,,,,,,,,,1,0,1,0,89,0,89,0,,,,,,,89,,,0.2,2171.9601836996626,Y,l,go,d,0,0.44656025355288875,,,,,,,,,,,,,,,,,,54,001,22,m,Psychologie,2023-01-23_15h30.26.053,00_bat_bachelor,2022.2.4,59.95160263635653,
,,,,,,,,,,,,1,0,1,0,90,0,90,0,,,,,,,90,,,0.2,2172.7108121854253,X,d,go,None,0,,2173.5114678954706,,,,,,,,,,,,,,,,,54,001,22,m,Psychologie,2023-01-23_15h30.26.053,00_bat_bachelor,2022.2.4,59.95160263635653,
,,,,,,,,,,,,1,0,1,0,91,0,91,0,,,,,,,91,,,0.2,2173.7114061256834,Y,l,go,l,1,0.13525895226484863,,,,,,,,,,,,,,,,,,54,001,22,m,Psychologie,2023-01-23_15h30.26.053,00_bat_bachelor,2022.2.4,59.95160263635653,
,,,,,,,,,,,,1,0,1,0,92,0,92,0,,,,,,,92,,,0.2,2174.1617796292558,X,d,go,d,1,0.597834655407496,,,,,,,,,,,,,,,,,,54,001,22,m,Psychologie,2023-01-23_15h30.26.053,00_bat_bachelor,2022.2.4,59.95160263635653,
,,,,,,,,,,,,1,0,1,0,93,0,93,0,,,,,,,93,,,0.2,2175.062428212019,Y,l,go,l,1,0.5458602767757839,,,,,,,,,,,,,,,,,,54,001,22,m,Psychologie,2023-01-23_15h30.26.053,00_bat_bachelor,2022.2.4,59.95160263635653,
,,,,,,,,,,,,1,0,1,0,94,0,94,0,,,,,,,94,,,0.2,2175.9131189039326,X,d,go,d,1,0.43119877665958484,,,,,,,,,,,,,,,,,,54,001,22,m,Psychologie,2023-01-23_15h30.26.053,00_bat_bachelor,2022.2.4,59.95160263635653,
,,,,,,,,,,,,1,0,1,0,95,0,95,0,,,,,,,95,,,0.2,2176.647206759575,Y,l,go,l,1,0.4006586110299395,,,,,,,,,,,,,,,,,,54,001,22,m,Psychologie,2023-01-23_15h30.26.053,00_bat_bachelor,2022.2.4,59.95160263635653,
,,,,,,,,,,,,1,0,1,0,96,0,96,0,,,,,,,96,,,0.2,2177.3643753178803,X,d,go,d,1,0.4026649169754819,,,,,,,,,,,,,,,,,,54,001,22,m,Psychologie,2023-01-23_15h30.26.053,00_bat_bachelor,2022.2.4,59.95160263635653,
,,,,,,,,,,,,1,0,1,0,97,0,97,0,,,,,,,97,,,0.2,2178.0816035126372,X,None,nogo,l,0,0.4064399527705973,,,,,,,,,,,,,,,,,,54,001,22,m,Psychologie,2023-01-23_15h30.26.053,00_bat_bachelor,2022.2.4,59.95160263635653,
,,,,,,,,,,,,1,0,1,0,98,0,98,0,,,,,,,98,,,0.2,2178.79883267709,Y,l,go,None,0,,,,,,,,,,,,,,,,,,,54,001,22,m,Psychologie,2023-01-23_15h30.26.053,00_bat_bachelor,2022.2.4,59.95160263635653,
,,,,,,,,,,,,1,0,1,0,99,0,99,0,,,,,,,99,,,0.2,2179.799621526723,X,d,go,None,0,,,,,,,,,,,,,,,,,,,54,001,22,m,Psychologie,2023-01-23_15h30.26.053,00_bat_bachelor,2022.2.4,59.95160263635653,
,,,,,,,,,,,,1,0,1,0,100,0,100,0,,,,,,,100,,,0.2,2180.800299830742,Y,l,go,d,0,0.2958511858523707,,,,,,,,,,,,,,,,,,54,001,22,m,Psychologie,2023-01-23_15h30.26.053,00_bat_bachelor,2022.2.4,59.95160263635653,
,,,,,,,,,,,,1,0,1,0,101,0,101,0,,,,,,,101,,,0.2,2181.4008519769995,Y,None,nogo,None,1,,,,,,,,,,,,,,,,,,,54,001,22,m,Psychologie,2023-01-23_15h30.26.053,00_bat_bachelor,2022.2.4,59.95160263635653,
,,,,,,,,,,,,1,0,1,0,102,0,102,0,,,,,,,102,,,0.2,2182.4012049472076,X,d,go,d,1,0.5821517235017382,,,,,,,,,,,,,,,,,,54,001,22,m,Psychologie,2023-01-23_15h30.26.053,00_bat_bachelor,2022.2.4,59.95160263635653,
,,,,,,,,,,,,1,0,1,0,103,0,103,0,,,,,,,103,,,0.2,2183.285495203145,Y,l,go,l,1,0.5477536128637439,,,,,,,,,,,,,,,,,,54,001,22,m,Psychologie,2023-01-23_15h30.26.053,00_bat_bachelor,2022.2.4,59.95160263635653,
,,,,,,,,,,,,1,0,1,0,104,0,104,0,,,,,,,104,,,0.2,2184.136096197959,X,d,go,d,1,0.44773989163149963,,,,,,,,,,,,,,,,,,54,001,22,m,Psychologie,2023-01-23_15h30.26.053,00_bat_bachelor,2022.2.4,59.95160263635653,
,,,,,,,,,,,,1,0,1,0,105,0,105,0,,,,,,,105,,,0.2,2184.8864066226524,Y,l,go,l,1,0.41669111919691204,,,,,,,,,,,,,,,,,,54,001,22,m,Psychologie,2023-01-23_15h30.26.053,00_bat_bachelor,2022.2.4,59.95160263635653,
,,,,,,,,,,,,1,0,1,0,106,0,106,0,,,,,,,106,,,0.2,2185.6037429387798,Y,None,nogo,d,0,0.4036254032216675,,,,,,,,,,,,,,,,,,54,001,22,m,Psychologie,2023-01-23_15h30.26.053,00_bat_bachelor,2022.2.4,59.95160263635653,
,,,,,,,,,,,,1,0,1,0,107,0,107,0,,,,,,,107,,,0.2,2186.320762163534,X,d,go,l,0,0.6309164004960621,,,,,,,,,,,,,,,,,,54,001,22,m,Psychologie,2023-01-23_15h30.26.053,00_bat_bachelor,2022.2.4,59.95160263635653,
,,,,,,,,,,,,1,0,1,0,108,0,108,0,,,,,,,108,,,0.2,2187.2551053407624,Y,l,go,None,0,,,,,,,,,,,,,,,,,,,54,001,22,m,Psychologie,2023-01-23_15h30.26.053,00_bat_bachelor,2022.2.4,59.95160263635653,
,,,,,,,,,,,,1,0,1,0,109,0,109,0,,,,,,,109,,,0.2,2188.2558074023873,X,d,go,None,0,,,,,,,,,,,,,,,,,,,54,001,22,m,Psychologie,2023-01-23_15h30.26.053,00_bat_bachelor,2022.2.4,59.95160263635653,
,,,,,,,,,,,,1,0,1,0,110,0,110,0,,,,,,,110,,,0.2,2189.2568677675663,X,None,nogo,d,0,0.5433109397345106,,,,,,,,,,,,,,,,,,54,001,22,m,Psychologie,2023-01-23_15h30.26.053,00_bat_bachelor,2022.2.4,59.95160263635653,
,,,,,,,,,,,,1,0,1,0,111,0,111,0,,,,,,,111,,,0.2,2190.1076001565125,Y,l,go,None,0,,2190.907976593422,,,,,,,,,,,,,,,,,54,001,22,m,Psychologie,2023-01-23_15h30.26.053,00_bat_bachelor,2022.2.4,59.95160263635653,
,,,,,,,,,,,,1,0,1,0,112,0,112,0,,,,,,,112,,,0.2,2191.1084966426642,X,d,go,d,1,0.4670601621583046,,,,,,,,,,,,,,,,,,54,001,22,m,Psychologie,2023-01-23_15h30.26.053,00_bat_bachelor,2022.2.4,59.95160263635653,
,,,,,,,,,,,,1,0,1,0,113,0,113,0,,,,,,,113,,,0.2,2191.875299212559,Y,l,go,l,1,0.41971560844103806,,,,,,,,,,,,,,,,,,54,001,22,m,Psychologie,2023-01-23_15h30.26.053,00_bat_bachelor,2022.2.4,59.95160263635653,
,,,,,,,,,,,,1,0,1,0,114,0,114,0,,,,,,,114,,,0.2,2192.608970097899,Y,None,nogo,None,1,,,,,,,,,,,,,,,,,,,54,001,22,m,Psychologie,2023-01-23_15h30.26.053,00_bat_bachelor,2022.2.4,59.95160263635653,
,,,,,,,,,,,,1,0,1,0,115,0,115,0,,,,,,,115,,,0.2,2193.610090584374,X,d,go,d,1,0.36605007583784754,,,,,,,,,,,,,,,,,,54,001,22,m,Psychologie,2023-01-23_15h30.26.053,00_bat_bachelor,2022.2.4,59.95160263635653,
,,,,,,,,,,,,1,0,1,0,116,0,116,0,,,,,,,116,,,0.2,2194.2771771304397,Y,l,go,l,1,0.5468711873363645,,,,,,,,,,,,,,,,,,54,001,22,m,Psychologie,2023-01-23_15h30.26.053,00_bat_bachelor,2022.2.4,59.95160263635653,
,,,,,,,,,,,,1,0,1,0,117,0,117,0,,,,,,,117,,,0.2,2195.12779170103,X,d,go,d,1,0.5912639791822585,,,,,,,,,,,,,,,,,,54,001,22,m,Psychologie,2023-01-23_15h30.26.053,00_bat_bachelor,2022.2.4,59.95160263635653,
,,,,,,,,,,,,1,0,1,0,118,0,118,0,,,,,,,118,,,0.2,2196.0285454960685,Y,l,go,l,1,0.45907178690322326,,,,,,,,,,,,,,,,,,54,001,22,m,Psychologie,2023-01-23_15h30.26.053,00_bat_bachelor,2022.2.4,59.95160263635653,
,,,,,,,,,,,,1,0,1,0,119,0,119,0,,,,,,,119,,,0.2,2196.7954552176343,Y,None,nogo,None,1,,,,,,,,,,,,,,,,,,,54,001,22,m,Psychologie,2023-01-23_15h30.26.053,00_bat_bachelor,2022.2.4,59.95160263635653,
,,,,,,,,,,,,1,0,1,0,120,0,120,0,,,,,,,120,,,0.2,2197.7964782494237,X,d,go,d,1,0.40259170475110295,,,,,,,,,,,,,,,,,,54,001,22,m,Psychologie,2023-01-23_15h30.26.053,00_bat_bachelor,2022.2.4,59.95160263635653,
,,,,,,,,,,,,1,0,1,0,121,0,121,0,,,,,,,121,,,0.2,2198.51376753518,Y,l,go,l,1,0.45362886989096296,,,,,,,,,,,,,,,,,,54,001,22,m,Psychologie,2023-01-23_15h30.26.053,00_bat_bachelor,2022.2.4,59.95160263635653,
,,,,,,,,,,,,1,0,1,0,122,0,122,0,,,,,,,122,,,0.2,2199.281003560249,Y,None,nogo,None,1,,,,,,,,,,,,,,,,,,,54,001,22,m,Psychologie,2023-01-23_15h30.26.053,00_bat_bachelor,2022.2.4,59.95160263635653,
,,,,,,,,,,,,1,0,1,0,123,0,123,0,,,,,,,123,,,0.2,2200.281761379534,X,d,go,d,1,0.36567334801657125,,,,,,,,,,,,,,,,,,54,001,22,m,Psychologie,2023-01-23_15h30.26.053,00_bat_bachelor,2022.2.4,59.95160263635653,
,,,,,,,,,,,,1,0,1,0,124,0,124,0,,,,,,,124,,,0.2,2200.948957016666,Y,l,go,l,1,0.4023958256766491,,,,,,,,,,,,,,,,,,54,001,22,m,Psychologie,2023-01-23_15h30.26.053,00_bat_bachelor,2022.2.4,59.95160263635653,
,,,,,,,,,,,,1,0,1,0,125,0,125,0,,,,,,,125,,,0.2,2201.6658787867345,Y,None,nogo,d,0,0.501254151287867,,,,,,,,,,,,,,,,,,54,001,22,m,Psychologie,2023-01-23_15h30.26.053,00_bat_bachelor,2022.2.4,59.95160263635653,
,,,,,,,,,,,,1,0,1,0,126,0,126,0,,,,,,,126,,,0.2,2202.4831527027673,X,d,go,None,0,,,,,,,,,,,,,,,,,,,54,001,22,m,Psychologie,2023-01-23_15h30.26.053,00_bat_bachelor,2022.2.4,59.95160263635653,
,,,,,,,,,,,,1,0,1,0,127,0,127,0,,,,,,,127,,,0.2,2203.4841102799182,Y,l,go,l,1,0.6350691338084289,,,,,,,,,,,,,,,,,,54,001,22,m,Psychologie,2023-01-23_15h30.26.053,00_bat_bachelor,2022.2.4,59.95160263635653,
,,,,,,,,,,,,1,0,1,0,128,0,128,0,,,,,,,128,,,0.2,2204.4346663292126,Y,None,nogo,None,1,,,,,,,,,,,,,,,,,,,54,001,22,m,Psychologie,2023-01-23_15h30.26.053,00_bat_bachelor,2022.2.4,59.95160263635653,
,,,,,,,,,,,,1,0,1,0,129,0,129,0,,,,,,,129,,,0.2,2205.435688876154,X,d,go,None,0,,2206.236004706916,,,,,,,,,,,,,,,,,54,001,22,m,Psychologie,2023-01-23_15h30.26.053,00_bat_bachelor,2022.2.4,59.95160263635653,
,,,,,,,,,,,,1,0,1,0,130,0,130,0,,,,,,,130,,,0.2,2206.436391907482,Y,l,go,None,0,,,,,,,,,,,,,,,,,,,54,001,22,m,Psychologie,2023-01-23_15h30.26.053,00_bat_bachelor,2022.2.4,59.95160263635653,
,,,,,,,,,,,,1,0,1,0,131,0,131,0,,,,,,,131,,,0.2,2207.436881120313,X,d,go,d,1,0.5859204562548257,,,,,,,,,,,,,,,,,,54,001,22,m,Psychologie,2023-01-23_15h30.26.053,00_bat_bachelor,2022.2.4,59.95160263635653,
,,,,,,,,,,,,1,0,1,0,132,0,132,0,,,,,,,132,,,0.2,2208.3378884914746,Y,l,go,l,1,0.2784067968423187,,,,,,,,,,,,,,,,,,54,001,22,m,Psychologie,2023-01-23_15h30.26.053,00_bat_bachelor,2022.2.4,59.95160263635653,
,,,,,,,,,,,,1,0,1,0,133,0,133,0,,,,,,,133,,,0.2,2208.921546552556,X,d,go,d,1,0.4143284490928636,,,,,,,,,,,,,,,,,,54,001,22,m,Psychologie,2023-01-23_15h30.26.053,00_bat_bachelor,2022.2.4,59.95160263635653,
,,,,,,,,,,,,1,0,1,0,134,0,134,0,,,,,,,134,,,0.2,2209.6389740203267,Y,l,go,l,1,0.3999410342257761,,,,,,,,,,,,,,,,,,54,001,22,m,Psychologie,2023-01-23_15h30.26.053,00_bat_bachelor,2022.2.4,59.95160263635653,
,,,,,,,,,,,,1,0,1,0,135,0,135,0,,,,,,,135,,,0.2,2210.339431281598,Y,None,nogo,d,0,0.452175292019092,,,,,,,,,,,,,,,,,,54,001,22,m,Psychologie,2023-01-23_15h30.26.053,00_bat_bachelor,2022.2.4,59.95160263635653,
,,,,,,,,,,,,1,0,1,0,136,0,136,0,,,,,,,136,,,0.2,2211.1068302159983,X,d,go,None,0,,,,,,,,,,,,,,,,,,,54,001,22,m,Psychologie,2023-01-23_15h30.26.053,00_bat_bachelor,2022.2.4,59.95160263635653,
,,,,,,,,,,,,1,0,1,0,137,0,137,0,,,,,,,137,,,0.2,2212.1074576108476,Y,l,go,l,1,0.3810353097542247,,,,,,,,,,,,,,,,,,54,001,22,m,Psychologie,2023-01-23_15h30.26.053,00_bat_bachelor,2022.2.4,59.95160263635653,
,,,,,,,,,,,,1,0,1,0,138,0,138,0,,,,,,,138,,,0.2,2212.7910367869626,X,d,go,d,1,0.40028770139906555,,,,,,,,,,,,,,,,,,54,001,22,m,Psychologie,2023-01-23_15h30.26.053,00_bat_bachelor,2022.2.4,59.95160263635653,
,,,,,,,,,,,,1,0,1,0,139,0,139,0,,,,,,,139,,,0.2,2213.491563381671,Y,l,go,l,1,0.38788525911513716,,,,,,,,,,,,,,,,,,54,001,22,m,Psychologie,2023-01-23_15h30.26.053,00_bat_bachelor,2022.2.4,59.95160263635653,
,,,,,,,,,,,,1,0,1,0,140,0,140,0,,,,,,,140,,,0.2,2214.1920317944714,X,d,go,d,1,0.48732394920807565,,,,,,,,,,,,,,,,,,54,001,22,m,Psychologie,2023-01-23_15h30.26.053,00_bat_bachelor,2022.2.4,59.95160263635653,
,,,,,,,,,,,,1,0,1,0,141,0,141,0,,,,,,,141,,,0.2,2214.9926816863263,Y,l,go,l,1,0.5026582745449559,,,,,,,,,,,,,,,,,,54,001,22,m,Psychologie,2023-01-23_15h30.26.053,00_bat_bachelor,2022.2.4,59.95160263635653,
,,,,,,,,,,,,1,0,1,0,142,0,142,0,,,,,,,142,,,0.2,2215.8103672393227,Y,None,nogo,None,1,,2216.6108847673495,,,,,,,,,,,,,,,,,54,001,22,m,Psychologie,2023-01-23_15h30.26.053,00_bat_bachelor,2022.2.4,59.95160263635653,
,,,,,,,,,,,,1,0,1,0,143,0,143,0,,,,,,,143,,,0.2,2216.81102227058,X,d,go,d,1,0.348637202027021,,,,,,,,,,,,,,,,,,54,001,22,m,Psychologie,2023-01-23_15h30.26.053,00_bat_bachelor,2022.2.4,59.95160263635653,
,,,,,,,,,,,,1,0,1,0,144,0,144,0,,,,,,,144,,,0.2,2217.4616263684293,Y,l,go,l,1,0.4342310234969773,,,,,,,,,,,,,,,,,,54,001,22,m,Psychologie,2023-01-23_15h30.26.053,00_bat_bachelor,2022.2.4,59.95160263635653,
,,,,,,,,,,,,1,0,1,0,145,0,145,0,,,,,,,145,,,0.2,2218.2122097632164,Y,None,nogo,None,1,,,,,,,,,,,,,,,,,,,54,001,22,m,Psychologie,2023-01-23_15h30.26.053,00_bat_bachelor,2022.2.4,59.95160263635653,
,,,,,,,,,,,,1,0,1,0,146,0,146,0,,,,,,,146,,,0.2,2219.2129409157933,Y,None,nogo,None,1,,2220.0132344434933,,,,,,,,,,,,,,,,,54,001,22,m,Psychologie,2023-01-23_15h30.26.053,00_bat_bachelor,2022.2.4,59.95160263635653,
,,,,,,,,,,,,1,0,1,0,147,0,147,0,,,,,,,147,,,0.2,2220.213517886332,X,d,go,d,1,0.5468202781739819,,,,,,,,,,,,,,,,,,54,001,22,m,Psychologie,2023-01-23_15h30.26.053,00_bat_bachelor,2022.2.4,59.95160263635653,
,,,,,,,,,,,,1,0,1,0,148,0,148,0,,,,,,,148,,,0.2,2221.064343366321,Y,l,go,l,1,0.41553329933231,,,,,,,,,,,,,,,,,,54,001,22,m,Psychologie,2023-01-23_15h30.26.053,00_bat_bachelor,2022.2.4,59.95160263635653,
,,,,,,,,,,,,1,0,1,0,149,0,149,0,,,,,,,149,,,0.2,2221.78132234859,X,d,go,d,1,0.45017625881155254,,,,,,,,,,,,,,,,,,54,001,22,m,Psychologie,2023-01-23_15h30.26.053,00_bat_bachelor,2022.2.4,59.95160263635653,
,,,,,,,,,,,,1,0,1,0,150,0,150,0,,,,,,,150,,,0.2,2222.532111319437,X,None,nogo,l,0,0.38762877389308414,,,,,,,,,,,,,,,,,,54,001,22,m,Psychologie,2023-01-23_15h30.26.053,00_bat_bachelor,2022.2.4,59.95160263635653,
,,,,,,,,,,,,1,0,1,0,151,0,151,0,,,,,,,151,,,0.2,2223.2326970657414,Y,l,go,None,0,,2224.033223805902,,,,,,,,,,,,,,,,,54,001,22,m,Psychologie,2023-01-23_15h30.26.053,00_bat_bachelor,2022.2.4,59.95160263635653,
,,,,,,,,,,,,1,0,1,0,152,0,152,0,,,,,,,152,,,0.2,2224.233372460665,X,d,go,d,1,0.3819987050956115,,,,,,,,,,,,,,,,,,54,001,22,m,Psychologie,2023-01-23_15h30.26.053,00_bat_bachelor,2022.2.4,59.95160263635653,
,,,,,,,,,,,,1,0,1,0,153,0,153,0,,,,,,,153,,,0.2,2224.917288606968,X,None,nogo,None,1,,2225.717899710886,,,,,,,,,,,,,,,,,54,001,22,m,Psychologie,2023-01-23_15h30.26.053,00_bat_bachelor,2022.2.4,59.95160263635653,
,,,,,,,,,,,,1,0,1,0,154,0,154,0,,,,,,,154,,,0.2,2225.9180648505208,Y,l,go,l,1,0.3785625788877951,,,,,,,,,,,,,,,,,,54,001,22,m,Psychologie,2023-01-23_15h30.26.053,00_bat_bachelor,2022.2.4,59.95160263635653,
,,,,,,,,,,,,1,0,1,0,155,0,155,0,,,,,,,155,,,0.2,2226.601855420882,X,d,go,d,1,0.46193239712374634,,,,,,,,,,,,,,,,,,54,001,22,m,Psychologie,2023-01-23_15h30.26.053,00_bat_bachelor,2022.2.4,59.95160263635653,
,,,,,,,,,,,,1,0,1,0,156,0,156,0,,,,,,,156,,,0.2,2227.3689978700604,Y,l,go,None,0,,2228.169730186277,,,,,,,,,,,,,,,,,54,001,22,m,Psychologie,2023-01-23_15h30.26.053,00_bat_bachelor,2022.2.4,59.95160263635653,
,,,,,,,,,,,,1,0,1,0,157,0,157,0,,,,,,,157,,,0.2,2228.3697804166513,Y,None,nogo,l,0,0.6469891511442256,,,,,,,,,,,,,,,,,,54,001,22,m,Psychologie,2023-01-23_15h30.26.053,00_bat_bachelor,2022.2.4,59.95160263635653,
,,,,,,,,,,,,1,0,1,0,158,0,158,0,,,,,,,158,,,0.2,2229.3204465267117,X,d,go,d,1,0.5913575550730457,,,,,,,,,,,,,,,,,,54,001,22,m,Psychologie,2023-01-23_15h30.26.053,00_bat_bachelor,2022.2.4,59.95160263635653,
,,,,,,,,,,,,1,0,1,0,159,0,159,0,,,,,,,159,,,0.2,2230.221231352094,Y,l,go,l,1,0.410435110097751,,,,,,,,,,,,,,,,,,54,001,22,m,Psychologie,2023-01-23_15h30.26.053,00_bat_bachelor,2022.2.4,59.95160263635653,
,,,,,,,,,,,,1,0,1,0,160,0,160,0,,,,,,,160,,,0.2,2230.938313122395,X,d,go,d,1,0.39700866632483667,,,,,,,,,,,,,,,,,,54,001,22,m,Psychologie,2023-01-23_15h30.26.053,00_bat_bachelor,2022.2.4,59.95160263635653,
,,,,,,,,,,,,1,0,1,0,161,0,161,0,,,,,,,161,,,0.2,2231.638707838123,Y,l,go,l,1,0.43255974834028166,,,,,,,,,,,,,,,,,,54,001,22,m,Psychologie,2023-01-23_15h30.26.053,00_bat_bachelor,2022.2.4,59.95160263635653,
,,,,,,,,,,,,1,0,1,0,162,0,162,0,,,,,,,162,,,0.2,2232.3730899972215,X,d,go,d,1,0.4500133494802867,,,,,,,,,,,,,,,,,,54,001,22,m,Psychologie,2023-01-23_15h30.26.053,00_bat_bachelor,2022.2.4,59.95160263635653,
,,,,,,,,,,,,1,0,1,0,163,0,163,0,,,,,,,163,,,0.2,2233.123594361594,Y,l,go,l,1,0.37211456950899446,,,,,,,,,,,,,,,,,,54,001,22,m,Psychologie,2023-01-23_15h30.26.053,00_bat_bachelor,2022.2.4,59.95160263635653,
,,,,,,,,,,,,1,0,1,0,164,0,164,0,,,,,,,164,,,0.2,2233.8074882048313,X,d,go,d,1,0.4885307388394722,,,,,,,,,,,,,,,,,,54,001,22,m,Psychologie,2023-01-23_15h30.26.053,00_bat_bachelor,2022.2.4,59.95160263635653,
,,,,,,,,,,,,1,0,1,0,165,0,165,0,,,,,,,165,,,0.2,2234.60771191425,Y,l,go,l,1,0.375660756486468,,,,,,,,,,,,,,,,,,54,001,22,m,Psychologie,2023-01-23_15h30.26.053,00_bat_bachelor,2022.2.4,59.95160263635653,
,,,,,,,,,,,,1,0,1,0,166,0,166,0,,,,,,,166,,,0.2,2235.291922364009,X,d,go,d,1,0.44323273355985293,,,,,,,,,,,,,,,,,,54,001,22,m,Psychologie,2023-01-23_15h30.26.053,00_bat_bachelor,2022.2.4,59.95160263635653,
,,,,,,,,,,,,1,0,1,0,167,0,167,0,,,,,,,167,,,0.2,2236.042106727913,X,None,nogo,l,0,0.5739645600806398,,,,,,,,,,,,,,,,,,54,001,22,m,Psychologie,2023-01-23_15h30.26.053,00_bat_bachelor,2022.2.4,59.95160263635653,
,,,,,,,,,,,,1,0,1,0,168,0,168,0,,,,,,,168,,,0.2,2236.926151650161,Y,l,go,None,0,,,,,,,,,,,,,,,,,,,54,001,22,m,Psychologie,2023-01-23_15h30.26.053,00_bat_bachelor,2022.2.4,59.95160263635653,
,,,,,,,,,,,,1,0,1,0,169,0,169,0,,,,,,,169,,,0.2,2237.926908014899,X,d,go,None,0,,,,,,,,,,,,,,,,,,,54,001,22,m,Psychologie,2023-01-23_15h30.26.053,00_bat_bachelor,2022.2.4,59.95160263635653,
,,,,,,,,,,,,1,0,1,0,170,0,170,0,,,,,,,170,,,0.2,2238.9277191675938,X,None,nogo,None,1,,,,,,,,,,,,,,,,,,,54,001,22,m,Psychologie,2023-01-23_15h30.26.053,00_bat_bachelor,2022.2.4,59.95160263635653,
,,,,,,,,,,,,1,0,1,0,171,0,171,0,,,,,,,171,,,0.2,2239.9286597750215,Y,l,go,l,1,0.3827890092761663,,,,,,,,,,,,,,,,,,54,001,22,m,Psychologie,2023-01-23_15h30.26.053,00_bat_bachelor,2022.2.4,59.95160263635653,
,,,,,,,,,,,,1,0,1,0,172,0,172,0,,,,,,,172,,,0.2,2240.6126103456154,X,d,go,None,0,,,,,,,,,,,,,,,,,,,54,001,22,m,Psychologie,2023-01-23_15h30.26.053,00_bat_bachelor,2022.2.4,59.95160263635653,
,,,,,,,,,,,,1,0,1,0,173,0,173,0,,,,,,,173,,,0.2,2241.6134307104476,Y,l,go,d,0,0.266776234471763,,,,,,,,,,,,,,,,,,54,001,22,m,Psychologie,2023-01-23_15h30.26.053,00_bat_bachelor,2022.2.4,59.95160263635653,
,,,,,,,,,,,,1,0,1,0,174,0,174,0,,,,,,,174,,,0.2,2242.1803978381577,X,d,go,None,0,,,,,,,,,,,,,,,,,,,54,001,22,m,Psychologie,2023-01-23_15h30.26.053,00_bat_bachelor,2022.2.4,59.95160263635653,
,,,,,,,,,,,,1,0,1,0,175,0,175,0,,,,,,,175,,,0.2,2243.1812022029626,X,None,nogo,l,0,0.4271890738600632,,,,,,,,,,,,,,,,,,54,001,22,m,Psychologie,2023-01-23_15h30.26.053,00_bat_bachelor,2022.2.4,59.95160263635653,
,,,,,,,,,,,,1,0,1,0,176,0,176,0,,,,,,,176,,,0.2,2243.9150646037306,Y,l,go,None,0,,,,,,,,,,,,,,,,,,,54,001,22,m,Psychologie,2023-01-23_15h30.26.053,00_bat_bachelor,2022.2.4,59.95160263635653,
,,,,,,,,,,,,1,0,1,0,177,0,177,0,,,,,,,177,,,0.2,2244.915824847263,X,d,go,None,0,,,,,,,,,,,,,,,,,,,54,001,22,m,Psychologie,2023-01-23_15h30.26.053,00_bat_bachelor,2022.2.4,59.95160263635653,
,,,,,,,,,,,,1,0,1,0,178,0,178,0,,,,,,,178,,,0.2,2245.91737006163,Y,l,go,l,1,0.4905564387590857,,,,,,,,,,,,,,,,,,54,001,22,m,Psychologie,2023-01-23_15h30.26.053,00_bat_bachelor,2022.2.4,59.95160263635653,
,,,,,,,,,,,,1,0,1,0,179,0,179,0,,,,,,,179,,,0.2,2246.734352098454,X,d,go,d,1,0.28023904193469207,,,,,,,,,,,,,,,,,,54,001,22,m,Psychologie,2023-01-23_15h30.26.053,00_bat_bachelor,2022.2.4,59.95160263635653,
,,,,,,,,,,,,1,0,1,0,180,0,180,0,,,,,,,180,,,0.2,2247.334959517517,Y,l,go,l,1,0.3192790987159242,,,,,,,,,,,,,,,,,,54,001,22,m,Psychologie,2023-01-23_15h30.26.053,00_bat_bachelor,2022.2.4,59.95160263635653,
,,,,,,,,,,,,1,0,1,0,181,0,181,0,,,,,,,181,,,0.2,2247.985413796967,Y,None,nogo,d,0,0.3106749649887206,,,,,,,,,,,,,,,,,,54,001,22,m,Psychologie,2023-01-23_15h30.26.053,00_bat_bachelor,2022.2.4,59.95160263635653,
,,,,,,,,,,,,1,0,1,0,182,0,182,0,,,,,,,182,,,0.2,2248.619183930936,X,d,go,l,0,0.6197183235999546,,,,,,,,,,,,,,,,,,54,001,22,m,Psychologie,2023-01-23_15h30.26.053,00_bat_bachelor,2022.2.4,59.95160263635653,
,,,,,,,,,,,,1,0,1,0,183,0,183,0,,,,,,,183,,,0.2,2249.553385047351,Y,l,go,None,0,,2250.353782817623,,,,,,,,,,,,,,,,,54,001,22,m,Psychologie,2023-01-23_15h30.26.053,00_bat_bachelor,2022.2.4,59.95160263635653,
,,,,,,,,,,,,1,0,1,0,184,0,184,0,,,,,,,184,,,0.2,2250.5539198360057,X,d,go,d,1,0.4763193271428463,,,,,,,,,,,,,,,,,,54,001,22,m,Psychologie,2023-01-23_15h30.26.053,00_bat_bachelor,2022.2.4,59.95160263635653,
,,,,,,,,,,,,1,0,1,0,185,0,185,0,,,,,,,185,,,0.2,2251.3546584552605,Y,l,go,l,1,0.6046836350615195,,,,,,,,,,,,,,,,,,54,001,22,m,Psychologie,2023-01-23_15h30.26.053,00_bat_bachelor,2022.2.4,59.95160263635653,
,,,,,,,,,,,,1,0,1,0,186,0,186,0,,,,,,,186,,,0.2,2252.2887039350862,Y,None,nogo,None,1,,2253.089511887778,,,,,,,,,,,,,,,,,54,001,22,m,Psychologie,2023-01-23_15h30.26.053,00_bat_bachelor,2022.2.4,59.95160263635653,
,,,,,,,,,,,,1,0,1,0,187,0,187,0,,,,,,,187,,,0.2,2253.2895466029768,X,d,go,l,0,0.30203689181871596,,,,,,,,,,,,,,,,,,54,001,22,m,Psychologie,2023-01-23_15h30.26.053,00_bat_bachelor,2022.2.4,59.95160263635653,
,,,,,,,,,,,,1,0,1,0,188,0,188,0,,,,,,,188,,,0.2,2253.9064992579406,Y,l,go,None,0,,2254.7071084224626,,,,,,,,,,,,,,,,,54,001,22,m,Psychologie,2023-01-23_15h30.26.053,00_bat_bachelor,2022.2.4,59.95160263635653,
,,,,,,,,,,,,1,0,1,0,189,0,189,0,,,,,,,189,,,0.2,2254.907260471169,X,d,go,None,0,,2255.708208545275,,,,,,,,,,,,,,,,,54,001,22,m,Psychologie,2023-01-23_15h30.26.053,00_bat_bachelor,2022.2.4,59.95160263635653,
,,,,,,,,,,,,1,0,1,0,190,0,190,0,,,,,,,190,,,0.2,2255.90804301776,Y,l,go,d,0,0.25850422243820503,,,,,,,,,,,,,,,,,,54,001,22,m,Psychologie,2023-01-23_15h30.26.053,00_bat_bachelor,2022.2.4,59.95160263635653,
,,,,,,,,,,,,1,0,1,0,191,0,191,0,,,,,,,191,,,0.2,2256.4917883516937,Y,None,nogo,l,0,0.47589799319393933,,,,,,,,,,,,,,,,,,54,001,22,m,Psychologie,2023-01-23_15h30.26.053,00_bat_bachelor,2022.2.4,59.95160263635653,
,,,,,,,,,,,,1,0,1,0,192,0,192,0,,,,,,,192,,,0.2,2257.275923310437,X,d,go,d,1,0.5068944019149058,,,,,,,,,,,,,,,,,,54,001,22,m,Psychologie,2023-01-23_15h30.26.053,00_bat_bachelor,2022.2.4,59.95160263635653,
,,,,,,,,,,,,1,0,1,0,193,0,193,0,,,,,,,193,,,0.2,2258.126437517243,Y,l,go,l,1,0.3126158162995125,,,,,,,,,,,,,,,,,,54,001,22,m,Psychologie,2023-01-23_15h30.26.053,00_bat_bachelor,2022.2.4,59.95160263635653,
,,,,,,,,,,,,1,0,1,0,194,0,194,0,,,,,,,194,,,0.2,2258.7602745604017,Y,None,nogo,d,0,0.4148108740373573,,,,,,,,,,,,,,,,,,54,001,22,m,Psychologie,2023-01-23_15h30.26.053,00_bat_bachelor,2022.2.4,59.95160263635653,
,,,,,,,,,,,,1,0,1,0,195,0,195,0,,,,,,,195,,,0.2,2259.5109665614073,X,d,go,None,0,,2260.3114166953965,,,,,,,,,,,,,,,,,54,001,22,m,Psychologie,2023-01-23_15h30.26.053,00_bat_bachelor,2022.2.4,59.95160263635653,
,,,,,,,,,,,,1,0,1,0,196,0,196,0,,,,,,,196,,,0.2,2260.5117990474682,Y,l,go,None,0,,2261.3122162117106,,,,,,,,,,,,,,,,,54,001,22,m,Psychologie,2023-01-23_15h30.26.053,00_bat_bachelor,2022.2.4,59.95160263635653,
,,,,,,,,,,,,1,0,1,0,197,0,197,0,,,,,,,197,,,0.2,2261.512453593874,X,d,go,d,1,0.26969890539112384,,,,,,,,,,,,,,,,,,54,001,22,m,Psychologie,2023-01-23_15h30.26.053,00_bat_bachelor,2022.2.4,59.95160263635653,
,,,,,,,,,,,,1,0,1,0,198,0,198,0,,,,,,,198,,,0.2,2262.1129989522415,X,None,nogo,l,0,0.2932213638450776,,,,,,,,,,,,,,,,,,54,001,22,m,Psychologie,2023-01-23_15h30.26.053,00_bat_bachelor,2022.2.4,59.95160263635653,
,,,,,,,,,,,,1,0,1,0,199,0,199,0,,,,,,,199,,,0.2,2262.746670176977,X,None,nogo,None,1,,2263.5473947356077,,,,,,,,,,,,,,,,,54,001,22,m,Psychologie,2023-01-23_15h30.26.053,00_bat_bachelor,2022.2.4,59.95160263635653,
