loop_instruction.thisRepN,loop_instruction.thisTrialN,loop_instruction.thisN,loop_instruction.thisIndex,loop_rsi_practice.thisRepN,loop_rsi_practice.thisTrialN,loop_rsi_practice.thisN,loop_rsi_practice.thisIndex,loop_practice.thisRepN,loop_practice.thisTrialN,loop_practice.thisN,loop_practice.thisIndex,loop_exp.thisRepN,loop_exp.thisTrialN,loop_exp.thisN,loop_exp.thisIndex,loop_trials.thisRepN,loop_trials.thisTrialN,loop_trials.thisN,loop_trials.thisIndex,map_condition,map_x_key,map_y_key,key_resp_welcome.started,key_resp_welcome.keys,key_resp_welcome.rt,index,text_empty_rsi_practice.started,text_empty_rsi_practice.stopped,rsi,stimulus.started,stimulus,correct,trial_type,key_resp_trial.keys,key_resp_trial.corr,key_resp_trial.rt,stimulus.stopped,key_resp_instruction_rsi.started,key_resp_instruction_rsi.keys,key_resp_instruction_rsi.rt,key_resp_instruction_rsi.stopped,key_resp_instruction_final.started,key_resp_instruction_final.keys,key_resp_instruction_final.rt,key_resp_break.started,key_resp_break.keys,key_resp_break.rt,key_resp_break.stopped,key_resp_end_screen.started,image_end_screen.started,key_resp_end_screen.keys,participant,session,Alter,Geschlecht (w/m/d/andere),Studiengang,date,expName,psychopyVersion,frameRate,
,,,,0,0,0,0,0,0,0,0,,,,,,,,,0,d,l,1450.9400836681016,j,33.29649068694562,0,1484.2683393922634,1485.2673199046403,1,1485.2673199046403,X,d,go,d,1,0.46878286032006145,,,,,,,,,,,,,,,,56,001,26,w,Psychologie,2023-01-24_09h12.21.660,00_bat_bachelor,2022.2.4,59.92651465998165,
,,,,0,0,0,0,1,0,1,0,,,,,,,,,,,,,,,1,1486.4520063395612,1487.4530323911458,1,1487.4530323911458,Y,l,go,None,0,,1488.253746565897,,,,,,,,,,,,,,,56,001,26,w,Psychologie,2023-01-24_09h12.21.660,00_bat_bachelor,2022.2.4,59.92651465998165,
,,,,0,0,0,0,2,0,2,0,,,,,,,,,,,,,,,2,1488.8543121456169,1489.855462915264,1,1489.855462915264,X,d,go,d,1,0.48173712147399783,,,,,,,,,,,,,,,,56,001,26,w,Psychologie,2023-01-24_09h12.21.660,00_bat_bachelor,2022.2.4,59.92651465998165,
,,,,0,0,0,0,3,0,3,0,,,,,,,,,,,,,,,3,1491.039909760002,1492.0409805299714,1,1492.0409805299714,X,None,nogo,None,1,,,,,,,,,,,,,,,,,56,001,26,w,Psychologie,2023-01-24_09h12.21.660,00_bat_bachelor,2022.2.4,59.92651465998165,
,,,,0,0,0,0,4,0,4,0,,,,,,,,,,,,,,,4,1493.442262745928,1494.4433519770391,1,1494.4433519770391,Y,l,go,l,1,0.3813358498737216,,,,,,,,,,,,,,,,56,001,26,w,Psychologie,2023-01-24_09h12.21.660,00_bat_bachelor,2022.2.4,59.92651465998165,
,,,,0,0,0,0,5,0,5,0,,,,,,,,,,,,,,,5,1495.527669139672,1496.5287288324907,1,1496.5287288324907,X,d,go,d,1,0.6317962603643537,,,,,,,,,,,,,,,,56,001,26,w,Psychologie,2023-01-24_09h12.21.660,00_bat_bachelor,2022.2.4,59.92651465998165,
,,,,0,0,0,0,6,0,6,0,,,,,,,,,,,,,,,6,1497.8633726621047,1498.8642780985683,1,1498.8642780985683,Y,l,go,l,1,0.40101257571950555,,,,,,,,,,,,,,,,56,001,26,w,Psychologie,2023-01-24_09h12.21.660,00_bat_bachelor,2022.2.4,59.92651465998165,
,,,,0,0,0,0,7,0,7,0,,,,,,,,,,,,,,,7,1499.982246147003,1500.9833013266325,1,1500.9833013266325,X,d,go,d,1,0.4179303264245391,,,,,,,,,,,,,,,,56,001,26,w,Psychologie,2023-01-24_09h12.21.660,00_bat_bachelor,2022.2.4,59.92651465998165,
,,,,0,0,0,0,8,0,8,0,,,,,,,,,,,,,,,8,1502.1175688691437,1503.118635125924,1,1503.118635125924,X,None,nogo,d,0,0.4501440832391381,,,,,,,,,,,,,,,,56,001,26,w,Psychologie,2023-01-24_09h12.21.660,00_bat_bachelor,2022.2.4,59.92651465998165,
,,,,0,0,0,0,9,0,9,0,,,,,,,,,,,,,,,9,1504.6701643778943,1505.671118634753,1,1505.671118634753,X,None,nogo,None,1,,,,,,,,,,,,,,,,,56,001,26,w,Psychologie,2023-01-24_09h12.21.660,00_bat_bachelor,2022.2.4,59.92651465998165,
,,,,0,0,0,0,10,0,10,0,,,,,,,,,,,,,,,10,1507.0724410554394,1508.073483927641,1,1508.073483927641,Y,l,go,l,1,0.5678704902529716,,,,,,,,,,,,,,,,56,001,26,w,Psychologie,2023-01-24_09h12.21.660,00_bat_bachelor,2022.2.4,59.92651465998165,
,,,,0,0,0,0,11,0,11,0,,,,,,,,,,,,,,,11,1509.3580666086636,1510.3591911219992,1,1510.3591911219992,X,d,go,d,1,0.39353400841355324,,,,,,,,,,,,,,,,56,001,26,w,Psychologie,2023-01-24_09h12.21.660,00_bat_bachelor,2022.2.4,59.92651465998165,
,,,,0,0,0,0,12,0,12,0,,,,,,,,,,,,,,,12,1511.460342753213,1512.4613216253929,1,1512.4613216253929,Y,l,go,l,1,0.46763988491147757,,,,,,,,,,,,,,,,56,001,26,w,Psychologie,2023-01-24_09h12.21.660,00_bat_bachelor,2022.2.4,59.92651465998165,
,,,,0,0,0,0,13,0,13,0,,,,,,,,,,,,,,,13,1513.6457697008736,1514.6468092910945,1,1514.6468092910945,Y,None,nogo,None,1,,,,,,,,,,,,,,,,,56,001,26,w,Psychologie,2023-01-24_09h12.21.660,00_bat_bachelor,2022.2.4,59.92651465998165,
,,,,0,0,0,0,14,0,14,0,,,,,,,,,,,,,,,14,1516.0481280200183,1517.0491721229628,1,1517.0491721229628,X,d,go,d,1,0.35144496569409966,,,,,,,,,,,,,,,,56,001,26,w,Psychologie,2023-01-24_09h12.21.660,00_bat_bachelor,2022.2.4,59.92651465998165,
,,,,1,0,1,0,0,0,0,0,,,,,,,,,,,,,,,0,1539.8887634417042,1540.0891364468262,0.2,1540.0891364468262,X,d,go,None,0,,,1518.1381826209836,j,21.729944403283298,,,,,,,,,,,,56,001,26,w,Psychologie,2023-01-24_09h12.21.660,00_bat_bachelor,2022.2.4,59.92651465998165,
,,,,1,0,1,0,1,0,1,0,,,,,,,,,,,,,,,1,1541.4903000988998,1541.6905619245954,0.2,1541.6905619245954,Y,l,go,l,1,0.3265165453776717,,,,,,,,,,,,,,,,56,001,26,w,Psychologie,2023-01-24_09h12.21.660,00_bat_bachelor,2022.2.4,59.92651465998165,
,,,,1,0,1,0,2,0,2,0,,,,,,,,,,,,,,,2,1542.724976297468,1542.9251556620002,0.2,1542.9251556620002,X,d,go,d,1,0.37137974333018064,,,,,,,,,,,,,,,,56,001,26,w,Psychologie,2023-01-24_09h12.21.660,00_bat_bachelor,2022.2.4,59.92651465998165,
,,,,1,0,1,0,3,0,3,0,,,,,,,,,,,,,,,3,1544.0095470808446,1544.2097604963928,0.2,1544.2097604963928,Y,l,go,l,1,0.4235816108994186,,,,,,,,,,,,,,,,56,001,26,w,Psychologie,2023-01-24_09h12.21.660,00_bat_bachelor,2022.2.4,59.92651465998165,
,,,,1,0,1,0,4,0,4,0,,,,,,,,,,,,,,,4,1545.344128551893,1545.5444396082312,0.2,1545.5444396082312,X,d,go,d,1,0.40888539934530854,,,,,,,,,,,,,,,,56,001,26,w,Psychologie,2023-01-24_09h12.21.660,00_bat_bachelor,2022.2.4,59.92651465998165,
,,,,1,0,1,0,5,0,5,0,,,,,,,,,,,,,,,5,1546.662148784846,1546.8624081490561,0.2,1546.8624081490561,Y,l,go,l,1,0.4906905614770949,,,,,,,,,,,,,,,,56,001,26,w,Psychologie,2023-01-24_09h12.21.660,00_bat_bachelor,2022.2.4,59.92651465998165,
,,,,1,0,1,0,6,0,6,0,,,,,,,,,,,,,,,6,1548.0635811546817,1548.2637436981313,0.2,1548.2637436981313,X,d,go,d,1,0.3610568670555949,,,,,,,,,,,,,,,,56,001,26,w,Psychologie,2023-01-24_09h12.21.660,00_bat_bachelor,2022.2.4,59.92651465998165,
,,,,1,0,1,0,7,0,7,0,,,,,,,,,,,,,,,7,1549.3314758283086,1549.5317031927407,0.2,1549.5317031927407,Y,l,go,l,1,0.3490384006872773,,,,,,,,,,,,,,,,56,001,26,w,Psychologie,2023-01-24_09h12.21.660,00_bat_bachelor,2022.2.4,59.92651465998165,
,,,,1,0,1,0,8,0,8,0,,,,,,,,,,,,,,,8,1550.5827505984344,1550.7829418596812,0.2,1550.7829418596812,X,d,go,d,1,0.3778220023959875,,,,,,,,,,,,,,,,56,001,26,w,Psychologie,2023-01-24_09h12.21.660,00_bat_bachelor,2022.2.4,59.92651465998165,
,,,,1,0,1,0,9,0,9,0,,,,,,,,,,,,,,,9,1551.8671687664464,1552.0676221819595,0.2,1552.0676221819595,Y,l,go,l,1,0.4531204947270453,,,,,,,,,,,,,,,,56,001,26,w,Psychologie,2023-01-24_09h12.21.660,00_bat_bachelor,2022.2.4,59.92651465998165,
,,,,1,0,1,0,10,0,10,0,,,,,,,,,,,,,,,10,1553.235417122487,1553.4356231531128,0.2,1553.4356231531128,Y,None,nogo,None,1,,,,,,,,,,,,,,,,,56,001,26,w,Psychologie,2023-01-24_09h12.21.660,00_bat_bachelor,2022.2.4,59.92651465998165,
,,,,1,0,1,0,11,0,11,0,,,,,,,,,,,,,,,11,1554.8370752152987,1555.0372352977283,0.2,1555.0372352977283,X,d,go,d,1,0.33190198335796595,,,,,,,,,,,,,,,,56,001,26,w,Psychologie,2023-01-24_09h12.21.660,00_bat_bachelor,2022.2.4,59.92651465998165,
,,,,1,0,1,0,12,0,12,0,,,,,,,,,,,,,,,12,1556.0713866963051,1556.2716046245769,0.2,1556.2716046245769,Y,l,go,l,1,0.3687118445523083,,,,,,,,,,,,,,,,56,001,26,w,Psychologie,2023-01-24_09h12.21.660,00_bat_bachelor,2022.2.4,59.92651465998165,
,,,,1,0,1,0,13,0,13,0,,,,,,,,,,,,,,,13,1557.356171223335,1557.5564494594,0.2,1557.5564494594,X,d,go,None,0,,,,,,,,,,,,,,,,,56,001,26,w,Psychologie,2023-01-24_09h12.21.660,00_bat_bachelor,2022.2.4,59.92651465998165,
,,,,1,0,1,0,14,0,14,0,,,,,,,,,,,,,,,14,1558.9580873674713,1559.1578638600186,0.2,1559.1578638600186,X,None,nogo,None,1,,,,,,,,,,,,,,,,,56,001,26,w,Psychologie,2023-01-24_09h12.21.660,00_bat_bachelor,2022.2.4,59.92651465998165,
,,,,,,,,,,,,,,,,,,,,,,,,,,,,,,,,,,,,,,1560.6022234265693,None,,1560.6022234265693,1560.6022234265693,space,11.553124228026718,,,,,,,,56,001,26,w,Psychologie,2023-01-24_09h12.21.660,00_bat_bachelor,2022.2.4,59.92651465998165,
,,,,,,,,,,,,0,0,0,0,0,0,0,0,,,,,,,0,,,1,1573.188516180031,X,d,go,d,1,0.31648618215695024,,,,,,,,,,,,,,,,56,001,26,w,Psychologie,2023-01-24_09h12.21.660,00_bat_bachelor,2022.2.4,59.92651465998165,
,,,,,,,,,,,,0,0,0,0,1,0,1,0,,,,,,,1,,,1,1574.6067251721397,Y,l,go,l,1,0.3055434082634747,,,,,,,,,,,,,,,,56,001,26,w,Psychologie,2023-01-24_09h12.21.660,00_bat_bachelor,2022.2.4,59.92651465998165,
,,,,,,,,,,,,0,0,0,0,2,0,2,0,,,,,,,2,,,1,1576.024890677072,X,d,go,d,1,0.48816707311198115,,,,,,,,,,,,,,,,56,001,26,w,Psychologie,2023-01-24_09h12.21.660,00_bat_bachelor,2022.2.4,59.92651465998165,
,,,,,,,,,,,,0,0,0,0,3,0,3,0,,,,,,,3,,,1,1577.6264732829295,Y,l,go,l,1,0.41427247878164053,,,,,,,,,,,,,,,,56,001,26,w,Psychologie,2023-01-24_09h12.21.660,00_bat_bachelor,2022.2.4,59.92651465998165,
,,,,,,,,,,,,0,0,0,0,4,0,4,0,,,,,,,4,,,1,1579.1447106236592,Y,None,nogo,None,1,,,,,,,,,,,,,,,,,56,001,26,w,Psychologie,2023-01-24_09h12.21.660,00_bat_bachelor,2022.2.4,59.92651465998165,
,,,,,,,,,,,,0,0,0,0,5,0,5,0,,,,,,,5,,,1,1580.9466026448645,X,d,go,d,1,0.35894609708338976,,,,,,,,,,,,,,,,56,001,26,w,Psychologie,2023-01-24_09h12.21.660,00_bat_bachelor,2022.2.4,59.92651465998165,
,,,,,,,,,,,,0,0,0,0,6,0,6,0,,,,,,,6,,,1,1582.4148477599956,Y,l,go,l,1,0.4178839670494199,,,,,,,,,,,,,,,,56,001,26,w,Psychologie,2023-01-24_09h12.21.660,00_bat_bachelor,2022.2.4,59.92651465998165,
,,,,,,,,,,,,0,0,0,0,7,0,7,0,,,,,,,7,,,1,1583.949315671809,X,d,go,d,1,0.33930711448192596,,,,,,,,,,,,,,,,56,001,26,w,Psychologie,2023-01-24_09h12.21.660,00_bat_bachelor,2022.2.4,59.92651465998165,
,,,,,,,,,,,,0,0,0,0,8,0,8,0,,,,,,,8,,,1,1585.4009162671864,X,None,nogo,None,1,,,,,,,,,,,,,,,,,56,001,26,w,Psychologie,2023-01-24_09h12.21.660,00_bat_bachelor,2022.2.4,59.92651465998165,
,,,,,,,,,,,,0,0,0,0,9,0,9,0,,,,,,,9,,,1,1587.2026429553516,Y,l,go,l,1,0.3906843666918576,,,,,,,,,,,,,,,,56,001,26,w,Psychologie,2023-01-24_09h12.21.660,00_bat_bachelor,2022.2.4,59.92651465998165,
,,,,,,,,,,,,0,0,0,0,10,0,10,0,,,,,,,10,,,1,1588.7043243916705,X,d,go,d,1,0.3842950304970145,,,,,,,,,,,,,,,,56,001,26,w,Psychologie,2023-01-24_09h12.21.660,00_bat_bachelor,2022.2.4,59.92651465998165,
,,,,,,,,,,,,0,0,0,0,11,0,11,0,,,,,,,11,,,1,1590.2057100334205,Y,l,go,l,1,0.4186142240650952,,,,,,,,,,,,,,,,56,001,26,w,Psychologie,2023-01-24_09h12.21.660,00_bat_bachelor,2022.2.4,59.92651465998165,
,,,,,,,,,,,,0,0,0,0,12,0,12,0,,,,,,,12,,,1,1591.7406005091034,X,d,go,d,1,0.46809855243191123,,,,,,,,,,,,,,,,56,001,26,w,Psychologie,2023-01-24_09h12.21.660,00_bat_bachelor,2022.2.4,59.92651465998165,
,,,,,,,,,,,,0,0,0,0,13,0,13,0,,,,,,,13,,,1,1593.325428236276,X,None,nogo,None,1,,,,,,,,,,,,,,,,,56,001,26,w,Psychologie,2023-01-24_09h12.21.660,00_bat_bachelor,2022.2.4,59.92651465998165,
,,,,,,,,,,,,0,0,0,0,14,0,14,0,,,,,,,14,,,1,1595.127342411317,Y,l,go,l,1,0.4101173998787999,,,,,,,,,,,,,,,,56,001,26,w,Psychologie,2023-01-24_09h12.21.660,00_bat_bachelor,2022.2.4,59.92651465998165,
,,,,,,,,,,,,0,0,0,0,15,0,15,0,,,,,,,15,,,1,1596.6456064190716,X,d,go,d,1,0.5315943728201091,,,,,,,,,,,,,,,,56,001,26,w,Psychologie,2023-01-24_09h12.21.660,00_bat_bachelor,2022.2.4,59.92651465998165,
,,,,,,,,,,,,0,0,0,0,16,0,16,0,,,,,,,16,,,1,1598.28043703828,Y,l,go,l,1,0.42449155962094665,,,,,,,,,,,,,,,,56,001,26,w,Psychologie,2023-01-24_09h12.21.660,00_bat_bachelor,2022.2.4,59.92651465998165,
,,,,,,,,,,,,0,0,0,0,17,0,17,0,,,,,,,17,,,1,1599.8154542832635,X,d,go,d,1,0.40115288365632296,,,,,,,,,,,,,,,,56,001,26,w,Psychologie,2023-01-24_09h12.21.660,00_bat_bachelor,2022.2.4,59.92651465998165,
,,,,,,,,,,,,0,0,0,0,18,0,18,0,,,,,,,18,,,1,1601.3336071115918,Y,l,go,l,1,0.42754222778603435,,,,,,,,,,,,,,,,56,001,26,w,Psychologie,2023-01-24_09h12.21.660,00_bat_bachelor,2022.2.4,59.92651465998165,
,,,,,,,,,,,,0,0,0,0,19,0,19,0,,,,,,,19,,,1,1602.8685369719751,X,d,go,d,1,0.6126204575411975,,,,,,,,,,,,,,,,56,001,26,w,Psychologie,2023-01-24_09h12.21.660,00_bat_bachelor,2022.2.4,59.92651465998165,
,,,,,,,,,,,,0,0,0,0,20,0,20,0,,,,,,,20,,,1,1604.5867702923715,X,None,nogo,None,1,,1605.3875853898935,,,,,,,,,,,,,,,56,001,26,w,Psychologie,2023-01-24_09h12.21.660,00_bat_bachelor,2022.2.4,59.92651465998165,
,,,,,,,,,,,,0,0,0,0,21,0,21,0,,,,,,,21,,,1,1606.3887123647146,Y,l,go,l,1,0.43657689820975065,,,,,,,,,,,,,,,,56,001,26,w,Psychologie,2023-01-24_09h12.21.660,00_bat_bachelor,2022.2.4,59.92651465998165,
,,,,,,,,,,,,0,0,0,0,22,0,22,0,,,,,,,22,,,1,1607.9401074629277,X,d,go,d,1,0.5727738770656288,,,,,,,,,,,,,,,,56,001,26,w,Psychologie,2023-01-24_09h12.21.660,00_bat_bachelor,2022.2.4,59.92651465998165,
,,,,,,,,,,,,0,0,0,0,23,0,23,0,,,,,,,23,,,1,1609.6252408721484,X,None,nogo,None,1,,,,,,,,,,,,,,,,,56,001,26,w,Psychologie,2023-01-24_09h12.21.660,00_bat_bachelor,2022.2.4,59.92651465998165,
,,,,,,,,,,,,0,0,0,0,24,0,24,0,,,,,,,24,,,1,1611.4269478674978,Y,l,go,l,1,0.30159140657633543,,,,,,,,,,,,,,,,56,001,26,w,Psychologie,2023-01-24_09h12.21.660,00_bat_bachelor,2022.2.4,59.92651465998165,
,,,,,,,,,,,,0,0,0,0,25,0,25,0,,,,,,,25,,,1,1612.844897577539,X,d,go,d,1,0.5633498732931912,,,,,,,,,,,,,,,,56,001,26,w,Psychologie,2023-01-24_09h12.21.660,00_bat_bachelor,2022.2.4,59.92651465998165,
,,,,,,,,,,,,0,0,0,0,26,0,26,0,,,,,,,26,,,1,1614.5134238004684,Y,l,go,l,1,0.44788849214091897,,,,,,,,,,,,,,,,56,001,26,w,Psychologie,2023-01-24_09h12.21.660,00_bat_bachelor,2022.2.4,59.92651465998165,
,,,,,,,,,,,,0,0,0,0,27,0,27,0,,,,,,,27,,,1,1616.065036334563,Y,None,nogo,None,1,,,,,,,,,,,,,,,,,56,001,26,w,Psychologie,2023-01-24_09h12.21.660,00_bat_bachelor,2022.2.4,59.92651465998165,
,,,,,,,,,,,,0,0,0,0,28,0,28,0,,,,,,,28,,,1,1617.8668483560905,X,d,go,d,1,0.4298449978232384,,,,,,,,,,,,,,,,56,001,26,w,Psychologie,2023-01-24_09h12.21.660,00_bat_bachelor,2022.2.4,59.92651465998165,
,,,,,,,,,,,,0,0,0,0,29,0,29,0,,,,,,,29,,,1,1619.401591959875,Y,l,go,l,1,0.43164602434262633,,,,,,,,,,,,,,,,56,001,26,w,Psychologie,2023-01-24_09h12.21.660,00_bat_bachelor,2022.2.4,59.92651465998165,
,,,,,,,,,,,,0,0,0,0,30,0,30,0,,,,,,,30,,,1,1620.9365406921133,Y,None,nogo,None,1,,,,,,,,,,,,,,,,,56,001,26,w,Psychologie,2023-01-24_09h12.21.660,00_bat_bachelor,2022.2.4,59.92651465998165,
,,,,,,,,,,,,0,0,0,0,31,0,31,0,,,,,,,31,,,1,1622.7384048160166,X,d,go,d,1,0.3508464014157653,,,,,,,,,,,,,,,,56,001,26,w,Psychologie,2023-01-24_09h12.21.660,00_bat_bachelor,2022.2.4,59.92651465998165,
,,,,,,,,,,,,0,0,0,0,32,0,32,0,,,,,,,32,,,1,1624.2064690082334,Y,l,go,l,1,0.5627787956036627,,,,,,,,,,,,,,,,56,001,26,w,Psychologie,2023-01-24_09h12.21.660,00_bat_bachelor,2022.2.4,59.92651465998165,
,,,,,,,,,,,,0,0,0,0,33,0,33,0,,,,,,,33,,,1,1625.8745997436345,X,d,go,d,1,0.47824419755488634,,,,,,,,,,,,,,,,56,001,26,w,Psychologie,2023-01-24_09h12.21.660,00_bat_bachelor,2022.2.4,59.92651465998165,
,,,,,,,,,,,,0,0,0,0,34,0,34,0,,,,,,,34,,,1,1627.4595320862718,Y,l,go,l,1,0.35770178912207484,,,,,,,,,,,,,,,,56,001,26,w,Psychologie,2023-01-24_09h12.21.660,00_bat_bachelor,2022.2.4,59.92651465998165,
,,,,,,,,,,,,0,0,0,0,35,0,35,0,,,,,,,35,,,1,1628.9278362784535,Y,None,nogo,None,1,,,,,,,,,,,,,,,,,56,001,26,w,Psychologie,2023-01-24_09h12.21.660,00_bat_bachelor,2022.2.4,59.92651465998165,
,,,,,,,,,,,,0,0,0,0,36,0,36,0,,,,,,,36,,,1,1630.7294928124174,X,d,go,d,1,0.2870917087420821,,,,,,,,,,,,,,,,56,001,26,w,Psychologie,2023-01-24_09h12.21.660,00_bat_bachelor,2022.2.4,59.92651465998165,
,,,,,,,,,,,,0,0,0,0,37,0,37,0,,,,,,,37,,,1,1632.1313764643855,Y,l,go,l,1,0.42228643083944917,,,,,,,,,,,,,,,,56,001,26,w,Psychologie,2023-01-24_09h12.21.660,00_bat_bachelor,2022.2.4,59.92651465998165,
,,,,,,,,,,,,0,0,0,0,38,0,38,0,,,,,,,38,,,1,1633.6658718632534,X,d,go,None,0,,,,,,,,,,,,,,,,,56,001,26,w,Psychologie,2023-01-24_09h12.21.660,00_bat_bachelor,2022.2.4,59.92651465998165,
,,,,,,,,,,,,0,0,0,0,39,0,39,0,,,,,,,39,,,1,1635.4676010124385,Y,l,go,l,1,0.5009863604791462,,,,,,,,,,,,,,,,56,001,26,w,Psychologie,2023-01-24_09h12.21.660,00_bat_bachelor,2022.2.4,59.92651465998165,
,,,,,,,,,,,,0,0,0,0,40,0,40,0,,,,,,,40,,,1,1637.0859348047525,Y,None,nogo,None,1,,,,,,,,,,,,,,,,,56,001,26,w,Psychologie,2023-01-24_09h12.21.660,00_bat_bachelor,2022.2.4,59.92651465998165,
,,,,,,,,,,,,0,0,0,0,41,0,41,0,,,,,,,41,,,1,1638.8878510310315,X,d,go,d,1,0.3773949253372848,,,,,,,,,,,,,,,,56,001,26,w,Psychologie,2023-01-24_09h12.21.660,00_bat_bachelor,2022.2.4,59.92651465998165,
,,,,,,,,,,,,0,0,0,0,42,0,42,0,,,,,,,42,,,1,1640.372462511994,Y,l,go,l,1,0.3561785062775016,,,,,,,,,,,,,,,,56,001,26,w,Psychologie,2023-01-24_09h12.21.660,00_bat_bachelor,2022.2.4,59.92651465998165,
,,,,,,,,,,,,0,0,0,0,43,0,43,0,,,,,,,43,,,1,1641.8407133705914,X,d,go,d,1,0.48048050608485937,,,,,,,,,,,,,,,,56,001,26,w,Psychologie,2023-01-24_09h12.21.660,00_bat_bachelor,2022.2.4,59.92651465998165,
,,,,,,,,,,,,0,0,0,0,44,0,44,0,,,,,,,44,,,1,1643.42570807226,X,None,nogo,None,1,,,,,,,,,,,,,,,,,56,001,26,w,Psychologie,2023-01-24_09h12.21.660,00_bat_bachelor,2022.2.4,59.92651465998165,
,,,,,,,,,,,,0,0,0,0,45,0,45,0,,,,,,,45,,,1,1645.227435991168,X,None,nogo,d,0,0.365353484172374,,,,,,,,,,,,,,,,56,001,26,w,Psychologie,2023-01-24_09h12.21.660,00_bat_bachelor,2022.2.4,59.92651465998165,
,,,,,,,,,,,,0,0,0,0,46,0,46,0,,,,,,,46,,,1,1646.6956359781325,Y,l,go,l,1,0.5454914043657482,,,,,,,,,,,,,,,,56,001,26,w,Psychologie,2023-01-24_09h12.21.660,00_bat_bachelor,2022.2.4,59.92651465998165,
,,,,,,,,,,,,0,0,0,0,47,0,47,0,,,,,,,47,,,1,1648.3472407581285,X,d,go,d,1,0.445644389372319,,,,,,,,,,,,,,,,56,001,26,w,Psychologie,2023-01-24_09h12.21.660,00_bat_bachelor,2022.2.4,59.92651465998165,
,,,,,,,,,,,,0,0,0,0,48,0,48,0,,,,,,,48,,,1,1649.8987179072574,Y,l,go,l,1,0.39746877970173955,,,,,,,,,,,,,,,,56,001,26,w,Psychologie,2023-01-24_09h12.21.660,00_bat_bachelor,2022.2.4,59.92651465998165,
,,,,,,,,,,,,0,0,0,0,49,0,49,0,,,,,,,49,,,1,1651.400095754303,X,d,go,d,1,0.4560361881740391,,,,,,,,,,,,,,,,56,001,26,w,Psychologie,2023-01-24_09h12.21.660,00_bat_bachelor,2022.2.4,59.92651465998165,
,,,,,,,,,,,,0,0,0,0,50,0,50,0,,,,,,,50,,,1,1652.9683938333765,X,None,nogo,None,1,,1653.7692835978232,,,,,,,,,,,,,,,56,001,26,w,Psychologie,2023-01-24_09h12.21.660,00_bat_bachelor,2022.2.4,59.92651465998165,
,,,,,,,,,,,,0,0,0,0,51,0,51,0,,,,,,,51,,,1,1654.7707933420315,Y,l,go,l,1,0.3987159593962133,,,,,,,,,,,,,,,,56,001,26,w,Psychologie,2023-01-24_09h12.21.660,00_bat_bachelor,2022.2.4,59.92651465998165,
,,,,,,,,,,,,0,0,0,0,52,0,52,0,,,,,,,52,,,1,1656.2719168295152,X,d,go,d,1,0.4647779352962971,,,,,,,,,,,,,,,,56,001,26,w,Psychologie,2023-01-24_09h12.21.660,00_bat_bachelor,2022.2.4,59.92651465998165,
,,,,,,,,,,,,0,0,0,0,53,0,53,0,,,,,,,53,,,1,1657.8399371653795,Y,l,go,l,1,0.4007569858804345,,,,,,,,,,,,,,,,56,001,26,w,Psychologie,2023-01-24_09h12.21.660,00_bat_bachelor,2022.2.4,59.92651465998165,
,,,,,,,,,,,,0,0,0,0,54,0,54,0,,,,,,,54,,,1,1659.34147952497,X,d,go,d,1,0.38664128771051764,,,,,,,,,,,,,,,,56,001,26,w,Psychologie,2023-01-24_09h12.21.660,00_bat_bachelor,2022.2.4,59.92651465998165,
,,,,,,,,,,,,0,0,0,0,55,0,55,0,,,,,,,55,,,1,1660.843096140772,Y,l,go,l,1,0.35741953225806355,,,,,,,,,,,,,,,,56,001,26,w,Psychologie,2023-01-24_09h12.21.660,00_bat_bachelor,2022.2.4,59.92651465998165,
,,,,,,,,,,,,0,0,0,0,56,0,56,0,,,,,,,56,,,1,1662.311357256025,X,d,go,d,1,0.40197626827284694,,,,,,,,,,,,,,,,56,001,26,w,Psychologie,2023-01-24_09h12.21.660,00_bat_bachelor,2022.2.4,59.92651465998165,
,,,,,,,,,,,,0,0,0,0,57,0,57,0,,,,,,,57,,,1,1663.8294928534888,Y,l,go,l,1,0.45137772476300597,,,,,,,,,,,,,,,,56,001,26,w,Psychologie,2023-01-24_09h12.21.660,00_bat_bachelor,2022.2.4,59.92651465998165,
,,,,,,,,,,,,0,0,0,0,58,0,58,0,,,,,,,58,,,1,1665.3975972915068,X,d,go,d,1,0.4513075710274279,,,,,,,,,,,,,,,,56,001,26,w,Psychologie,2023-01-24_09h12.21.660,00_bat_bachelor,2022.2.4,59.92651465998165,
,,,,,,,,,,,,0,0,0,0,59,0,59,0,,,,,,,59,,,1,1666.9658699347638,X,None,nogo,None,1,,1667.7666280069388,,,,,,,,,,,,,,,56,001,26,w,Psychologie,2023-01-24_09h12.21.660,00_bat_bachelor,2022.2.4,59.92651465998165,
,,,,,,,,,,,,0,0,0,0,60,0,60,0,,,,,,,60,,,1,1668.7678214432672,Y,l,go,l,1,0.3845629277639091,,,,,,,,,,,,,,,,56,001,26,w,Psychologie,2023-01-24_09h12.21.660,00_bat_bachelor,2022.2.4,59.92651465998165,
,,,,,,,,,,,,0,0,0,0,61,0,61,0,,,,,,,61,,,1,1670.2858721176162,X,d,go,None,0,,,,,,,,,,,,,,,,,56,001,26,w,Psychologie,2023-01-24_09h12.21.660,00_bat_bachelor,2022.2.4,59.92651465998165,
,,,,,,,,,,,,0,0,0,0,62,0,62,0,,,,,,,62,,,1,1672.0875852671452,X,None,nogo,None,1,,,,,,,,,,,,,,,,,56,001,26,w,Psychologie,2023-01-24_09h12.21.660,00_bat_bachelor,2022.2.4,59.92651465998165,
,,,,,,,,,,,,0,0,0,0,63,0,63,0,,,,,,,63,,,1,1673.8892512368038,Y,l,go,l,1,0.3508907090872526,,,,,,,,,,,,,,,,56,001,26,w,Psychologie,2023-01-24_09h12.21.660,00_bat_bachelor,2022.2.4,59.92651465998165,
,,,,,,,,,,,,0,0,0,0,64,0,64,0,,,,,,,64,,,1,1675.3574561467394,X,d,go,d,1,0.4115307340398431,,,,,,,,,,,,,,,,56,001,26,w,Psychologie,2023-01-24_09h12.21.660,00_bat_bachelor,2022.2.4,59.92651465998165,
,,,,,,,,,,,,0,0,0,0,65,0,65,0,,,,,,,65,,,1,1676.8755121543072,Y,l,go,l,1,0.3496094779111445,,,,,,,,,,,,,,,,56,001,26,w,Psychologie,2023-01-24_09h12.21.660,00_bat_bachelor,2022.2.4,59.92651465998165,
,,,,,,,,,,,,0,0,0,0,66,0,66,0,,,,,,,66,,,1,1678.3272095704451,X,d,go,d,1,0.39415185526013374,,,,,,,,,,,,,,,,56,001,26,w,Psychologie,2023-01-24_09h12.21.660,00_bat_bachelor,2022.2.4,59.92651465998165,
,,,,,,,,,,,,0,0,0,0,67,0,67,0,,,,,,,67,,,1,1679.8284343914129,Y,l,go,l,1,0.4602080872282386,,,,,,,,,,,,,,,,56,001,26,w,Psychologie,2023-01-24_09h12.21.660,00_bat_bachelor,2022.2.4,59.92651465998165,
,,,,,,,,,,,,0,0,0,0,68,0,68,0,,,,,,,68,,,1,1681.3966364706866,X,d,go,d,1,0.4674499365501106,,,,,,,,,,,,,,,,56,001,26,w,Psychologie,2023-01-24_09h12.21.660,00_bat_bachelor,2022.2.4,59.92651465998165,
,,,,,,,,,,,,0,0,0,0,69,0,69,0,,,,,,,69,,,1,1682.9816016335972,Y,l,go,l,1,0.33169316267594695,,,,,,,,,,,,,,,,56,001,26,w,Psychologie,2023-01-24_09h12.21.660,00_bat_bachelor,2022.2.4,59.92651465998165,
,,,,,,,,,,,,0,0,0,0,70,0,70,0,,,,,,,70,,,1,1684.4162065298297,X,d,go,d,1,0.40853914292529225,,,,,,,,,,,,,,,,56,001,26,w,Psychologie,2023-01-24_09h12.21.660,00_bat_bachelor,2022.2.4,59.92651465998165,
,,,,,,,,,,,,0,0,0,0,71,0,71,0,,,,,,,71,,,1,1685.934575153049,Y,l,go,l,1,0.35468106996268034,,,,,,,,,,,,,,,,56,001,26,w,Psychologie,2023-01-24_09h12.21.660,00_bat_bachelor,2022.2.4,59.92651465998165,
,,,,,,,,,,,,0,0,0,0,72,0,72,0,,,,,,,72,,,1,1687.4027620116249,X,d,go,d,1,0.3978618052788079,,,,,,,,,,,,,,,,56,001,26,w,Psychologie,2023-01-24_09h12.21.660,00_bat_bachelor,2022.2.4,59.92651465998165,
,,,,,,,,,,,,0,0,0,0,73,0,73,0,,,,,,,73,,,1,1688.9043622175232,Y,l,go,l,1,0.3769567711278796,,,,,,,,,,,,,,,,56,001,26,w,Psychologie,2023-01-24_09h12.21.660,00_bat_bachelor,2022.2.4,59.92651465998165,
,,,,,,,,,,,,0,0,0,0,74,0,74,0,,,,,,,74,,,1,1690.3890397497453,X,d,go,d,1,0.3479229127988219,,,,,,,,,,,,,,,,56,001,26,w,Psychologie,2023-01-24_09h12.21.660,00_bat_bachelor,2022.2.4,59.92651465998165,
,,,,,,,,,,,,0,0,0,0,75,0,75,0,,,,,,,75,,,1,1691.840761370957,Y,l,go,l,1,0.34435203950852156,,,,,,,,,,,,,,,,56,001,26,w,Psychologie,2023-01-24_09h12.21.660,00_bat_bachelor,2022.2.4,59.92651465998165,
,,,,,,,,,,,,0,0,0,0,76,0,76,0,,,,,,,76,,,1,1693.2922138636932,Y,None,nogo,d,0,0.31718854140490294,,,,,,,,,,,,,,,,56,001,26,w,Psychologie,2023-01-24_09h12.21.660,00_bat_bachelor,2022.2.4,59.92651465998165,
,,,,,,,,,,,,0,0,0,0,77,0,77,0,,,,,,,77,,,1,1694.7099219323136,X,d,go,None,0,,,,,,,,,,,,,,,,,56,001,26,w,Psychologie,2023-01-24_09h12.21.660,00_bat_bachelor,2022.2.4,59.92651465998165,
,,,,,,,,,,,,0,0,0,0,78,0,78,0,,,,,,,78,,,1,1696.5118201076984,Y,l,go,l,1,0.32178833801299334,,,,,,,,,,,,,,,,56,001,26,w,Psychologie,2023-01-24_09h12.21.660,00_bat_bachelor,2022.2.4,59.92651465998165,
,,,,,,,,,,,,0,0,0,0,79,0,79,0,,,,,,,79,,,1,1697.9464430552907,X,d,go,d,1,0.4777859402820468,,,,,,,,,,,,,,,,56,001,26,w,Psychologie,2023-01-24_09h12.21.660,00_bat_bachelor,2022.2.4,59.92651465998165,
,,,,,,,,,,,,0,0,0,0,80,0,80,0,,,,,,,80,,,1,1699.531484936364,X,None,nogo,l,0,0.3651967663317919,,,,,,,,,,,,,,,,56,001,26,w,Psychologie,2023-01-24_09h12.21.660,00_bat_bachelor,2022.2.4,59.92651465998165,
,,,,,,,,,,,,0,0,0,0,81,0,81,0,,,,,,,81,,,1,1700.9995729229413,Y,l,go,l,1,0.6413864181376994,,,,,,,,,,,,,,,,56,001,26,w,Psychologie,2023-01-24_09h12.21.660,00_bat_bachelor,2022.2.4,59.92651465998165,
,,,,,,,,,,,,0,0,0,0,82,0,82,0,,,,,,,82,,,1,1702.7513648211025,X,d,go,d,1,0.5215984713286161,,,,,,,,,,,,,,,,56,001,26,w,Psychologie,2023-01-24_09h12.21.660,00_bat_bachelor,2022.2.4,59.92651465998165,
,,,,,,,,,,,,0,0,0,0,83,0,83,0,,,,,,,83,,,1,1704.386365287006,Y,l,go,l,1,0.5984210669994354,,,,,,,,,,,,,,,,56,001,26,w,Psychologie,2023-01-24_09h12.21.660,00_bat_bachelor,2022.2.4,59.92651465998165,
,,,,,,,,,,,,0,0,0,0,84,0,84,0,,,,,,,84,,,1,1706.088080036454,X,d,go,d,1,0.5362663748674095,,,,,,,,,,,,,,,,56,001,26,w,Psychologie,2023-01-24_09h12.21.660,00_bat_bachelor,2022.2.4,59.92651465998165,
,,,,,,,,,,,,0,0,0,0,85,0,85,0,,,,,,,85,,,1,1707.7396614318714,X,None,nogo,None,1,,,,,,,,,,,,,,,,,56,001,26,w,Psychologie,2023-01-24_09h12.21.660,00_bat_bachelor,2022.2.4,59.92651465998165,
,,,,,,,,,,,,0,0,0,0,86,0,86,0,,,,,,,86,,,1,1709.5414377609268,Y,l,go,l,1,0.28359386092051864,,,,,,,,,,,,,,,,56,001,26,w,Psychologie,2023-01-24_09h12.21.660,00_bat_bachelor,2022.2.4,59.92651465998165,
,,,,,,,,,,,,0,0,0,0,87,0,87,0,,,,,,,87,,,1,1710.9262038674206,X,d,go,d,1,0.5460743787698448,,,,,,,,,,,,,,,,56,001,26,w,Psychologie,2023-01-24_09h12.21.660,00_bat_bachelor,2022.2.4,59.92651465998165,
,,,,,,,,,,,,0,0,0,0,88,0,88,0,,,,,,,88,,,1,1712.5781832118519,X,None,nogo,None,1,,1713.3786573861726,,,,,,,,,,,,,,,56,001,26,w,Psychologie,2023-01-24_09h12.21.660,00_bat_bachelor,2022.2.4,59.92651465998165,
,,,,,,,,,,,,0,0,0,0,89,0,89,0,,,,,,,89,,,1,1714.3796333866194,Y,l,go,l,1,0.29315242916345596,,,,,,,,,,,,,,,,56,001,26,w,Psychologie,2023-01-24_09h12.21.660,00_bat_bachelor,2022.2.4,59.92651465998165,
,,,,,,,,,,,,0,0,0,0,90,0,90,0,,,,,,,90,,,1,1715.7810571412556,X,d,go,d,1,0.40361360227689147,,,,,,,,,,,,,,,,56,001,26,w,Psychologie,2023-01-24_09h12.21.660,00_bat_bachelor,2022.2.4,59.92651465998165,
,,,,,,,,,,,,0,0,0,0,91,0,91,0,,,,,,,91,,,1,1717.2992038154043,X,None,nogo,None,1,,,,,,,,,,,,,,,,,56,001,26,w,Psychologie,2023-01-24_09h12.21.660,00_bat_bachelor,2022.2.4,59.92651465998165,
,,,,,,,,,,,,0,0,0,0,92,0,92,0,,,,,,,92,,,1,1719.1009727595374,Y,l,go,l,1,0.31603695126250386,,,,,,,,,,,,,,,,56,001,26,w,Psychologie,2023-01-24_09h12.21.660,00_bat_bachelor,2022.2.4,59.92651465998165,
,,,,,,,,,,,,0,0,0,0,93,0,93,0,,,,,,,93,,,1,1720.5190849313512,X,d,go,d,1,0.433648896869272,,,,,,,,,,,,,,,,56,001,26,w,Psychologie,2023-01-24_09h12.21.660,00_bat_bachelor,2022.2.4,59.92651465998165,
,,,,,,,,,,,,0,0,0,0,94,0,94,0,,,,,,,94,,,1,1722.0539946891367,Y,l,go,l,1,0.4271278688684106,,,,,,,,,,,,,,,,56,001,26,w,Psychologie,2023-01-24_09h12.21.660,00_bat_bachelor,2022.2.4,59.92651465998165,
,,,,,,,,,,,,0,0,0,0,95,0,95,0,,,,,,,95,,,1,1723.588842087891,X,d,go,d,1,0.37210507644340396,,,,,,,,,,,,,,,,56,001,26,w,Psychologie,2023-01-24_09h12.21.660,00_bat_bachelor,2022.2.4,59.92651465998165,
,,,,,,,,,,,,0,0,0,0,96,0,96,0,,,,,,,96,,,1,1725.0749198258854,X,None,nogo,None,1,,1725.8747150255367,,,,,,,,,,,,,,,56,001,26,w,Psychologie,2023-01-24_09h12.21.660,00_bat_bachelor,2022.2.4,59.92651465998165,
,,,,,,,,,,,,0,0,0,0,97,0,97,0,,,,,,,97,,,1,1726.8754657953978,Y,l,go,l,1,0.3172455672174692,,,,,,,,,,,,,,,,56,001,26,w,Psychologie,2023-01-24_09h12.21.660,00_bat_bachelor,2022.2.4,59.92651465998165,
,,,,,,,,,,,,0,0,0,0,98,0,98,0,,,,,,,98,,,1,1728.2935504796915,X,d,go,d,1,0.41890919860452414,,,,,,,,,,,,,,,,56,001,26,w,Psychologie,2023-01-24_09h12.21.660,00_bat_bachelor,2022.2.4,59.92651465998165,
,,,,,,,,,,,,0,0,0,0,99,0,99,0,,,,,,,99,,,1,1729.8284450578503,Y,l,go,l,1,0.40379411540925503,,,,,,,,,,,,,,,,56,001,26,w,Psychologie,2023-01-24_09h12.21.660,00_bat_bachelor,2022.2.4,59.92651465998165,
,,,,,,,,,,,,0,0,0,0,100,0,100,0,,,,,,,100,,,1,1731.3466179887764,X,d,go,d,1,0.285964323207736,,,,,,,,,,,,,,,,56,001,26,w,Psychologie,2023-01-24_09h12.21.660,00_bat_bachelor,2022.2.4,59.92651465998165,
,,,,,,,,,,,,0,0,0,0,101,0,101,0,,,,,,,101,,,1,1732.7480142558925,X,None,nogo,None,1,,,,,,,,,,,,,,,,,56,001,26,w,Psychologie,2023-01-24_09h12.21.660,00_bat_bachelor,2022.2.4,59.92651465998165,
,,,,,,,,,,,,0,0,0,0,102,0,102,0,,,,,,,102,,,1,1734.5497684311122,Y,l,go,l,1,0.28332350216805935,,,,,,,,,,,,,,,,56,001,26,w,Psychologie,2023-01-24_09h12.21.660,00_bat_bachelor,2022.2.4,59.92651465998165,
,,,,,,,,,,,,0,0,0,0,103,0,103,0,,,,,,,103,,,1,1735.9345763837919,X,d,go,d,1,0.49064174108207226,,,,,,,,,,,,,,,,56,001,26,w,Psychologie,2023-01-24_09h12.21.660,00_bat_bachelor,2022.2.4,59.92651465998165,
,,,,,,,,,,,,0,0,0,0,104,0,104,0,,,,,,,104,,,1,1737.5359173482284,Y,l,go,l,1,0.4882158935070038,,,,,,,,,,,,,,,,56,001,26,w,Psychologie,2023-01-24_09h12.21.660,00_bat_bachelor,2022.2.4,59.92651465998165,
,,,,,,,,,,,,0,0,0,0,105,0,105,0,,,,,,,105,,,1,1739.1377735952847,X,d,go,d,1,0.4465576200746,,,,,,,,,,,,,,,,56,001,26,w,Psychologie,2023-01-24_09h12.21.660,00_bat_bachelor,2022.2.4,59.92651465998165,
,,,,,,,,,,,,0,0,0,0,106,0,106,0,,,,,,,106,,,1,1740.6894251033664,Y,l,go,l,1,0.4711988610215485,,,,,,,,,,,,,,,,56,001,26,w,Psychologie,2023-01-24_09h12.21.660,00_bat_bachelor,2022.2.4,59.92651465998165,
,,,,,,,,,,,,0,0,0,0,107,0,107,0,,,,,,,107,,,1,1742.274010779336,Y,None,nogo,None,1,,,,,,,,,,,,,,,,,56,001,26,w,Psychologie,2023-01-24_09h12.21.660,00_bat_bachelor,2022.2.4,59.92651465998165,
,,,,,,,,,,,,0,0,0,0,108,0,108,0,,,,,,,108,,,1,1744.0758310058154,X,d,go,d,1,0.2691306755878031,,,,,,,,,,,,,,,,56,001,26,w,Psychologie,2023-01-24_09h12.21.660,00_bat_bachelor,2022.2.4,59.92651465998165,
,,,,,,,,,,,,0,0,0,0,109,0,109,0,,,,,,,109,,,1,1745.46037926618,Y,l,go,l,1,0.38790200650691986,,,,,,,,,,,,,,,,56,001,26,w,Psychologie,2023-01-24_09h12.21.660,00_bat_bachelor,2022.2.4,59.92651465998165,
,,,,,,,,,,,,0,0,0,0,110,0,110,0,,,,,,,110,,,1,1746.9620939334854,X,d,go,d,1,0.382896875962615,,,,,,,,,,,,,,,,56,001,26,w,Psychologie,2023-01-24_09h12.21.660,00_bat_bachelor,2022.2.4,59.92651465998165,
,,,,,,,,,,,,0,0,0,0,111,0,111,0,,,,,,,111,,,1,1748.4468670552596,X,None,nogo,None,1,,1749.2478101532906,,,,,,,,,,,,,,,56,001,26,w,Psychologie,2023-01-24_09h12.21.660,00_bat_bachelor,2022.2.4,59.92651465998165,
,,,,,,,,,,,,0,0,0,0,112,0,112,0,,,,,,,112,,,1,1750.2488485127687,Y,l,go,l,1,0.3682453827932477,,,,,,,,,,,,,,,,56,001,26,w,Psychologie,2023-01-24_09h12.21.660,00_bat_bachelor,2022.2.4,59.92651465998165,
,,,,,,,,,,,,0,0,0,0,113,0,113,0,,,,,,,113,,,1,1751.7333537368104,X,d,go,d,1,0.34747614338994026,,,,,,,,,,,,,,,,56,001,26,w,Psychologie,2023-01-24_09h12.21.660,00_bat_bachelor,2022.2.4,59.92651465998165,
,,,,,,,,,,,,0,0,0,0,114,0,114,0,,,,,,,114,,,1,1753.1850540246814,Y,l,go,l,1,0.4161969921551645,,,,,,,,,,,,,,,,56,001,26,w,Psychologie,2023-01-24_09h12.21.660,00_bat_bachelor,2022.2.4,59.92651465998165,
,,,,,,,,,,,,0,0,0,0,115,0,115,0,,,,,,,115,,,1,1754.702957006637,Y,None,nogo,None,1,,1755.5039206170477,,,,,,,,,,,,,,,56,001,26,w,Psychologie,2023-01-24_09h12.21.660,00_bat_bachelor,2022.2.4,59.92651465998165,
,,,,,,,,,,,,0,0,0,0,116,0,116,0,,,,,,,116,,,1,1756.5048728226684,X,d,go,d,1,0.5514942789450288,,,,,,,,,,,,,,,,56,001,26,w,Psychologie,2023-01-24_09h12.21.660,00_bat_bachelor,2022.2.4,59.92651465998165,
,,,,,,,,,,,,0,0,0,0,117,0,117,0,,,,,,,117,,,1,1758.1734929946251,Y,l,go,l,1,0.5239459597505629,,,,,,,,,,,,,,,,56,001,26,w,Psychologie,2023-01-24_09h12.21.660,00_bat_bachelor,2022.2.4,59.92651465998165,
,,,,,,,,,,,,0,0,0,0,118,0,118,0,,,,,,,118,,,1,1759.8083129473962,X,d,go,d,1,0.4721371177583933,,,,,,,,,,,,,,,,56,001,26,w,Psychologie,2023-01-24_09h12.21.660,00_bat_bachelor,2022.2.4,59.92651465998165,
,,,,,,,,,,,,0,0,0,0,119,0,119,0,,,,,,,119,,,1,1761.3934069308452,Y,l,go,l,1,0.3760037450119853,,,,,,,,,,,,,,,,56,001,26,w,Psychologie,2023-01-24_09h12.21.660,00_bat_bachelor,2022.2.4,59.92651465998165,
,,,,,,,,,,,,0,0,0,0,120,0,120,0,,,,,,,120,,,1,1762.8778653861955,X,d,go,d,1,0.5873761395923793,,,,,,,,,,,,,,,,56,001,26,w,Psychologie,2023-01-24_09h12.21.660,00_bat_bachelor,2022.2.4,59.92651465998165,
,,,,,,,,,,,,0,0,0,0,121,0,121,0,,,,,,,121,,,1,1764.5796310072765,X,None,nogo,None,1,,,,,,,,,,,,,,,,,56,001,26,w,Psychologie,2023-01-24_09h12.21.660,00_bat_bachelor,2022.2.4,59.92651465998165,
,,,,,,,,,,,,0,0,0,0,122,0,122,0,,,,,,,122,,,1,1766.3816612851806,Y,l,go,l,1,0.28291734773665667,,,,,,,,,,,,,,,,56,001,26,w,Psychologie,2023-01-24_09h12.21.660,00_bat_bachelor,2022.2.4,59.92651465998165,
,,,,,,,,,,,,0,0,0,0,123,0,123,0,,,,,,,123,,,1,1767.7659560069442,X,d,go,d,1,0.5060292347334325,,,,,,,,,,,,,,,,56,001,26,w,Psychologie,2023-01-24_09h12.21.660,00_bat_bachelor,2022.2.4,59.92651465998165,
,,,,,,,,,,,,0,0,0,0,124,0,124,0,,,,,,,124,,,1,1769.3844251837581,X,None,nogo,None,1,,,,,,,,,,,,,,,,,56,001,26,w,Psychologie,2023-01-24_09h12.21.660,00_bat_bachelor,2022.2.4,59.92651465998165,
,,,,,,,,,,,,0,0,0,0,125,0,125,0,,,,,,,125,,,1,1771.1862404868007,Y,l,go,l,1,0.29448124999180436,,,,,,,,,,,,,,,,56,001,26,w,Psychologie,2023-01-24_09h12.21.660,00_bat_bachelor,2022.2.4,59.92651465998165,
,,,,,,,,,,,,0,0,0,0,126,0,126,0,,,,,,,126,,,1,1772.5876872157678,X,d,go,d,1,0.38096251618117094,,,,,,,,,,,,,,,,56,001,26,w,Psychologie,2023-01-24_09h12.21.660,00_bat_bachelor,2022.2.4,59.92651465998165,
,,,,,,,,,,,,0,0,0,0,127,0,127,0,,,,,,,127,,,1,1774.0725444401614,X,None,nogo,None,1,,,,,,,,,,,,,,,,,56,001,26,w,Psychologie,2023-01-24_09h12.21.660,00_bat_bachelor,2022.2.4,59.92651465998165,
,,,,,,,,,,,,0,0,0,0,128,0,128,0,,,,,,,128,,,1,1775.874235025607,Y,l,go,l,1,0.3019417659379542,,,,,,,,,,,,,,,,56,001,26,w,Psychologie,2023-01-24_09h12.21.660,00_bat_bachelor,2022.2.4,59.92651465998165,
,,,,,,,,,,,,0,0,0,0,129,0,129,0,,,,,,,129,,,1,1777.2923041200265,X,d,go,d,1,0.4282573047094047,,,,,,,,,,,,,,,,56,001,26,w,Psychologie,2023-01-24_09h12.21.660,00_bat_bachelor,2022.2.4,59.92651465998165,
,,,,,,,,,,,,0,0,0,0,130,0,130,0,,,,,,,130,,,1,1778.8273853654973,X,None,nogo,None,1,,,,,,,,,,,,,,,,,56,001,26,w,Psychologie,2023-01-24_09h12.21.660,00_bat_bachelor,2022.2.4,59.92651465998165,
,,,,,,,,,,,,0,0,0,0,131,0,131,0,,,,,,,131,,,1,1780.6289803609252,Y,l,go,l,1,0.31586710503324866,,,,,,,,,,,,,,,,56,001,26,w,Psychologie,2023-01-24_09h12.21.660,00_bat_bachelor,2022.2.4,59.92651465998165,
,,,,,,,,,,,,0,0,0,0,132,0,132,0,,,,,,,132,,,1,1782.0474711991847,X,d,go,d,1,0.3294904949143529,,,,,,,,,,,,,,,,56,001,26,w,Psychologie,2023-01-24_09h12.21.660,00_bat_bachelor,2022.2.4,59.92651465998165,
,,,,,,,,,,,,0,0,0,0,133,0,133,0,,,,,,,133,,,1,1783.4819989670068,Y,l,go,l,1,0.39950201101601124,,,,,,,,,,,,,,,,56,001,26,w,Psychologie,2023-01-24_09h12.21.660,00_bat_bachelor,2022.2.4,59.92651465998165,
,,,,,,,,,,,,0,0,0,0,134,0,134,0,,,,,,,134,,,1,1784.98344491655,Y,None,nogo,None,1,,,,,,,,,,,,,,,,,56,001,26,w,Psychologie,2023-01-24_09h12.21.660,00_bat_bachelor,2022.2.4,59.92651465998165,
,,,,,,,,,,,,0,0,0,0,135,0,135,0,,,,,,,135,,,1,1786.7853385787457,Y,None,nogo,l,0,0.48768953420221806,,,,,,,,,,,,,,,,56,001,26,w,Psychologie,2023-01-24_09h12.21.660,00_bat_bachelor,2022.2.4,59.92651465998165,
,,,,,,,,,,,,0,0,0,0,136,0,136,0,,,,,,,136,,,1,1788.3873039539903,X,d,go,d,1,0.37399430805817246,,,,,,,,,,,,,,,,56,001,26,w,Psychologie,2023-01-24_09h12.21.660,00_bat_bachelor,2022.2.4,59.92651465998165,
,,,,,,,,,,,,0,0,0,0,137,0,137,0,,,,,,,137,,,1,1789.8716200501658,Y,l,go,l,1,0.44880459550768137,,,,,,,,,,,,,,,,56,001,26,w,Psychologie,2023-01-24_09h12.21.660,00_bat_bachelor,2022.2.4,59.92651465998165,
,,,,,,,,,,,,0,0,0,0,138,0,138,0,,,,,,,138,,,1,1791.42332858406,Y,None,nogo,None,1,,,,,,,,,,,,,,,,,56,001,26,w,Psychologie,2023-01-24_09h12.21.660,00_bat_bachelor,2022.2.4,59.92651465998165,
,,,,,,,,,,,,0,0,0,0,139,0,139,0,,,,,,,139,,,1,1793.225461426191,X,d,go,d,1,0.3357666004449129,,,,,,,,,,,,,,,,56,001,26,w,Psychologie,2023-01-24_09h12.21.660,00_bat_bachelor,2022.2.4,59.92651465998165,
,,,,,,,,,,,,0,0,0,0,140,0,140,0,,,,,,,140,,,1,1794.6764618162997,Y,l,go,l,1,0.404720064252615,,,,,,,,,,,,,,,,56,001,26,w,Psychologie,2023-01-24_09h12.21.660,00_bat_bachelor,2022.2.4,59.92651465998165,
,,,,,,,,,,,,0,0,0,0,141,0,141,0,,,,,,,141,,,1,1796.194705720991,Y,None,nogo,None,1,,,,,,,,,,,,,,,,,56,001,26,w,Psychologie,2023-01-24_09h12.21.660,00_bat_bachelor,2022.2.4,59.92651465998165,
,,,,,,,,,,,,0,0,0,0,142,0,142,0,,,,,,,142,,,1,1797.9966445118189,X,d,go,d,1,0.40437052631750703,,,,,,,,,,,,,,,,56,001,26,w,Psychologie,2023-01-24_09h12.21.660,00_bat_bachelor,2022.2.4,59.92651465998165,
,,,,,,,,,,,,0,0,0,0,143,0,143,0,,,,,,,143,,,1,1799.5149983651936,Y,l,go,l,1,0.34968209359794855,,,,,,,,,,,,,,,,56,001,26,w,Psychologie,2023-01-24_09h12.21.660,00_bat_bachelor,2022.2.4,59.92651465998165,
,,,,,,,,,,,,0,0,0,0,144,0,144,0,,,,,,,144,,,1,1800.9659618325531,Y,None,nogo,None,1,,,,,,,,,,,,,,,,,56,001,26,w,Psychologie,2023-01-24_09h12.21.660,00_bat_bachelor,2022.2.4,59.92651465998165,
,,,,,,,,,,,,0,0,0,0,145,0,145,0,,,,,,,145,,,1,1802.7847880143672,X,d,go,d,1,0.34335101395845413,,,,,,,,,,,,,,,,56,001,26,w,Psychologie,2023-01-24_09h12.21.660,00_bat_bachelor,2022.2.4,59.92651465998165,
,,,,,,,,,,,,0,0,0,0,146,0,146,0,,,,,,,146,,,1,1804.2364969179034,Y,l,go,l,1,0.28435365622863173,,,,,,,,,,,,,,,,56,001,26,w,Psychologie,2023-01-24_09h12.21.660,00_bat_bachelor,2022.2.4,59.92651465998165,
,,,,,,,,,,,,0,0,0,0,147,0,147,0,,,,,,,147,,,1,1805.6378968772478,X,d,go,d,1,0.37117092264816165,,,,,,,,,,,,,,,,56,001,26,w,Psychologie,2023-01-24_09h12.21.660,00_bat_bachelor,2022.2.4,59.92651465998165,
,,,,,,,,,,,,0,0,0,0,148,0,148,0,,,,,,,148,,,1,1807.1222835374065,Y,l,go,l,1,0.26185067277401686,,,,,,,,,,,,,,,,56,001,26,w,Psychologie,2023-01-24_09h12.21.660,00_bat_bachelor,2022.2.4,59.92651465998165,
,,,,,,,,,,,,0,0,0,0,149,0,149,0,,,,,,,149,,,1,1808.490294765681,X,d,go,d,1,0.42276150779798627,,,,,,,,,,,,,,,,56,001,26,w,Psychologie,2023-01-24_09h12.21.660,00_bat_bachelor,2022.2.4,59.92651465998165,
,,,,,,,,,,,,0,0,0,0,150,0,150,0,,,,,,,150,,,1,1810.0254843183793,Y,l,go,l,1,0.29447632702067494,,,,,,,,,,,,,,,,56,001,26,w,Psychologie,2023-01-24_09h12.21.660,00_bat_bachelor,2022.2.4,59.92651465998165,
,,,,,,,,,,,,0,0,0,0,151,0,151,0,,,,,,,151,,,1,1811.4432194642723,X,d,go,d,1,0.3180160289630294,,,,,,,,,,,,,,,,56,001,26,w,Psychologie,2023-01-24_09h12.21.660,00_bat_bachelor,2022.2.4,59.92651465998165,
,,,,,,,,,,,,0,0,0,0,152,0,152,0,,,,,,,152,,,1,1812.8780184118077,Y,l,go,l,1,0.3872800571843982,,,,,,,,,,,,,,,,56,001,26,w,Psychologie,2023-01-24_09h12.21.660,00_bat_bachelor,2022.2.4,59.92651465998165,
,,,,,,,,,,,,0,0,0,0,153,0,153,0,,,,,,,153,,,1,1814.3795238481835,X,d,go,d,1,0.4140648888424039,,,,,,,,,,,,,,,,56,001,26,w,Psychologie,2023-01-24_09h12.21.660,00_bat_bachelor,2022.2.4,59.92651465998165,
,,,,,,,,,,,,0,0,0,0,154,0,154,0,,,,,,,154,,,1,1815.9085296038538,Y,l,go,l,1,0.3221985944546759,,,,,,,,,,,,,,,,56,001,26,w,Psychologie,2023-01-24_09h12.21.660,00_bat_bachelor,2022.2.4,59.92651465998165,
,,,,,,,,,,,,0,0,0,0,155,0,155,0,,,,,,,155,,,1,1817.3323968546465,X,d,go,d,1,0.6363414926454425,,,,,,,,,,,,,,,,56,001,26,w,Psychologie,2023-01-24_09h12.21.660,00_bat_bachelor,2022.2.4,59.92651465998165,
,,,,,,,,,,,,0,0,0,0,156,0,156,0,,,,,,,156,,,1,1819.0842519323342,Y,l,go,l,1,0.29263140307739377,,,,,,,,,,,,,,,,56,001,26,w,Psychologie,2023-01-24_09h12.21.660,00_bat_bachelor,2022.2.4,59.92651465998165,
,,,,,,,,,,,,0,0,0,0,157,0,157,0,,,,,,,157,,,1,1820.4859571228735,X,d,go,d,1,0.4434199780225754,,,,,,,,,,,,,,,,56,001,26,w,Psychologie,2023-01-24_09h12.21.660,00_bat_bachelor,2022.2.4,59.92651465998165,
,,,,,,,,,,,,0,0,0,0,158,0,158,0,,,,,,,158,,,1,1822.0374958105385,X,None,nogo,None,1,,,,,,,,,,,,,,,,,56,001,26,w,Psychologie,2023-01-24_09h12.21.660,00_bat_bachelor,2022.2.4,59.92651465998165,
,,,,,,,,,,,,0,0,0,0,159,0,159,0,,,,,,,159,,,1,1823.8390321391635,Y,l,go,l,1,0.28266873210668564,,,,,,,,,,,,,,,,56,001,26,w,Psychologie,2023-01-24_09h12.21.660,00_bat_bachelor,2022.2.4,59.92651465998165,
,,,,,,,,,,,,0,0,0,0,160,0,160,0,,,,,,,160,,,1,1825.223797425162,X,d,go,d,1,0.4331877683289349,,,,,,,,,,,,,,,,56,001,26,w,Psychologie,2023-01-24_09h12.21.660,00_bat_bachelor,2022.2.4,59.92651465998165,
,,,,,,,,,,,,0,0,0,0,161,0,161,0,,,,,,,161,,,1,1826.7584852343425,Y,l,go,l,1,0.3218749021179974,,,,,,,,,,,,,,,,56,001,26,w,Psychologie,2023-01-24_09h12.21.660,00_bat_bachelor,2022.2.4,59.92651465998165,
,,,,,,,,,,,,0,0,0,0,162,0,162,0,,,,,,,162,,,1,1828.1937051052228,Y,None,nogo,d,0,0.38343759439885616,,,,,,,,,,,,,,,,56,001,26,w,Psychologie,2023-01-24_09h12.21.660,00_bat_bachelor,2022.2.4,59.92651465998165,
,,,,,,,,,,,,0,0,0,0,163,0,163,0,,,,,,,163,,,1,1829.6783083812334,X,d,go,d,1,0.29028514586389065,,,,,,,,,,,,,,,,56,001,26,w,Psychologie,2023-01-24_09h12.21.660,00_bat_bachelor,2022.2.4,59.92651465998165,
,,,,,,,,,,,,0,0,0,0,164,0,164,0,,,,,,,164,,,1,1831.0796287506819,Y,l,go,l,1,0.4415561822243035,,,,,,,,,,,,,,,,56,001,26,w,Psychologie,2023-01-24_09h12.21.660,00_bat_bachelor,2022.2.4,59.92651465998165,
,,,,,,,,,,,,0,0,0,0,165,0,165,0,,,,,,,165,,,1,1832.6311219003983,X,d,go,d,1,0.4173387363553047,,,,,,,,,,,,,,,,56,001,26,w,Psychologie,2023-01-24_09h12.21.660,00_bat_bachelor,2022.2.4,59.92651465998165,
,,,,,,,,,,,,0,0,0,0,166,0,166,0,,,,,,,166,,,1,1834.1493100100197,X,None,nogo,None,1,,,,,,,,,,,,,,,,,56,001,26,w,Psychologie,2023-01-24_09h12.21.660,00_bat_bachelor,2022.2.4,59.92651465998165,
,,,,,,,,,,,,0,0,0,0,167,0,167,0,,,,,,,167,,,1,1835.9511634674855,Y,l,go,l,1,0.31343141198158264,,,,,,,,,,,,,,,,56,001,26,w,Psychologie,2023-01-24_09h12.21.660,00_bat_bachelor,2022.2.4,59.92651465998165,
,,,,,,,,,,,,0,0,0,0,168,0,168,0,,,,,,,168,,,1,1837.3692645621486,X,d,go,d,1,0.6234832312911749,,,,,,,,,,,,,,,,56,001,26,w,Psychologie,2023-01-24_09h12.21.660,00_bat_bachelor,2022.2.4,59.92651465998165,
,,,,,,,,,,,,0,0,0,0,169,0,169,0,,,,,,,169,,,1,1839.1048345048912,X,None,nogo,l,0,0.30382320284843445,,,,,,,,,,,,,,,,56,001,26,w,Psychologie,2023-01-24_09h12.21.660,00_bat_bachelor,2022.2.4,59.92651465998165,
,,,,,,,,,,,,0,0,0,0,170,0,170,0,,,,,,,170,,,1,1840.5226389840245,Y,l,go,l,1,0.2932910956442356,,,,,,,,,,,,,,,,56,001,26,w,Psychologie,2023-01-24_09h12.21.660,00_bat_bachelor,2022.2.4,59.92651465998165,
,,,,,,,,,,,,0,0,0,0,171,0,171,0,,,,,,,171,,,1,1841.9236426353455,X,d,go,d,1,0.4133539139293134,,,,,,,,,,,,,,,,56,001,26,w,Psychologie,2023-01-24_09h12.21.660,00_bat_bachelor,2022.2.4,59.92651465998165,
,,,,,,,,,,,,0,0,0,0,172,0,172,0,,,,,,,172,,,1,1843.4418106428348,X,None,nogo,None,1,,,,,,,,,,,,,,,,,56,001,26,w,Psychologie,2023-01-24_09h12.21.660,00_bat_bachelor,2022.2.4,59.92651465998165,
,,,,,,,,,,,,0,0,0,0,173,0,173,0,,,,,,,173,,,1,1845.243974254001,Y,l,go,l,1,0.33325829124078155,,,,,,,,,,,,,,,,56,001,26,w,Psychologie,2023-01-24_09h12.21.660,00_bat_bachelor,2022.2.4,59.92651465998165,
,,,,,,,,,,,,0,0,0,0,174,0,174,0,,,,,,,174,,,1,1846.6787453042343,X,d,go,d,1,0.42623186809942126,,,,,,,,,,,,,,,,56,001,26,w,Psychologie,2023-01-24_09h12.21.660,00_bat_bachelor,2022.2.4,59.92651465998165,
,,,,,,,,,,,,0,0,0,0,175,0,175,0,,,,,,,175,,,1,1848.2132640876807,X,None,nogo,None,1,,,,,,,,,,,,,,,,,56,001,26,w,Psychologie,2023-01-24_09h12.21.660,00_bat_bachelor,2022.2.4,59.92651465998165,
,,,,,,,,,,,,0,0,0,0,176,0,176,0,,,,,,,176,,,1,1850.015041647479,Y,l,go,l,1,0.2817132449708879,,,,,,,,,,,,,,,,56,001,26,w,Psychologie,2023-01-24_09h12.21.660,00_bat_bachelor,2022.2.4,59.92651465998165,
,,,,,,,,,,,,0,0,0,0,177,0,177,0,,,,,,,177,,,1,1851.3997778054327,X,d,go,d,1,0.3609186108224094,,,,,,,,,,,,,,,,56,001,26,w,Psychologie,2023-01-24_09h12.21.660,00_bat_bachelor,2022.2.4,59.92651465998165,
,,,,,,,,,,,,0,0,0,0,178,0,178,0,,,,,,,178,,,1,1852.867976971902,Y,l,go,l,1,0.46164398500695825,,,,,,,,,,,,,,,,56,001,26,w,Psychologie,2023-01-24_09h12.21.660,00_bat_bachelor,2022.2.4,59.92651465998165,
,,,,,,,,,,,,0,0,0,0,179,0,179,0,,,,,,,179,,,1,1854.436151153408,X,d,go,d,1,0.2931019673123956,,,,,,,,,,,,,,,,56,001,26,w,Psychologie,2023-01-24_09h12.21.660,00_bat_bachelor,2022.2.4,59.92651465998165,
,,,,,,,,,,,,0,0,0,0,180,0,180,0,,,,,,,180,,,1,1855.8376770620234,X,None,nogo,None,1,,,,,,,,,,,,,,,,,56,001,26,w,Psychologie,2023-01-24_09h12.21.660,00_bat_bachelor,2022.2.4,59.92651465998165,
,,,,,,,,,,,,0,0,0,0,181,0,181,0,,,,,,,181,,,1,1857.65617626952,Y,l,go,l,1,0.3286182899028063,,,,,,,,,,,,,,,,56,001,26,w,Psychologie,2023-01-24_09h12.21.660,00_bat_bachelor,2022.2.4,59.92651465998165,
,,,,,,,,,,,,0,0,0,0,182,0,182,0,,,,,,,182,,,1,1859.091066293884,X,d,go,d,1,0.5819792142137885,,,,,,,,,,,,,,,,56,001,26,w,Psychologie,2023-01-24_09h12.21.660,00_bat_bachelor,2022.2.4,59.92651465998165,
,,,,,,,,,,,,0,0,0,0,183,0,183,0,,,,,,,183,,,1,1860.775880113244,Y,l,go,l,1,0.40086570428684354,,,,,,,,,,,,,,,,56,001,26,w,Psychologie,2023-01-24_09h12.21.660,00_bat_bachelor,2022.2.4,59.92651465998165,
,,,,,,,,,,,,0,0,0,0,184,0,184,0,,,,,,,184,,,1,1862.2776743704453,Y,None,nogo,None,1,,1863.07840085309,,,,,,,,,,,,,,,56,001,26,w,Psychologie,2023-01-24_09h12.21.660,00_bat_bachelor,2022.2.4,59.92651465998165,
,,,,,,,,,,,,0,0,0,0,185,0,185,0,,,,,,,185,,,1,1864.079511007294,X,d,go,d,1,0.249649231787771,,,,,,,,,,,,,,,,56,001,26,w,Psychologie,2023-01-24_09h12.21.660,00_bat_bachelor,2022.2.4,59.92651465998165,
,,,,,,,,,,,,0,0,0,0,186,0,186,0,,,,,,,186,,,1,1865.430714433547,Y,l,go,l,1,0.4422064390964806,,,,,,,,,,,,,,,,56,001,26,w,Psychologie,2023-01-24_09h12.21.660,00_bat_bachelor,2022.2.4,59.92651465998165,
,,,,,,,,,,,,0,0,0,0,187,0,187,0,,,,,,,187,,,1,1866.9821288133971,Y,None,nogo,None,1,,,,,,,,,,,,,,,,,56,001,26,w,Psychologie,2023-01-24_09h12.21.660,00_bat_bachelor,2022.2.4,59.92651465998165,
,,,,,,,,,,,,0,0,0,0,188,0,188,0,,,,,,,188,,,1,1868.7838792963885,X,d,go,d,1,0.44869587710127234,,,,,,,,,,,,,,,,56,001,26,w,Psychologie,2023-01-24_09h12.21.660,00_bat_bachelor,2022.2.4,59.92651465998165,
,,,,,,,,,,,,0,0,0,0,189,0,189,0,,,,,,,189,,,1,1870.3353691636585,Y,l,go,l,1,0.265778879635036,,,,,,,,,,,,,,,,56,001,26,w,Psychologie,2023-01-24_09h12.21.660,00_bat_bachelor,2022.2.4,59.92651465998165,
,,,,,,,,,,,,0,0,0,0,190,0,190,0,,,,,,,190,,,1,1871.703516186215,X,d,go,d,1,0.40913114324212074,,,,,,,,,,,,,,,,56,001,26,w,Psychologie,2023-01-24_09h12.21.660,00_bat_bachelor,2022.2.4,59.92651465998165,
,,,,,,,,,,,,0,0,0,0,191,0,191,0,,,,,,,191,,,1,1873.2216702448204,Y,l,go,l,1,0.46684521809220314,,,,,,,,,,,,,,,,56,001,26,w,Psychologie,2023-01-24_09h12.21.660,00_bat_bachelor,2022.2.4,59.92651465998165,
,,,,,,,,,,,,0,0,0,0,192,0,192,0,,,,,,,192,,,1,1874.7899088370614,X,d,go,d,1,0.37874507950618863,,,,,,,,,,,,,,,,56,001,26,w,Psychologie,2023-01-24_09h12.21.660,00_bat_bachelor,2022.2.4,59.92651465998165,
,,,,,,,,,,,,0,0,0,0,193,0,193,0,,,,,,,193,,,1,1876.2747106770985,Y,l,go,l,1,0.3018158171325922,,,,,,,,,,,,,,,,56,001,26,w,Psychologie,2023-01-24_09h12.21.660,00_bat_bachelor,2022.2.4,59.92651465998165,
,,,,,,,,,,,,0,0,0,0,194,0,194,0,,,,,,,194,,,1,1877.693351669237,Y,None,nogo,None,1,,1878.4943083054386,,,,,,,,,,,,,,,56,001,26,w,Psychologie,2023-01-24_09h12.21.660,00_bat_bachelor,2022.2.4,59.92651465998165,
,,,,,,,,,,,,0,0,0,0,195,0,195,0,,,,,,,195,,,1,1879.495111587923,X,d,go,d,1,0.28924555564299226,,,,,,,,,,,,,,,,56,001,26,w,Psychologie,2023-01-24_09h12.21.660,00_bat_bachelor,2022.2.4,59.92651465998165,
,,,,,,,,,,,,0,0,0,0,196,0,196,0,,,,,,,196,,,1,1880.91302601574,Y,l,go,l,1,0.43235084507614374,,,,,,,,,,,,,,,,56,001,26,w,Psychologie,2023-01-24_09h12.21.660,00_bat_bachelor,2022.2.4,59.92651465998165,
,,,,,,,,,,,,0,0,0,0,197,0,197,0,,,,,,,197,,,1,1882.4475177223794,X,d,go,d,1,0.344989578705281,,,,,,,,,,,,,,,,56,001,26,w,Psychologie,2023-01-24_09h12.21.660,00_bat_bachelor,2022.2.4,59.92651465998165,
,,,,,,,,,,,,0,0,0,0,198,0,198,0,,,,,,,198,,,1,1883.8992569847032,X,None,nogo,None,1,,,,,,,,,,,,,,,,,56,001,26,w,Psychologie,2023-01-24_09h12.21.660,00_bat_bachelor,2022.2.4,59.92651465998165,
,,,,,,,,,,,,0,0,0,0,199,0,199,0,,,,,,,199,,,1,1885.701073108241,Y,l,go,l,1,0.34790732339024544,,,,,,,,,,,,,,,,56,001,26,w,Psychologie,2023-01-24_09h12.21.660,00_bat_bachelor,2022.2.4,59.92651465998165,
,,,,,,,,,,,,0,0,0,0,200,0,200,0,,,,,,,200,,,1,1887.1523828320205,X,d,go,d,1,0.26479959674179554,,,,,,,,,,,,,,,,56,001,26,w,Psychologie,2023-01-24_09h12.21.660,00_bat_bachelor,2022.2.4,59.92651465998165,
,,,,,,,,,,,,0,0,0,0,201,0,201,0,,,,,,,201,,,1,1888.5210726242512,Y,l,go,l,1,0.4239122774451971,,,,,,,,,,,,,,,,56,001,26,w,Psychologie,2023-01-24_09h12.21.660,00_bat_bachelor,2022.2.4,59.92651465998165,
,,,,,,,,,,,,0,0,0,0,202,0,202,0,,,,,,,202,,,1,1890.0554904844612,X,d,go,d,1,0.3849945180118084,,,,,,,,,,,,,,,,56,001,26,w,Psychologie,2023-01-24_09h12.21.660,00_bat_bachelor,2022.2.4,59.92651465998165,
,,,,,,,,,,,,0,0,0,0,203,0,203,0,,,,,,,203,,,1,1891.5737758255564,X,None,nogo,None,1,,1892.3741351282224,,,,,,,,,,,,,,,56,001,26,w,Psychologie,2023-01-24_09h12.21.660,00_bat_bachelor,2022.2.4,59.92651465998165,
,,,,,,,,,,,,0,0,0,0,204,0,204,0,,,,,,,204,,,1,1893.3752452824265,Y,l,go,l,1,0.38563656946644187,,,,,,,,,,,,,,,,56,001,26,w,Psychologie,2023-01-24_09h12.21.660,00_bat_bachelor,2022.2.4,59.92651465998165,
,,,,,,,,,,,,0,0,0,0,205,0,205,0,,,,,,,205,,,1,1894.8771741036326,X,d,go,d,1,0.27559713972732425,,,,,,,,,,,,,,,,56,001,26,w,Psychologie,2023-01-24_09h12.21.660,00_bat_bachelor,2022.2.4,59.92651465998165,
,,,,,,,,,,,,0,0,0,0,206,0,206,0,,,,,,,206,,,1,1896.2623787745833,Y,l,go,l,1,0.3393707047216594,,,,,,,,,,,,,,,,56,001,26,w,Psychologie,2023-01-24_09h12.21.660,00_bat_bachelor,2022.2.4,59.92651465998165,
,,,,,,,,,,,,0,0,0,0,207,0,207,0,,,,,,,207,,,1,1897.7129496261477,X,d,go,d,1,0.5437634033150971,,,,,,,,,,,,,,,,56,001,26,w,Psychologie,2023-01-24_09h12.21.660,00_bat_bachelor,2022.2.4,59.92651465998165,
,,,,,,,,,,,,0,0,0,0,208,0,208,0,,,,,,,208,,,1,1899.3656924581155,Y,l,go,l,1,0.2595770307816565,,,,,,,,,,,,,,,,56,001,26,w,Psychologie,2023-01-24_09h12.21.660,00_bat_bachelor,2022.2.4,59.92651465998165,
,,,,,,,,,,,,0,0,0,0,209,0,209,0,,,,,,,209,,,1,1900.7324281982146,Y,None,nogo,None,1,,,,,,,,,,,,,,,,,56,001,26,w,Psychologie,2023-01-24_09h12.21.660,00_bat_bachelor,2022.2.4,59.92651465998165,
,,,,,,,,,,,,0,0,0,0,210,0,210,0,,,,,,,210,,,1,1902.535031604115,X,d,go,d,1,0.3618507133796811,,,,,,,,,,,,,,,,56,001,26,w,Psychologie,2023-01-24_09h12.21.660,00_bat_bachelor,2022.2.4,59.92651465998165,
,,,,,,,,,,,,0,0,0,0,211,0,211,0,,,,,,,211,,,1,1904.0028939503245,Y,l,go,l,1,0.28664042614400387,,,,,,,,,,,,,,,,56,001,26,w,Psychologie,2023-01-24_09h12.21.660,00_bat_bachelor,2022.2.4,59.92651465998165,
,,,,,,,,,,,,0,0,0,0,212,0,212,0,,,,,,,212,,,1,1905.403931653127,Y,None,nogo,None,1,,,,,,,,,,,,,,,,,56,001,26,w,Psychologie,2023-01-24_09h12.21.660,00_bat_bachelor,2022.2.4,59.92651465998165,
,,,,,,,,,,,,0,0,0,0,213,0,213,0,,,,,,,213,,,1,1907.2059180336073,X,d,go,d,1,0.29082914581522346,,,,,,,,,,,,,,,,56,001,26,w,Psychologie,2023-01-24_09h12.21.660,00_bat_bachelor,2022.2.4,59.92651465998165,
,,,,,,,,,,,,0,0,0,0,214,0,214,0,,,,,,,214,,,1,1908.6075128647499,Y,l,go,l,1,0.26502687903121114,,,,,,,,,,,,,,,,56,001,26,w,Psychologie,2023-01-24_09h12.21.660,00_bat_bachelor,2022.2.4,59.92651465998165,
,,,,,,,,,,,,0,0,0,0,215,0,215,0,,,,,,,215,,,1,1909.9755868618377,Y,None,nogo,None,1,,,,,,,,,,,,,,,,,56,001,26,w,Psychologie,2023-01-24_09h12.21.660,00_bat_bachelor,2022.2.4,59.92651465998165,
,,,,,,,,,,,,0,0,0,0,216,0,216,0,,,,,,,216,,,1,1911.7774669858627,Y,None,nogo,None,1,,,,,,,,,,,,,,,,,56,001,26,w,Psychologie,2023-01-24_09h12.21.660,00_bat_bachelor,2022.2.4,59.92651465998165,
,,,,,,,,,,,,0,0,0,0,217,0,217,0,,,,,,,217,,,1,1913.5786094684154,X,d,go,d,1,0.3260197243653238,,,,,,,,,,,,,,,,56,001,26,w,Psychologie,2023-01-24_09h12.21.660,00_bat_bachelor,2022.2.4,59.92651465998165,
,,,,,,,,,,,,0,0,0,0,218,0,218,0,,,,,,,218,,,1,1915.0135938520543,Y,l,go,l,1,0.30697233183309436,,,,,,,,,,,,,,,,56,001,26,w,Psychologie,2023-01-24_09h12.21.660,00_bat_bachelor,2022.2.4,59.92651465998165,
,,,,,,,,,,,,0,0,0,0,219,0,219,0,,,,,,,219,,,1,1916.4319845875725,Y,None,nogo,None,1,,1917.2324710697867,,,,,,,,,,,,,,,56,001,26,w,Psychologie,2023-01-24_09h12.21.660,00_bat_bachelor,2022.2.4,59.92651465998165,
,,,,,,,,,,,,0,0,0,0,220,0,220,0,,,,,,,220,,,1,1918.233387993183,X,d,go,d,1,0.30310238199308515,,,,,,,,,,,,,,,,56,001,26,w,Psychologie,2023-01-24_09h12.21.660,00_bat_bachelor,2022.2.4,59.92651465998165,
,,,,,,,,,,,,0,0,0,0,221,0,221,0,,,,,,,221,,,1,1919.6515678572468,Y,l,go,l,1,0.27690749894827604,,,,,,,,,,,,,,,,56,001,26,w,Psychologie,2023-01-24_09h12.21.660,00_bat_bachelor,2022.2.4,59.92651465998165,
,,,,,,,,,,,,0,0,0,0,222,0,222,0,,,,,,,222,,,1,1921.0361678097397,X,d,go,d,1,0.41996314749121666,,,,,,,,,,,,,,,,56,001,26,w,Psychologie,2023-01-24_09h12.21.660,00_bat_bachelor,2022.2.4,59.92651465998165,
,,,,,,,,,,,,0,0,0,0,223,0,223,0,,,,,,,223,,,1,1922.5711489524692,X,None,nogo,None,1,,,,,,,,,,,,,,,,,56,001,26,w,Psychologie,2023-01-24_09h12.21.660,00_bat_bachelor,2022.2.4,59.92651465998165,
,,,,,,,,,,,,0,0,0,0,224,0,224,0,,,,,,,224,,,1,1924.373028255999,X,None,nogo,None,1,,,,,,,,,,,,,,,,,56,001,26,w,Psychologie,2023-01-24_09h12.21.660,00_bat_bachelor,2022.2.4,59.92651465998165,
,,,,,,,,,,,,0,0,0,0,225,0,225,0,,,,,,,225,,,1,1926.1746642771177,Y,l,go,l,1,0.2509710784070194,,,,,,,,,,,,,,,,56,001,26,w,Psychologie,2023-01-24_09h12.21.660,00_bat_bachelor,2022.2.4,59.92651465998165,
,,,,,,,,,,,,0,0,0,0,226,0,226,0,,,,,,,226,,,1,1927.542827299796,X,d,go,d,1,0.529904936440289,,,,,,,,,,,,,,,,56,001,26,w,Psychologie,2023-01-24_09h12.21.660,00_bat_bachelor,2022.2.4,59.92651465998165,
,,,,,,,,,,,,0,0,0,0,227,0,227,0,,,,,,,227,,,1,1929.1775742270984,X,None,nogo,None,1,,,,,,,,,,,,,,,,,56,001,26,w,Psychologie,2023-01-24_09h12.21.660,00_bat_bachelor,2022.2.4,59.92651465998165,
,,,,,,,,,,,,0,0,0,0,228,0,228,0,,,,,,,228,,,1,1930.9794051200151,Y,l,go,l,1,0.30966197419911623,,,,,,,,,,,,,,,,56,001,26,w,Psychologie,2023-01-24_09h12.21.660,00_bat_bachelor,2022.2.4,59.92651465998165,
,,,,,,,,,,,,0,0,0,0,229,0,229,0,,,,,,,229,,,1,1932.3975320607424,X,d,go,d,1,0.45945198461413383,,,,,,,,,,,,,,,,56,001,26,w,Psychologie,2023-01-24_09h12.21.660,00_bat_bachelor,2022.2.4,59.92651465998165,
,,,,,,,,,,,,0,0,0,0,230,0,230,0,,,,,,,230,,,1,1933.9660865506157,Y,l,go,l,1,0.5148033918812871,,,,,,,,,,,,,,,,56,001,26,w,Psychologie,2023-01-24_09h12.21.660,00_bat_bachelor,2022.2.4,59.92651465998165,
,,,,,,,,,,,,0,0,0,0,231,0,231,0,,,,,,,231,,,1,1935.584034291096,X,d,go,d,1,0.2966904817149043,,,,,,,,,,,,,,,,56,001,26,w,Psychologie,2023-01-24_09h12.21.660,00_bat_bachelor,2022.2.4,59.92651465998165,
,,,,,,,,,,,,0,0,0,0,232,0,232,0,,,,,,,232,,,1,1936.98554584058,Y,l,go,l,1,0.2795881158672273,,,,,,,,,,,,,,,,56,001,26,w,Psychologie,2023-01-24_09h12.21.660,00_bat_bachelor,2022.2.4,59.92651465998165,
,,,,,,,,,,,,0,0,0,0,233,0,233,0,,,,,,,233,,,1,1938.37011461379,X,d,go,None,0,,,,,,,,,,,,,,,,,56,001,26,w,Psychologie,2023-01-24_09h12.21.660,00_bat_bachelor,2022.2.4,59.92651465998165,
,,,,,,,,,,,,0,0,0,0,234,0,234,0,,,,,,,234,,,1,1940.1720529939048,Y,l,go,l,1,0.30851243529468775,,,,,,,,,,,,,,,,56,001,26,w,Psychologie,2023-01-24_09h12.21.660,00_bat_bachelor,2022.2.4,59.92651465998165,
,,,,,,,,,,,,0,0,0,0,235,0,235,0,,,,,,,235,,,1,1941.5902172680944,Y,None,nogo,None,1,,,,,,,,,,,,,,,,,56,001,26,w,Psychologie,2023-01-24_09h12.21.660,00_bat_bachelor,2022.2.4,59.92651465998165,
,,,,,,,,,,,,0,0,0,0,236,0,236,0,,,,,,,236,,,1,1943.3921958534047,Y,None,nogo,l,0,0.5046688234433532,,,,,,,,,,,,,,,,56,001,26,w,Psychologie,2023-01-24_09h12.21.660,00_bat_bachelor,2022.2.4,59.92651465998165,
,,,,,,,,,,,,0,0,0,0,237,0,237,0,,,,,,,237,,,1,1945.0101714916527,X,d,go,d,1,0.2707782657817006,,,,,,,,,,,,,,,,56,001,26,w,Psychologie,2023-01-24_09h12.21.660,00_bat_bachelor,2022.2.4,59.92651465998165,
,,,,,,,,,,,,0,0,0,0,238,0,238,0,,,,,,,238,,,1,1946.3951345211826,Y,l,go,l,1,0.45399187970906496,,,,,,,,,,,,,,,,56,001,26,w,Psychologie,2023-01-24_09h12.21.660,00_bat_bachelor,2022.2.4,59.92651465998165,
,,,,,,,,,,,,0,0,0,0,239,0,239,0,,,,,,,239,,,1,1947.963471164927,X,d,go,d,1,0.5976981949061155,,,,,,,,,,,,,,,,56,001,26,w,Psychologie,2023-01-24_09h12.21.660,00_bat_bachelor,2022.2.4,59.92651465998165,
,,,,,,,,,,,,0,0,0,0,240,0,240,0,,,,,,,240,,,1,1949.6649052985013,X,None,nogo,None,1,,,,,,,,,,,,,,,,,56,001,26,w,Psychologie,2023-01-24_09h12.21.660,00_bat_bachelor,2022.2.4,59.92651465998165,
,,,,,,,,,,,,0,0,0,0,241,0,241,0,,,,,,,241,,,1,1951.4667050121352,Y,l,go,l,1,0.4148841709829867,,,,,,,,,,,,,,,,56,001,26,w,Psychologie,2023-01-24_09h12.21.660,00_bat_bachelor,2022.2.4,59.92651465998165,
,,,,,,,,,,,,0,0,0,0,242,0,242,0,,,,,,,242,,,1,1952.984851686284,X,d,go,d,1,0.47203701501712203,,,,,,,,,,,,,,,,56,001,26,w,Psychologie,2023-01-24_09h12.21.660,00_bat_bachelor,2022.2.4,59.92651465998165,
,,,,,,,,,,,,0,0,0,0,243,0,243,0,,,,,,,243,,,1,1954.569787310902,X,None,nogo,None,1,,,,,,,,,,,,,,,,,56,001,26,w,Psychologie,2023-01-24_09h12.21.660,00_bat_bachelor,2022.2.4,59.92651465998165,
,,,,,,,,,,,,0,0,0,0,244,0,244,0,,,,,,,244,,,1,1956.3715767678805,X,None,nogo,None,1,,,,,,,,,,,,,,,,,56,001,26,w,Psychologie,2023-01-24_09h12.21.660,00_bat_bachelor,2022.2.4,59.92651465998165,
,,,,,,,,,,,,0,0,0,0,245,0,245,0,,,,,,,245,,,1,1958.1734835584648,Y,l,go,l,1,0.5955726555548608,,,,,,,,,,,,,,,,56,001,26,w,Psychologie,2023-01-24_09h12.21.660,00_bat_bachelor,2022.2.4,59.92651465998165,
,,,,,,,,,,,,0,0,0,0,246,0,246,0,,,,,,,246,,,1,1959.875021897722,X,d,go,d,1,0.37443492375314236,,,,,,,,,,,,,,,,56,001,26,w,Psychologie,2023-01-24_09h12.21.660,00_bat_bachelor,2022.2.4,59.92651465998165,
,,,,,,,,,,,,0,0,0,0,247,0,247,0,,,,,,,247,,,1,1961.36017327616,Y,l,go,l,1,0.41636150516569614,,,,,,,,,,,,,,,,56,001,26,w,Psychologie,2023-01-24_09h12.21.660,00_bat_bachelor,2022.2.4,59.92651465998165,
,,,,,,,,,,,,0,0,0,0,248,0,248,0,,,,,,,248,,,1,1962.8782428218983,Y,None,nogo,None,1,,,,,,,,,,,,,,,,,56,001,26,w,Psychologie,2023-01-24_09h12.21.660,00_bat_bachelor,2022.2.4,59.92651465998165,
,,,,,,,,,,,,0,0,0,0,249,0,249,0,,,,,,,249,,,1,1964.680028587114,X,d,go,d,1,0.24052184354513884,,,,,,,,,,,,,,,,56,001,26,w,Psychologie,2023-01-24_09h12.21.660,00_bat_bachelor,2022.2.4,59.92651465998165,
,,,,,,,,,,,,1,0,1,0,0,0,0,0,,,,,,,0,,,0.2,1987.1857453072444,X,d,go,None,0,,,,,,,,,,1965.0486954050139,space,21.916024068836123,,,,,56,001,26,w,Psychologie,2023-01-24_09h12.21.660,00_bat_bachelor,2022.2.4,59.92651465998165,
,,,,,,,,,,,,1,0,1,0,1,0,1,0,,,,,,,1,,,0.2,1988.1868529999629,Y,l,go,None,0,,1988.9876615335234,,,,,,,,,,,,,,,56,001,26,w,Psychologie,2023-01-24_09h12.21.660,00_bat_bachelor,2022.2.4,59.92651465998165,
,,,,,,,,,,,,1,0,1,0,2,0,2,0,,,,,,,2,,,0.2,1989.188386949245,X,d,go,None,0,,,,,,,,,,,,,,,,,56,001,26,w,Psychologie,2023-01-24_09h12.21.660,00_bat_bachelor,2022.2.4,59.92651465998165,
,,,,,,,,,,,,1,0,1,0,3,0,3,0,,,,,,,3,,,0.2,1990.1888804878108,X,None,nogo,None,1,,,,,,,,,,,,,,,,,56,001,26,w,Psychologie,2023-01-24_09h12.21.660,00_bat_bachelor,2022.2.4,59.92651465998165,
,,,,,,,,,,,,1,0,1,0,4,0,4,0,,,,,,,4,,,0.2,1991.1905629499815,Y,l,go,None,0,,1991.9910514838994,,,,,,,,,,,,,,,56,001,26,w,Psychologie,2023-01-24_09h12.21.660,00_bat_bachelor,2022.2.4,59.92651465998165,
,,,,,,,,,,,,1,0,1,0,5,0,5,0,,,,,,,5,,,0.2,1992.1906839758158,X,d,go,None,0,,,,,,,,,,,,,,,,,56,001,26,w,Psychologie,2023-01-24_09h12.21.660,00_bat_bachelor,2022.2.4,59.92651465998165,
,,,,,,,,,,,,1,0,1,0,6,0,6,0,,,,,,,6,,,0.2,1993.191753104329,Y,l,go,None,0,,,,,,,,,,,,,,,,,56,001,26,w,Psychologie,2023-01-24_09h12.21.660,00_bat_bachelor,2022.2.4,59.92651465998165,
,,,,,,,,,,,,1,0,1,0,7,0,7,0,,,,,,,7,,,0.2,1994.1926117716357,Y,None,nogo,None,1,,,,,,,,,,,,,,,,,56,001,26,w,Psychologie,2023-01-24_09h12.21.660,00_bat_bachelor,2022.2.4,59.92651465998165,
,,,,,,,,,,,,1,0,1,0,8,0,8,0,,,,,,,8,,,0.2,1995.1938802846707,X,d,go,d,1,0.4637403963133693,,,,,,,,,,,,,,,,56,001,26,w,Psychologie,2023-01-24_09h12.21.660,00_bat_bachelor,2022.2.4,59.92651465998165,
,,,,,,,,,,,,1,0,1,0,9,0,9,0,,,,,,,9,,,0.2,1995.9613050101325,Y,l,go,l,1,0.26368657080456614,,,,,,,,,,,,,,,,56,001,26,w,Psychologie,2023-01-24_09h12.21.660,00_bat_bachelor,2022.2.4,59.92651465998165,
,,,,,,,,,,,,1,0,1,0,10,0,10,0,,,,,,,10,,,0.2,1996.5284974477254,X,d,go,d,1,0.4568415218964219,,,,,,,,,,,,,,,,56,001,26,w,Psychologie,2023-01-24_09h12.21.660,00_bat_bachelor,2022.2.4,59.92651465998165,
,,,,,,,,,,,,1,0,1,0,11,0,11,0,,,,,,,11,,,0.2,1997.2958216601983,Y,l,go,l,1,0.23349086614325643,,,,,,,,,,,,,,,,56,001,26,w,Psychologie,2023-01-24_09h12.21.660,00_bat_bachelor,2022.2.4,59.92651465998165,
,,,,,,,,,,,,1,0,1,0,12,0,12,0,,,,,,,12,,,0.2,1997.8296339814551,Y,None,nogo,None,1,,,,,,,,,,,,,,,,,56,001,26,w,Psychologie,2023-01-24_09h12.21.660,00_bat_bachelor,2022.2.4,59.92651465998165,
,,,,,,,,,,,,1,0,1,0,13,0,13,0,,,,,,,13,,,0.2,1998.8306838283315,X,d,go,d,1,0.585125882178545,,,,,,,,,,,,,,,,56,001,26,w,Psychologie,2023-01-24_09h12.21.660,00_bat_bachelor,2022.2.4,59.92651465998165,
,,,,,,,,,,,,1,0,1,0,14,0,14,0,,,,,,,14,,,0.2,1999.731795172207,Y,l,go,None,0,,,,,,,,,,,,,,,,,56,001,26,w,Psychologie,2023-01-24_09h12.21.660,00_bat_bachelor,2022.2.4,59.92651465998165,
,,,,,,,,,,,,1,0,1,0,15,0,15,0,,,,,,,15,,,0.2,2000.7326878905296,Y,None,nogo,l,0,0.3478900925256312,,,,,,,,,,,,,,,,56,001,26,w,Psychologie,2023-01-24_09h12.21.660,00_bat_bachelor,2022.2.4,59.92651465998165,
,,,,,,,,,,,,1,0,1,0,16,0,16,0,,,,,,,16,,,0.2,2001.3832046701573,X,d,go,None,0,,,,,,,,,,,,,,,,,56,001,26,w,Psychologie,2023-01-24_09h12.21.660,00_bat_bachelor,2022.2.4,59.92651465998165,
,,,,,,,,,,,,1,0,1,0,17,0,17,0,,,,,,,17,,,0.2,2002.38460651692,Y,l,go,None,0,,2003.1855922816321,,,,,,,,,,,,,,,56,001,26,w,Psychologie,2023-01-24_09h12.21.660,00_bat_bachelor,2022.2.4,59.92651465998165,
,,,,,,,,,,,,1,0,1,0,18,0,18,0,,,,,,,18,,,0.2,2003.3852493888699,Y,None,nogo,None,1,,,,,,,,,,,,,,,,,56,001,26,w,Psychologie,2023-01-24_09h12.21.660,00_bat_bachelor,2022.2.4,59.92651465998165,
,,,,,,,,,,,,1,0,1,0,19,0,19,0,,,,,,,19,,,0.2,2004.3862828253768,X,d,go,d,1,0.49439846025779843,,,,,,,,,,,,,,,,56,001,26,w,Psychologie,2023-01-24_09h12.21.660,00_bat_bachelor,2022.2.4,59.92651465998165,
,,,,,,,,,,,,1,0,1,0,20,0,20,0,,,,,,,20,,,0.2,2005.187036795076,Y,l,go,l,1,0.34184496151283383,,,,,,,,,,,,,,,,56,001,26,w,Psychologie,2023-01-24_09h12.21.660,00_bat_bachelor,2022.2.4,59.92651465998165,
,,,,,,,,,,,,1,0,1,0,21,0,21,0,,,,,,,21,,,0.2,2005.8378473185003,Y,None,nogo,None,1,,,,,,,,,,,,,,,,,56,001,26,w,Psychologie,2023-01-24_09h12.21.660,00_bat_bachelor,2022.2.4,59.92651465998165,
,,,,,,,,,,,,1,0,1,0,22,0,22,0,,,,,,,22,,,0.2,2006.8386727543548,X,d,go,d,1,0.3942568809725344,,,,,,,,,,,,,,,,56,001,26,w,Psychologie,2023-01-24_09h12.21.660,00_bat_bachelor,2022.2.4,59.92651465998165,
,,,,,,,,,,,,1,0,1,0,23,0,23,0,,,,,,,23,,,0.2,2007.5393975549378,Y,l,go,l,1,0.36531327897682786,,,,,,,,,,,,,,,,56,001,26,w,Psychologie,2023-01-24_09h12.21.660,00_bat_bachelor,2022.2.4,59.92651465998165,
,,,,,,,,,,,,1,0,1,0,24,0,24,0,,,,,,,24,,,0.2,2008.206826751586,X,d,go,d,1,0.6345950304530561,,,,,,,,,,,,,,,,56,001,26,w,Psychologie,2023-01-24_09h12.21.660,00_bat_bachelor,2022.2.4,59.92651465998165,
,,,,,,,,,,,,1,0,1,0,25,0,25,0,,,,,,,25,,,0.2,2009.1579828341492,Y,l,go,l,1,0.4031052943319082,,,,,,,,,,,,,,,,56,001,26,w,Psychologie,2023-01-24_09h12.21.660,00_bat_bachelor,2022.2.4,59.92651465998165,
,,,,,,,,,,,,1,0,1,0,26,0,26,0,,,,,,,26,,,0.2,2009.8751535899937,X,d,go,d,1,0.5339106814935803,,,,,,,,,,,,,,,,56,001,26,w,Psychologie,2023-01-24_09h12.21.660,00_bat_bachelor,2022.2.4,59.92651465998165,
,,,,,,,,,,,,1,0,1,0,27,0,27,0,,,,,,,27,,,0.2,2010.7093147528358,Y,l,go,None,0,,,,,,,,,,,,,,,,,56,001,26,w,Psychologie,2023-01-24_09h12.21.660,00_bat_bachelor,2022.2.4,59.92651465998165,
,,,,,,,,,,,,1,0,1,0,28,0,28,0,,,,,,,28,,,0.2,2011.7101906505413,Y,None,nogo,None,1,,,,,,,,,,,,,,,,,56,001,26,w,Psychologie,2023-01-24_09h12.21.660,00_bat_bachelor,2022.2.4,59.92651465998165,
,,,,,,,,,,,,1,0,1,0,29,0,29,0,,,,,,,29,,,0.2,2012.7112007024698,X,d,go,d,1,0.3454658864066005,,,,,,,,,,,,,,,,56,001,26,w,Psychologie,2023-01-24_09h12.21.660,00_bat_bachelor,2022.2.4,59.92651465998165,
,,,,,,,,,,,,1,0,1,0,30,0,30,0,,,,,,,30,,,0.2,2013.3620280460455,Y,l,go,l,1,0.3268578788265586,,,,,,,,,,,,,,,,56,001,26,w,Psychologie,2023-01-24_09h12.21.660,00_bat_bachelor,2022.2.4,59.92651465998165,
,,,,,,,,,,,,1,0,1,0,31,0,31,0,,,,,,,31,,,0.2,2013.9958703573793,X,d,go,None,0,,2014.796607916709,,,,,,,,,,,,,,,56,001,26,w,Psychologie,2023-01-24_09h12.21.660,00_bat_bachelor,2022.2.4,59.92651465998165,
,,,,,,,,,,,,1,0,1,0,32,0,32,0,,,,,,,32,,,0.2,2014.9968681014143,X,None,nogo,None,1,,,,,,,,,,,,,,,,,56,001,26,w,Psychologie,2023-01-24_09h12.21.660,00_bat_bachelor,2022.2.4,59.92651465998165,
,,,,,,,,,,,,1,0,1,0,33,0,33,0,,,,,,,33,,,0.2,2015.997827281244,Y,l,go,l,1,0.29864289285615087,,,,,,,,,,,,,,,,56,001,26,w,Psychologie,2023-01-24_09h12.21.660,00_bat_bachelor,2022.2.4,59.92651465998165,
,,,,,,,,,,,,1,0,1,0,34,0,34,0,,,,,,,34,,,0.2,2016.5984236304648,X,d,go,d,1,0.5380157087929547,,,,,,,,,,,,,,,,56,001,26,w,Psychologie,2023-01-24_09h12.21.660,00_bat_bachelor,2022.2.4,59.92651465998165,
,,,,,,,,,,,,1,0,1,0,35,0,35,0,,,,,,,35,,,0.2,2017.4496276718564,Y,l,go,l,1,0.46343680657446384,,,,,,,,,,,,,,,,56,001,26,w,Psychologie,2023-01-24_09h12.21.660,00_bat_bachelor,2022.2.4,59.92651465998165,
,,,,,,,,,,,,1,0,1,0,36,0,36,0,,,,,,,36,,,0.2,2018.216989217326,X,d,go,d,1,0.2970002251677215,,,,,,,,,,,,,,,,56,001,26,w,Psychologie,2023-01-24_09h12.21.660,00_bat_bachelor,2022.2.4,59.92651465998165,
,,,,,,,,,,,,1,0,1,0,37,0,37,0,,,,,,,37,,,0.2,2018.8176700794138,Y,l,go,l,1,0.32744700694456697,,,,,,,,,,,,,,,,56,001,26,w,Psychologie,2023-01-24_09h12.21.660,00_bat_bachelor,2022.2.4,59.92651465998165,
,,,,,,,,,,,,1,0,1,0,38,0,38,0,,,,,,,38,,,0.2,2019.451630544383,X,d,go,d,1,0.4293608949519694,,,,,,,,,,,,,,,,56,001,26,w,Psychologie,2023-01-24_09h12.21.660,00_bat_bachelor,2022.2.4,59.92651465998165,
,,,,,,,,,,,,1,0,1,0,39,0,39,0,,,,,,,39,,,0.2,2020.1856862301938,Y,l,go,l,1,0.3346273177303374,,,,,,,,,,,,,,,,56,001,26,w,Psychologie,2023-01-24_09h12.21.660,00_bat_bachelor,2022.2.4,59.92651465998165,
,,,,,,,,,,,,1,0,1,0,40,0,40,0,,,,,,,40,,,0.2,2020.836308856029,X,d,go,d,1,0.34886691346764565,,,,,,,,,,,,,,,,56,001,26,w,Psychologie,2023-01-24_09h12.21.660,00_bat_bachelor,2022.2.4,59.92651465998165,
,,,,,,,,,,,,1,0,1,0,41,0,41,0,,,,,,,41,,,0.2,2021.4871821487322,Y,l,go,l,1,0.33041234174743295,,,,,,,,,,,,,,,,56,001,26,w,Psychologie,2023-01-24_09h12.21.660,00_bat_bachelor,2022.2.4,59.92651465998165,
,,,,,,,,,,,,1,0,1,0,42,0,42,0,,,,,,,42,,,0.2,2022.1206617932767,Y,None,nogo,None,1,,,,,,,,,,,,,,,,,56,001,26,w,Psychologie,2023-01-24_09h12.21.660,00_bat_bachelor,2022.2.4,59.92651465998165,
,,,,,,,,,,,,1,0,1,0,43,0,43,0,,,,,,,43,,,0.2,2023.121597588528,X,d,go,d,1,0.28712863149121404,,,,,,,,,,,,,,,,56,001,26,w,Psychologie,2023-01-24_09h12.21.660,00_bat_bachelor,2022.2.4,59.92651465998165,
,,,,,,,,,,,,1,0,1,0,44,0,44,0,,,,,,,44,,,0.2,2023.7223785528913,Y,l,go,l,1,0.38295923499390483,,,,,,,,,,,,,,,,56,001,26,w,Psychologie,2023-01-24_09h12.21.660,00_bat_bachelor,2022.2.4,59.92651465998165,
,,,,,,,,,,,,1,0,1,0,45,0,45,0,,,,,,,45,,,0.2,2024.406163038686,Y,None,nogo,d,0,0.3152209506370127,,,,,,,,,,,,,,,,56,001,26,w,Psychologie,2023-01-24_09h12.21.660,00_bat_bachelor,2022.2.4,59.92651465998165,
,,,,,,,,,,,,1,0,1,0,46,0,46,0,,,,,,,46,,,0.2,2025.023539702408,X,d,go,None,0,,,,,,,,,,,,,,,,,56,001,26,w,Psychologie,2023-01-24_09h12.21.660,00_bat_bachelor,2022.2.4,59.92651465998165,
,,,,,,,,,,,,1,0,1,0,47,0,47,0,,,,,,,47,,,0.2,2026.0244229845703,Y,l,go,l,1,0.42469340609386563,,,,,,,,,,,,,,,,56,001,26,w,Psychologie,2023-01-24_09h12.21.660,00_bat_bachelor,2022.2.4,59.92651465998165,
,,,,,,,,,,,,1,0,1,0,48,0,48,0,,,,,,,48,,,0.2,2026.7588528245687,X,d,go,d,1,0.3940041624009609,,,,,,,,,,,,,,,,56,001,26,w,Psychologie,2023-01-24_09h12.21.660,00_bat_bachelor,2022.2.4,59.92651465998165,
,,,,,,,,,,,,1,0,1,0,49,0,49,0,,,,,,,49,,,0.2,2027.4595128041692,Y,l,go,None,0,,,,,,,,,,,,,,,,,56,001,26,w,Psychologie,2023-01-24_09h12.21.660,00_bat_bachelor,2022.2.4,59.92651465998165,
,,,,,,,,,,,,1,0,1,0,50,0,50,0,,,,,,,50,,,0.2,2028.4603025480174,X,d,go,d,1,0.30812720442190766,,,,,,,,,,,,,,,,56,001,26,w,Psychologie,2023-01-24_09h12.21.660,00_bat_bachelor,2022.2.4,59.92651465998165,
,,,,,,,,,,,,1,0,1,0,51,0,51,0,,,,,,,51,,,0.2,2029.077542596031,X,None,nogo,None,1,,,,,,,,,,,,,,,,,56,001,26,w,Psychologie,2023-01-24_09h12.21.660,00_bat_bachelor,2022.2.4,59.92651465998165,
,,,,,,,,,,,,1,0,1,0,52,0,52,0,,,,,,,52,,,0.2,2030.0786777762696,X,None,nogo,l,0,0.29877827735617757,,,,,,,,,,,,,,,,56,001,26,w,Psychologie,2023-01-24_09h12.21.660,00_bat_bachelor,2022.2.4,59.92651465998165,
,,,,,,,,,,,,1,0,1,0,53,0,53,0,,,,,,,53,,,0.2,2030.6793750482611,Y,l,go,l,1,0.5614799237810075,,,,,,,,,,,,,,,,56,001,26,w,Psychologie,2023-01-24_09h12.21.660,00_bat_bachelor,2022.2.4,59.92651465998165,
,,,,,,,,,,,,1,0,1,0,54,0,54,0,,,,,,,54,,,0.2,2031.5470246351324,X,d,go,d,1,0.5183098549023271,,,,,,,,,,,,,,,,56,001,26,w,Psychologie,2023-01-24_09h12.21.660,00_bat_bachelor,2022.2.4,59.92651465998165,
,,,,,,,,,,,,1,0,1,0,55,0,55,0,,,,,,,55,,,0.2,2032.3809322589077,X,None,nogo,None,1,,,,,,,,,,,,,,,,,56,001,26,w,Psychologie,2023-01-24_09h12.21.660,00_bat_bachelor,2022.2.4,59.92651465998165,
,,,,,,,,,,,,1,0,1,0,56,0,56,0,,,,,,,56,,,0.2,2033.3819324644282,Y,l,go,l,1,0.32347613386809826,,,,,,,,,,,,,,,,56,001,26,w,Psychologie,2023-01-24_09h12.21.660,00_bat_bachelor,2022.2.4,59.92651465998165,
,,,,,,,,,,,,1,0,1,0,57,0,57,0,,,,,,,57,,,0.2,2034.018139084801,X,d,go,d,1,0.36925215274095535,,,,,,,,,,,,,,,,56,001,26,w,Psychologie,2023-01-24_09h12.21.660,00_bat_bachelor,2022.2.4,59.92651465998165,
,,,,,,,,,,,,1,0,1,0,58,0,58,0,,,,,,,58,,,0.2,2034.6999613130465,Y,l,go,l,1,0.6604645797051489,,,,,,,,,,,,,,,,56,001,26,w,Psychologie,2023-01-24_09h12.21.660,00_bat_bachelor,2022.2.4,59.92651465998165,
,,,,,,,,,,,,1,0,1,0,59,0,59,0,,,,,,,59,,,0.2,2035.6674960688688,X,d,go,d,1,0.3817329779267311,,,,,,,,,,,,,,,,56,001,26,w,Psychologie,2023-01-24_09h12.21.660,00_bat_bachelor,2022.2.4,59.92651465998165,
,,,,,,,,,,,,1,0,1,0,60,0,60,0,,,,,,,60,,,0.2,2036.3515578880906,Y,l,go,l,1,0.36910979356616735,,,,,,,,,,,,,,,,56,001,26,w,Psychologie,2023-01-24_09h12.21.660,00_bat_bachelor,2022.2.4,59.92651465998165,
,,,,,,,,,,,,1,0,1,0,61,0,61,0,,,,,,,61,,,0.2,2037.035614373628,X,d,go,d,1,0.35761645529419184,,,,,,,,,,,,,,,,56,001,26,w,Psychologie,2023-01-24_09h12.21.660,00_bat_bachelor,2022.2.4,59.92651465998165,
,,,,,,,,,,,,1,0,1,0,62,0,62,0,,,,,,,62,,,0.2,2037.7030333140865,X,None,nogo,None,1,,,,,,,,,,,,,,,,,56,001,26,w,Psychologie,2023-01-24_09h12.21.660,00_bat_bachelor,2022.2.4,59.92651465998165,
,,,,,,,,,,,,1,0,1,0,63,0,63,0,,,,,,,63,,,0.2,2038.7038480839692,Y,l,go,l,1,0.32901213597506285,,,,,,,,,,,,,,,,56,001,26,w,Psychologie,2023-01-24_09h12.21.660,00_bat_bachelor,2022.2.4,59.92651465998165,
,,,,,,,,,,,,1,0,1,0,64,0,64,0,,,,,,,64,,,0.2,2039.3378130621277,X,d,go,d,1,0.43075617775321007,,,,,,,,,,,,,,,,56,001,26,w,Psychologie,2023-01-24_09h12.21.660,00_bat_bachelor,2022.2.4,59.92651465998165,
,,,,,,,,,,,,1,0,1,0,65,0,65,0,,,,,,,65,,,0.2,2040.0718392091803,Y,l,go,l,1,0.5608337698504329,,,,,,,,,,,,,,,,56,001,26,w,Psychologie,2023-01-24_09h12.21.660,00_bat_bachelor,2022.2.4,59.92651465998165,
,,,,,,,,,,,,1,0,1,0,66,0,66,0,,,,,,,66,,,0.2,2040.939385001082,X,d,go,d,1,0.3416283461265266,,,,,,,,,,,,,,,,56,001,26,w,Psychologie,2023-01-24_09h12.21.660,00_bat_bachelor,2022.2.4,59.92651465998165,
,,,,,,,,,,,,1,0,1,0,67,0,67,0,,,,,,,67,,,0.2,2041.5902193193324,Y,l,go,l,1,0.46717137238010764,,,,,,,,,,,,,,,,56,001,26,w,Psychologie,2023-01-24_09h12.21.660,00_bat_bachelor,2022.2.4,59.92651465998165,
,,,,,,,,,,,,1,0,1,0,68,0,68,0,,,,,,,68,,,0.2,2042.3575968649238,X,d,go,d,1,0.4192521730437875,,,,,,,,,,,,,,,,56,001,26,w,Psychologie,2023-01-24_09h12.21.660,00_bat_bachelor,2022.2.4,59.92651465998165,
,,,,,,,,,,,,1,0,1,0,69,0,69,0,,,,,,,69,,,0.2,2043.091595524922,Y,l,go,None,0,,,,,,,,,,,,,,,,,56,001,26,w,Psychologie,2023-01-24_09h12.21.660,00_bat_bachelor,2022.2.4,59.92651465998165,
,,,,,,,,,,,,1,0,1,0,70,0,70,0,,,,,,,70,,,0.2,2044.0931495768018,Y,None,nogo,None,1,,2044.8935347259976,,,,,,,,,,,,,,,56,001,26,w,Psychologie,2023-01-24_09h12.21.660,00_bat_bachelor,2022.2.4,59.92651465998165,
,,,,,,,,,,,,1,0,1,0,71,0,71,0,,,,,,,71,,,0.2,2045.0936402436346,X,d,go,d,1,0.4033809872344136,,,,,,,,,,,,,,,,56,001,26,w,Psychologie,2023-01-24_09h12.21.660,00_bat_bachelor,2022.2.4,59.92651465998165,
,,,,,,,,,,,,1,0,1,0,72,0,72,0,,,,,,,72,,,0.2,2045.811208948493,Y,l,go,l,1,0.3499266058206558,,,,,,,,,,,,,,,,56,001,26,w,Psychologie,2023-01-24_09h12.21.660,00_bat_bachelor,2022.2.4,59.92651465998165,
,,,,,,,,,,,,1,0,1,0,73,0,73,0,,,,,,,73,,,0.2,2046.46219383087,X,d,go,d,1,0.5872263959608972,,,,,,,,,,,,,,,,56,001,26,w,Psychologie,2023-01-24_09h12.21.660,00_bat_bachelor,2022.2.4,59.92651465998165,
,,,,,,,,,,,,1,0,1,0,74,0,74,0,,,,,,,74,,,0.2,2047.3625638415106,X,None,nogo,None,1,,,,,,,,,,,,,,,,,56,001,26,w,Psychologie,2023-01-24_09h12.21.660,00_bat_bachelor,2022.2.4,59.92651465998165,
,,,,,,,,,,,,1,0,1,0,75,0,75,0,,,,,,,75,,,0.2,2048.363657585345,Y,l,go,l,1,0.3169563366100192,,,,,,,,,,,,,,,,56,001,26,w,Psychologie,2023-01-24_09h12.21.660,00_bat_bachelor,2022.2.4,59.92651465998165,
,,,,,,,,,,,,1,0,1,0,76,0,76,0,,,,,,,76,,,0.2,2048.981004710309,X,d,go,d,1,0.3809932852163911,,,,,,,,,,,,,,,,56,001,26,w,Psychologie,2023-01-24_09h12.21.660,00_bat_bachelor,2022.2.4,59.92651465998165,
,,,,,,,,,,,,1,0,1,0,77,0,77,0,,,,,,,77,,,0.2,2049.664742016699,X,None,nogo,None,1,,,,,,,,,,,,,,,,,56,001,26,w,Psychologie,2023-01-24_09h12.21.660,00_bat_bachelor,2022.2.4,59.92651465998165,
,,,,,,,,,,,,1,0,1,0,78,0,78,0,,,,,,,78,,,0.2,2050.66581155546,X,None,nogo,None,1,,,,,,,,,,,,,,,,,56,001,26,w,Psychologie,2023-01-24_09h12.21.660,00_bat_bachelor,2022.2.4,59.92651465998165,
,,,,,,,,,,,,1,0,1,0,79,0,79,0,,,,,,,79,,,0.2,2051.666744889226,Y,l,go,l,1,0.3261009552516043,,,,,,,,,,,,,,,,56,001,26,w,Psychologie,2023-01-24_09h12.21.660,00_bat_bachelor,2022.2.4,59.92651465998165,
,,,,,,,,,,,,1,0,1,0,80,0,80,0,,,,,,,80,,,0.2,2052.3009178671055,X,d,go,d,1,0.35602178843691945,,,,,,,,,,,,,,,,56,001,26,w,Psychologie,2023-01-24_09h12.21.660,00_bat_bachelor,2022.2.4,59.92651465998165,
,,,,,,,,,,,,1,0,1,0,81,0,81,0,,,,,,,81,,,0.2,2052.9681103462353,X,None,nogo,None,1,,,,,,,,,,,,,,,,,56,001,26,w,Psychologie,2023-01-24_09h12.21.660,00_bat_bachelor,2022.2.4,59.92651465998165,
,,,,,,,,,,,,1,0,1,0,82,0,82,0,,,,,,,82,,,0.2,2053.9690838851966,X,None,nogo,None,1,,,,,,,,,,,,,,,,,56,001,26,w,Psychologie,2023-01-24_09h12.21.660,00_bat_bachelor,2022.2.4,59.92651465998165,
,,,,,,,,,,,,1,0,1,0,83,0,83,0,,,,,,,83,,,0.2,2054.9842937374488,Y,l,go,l,1,0.3501493758521974,,,,,,,,,,,,,,,,56,001,26,w,Psychologie,2023-01-24_09h12.21.660,00_bat_bachelor,2022.2.4,59.92651465998165,
,,,,,,,,,,,,1,0,1,0,84,0,84,0,,,,,,,84,,,0.2,2055.637519851327,X,d,go,d,1,0.27512411354109645,,,,,,,,,,,,,,,,56,001,26,w,Psychologie,2023-01-24_09h12.21.660,00_bat_bachelor,2022.2.4,59.92651465998165,
,,,,,,,,,,,,1,0,1,0,85,0,85,0,,,,,,,85,,,0.2,2056.2215672708116,Y,l,go,None,0,,,,,,,,,,,,,,,,,56,001,26,w,Psychologie,2023-01-24_09h12.21.660,00_bat_bachelor,2022.2.4,59.92651465998165,
,,,,,,,,,,,,1,0,1,0,86,0,86,0,,,,,,,86,,,0.2,2057.2225383478217,Y,None,nogo,None,1,,,,,,,,,,,,,,,,,56,001,26,w,Psychologie,2023-01-24_09h12.21.660,00_bat_bachelor,2022.2.4,59.92651465998165,
,,,,,,,,,,,,1,0,1,0,87,0,87,0,,,,,,,87,,,0.2,2058.2234474765137,X,d,go,d,1,0.2895831963978708,,,,,,,,,,,,,,,,56,001,26,w,Psychologie,2023-01-24_09h12.21.660,00_bat_bachelor,2022.2.4,59.92651465998165,
,,,,,,,,,,,,1,0,1,0,88,0,88,0,,,,,,,88,,,0.2,2058.823879312724,Y,l,go,l,1,0.5211541634052992,,,,,,,,,,,,,,,,56,001,26,w,Psychologie,2023-01-24_09h12.21.660,00_bat_bachelor,2022.2.4,59.92651465998165,
,,,,,,,,,,,,1,0,1,0,89,0,89,0,,,,,,,89,,,0.2,2059.6581963729113,Y,None,nogo,None,1,,,,,,,,,,,,,,,,,56,001,26,w,Psychologie,2023-01-24_09h12.21.660,00_bat_bachelor,2022.2.4,59.92651465998165,
,,,,,,,,,,,,1,0,1,0,90,0,90,0,,,,,,,90,,,0.2,2060.659223244991,X,d,go,d,1,0.5257030888460577,,,,,,,,,,,,,,,,56,001,26,w,Psychologie,2023-01-24_09h12.21.660,00_bat_bachelor,2022.2.4,59.92651465998165,
,,,,,,,,,,,,1,0,1,0,91,0,91,0,,,,,,,91,,,0.2,2061.4937117923982,Y,l,go,l,1,0.37073235819116235,,,,,,,,,,,,,,,,56,001,26,w,Psychologie,2023-01-24_09h12.21.660,00_bat_bachelor,2022.2.4,59.92651465998165,
,,,,,,,,,,,,1,0,1,0,92,0,92,0,,,,,,,92,,,0.2,2062.19426100282,Y,None,nogo,None,1,,,,,,,,,,,,,,,,,56,001,26,w,Psychologie,2023-01-24_09h12.21.660,00_bat_bachelor,2022.2.4,59.92651465998165,
,,,,,,,,,,,,1,0,1,0,93,0,93,0,,,,,,,93,,,0.2,2063.1958019267768,X,d,go,d,1,0.3977522663772106,,,,,,,,,,,,,,,,56,001,26,w,Psychologie,2023-01-24_09h12.21.660,00_bat_bachelor,2022.2.4,59.92651465998165,
,,,,,,,,,,,,1,0,1,0,94,0,94,0,,,,,,,94,,,0.2,2063.8960098037496,Y,l,go,None,0,,2064.6964876707643,,,,,,,,,,,,,,,56,001,26,w,Psychologie,2023-01-24_09h12.21.660,00_bat_bachelor,2022.2.4,59.92651465998165,
,,,,,,,,,,,,1,0,1,0,95,0,95,0,,,,,,,95,,,0.2,2064.8968951376155,X,d,go,d,1,0.5363697595894337,,,,,,,,,,,,,,,,56,001,26,w,Psychologie,2023-01-24_09h12.21.660,00_bat_bachelor,2022.2.4,59.92651465998165,
,,,,,,,,,,,,1,0,1,0,96,0,96,0,,,,,,,96,,,0.2,2065.7476343582384,X,None,nogo,None,1,,,,,,,,,,,,,,,,,56,001,26,w,Psychologie,2023-01-24_09h12.21.660,00_bat_bachelor,2022.2.4,59.92651465998165,
,,,,,,,,,,,,1,0,1,0,97,0,97,0,,,,,,,97,,,0.2,2066.7486411277205,Y,l,go,l,1,0.5567525369115174,,,,,,,,,,,,,,,,56,001,26,w,Psychologie,2023-01-24_09h12.21.660,00_bat_bachelor,2022.2.4,59.92651465998165,
,,,,,,,,,,,,1,0,1,0,98,0,98,0,,,,,,,98,,,0.2,2067.6162041504867,X,d,go,d,1,0.3685342036187649,,,,,,,,,,,,,,,,56,001,26,w,Psychologie,2023-01-24_09h12.21.660,00_bat_bachelor,2022.2.4,59.92651465998165,
,,,,,,,,,,,,1,0,1,0,99,0,99,0,,,,,,,99,,,0.2,2068.300194995012,X,None,nogo,l,0,0.30113725271075964,,,,,,,,,,,,,,,,56,001,26,w,Psychologie,2023-01-24_09h12.21.660,00_bat_bachelor,2022.2.4,59.92651465998165,
,,,,,,,,,,,,1,0,1,0,100,0,100,0,,,,,,,100,,,0.2,2068.917517504655,Y,l,go,None,0,,,,,,,,,,,,,,,,,56,001,26,w,Psychologie,2023-01-24_09h12.21.660,00_bat_bachelor,2022.2.4,59.92651465998165,
,,,,,,,,,,,,1,0,1,0,101,0,101,0,,,,,,,101,,,0.2,2069.9185968898237,X,d,go,d,1,0.4259065347723663,,,,,,,,,,,,,,,,56,001,26,w,Psychologie,2023-01-24_09h12.21.660,00_bat_bachelor,2022.2.4,59.92651465998165,
,,,,,,,,,,,,1,0,1,0,102,0,102,0,,,,,,,102,,,0.2,2070.6524552423507,Y,l,go,None,0,,,,,,,,,,,,,,,,,56,001,26,w,Psychologie,2023-01-24_09h12.21.660,00_bat_bachelor,2022.2.4,59.92651465998165,
,,,,,,,,,,,,1,0,1,0,103,0,103,0,,,,,,,103,,,0.2,2071.6534673450515,X,d,go,d,1,0.3629711242392659,,,,,,,,,,,,,,,,56,001,26,w,Psychologie,2023-01-24_09h12.21.660,00_bat_bachelor,2022.2.4,59.92651465998165,
,,,,,,,,,,,,1,0,1,0,104,0,104,0,,,,,,,104,,,0.2,2072.3208091575652,X,None,nogo,None,1,,,,,,,,,,,,,,,,,56,001,26,w,Psychologie,2023-01-24_09h12.21.660,00_bat_bachelor,2022.2.4,59.92651465998165,
,,,,,,,,,,,,1,0,1,0,105,0,105,0,,,,,,,105,,,0.2,2073.322366081178,Y,l,go,l,1,0.3993678572587669,,,,,,,,,,,,,,,,56,001,26,w,Psychologie,2023-01-24_09h12.21.660,00_bat_bachelor,2022.2.4,59.92651465998165,
,,,,,,,,,,,,1,0,1,0,106,0,106,0,,,,,,,106,,,0.2,2074.0227118046023,X,d,go,d,1,0.38603780046105385,,,,,,,,,,,,,,,,56,001,26,w,Psychologie,2023-01-24_09h12.21.660,00_bat_bachelor,2022.2.4,59.92651465998165,
,,,,,,,,,,,,1,0,1,0,107,0,107,0,,,,,,,107,,,0.2,2074.723165835254,X,None,nogo,None,1,,,,,,,,,,,,,,,,,56,001,26,w,Psychologie,2023-01-24_09h12.21.660,00_bat_bachelor,2022.2.4,59.92651465998165,
,,,,,,,,,,,,1,0,1,0,108,0,108,0,,,,,,,108,,,0.2,2075.7242821436375,Y,l,go,l,1,0.33163613732904196,,,,,,,,,,,,,,,,56,001,26,w,Psychologie,2023-01-24_09h12.21.660,00_bat_bachelor,2022.2.4,59.92651465998165,
,,,,,,,,,,,,1,0,1,0,109,0,109,0,,,,,,,109,,,0.2,2076.375093487557,X,d,go,d,1,0.31408125814050436,,,,,,,,,,,,,,,,56,001,26,w,Psychologie,2023-01-24_09h12.21.660,00_bat_bachelor,2022.2.4,59.92651465998165,
,,,,,,,,,,,,1,0,1,0,110,0,110,0,,,,,,,110,,,0.2,2076.9935232796706,Y,l,go,l,1,0.5203779581934214,,,,,,,,,,,,,,,,56,001,26,w,Psychologie,2023-01-24_09h12.21.660,00_bat_bachelor,2022.2.4,59.92651465998165,
,,,,,,,,,,,,1,0,1,0,111,0,111,0,,,,,,,111,,,0.2,2077.8270292626694,Y,None,nogo,None,1,,,,,,,,,,,,,,,,,56,001,26,w,Psychologie,2023-01-24_09h12.21.660,00_bat_bachelor,2022.2.4,59.92651465998165,
,,,,,,,,,,,,1,0,1,0,112,0,112,0,,,,,,,112,,,0.2,2078.8272709036246,X,d,go,d,1,0.4933900493197143,,,,,,,,,,,,,,,,56,001,26,w,Psychologie,2023-01-24_09h12.21.660,00_bat_bachelor,2022.2.4,59.92651465998165,
,,,,,,,,,,,,1,0,1,0,113,0,113,0,,,,,,,113,,,0.2,2079.628435540013,Y,l,go,l,1,0.5486085335724056,,,,,,,,,,,,,,,,56,001,26,w,Psychologie,2023-01-24_09h12.21.660,00_bat_bachelor,2022.2.4,59.92651465998165,
,,,,,,,,,,,,1,0,1,0,114,0,114,0,,,,,,,114,,,0.2,2080.479101735167,X,d,go,d,1,0.505294875241816,,,,,,,,,,,,,,,,56,001,26,w,Psychologie,2023-01-24_09h12.21.660,00_bat_bachelor,2022.2.4,59.92651465998165,
,,,,,,,,,,,,1,0,1,0,115,0,115,0,,,,,,,115,,,0.2,2081.2965297629125,Y,l,go,l,1,0.4482860309071839,,,,,,,,,,,,,,,,56,001,26,w,Psychologie,2023-01-24_09h12.21.660,00_bat_bachelor,2022.2.4,59.92651465998165,
,,,,,,,,,,,,1,0,1,0,116,0,116,0,,,,,,,116,,,0.2,2082.0473620709963,Y,None,nogo,d,0,0.4094056049361825,,,,,,,,,,,,,,,,56,001,26,w,Psychologie,2023-01-24_09h12.21.660,00_bat_bachelor,2022.2.4,59.92651465998165,
,,,,,,,,,,,,1,0,1,0,117,0,117,0,,,,,,,117,,,0.2,2082.7649808269925,X,d,go,None,0,,2083.565860334784,,,,,,,,,,,,,,,56,001,26,w,Psychologie,2023-01-24_09h12.21.660,00_bat_bachelor,2022.2.4,59.92651465998165,
,,,,,,,,,,,,1,0,1,0,118,0,118,0,,,,,,,118,,,0.2,2083.7657529297285,Y,l,go,l,1,0.29856617469340563,,,,,,,,,,,,,,,,56,001,26,w,Psychologie,2023-01-24_09h12.21.660,00_bat_bachelor,2022.2.4,59.92651465998165,
,,,,,,,,,,,,1,0,1,0,119,0,119,0,,,,,,,119,,,0.2,2084.366168765817,X,d,go,d,1,0.3616529698483646,,,,,,,,,,,,,,,,56,001,26,w,Psychologie,2023-01-24_09h12.21.660,00_bat_bachelor,2022.2.4,59.92651465998165,
,,,,,,,,,,,,1,0,1,0,120,0,120,0,,,,,,,120,,,0.2,2085.03562011756,X,None,nogo,None,1,,,,,,,,,,,,,,,,,56,001,26,w,Psychologie,2023-01-24_09h12.21.660,00_bat_bachelor,2022.2.4,59.92651465998165,
,,,,,,,,,,,,1,0,1,0,121,0,121,0,,,,,,,121,,,0.2,2086.0351122198626,Y,l,go,l,1,0.33385070227086544,,,,,,,,,,,,,,,,56,001,26,w,Psychologie,2023-01-24_09h12.21.660,00_bat_bachelor,2022.2.4,59.92651465998165,
,,,,,,,,,,,,1,0,1,0,122,0,122,0,,,,,,,122,,,0.2,2086.668732171878,X,d,go,d,1,0.29207345424219966,,,,,,,,,,,,,,,,56,001,26,w,Psychologie,2023-01-24_09h12.21.660,00_bat_bachelor,2022.2.4,59.92651465998165,
,,,,,,,,,,,,1,0,1,0,123,0,123,0,,,,,,,123,,,0.2,2087.269071700517,Y,l,go,l,1,0.5000817449763417,,,,,,,,,,,,,,,,56,001,26,w,Psychologie,2023-01-24_09h12.21.660,00_bat_bachelor,2022.2.4,59.92651465998165,
,,,,,,,,,,,,1,0,1,0,124,0,124,0,,,,,,,124,,,0.2,2088.0701099778526,X,d,go,d,1,0.3783175917342305,,,,,,,,,,,,,,,,56,001,26,w,Psychologie,2023-01-24_09h12.21.660,00_bat_bachelor,2022.2.4,59.92651465998165,
,,,,,,,,,,,,1,0,1,0,125,0,125,0,,,,,,,125,,,0.2,2088.7538591814227,Y,l,go,l,1,0.4385083862580359,,,,,,,,,,,,,,,,56,001,26,w,Psychologie,2023-01-24_09h12.21.660,00_bat_bachelor,2022.2.4,59.92651465998165,
,,,,,,,,,,,,1,0,1,0,126,0,126,0,,,,,,,126,,,0.2,2089.505222361535,X,d,go,d,1,0.4156989408656955,,,,,,,,,,,,,,,,56,001,26,w,Psychologie,2023-01-24_09h12.21.660,00_bat_bachelor,2022.2.4,59.92651465998165,
,,,,,,,,,,,,1,0,1,0,127,0,127,0,,,,,,,127,,,0.2,2090.2221547579393,Y,l,go,l,1,0.4746745550073683,,,,,,,,,,,,,,,,56,001,26,w,Psychologie,2023-01-24_09h12.21.660,00_bat_bachelor,2022.2.4,59.92651465998165,
,,,,,,,,,,,,1,0,1,0,128,0,128,0,,,,,,,128,,,0.2,2091.006510362029,X,d,go,d,1,0.4106503236107528,,,,,,,,,,,,,,,,56,001,26,w,Psychologie,2023-01-24_09h12.21.660,00_bat_bachelor,2022.2.4,59.92651465998165,
,,,,,,,,,,,,1,0,1,0,129,0,129,0,,,,,,,129,,,0.2,2091.72380419448,Y,l,go,l,1,0.5815734704956412,,,,,,,,,,,,,,,,56,001,26,w,Psychologie,2023-01-24_09h12.21.660,00_bat_bachelor,2022.2.4,59.92651465998165,
,,,,,,,,,,,,1,0,1,0,130,0,130,0,,,,,,,130,,,0.2,2092.6077508134767,X,d,go,d,1,0.4972148719243705,,,,,,,,,,,,,,,,56,001,26,w,Psychologie,2023-01-24_09h12.21.660,00_bat_bachelor,2022.2.4,59.92651465998165,
,,,,,,,,,,,,1,0,1,0,131,0,131,0,,,,,,,131,,,0.2,2093.408617193345,Y,l,go,l,1,0.37645256565883756,,,,,,,,,,,,,,,,56,001,26,w,Psychologie,2023-01-24_09h12.21.660,00_bat_bachelor,2022.2.4,59.92651465998165,
,,,,,,,,,,,,1,0,1,0,132,0,132,0,,,,,,,132,,,0.2,2094.092943218071,Y,None,nogo,None,1,,,,,,,,,,,,,,,,,56,001,26,w,Psychologie,2023-01-24_09h12.21.660,00_bat_bachelor,2022.2.4,59.92651465998165,
,,,,,,,,,,,,1,0,1,0,133,0,133,0,,,,,,,133,,,0.2,2095.093712038826,X,d,go,d,1,0.2348397895693779,,,,,,,,,,,,,,,,56,001,26,w,Psychologie,2023-01-24_09h12.21.660,00_bat_bachelor,2022.2.4,59.92651465998165,
,,,,,,,,,,,,1,0,1,0,134,0,134,0,,,,,,,134,,,0.2,2095.6445610853843,Y,l,go,None,0,,,,,,,,,,,,,,,,,56,001,26,w,Psychologie,2023-01-24_09h12.21.660,00_bat_bachelor,2022.2.4,59.92651465998165,
,,,,,,,,,,,,1,0,1,0,135,0,135,0,,,,,,,135,,,0.2,2096.6454037521034,Y,None,nogo,None,1,,,,,,,,,,,,,,,,,56,001,26,w,Psychologie,2023-01-24_09h12.21.660,00_bat_bachelor,2022.2.4,59.92651465998165,
,,,,,,,,,,,,1,0,1,0,136,0,136,0,,,,,,,136,,,0.2,2097.646253803745,X,d,go,d,1,0.37817687448114157,,,,,,,,,,,,,,,,56,001,26,w,Psychologie,2023-01-24_09h12.21.660,00_bat_bachelor,2022.2.4,59.92651465998165,
,,,,,,,,,,,,1,0,1,0,137,0,137,0,,,,,,,137,,,0.2,2098.3301490587182,Y,l,go,l,1,0.5504300729371607,,,,,,,,,,,,,,,,56,001,26,w,Psychologie,2023-01-24_09h12.21.660,00_bat_bachelor,2022.2.4,59.92651465998165,
,,,,,,,,,,,,1,0,1,0,138,0,138,0,,,,,,,138,,,0.2,2099.1810938180424,X,d,go,d,1,0.38095143903046846,,,,,,,,,,,,,,,,56,001,26,w,Psychologie,2023-01-24_09h12.21.660,00_bat_bachelor,2022.2.4,59.92651465998165,
,,,,,,,,,,,,1,0,1,0,139,0,139,0,,,,,,,139,,,0.2,2099.865152765531,X,None,nogo,None,1,,,,,,,,,,,,,,,,,56,001,26,w,Psychologie,2023-01-24_09h12.21.660,00_bat_bachelor,2022.2.4,59.92651465998165,
,,,,,,,,,,,,1,0,1,0,140,0,140,0,,,,,,,140,,,0.2,2100.8662022016943,Y,l,go,l,1,0.31118238531053066,,,,,,,,,,,,,,,,56,001,26,w,Psychologie,2023-01-24_09h12.21.660,00_bat_bachelor,2022.2.4,59.92651465998165,
,,,,,,,,,,,,1,0,1,0,141,0,141,0,,,,,,,141,,,0.2,2101.4833926088177,X,d,go,d,1,0.4365567956119776,,,,,,,,,,,,,,,,56,001,26,w,Psychologie,2023-01-24_09h12.21.660,00_bat_bachelor,2022.2.4,59.92651465998165,
,,,,,,,,,,,,1,0,1,0,142,0,142,0,,,,,,,142,,,0.2,2102.2345075835474,Y,l,go,l,1,0.5506963292136788,,,,,,,,,,,,,,,,56,001,26,w,Psychologie,2023-01-24_09h12.21.660,00_bat_bachelor,2022.2.4,59.92651465998165,
,,,,,,,,,,,,1,0,1,0,143,0,143,0,,,,,,,143,,,0.2,2103.0851512146182,Y,None,nogo,None,1,,2103.886015953496,,,,,,,,,,,,,,,56,001,26,w,Psychologie,2023-01-24_09h12.21.660,00_bat_bachelor,2022.2.4,59.92651465998165,
,,,,,,,,,,,,1,0,1,0,144,0,144,0,,,,,,,144,,,0.2,2104.086218702141,X,d,go,d,1,0.39488006057217717,,,,,,,,,,,,,,,,56,001,26,w,Psychologie,2023-01-24_09h12.21.660,00_bat_bachelor,2022.2.4,59.92651465998165,
,,,,,,,,,,,,1,0,1,0,145,0,145,0,,,,,,,145,,,0.2,2104.7869820664637,Y,l,go,l,1,0.4295955621637404,,,,,,,,,,,,,,,,56,001,26,w,Psychologie,2023-01-24_09h12.21.660,00_bat_bachelor,2022.2.4,59.92651465998165,
,,,,,,,,,,,,1,0,1,0,146,0,146,0,,,,,,,146,,,0.2,2105.520898675546,X,d,go,d,1,0.3603635332547128,,,,,,,,,,,,,,,,56,001,26,w,Psychologie,2023-01-24_09h12.21.660,00_bat_bachelor,2022.2.4,59.92651465998165,
,,,,,,,,,,,,1,0,1,0,147,0,147,0,,,,,,,147,,,0.2,2106.1883520777337,Y,l,go,l,1,0.5406122230924666,,,,,,,,,,,,,,,,56,001,26,w,Psychologie,2023-01-24_09h12.21.660,00_bat_bachelor,2022.2.4,59.92651465998165,
,,,,,,,,,,,,1,0,1,0,148,0,148,0,,,,,,,148,,,0.2,2107.039030170068,X,d,go,None,0,,,,,,,,,,,,,,,,,56,001,26,w,Psychologie,2023-01-24_09h12.21.660,00_bat_bachelor,2022.2.4,59.92651465998165,
,,,,,,,,,,,,1,0,1,0,149,0,149,0,,,,,,,149,,,0.2,2108.040013144724,Y,l,go,l,1,0.3771532839164138,,,,,,,,,,,,,,,,56,001,26,w,Psychologie,2023-01-24_09h12.21.660,00_bat_bachelor,2022.2.4,59.92651465998165,
,,,,,,,,,,,,1,0,1,0,150,0,150,0,,,,,,,150,,,0.2,2108.723753322847,Y,None,nogo,d,0,0.26919139362871647,,,,,,,,,,,,,,,,56,001,26,w,Psychologie,2023-01-24_09h12.21.660,00_bat_bachelor,2022.2.4,59.92651465998165,
,,,,,,,,,,,,1,0,1,0,151,0,151,0,,,,,,,151,,,0.2,2109.3079168447293,X,d,go,None,0,,,,,,,,,,,,,,,,,56,001,26,w,Psychologie,2023-01-24_09h12.21.660,00_bat_bachelor,2022.2.4,59.92651465998165,
,,,,,,,,,,,,1,0,1,0,152,0,152,0,,,,,,,152,,,0.2,2110.3087952039205,Y,l,go,l,1,0.019763188436627388,,,,,,,,,,,,,,,,56,001,26,w,Psychologie,2023-01-24_09h12.21.660,00_bat_bachelor,2022.2.4,59.92651465998165,
,,,,,,,,,,,,1,0,1,0,153,0,153,0,,,,,,,153,,,0.2,2110.642501187045,Y,None,nogo,None,1,,,,,,,,,,,,,,,,,56,001,26,w,Psychologie,2023-01-24_09h12.21.660,00_bat_bachelor,2022.2.4,59.92651465998165,
,,,,,,,,,,,,1,0,1,0,154,0,154,0,,,,,,,154,,,0.2,2111.643384879455,X,d,go,d,1,0.31759961834177375,,,,,,,,,,,,,,,,56,001,26,w,Psychologie,2023-01-24_09h12.21.660,00_bat_bachelor,2022.2.4,59.92651465998165,
,,,,,,,,,,,,1,0,1,0,155,0,155,0,,,,,,,155,,,0.2,2112.2774823703803,Y,l,go,l,1,0.34760250244289637,,,,,,,,,,,,,,,,56,001,26,w,Psychologie,2023-01-24_09h12.21.660,00_bat_bachelor,2022.2.4,59.92651465998165,
,,,,,,,,,,,,1,0,1,0,156,0,156,0,,,,,,,156,,,0.2,2112.928469714243,Y,None,nogo,None,1,,2113.729097324889,,,,,,,,,,,,,,,56,001,26,w,Psychologie,2023-01-24_09h12.21.660,00_bat_bachelor,2022.2.4,59.92651465998165,
,,,,,,,,,,,,1,0,1,0,157,0,157,0,,,,,,,157,,,0.2,2113.9292430481873,X,d,go,d,1,0.4630150627344847,,,,,,,,,,,,,,,,56,001,26,w,Psychologie,2023-01-24_09h12.21.660,00_bat_bachelor,2022.2.4,59.92651465998165,
,,,,,,,,,,,,1,0,1,0,158,0,158,0,,,,,,,158,,,0.2,2114.6967990552075,Y,l,go,l,1,0.32041356805711985,,,,,,,,,,,,,,,,56,001,26,w,Psychologie,2023-01-24_09h12.21.660,00_bat_bachelor,2022.2.4,59.92651465998165,
,,,,,,,,,,,,1,0,1,0,159,0,159,0,,,,,,,159,,,0.2,2115.330573264044,X,d,go,d,1,0.49449240881949663,,,,,,,,,,,,,,,,56,001,26,w,Psychologie,2023-01-24_09h12.21.660,00_bat_bachelor,2022.2.4,59.92651465998165,
,,,,,,,,,,,,1,0,1,0,160,0,160,0,,,,,,,160,,,0.2,2116.1312123616226,X,None,nogo,None,1,,,,,,,,,,,,,,,,,56,001,26,w,Psychologie,2023-01-24_09h12.21.660,00_bat_bachelor,2022.2.4,59.92651465998165,
,,,,,,,,,,,,1,0,1,0,161,0,161,0,,,,,,,161,,,0.2,2117.149115548469,Y,l,go,l,1,0.36326527828350663,,,,,,,,,,,,,,,,56,001,26,w,Psychologie,2023-01-24_09h12.21.660,00_bat_bachelor,2022.2.4,59.92651465998165,
,,,,,,,,,,,,1,0,1,0,162,0,162,0,,,,,,,162,,,0.2,2117.816741668619,X,d,go,None,0,,,,,,,,,,,,,,,,,56,001,26,w,Psychologie,2023-01-24_09h12.21.660,00_bat_bachelor,2022.2.4,59.92651465998165,
,,,,,,,,,,,,1,0,1,0,163,0,163,0,,,,,,,163,,,0.2,2118.8176159253344,Y,l,go,None,0,,,,,,,,,,,,,,,,,56,001,26,w,Psychologie,2023-01-24_09h12.21.660,00_bat_bachelor,2022.2.4,59.92651465998165,
,,,,,,,,,,,,1,0,1,0,164,0,164,0,,,,,,,164,,,0.2,2119.818317464087,Y,None,nogo,l,0,0.4626072677783668,,,,,,,,,,,,,,,,56,001,26,w,Psychologie,2023-01-24_09h12.21.660,00_bat_bachelor,2022.2.4,59.92651465998165,
,,,,,,,,,,,,1,0,1,0,165,0,165,0,,,,,,,165,,,0.2,2120.5862870099954,X,d,go,d,1,0.3999282675795257,,,,,,,,,,,,,,,,56,001,26,w,Psychologie,2023-01-24_09h12.21.660,00_bat_bachelor,2022.2.4,59.92651465998165,
,,,,,,,,,,,,1,0,1,0,166,0,166,0,,,,,,,166,,,0.2,2121.286586784292,Y,l,go,l,1,0.23468102049082518,,,,,,,,,,,,,,,,56,001,26,w,Psychologie,2023-01-24_09h12.21.660,00_bat_bachelor,2022.2.4,59.92651465998165,
,,,,,,,,,,,,1,0,1,0,167,0,167,0,,,,,,,167,,,0.2,2121.837224138435,X,d,go,d,1,0.2596340565942228,,,,,,,,,,,,,,,,56,001,26,w,Psychologie,2023-01-24_09h12.21.660,00_bat_bachelor,2022.2.4,59.92651465998165,
,,,,,,,,,,,,1,0,1,0,168,0,168,0,,,,,,,168,,,0.2,2122.404350525234,X,None,nogo,l,0,0.372528871987015,,,,,,,,,,,,,,,,56,001,26,w,Psychologie,2023-01-24_09h12.21.660,00_bat_bachelor,2022.2.4,59.92651465998165,
,,,,,,,,,,,,1,0,1,0,169,0,169,0,,,,,,,169,,,0.2,2123.088256036397,Y,l,go,l,1,0.6006339909508824,,,,,,,,,,,,,,,,56,001,26,w,Psychologie,2023-01-24_09h12.21.660,00_bat_bachelor,2022.2.4,59.92651465998165,
,,,,,,,,,,,,1,0,1,0,170,0,170,0,,,,,,,170,,,0.2,2123.989758765325,X,d,go,d,1,0.31557048950344324,,,,,,,,,,,,,,,,56,001,26,w,Psychologie,2023-01-24_09h12.21.660,00_bat_bachelor,2022.2.4,59.92651465998165,
,,,,,,,,,,,,1,0,1,0,171,0,171,0,,,,,,,171,,,0.2,2124.606429377105,Y,l,go,l,1,0.4746002983301878,,,,,,,,,,,,,,,,56,001,26,w,Psychologie,2023-01-24_09h12.21.660,00_bat_bachelor,2022.2.4,59.92651465998165,
,,,,,,,,,,,,1,0,1,0,172,0,172,0,,,,,,,172,,,0.2,2125.3905269298702,Y,None,nogo,None,1,,,,,,,,,,,,,,,,,56,001,26,w,Psychologie,2023-01-24_09h12.21.660,00_bat_bachelor,2022.2.4,59.92651465998165,
,,,,,,,,,,,,1,0,1,0,173,0,173,0,,,,,,,173,,,0.2,2126.3918848787434,X,d,go,d,1,0.4248193548992276,,,,,,,,,,,,,,,,56,001,26,w,Psychologie,2023-01-24_09h12.21.660,00_bat_bachelor,2022.2.4,59.92651465998165,
,,,,,,,,,,,,1,0,1,0,174,0,174,0,,,,,,,174,,,0.2,2127.125739539042,Y,l,go,l,1,0.46688214130699635,,,,,,,,,,,,,,,,56,001,26,w,Psychologie,2023-01-24_09h12.21.660,00_bat_bachelor,2022.2.4,59.92651465998165,
,,,,,,,,,,,,1,0,1,0,175,0,175,0,,,,,,,175,,,0.2,2127.8931979052722,X,d,go,d,1,0.40431801322847605,,,,,,,,,,,,,,,,56,001,26,w,Psychologie,2023-01-24_09h12.21.660,00_bat_bachelor,2022.2.4,59.92651465998165,
,,,,,,,,,,,,1,0,1,0,176,0,176,0,,,,,,,176,,,0.2,2128.6107140970416,Y,l,go,l,1,0.42239145655184984,,,,,,,,,,,,,,,,56,001,26,w,Psychologie,2023-01-24_09h12.21.660,00_bat_bachelor,2022.2.4,59.92651465998165,
,,,,,,,,,,,,1,0,1,0,177,0,177,0,,,,,,,177,,,0.2,2129.344880552031,X,d,go,d,1,0.37684928346425295,,,,,,,,,,,,,,,,56,001,26,w,Psychologie,2023-01-24_09h12.21.660,00_bat_bachelor,2022.2.4,59.92651465998165,
,,,,,,,,,,,,1,0,1,0,178,0,178,0,,,,,,,178,,,0.2,2130.0288057555445,Y,l,go,l,1,0.31651366921141744,,,,,,,,,,,,,,,,56,001,26,w,Psychologie,2023-01-24_09h12.21.660,00_bat_bachelor,2022.2.4,59.92651465998165,
,,,,,,,,,,,,1,0,1,0,179,0,179,0,,,,,,,179,,,0.2,2130.6460392395966,Y,None,nogo,None,1,,,,,,,,,,,,,,,,,56,001,26,w,Psychologie,2023-01-24_09h12.21.660,00_bat_bachelor,2022.2.4,59.92651465998165,
,,,,,,,,,,,,1,0,1,0,180,0,180,0,,,,,,,180,,,0.2,2131.646767855156,Y,None,nogo,None,1,,2132.4476124914363,,,,,,,,,,,,,,,56,001,26,w,Psychologie,2023-01-24_09h12.21.660,00_bat_bachelor,2022.2.4,59.92651465998165,
,,,,,,,,,,,,1,0,1,0,181,0,181,0,,,,,,,181,,,0.2,2132.6477175992914,X,d,go,d,1,0.4332156660966575,,,,,,,,,,,,,,,,56,001,26,w,Psychologie,2023-01-24_09h12.21.660,00_bat_bachelor,2022.2.4,59.92651465998165,
,,,,,,,,,,,,1,0,1,0,182,0,182,0,,,,,,,182,,,0.2,2133.38191072084,Y,l,go,l,1,0.4655652176588774,,,,,,,,,,,,,,,,56,001,26,w,Psychologie,2023-01-24_09h12.21.660,00_bat_bachelor,2022.2.4,59.92651465998165,
,,,,,,,,,,,,1,0,1,0,183,0,183,0,,,,,,,183,,,0.2,2134.1500743180513,Y,None,nogo,None,1,,2134.9503774158657,,,,,,,,,,,,,,,56,001,26,w,Psychologie,2023-01-24_09h12.21.660,00_bat_bachelor,2022.2.4,59.92651465998165,
,,,,,,,,,,,,1,0,1,0,184,0,184,0,,,,,,,184,,,0.2,2135.1507832417265,X,d,go,d,1,0.4425592594780028,,,,,,,,,,,,,,,,56,001,26,w,Psychologie,2023-01-24_09h12.21.660,00_bat_bachelor,2022.2.4,59.92651465998165,
,,,,,,,,,,,,1,0,1,0,185,0,185,0,,,,,,,185,,,0.2,2135.901268882677,Y,l,go,l,1,0.6199685628525913,,,,,,,,,,,,,,,,56,001,26,w,Psychologie,2023-01-24_09h12.21.660,00_bat_bachelor,2022.2.4,59.92651465998165,
,,,,,,,,,,,,1,0,1,0,186,0,186,0,,,,,,,186,,,0.2,2136.8354936763644,X,d,go,d,1,0.3973301127552986,,,,,,,,,,,,,,,,56,001,26,w,Psychologie,2023-01-24_09h12.21.660,00_bat_bachelor,2022.2.4,59.92651465998165,
,,,,,,,,,,,,1,0,1,0,187,0,187,0,,,,,,,187,,,0.2,2137.5361052458175,Y,l,go,l,1,0.5687357215210795,,,,,,,,,,,,,,,,56,001,26,w,Psychologie,2023-01-24_09h12.21.660,00_bat_bachelor,2022.2.4,59.92651465998165,
,,,,,,,,,,,,1,0,1,0,188,0,188,0,,,,,,,188,,,0.2,2138.420099864714,X,d,go,d,1,0.5255496525205672,,,,,,,,,,,,,,,,56,001,26,w,Psychologie,2023-01-24_09h12.21.660,00_bat_bachelor,2022.2.4,59.92651465998165,
,,,,,,,,,,,,1,0,1,0,189,0,189,0,,,,,,,189,,,0.2,2139.254281950649,Y,l,go,l,1,0.47421137522906065,,,,,,,,,,,,,,,,56,001,26,w,Psychologie,2023-01-24_09h12.21.660,00_bat_bachelor,2022.2.4,59.92651465998165,
,,,,,,,,,,,,1,0,1,0,190,0,190,0,,,,,,,190,,,0.2,2140.03864247771,X,d,go,d,1,0.3864611852914095,,,,,,,,,,,,,,,,56,001,26,w,Psychologie,2023-01-24_09h12.21.660,00_bat_bachelor,2022.2.4,59.92651465998165,
,,,,,,,,,,,,1,0,1,0,191,0,191,0,,,,,,,191,,,0.2,2140.7392712780274,X,None,nogo,None,1,,,,,,,,,,,,,,,,,56,001,26,w,Psychologie,2023-01-24_09h12.21.660,00_bat_bachelor,2022.2.4,59.92651465998165,
,,,,,,,,,,,,1,0,1,0,192,0,192,0,,,,,,,192,,,0.2,2141.7402062527835,Y,l,go,l,1,0.4126121704466641,,,,,,,,,,,,,,,,56,001,26,w,Psychologie,2023-01-24_09h12.21.660,00_bat_bachelor,2022.2.4,59.92651465998165,
,,,,,,,,,,,,1,0,1,0,193,0,193,0,,,,,,,193,,,0.2,2142.4576026494615,X,d,go,d,1,0.4793063513934612,,,,,,,,,,,,,,,,56,001,26,w,Psychologie,2023-01-24_09h12.21.660,00_bat_bachelor,2022.2.4,59.92651465998165,
,,,,,,,,,,,,1,0,1,0,194,0,194,0,,,,,,,194,,,0.2,2143.2417416376993,X,None,nogo,None,1,,,,,,,,,,,,,,,,,56,001,26,w,Psychologie,2023-01-24_09h12.21.660,00_bat_bachelor,2022.2.4,59.92651465998165,
,,,,,,,,,,,,1,0,1,0,195,0,195,0,,,,,,,195,,,0.2,2144.242891997099,Y,l,go,l,1,0.3501264010556042,,,,,,,,,,,,,,,,56,001,26,w,Psychologie,2023-01-24_09h12.21.660,00_bat_bachelor,2022.2.4,59.92651465998165,
,,,,,,,,,,,,1,0,1,0,196,0,196,0,,,,,,,196,,,0.2,2144.893446110189,X,d,go,None,0,,,,,,,,,,,,,,,,,56,001,26,w,Psychologie,2023-01-24_09h12.21.660,00_bat_bachelor,2022.2.4,59.92651465998165,
,,,,,,,,,,,,1,0,1,0,197,0,197,0,,,,,,,197,,,0.2,2145.8943962645717,X,None,nogo,None,1,,,,,,,,,,,,,,,,,56,001,26,w,Psychologie,2023-01-24_09h12.21.660,00_bat_bachelor,2022.2.4,59.92651465998165,
,,,,,,,,,,,,1,0,1,0,198,0,198,0,,,,,,,198,,,0.2,2146.8954243673943,Y,l,go,l,1,0.38555082585662603,,,,,,,,,,,,,,,,56,001,26,w,Psychologie,2023-01-24_09h12.21.660,00_bat_bachelor,2022.2.4,59.92651465998165,
,,,,,,,,,,,,1,0,1,0,199,0,199,0,,,,,,,199,,,0.2,2147.5961380908266,X,d,go,d,1,0.428845202550292,,,,,,,,,,,,,,,,56,001,26,w,Psychologie,2023-01-24_09h12.21.660,00_bat_bachelor,2022.2.4,59.92651465998165,
,,,,,,,,,,,,1,0,1,0,200,0,200,0,,,,,,,200,,,0.2,2148.330031725578,X,None,nogo,None,1,,,,,,,,,,,,,,,,,56,001,26,w,Psychologie,2023-01-24_09h12.21.660,00_bat_bachelor,2022.2.4,59.92651465998165,
,,,,,,,,,,,,1,0,1,0,201,0,201,0,,,,,,,201,,,0.2,2149.3311476232484,Y,l,go,l,1,0.41401401720941067,,,,,,,,,,,,,,,,56,001,26,w,Psychologie,2023-01-24_09h12.21.660,00_bat_bachelor,2022.2.4,59.92651465998165,
,,,,,,,,,,,,1,0,1,0,202,0,202,0,,,,,,,202,,,0.2,2150.048530071508,X,d,go,d,1,0.38439595326781273,,,,,,,,,,,,,,,,56,001,26,w,Psychologie,2023-01-24_09h12.21.660,00_bat_bachelor,2022.2.4,59.92651465998165,
,,,,,,,,,,,,1,0,1,0,203,0,203,0,,,,,,,203,,,0.2,2150.7494928203523,Y,l,go,l,1,0.6196502042002976,,,,,,,,,,,,,,,,56,001,26,w,Psychologie,2023-01-24_09h12.21.660,00_bat_bachelor,2022.2.4,59.92651465998165,
,,,,,,,,,,,,1,0,1,0,204,0,204,0,,,,,,,204,,,0.2,2151.6834529987536,Y,None,nogo,None,1,,,,,,,,,,,,,,,,,56,001,26,w,Psychologie,2023-01-24_09h12.21.660,00_bat_bachelor,2022.2.4,59.92651465998165,
,,,,,,,,,,,,1,0,1,0,205,0,205,0,,,,,,,205,,,0.2,2152.684536896646,X,d,go,d,1,0.42053258419036865,,,,,,,,,,,,,,,,56,001,26,w,Psychologie,2023-01-24_09h12.21.660,00_bat_bachelor,2022.2.4,59.92651465998165,
,,,,,,,,,,,,1,0,1,0,206,0,206,0,,,,,,,206,,,0.2,2153.418498223182,Y,l,go,l,1,0.3342564459890127,,,,,,,,,,,,,,,,56,001,26,w,Psychologie,2023-01-24_09h12.21.660,00_bat_bachelor,2022.2.4,59.92651465998165,
,,,,,,,,,,,,1,0,1,0,207,0,207,0,,,,,,,207,,,0.2,2154.0691770543344,Y,None,nogo,None,1,,,,,,,,,,,,,,,,,56,001,26,w,Psychologie,2023-01-24_09h12.21.660,00_bat_bachelor,2022.2.4,59.92651465998165,
