loop_instruction.thisRepN,loop_instruction.thisTrialN,loop_instruction.thisN,loop_instruction.thisIndex,loop_rsi_practice.thisRepN,loop_rsi_practice.thisTrialN,loop_rsi_practice.thisN,loop_rsi_practice.thisIndex,loop_practice.thisRepN,loop_practice.thisTrialN,loop_practice.thisN,loop_practice.thisIndex,loop_exp.thisRepN,loop_exp.thisTrialN,loop_exp.thisN,loop_exp.thisIndex,loop_trials.thisRepN,loop_trials.thisTrialN,loop_trials.thisN,loop_trials.thisIndex,map_condition,map_x_key,map_y_key,key_resp_welcome.started,key_resp_welcome.keys,key_resp_welcome.rt,index,text_empty_rsi_practice.started,text_empty_rsi_practice.stopped,rsi,stimulus.started,stimulus,correct,trial_type,key_resp_trial.keys,key_resp_trial.corr,key_resp_trial.rt,key_resp_instruction_rsi.started,key_resp_instruction_rsi.keys,key_resp_instruction_rsi.rt,key_resp_instruction_rsi.stopped,key_resp_instruction_final.started,key_resp_instruction_final.keys,key_resp_instruction_final.rt,stimulus.stopped,key_resp_break.started,key_resp_break.keys,key_resp_break.rt,key_resp_break.stopped,key_resp_end_screen.started,image_end_screen.started,key_resp_end_screen.keys,participant,session,Alter,Geschlecht (w/m/d/andere),Studiengang,date,expName,psychopyVersion,frameRate,
,,,,0,0,0,0,0,0,0,0,,,,,,,,,1,l,d,1366.3114966422604,j,26.59400338760622,0,1392.930553931626,1393.9463963736662,1,1393.9463963736662,X,l,go,l,1,0.5234922949015299,,,,,,,,,,,,,,,,57,001,21,w,Psychologie,2023-01-24_09h11.31.047,00_bat_bachelor,2022.2.4,59.91129452473678,
,,,,0,0,0,0,1,0,1,0,,,,,,,,,,,,,,,1,1395.181095982241,1396.1819973144648,1,1396.1819973144648,Y,d,go,d,1,0.527715879447328,,,,,,,,,,,,,,,,57,001,21,w,Psychologie,2023-01-24_09h11.31.047,00_bat_bachelor,2022.2.4,59.91129452473678,
,,,,0,0,0,0,2,0,2,0,,,,,,,,,,,,,,,2,1397.416466359221,1398.417727485874,1,1398.417727485874,X,l,go,None,0,,,,,,,,,,,,,,,,,57,001,21,w,Psychologie,2023-01-24_09h11.31.047,00_bat_bachelor,2022.2.4,59.91129452473678,
,,,,0,0,0,0,3,0,3,0,,,,,,,,,,,,,,,3,1399.8188642229366,1400.819889452444,1,1400.819889452444,Y,d,go,d,1,0.37807052516438944,,,,,,,,,,,,,,,,57,001,21,w,Psychologie,2023-01-24_09h11.31.047,00_bat_bachelor,2022.2.4,59.91129452473678,
,,,,0,0,0,0,4,0,4,0,,,,,,,,,,,,,,,4,1401.9043000152205,1402.905350680594,1,1402.905350680594,Y,None,nogo,None,1,,,,,,,,,,,,,,,,,57,001,21,w,Psychologie,2023-01-24_09h11.31.047,00_bat_bachelor,2022.2.4,59.91129452473678,
,,,,0,0,0,0,5,0,5,0,,,,,,,,,,,,,,,5,1404.3065653662784,1405.30782362114,1,1405.30782362114,X,l,go,l,1,0.6180267426542514,,,,,,,,,,,,,,,,57,001,21,w,Psychologie,2023-01-24_09h11.31.047,00_bat_bachelor,2022.2.4,59.91129452473678,
,,,,0,0,0,0,6,0,6,0,,,,,,,,,,,,,,,6,1406.642345465831,1407.6434679259883,1,1407.6434679259883,Y,d,go,None,0,,,,,,,,,,,,,,,,,57,001,21,w,Psychologie,2023-01-24_09h11.31.047,00_bat_bachelor,2022.2.4,59.91129452473678,
,,,,0,0,0,0,7,0,7,0,,,,,,,,,,,,,,,7,1409.0446817911607,1410.045885892243,1,1410.045885892243,Y,None,nogo,d,0,0.5354126904870782,,,,,,,,,,,,,,,,57,001,21,w,Psychologie,2023-01-24_09h11.31.047,00_bat_bachelor,2022.2.4,59.91129452473678,
,,,,0,0,0,0,8,0,8,0,,,,,,,,,,,,,,,8,1411.6974305262393,1412.6984852941719,1,1412.6984852941719,Y,None,nogo,None,1,,,,,,,,,,,,,,,,,57,001,21,w,Psychologie,2023-01-24_09h11.31.047,00_bat_bachelor,2022.2.4,59.91129452473678,
,,,,0,0,0,0,9,0,9,0,,,,,,,,,,,,,,,9,1414.099880082199,1415.1009611065092,1,1415.1009611065092,X,l,go,l,1,0.4330107652382367,,,,,,,,,,,,,,,,57,001,21,w,Psychologie,2023-01-24_09h11.31.047,00_bat_bachelor,2022.2.4,59.91129452473678,
,,,,0,0,0,0,10,0,10,0,,,,,,,,,,,,,,,10,1416.2519672796302,1417.2524497405748,1,1417.2524497405748,Y,d,go,None,0,,,,,,,,,,,,,,,,,57,001,21,w,Psychologie,2023-01-24_09h11.31.047,00_bat_bachelor,2022.2.4,59.91129452473678,
,,,,0,0,0,0,11,0,11,0,,,,,,,,,,,,,,,11,1418.6543524254125,1419.6554925265732,1,1419.6554925265732,Y,None,nogo,None,1,,,,,,,,,,,,,,,,,57,001,21,w,Psychologie,2023-01-24_09h11.31.047,00_bat_bachelor,2022.2.4,59.91129452473678,
,,,,0,0,0,0,12,0,12,0,,,,,,,,,,,,,,,12,1421.0567289558207,1422.0577439289304,1,1422.0577439289304,Y,None,nogo,None,1,,,,,,,,,,,,,,,,,57,001,21,w,Psychologie,2023-01-24_09h11.31.047,00_bat_bachelor,2022.2.4,59.91129452473678,
,,,,0,0,0,0,13,0,13,0,,,,,,,,,,,,,,,13,1423.458785076367,1424.4606074330986,1,1424.4606074330986,X,l,go,l,1,0.4648548286094183,,,,,,,,,,,,,,,,57,001,21,w,Psychologie,2023-01-24_09h11.31.047,00_bat_bachelor,2022.2.4,59.91129452473678,
,,,,0,0,0,0,14,0,14,0,,,,,,,,,,,,,,,14,1425.6447852577003,1426.6456599232902,1,1426.6456599232902,Y,d,go,d,1,0.559809378408886,,,,,,,,,,,,,,,,57,001,21,w,Psychologie,2023-01-24_09h11.31.047,00_bat_bachelor,2022.2.4,59.91129452473678,
,,,,1,0,1,0,0,0,0,0,,,,,,,,,,,,,,,0,1446.165131694197,1446.3652233453663,0.2,1446.3652233453663,X,l,go,l,1,0.49757807038588453,1427.9450515548083,j,18.200482641170197,,,,,,,,,,,,,57,001,21,w,Psychologie,2023-01-24_09h11.31.047,00_bat_bachelor,2022.2.4,59.91129452473678,
,,,,1,0,1,0,1,0,1,0,,,,,,,,,,,,,,,1,1447.5662672004914,1447.766774851149,0.2,1447.766774851149,Y,d,go,d,1,0.4232823669552772,,,,,,,,,,,,,,,,57,001,21,w,Psychologie,2023-01-24_09h11.31.047,00_bat_bachelor,2022.2.4,59.91129452473678,
,,,,1,0,1,0,2,0,2,0,,,,,,,,,,,,,,,2,1448.9011841216197,1449.1014025418635,0.2,1449.1014025418635,X,l,go,l,1,0.3199581864311085,,,,,,,,,,,,,,,,57,001,21,w,Psychologie,2023-01-24_09h11.31.047,00_bat_bachelor,2022.2.4,59.91129452473678,
,,,,1,0,1,0,3,0,3,0,,,,,,,,,,,,,,,3,1450.1357192175765,1450.3361403042377,0.2,1450.3361403042377,X,None,nogo,None,1,,,,,,,,,,,,,,,,,57,001,21,w,Psychologie,2023-01-24_09h11.31.047,00_bat_bachelor,2022.2.4,59.91129452473678,
,,,,1,0,1,0,4,0,4,0,,,,,,,,,,,,,,,4,1451.7373943744888,1451.9376419229025,0.2,1451.9376419229025,Y,d,go,d,1,0.5321056176338743,,,,,,,,,,,,,,,,57,001,21,w,Psychologie,2023-01-24_09h11.31.047,00_bat_bachelor,2022.2.4,59.91129452473678,
,,,,1,0,1,0,5,0,5,0,,,,,,,,,,,,,,,5,1453.1721331214771,1453.3722633367015,0.2,1453.3722633367015,X,l,go,l,1,0.44868664338071085,,,,,,,,,,,,,,,,57,001,21,w,Psychologie,2023-01-24_09h11.31.047,00_bat_bachelor,2022.2.4,59.91129452473678,
,,,,1,0,1,0,6,0,6,0,,,,,,,,,,,,,,,6,1454.52348612494,1454.723320135401,0.2,1454.723320135401,Y,d,go,d,1,0.36223218568341053,,,,,,,,,,,,,,,,57,001,21,w,Psychologie,2023-01-24_09h11.31.047,00_bat_bachelor,2022.2.4,59.91129452473678,
,,,,1,0,1,0,7,0,7,0,,,,,,,,,,,,,,,7,1455.7908663086773,1455.991645959,0.2,1455.991645959,X,l,go,l,1,0.3896992288008505,,,,,,,,,,,,,,,,57,001,21,w,Psychologie,2023-01-24_09h11.31.047,00_bat_bachelor,2022.2.4,59.91129452473678,
,,,,1,0,1,0,8,0,8,0,,,,,,,,,,,,,,,8,1457.0926628603124,1457.292639639828,0.2,1457.292639639828,X,None,nogo,d,0,0.36835156276731595,,,,,,,,,,,,,,,,57,001,21,w,Psychologie,2023-01-24_09h11.31.047,00_bat_bachelor,2022.2.4,59.91129452473678,
,,,,1,0,1,0,9,0,9,0,,,,,,,,,,,,,,,9,1458.7777414017542,1458.977853155463,0.2,1458.977853155463,Y,d,go,d,1,0.5075998016415042,,,,,,,,,,,,,,,,57,001,21,w,Psychologie,2023-01-24_09h11.31.047,00_bat_bachelor,2022.2.4,59.91129452473678,
,,,,1,0,1,0,10,0,10,0,,,,,,,,,,,,,,,10,1460.1960690920178,1460.395887102498,0.2,1460.395887102498,X,l,go,l,1,0.5218311687409596,,,,,,,,,,,,,,,,57,001,21,w,Psychologie,2023-01-24_09h11.31.047,00_bat_bachelor,2022.2.4,59.91129452473678,
,,,,1,0,1,0,11,0,11,0,,,,,,,,,,,,,,,11,1461.6306158392422,1461.8308334389744,0.2,1461.8308334389744,X,None,nogo,None,1,,,,,,,,,,,,,,,,,57,001,21,w,Psychologie,2023-01-24_09h11.31.047,00_bat_bachelor,2022.2.4,59.91129452473678,
,,,,1,0,1,0,12,0,12,0,,,,,,,,,,,,,,,12,1463.2320706887335,1463.4323941344892,0.2,1463.4323941344892,Y,d,go,d,1,0.40517162001435736,,,,,,,,,,,,,,,,57,001,21,w,Psychologie,2023-01-24_09h11.31.047,00_bat_bachelor,2022.2.4,59.91129452473678,
,,,,1,0,1,0,13,0,13,0,,,,,,,,,,,,,,,13,1464.550088758865,1464.7503843072195,0.2,1464.7503843072195,X,l,go,l,1,0.5437039623333249,,,,,,,,,,,,,,,,57,001,21,w,Psychologie,2023-01-24_09h11.31.047,00_bat_bachelor,2022.2.4,59.91129452473678,
,,,,1,0,1,0,14,0,14,0,,,,,,,,,,,,,,,14,1466.0016713825585,1466.2018483669558,0.2,1466.2018483669558,Y,d,go,d,1,0.5392596601110426,,,,,,,,,,,,,,,,57,001,21,w,Psychologie,2023-01-24_09h11.31.047,00_bat_bachelor,2022.2.4,59.91129452473678,
,,,,,,,,,,,,,,,,,,,,,,,,,,,,,,,,,,,,,1467.4985827709752,None,,1467.4985827709752,1467.4985827709752,space,22.26982204300873,,,,,,,,,57,001,21,w,Psychologie,2023-01-24_09h11.31.047,00_bat_bachelor,2022.2.4,59.91129452473678,
,,,,,,,,,,,,0,0,0,0,0,0,0,0,,,,,,,0,,,1,1490.7930431265108,X,l,go,l,1,0.35681967952461946,,,,,,,,,,,,,,,,57,001,21,w,Psychologie,2023-01-24_09h11.31.047,00_bat_bachelor,2022.2.4,59.91129452473678,
,,,,,,,,,,,,0,0,0,0,1,0,1,0,,,,,,,1,,,1,1492.261265729724,Y,d,go,d,1,0.4087744873751262,,,,,,,,,,,,,,,,57,001,21,w,Psychologie,2023-01-24_09h11.31.047,00_bat_bachelor,2022.2.4,59.91129452473678,
,,,,,,,,,,,,0,0,0,0,2,0,2,0,,,,,,,2,,,1,1493.7793422202967,X,l,go,l,1,0.4098637168036703,,,,,,,,,,,,,,,,57,001,21,w,Psychologie,2023-01-24_09h11.31.047,00_bat_bachelor,2022.2.4,59.91129452473678,
,,,,,,,,,,,,0,0,0,0,3,0,3,0,,,,,,,3,,,1,1495.297277582838,X,None,nogo,l,0,0.4603046803634925,,,,,,,,,,,,,,,,57,001,21,w,Psychologie,2023-01-24_09h11.31.047,00_bat_bachelor,2022.2.4,59.91129452473678,
,,,,,,,,,,,,0,0,0,0,4,0,4,0,,,,,,,4,,,1,1496.8656559602182,Y,d,go,None,0,,,,,,,,,,,,,,,,,57,001,21,w,Psychologie,2023-01-24_09h11.31.047,00_bat_bachelor,2022.2.4,59.91129452473678,
,,,,,,,,,,,,0,0,0,0,5,0,5,0,,,,,,,5,,,1,1498.6672422557017,X,l,go,l,1,0.6106175210042011,,,,,,,,,,,,,,,,57,001,21,w,Psychologie,2023-01-24_09h11.31.047,00_bat_bachelor,2022.2.4,59.91129452473678,
,,,,,,,,,,,,0,0,0,0,6,0,6,0,,,,,,,6,,,1,1500.3856836278765,X,None,nogo,None,1,,,,,,,,,,,,,,,,,57,001,21,w,Psychologie,2023-01-24_09h11.31.047,00_bat_bachelor,2022.2.4,59.91129452473678,
,,,,,,,,,,,,0,0,0,0,7,0,7,0,,,,,,,7,,,1,1502.187551769167,Y,d,go,d,1,0.40253490531074476,,,,,,,,,,,,,,,,57,001,21,w,Psychologie,2023-01-24_09h11.31.047,00_bat_bachelor,2022.2.4,59.91129452473678,
,,,,,,,,,,,,0,0,0,0,8,0,8,0,,,,,,,8,,,1,1503.705734105763,X,l,go,l,1,0.5485942127251064,,,,,,,,,,,,,,,,57,001,21,w,Psychologie,2023-01-24_09h11.31.047,00_bat_bachelor,2022.2.4,59.91129452473678,
,,,,,,,,,,,,0,0,0,0,9,0,9,0,,,,,,,9,,,1,1505.3574174062555,Y,d,go,d,1,0.5762446402321757,,,,,,,,,,,,,,,,57,001,21,w,Psychologie,2023-01-24_09h11.31.047,00_bat_bachelor,2022.2.4,59.91129452473678,
,,,,,,,,,,,,0,0,0,0,10,0,10,0,,,,,,,10,,,1,1507.0423663068314,X,l,go,l,1,0.4995682217826243,,,,,,,,,,,,,,,,57,001,21,w,Psychologie,2023-01-24_09h11.31.047,00_bat_bachelor,2022.2.4,59.91129452473678,
,,,,,,,,,,,,0,0,0,0,11,0,11,0,,,,,,,11,,,1,1508.6438695665197,Y,d,go,d,1,0.5691562387002023,,,,,,,,,,,,,,,,57,001,21,w,Psychologie,2023-01-24_09h11.31.047,00_bat_bachelor,2022.2.4,59.91129452473678,
,,,,,,,,,,,,0,0,0,0,12,0,12,0,,,,,,,12,,,1,1510.3291987743196,X,l,go,None,0,,,,,,,,,,,,,,,,,57,001,21,w,Psychologie,2023-01-24_09h11.31.047,00_bat_bachelor,2022.2.4,59.91129452473678,
,,,,,,,,,,,,0,0,0,0,13,0,13,0,,,,,,,13,,,1,1512.1308146082283,Y,d,go,d,1,0.5308026448786904,,,,,,,,,,,,,,,,57,001,21,w,Psychologie,2023-01-24_09h11.31.047,00_bat_bachelor,2022.2.4,59.91129452473678,
,,,,,,,,,,,,0,0,0,0,14,0,14,0,,,,,,,14,,,1,1513.7654050066808,Y,None,nogo,None,1,,,,,,,,,,,,,,,,,57,001,21,w,Psychologie,2023-01-24_09h11.31.047,00_bat_bachelor,2022.2.4,59.91129452473678,
,,,,,,,,,,,,0,0,0,0,15,0,15,0,,,,,,,15,,,1,1515.5675828911799,Y,None,nogo,None,1,,,,,,,,,,,,,,,,,57,001,21,w,Psychologie,2023-01-24_09h11.31.047,00_bat_bachelor,2022.2.4,59.91129452473678,
,,,,,,,,,,,,0,0,0,0,16,0,16,0,,,,,,,16,,,1,1517.3693304172343,X,l,go,l,1,0.3324061711103923,,,,,,,,,,,,,,,,57,001,21,w,Psychologie,2023-01-24_09h11.31.047,00_bat_bachelor,2022.2.4,59.91129452473678,
,,,,,,,,,,,,0,0,0,0,17,0,17,0,,,,,,,17,,,1,1518.8040900872738,Y,d,go,d,1,0.4905216688142673,,,,,,,,,,,,,,,,57,001,21,w,Psychologie,2023-01-24_09h11.31.047,00_bat_bachelor,2022.2.4,59.91129452473678,
,,,,,,,,,,,,0,0,0,0,18,0,18,0,,,,,,,18,,,1,1520.4056688340488,Y,None,nogo,None,1,,,,,,,,,,,,,,,,,57,001,21,w,Psychologie,2023-01-24_09h11.31.047,00_bat_bachelor,2022.2.4,59.91129452473678,
,,,,,,,,,,,,0,0,0,0,19,0,19,0,,,,,,,19,,,1,1522.2076243598472,X,l,go,l,1,0.3662342320400285,,,,,,,,,,,,,,,,57,001,21,w,Psychologie,2023-01-24_09h11.31.047,00_bat_bachelor,2022.2.4,59.91129452473678,
,,,,,,,,,,,,0,0,0,0,20,0,20,0,,,,,,,20,,,1,1523.6756020402845,Y,d,go,d,1,0.4424273690327709,,,,,,,,,,,,,,,,57,001,21,w,Psychologie,2023-01-24_09h11.31.047,00_bat_bachelor,2022.2.4,59.91129452473678,
,,,,,,,,,,,,0,0,0,0,21,0,21,0,,,,,,,21,,,1,1525.2270458744051,X,l,go,l,1,0.4502066415096806,,,,,,,,,,,,,,,,57,001,21,w,Psychologie,2023-01-24_09h11.31.047,00_bat_bachelor,2022.2.4,59.91129452473678,
,,,,,,,,,,,,0,0,0,0,22,0,22,0,,,,,,,22,,,1,1526.7786460160255,X,None,nogo,None,1,,,,,,,,,,,,,,,,,57,001,21,w,Psychologie,2023-01-24_09h11.31.047,00_bat_bachelor,2022.2.4,59.91129452473678,
,,,,,,,,,,,,0,0,0,0,23,0,23,0,,,,,,,23,,,1,1528.5806499520204,Y,d,go,d,1,0.5051275995557489,,,,,,,,,,,,,,,,57,001,21,w,Psychologie,2023-01-24_09h11.31.047,00_bat_bachelor,2022.2.4,59.91129452473678,
,,,,,,,,,,,,0,0,0,0,24,0,24,0,,,,,,,24,,,1,1530.1988703193392,X,l,go,l,1,0.527214136474754,,,,,,,,,,,,,,,,57,001,21,w,Psychologie,2023-01-24_09h11.31.047,00_bat_bachelor,2022.2.4,59.91129452473678,
,,,,,,,,,,,,0,0,0,0,25,0,25,0,,,,,,,25,,,1,1531.8340637939727,X,None,nogo,None,1,,,,,,,,,,,,,,,,,57,001,21,w,Psychologie,2023-01-24_09h11.31.047,00_bat_bachelor,2022.2.4,59.91129452473678,
,,,,,,,,,,,,0,0,0,0,26,0,26,0,,,,,,,26,,,1,1533.6356964483734,Y,d,go,d,1,0.40221900826361434,,,,,,,,,,,,,,,,57,001,21,w,Psychologie,2023-01-24_09h11.31.047,00_bat_bachelor,2022.2.4,59.91129452473678,
,,,,,,,,,,,,0,0,0,0,27,0,27,0,,,,,,,27,,,1,1535.1539222720958,X,l,go,None,0,,,,,,,,,,,,,,,,,57,001,21,w,Psychologie,2023-01-24_09h11.31.047,00_bat_bachelor,2022.2.4,59.91129452473678,
,,,,,,,,,,,,0,0,0,0,28,0,28,0,,,,,,,28,,,1,1536.955660362264,Y,d,go,d,1,0.6345522607767862,,,,,,,,,,,,,,,,57,001,21,w,Psychologie,2023-01-24_09h11.31.047,00_bat_bachelor,2022.2.4,59.91129452473678,
,,,,,,,,,,,,0,0,0,0,29,0,29,0,,,,,,,29,,,1,1538.7071761552702,X,l,go,None,0,,,,,,,,,,,,,,,,,57,001,21,w,Psychologie,2023-01-24_09h11.31.047,00_bat_bachelor,2022.2.4,59.91129452473678,
,,,,,,,,,,,,0,0,0,0,30,0,30,0,,,,,,,30,,,1,1540.50921168097,Y,d,go,d,1,0.5686097778340127,,,,,,,,,,,,,,,,57,001,21,w,Psychologie,2023-01-24_09h11.31.047,00_bat_bachelor,2022.2.4,59.91129452473678,
,,,,,,,,,,,,0,0,0,0,31,0,31,0,,,,,,,31,,,1,1542.194039145798,Y,None,nogo,None,1,,,,,,,,,,,,,,,,,57,001,21,w,Psychologie,2023-01-24_09h11.31.047,00_bat_bachelor,2022.2.4,59.91129452473678,
,,,,,,,,,,,,0,0,0,0,32,0,32,0,,,,,,,32,,,1,1543.9958256461632,Y,None,nogo,None,1,,,,,,,,,,,,,,,,,57,001,21,w,Psychologie,2023-01-24_09h11.31.047,00_bat_bachelor,2022.2.4,59.91129452473678,
,,,,,,,,,,,,0,0,0,0,33,0,33,0,,,,,,,33,,,1,1545.7977668130047,X,l,go,l,1,0.48835100481926474,,,,,,,,,,,,,,,,57,001,21,w,Psychologie,2023-01-24_09h11.31.047,00_bat_bachelor,2022.2.4,59.91129452473678,
,,,,,,,,,,,,0,0,0,0,34,0,34,0,,,,,,,34,,,1,1547.3993508931067,Y,d,go,d,1,0.6470859889403755,,,,,,,,,,,,,,,,57,001,21,w,Psychologie,2023-01-24_09h11.31.047,00_bat_bachelor,2022.2.4,59.91129452473678,
,,,,,,,,,,,,0,0,0,0,35,0,35,0,,,,,,,35,,,1,1549.151077557648,X,l,go,l,1,0.43878224531397336,,,,,,,,,,,,,,,,57,001,21,w,Psychologie,2023-01-24_09h11.31.047,00_bat_bachelor,2022.2.4,59.91129452473678,
,,,,,,,,,,,,0,0,0,0,36,0,36,0,,,,,,,36,,,1,1550.702641596749,Y,d,go,d,1,0.3341809381566918,,,,,,,,,,,,,,,,57,001,21,w,Psychologie,2023-01-24_09h11.31.047,00_bat_bachelor,2022.2.4,59.91129452473678,
,,,,,,,,,,,,0,0,0,0,37,0,37,0,,,,,,,37,,,1,1552.154011707883,X,l,go,l,1,0.4116803299522189,,,,,,,,,,,,,,,,57,001,21,w,Psychologie,2023-01-24_09h11.31.047,00_bat_bachelor,2022.2.4,59.91129452473678,
,,,,,,,,,,,,0,0,0,0,38,0,38,0,,,,,,,38,,,1,1553.6722957879438,Y,d,go,d,1,0.38947194702939214,,,,,,,,,,,,,,,,57,001,21,w,Psychologie,2023-01-24_09h11.31.047,00_bat_bachelor,2022.2.4,59.91129452473678,
,,,,,,,,,,,,0,0,0,0,39,0,39,0,,,,,,,39,,,1,1555.1739554782084,X,l,go,l,1,0.34450297673458863,,,,,,,,,,,,,,,,57,001,21,w,Psychologie,2023-01-24_09h11.31.047,00_bat_bachelor,2022.2.4,59.91129452473678,
,,,,,,,,,,,,0,0,0,0,40,0,40,0,,,,,,,40,,,1,1556.6252968714293,Y,d,go,d,1,0.3485825614574196,,,,,,,,,,,,,,,,57,001,21,w,Psychologie,2023-01-24_09h11.31.047,00_bat_bachelor,2022.2.4,59.91129452473678,
,,,,,,,,,,,,0,0,0,0,41,0,41,0,,,,,,,41,,,1,1558.0766612389812,Y,None,nogo,None,1,,,,,,,,,,,,,,,,,57,001,21,w,Psychologie,2023-01-24_09h11.31.047,00_bat_bachelor,2022.2.4,59.91129452473678,
,,,,,,,,,,,,0,0,0,0,42,0,42,0,,,,,,,42,,,1,1559.8784899957045,X,l,go,l,1,0.46280847215382437,,,,,,,,,,,,,,,,57,001,21,w,Psychologie,2023-01-24_09h11.31.047,00_bat_bachelor,2022.2.4,59.91129452473678,
,,,,,,,,,,,,0,0,0,0,43,0,43,0,,,,,,,43,,,1,1561.4466021170024,Y,d,go,d,1,0.5112756945530919,,,,,,,,,,,,,,,,57,001,21,w,Psychologie,2023-01-24_09h11.31.047,00_bat_bachelor,2022.2.4,59.91129452473678,
,,,,,,,,,,,,0,0,0,0,44,0,44,0,,,,,,,44,,,1,1563.0649886379629,X,l,go,l,1,0.4526365872371798,,,,,,,,,,,,,,,,57,001,21,w,Psychologie,2023-01-24_09h11.31.047,00_bat_bachelor,2022.2.4,59.91129452473678,
,,,,,,,,,,,,0,0,0,0,45,0,45,0,,,,,,,45,,,1,1564.633142605363,Y,d,go,d,1,0.3727917624306656,,,,,,,,,,,,,,,,57,001,21,w,Psychologie,2023-01-24_09h11.31.047,00_bat_bachelor,2022.2.4,59.91129452473678,
,,,,,,,,,,,,0,0,0,0,46,0,46,0,,,,,,,46,,,1,1566.1179863163247,Y,None,nogo,None,1,,,,,,,,,,,,,,,,,57,001,21,w,Psychologie,2023-01-24_09h11.31.047,00_bat_bachelor,2022.2.4,59.91129452473678,
,,,,,,,,,,,,0,0,0,0,47,0,47,0,,,,,,,47,,,1,1567.919793329485,X,l,go,l,1,0.5180728143924398,,,,,,,,,,,,,,,,57,001,21,w,Psychologie,2023-01-24_09h11.31.047,00_bat_bachelor,2022.2.4,59.91129452473678,
,,,,,,,,,,,,0,0,0,0,48,0,48,0,,,,,,,48,,,1,1569.554925265733,Y,d,go,d,1,0.4742250734869913,,,,,,,,,,,,,,,,57,001,21,w,Psychologie,2023-01-24_09h11.31.047,00_bat_bachelor,2022.2.4,59.91129452473678,
,,,,,,,,,,,,0,0,0,0,49,0,49,0,,,,,,,49,,,1,1571.1400043405074,Y,None,nogo,None,1,,,,,,,,,,,,,,,,,57,001,21,w,Psychologie,2023-01-24_09h11.31.047,00_bat_bachelor,2022.2.4,59.91129452473678,
,,,,,,,,,,,,0,0,0,0,50,0,50,0,,,,,,,50,,,1,1572.9415344309318,Y,None,nogo,None,1,,,,,,,,,,,,,,,,,57,001,21,w,Psychologie,2023-01-24_09h11.31.047,00_bat_bachelor,2022.2.4,59.91129452473678,
,,,,,,,,,,,,0,0,0,0,51,0,51,0,,,,,,,51,,,1,1574.7432950851753,X,l,go,l,1,0.3736758639066693,,,,,,,,,,,,,,,,57,001,21,w,Psychologie,2023-01-24_09h11.31.047,00_bat_bachelor,2022.2.4,59.91129452473678,
,,,,,,,,,,,,0,0,0,0,52,0,52,0,,,,,,,52,,,1,1576.228042796255,Y,d,go,d,1,0.6253563746589634,,,,,,,,,,,,,,,,57,001,21,w,Psychologie,2023-01-24_09h11.31.047,00_bat_bachelor,2022.2.4,59.91129452473678,
,,,,,,,,,,,,0,0,0,0,53,0,53,0,,,,,,,53,,,1,1577.9632427119063,Y,None,nogo,None,1,,,,,,,,,,,,,,,,,57,001,21,w,Psychologie,2023-01-24_09h11.31.047,00_bat_bachelor,2022.2.4,59.91129452473678,
,,,,,,,,,,,,0,0,0,0,54,0,54,0,,,,,,,54,,,1,1579.7650509558348,X,l,go,l,1,0.4000200366114086,,,,,,,,,,,,,,,,57,001,21,w,Psychologie,2023-01-24_09h11.31.047,00_bat_bachelor,2022.2.4,59.91129452473678,
,,,,,,,,,,,,0,0,0,0,55,0,55,0,,,,,,,55,,,1,1581.2665067489147,Y,d,go,d,1,0.4751300980143469,,,,,,,,,,,,,,,,57,001,21,w,Psychologie,2023-01-24_09h11.31.047,00_bat_bachelor,2022.2.4,59.91129452473678,
,,,,,,,,,,,,0,0,0,0,56,0,56,0,,,,,,,56,,,1,1582.8514496187286,Y,None,nogo,None,1,,,,,,,,,,,,,,,,,57,001,21,w,Psychologie,2023-01-24_09h11.31.047,00_bat_bachelor,2022.2.4,59.91129452473678,
,,,,,,,,,,,,0,0,0,0,57,0,57,0,,,,,,,57,,,1,1584.6530908885034,X,l,go,l,1,0.5042857544377739,,,,,,,,,,,,,,,,57,001,21,w,Psychologie,2023-01-24_09h11.31.047,00_bat_bachelor,2022.2.4,59.91129452473678,
,,,,,,,,,,,,0,0,0,0,58,0,58,0,,,,,,,58,,,1,1586.2717288963336,Y,d,go,d,1,0.37435401691834613,,,,,,,,,,,,,,,,57,001,21,w,Psychologie,2023-01-24_09h11.31.047,00_bat_bachelor,2022.2.4,59.91129452473678,
,,,,,,,,,,,,0,0,0,0,59,0,59,0,,,,,,,59,,,1,1587.756440094638,X,l,go,None,0,,,,,,,,,,,,,,,,,57,001,21,w,Psychologie,2023-01-24_09h11.31.047,00_bat_bachelor,2022.2.4,59.91129452473678,
,,,,,,,,,,,,0,0,0,0,60,0,60,0,,,,,,,60,,,1,1589.5579882363222,X,None,nogo,None,1,,,,,,,,,,,,,,,,,57,001,21,w,Psychologie,2023-01-24_09h11.31.047,00_bat_bachelor,2022.2.4,59.91129452473678,
,,,,,,,,,,,,0,0,0,0,61,0,61,0,,,,,,,61,,,1,1591.359846121215,Y,d,go,d,1,0.557759739906146,,,,,,,,,,,,,,,,57,001,21,w,Psychologie,2023-01-24_09h11.31.047,00_bat_bachelor,2022.2.4,59.91129452473678,
,,,,,,,,,,,,0,0,0,0,62,0,62,0,,,,,,,62,,,1,1593.0283412984518,X,l,go,l,1,0.36166644279012417,,,,,,,,,,,,,,,,57,001,21,w,Psychologie,2023-01-24_09h11.31.047,00_bat_bachelor,2022.2.4,59.91129452473678,
,,,,,,,,,,,,0,0,0,0,63,0,63,0,,,,,,,63,,,1,1594.4961786713698,X,None,nogo,None,1,,,,,,,,,,,,,,,,,57,001,21,w,Psychologie,2023-01-24_09h11.31.047,00_bat_bachelor,2022.2.4,59.91129452473678,
,,,,,,,,,,,,0,0,0,0,64,0,64,0,,,,,,,64,,,1,1596.298265479058,Y,d,go,d,1,0.37183832770654135,,,,,,,,,,,,,,,,57,001,21,w,Psychologie,2023-01-24_09h11.31.047,00_bat_bachelor,2022.2.4,59.91129452473678,
,,,,,,,,,,,,0,0,0,0,65,0,65,0,,,,,,,65,,,1,1597.7830431388188,X,l,go,l,1,0.4949840222967623,,,,,,,,,,,,,,,,57,001,21,w,Psychologie,2023-01-24_09h11.31.047,00_bat_bachelor,2022.2.4,59.91129452473678,
,,,,,,,,,,,,0,0,0,0,66,0,66,0,,,,,,,66,,,1,1599.384536962621,Y,d,go,d,1,0.5092728252230927,,,,,,,,,,,,,,,,57,001,21,w,Psychologie,2023-01-24_09h11.31.047,00_bat_bachelor,2022.2.4,59.91129452473678,
,,,,,,,,,,,,0,0,0,0,67,0,67,0,,,,,,,67,,,1,1601.0030818423606,X,l,go,l,1,0.2741038838927352,,,,,,,,,,,,,,,,57,001,21,w,Psychologie,2023-01-24_09h11.31.047,00_bat_bachelor,2022.2.4,59.91129452473678,
,,,,,,,,,,,,0,0,0,0,68,0,68,0,,,,,,,68,,,1,1602.387609369096,X,None,nogo,None,1,,,,,,,,,,,,,,,,,57,001,21,w,Psychologie,2023-01-24_09h11.31.047,00_bat_bachelor,2022.2.4,59.91129452473678,
,,,,,,,,,,,,0,0,0,0,69,0,69,0,,,,,,,69,,,1,1604.1893536131033,Y,d,go,d,1,0.3763864246728872,,,,,,,,,,,,,,,,57,001,21,w,Psychologie,2023-01-24_09h11.31.047,00_bat_bachelor,2022.2.4,59.91129452473678,
,,,,,,,,,,,,0,0,0,0,70,0,70,0,,,,,,,70,,,1,1605.6741325036319,X,l,go,l,1,0.4514886912139673,,,,,,,,,,,,,,,,57,001,21,w,Psychologie,2023-01-24_09h11.31.047,00_bat_bachelor,2022.2.4,59.91129452473678,
,,,,,,,,,,,,0,0,0,0,71,0,71,0,,,,,,,71,,,1,1607.242451804162,Y,d,go,d,1,0.44317321426899525,,,,,,,,,,,,,,,,57,001,21,w,Psychologie,2023-01-24_09h11.31.047,00_bat_bachelor,2022.2.4,59.91129452473678,
,,,,,,,,,,,,0,0,0,0,72,0,72,0,,,,,,,72,,,1,1608.7941032277704,X,l,go,l,1,0.3239081302875775,,,,,,,,,,,,,,,,57,001,21,w,Psychologie,2023-01-24_09h11.31.047,00_bat_bachelor,2022.2.4,59.91129452473678,
,,,,,,,,,,,,0,0,0,0,73,0,73,0,,,,,,,73,,,1,1610.2288542824358,X,None,nogo,None,1,,,,,,,,,,,,,,,,,57,001,21,w,Psychologie,2023-01-24_09h11.31.047,00_bat_bachelor,2022.2.4,59.91129452473678,
,,,,,,,,,,,,0,0,0,0,74,0,74,0,,,,,,,74,,,1,1612.0305903213248,Y,d,go,d,1,0.2869625347331066,,,,,,,,,,,,,,,,57,001,21,w,Psychologie,2023-01-24_09h11.31.047,00_bat_bachelor,2022.2.4,59.91129452473678,
,,,,,,,,,,,,0,0,0,0,75,0,75,0,,,,,,,75,,,1,1613.4319412119698,X,l,go,l,1,0.29348806516338755,,,,,,,,,,,,,,,,57,001,21,w,Psychologie,2023-01-24_09h11.31.047,00_bat_bachelor,2022.2.4,59.91129452473678,
,,,,,,,,,,,,0,0,0,0,76,0,76,0,,,,,,,76,,,1,1614.8331136412962,Y,d,go,d,1,0.4034522375151255,,,,,,,,,,,,,,,,57,001,21,w,Psychologie,2023-01-24_09h11.31.047,00_bat_bachelor,2022.2.4,59.91129452473678,
,,,,,,,,,,,,0,0,0,0,77,0,77,0,,,,,,,77,,,1,1616.3513197727348,Y,None,nogo,None,1,,,,,,,,,,,,,,,,,57,001,21,w,Psychologie,2023-01-24_09h11.31.047,00_bat_bachelor,2022.2.4,59.91129452473678,
,,,,,,,,,,,,0,0,0,0,78,0,78,0,,,,,,,78,,,1,1618.1532170421942,X,l,go,l,1,0.40441674914848136,,,,,,,,,,,,,,,,57,001,21,w,Psychologie,2023-01-24_09h11.31.047,00_bat_bachelor,2022.2.4,59.91129452473678,
,,,,,,,,,,,,0,0,0,0,79,0,79,0,,,,,,,79,,,1,1619.671627070818,Y,d,go,d,1,0.49461397146967556,,,,,,,,,,,,,,,,57,001,21,w,Psychologie,2023-01-24_09h11.31.047,00_bat_bachelor,2022.2.4,59.91129452473678,
,,,,,,,,,,,,0,0,0,0,80,0,80,0,,,,,,,80,,,1,1621.2732345355062,X,l,go,l,1,0.4363047099021742,,,,,,,,,,,,,,,,57,001,21,w,Psychologie,2023-01-24_09h11.31.047,00_bat_bachelor,2022.2.4,59.91129452473678,
,,,,,,,,,,,,0,0,0,0,81,0,81,0,,,,,,,81,,,1,1622.8247050362606,Y,d,go,d,1,0.4848909065138969,,,,,,,,,,,,,,,,57,001,21,w,Psychologie,2023-01-24_09h11.31.047,00_bat_bachelor,2022.2.4,59.91129452473678,
,,,,,,,,,,,,0,0,0,0,82,0,82,0,,,,,,,82,,,1,1624.4260766038033,Y,None,nogo,None,1,,,,,,,,,,,,,,,,,57,001,21,w,Psychologie,2023-01-24_09h11.31.047,00_bat_bachelor,2022.2.4,59.91129452473678,
,,,,,,,,,,,,0,0,0,0,83,0,83,0,,,,,,,83,,,1,1626.2281137705268,X,l,go,l,1,0.29008088986995517,,,,,,,,,,,,,,,,57,001,21,w,Psychologie,2023-01-24_09h11.31.047,00_bat_bachelor,2022.2.4,59.91129452473678,
,,,,,,,,,,,,0,0,0,0,84,0,84,0,,,,,,,84,,,1,1627.6293399433766,Y,d,go,d,1,0.5927443122326395,,,,,,,,,,,,,,,,57,001,21,w,Psychologie,2023-01-24_09h11.31.047,00_bat_bachelor,2022.2.4,59.91129452473678,
,,,,,,,,,,,,0,0,0,0,85,0,85,0,,,,,,,85,,,1,1629.3310572335704,Y,None,nogo,None,1,,,,,,,,,,,,,,,,,57,001,21,w,Psychologie,2023-01-24_09h11.31.047,00_bat_bachelor,2022.2.4,59.91129452473678,
,,,,,,,,,,,,0,0,0,0,86,0,86,0,,,,,,,86,,,1,1631.1330706054514,X,l,go,l,1,0.3369932423878481,,,,,,,,,,,,,,,,57,001,21,w,Psychologie,2023-01-24_09h11.31.047,00_bat_bachelor,2022.2.4,59.91129452473678,
,,,,,,,,,,,,0,0,0,0,87,0,87,0,,,,,,,87,,,1,1632.584349229519,Y,d,go,d,1,0.5253786515544334,,,,,,,,,,,,,,,,57,001,21,w,Psychologie,2023-01-24_09h11.31.047,00_bat_bachelor,2022.2.4,59.91129452473678,
,,,,,,,,,,,,0,0,0,0,88,0,88,0,,,,,,,88,,,1,1634.2194618837393,X,l,go,l,1,0.47431286825064944,,,,,,,,,,,,,,,,57,001,21,w,Psychologie,2023-01-24_09h11.31.047,00_bat_bachelor,2022.2.4,59.91129452473678,
,,,,,,,,,,,,0,0,0,0,89,0,89,0,,,,,,,89,,,1,1635.804310804951,Y,d,go,d,1,0.5053893428233778,,,,,,,,,,,,,,,,57,001,21,w,Psychologie,2023-01-24_09h11.31.047,00_bat_bachelor,2022.2.4,59.91129452473678,
,,,,,,,,,,,,0,0,0,0,90,0,90,0,,,,,,,90,,,1,1637.4225422491786,Y,None,nogo,None,1,,,,,,,,,,,,,,,,,57,001,21,w,Psychologie,2023-01-24_09h11.31.047,00_bat_bachelor,2022.2.4,59.91129452473678,
,,,,,,,,,,,,0,0,0,0,91,0,91,0,,,,,,,91,,,1,1639.2244760314143,X,l,go,l,1,0.41354781483357783,,,,,,,,,,,,,,,,57,001,21,w,Psychologie,2023-01-24_09h11.31.047,00_bat_bachelor,2022.2.4,59.91129452473678,
,,,,,,,,,,,,0,0,0,0,92,0,92,0,,,,,,,92,,,1,1640.7425459578922,Y,d,go,d,1,0.3831798522093095,,,,,,,,,,,,,,,,57,001,21,w,Psychologie,2023-01-24_09h11.31.047,00_bat_bachelor,2022.2.4,59.91129452473678,
,,,,,,,,,,,,0,0,0,0,93,0,93,0,,,,,,,93,,,1,1642.2274257713734,X,l,go,l,1,0.38576856697216044,,,,,,,,,,,,,,,,57,001,21,w,Psychologie,2023-01-24_09h11.31.047,00_bat_bachelor,2022.2.4,59.91129452473678,
,,,,,,,,,,,,0,0,0,0,94,0,94,0,,,,,,,94,,,1,1643.728856538843,Y,d,go,d,1,0.4203863705193953,,,,,,,,,,,,,,,,57,001,21,w,Psychologie,2023-01-24_09h11.31.047,00_bat_bachelor,2022.2.4,59.91129452473678,
,,,,,,,,,,,,0,0,0,0,95,0,95,0,,,,,,,95,,,1,1645.2634794705896,Y,None,nogo,None,1,,,,,,,,,,,,,,,,,57,001,21,w,Psychologie,2023-01-24_09h11.31.047,00_bat_bachelor,2022.2.4,59.91129452473678,
,,,,,,,,,,,,0,0,0,0,96,0,96,0,,,,,,,96,,,1,1647.0658050472143,X,l,go,l,1,0.5083349802238217,,,,,,,,,,,,,,,,57,001,21,w,Psychologie,2023-01-24_09h11.31.047,00_bat_bachelor,2022.2.4,59.91129452473678,
,,,,,,,,,,,,0,0,0,0,97,0,97,0,,,,,,,97,,,1,1648.6838289019543,Y,d,go,d,1,0.5376416108205149,,,,,,,,,,,,,,,,57,001,21,w,Psychologie,2023-01-24_09h11.31.047,00_bat_bachelor,2022.2.4,59.91129452473678,
,,,,,,,,,,,,0,0,0,0,98,0,98,0,,,,,,,98,,,1,1650.3356188689818,Y,None,nogo,None,1,,,,,,,,,,,,,,,,,57,001,21,w,Psychologie,2023-01-24_09h11.31.047,00_bat_bachelor,2022.2.4,59.91129452473678,
,,,,,,,,,,,,0,0,0,0,99,0,99,0,,,,,,,99,,,1,1652.1374546000557,X,l,go,l,1,0.2765120860568686,,,,,,,,,,,,,,,,57,001,21,w,Psychologie,2023-01-24_09h11.31.047,00_bat_bachelor,2022.2.4,59.91129452473678,
,,,,,,,,,,,,0,0,0,0,100,0,100,0,,,,,,,100,,,1,1653.5220301267323,Y,d,go,d,1,0.340140725693459,,,,,,,,,,,,,,,,57,001,21,w,Psychologie,2023-01-24_09h11.31.047,00_bat_bachelor,2022.2.4,59.91129452473678,
,,,,,,,,,,,,0,0,0,0,101,0,101,0,,,,,,,101,,,1,1654.973545468457,X,l,go,l,1,0.41573078650583284,,,,,,,,,,,,,,,,57,001,21,w,Psychologie,2023-01-24_09h11.31.047,00_bat_bachelor,2022.2.4,59.91129452473678,
,,,,,,,,,,,,0,0,0,0,102,0,102,0,,,,,,,102,,,1,1656.491800830604,Y,d,go,d,1,0.4179486299298105,,,,,,,,,,,,,,,,57,001,21,w,Psychologie,2023-01-24_09h11.31.047,00_bat_bachelor,2022.2.4,59.91129452473678,
,,,,,,,,,,,,0,0,0,0,103,0,103,0,,,,,,,103,,,1,1658.0266309415824,X,l,go,l,1,0.2824402838888318,,,,,,,,,,,,,,,,57,001,21,w,Psychologie,2023-01-24_09h11.31.047,00_bat_bachelor,2022.2.4,59.91129452473678,
,,,,,,,,,,,,0,0,0,0,104,0,104,0,,,,,,,104,,,1,1659.4111576478058,Y,d,go,d,1,0.3855449775036277,,,,,,,,,,,,,,,,57,001,21,w,Psychologie,2023-01-24_09h11.31.047,00_bat_bachelor,2022.2.4,59.91129452473678,
,,,,,,,,,,,,0,0,0,0,105,0,105,0,,,,,,,105,,,1,1660.9126396972638,Y,None,nogo,None,1,,,,,,,,,,,,,,,,,57,001,21,w,Psychologie,2023-01-24_09h11.31.047,00_bat_bachelor,2022.2.4,59.91129452473678,
,,,,,,,,,,,,0,0,0,0,106,0,106,0,,,,,,,106,,,1,1662.7144089668814,X,l,go,l,1,0.3064546133074373,,,,,,,,,,,,,,,,57,001,21,w,Psychologie,2023-01-24_09h11.31.047,00_bat_bachelor,2022.2.4,59.91129452473678,
,,,,,,,,,,,,0,0,0,0,107,0,107,0,,,,,,,107,,,1,1664.132506093326,Y,d,go,d,1,0.5363382278095514,,,,,,,,,,,,,,,,57,001,21,w,Psychologie,2023-01-24_09h11.31.047,00_bat_bachelor,2022.2.4,59.91129452473678,
,,,,,,,,,,,,0,0,0,0,108,0,108,0,,,,,,,108,,,1,1665.784316162893,Y,None,nogo,None,1,,,,,,,,,1666.585103690129,,,,,,,,57,001,21,w,Psychologie,2023-01-24_09h11.31.047,00_bat_bachelor,2022.2.4,59.91129452473678,
,,,,,,,,,,,,0,0,0,0,109,0,109,0,,,,,,,109,,,1,1667.5859713813684,X,l,go,l,1,0.29972600620374124,,,,,,,,,,,,,,,,57,001,21,w,Psychologie,2023-01-24_09h11.31.047,00_bat_bachelor,2022.2.4,59.91129452473678,
,,,,,,,,,,,,0,0,0,0,110,0,110,0,,,,,,,110,,,1,1668.9872783746318,Y,d,go,d,1,0.4095679222958779,,,,,,,,,,,,,,,,57,001,21,w,Psychologie,2023-01-24_09h11.31.047,00_bat_bachelor,2022.2.4,59.91129452473678,
,,,,,,,,,,,,0,0,0,0,111,0,111,0,,,,,,,111,,,1,1670.5055649162277,Y,None,nogo,None,1,,,,,,,,,,,,,,,,,57,001,21,w,Psychologie,2023-01-24_09h11.31.047,00_bat_bachelor,2022.2.4,59.91129452473678,
,,,,,,,,,,,,0,0,0,0,112,0,112,0,,,,,,,112,,,1,1672.3074486472428,X,l,go,l,1,0.2742716785577386,,,,,,,,,,,,,,,,57,001,21,w,Psychologie,2023-01-24_09h11.31.047,00_bat_bachelor,2022.2.4,59.91129452473678,
,,,,,,,,,,,,0,0,0,0,113,0,113,0,,,,,,,113,,,1,1673.6920520713206,Y,d,go,d,1,0.3051717430911367,,,,,,,,,,,,,,,,57,001,21,w,Psychologie,2023-01-24_09h11.31.047,00_bat_bachelor,2022.2.4,59.91129452473678,
,,,,,,,,,,,,0,0,0,0,114,0,114,0,,,,,,,114,,,1,1675.1100876593791,X,l,go,None,0,,,,,,,,,,,,,,,,,57,001,21,w,Psychologie,2023-01-24_09h11.31.047,00_bat_bachelor,2022.2.4,59.91129452473678,
,,,,,,,,,,,,0,0,0,0,115,0,115,0,,,,,,,115,,,1,1676.9120993902366,X,None,nogo,l,0,0.5570737920323836,,,,,,,,,,,,,,,,57,001,21,w,Psychologie,2023-01-24_09h11.31.047,00_bat_bachelor,2022.2.4,59.91129452473678,
,,,,,,,,,,,,0,0,0,0,116,0,116,0,,,,,,,116,,,1,1678.5802511832808,X,None,nogo,None,1,,,,,,,,,,,,,,,,,57,001,21,w,Psychologie,2023-01-24_09h11.31.047,00_bat_bachelor,2022.2.4,59.91129452473678,
,,,,,,,,,,,,0,0,0,0,117,0,117,0,,,,,,,117,,,1,1680.3822292731538,Y,d,go,d,1,0.390927124725863,,,,,,,,,,,,,,,,57,001,21,w,Psychologie,2023-01-24_09h11.31.047,00_bat_bachelor,2022.2.4,59.91129452473678,
,,,,,,,,,,,,0,0,0,0,118,0,118,0,,,,,,,118,,,1,1681.8837909122572,X,l,go,l,1,0.6496168576203445,,,,,,,,,,,,,,,,57,001,21,w,Psychologie,2023-01-24_09h11.31.047,00_bat_bachelor,2022.2.4,59.91129452473678,
,,,,,,,,,,,,0,0,0,0,119,0,119,0,,,,,,,119,,,1,1683.6356094741218,Y,d,go,d,1,0.32220720930388325,,,,,,,,,,,,,,,,57,001,21,w,Psychologie,2023-01-24_09h11.31.047,00_bat_bachelor,2022.2.4,59.91129452473678,
,,,,,,,,,,,,0,0,0,0,120,0,120,0,,,,,,,120,,,1,1685.070169759791,Y,None,nogo,l,0,0.3429349786648572,,,,,,,,,,,,,,,,57,001,21,w,Psychologie,2023-01-24_09h11.31.047,00_bat_bachelor,2022.2.4,59.91129452473678,
,,,,,,,,,,,,0,0,0,0,121,0,121,0,,,,,,,121,,,1,1686.5215546401378,X,l,go,None,0,,,,,,,,,,,,,,,,,57,001,21,w,Psychologie,2023-01-24_09h11.31.047,00_bat_bachelor,2022.2.4,59.91129452473678,
,,,,,,,,,,,,0,0,0,0,122,0,122,0,,,,,,,122,,,1,1688.3235019608182,Y,d,go,None,0,,,,,,,,,,,,,,,,,57,001,21,w,Psychologie,2023-01-24_09h11.31.047,00_bat_bachelor,2022.2.4,59.91129452473678,
,,,,,,,,,,,,0,0,0,0,123,0,123,0,,,,,,,123,,,1,1690.1253664098053,X,l,go,l,1,0.5358992539908058,,,,,,,,,,,,,,,,57,001,21,w,Psychologie,2023-01-24_09h11.31.047,00_bat_bachelor,2022.2.4,59.91129452473678,
,,,,,,,,,,,,0,0,0,0,124,0,124,0,,,,,,,124,,,1,1691.7768335054357,Y,d,go,d,1,0.44422962322494186,,,,,,,,,,,,,,,,57,001,21,w,Psychologie,2023-01-24_09h11.31.047,00_bat_bachelor,2022.2.4,59.91129452473678,
,,,,,,,,,,,,0,0,0,0,125,0,125,0,,,,,,,125,,,1,1693.328372929182,X,l,go,l,1,0.4928129480459802,,,,,,,,,,,,,,,,57,001,21,w,Psychologie,2023-01-24_09h11.31.047,00_bat_bachelor,2022.2.4,59.91129452473678,
,,,,,,,,,,,,0,0,0,0,126,0,126,0,,,,,,,126,,,1,1694.9298790606617,Y,d,go,d,1,0.3393854445718034,,,,,,,,,,,,,,,,57,001,21,w,Psychologie,2023-01-24_09h11.31.047,00_bat_bachelor,2022.2.4,59.91129452473678,
,,,,,,,,,,,,0,0,0,0,127,0,127,0,,,,,,,127,,,1,1696.3813829152214,Y,None,nogo,None,1,,,,,,,,,,,,,,,,,57,001,21,w,Psychologie,2023-01-24_09h11.31.047,00_bat_bachelor,2022.2.4,59.91129452473678,
,,,,,,,,,,,,0,0,0,0,128,0,128,0,,,,,,,128,,,1,1698.183132082299,X,l,go,l,1,0.5816600181825606,,,,,,,,,,,,,,,,57,001,21,w,Psychologie,2023-01-24_09h11.31.047,00_bat_bachelor,2022.2.4,59.91129452473678,
,,,,,,,,,,,,0,0,0,0,129,0,129,0,,,,,,,129,,,1,1699.8683685722644,Y,d,go,d,1,0.4819358332280217,,,,,,,,,,,,,,,,57,001,21,w,Psychologie,2023-01-24_09h11.31.047,00_bat_bachelor,2022.2.4,59.91129452473678,
,,,,,,,,,,,,0,0,0,0,130,0,130,0,,,,,,,130,,,1,1701.45310590387,X,l,go,l,1,0.3200730580844038,,,,,,,,,,,,,,,,57,001,21,w,Psychologie,2023-01-24_09h11.31.047,00_bat_bachelor,2022.2.4,59.91129452473678,
,,,,,,,,,,,,0,0,0,0,131,0,131,0,,,,,,,131,,,1,1702.8879525481611,Y,d,go,d,1,0.29326406543907524,,,,,,,,,,,,,,,,57,001,21,w,Psychologie,2023-01-24_09h11.31.047,00_bat_bachelor,2022.2.4,59.91129452473678,
,,,,,,,,,,,,0,0,0,0,132,0,132,0,,,,,,,132,,,1,1704.2894072335503,Y,None,nogo,None,1,,,,,,,,,,,,,,,,,57,001,21,w,Psychologie,2023-01-24_09h11.31.047,00_bat_bachelor,2022.2.4,59.91129452473678,
,,,,,,,,,,,,0,0,0,0,133,0,133,0,,,,,,,133,,,1,1706.0911797852145,X,l,go,l,1,0.2664698420063587,,,,,,,,,,,,,,,,57,001,21,w,Psychologie,2023-01-24_09h11.31.047,00_bat_bachelor,2022.2.4,59.91129452473678,
,,,,,,,,,,,,0,0,0,0,134,0,134,0,,,,,,,134,,,1,1707.4590361529813,Y,d,go,d,1,0.49030218190512187,,,,,,,,,,,,,,,,57,001,21,w,Psychologie,2023-01-24_09h11.31.047,00_bat_bachelor,2022.2.4,59.91129452473678,
,,,,,,,,,,,,0,0,0,0,135,0,135,0,,,,,,,135,,,1,1709.060732643201,Y,None,nogo,None,1,,,,,,,,,,,,,,,,,57,001,21,w,Psychologie,2023-01-24_09h11.31.047,00_bat_bachelor,2022.2.4,59.91129452473678,
,,,,,,,,,,,,0,0,0,0,136,0,136,0,,,,,,,136,,,1,1710.862477297464,X,l,go,l,1,0.27923741603638064,,,,,,,,,,,,,,,,57,001,21,w,Psychologie,2023-01-24_09h11.31.047,00_bat_bachelor,2022.2.4,59.91129452473678,
,,,,,,,,,,,,0,0,0,0,137,0,137,0,,,,,,,137,,,1,1712.247386772447,Y,d,go,d,1,0.3980274236793093,,,,,,,,,,,,,,,,57,001,21,w,Psychologie,2023-01-24_09h11.31.047,00_bat_bachelor,2022.2.4,59.91129452473678,
,,,,,,,,,,,,0,0,0,0,138,0,138,0,,,,,,,138,,,1,1713.7487654374172,Y,None,nogo,None,1,,,,,,,,,,,,,,,,,57,001,21,w,Psychologie,2023-01-24_09h11.31.047,00_bat_bachelor,2022.2.4,59.91129452473678,
,,,,,,,,,,,,0,0,0,0,139,0,139,0,,,,,,,139,,,1,1715.55052814294,X,l,go,l,1,0.25432749797676024,,,,,,,,,,,,,,,,57,001,21,w,Psychologie,2023-01-24_09h11.31.047,00_bat_bachelor,2022.2.4,59.91129452473678,
,,,,,,,,,,,,0,0,0,0,140,0,140,0,,,,,,,140,,,1,1716.9187045103126,Y,d,go,d,1,0.43913342436928815,,,,,,,,,,,,,,,,57,001,21,w,Psychologie,2023-01-24_09h11.31.047,00_bat_bachelor,2022.2.4,59.91129452473678,
,,,,,,,,,,,,0,0,0,0,141,0,141,0,,,,,,,141,,,1,1718.470183216185,X,l,go,l,1,0.5834274006230089,,,,,,,,,,,,,,,,57,001,21,w,Psychologie,2023-01-24_09h11.31.047,00_bat_bachelor,2022.2.4,59.91129452473678,
,,,,,,,,,,,,0,0,0,0,142,0,142,0,,,,,,,142,,,1,1720.1553926292604,Y,d,go,d,1,0.3778502177434575,,,,,,,,,,,,,,,,57,001,21,w,Psychologie,2023-01-24_09h11.31.047,00_bat_bachelor,2022.2.4,59.91129452473678,
,,,,,,,,,,,,0,0,0,0,143,0,143,0,,,,,,,143,,,1,1721.640005776403,X,l,go,l,1,0.32525294914523784,,,,,,,,,,,,,,,,57,001,21,w,Psychologie,2023-01-24_09h11.31.047,00_bat_bachelor,2022.2.4,59.91129452473678,
,,,,,,,,,,,,0,0,0,0,144,0,144,0,,,,,,,144,,,1,1723.0747473951828,X,None,nogo,None,1,,,,,,,,,1723.8756703068675,,,,,,,,57,001,21,w,Psychologie,2023-01-24_09h11.31.047,00_bat_bachelor,2022.2.4,59.91129452473678,
,,,,,,,,,,,,0,0,0,0,145,0,145,0,,,,,,,145,,,1,1724.8765125622413,X,None,nogo,None,1,,,,,,,,,,,,,,,,,57,001,21,w,Psychologie,2023-01-24_09h11.31.047,00_bat_bachelor,2022.2.4,59.91129452473678,
,,,,,,,,,,,,0,0,0,0,146,0,146,0,,,,,,,146,,,1,1726.6784643957362,Y,d,go,d,1,0.4146411468215092,,,,,,,,,,,,,,,,57,001,21,w,Psychologie,2023-01-24_09h11.31.047,00_bat_bachelor,2022.2.4,59.91129452473678,
,,,,,,,,,,,,0,0,0,0,147,0,147,0,,,,,,,147,,,1,1728.1965035530216,X,l,go,l,1,0.28905237831497743,,,,,,,,,,,,,,,,57,001,21,w,Psychologie,2023-01-24_09h11.31.047,00_bat_bachelor,2022.2.4,59.91129452473678,
,,,,,,,,,,,,0,0,0,0,148,0,148,0,,,,,,,148,,,1,1729.5979697255757,X,None,nogo,None,1,,,,,,,,,,,,,,,,,57,001,21,w,Psychologie,2023-01-24_09h11.31.047,00_bat_bachelor,2022.2.4,59.91129452473678,
,,,,,,,,,,,,0,0,0,0,149,0,149,0,,,,,,,149,,,1,1731.3998017643466,X,None,nogo,None,1,,,,,,,,,,,,,,,,,57,001,21,w,Psychologie,2023-01-24_09h11.31.047,00_bat_bachelor,2022.2.4,59.91129452473678,
,,,,,,,,,,,,0,0,0,0,150,0,150,0,,,,,,,150,,,1,1733.2016510338653,Y,d,go,d,1,0.38808076925454316,,,,,,,,,,,,,,,,57,001,21,w,Psychologie,2023-01-24_09h11.31.047,00_bat_bachelor,2022.2.4,59.91129452473678,
,,,,,,,,,,,,0,0,0,0,151,0,151,0,,,,,,,151,,,1,1734.7030502116304,X,l,go,l,1,0.4543346364290528,,,,,,,,,,,,,,,,57,001,21,w,Psychologie,2023-01-24_09h11.31.047,00_bat_bachelor,2022.2.4,59.91129452473678,
,,,,,,,,,,,,0,0,0,0,152,0,152,0,,,,,,,152,,,1,1736.2713128968458,Y,d,go,d,1,0.4146185827468116,,,,,,,,,,,,,,,,57,001,21,w,Psychologie,2023-01-24_09h11.31.047,00_bat_bachelor,2022.2.4,59.91129452473678,
,,,,,,,,,,,,0,0,0,0,153,0,153,0,,,,,,,153,,,1,1737.7892921567686,X,l,go,l,1,0.27925136473697876,,,,,,,,,,,,,,,,57,001,21,w,Psychologie,2023-01-24_09h11.31.047,00_bat_bachelor,2022.2.4,59.91129452473678,
,,,,,,,,,,,,0,0,0,0,154,0,154,0,,,,,,,154,,,1,1739.1741339395276,Y,d,go,None,0,,,,,,,,,,,,,,,,,57,001,21,w,Psychologie,2023-01-24_09h11.31.047,00_bat_bachelor,2022.2.4,59.91129452473678,
,,,,,,,,,,,,0,0,0,0,155,0,155,0,,,,,,,155,,,1,1740.9760906960937,X,l,go,l,1,0.365801822315575,,,,,,,,,,,,,,,,57,001,21,w,Psychologie,2023-01-24_09h11.31.047,00_bat_bachelor,2022.2.4,59.91129452473678,
,,,,,,,,,,,,0,0,0,0,156,0,156,0,,,,,,,156,,,1,1742.4442115558422,Y,d,go,d,1,0.3211019798951611,,,,,,,,,,,,,,,,57,001,21,w,Psychologie,2023-01-24_09h11.31.047,00_bat_bachelor,2022.2.4,59.91129452473678,
,,,,,,,,,,,,0,0,0,0,157,0,157,0,,,,,,,157,,,1,1743.8787829184212,Y,None,nogo,None,1,,,,,,,,,,,,,,,,,57,001,21,w,Psychologie,2023-01-24_09h11.31.047,00_bat_bachelor,2022.2.4,59.91129452473678,
,,,,,,,,,,,,0,0,0,0,158,0,158,0,,,,,,,158,,,1,1745.680796700558,X,l,go,l,1,0.31707162588156734,,,,,,,,,,,,,,,,57,001,21,w,Psychologie,2023-01-24_09h11.31.047,00_bat_bachelor,2022.2.4,59.91129452473678,
,,,,,,,,,,,,0,0,0,0,159,0,159,0,,,,,,,159,,,1,1747.0987145451718,Y,d,go,d,1,0.3626547492659711,,,,,,,,,,,,,,,,57,001,21,w,Psychologie,2023-01-24_09h11.31.047,00_bat_bachelor,2022.2.4,59.91129452473678,
,,,,,,,,,,,,0,0,0,0,160,0,160,0,,,,,,,160,,,1,1748.5668354049208,X,l,go,l,1,0.24696012242895904,,,,,,,,,,,,,,,,57,001,21,w,Psychologie,2023-01-24_09h11.31.047,00_bat_bachelor,2022.2.4,59.91129452473678,
,,,,,,,,,,,,0,0,0,0,161,0,161,0,,,,,,,161,,,1,1749.9181543571435,X,None,nogo,d,0,0.31878690582163927,,,,,,,,,,,,,,,,57,001,21,w,Psychologie,2023-01-24_09h11.31.047,00_bat_bachelor,2022.2.4,59.91129452473678,
,,,,,,,,,,,,0,0,0,0,162,0,162,0,,,,,,,162,,,1,1751.353000591179,Y,d,go,d,1,0.3479688186231442,,,,,,,,,,,,,,,,57,001,21,w,Psychologie,2023-01-24_09h11.31.047,00_bat_bachelor,2022.2.4,59.91129452473678,
,,,,,,,,,,,,0,0,0,0,163,0,163,0,,,,,,,163,,,1,1752.8043177793015,X,l,go,l,1,0.40891479489448557,,,,,,,,,,,,,,,,57,001,21,w,Psychologie,2023-01-24_09h11.31.047,00_bat_bachelor,2022.2.4,59.91129452473678,
,,,,,,,,,,,,0,0,0,0,164,0,164,0,,,,,,,164,,,1,1754.3225485260941,Y,d,go,d,1,0.5715299793683926,,,,,,,,,,,,,,,,57,001,21,w,Psychologie,2023-01-24_09h11.31.047,00_bat_bachelor,2022.2.4,59.91129452473678,
,,,,,,,,,,,,0,0,0,0,165,0,165,0,,,,,,,165,,,1,1756.007770246847,Y,None,nogo,None,1,,,,,,,,,,,,,,,,,57,001,21,w,Psychologie,2023-01-24_09h11.31.047,00_bat_bachelor,2022.2.4,59.91129452473678,
,,,,,,,,,,,,0,0,0,0,166,0,166,0,,,,,,,166,,,1,1757.8093852602437,X,l,go,l,1,0.4201496528618236,,,,,,,,,,,,,,,,57,001,21,w,Psychologie,2023-01-24_09h11.31.047,00_bat_bachelor,2022.2.4,59.91129452473678,
,,,,,,,,,,,,0,0,0,0,167,0,167,0,,,,,,,167,,,1,1759.3443002941945,Y,d,go,d,1,0.5254619335033794,,,,,,,,,,,,,,,,57,001,21,w,Psychologie,2023-01-24_09h11.31.047,00_bat_bachelor,2022.2.4,59.91129452473678,
,,,,,,,,,,,,0,0,0,0,168,0,168,0,,,,,,,168,,,1,1760.9791138718601,Y,None,nogo,None,1,,,,,,,,,,,,,,,,,57,001,21,w,Psychologie,2023-01-24_09h11.31.047,00_bat_bachelor,2022.2.4,59.91129452473678,
,,,,,,,,,,,,0,0,0,0,169,0,169,0,,,,,,,169,,,1,1762.781039448977,X,l,go,l,1,0.31254978529261734,,,,,,,,,,,,,,,,57,001,21,w,Psychologie,2023-01-24_09h11.31.047,00_bat_bachelor,2022.2.4,59.91129452473678,
,,,,,,,,,,,,0,0,0,0,170,0,170,0,,,,,,,170,,,1,1764.1991300113273,Y,d,go,None,0,,,,,,,,,1765.0000287179137,,,,,,,,57,001,21,w,Psychologie,2023-01-24_09h11.31.047,00_bat_bachelor,2022.2.4,59.91129452473678,
,,,,,,,,,,,,0,0,0,0,171,0,171,0,,,,,,,171,,,1,1766.0010957935233,X,l,go,l,1,0.42031252445633527,,,,,,,,,,,,,,,,57,001,21,w,Psychologie,2023-01-24_09h11.31.047,00_bat_bachelor,2022.2.4,59.91129452473678,
,,,,,,,,,,,,0,0,0,0,172,0,172,0,,,,,,,172,,,1,1767.5355911356828,Y,d,go,d,1,0.31747859973904724,,,,,,,,,,,,,,,,57,001,21,w,Psychologie,2023-01-24_09h11.31.047,00_bat_bachelor,2022.2.4,59.91129452473678,
,,,,,,,,,,,,0,0,0,0,173,0,173,0,,,,,,,173,,,1,1768.9705333696002,Y,None,nogo,None,1,,,,,,,,,,,,,,,,,57,001,21,w,Psychologie,2023-01-24_09h11.31.047,00_bat_bachelor,2022.2.4,59.91129452473678,
,,,,,,,,,,,,0,0,0,0,174,0,174,0,,,,,,,174,,,1,1770.7722743315599,X,l,go,l,1,0.44102183230154424,,,,,,,,,,,,,,,,57,001,21,w,Psychologie,2023-01-24_09h11.31.047,00_bat_bachelor,2022.2.4,59.91129452473678,
,,,,,,,,,,,,0,0,0,0,175,0,175,0,,,,,,,175,,,1,1772.3238576526883,Y,d,go,d,1,0.4249217495527091,,,,,,,,,,,,,,,,57,001,21,w,Psychologie,2023-01-24_09h11.31.047,00_bat_bachelor,2022.2.4,59.91129452473678,
,,,,,,,,,,,,0,0,0,0,176,0,176,0,,,,,,,176,,,1,1773.8589248915796,X,l,go,l,1,0.31439552661061043,,,,,,,,,,,,,,,,57,001,21,w,Psychologie,2023-01-24_09h11.31.047,00_bat_bachelor,2022.2.4,59.91129452473678,
,,,,,,,,,,,,0,0,0,0,177,0,177,0,,,,,,,177,,,1,1775.2769912488316,Y,d,go,d,1,0.4003515233827102,,,,,,,,,,,,,,,,57,001,21,w,Psychologie,2023-01-24_09h11.31.047,00_bat_bachelor,2022.2.4,59.91129452473678,
,,,,,,,,,,,,0,0,0,0,178,0,178,0,,,,,,,178,,,1,1776.7783551445887,Y,None,nogo,None,1,,,,,,,,,,,,,,,,,57,001,21,w,Psychologie,2023-01-24_09h11.31.047,00_bat_bachelor,2022.2.4,59.91129452473678,
,,,,,,,,,,,,0,0,0,0,179,0,179,0,,,,,,,179,,,1,1778.580099388596,X,l,go,l,1,0.25740605829025753,,,,,,,,,,,,,,,,57,001,21,w,Psychologie,2023-01-24_09h11.31.047,00_bat_bachelor,2022.2.4,59.91129452473678,
,,,,,,,,,,,,0,0,0,0,180,0,180,0,,,,,,,180,,,1,1779.9479610896892,Y,d,go,d,1,0.39322168600403984,,,,,,,,,,,,,,,,57,001,21,w,Psychologie,2023-01-24_09h11.31.047,00_bat_bachelor,2022.2.4,59.91129452473678,
,,,,,,,,,,,,0,0,0,0,181,0,181,0,,,,,,,181,,,1,1781.449677805525,X,l,go,l,1,0.36347403030879377,,,,,,,,,,,,,,,,57,001,21,w,Psychologie,2023-01-24_09h11.31.047,00_bat_bachelor,2022.2.4,59.91129452473678,
,,,,,,,,,,,,0,0,0,0,182,0,182,0,,,,,,,182,,,1,1782.9179114856474,Y,d,go,d,1,0.47145051279960626,,,,,,,,,,,,,,,,57,001,21,w,Psychologie,2023-01-24_09h11.31.047,00_bat_bachelor,2022.2.4,59.91129452473678,
,,,,,,,,,,,,0,0,0,0,183,0,183,0,,,,,,,183,,,1,1784.5028297401072,Y,None,nogo,d,0,0.5347882809993507,,,,,,,,,,,,,,,,57,001,21,w,Psychologie,2023-01-24_09h11.31.047,00_bat_bachelor,2022.2.4,59.91129452473678,
,,,,,,,,,,,,0,0,0,0,184,0,184,0,,,,,,,184,,,1,1786.1544597073316,X,l,go,l,1,0.5384723790290309,,,,,,,,,,,,,,,,57,001,21,w,Psychologie,2023-01-24_09h11.31.047,00_bat_bachelor,2022.2.4,59.91129452473678,
,,,,,,,,,,,,0,0,0,0,185,0,185,0,,,,,,,185,,,1,1787.8060753155996,Y,d,go,d,1,0.607189422658962,,,,,,,,,,,,,,,,57,001,21,w,Psychologie,2023-01-24_09h11.31.047,00_bat_bachelor,2022.2.4,59.91129452473678,
,,,,,,,,,,,,0,0,0,0,186,0,186,0,,,,,,,186,,,1,1789.5245170980302,Y,None,nogo,None,1,,,,,,,,,,,,,,,,,57,001,21,w,Psychologie,2023-01-24_09h11.31.047,00_bat_bachelor,2022.2.4,59.91129452473678,
,,,,,,,,,,,,0,0,0,0,187,0,187,0,,,,,,,187,,,1,1791.3263052394195,X,l,go,l,1,0.3751277595557667,,,,,,,,,,,,,,,,57,001,21,w,Psychologie,2023-01-24_09h11.31.047,00_bat_bachelor,2022.2.4,59.91129452473678,
,,,,,,,,,,,,0,0,0,0,188,0,188,0,,,,,,,188,,,1,1792.811027924889,Y,d,go,d,1,0.466834313352706,,,,,,,,,,,,,,,,57,001,21,w,Psychologie,2023-01-24_09h11.31.047,00_bat_bachelor,2022.2.4,59.91129452473678,
,,,,,,,,,,,,0,0,0,0,189,0,189,0,,,,,,,189,,,1,1794.3792192255764,Y,None,nogo,None,1,,,,,,,,,1795.1803214190918,,,,,,,,57,001,21,w,Psychologie,2023-01-24_09h11.31.047,00_bat_bachelor,2022.2.4,59.91129452473678,
,,,,,,,,,,,,0,0,0,0,190,0,190,0,,,,,,,190,,,1,1796.181429930548,X,l,go,l,1,0.3604151622786276,,,,,,,,,,,,,,,,57,001,21,w,Psychologie,2023-01-24_09h11.31.047,00_bat_bachelor,2022.2.4,59.91129452473678,
,,,,,,,,,,,,0,0,0,0,191,0,191,0,,,,,,,191,,,1,1797.6494806365367,Y,d,go,d,1,0.3563076801548277,,,,,,,,,,,,,,,,57,001,21,w,Psychologie,2023-01-24_09h11.31.047,00_bat_bachelor,2022.2.4,59.91129452473678,
,,,,,,,,,,,,0,0,0,0,192,0,192,0,,,,,,,192,,,1,1799.1172581120927,Y,None,nogo,None,1,,,,,,,,,,,,,,,,,57,001,21,w,Psychologie,2023-01-24_09h11.31.047,00_bat_bachelor,2022.2.4,59.91129452473678,
,,,,,,,,,,,,0,0,0,0,193,0,193,0,,,,,,,193,,,1,1800.9195102529106,X,l,go,l,1,0.4380458359643171,,,,,,,,,,,,,,,,57,001,21,w,Psychologie,2023-01-24_09h11.31.047,00_bat_bachelor,2022.2.4,59.91129452473678,
,,,,,,,,,,,,0,0,0,0,194,0,194,0,,,,,,,194,,,1,1802.470976651106,Y,d,go,None,0,,,,,,,,,,,,,,,,,57,001,21,w,Psychologie,2023-01-24_09h11.31.047,00_bat_bachelor,2022.2.4,59.91129452473678,
,,,,,,,,,,,,0,0,0,0,195,0,195,0,,,,,,,195,,,1,1804.2725395620027,Y,None,nogo,None,1,,,,,,,,,,,,,,,,,57,001,21,w,Psychologie,2023-01-24_09h11.31.047,00_bat_bachelor,2022.2.4,59.91129452473678,
,,,,,,,,,,,,0,0,0,0,196,0,196,0,,,,,,,196,,,1,1806.0744507801633,X,l,go,l,1,0.3549579382262209,,,,,,,,,,,,,,,,57,001,21,w,Psychologie,2023-01-24_09h11.31.047,00_bat_bachelor,2022.2.4,59.91129452473678,
,,,,,,,,,,,,0,0,0,0,197,0,197,0,,,,,,,197,,,1,1807.5426774859357,Y,d,go,d,1,0.39098250927293066,,,,,,,,,,,,,,,,57,001,21,w,Psychologie,2023-01-24_09h11.31.047,00_bat_bachelor,2022.2.4,59.91129452473678,
,,,,,,,,,,,,0,0,0,0,198,0,198,0,,,,,,,198,,,1,1809.0441931763776,Y,None,nogo,None,1,,,,,,,,,,,,,,,,,57,001,21,w,Psychologie,2023-01-24_09h11.31.047,00_bat_bachelor,2022.2.4,59.91129452473678,
,,,,,,,,,,,,0,0,0,0,199,0,199,0,,,,,,,199,,,1,1810.8460518817824,X,l,go,l,1,0.31965582782879665,,,,,,,,,,,,,,,,57,001,21,w,Psychologie,2023-01-24_09h11.31.047,00_bat_bachelor,2022.2.4,59.91129452473678,
,,,,,,,,,,,,0,0,0,0,200,0,200,0,,,,,,,200,,,1,1812.2805050906604,Y,d,go,d,1,0.621096277338097,,,,,,,,,,,,,,,,57,001,21,w,Psychologie,2023-01-24_09h11.31.047,00_bat_bachelor,2022.2.4,59.91129452473678,
,,,,,,,,,,,,0,0,0,0,201,0,201,0,,,,,,,201,,,1,1814.0157903395402,X,l,go,None,0,,,,,,,,,1814.8163612516582,,,,,,,,57,001,21,w,Psychologie,2023-01-24_09h11.31.047,00_bat_bachelor,2022.2.4,59.91129452473678,
,,,,,,,,,,,,0,0,0,0,202,0,202,0,,,,,,,202,,,1,1815.8173676093938,Y,d,go,d,1,0.28414038436051214,,,,,,,,,,,,,,,,57,001,21,w,Psychologie,2023-01-24_09h11.31.047,00_bat_bachelor,2022.2.4,59.91129452473678,
,,,,,,,,,,,,0,0,0,0,203,0,203,0,,,,,,,203,,,1,1817.2188050640348,X,l,go,l,1,0.29885995598772297,,,,,,,,,,,,,,,,57,001,21,w,Psychologie,2023-01-24_09h11.31.047,00_bat_bachelor,2022.2.4,59.91129452473678,
,,,,,,,,,,,,0,0,0,0,204,0,204,0,,,,,,,204,,,1,1818.6203910313138,Y,d,go,d,1,0.2899598643776926,,,,,,,,,,,,,,,,57,001,21,w,Psychologie,2023-01-24_09h11.31.047,00_bat_bachelor,2022.2.4,59.91129452473678,
,,,,,,,,,,,,0,0,0,0,205,0,205,0,,,,,,,205,,,1,1820.0217333065848,Y,None,nogo,None,1,,,,,,,,,1820.822250885435,,,,,,,,57,001,21,w,Psychologie,2023-01-24_09h11.31.047,00_bat_bachelor,2022.2.4,59.91129452473678,
,,,,,,,,,,,,0,0,0,0,206,0,206,0,,,,,,,206,,,1,1821.823628524765,X,l,go,l,1,0.518562249687534,,,,,,,,,,,,,,,,57,001,21,w,Psychologie,2023-01-24_09h11.31.047,00_bat_bachelor,2022.2.4,59.91129452473678,
,,,,,,,,,,,,0,0,0,0,207,0,207,0,,,,,,,207,,,1,1823.4586103073516,Y,d,go,d,1,0.37162991770685494,,,,,,,,,,,,,,,,57,001,21,w,Psychologie,2023-01-24_09h11.31.047,00_bat_bachelor,2022.2.4,59.91129452473678,
,,,,,,,,,,,,0,0,0,0,208,0,208,0,,,,,,,208,,,1,1824.9432710441793,X,l,go,l,1,0.29466139705266414,,,,,,,,,,,,,,,,57,001,21,w,Psychologie,2023-01-24_09h11.31.047,00_bat_bachelor,2022.2.4,59.91129452473678,
,,,,,,,,,,,,0,0,0,0,209,0,209,0,,,,,,,209,,,1,1826.3445402938992,Y,d,go,d,1,0.22863235011402594,,,,,,,,,,,,,,,,57,001,21,w,Psychologie,2023-01-24_09h11.31.047,00_bat_bachelor,2022.2.4,59.91129452473678,
,,,,,,,,,,,,0,0,0,0,210,0,210,0,,,,,,,210,,,1,1827.678907061858,X,l,go,l,1,0.24585735455514168,,,,,,,,,,,,,,,,57,001,21,w,Psychologie,2023-01-24_09h11.31.047,00_bat_bachelor,2022.2.4,59.91129452473678,
,,,,,,,,,,,,0,0,0,0,211,0,211,0,,,,,,,211,,,1,1829.0306358597304,X,None,nogo,d,0,0.23051255292841688,,,,,,,,,,,,,,,,57,001,21,w,Psychologie,2023-01-24_09h11.31.047,00_bat_bachelor,2022.2.4,59.91129452473678,
,,,,,,,,,,,,0,0,0,0,212,0,212,0,,,,,,,212,,,1,1830.3653907297758,Y,d,go,d,1,0.5998122009697227,,,,,,,,,,,,,,,,57,001,21,w,Psychologie,2023-01-24_09h11.31.047,00_bat_bachelor,2022.2.4,59.91129452473678,
,,,,,,,,,,,,0,0,0,0,213,0,213,0,,,,,,,213,,,1,1832.067049763631,X,l,go,l,1,0.4024105977715635,,,,,,,,,,,,,,,,57,001,21,w,Psychologie,2023-01-24_09h11.31.047,00_bat_bachelor,2022.2.4,59.91129452473678,
,,,,,,,,,,,,0,0,0,0,214,0,214,0,,,,,,,214,,,1,1833.5852193822943,Y,d,go,d,1,0.5242250119487153,,,,,,,,,,,,,,,,57,001,21,w,Psychologie,2023-01-24_09h11.31.047,00_bat_bachelor,2022.2.4,59.91129452473678,
,,,,,,,,,,,,0,0,0,0,215,0,215,0,,,,,,,215,,,1,1835.2199447549401,Y,None,nogo,None,1,,,,,,,,,,,,,,,,,57,001,21,w,Psychologie,2023-01-24_09h11.31.047,00_bat_bachelor,2022.2.4,59.91129452473678,
,,,,,,,,,,,,0,0,0,0,216,0,216,0,,,,,,,216,,,1,1837.0218826397345,X,l,go,l,1,0.3587962924763133,,,,,,,,,,,,,,,,57,001,21,w,Psychologie,2023-01-24_09h11.31.047,00_bat_bachelor,2022.2.4,59.91129452473678,
,,,,,,,,,,,,0,0,0,0,217,0,217,0,,,,,,,217,,,1,1838.4901885248964,Y,d,go,None,0,,,,,,,,,,,,,,,,,57,001,21,w,Psychologie,2023-01-24_09h11.31.047,00_bat_bachelor,2022.2.4,59.91129452473678,
,,,,,,,,,,,,0,0,0,0,218,0,218,0,,,,,,,218,,,1,1840.2919233330176,Y,None,nogo,None,1,,,,,,,,,,,,,,,,,57,001,21,w,Psychologie,2023-01-24_09h11.31.047,00_bat_bachelor,2022.2.4,59.91129452473678,
,,,,,,,,,,,,0,0,0,0,219,0,219,0,,,,,,,219,,,1,1842.0935387566706,X,l,go,l,1,0.5032453454620054,,,,,,,,,,,,,,,,57,001,21,w,Psychologie,2023-01-24_09h11.31.047,00_bat_bachelor,2022.2.4,59.91129452473678,
,,,,,,,,,,,,0,0,0,0,220,0,220,0,,,,,,,220,,,1,1843.7118977904847,Y,d,go,d,1,0.5328424372402196,,,,,,,,,,,,,,,,57,001,21,w,Psychologie,2023-01-24_09h11.31.047,00_bat_bachelor,2022.2.4,59.91129452473678,
,,,,,,,,,,,,0,0,0,0,221,0,221,0,,,,,,,221,,,1,1845.3470153677763,X,l,go,l,1,0.4986028896374819,,,,,,,,,,,,,,,,57,001,21,w,Psychologie,2023-01-24_09h11.31.047,00_bat_bachelor,2022.2.4,59.91129452473678,
,,,,,,,,,,,,0,0,0,0,222,0,222,0,,,,,,,222,,,1,1846.9484086788816,Y,d,go,d,1,0.31261419546956404,,,,,,,,,,,,,,,,57,001,21,w,Psychologie,2023-01-24_09h11.31.047,00_bat_bachelor,2022.2.4,59.91129452473678,
,,,,,,,,,,,,0,0,0,0,223,0,223,0,,,,,,,223,,,1,1848.3665915488104,X,l,go,l,1,0.4305652297867937,,,,,,,,,,,,,,,,57,001,21,w,Psychologie,2023-01-24_09h11.31.047,00_bat_bachelor,2022.2.4,59.91129452473678,
,,,,,,,,,,,,0,0,0,0,224,0,224,0,,,,,,,224,,,1,1849.901342890655,X,None,nogo,l,0,0.5515373885901909,,,,,,,,,,,,,,,,57,001,21,w,Psychologie,2023-01-24_09h11.31.047,00_bat_bachelor,2022.2.4,59.91129452473678,
,,,,,,,,,,,,0,0,0,0,225,0,225,0,,,,,,,225,,,1,1851.569866785805,X,None,nogo,None,1,,,,,,,,,,,,,,,,,57,001,21,w,Psychologie,2023-01-24_09h11.31.047,00_bat_bachelor,2022.2.4,59.91129452473678,
,,,,,,,,,,,,0,0,0,0,226,0,226,0,,,,,,,226,,,1,1853.3714366710524,Y,d,go,d,1,0.4897290544055295,,,,,,,,,,,,,,,,57,001,21,w,Psychologie,2023-01-24_09h11.31.047,00_bat_bachelor,2022.2.4,59.91129452473678,
,,,,,,,,,,,,0,0,0,0,227,0,227,0,,,,,,,227,,,1,1854.9732500842051,X,l,go,l,1,0.42452257055686005,,,,,,,,,,,,,,,,57,001,21,w,Psychologie,2023-01-24_09h11.31.047,00_bat_bachelor,2022.2.4,59.91129452473678,
,,,,,,,,,,,,0,0,0,0,228,0,228,0,,,,,,,228,,,1,1856.5080711695537,X,None,nogo,None,1,,,,,,,,,,,,,,,,,57,001,21,w,Psychologie,2023-01-24_09h11.31.047,00_bat_bachelor,2022.2.4,59.91129452473678,
,,,,,,,,,,,,0,0,0,0,229,0,229,0,,,,,,,229,,,1,1858.3097444392888,X,None,nogo,None,1,,,,,,,,,,,,,,,,,57,001,21,w,Psychologie,2023-01-24_09h11.31.047,00_bat_bachelor,2022.2.4,59.91129452473678,
,,,,,,,,,,,,0,0,0,0,230,0,230,0,,,,,,,230,,,1,1860.1116761702447,Y,d,go,d,1,0.4377418363379775,,,,,,,,,,,,,,,,57,001,21,w,Psychologie,2023-01-24_09h11.31.047,00_bat_bachelor,2022.2.4,59.91129452473678,
,,,,,,,,,,,,0,0,0,0,231,0,231,0,,,,,,,231,,,1,1861.6630227737155,X,l,go,l,1,0.3983486540529384,,,,,,,,,,,,,,,,57,001,21,w,Psychologie,2023-01-24_09h11.31.047,00_bat_bachelor,2022.2.4,59.91129452473678,
,,,,,,,,,,,,0,0,0,0,232,0,232,0,,,,,,,232,,,1,1863.164629951225,Y,d,go,d,1,0.2564460594718412,,,,,,,,,,,,,,,,57,001,21,w,Psychologie,2023-01-24_09h11.31.047,00_bat_bachelor,2022.2.4,59.91129452473678,
,,,,,,,,,,,,0,0,0,0,233,0,233,0,,,,,,,233,,,1,1864.5327271392075,X,l,go,l,1,0.23245552489572674,,,,,,,,,,,,,,,,57,001,21,w,Psychologie,2023-01-24_09h11.31.047,00_bat_bachelor,2022.2.4,59.91129452473678,
,,,,,,,,,,,,0,0,0,0,234,0,234,0,,,,,,,234,,,1,1865.8675012912804,X,None,nogo,None,1,,,,,,,,,,,,,,,,,57,001,21,w,Psychologie,2023-01-24_09h11.31.047,00_bat_bachelor,2022.2.4,59.91129452473678,
,,,,,,,,,,,,0,0,0,0,235,0,235,0,,,,,,,235,,,1,1867.6693111762324,Y,d,go,d,1,0.3121214781273238,,,,,,,,,,,,,,,,57,001,21,w,Psychologie,2023-01-24_09h11.31.047,00_bat_bachelor,2022.2.4,59.91129452473678,
,,,,,,,,,,,,0,0,0,0,236,0,236,0,,,,,,,236,,,1,1869.0873422514765,X,l,go,l,1,0.2855364852063076,,,,,,,,,,,,,,,,57,001,21,w,Psychologie,2023-01-24_09h11.31.047,00_bat_bachelor,2022.2.4,59.91129452473678,
,,,,,,,,,,,,0,0,0,0,237,0,237,0,,,,,,,237,,,1,1870.4887628856254,Y,d,go,d,1,0.5089782614833211,,,,,,,,,,,,,,,,57,001,21,w,Psychologie,2023-01-24_09h11.31.047,00_bat_bachelor,2022.2.4,59.91129452473678,
,,,,,,,,,,,,0,0,0,0,238,0,238,0,,,,,,,238,,,1,1872.1070148426484,Y,None,nogo,None,1,,,,,,,,,,,,,,,,,57,001,21,w,Psychologie,2023-01-24_09h11.31.047,00_bat_bachelor,2022.2.4,59.91129452473678,
,,,,,,,,,,,,0,0,0,0,239,0,239,0,,,,,,,239,,,1,1873.908731189254,X,l,go,l,1,0.5522865158733339,,,,,,,,,,,,,,,,57,001,21,w,Psychologie,2023-01-24_09h11.31.047,00_bat_bachelor,2022.2.4,59.91129452473678,
,,,,,,,,,,,,0,0,0,0,240,0,240,0,,,,,,,240,,,1,1875.5769761103884,Y,d,go,d,1,0.4522562800131027,,,,,,,,,,,,,,,,57,001,21,w,Psychologie,2023-01-24_09h11.31.047,00_bat_bachelor,2022.2.4,59.91129452473678,
,,,,,,,,,,,,0,0,0,0,241,0,241,0,,,,,,,241,,,1,1877.1451875136154,X,l,go,l,1,0.3077645604131476,,,,,,,,,,,,,,,,57,001,21,w,Psychologie,2023-01-24_09h11.31.047,00_bat_bachelor,2022.2.4,59.91129452473678,
,,,,,,,,,,,,0,0,0,0,242,0,242,0,,,,,,,242,,,1,1878.5633863835246,X,None,nogo,d,0,0.23343193395078288,,,,,,,,,,,,,,,,57,001,21,w,Psychologie,2023-01-24_09h11.31.047,00_bat_bachelor,2022.2.4,59.91129452473678,
,,,,,,,,,,,,0,0,0,0,243,0,243,0,,,,,,,243,,,1,1879.898070689554,Y,d,go,d,1,0.41903867987059584,,,,,,,,,,,,,,,,57,001,21,w,Psychologie,2023-01-24_09h11.31.047,00_bat_bachelor,2022.2.4,59.91129452473678,
,,,,,,,,,,,,0,0,0,0,244,0,244,0,,,,,,,244,,,1,1881.4330210055127,X,l,go,l,1,0.2769124958209659,,,,,,,,,,,,,,,,57,001,21,w,Psychologie,2023-01-24_09h11.31.047,00_bat_bachelor,2022.2.4,59.91129452473678,
,,,,,,,,,,,,0,0,0,0,245,0,245,0,,,,,,,245,,,1,1882.8177848396494,X,None,nogo,None,1,,,,,,,,,,,,,,,,,57,001,21,w,Psychologie,2023-01-24_09h11.31.047,00_bat_bachelor,2022.2.4,59.91129452473678,
,,,,,,,,,,,,0,0,0,0,246,0,246,0,,,,,,,246,,,1,1884.6192640583417,Y,d,go,d,1,0.46583575047918657,,,,,,,,,,,,,,,,57,001,21,w,Psychologie,2023-01-24_09h11.31.047,00_bat_bachelor,2022.2.4,59.91129452473678,
,,,,,,,,,,,,0,0,0,0,247,0,247,0,,,,,,,247,,,1,1886.1875460255847,X,l,go,l,1,0.5217109637611657,,,,,,,,,,,,,,,,57,001,21,w,Psychologie,2023-01-24_09h11.31.047,00_bat_bachelor,2022.2.4,59.91129452473678,
,,,,,,,,,,,,0,0,0,0,248,0,248,0,,,,,,,248,,,1,1887.8226992951395,X,None,nogo,None,1,,,,,,,,,,,,,,,,,57,001,21,w,Psychologie,2023-01-24_09h11.31.047,00_bat_bachelor,2022.2.4,59.91129452473678,
,,,,,,,,,,,,0,0,0,0,249,0,249,0,,,,,,,249,,,1,1889.624541180052,X,None,nogo,None,1,,,,,,,,,,,,,,,,,57,001,21,w,Psychologie,2023-01-24_09h11.31.047,00_bat_bachelor,2022.2.4,59.91129452473678,
,,,,,,,,,,,,1,0,1,0,0,0,0,0,,,,,,,0,,,0.2,1910.0281148371923,X,l,go,l,1,0.39255173811091026,,,,,,,,,1890.445269605822,space,19.362870954128198,,,,,57,001,21,w,Psychologie,2023-01-24_09h11.31.047,00_bat_bachelor,2022.2.4,59.91129452473678,
,,,,,,,,,,,,1,0,1,0,1,0,1,0,,,,,,,1,,,0.2,1910.7287740774063,Y,d,go,d,1,0.4037455704875583,,,,,,,,,,,,,,,,57,001,21,w,Psychologie,2023-01-24_09h11.31.047,00_bat_bachelor,2022.2.4,59.91129452473678,
,,,,,,,,,,,,1,0,1,0,2,0,2,0,,,,,,,2,,,0.2,1911.4463813993257,X,l,go,l,1,0.3344701685701921,,,,,,,,,,,,,,,,57,001,21,w,Psychologie,2023-01-24_09h11.31.047,00_bat_bachelor,2022.2.4,59.91129452473678,
,,,,,,,,,,,,1,0,1,0,3,0,3,0,,,,,,,3,,,0.2,1912.0970460344051,Y,d,go,d,1,0.39619522080568004,,,,,,,,,,,,,,,,57,001,21,w,Psychologie,2023-01-24_09h11.31.047,00_bat_bachelor,2022.2.4,59.91129452473678,
,,,,,,,,,,,,1,0,1,0,4,0,4,0,,,,,,,4,,,0.2,1912.7975895824538,X,l,go,l,1,0.5115620531752256,,,,,,,,,,,,,,,,57,001,21,w,Psychologie,2023-01-24_09h11.31.047,00_bat_bachelor,2022.2.4,59.91129452473678,
,,,,,,,,,,,,1,0,1,0,5,0,5,0,,,,,,,5,,,0.2,1913.615002319997,X,None,nogo,None,1,,,,,,,,,,,,,,,,,57,001,21,w,Psychologie,2023-01-24_09h11.31.047,00_bat_bachelor,2022.2.4,59.91129452473678,
,,,,,,,,,,,,1,0,1,0,6,0,6,0,,,,,,,6,,,0.2,1914.616208882615,Y,d,go,d,1,0.30147410661686536,,,,,,,,,,,,,,,,57,001,21,w,Psychologie,2023-01-24_09h11.31.047,00_bat_bachelor,2022.2.4,59.91129452473678,
,,,,,,,,,,,,1,0,1,0,7,0,7,0,,,,,,,7,,,0.2,1915.2335279177091,X,l,go,l,1,0.45176315241462817,,,,,,,,,,,,,,,,57,001,21,w,Psychologie,2023-01-24_09h11.31.047,00_bat_bachelor,2022.2.4,59.91129452473678,
,,,,,,,,,,,,1,0,1,0,8,0,8,0,,,,,,,8,,,0.2,1916.001079383287,Y,d,go,d,1,0.45244171568231195,,,,,,,,,,,,,,,,57,001,21,w,Psychologie,2023-01-24_09h11.31.047,00_bat_bachelor,2022.2.4,59.91129452473678,
,,,,,,,,,,,,1,0,1,0,9,0,9,0,,,,,,,9,,,0.2,1916.7679736189043,Y,None,nogo,None,1,,,,,,,,,,,,,,,,,57,001,21,w,Psychologie,2023-01-24_09h11.31.047,00_bat_bachelor,2022.2.4,59.91129452473678,
,,,,,,,,,,,,1,0,1,0,10,0,10,0,,,,,,,10,,,0.2,1917.7694214119942,X,l,go,l,1,0.2761313685765572,,,,,,,,,,,,,,,,57,001,21,w,Psychologie,2023-01-24_09h11.31.047,00_bat_bachelor,2022.2.4,59.91129452473678,
,,,,,,,,,,,,1,0,1,0,11,0,11,0,,,,,,,11,,,0.2,1918.353125308974,Y,d,go,d,1,0.4767140960644838,,,,,,,,,,,,,,,,57,001,21,w,Psychologie,2023-01-24_09h11.31.047,00_bat_bachelor,2022.2.4,59.91129452473678,
,,,,,,,,,,,,1,0,1,0,12,0,12,0,,,,,,,12,,,0.2,1919.1373348053316,Y,None,nogo,None,1,,,,,,,,,,,,,,,,,57,001,21,w,Psychologie,2023-01-24_09h11.31.047,00_bat_bachelor,2022.2.4,59.91129452473678,
,,,,,,,,,,,,1,0,1,0,13,0,13,0,,,,,,,13,,,0.2,1920.1380712146815,X,l,go,l,1,0.45031002599819203,,,,,,,,,,,,,,,,57,001,21,w,Psychologie,2023-01-24_09h11.31.047,00_bat_bachelor,2022.2.4,59.91129452473678,
,,,,,,,,,,,,1,0,1,0,14,0,14,0,,,,,,,14,,,0.2,1920.8891459825895,Y,d,go,None,0,,,,,,,,,,,,,,,,,57,001,21,w,Psychologie,2023-01-24_09h11.31.047,00_bat_bachelor,2022.2.4,59.91129452473678,
,,,,,,,,,,,,1,0,1,0,15,0,15,0,,,,,,,15,,,0.2,1921.8903033144984,Y,None,nogo,None,1,,,,,,,,,,,,,,,,,57,001,21,w,Psychologie,2023-01-24_09h11.31.047,00_bat_bachelor,2022.2.4,59.91129452473678,
,,,,,,,,,,,,1,0,1,0,16,0,16,0,,,,,,,16,,,0.2,1922.8909584931794,X,l,go,l,1,0.5543615902421379,,,,,,,,,,,,,,,,57,001,21,w,Psychologie,2023-01-24_09h11.31.047,00_bat_bachelor,2022.2.4,59.91129452473678,
,,,,,,,,,,,,1,0,1,0,17,0,17,0,,,,,,,17,,,0.2,1923.758476194696,Y,d,go,d,1,0.479041888071265,,,,,,,,,,,,,,,,57,001,21,w,Psychologie,2023-01-24_09h11.31.047,00_bat_bachelor,2022.2.4,59.91129452473678,
,,,,,,,,,,,,1,0,1,0,18,0,18,0,,,,,,,18,,,0.2,1924.542874819026,X,l,go,l,1,0.40648813121481453,,,,,,,,,,,,,,,,57,001,21,w,Psychologie,2023-01-24_09h11.31.047,00_bat_bachelor,2022.2.4,59.91129452473678,
,,,,,,,,,,,,1,0,1,0,19,0,19,0,,,,,,,19,,,0.2,1925.2601071670479,Y,d,go,d,1,0.33662606335303735,,,,,,,,,,,,,,,,57,001,21,w,Psychologie,2023-01-24_09h11.31.047,00_bat_bachelor,2022.2.4,59.91129452473678,
,,,,,,,,,,,,1,0,1,0,20,0,20,0,,,,,,,20,,,0.2,1925.9109002122254,X,l,go,l,1,0.3505312770076898,,,,,,,,,,,,,,,,57,001,21,w,Psychologie,2023-01-24_09h11.31.047,00_bat_bachelor,2022.2.4,59.91129452473678,
,,,,,,,,,,,,1,0,1,0,21,0,21,0,,,,,,,21,,,0.2,1926.5612690527973,X,None,nogo,None,1,,,,,,,,,,,,,,,,,57,001,21,w,Psychologie,2023-01-24_09h11.31.047,00_bat_bachelor,2022.2.4,59.91129452473678,
,,,,,,,,,,,,1,0,1,0,22,0,22,0,,,,,,,22,,,0.2,1927.5624587949228,Y,d,go,d,1,0.33080412180026997,,,,,,,,,,,,,,,,57,001,21,w,Psychologie,2023-01-24_09h11.31.047,00_bat_bachelor,2022.2.4,59.91129452473678,
,,,,,,,,,,,,1,0,1,0,23,0,23,0,,,,,,,23,,,0.2,1928.1961975021159,X,l,go,l,1,0.5282496223804856,,,,,,,,,,,,,,,,57,001,21,w,Psychologie,2023-01-24_09h11.31.047,00_bat_bachelor,2022.2.4,59.91129452473678,
,,,,,,,,,,,,1,0,1,0,24,0,24,0,,,,,,,24,,,0.2,1929.030550116246,X,None,nogo,None,1,,,,,,,,,,,,,,,,,57,001,21,w,Psychologie,2023-01-24_09h11.31.047,00_bat_bachelor,2022.2.4,59.91129452473678,
,,,,,,,,,,,,1,0,1,0,25,0,25,0,,,,,,,25,,,0.2,1930.0316048841787,X,None,nogo,None,1,,,,,,,,,,,,,,,,,57,001,21,w,Psychologie,2023-01-24_09h11.31.047,00_bat_bachelor,2022.2.4,59.91129452473678,
,,,,,,,,,,,,1,0,1,0,26,0,26,0,,,,,,,26,,,0.2,1931.0324713446507,Y,d,go,d,1,0.5247275754328484,,,,,,,,,,,,,,,,57,001,21,w,Psychologie,2023-01-24_09h11.31.047,00_bat_bachelor,2022.2.4,59.91129452473678,
,,,,,,,,,,,,1,0,1,0,27,0,27,0,,,,,,,27,,,0.2,1931.866706625592,X,l,go,None,0,,,,,,,,,,,,,,,,,57,001,21,w,Psychologie,2023-01-24_09h11.31.047,00_bat_bachelor,2022.2.4,59.91129452473678,
,,,,,,,,,,,,1,0,1,0,28,0,28,0,,,,,,,28,,,0.2,1932.8679058036032,Y,d,go,d,1,0.47352599742464463,,,,,,,,,,,,,,,,57,001,21,w,Psychologie,2023-01-24_09h11.31.047,00_bat_bachelor,2022.2.4,59.91129452473678,
,,,,,,,,,,,,1,0,1,0,29,0,29,0,,,,,,,29,,,0.2,1933.6517813516539,X,l,go,l,1,0.22506312373764104,,,,,,,,,,,,,,,,57,001,21,w,Psychologie,2023-01-24_09h11.31.047,00_bat_bachelor,2022.2.4,59.91129452473678,
,,,,,,,,,,,,1,0,1,0,30,0,30,0,,,,,,,30,,,0.2,1934.1856563868846,Y,d,go,d,1,0.3316361207758973,,,,,,,,,,,,,,,,57,001,21,w,Psychologie,2023-01-24_09h11.31.047,00_bat_bachelor,2022.2.4,59.91129452473678,
,,,,,,,,,,,,1,0,1,0,31,0,31,0,,,,,,,31,,,0.2,1934.8196002220307,Y,None,nogo,None,1,,,,,,,,,,,,,,,,,57,001,21,w,Psychologie,2023-01-24_09h11.31.047,00_bat_bachelor,2022.2.4,59.91129452473678,
,,,,,,,,,,,,1,0,1,0,32,0,32,0,,,,,,,32,,,0.2,1935.8204699645498,X,l,go,l,1,0.2565514952390231,,,,,,,,,,,,,,,,57,001,21,w,Psychologie,2023-01-24_09h11.31.047,00_bat_bachelor,2022.2.4,59.91129452473678,
,,,,,,,,,,,,1,0,1,0,33,0,33,0,,,,,,,33,,,0.2,1936.3878030098836,Y,d,go,d,1,0.40973940926426167,,,,,,,,,,,,,,,,57,001,21,w,Psychologie,2023-01-24_09h11.31.047,00_bat_bachelor,2022.2.4,59.91129452473678,
,,,,,,,,,,,,1,0,1,0,34,0,34,0,,,,,,,34,,,0.2,1937.1052880755428,Y,None,nogo,d,0,0.6440390183316822,,,,,,,,,,,,,,,,57,001,21,w,Psychologie,2023-01-24_09h11.31.047,00_bat_bachelor,2022.2.4,59.91129452473678,
,,,,,,,,,,,,1,0,1,0,35,0,35,0,,,,,,,35,,,0.2,1938.0561283411753,X,l,go,l,1,0.4610853973514395,,,,,,,,,,,,,,,,57,001,21,w,Psychologie,2023-01-24_09h11.31.047,00_bat_bachelor,2022.2.4,59.91129452473678,
,,,,,,,,,,,,1,0,1,0,36,0,36,0,,,,,,,36,,,0.2,1938.8237479092336,Y,d,go,d,1,0.3812196494938007,,,,,,,,,,,,,,,,57,001,21,w,Psychologie,2023-01-24_09h11.31.047,00_bat_bachelor,2022.2.4,59.91129452473678,
,,,,,,,,,,,,1,0,1,0,37,0,37,0,,,,,,,37,,,0.2,1939.5075197856168,Y,None,nogo,None,1,,,,,,,,,,,,,,,,,57,001,21,w,Psychologie,2023-01-24_09h11.31.047,00_bat_bachelor,2022.2.4,59.91129452473678,
,,,,,,,,,,,,1,0,1,0,38,0,38,0,,,,,,,38,,,0.2,1940.5085056305575,X,l,go,l,1,0.4888945938938605,,,,,,,,,,,,,,,,57,001,21,w,Psychologie,2023-01-24_09h11.31.047,00_bat_bachelor,2022.2.4,59.91129452473678,
,,,,,,,,,,,,1,0,1,0,39,0,39,0,,,,,,,39,,,0.2,1941.3094277217301,Y,d,go,d,1,0.30382036013918423,,,,,,,,,,,,,,,,57,001,21,w,Psychologie,2023-01-24_09h11.31.047,00_bat_bachelor,2022.2.4,59.91129452473678,
,,,,,,,,,,,,1,0,1,0,40,0,40,0,,,,,,,40,,,0.2,1941.926623269797,Y,None,nogo,None,1,,,,,,,,,1942.7273180791985,,,,,,,,57,001,21,w,Psychologie,2023-01-24_09h11.31.047,00_bat_bachelor,2022.2.4,59.91129452473678,
,,,,,,,,,,,,1,0,1,0,41,0,41,0,,,,,,,41,,,0.2,1942.9276919864305,X,l,go,l,1,0.18929906519099404,,,,,,,,,,,,,,,,57,001,21,w,Psychologie,2023-01-24_09h11.31.047,00_bat_bachelor,2022.2.4,59.91129452473678,
,,,,,,,,,,,,1,0,1,0,42,0,42,0,,,,,,,42,,,0.2,1943.4282115755345,Y,d,go,None,0,,,,,,,,,,,,,,,,,57,001,21,w,Psychologie,2023-01-24_09h11.31.047,00_bat_bachelor,2022.2.4,59.91129452473678,
,,,,,,,,,,,,1,0,1,0,43,0,43,0,,,,,,,43,,,0.2,1944.429350035672,X,l,go,l,1,0.48827264594149256,,,,,,,,,,,,,,,,57,001,21,w,Psychologie,2023-01-24_09h11.31.047,00_bat_bachelor,2022.2.4,59.91129452473678,
,,,,,,,,,,,,1,0,1,0,44,0,44,0,,,,,,,44,,,0.2,1945.2299541785183,X,None,nogo,l,0,0.4474612089912853,,,,,,,,,,,,,,,,57,001,21,w,Psychologie,2023-01-24_09h11.31.047,00_bat_bachelor,2022.2.4,59.91129452473678,
,,,,,,,,,,,,1,0,1,0,45,0,45,0,,,,,,,45,,,0.2,1945.9808906901858,Y,d,go,d,1,0.5051009329218914,,,,,,,,,,,,,,,,57,001,21,w,Psychologie,2023-01-24_09h11.31.047,00_bat_bachelor,2022.2.4,59.91129452473678,
,,,,,,,,,,,,1,0,1,0,46,0,46,0,,,,,,,46,,,0.2,1946.7982960431227,X,l,go,l,1,0.5426036559957765,,,,,,,,,,,,,,,,57,001,21,w,Psychologie,2023-01-24_09h11.31.047,00_bat_bachelor,2022.2.4,59.91129452473678,
,,,,,,,,,,,,1,0,1,0,47,0,47,0,,,,,,,47,,,0.2,1947.6489801243324,X,None,nogo,None,1,,,,,,,,,,,,,,,,,57,001,21,w,Psychologie,2023-01-24_09h11.31.047,00_bat_bachelor,2022.2.4,59.91129452473678,
,,,,,,,,,,,,1,0,1,0,48,0,48,0,,,,,,,48,,,0.2,1948.649934379568,Y,d,go,d,1,0.3865328737239224,,,,,,,,,,,,,,,,57,001,21,w,Psychologie,2023-01-24_09h11.31.047,00_bat_bachelor,2022.2.4,59.91129452473678,
,,,,,,,,,,,,1,0,1,0,49,0,49,0,,,,,,,49,,,0.2,1949.350863978424,X,l,go,l,1,0.5345601787158785,,,,,,,,,,,,,,,,57,001,21,w,Psychologie,2023-01-24_09h11.31.047,00_bat_bachelor,2022.2.4,59.91129452473678,
,,,,,,,,,,,,1,0,1,0,50,0,50,0,,,,,,,50,,,0.2,1950.2016116492987,X,None,nogo,None,1,,,,,,,,,,,,,,,,,57,001,21,w,Psychologie,2023-01-24_09h11.31.047,00_bat_bachelor,2022.2.4,59.91129452473678,
,,,,,,,,,,,,1,0,1,0,51,0,51,0,,,,,,,51,,,0.2,1951.2026307249675,Y,d,go,d,1,0.2828320782788296,,,,,,,,,,,,,,,,57,001,21,w,Psychologie,2023-01-24_09h11.31.047,00_bat_bachelor,2022.2.4,59.91129452473678,
,,,,,,,,,,,,1,0,1,0,52,0,52,0,,,,,,,52,,,0.2,1951.7864650833253,X,l,go,None,0,,,,,,,,,,,,,,,,,57,001,21,w,Psychologie,2023-01-24_09h11.31.047,00_bat_bachelor,2022.2.4,59.91129452473678,
,,,,,,,,,,,,1,0,1,0,53,0,53,0,,,,,,,53,,,0.2,1952.7876310306083,Y,d,go,d,1,0.5376863287143578,,,,,,,,,,,,,,,,57,001,21,w,Psychologie,2023-01-24_09h11.31.047,00_bat_bachelor,2022.2.4,59.91129452473678,
,,,,,,,,,,,,1,0,1,0,54,0,54,0,,,,,,,54,,,0.2,1953.6384107014433,Y,None,nogo,None,1,,,,,,,,,,,,,,,,,57,001,21,w,Psychologie,2023-01-24_09h11.31.047,00_bat_bachelor,2022.2.4,59.91129452473678,
,,,,,,,,,,,,1,0,1,0,55,0,55,0,,,,,,,55,,,0.2,1954.639322700321,Y,None,nogo,l,0,0.23049080936527844,,,,,,,,,,,,,,,,57,001,21,w,Psychologie,2023-01-24_09h11.31.047,00_bat_bachelor,2022.2.4,59.91129452473678,
,,,,,,,,,,,,1,0,1,0,56,0,56,0,,,,,,,56,,,0.2,1955.1731800945477,X,l,go,None,0,,,,,,,,,,,,,,,,,57,001,21,w,Psychologie,2023-01-24_09h11.31.047,00_bat_bachelor,2022.2.4,59.91129452473678,
,,,,,,,,,,,,1,0,1,0,57,0,57,0,,,,,,,57,,,0.2,1956.174383375118,Y,d,go,d,1,0.4942792026514553,,,,,,,,,,,,,,,,57,001,21,w,Psychologie,2023-01-24_09h11.31.047,00_bat_bachelor,2022.2.4,59.91129452473678,
,,,,,,,,,,,,1,0,1,0,58,0,58,0,,,,,,,58,,,0.2,1956.975226286901,X,l,go,l,1,0.4627571901656893,,,,,,,,,,,,,,,,57,001,21,w,Psychologie,2023-01-24_09h11.31.047,00_bat_bachelor,2022.2.4,59.91129452473678,
,,,,,,,,,,,,1,0,1,0,59,0,59,0,,,,,,,59,,,0.2,1957.7426780602937,Y,d,go,d,1,0.45382838064199404,,,,,,,,,,,,,,,,57,001,21,w,Psychologie,2023-01-24_09h11.31.047,00_bat_bachelor,2022.2.4,59.91129452473678,
,,,,,,,,,,,,1,0,1,0,60,0,60,0,,,,,,,60,,,0.2,1958.5099809107928,X,l,go,l,1,0.41511130008905184,,,,,,,,,,,,,,,,57,001,21,w,Psychologie,2023-01-24_09h11.31.047,00_bat_bachelor,2022.2.4,59.91129452473678,
,,,,,,,,,,,,1,0,1,0,61,0,61,0,,,,,,,61,,,0.2,1959.2273593099167,X,None,nogo,l,0,0.5382717638909753,,,,,,,,,,,,,,,,57,001,21,w,Psychologie,2023-01-24_09h11.31.047,00_bat_bachelor,2022.2.4,59.91129452473678,
,,,,,,,,,,,,1,0,1,0,62,0,62,0,,,,,,,62,,,0.2,1960.0781246217953,Y,d,go,d,1,0.5348908449751661,,,,,,,,,,,,,,,,57,001,21,w,Psychologie,2023-01-24_09h11.31.047,00_bat_bachelor,2022.2.4,59.91129452473678,
,,,,,,,,,,,,1,0,1,0,63,0,63,0,,,,,,,63,,,0.2,1960.9289022413514,X,l,go,l,1,0.5879418566051982,,,,,,,,,,,,,,,,57,001,21,w,Psychologie,2023-01-24_09h11.31.047,00_bat_bachelor,2022.2.4,59.91129452473678,
,,,,,,,,,,,,1,0,1,0,64,0,64,0,,,,,,,64,,,0.2,1961.8300428758448,Y,d,go,d,1,0.5190381465378096,,,,,,,,,,,,,,,,57,001,21,w,Psychologie,2023-01-24_09h11.31.047,00_bat_bachelor,2022.2.4,59.91129452473678,
,,,,,,,,,,,,1,0,1,0,65,0,65,0,,,,,,,65,,,0.2,1962.6642420542662,Y,None,nogo,None,1,,,,,,,,,1963.4647145049667,,,,,,,,57,001,21,w,Psychologie,2023-01-24_09h11.31.047,00_bat_bachelor,2022.2.4,59.91129452473678,
,,,,,,,,,,,,1,0,1,0,66,0,66,0,,,,,,,66,,,0.2,1963.6651376429077,X,l,go,l,1,0.38739277010120077,,,,,,,,,,,,,,,,57,001,21,w,Psychologie,2023-01-24_09h11.31.047,00_bat_bachelor,2022.2.4,59.91129452473678,
,,,,,,,,,,,,1,0,1,0,67,0,67,0,,,,,,,67,,,0.2,1964.3657468319016,Y,d,go,None,0,,,,,,,,,,,,,,,,,57,001,21,w,Psychologie,2023-01-24_09h11.31.047,00_bat_bachelor,2022.2.4,59.91129452473678,
,,,,,,,,,,,,1,0,1,0,68,0,68,0,,,,,,,68,,,0.2,1965.366744574263,Y,None,nogo,None,1,,,,,,,,,1966.1676289218926,,,,,,,,57,001,21,w,Psychologie,2023-01-24_09h11.31.047,00_bat_bachelor,2022.2.4,59.91129452473678,
,,,,,,,,,,,,1,0,1,0,69,0,69,0,,,,,,,69,,,0.2,1966.368005700916,X,l,go,l,1,0.33323488803910095,,,,,,,,,,,,,,,,57,001,21,w,Psychologie,2023-01-24_09h11.31.047,00_bat_bachelor,2022.2.4,59.91129452473678,
,,,,,,,,,,,,1,0,1,0,70,0,70,0,,,,,,,70,,,0.2,1967.0017747670468,Y,d,go,d,1,0.5152605101612835,,,,,,,,,,,,,,,,57,001,21,w,Psychologie,2023-01-24_09h11.31.047,00_bat_bachelor,2022.2.4,59.91129452473678,
,,,,,,,,,,,,1,0,1,0,71,0,71,0,,,,,,,71,,,0.2,1967.8191657610269,X,l,go,None,0,,,,,,,,,,,,,,,,,57,001,21,w,Psychologie,2023-01-24_09h11.31.047,00_bat_bachelor,2022.2.4,59.91129452473678,
,,,,,,,,,,,,1,0,1,0,72,0,72,0,,,,,,,72,,,0.2,1968.8202488366169,X,None,nogo,None,1,,,,,,,,,,,,,,,,,57,001,21,w,Psychologie,2023-01-24_09h11.31.047,00_bat_bachelor,2022.2.4,59.91129452473678,
,,,,,,,,,,,,1,0,1,0,73,0,73,0,,,,,,,73,,,0.2,1969.8213138609472,Y,d,go,d,1,0.40805694979701457,,,,,,,,,,,,,,,,57,001,21,w,Psychologie,2023-01-24_09h11.31.047,00_bat_bachelor,2022.2.4,59.91129452473678,
,,,,,,,,,,,,1,0,1,0,74,0,74,0,,,,,,,74,,,0.2,1970.5384362603863,X,l,go,l,1,0.6665842213529913,,,,,,,,,,,,,,,,57,001,21,w,Psychologie,2023-01-24_09h11.31.047,00_bat_bachelor,2022.2.4,59.91129452473678,
,,,,,,,,,,,,1,0,1,0,75,0,75,0,,,,,,,75,,,0.2,1971.5063037871132,X,None,nogo,None,1,,,,,,,,,,,,,,,,,57,001,21,w,Psychologie,2023-01-24_09h11.31.047,00_bat_bachelor,2022.2.4,59.91129452473678,
,,,,,,,,,,,,1,0,1,0,76,0,76,0,,,,,,,76,,,0.2,1972.507197734731,Y,d,go,d,1,0.23442311221799628,,,,,,,,,,,,,,,,57,001,21,w,Psychologie,2023-01-24_09h11.31.047,00_bat_bachelor,2022.2.4,59.91129452473678,
,,,,,,,,,,,,1,0,1,0,77,0,77,0,,,,,,,77,,,0.2,1973.0576639290293,X,l,go,l,1,0.43476091693003127,,,,,,,,,,,,,,,,57,001,21,w,Psychologie,2023-01-24_09h11.31.047,00_bat_bachelor,2022.2.4,59.91129452473678,
,,,,,,,,,,,,1,0,1,0,78,0,78,0,,,,,,,78,,,0.2,1973.8085036203033,X,None,nogo,l,0,0.5010562199510105,,,,,,,,,,,,,,,,57,001,21,w,Psychologie,2023-01-24_09h11.31.047,00_bat_bachelor,2022.2.4,59.91129452473678,
,,,,,,,,,,,,1,0,1,0,79,0,79,0,,,,,,,79,,,0.2,1974.6096665316927,Y,d,go,d,1,0.48352065179017245,,,,,,,,,,,,,,,,57,001,21,w,Psychologie,2023-01-24_09h11.31.047,00_bat_bachelor,2022.2.4,59.91129452473678,
,,,,,,,,,,,,1,0,1,0,80,0,80,0,,,,,,,80,,,0.2,1975.3934809516131,X,l,go,l,1,0.5641285525799731,,,,,,,,,,,,,,,,57,001,21,w,Psychologie,2023-01-24_09h11.31.047,00_bat_bachelor,2022.2.4,59.91129452473678,
,,,,,,,,,,,,1,0,1,0,81,0,81,0,,,,,,,81,,,0.2,1976.2610441915353,X,None,nogo,None,1,,,,,,,,,,,,,,,,,57,001,21,w,Psychologie,2023-01-24_09h11.31.047,00_bat_bachelor,2022.2.4,59.91129452473678,
,,,,,,,,,,,,1,0,1,0,82,0,82,0,,,,,,,82,,,0.2,1977.2619447032475,Y,d,go,d,1,0.30346097596623167,,,,,,,,,,,,,,,,57,001,21,w,Psychologie,2023-01-24_09h11.31.047,00_bat_bachelor,2022.2.4,59.91129452473678,
,,,,,,,,,,,,1,0,1,0,83,0,83,0,,,,,,,83,,,0.2,1977.8792448665704,X,l,go,l,1,0.43004625606602076,,,,,,,,,,,,,,,,57,001,21,w,Psychologie,2023-01-24_09h11.31.047,00_bat_bachelor,2022.2.4,59.91129452473678,
,,,,,,,,,,,,1,0,1,0,84,0,84,0,,,,,,,84,,,0.2,1978.6133498092104,Y,d,go,d,1,0.5593974814797775,,,,,,,,,,,,,,,,57,001,21,w,Psychologie,2023-01-24_09h11.31.047,00_bat_bachelor,2022.2.4,59.91129452473678,
,,,,,,,,,,,,1,0,1,0,85,0,85,0,,,,,,,85,,,0.2,1979.4814291510615,X,l,go,l,1,0.4439633671423735,,,,,,,,,,,,,,,,57,001,21,w,Psychologie,2023-01-24_09h11.31.047,00_bat_bachelor,2022.2.4,59.91129452473678,
,,,,,,,,,,,,1,0,1,0,86,0,86,0,,,,,,,86,,,0.2,1980.2315439201511,Y,d,go,d,1,0.4781914275796453,,,,,,,,,,,,,,,,57,001,21,w,Psychologie,2023-01-24_09h11.31.047,00_bat_bachelor,2022.2.4,59.91129452473678,
,,,,,,,,,,,,1,0,1,0,87,0,87,0,,,,,,,87,,,0.2,1981.015843672808,X,l,go,l,1,0.4694808741979841,,,,,,,,,,,,,,,,57,001,21,w,Psychologie,2023-01-24_09h11.31.047,00_bat_bachelor,2022.2.4,59.91129452473678,
,,,,,,,,,,,,1,0,1,0,88,0,88,0,,,,,,,88,,,0.2,1981.799755733634,Y,d,go,d,1,0.5416551443423714,,,,,,,,,,,,,,,,57,001,21,w,Psychologie,2023-01-24_09h11.31.047,00_bat_bachelor,2022.2.4,59.91129452473678,
,,,,,,,,,,,,1,0,1,0,89,0,89,0,,,,,,,89,,,0.2,1982.6508094554142,Y,None,nogo,None,1,,,,,,,,,,,,,,,,,57,001,21,w,Psychologie,2023-01-24_09h11.31.047,00_bat_bachelor,2022.2.4,59.91129452473678,
,,,,,,,,,,,,1,0,1,0,90,0,90,0,,,,,,,90,,,0.2,1983.6516919158666,Y,None,nogo,None,1,,,,,,,,,,,,,,,,,57,001,21,w,Psychologie,2023-01-24_09h11.31.047,00_bat_bachelor,2022.2.4,59.91129452473678,
,,,,,,,,,,,,1,0,1,0,91,0,91,0,,,,,,,91,,,0.2,1984.6528258631888,X,l,go,l,1,0.3926165585440913,,,,,,,,,,,,,,,,57,001,21,w,Psychologie,2023-01-24_09h11.31.047,00_bat_bachelor,2022.2.4,59.91129452473678,
,,,,,,,,,,,,1,0,1,0,92,0,92,0,,,,,,,92,,,0.2,1985.3533735137967,Y,d,go,d,1,0.5081261599676736,,,,,,,,,,,,,,,,57,001,21,w,Psychologie,2023-01-24_09h11.31.047,00_bat_bachelor,2022.2.4,59.91129452473678,
,,,,,,,,,,,,1,0,1,0,93,0,93,0,,,,,,,93,,,0.2,1986.1708666614977,X,l,go,None,0,,,,,,,,,,,,,,,,,57,001,21,w,Psychologie,2023-01-24_09h11.31.047,00_bat_bachelor,2022.2.4,59.91129452473678,
,,,,,,,,,,,,1,0,1,0,94,0,94,0,,,,,,,94,,,0.2,1987.171795891123,Y,d,go,d,1,0.44902920706192617,,,,,,,,,,,,,,,,57,001,21,w,Psychologie,2023-01-24_09h11.31.047,00_bat_bachelor,2022.2.4,59.91129452473678,
,,,,,,,,,,,,1,0,1,0,95,0,95,0,,,,,,,95,,,0.2,1987.9228185565312,Y,None,nogo,None,1,,,,,,,,,,,,,,,,,57,001,21,w,Psychologie,2023-01-24_09h11.31.047,00_bat_bachelor,2022.2.4,59.91129452473678,
,,,,,,,,,,,,1,0,1,0,96,0,96,0,,,,,,,96,,,0.2,1988.9235036838932,X,l,go,l,1,0.3534334272818569,,,,,,,,,,,,,,,,57,001,21,w,Psychologie,2023-01-24_09h11.31.047,00_bat_bachelor,2022.2.4,59.91129452473678,
,,,,,,,,,,,,1,0,1,0,97,0,97,0,,,,,,,97,,,0.2,1989.590973631622,Y,d,go,d,1,0.49356043430509544,,,,,,,,,,,,,,,,57,001,21,w,Psychologie,2023-01-24_09h11.31.047,00_bat_bachelor,2022.2.4,59.91129452473678,
,,,,,,,,,,,,1,0,1,0,98,0,98,0,,,,,,,98,,,0.2,1990.3918198254528,X,l,go,l,1,0.42878964222848026,,,,,,,,,,,,,,,,57,001,21,w,Psychologie,2023-01-24_09h11.31.047,00_bat_bachelor,2022.2.4,59.91129452473678,
,,,,,,,,,,,,1,0,1,0,99,0,99,0,,,,,,,99,,,0.2,1991.1260560499823,Y,d,go,d,1,0.5675841380708562,,,,,,,,,,,,,,,,57,001,21,w,Psychologie,2023-01-24_09h11.31.047,00_bat_bachelor,2022.2.4,59.91129452473678,
,,,,,,,,,,,,1,0,1,0,100,0,100,0,,,,,,,100,,,0.2,1991.9932808287826,X,l,go,l,1,0.5000391955624082,,,,,,,,,,,,,,,,57,001,21,w,Psychologie,2023-01-24_09h11.31.047,00_bat_bachelor,2022.2.4,59.91129452473678,
,,,,,,,,,,,,1,0,1,0,101,0,101,0,,,,,,,101,,,0.2,1992.79416640718,Y,d,go,d,1,0.6344324660523171,,,,,,,,,,,,,,,,57,001,21,w,Psychologie,2023-01-24_09h11.31.047,00_bat_bachelor,2022.2.4,59.91129452473678,
,,,,,,,,,,,,1,0,1,0,102,0,102,0,,,,,,,102,,,0.2,1993.7285373597492,Y,None,nogo,None,1,,,,,,,,,,,,,,,,,57,001,21,w,Psychologie,2023-01-24_09h11.31.047,00_bat_bachelor,2022.2.4,59.91129452473678,
,,,,,,,,,,,,1,0,1,0,103,0,103,0,,,,,,,103,,,0.2,1994.7293796151225,X,l,go,l,1,0.27599557387213736,,,,,,,,,,,,,,,,57,001,21,w,Psychologie,2023-01-24_09h11.31.047,00_bat_bachelor,2022.2.4,59.91129452473678,
,,,,,,,,,,,,1,0,1,0,104,0,104,0,,,,,,,104,,,0.2,1995.3133698707243,Y,d,go,None,0,,,,,,,,,,,,,,,,,57,001,21,w,Psychologie,2023-01-24_09h11.31.047,00_bat_bachelor,2022.2.4,59.91129452473678,
,,,,,,,,,,,,1,0,1,0,105,0,105,0,,,,,,,105,,,0.2,1996.3143479208024,X,l,go,d,0,0.18646953021209356,,,,,,,,,,,,,,,,57,001,21,w,Psychologie,2023-01-24_09h11.31.047,00_bat_bachelor,2022.2.4,59.91129452473678,
,,,,,,,,,,,,1,0,1,0,106,0,106,0,,,,,,,106,,,0.2,1996.815192432584,Y,d,go,l,0,0.2388423888297666,,,,,,,,,,,,,,,,57,001,21,w,Psychologie,2023-01-24_09h11.31.047,00_bat_bachelor,2022.2.4,59.91129452473678,
,,,,,,,,,,,,1,0,1,0,107,0,107,0,,,,,,,107,,,0.2,1997.365314422177,Y,None,nogo,d,0,0.4956683291467243,,,,,,,,,,,,,,,,57,001,21,w,Psychologie,2023-01-24_09h11.31.047,00_bat_bachelor,2022.2.4,59.91129452473678,
,,,,,,,,,,,,1,0,1,0,108,0,108,0,,,,,,,108,,,0.2,1998.1662135390193,X,l,go,l,1,0.40729551483684645,,,,,,,,,,,,,,,,57,001,21,w,Psychologie,2023-01-24_09h11.31.047,00_bat_bachelor,2022.2.4,59.91129452473678,
,,,,,,,,,,,,1,0,1,0,109,0,109,0,,,,,,,109,,,0.2,1998.8836103996591,Y,d,go,d,1,0.4817331668106135,,,,,,,,,,,,,,,,57,001,21,w,Psychologie,2023-01-24_09h11.31.047,00_bat_bachelor,2022.2.4,59.91129452473678,
,,,,,,,,,,,,1,0,1,0,110,0,110,0,,,,,,,110,,,0.2,1999.6676639987727,Y,None,nogo,None,1,,,,,,,,,,,,,,,,,57,001,21,w,Psychologie,2023-01-24_09h11.31.047,00_bat_bachelor,2022.2.4,59.91129452473678,
,,,,,,,,,,,,1,0,1,0,111,0,111,0,,,,,,,111,,,0.2,2000.6688172281224,X,l,go,l,1,0.5123534368163973,,,,,,,,,,,,,,,,57,001,21,w,Psychologie,2023-01-24_09h11.31.047,00_bat_bachelor,2022.2.4,59.91129452473678,
,,,,,,,,,,,,1,0,1,0,112,0,112,0,,,,,,,112,,,0.2,2001.486185247772,Y,d,go,d,1,0.39117204750129986,,,,,,,,,,,,,,,,57,001,21,w,Psychologie,2023-01-24_09h11.31.047,00_bat_bachelor,2022.2.4,59.91129452473678,
,,,,,,,,,,,,1,0,1,0,113,0,113,0,,,,,,,113,,,0.2,2002.186880590506,Y,None,nogo,None,1,,,,,,,,,,,,,,,,,57,001,21,w,Psychologie,2023-01-24_09h11.31.047,00_bat_bachelor,2022.2.4,59.91129452473678,
,,,,,,,,,,,,1,0,1,0,114,0,114,0,,,,,,,114,,,0.2,2003.1879616148167,X,l,go,l,1,0.24115089880945106,,,,,,,,,,,,,,,,57,001,21,w,Psychologie,2023-01-24_09h11.31.047,00_bat_bachelor,2022.2.4,59.91129452473678,
,,,,,,,,,,,,1,0,1,0,115,0,115,0,,,,,,,115,,,0.2,2003.7385910909647,Y,d,go,d,1,0.34699158905652894,,,,,,,,,,,,,,,,57,001,21,w,Psychologie,2023-01-24_09h11.31.047,00_bat_bachelor,2022.2.4,59.91129452473678,
,,,,,,,,,,,,1,0,1,0,116,0,116,0,,,,,,,116,,,0.2,2004.3891072134065,X,l,go,l,1,0.6079541396671857,,,,,,,,,,,,,,,,57,001,21,w,Psychologie,2023-01-24_09h11.31.047,00_bat_bachelor,2022.2.4,59.91129452473678,
,,,,,,,,,,,,1,0,1,0,117,0,117,0,,,,,,,117,,,0.2,2005.3067942890739,X,None,nogo,None,1,,,,,,,,,,,,,,,,,57,001,21,w,Psychologie,2023-01-24_09h11.31.047,00_bat_bachelor,2022.2.4,59.91129452473678,
,,,,,,,,,,,,1,0,1,0,118,0,118,0,,,,,,,118,,,0.2,2006.3077272110027,Y,d,go,d,1,0.42565118455252104,,,,,,,,,,,,,,,,57,001,21,w,Psychologie,2023-01-24_09h11.31.047,00_bat_bachelor,2022.2.4,59.91129452473678,
,,,,,,,,,,,,1,0,1,0,119,0,119,0,,,,,,,119,,,0.2,2007.0415076412214,X,l,go,l,1,0.35582891151318563,,,,,,,,,,,,,,,,57,001,21,w,Psychologie,2023-01-24_09h11.31.047,00_bat_bachelor,2022.2.4,59.91129452473678,
,,,,,,,,,,,,1,0,1,0,120,0,120,0,,,,,,,120,,,0.2,2007.70893861464,Y,d,go,d,1,0.43207456126231136,,,,,,,,,,,,,,,,57,001,21,w,Psychologie,2023-01-24_09h11.31.047,00_bat_bachelor,2022.2.4,59.91129452473678,
,,,,,,,,,,,,1,0,1,0,121,0,121,0,,,,,,,121,,,0.2,2008.4431522750947,X,l,go,l,1,0.4177878096148788,,,,,,,,,,,,,,,,57,001,21,w,Psychologie,2023-01-24_09h11.31.047,00_bat_bachelor,2022.2.4,59.91129452473678,
,,,,,,,,,,,,1,0,1,0,122,0,122,0,,,,,,,122,,,0.2,2009.1771755768095,Y,d,go,d,1,0.4920933591880612,,,,,,,,,,,,,,,,57,001,21,w,Psychologie,2023-01-24_09h11.31.047,00_bat_bachelor,2022.2.4,59.91129452473678,
,,,,,,,,,,,,1,0,1,0,123,0,123,0,,,,,,,123,,,0.2,2009.9779364374117,X,l,go,l,1,0.5234049103938787,,,,,,,,,,,,,,,,57,001,21,w,Psychologie,2023-01-24_09h11.31.047,00_bat_bachelor,2022.2.4,59.91129452473678,
,,,,,,,,,,,,1,0,1,0,124,0,124,0,,,,,,,124,,,0.2,2010.8123025899868,X,None,nogo,None,1,,,,,,,,,,,,,,,,,57,001,21,w,Psychologie,2023-01-24_09h11.31.047,00_bat_bachelor,2022.2.4,59.91129452473678,
,,,,,,,,,,,,1,0,1,0,125,0,125,0,,,,,,,125,,,0.2,2011.813071819809,Y,d,go,d,1,0.34380595195182195,,,,,,,,,,,,,,,,57,001,21,w,Psychologie,2023-01-24_09h11.31.047,00_bat_bachelor,2022.2.4,59.91129452473678,
,,,,,,,,,,,,1,0,1,0,126,0,126,0,,,,,,,126,,,0.2,2012.463812352231,X,l,go,None,0,,,,,,,,,,,,,,,,,57,001,21,w,Psychologie,2023-01-24_09h11.31.047,00_bat_bachelor,2022.2.4,59.91129452473678,
,,,,,,,,,,,,1,0,1,0,127,0,127,0,,,,,,,127,,,0.2,2013.4648351202031,Y,d,go,None,0,,,,,,,,,,,,,,,,,57,001,21,w,Psychologie,2023-01-24_09h11.31.047,00_bat_bachelor,2022.2.4,59.91129452473678,
,,,,,,,,,,,,1,0,1,0,128,0,128,0,,,,,,,128,,,0.2,2014.4658636317577,X,l,go,l,1,0.31506096168925524,,,,,,,,,,,,,,,,57,001,21,w,Psychologie,2023-01-24_09h11.31.047,00_bat_bachelor,2022.2.4,59.91129452473678,
,,,,,,,,,,,,1,0,1,0,129,0,129,0,,,,,,,129,,,0.2,2015.0832807180136,X,None,nogo,None,1,,,,,,,,,,,,,,,,,57,001,21,w,Psychologie,2023-01-24_09h11.31.047,00_bat_bachelor,2022.2.4,59.91129452473678,
,,,,,,,,,,,,1,0,1,0,130,0,130,0,,,,,,,130,,,0.2,2016.0842124091746,Y,d,go,d,1,0.2568932384084519,,,,,,,,,,,,,,,,57,001,21,w,Psychologie,2023-01-24_09h11.31.047,00_bat_bachelor,2022.2.4,59.91129452473678,
,,,,,,,,,,,,1,0,1,0,131,0,131,0,,,,,,,131,,,0.2,2016.6513940700793,X,l,go,l,1,0.37804139699539974,,,,,,,,,,,,,,,,57,001,21,w,Psychologie,2023-01-24_09h11.31.047,00_bat_bachelor,2022.2.4,59.91129452473678,
,,,,,,,,,,,,1,0,1,0,132,0,132,0,,,,,,,132,,,0.2,2017.3355774331358,Y,d,go,d,1,0.39825019263582817,,,,,,,,,,,,,,,,57,001,21,w,Psychologie,2023-01-24_09h11.31.047,00_bat_bachelor,2022.2.4,59.91129452473678,
,,,,,,,,,,,,1,0,1,0,133,0,133,0,,,,,,,133,,,0.2,2018.0362690835664,Y,None,nogo,None,1,,,,,,,,,,,,,,,,,57,001,21,w,Psychologie,2023-01-24_09h11.31.047,00_bat_bachelor,2022.2.4,59.91129452473678,
,,,,,,,,,,,,1,0,1,0,134,0,134,0,,,,,,,134,,,0.2,2019.0371092876603,X,l,go,l,1,0.2154171868916137,,,,,,,,,,,,,,,,57,001,21,w,Psychologie,2023-01-24_09h11.31.047,00_bat_bachelor,2022.2.4,59.91129452473678,
,,,,,,,,,,,,1,0,1,0,135,0,135,0,,,,,,,135,,,0.2,2019.5542163435289,Y,d,go,d,1,0.37149043069905474,,,,,,,,,,,,,,,,57,001,21,w,Psychologie,2023-01-24_09h11.31.047,00_bat_bachelor,2022.2.4,59.91129452473678,
,,,,,,,,,,,,1,0,1,0,136,0,136,0,,,,,,,136,,,0.2,2020.2382635016247,X,l,go,l,1,0.4390448090936161,,,,,,,,,,,,,,,,57,001,21,w,Psychologie,2023-01-24_09h11.31.047,00_bat_bachelor,2022.2.4,59.91129452473678,
,,,,,,,,,,,,1,0,1,0,137,0,137,0,,,,,,,137,,,0.2,2020.9891577569342,Y,d,go,d,1,0.36025967529087666,,,,,,,,,,,,,,,,57,001,21,w,Psychologie,2023-01-24_09h11.31.047,00_bat_bachelor,2022.2.4,59.91129452473678,
,,,,,,,,,,,,1,0,1,0,138,0,138,0,,,,,,,138,,,0.2,2021.65632247427,Y,None,nogo,None,1,,,,,,,,,,,,,,,,,57,001,21,w,Psychologie,2023-01-24_09h11.31.047,00_bat_bachelor,2022.2.4,59.91129452473678,
,,,,,,,,,,,,1,0,1,0,139,0,139,0,,,,,,,139,,,0.2,2022.6572668833642,X,l,go,l,1,0.5391730961151779,,,,,,,,,,,,,,,,57,001,21,w,Psychologie,2023-01-24_09h11.31.047,00_bat_bachelor,2022.2.4,59.91129452473678,
,,,,,,,,,,,,1,0,1,0,140,0,140,0,,,,,,,140,,,0.2,2023.508199989908,Y,d,go,d,1,0.4161545808557321,,,,,,,,,,,,,,,,57,001,21,w,Psychologie,2023-01-24_09h11.31.047,00_bat_bachelor,2022.2.4,59.91129452473678,
,,,,,,,,,,,,1,0,1,0,141,0,141,0,,,,,,,141,,,0.2,2024.2255726454491,Y,None,nogo,None,1,,,,,,,,,,,,,,,,,57,001,21,w,Psychologie,2023-01-24_09h11.31.047,00_bat_bachelor,2022.2.4,59.91129452473678,
,,,,,,,,,,,,1,0,1,0,142,0,142,0,,,,,,,142,,,0.2,2025.2265638237163,X,l,go,l,1,0.20992919364618956,,,,,,,,,,,,,,,,57,001,21,w,Psychologie,2023-01-24_09h11.31.047,00_bat_bachelor,2022.2.4,59.91129452473678,
,,,,,,,,,,,,1,0,1,0,143,0,143,0,,,,,,,143,,,0.2,2025.7435010336399,Y,d,go,d,1,0.3413444165199735,,,,,,,,,,,,,,,,57,001,21,w,Psychologie,2023-01-24_09h11.31.047,00_bat_bachelor,2022.2.4,59.91129452473678,
,,,,,,,,,,,,1,0,1,0,144,0,144,0,,,,,,,144,,,0.2,2026.394301053168,X,l,go,l,1,0.4669134927422647,,,,,,,,,,,,,,,,57,001,21,w,Psychologie,2023-01-24_09h11.31.047,00_bat_bachelor,2022.2.4,59.91129452473678,
,,,,,,,,,,,,1,0,1,0,145,0,145,0,,,,,,,145,,,0.2,2027.1616510830963,X,None,nogo,d,0,0.29154591370763683,,,,,,,,,,,,,,,,57,001,21,w,Psychologie,2023-01-24_09h11.31.047,00_bat_bachelor,2022.2.4,59.91129452473678,
,,,,,,,,,,,,1,0,1,0,146,0,146,0,,,,,,,146,,,0.2,2027.7625479845565,Y,d,go,None,0,,,,,,,,,,,,,,,,,57,001,21,w,Psychologie,2023-01-24_09h11.31.047,00_bat_bachelor,2022.2.4,59.91129452473678,
,,,,,,,,,,,,1,0,1,0,147,0,147,0,,,,,,,147,,,0.2,2028.7632934195362,X,l,go,l,1,0.43327045722628554,,,,,,,,,,,,,,,,57,001,21,w,Psychologie,2023-01-24_09h11.31.047,00_bat_bachelor,2022.2.4,59.91129452473678,
,,,,,,,,,,,,1,0,1,0,148,0,148,0,,,,,,,148,,,0.2,2029.4975292338104,X,None,nogo,None,1,,,,,,,,,,,,,,,,,57,001,21,w,Psychologie,2023-01-24_09h11.31.047,00_bat_bachelor,2022.2.4,59.91129452473678,
,,,,,,,,,,,,1,0,1,0,149,0,149,0,,,,,,,149,,,0.2,2030.498556514597,Y,d,go,d,1,0.2664780471246786,,,,,,,,,,,,,,,,57,001,21,w,Psychologie,2023-01-24_09h11.31.047,00_bat_bachelor,2022.2.4,59.91129452473678,
,,,,,,,,,,,,1,0,1,0,150,0,150,0,,,,,,,150,,,0.2,2031.0663195081197,X,l,go,l,1,0.555761383390859,,,,,,,,,,,,,,,,57,001,21,w,Psychologie,2023-01-24_09h11.31.047,00_bat_bachelor,2022.2.4,59.91129452473678,
,,,,,,,,,,,,1,0,1,0,151,0,151,0,,,,,,,151,,,0.2,2031.9336382355223,Y,d,go,d,1,0.6160398733046577,,,,,,,,,,,,,,,,57,001,21,w,Psychologie,2023-01-24_09h11.31.047,00_bat_bachelor,2022.2.4,59.91129452473678,
,,,,,,,,,,,,1,0,1,0,152,0,152,0,,,,,,,152,,,0.2,2032.8511435678233,X,l,go,l,1,0.3625850057625257,,,,,,,,,,,,,,,,57,001,21,w,Psychologie,2023-01-24_09h11.31.047,00_bat_bachelor,2022.2.4,59.91129452473678,
,,,,,,,,,,,,1,0,1,0,153,0,153,0,,,,,,,153,,,0.2,2033.5181294135846,X,None,nogo,None,1,,,,,,,,,,,,,,,,,57,001,21,w,Psychologie,2023-01-24_09h11.31.047,00_bat_bachelor,2022.2.4,59.91129452473678,
,,,,,,,,,,,,1,0,1,0,154,0,154,0,,,,,,,154,,,0.2,2034.5194709503949,Y,d,go,d,1,0.45286263824129946,,,,,,,,,,,,,,,,57,001,21,w,Psychologie,2023-01-24_09h11.31.047,00_bat_bachelor,2022.2.4,59.91129452473678,
,,,,,,,,,,,,1,0,1,0,155,0,155,0,,,,,,,155,,,0.2,2035.2865920575277,X,l,go,l,1,0.6302494968414294,,,,,,,,,,,,,,,,57,001,21,w,Psychologie,2023-01-24_09h11.31.047,00_bat_bachelor,2022.2.4,59.91129452473678,
,,,,,,,,,,,,1,0,1,0,156,0,156,0,,,,,,,156,,,0.2,2036.2207353180693,Y,d,go,d,1,0.42396708406124617,,,,,,,,,,,,,,,,57,001,21,w,Psychologie,2023-01-24_09h11.31.047,00_bat_bachelor,2022.2.4,59.91129452473678,
,,,,,,,,,,,,1,0,1,0,157,0,157,0,,,,,,,157,,,0.2,2036.9548702093907,X,l,go,l,1,0.49015736157036827,,,,,,,,,,,,,,,,57,001,21,w,Psychologie,2023-01-24_09h11.31.047,00_bat_bachelor,2022.2.4,59.91129452473678,
,,,,,,,,,,,,1,0,1,0,158,0,158,0,,,,,,,158,,,0.2,2037.755590454658,Y,d,go,d,1,0.44913300180553506,,,,,,,,,,,,,,,,57,001,21,w,Psychologie,2023-01-24_09h11.31.047,00_bat_bachelor,2022.2.4,59.91129452473678,
,,,,,,,,,,,,1,0,1,0,159,0,159,0,,,,,,,159,,,0.2,2038.50657865857,X,l,go,l,1,0.5228116803551757,,,,,,,,,,,,,,,,57,001,21,w,Psychologie,2023-01-24_09h11.31.047,00_bat_bachelor,2022.2.4,59.91129452473678,
,,,,,,,,,,,,1,0,1,0,160,0,160,0,,,,,,,160,,,0.2,2039.3406190679561,X,None,nogo,None,1,,,,,,,,,,,,,,,,,57,001,21,w,Psychologie,2023-01-24_09h11.31.047,00_bat_bachelor,2022.2.4,59.91129452473678,
,,,,,,,,,,,,1,0,1,0,161,0,161,0,,,,,,,161,,,0.2,2040.3417882972863,Y,d,go,d,1,0.24699499418068172,,,,,,,,,,,,,,,,57,001,21,w,Psychologie,2023-01-24_09h11.31.047,00_bat_bachelor,2022.2.4,59.91129452473678,
,,,,,,,,,,,,1,0,1,0,162,0,162,0,,,,,,,162,,,0.2,2040.8922146967616,X,l,go,l,1,0.6092308560442916,,,,,,,,,,,,,,,,57,001,21,w,Psychologie,2023-01-24_09h11.31.047,00_bat_bachelor,2022.2.4,59.91129452473678,
,,,,,,,,,,,,1,0,1,0,163,0,163,0,,,,,,,163,,,0.2,2041.8096605419564,X,None,nogo,None,1,,,,,,,,,,,,,,,,,57,001,21,w,Psychologie,2023-01-24_09h11.31.047,00_bat_bachelor,2022.2.4,59.91129452473678,
,,,,,,,,,,,,1,0,1,0,164,0,164,0,,,,,,,164,,,0.2,2042.810714489377,Y,d,go,d,1,0.34713312734368174,,,,,,,,,,,,,,,,57,001,21,w,Psychologie,2023-01-24_09h11.31.047,00_bat_bachelor,2022.2.4,59.91129452473678,
,,,,,,,,,,,,1,0,1,0,165,0,165,0,,,,,,,165,,,0.2,2043.4614710217793,X,l,go,None,0,,,,,,,,,,,,,,,,,57,001,21,w,Psychologie,2023-01-24_09h11.31.047,00_bat_bachelor,2022.2.4,59.91129452473678,
,,,,,,,,,,,,1,0,1,0,166,0,166,0,,,,,,,166,,,0.2,2044.4625594306963,X,None,nogo,None,1,,,,,,,,,,,,,,,,,57,001,21,w,Psychologie,2023-01-24_09h11.31.047,00_bat_bachelor,2022.2.4,59.91129452473678,
,,,,,,,,,,,,1,0,1,0,167,0,167,0,,,,,,,167,,,0.2,2045.4633733784121,Y,d,go,d,1,0.2540280111653601,,,,,,,,,,,,,,,,57,001,21,w,Psychologie,2023-01-24_09h11.31.047,00_bat_bachelor,2022.2.4,59.91129452473678,
,,,,,,,,,,,,1,0,1,0,168,0,168,0,,,,,,,168,,,0.2,2046.030599757211,X,l,go,l,1,0.35826952389390954,,,,,,,,,,,,,,,,57,001,21,w,Psychologie,2023-01-24_09h11.31.047,00_bat_bachelor,2022.2.4,59.91129452473678,
,,,,,,,,,,,,1,0,1,0,169,0,169,0,,,,,,,169,,,0.2,2046.697983961456,X,None,nogo,None,1,,,,,,,,,,,,,,,,,57,001,21,w,Psychologie,2023-01-24_09h11.31.047,00_bat_bachelor,2022.2.4,59.91129452473678,
,,,,,,,,,,,,1,0,1,0,170,0,170,0,,,,,,,170,,,0.2,2047.6989517551365,Y,d,go,d,1,0.21787174797339048,,,,,,,,,,,,,,,,57,001,21,w,Psychologie,2023-01-24_09h11.31.047,00_bat_bachelor,2022.2.4,59.91129452473678,
,,,,,,,,,,,,1,0,1,0,171,0,171,0,,,,,,,171,,,0.2,2048.2328157134575,X,l,go,l,1,0.48375736944774417,,,,,,,,,,,,,,,,57,001,21,w,Psychologie,2023-01-24_09h11.31.047,00_bat_bachelor,2022.2.4,59.91129452473678,
,,,,,,,,,,,,1,0,1,0,172,0,172,0,,,,,,,172,,,0.2,2049.016923466351,Y,d,go,None,0,,,,,,,,,,,,,,,,,57,001,21,w,Psychologie,2023-01-24_09h11.31.047,00_bat_bachelor,2022.2.4,59.91129452473678,
,,,,,,,,,,,,1,0,1,0,173,0,173,0,,,,,,,173,,,0.2,2050.0179593625116,X,l,go,l,1,0.39501286328697915,,,,,,,,,,,,,,,,57,001,21,w,Psychologie,2023-01-24_09h11.31.047,00_bat_bachelor,2022.2.4,59.91129452473678,
,,,,,,,,,,,,1,0,1,0,174,0,174,0,,,,,,,174,,,0.2,2050.7187031154426,X,None,nogo,None,1,,,,,,,,,,,,,,,,,57,001,21,w,Psychologie,2023-01-24_09h11.31.047,00_bat_bachelor,2022.2.4,59.91129452473678,
,,,,,,,,,,,,1,0,1,0,175,0,175,0,,,,,,,175,,,0.2,2051.7194657811706,Y,d,go,d,1,0.5169831747076614,,,,,,,,,,,,,,,,57,001,21,w,Psychologie,2023-01-24_09h11.31.047,00_bat_bachelor,2022.2.4,59.91129452473678,
,,,,,,,,,,,,1,0,1,0,176,0,176,0,,,,,,,176,,,0.2,2052.5372132875323,X,l,go,l,1,0.4835657799395676,,,,,,,,,,,,,,,,57,001,21,w,Psychologie,2023-01-24_09h11.31.047,00_bat_bachelor,2022.2.4,59.91129452473678,
,,,,,,,,,,,,1,0,1,0,177,0,177,0,,,,,,,177,,,0.2,2053.3214949889293,X,None,nogo,None,1,,,,,,,,,,,,,,,,,57,001,21,w,Psychologie,2023-01-24_09h11.31.047,00_bat_bachelor,2022.2.4,59.91129452473678,
,,,,,,,,,,,,1,0,1,0,178,0,178,0,,,,,,,178,,,0.2,2054.322112834323,X,None,nogo,d,0,0.282807873180559,,,,,,,,,,,,,,,,57,001,21,w,Psychologie,2023-01-24_09h11.31.047,00_bat_bachelor,2022.2.4,59.91129452473678,
,,,,,,,,,,,,1,0,1,0,179,0,179,0,,,,,,,179,,,0.2,2054.90618267957,Y,d,go,None,0,,,,,,,,,,,,,,,,,57,001,21,w,Psychologie,2023-01-24_09h11.31.047,00_bat_bachelor,2022.2.4,59.91129452473678,
,,,,,,,,,,,,1,0,1,0,180,0,180,0,,,,,,,180,,,0.2,2055.9071947808884,X,l,go,l,1,0.2180772861817104,,,,,,,,,,,,,,,,57,001,21,w,Psychologie,2023-01-24_09h11.31.047,00_bat_bachelor,2022.2.4,59.91129452473678,
,,,,,,,,,,,,1,0,1,0,181,0,181,0,,,,,,,181,,,0.2,2056.441154739092,X,None,nogo,None,1,,,,,,,,,,,,,,,,,57,001,21,w,Psychologie,2023-01-24_09h11.31.047,00_bat_bachelor,2022.2.4,59.91129452473678,
,,,,,,,,,,,,1,0,1,0,182,0,182,0,,,,,,,182,,,0.2,2057.441993712418,Y,d,go,d,1,0.48252619147535825,,,,,,,,,,,,,,,,57,001,21,w,Psychologie,2023-01-24_09h11.31.047,00_bat_bachelor,2022.2.4,59.91129452473678,
,,,,,,,,,,,,1,0,1,0,183,0,183,0,,,,,,,183,,,0.2,2058.22613961911,X,l,go,None,0,,,,,,,,,,,,,,,,,57,001,21,w,Psychologie,2023-01-24_09h11.31.047,00_bat_bachelor,2022.2.4,59.91129452473678,
,,,,,,,,,,,,1,0,1,0,184,0,184,0,,,,,,,184,,,0.2,2059.2273260791885,X,None,nogo,None,1,,,,,,,,,,,,,,,,,57,001,21,w,Psychologie,2023-01-24_09h11.31.047,00_bat_bachelor,2022.2.4,59.91129452473678,
,,,,,,,,,,,,1,0,1,0,185,0,185,0,,,,,,,185,,,0.2,2060.2281847447985,Y,d,go,d,1,0.36835197302355027,,,,,,,,,,,,,,,,57,001,21,w,Psychologie,2023-01-24_09h11.31.047,00_bat_bachelor,2022.2.4,59.91129452473678,
,,,,,,,,,,,,1,0,1,0,186,0,186,0,,,,,,,186,,,0.2,2060.912215082402,X,l,go,l,1,0.39723152722274335,,,,,,,,,,,,,,,,57,001,21,w,Psychologie,2023-01-24_09h11.31.047,00_bat_bachelor,2022.2.4,59.91129452473678,
,,,,,,,,,,,,1,0,1,0,187,0,187,0,,,,,,,187,,,0.2,2061.6129461173996,X,None,nogo,None,1,,,,,,,,,,,,,,,,,57,001,21,w,Psychologie,2023-01-24_09h11.31.047,00_bat_bachelor,2022.2.4,59.91129452473678,
,,,,,,,,,,,,1,0,1,0,188,0,188,0,,,,,,,188,,,0.2,2062.6137145267103,Y,d,go,d,1,0.44689341481819156,,,,,,,,,,,,,,,,57,001,21,w,Psychologie,2023-01-24_09h11.31.047,00_bat_bachelor,2022.2.4,59.91129452473678,
,,,,,,,,,,,,1,0,1,0,189,0,189,0,,,,,,,189,,,0.2,2063.3646239614886,X,l,go,l,1,0.480333783917672,,,,,,,,,,,,,,,,57,001,21,w,Psychologie,2023-01-24_09h11.31.047,00_bat_bachelor,2022.2.4,59.91129452473678,
,,,,,,,,,,,,1,0,1,0,190,0,190,0,,,,,,,190,,,0.2,2064.148850278338,Y,d,go,d,1,0.6003668669537774,,,,,,,,,,,,,,,,57,001,21,w,Psychologie,2023-01-24_09h11.31.047,00_bat_bachelor,2022.2.4,59.91129452473678,
,,,,,,,,,,,,1,0,1,0,191,0,191,0,,,,,,,191,,,0.2,2065.049543323639,Y,None,nogo,None,1,,,,,,,,,,,,,,,,,57,001,21,w,Psychologie,2023-01-24_09h11.31.047,00_bat_bachelor,2022.2.4,59.91129452473678,
,,,,,,,,,,,,1,0,1,0,192,0,192,0,,,,,,,192,,,0.2,2066.050643629977,X,l,go,l,1,0.26600009899459565,,,,,,,,,,,,,,,,57,001,21,w,Psychologie,2023-01-24_09h11.31.047,00_bat_bachelor,2022.2.4,59.91129452473678,
,,,,,,,,,,,,1,0,1,0,193,0,193,0,,,,,,,193,,,0.2,2066.6179299061378,Y,d,go,None,0,,,,,,,,,,,,,,,,,57,001,21,w,Psychologie,2023-01-24_09h11.31.047,00_bat_bachelor,2022.2.4,59.91129452473678,
,,,,,,,,,,,,1,0,1,0,194,0,194,0,,,,,,,194,,,0.2,2067.6187586230662,X,l,go,l,1,0.41075397211818654,,,,,,,,,,,,,,,,57,001,21,w,Psychologie,2023-01-24_09h11.31.047,00_bat_bachelor,2022.2.4,59.91129452473678,
,,,,,,,,,,,,1,0,1,0,195,0,195,0,,,,,,,195,,,0.2,2068.336226457978,X,None,nogo,None,1,,,,,,,,,,,,,,,,,57,001,21,w,Psychologie,2023-01-24_09h11.31.047,00_bat_bachelor,2022.2.4,59.91129452473678,
,,,,,,,,,,,,1,0,1,0,196,0,196,0,,,,,,,196,,,0.2,2069.337288200261,Y,d,go,d,1,0.307381381397704,,,,,,,,,,,,,,,,57,001,21,w,Psychologie,2023-01-24_09h11.31.047,00_bat_bachelor,2022.2.4,59.91129452473678,
,,,,,,,,,,,,1,0,1,0,197,0,197,0,,,,,,,197,,,0.2,2069.954512055985,X,l,go,l,1,0.28241730955835465,,,,,,,,,,,,,,,,57,001,21,w,Psychologie,2023-01-24_09h11.31.047,00_bat_bachelor,2022.2.4,59.91129452473678,
,,,,,,,,,,,,1,0,1,0,198,0,198,0,,,,,,,198,,,0.2,2070.5385876448154,X,None,nogo,None,1,,,,,,,,,,,,,,,,,57,001,21,w,Psychologie,2023-01-24_09h11.31.047,00_bat_bachelor,2022.2.4,59.91129452473678,
,,,,,,,,,,,,1,0,1,0,199,0,199,0,,,,,,,199,,,0.2,2071.5395730795,Y,d,go,d,1,0.2415710008564247,,,,,,,,,,,,,,,,57,001,21,w,Psychologie,2023-01-24_09h11.31.047,00_bat_bachelor,2022.2.4,59.91129452473678,
,,,,,,,,,,,,1,0,1,0,200,0,200,0,,,,,,,200,,,0.2,2072.0901853249,X,l,go,l,1,0.55465164116697,,,,,,,,,,,,,,,,57,001,21,w,Psychologie,2023-01-24_09h11.31.047,00_bat_bachelor,2022.2.4,59.91129452473678,
,,,,,,,,,,,,1,0,1,0,201,0,201,0,,,,,,,201,,,0.2,2072.9574749241337,Y,d,go,d,1,0.43102020358549,,,,,,,,,,,,,,,,57,001,21,w,Psychologie,2023-01-24_09h11.31.047,00_bat_bachelor,2022.2.4,59.91129452473678,
,,,,,,,,,,,,1,0,1,0,202,0,202,0,,,,,,,202,,,0.2,2073.6915622257698,X,l,go,l,1,0.3776881666609597,,,,,,,,,,,,,,,,57,001,21,w,Psychologie,2023-01-24_09h11.31.047,00_bat_bachelor,2022.2.4,59.91129452473678,
,,,,,,,,,,,,1,0,1,0,203,0,203,0,,,,,,,203,,,0.2,2074.375638101779,X,None,nogo,d,0,0.5736460793278866,,,,,,,,,,,,,,,,57,001,21,w,Psychologie,2023-01-24_09h11.31.047,00_bat_bachelor,2022.2.4,59.91129452473678,
,,,,,,,,,,,,1,0,1,0,204,0,204,0,,,,,,,204,,,0.2,2075.2597789623233,Y,d,go,None,0,,,,,,,,,2076.0607642329055,,,,,,,,57,001,21,w,Psychologie,2023-01-24_09h11.31.047,00_bat_bachelor,2022.2.4,59.91129452473678,
,,,,,,,,,,,,1,0,1,0,205,0,205,0,,,,,,,205,,,0.2,2076.2607422431893,X,l,go,l,1,0.2398750029439043,,,,,,,,,,,,,,,,57,001,21,w,Psychologie,2023-01-24_09h11.31.047,00_bat_bachelor,2022.2.4,59.91129452473678,
,,,,,,,,,,,,1,0,1,0,206,0,206,0,,,,,,,206,,,0.2,2076.8114582833336,Y,d,go,d,1,0.5616936837824369,,,,,,,,,,,,,,,,57,001,21,w,Psychologie,2023-01-24_09h11.31.047,00_bat_bachelor,2022.2.4,59.91129452473678,
,,,,,,,,,,,,1,0,1,0,207,0,207,0,,,,,,,207,,,0.2,2077.679115471858,X,l,go,None,0,,,,,,,,,,,,,,,,,57,001,21,w,Psychologie,2023-01-24_09h11.31.047,00_bat_bachelor,2022.2.4,59.91129452473678,
,,,,,,,,,,,,1,0,1,0,208,0,208,0,,,,,,,208,,,0.2,2078.6800713681173,X,None,nogo,None,1,,,,,,,,,2079.48091633118,,,,,,,,57,001,21,w,Psychologie,2023-01-24_09h11.31.047,00_bat_bachelor,2022.2.4,59.91129452473678,
,,,,,,,,,,,,1,0,1,0,209,0,209,0,,,,,,,209,,,0.2,2079.681259879475,Y,d,go,d,1,0.30806158568850606,,,,,,,,,,,,,,,,57,001,21,w,Psychologie,2023-01-24_09h11.31.047,00_bat_bachelor,2022.2.4,59.91129452473678,
