loop_instruction.thisRepN,loop_instruction.thisTrialN,loop_instruction.thisN,loop_instruction.thisIndex,loop_rsi_practice.thisRepN,loop_rsi_practice.thisTrialN,loop_rsi_practice.thisN,loop_rsi_practice.thisIndex,loop_practice.thisRepN,loop_practice.thisTrialN,loop_practice.thisN,loop_practice.thisIndex,loop_exp.thisRepN,loop_exp.thisTrialN,loop_exp.thisN,loop_exp.thisIndex,loop_trials.thisRepN,loop_trials.thisTrialN,loop_trials.thisN,loop_trials.thisIndex,map_condition,map_x_key,map_y_key,key_resp_welcome.started,key_resp_welcome.keys,key_resp_welcome.rt,index,text_empty_rsi_practice.started,text_empty_rsi_practice.stopped,rsi,stimulus.started,stimulus,correct,trial_type,key_resp_trial.keys,key_resp_trial.corr,stimulus.stopped,key_resp_trial.rt,key_resp_instruction_rsi.started,key_resp_instruction_rsi.keys,key_resp_instruction_rsi.rt,key_resp_instruction_rsi.stopped,key_resp_instruction_final.started,key_resp_instruction_final.keys,key_resp_instruction_final.rt,key_resp_break.started,key_resp_break.keys,key_resp_break.rt,key_resp_break.stopped,key_resp_end_screen.started,image_end_screen.started,key_resp_end_screen.stopped,image_end_screen.stopped,key_resp_end_screen.keys,participant,session,Alter,Geschlecht (w/m/d/andere),Studiengang,date,expName,psychopyVersion,frameRate,
,,,,0,0,0,0,0,0,0,0,,,,,,,,,1,l,d,218.48071297910064,j,15.562748990720138,0,234.06852263351902,235.08345062634908,1,235.08345062634908,X,l,go,None,0,,,,,,,,,,,,,,,,,,,61,001,22,w,Psychologie,2023-01-24_15h06.27.853,00_bat_bachelor,2022.2.4,60.03373530239092,
,,,,0,0,0,0,1,0,1,0,,,,,,,,,,,,,,,1,236.48428340163082,237.48541164351627,1,237.48541164351627,Y,d,go,None,0,238.28596931602806,,,,,,,,,,,,,,,,,,61,001,22,w,Psychologie,2023-01-24_15h06.27.853,00_bat_bachelor,2022.2.4,60.03373530239092,
,,,,0,0,0,0,2,0,2,0,,,,,,,,,,,,,,,2,238.88665120652877,239.88737944862805,1,239.88737944862805,X,l,go,l,1,,0.27991324895992875,,,,,,,,,,,,,,,,,61,001,22,w,Psychologie,2023-01-24_15h06.27.853,00_bat_bachelor,2022.2.4,60.03373530239092,
,,,,0,0,0,0,3,0,3,0,,,,,,,,,,,,,,,3,240.87131448672153,241.8721891529858,1,241.8721891529858,Y,d,go,d,1,,0.3589027866255492,,,,,,,,,,,,,,,,,61,001,22,w,Psychologie,2023-01-24_15h06.27.853,00_bat_bachelor,2022.2.4,60.03373530239092,
,,,,0,0,0,0,4,0,4,0,,,,,,,,,,,,,,,4,242.93971736263484,243.94031954417005,1,243.94031954417005,X,l,go,l,1,,0.4028314924798906,,,,,,,,,,,,,,,,,61,001,22,w,Psychologie,2023-01-24_15h06.27.853,00_bat_bachelor,2022.2.4,60.03373530239092,
,,,,0,0,0,0,5,0,5,0,,,,,,,,,,,,,,,5,245.0579500326421,246.05875342618674,1,246.05875342618674,X,None,nogo,None,1,246.8593765529804,,,,,,,,,,,,,,,,,,61,001,22,w,Psychologie,2023-01-24_15h06.27.853,00_bat_bachelor,2022.2.4,60.03373530239092,
,,,,0,0,0,0,6,0,6,0,,,,,,,,,,,,,,,6,247.4596322621219,248.46042547374964,1,248.46042547374964,Y,d,go,d,1,,0.2989348154515028,,,,,,,,,,,,,,,,,61,001,22,w,Psychologie,2023-01-24_15h06.27.853,00_bat_bachelor,2022.2.4,60.03373530239092,
,,,,0,0,0,0,7,0,7,0,,,,,,,,,,,,,,,7,249.46133989747614,250.46192947309464,1,250.46192947309464,X,l,go,l,1,,0.48977787466719747,,,,,,,,,,,,,,,,,61,001,22,w,Psychologie,2023-01-24_15h06.27.853,00_bat_bachelor,2022.2.4,60.03373530239092,
,,,,0,0,0,0,8,0,8,0,,,,,,,,,,,,,,,8,251.6794008826837,252.67998900380917,1,252.67998900380917,Y,d,go,d,1,,0.39943125168792903,,,,,,,,,,,,,,,,,61,001,22,w,Psychologie,2023-01-24_15h06.27.853,00_bat_bachelor,2022.2.4,60.03373530239092,
,,,,0,0,0,0,9,0,9,0,,,,,,,,,,,,,,,9,253.78098240937106,254.78178871190175,1,254.78178871190175,X,l,go,None,0,,,,,,,,,,,,,,,,,,,61,001,22,w,Psychologie,2023-01-24_15h06.27.853,00_bat_bachelor,2022.2.4,60.03373530239092,
,,,,0,0,0,0,10,0,10,0,,,,,,,,,,,,,,,10,256.1825351843145,257.1835354261566,1,257.1835354261566,Y,d,go,d,1,,0.5039383524563164,,,,,,,,,,,,,,,,,61,001,22,w,Psychologie,2023-01-24_15h06.27.853,00_bat_bachelor,2022.2.4,60.03373530239092,
,,,,0,0,0,0,11,0,11,0,,,,,,,,,,,,,,,11,258.4011164116673,259.4022465927992,1,259.4022465927992,X,l,go,l,1,,0.39687319239601493,,,,,,,,,,,,,,,,,61,001,22,w,Psychologie,2023-01-24_15h06.27.853,00_bat_bachelor,2022.2.4,60.03373530239092,
,,,,0,0,0,0,12,0,12,0,,,,,,,,,,,,,,,12,260.50304363504983,261.5036913922522,1,261.5036913922522,X,None,nogo,l,0,,0.5357099734246731,,,,,,,,,,,,,,,,,61,001,22,w,Psychologie,2023-01-24_15h06.27.853,00_bat_bachelor,2022.2.4,60.03373530239092,
,,,,0,0,0,0,13,0,13,0,,,,,,,,,,,,,,,13,263.17159264418297,264.1722433103714,1,264.1722433103714,Y,d,go,d,1,,0.6348396223038435,,,,,,,,,,,,,,,,,61,001,22,w,Psychologie,2023-01-24_15h06.27.853,00_bat_bachelor,2022.2.4,60.03373530239092,
,,,,0,0,0,0,14,0,14,0,,,,,,,,,,,,,,,14,265.52314398880117,266.52378398855217,1,266.52378398855217,X,l,go,l,1,,0.4267214201390743,,,,,,,,,,,,,,,,,61,001,22,w,Psychologie,2023-01-24_15h06.27.853,00_bat_bachelor,2022.2.4,60.03373530239092,
,,,,1,0,1,0,0,0,0,0,,,,,,,,,,,,,,,0,282.50291466526687,282.7027540835552,0.2,282.7027540835552,X,l,go,l,1,,0.5521676626522094,267.6684782213997,j,14.806361963506788,,,,,,,,,,,,,,61,001,22,w,Psychologie,2023-01-24_15h06.27.853,00_bat_bachelor,2022.2.4,60.03373530239092,
,,,,1,0,1,0,1,0,1,0,,,,,,,,,,,,,,,1,283.9706526203081,284.170791674871,0.2,284.170791674871,Y,d,go,d,1,,0.2521464745514095,,,,,,,,,,,,,,,,,61,001,22,w,Psychologie,2023-01-24_15h06.27.853,00_bat_bachelor,2022.2.4,60.03373530239092,
,,,,1,0,1,0,2,0,2,0,,,,,,,,,,,,,,,2,285.1380809028633,285.33832274517044,0.2,285.33832274517044,X,l,go,l,1,,0.2211704896762967,,,,,,,,,,,,,,,,,61,001,22,w,Psychologie,2023-01-24_15h06.27.853,00_bat_bachelor,2022.2.4,60.03373530239092,
,,,,1,0,1,0,3,0,3,0,,,,,,,,,,,,,,,3,286.27242023171857,286.4722717711702,0.2,286.4722717711702,Y,d,go,l,0,,0.4963305986020714,,,,,,,,,,,,,,,,,61,001,22,w,Psychologie,2023-01-24_15h06.27.853,00_bat_bachelor,2022.2.4,60.03373530239092,
,,,,1,0,1,0,4,0,4,0,,,,,,,,,,,,,,,4,287.67319676466286,287.8733566675801,0.2,287.8733566675801,Y,None,nogo,None,1,,,,,,,,,,,,,,,,,,,61,001,22,w,Psychologie,2023-01-24_15h06.27.853,00_bat_bachelor,2022.2.4,60.03373530239092,
,,,,1,0,1,0,5,0,5,0,,,,,,,,,,,,,,,5,289.2746975638438,289.4747488608118,0.2,289.4747488608118,X,l,go,l,1,,0.4209531806409359,,,,,,,,,,,,,,,,,61,001,22,w,Psychologie,2023-01-24_15h06.27.853,00_bat_bachelor,2022.2.4,60.03373530239092,
,,,,1,0,1,0,6,0,6,0,,,,,,,,,,,,,,,6,290.60911388648674,290.80914918356575,0.2,290.80914918356575,Y,d,go,d,1,,0.33430207101628184,,,,,,,,,,,,,,,,,61,001,22,w,Psychologie,2023-01-24_15h06.27.853,00_bat_bachelor,2022.2.4,60.03373530239092,
,,,,1,0,1,0,7,0,7,0,,,,,,,,,,,,,,,7,291.859869643813,292.0599636074621,0.2,292.0599636074621,X,l,go,l,1,,0.38030301849357784,,,,,,,,,,,,,,,,,61,001,22,w,Psychologie,2023-01-24_15h06.27.853,00_bat_bachelor,2022.2.4,60.03373530239092,
,,,,1,0,1,0,8,0,8,0,,,,,,,,,,,,,,,8,293.1442588393111,293.344476924045,0.2,293.344476924045,Y,d,go,d,1,,0.2954696051310748,,,,,,,,,,,,,,,,,61,001,22,w,Psychologie,2023-01-24_15h06.27.853,00_bat_bachelor,2022.2.4,60.03373530239092,
,,,,1,0,1,0,9,0,9,0,,,,,,,,,,,,,,,9,294.3449428630993,294.5453490689397,0.2,294.5453490689397,Y,None,nogo,None,1,,,,,,,,,,,,,,,,,,,61,001,22,w,Psychologie,2023-01-24_15h06.27.853,00_bat_bachelor,2022.2.4,60.03373530239092,
,,,,1,0,1,0,10,0,10,0,,,,,,,,,,,,,,,10,295.9463578441646,296.14629471697845,0.2,296.14629471697845,X,l,go,l,1,,0.3573483629152179,,,,,,,,,,,,,,,,,61,001,22,w,Psychologie,2023-01-24_15h06.27.853,00_bat_bachelor,2022.2.4,60.03373530239092,
,,,,1,0,1,0,11,0,11,0,,,,,,,,,,,,,,,11,297.21408038120717,297.41420876886696,0.2,297.41420876886696,Y,d,go,d,1,,0.2902463348582387,,,,,,,,,,,,,,,,,61,001,22,w,Psychologie,2023-01-24_15h06.27.853,00_bat_bachelor,2022.2.4,60.03373530239092,
,,,,1,0,1,0,12,0,12,0,,,,,,,,,,,,,,,12,298.41496464726515,298.6149980048649,0.2,298.6149980048649,X,l,go,l,1,,0.28788173012435436,,,,,,,,,,,,,,,,,61,001,22,w,Psychologie,2023-01-24_15h06.27.853,00_bat_bachelor,2022.2.4,60.03373530239092,
,,,,1,0,1,0,13,0,13,0,,,,,,,,,,,,,,,13,299.6164632162545,299.81682530092075,0.2,299.81682530092075,Y,d,go,d,1,,0.3665629040915519,,,,,,,,,,,,,,,,,61,001,22,w,Psychologie,2023-01-24_15h06.27.853,00_bat_bachelor,2022.2.4,60.03373530239092,
,,,,1,0,1,0,14,0,14,0,,,,,,,,,,,,,,,14,300.90105944196694,301.1008891633246,0.2,301.1008891633246,X,l,go,l,1,,0.2500427181366831,,,,,,,,,,,,,,,,,61,001,22,w,Psychologie,2023-01-24_15h06.27.853,00_bat_bachelor,2022.2.4,60.03373530239092,
,,,,,,,,,,,,,,,,,,,,,,,,,,,,,,,,,,,,,,302.10233013215475,None,,302.10233013215475,302.10233013215475,space,5.6198927205987275,,,,,,,,,,61,001,22,w,Psychologie,2023-01-24_15h06.27.853,00_bat_bachelor,2022.2.4,60.03373530239092,
,,,,,,,,,,,,0,0,0,0,0,0,0,0,,,,,,,0,,,1,308.73972036875784,X,l,go,l,1,,0.32341431896202266,,,,,,,,,,,,,,,,,61,001,22,w,Psychologie,2023-01-24_15h06.27.853,00_bat_bachelor,2022.2.4,60.03373530239092,
,,,,,,,,,,,,0,0,0,0,1,0,1,0,,,,,,,1,,,1,310.1737390672788,Y,d,go,d,1,,0.21834770310670137,,,,,,,,,,,,,,,,,61,001,22,w,Psychologie,2023-01-24_15h06.27.853,00_bat_bachelor,2022.2.4,60.03373530239092,
,,,,,,,,,,,,0,0,0,0,2,0,2,0,,,,,,,2,,,1,311.508295026375,X,l,go,l,1,,0.2918216069228947,,,,,,,,,,,,,,,,,61,001,22,w,Psychologie,2023-01-24_15h06.27.853,00_bat_bachelor,2022.2.4,60.03373530239092,
,,,,,,,,,,,,0,0,0,0,3,0,3,0,,,,,,,3,,,1,312.9090919229202,Y,d,go,d,1,,0.315412383293733,,,,,,,,,,,,,,,,,61,001,22,w,Psychologie,2023-01-24_15h06.27.853,00_bat_bachelor,2022.2.4,60.03373530239092,
,,,,,,,,,,,,0,0,0,0,4,0,4,0,,,,,,,4,,,1,314.3270674778614,Y,None,nogo,l,0,,0.28775857854634523,,,,,,,,,,,,,,,,,61,001,22,w,Psychologie,2023-01-24_15h06.27.853,00_bat_bachelor,2022.2.4,60.03373530239092,
,,,,,,,,,,,,0,0,0,0,5,0,5,0,,,,,,,5,,,1,315.7281446168199,X,l,go,l,1,,0.40745985391549766,,,,,,,,,,,,,,,,,61,001,22,w,Psychologie,2023-01-24_15h06.27.853,00_bat_bachelor,2022.2.4,60.03373530239092,
,,,,,,,,,,,,0,0,0,0,6,0,6,0,,,,,,,6,,,1,317.2459950323682,Y,d,go,d,1,,0.44142638286575675,,,,,,,,,,,,,,,,,61,001,22,w,Psychologie,2023-01-24_15h06.27.853,00_bat_bachelor,2022.2.4,60.03373530239092,
,,,,,,,,,,,,0,0,0,0,7,0,7,0,,,,,,,7,,,1,318.79712009849027,X,l,go,l,1,,0.42743026837706566,,,,,,,,,,,,,,,,,61,001,22,w,Psychologie,2023-01-24_15h06.27.853,00_bat_bachelor,2022.2.4,60.03373530239092,
,,,,,,,,,,,,0,0,0,0,8,0,8,0,,,,,,,8,,,1,320.3317564453464,Y,d,go,d,1,,0.3162443828769028,,,,,,,,,,,,,,,,,61,001,22,w,Psychologie,2023-01-24_15h06.27.853,00_bat_bachelor,2022.2.4,60.03373530239092,
,,,,,,,,,,,,0,0,0,0,9,0,9,0,,,,,,,9,,,1,321.7493538185954,X,l,go,l,1,,0.323453591670841,,,,,,,,,,,,,,,,,61,001,22,w,Psychologie,2023-01-24_15h06.27.853,00_bat_bachelor,2022.2.4,60.03373530239092,
,,,,,,,,,,,,0,0,0,0,10,0,10,0,,,,,,,10,,,1,323.18386075948365,Y,d,go,d,1,,0.3126007483806461,,,,,,,,,,,,,,,,,61,001,22,w,Psychologie,2023-01-24_15h06.27.853,00_bat_bachelor,2022.2.4,60.03373530239092,
,,,,,,,,,,,,0,0,0,0,11,0,11,0,,,,,,,11,,,1,324.6013301326893,X,l,go,l,1,,0.28636512462981045,,,,,,,,,,,,,,,,,61,001,22,w,Psychologie,2023-01-24_15h06.27.853,00_bat_bachelor,2022.2.4,60.03373530239092,
,,,,,,,,,,,,0,0,0,0,12,0,12,0,,,,,,,12,,,1,326.002537695691,X,None,nogo,None,1,,,,,,,,,,,,,,,,,,,61,001,22,w,Psychologie,2023-01-24_15h06.27.853,00_bat_bachelor,2022.2.4,60.03373530239092,
,,,,,,,,,,,,0,0,0,0,13,0,13,0,,,,,,,13,,,1,327.804207125213,Y,d,go,d,1,,0.37956556444987655,,,,,,,,,,,,,,,,,61,001,22,w,Psychologie,2023-01-24_15h06.27.853,00_bat_bachelor,2022.2.4,60.03373530239092,
,,,,,,,,,,,,0,0,0,0,14,0,14,0,,,,,,,14,,,1,329.288296102779,X,l,go,l,1,,0.31891589681617916,,,,,,,,,,,,,,,,,61,001,22,w,Psychologie,2023-01-24_15h06.27.853,00_bat_bachelor,2022.2.4,60.03373530239092,
,,,,,,,,,,,,0,0,0,0,15,0,15,0,,,,,,,15,,,1,330.7226784375962,Y,d,go,d,1,,0.22976200049743056,,,,,,,,,,,,,,,,,61,001,22,w,Psychologie,2023-01-24_15h06.27.853,00_bat_bachelor,2022.2.4,60.03373530239092,
,,,,,,,,,,,,0,0,0,0,16,0,16,0,,,,,,,16,,,1,332.05730421468616,X,l,go,l,1,,0.31811638199724257,,,,,,,,,,,,,,,,,61,001,22,w,Psychologie,2023-01-24_15h06.27.853,00_bat_bachelor,2022.2.4,60.03373530239092,
,,,,,,,,,,,,0,0,0,0,17,0,17,0,,,,,,,17,,,1,333.49165503447875,X,None,nogo,None,1,,,,,,,,,,,,,,,,,,,61,001,22,w,Psychologie,2023-01-24_15h06.27.853,00_bat_bachelor,2022.2.4,60.03373530239092,
,,,,,,,,,,,,0,0,0,0,18,0,18,0,,,,,,,18,,,1,335.2929302821867,Y,d,go,d,1,,0.29808972496539354,,,,,,,,,,,,,,,,,61,001,22,w,Psychologie,2023-01-24_15h06.27.853,00_bat_bachelor,2022.2.4,60.03373530239092,
,,,,,,,,,,,,0,0,0,0,19,0,19,0,,,,,,,19,,,1,336.6941063301638,X,l,go,l,1,,0.2578919264487922,,,,,,,,,,,,,,,,,61,001,22,w,Psychologie,2023-01-24_15h06.27.853,00_bat_bachelor,2022.2.4,60.03373530239092,
,,,,,,,,,,,,0,0,0,0,20,0,20,0,,,,,,,20,,,1,338.0617948791478,Y,d,go,d,1,,0.2652650137897581,,,,,,,,,,,,,,,,,61,001,22,w,Psychologie,2023-01-24_15h06.27.853,00_bat_bachelor,2022.2.4,60.03373530239092,
,,,,,,,,,,,,0,0,0,0,21,0,21,0,,,,,,,21,,,1,339.429561488796,X,l,go,l,1,,0.38588701584376395,,,,,,,,,,,,,,,,,61,001,22,w,Psychologie,2023-01-24_15h06.27.853,00_bat_bachelor,2022.2.4,60.03373530239092,
,,,,,,,,,,,,0,0,0,0,22,0,22,0,,,,,,,22,,,1,340.93070112448186,Y,d,go,d,1,,0.261929742526263,,,,,,,,,,,,,,,,,61,001,22,w,Psychologie,2023-01-24_15h06.27.853,00_bat_bachelor,2022.2.4,60.03373530239092,
,,,,,,,,,,,,0,0,0,0,23,0,23,0,,,,,,,23,,,1,342.29850506735966,Y,None,nogo,None,1,,,,,,,,,,,,,,,,,,,61,001,22,w,Psychologie,2023-01-24_15h06.27.853,00_bat_bachelor,2022.2.4,60.03373530239092,
,,,,,,,,,,,,0,0,0,0,24,0,24,0,,,,,,,24,,,1,344.09952916391194,X,l,go,l,1,,0.2129295237828046,,,,,,,,,,,,,,,,,61,001,22,w,Psychologie,2023-01-24_15h06.27.853,00_bat_bachelor,2022.2.4,60.03373530239092,
,,,,,,,,,,,,0,0,0,0,25,0,25,0,,,,,,,25,,,1,345.4175071916543,Y,d,go,d,1,,0.41451875935308635,,,,,,,,,,,,,,,,,61,001,22,w,Psychologie,2023-01-24_15h06.27.853,00_bat_bachelor,2022.2.4,60.03373530239092,
,,,,,,,,,,,,0,0,0,0,26,0,26,0,,,,,,,26,,,1,346.93544487981126,X,l,go,l,1,,0.30383372213691473,,,,,,,,,,,,,,,,,61,001,22,w,Psychologie,2023-01-24_15h06.27.853,00_bat_bachelor,2022.2.4,60.03373530239092,
,,,,,,,,,,,,0,0,0,0,27,0,27,0,,,,,,,27,,,1,348.3529351016041,X,None,nogo,None,1,,,,,,,,,,,,,,,,,,,61,001,22,w,Psychologie,2023-01-24_15h06.27.853,00_bat_bachelor,2022.2.4,60.03373530239092,
,,,,,,,,,,,,0,0,0,0,28,0,28,0,,,,,,,28,,,1,350.1541487737559,Y,d,go,d,1,,0.41446057753637433,,,,,,,,,,,,,,,,,61,001,22,w,Psychologie,2023-01-24_15h06.27.853,00_bat_bachelor,2022.2.4,60.03373530239092,
,,,,,,,,,,,,0,0,0,0,29,0,29,0,,,,,,,29,,,1,351.67219021962956,X,l,go,l,1,,0.2879927603062242,,,,,,,,,,,,,,,,,61,001,22,w,Psychologie,2023-01-24_15h06.27.853,00_bat_bachelor,2022.2.4,60.03373530239092,
,,,,,,,,,,,,0,0,0,0,30,0,30,0,,,,,,,30,,,1,353.0732780250255,X,None,nogo,None,1,,,,,,,,,,,,,,,,,,,61,001,22,w,Psychologie,2023-01-24_15h06.27.853,00_bat_bachelor,2022.2.4,60.03373530239092,
,,,,,,,,,,,,0,0,0,0,31,0,31,0,,,,,,,31,,,1,354.87439230340533,Y,d,go,d,1,,0.4139640931971371,,,,,,,,,,,,,,,,,61,001,22,w,Psychologie,2023-01-24_15h06.27.853,00_bat_bachelor,2022.2.4,60.03373530239092,
,,,,,,,,,,,,0,0,0,0,32,0,32,0,,,,,,,32,,,1,356.3924875673838,X,l,go,l,1,,0.30278451065532863,,,,,,,,,,,,,,,,,61,001,22,w,Psychologie,2023-01-24_15h06.27.853,00_bat_bachelor,2022.2.4,60.03373530239092,
,,,,,,,,,,,,0,0,0,0,33,0,33,0,,,,,,,33,,,1,357.8100160921458,X,None,nogo,l,0,,0.533956277417019,,,,,,,,,,,,,,,,,61,001,22,w,Psychologie,2023-01-24_15h06.27.853,00_bat_bachelor,2022.2.4,60.03373530239092,
,,,,,,,,,,,,0,0,0,0,34,0,34,0,,,,,,,34,,,1,359.4448686328251,Y,d,go,d,1,,0.37075635651126504,,,,,,,,,,,,,,,,,61,001,22,w,Psychologie,2023-01-24_15h06.27.853,00_bat_bachelor,2022.2.4,60.03373530239092,
,,,,,,,,,,,,0,0,0,0,35,0,35,0,,,,,,,35,,,1,360.9292407615576,X,l,go,l,1,,0.39006446837447584,,,,,,,,,,,,,,,,,61,001,22,w,Psychologie,2023-01-24_15h06.27.853,00_bat_bachelor,2022.2.4,60.03373530239092,
,,,,,,,,,,,,0,0,0,0,36,0,36,0,,,,,,,36,,,1,362.430369730806,X,None,nogo,None,1,,,,,,,,,,,,,,,,,,,61,001,22,w,Psychologie,2023-01-24_15h06.27.853,00_bat_bachelor,2022.2.4,60.03373530239092,
,,,,,,,,,,,,0,0,0,0,37,0,37,0,,,,,,,37,,,1,364.23166873632,Y,d,go,d,1,,0.33548267651349306,,,,,,,,,,,,,,,,,61,001,22,w,Psychologie,2023-01-24_15h06.27.853,00_bat_bachelor,2022.2.4,60.03373530239092,
,,,,,,,,,,,,0,0,0,0,38,0,38,0,,,,,,,38,,,1,365.68287724466063,X,l,go,l,1,,0.34113600733689964,,,,,,,,,,,,,,,,,61,001,22,w,Psychologie,2023-01-24_15h06.27.853,00_bat_bachelor,2022.2.4,60.03373530239092,
,,,,,,,,,,,,0,0,0,0,39,0,39,0,,,,,,,39,,,1,367.13396454113536,Y,d,go,d,1,,0.28170621767640114,,,,,,,,,,,,,,,,,61,001,22,w,Psychologie,2023-01-24_15h06.27.853,00_bat_bachelor,2022.2.4,60.03373530239092,
,,,,,,,,,,,,0,0,0,0,40,0,40,0,,,,,,,40,,,1,368.51841380936094,X,l,go,l,1,,0.30516366101801395,,,,,,,,,,,,,,,,,61,001,22,w,Psychologie,2023-01-24_15h06.27.853,00_bat_bachelor,2022.2.4,60.03373530239092,
,,,,,,,,,,,,0,0,0,0,41,0,41,0,,,,,,,41,,,1,369.9360751826316,Y,d,go,d,1,,0.28053482435643673,,,,,,,,,,,,,,,,,61,001,22,w,Psychologie,2023-01-24_15h06.27.853,00_bat_bachelor,2022.2.4,60.03373530239092,
,,,,,,,,,,,,0,0,0,0,42,0,42,0,,,,,,,42,,,1,371.3204977840651,X,l,go,l,1,,0.35116703249514103,,,,,,,,,,,,,,,,,61,001,22,w,Psychologie,2023-01-24_15h06.27.853,00_bat_bachelor,2022.2.4,60.03373530239092,
,,,,,,,,,,,,0,0,0,0,43,0,43,0,,,,,,,43,,,1,372.7880810725037,Y,d,go,d,1,,0.24375859997235239,,,,,,,,,,,,,,,,,61,001,22,w,Psychologie,2023-01-24_15h06.27.853,00_bat_bachelor,2022.2.4,60.03373530239092,
,,,,,,,,,,,,0,0,0,0,44,0,44,0,,,,,,,44,,,1,374.13940259907395,Y,None,nogo,None,1,374.93991857464425,,,,,,,,,,,,,,,,,,61,001,22,w,Psychologie,2023-01-24_15h06.27.853,00_bat_bachelor,2022.2.4,60.03373530239092,
,,,,,,,,,,,,0,0,0,0,45,0,45,0,,,,,,,45,,,1,375.9407384530641,X,l,go,l,1,,0.16381197213195264,,,,,,,,,,,,,,,,,61,001,22,w,Psychologie,2023-01-24_15h06.27.853,00_bat_bachelor,2022.2.4,60.03373530239092,
,,,,,,,,,,,,0,0,0,0,46,0,46,0,,,,,,,46,,,1,377.2083858384285,Y,d,go,d,1,,0.2227166707161814,,,,,,,,,,,,,,,,,61,001,22,w,Psychologie,2023-01-24_15h06.27.853,00_bat_bachelor,2022.2.4,60.03373530239092,
,,,,,,,,,,,,0,0,0,0,47,0,47,0,,,,,,,47,,,1,378.54242349462584,Y,None,nogo,None,1,,,,,,,,,,,,,,,,,,,61,001,22,w,Psychologie,2023-01-24_15h06.27.853,00_bat_bachelor,2022.2.4,60.03373530239092,
,,,,,,,,,,,,0,0,0,0,48,0,48,0,,,,,,,48,,,1,380.3438907423988,Y,None,nogo,l,0,,0.22348370077088475,,,,,,,,,,,,,,,,,61,001,22,w,Psychologie,2023-01-24_15h06.27.853,00_bat_bachelor,2022.2.4,60.03373530239092,
,,,,,,,,,,,,0,0,0,0,49,0,49,0,,,,,,,49,,,1,381.6782983378507,X,l,go,l,1,,0.40850324742496014,,,,,,,,,,,,,,,,,61,001,22,w,Psychologie,2023-01-24_15h06.27.853,00_bat_bachelor,2022.2.4,60.03373530239092,
,,,,,,,,,,,,0,0,0,0,50,0,50,0,,,,,,,50,,,1,383.19594172318466,Y,d,go,d,1,,0.4122486999258399,,,,,,,,,,,,,,,,,61,001,22,w,Psychologie,2023-01-24_15h06.27.853,00_bat_bachelor,2022.2.4,60.03373530239092,
,,,,,,,,,,,,0,0,0,0,51,0,51,0,,,,,,,51,,,1,384.71423819917254,Y,None,nogo,None,1,385.5147599929478,,,,,,,,,,,,,,,,,,61,001,22,w,Psychologie,2023-01-24_15h06.27.853,00_bat_bachelor,2022.2.4,60.03373530239092,
,,,,,,,,,,,,0,0,0,0,52,0,52,0,,,,,,,52,,,1,386.5157195075881,X,l,go,l,1,,0.3077226900495589,,,,,,,,,,,,,,,,,61,001,22,w,Psychologie,2023-01-24_15h06.27.853,00_bat_bachelor,2022.2.4,60.03373530239092,
,,,,,,,,,,,,0,0,0,0,53,0,53,0,,,,,,,53,,,1,387.9334793051239,Y,d,go,d,1,,0.34557770215906203,,,,,,,,,,,,,,,,,61,001,22,w,Psychologie,2023-01-24_15h06.27.853,00_bat_bachelor,2022.2.4,60.03373530239092,
,,,,,,,,,,,,0,0,0,0,54,0,54,0,,,,,,,54,,,1,389.3844007833395,X,l,go,l,1,,0.2719341015908867,,,,,,,,,,,,,,,,,61,001,22,w,Psychologie,2023-01-24_15h06.27.853,00_bat_bachelor,2022.2.4,60.03373530239092,
,,,,,,,,,,,,0,0,0,0,55,0,55,0,,,,,,,55,,,1,390.76912156655453,Y,d,go,d,1,,0.32726304419338703,,,,,,,,,,,,,,,,,61,001,22,w,Psychologie,2023-01-24_15h06.27.853,00_bat_bachelor,2022.2.4,60.03373530239092,
,,,,,,,,,,,,0,0,0,0,56,0,56,0,,,,,,,56,,,1,392.2031053560786,X,l,go,l,1,,0.3487568518612534,,,,,,,,,,,,,,,,,61,001,22,w,Psychologie,2023-01-24_15h06.27.853,00_bat_bachelor,2022.2.4,60.03373530239092,
,,,,,,,,,,,,0,0,0,0,57,0,57,0,,,,,,,57,,,1,393.653981258627,Y,d,go,d,1,,0.3062419635243714,,,,,,,,,,,,,,,,,61,001,22,w,Psychologie,2023-01-24_15h06.27.853,00_bat_bachelor,2022.2.4,60.03373530239092,
,,,,,,,,,,,,0,0,0,0,58,0,58,0,,,,,,,58,,,1,395.0719897833187,X,l,go,l,1,,0.2966831801459193,,,,,,,,,,,,,,,,,61,001,22,w,Psychologie,2023-01-24_15h06.27.853,00_bat_bachelor,2022.2.4,60.03373530239092,
,,,,,,,,,,,,0,0,0,0,59,0,59,0,,,,,,,59,,,1,396.4730780737009,Y,d,go,d,1,,0.27076173829846084,,,,,,,,,,,,,,,,,61,001,22,w,Psychologie,2023-01-24_15h06.27.853,00_bat_bachelor,2022.2.4,60.03373530239092,
,,,,,,,,,,,,0,0,0,0,60,0,60,0,,,,,,,60,,,1,397.85714091779664,Y,None,nogo,None,1,,,,,,,,,,,,,,,,,,,61,001,22,w,Psychologie,2023-01-24_15h06.27.853,00_bat_bachelor,2022.2.4,60.03373530239092,
,,,,,,,,,,,,0,0,0,0,61,0,61,0,,,,,,,61,,,1,399.6585199232213,X,l,go,l,1,,0.3009992993902415,,,,,,,,,,,,,,,,,61,001,22,w,Psychologie,2023-01-24_15h06.27.853,00_bat_bachelor,2022.2.4,60.03373530239092,
,,,,,,,,,,,,0,0,0,0,62,0,62,0,,,,,,,62,,,1,401.07653184165247,Y,d,go,d,1,,0.2915423344820738,,,,,,,,,,,,,,,,,61,001,22,w,Psychologie,2023-01-24_15h06.27.853,00_bat_bachelor,2022.2.4,60.03373530239092,
,,,,,,,,,,,,0,0,0,0,63,0,63,0,,,,,,,63,,,1,402.4773437685799,Y,None,nogo,None,1,403.27816713787615,,,,,,,,,,,,,,,,,,61,001,22,w,Psychologie,2023-01-24_15h06.27.853,00_bat_bachelor,2022.2.4,60.03373530239092,
,,,,,,,,,,,,0,0,0,0,64,0,64,0,,,,,,,64,,,1,404.2793026524596,X,l,go,l,1,,0.25556513969786465,,,,,,,,,,,,,,,,,61,001,22,w,Psychologie,2023-01-24_15h06.27.853,00_bat_bachelor,2022.2.4,60.03373530239092,
,,,,,,,,,,,,0,0,0,0,65,0,65,0,,,,,,,65,,,1,405.6468355653342,Y,d,go,d,1,,0.28149821795523167,,,,,,,,,,,,,,,,,61,001,22,w,Psychologie,2023-01-24_15h06.27.853,00_bat_bachelor,2022.2.4,60.03373530239092,
,,,,,,,,,,,,0,0,0,0,66,0,66,0,,,,,,,66,,,1,407.0310588940047,X,l,go,l,1,,0.25615132111124694,,,,,,,,,,,,,,,,,61,001,22,w,Psychologie,2023-01-24_15h06.27.853,00_bat_bachelor,2022.2.4,60.03373530239092,
,,,,,,,,,,,,0,0,0,0,67,0,67,0,,,,,,,67,,,1,408.3989636853803,Y,d,go,d,1,,0.24807714321650565,,,,,,,,,,,,,,,,,61,001,22,w,Psychologie,2023-01-24_15h06.27.853,00_bat_bachelor,2022.2.4,60.03373530239092,
,,,,,,,,,,,,0,0,0,0,68,0,68,0,,,,,,,68,,,1,409.7499909091275,Y,None,nogo,None,1,410.55058494512923,,,,,,,,,,,,,,,,,,61,001,22,w,Psychologie,2023-01-24_15h06.27.853,00_bat_bachelor,2022.2.4,60.03373530239092,
,,,,,,,,,,,,0,0,0,0,69,0,69,0,,,,,,,69,,,1,411.5511337935459,X,l,go,l,1,,0.2805862184613943,,,,,,,,,,,,,,,,,61,001,22,w,Psychologie,2023-01-24_15h06.27.853,00_bat_bachelor,2022.2.4,60.03373530239092,
,,,,,,,,,,,,0,0,0,0,70,0,70,0,,,,,,,70,,,1,412.95253093214706,Y,d,go,d,1,,0.23767666332423687,,,,,,,,,,,,,,,,,61,001,22,w,Psychologie,2023-01-24_15h06.27.853,00_bat_bachelor,2022.2.4,60.03373530239092,
,,,,,,,,,,,,0,0,0,0,71,0,71,0,,,,,,,71,,,1,414.32040808722377,X,l,go,l,1,,0.32692268094979227,,,,,,,,,,,,,,,,,61,001,22,w,Psychologie,2023-01-24_15h06.27.853,00_bat_bachelor,2022.2.4,60.03373530239092,
,,,,,,,,,,,,0,0,0,0,72,0,72,0,,,,,,,72,,,1,415.7547957552597,X,None,nogo,l,0,,0.36427442030981183,,,,,,,,,,,,,,,,,61,001,22,w,Psychologie,2023-01-24_15h06.27.853,00_bat_bachelor,2022.2.4,60.03373530239092,
,,,,,,,,,,,,0,0,0,0,73,0,73,0,,,,,,,73,,,1,417.22280425578356,Y,d,go,d,1,,0.4004644635133445,,,,,,,,,,,,,,,,,61,001,22,w,Psychologie,2023-01-24_15h06.27.853,00_bat_bachelor,2022.2.4,60.03373530239092,
,,,,,,,,,,,,0,0,0,0,74,0,74,0,,,,,,,74,,,1,418.7237164976541,X,l,go,l,1,,0.4032576740719378,,,,,,,,,,,,,,,,,61,001,22,w,Psychologie,2023-01-24_15h06.27.853,00_bat_bachelor,2022.2.4,60.03373530239092,
,,,,,,,,,,,,0,0,0,0,75,0,75,0,,,,,,,75,,,1,420.24134485283867,Y,d,go,d,1,,0.3739781731273979,,,,,,,,,,,,,,,,,61,001,22,w,Psychologie,2023-01-24_15h06.27.853,00_bat_bachelor,2022.2.4,60.03373530239092,
,,,,,,,,,,,,0,0,0,0,76,0,76,0,,,,,,,76,,,1,421.7425426703412,X,l,go,l,1,,0.40801403555087745,,,,,,,,,,,,,,,,,61,001,22,w,Psychologie,2023-01-24_15h06.27.853,00_bat_bachelor,2022.2.4,60.03373530239092,
,,,,,,,,,,,,0,0,0,0,77,0,77,0,,,,,,,77,,,1,423.27724835043773,X,None,nogo,None,1,,,,,,,,,,,,,,,,,,,61,001,22,w,Psychologie,2023-01-24_15h06.27.853,00_bat_bachelor,2022.2.4,60.03373530239092,
,,,,,,,,,,,,0,0,0,0,78,0,78,0,,,,,,,78,,,1,425.0786724467762,Y,d,go,d,1,,0.2727248889859766,,,,,,,,,,,,,,,,,61,001,22,w,Psychologie,2023-01-24_15h06.27.853,00_bat_bachelor,2022.2.4,60.03373530239092,
,,,,,,,,,,,,0,0,0,0,79,0,79,0,,,,,,,79,,,1,426.49640315328725,X,l,go,l,1,,0.3585842412430793,,,,,,,,,,,,,,,,,61,001,22,w,Psychologie,2023-01-24_15h06.27.853,00_bat_bachelor,2022.2.4,60.03373530239092,
,,,,,,,,,,,,0,0,0,0,80,0,80,0,,,,,,,80,,,1,427.9642579567153,Y,d,go,d,1,,0.26673216465860605,,,,,,,,,,,,,,,,,61,001,22,w,Psychologie,2023-01-24_15h06.27.853,00_bat_bachelor,2022.2.4,60.03373530239092,
,,,,,,,,,,,,0,0,0,0,81,0,81,0,,,,,,,81,,,1,429.36554261064157,X,l,go,l,1,,0.3213600169401616,,,,,,,,,,,,,,,,,61,001,22,w,Psychologie,2023-01-24_15h06.27.853,00_bat_bachelor,2022.2.4,60.03373530239092,
,,,,,,,,,,,,0,0,0,0,82,0,82,0,,,,,,,82,,,1,430.8332655355334,Y,d,go,d,1,,0.3089862046763301,,,,,,,,,,,,,,,,,61,001,22,w,Psychologie,2023-01-24_15h06.27.853,00_bat_bachelor,2022.2.4,60.03373530239092,
,,,,,,,,,,,,0,0,0,0,83,0,83,0,,,,,,,83,,,1,432.26747187040746,Y,None,nogo,None,1,433.06813863362186,,,,,,,,,,,,,,,,,,61,001,22,w,Psychologie,2023-01-24_15h06.27.853,00_bat_bachelor,2022.2.4,60.03373530239092,
,,,,,,,,,,,,0,0,0,0,84,0,84,0,,,,,,,84,,,1,434.06884408788756,X,l,go,l,1,,0.27326210075989366,,,,,,,,,,,,,,,,,61,001,22,w,Psychologie,2023-01-24_15h06.27.853,00_bat_bachelor,2022.2.4,60.03373530239092,
,,,,,,,,,,,,0,0,0,0,85,0,85,0,,,,,,,85,,,1,435.48691806709394,Y,d,go,d,1,,0.2956155443098396,,,,,,,,,,,,,,,,,61,001,22,w,Psychologie,2023-01-24_15h06.27.853,00_bat_bachelor,2022.2.4,60.03373530239092,
,,,,,,,,,,,,0,0,0,0,86,0,86,0,,,,,,,86,,,1,436.9046104706358,X,l,go,l,1,,0.254306958289817,,,,,,,,,,,,,,,,,61,001,22,w,Psychologie,2023-01-24_15h06.27.853,00_bat_bachelor,2022.2.4,60.03373530239092,
,,,,,,,,,,,,0,0,0,0,87,0,87,0,,,,,,,87,,,1,438.28871937515214,Y,d,go,d,1,,0.3734065368771553,,,,,,,,,,,,,,,,,61,001,22,w,Psychologie,2023-01-24_15h06.27.853,00_bat_bachelor,2022.2.4,60.03373530239092,
,,,,,,,,,,,,0,0,0,0,88,0,88,0,,,,,,,88,,,1,439.8066216695588,Y,None,nogo,None,1,440.60741303884424,,,,,,,,,,,,,,,,,,61,001,22,w,Psychologie,2023-01-24_15h06.27.853,00_bat_bachelor,2022.2.4,60.03373530239092,
,,,,,,,,,,,,0,0,0,0,89,0,89,0,,,,,,,89,,,1,441.60788043262437,Y,None,nogo,None,1,442.40904755936936,,,,,,,,,,,,,,,,,,61,001,22,w,Psychologie,2023-01-24_15h06.27.853,00_bat_bachelor,2022.2.4,60.03373530239092,
,,,,,,,,,,,,0,0,0,0,90,0,90,0,,,,,,,90,,,1,443.40928271063603,X,l,go,l,1,,0.2630890146829188,,,,,,,,,,,,,,,,,61,001,22,w,Psychologie,2023-01-24_15h06.27.853,00_bat_bachelor,2022.2.4,60.03373530239092,
,,,,,,,,,,,,0,0,0,0,91,0,91,0,,,,,,,91,,,1,444.77696738089435,Y,d,go,d,1,,0.2701387081760913,,,,,,,,,,,,,,,,,61,001,22,w,Psychologie,2023-01-24_15h06.27.853,00_bat_bachelor,2022.2.4,60.03373530239092,
,,,,,,,,,,,,0,0,0,0,92,0,92,0,,,,,,,92,,,1,446.1778374896385,Y,None,nogo,None,1,446.97862255596556,,,,,,,,,,,,,,,,,,61,001,22,w,Psychologie,2023-01-24_15h06.27.853,00_bat_bachelor,2022.2.4,60.03373530239092,
,,,,,,,,,,,,0,0,0,0,93,0,93,0,,,,,,,93,,,1,447.9791840100661,X,l,go,l,1,,0.31620801938697696,,,,,,,,,,,,,,,,,61,001,22,w,Psychologie,2023-01-24_15h06.27.853,00_bat_bachelor,2022.2.4,60.03373530239092,
,,,,,,,,,,,,0,0,0,0,94,0,94,0,,,,,,,94,,,1,449.397154716542,Y,d,go,d,1,,0.4981972645036876,,,,,,,,,,,,,,,,,61,001,22,w,Psychologie,2023-01-24_15h06.27.853,00_bat_bachelor,2022.2.4,60.03373530239092,
,,,,,,,,,,,,0,0,0,0,95,0,95,0,,,,,,,95,,,1,451.01483926549554,X,l,go,l,1,,0.352105698781088,,,,,,,,,,,,,,,,,61,001,22,w,Psychologie,2023-01-24_15h06.27.853,00_bat_bachelor,2022.2.4,60.03373530239092,
,,,,,,,,,,,,0,0,0,0,96,0,96,0,,,,,,,96,,,1,452.48281091754325,Y,d,go,d,1,,0.276321008335799,,,,,,,,,,,,,,,,,61,001,22,w,Psychologie,2023-01-24_15h06.27.853,00_bat_bachelor,2022.2.4,60.03373530239092,
,,,,,,,,,,,,0,0,0,0,97,0,97,0,,,,,,,97,,,1,453.8836669656448,X,l,go,l,1,,0.25035932403989136,,,,,,,,,,,,,,,,,61,001,22,w,Psychologie,2023-01-24_15h06.27.853,00_bat_bachelor,2022.2.4,60.03373530239092,
,,,,,,,,,,,,0,0,0,0,98,0,98,0,,,,,,,98,,,1,455.2513700600248,Y,d,go,d,1,,0.324813106097281,,,,,,,,,,,,,,,,,61,001,22,w,Psychologie,2023-01-24_15h06.27.853,00_bat_bachelor,2022.2.4,60.03373530239092,
,,,,,,,,,,,,0,0,0,0,99,0,99,0,,,,,,,99,,,1,456.6857562735677,Y,None,nogo,None,1,,,,,,,,,,,,,,,,,,,61,001,22,w,Psychologie,2023-01-24_15h06.27.853,00_bat_bachelor,2022.2.4,60.03373530239092,
,,,,,,,,,,,,0,0,0,0,100,0,100,0,,,,,,,100,,,1,458.4869515215978,X,l,go,l,1,,0.4000984027516097,,,,,,,,,,,,,,,,,61,001,22,w,Psychologie,2023-01-24_15h06.27.853,00_bat_bachelor,2022.2.4,60.03373530239092,
,,,,,,,,,,,,0,0,0,0,101,0,101,0,,,,,,,101,,,1,459.988134308951,Y,d,go,d,1,,0.3081905688159168,,,,,,,,,,,,,,,,,61,001,22,w,Psychologie,2023-01-24_15h06.27.853,00_bat_bachelor,2022.2.4,60.03373530239092,
,,,,,,,,,,,,0,0,0,0,102,0,102,0,,,,,,,102,,,1,461.40582234878093,Y,None,nogo,None,1,,,,,,,,,,,,,,,,,,,61,001,22,w,Psychologie,2023-01-24_15h06.27.853,00_bat_bachelor,2022.2.4,60.03373530239092,
,,,,,,,,,,,,0,0,0,0,103,0,103,0,,,,,,,103,,,1,463.20749662676826,X,l,go,l,1,,0.2234613976906985,,,,,,,,,,,,,,,,,61,001,22,w,Psychologie,2023-01-24_15h06.27.853,00_bat_bachelor,2022.2.4,60.03373530239092,
,,,,,,,,,,,,0,0,0,0,104,0,104,0,,,,,,,104,,,1,464.54140143445693,Y,d,go,d,1,,0.26593458908610046,,,,,,,,,,,,,,,,,61,001,22,w,Psychologie,2023-01-24_15h06.27.853,00_bat_bachelor,2022.2.4,60.03373530239092,
,,,,,,,,,,,,0,0,0,0,105,0,105,0,,,,,,,105,,,1,465.9089804077521,X,l,go,l,1,,0.3058376000262797,,,,,,,,,,,,,,,,,61,001,22,w,Psychologie,2023-01-24_15h06.27.853,00_bat_bachelor,2022.2.4,60.03373530239092,
,,,,,,,,,,,,0,0,0,0,106,0,106,0,,,,,,,106,,,1,467.32677269005217,Y,d,go,d,1,,0.34470497514121234,,,,,,,,,,,,,,,,,61,001,22,w,Psychologie,2023-01-24_15h06.27.853,00_bat_bachelor,2022.2.4,60.03373530239092,
,,,,,,,,,,,,0,0,0,0,107,0,107,0,,,,,,,107,,,1,468.7779758651741,X,l,go,l,1,,0.2695568904746324,,,,,,,,,,,,,,,,,61,001,22,w,Psychologie,2023-01-24_15h06.27.853,00_bat_bachelor,2022.2.4,60.03373530239092,
,,,,,,,,,,,,0,0,0,0,108,0,108,0,,,,,,,108,,,1,470.16250901226886,Y,d,go,d,1,,0.27665506885387003,,,,,,,,,,,,,,,,,61,001,22,w,Psychologie,2023-01-24_15h06.27.853,00_bat_bachelor,2022.2.4,60.03373530239092,
,,,,,,,,,,,,0,0,0,0,109,0,109,0,,,,,,,109,,,1,471.5466184017714,X,l,go,l,1,,0.34901139745488763,,,,,,,,,,,,,,,,,61,001,22,w,Psychologie,2023-01-24_15h06.27.853,00_bat_bachelor,2022.2.4,60.03373530239092,
,,,,,,,,,,,,0,0,0,0,110,0,110,0,,,,,,,110,,,1,472.9978826676961,Y,d,go,d,1,,0.465746371075511,,,,,,,,,,,,,,,,,61,001,22,w,Psychologie,2023-01-24_15h06.27.853,00_bat_bachelor,2022.2.4,60.03373530239092,
,,,,,,,,,,,,0,0,0,0,111,0,111,0,,,,,,,111,,,1,474.56579754385166,X,l,go,l,1,,0.3214952894486487,,,,,,,,,,,,,,,,,61,001,22,w,Psychologie,2023-01-24_15h06.27.853,00_bat_bachelor,2022.2.4,60.03373530239092,
,,,,,,,,,,,,0,0,0,0,112,0,112,0,,,,,,,112,,,1,476.0,Y,d,go,d,1,,0.296291422797367,,,,,,,,,,,,,,,,,61,001,22,w,Psychologie,2023-01-24_15h06.27.853,00_bat_bachelor,2022.2.4,60.03373530239092,
,,,,,,,,,,,,0,0,0,0,113,0,113,0,,,,,,,113,,,1,477.40143738128245,Y,None,nogo,None,1,,,,,,,,,,,,,,,,,,,61,001,22,w,Psychologie,2023-01-24_15h06.27.853,00_bat_bachelor,2022.2.4,60.03373530239092,
,,,,,,,,,,,,0,0,0,0,114,0,114,0,,,,,,,114,,,1,479.20268741692416,X,l,go,l,1,,0.30921990144997835,,,,,,,,,,,,,,,,,61,001,22,w,Psychologie,2023-01-24_15h06.27.853,00_bat_bachelor,2022.2.4,60.03373530239092,
,,,,,,,,,,,,0,0,0,0,115,0,115,0,,,,,,,115,,,1,480.62039824482054,Y,d,go,d,1,,0.2346332708839327,,,,,,,,,,,,,,,,,61,001,22,w,Psychologie,2023-01-24_15h06.27.853,00_bat_bachelor,2022.2.4,60.03373530239092,
,,,,,,,,,,,,0,0,0,0,116,0,116,0,,,,,,,116,,,1,481.9714501956478,Y,None,nogo,None,1,,,,,,,,,,,,,,,,,,,61,001,22,w,Psychologie,2023-01-24_15h06.27.853,00_bat_bachelor,2022.2.4,60.03373530239092,
,,,,,,,,,,,,0,0,0,0,117,0,117,0,,,,,,,117,,,1,483.7727986557875,X,l,go,l,1,,0.25058671785518527,,,,,,,,,,,,,,,,,61,001,22,w,Psychologie,2023-01-24_15h06.27.853,00_bat_bachelor,2022.2.4,60.03373530239092,
,,,,,,,,,,,,0,0,0,0,118,0,118,0,,,,,,,118,,,1,485.1405419926159,Y,d,go,d,1,,0.3077333567198366,,,,,,,,,,,,,,,,,61,001,22,w,Psychologie,2023-01-24_15h06.27.853,00_bat_bachelor,2022.2.4,60.03373530239092,
,,,,,,,,,,,,0,0,0,0,119,0,119,0,,,,,,,119,,,1,486.5583192445338,X,l,go,l,1,,0.3765556262806058,,,,,,,,,,,,,,,,,61,001,22,w,Psychologie,2023-01-24_15h06.27.853,00_bat_bachelor,2022.2.4,60.03373530239092,
,,,,,,,,,,,,0,0,0,0,120,0,120,0,,,,,,,120,,,1,488.0427994944621,Y,d,go,d,1,,0.30058572394773364,,,,,,,,,,,,,,,,,61,001,22,w,Psychologie,2023-01-24_15h06.27.853,00_bat_bachelor,2022.2.4,60.03373530239092,
,,,,,,,,,,,,0,0,0,0,121,0,121,0,,,,,,,121,,,1,489.4603731101379,X,l,go,l,1,,0.2905357894487679,,,,,,,,,,,,,,,,,61,001,22,w,Psychologie,2023-01-24_15h06.27.853,00_bat_bachelor,2022.2.4,60.03373530239092,
,,,,,,,,,,,,0,0,0,0,122,0,122,0,,,,,,,122,,,1,490.8615709762089,Y,d,go,d,1,,0.2656630740966648,,,,,,,,,,,,,,,,,61,001,22,w,Psychologie,2023-01-24_15h06.27.853,00_bat_bachelor,2022.2.4,60.03373530239092,
,,,,,,,,,,,,0,0,0,0,123,0,123,0,,,,,,,123,,,1,492.22932643443346,X,l,go,l,1,,0.3384455842897296,,,,,,,,,,,,,,,,,61,001,22,w,Psychologie,2023-01-24_15h06.27.853,00_bat_bachelor,2022.2.4,60.03373530239092,
,,,,,,,,,,,,0,0,0,0,124,0,124,0,,,,,,,124,,,1,493.6805310640484,Y,d,go,d,1,,0.21424685674719512,,,,,,,,,,,,,,,,,61,001,22,w,Psychologie,2023-01-24_15h06.27.853,00_bat_bachelor,2022.2.4,60.03373530239092,
,,,,,,,,,,,,0,0,0,0,125,0,125,0,,,,,,,125,,,1,494.99778812238947,X,l,go,l,1,,0.32242328906431794,,,,,,,,,,,,,,,,,61,001,22,w,Psychologie,2023-01-24_15h06.27.853,00_bat_bachelor,2022.2.4,60.03373530239092,
,,,,,,,,,,,,0,0,0,0,126,0,126,0,,,,,,,126,,,1,496.4322921540588,Y,d,go,d,1,,0.24693435593508184,,,,,,,,,,,,,,,,,61,001,22,w,Psychologie,2023-01-24_15h06.27.853,00_bat_bachelor,2022.2.4,60.03373530239092,
,,,,,,,,,,,,0,0,0,0,127,0,127,0,,,,,,,127,,,1,497.78359234752133,X,l,go,l,1,,0.2401935108937323,,,,,,,,,,,,,,,,,61,001,22,w,Psychologie,2023-01-24_15h06.27.853,00_bat_bachelor,2022.2.4,60.03373530239092,
,,,,,,,,,,,,0,0,0,0,128,0,128,0,,,,,,,128,,,1,499.13448866223916,Y,d,go,d,1,,0.23319327179342508,,,,,,,,,,,,,,,,,61,001,22,w,Psychologie,2023-01-24_15h06.27.853,00_bat_bachelor,2022.2.4,60.03373530239092,
,,,,,,,,,,,,0,0,0,0,129,0,129,0,,,,,,,129,,,1,500.46879104548134,X,l,go,l,1,,0.25924125919118524,,,,,,,,,,,,,,,,,61,001,22,w,Psychologie,2023-01-24_15h06.27.853,00_bat_bachelor,2022.2.4,60.03373530239092,
,,,,,,,,,,,,0,0,0,0,130,0,130,0,,,,,,,130,,,1,501.8366580186412,Y,d,go,d,1,,0.315252868225798,,,,,,,,,,,,,,,,,61,001,22,w,Psychologie,2023-01-24_15h06.27.853,00_bat_bachelor,2022.2.4,60.03373530239092,
,,,,,,,,,,,,0,0,0,0,131,0,131,0,,,,,,,131,,,1,503.2541016950272,Y,None,nogo,None,1,504.0547127008904,,,,,,,,,,,,,,,,,,61,001,22,w,Psychologie,2023-01-24_15h06.27.853,00_bat_bachelor,2022.2.4,60.03373530239092,
,,,,,,,,,,,,0,0,0,0,132,0,132,0,,,,,,,132,,,1,505.05569936707616,X,l,go,l,1,,0.26332998438738286,,,,,,,,,,,,,,,,,61,001,22,w,Psychologie,2023-01-24_15h06.27.853,00_bat_bachelor,2022.2.4,60.03373530239092,
,,,,,,,,,,,,0,0,0,0,133,0,133,0,,,,,,,133,,,1,506.4234713099431,Y,d,go,d,1,,0.2724582222290337,,,,,,,,,,,,,,,,,61,001,22,w,Psychologie,2023-01-24_15h06.27.853,00_bat_bachelor,2022.2.4,60.03373530239092,
,,,,,,,,,,,,0,0,0,0,134,0,134,0,,,,,,,134,,,1,507.8078017903026,X,l,go,l,1,,0.2638153173029423,,,,,,,,,,,,,,,,,61,001,22,w,Psychologie,2023-01-24_15h06.27.853,00_bat_bachelor,2022.2.4,60.03373530239092,
,,,,,,,,,,,,0,0,0,0,135,0,135,0,,,,,,,135,,,1,509.17564936936833,X,None,nogo,None,1,,,,,,,,,,,,,,,,,,,61,001,22,w,Psychologie,2023-01-24_15h06.27.853,00_bat_bachelor,2022.2.4,60.03373530239092,
,,,,,,,,,,,,0,0,0,0,136,0,136,0,,,,,,,136,,,1,510.97724073845893,Y,d,go,d,1,,0.3433716425206512,,,,,,,,,,,,,,,,,61,001,22,w,Psychologie,2023-01-24_15h06.27.853,00_bat_bachelor,2022.2.4,60.03373530239092,
,,,,,,,,,,,,0,0,0,0,137,0,137,0,,,,,,,137,,,1,512.4283057318535,X,l,go,l,1,,0.25039665726944804,,,,,,,,,,,,,,,,,61,001,22,w,Psychologie,2023-01-24_15h06.27.853,00_bat_bachelor,2022.2.4,60.03373530239092,
,,,,,,,,,,,,0,0,0,0,138,0,138,0,,,,,,,138,,,1,513.7793319858611,Y,d,go,d,1,,0.34001406840980053,,,,,,,,,,,,,,,,,61,001,22,w,Psychologie,2023-01-24_15h06.27.853,00_bat_bachelor,2022.2.4,60.03373530239092,
,,,,,,,,,,,,0,0,0,0,139,0,139,0,,,,,,,139,,,1,515.230526433792,X,l,go,l,1,,0.2819374904502183,,,,,,,,,,,,,,,,,61,001,22,w,Psychologie,2023-01-24_15h06.27.853,00_bat_bachelor,2022.2.4,60.03373530239092,
,,,,,,,,,,,,0,0,0,0,140,0,140,0,,,,,,,140,,,1,516.6148932776414,X,None,nogo,None,1,517.4154776167125,,,,,,,,,,,,,,,,,,61,001,22,w,Psychologie,2023-01-24_15h06.27.853,00_bat_bachelor,2022.2.4,60.03373530239092,
,,,,,,,,,,,,0,0,0,0,141,0,141,0,,,,,,,141,,,1,518.4160734952893,Y,d,go,d,1,,0.2953362718690187,,,,,,,,,,,,,,,,,61,001,22,w,Psychologie,2023-01-24_15h06.27.853,00_bat_bachelor,2022.2.4,60.03373530239092,
,,,,,,,,,,,,0,0,0,0,142,0,142,0,,,,,,,142,,,1,519.8336606868543,X,l,go,l,1,,0.3341270408127457,,,,,,,,,,,,,,,,,61,001,22,w,Psychologie,2023-01-24_15h06.27.853,00_bat_bachelor,2022.2.4,60.03373530239092,
,,,,,,,,,,,,0,0,0,0,143,0,143,0,,,,,,,143,,,1,521.2847562255338,Y,d,go,d,1,,0.289935062173754,,,,,,,,,,,,,,,,,61,001,22,w,Psychologie,2023-01-24_15h06.27.853,00_bat_bachelor,2022.2.4,60.03373530239092,
,,,,,,,,,,,,0,0,0,0,144,0,144,0,,,,,,,144,,,1,522.6855419706553,Y,None,nogo,None,1,,,,,,,,,,,,,,,,,,,61,001,22,w,Psychologie,2023-01-24_15h06.27.853,00_bat_bachelor,2022.2.4,60.03373530239092,
,,,,,,,,,,,,0,0,0,0,145,0,145,0,,,,,,,145,,,1,524.4872002487537,X,l,go,l,1,,0.33635540353134274,,,,,,,,,,,,,,,,,61,001,22,w,Psychologie,2023-01-24_15h06.27.853,00_bat_bachelor,2022.2.4,60.03373530239092,
,,,,,,,,,,,,0,0,0,0,146,0,146,0,,,,,,,146,,,1,525.9383219694719,Y,d,go,d,1,,0.29374063620343804,,,,,,,,,,,,,,,,,61,001,22,w,Psychologie,2023-01-24_15h06.27.853,00_bat_bachelor,2022.2.4,60.03373530239092,
,,,,,,,,,,,,0,0,0,0,147,0,147,0,,,,,,,147,,,1,527.3394112293608,X,l,go,l,1,,0.26838210318237543,,,,,,,,,,,,,,,,,61,001,22,w,Psychologie,2023-01-24_15h06.27.853,00_bat_bachelor,2022.2.4,60.03373530239092,
,,,,,,,,,,,,0,0,0,0,148,0,148,0,,,,,,,148,,,1,528.7237116491888,Y,d,go,d,1,,0.26005337992683053,,,,,,,,,,,,,,,,,61,001,22,w,Psychologie,2023-01-24_15h06.27.853,00_bat_bachelor,2022.2.4,60.03373530239092,
,,,,,,,,,,,,0,0,0,0,149,0,149,0,,,,,,,149,,,1,530.0914564405102,Y,None,nogo,l,0,,0.29970233025960624,,,,,,,,,,,,,,,,,61,001,22,w,Psychologie,2023-01-24_15h06.27.853,00_bat_bachelor,2022.2.4,60.03373530239092,
,,,,,,,,,,,,0,0,0,0,150,0,150,0,,,,,,,150,,,1,531.4925481248647,X,l,go,l,1,,0.21173970634117723,,,,,,,,,,,,,,,,,61,001,22,w,Psychologie,2023-01-24_15h06.27.853,00_bat_bachelor,2022.2.4,60.03373530239092,
,,,,,,,,,,,,0,0,0,0,151,0,151,0,,,,,,,151,,,1,532.8099739104509,Y,d,go,d,1,,0.38159416941925883,,,,,,,,,,,,,,,,,61,001,22,w,Psychologie,2023-01-24_15h06.27.853,00_bat_bachelor,2022.2.4,60.03373530239092,
,,,,,,,,,,,,0,0,0,0,152,0,152,0,,,,,,,152,,,1,534.2944013117813,Y,None,nogo,None,1,,,,,,,,,,,,,,,,,,,61,001,22,w,Psychologie,2023-01-24_15h06.27.853,00_bat_bachelor,2022.2.4,60.03373530239092,
,,,,,,,,,,,,0,0,0,0,153,0,153,0,,,,,,,153,,,1,536.0960445594974,X,l,go,l,1,,0.2963049984537065,,,,,,,,,,,,,,,,,61,001,22,w,Psychologie,2023-01-24_15h06.27.853,00_bat_bachelor,2022.2.4,60.03373530239092,
,,,,,,,,,,,,0,0,0,0,154,0,154,0,,,,,,,154,,,1,537.4969233954325,Y,d,go,d,1,,0.3341318895108998,,,,,,,,,,,,,,,,,61,001,22,w,Psychologie,2023-01-24_15h06.27.853,00_bat_bachelor,2022.2.4,60.03373530239092,
,,,,,,,,,,,,0,0,0,0,155,0,155,0,,,,,,,155,,,1,538.9479316617362,Y,None,nogo,None,1,,,,,,,,,,,,,,,,,,,61,001,22,w,Psychologie,2023-01-24_15h06.27.853,00_bat_bachelor,2022.2.4,60.03373530239092,
,,,,,,,,,,,,0,0,0,0,156,0,156,0,,,,,,,156,,,1,540.7496103032026,X,l,go,l,1,,0.2988824520725757,,,,,,,,,,,,,,,,,61,001,22,w,Psychologie,2023-01-24_15h06.27.853,00_bat_bachelor,2022.2.4,60.03373530239092,
,,,,,,,,,,,,0,0,0,0,157,0,157,0,,,,,,,157,,,1,542.1503776242025,Y,d,go,d,1,,0.40107537200674415,,,,,,,,,,,,,,,,,61,001,22,w,Psychologie,2023-01-24_15h06.27.853,00_bat_bachelor,2022.2.4,60.03373530239092,
,,,,,,,,,,,,0,0,0,0,158,0,158,0,,,,,,,158,,,1,543.6684471911285,X,l,go,l,1,,0.25967034976929426,,,,,,,,,,,,,,,,,61,001,22,w,Psychologie,2023-01-24_15h06.27.853,00_bat_bachelor,2022.2.4,60.03373530239092,
,,,,,,,,,,,,0,0,0,0,159,0,159,0,,,,,,,159,,,1,545.0362196187489,Y,d,go,d,1,,0.25081071769818664,,,,,,,,,,,,,,,,,61,001,22,w,Psychologie,2023-01-24_15h06.27.853,00_bat_bachelor,2022.2.4,60.03373530239092,
,,,,,,,,,,,,0,0,0,0,160,0,160,0,,,,,,,160,,,1,546.4039227133617,Y,None,nogo,None,1,,,,,,,,,,,,,,,,,,,61,001,22,w,Psychologie,2023-01-24_15h06.27.853,00_bat_bachelor,2022.2.4,60.03373530239092,
,,,,,,,,,,,,0,0,0,0,161,0,161,0,,,,,,,161,,,1,548.2050956580788,X,l,go,l,1,,0.2344538769684732,,,,,,,,,,,,,,,,,61,001,22,w,Psychologie,2023-01-24_15h06.27.853,00_bat_bachelor,2022.2.4,60.03373530239092,
,,,,,,,,,,,,0,0,0,0,162,0,162,0,,,,,,,162,,,1,549.5562848213594,Y,d,go,d,1,,0.24394041788764298,,,,,,,,,,,,,,,,,61,001,22,w,Psychologie,2023-01-24_15h06.27.853,00_bat_bachelor,2022.2.4,60.03373530239092,
,,,,,,,,,,,,0,0,0,0,163,0,163,0,,,,,,,163,,,1,550.9073585905135,X,l,go,l,1,,0.33161407243460417,,,,,,,,,,,,,,,,,61,001,22,w,Psychologie,2023-01-24_15h06.27.853,00_bat_bachelor,2022.2.4,60.03373530239092,
,,,,,,,,,,,,0,0,0,0,164,0,164,0,,,,,,,164,,,1,552.3416745010763,Y,d,go,d,1,,0.25763301737606525,,,,,,,,,,,,,,,,,61,001,22,w,Psychologie,2023-01-24_15h06.27.853,00_bat_bachelor,2022.2.4,60.03373530239092,
,,,,,,,,,,,,0,0,0,0,165,0,165,0,,,,,,,165,,,1,553.7095070499927,Y,None,nogo,None,1,,,,,,,,,,,,,,,,,,,61,001,22,w,Psychologie,2023-01-24_15h06.27.853,00_bat_bachelor,2022.2.4,60.03373530239092,
,,,,,,,,,,,,0,0,0,0,166,0,166,0,,,,,,,166,,,1,555.5106339342892,X,l,go,l,1,,0.24056926812045276,,,,,,,,,,,,,,,,,61,001,22,w,Psychologie,2023-01-24_15h06.27.853,00_bat_bachelor,2022.2.4,60.03373530239092,
,,,,,,,,,,,,0,0,0,0,167,0,167,0,,,,,,,167,,,1,556.861606370192,Y,d,go,d,1,,0.23357581696473062,,,,,,,,,,,,,,,,,61,001,22,w,Psychologie,2023-01-24_15h06.27.853,00_bat_bachelor,2022.2.4,60.03373530239092,
,,,,,,,,,,,,0,0,0,0,168,0,168,0,,,,,,,168,,,1,558.196230692789,Y,None,nogo,None,1,,,,,,,,,,,,,,,,,,,61,001,22,w,Psychologie,2023-01-24_15h06.27.853,00_bat_bachelor,2022.2.4,60.03373530239092,
,,,,,,,,,,,,0,0,0,0,169,0,169,0,,,,,,,169,,,1,559.997539879987,X,l,go,l,1,,0.18588905222713947,,,,,,,,,,,,,,,,,61,001,22,w,Psychologie,2023-01-24_15h06.27.853,00_bat_bachelor,2022.2.4,60.03373530239092,
,,,,,,,,,,,,0,0,0,0,170,0,170,0,,,,,,,170,,,1,561.2985365826171,Y,d,go,d,1,,0.19664298626594245,,,,,,,,,,,,,,,,,61,001,22,w,Psychologie,2023-01-24_15h06.27.853,00_bat_bachelor,2022.2.4,60.03373530239092,
,,,,,,,,,,,,0,0,0,0,171,0,171,0,,,,,,,171,,,1,562.5996234668419,Y,None,nogo,None,1,,,,,,,,,,,,,,,,,,,61,001,22,w,Psychologie,2023-01-24_15h06.27.853,00_bat_bachelor,2022.2.4,60.03373530239092,
,,,,,,,,,,,,0,0,0,0,172,0,172,0,,,,,,,172,,,1,564.4006926543079,X,l,go,l,1,,0.18174602393992245,,,,,,,,,,,,,,,,,61,001,22,w,Psychologie,2023-01-24_15h06.27.853,00_bat_bachelor,2022.2.4,60.03373530239092,
,,,,,,,,,,,,0,0,0,0,173,0,173,0,,,,,,,173,,,1,565.6849950619508,Y,d,go,d,1,,0.2751428270712495,,,,,,,,,,,,,,,,,61,001,22,w,Psychologie,2023-01-24_15h06.27.853,00_bat_bachelor,2022.2.4,60.03373530239092,
,,,,,,,,,,,,0,0,0,0,174,0,174,0,,,,,,,174,,,1,567.0696159664076,Y,None,nogo,None,1,,,,,,,,,,,,,,,,,,,61,001,22,w,Psychologie,2023-01-24_15h06.27.853,00_bat_bachelor,2022.2.4,60.03373530239092,
,,,,,,,,,,,,0,0,0,0,175,0,175,0,,,,,,,175,,,1,568.8709653960541,X,l,go,l,1,,0.22420709440484643,,,,,,,,,,,,,,,,,61,001,22,w,Psychologie,2023-01-24_15h06.27.853,00_bat_bachelor,2022.2.4,60.03373530239092,
,,,,,,,,,,,,0,0,0,0,176,0,176,0,,,,,,,176,,,1,570.2053560216445,Y,d,go,d,1,,0.28219494479708374,,,,,,,,,,,,,,,,,61,001,22,w,Psychologie,2023-01-24_15h06.27.853,00_bat_bachelor,2022.2.4,60.03373530239092,
,,,,,,,,,,,,0,0,0,0,177,0,177,0,,,,,,,177,,,1,571.5897805625573,X,l,go,l,1,,0.4332576594315469,,,,,,,,,,,,,,,,,61,001,22,w,Psychologie,2023-01-24_15h06.27.853,00_bat_bachelor,2022.2.4,60.03373530239092,
,,,,,,,,,,,,0,0,0,0,178,0,178,0,,,,,,,178,,,1,573.1240033339709,Y,d,go,d,1,,0.32431371230632067,,,,,,,,,,,,,,,,,61,001,22,w,Psychologie,2023-01-24_15h06.27.853,00_bat_bachelor,2022.2.4,60.03373530239092,
,,,,,,,,,,,,0,0,0,0,179,0,179,0,,,,,,,179,,,1,574.5586911230348,X,l,go,l,1,,0.40812894445843995,,,,,,,,,,,,,,,,,61,001,22,w,Psychologie,2023-01-24_15h06.27.853,00_bat_bachelor,2022.2.4,60.03373530239092,
,,,,,,,,,,,,0,0,0,0,180,0,180,0,,,,,,,180,,,1,576.0762671146076,X,None,nogo,d,0,,0.2511413840111345,,,,,,,,,,,,,,,,,61,001,22,w,Psychologie,2023-01-24_15h06.27.853,00_bat_bachelor,2022.2.4,60.03373530239092,
,,,,,,,,,,,,0,0,0,0,181,0,181,0,,,,,,,181,,,1,577.4441883908585,Y,d,go,d,1,,0.43458759831264615,,,,,,,,,,,,,,,,,61,001,22,w,Psychologie,2023-01-24_15h06.27.853,00_bat_bachelor,2022.2.4,60.03373530239092,
,,,,,,,,,,,,0,0,0,0,182,0,182,0,,,,,,,182,,,1,578.9954046083149,X,l,go,l,1,,0.4041493101976812,,,,,,,,,,,,,,,,,61,001,22,w,Psychologie,2023-01-24_15h06.27.853,00_bat_bachelor,2022.2.4,60.03373530239092,
,,,,,,,,,,,,0,0,0,0,183,0,183,0,,,,,,,183,,,1,580.513272478478,Y,d,go,d,1,,0.24633168941363692,,,,,,,,,,,,,,,,,61,001,22,w,Psychologie,2023-01-24_15h06.27.853,00_bat_bachelor,2022.2.4,60.03373530239092,
,,,,,,,,,,,,0,0,0,0,184,0,184,0,,,,,,,184,,,1,581.8639627327211,X,l,go,l,1,,0.2401586016640067,,,,,,,,,,,,,,,,,61,001,22,w,Psychologie,2023-01-24_15h06.27.853,00_bat_bachelor,2022.2.4,60.03373530239092,
,,,,,,,,,,,,0,0,0,0,185,0,185,0,,,,,,,185,,,1,583.2151853502728,X,None,nogo,None,1,,,,,,,,,,,,,,,,,,,61,001,22,w,Psychologie,2023-01-24_15h06.27.853,00_bat_bachelor,2022.2.4,60.03373530239092,
,,,,,,,,,,,,0,0,0,0,186,0,186,0,,,,,,,186,,,1,585.0167064161506,Y,d,go,d,1,,0.2868330031633377,,,,,,,,,,,,,,,,,61,001,22,w,Psychologie,2023-01-24_15h06.27.853,00_bat_bachelor,2022.2.4,60.03373530239092,
,,,,,,,,,,,,0,0,0,0,187,0,187,0,,,,,,,187,,,1,586.4177326459903,X,l,go,l,1,,0.2939801514148712,,,,,,,,,,,,,,,,,61,001,22,w,Psychologie,2023-01-24_15h06.27.853,00_bat_bachelor,2022.2.4,60.03373530239092,
,,,,,,,,,,,,0,0,0,0,188,0,188,0,,,,,,,188,,,1,587.8187385122292,X,None,nogo,l,0,,0.5083145929966122,,,,,,,,,,,,,,,,,61,001,22,w,Psychologie,2023-01-24_15h06.27.853,00_bat_bachelor,2022.2.4,60.03373530239092,
,,,,,,,,,,,,0,0,0,0,189,0,189,0,,,,,,,189,,,1,589.4366363943554,X,None,nogo,None,1,,,,,,,,,,,,,,,,,,,61,001,22,w,Psychologie,2023-01-24_15h06.27.853,00_bat_bachelor,2022.2.4,60.03373530239092,
,,,,,,,,,,,,0,0,0,0,190,0,190,0,,,,,,,190,,,1,591.2379911574535,Y,d,go,d,1,,0.36909041786566377,,,,,,,,,,,,,,,,,61,001,22,w,Psychologie,2023-01-24_15h06.27.853,00_bat_bachelor,2022.2.4,60.03373530239092,
,,,,,,,,,,,,0,0,0,0,191,0,191,0,,,,,,,191,,,1,592.7225223165005,X,l,go,l,1,,0.4043151279911399,,,,,,,,,,,,,,,,,61,001,22,w,Psychologie,2023-01-24_15h06.27.853,00_bat_bachelor,2022.2.4,60.03373530239092,
,,,,,,,,,,,,0,0,0,0,192,0,192,0,,,,,,,192,,,1,594.2403756410349,X,None,nogo,None,1,,,,,,,,,,,,,,,,,,,61,001,22,w,Psychologie,2023-01-24_15h06.27.853,00_bat_bachelor,2022.2.4,60.03373530239092,
,,,,,,,,,,,,0,0,0,0,193,0,193,0,,,,,,,193,,,1,596.0418215554673,Y,d,go,d,1,,0.5108736220281571,,,,,,,,,,,,,,,,,61,001,22,w,Psychologie,2023-01-24_15h06.27.853,00_bat_bachelor,2022.2.4,60.03373530239092,
,,,,,,,,,,,,0,0,0,0,194,0,194,0,,,,,,,194,,,1,597.6595933772624,X,l,go,l,1,,0.36391854169778526,,,,,,,,,,,,,,,,,61,001,22,w,Psychologie,2023-01-24_15h06.27.853,00_bat_bachelor,2022.2.4,60.03373530239092,
,,,,,,,,,,,,0,0,0,0,195,0,195,0,,,,,,,195,,,1,599.1272915746085,Y,d,go,d,1,,0.304057237226516,,,,,,,,,,,,,,,,,61,001,22,w,Psychologie,2023-01-24_15h06.27.853,00_bat_bachelor,2022.2.4,60.03373530239092,
,,,,,,,,,,,,0,0,0,0,196,0,196,0,,,,,,,196,,,1,600.545702523319,X,l,go,l,1,,0.3246725001372397,,,,,,,,,,,,,,,,,61,001,22,w,Psychologie,2023-01-24_15h06.27.853,00_bat_bachelor,2022.2.4,60.03373530239092,
,,,,,,,,,,,,0,0,0,0,197,0,197,0,,,,,,,197,,,1,601.99693091074,Y,d,go,d,1,,0.26581580145284534,,,,,,,,,,,,,,,,,61,001,22,w,Psychologie,2023-01-24_15h06.27.853,00_bat_bachelor,2022.2.4,60.03373530239092,
,,,,,,,,,,,,0,0,0,0,198,0,198,0,,,,,,,198,,,1,603.381195936352,X,l,go,l,1,,0.3366041306871921,,,,,,,,,,,,,,,,,61,001,22,w,Psychologie,2023-01-24_15h06.27.853,00_bat_bachelor,2022.2.4,60.03373530239092,
,,,,,,,,,,,,0,0,0,0,199,0,199,0,,,,,,,199,,,1,604.8489954671822,X,None,nogo,None,1,605.6496326548513,,,,,,,,,,,,,,,,,,61,001,22,w,Psychologie,2023-01-24_15h06.27.853,00_bat_bachelor,2022.2.4,60.03373530239092,
,,,,,,,,,,,,0,0,0,0,200,0,200,0,,,,,,,200,,,1,606.6503293816932,Y,d,go,d,1,,0.300272996770218,,,,,,,,,,,,,,,,,61,001,22,w,Psychologie,2023-01-24_15h06.27.853,00_bat_bachelor,2022.2.4,60.03373530239092,
,,,,,,,,,,,,0,0,0,0,201,0,201,0,,,,,,,201,,,1,608.0683839668054,X,l,go,l,1,,0.24365290300920606,,,,,,,,,,,,,,,,,61,001,22,w,Psychologie,2023-01-24_15h06.27.853,00_bat_bachelor,2022.2.4,60.03373530239092,
,,,,,,,,,,,,0,0,0,0,202,0,202,0,,,,,,,202,,,1,609.4190873119514,Y,d,go,d,1,,0.39579295041039586,,,,,,,,,,,,,,,,,61,001,22,w,Psychologie,2023-01-24_15h06.27.853,00_bat_bachelor,2022.2.4,60.03373530239092,
,,,,,,,,,,,,0,0,0,0,203,0,203,0,,,,,,,203,,,1,610.9368601518217,X,l,go,l,1,,0.36615902557969093,,,,,,,,,,,,,,,,,61,001,22,w,Psychologie,2023-01-24_15h06.27.853,00_bat_bachelor,2022.2.4,60.03373530239092,
,,,,,,,,,,,,0,0,0,0,204,0,204,0,,,,,,,204,,,1,612.4215964016039,X,None,nogo,None,1,613.2223926195875,,,,,,,,,,,,,,,,,,61,001,22,w,Psychologie,2023-01-24_15h06.27.853,00_bat_bachelor,2022.2.4,60.03373530239092,
,,,,,,,,,,,,0,0,0,0,205,0,205,0,,,,,,,205,,,1,614.222869225312,Y,d,go,d,1,,0.3124024453572929,,,,,,,,,,,,,,,,,61,001,22,w,Psychologie,2023-01-24_15h06.27.853,00_bat_bachelor,2022.2.4,60.03373530239092,
,,,,,,,,,,,,0,0,0,0,206,0,206,0,,,,,,,206,,,1,615.6738076733891,X,l,go,l,1,,0.3003665725700557,,,,,,,,,,,,,,,,,61,001,22,w,Psychologie,2023-01-24_15h06.27.853,00_bat_bachelor,2022.2.4,60.03373530239092,
,,,,,,,,,,,,0,0,0,0,207,0,207,0,,,,,,,207,,,1,617.091502985917,Y,d,go,d,1,,0.3556077575776726,,,,,,,,,,,,,,,,,61,001,22,w,Psychologie,2023-01-24_15h06.27.853,00_bat_bachelor,2022.2.4,60.03373530239092,
,,,,,,,,,,,,0,0,0,0,208,0,208,0,,,,,,,208,,,1,618.5593049409799,X,l,go,l,1,,0.2962521503213793,,,,,,,,,,,,,,,,,61,001,22,w,Psychologie,2023-01-24_15h06.27.853,00_bat_bachelor,2022.2.4,60.03373530239092,
,,,,,,,,,,,,0,0,0,0,209,0,209,0,,,,,,,209,,,1,619.960403413279,Y,d,go,d,1,,0.27010767813771963,,,,,,,,,,,,,,,,,61,001,22,w,Psychologie,2023-01-24_15h06.27.853,00_bat_bachelor,2022.2.4,60.03373530239092,
,,,,,,,,,,,,0,0,0,0,210,0,210,0,,,,,,,210,,,1,621.3612696430646,Y,None,nogo,None,1,622.1620750729926,,,,,,,,,,,,,,,,,,61,001,22,w,Psychologie,2023-01-24_15h06.27.853,00_bat_bachelor,2022.2.4,60.03373530239092,
,,,,,,,,,,,,0,0,0,0,211,0,211,0,,,,,,,211,,,1,623.1626554364339,X,l,go,l,1,,0.28462985274381936,,,,,,,,,,,,,,,,,61,001,22,w,Psychologie,2023-01-24_15h06.27.853,00_bat_bachelor,2022.2.4,60.03373530239092,
,,,,,,,,,,,,0,0,0,0,212,0,212,0,,,,,,,212,,,1,624.5637529387604,Y,d,go,d,1,,0.25903180451132357,,,,,,,,,,,,,,,,,61,001,22,w,Psychologie,2023-01-24_15h06.27.853,00_bat_bachelor,2022.2.4,60.03373530239092,
,,,,,,,,,,,,0,0,0,0,213,0,213,0,,,,,,,213,,,1,625.9316174876876,X,l,go,l,1,,0.2994264515582472,,,,,,,,,,,,,,,,,61,001,22,w,Psychologie,2023-01-24_15h06.27.853,00_bat_bachelor,2022.2.4,60.03373530239092,
,,,,,,,,,,,,0,0,0,0,214,0,214,0,,,,,,,214,,,1,627.3324885661714,Y,d,go,d,1,,0.2895593049470335,,,,,,,,,,,,,,,,,61,001,22,w,Psychologie,2023-01-24_15h06.27.853,00_bat_bachelor,2022.2.4,60.03373530239092,
,,,,,,,,,,,,0,0,0,0,215,0,215,0,,,,,,,215,,,1,628.7502580606379,X,l,go,l,1,,0.3126962634269148,,,,,,,,,,,,,,,,,61,001,22,w,Psychologie,2023-01-24_15h06.27.853,00_bat_bachelor,2022.2.4,60.03373530239092,
,,,,,,,,,,,,0,0,0,0,216,0,216,0,,,,,,,216,,,1,630.1681962821167,Y,d,go,d,1,,0.28759130579419434,,,,,,,,,,,,,,,,,61,001,22,w,Psychologie,2023-01-24_15h06.27.853,00_bat_bachelor,2022.2.4,60.03373530239092,
,,,,,,,,,,,,0,0,0,0,217,0,217,0,,,,,,,217,,,1,631.5692002088763,X,l,go,l,1,,0.27757822000421584,,,,,,,,,,,,,,,,,61,001,22,w,Psychologie,2023-01-24_15h06.27.853,00_bat_bachelor,2022.2.4,60.03373530239092,
,,,,,,,,,,,,0,0,0,0,218,0,218,0,,,,,,,218,,,1,632.9535932347644,X,None,nogo,None,1,633.7542726041283,,,,,,,,,,,,,,,,,,61,001,22,w,Psychologie,2023-01-24_15h06.27.853,00_bat_bachelor,2022.2.4,60.03373530239092,
,,,,,,,,,,,,0,0,0,0,219,0,219,0,,,,,,,219,,,1,634.7549974522553,Y,d,go,d,1,,0.29133869823999703,,,,,,,,,,,,,,,,,61,001,22,w,Psychologie,2023-01-24_15h06.27.853,00_bat_bachelor,2022.2.4,60.03373530239092,
,,,,,,,,,,,,0,0,0,0,220,0,220,0,,,,,,,220,,,1,636.1725526435766,X,l,go,l,1,,0.2661246496718377,,,,,,,,,,,,,,,,,61,001,22,w,Psychologie,2023-01-24_15h06.27.853,00_bat_bachelor,2022.2.4,60.03373530239092,
,,,,,,,,,,,,0,0,0,0,221,0,221,0,,,,,,,221,,,1,637.5571289421059,Y,d,go,d,1,,0.3849628949537873,,,,,,,,,,,,,,,,,61,001,22,w,Psychologie,2023-01-24_15h06.27.853,00_bat_bachelor,2022.2.4,60.03373530239092,
,,,,,,,,,,,,0,0,0,0,222,0,222,0,,,,,,,222,,,1,639.0748057819437,X,l,go,l,1,,0.2439113270957023,,,,,,,,,,,,,,,,,61,001,22,w,Psychologie,2023-01-24_15h06.27.853,00_bat_bachelor,2022.2.4,60.03373530239092,
,,,,,,,,,,,,0,0,0,0,223,0,223,0,,,,,,,223,,,1,640.425827187486,Y,d,go,d,1,,0.2528010196983814,,,,,,,,,,,,,,,,,61,001,22,w,Psychologie,2023-01-24_15h06.27.853,00_bat_bachelor,2022.2.4,60.03373530239092,
,,,,,,,,,,,,0,0,0,0,224,0,224,0,,,,,,,224,,,1,641.8103550011292,Y,None,nogo,None,1,642.6110358249862,,,,,,,,,,,,,,,,,,61,001,22,w,Psychologie,2023-01-24_15h06.27.853,00_bat_bachelor,2022.2.4,60.03373530239092,
,,,,,,,,,,,,0,0,0,0,225,0,225,0,,,,,,,225,,,1,643.6115560671315,X,l,go,l,1,,0.2836645198985934,,,,,,,,,,,,,,,,,61,001,22,w,Psychologie,2023-01-24_15h06.27.853,00_bat_bachelor,2022.2.4,60.03373530239092,
,,,,,,,,,,,,0,0,0,0,226,0,226,0,,,,,,,226,,,1,644.996151759522,Y,d,go,d,1,,0.4349589920602739,,,,,,,,,,,,,,,,,61,001,22,w,Psychologie,2023-01-24_15h06.27.853,00_bat_bachelor,2022.2.4,60.03373530239092,
,,,,,,,,,,,,0,0,0,0,227,0,227,0,,,,,,,227,,,1,646.5473243407905,Y,None,nogo,None,1,647.3479164375458,,,,,,,,,,,,,,,,,,61,001,22,w,Psychologie,2023-01-24_15h06.27.853,00_bat_bachelor,2022.2.4,60.03373530239092,
,,,,,,,,,,,,0,0,0,0,228,0,228,0,,,,,,,228,,,1,648.3487009219825,X,l,go,l,1,,0.23491205857135355,,,,,,,,,,,,,,,,,61,001,22,w,Psychologie,2023-01-24_15h06.27.853,00_bat_bachelor,2022.2.4,60.03373530239092,
,,,,,,,,,,,,0,0,0,0,229,0,229,0,,,,,,,229,,,1,649.6996762668714,Y,d,go,d,1,,0.2745183426886797,,,,,,,,,,,,,,,,,61,001,22,w,Psychologie,2023-01-24_15h06.27.853,00_bat_bachelor,2022.2.4,60.03373530239092,
,,,,,,,,,,,,0,0,0,0,230,0,230,0,,,,,,,230,,,1,651.1008765571751,X,l,go,l,1,,0.31494402000680566,,,,,,,,,,,,,,,,,61,001,22,w,Psychologie,2023-01-24_15h06.27.853,00_bat_bachelor,2022.2.4,60.03373530239092,
,,,,,,,,,,,,0,0,0,0,231,0,231,0,,,,,,,231,,,1,652.5183410821483,Y,d,go,d,1,,0.17587354173883796,,,,,,,,,,,,,,,,,61,001,22,w,Psychologie,2023-01-24_15h06.27.853,00_bat_bachelor,2022.2.4,60.03373530239092,
,,,,,,,,,,,,0,0,0,0,232,0,232,0,,,,,,,232,,,1,653.8197508752346,Y,None,nogo,None,1,654.620121881133,,,,,,,,,,,,,,,,,,61,001,22,w,Psychologie,2023-01-24_15h06.27.853,00_bat_bachelor,2022.2.4,60.03373530239092,
,,,,,,,,,,,,0,0,0,0,233,0,233,0,,,,,,,233,,,1,655.620873396052,X,l,go,l,1,,0.2428461154922843,,,,,,,,,,,,,,,,,61,001,22,w,Psychologie,2023-01-24_15h06.27.853,00_bat_bachelor,2022.2.4,60.03373530239092,
,,,,,,,,,,,,0,0,0,0,234,0,234,0,,,,,,,234,,,1,656.971895771334,Y,d,go,d,1,,0.2193881873972714,,,,,,,,,,,,,,,,,61,001,22,w,Psychologie,2023-01-24_15h06.27.853,00_bat_bachelor,2022.2.4,60.03373530239092,
,,,,,,,,,,,,0,0,0,0,235,0,235,0,,,,,,,235,,,1,658.3062272456009,Y,None,nogo,None,1,659.1069085542113,,,,,,,,,,,,,,,,,,61,001,22,w,Psychologie,2023-01-24_15h06.27.853,00_bat_bachelor,2022.2.4,60.03373530239092,
,,,,,,,,,,,,0,0,0,0,236,0,236,0,,,,,,,236,,,1,660.1076910994016,X,l,go,l,1,,0.23588660382665694,,,,,,,,,,,,,,,,,61,001,22,w,Psychologie,2023-01-24_15h06.27.853,00_bat_bachelor,2022.2.4,60.03373530239092,
,,,,,,,,,,,,0,0,0,0,237,0,237,0,,,,,,,237,,,1,661.4584773534443,Y,d,go,d,1,,0.3083006290253252,,,,,,,,,,,,,,,,,61,001,22,w,Psychologie,2023-01-24_15h06.27.853,00_bat_bachelor,2022.2.4,60.03373530239092,
,,,,,,,,,,,,0,0,0,0,238,0,238,0,,,,,,,238,,,1,662.8763918175828,X,l,go,l,1,,0.49042466189712286,,,,,,,,,,,,,,,,,61,001,22,w,Psychologie,2023-01-24_15h06.27.853,00_bat_bachelor,2022.2.4,60.03373530239092,
,,,,,,,,,,,,0,0,0,0,239,0,239,0,,,,,,,239,,,1,664.4774029201362,X,None,nogo,d,0,,0.2341561804059893,,,,,,,,,,,,,,,,,61,001,22,w,Psychologie,2023-01-24_15h06.27.853,00_bat_bachelor,2022.2.4,60.03373530239092,
,,,,,,,,,,,,0,0,0,0,240,0,240,0,,,,,,,240,,,1,665.8288684466388,Y,d,go,d,1,,0.3380402510520071,,,,,,,,,,,,,,,,,61,001,22,w,Psychologie,2023-01-24_15h06.27.853,00_bat_bachelor,2022.2.4,60.03373530239092,
,,,,,,,,,,,,0,0,0,0,241,0,241,0,,,,,,,241,,,1,667.2964687047061,X,l,go,l,1,,0.3907238619867712,,,,,,,,,,,,,,,,,61,001,22,w,Psychologie,2023-01-24_15h06.27.853,00_bat_bachelor,2022.2.4,60.03373530239092,
,,,,,,,,,,,,0,0,0,0,242,0,242,0,,,,,,,242,,,1,668.8141421508044,Y,d,go,d,1,,0.2328684232197702,,,,,,,,,,,,,,,,,61,001,22,w,Psychologie,2023-01-24_15h06.27.853,00_bat_bachelor,2022.2.4,60.03373530239092,
,,,,,,,,,,,,0,0,0,0,243,0,243,0,,,,,,,243,,,1,670.1486632006709,X,l,go,l,1,,0.29065263783559203,,,,,,,,,,,,,,,,,61,001,22,w,Psychologie,2023-01-24_15h06.27.853,00_bat_bachelor,2022.2.4,60.03373530239092,
,,,,,,,,,,,,0,0,0,0,244,0,244,0,,,,,,,244,,,1,671.5495643396862,Y,d,go,d,1,,0.29789869487285614,,,,,,,,,,,,,,,,,61,001,22,w,Psychologie,2023-01-24_15h06.27.853,00_bat_bachelor,2022.2.4,60.03373530239092,
,,,,,,,,,,,,0,0,0,0,245,0,245,0,,,,,,,245,,,1,672.9507403876632,X,l,go,l,1,,0.400061069522053,,,,,,,,,,,,,,,,,61,001,22,w,Psychologie,2023-01-24_15h06.27.853,00_bat_bachelor,2022.2.4,60.03373530239092,
,,,,,,,,,,,,0,0,0,0,246,0,246,0,,,,,,,246,,,1,674.4517520235386,Y,d,go,d,1,,0.24378090305253863,,,,,,,,,,,,,,,,,61,001,22,w,Psychologie,2023-01-24_15h06.27.853,00_bat_bachelor,2022.2.4,60.03373530239092,
,,,,,,,,,,,,0,0,0,0,247,0,247,0,,,,,,,247,,,1,675.8027288229205,Y,None,nogo,None,1,676.6036961921491,,,,,,,,,,,,,,,,,,61,001,22,w,Psychologie,2023-01-24_15h06.27.853,00_bat_bachelor,2022.2.4,60.03373530239092,
,,,,,,,,,,,,0,0,0,0,248,0,248,0,,,,,,,248,,,1,677.604355101008,X,l,go,l,1,,0.2913086374755949,,,,,,,,,,,,,,,,,61,001,22,w,Psychologie,2023-01-24_15h06.27.853,00_bat_bachelor,2022.2.4,60.03373530239092,
,,,,,,,,,,,,0,0,0,0,249,0,249,0,,,,,,,249,,,1,679.0054618155118,Y,d,go,d,1,,0.26611398300156,,,,,,,,,,,,,,,,,61,001,22,w,Psychologie,2023-01-24_15h06.27.853,00_bat_bachelor,2022.2.4,60.03373530239092,
,,,,,,,,,,,,1,0,1,0,0,0,0,0,,,,,,,0,,,0.2,684.9098589527421,X,l,go,l,1,,0.6007353966124356,,,,,,,,679.3941932634916,space,5.288840759778395,,,,,,,61,001,22,w,Psychologie,2023-01-24_15h06.27.853,00_bat_bachelor,2022.2.4,60.03373530239092,
,,,,,,,,,,,,1,0,1,0,1,0,1,0,,,,,,,1,,,0.2,685.8270890535787,Y,d,go,d,1,,0.35574254556559026,,,,,,,,,,,,,,,,,61,001,22,w,Psychologie,2023-01-24_15h06.27.853,00_bat_bachelor,2022.2.4,60.03373530239092,
,,,,,,,,,,,,1,0,1,0,2,0,2,0,,,,,,,2,,,0.2,686.4943357603624,X,l,go,l,1,,0.42485136073082685,,,,,,,,,,,,,,,,,61,001,22,w,Psychologie,2023-01-24_15h06.27.853,00_bat_bachelor,2022.2.4,60.03373530239092,
,,,,,,,,,,,,1,0,1,0,3,0,3,0,,,,,,,3,,,0.2,687.2283300710842,Y,d,go,d,1,,0.186884930357337,,,,,,,,,,,,,,,,,61,001,22,w,Psychologie,2023-01-24_15h06.27.853,00_bat_bachelor,2022.2.4,60.03373530239092,
,,,,,,,,,,,,1,0,1,0,4,0,4,0,,,,,,,4,,,0.2,687.7284932225011,X,l,go,l,1,,0.40713839954696596,,,,,,,,,,,,,,,,,61,001,22,w,Psychologie,2023-01-24_15h06.27.853,00_bat_bachelor,2022.2.4,60.03373530239092,
,,,,,,,,,,,,1,0,1,0,5,0,5,0,,,,,,,5,,,0.2,688.4457340869121,X,None,nogo,d,0,,0.16893875738605857,,,,,,,,,,,,,,,,,61,001,22,w,Psychologie,2023-01-24_15h06.27.853,00_bat_bachelor,2022.2.4,60.03373530239092,
,,,,,,,,,,,,1,0,1,0,6,0,6,0,,,,,,,6,,,0.2,688.9461333595682,Y,d,go,None,0,689.7468786682002,,,,,,,,,,,,,,,,,,61,001,22,w,Psychologie,2023-01-24_15h06.27.853,00_bat_bachelor,2022.2.4,60.03373530239092,
,,,,,,,,,,,,1,0,1,0,7,0,7,0,,,,,,,7,,,0.2,689.9468906924594,X,l,go,d,0,,0.02803070447407663,,,,,,,,,,,,,,,,,61,001,22,w,Psychologie,2023-01-24_15h06.27.853,00_bat_bachelor,2022.2.4,60.03373530239092,
,,,,,,,,,,,,1,0,1,0,8,0,8,0,,,,,,,8,,,0.2,690.2973608255852,Y,d,go,l,0,,0.3810176847036928,,,,,,,,,,,,,,,,,61,001,22,w,Psychologie,2023-01-24_15h06.27.853,00_bat_bachelor,2022.2.4,60.03373530239092,
,,,,,,,,,,,,1,0,1,0,9,0,9,0,,,,,,,9,,,0.2,690.9976460617036,X,l,go,l,1,,0.6258844751864672,,,,,,,,,,,,,,,,,61,001,22,w,Psychologie,2023-01-24_15h06.27.853,00_bat_bachelor,2022.2.4,60.03373530239092,
,,,,,,,,,,,,1,0,1,0,10,0,10,0,,,,,,,10,,,0.2,691.9314545786474,Y,d,go,d,1,,0.20353171019814909,,,,,,,,,,,,,,,,,61,001,22,w,Psychologie,2023-01-24_15h06.27.853,00_bat_bachelor,2022.2.4,60.03373530239092,
,,,,,,,,,,,,1,0,1,0,11,0,11,0,,,,,,,11,,,0.2,692.4483634189237,X,l,go,l,1,,0.39145501307211816,,,,,,,,,,,,,,,,,61,001,22,w,Psychologie,2023-01-24_15h06.27.853,00_bat_bachelor,2022.2.4,60.03373530239092,
,,,,,,,,,,,,1,0,1,0,12,0,12,0,,,,,,,12,,,0.2,693.1490505945403,X,None,nogo,None,1,,,,,,,,,,,,,,,,,,,61,001,22,w,Psychologie,2023-01-24_15h06.27.853,00_bat_bachelor,2022.2.4,60.03373530239092,
,,,,,,,,,,,,1,0,1,0,13,0,13,0,,,,,,,13,,,0.2,694.1496556850616,Y,d,go,d,1,,0.40131876594386995,,,,,,,,,,,,,,,,,61,001,22,w,Psychologie,2023-01-24_15h06.27.853,00_bat_bachelor,2022.2.4,60.03373530239092,
,,,,,,,,,,,,1,0,1,0,14,0,14,0,,,,,,,14,,,0.2,694.866965882713,X,l,go,l,1,,0.5007121723610908,,,,,,,,,,,,,,,,,61,001,22,w,Psychologie,2023-01-24_15h06.27.853,00_bat_bachelor,2022.2.4,60.03373530239092,
,,,,,,,,,,,,1,0,1,0,15,0,15,0,,,,,,,15,,,0.2,695.6842677895911,Y,d,go,d,1,,0.290443183388561,,,,,,,,,,,,,,,,,61,001,22,w,Psychologie,2023-01-24_15h06.27.853,00_bat_bachelor,2022.2.4,60.03373530239092,
,,,,,,,,,,,,1,0,1,0,16,0,16,0,,,,,,,16,,,0.2,696.2847164680716,Y,None,nogo,None,1,,,,,,,,,,,,,,,,,,,61,001,22,w,Psychologie,2023-01-24_15h06.27.853,00_bat_bachelor,2022.2.4,60.03373530239092,
,,,,,,,,,,,,1,0,1,0,17,0,17,0,,,,,,,17,,,0.2,697.2854699222371,X,l,go,l,1,,0.5308867029380053,,,,,,,,,,,,,,,,,61,001,22,w,Psychologie,2023-01-24_15h06.27.853,00_bat_bachelor,2022.2.4,60.03373530239092,
,,,,,,,,,,,,1,0,1,0,18,0,18,0,,,,,,,18,,,0.2,698.11951073003,Y,d,go,d,1,,0.43201353889890015,,,,,,,,,,,,,,,,,61,001,22,w,Psychologie,2023-01-24_15h06.27.853,00_bat_bachelor,2022.2.4,60.03373530239092,
,,,,,,,,,,,,1,0,1,0,19,0,19,0,,,,,,,19,,,0.2,698.8533246773295,Y,None,nogo,None,1,699.6540025919676,,,,,,,,,,,,,,,,,,61,001,22,w,Psychologie,2023-01-24_15h06.27.853,00_bat_bachelor,2022.2.4,60.03373530239092,
,,,,,,,,,,,,1,0,1,0,20,0,20,0,,,,,,,20,,,0.2,699.8538875861559,X,l,go,l,1,,0.26540755899623036,,,,,,,,,,,,,,,,,61,001,22,w,Psychologie,2023-01-24_15h06.27.853,00_bat_bachelor,2022.2.4,60.03373530239092,
,,,,,,,,,,,,1,0,1,0,21,0,21,0,,,,,,,21,,,0.2,700.4211750684772,Y,d,go,d,1,,0.38665889436379075,,,,,,,,,,,,,,,,,61,001,22,w,Psychologie,2023-01-24_15h06.27.853,00_bat_bachelor,2022.2.4,60.03373530239092,
,,,,,,,,,,,,1,0,1,0,22,0,22,0,,,,,,,22,,,0.2,701.1215136381797,X,l,go,l,1,,0.3579132112208754,,,,,,,,,,,,,,,,,61,001,22,w,Psychologie,2023-01-24_15h06.27.853,00_bat_bachelor,2022.2.4,60.03373530239092,
,,,,,,,,,,,,1,0,1,0,23,0,23,0,,,,,,,23,,,0.2,701.7889712539036,X,None,nogo,None,1,,,,,,,,,,,,,,,,,,,61,001,22,w,Psychologie,2023-01-24_15h06.27.853,00_bat_bachelor,2022.2.4,60.03373530239092,
,,,,,,,,,,,,1,0,1,0,24,0,24,0,,,,,,,24,,,0.2,702.7897222838365,Y,d,go,d,1,,0.3053474184125662,,,,,,,,,,,,,,,,,61,001,22,w,Psychologie,2023-01-24_15h06.27.853,00_bat_bachelor,2022.2.4,60.03373530239092,
,,,,,,,,,,,,1,0,1,0,25,0,25,0,,,,,,,25,,,0.2,703.4068744694814,X,l,go,l,1,,0.34455467225052416,,,,,,,,,,,,,,,,,61,001,22,w,Psychologie,2023-01-24_15h06.27.853,00_bat_bachelor,2022.2.4,60.03373530239092,
,,,,,,,,,,,,1,0,1,0,26,0,26,0,,,,,,,26,,,0.2,704.0570850633085,X,None,nogo,None,1,,,,,,,,,,,,,,,,,,,61,001,22,w,Psychologie,2023-01-24_15h06.27.853,00_bat_bachelor,2022.2.4,60.03373530239092,
,,,,,,,,,,,,1,0,1,0,27,0,27,0,,,,,,,27,,,0.2,705.0580945173278,Y,d,go,d,1,,0.2935025757178664,,,,,,,,,,,,,,,,,61,001,22,w,Psychologie,2023-01-24_15h06.27.853,00_bat_bachelor,2022.2.4,60.03373530239092,
,,,,,,,,,,,,1,0,1,0,28,0,28,0,,,,,,,28,,,0.2,705.6582736202981,X,l,go,l,1,,0.6521113717462867,,,,,,,,,,,,,,,,,61,001,22,w,Psychologie,2023-01-24_15h06.27.853,00_bat_bachelor,2022.2.4,60.03373530239092,
,,,,,,,,,,,,1,0,1,0,29,0,29,0,,,,,,,29,,,0.2,706.6260510904249,X,None,nogo,None,1,,,,,,,,,,,,,,,,,,,61,001,22,w,Psychologie,2023-01-24_15h06.27.853,00_bat_bachelor,2022.2.4,60.03373530239092,
,,,,,,,,,,,,1,0,1,0,30,0,30,0,,,,,,,30,,,0.2,707.6264617568813,Y,d,go,d,1,,0.268582345219329,,,,,,,,,,,,,,,,,61,001,22,w,Psychologie,2023-01-24_15h06.27.853,00_bat_bachelor,2022.2.4,60.03373530239092,
,,,,,,,,,,,,1,0,1,0,31,0,31,0,,,,,,,31,,,0.2,708.2104648677632,X,l,go,l,1,,0.4210676047950983,,,,,,,,,,,,,,,,,61,001,22,w,Psychologie,2023-01-24_15h06.27.853,00_bat_bachelor,2022.2.4,60.03373530239092,
,,,,,,,,,,,,1,0,1,0,32,0,32,0,,,,,,,32,,,0.2,708.9443709361367,Y,d,go,d,1,,0.5509759054984897,,,,,,,,,,,,,,,,,61,001,22,w,Psychologie,2023-01-24_15h06.27.853,00_bat_bachelor,2022.2.4,60.03373530239092,
,,,,,,,,,,,,1,0,1,0,33,0,33,0,,,,,,,33,,,0.2,709.8114677278791,X,l,go,l,1,,0.29248875798657537,,,,,,,,,,,,,,,,,61,001,22,w,Psychologie,2023-01-24_15h06.27.853,00_bat_bachelor,2022.2.4,60.03373530239092,
,,,,,,,,,,,,1,0,1,0,34,0,34,0,,,,,,,34,,,0.2,710.4121248910669,Y,d,go,d,1,,0.3643049655947834,,,,,,,,,,,,,,,,,61,001,22,w,Psychologie,2023-01-24_15h06.27.853,00_bat_bachelor,2022.2.4,60.03373530239092,
,,,,,,,,,,,,1,0,1,0,35,0,35,0,,,,,,,35,,,0.2,711.0791485677473,Y,None,nogo,l,0,,0.3685832666233182,,,,,,,,,,,,,,,,,61,001,22,w,Psychologie,2023-01-24_15h06.27.853,00_bat_bachelor,2022.2.4,60.03373530239092,
,,,,,,,,,,,,1,0,1,0,36,0,36,0,,,,,,,36,,,0.2,711.763238417916,X,l,go,None,0,,,,,,,,,,,,,,,,,,,61,001,22,w,Psychologie,2023-01-24_15h06.27.853,00_bat_bachelor,2022.2.4,60.03373530239092,
,,,,,,,,,,,,1,0,1,0,37,0,37,0,,,,,,,37,,,0.2,712.7640563568566,Y,d,go,d,1,,0.41285233618691564,,,,,,,,,,,,,,,,,61,001,22,w,Psychologie,2023-01-24_15h06.27.853,00_bat_bachelor,2022.2.4,60.03373530239092,
,,,,,,,,,,,,1,0,1,0,38,0,38,0,,,,,,,38,,,0.2,713.4811954030301,X,l,go,None,0,,,,,,,,,,,,,,,,,,,61,001,22,w,Psychologie,2023-01-24_15h06.27.853,00_bat_bachelor,2022.2.4,60.03373530239092,
,,,,,,,,,,,,1,0,1,0,39,0,39,0,,,,,,,39,,,0.2,714.4819760087412,Y,d,go,d,1,,0.3418594009708613,,,,,,,,,,,,,,,,,61,001,22,w,Psychologie,2023-01-24_15h06.27.853,00_bat_bachelor,2022.2.4,60.03373530239092,
,,,,,,,,,,,,1,0,1,0,40,0,40,0,,,,,,,40,,,0.2,715.1324086631648,X,l,go,l,1,,0.4266952385660261,,,,,,,,,,,,,,,,,61,001,22,w,Psychologie,2023-01-24_15h06.27.853,00_bat_bachelor,2022.2.4,60.03373530239092,
,,,,,,,,,,,,1,0,1,0,41,0,41,0,,,,,,,41,,,0.2,715.8662929134443,X,None,nogo,None,1,716.6669194342103,,,,,,,,,,,,,,,,,,61,001,22,w,Psychologie,2023-01-24_15h06.27.853,00_bat_bachelor,2022.2.4,60.03373530239092,
,,,,,,,,,,,,1,0,1,0,42,0,42,0,,,,,,,42,,,0.2,716.867090488784,Y,d,go,d,1,,0.2607171372510493,,,,,,,,,,,,,,,,,61,001,22,w,Psychologie,2023-01-24_15h06.27.853,00_bat_bachelor,2022.2.4,60.03373530239092,
,,,,,,,,,,,,1,0,1,0,43,0,43,0,,,,,,,43,,,0.2,717.4340094865765,X,l,go,l,1,,0.572576864855364,,,,,,,,,,,,,,,,,61,001,22,w,Psychologie,2023-01-24_15h06.27.853,00_bat_bachelor,2022.2.4,60.03373530239092,
,,,,,,,,,,,,1,0,1,0,44,0,44,0,,,,,,,44,,,0.2,718.3181409367826,Y,d,go,d,1,,0.36207999708130956,,,,,,,,,,,,,,,,,61,001,22,w,Psychologie,2023-01-24_15h06.27.853,00_bat_bachelor,2022.2.4,60.03373530239092,
,,,,,,,,,,,,1,0,1,0,45,0,45,0,,,,,,,45,,,0.2,718.985265461728,X,l,go,None,0,,,,,,,,,,,,,,,,,,,61,001,22,w,Psychologie,2023-01-24_15h06.27.853,00_bat_bachelor,2022.2.4,60.03373530239092,
,,,,,,,,,,,,1,0,1,0,46,0,46,0,,,,,,,46,,,0.2,719.9861357642803,Y,d,go,d,1,,0.3261735902633518,,,,,,,,,,,,,,,,,61,001,22,w,Psychologie,2023-01-24_15h06.27.853,00_bat_bachelor,2022.2.4,60.03373530239092,
,,,,,,,,,,,,1,0,1,0,47,0,47,0,,,,,,,47,,,0.2,720.619975456968,X,l,go,l,1,,0.5076823506969959,,,,,,,,,,,,,,,,,61,001,22,w,Psychologie,2023-01-24_15h06.27.853,00_bat_bachelor,2022.2.4,60.03373530239092,
,,,,,,,,,,,,1,0,1,0,48,0,48,0,,,,,,,48,,,0.2,721.4372666971758,X,None,nogo,d,0,,0.3138177173677832,,,,,,,,,,,,,,,,,61,001,22,w,Psychologie,2023-01-24_15h06.27.853,00_bat_bachelor,2022.2.4,60.03373530239092,
,,,,,,,,,,,,1,0,1,0,49,0,49,0,,,,,,,49,,,0.2,722.0544048221782,Y,d,go,d,1,,0.5298971277661622,,,,,,,,,,,,,,,,,61,001,22,w,Psychologie,2023-01-24_15h06.27.853,00_bat_bachelor,2022.2.4,60.03373530239092,
,,,,,,,,,,,,1,0,1,0,50,0,50,0,,,,,,,50,,,0.2,722.8883806602098,X,l,go,l,1,,0.31862304848618805,,,,,,,,,,,,,,,,,61,001,22,w,Psychologie,2023-01-24_15h06.27.853,00_bat_bachelor,2022.2.4,60.03373530239092,
,,,,,,,,,,,,1,0,1,0,51,0,51,0,,,,,,,51,,,0.2,723.5219148984179,Y,d,go,d,1,,0.43646590039134026,,,,,,,,,,,,,,,,,61,001,22,w,Psychologie,2023-01-24_15h06.27.853,00_bat_bachelor,2022.2.4,60.03373530239092,
,,,,,,,,,,,,1,0,1,0,52,0,52,0,,,,,,,52,,,0.2,724.2724856862333,Y,None,nogo,None,1,,,,,,,,,,,,,,,,,,,61,001,22,w,Psychologie,2023-01-24_15h06.27.853,00_bat_bachelor,2022.2.4,60.03373530239092,
,,,,,,,,,,,,1,0,1,0,53,0,53,0,,,,,,,53,,,0.2,725.2734970794991,X,l,go,l,1,,0.2855277918279171,,,,,,,,,,,,,,,,,61,001,22,w,Psychologie,2023-01-24_15h06.27.853,00_bat_bachelor,2022.2.4,60.03373530239092,
,,,,,,,,,,,,1,0,1,0,54,0,54,0,,,,,,,54,,,0.2,725.8740247883834,Y,d,go,d,1,,0.4689323087222874,,,,,,,,,,,,,,,,,61,001,22,w,Psychologie,2023-01-24_15h06.27.853,00_bat_bachelor,2022.2.4,60.03373530239092,
,,,,,,,,,,,,1,0,1,0,55,0,55,0,,,,,,,55,,,0.2,726.6578440447338,Y,None,nogo,None,1,,,,,,,,,,,,,,,,,,,61,001,22,w,Psychologie,2023-01-24_15h06.27.853,00_bat_bachelor,2022.2.4,60.03373530239092,
,,,,,,,,,,,,1,0,1,0,56,0,56,0,,,,,,,56,,,0.2,727.6583851354662,X,l,go,l,1,,0.3485115186776966,,,,,,,,,,,,,,,,,61,001,22,w,Psychologie,2023-01-24_15h06.27.853,00_bat_bachelor,2022.2.4,60.03373530239092,
,,,,,,,,,,,,1,0,1,0,57,0,57,0,,,,,,,57,,,0.2,728.3091959713493,Y,d,go,d,1,,0.35454157646745443,,,,,,,,,,,,,,,,,61,001,22,w,Psychologie,2023-01-24_15h06.27.853,00_bat_bachelor,2022.2.4,60.03373530239092,
,,,,,,,,,,,,1,0,1,0,58,0,58,0,,,,,,,58,,,0.2,728.9761488600634,Y,None,nogo,None,1,729.7769222899806,,,,,,,,,,,,,,,,,,61,001,22,w,Psychologie,2023-01-24_15h06.27.853,00_bat_bachelor,2022.2.4,60.03373530239092,
,,,,,,,,,,,,1,0,1,0,59,0,59,0,,,,,,,59,,,0.2,729.9770458294079,Y,None,nogo,None,1,730.7775045926683,,,,,,,,,,,,,,,,,,61,001,22,w,Psychologie,2023-01-24_15h06.27.853,00_bat_bachelor,2022.2.4,60.03373530239092,
,,,,,,,,,,,,1,0,1,0,60,0,60,0,,,,,,,60,,,0.2,730.9778371017892,X,l,go,l,1,,0.31086111278273165,,,,,,,,,,,,,,,,,61,001,22,w,Psychologie,2023-01-24_15h06.27.853,00_bat_bachelor,2022.2.4,60.03373530239092,
,,,,,,,,,,,,1,0,1,0,61,0,61,0,,,,,,,61,,,0.2,731.5949907419272,Y,d,go,d,1,,0.42910057050175965,,,,,,,,,,,,,,,,,61,001,22,w,Psychologie,2023-01-24_15h06.27.853,00_bat_bachelor,2022.2.4,60.03373530239092,
,,,,,,,,,,,,1,0,1,0,62,0,62,0,,,,,,,62,,,0.2,732.3288905073423,Y,None,nogo,None,1,733.1292280585039,,,,,,,,,,,,,,,,,,61,001,22,w,Psychologie,2023-01-24_15h06.27.853,00_bat_bachelor,2022.2.4,60.03373530239092,
,,,,,,,,,,,,1,0,1,0,63,0,63,0,,,,,,,63,,,0.2,733.3293545071501,X,l,go,l,1,,0.29381966637447476,,,,,,,,,,,,,,,,,61,001,22,w,Psychologie,2023-01-24_15h06.27.853,00_bat_bachelor,2022.2.4,60.03373530239092,
,,,,,,,,,,,,1,0,1,0,64,0,64,0,,,,,,,64,,,0.2,733.9298303371761,Y,d,go,d,1,,0.5413511828519404,,,,,,,,,,,,,,,,,61,001,22,w,Psychologie,2023-01-24_15h06.27.853,00_bat_bachelor,2022.2.4,60.03373530239092,
,,,,,,,,,,,,1,0,1,0,65,0,65,0,,,,,,,65,,,0.2,734.7807695609517,Y,None,nogo,None,1,,,,,,,,,,,,,,,,,,,61,001,22,w,Psychologie,2023-01-24_15h06.27.853,00_bat_bachelor,2022.2.4,60.03373530239092,
,,,,,,,,,,,,1,0,1,0,66,0,66,0,,,,,,,66,,,0.2,735.7812849546317,X,l,go,l,1,,0.3063815999776125,,,,,,,,,,,,,,,,,61,001,22,w,Psychologie,2023-01-24_15h06.27.853,00_bat_bachelor,2022.2.4,60.03373530239092,
,,,,,,,,,,,,1,0,1,0,67,0,67,0,,,,,,,67,,,0.2,736.398459443124,Y,d,go,d,1,,0.520849859341979,,,,,,,,,,,,,,,,,61,001,22,w,Psychologie,2023-01-24_15h06.27.853,00_bat_bachelor,2022.2.4,60.03373530239092,
,,,,,,,,,,,,1,0,1,0,68,0,68,0,,,,,,,68,,,0.2,737.2323644934222,Y,None,nogo,None,1,,,,,,,,,,,,,,,,,,,61,001,22,w,Psychologie,2023-01-24_15h06.27.853,00_bat_bachelor,2022.2.4,60.03373530239092,
,,,,,,,,,,,,1,0,1,0,69,0,69,0,,,,,,,69,,,0.2,738.2335581898224,X,l,go,l,1,,0.39896919135935605,,,,,,,,,,,,,,,,,61,001,22,w,Psychologie,2023-01-24_15h06.27.853,00_bat_bachelor,2022.2.4,60.03373530239092,
,,,,,,,,,,,,1,0,1,0,70,0,70,0,,,,,,,70,,,0.2,738.9336291232612,Y,d,go,d,1,,0.5465817258227617,,,,,,,,,,,,,,,,,61,001,22,w,Psychologie,2023-01-24_15h06.27.853,00_bat_bachelor,2022.2.4,60.03373530239092,
,,,,,,,,,,,,1,0,1,0,71,0,71,0,,,,,,,71,,,0.2,739.7844742864836,X,l,go,l,1,,0.4155049407854676,,,,,,,,,,,,,,,,,61,001,22,w,Psychologie,2023-01-24_15h06.27.853,00_bat_bachelor,2022.2.4,60.03373530239092,
,,,,,,,,,,,,1,0,1,0,72,0,72,0,,,,,,,72,,,0.2,740.5017641203012,Y,d,go,d,1,,0.43316602311097085,,,,,,,,,,,,,,,,,61,001,22,w,Psychologie,2023-01-24_15h06.27.853,00_bat_bachelor,2022.2.4,60.03373530239092,
,,,,,,,,,,,,1,0,1,0,73,0,73,0,,,,,,,73,,,0.2,741.2354617039673,Y,None,nogo,None,1,,,,,,,,,,,,,,,,,,,61,001,22,w,Psychologie,2023-01-24_15h06.27.853,00_bat_bachelor,2022.2.4,60.03373530239092,
,,,,,,,,,,,,1,0,1,0,74,0,74,0,,,,,,,74,,,0.2,742.2364333400037,X,l,go,l,1,,0.2831452472601086,,,,,,,,,,,,,,,,,61,001,22,w,Psychologie,2023-01-24_15h06.27.853,00_bat_bachelor,2022.2.4,60.03373530239092,
,,,,,,,,,,,,1,0,1,0,75,0,75,0,,,,,,,75,,,0.2,742.8203574204817,Y,d,go,d,1,,0.3231665613129735,,,,,,,,,,,,,,,,,61,001,22,w,Psychologie,2023-01-24_15h06.27.853,00_bat_bachelor,2022.2.4,60.03373530239092,
,,,,,,,,,,,,1,0,1,0,76,0,76,0,,,,,,,76,,,0.2,743.4542805070523,Y,None,nogo,None,1,,,,,,,,,,,,,,,,,,,61,001,22,w,Psychologie,2023-01-24_15h06.27.853,00_bat_bachelor,2022.2.4,60.03373530239092,
,,,,,,,,,,,,1,0,1,0,77,0,77,0,,,,,,,77,,,0.2,744.4549355369527,X,l,go,l,1,,0.31995541136711836,,,,,,,,,,,,,,,,,61,001,22,w,Psychologie,2023-01-24_15h06.27.853,00_bat_bachelor,2022.2.4,60.03373530239092,
,,,,,,,,,,,,1,0,1,0,78,0,78,0,,,,,,,78,,,0.2,745.0890239567962,Y,d,go,d,1,,0.2942075452301651,,,,,,,,,,,,,,,,,61,001,22,w,Psychologie,2023-01-24_15h06.27.853,00_bat_bachelor,2022.2.4,60.03373530239092,
,,,,,,,,,,,,1,0,1,0,79,0,79,0,,,,,,,79,,,0.2,745.6892413627356,Y,None,nogo,None,1,,,,,,,,,,,,,,,,,,,61,001,22,w,Psychologie,2023-01-24_15h06.27.853,00_bat_bachelor,2022.2.4,60.03373530239092,
,,,,,,,,,,,,1,0,1,0,80,0,80,0,,,,,,,80,,,0.2,746.6899933624081,X,l,go,l,1,,0.35714812064543366,,,,,,,,,,,,,,,,,61,001,22,w,Psychologie,2023-01-24_15h06.27.853,00_bat_bachelor,2022.2.4,60.03373530239092,
,,,,,,,,,,,,1,0,1,0,81,0,81,0,,,,,,,81,,,0.2,747.3569617664907,Y,d,go,d,1,,0.2666056191083044,,,,,,,,,,,,,,,,,61,001,22,w,Psychologie,2023-01-24_15h06.27.853,00_bat_bachelor,2022.2.4,60.03373530239092,
,,,,,,,,,,,,1,0,1,0,82,0,82,0,,,,,,,82,,,0.2,747.9239171277732,Y,None,nogo,None,1,,,,,,,,,,,,,,,,,,,61,001,22,w,Psychologie,2023-01-24_15h06.27.853,00_bat_bachelor,2022.2.4,60.03373530239092,
,,,,,,,,,,,,1,0,1,0,83,0,83,0,,,,,,,83,,,0.2,748.9249745819252,X,l,go,l,1,,0.25103132356889546,,,,,,,,,,,,,,,,,61,001,22,w,Psychologie,2023-01-24_15h06.27.853,00_bat_bachelor,2022.2.4,60.03373530239092,
,,,,,,,,,,,,1,0,1,0,84,0,84,0,,,,,,,84,,,0.2,749.4919842462987,Y,d,go,d,1,,0.22829872881993651,,,,,,,,,,,,,,,,,61,001,22,w,Psychologie,2023-01-24_15h06.27.853,00_bat_bachelor,2022.2.4,60.03373530239092,
,,,,,,,,,,,,1,0,1,0,85,0,85,0,,,,,,,85,,,0.2,750.0256450786255,X,l,go,l,1,,0.511077743023634,,,,,,,,,,,,,,,,,61,001,22,w,Psychologie,2023-01-24_15h06.27.853,00_bat_bachelor,2022.2.4,60.03373530239092,
,,,,,,,,,,,,1,0,1,0,86,0,86,0,,,,,,,86,,,0.2,750.8430032276083,Y,d,go,d,1,,0.2519127775449306,,,,,,,,,,,,,,,,,61,001,22,w,Psychologie,2023-01-24_15h06.27.853,00_bat_bachelor,2022.2.4,60.03373530239092,
,,,,,,,,,,,,1,0,1,0,87,0,87,0,,,,,,,87,,,0.2,751.4098068317398,X,l,go,l,1,,0.32501431787386537,,,,,,,,,,,,,,,,,61,001,22,w,Psychologie,2023-01-24_15h06.27.853,00_bat_bachelor,2022.2.4,60.03373530239092,
,,,,,,,,,,,,1,0,1,0,88,0,88,0,,,,,,,88,,,0.2,752.0438414332457,Y,d,go,d,1,,0.29974742140620947,,,,,,,,,,,,,,,,,61,001,22,w,Psychologie,2023-01-24_15h06.27.853,00_bat_bachelor,2022.2.4,60.03373530239092,
,,,,,,,,,,,,1,0,1,0,89,0,89,0,,,,,,,89,,,0.2,752.644215445267,Y,None,nogo,None,1,,,,,,,,,,,,,,,,,,,61,001,22,w,Psychologie,2023-01-24_15h06.27.853,00_bat_bachelor,2022.2.4,60.03373530239092,
,,,,,,,,,,,,1,0,1,0,90,0,90,0,,,,,,,90,,,0.2,753.645139566157,X,l,go,l,1,,0.24978332431055605,,,,,,,,,,,,,,,,,61,001,22,w,Psychologie,2023-01-24_15h06.27.853,00_bat_bachelor,2022.2.4,60.03373530239092,
,,,,,,,,,,,,1,0,1,0,91,0,91,0,,,,,,,91,,,0.2,754.1956411174033,Y,d,go,d,1,,0.32526643900200725,,,,,,,,,,,,,,,,,61,001,22,w,Psychologie,2023-01-24_15h06.27.853,00_bat_bachelor,2022.2.4,60.03373530239092,
,,,,,,,,,,,,1,0,1,0,92,0,92,0,,,,,,,92,,,0.2,754.829091476975,Y,None,nogo,None,1,,,,,,,,,,,,,,,,,,,61,001,22,w,Psychologie,2023-01-24_15h06.27.853,00_bat_bachelor,2022.2.4,60.03373530239092,
,,,,,,,,,,,,1,0,1,0,93,0,93,0,,,,,,,93,,,0.2,755.8298643250018,X,l,go,l,1,,0.24129605549387634,,,,,,,,,,,,,,,,,61,001,22,w,Psychologie,2023-01-24_15h06.27.853,00_bat_bachelor,2022.2.4,60.03373530239092,
,,,,,,,,,,,,1,0,1,0,94,0,94,0,,,,,,,94,,,0.2,756.3804706034716,Y,d,go,d,1,,0.2661711950786412,,,,,,,,,,,,,,,,,61,001,22,w,Psychologie,2023-01-24_15h06.27.853,00_bat_bachelor,2022.2.4,60.03373530239092,
,,,,,,,,,,,,1,0,1,0,95,0,95,0,,,,,,,95,,,0.2,756.947399783181,X,l,go,None,0,,,,,,,,,,,,,,,,,,,61,001,22,w,Psychologie,2023-01-24_15h06.27.853,00_bat_bachelor,2022.2.4,60.03373530239092,
,,,,,,,,,,,,1,0,1,0,96,0,96,0,,,,,,,96,,,0.2,757.9483903280925,Y,d,go,d,1,,0.2985871792770922,,,,,,,,,,,,,,,,,61,001,22,w,Psychologie,2023-01-24_15h06.27.853,00_bat_bachelor,2022.2.4,60.03373530239092,
,,,,,,,,,,,,1,0,1,0,97,0,97,0,,,,,,,97,,,0.2,758.54880118859,X,l,go,l,1,,0.354586667381227,,,,,,,,,,,,,,,,,61,001,22,w,Psychologie,2023-01-24_15h06.27.853,00_bat_bachelor,2022.2.4,60.03373530239092,
,,,,,,,,,,,,1,0,1,0,98,0,98,0,,,,,,,98,,,0.2,759.2157463196199,X,None,nogo,None,1,,,,,,,,,,,,,,,,,,,61,001,22,w,Psychologie,2023-01-24_15h06.27.853,00_bat_bachelor,2022.2.4,60.03373530239092,
,,,,,,,,,,,,1,0,1,0,99,0,99,0,,,,,,,99,,,0.2,760.2168629253283,Y,d,go,d,1,,0.2704853748437017,,,,,,,,,,,,,,,,,61,001,22,w,Psychologie,2023-01-24_15h06.27.853,00_bat_bachelor,2022.2.4,60.03373530239092,
,,,,,,,,,,,,1,0,1,0,100,0,100,0,,,,,,,100,,,0.2,760.8005969452206,X,l,go,l,1,,0.32717140787281096,,,,,,,,,,,,,,,,,61,001,22,w,Psychologie,2023-01-24_15h06.27.853,00_bat_bachelor,2022.2.4,60.03373530239092,
,,,,,,,,,,,,1,0,1,0,101,0,101,0,,,,,,,101,,,0.2,761.4343188197818,Y,d,go,d,1,,0.6209991441573948,,,,,,,,,,,,,,,,,61,001,22,w,Psychologie,2023-01-24_15h06.27.853,00_bat_bachelor,2022.2.4,60.03373530239092,
,,,,,,,,,,,,1,0,1,0,102,0,102,0,,,,,,,102,,,0.2,762.3684730334207,X,l,go,l,1,,0.34392436943016946,,,,,,,,,,,,,,,,,61,001,22,w,Psychologie,2023-01-24_15h06.27.853,00_bat_bachelor,2022.2.4,60.03373530239092,
,,,,,,,,,,,,1,0,1,0,103,0,103,0,,,,,,,103,,,0.2,763.0189018091187,X,None,nogo,None,1,,,,,,,,,,,,,,,,,,,61,001,22,w,Psychologie,2023-01-24_15h06.27.853,00_bat_bachelor,2022.2.4,60.03373530239092,
,,,,,,,,,,,,1,0,1,0,104,0,104,0,,,,,,,104,,,0.2,764.0197008389514,Y,d,go,d,1,,0.3880465298425406,,,,,,,,,,,,,,,,,61,001,22,w,Psychologie,2023-01-24_15h06.27.853,00_bat_bachelor,2022.2.4,60.03373530239092,
,,,,,,,,,,,,1,0,1,0,105,0,105,0,,,,,,,105,,,0.2,764.7199628024828,X,l,go,l,1,,0.3112392944749445,,,,,,,,,,,,,,,,,61,001,22,w,Psychologie,2023-01-24_15h06.27.853,00_bat_bachelor,2022.2.4,60.03373530239092,
,,,,,,,,,,,,1,0,1,0,106,0,106,0,,,,,,,106,,,0.2,765.337371472735,X,None,nogo,None,1,766.137939811917,,,,,,,,,,,,,,,,,,61,001,22,w,Psychologie,2023-01-24_15h06.27.853,00_bat_bachelor,2022.2.4,60.03373530239092,
,,,,,,,,,,,,1,0,1,0,107,0,107,0,,,,,,,107,,,0.2,766.338146260241,Y,d,go,d,1,,0.2936116666533053,,,,,,,,,,,,,,,,,61,001,22,w,Psychologie,2023-01-24_15h06.27.853,00_bat_bachelor,2022.2.4,60.03373530239092,
,,,,,,,,,,,,1,0,1,0,108,0,108,0,,,,,,,108,,,0.2,766.9385968782008,X,l,go,l,1,,0.2689847694709897,,,,,,,,,,,,,,,,,61,001,22,w,Psychologie,2023-01-24_15h06.27.853,00_bat_bachelor,2022.2.4,60.03373530239092,
,,,,,,,,,,,,1,0,1,0,109,0,109,0,,,,,,,109,,,0.2,767.5223231406417,Y,d,go,d,1,,0.4365919609554112,,,,,,,,,,,,,,,,,61,001,22,w,Psychologie,2023-01-24_15h06.27.853,00_bat_bachelor,2022.2.4,60.03373530239092,
,,,,,,,,,,,,1,0,1,0,110,0,110,0,,,,,,,110,,,0.2,768.273040352622,X,l,go,l,1,,0.26253095432184637,,,,,,,,,,,,,,,,,61,001,22,w,Psychologie,2023-01-24_15h06.27.853,00_bat_bachelor,2022.2.4,60.03373530239092,
,,,,,,,,,,,,1,0,1,0,111,0,111,0,,,,,,,111,,,0.2,768.8400335321203,X,None,nogo,None,1,,,,,,,,,,,,,,,,,,,61,001,22,w,Psychologie,2023-01-24_15h06.27.853,00_bat_bachelor,2022.2.4,60.03373530239092,
,,,,,,,,,,,,1,0,1,0,112,0,112,0,,,,,,,112,,,0.2,769.840818016557,Y,d,go,d,1,,0.23141484847292304,,,,,,,,,,,,,,,,,61,001,22,w,Psychologie,2023-01-24_15h06.27.853,00_bat_bachelor,2022.2.4,60.03373530239092,
,,,,,,,,,,,,1,0,1,0,113,0,113,0,,,,,,,113,,,0.2,770.3744846670888,X,l,go,l,1,,0.2882991845253855,,,,,,,,,,,,,,,,,61,001,22,w,Psychologie,2023-01-24_15h06.27.853,00_bat_bachelor,2022.2.4,60.03373530239092,
,,,,,,,,,,,,1,0,1,0,114,0,114,0,,,,,,,114,,,0.2,770.9750162546989,X,None,nogo,None,1,,,,,,,,,,,,,,,,,,,61,001,22,w,Psychologie,2023-01-24_15h06.27.853,00_bat_bachelor,2022.2.4,60.03373530239092,
,,,,,,,,,,,,1,0,1,0,115,0,115,0,,,,,,,115,,,0.2,771.9754981936421,Y,d,go,d,1,,0.24038841971196234,,,,,,,,,,,,,,,,,61,001,22,w,Psychologie,2023-01-24_15h06.27.853,00_bat_bachelor,2022.2.4,60.03373530239092,
,,,,,,,,,,,,1,0,1,0,116,0,116,0,,,,,,,116,,,0.2,772.5261432600673,X,l,go,l,1,,0.31365238409489393,,,,,,,,,,,,,,,,,61,001,22,w,Psychologie,2023-01-24_15h06.27.853,00_bat_bachelor,2022.2.4,60.03373530239092,
,,,,,,,,,,,,1,0,1,0,117,0,117,0,,,,,,,117,,,0.2,773.1430762943346,X,None,nogo,None,1,,,,,,,,,,,,,,,,,,,61,001,22,w,Psychologie,2023-01-24_15h06.27.853,00_bat_bachelor,2022.2.4,60.03373530239092,
,,,,,,,,,,,,1,0,1,0,118,0,118,0,,,,,,,118,,,0.2,774.144150233129,Y,d,go,d,1,,0.1829484475310892,,,,,,,,,,,,,,,,,61,001,22,w,Psychologie,2023-01-24_15h06.27.853,00_bat_bachelor,2022.2.4,60.03373530239092,
,,,,,,,,,,,,1,0,1,0,119,0,119,0,,,,,,,119,,,0.2,774.6275114533491,X,l,go,l,1,,0.35499927308410406,,,,,,,,,,,,,,,,,61,001,22,w,Psychologie,2023-01-24_15h06.27.853,00_bat_bachelor,2022.2.4,60.03373530239092,
,,,,,,,,,,,,1,0,1,0,120,0,120,0,,,,,,,120,,,0.2,775.2947004633024,X,None,nogo,None,1,,,,,,,,,,,,,,,,,,,61,001,22,w,Psychologie,2023-01-24_15h06.27.853,00_bat_bachelor,2022.2.4,60.03373530239092,
,,,,,,,,,,,,1,0,1,0,121,0,121,0,,,,,,,121,,,0.2,776.2956977961585,X,None,nogo,d,0,,0.2550642911810428,,,,,,,,,,,,,,,,,61,001,22,w,Psychologie,2023-01-24_15h06.27.853,00_bat_bachelor,2022.2.4,60.03373530239092,
,,,,,,,,,,,,1,0,1,0,122,0,122,0,,,,,,,122,,,0.2,776.8627423695289,Y,d,go,d,1,,0.5685715333092958,,,,,,,,,,,,,,,,,61,001,22,w,Psychologie,2023-01-24_15h06.27.853,00_bat_bachelor,2022.2.4,60.03373530239092,
,,,,,,,,,,,,1,0,1,0,123,0,123,0,,,,,,,123,,,0.2,777.7469538196456,X,l,go,l,1,,0.42035439307801425,,,,,,,,,,,,,,,,,61,001,22,w,Psychologie,2023-01-24_15h06.27.853,00_bat_bachelor,2022.2.4,60.03373530239092,
,,,,,,,,,,,,1,0,1,0,124,0,124,0,,,,,,,124,,,0.2,778.480726554757,Y,d,go,d,1,,0.31065796152688563,,,,,,,,,,,,,,,,,61,001,22,w,Psychologie,2023-01-24_15h06.27.853,00_bat_bachelor,2022.2.4,60.03373530239092,
,,,,,,,,,,,,1,0,1,0,125,0,125,0,,,,,,,125,,,0.2,779.097921407083,Y,None,nogo,None,1,,,,,,,,,,,,,,,,,,,61,001,22,w,Psychologie,2023-01-24_15h06.27.853,00_bat_bachelor,2022.2.4,60.03373530239092,
,,,,,,,,,,,,1,0,1,0,126,0,126,0,,,,,,,126,,,0.2,780.0985643158201,X,l,go,l,1,,0.24583811382763088,,,,,,,,,,,,,,,,,61,001,22,w,Psychologie,2023-01-24_15h06.27.853,00_bat_bachelor,2022.2.4,60.03373530239092,
,,,,,,,,,,,,1,0,1,0,127,0,127,0,,,,,,,127,,,0.2,780.6487623520661,Y,d,go,d,1,,0.3024339652620256,,,,,,,,,,,,,,,,,61,001,22,w,Psychologie,2023-01-24_15h06.27.853,00_bat_bachelor,2022.2.4,60.03373530239092,
,,,,,,,,,,,,1,0,1,0,128,0,128,0,,,,,,,128,,,0.2,781.2659106589854,Y,None,nogo,None,1,,,,,,,,,,,,,,,,,,,61,001,22,w,Psychologie,2023-01-24_15h06.27.853,00_bat_bachelor,2022.2.4,60.03373530239092,
,,,,,,,,,,,,1,0,1,0,129,0,129,0,,,,,,,129,,,0.2,782.2668056888506,X,l,go,l,1,,0.317217473173514,,,,,,,,,,,,,,,,,61,001,22,w,Psychologie,2023-01-24_15h06.27.853,00_bat_bachelor,2022.2.4,60.03373530239092,
,,,,,,,,,,,,1,0,1,0,130,0,130,0,,,,,,,130,,,0.2,782.884078601608,Y,d,go,d,1,,0.40256628044880927,,,,,,,,,,,,,,,,,61,001,22,w,Psychologie,2023-01-24_15h06.27.853,00_bat_bachelor,2022.2.4,60.03373530239092,
,,,,,,,,,,,,1,0,1,0,131,0,131,0,,,,,,,131,,,0.2,783.6012981326785,X,l,go,l,1,,0.6471242224797606,,,,,,,,,,,,,,,,,61,001,22,w,Psychologie,2023-01-24_15h06.27.853,00_bat_bachelor,2022.2.4,60.03373530239092,
,,,,,,,,,,,,1,0,1,0,132,0,132,0,,,,,,,132,,,0.2,784.5520118535496,Y,d,go,d,1,,0.25633071502670646,,,,,,,,,,,,,,,,,61,001,22,w,Psychologie,2023-01-24_15h06.27.853,00_bat_bachelor,2022.2.4,60.03373530239092,
,,,,,,,,,,,,1,0,1,0,133,0,133,0,,,,,,,133,,,0.2,785.1190447907429,X,l,go,l,1,,0.39253767929039896,,,,,,,,,,,,,,,,,61,001,22,w,Psychologie,2023-01-24_15h06.27.853,00_bat_bachelor,2022.2.4,60.03373530239092,
,,,,,,,,,,,,1,0,1,0,134,0,134,0,,,,,,,134,,,0.2,785.8196762087755,X,None,nogo,None,1,,,,,,,,,,,,,,,,,,,61,001,22,w,Psychologie,2023-01-24_15h06.27.853,00_bat_bachelor,2022.2.4,60.03373530239092,
,,,,,,,,,,,,1,0,1,0,135,0,135,0,,,,,,,135,,,0.2,786.8201227539685,Y,d,go,d,1,,0.3387447358109057,,,,,,,,,,,,,,,,,61,001,22,w,Psychologie,2023-01-24_15h06.27.853,00_bat_bachelor,2022.2.4,60.03373530239092,
,,,,,,,,,,,,1,0,1,0,136,0,136,0,,,,,,,136,,,0.2,787.4708972263616,X,l,go,l,1,,0.34465600550174713,,,,,,,,,,,,,,,,,61,001,22,w,Psychologie,2023-01-24_15h06.27.853,00_bat_bachelor,2022.2.4,60.03373530239092,
,,,,,,,,,,,,1,0,1,0,137,0,137,0,,,,,,,137,,,0.2,788.1211175171193,Y,d,go,None,0,788.921856522793,,,,,,,,,,,,,,,,,,61,001,22,w,Psychologie,2023-01-24_15h06.27.853,00_bat_bachelor,2022.2.4,60.03373530239092,
,,,,,,,,,,,,1,0,1,0,138,0,138,0,,,,,,,138,,,0.2,789.1221473347396,Y,None,nogo,None,1,,,,,,,,,,,,,,,,,,,61,001,22,w,Psychologie,2023-01-24_15h06.27.853,00_bat_bachelor,2022.2.4,60.03373530239092,
,,,,,,,,,,,,1,0,1,0,139,0,139,0,,,,,,,139,,,0.2,790.1229938797187,Y,None,nogo,l,0,,0.2368383607827127,,,,,,,,,,,,,,,,,61,001,22,w,Psychologie,2023-01-24_15h06.27.853,00_bat_bachelor,2022.2.4,60.03373530239092,
,,,,,,,,,,,,1,0,1,0,140,0,140,0,,,,,,,140,,,0.2,790.6733533705119,X,l,go,l,1,,0.6309327152557671,,,,,,,,,,,,,,,,,61,001,22,w,Psychologie,2023-01-24_15h06.27.853,00_bat_bachelor,2022.2.4,60.03373530239092,
,,,,,,,,,,,,1,0,1,0,141,0,141,0,,,,,,,141,,,0.2,791.6073873420246,Y,d,go,None,0,792.4079964084085,,,,,,,,,,,,,,,,,,61,001,22,w,Psychologie,2023-01-24_15h06.27.853,00_bat_bachelor,2022.2.4,60.03373530239092,
,,,,,,,,,,,,1,0,1,0,142,0,142,0,,,,,,,142,,,0.2,792.6081437051762,Y,None,nogo,None,1,,,,,,,,,,,,,,,,,,,61,001,22,w,Psychologie,2023-01-24_15h06.27.853,00_bat_bachelor,2022.2.4,60.03373530239092,
,,,,,,,,,,,,1,0,1,0,143,0,143,0,,,,,,,143,,,0.2,793.6088942503557,X,l,go,l,1,,0.30224099569022655,,,,,,,,,,,,,,,,,61,001,22,w,Psychologie,2023-01-24_15h06.27.853,00_bat_bachelor,2022.2.4,60.03373530239092,
,,,,,,,,,,,,1,0,1,0,144,0,144,0,,,,,,,144,,,0.2,794.2257414662745,Y,d,go,d,1,,0.34104485576972365,,,,,,,,,,,,,,,,,61,001,22,w,Psychologie,2023-01-24_15h06.27.853,00_bat_bachelor,2022.2.4,60.03373530239092,
,,,,,,,,,,,,1,0,1,0,145,0,145,0,,,,,,,145,,,0.2,794.876554726623,X,l,go,l,1,,0.41167027596384287,,,,,,,,,,,,,,,,,61,001,22,w,Psychologie,2023-01-24_15h06.27.853,00_bat_bachelor,2022.2.4,60.03373530239092,
,,,,,,,,,,,,1,0,1,0,146,0,146,0,,,,,,,146,,,0.2,795.5938688030001,Y,d,go,d,1,,0.42964505520649254,,,,,,,,,,,,,,,,,61,001,22,w,Psychologie,2023-01-24_15h06.27.853,00_bat_bachelor,2022.2.4,60.03373530239092,
,,,,,,,,,,,,1,0,1,0,147,0,147,0,,,,,,,147,,,0.2,796.3274165685289,X,l,go,l,1,,0.4320256602950394,,,,,,,,,,,,,,,,,61,001,22,w,Psychologie,2023-01-24_15h06.27.853,00_bat_bachelor,2022.2.4,60.03373530239092,
,,,,,,,,,,,,1,0,1,0,148,0,148,0,,,,,,,148,,,0.2,797.0615553641692,X,None,nogo,None,1,,,,,,,,,,,,,,,,,,,61,001,22,w,Psychologie,2023-01-24_15h06.27.853,00_bat_bachelor,2022.2.4,60.03373530239092,
,,,,,,,,,,,,1,0,1,0,149,0,149,0,,,,,,,149,,,0.2,798.0623306364287,Y,d,go,d,1,,0.31432341411709785,,,,,,,,,,,,,,,,,61,001,22,w,Psychologie,2023-01-24_15h06.27.853,00_bat_bachelor,2022.2.4,60.03373530239092,
,,,,,,,,,,,,1,0,1,0,150,0,150,0,,,,,,,150,,,0.2,798.6794556705281,X,l,go,l,1,,0.3846836225129664,,,,,,,,,,,,,,,,,61,001,22,w,Psychologie,2023-01-24_15h06.27.853,00_bat_bachelor,2022.2.4,60.03373530239092,
,,,,,,,,,,,,1,0,1,0,151,0,151,0,,,,,,,151,,,0.2,799.3799227250274,Y,d,go,d,1,,0.323453591670841,,,,,,,,,,,,,,,,,61,001,22,w,Psychologie,2023-01-24_15h06.27.853,00_bat_bachelor,2022.2.4,60.03373530239092,
,,,,,,,,,,,,1,0,1,0,152,0,152,0,,,,,,,152,,,0.2,800.0138162358198,X,l,go,l,1,,0.41048482223413885,,,,,,,,,,,,,,,,,61,001,22,w,Psychologie,2023-01-24_15h06.27.853,00_bat_bachelor,2022.2.4,60.03373530239092,
,,,,,,,,,,,,1,0,1,0,153,0,153,0,,,,,,,153,,,0.2,800.7310430395883,Y,d,go,d,1,,0.36585987405851483,,,,,,,,,,,,,,,,,61,001,22,w,Psychologie,2023-01-24_15h06.27.853,00_bat_bachelor,2022.2.4,60.03373530239092,
,,,,,,,,,,,,1,0,1,0,154,0,154,0,,,,,,,154,,,0.2,801.3980953223072,Y,None,nogo,None,1,,,,,,,,,,,,,,,,,,,61,001,22,w,Psychologie,2023-01-24_15h06.27.853,00_bat_bachelor,2022.2.4,60.03373530239092,
,,,,,,,,,,,,1,0,1,0,155,0,155,0,,,,,,,155,,,0.2,802.3986567764077,X,l,go,l,1,,0.3287437707185745,,,,,,,,,,,,,,,,,61,001,22,w,Psychologie,2023-01-24_15h06.27.853,00_bat_bachelor,2022.2.4,60.03373530239092,
,,,,,,,,,,,,1,0,1,0,156,0,156,0,,,,,,,156,,,0.2,803.0326676205732,Y,d,go,d,1,,0.2704194353427738,,,,,,,,,,,,,,,,,61,001,22,w,Psychologie,2023-01-24_15h06.27.853,00_bat_bachelor,2022.2.4,60.03373530239092,
,,,,,,,,,,,,1,0,1,0,157,0,157,0,,,,,,,157,,,0.2,803.6166343677323,X,l,go,l,1,,0.534343671053648,,,,,,,,,,,,,,,,,61,001,22,w,Psychologie,2023-01-24_15h06.27.853,00_bat_bachelor,2022.2.4,60.03373530239092,
,,,,,,,,,,,,1,0,1,0,158,0,158,0,,,,,,,158,,,0.2,804.4668889858294,Y,d,go,d,1,,0.3717430226970464,,,,,,,,,,,,,,,,,61,001,22,w,Psychologie,2023-01-24_15h06.27.853,00_bat_bachelor,2022.2.4,60.03373530239092,
,,,,,,,,,,,,1,0,1,0,159,0,159,0,,,,,,,159,,,0.2,805.1507587148808,Y,None,nogo,None,1,,,,,,,,,,,,,,,,,,,61,001,22,w,Psychologie,2023-01-24_15h06.27.853,00_bat_bachelor,2022.2.4,60.03373530239092,
,,,,,,,,,,,,1,0,1,0,160,0,160,0,,,,,,,160,,,0.2,806.1517725326121,X,l,go,l,1,,0.23906429926864803,,,,,,,,,,,,,,,,,61,001,22,w,Psychologie,2023-01-24_15h06.27.853,00_bat_bachelor,2022.2.4,60.03373530239092,
,,,,,,,,,,,,1,0,1,0,161,0,161,0,,,,,,,161,,,0.2,806.7020151747856,Y,d,go,d,1,,0.4091718529816717,,,,,,,,,,,,,,,,,61,001,22,w,Psychologie,2023-01-24_15h06.27.853,00_bat_bachelor,2022.2.4,60.03373530239092,
,,,,,,,,,,,,1,0,1,0,162,0,162,0,,,,,,,162,,,0.2,807.4191682816017,Y,None,nogo,None,1,808.2200052267872,,,,,,,,,,,,,,,,,,61,001,22,w,Psychologie,2023-01-24_15h06.27.853,00_bat_bachelor,2022.2.4,60.03373530239092,
,,,,,,,,,,,,1,0,1,0,163,0,163,0,,,,,,,163,,,0.2,808.4199464630801,X,l,go,l,1,,0.48269763542339206,,,,,,,,,,,,,,,,,61,001,22,w,Psychologie,2023-01-24_15h06.27.853,00_bat_bachelor,2022.2.4,60.03373530239092,
,,,,,,,,,,,,1,0,1,0,164,0,164,0,,,,,,,164,,,0.2,809.2041448708624,Y,d,go,d,1,,0.34073988627642393,,,,,,,,,,,,,,,,,61,001,22,w,Psychologie,2023-01-24_15h06.27.853,00_bat_bachelor,2022.2.4,60.03373530239092,
,,,,,,,,,,,,1,0,1,0,165,0,165,0,,,,,,,165,,,0.2,809.8546885554679,Y,None,nogo,None,1,,,,,,,,,,,,,,,,,,,61,001,22,w,Psychologie,2023-01-24_15h06.27.853,00_bat_bachelor,2022.2.4,60.03373530239092,
,,,,,,,,,,,,1,0,1,0,166,0,166,0,,,,,,,166,,,0.2,810.855411948869,X,l,go,l,1,,0.33614400983788073,,,,,,,,,,,,,,,,,61,001,22,w,Psychologie,2023-01-24_15h06.27.853,00_bat_bachelor,2022.2.4,60.03373530239092,
,,,,,,,,,,,,1,0,1,0,167,0,167,0,,,,,,,167,,,0.2,811.5055847247131,Y,d,go,d,1,,0.5983930944930762,,,,,,,,,,,,,,,,,61,001,22,w,Psychologie,2023-01-24_15h06.27.853,00_bat_bachelor,2022.2.4,60.03373530239092,
,,,,,,,,,,,,1,0,1,0,168,0,168,0,,,,,,,168,,,0.2,812.406449257629,X,l,go,None,0,813.2071674147155,,,,,,,,,,,,,,,,,,61,001,22,w,Psychologie,2023-01-24_15h06.27.853,00_bat_bachelor,2022.2.4,60.03373530239092,
,,,,,,,,,,,,1,0,1,0,169,0,169,0,,,,,,,169,,,0.2,813.4072977420874,X,None,nogo,d,0,,0.31169068813323975,,,,,,,,,,,,,,,,,61,001,22,w,Psychologie,2023-01-24_15h06.27.853,00_bat_bachelor,2022.2.4,60.03373530239092,
,,,,,,,,,,,,1,0,1,0,170,0,170,0,,,,,,,170,,,0.2,814.0244208367076,X,None,nogo,None,1,,,,,,,,,,,,,,,,,,,61,001,22,w,Psychologie,2023-01-24_15h06.27.853,00_bat_bachelor,2022.2.4,60.03373530239092,
,,,,,,,,,,,,1,0,1,0,171,0,171,0,,,,,,,171,,,0.2,815.0251127150841,Y,d,go,d,1,,0.4384615358430892,,,,,,,,,,,,,,,,,61,001,22,w,Psychologie,2023-01-24_15h06.27.853,00_bat_bachelor,2022.2.4,60.03373530239092,
,,,,,,,,,,,,1,0,1,0,172,0,172,0,,,,,,,172,,,0.2,815.77551865438,X,l,go,l,1,,0.31200244557112455,,,,,,,,,,,,,,,,,61,001,22,w,Psychologie,2023-01-24_15h06.27.853,00_bat_bachelor,2022.2.4,60.03373530239092,
,,,,,,,,,,,,1,0,1,0,173,0,173,0,,,,,,,173,,,0.2,816.3926417490002,Y,d,go,d,1,,0.5746088637970388,,,,,,,,,,,,,,,,,61,001,22,w,Psychologie,2023-01-24_15h06.27.853,00_bat_bachelor,2022.2.4,60.03373530239092,
,,,,,,,,,,,,1,0,1,0,174,0,174,0,,,,,,,174,,,0.2,817.2769317445345,Y,None,nogo,None,1,,,,,,,,,,,,,,,,,,,61,001,22,w,Psychologie,2023-01-24_15h06.27.853,00_bat_bachelor,2022.2.4,60.03373530239092,
,,,,,,,,,,,,1,0,1,0,175,0,175,0,,,,,,,175,,,0.2,818.2777419260237,X,l,go,l,1,,0.3210628048982471,,,,,,,,,,,,,,,,,61,001,22,w,Psychologie,2023-01-24_15h06.27.853,00_bat_bachelor,2022.2.4,60.03373530239092,
,,,,,,,,,,,,1,0,1,0,176,0,176,0,,,,,,,176,,,0.2,818.9112504674122,Y,d,go,d,1,,0.5355378524400294,,,,,,,,,,,,,,,,,61,001,22,w,Psychologie,2023-01-24_15h06.27.853,00_bat_bachelor,2022.2.4,60.03373530239092,
,,,,,,,,,,,,1,0,1,0,177,0,177,0,,,,,,,177,,,0.2,819.7621455700137,X,l,go,l,1,,0.4047316126525402,,,,,,,,,,,,,,,,,61,001,22,w,Psychologie,2023-01-24_15h06.27.853,00_bat_bachelor,2022.2.4,60.03373530239092,
,,,,,,,,,,,,1,0,1,0,178,0,178,0,,,,,,,178,,,0.2,820.4793714040425,Y,d,go,d,1,,0.34385600592941046,,,,,,,,,,,,,,,,,61,001,22,w,Psychologie,2023-01-24_15h06.27.853,00_bat_bachelor,2022.2.4,60.03373530239092,
,,,,,,,,,,,,1,0,1,0,179,0,179,0,,,,,,,179,,,0.2,821.1295921795536,Y,None,nogo,None,1,821.9304456096143,,,,,,,,,,,,,,,,,,61,001,22,w,Psychologie,2023-01-24_15h06.27.853,00_bat_bachelor,2022.2.4,60.03373530239092,
,,,,,,,,,,,,1,0,1,0,180,0,180,0,,,,,,,180,,,0.2,822.1306510881986,X,l,go,l,1,,0.3410598859190941,,,,,,,,,,,,,,,,,61,001,22,w,Psychologie,2023-01-24_15h06.27.853,00_bat_bachelor,2022.2.4,60.03373530239092,
,,,,,,,,,,,,1,0,1,0,181,0,181,0,,,,,,,181,,,0.2,822.7810779244173,Y,d,go,d,1,,0.41036506462842226,,,,,,,,,,,,,,,,,61,001,22,w,Psychologie,2023-01-24_15h06.27.853,00_bat_bachelor,2022.2.4,60.03373530239092,
,,,,,,,,,,,,1,0,1,0,182,0,182,0,,,,,,,182,,,0.2,823.4982770918868,X,l,go,l,1,,0.5087320471648127,,,,,,,,,,,,,,,,,61,001,22,w,Psychologie,2023-01-24_15h06.27.853,00_bat_bachelor,2022.2.4,60.03373530239092,
,,,,,,,,,,,,1,0,1,0,183,0,183,0,,,,,,,183,,,0.2,824.315610998543,X,None,nogo,None,1,825.1162607921287,,,,,,,,,,,,,,,,,,61,001,22,w,Psychologie,2023-01-24_15h06.27.853,00_bat_bachelor,2022.2.4,60.03373530239092,
,,,,,,,,,,,,1,0,1,0,184,0,184,0,,,,,,,184,,,0.2,825.3164657859597,Y,d,go,d,1,,0.3392659474629909,,,,,,,,,,,,,,,,,61,001,22,w,Psychologie,2023-01-24_15h06.27.853,00_bat_bachelor,2022.2.4,60.03373530239092,
,,,,,,,,,,,,1,0,1,0,185,0,185,0,,,,,,,185,,,0.2,825.9669566222001,X,l,go,l,1,,0.4255228752736002,,,,,,,,,,,,,,,,,61,001,22,w,Psychologie,2023-01-24_15h06.27.853,00_bat_bachelor,2022.2.4,60.03373530239092,
,,,,,,,,,,,,1,0,1,0,186,0,186,0,,,,,,,186,,,0.2,826.7008132359479,Y,d,go,d,1,,0.45952819217927754,,,,,,,,,,,,,,,,,61,001,22,w,Psychologie,2023-01-24_15h06.27.853,00_bat_bachelor,2022.2.4,60.03373530239092,
,,,,,,,,,,,,1,0,1,0,187,0,187,0,,,,,,,187,,,0.2,827.4677854701877,X,l,go,l,1,,0.395750283729285,,,,,,,,,,,,,,,,,61,001,22,w,Psychologie,2023-01-24_15h06.27.853,00_bat_bachelor,2022.2.4,60.03373530239092,
,,,,,,,,,,,,1,0,1,0,188,0,188,0,,,,,,,188,,,0.2,828.1685119182803,Y,d,go,d,1,,0.4796906067058444,,,,,,,,,,,,,,,,,61,001,22,w,Psychologie,2023-01-24_15h06.27.853,00_bat_bachelor,2022.2.4,60.03373530239092,
,,,,,,,,,,,,1,0,1,0,189,0,189,0,,,,,,,189,,,0.2,828.9524315383751,X,l,go,l,1,,0.36673551006242633,,,,,,,,,,,,,,,,,61,001,22,w,Psychologie,2023-01-24_15h06.27.853,00_bat_bachelor,2022.2.4,60.03373530239092,
,,,,,,,,,,,,1,0,1,0,190,0,190,0,,,,,,,190,,,0.2,829.6194983662572,X,None,nogo,None,1,,,,,,,,,,,,,,,,,,,61,001,22,w,Psychologie,2023-01-24_15h06.27.853,00_bat_bachelor,2022.2.4,60.03373530239092,
,,,,,,,,,,,,1,0,1,0,191,0,191,0,,,,,,,191,,,0.2,830.6202891538851,X,None,nogo,None,1,,,,,,,,,,,,,,,,,,,61,001,22,w,Psychologie,2023-01-24_15h06.27.853,00_bat_bachelor,2022.2.4,60.03373530239092,
,,,,,,,,,,,,1,0,1,0,192,0,192,0,,,,,,,192,,,0.2,831.6212472140323,Y,d,go,d,1,,0.3218540770467371,,,,,,,,,,,,,,,,,61,001,22,w,Psychologie,2023-01-24_15h06.27.853,00_bat_bachelor,2022.2.4,60.03373530239092,
,,,,,,,,,,,,1,0,1,0,193,0,193,0,,,,,,,193,,,0.2,832.2550369673409,X,l,go,l,1,,0.2807282789144665,,,,,,,,,,,,,,,,,61,001,22,w,Psychologie,2023-01-24_15h06.27.853,00_bat_bachelor,2022.2.4,60.03373530239092,
,,,,,,,,,,,,1,0,1,0,194,0,194,0,,,,,,,194,,,0.2,832.8387404419482,X,None,nogo,None,1,,,,,,,,,,,,,,,,,,,61,001,22,w,Psychologie,2023-01-24_15h06.27.853,00_bat_bachelor,2022.2.4,60.03373530239092,
,,,,,,,,,,,,1,0,1,0,195,0,195,0,,,,,,,195,,,0.2,833.8394124414772,Y,d,go,d,1,,0.328881467692554,,,,,,,,,,,,,,,,,61,001,22,w,Psychologie,2023-01-24_15h06.27.853,00_bat_bachelor,2022.2.4,60.03373530239092,
,,,,,,,,,,,,1,0,1,0,196,0,196,0,,,,,,,196,,,0.2,834.4731028010137,X,l,go,l,1,,0.36548702558502555,,,,,,,,,,,,,,,,,61,001,22,w,Psychologie,2023-01-24_15h06.27.853,00_bat_bachelor,2022.2.4,60.03373530239092,
,,,,,,,,,,,,1,0,1,0,197,0,197,0,,,,,,,197,,,0.2,835.1406539925374,Y,d,go,d,1,,0.5636478995438665,,,,,,,,,,,,,,,,,61,001,22,w,Psychologie,2023-01-24_15h06.27.853,00_bat_bachelor,2022.2.4,60.03373530239092,
,,,,,,,,,,,,1,0,1,0,198,0,198,0,,,,,,,198,,,0.2,836.0076062993612,X,l,go,l,1,,0.3511301842518151,,,,,,,,,,,,,,,,,61,001,22,w,Psychologie,2023-01-24_15h06.27.853,00_bat_bachelor,2022.2.4,60.03373530239092,
,,,,,,,,,,,,1,0,1,0,199,0,199,0,,,,,,,199,,,0.2,836.6751162786968,X,None,nogo,None,1,,,,,,,,,,,,,,,,,,,61,001,22,w,Psychologie,2023-01-24_15h06.27.853,00_bat_bachelor,2022.2.4,60.03373530239092,
,,,,,,,,,,,,1,0,1,0,200,0,200,0,,,,,,,200,,,0.2,837.6755303391255,Y,d,go,d,1,,0.23560102796182036,,,,,,,,,,,,,,,,,61,001,22,w,Psychologie,2023-01-24_15h06.27.853,00_bat_bachelor,2022.2.4,60.03373530239092,
,,,,,,,,,,,,1,0,1,0,201,0,201,0,,,,,,,201,,,0.2,838.2259737087879,X,l,go,l,1,,0.3416097038425505,,,,,,,,,,,,,,,,,61,001,22,w,Psychologie,2023-01-24_15h06.27.853,00_bat_bachelor,2022.2.4,60.03373530239092,
