loop_instruction.thisRepN,loop_instruction.thisTrialN,loop_instruction.thisN,loop_instruction.thisIndex,loop_rsi_practice.thisRepN,loop_rsi_practice.thisTrialN,loop_rsi_practice.thisN,loop_rsi_practice.thisIndex,loop_practice.thisRepN,loop_practice.thisTrialN,loop_practice.thisN,loop_practice.thisIndex,loop_exp.thisRepN,loop_exp.thisTrialN,loop_exp.thisN,loop_exp.thisIndex,loop_trials.thisRepN,loop_trials.thisTrialN,loop_trials.thisN,loop_trials.thisIndex,map_condition,map_x_key,map_y_key,key_resp_welcome.started,key_resp_welcome.keys,key_resp_welcome.rt,index,text_empty_rsi_practice.started,text_empty_rsi_practice.stopped,rsi,stimulus.started,stimulus,correct,trial_type,key_resp_trial.keys,key_resp_trial.corr,key_resp_trial.rt,key_resp_instruction_rsi.started,key_resp_instruction_rsi.keys,key_resp_instruction_rsi.rt,key_resp_instruction_rsi.stopped,key_resp_instruction_final.started,key_resp_instruction_final.keys,key_resp_instruction_final.rt,stimulus.stopped,key_resp_break.started,key_resp_break.keys,key_resp_break.rt,key_resp_break.stopped,key_resp_end_screen.started,image_end_screen.started,key_resp_end_screen.stopped,image_end_screen.stopped,key_resp_end_screen.keys,participant,session,Alter,Geschlecht (w/m/d/andere),Studiengang,date,expName,psychopyVersion,frameRate,
,,,,0,0,0,0,0,0,0,0,,,,,,,,,1,l,d,986.3348930931825,j,19.681341597199207,0,1006.042717153061,1007.0567729310715,1,1007.0567729310715,X,l,go,None,0,,,,,,,,,,,,,,,,,,,63,001,19,w,Psychologie,2023-01-25_09h05.18.746,00_bat_bachelor,2022.2.4,59.913289002238386,
,,,,0,0,0,0,1,0,1,0,,,,,,,,,,,,,,,1,1008.4575754534453,1009.4586416368256,1,1009.4586416368256,Y,d,go,l,0,0.5708376789116301,,,,,,,,,,,,,,,,,,63,001,19,w,Psychologie,2023-01-25_09h05.18.746,00_bat_bachelor,2022.2.4,59.913289002238386,
,,,,0,0,0,0,2,0,2,0,,,,,,,,,,,,,,,2,1010.7426483529562,1011.7435506572947,1,1011.7435506572947,X,l,go,d,0,0.22202892912901007,,,,,,,,,,,,,,,,,,63,001,19,w,Psychologie,2023-01-25_09h05.18.746,00_bat_bachelor,2022.2.4,59.913289002238386,
,,,,0,0,0,0,3,0,3,0,,,,,,,,,,,,,,,3,1012.6777963798377,1013.6785556536634,1,1013.6785556536634,X,None,nogo,None,1,,,,,,,,,,,,,,,,,,,63,001,19,w,Psychologie,2023-01-25_09h05.18.746,00_bat_bachelor,2022.2.4,59.913289002238386,
,,,,0,0,0,0,4,0,4,0,,,,,,,,,,,,,,,4,1015.0793911457877,1016.0803860563319,1,1016.0803860563319,Y,d,go,None,0,,,,,,,,,,,,,,,,,,,63,001,19,w,Psychologie,2023-01-25_09h05.18.746,00_bat_bachelor,2022.2.4,59.913289002238386,
,,,,0,0,0,0,5,0,5,0,,,,,,,,,,,,,,,5,1017.4815056700609,1018.4822179135226,1,1018.4822179135226,X,l,go,None,0,,,,,,,,,,,,,,,,,,,63,001,19,w,Psychologie,2023-01-25_09h05.18.746,00_bat_bachelor,2022.2.4,59.913289002238386,
,,,,0,0,0,0,6,0,6,0,,,,,,,,,,,,,,,6,1019.8833297696838,1020.8838708614057,1,1020.8838708614057,Y,d,go,l,0,0.29724746278952807,,,,,,,,,,,,,,,,,,63,001,19,w,Psychologie,2023-01-25_09h05.18.746,00_bat_bachelor,2022.2.4,59.913289002238386,
,,,,0,0,0,0,7,0,7,0,,,,,,,,,,,,,,,7,1021.8848948628874,1022.885708924674,1,1022.885708924674,X,l,go,l,1,0.2786714357789606,,,,,,,,,,,,,,,,,,63,001,19,w,Psychologie,2023-01-25_09h05.18.746,00_bat_bachelor,2022.2.4,59.913289002238386,
,,,,0,0,0,0,8,0,8,0,,,,,,,,,,,,,,,8,1023.8699387199013,1024.870538478368,1,1024.870538478368,X,None,nogo,l,0,0.4066987734986469,,,,,,,,,,,,,,,,,,63,001,19,w,Psychologie,2023-01-25_09h05.18.746,00_bat_bachelor,2022.2.4,59.913289002238386,
,,,,0,0,0,0,9,0,9,0,,,,,,,,,,,,,,,9,1026.4049460435635,1027.405765923555,1,1027.405765923555,Y,d,go,d,1,0.40019112767186016,,,,,,,,,,,,,,,,,,63,001,19,w,Psychologie,2023-01-25_09h05.18.746,00_bat_bachelor,2022.2.4,59.913289002238386,
,,,,0,0,0,0,10,0,10,0,,,,,,,,,,,,,,,10,1028.5065835247224,1029.507318556105,1,1029.507318556105,X,l,go,l,1,0.3778628527652472,,,,,,,,,,,,,,,,,,63,001,19,w,Psychologie,2023-01-25_09h05.18.746,00_bat_bachelor,2022.2.4,59.913289002238386,
,,,,0,0,0,0,11,0,11,0,,,,,,,,,,,,,,,11,1030.591370072303,1031.5919979519967,1,1031.5919979519967,Y,d,go,d,1,0.373109876178205,,,,,,,,,,,,,,,,,,63,001,19,w,Psychologie,2023-01-25_09h05.18.746,00_bat_bachelor,2022.2.4,59.913289002238386,
,,,,0,0,0,0,12,0,12,0,,,,,,,,,,,,,,,12,1032.6764596506255,1033.676999287767,1,1033.676999287767,X,l,go,l,1,0.368362232868094,,,,,,,,,,,,,,,,,,63,001,19,w,Psychologie,2023-01-25_09h05.18.746,00_bat_bachelor,2022.2.4,59.913289002238386,
,,,,0,0,0,0,13,0,13,0,,,,,,,,,,,,,,,13,1034.76136838019,1035.761768380762,1,1035.761768380762,X,None,nogo,l,0,0.3790647939022165,,,,,,,,,,,,,,,,,,63,001,19,w,Psychologie,2023-01-25_09h05.18.746,00_bat_bachelor,2022.2.4,59.913289002238386,
,,,,0,0,0,0,14,0,14,0,,,,,,,,,,,,,,,14,1037.2466311466123,1038.2473016930453,1,1038.2473016930453,Y,d,go,d,1,0.38961899108835496,,,,,,,,,,,,,,,,,,63,001,19,w,Psychologie,2023-01-25_09h05.18.746,00_bat_bachelor,2022.2.4,59.913289002238386,
,,,,1,0,1,0,0,0,0,0,,,,,,,,,,,,,,,0,1043.2511911532492,1043.4513761716953,0.2,1043.4513761716953,X,l,go,l,1,0.5940765005943831,1039.3588848856452,j,3.8730858761118725,,,,,,,,,,,,,,,63,001,19,w,Psychologie,2023-01-25_09h05.18.746,00_bat_bachelor,2022.2.4,59.913289002238386,
,,,,1,0,1,0,1,0,1,0,,,,,,,,,,,,,,,1,1044.7521446091705,1044.9524028398737,0.2,1044.9524028398737,Y,d,go,d,1,0.3410017082642298,,,,,,,,,,,,,,,,,,63,001,19,w,Psychologie,2023-01-25_09h05.18.746,00_bat_bachelor,2022.2.4,59.913289002238386,
,,,,1,0,1,0,2,0,2,0,,,,,,,,,,,,,,,2,1046.0032446107944,1046.203437871678,0.2,1046.203437871678,X,l,go,l,1,0.38598747065407224,,,,,,,,,,,,,,,,,,63,001,19,w,Psychologie,2023-01-25_09h05.18.746,00_bat_bachelor,2022.2.4,59.913289002238386,
,,,,1,0,1,0,3,0,3,0,,,,,,,,,,,,,,,3,1047.3042515940615,1047.5043672790925,0.2,1047.5043672790925,Y,d,go,d,1,0.3808703722897917,,,,,,,,,,,,,,,,,,63,001,19,w,Psychologie,2023-01-25_09h05.18.746,00_bat_bachelor,2022.2.4,59.913289002238386,
,,,,1,0,1,0,4,0,4,0,,,,,,,,,,,,,,,4,1048.588384370989,1048.7886731471517,0.2,1048.7886731471517,X,l,go,l,1,0.48795658865128644,,,,,,,,,,,,,,,,,,63,001,19,w,Psychologie,2023-01-25_09h05.18.746,00_bat_bachelor,2022.2.4,59.913289002238386,
,,,,1,0,1,0,5,0,5,0,,,,,,,,,,,,,,,5,1049.9896421667654,1050.1895008817082,0.2,1050.1895008817082,X,None,nogo,None,1,,,,,,,,,,,,,,,,,,,63,001,19,w,Psychologie,2023-01-25_09h05.18.746,00_bat_bachelor,2022.2.4,59.913289002238386,
,,,,1,0,1,0,6,0,6,0,,,,,,,,,,,,,,,6,1051.590786313871,1051.7911240598187,0.2,1051.7911240598187,X,None,nogo,None,1,,,,,,,,,,,,,,,,,,,63,001,19,w,Psychologie,2023-01-25_09h05.18.746,00_bat_bachelor,2022.2.4,59.913289002238386,
,,,,1,0,1,0,7,0,7,0,,,,,,,,,,,,,,,7,1053.1920662187622,1053.3922977827315,0.2,1053.3922977827315,Y,d,go,d,1,0.3811200696218293,,,,,,,,,,,,,,,,,,63,001,19,w,Psychologie,2023-01-25_09h05.18.746,00_bat_bachelor,2022.2.4,59.913289002238386,
,,,,1,0,1,0,8,0,8,0,,,,,,,,,,,,,,,8,1054.4763919656689,1054.6764000141702,0.2,1054.6764000141702,X,l,go,l,1,0.504717340314528,,,,,,,,,,,,,,,,,,63,001,19,w,Psychologie,2023-01-25_09h05.18.746,00_bat_bachelor,2022.2.4,59.913289002238386,
,,,,1,0,1,0,9,0,9,0,,,,,,,,,,,,,,,9,1055.8941273611563,1056.0940045003663,0.2,1056.0940045003663,Y,d,go,d,1,0.3670807764865458,,,,,,,,,,,,,,,,,,63,001,19,w,Psychologie,2023-01-25_09h05.18.746,00_bat_bachelor,2022.2.4,59.913289002238386,
,,,,1,0,1,0,10,0,10,0,,,,,,,,,,,,,,,10,1057.1618436293502,1057.3619132536987,0.2,1057.3619132536987,X,l,go,l,1,0.37963352201040834,,,,,,,,,,,,,,,,,,63,001,19,w,Psychologie,2023-01-25_09h05.18.746,00_bat_bachelor,2022.2.4,59.913289002238386,
,,,,1,0,1,0,11,0,11,0,,,,,,,,,,,,,,,11,1058.4461019822047,1058.646074636723,0.2,1058.646074636723,X,None,nogo,None,1,,,,,,,,,,,,,,,,,,,63,001,19,w,Psychologie,2023-01-25_09h05.18.746,00_bat_bachelor,2022.2.4,59.913289002238386,
,,,,1,0,1,0,12,0,12,0,,,,,,,,,,,,,,,12,1060.0472839475551,1060.2475189054967,0.2,1060.2475189054967,Y,d,go,d,1,0.42132134022540413,,,,,,,,,,,,,,,,,,63,001,19,w,Psychologie,2023-01-25_09h05.18.746,00_bat_bachelor,2022.2.4,59.913289002238386,
,,,,1,0,1,0,13,0,13,0,,,,,,,,,,,,,,,13,1061.3816776460735,1061.5817787856213,0.2,1061.5817787856213,X,l,go,l,1,0.511651168577373,,,,,,,,,,,,,,,,,,63,001,19,w,Psychologie,2023-01-25_09h05.18.746,00_bat_bachelor,2022.2.4,59.913289002238386,
,,,,1,0,1,0,14,0,14,0,,,,,,,,,,,,,,,14,1062.799195344298,1062.9992867868568,0.2,1062.9992867868568,Y,d,go,d,1,0.342126558360178,,,,,,,,,,,,,,,,,,63,001,19,w,Psychologie,2023-01-25_09h05.18.746,00_bat_bachelor,2022.2.4,59.913289002238386,
,,,,,,,,,,,,,,,,,,,,,,,,,,,,,,,,,,,,,1064.0799753890606,None,,1064.0799753890606,1064.0799753890606,space,5.936195786081953,,,,,,,,,,,63,001,19,w,Psychologie,2023-01-25_09h05.18.746,00_bat_bachelor,2022.2.4,59.913289002238386,
,,,,,,,,,,,,0,0,0,0,0,0,0,0,,,,,,,0,,,1,1071.0387379957538,X,l,go,l,1,0.20649436107487418,,,,,,,,,,,,,,,,,,63,001,19,w,Psychologie,2023-01-25_09h05.18.746,00_bat_bachelor,2022.2.4,59.913289002238386,
,,,,,,,,,,,,0,0,0,0,1,0,1,0,,,,,,,1,,,1,1072.3565091246273,Y,d,go,d,1,0.23279403569176793,,,,,,,,,,,,,,,,,,63,001,19,w,Psychologie,2023-01-25_09h05.18.746,00_bat_bachelor,2022.2.4,59.913289002238386,
,,,,,,,,,,,,0,0,0,0,2,0,2,0,,,,,,,2,,,1,1073.691031793016,X,l,go,l,1,0.22605317740817554,,,,,,,,,,,,,,,,,,63,001,19,w,Psychologie,2023-01-25_09h05.18.746,00_bat_bachelor,2022.2.4,59.913289002238386,
,,,,,,,,,,,,0,0,0,0,3,0,3,0,,,,,,,3,,,1,1075.0252174912312,Y,d,go,d,1,0.23541755467886105,,,,,,,,,,,,,,,,,,63,001,19,w,Psychologie,2023-01-25_09h05.18.746,00_bat_bachelor,2022.2.4,59.913289002238386,
,,,,,,,,,,,,0,0,0,0,4,0,4,0,,,,,,,4,,,1,1076.3763840626343,X,l,go,l,1,0.2764551900909282,,,,,,,,,,,,,,,,,,63,001,19,w,Psychologie,2023-01-25_09h05.18.746,00_bat_bachelor,2022.2.4,59.913289002238386,
,,,,,,,,,,,,0,0,0,0,5,0,5,0,,,,,,,5,,,1,1077.7609116522362,X,None,nogo,None,1,,,,,,,,,,,,,,,,,,,63,001,19,w,Psychologie,2023-01-25_09h05.18.746,00_bat_bachelor,2022.2.4,59.913289002238386,
,,,,,,,,,,,,0,0,0,0,6,0,6,0,,,,,,,6,,,1,1079.5622272420442,Y,d,go,d,1,0.3711855097208172,,,,,,,,,,,,,,,,,,63,001,19,w,Psychologie,2023-01-25_09h05.18.746,00_bat_bachelor,2022.2.4,59.913289002238386,
,,,,,,,,,,,,0,0,0,0,7,0,7,0,,,,,,,7,,,1,1081.0466885527712,X,l,go,l,1,0.42194970475975424,,,,,,,,,,,,,,,,,,63,001,19,w,Psychologie,2023-01-25_09h05.18.746,00_bat_bachelor,2022.2.4,59.913289002238386,
,,,,,,,,,,,,0,0,0,0,8,0,8,0,,,,,,,8,,,1,1082.5810345421196,X,None,nogo,l,0,0.31273936410434544,,,,,,,,,,,,,,,,,,63,001,19,w,Psychologie,2023-01-25_09h05.18.746,00_bat_bachelor,2022.2.4,59.913289002238386,
,,,,,,,,,,,,0,0,0,0,9,0,9,0,,,,,,,9,,,1,1083.9985871494573,Y,d,go,d,1,0.3496533571742475,,,,,,,,,,,,,,,,,,63,001,19,w,Psychologie,2023-01-25_09h05.18.746,00_bat_bachelor,2022.2.4,59.913289002238386,
,,,,,,,,,,,,0,0,0,0,10,0,10,0,,,,,,,10,,,1,1085.4499972606136,X,l,go,l,1,0.4033363443741109,,,,,,,,,,,,,,,,,,63,001,19,w,Psychologie,2023-01-25_09h05.18.746,00_bat_bachelor,2022.2.4,59.913289002238386,
,,,,,,,,,,,,0,0,0,0,11,0,11,0,,,,,,,11,,,1,1086.984542038117,Y,d,go,None,0,,,,,,,,,,,,,,,,,,,63,001,19,w,Psychologie,2023-01-25_09h05.18.746,00_bat_bachelor,2022.2.4,59.913289002238386,
,,,,,,,,,,,,0,0,0,0,12,0,12,0,,,,,,,12,,,1,1088.7855715668993,Y,None,nogo,None,1,,,,,,,,,,,,,,,,,,,63,001,19,w,Psychologie,2023-01-25_09h05.18.746,00_bat_bachelor,2022.2.4,59.913289002238386,
,,,,,,,,,,,,0,0,0,0,13,0,13,0,,,,,,,13,,,1,1090.5873021876032,X,l,go,l,1,0.4019574332633056,,,,,,,,,,,,,,,,,,63,001,19,w,Psychologie,2023-01-25_09h05.18.746,00_bat_bachelor,2022.2.4,59.913289002238386,
,,,,,,,,,,,,0,0,0,0,14,0,14,0,,,,,,,14,,,1,1092.104818576714,Y,d,go,d,1,0.5166024485079106,,,,,,,,,,,,,,,,,,63,001,19,w,Psychologie,2023-01-25_09h05.18.746,00_bat_bachelor,2022.2.4,59.913289002238386,
,,,,,,,,,,,,0,0,0,0,15,0,15,0,,,,,,,15,,,1,1093.723196203442,X,l,go,l,1,0.35259978572139516,,,,,,,,,,,,,,,,,,63,001,19,w,Psychologie,2023-01-25_09h05.18.746,00_bat_bachelor,2022.2.4,59.913289002238386,
,,,,,,,,,,,,0,0,0,0,16,0,16,0,,,,,,,16,,,1,1095.207603211049,Y,d,go,d,1,0.3731016337114852,,,,,,,,,,,,,,,,,,63,001,19,w,Psychologie,2023-01-25_09h05.18.746,00_bat_bachelor,2022.2.4,59.913289002238386,
,,,,,,,,,,,,0,0,0,0,17,0,17,0,,,,,,,17,,,1,1096.6922380978067,X,l,go,l,1,0.2647082639450673,,,,,,,,,,,,,,,,,,63,001,19,w,Psychologie,2023-01-25_09h05.18.746,00_bat_bachelor,2022.2.4,59.913289002238386,
,,,,,,,,,,,,0,0,0,0,18,0,18,0,,,,,,,18,,,1,1098.0597368141753,X,None,nogo,None,1,,,,,,,,,1098.860729494394,,,,,,,,,,63,001,19,w,Psychologie,2023-01-25_09h05.18.746,00_bat_bachelor,2022.2.4,59.913289002238386,
,,,,,,,,,,,,0,0,0,0,19,0,19,0,,,,,,,19,,,1,1099.8613573740877,Y,d,go,d,1,0.5843538198096212,,,,,,,,,,,,,,,,,,63,001,19,w,Psychologie,2023-01-25_09h05.18.746,00_bat_bachelor,2022.2.4,59.913289002238386,
,,,,,,,,,,,,0,0,0,0,20,0,20,0,,,,,,,20,,,1,1101.5624667575175,X,l,go,l,1,0.2902316950203385,,,,,,,,,,,,,,,,,,63,001,19,w,Psychologie,2023-01-25_09h05.18.746,00_bat_bachelor,2022.2.4,59.913289002238386,
,,,,,,,,,,,,0,0,0,0,21,0,21,0,,,,,,,21,,,1,1102.9633643103589,X,None,nogo,l,0,0.3459689881710801,,,,,,,,,,,,,,,,,,63,001,19,w,Psychologie,2023-01-25_09h05.18.746,00_bat_bachelor,2022.2.4,59.913289002238386,
,,,,,,,,,,,,0,0,0,0,22,0,22,0,,,,,,,22,,,1,1104.4141935721564,Y,d,go,d,1,0.36707495828159153,,,,,,,,,,,,,,,,,,63,001,19,w,Psychologie,2023-01-25_09h05.18.746,00_bat_bachelor,2022.2.4,59.913289002238386,
,,,,,,,,,,,,0,0,0,0,23,0,23,0,,,,,,,23,,,1,1105.8823872228677,X,l,go,l,1,0.274352884007385,,,,,,,,,,,,,,,,,,63,001,19,w,Psychologie,2023-01-25_09h05.18.746,00_bat_bachelor,2022.2.4,59.913289002238386,
,,,,,,,,,,,,0,0,0,0,24,0,24,0,,,,,,,24,,,1,1107.2670520248066,Y,d,go,d,1,0.3781004288466647,,,,,,,,,,,,,,,,,,63,001,19,w,Psychologie,2023-01-25_09h05.18.746,00_bat_bachelor,2022.2.4,59.913289002238386,
,,,,,,,,,,,,0,0,0,0,25,0,25,0,,,,,,,25,,,1,1108.7513145473786,Y,None,nogo,None,1,,,,,,,,,,,,,,,,,,,63,001,19,w,Psychologie,2023-01-25_09h05.18.746,00_bat_bachelor,2022.2.4,59.913289002238386,
,,,,,,,,,,,,0,0,0,0,26,0,26,0,,,,,,,26,,,1,1110.5526689251128,X,l,go,l,1,0.30903123746975325,,,,,,,,,,,,,,,,,,63,001,19,w,Psychologie,2023-01-25_09h05.18.746,00_bat_bachelor,2022.2.4,59.913289002238386,
,,,,,,,,,,,,0,0,0,0,27,0,27,0,,,,,,,27,,,1,1111.970314623497,Y,d,go,d,1,0.3625178607471753,,,,,,,,,,,,,,,,,,63,001,19,w,Psychologie,2023-01-25_09h05.18.746,00_bat_bachelor,2022.2.4,59.913289002238386,
,,,,,,,,,,,,0,0,0,0,28,0,28,0,,,,,,,28,,,1,1113.4380282734928,X,l,go,l,1,0.35110160170006566,,,,,,,,,,,,,,,,,,63,001,19,w,Psychologie,2023-01-25_09h05.18.746,00_bat_bachelor,2022.2.4,59.913289002238386,
,,,,,,,,,,,,0,0,0,0,29,0,29,0,,,,,,,29,,,1,1114.906051257305,Y,d,go,d,1,0.3877867459959816,,,,,,,,,,,,,,,,,,63,001,19,w,Psychologie,2023-01-25_09h05.18.746,00_bat_bachelor,2022.2.4,59.913289002238386,
,,,,,,,,,,,,0,0,0,0,30,0,30,0,,,,,,,30,,,1,1116.4070915012271,Y,None,nogo,None,1,,,,,,,,,,,,,,,,,,,63,001,19,w,Psychologie,2023-01-25_09h05.18.746,00_bat_bachelor,2022.2.4,59.913289002238386,
,,,,,,,,,,,,0,0,0,0,31,0,31,0,,,,,,,31,,,1,1118.2084856365982,Y,None,nogo,None,1,,,,,,,,,1119.0091360132792,,,,,,,,,,63,001,19,w,Psychologie,2023-01-25_09h05.18.746,00_bat_bachelor,2022.2.4,59.913289002238386,
,,,,,,,,,,,,0,0,0,0,32,0,32,0,,,,,,,32,,,1,1120.009568498761,X,l,go,l,1,0.26010268146637827,,,,,,,,,,,,,,,,,,63,001,19,w,Psychologie,2023-01-25_09h05.18.746,00_bat_bachelor,2022.2.4,59.913289002238386,
,,,,,,,,,,,,0,0,0,0,33,0,33,0,,,,,,,33,,,1,1121.377430852037,Y,d,go,d,1,0.3634322863363195,,,,,,,,,,,,,,,,,,63,001,19,w,Psychologie,2023-01-25_09h05.18.746,00_bat_bachelor,2022.2.4,59.913289002238386,
,,,,,,,,,,,,0,0,0,0,34,0,34,0,,,,,,,34,,,1,1122.8454383206554,X,l,go,l,1,0.2872687815979589,,,,,,,,,,,,,,,,,,63,001,19,w,Psychologie,2023-01-25_09h05.18.746,00_bat_bachelor,2022.2.4,59.913289002238386,
,,,,,,,,,,,,0,0,0,0,35,0,35,0,,,,,,,35,,,1,1124.2463242370868,Y,d,go,d,1,0.3589154312503524,,,,,,,,,,,,,,,,,,63,001,19,w,Psychologie,2023-01-25_09h05.18.746,00_bat_bachelor,2022.2.4,59.913289002238386,
,,,,,,,,,,,,0,0,0,0,36,0,36,0,,,,,,,36,,,1,1125.7142900086765,Y,None,nogo,None,1,,,,,,,,,1126.514633475832,,,,,,,,,,63,001,19,w,Psychologie,2023-01-25_09h05.18.746,00_bat_bachelor,2022.2.4,59.913289002238386,
,,,,,,,,,,,,0,0,0,0,37,0,37,0,,,,,,,37,,,1,1127.5155997802794,X,l,go,l,1,0.28914757221355103,,,,,,,,,,,,,,,,,,63,001,19,w,Psychologie,2023-01-25_09h05.18.746,00_bat_bachelor,2022.2.4,59.913289002238386,
,,,,,,,,,,,,0,0,0,0,38,0,38,0,,,,,,,38,,,1,1128.9166423029965,Y,d,go,d,1,0.36006112990435213,,,,,,,,,,,,,,,,,,63,001,19,w,Psychologie,2023-01-25_09h05.18.746,00_bat_bachelor,2022.2.4,59.913289002238386,
,,,,,,,,,,,,0,0,0,0,39,0,39,0,,,,,,,39,,,1,1130.3844820137892,X,l,go,l,1,0.2681792992807459,,,,,,,,,,,,,,,,,,63,001,19,w,Psychologie,2023-01-25_09h05.18.746,00_bat_bachelor,2022.2.4,59.913289002238386,
,,,,,,,,,,,,0,0,0,0,40,0,40,0,,,,,,,40,,,1,1131.7688452395378,Y,d,go,d,1,0.3726400572631974,,,,,,,,,,,,,,,,,,63,001,19,w,Psychologie,2023-01-25_09h05.18.746,00_bat_bachelor,2022.2.4,59.913289002238386,
,,,,,,,,,,,,0,0,0,0,41,0,41,0,,,,,,,41,,,1,1133.253373944317,Y,None,nogo,d,0,0.35945021992665716,,,,,,,,,,,,,,,,,,63,001,19,w,Psychologie,2023-01-25_09h05.18.746,00_bat_bachelor,2022.2.4,59.913289002238386,
,,,,,,,,,,,,0,0,0,0,42,0,42,0,,,,,,,42,,,1,1134.7211394731712,X,l,go,l,1,0.33249939285451546,,,,,,,,,,,,,,,,,,63,001,19,w,Psychologie,2023-01-25_09h05.18.746,00_bat_bachelor,2022.2.4,59.913289002238386,
,,,,,,,,,,,,0,0,0,0,43,0,43,0,,,,,,,43,,,1,1136.155490650417,Y,d,go,d,1,0.466259102569893,,,,,,,,,,,,,,,,,,63,001,19,w,Psychologie,2023-01-25_09h05.18.746,00_bat_bachelor,2022.2.4,59.913289002238386,
,,,,,,,,,,,,0,0,0,0,44,0,44,0,,,,,,,44,,,1,1137.7233271127334,X,l,go,l,1,0.3225517420214601,,,,,,,,,,,,,,,,,,63,001,19,w,Psychologie,2023-01-25_09h05.18.746,00_bat_bachelor,2022.2.4,59.913289002238386,
,,,,,,,,,,,,0,0,0,0,45,0,45,0,,,,,,,45,,,1,1139.1574567138741,Y,d,go,d,1,0.359753250668291,,,,,,,,,,,,,,,,,,63,001,19,w,Psychologie,2023-01-25_09h05.18.746,00_bat_bachelor,2022.2.4,59.913289002238386,
,,,,,,,,,,,,0,0,0,0,46,0,46,0,,,,,,,46,,,1,1140.6254632128112,X,l,go,l,1,0.34795396076515317,,,,,,,,,,,,,,,,,,63,001,19,w,Psychologie,2023-01-25_09h05.18.746,00_bat_bachelor,2022.2.4,59.913289002238386,
,,,,,,,,,,,,0,0,0,0,47,0,47,0,,,,,,,47,,,1,1142.0763506565127,X,None,nogo,None,1,,,,,,,,,1142.8772027304803,,,,,,,,,,63,001,19,w,Psychologie,2023-01-25_09h05.18.746,00_bat_bachelor,2022.2.4,59.913289002238386,
,,,,,,,,,,,,0,0,0,0,48,0,48,0,,,,,,,48,,,1,1143.8780478226254,Y,d,go,d,1,0.5029534589557443,,,,,,,,,,,,,,,,,,63,001,19,w,Psychologie,2023-01-25_09h05.18.746,00_bat_bachelor,2022.2.4,59.913289002238386,
,,,,,,,,,,,,0,0,0,0,49,0,49,0,,,,,,,49,,,1,1145.4959100546548,X,l,go,l,1,0.3570327618799638,,,,,,,,,,,,,,,,,,63,001,19,w,Psychologie,2023-01-25_09h05.18.746,00_bat_bachelor,2022.2.4,59.913289002238386,
,,,,,,,,,,,,0,0,0,0,50,0,50,0,,,,,,,50,,,1,1146.9636770380894,Y,d,go,d,1,0.4258270437421743,,,,,,,,,,,,,,,,,,63,001,19,w,Psychologie,2023-01-25_09h05.18.746,00_bat_bachelor,2022.2.4,59.913289002238386,
,,,,,,,,,,,,0,0,0,0,51,0,51,0,,,,,,,51,,,1,1148.4978795120842,Y,None,nogo,None,1,,,,,,,,,1149.298509525106,,,,,,,,,,63,001,19,w,Psychologie,2023-01-25_09h05.18.746,00_bat_bachelor,2022.2.4,59.913289002238386,
,,,,,,,,,,,,0,0,0,0,52,0,52,0,,,,,,,52,,,1,1150.2993909809447,Y,None,nogo,None,1,,,,,,,,,,,,,,,,,,,63,001,19,w,Psychologie,2023-01-25_09h05.18.746,00_bat_bachelor,2022.2.4,59.913289002238386,
,,,,,,,,,,,,0,0,0,0,53,0,53,0,,,,,,,53,,,1,1152.1008811164356,X,l,go,l,1,0.2802137410326395,,,,,,,,,,,,,,,,,,63,001,19,w,Psychologie,2023-01-25_09h05.18.746,00_bat_bachelor,2022.2.4,59.913289002238386,
,,,,,,,,,,,,0,0,0,0,54,0,54,0,,,,,,,54,,,1,1153.4853776757082,Y,d,go,d,1,0.4156132107018493,,,,,,,,,,,,,,,,,,63,001,19,w,Psychologie,2023-01-25_09h05.18.746,00_bat_bachelor,2022.2.4,59.913289002238386,
,,,,,,,,,,,,0,0,0,0,55,0,55,0,,,,,,,55,,,1,1155.00323927743,X,l,go,l,1,0.2897172700322699,,,,,,,,,,,,,,,,,,63,001,19,w,Psychologie,2023-01-25_09h05.18.746,00_bat_bachelor,2022.2.4,59.913289002238386,
,,,,,,,,,,,,0,0,0,0,56,0,56,0,,,,,,,56,,,1,1156.4042818001762,Y,d,go,d,1,0.3446754105389118,,,,,,,,,,,,,,,,,,63,001,19,w,Psychologie,2023-01-25_09h05.18.746,00_bat_bachelor,2022.2.4,59.913289002238386,
,,,,,,,,,,,,0,0,0,0,57,0,57,0,,,,,,,57,,,1,1157.8550174860866,X,l,go,l,1,0.28622974979225546,,,,,,,,,,,,,,,,,,63,001,19,w,Psychologie,2023-01-25_09h05.18.746,00_bat_bachelor,2022.2.4,59.913289002238386,
,,,,,,,,,,,,0,0,0,0,58,0,58,0,,,,,,,58,,,1,1159.256431403308,Y,d,go,d,1,0.3563937306171283,,,,,,,,,,,,,,,,,,63,001,19,w,Psychologie,2023-01-25_09h05.18.746,00_bat_bachelor,2022.2.4,59.913289002238386,
,,,,,,,,,,,,0,0,0,0,59,0,59,0,,,,,,,59,,,1,1160.723919598444,Y,None,nogo,None,1,,,,,,,,,,,,,,,,,,,63,001,19,w,Psychologie,2023-01-25_09h05.18.746,00_bat_bachelor,2022.2.4,59.913289002238386,
,,,,,,,,,,,,0,0,0,0,60,0,60,0,,,,,,,60,,,1,1162.5254286430427,X,l,go,l,1,0.2873308423149865,,,,,,,,,,,,,,,,,,63,001,19,w,Psychologie,2023-01-25_09h05.18.746,00_bat_bachelor,2022.2.4,59.913289002238386,
,,,,,,,,,,,,0,0,0,0,61,0,61,0,,,,,,,61,,,1,1163.926743166172,Y,d,go,d,1,0.3423941951186862,,,,,,,,,,,,,,,,,,63,001,19,w,Psychologie,2023-01-25_09h05.18.746,00_bat_bachelor,2022.2.4,59.913289002238386,
,,,,,,,,,,,,0,0,0,0,62,0,62,0,,,,,,,62,,,1,1165.3778240647225,Y,None,nogo,None,1,,,,,,,,,1166.1783362594142,,,,,,,,,,63,001,19,w,Psychologie,2023-01-25_09h05.18.746,00_bat_bachelor,2022.2.4,59.913289002238386,
,,,,,,,,,,,,0,0,0,0,63,0,63,0,,,,,,,63,,,1,1167.1787871691631,X,l,go,l,1,0.2575877687195316,,,,,,,,,,,,,,,,,,63,001,19,w,Psychologie,2023-01-25_09h05.18.746,00_bat_bachelor,2022.2.4,59.913289002238386,
,,,,,,,,,,,,0,0,0,0,64,0,64,0,,,,,,,64,,,1,1168.5467852801667,Y,d,go,d,1,0.31490809450042434,,,,,,,,,,,,,,,,,,63,001,19,w,Psychologie,2023-01-25_09h05.18.746,00_bat_bachelor,2022.2.4,59.913289002238386,
,,,,,,,,,,,,0,0,0,0,65,0,65,0,,,,,,,65,,,1,1169.9646389788832,X,l,go,l,1,0.3209662851586472,,,,,,,,,,,,,,,,,,63,001,19,w,Psychologie,2023-01-25_09h05.18.746,00_bat_bachelor,2022.2.4,59.913289002238386,
,,,,,,,,,,,,0,0,0,0,66,0,66,0,,,,,,,66,,,1,1171.3989814288216,Y,d,go,d,1,0.40578725704108365,,,,,,,,,,,,,,,,,,63,001,19,w,Psychologie,2023-01-25_09h05.18.746,00_bat_bachelor,2022.2.4,59.913289002238386,
,,,,,,,,,,,,0,0,0,0,67,0,67,0,,,,,,,67,,,1,1172.9168827882095,X,l,go,l,1,0.37683642702177167,,,,,,,,,,,,,,,,,,63,001,19,w,Psychologie,2023-01-25_09h05.18.746,00_bat_bachelor,2022.2.4,59.913289002238386,
,,,,,,,,,,,,0,0,0,0,68,0,68,0,,,,,,,68,,,1,1174.4009819165803,X,None,nogo,None,1,,,,,,,,,,,,,,,,,,,63,001,19,w,Psychologie,2023-01-25_09h05.18.746,00_bat_bachelor,2022.2.4,59.913289002238386,
,,,,,,,,,,,,0,0,0,0,69,0,69,0,,,,,,,69,,,1,1176.2026577493234,Y,d,go,d,1,0.33858618955127895,,,,,,,,,,,,,,,,,,63,001,19,w,Psychologie,2023-01-25_09h05.18.746,00_bat_bachelor,2022.2.4,59.913289002238386,
,,,,,,,,,,,,0,0,0,0,70,0,70,0,,,,,,,70,,,1,1177.6537905267323,X,l,go,l,1,0.4235080100770574,,,,,,,,,,,,,,,,,,63,001,19,w,Psychologie,2023-01-25_09h05.18.746,00_bat_bachelor,2022.2.4,59.913289002238386,
,,,,,,,,,,,,0,0,0,0,71,0,71,0,,,,,,,71,,,1,1179.1879231824423,X,None,nogo,None,1,,,,,,,,,,,,,,,,,,,63,001,19,w,Psychologie,2023-01-25_09h05.18.746,00_bat_bachelor,2022.2.4,59.913289002238386,
,,,,,,,,,,,,0,0,0,0,72,0,72,0,,,,,,,72,,,1,1180.989329439035,Y,d,go,d,1,0.2880813888332341,,,,,,,,,,,,,,,,,,63,001,19,w,Psychologie,2023-01-25_09h05.18.746,00_bat_bachelor,2022.2.4,59.913289002238386,
,,,,,,,,,,,,0,0,0,0,73,0,73,0,,,,,,,73,,,1,1182.3907656593074,X,l,go,l,1,0.29425254932721145,,,,,,,,,,,,,,,,,,63,001,19,w,Psychologie,2023-01-25_09h05.18.746,00_bat_bachelor,2022.2.4,59.913289002238386,
,,,,,,,,,,,,0,0,0,0,74,0,74,0,,,,,,,74,,,1,1183.7916860000405,Y,d,go,d,1,0.3497954180056695,,,,,,,,,,,,,,,,,,63,001,19,w,Psychologie,2023-01-25_09h05.18.746,00_bat_bachelor,2022.2.4,59.913289002238386,
,,,,,,,,,,,,0,0,0,0,75,0,75,0,,,,,,,75,,,1,1185.2427324742894,X,l,go,l,1,0.2902171495370567,,,,,,,,,,,,,,,,,,63,001,19,w,Psychologie,2023-01-25_09h05.18.746,00_bat_bachelor,2022.2.4,59.913289002238386,
,,,,,,,,,,,,0,0,0,0,76,0,76,0,,,,,,,76,,,1,1186.6438065122056,Y,d,go,d,1,0.345670321083162,,,,,,,,,,,,,,,,,,63,001,19,w,Psychologie,2023-01-25_09h05.18.746,00_bat_bachelor,2022.2.4,59.913289002238386,
,,,,,,,,,,,,0,0,0,0,77,0,77,0,,,,,,,77,,,1,1188.0950445018825,X,l,go,l,1,0.3669508369057439,,,,,,,,,,,,,,,,,,63,001,19,w,Psychologie,2023-01-25_09h05.18.746,00_bat_bachelor,2022.2.4,59.913289002238386,
,,,,,,,,,,,,0,0,0,0,78,0,78,0,,,,,,,78,,,1,1189.562897788448,Y,d,go,d,1,0.33843879541382194,,,,,,,,,,,,,,,,,,63,001,19,w,Psychologie,2023-01-25_09h05.18.746,00_bat_bachelor,2022.2.4,59.913289002238386,
,,,,,,,,,,,,0,0,0,0,79,0,79,0,,,,,,,79,,,1,1191.013660625933,X,l,go,l,1,0.32773235559579916,,,,,,,,,,,,,,,,,,63,001,19,w,Psychologie,2023-01-25_09h05.18.746,00_bat_bachelor,2022.2.4,59.913289002238386,
,,,,,,,,,,,,0,0,0,0,80,0,80,0,,,,,,,80,,,1,1192.4487744709477,Y,d,go,d,1,0.31634421783383004,,,,,,,,,,,,,,,,,,63,001,19,w,Psychologie,2023-01-25_09h05.18.746,00_bat_bachelor,2022.2.4,59.913289002238386,
,,,,,,,,,,,,0,0,0,0,81,0,81,0,,,,,,,81,,,1,1193.8660972597718,Y,None,nogo,l,0,0.33911128123872913,,,,,,,,,,,,,,,,,,63,001,19,w,Psychologie,2023-01-25_09h05.18.746,00_bat_bachelor,2022.2.4,59.913289002238386,
,,,,,,,,,,,,0,0,0,0,82,0,82,0,,,,,,,82,,,1,1195.3169842186617,X,l,go,l,1,0.4561005423311144,,,,,,,,,,,,,,,,,,63,001,19,w,Psychologie,2023-01-25_09h05.18.746,00_bat_bachelor,2022.2.4,59.913289002238386,
,,,,,,,,,,,,0,0,0,0,83,0,83,0,,,,,,,83,,,1,1196.8852177724475,Y,d,go,d,1,0.3287820541008841,,,,,,,,,,,,,,,,,,63,001,19,w,Psychologie,2023-01-25_09h05.18.746,00_bat_bachelor,2022.2.4,59.913289002238386,
,,,,,,,,,,,,0,0,0,0,84,0,84,0,,,,,,,84,,,1,1198.3195815557556,Y,None,nogo,None,1,,,,,,,,,,,,,,,,,,,63,001,19,w,Psychologie,2023-01-25_09h05.18.746,00_bat_bachelor,2022.2.4,59.913289002238386,
,,,,,,,,,,,,0,0,0,0,85,0,85,0,,,,,,,85,,,1,1200.120999448729,X,l,go,l,1,0.38796517049195245,,,,,,,,,,,,,,,,,,63,001,19,w,Psychologie,2023-01-25_09h05.18.746,00_bat_bachelor,2022.2.4,59.913289002238386,
,,,,,,,,,,,,0,0,0,0,86,0,86,0,,,,,,,86,,,1,1201.6221322988567,Y,d,go,d,1,0.3596150686207693,,,,,,,,,,,,,,,,,,63,001,19,w,Psychologie,2023-01-25_09h05.18.746,00_bat_bachelor,2022.2.4,59.913289002238386,
,,,,,,,,,,,,0,0,0,0,87,0,87,0,,,,,,,87,,,1,1203.0899482520472,X,l,go,l,1,0.47567875261302106,,,,,,,,,,,,,,,,,,63,001,19,w,Psychologie,2023-01-25_09h05.18.746,00_bat_bachelor,2022.2.4,59.913289002238386,
,,,,,,,,,,,,0,0,0,0,88,0,88,0,,,,,,,88,,,1,1204.674435890105,Y,d,go,d,1,0.3149779128143564,,,,,,,,,,,,,,,,,,63,001,19,w,Psychologie,2023-01-25_09h05.18.746,00_bat_bachelor,2022.2.4,59.913289002238386,
,,,,,,,,,,,,0,0,0,0,89,0,89,0,,,,,,,89,,,1,1206.0922100735188,X,l,go,l,1,0.28927023903816007,,,,,,,,,,,,,,,,,,63,001,19,w,Psychologie,2023-01-25_09h05.18.746,00_bat_bachelor,2022.2.4,59.913289002238386,
,,,,,,,,,,,,0,0,0,0,90,0,90,0,,,,,,,90,,,1,1207.493066414172,Y,d,go,d,1,0.3605421003012452,,,,,,,,,,,,,,,,,,63,001,19,w,Psychologie,2023-01-25_09h05.18.746,00_bat_bachelor,2022.2.4,59.913289002238386,
,,,,,,,,,,,,0,0,0,0,91,0,91,0,,,,,,,91,,,1,1208.9611189737625,Y,None,nogo,None,1,,,,,,,,,,,,,,,,,,,63,001,19,w,Psychologie,2023-01-25_09h05.18.746,00_bat_bachelor,2022.2.4,59.913289002238386,
,,,,,,,,,,,,0,0,0,0,92,0,92,0,,,,,,,92,,,1,1210.762369593751,X,l,go,l,1,0.3071728105423972,,,,,,,,,,,,,,,,,,63,001,19,w,Psychologie,2023-01-25_09h05.18.746,00_bat_bachelor,2022.2.4,59.913289002238386,
,,,,,,,,,,,,0,0,0,0,93,0,93,0,,,,,,,93,,,1,1212.1801108074433,Y,d,go,d,1,0.37775279200286604,,,,,,,,,,,,,,,,,,63,001,19,w,Psychologie,2023-01-25_09h05.18.746,00_bat_bachelor,2022.2.4,59.913289002238386,
,,,,,,,,,,,,0,0,0,0,94,0,94,0,,,,,,,94,,,1,1213.664623512188,X,l,go,l,1,0.28459483830374666,,,,,,,,,,,,,,,,,,63,001,19,w,Psychologie,2023-01-25_09h05.18.746,00_bat_bachelor,2022.2.4,59.913289002238386,
,,,,,,,,,,,,0,0,0,0,95,0,95,0,,,,,,,95,,,1,1215.0656956107123,Y,d,go,d,1,0.27523143074358813,,,,,,,,,,,,,,,,,,63,001,19,w,Psychologie,2023-01-25_09h05.18.746,00_bat_bachelor,2022.2.4,59.913289002238386,
,,,,,,,,,,,,0,0,0,0,96,0,96,0,,,,,,,96,,,1,1216.4501732608478,X,l,go,l,1,0.3797348554653581,,,,,,,,,,,,,,,,,,63,001,19,w,Psychologie,2023-01-25_09h05.18.746,00_bat_bachelor,2022.2.4,59.913289002238386,
,,,,,,,,,,,,0,0,0,0,97,0,97,0,,,,,,,97,,,1,1217.9345458441821,X,None,nogo,None,1,,,,,,,,,1218.7348704022297,,,,,,,,,,63,001,19,w,Psychologie,2023-01-25_09h05.18.746,00_bat_bachelor,2022.2.4,59.913289002238386,
,,,,,,,,,,,,0,0,0,0,98,0,98,0,,,,,,,98,,,1,1219.7356291912147,X,None,nogo,None,1,,,,,,,,,,,,,,,,,,,63,001,19,w,Psychologie,2023-01-25_09h05.18.746,00_bat_bachelor,2022.2.4,59.913289002238386,
,,,,,,,,,,,,0,0,0,0,99,0,99,0,,,,,,,99,,,1,1221.5373200542817,Y,d,go,d,1,0.31691100652096793,,,,,,,,,,,,,,,,,,63,001,19,w,Psychologie,2023-01-25_09h05.18.746,00_bat_bachelor,2022.2.4,59.913289002238386,
,,,,,,,,,,,,0,0,0,0,100,0,100,0,,,,,,,100,,,1,1222.9549802981492,X,l,go,l,1,0.3379709159489721,,,,,,,,,,,,,,,,,,63,001,19,w,Psychologie,2023-01-25_09h05.18.746,00_bat_bachelor,2022.2.4,59.913289002238386,
,,,,,,,,,,,,0,0,0,0,101,0,101,0,,,,,,,101,,,1,1224.4058362266805,Y,d,go,d,1,0.37504636382800527,,,,,,,,,,,,,,,,,,63,001,19,w,Psychologie,2023-01-25_09h05.18.746,00_bat_bachelor,2022.2.4,59.913289002238386,
,,,,,,,,,,,,0,0,0,0,102,0,102,0,,,,,,,102,,,1,1225.8907843259803,X,l,go,l,1,0.2671363886911422,,,,,,,,,,,,,,,,,,63,001,19,w,Psychologie,2023-01-25_09h05.18.746,00_bat_bachelor,2022.2.4,59.913289002238386,
,,,,,,,,,,,,0,0,0,0,103,0,103,0,,,,,,,103,,,1,1227.2747111874633,X,None,nogo,None,1,,,,,,,,,,,,,,,,,,,63,001,19,w,Psychologie,2023-01-25_09h05.18.746,00_bat_bachelor,2022.2.4,59.913289002238386,
,,,,,,,,,,,,0,0,0,0,104,0,104,0,,,,,,,104,,,1,1229.0763841111038,Y,d,go,d,1,0.3769949726993218,,,,,,,,,,,,,,,,,,63,001,19,w,Psychologie,2023-01-25_09h05.18.746,00_bat_bachelor,2022.2.4,59.913289002238386,
,,,,,,,,,,,,0,0,0,0,105,0,105,0,,,,,,,105,,,1,1230.5608842097863,X,l,go,l,1,0.2525996402546298,,,,,,,,,,,,,,,,,,63,001,19,w,Psychologie,2023-01-25_09h05.18.746,00_bat_bachelor,2022.2.4,59.913289002238386,
,,,,,,,,,,,,0,0,0,0,106,0,106,0,,,,,,,106,,,1,1231.9286001385772,Y,d,go,d,1,0.34032243452384137,,,,,,,,,,,,,,,,,,63,001,19,w,Psychologie,2023-01-25_09h05.18.746,00_bat_bachelor,2022.2.4,59.913289002238386,
,,,,,,,,,,,,0,0,0,0,107,0,107,0,,,,,,,107,,,1,1233.3793474608683,X,l,go,l,1,0.42508037597872317,,,,,,,,,,,,,,,,,,63,001,19,w,Psychologie,2023-01-25_09h05.18.746,00_bat_bachelor,2022.2.4,59.913289002238386,
,,,,,,,,,,,,0,0,0,0,108,0,108,0,,,,,,,108,,,1,1234.9142966026266,X,None,nogo,None,1,,,,,,,,,1235.7144723119563,,,,,,,,,,63,001,19,w,Psychologie,2023-01-25_09h05.18.746,00_bat_bachelor,2022.2.4,59.913289002238386,
,,,,,,,,,,,,0,0,0,0,109,0,109,0,,,,,,,109,,,1,1236.7152267373167,Y,d,go,d,1,0.5936697121069301,,,,,,,,,,,,,,,,,,63,001,19,w,Psychologie,2023-01-25_09h05.18.746,00_bat_bachelor,2022.2.4,59.913289002238386,
,,,,,,,,,,,,0,0,0,0,110,0,110,0,,,,,,,110,,,1,1238.4168781821209,X,l,go,l,1,0.2685317846480757,,,,,,,,,,,,,,,,,,63,001,19,w,Psychologie,2023-01-25_09h05.18.746,00_bat_bachelor,2022.2.4,59.913289002238386,
,,,,,,,,,,,,0,0,0,0,111,0,111,0,,,,,,,111,,,1,1239.8012680745742,X,None,nogo,l,0,0.45240453694714233,,,,,,,,,,,,,,,,,,63,001,19,w,Psychologie,2023-01-25_09h05.18.746,00_bat_bachelor,2022.2.4,59.913289002238386,
,,,,,,,,,,,,0,0,0,0,112,0,112,0,,,,,,,112,,,1,1241.3689876882418,X,None,nogo,None,1,,,,,,,,,,,,,,,,,,,63,001,19,w,Psychologie,2023-01-25_09h05.18.746,00_bat_bachelor,2022.2.4,59.913289002238386,
,,,,,,,,,,,,0,0,0,0,113,0,113,0,,,,,,,113,,,1,1243.1704482479254,Y,d,go,d,1,0.3309604815149214,,,,,,,,,,,,,,,,,,63,001,19,w,Psychologie,2023-01-25_09h05.18.746,00_bat_bachelor,2022.2.4,59.913289002238386,
,,,,,,,,,,,,0,0,0,0,114,0,114,0,,,,,,,114,,,1,1244.6049390617409,X,l,go,l,1,0.38448055935441516,,,,,,,,,,,,,,,,,,63,001,19,w,Psychologie,2023-01-25_09h05.18.746,00_bat_bachelor,2022.2.4,59.913289002238386,
,,,,,,,,,,,,0,0,0,0,115,0,115,0,,,,,,,115,,,1,1246.1060239117942,Y,d,go,d,1,0.3552131228498183,,,,,,,,,,,,,,,,,,63,001,19,w,Psychologie,2023-01-25_09h05.18.746,00_bat_bachelor,2022.2.4,59.913289002238386,
,,,,,,,,,,,,0,0,0,0,116,0,116,0,,,,,,,116,,,1,1247.5735693191236,Y,None,nogo,d,0,0.35993167516426183,,,,,,,,,,,,,,,,,,63,001,19,w,Psychologie,2023-01-25_09h05.18.746,00_bat_bachelor,2022.2.4,59.913289002238386,
,,,,,,,,,,,,0,0,0,0,117,0,117,0,,,,,,,117,,,1,1249.0416669697152,Y,None,nogo,None,1,,,,,,,,,,,,,,,,,,,63,001,19,w,Psychologie,2023-01-25_09h05.18.746,00_bat_bachelor,2022.2.4,59.913289002238386,
,,,,,,,,,,,,0,0,0,0,118,0,118,0,,,,,,,118,,,1,1250.8430373474548,X,l,go,l,1,0.27453082366264425,,,,,,,,,,,,,,,,,,63,001,19,w,Psychologie,2023-01-25_09h05.18.746,00_bat_bachelor,2022.2.4,59.913289002238386,
,,,,,,,,,,,,0,0,0,0,119,0,119,0,,,,,,,119,,,1,1252.227459239948,Y,d,go,d,1,0.41029441507998854,,,,,,,,,,,,,,,,,,63,001,19,w,Psychologie,2023-01-25_09h05.18.746,00_bat_bachelor,2022.2.4,59.913289002238386,
,,,,,,,,,,,,0,0,0,0,120,0,120,0,,,,,,,120,,,1,1253.745208356675,Y,None,nogo,None,1,,,,,,,,,,,,,,,,,,,63,001,19,w,Psychologie,2023-01-25_09h05.18.746,00_bat_bachelor,2022.2.4,59.913289002238386,
,,,,,,,,,,,,0,0,0,0,121,0,121,0,,,,,,,121,,,1,1255.5466854012338,X,l,go,l,1,0.3873149877472315,,,,,,,,,,,,,,,,,,63,001,19,w,Psychologie,2023-01-25_09h05.18.746,00_bat_bachelor,2022.2.4,59.913289002238386,
,,,,,,,,,,,,0,0,0,0,122,0,122,0,,,,,,,122,,,1,1257.0477717058675,Y,d,go,d,1,0.45362684174324386,,,,,,,,,,,,,,,,,,63,001,19,w,Psychologie,2023-01-25_09h05.18.746,00_bat_bachelor,2022.2.4,59.913289002238386,
,,,,,,,,,,,,0,0,0,0,123,0,123,0,,,,,,,123,,,1,1258.61560380453,X,l,go,l,1,0.32563295861473307,,,,,,,,,,,,,,,,,,63,001,19,w,Psychologie,2023-01-25_09h05.18.746,00_bat_bachelor,2022.2.4,59.913289002238386,
,,,,,,,,,,,,0,0,0,0,124,0,124,0,,,,,,,124,,,1,1260.050080557703,Y,d,go,d,1,0.4112820528971497,,,,,,,,,,,,,,,,,,63,001,19,w,Psychologie,2023-01-25_09h05.18.746,00_bat_bachelor,2022.2.4,59.913289002238386,
,,,,,,,,,,,,0,0,0,0,125,0,125,0,,,,,,,125,,,1,1261.567868947197,X,l,go,l,1,0.36536295581026934,,,,,,,,,,,,,,,,,,63,001,19,w,Psychologie,2023-01-25_09h05.18.746,00_bat_bachelor,2022.2.4,59.913289002238386,
,,,,,,,,,,,,0,0,0,0,126,0,126,0,,,,,,,126,,,1,1263.03568780949,Y,d,go,d,1,0.3056358385947533,,,,,,,,,,,,,,,,,,63,001,19,w,Psychologie,2023-01-25_09h05.18.746,00_bat_bachelor,2022.2.4,59.913289002238386,
,,,,,,,,,,,,0,0,0,0,127,0,127,0,,,,,,,127,,,1,1264.4534639323247,X,l,go,l,1,0.3592247650376521,,,,,,,,,,,,,,,,,,63,001,19,w,Psychologie,2023-01-25_09h05.18.746,00_bat_bachelor,2022.2.4,59.913289002238386,
,,,,,,,,,,,,0,0,0,0,128,0,128,0,,,,,,,128,,,1,1265.9212692188157,X,None,nogo,None,1,,,,,,,,,1266.721813898388,,,,,,,,,,63,001,19,w,Psychologie,2023-01-25_09h05.18.746,00_bat_bachelor,2022.2.4,59.913289002238386,
,,,,,,,,,,,,0,0,0,0,129,0,129,0,,,,,,,129,,,1,1267.722610505618,Y,d,go,d,1,0.3712131461361423,,,,,,,,,,,,,,,,,,63,001,19,w,Psychologie,2023-01-25_09h05.18.746,00_bat_bachelor,2022.2.4,59.913289002238386,
,,,,,,,,,,,,0,0,0,0,130,0,130,0,,,,,,,130,,,1,1269.2070252708218,X,l,go,l,1,0.2782471927057486,,,,,,,,,,,,,,,,,,63,001,19,w,Psychologie,2023-01-25_09h05.18.746,00_bat_bachelor,2022.2.4,59.913289002238386,
,,,,,,,,,,,,0,0,0,0,131,0,131,0,,,,,,,131,,,1,1270.5913681329112,X,None,nogo,None,1,,,,,,,,,1271.3920708733203,,,,,,,,,,63,001,19,w,Psychologie,2023-01-25_09h05.18.746,00_bat_bachelor,2022.2.4,59.913289002238386,
,,,,,,,,,,,,0,0,0,0,132,0,132,0,,,,,,,132,,,1,1272.392790874379,Y,d,go,d,1,0.34026182838715613,,,,,,,,,,,,,,,,,,63,001,19,w,Psychologie,2023-01-25_09h05.18.746,00_bat_bachelor,2022.2.4,59.913289002238386,
,,,,,,,,,,,,0,0,0,0,133,0,133,0,,,,,,,133,,,1,1273.844004136743,X,l,go,l,1,0.29707728073117323,,,,,,,,,,,,,,,,,,63,001,19,w,Psychologie,2023-01-25_09h05.18.746,00_bat_bachelor,2022.2.4,59.913289002238386,
,,,,,,,,,,,,0,0,0,0,134,0,134,0,,,,,,,134,,,1,1275.2446999922977,Y,d,go,d,1,0.35262790697743185,,,,,,,,,,,,,,,,,,63,001,19,w,Psychologie,2023-01-25_09h05.18.746,00_bat_bachelor,2022.2.4,59.913289002238386,
,,,,,,,,,,,,0,0,0,0,135,0,135,0,,,,,,,135,,,1,1276.71250673334,Y,None,nogo,d,0,0.3728446636523586,,,,,,,,,,,,,,,,,,63,001,19,w,Psychologie,2023-01-25_09h05.18.746,00_bat_bachelor,2022.2.4,59.913289002238386,
,,,,,,,,,,,,0,0,0,0,136,0,136,0,,,,,,,136,,,1,1278.19724052932,X,l,go,l,1,0.36050476689706556,,,,,,,,,,,,,,,,,,63,001,19,w,Psychologie,2023-01-25_09h05.18.746,00_bat_bachelor,2022.2.4,59.913289002238386,
,,,,,,,,,,,,0,0,0,0,137,0,137,0,,,,,,,137,,,1,1279.6650433915784,Y,d,go,d,1,0.4608108521788381,,,,,,,,,,,,,,,,,,63,001,19,w,Psychologie,2023-01-25_09h05.18.746,00_bat_bachelor,2022.2.4,59.913289002238386,
,,,,,,,,,,,,0,0,0,0,138,0,138,0,,,,,,,138,,,1,1281.232851247798,X,l,go,l,1,0.25287891339394264,,,,,,,,,,,,,,,,,,63,001,19,w,Psychologie,2023-01-25_09h05.18.746,00_bat_bachelor,2022.2.4,59.913289002238386,
,,,,,,,,,,,,0,0,0,0,139,0,139,0,,,,,,,139,,,1,1282.6006331160897,Y,d,go,d,1,0.5171939645370003,,,,,,,,,,,,,,,,,,63,001,19,w,Psychologie,2023-01-25_09h05.18.746,00_bat_bachelor,2022.2.4,59.913289002238386,
,,,,,,,,,,,,0,0,0,0,140,0,140,0,,,,,,,140,,,1,1284.2348934325855,X,l,go,l,1,0.4186149120214395,,,,,,,,,,,,,,,,,,63,001,19,w,Psychologie,2023-01-25_09h05.18.746,00_bat_bachelor,2022.2.4,59.913289002238386,
,,,,,,,,,,,,0,0,0,0,141,0,141,0,,,,,,,141,,,1,1285.7697756651323,Y,d,go,d,1,0.5155624469916802,,,,,,,,,,,,,,,,,,63,001,19,w,Psychologie,2023-01-25_09h05.18.746,00_bat_bachelor,2022.2.4,59.913289002238386,
,,,,,,,,,,,,0,0,0,0,142,0,142,0,,,,,,,142,,,1,1287.3876233517076,X,l,go,l,1,0.3529464528837707,,,,,,,,,,,,,,,,,,63,001,19,w,Psychologie,2023-01-25_09h05.18.746,00_bat_bachelor,2022.2.4,59.913289002238386,
,,,,,,,,,,,,0,0,0,0,143,0,143,0,,,,,,,143,,,1,1288.8558902146178,X,None,nogo,None,1,,,,,,,,,1289.6561716211145,,,,,,,,,,63,001,19,w,Psychologie,2023-01-25_09h05.18.746,00_bat_bachelor,2022.2.4,59.913289002238386,
,,,,,,,,,,,,0,0,0,0,144,0,144,0,,,,,,,144,,,1,1290.6570235011168,Y,d,go,d,1,0.3008368013543077,,,,,,,,,,,,,,,,,,63,001,19,w,Psychologie,2023-01-25_09h05.18.746,00_bat_bachelor,2022.2.4,59.913289002238386,
,,,,,,,,,,,,0,0,0,0,145,0,145,0,,,,,,,145,,,1,1292.0581882058468,X,l,go,l,1,0.37148029802483507,,,,,,,,,,,,,,,,,,63,001,19,w,Psychologie,2023-01-25_09h05.18.746,00_bat_bachelor,2022.2.4,59.913289002238386,
,,,,,,,,,,,,0,0,0,0,146,0,146,0,,,,,,,146,,,1,1293.5423736374069,X,None,nogo,l,0,0.2786743448523339,,,,,,,,,,,,,,,,,,63,001,19,w,Psychologie,2023-01-25_09h05.18.746,00_bat_bachelor,2022.2.4,59.913289002238386,
,,,,,,,,,,,,0,0,0,0,147,0,147,0,,,,,,,147,,,1,1294.9267548025528,X,None,nogo,None,1,,,,,,,,,,,,,,,,,,,63,001,19,w,Psychologie,2023-01-25_09h05.18.746,00_bat_bachelor,2022.2.4,59.913289002238386,
,,,,,,,,,,,,0,0,0,0,148,0,148,0,,,,,,,148,,,1,1296.727786270727,Y,d,go,d,1,0.2932668509311043,,,,,,,,,,,,,,,,,,63,001,19,w,Psychologie,2023-01-25_09h05.18.746,00_bat_bachelor,2022.2.4,59.913289002238386,
,,,,,,,,,,,,0,0,0,0,149,0,149,0,,,,,,,149,,,1,1298.129200672789,X,l,go,l,1,0.2677497229014989,,,,,,,,,,,,,,,,,,63,001,19,w,Psychologie,2023-01-25_09h05.18.746,00_bat_bachelor,2022.2.4,59.913289002238386,
,,,,,,,,,,,,0,0,0,0,150,0,150,0,,,,,,,150,,,1,1299.5136138379748,X,None,nogo,None,1,,,,,,,,,1300.3141895479057,,,,,,,,,,63,001,19,w,Psychologie,2023-01-25_09h05.18.746,00_bat_bachelor,2022.2.4,59.913289002238386,
,,,,,,,,,,,,0,0,0,0,151,0,151,0,,,,,,,151,,,1,1301.314925064129,Y,d,go,d,1,0.29936625371919945,,,,,,,,,,,,,,,,,,63,001,19,w,Psychologie,2023-01-25_09h05.18.746,00_bat_bachelor,2022.2.4,59.913289002238386,
,,,,,,,,,,,,0,0,0,0,152,0,152,0,,,,,,,152,,,1,1302.7158643139992,X,l,go,l,1,0.3221051958971657,,,,,,,,,,,,,,,,,,63,001,19,w,Psychologie,2023-01-25_09h05.18.746,00_bat_bachelor,2022.2.4,59.913289002238386,
,,,,,,,,,,,,0,0,0,0,153,0,153,0,,,,,,,153,,,1,1304.1504351279,Y,d,go,None,0,,,,,,,,,,,,,,,,,,,63,001,19,w,Psychologie,2023-01-25_09h05.18.746,00_bat_bachelor,2022.2.4,59.913289002238386,
,,,,,,,,,,,,0,0,0,0,154,0,154,0,,,,,,,154,,,1,1305.9517536268104,Y,None,nogo,None,1,,,,,,,,,1306.7522231547628,,,,,,,,,,63,001,19,w,Psychologie,2023-01-25_09h05.18.746,00_bat_bachelor,2022.2.4,59.913289002238386,
,,,,,,,,,,,,0,0,0,0,155,0,155,0,,,,,,,155,,,1,1307.7531686106813,X,l,go,l,1,0.3727263604232576,,,,,,,,,,,,,,,,,,63,001,19,w,Psychologie,2023-01-25_09h05.18.746,00_bat_bachelor,2022.2.4,59.913289002238386,
,,,,,,,,,,,,0,0,0,0,156,0,156,0,,,,,,,156,,,1,1309.2372687087627,Y,d,go,d,1,0.3436514090572018,,,,,,,,,,,,,,,,,,63,001,19,w,Psychologie,2023-01-25_09h05.18.746,00_bat_bachelor,2022.2.4,59.913289002238386,
,,,,,,,,,,,,0,0,0,0,157,0,157,0,,,,,,,157,,,1,1310.6888000321924,X,l,go,l,1,0.3807927964080591,,,,,,,,,,,,,,,,,,63,001,19,w,Psychologie,2023-01-25_09h05.18.746,00_bat_bachelor,2022.2.4,59.913289002238386,
,,,,,,,,,,,,0,0,0,0,158,0,158,0,,,,,,,158,,,1,1312.1732235247036,X,None,nogo,None,1,,,,,,,,,,,,,,,,,,,63,001,19,w,Psychologie,2023-01-25_09h05.18.746,00_bat_bachelor,2022.2.4,59.913289002238386,
,,,,,,,,,,,,0,0,0,0,159,0,159,0,,,,,,,159,,,1,1313.9746006903297,Y,d,go,d,1,0.407634047587635,,,,,,,,,,,,,,,,,,63,001,19,w,Psychologie,2023-01-25_09h05.18.746,00_bat_bachelor,2022.2.4,59.913289002238386,
,,,,,,,,,,,,0,0,0,0,160,0,160,0,,,,,,,160,,,1,1315.4924632617622,X,l,go,l,1,0.3135941532382276,,,,,,,,,,,,,,,,,,63,001,19,w,Psychologie,2023-01-25_09h05.18.746,00_bat_bachelor,2022.2.4,59.913289002238386,
,,,,,,,,,,,,0,0,0,0,161,0,161,0,,,,,,,161,,,1,1316.909987747873,X,None,nogo,None,1,,,,,,,,,,,,,,,,,,,63,001,19,w,Psychologie,2023-01-25_09h05.18.746,00_bat_bachelor,2022.2.4,59.913289002238386,
,,,,,,,,,,,,0,0,0,0,162,0,162,0,,,,,,,162,,,1,1318.7113600650046,X,None,nogo,None,1,,,,,,,,,,,,,,,,,,,63,001,19,w,Psychologie,2023-01-25_09h05.18.746,00_bat_bachelor,2022.2.4,59.913289002238386,
,,,,,,,,,,,,0,0,0,0,163,0,163,0,,,,,,,163,,,1,1320.5128594126436,Y,d,go,d,1,0.3328858176537324,,,,,,,,,,,,,,,,,,63,001,19,w,Psychologie,2023-01-25_09h05.18.746,00_bat_bachelor,2022.2.4,59.913289002238386,
,,,,,,,,,,,,0,0,0,0,164,0,164,0,,,,,,,164,,,1,1321.947205741395,X,l,go,l,1,0.418551396811381,,,,,,,,,,,,,,,,,,63,001,19,w,Psychologie,2023-01-25_09h05.18.746,00_bat_bachelor,2022.2.4,59.913289002238386,
,,,,,,,,,,,,0,0,0,0,165,0,165,0,,,,,,,165,,,1,1323.4819177918835,Y,d,go,d,1,0.30775365987210535,,,,,,,,,,,,,,,,,,63,001,19,w,Psychologie,2023-01-25_09h05.18.746,00_bat_bachelor,2022.2.4,59.913289002238386,
,,,,,,,,,,,,0,0,0,0,166,0,166,0,,,,,,,166,,,1,1324.8994956114038,X,l,go,l,1,0.29745837216614746,,,,,,,,,,,,,,,,,,63,001,19,w,Psychologie,2023-01-25_09h05.18.746,00_bat_bachelor,2022.2.4,59.913289002238386,
,,,,,,,,,,,,0,0,0,0,167,0,167,0,,,,,,,167,,,1,1326.300766982924,Y,d,go,d,1,0.36841265720431693,,,,,,,,,,,,,,,,,,63,001,19,w,Psychologie,2023-01-25_09h05.18.746,00_bat_bachelor,2022.2.4,59.913289002238386,
,,,,,,,,,,,,0,0,0,0,168,0,168,0,,,,,,,168,,,1,1327.785128899588,X,l,go,l,1,0.29194563688361086,,,,,,,,,,,,,,,,,,63,001,19,w,Psychologie,2023-01-25_09h05.18.746,00_bat_bachelor,2022.2.4,59.913289002238386,
,,,,,,,,,,,,0,0,0,0,169,0,169,0,,,,,,,169,,,1,1329.186051179713,Y,d,go,d,1,0.41165490192361176,,,,,,,,,,,,,,,,,,63,001,19,w,Psychologie,2023-01-25_09h05.18.746,00_bat_bachelor,2022.2.4,59.913289002238386,
,,,,,,,,,,,,0,0,0,0,170,0,170,0,,,,,,,170,,,1,1330.703986478533,X,l,go,l,1,0.2856096276664175,,,,,,,,,,,,,,,,,,63,001,19,w,Psychologie,2023-01-25_09h05.18.746,00_bat_bachelor,2022.2.4,59.913289002238386,
,,,,,,,,,,,,0,0,0,0,171,0,171,0,,,,,,,171,,,1,1332.1051531226549,X,None,nogo,None,1,,,,,,,,,,,,,,,,,,,63,001,19,w,Psychologie,2023-01-25_09h05.18.746,00_bat_bachelor,2022.2.4,59.913289002238386,
,,,,,,,,,,,,0,0,0,0,172,0,172,0,,,,,,,172,,,1,1333.906470166985,Y,d,go,d,1,0.4269640150887426,,,,,,,,,,,,,,,,,,63,001,19,w,Psychologie,2023-01-25_09h05.18.746,00_bat_bachelor,2022.2.4,59.913289002238386,
,,,,,,,,,,,,0,0,0,0,173,0,173,0,,,,,,,173,,,1,1335.4409790656646,X,l,go,l,1,0.3163737936411053,,,,,,,,,,,,,,,,,,63,001,19,w,Psychologie,2023-01-25_09h05.18.746,00_bat_bachelor,2022.2.4,59.913289002238386,
,,,,,,,,,,,,0,0,0,0,174,0,174,0,,,,,,,174,,,1,1336.8587435521185,X,None,nogo,l,0,0.33864631087635644,,,,,,,,,,,,,,,,,,63,001,19,w,Psychologie,2023-01-25_09h05.18.746,00_bat_bachelor,2022.2.4,59.913289002238386,
,,,,,,,,,,,,0,0,0,0,175,0,175,0,,,,,,,175,,,1,1338.3097827536403,X,None,nogo,d,0,0.29629424927406944,,,,,,,,,,,,,,,,,,63,001,19,w,Psychologie,2023-01-25_09h05.18.746,00_bat_bachelor,2022.2.4,59.913289002238386,
,,,,,,,,,,,,0,0,0,0,176,0,176,0,,,,,,,176,,,1,1339.7109183674038,Y,d,go,d,1,0.3662604116543662,,,,,,,,,,,,,,,,,,63,001,19,w,Psychologie,2023-01-25_09h05.18.746,00_bat_bachelor,2022.2.4,59.913289002238386,
,,,,,,,,,,,,0,0,0,0,177,0,177,0,,,,,,,177,,,1,1341.1786232901213,X,l,go,l,1,0.40231476712506264,,,,,,,,,,,,,,,,,,63,001,19,w,Psychologie,2023-01-25_09h05.18.746,00_bat_bachelor,2022.2.4,59.913289002238386,
,,,,,,,,,,,,0,0,0,0,178,0,178,0,,,,,,,178,,,1,1342.6965876798786,X,None,nogo,l,0,0.27734682778827846,,,,,,,,,,,,,,,,,,63,001,19,w,Psychologie,2023-01-25_09h05.18.746,00_bat_bachelor,2022.2.4,59.913289002238386,
,,,,,,,,,,,,0,0,0,0,179,0,179,0,,,,,,,179,,,1,1344.0809741783887,Y,d,go,d,1,0.39659403151017614,,,,,,,,,,,,,,,,,,63,001,19,w,Psychologie,2023-01-25_09h05.18.746,00_bat_bachelor,2022.2.4,59.913289002238386,
,,,,,,,,,,,,0,0,0,0,180,0,180,0,,,,,,,180,,,1,1345.5817535734677,X,l,go,l,1,0.3521047546819318,,,,,,,,,,,,,,,,,,63,001,19,w,Psychologie,2023-01-25_09h05.18.746,00_bat_bachelor,2022.2.4,59.913289002238386,
,,,,,,,,,,,,0,0,0,0,181,0,181,0,,,,,,,181,,,1,1347.0497183753469,X,None,nogo,None,1,,,,,,,,,,,,,,,,,,,63,001,19,w,Psychologie,2023-01-25_09h05.18.746,00_bat_bachelor,2022.2.4,59.913289002238386,
,,,,,,,,,,,,0,0,0,0,182,0,182,0,,,,,,,182,,,1,1348.851236147253,Y,d,go,d,1,0.4266716510464903,,,,,,,,,,,,,,,,,,63,001,19,w,Psychologie,2023-01-25_09h05.18.746,00_bat_bachelor,2022.2.4,59.913289002238386,
,,,,,,,,,,,,0,0,0,0,183,0,183,0,,,,,,,183,,,1,1350.3857188640686,X,l,go,l,1,0.3321793923678342,,,,,,,,,,,,,,,,,,63,001,19,w,Psychologie,2023-01-25_09h05.18.746,00_bat_bachelor,2022.2.4,59.913289002238386,
,,,,,,,,,,,,0,0,0,0,184,0,184,0,,,,,,,184,,,1,1351.820241677924,Y,d,go,d,1,0.3696189619950019,,,,,,,,,,,,,,,,,,63,001,19,w,Psychologie,2023-01-25_09h05.18.746,00_bat_bachelor,2022.2.4,59.913289002238386,
,,,,,,,,,,,,0,0,0,0,185,0,185,0,,,,,,,185,,,1,1353.3046855340945,Y,None,nogo,None,1,,,,,,,,,,,,,,,,,,,63,001,19,w,Psychologie,2023-01-25_09h05.18.746,00_bat_bachelor,2022.2.4,59.913289002238386,
,,,,,,,,,,,,0,0,0,0,186,0,186,0,,,,,,,186,,,1,1355.106028275448,X,l,go,l,1,0.42773637984646484,,,,,,,,,,,,,,,,,,63,001,19,w,Psychologie,2023-01-25_09h05.18.746,00_bat_bachelor,2022.2.4,59.913289002238386,
,,,,,,,,,,,,0,0,0,0,187,0,187,0,,,,,,,187,,,1,1356.6404872346611,Y,d,go,d,1,0.4132296920870431,,,,,,,,,,,,,,,,,,63,001,19,w,Psychologie,2023-01-25_09h05.18.746,00_bat_bachelor,2022.2.4,59.913289002238386,
,,,,,,,,,,,,0,0,0,0,188,0,188,0,,,,,,,188,,,1,1358.1582717453712,X,l,go,l,1,0.33489454782102257,,,,,,,,,,,,,,,,,,63,001,19,w,Psychologie,2023-01-25_09h05.18.746,00_bat_bachelor,2022.2.4,59.913289002238386,
,,,,,,,,,,,,0,0,0,0,189,0,189,0,,,,,,,189,,,1,1359.6094660986273,Y,d,go,d,1,0.33992922183824703,,,,,,,,,,,,,,,,,,63,001,19,w,Psychologie,2023-01-25_09h05.18.746,00_bat_bachelor,2022.2.4,59.913289002238386,
,,,,,,,,,,,,0,0,0,0,190,0,190,0,,,,,,,190,,,1,1361.0605586335296,Y,None,nogo,None,1,,,,,,,,,,,,,,,,,,,63,001,19,w,Psychologie,2023-01-25_09h05.18.746,00_bat_bachelor,2022.2.4,59.913289002238386,
,,,,,,,,,,,,0,0,0,0,191,0,191,0,,,,,,,191,,,1,1362.861580404715,X,l,go,l,1,0.255412735248683,,,,,,,,,,,,,,,,,,63,001,19,w,Psychologie,2023-01-25_09h05.18.746,00_bat_bachelor,2022.2.4,59.913289002238386,
,,,,,,,,,,,,0,0,0,0,192,0,192,0,,,,,,,192,,,1,1364.2295969400147,Y,d,go,d,1,0.31194857507944107,,,,,,,,,,,,,,,,,,63,001,19,w,Psychologie,2023-01-25_09h05.18.746,00_bat_bachelor,2022.2.4,59.913289002238386,
,,,,,,,,,,,,0,0,0,0,193,0,193,0,,,,,,,193,,,1,1365.6473788810545,X,l,go,l,1,0.27057154520298354,,,,,,,,,,,,,,,,,,63,001,19,w,Psychologie,2023-01-25_09h05.18.746,00_bat_bachelor,2022.2.4,59.913289002238386,
,,,,,,,,,,,,0,0,0,0,194,0,194,0,,,,,,,194,,,1,1367.0318536220875,Y,d,go,d,1,0.37380030140047893,,,,,,,,,,,,,,,,,,63,001,19,w,Psychologie,2023-01-25_09h05.18.746,00_bat_bachelor,2022.2.4,59.913289002238386,
,,,,,,,,,,,,0,0,0,0,195,0,195,0,,,,,,,195,,,1,1368.5159411141067,X,l,go,l,1,0.26548741658916697,,,,,,,,,,,,,,,,,,63,001,19,w,Psychologie,2023-01-25_09h05.18.746,00_bat_bachelor,2022.2.4,59.913289002238386,
,,,,,,,,,,,,0,0,0,0,196,0,196,0,,,,,,,196,,,1,1369.884018740384,Y,d,go,d,1,0.2893318148853723,,,,,,,,,,,,,,,,,,63,001,19,w,Psychologie,2023-01-25_09h05.18.746,00_bat_bachelor,2022.2.4,59.913289002238386,
,,,,,,,,,,,,0,0,0,0,197,0,197,0,,,,,,,197,,,1,1371.284978838754,X,l,go,l,1,0.24865490724914707,,,,,,,,,,,,,,,,,,63,001,19,w,Psychologie,2023-01-25_09h05.18.746,00_bat_bachelor,2022.2.4,59.913289002238386,
,,,,,,,,,,,,0,0,0,0,198,0,198,0,,,,,,,198,,,1,1372.636130379833,Y,d,go,d,1,0.33816340105840936,,,,,,,,,,,,,,,,,,63,001,19,w,Psychologie,2023-01-25_09h05.18.746,00_bat_bachelor,2022.2.4,59.913289002238386,
,,,,,,,,,,,,0,0,0,0,199,0,199,0,,,,,,,199,,,1,1374.0868379444873,X,l,go,l,1,0.27862731445929967,,,,,,,,,,,,,,,,,,63,001,19,w,Psychologie,2023-01-25_09h05.18.746,00_bat_bachelor,2022.2.4,59.913289002238386,
,,,,,,,,,,,,0,0,0,0,200,0,200,0,,,,,,,200,,,1,1375.4712472309184,Y,d,go,d,1,0.286395083356183,,,,,,,,,,,,,,,,,,63,001,19,w,Psychologie,2023-01-25_09h05.18.746,00_bat_bachelor,2022.2.4,59.913289002238386,
,,,,,,,,,,,,0,0,0,0,201,0,201,0,,,,,,,201,,,1,1376.87271496639,X,l,go,l,1,0.2764949477277696,,,,,,,,,,,,,,,,,,63,001,19,w,Psychologie,2023-01-25_09h05.18.746,00_bat_bachelor,2022.2.4,59.913289002238386,
,,,,,,,,,,,,0,0,0,0,202,0,202,0,,,,,,,202,,,1,1378.2570064344327,Y,d,go,d,1,0.3484223250998184,,,,,,,,,,,,,,,,,,63,001,19,w,Psychologie,2023-01-25_09h05.18.746,00_bat_bachelor,2022.2.4,59.913289002238386,
,,,,,,,,,,,,0,0,0,0,203,0,203,0,,,,,,,203,,,1,1379.707971454016,X,l,go,l,1,0.2569007374404464,,,,,,,,,,,,,,,,,,63,001,19,w,Psychologie,2023-01-25_09h05.18.746,00_bat_bachelor,2022.2.4,59.913289002238386,
,,,,,,,,,,,,0,0,0,0,204,0,204,0,,,,,,,204,,,1,1381.0755414432206,X,None,nogo,None,1,,,,,,,,,,,,,,,,,,,63,001,19,w,Psychologie,2023-01-25_09h05.18.746,00_bat_bachelor,2022.2.4,59.913289002238386,
,,,,,,,,,,,,0,0,0,0,205,0,205,0,,,,,,,205,,,1,1382.877039821149,Y,d,go,d,1,0.3678594442899339,,,,,,,,,,,,,,,,,,63,001,19,w,Psychologie,2023-01-25_09h05.18.746,00_bat_bachelor,2022.2.4,59.913289002238386,
,,,,,,,,,,,,0,0,0,0,206,0,206,0,,,,,,,206,,,1,1384.3615501016611,X,l,go,l,1,0.30750638677272946,,,,,,,,,,,,,,,,,,63,001,19,w,Psychologie,2023-01-25_09h05.18.746,00_bat_bachelor,2022.2.4,59.913289002238386,
,,,,,,,,,,,,0,0,0,0,207,0,207,0,,,,,,,207,,,1,1385.7793553154333,Y,d,go,d,1,0.39440833136904985,,,,,,,,,,,,,,,,,,63,001,19,w,Psychologie,2023-01-25_09h05.18.746,00_bat_bachelor,2022.2.4,59.913289002238386,
,,,,,,,,,,,,0,0,0,0,208,0,208,0,,,,,,,208,,,1,1387.280586105102,X,l,go,l,1,0.33303127239923924,,,,,,,,,,,,,,,,,,63,001,19,w,Psychologie,2023-01-25_09h05.18.746,00_bat_bachelor,2022.2.4,59.913289002238386,
,,,,,,,,,,,,0,0,0,0,209,0,209,0,,,,,,,209,,,1,1388.7148553428124,Y,d,go,d,1,0.30672238566330634,,,,,,,,,,,,,,,,,,63,001,19,w,Psychologie,2023-01-25_09h05.18.746,00_bat_bachelor,2022.2.4,59.913289002238386,
,,,,,,,,,,,,0,0,0,0,210,0,210,0,,,,,,,210,,,1,1390.1327134051535,Y,None,nogo,None,1,,,,,,,,,1390.9333351757668,,,,,,,,,,63,001,19,w,Psychologie,2023-01-25_09h05.18.746,00_bat_bachelor,2022.2.4,59.913289002238386,
,,,,,,,,,,,,0,0,0,0,211,0,211,0,,,,,,,211,,,1,1391.9341342072294,X,l,go,l,1,0.3514085112547036,,,,,,,,,,,,,,,,,,63,001,19,w,Psychologie,2023-01-25_09h05.18.746,00_bat_bachelor,2022.2.4,59.913289002238386,
,,,,,,,,,,,,0,0,0,0,212,0,212,0,,,,,,,212,,,1,1393.4019617968006,Y,d,go,d,1,0.17999832253553905,,,,,,,,,,,,,,,,,,63,001,19,w,Psychologie,2023-01-25_09h05.18.746,00_bat_bachelor,2022.2.4,59.913289002238386,
,,,,,,,,,,,,0,0,0,0,213,0,213,0,,,,,,,213,,,1,1394.6862473012006,X,l,go,l,1,0.22380687110126019,,,,,,,,,,,,,,,,,,63,001,19,w,Psychologie,2023-01-25_09h05.18.746,00_bat_bachelor,2022.2.4,59.913289002238386,
,,,,,,,,,,,,0,0,0,0,214,0,214,0,,,,,,,214,,,1,1396.020597848139,X,None,nogo,l,0,0.40927380754146725,,,,,,,,,,,,,,,,,,63,001,19,w,Psychologie,2023-01-25_09h05.18.746,00_bat_bachelor,2022.2.4,59.913289002238386,
,,,,,,,,,,,,0,0,0,0,215,0,215,0,,,,,,,215,,,1,1397.5384027225373,Y,d,go,d,1,0.3308319964853581,,,,,,,,,,,,,,,,,,63,001,19,w,Psychologie,2023-01-25_09h05.18.746,00_bat_bachelor,2022.2.4,59.913289002238386,
,,,,,,,,,,,,0,0,0,0,216,0,216,0,,,,,,,216,,,1,1398.9727568088565,X,l,go,l,1,0.43286220548907295,,,,,,,,,,,,,,,,,,63,001,19,w,Psychologie,2023-01-25_09h05.18.746,00_bat_bachelor,2022.2.4,59.913289002238386,
,,,,,,,,,,,,0,0,0,0,217,0,217,0,,,,,,,217,,,1,1400.5071731013595,Y,d,go,d,1,0.33875928074121475,,,,,,,,,,,,,,,,,,63,001,19,w,Psychologie,2023-01-25_09h05.18.746,00_bat_bachelor,2022.2.4,59.913289002238386,
,,,,,,,,,,,,0,0,0,0,218,0,218,0,,,,,,,218,,,1,1401.958400424337,X,l,go,l,1,0.2952998235996347,,,,,,,,,,,,,,,,,,63,001,19,w,Psychologie,2023-01-25_09h05.18.746,00_bat_bachelor,2022.2.4,59.913289002238386,
,,,,,,,,,,,,0,0,0,0,219,0,219,0,,,,,,,219,,,1,1403.3594773713558,Y,d,go,d,1,0.3180426445323974,,,,,,,,,,,,,,,,,,63,001,19,w,Psychologie,2023-01-25_09h05.18.746,00_bat_bachelor,2022.2.4,59.913289002238386,
,,,,,,,,,,,,0,0,0,0,220,0,220,0,,,,,,,220,,,1,1404.7936195785878,X,l,go,l,1,0.24394799131550826,,,,,,,,,,,,,,,,,,63,001,19,w,Psychologie,2023-01-25_09h05.18.746,00_bat_bachelor,2022.2.4,59.913289002238386,
,,,,,,,,,,,,0,0,0,0,221,0,221,0,,,,,,,221,,,1,1406.1447197256493,Y,d,go,d,1,0.36542404678766616,,,,,,,,,,,,,,,,,,63,001,19,w,Psychologie,2023-01-25_09h05.18.746,00_bat_bachelor,2022.2.4,59.913289002238386,
,,,,,,,,,,,,0,0,0,0,222,0,222,0,,,,,,,222,,,1,1407.6128236792574,X,l,go,l,1,0.28852017733152024,,,,,,,,,,,,,,,,,,63,001,19,w,Psychologie,2023-01-25_09h05.18.746,00_bat_bachelor,2022.2.4,59.913289002238386,
,,,,,,,,,,,,0,0,0,0,223,0,223,0,,,,,,,223,,,1,1409.013842929242,Y,d,go,d,1,0.3284892051888164,,,,,,,,,,,,,,,,,,63,001,19,w,Psychologie,2023-01-25_09h05.18.746,00_bat_bachelor,2022.2.4,59.913289002238386,
,,,,,,,,,,,,0,0,0,0,224,0,224,0,,,,,,,224,,,1,1410.4483216218068,X,l,go,l,1,0.2383441043784842,,,,,,,,,,,,,,,,,,63,001,19,w,Psychologie,2023-01-25_09h05.18.746,00_bat_bachelor,2022.2.4,59.913289002238386,
,,,,,,,,,,,,0,0,0,0,225,0,225,0,,,,,,,225,,,1,1411.799322859617,X,None,nogo,None,1,,,,,,,,,,,,,,,,,,,63,001,19,w,Psychologie,2023-01-25_09h05.18.746,00_bat_bachelor,2022.2.4,59.913289002238386,
,,,,,,,,,,,,0,0,0,0,226,0,226,0,,,,,,,226,,,1,1413.60068693434,Y,d,go,d,1,0.2693686343554873,,,,,,,,,,,,,,,,,,63,001,19,w,Psychologie,2023-01-25_09h05.18.746,00_bat_bachelor,2022.2.4,59.913289002238386,
,,,,,,,,,,,,0,0,0,0,227,0,227,0,,,,,,,227,,,1,1414.9849294326268,X,l,go,l,1,0.19659664970822632,,,,,,,,,,,,,,,,,,63,001,19,w,Psychologie,2023-01-25_09h05.18.746,00_bat_bachelor,2022.2.4,59.913289002238386,
,,,,,,,,,,,,0,0,0,0,228,0,228,0,,,,,,,228,,,1,1416.286060537299,X,None,nogo,None,1,,,,,,,,,,,,,,,,,,,63,001,19,w,Psychologie,2023-01-25_09h05.18.746,00_bat_bachelor,2022.2.4,59.913289002238386,
,,,,,,,,,,,,0,0,0,0,229,0,229,0,,,,,,,229,,,1,1418.087433824141,Y,d,go,d,1,0.3430274081474636,,,,,,,,,,,,,,,,,,63,001,19,w,Psychologie,2023-01-25_09h05.18.746,00_bat_bachelor,2022.2.4,59.913289002238386,
,,,,,,,,,,,,0,0,0,0,230,0,230,0,,,,,,,230,,,1,1419.5384027225373,X,l,go,l,1,0.31519270097487606,,,,,,,,,,,,,,,,,,63,001,19,w,Psychologie,2023-01-25_09h05.18.746,00_bat_bachelor,2022.2.4,59.913289002238386,
,,,,,,,,,,,,0,0,0,0,231,0,231,0,,,,,,,231,,,1,1420.9563538759248,Y,d,go,d,1,0.5452788538532332,,,,,,,,,,,,,,,,,,63,001,19,w,Psychologie,2023-01-25_09h05.18.746,00_bat_bachelor,2022.2.4,59.913289002238386,
,,,,,,,,,,,,0,0,0,0,232,0,232,0,,,,,,,232,,,1,1422.6072527620709,X,l,go,l,1,0.23822337691672146,,,,,,,,,,,,,,,,,,63,001,19,w,Psychologie,2023-01-25_09h05.18.746,00_bat_bachelor,2022.2.4,59.913289002238386,
,,,,,,,,,,,,0,0,0,0,233,0,233,0,,,,,,,233,,,1,1423.9584920608322,X,None,nogo,l,0,0.35935761375003494,,,,,,,,,,,,,,,,,,63,001,19,w,Psychologie,2023-01-25_09h05.18.746,00_bat_bachelor,2022.2.4,59.913289002238386,
,,,,,,,,,,,,0,0,0,0,234,0,234,0,,,,,,,234,,,1,1425.4260592864011,Y,d,go,d,1,0.395591848238837,,,,,,,,,,,,,,,,,,63,001,19,w,Psychologie,2023-01-25_09h05.18.746,00_bat_bachelor,2022.2.4,59.913289002238386,
,,,,,,,,,,,,0,0,0,0,235,0,235,0,,,,,,,235,,,1,1426.9274786823953,X,l,go,l,1,0.4296966251276899,,,,,,,,,,,,,,,,,,63,001,19,w,Psychologie,2023-01-25_09h05.18.746,00_bat_bachelor,2022.2.4,59.913289002238386,
,,,,,,,,,,,,0,0,0,0,236,0,236,0,,,,,,,236,,,1,1428.4620244296093,X,None,nogo,None,1,,,,,,,,,,,,,,,,,,,63,001,19,w,Psychologie,2023-01-25_09h05.18.746,00_bat_bachelor,2022.2.4,59.913289002238386,
,,,,,,,,,,,,0,0,0,0,237,0,237,0,,,,,,,237,,,1,1430.263468019606,Y,d,go,d,1,0.35806112698628567,,,,,,,,,,,,,,,,,,63,001,19,w,Psychologie,2023-01-25_09h05.18.746,00_bat_bachelor,2022.2.4,59.913289002238386,
,,,,,,,,,,,,0,0,0,0,238,0,238,0,,,,,,,238,,,1,1431.7315162155428,X,l,go,l,1,0.3460640186094679,,,,,,,,,,,,,,,,,,63,001,19,w,Psychologie,2023-01-25_09h05.18.746,00_bat_bachelor,2022.2.4,59.913289002238386,
,,,,,,,,,,,,0,0,0,0,239,0,239,0,,,,,,,239,,,1,1433.1822960227437,X,None,nogo,None,1,,,,,,,,,,,,,,,,,,,63,001,19,w,Psychologie,2023-01-25_09h05.18.746,00_bat_bachelor,2022.2.4,59.913289002238386,
,,,,,,,,,,,,0,0,0,0,240,0,240,0,,,,,,,240,,,1,1434.983728946041,Y,d,go,d,1,0.3420674067456275,,,,,,,,,,,,,,,,,,63,001,19,w,Psychologie,2023-01-25_09h05.18.746,00_bat_bachelor,2022.2.4,59.913289002238386,
,,,,,,,,,,,,0,0,0,0,241,0,241,0,,,,,,,241,,,1,1436.4347928748466,X,l,go,l,1,0.2510966077679768,,,,,,,,,,,,,,,,,,63,001,19,w,Psychologie,2023-01-25_09h05.18.746,00_bat_bachelor,2022.2.4,59.913289002238386,
,,,,,,,,,,,,0,0,0,0,242,0,242,0,,,,,,,242,,,1,1437.8024729248136,X,None,nogo,None,1,,,,,,,,,1438.6027688767645,,,,,,,,,,63,001,19,w,Psychologie,2023-01-25_09h05.18.746,00_bat_bachelor,2022.2.4,59.913289002238386,
,,,,,,,,,,,,0,0,0,0,243,0,243,0,,,,,,,243,,,1,1439.6035868173349,Y,d,go,d,1,0.36154137447010726,,,,,,,,,,,,,,,,,,63,001,19,w,Psychologie,2023-01-25_09h05.18.746,00_bat_bachelor,2022.2.4,59.913289002238386,
,,,,,,,,,,,,0,0,0,0,244,0,244,0,,,,,,,244,,,1,1441.0717479831656,X,l,go,l,1,0.3018821361765731,,,,,,,,,,,,,,,,,,63,001,19,w,Psychologie,2023-01-25_09h05.18.746,00_bat_bachelor,2022.2.4,59.913289002238386,
,,,,,,,,,,,,0,0,0,0,245,0,245,0,,,,,,,245,,,1,1442.4894145300495,Y,d,go,d,1,0.32437138102250174,,,,,,,,,,,,,,,,,,63,001,19,w,Psychologie,2023-01-25_09h05.18.746,00_bat_bachelor,2022.2.4,59.913289002238386,
,,,,,,,,,,,,0,0,0,0,246,0,246,0,,,,,,,246,,,1,1443.9237914043188,X,l,go,l,1,0.2503358793910593,,,,,,,,,,,,,,,,,,63,001,19,w,Psychologie,2023-01-25_09h05.18.746,00_bat_bachelor,2022.2.4,59.913289002238386,
,,,,,,,,,,,,0,0,0,0,247,0,247,0,,,,,,,247,,,1,1445.2749516726471,X,None,nogo,None,1,,,,,,,,,,,,,,,,,,,63,001,19,w,Psychologie,2023-01-25_09h05.18.746,00_bat_bachelor,2022.2.4,59.913289002238386,
,,,,,,,,,,,,0,0,0,0,248,0,248,0,,,,,,,248,,,1,1447.0762027775054,Y,d,go,d,1,0.29796746381907724,,,,,,,,,,,,,,,,,,63,001,19,w,Psychologie,2023-01-25_09h05.18.746,00_bat_bachelor,2022.2.4,59.913289002238386,
,,,,,,,,,,,,0,0,0,0,249,0,249,0,,,,,,,249,,,1,1448.4773122094339,X,l,go,l,1,0.24102192642749287,,,,,,,,,,,,,,,,,,63,001,19,w,Psychologie,2023-01-25_09h05.18.746,00_bat_bachelor,2022.2.4,59.913289002238386,
,,,,,,,,,,,,1,0,1,0,0,0,0,0,,,,,,,0,,,0.2,1499.2325680958747,X,l,go,l,1,0.4777956041798461,,,,,,,,,1448.832811393193,space,50.17579468007898,,,,,,,63,001,19,w,Psychologie,2023-01-25_09h05.18.746,00_bat_bachelor,2022.2.4,59.913289002238386,
,,,,,,,,,,,,1,0,1,0,1,0,1,0,,,,,,,1,,,0.2,1500.0167496001231,Y,d,go,d,1,0.4295128672965802,,,,,,,,,,,,,,,,,,63,001,19,w,Psychologie,2023-01-25_09h05.18.746,00_bat_bachelor,2022.2.4,59.913289002238386,
,,,,,,,,,,,,1,0,1,0,2,0,2,0,,,,,,,2,,,0.2,1500.750644970627,X,l,go,l,1,0.3996379147283733,,,,,,,,,,,,,,,,,,63,001,19,w,Psychologie,2023-01-25_09h05.18.746,00_bat_bachelor,2022.2.4,59.913289002238386,
,,,,,,,,,,,,1,0,1,0,3,0,3,0,,,,,,,3,,,0.2,1501.4509339892538,Y,d,go,d,1,0.32298228808213025,,,,,,,,,,,,,,,,,,63,001,19,w,Psychologie,2023-01-25_09h05.18.746,00_bat_bachelor,2022.2.4,59.913289002238386,
,,,,,,,,,,,,1,0,1,0,4,0,4,0,,,,,,,4,,,0.2,1502.0849979418272,Y,None,nogo,None,1,,,,,,,,,,,,,,,,,,,63,001,19,w,Psychologie,2023-01-25_09h05.18.746,00_bat_bachelor,2022.2.4,59.913289002238386,
,,,,,,,,,,,,1,0,1,0,5,0,5,0,,,,,,,5,,,0.2,1503.0853402453358,X,l,go,l,1,0.38446940781432204,,,,,,,,,,,,,,,,,,63,001,19,w,Psychologie,2023-01-25_09h05.18.746,00_bat_bachelor,2022.2.4,59.913289002238386,
,,,,,,,,,,,,1,0,1,0,6,0,6,0,,,,,,,6,,,0.2,1503.7862072041899,Y,d,go,d,1,0.499767514935229,,,,,,,,,,,,,,,,,,63,001,19,w,Psychologie,2023-01-25_09h05.18.746,00_bat_bachelor,2022.2.4,59.913289002238386,
,,,,,,,,,,,,1,0,1,0,7,0,7,0,,,,,,,7,,,0.2,1504.5869094597583,X,l,go,l,1,0.3552140925603453,,,,,,,,,,,,,,,,,,63,001,19,w,Psychologie,2023-01-25_09h05.18.746,00_bat_bachelor,2022.2.4,59.913289002238386,
,,,,,,,,,,,,1,0,1,0,8,0,8,0,,,,,,,8,,,0.2,1505.2539737027546,X,None,nogo,None,1,,,,,,,,,,,,,,,,,,,63,001,19,w,Psychologie,2023-01-25_09h05.18.746,00_bat_bachelor,2022.2.4,59.913289002238386,
,,,,,,,,,,,,1,0,1,0,9,0,9,0,,,,,,,9,,,0.2,1506.2548246130755,Y,d,go,d,1,0.30360965387080796,,,,,,,,,,,,,,,,,,63,001,19,w,Psychologie,2023-01-25_09h05.18.746,00_bat_bachelor,2022.2.4,59.913289002238386,
,,,,,,,,,,,,1,0,1,0,10,0,10,0,,,,,,,10,,,0.2,1506.871738480113,X,l,go,l,1,0.39035353760118596,,,,,,,,,,,,,,,,,,63,001,19,w,Psychologie,2023-01-25_09h05.18.746,00_bat_bachelor,2022.2.4,59.913289002238386,
,,,,,,,,,,,,1,0,1,0,11,0,11,0,,,,,,,11,,,0.2,1507.572475499357,Y,d,go,d,1,0.42527480053831823,,,,,,,,,,,,,,,,,,63,001,19,w,Psychologie,2023-01-25_09h05.18.746,00_bat_bachelor,2022.2.4,59.913289002238386,
,,,,,,,,,,,,1,0,1,0,12,0,12,0,,,,,,,12,,,0.2,1508.306336930429,X,l,go,l,1,0.4282270472322125,,,,,,,,,,,,,,,,,,63,001,19,w,Psychologie,2023-01-25_09h05.18.746,00_bat_bachelor,2022.2.4,59.913289002238386,
,,,,,,,,,,,,1,0,1,0,13,0,13,0,,,,,,,13,,,0.2,1509.040217270609,Y,d,go,d,1,0.31789573523565196,,,,,,,,,,,,,,,,,,63,001,19,w,Psychologie,2023-01-25_09h05.18.746,00_bat_bachelor,2022.2.4,59.913289002238386,
,,,,,,,,,,,,1,0,1,0,14,0,14,0,,,,,,,14,,,0.2,1509.6740121319017,X,l,go,l,1,0.29238394054118544,,,,,,,,,,,,,,,,,,63,001,19,w,Psychologie,2023-01-25_09h05.18.746,00_bat_bachelor,2022.2.4,59.913289002238386,
,,,,,,,,,,,,1,0,1,0,15,0,15,0,,,,,,,15,,,0.2,1510.2745414902456,Y,d,go,d,1,0.3148290641256608,,,,,,,,,,,,,,,,,,63,001,19,w,Psychologie,2023-01-25_09h05.18.746,00_bat_bachelor,2022.2.4,59.913289002238386,
,,,,,,,,,,,,1,0,1,0,16,0,16,0,,,,,,,16,,,0.2,1510.8917006909614,X,l,go,l,1,0.402098039543489,,,,,,,,,,,,,,,,,,63,001,19,w,Psychologie,2023-01-25_09h05.18.746,00_bat_bachelor,2022.2.4,59.913289002238386,
,,,,,,,,,,,,1,0,1,0,17,0,17,0,,,,,,,17,,,0.2,1511.608563309419,Y,d,go,d,1,0.3254438674193807,,,,,,,,,,,,,,,,,,63,001,19,w,Psychologie,2023-01-25_09h05.18.746,00_bat_bachelor,2022.2.4,59.913289002238386,
,,,,,,,,,,,,1,0,1,0,18,0,18,0,,,,,,,18,,,0.2,1512.24276495917,X,l,go,l,1,0.3635219834104646,,,,,,,,,,,,,,,,,,63,001,19,w,Psychologie,2023-01-25_09h05.18.746,00_bat_bachelor,2022.2.4,59.913289002238386,
,,,,,,,,,,,,1,0,1,0,19,0,19,0,,,,,,,19,,,0.2,1512.909891747724,Y,d,go,d,1,0.31975270764087327,,,,,,,,,,,,,,,,,,63,001,19,w,Psychologie,2023-01-25_09h05.18.746,00_bat_bachelor,2022.2.4,59.913289002238386,
,,,,,,,,,,,,1,0,1,0,20,0,20,0,,,,,,,20,,,0.2,1513.5436963059765,Y,None,nogo,None,1,,,,,,,,,,,,,,,,,,,63,001,19,w,Psychologie,2023-01-25_09h05.18.746,00_bat_bachelor,2022.2.4,59.913289002238386,
,,,,,,,,,,,,1,0,1,0,21,0,21,0,,,,,,,21,,,0.2,1514.5444565495127,X,l,go,l,1,0.2696454832330346,,,,,,,,,,,,,,,,,,63,001,19,w,Psychologie,2023-01-25_09h05.18.746,00_bat_bachelor,2022.2.4,59.913289002238386,
,,,,,,,,,,,,1,0,1,0,22,0,22,0,,,,,,,22,,,0.2,1515.1279192163784,Y,d,go,d,1,0.4058861662633717,,,,,,,,,,,,,,,,,,63,001,19,w,Psychologie,2023-01-25_09h05.18.746,00_bat_bachelor,2022.2.4,59.913289002238386,
,,,,,,,,,,,,1,0,1,0,23,0,23,0,,,,,,,23,,,0.2,1515.8451236535038,Y,None,nogo,None,1,,,,,,,,,,,,,,,,,,,63,001,19,w,Psychologie,2023-01-25_09h05.18.746,00_bat_bachelor,2022.2.4,59.913289002238386,
,,,,,,,,,,,,1,0,1,0,24,0,24,0,,,,,,,24,,,0.2,1516.8458800182561,X,l,go,l,1,0.3993872477149125,,,,,,,,,,,,,,,,,,63,001,19,w,Psychologie,2023-01-25_09h05.18.746,00_bat_bachelor,2022.2.4,59.913289002238386,
,,,,,,,,,,,,1,0,1,0,25,0,25,0,,,,,,,25,,,0.2,1517.5467954619962,Y,d,go,d,1,0.33867637152434327,,,,,,,,,,,,,,,,,,63,001,19,w,Psychologie,2023-01-25_09h05.18.746,00_bat_bachelor,2022.2.4,59.913289002238386,
,,,,,,,,,,,,1,0,1,0,26,0,26,0,,,,,,,26,,,0.2,1518.1972371353768,X,l,go,l,1,0.36063810045016,,,,,,,,,,,,,,,,,,63,001,19,w,Psychologie,2023-01-25_09h05.18.746,00_bat_bachelor,2022.2.4,59.913289002238386,
,,,,,,,,,,,,1,0,1,0,27,0,27,0,,,,,,,27,,,0.2,1518.8643939845788,Y,d,go,d,1,0.5249748243077192,,,,,,,,,,,,,,,,,,63,001,19,w,Psychologie,2023-01-25_09h05.18.746,00_bat_bachelor,2022.2.4,59.913289002238386,
,,,,,,,,,,,,1,0,1,0,28,0,28,0,,,,,,,28,,,0.2,1519.6984528947214,X,l,go,l,1,0.33207757404306903,,,,,,,,,,,,,,,,,,63,001,19,w,Psychologie,2023-01-25_09h05.18.746,00_bat_bachelor,2022.2.4,59.913289002238386,
,,,,,,,,,,,,1,0,1,0,29,0,29,0,,,,,,,29,,,0.2,1520.3322317559796,Y,d,go,d,1,0.2897327851969749,,,,,,,,,,,,,,,,,,63,001,19,w,Psychologie,2023-01-25_09h05.18.746,00_bat_bachelor,2022.2.4,59.913289002238386,
,,,,,,,,,,,,1,0,1,0,30,0,30,0,,,,,,,30,,,0.2,1520.9323315379443,Y,None,nogo,l,0,0.2655354166345205,,,,,,,,,,,,,,,,,,63,001,19,w,Psychologie,2023-01-25_09h05.18.746,00_bat_bachelor,2022.2.4,59.913289002238386,
,,,,,,,,,,,,1,0,1,0,31,0,31,0,,,,,,,31,,,0.2,1521.4998198785179,X,l,go,l,1,0.5456274604075588,,,,,,,,,,,,,,,,,,63,001,19,w,Psychologie,2023-01-25_09h05.18.746,00_bat_bachelor,2022.2.4,59.913289002238386,
,,,,,,,,,,,,1,0,1,0,32,0,32,0,,,,,,,32,,,0.2,1522.350413600594,Y,d,go,d,1,0.3196344044408761,,,,,,,,,,,,,,,,,,63,001,19,w,Psychologie,2023-01-25_09h05.18.746,00_bat_bachelor,2022.2.4,59.913289002238386,
,,,,,,,,,,,,1,0,1,0,33,0,33,0,,,,,,,33,,,0.2,1522.984290401393,X,l,go,l,1,0.30957038977066986,,,,,,,,,,,,,,,,,,63,001,19,w,Psychologie,2023-01-25_09h05.18.746,00_bat_bachelor,2022.2.4,59.913289002238386,
,,,,,,,,,,,,1,0,1,0,34,0,34,0,,,,,,,34,,,0.2,1523.6013245110225,X,None,nogo,None,1,,,,,,,,,,,,,,,,,,,63,001,19,w,Psychologie,2023-01-25_09h05.18.746,00_bat_bachelor,2022.2.4,59.913289002238386,
,,,,,,,,,,,,1,0,1,0,35,0,35,0,,,,,,,35,,,0.2,1524.6018277844705,Y,d,go,d,1,0.35522815317381173,,,,,,,,,,,,,,,,,,63,001,19,w,Psychologie,2023-01-25_09h05.18.746,00_bat_bachelor,2022.2.4,59.913289002238386,
,,,,,,,,,,,,1,0,1,0,36,0,36,0,,,,,,,36,,,0.2,1525.269320149324,X,l,go,l,1,0.2802137410326395,,,,,,,,,,,,,,,,,,63,001,19,w,Psychologie,2023-01-25_09h05.18.746,00_bat_bachelor,2022.2.4,59.913289002238386,
,,,,,,,,,,,,1,0,1,0,37,0,37,0,,,,,,,37,,,0.2,1525.8528274222917,Y,d,go,d,1,0.33748800616012886,,,,,,,,,,,,,,,,,,63,001,19,w,Psychologie,2023-01-25_09h05.18.746,00_bat_bachelor,2022.2.4,59.913289002238386,
,,,,,,,,,,,,1,0,1,0,38,0,38,0,,,,,,,38,,,0.2,1526.503348610946,X,l,go,l,1,0.24699332908494398,,,,,,,,,,,,,,,,,,63,001,19,w,Psychologie,2023-01-25_09h05.18.746,00_bat_bachelor,2022.2.4,59.913289002238386,
,,,,,,,,,,,,1,0,1,0,39,0,39,0,,,,,,,39,,,0.2,1527.053998139163,X,None,nogo,d,0,0.3199432533583604,,,,,,,,,,,,,,,,,,63,001,19,w,Psychologie,2023-01-25_09h05.18.746,00_bat_bachelor,2022.2.4,59.913289002238386,
,,,,,,,,,,,,1,0,1,0,40,0,40,0,,,,,,,40,,,0.2,1527.6877052427153,Y,d,go,None,0,,,,,,,,,1528.4884283468127,,,,,,,,,,63,001,19,w,Psychologie,2023-01-25_09h05.18.746,00_bat_bachelor,2022.2.4,59.913289002238386,
,,,,,,,,,,,,1,0,1,0,41,0,41,0,,,,,,,41,,,0.2,1528.688624031929,X,l,go,l,1,0.4292321396060288,,,,,,,,,,,,,,,,,,63,001,19,w,Psychologie,2023-01-25_09h05.18.746,00_bat_bachelor,2022.2.4,59.913289002238386,
,,,,,,,,,,,,1,0,1,0,42,0,42,0,,,,,,,42,,,0.2,1529.4224170992675,X,None,nogo,None,1,,,,,,,,,,,,,,,,,,,63,001,19,w,Psychologie,2023-01-25_09h05.18.746,00_bat_bachelor,2022.2.4,59.913289002238386,
,,,,,,,,,,,,1,0,1,0,43,0,43,0,,,,,,,43,,,0.2,1530.423212251946,Y,d,go,d,1,0.37481266650138423,,,,,,,,,,,,,,,,,,63,001,19,w,Psychologie,2023-01-25_09h05.18.746,00_bat_bachelor,2022.2.4,59.913289002238386,
,,,,,,,,,,,,1,0,1,0,44,0,44,0,,,,,,,44,,,0.2,1531.1070643981511,X,l,go,l,1,0.5710587701469194,,,,,,,,,,,,,,,,,,63,001,19,w,Psychologie,2023-01-25_09h05.18.746,00_bat_bachelor,2022.2.4,59.913289002238386,
,,,,,,,,,,,,1,0,1,0,45,0,45,0,,,,,,,45,,,0.2,1531.9910196232959,Y,d,go,d,1,0.3433115297812037,,,,,,,,,,,,,,,,,,63,001,19,w,Psychologie,2023-01-25_09h05.18.746,00_bat_bachelor,2022.2.4,59.913289002238386,
,,,,,,,,,,,,1,0,1,0,46,0,46,0,,,,,,,46,,,0.2,1532.64165911515,X,l,go,l,1,0.4436442817677744,,,,,,,,,,,,,,,,,,63,001,19,w,Psychologie,2023-01-25_09h05.18.746,00_bat_bachelor,2022.2.4,59.913289002238386,
,,,,,,,,,,,,1,0,1,0,47,0,47,0,,,,,,,47,,,0.2,1533.3922619039076,Y,d,go,d,1,0.47724239123635925,,,,,,,,,,,,,,,,,,63,001,19,w,Psychologie,2023-01-25_09h05.18.746,00_bat_bachelor,2022.2.4,59.913289002238386,
,,,,,,,,,,,,1,0,1,0,48,0,48,0,,,,,,,48,,,0.2,1534.1761268016417,Y,None,nogo,None,1,,,,,,,,,,,,,,,,,,,63,001,19,w,Psychologie,2023-01-25_09h05.18.746,00_bat_bachelor,2022.2.4,59.913289002238386,
,,,,,,,,,,,,1,0,1,0,49,0,49,0,,,,,,,49,,,0.2,1535.1768957724562,X,l,go,l,1,0.4045499218918849,,,,,,,,,,,,,,,,,,63,001,19,w,Psychologie,2023-01-25_09h05.18.746,00_bat_bachelor,2022.2.4,59.913289002238386,
,,,,,,,,,,,,1,0,1,0,50,0,50,0,,,,,,,50,,,0.2,1535.8940793610818,Y,d,go,d,1,0.3605697366874665,,,,,,,,,,,,,,,,,,63,001,19,w,Psychologie,2023-01-25_09h05.18.746,00_bat_bachelor,2022.2.4,59.913289002238386,
,,,,,,,,,,,,1,0,1,0,51,0,51,0,,,,,,,51,,,0.2,1536.5613084528304,X,l,go,l,1,0.3328964843240101,,,,,,,,,,,,,,,,,,63,001,19,w,Psychologie,2023-01-25_09h05.18.746,00_bat_bachelor,2022.2.4,59.913289002238386,
,,,,,,,,,,,,1,0,1,0,52,0,52,0,,,,,,,52,,,0.2,1537.1950814958836,X,None,nogo,None,1,,,,,,,,,,,,,,,,,,,63,001,19,w,Psychologie,2023-01-25_09h05.18.746,00_bat_bachelor,2022.2.4,59.913289002238386,
,,,,,,,,,,,,1,0,1,0,53,0,53,0,,,,,,,53,,,0.2,1538.1958645273116,Y,d,go,d,1,0.36247664858819917,,,,,,,,,,,,,,,,,,63,001,19,w,Psychologie,2023-01-25_09h05.18.746,00_bat_bachelor,2022.2.4,59.913289002238386,
,,,,,,,,,,,,1,0,1,0,54,0,54,0,,,,,,,54,,,0.2,1538.86299616436,X,l,go,l,1,0.5107251066074241,,,,,,,,,,,,,,,,,,63,001,19,w,Psychologie,2023-01-25_09h05.18.746,00_bat_bachelor,2022.2.4,59.913289002238386,
,,,,,,,,,,,,1,0,1,0,55,0,55,0,,,,,,,55,,,0.2,1539.6803185653116,X,None,nogo,None,1,,,,,,,,,,,,,,,,,,,63,001,19,w,Psychologie,2023-01-25_09h05.18.746,00_bat_bachelor,2022.2.4,59.913289002238386,
,,,,,,,,,,,,1,0,1,0,56,0,56,0,,,,,,,56,,,0.2,1540.6811093543365,Y,d,go,d,1,0.3884243226784747,,,,,,,,,,,,,,,,,,63,001,19,w,Psychologie,2023-01-25_09h05.18.746,00_bat_bachelor,2022.2.4,59.913289002238386,
,,,,,,,,,,,,1,0,1,0,57,0,57,0,,,,,,,57,,,0.2,1541.3816737672896,X,l,go,l,1,0.31174105961690657,,,,,,,,,,,,,,,,,,63,001,19,w,Psychologie,2023-01-25_09h05.18.746,00_bat_bachelor,2022.2.4,59.913289002238386,
,,,,,,,,,,,,1,0,1,0,58,0,58,0,,,,,,,58,,,0.2,1541.9986618162366,Y,d,go,d,1,0.38355837619747035,,,,,,,,,,,,,,,,,,63,001,19,w,Psychologie,2023-01-25_09h05.18.746,00_bat_bachelor,2022.2.4,59.913289002238386,
,,,,,,,,,,,,1,0,1,0,59,0,59,0,,,,,,,59,,,0.2,1542.6826477808354,X,l,go,l,1,0.30764796273433603,,,,,,,,,,,,,,,,,,63,001,19,w,Psychologie,2023-01-25_09h05.18.746,00_bat_bachelor,2022.2.4,59.913289002238386,
,,,,,,,,,,,,1,0,1,0,60,0,60,0,,,,,,,60,,,0.2,1543.299448677979,Y,d,go,d,1,0.393966148927575,,,,,,,,,,,,,,,,,,63,001,19,w,Psychologie,2023-01-25_09h05.18.746,00_bat_bachelor,2022.2.4,59.913289002238386,
,,,,,,,,,,,,1,0,1,0,61,0,61,0,,,,,,,61,,,0.2,1544.0004402430786,X,l,go,l,1,0.44640598274418153,,,,,,,,,,,,,,,,,,63,001,19,w,Psychologie,2023-01-25_09h05.18.746,00_bat_bachelor,2022.2.4,59.913289002238386,
,,,,,,,,,,,,1,0,1,0,62,0,62,0,,,,,,,62,,,0.2,1544.7509252134769,Y,d,go,d,1,0.5913007390045095,,,,,,,,,,,,,,,,,,63,001,19,w,Psychologie,2023-01-25_09h05.18.746,00_bat_bachelor,2022.2.4,59.913289002238386,
,,,,,,,,,,,,1,0,1,0,63,0,63,0,,,,,,,63,,,0.2,1545.6514462808846,X,l,go,l,1,0.5378024793462828,,,,,,,,,,,,,,,,,,63,001,19,w,Psychologie,2023-01-25_09h05.18.746,00_bat_bachelor,2022.2.4,59.913289002238386,
,,,,,,,,,,,,1,0,1,0,64,0,64,0,,,,,,,64,,,0.2,1546.5020041241369,Y,d,go,d,1,0.3757983648974914,,,,,,,,,,,,,,,,,,63,001,19,w,Psychologie,2023-01-25_09h05.18.746,00_bat_bachelor,2022.2.4,59.913289002238386,
,,,,,,,,,,,,1,0,1,0,65,0,65,0,,,,,,,65,,,0.2,1547.1859789371956,X,l,go,l,1,0.4922780494962353,,,,,,,,,,,,,,,,,,63,001,19,w,Psychologie,2023-01-25_09h05.18.746,00_bat_bachelor,2022.2.4,59.913289002238386,
,,,,,,,,,,,,1,0,1,0,66,0,66,0,,,,,,,66,,,0.2,1547.9863204649591,Y,d,go,d,1,0.4267463178257458,,,,,,,,,,,,,,,,,,63,001,19,w,Psychologie,2023-01-25_09h05.18.746,00_bat_bachelor,2022.2.4,59.913289002238386,
,,,,,,,,,,,,1,0,1,0,67,0,67,0,,,,,,,67,,,0.2,1548.7203336538223,X,l,go,l,1,0.4132199950981885,,,,,,,,,,,,,,,,,,63,001,19,w,Psychologie,2023-01-25_09h05.18.746,00_bat_bachelor,2022.2.4,59.913289002238386,
,,,,,,,,,,,,1,0,1,0,68,0,68,0,,,,,,,68,,,0.2,1549.4377077881945,Y,d,go,d,1,0.3835923156584613,,,,,,,,,,,,,,,,,,63,001,19,w,Psychologie,2023-01-25_09h05.18.746,00_bat_bachelor,2022.2.4,59.913289002238386,
,,,,,,,,,,,,1,0,1,0,69,0,69,0,,,,,,,69,,,0.2,1550.1212801764195,X,l,go,l,1,0.4207191575260367,,,,,,,,,,,,,,,,,,63,001,19,w,Psychologie,2023-01-25_09h05.18.746,00_bat_bachelor,2022.2.4,59.913289002238386,
,,,,,,,,,,,,1,0,1,0,70,0,70,0,,,,,,,70,,,0.2,1550.8552943349641,Y,d,go,d,1,0.31027633021585643,,,,,,,,,,,,,,,,,,63,001,19,w,Psychologie,2023-01-25_09h05.18.746,00_bat_bachelor,2022.2.4,59.913289002238386,
,,,,,,,,,,,,1,0,1,0,71,0,71,0,,,,,,,71,,,0.2,1551.4726576571993,X,l,go,l,1,0.2536401266406756,,,,,,,,,,,,,,,,,,63,001,19,w,Psychologie,2023-01-25_09h05.18.746,00_bat_bachelor,2022.2.4,59.913289002238386,
,,,,,,,,,,,,1,0,1,0,72,0,72,0,,,,,,,72,,,0.2,1552.0397115729284,Y,d,go,d,1,0.37444563567987643,,,,,,,,,,,,,,,,,,63,001,19,w,Psychologie,2023-01-25_09h05.18.746,00_bat_bachelor,2022.2.4,59.913289002238386,
,,,,,,,,,,,,1,0,1,0,73,0,73,0,,,,,,,73,,,0.2,1552.7235021432862,Y,None,nogo,l,0,0.37880976323504,,,,,,,,,,,,,,,,,,63,001,19,w,Psychologie,2023-01-25_09h05.18.746,00_bat_bachelor,2022.2.4,59.913289002238386,
,,,,,,,,,,,,1,0,1,0,74,0,74,0,,,,,,,74,,,0.2,1553.407399865304,X,l,go,None,0,,,,,,,,,,,,,,,,,,,63,001,19,w,Psychologie,2023-01-25_09h05.18.746,00_bat_bachelor,2022.2.4,59.913289002238386,
,,,,,,,,,,,,1,0,1,0,75,0,75,0,,,,,,,75,,,0.2,1554.4082444726082,Y,d,go,d,1,0.3892073541355785,,,,,,,,,,,,,,,,,,63,001,19,w,Psychologie,2023-01-25_09h05.18.746,00_bat_bachelor,2022.2.4,59.913289002238386,
,,,,,,,,,,,,1,0,1,0,76,0,76,0,,,,,,,76,,,0.2,1555.1087225824012,X,l,go,l,1,0.31356409256113693,,,,,,,,,,,,,,,,,,63,001,19,w,Psychologie,2023-01-25_09h05.18.746,00_bat_bachelor,2022.2.4,59.913289002238386,
,,,,,,,,,,,,1,0,1,0,77,0,77,0,,,,,,,77,,,0.2,1555.7259671165666,Y,d,go,d,1,0.3201740415825043,,,,,,,,,,,,,,,,,,63,001,19,w,Psychologie,2023-01-25_09h05.18.746,00_bat_bachelor,2022.2.4,59.913289002238386,
,,,,,,,,,,,,1,0,1,0,78,0,78,0,,,,,,,78,,,0.2,1556.3596858565288,Y,None,nogo,None,1,,,,,,,,,,,,,,,,,,,63,001,19,w,Psychologie,2023-01-25_09h05.18.746,00_bat_bachelor,2022.2.4,59.913289002238386,
,,,,,,,,,,,,1,0,1,0,79,0,79,0,,,,,,,79,,,0.2,1557.360538221401,X,l,go,l,1,0.4608554583392106,,,,,,,,,,,,,,,,,,63,001,19,w,Psychologie,2023-01-25_09h05.18.746,00_bat_bachelor,2022.2.4,59.913289002238386,
,,,,,,,,,,,,1,0,1,0,80,0,80,0,,,,,,,80,,,0.2,1558.1276670947846,Y,d,go,d,1,0.35070063144667074,,,,,,,,,,,,,,,,,,63,001,19,w,Psychologie,2023-01-25_09h05.18.746,00_bat_bachelor,2022.2.4,59.913289002238386,
,,,,,,,,,,,,1,0,1,0,81,0,81,0,,,,,,,81,,,0.2,1558.7945839436434,X,l,go,l,1,0.3064406882622279,,,,,,,,,,,,,,,,,,63,001,19,w,Psychologie,2023-01-25_09h05.18.746,00_bat_bachelor,2022.2.4,59.913289002238386,
,,,,,,,,,,,,1,0,1,0,82,0,82,0,,,,,,,82,,,0.2,1559.4117111443193,X,None,nogo,None,1,,,,,,,,,1560.2126509759692,,,,,,,,,,63,001,19,w,Psychologie,2023-01-25_09h05.18.746,00_bat_bachelor,2022.2.4,59.913289002238386,
,,,,,,,,,,,,1,0,1,0,83,0,83,0,,,,,,,83,,,0.2,1560.4128296913987,X,None,nogo,l,0,0.3529498468269594,,,,,,,,,,,,,,,,,,63,001,19,w,Psychologie,2023-01-25_09h05.18.746,00_bat_bachelor,2022.2.4,59.913289002238386,
,,,,,,,,,,,,1,0,1,0,84,0,84,0,,,,,,,84,,,0.2,1561.0799496920663,Y,d,go,d,1,0.31023705744883046,,,,,,,,,,,,,,,,,,63,001,19,w,Psychologie,2023-01-25_09h05.18.746,00_bat_bachelor,2022.2.4,59.913289002238386,
,,,,,,,,,,,,1,0,1,0,85,0,85,0,,,,,,,85,,,0.2,1561.6967864680628,X,l,go,l,1,0.3335180610010866,,,,,,,,,,,,,,,,,,63,001,19,w,Psychologie,2023-01-25_09h05.18.746,00_bat_bachelor,2022.2.4,59.913289002238386,
,,,,,,,,,,,,1,0,1,0,86,0,86,0,,,,,,,86,,,0.2,1562.3306821779697,X,None,nogo,None,1,,,,,,,,,,,,,,,,,,,63,001,19,w,Psychologie,2023-01-25_09h05.18.746,00_bat_bachelor,2022.2.4,59.913289002238386,
,,,,,,,,,,,,1,0,1,0,87,0,87,0,,,,,,,87,,,0.2,1563.331421572977,Y,d,go,d,1,0.33033793515642174,,,,,,,,,,,,,,,,,,63,001,19,w,Psychologie,2023-01-25_09h05.18.746,00_bat_bachelor,2022.2.4,59.913289002238386,
,,,,,,,,,,,,1,0,1,0,88,0,88,0,,,,,,,88,,,0.2,1563.9652862525545,X,l,go,l,1,0.2728711848903913,,,,,,,,,,,,,,,,,,63,001,19,w,Psychologie,2023-01-25_09h05.18.746,00_bat_bachelor,2022.2.4,59.913289002238386,
,,,,,,,,,,,,1,0,1,0,89,0,89,0,,,,,,,89,,,0.2,1564.5493583748175,Y,d,go,d,1,0.3928068745008204,,,,,,,,,,,,,,,,,,63,001,19,w,Psychologie,2023-01-25_09h05.18.746,00_bat_bachelor,2022.2.4,59.913289002238386,
,,,,,,,,,,,,1,0,1,0,90,0,90,0,,,,,,,90,,,0.2,1565.2497875148547,Y,None,nogo,None,1,,,,,,,,,,,,,,,,,,,63,001,19,w,Psychologie,2023-01-25_09h05.18.746,00_bat_bachelor,2022.2.4,59.913289002238386,
,,,,,,,,,,,,1,0,1,0,91,0,91,0,,,,,,,91,,,0.2,1566.2502966065076,X,l,go,l,1,0.25970898394007236,,,,,,,,,,,,,,,,,,63,001,19,w,Psychologie,2023-01-25_09h05.18.746,00_bat_bachelor,2022.2.4,59.913289002238386,
,,,,,,,,,,,,1,0,1,0,92,0,92,0,,,,,,,92,,,0.2,1566.817387370742,Y,d,go,d,1,0.34836656745756045,,,,,,,,,,,,,,,,,,63,001,19,w,Psychologie,2023-01-25_09h05.18.746,00_bat_bachelor,2022.2.4,59.913289002238386,
,,,,,,,,,,,,1,0,1,0,93,0,93,0,,,,,,,93,,,0.2,1567.4682809235528,Y,None,nogo,l,0,0.32151416476699524,,,,,,,,,,,,,,,,,,63,001,19,w,Psychologie,2023-01-25_09h05.18.746,00_bat_bachelor,2022.2.4,59.913289002238386,
,,,,,,,,,,,,1,0,1,0,94,0,94,0,,,,,,,94,,,0.2,1568.1016563902958,X,l,go,None,0,,,,,,,,,1568.9025739188946,,,,,,,,,,63,001,19,w,Psychologie,2023-01-25_09h05.18.746,00_bat_bachelor,2022.2.4,59.913289002238386,
,,,,,,,,,,,,1,0,1,0,95,0,95,0,,,,,,,95,,,0.2,1569.102831664728,Y,d,go,d,1,0.5595120866782963,,,,,,,,,,,,,,,,,,63,001,19,w,Psychologie,2023-01-25_09h05.18.746,00_bat_bachelor,2022.2.4,59.913289002238386,
,,,,,,,,,,,,1,0,1,0,96,0,96,0,,,,,,,96,,,0.2,1569.9699500169081,Y,None,nogo,l,0,0.3159078535682056,,,,,,,,,,,,,,,,,,63,001,19,w,Psychologie,2023-01-25_09h05.18.746,00_bat_bachelor,2022.2.4,59.913289002238386,
,,,,,,,,,,,,1,0,1,0,97,0,97,0,,,,,,,97,,,0.2,1570.5873094603303,Y,None,nogo,None,1,,,,,,,,,,,,,,,,,,,63,001,19,w,Psychologie,2023-01-25_09h05.18.746,00_bat_bachelor,2022.2.4,59.913289002238386,
,,,,,,,,,,,,1,0,1,0,98,0,98,0,,,,,,,98,,,0.2,1571.5880566129345,X,l,go,l,1,0.3294424186751712,,,,,,,,,,,,,,,,,,63,001,19,w,Psychologie,2023-01-25_09h05.18.746,00_bat_bachelor,2022.2.4,59.913289002238386,
,,,,,,,,,,,,1,0,1,0,99,0,99,0,,,,,,,99,,,0.2,1572.2218374135846,Y,d,go,d,1,0.30400868473225273,,,,,,,,,,,,,,,,,,63,001,19,w,Psychologie,2023-01-25_09h05.18.746,00_bat_bachelor,2022.2.4,59.913289002238386,
,,,,,,,,,,,,1,0,1,0,100,0,100,0,,,,,,,100,,,0.2,1572.8389733415388,Y,None,nogo,l,0,0.2634655954607297,,,,,,,,,,,,,,,,,,63,001,19,w,Psychologie,2023-01-25_09h05.18.746,00_bat_bachelor,2022.2.4,59.913289002238386,
,,,,,,,,,,,,1,0,1,0,101,0,101,0,,,,,,,101,,,0.2,1573.4060922270583,X,l,go,None,0,,,,,,,,,1574.2066853915458,,,,,,,,,,63,001,19,w,Psychologie,2023-01-25_09h05.18.746,00_bat_bachelor,2022.2.4,59.913289002238386,
,,,,,,,,,,,,1,0,1,0,102,0,102,0,,,,,,,102,,,0.2,1574.4068330766167,Y,d,go,d,1,0.32758884024224244,,,,,,,,,,,,,,,,,,63,001,19,w,Psychologie,2023-01-25_09h05.18.746,00_bat_bachelor,2022.2.4,59.913289002238386,
,,,,,,,,,,,,1,0,1,0,103,0,103,0,,,,,,,103,,,0.2,1575.0406555742957,X,l,go,l,1,0.41334023771923967,,,,,,,,,,,,,,,,,,63,001,19,w,Psychologie,2023-01-25_09h05.18.746,00_bat_bachelor,2022.2.4,59.913289002238386,
,,,,,,,,,,,,1,0,1,0,104,0,104,0,,,,,,,104,,,0.2,1575.7579555267293,Y,d,go,d,1,0.46369182609487325,,,,,,,,,,,,,,,,,,63,001,19,w,Psychologie,2023-01-25_09h05.18.746,00_bat_bachelor,2022.2.4,59.913289002238386,
,,,,,,,,,,,,1,0,1,0,105,0,105,0,,,,,,,105,,,0.2,1576.5248332482588,X,l,go,l,1,0.30507874689646997,,,,,,,,,,,,,,,,,,63,001,19,w,Psychologie,2023-01-25_09h05.18.746,00_bat_bachelor,2022.2.4,59.913289002238386,
,,,,,,,,,,,,1,0,1,0,106,0,106,0,,,,,,,106,,,0.2,1577.141912933701,X,None,nogo,d,0,0.24743842062889598,,,,,,,,,,,,,,,,,,63,001,19,w,Psychologie,2023-01-25_09h05.18.746,00_bat_bachelor,2022.2.4,59.913289002238386,
,,,,,,,,,,,,1,0,1,0,107,0,107,0,,,,,,,107,,,0.2,1577.6927452500677,Y,d,go,None,0,,,,,,,,,,,,,,,,,,,63,001,19,w,Psychologie,2023-01-25_09h05.18.746,00_bat_bachelor,2022.2.4,59.913289002238386,
,,,,,,,,,,,,1,0,1,0,108,0,108,0,,,,,,,108,,,0.2,1578.6935084026773,X,l,go,l,1,0.2809696209151298,,,,,,,,,,,,,,,,,,63,001,19,w,Psychologie,2023-01-25_09h05.18.746,00_bat_bachelor,2022.2.4,59.913289002238386,
,,,,,,,,,,,,1,0,1,0,109,0,109,0,,,,,,,109,,,0.2,1579.2769099785364,X,None,nogo,l,0,0.48011027422035113,,,,,,,,,,,,,,,,,,63,001,19,w,Psychologie,2023-01-25_09h05.18.746,00_bat_bachelor,2022.2.4,59.913289002238386,
,,,,,,,,,,,,1,0,1,0,110,0,110,0,,,,,,,110,,,0.2,1580.0612068769115,Y,d,go,d,1,0.400822886149399,,,,,,,,,,,,,,,,,,63,001,19,w,Psychologie,2023-01-25_09h05.18.746,00_bat_bachelor,2022.2.4,59.913289002238386,
,,,,,,,,,,,,1,0,1,0,111,0,111,0,,,,,,,111,,,0.2,1580.7784011322365,X,l,go,l,1,0.2756566434982233,,,,,,,,,,,,,,,,,,63,001,19,w,Psychologie,2023-01-25_09h05.18.746,00_bat_bachelor,2022.2.4,59.913289002238386,
,,,,,,,,,,,,1,0,1,0,112,0,112,0,,,,,,,112,,,0.2,1581.3619733749947,X,None,nogo,l,0,0.6352857726742513,,,,,,,,,,,,,,,,,,63,001,19,w,Psychologie,2023-01-25_09h05.18.746,00_bat_bachelor,2022.2.4,59.913289002238386,
,,,,,,,,,,,,1,0,1,0,113,0,113,0,,,,,,,113,,,0.2,1582.3128765762958,Y,d,go,d,1,0.5966345649212599,,,,,,,,,,,,,,,,,,63,001,19,w,Psychologie,2023-01-25_09h05.18.746,00_bat_bachelor,2022.2.4,59.913289002238386,
,,,,,,,,,,,,1,0,1,0,114,0,114,0,,,,,,,114,,,0.2,1583.2131852797756,X,l,go,l,1,0.28830635888152756,,,,,,,,,,,,,,,,,,63,001,19,w,Psychologie,2023-01-25_09h05.18.746,00_bat_bachelor,2022.2.4,59.913289002238386,
,,,,,,,,,,,,1,0,1,0,115,0,115,0,,,,,,,115,,,0.2,1583.8137238502677,Y,d,go,d,1,0.3434914088284131,,,,,,,,,,,,,,,,,,63,001,19,w,Psychologie,2023-01-25_09h05.18.746,00_bat_bachelor,2022.2.4,59.913289002238386,
,,,,,,,,,,,,1,0,1,0,116,0,116,0,,,,,,,116,,,0.2,1584.4643429784337,Y,None,nogo,None,1,,,,,,,,,,,,,,,,,,,63,001,19,w,Psychologie,2023-01-25_09h05.18.746,00_bat_bachelor,2022.2.4,59.913289002238386,
,,,,,,,,,,,,1,0,1,0,117,0,117,0,,,,,,,117,,,0.2,1585.4652409191476,X,l,go,l,1,0.22823111998150125,,,,,,,,,,,,,,,,,,63,001,19,w,Psychologie,2023-01-25_09h05.18.746,00_bat_bachelor,2022.2.4,59.913289002238386,
,,,,,,,,,,,,1,0,1,0,118,0,118,0,,,,,,,118,,,0.2,1585.9990603622864,Y,d,go,d,1,0.2393870149680879,,,,,,,,,,,,,,,,,,63,001,19,w,Psychologie,2023-01-25_09h05.18.746,00_bat_bachelor,2022.2.4,59.913289002238386,
,,,,,,,,,,,,1,0,1,0,119,0,119,0,,,,,,,119,,,0.2,1586.5494524355745,X,l,go,l,1,0.2645007484825328,,,,,,,,,,,,,,,,,,63,001,19,w,Psychologie,2023-01-25_09h05.18.746,00_bat_bachelor,2022.2.4,59.913289002238386,
,,,,,,,,,,,,1,0,1,0,120,0,120,0,,,,,,,120,,,0.2,1587.1164927755017,Y,d,go,d,1,0.2576503142772708,,,,,,,,,,,,,,,,,,63,001,19,w,Psychologie,2023-01-25_09h05.18.746,00_bat_bachelor,2022.2.4,59.913289002238386,
,,,,,,,,,,,,1,0,1,0,121,0,121,0,,,,,,,121,,,0.2,1587.6834754183947,X,l,go,l,1,0.07439041137695312,,,,,,,,,,,,,,,,,,63,001,19,w,Psychologie,2023-01-25_09h05.18.746,00_bat_bachelor,2022.2.4,59.913289002238386,
,,,,,,,,,,,,1,0,1,0,122,0,122,0,,,,,,,122,,,0.2,1588.0673106433533,Y,d,go,d,1,0.21841971174580976,,,,,,,,,,,,,,,,,,63,001,19,w,Psychologie,2023-01-25_09h05.18.746,00_bat_bachelor,2022.2.4,59.913289002238386,
,,,,,,,,,,,,1,0,1,0,123,0,123,0,,,,,,,123,,,0.2,1588.6009957832575,Y,None,nogo,l,0,0.22843427179032005,,,,,,,,,,,,,,,,,,63,001,19,w,Psychologie,2023-01-25_09h05.18.746,00_bat_bachelor,2022.2.4,59.913289002238386,
,,,,,,,,,,,,1,0,1,0,124,0,124,0,,,,,,,124,,,0.2,1589.1347391050658,X,l,go,None,0,,,,,,,,,,,,,,,,,,,63,001,19,w,Psychologie,2023-01-25_09h05.18.746,00_bat_bachelor,2022.2.4,59.913289002238386,
,,,,,,,,,,,,1,0,1,0,125,0,125,0,,,,,,,125,,,0.2,1590.135512439534,Y,d,go,d,1,0.19846622820477933,,,,,,,,,,,,,,,,,,63,001,19,w,Psychologie,2023-01-25_09h05.18.746,00_bat_bachelor,2022.2.4,59.913289002238386,
,,,,,,,,,,,,1,0,1,0,126,0,126,0,,,,,,,126,,,0.2,1590.6358574097394,X,l,go,None,0,,,,,,,,,,,,,,,,,,,63,001,19,w,Psychologie,2023-01-25_09h05.18.746,00_bat_bachelor,2022.2.4,59.913289002238386,
,,,,,,,,,,,,1,0,1,0,127,0,127,0,,,,,,,127,,,0.2,1591.636669532134,X,None,nogo,l,0,0.3935297846328467,,,,,,,,,,,,,,,,,,63,001,19,w,Psychologie,2023-01-25_09h05.18.746,00_bat_bachelor,2022.2.4,59.913289002238386,
,,,,,,,,,,,,1,0,1,0,128,0,128,0,,,,,,,128,,,0.2,1592.336850914202,X,None,nogo,l,0,0.34913359885104,,,,,,,,,,,,,,,,,,63,001,19,w,Psychologie,2023-01-25_09h05.18.746,00_bat_bachelor,2022.2.4,59.913289002238386,
,,,,,,,,,,,,1,0,1,0,129,0,129,0,,,,,,,129,,,0.2,1592.9877585276554,Y,d,go,d,1,0.3541736061742995,,,,,,,,,,,,,,,,,,63,001,19,w,Psychologie,2023-01-25_09h05.18.746,00_bat_bachelor,2022.2.4,59.913289002238386,
,,,,,,,,,,,,1,0,1,0,130,0,130,0,,,,,,,130,,,0.2,1593.6549522253918,X,l,go,l,1,0.27904816358932294,,,,,,,,,,,,,,,,,,63,001,19,w,Psychologie,2023-01-25_09h05.18.746,00_bat_bachelor,2022.2.4,59.913289002238386,
,,,,,,,,,,,,1,0,1,0,131,0,131,0,,,,,,,131,,,0.2,1594.2386224076909,Y,d,go,d,1,0.31918204014073126,,,,,,,,,,,,,,,,,,63,001,19,w,Psychologie,2023-01-25_09h05.18.746,00_bat_bachelor,2022.2.4,59.913289002238386,
,,,,,,,,,,,,1,0,1,0,132,0,132,0,,,,,,,132,,,0.2,1594.8724982387794,X,l,go,l,1,0.3900635977915954,,,,,,,,,,,,,,,,,,63,001,19,w,Psychologie,2023-01-25_09h05.18.746,00_bat_bachelor,2022.2.4,59.913289002238386,
,,,,,,,,,,,,1,0,1,0,133,0,133,0,,,,,,,133,,,0.2,1595.5729991364933,X,None,nogo,None,1,,,,,,,,,,,,,,,,,,,63,001,19,w,Psychologie,2023-01-25_09h05.18.746,00_bat_bachelor,2022.2.4,59.913289002238386,
,,,,,,,,,,,,1,0,1,0,134,0,134,0,,,,,,,134,,,0.2,1596.5738369558821,Y,d,go,d,1,0.3519486332661472,,,,,,,,,,,,,,,,,,63,001,19,w,Psychologie,2023-01-25_09h05.18.746,00_bat_bachelor,2022.2.4,59.913289002238386,
,,,,,,,,,,,,1,0,1,0,135,0,135,0,,,,,,,135,,,0.2,1597.2409167140722,X,l,go,l,1,0.26100741006666794,,,,,,,,,,,,,,,,,,63,001,19,w,Psychologie,2023-01-25_09h05.18.746,00_bat_bachelor,2022.2.4,59.913289002238386,
,,,,,,,,,,,,1,0,1,0,136,0,136,0,,,,,,,136,,,0.2,1597.8077243263833,Y,d,go,d,1,0.3337396370479837,,,,,,,,,,,,,,,,,,63,001,19,w,Psychologie,2023-01-25_09h05.18.746,00_bat_bachelor,2022.2.4,59.913289002238386,
,,,,,,,,,,,,1,0,1,0,137,0,137,0,,,,,,,137,,,0.2,1598.441714581888,X,l,go,l,1,0.37180854092002846,,,,,,,,,,,,,,,,,,63,001,19,w,Psychologie,2023-01-25_09h05.18.746,00_bat_bachelor,2022.2.4,59.913289002238386,
,,,,,,,,,,,,1,0,1,0,138,0,138,0,,,,,,,138,,,0.2,1599.1257184858841,Y,d,go,d,1,0.2643475361110177,,,,,,,,,,,,,,,,,,63,001,19,w,Psychologie,2023-01-25_09h05.18.746,00_bat_bachelor,2022.2.4,59.913289002238386,
,,,,,,,,,,,,1,0,1,0,139,0,139,0,,,,,,,139,,,0.2,1599.6926531287027,X,l,go,l,1,0.41786339579266496,,,,,,,,,,,,,,,,,,63,001,19,w,Psychologie,2023-01-25_09h05.18.746,00_bat_bachelor,2022.2.4,59.913289002238386,
,,,,,,,,,,,,1,0,1,0,140,0,140,0,,,,,,,140,,,0.2,1600.4263569838076,X,None,nogo,None,1,,,,,,,,,,,,,,,,,,,63,001,19,w,Psychologie,2023-01-25_09h05.18.746,00_bat_bachelor,2022.2.4,59.913289002238386,
,,,,,,,,,,,,1,0,1,0,141,0,141,0,,,,,,,141,,,0.2,1601.427507530927,Y,d,go,d,1,0.3302870259794872,,,,,,,,,,,,,,,,,,63,001,19,w,Psychologie,2023-01-25_09h05.18.746,00_bat_bachelor,2022.2.4,59.913289002238386,
,,,,,,,,,,,,1,0,1,0,142,0,142,0,,,,,,,142,,,0.2,1602.0612665133667,X,l,go,l,1,0.30464480686350726,,,,,,,,,,,,,,,,,,63,001,19,w,Psychologie,2023-01-25_09h05.18.746,00_bat_bachelor,2022.2.4,59.913289002238386,
,,,,,,,,,,,,1,0,1,0,143,0,143,0,,,,,,,143,,,0.2,1602.6784872899298,X,None,nogo,d,0,0.34398643983877264,,,,,,,,,,,,,,,,,,63,001,19,w,Psychologie,2023-01-25_09h05.18.746,00_bat_bachelor,2022.2.4,59.913289002238386,
,,,,,,,,,,,,1,0,1,0,144,0,144,0,,,,,,,144,,,0.2,1603.3285924779484,X,None,nogo,None,1,,,,,,,,,,,,,,,,,,,63,001,19,w,Psychologie,2023-01-25_09h05.18.746,00_bat_bachelor,2022.2.4,59.913289002238386,
,,,,,,,,,,,,1,0,1,0,145,0,145,0,,,,,,,145,,,0.2,1604.3295132065832,Y,d,go,d,1,0.30871560066589154,,,,,,,,,,,,,,,,,,63,001,19,w,Psychologie,2023-01-25_09h05.18.746,00_bat_bachelor,2022.2.4,59.913289002238386,
,,,,,,,,,,,,1,0,1,0,146,0,146,0,,,,,,,146,,,0.2,1604.9466976194526,X,l,go,l,1,0.4430760385293979,,,,,,,,,,,,,,,,,,63,001,19,w,Psychologie,2023-01-25_09h05.18.746,00_bat_bachelor,2022.2.4,59.913289002238386,
,,,,,,,,,,,,1,0,1,0,147,0,147,0,,,,,,,147,,,0.2,1605.6971054988098,Y,d,go,d,1,0.413161813194165,,,,,,,,,,,,,,,,,,63,001,19,w,Psychologie,2023-01-25_09h05.18.746,00_bat_bachelor,2022.2.4,59.913289002238386,
,,,,,,,,,,,,1,0,1,0,148,0,148,0,,,,,,,148,,,0.2,1606.414612966706,X,l,go,l,1,0.5918088609469123,,,,,,,,,,,,,,,,,,63,001,19,w,Psychologie,2023-01-25_09h05.18.746,00_bat_bachelor,2022.2.4,59.913289002238386,
,,,,,,,,,,,,1,0,1,0,149,0,149,0,,,,,,,149,,,0.2,1607.3154263982142,X,None,nogo,l,0,0.5069030404847581,,,,,,,,,,,,,,,,,,63,001,19,w,Psychologie,2023-01-25_09h05.18.746,00_bat_bachelor,2022.2.4,59.913289002238386,
,,,,,,,,,,,,1,0,1,0,150,0,150,0,,,,,,,150,,,0.2,1608.132192192279,Y,d,go,d,1,0.39287572307512164,,,,,,,,,,,,,,,,,,63,001,19,w,Psychologie,2023-01-25_09h05.18.746,00_bat_bachelor,2022.2.4,59.913289002238386,
,,,,,,,,,,,,1,0,1,0,151,0,151,0,,,,,,,151,,,0.2,1608.833160484588,X,l,go,l,1,0.3646759244729765,,,,,,,,,,,,,,,,,,63,001,19,w,Psychologie,2023-01-25_09h05.18.746,00_bat_bachelor,2022.2.4,59.913289002238386,
,,,,,,,,,,,,1,0,1,0,152,0,152,0,,,,,,,152,,,0.2,1609.499979393906,Y,d,go,d,1,0.43360887325252406,,,,,,,,,,,,,,,,,,63,001,19,w,Psychologie,2023-01-25_09h05.18.746,00_bat_bachelor,2022.2.4,59.913289002238386,
,,,,,,,,,,,,1,0,1,0,153,0,153,0,,,,,,,153,,,0.2,1610.2342573104252,X,l,go,l,1,0.3241725928382948,,,,,,,,,,,,,,,,,,63,001,19,w,Psychologie,2023-01-25_09h05.18.746,00_bat_bachelor,2022.2.4,59.913289002238386,
,,,,,,,,,,,,1,0,1,0,154,0,154,0,,,,,,,154,,,0.2,1610.8679081714945,Y,d,go,d,1,0.5057447357394267,,,,,,,,,,,,,,,,,,63,001,19,w,Psychologie,2023-01-25_09h05.18.746,00_bat_bachelor,2022.2.4,59.913289002238386,
,,,,,,,,,,,,1,0,1,0,155,0,155,0,,,,,,,155,,,0.2,1611.6853668150725,X,l,go,l,1,0.3601571300532669,,,,,,,,,,,,,,,,,,63,001,19,w,Psychologie,2023-01-25_09h05.18.746,00_bat_bachelor,2022.2.4,59.913289002238386,
,,,,,,,,,,,,1,0,1,0,156,0,156,0,,,,,,,156,,,0.2,1612.3525013612234,Y,d,go,d,1,0.44497470796341076,,,,,,,,,,,,,,,,,,63,001,19,w,Psychologie,2023-01-25_09h05.18.746,00_bat_bachelor,2022.2.4,59.913289002238386,
,,,,,,,,,,,,1,0,1,0,157,0,157,0,,,,,,,157,,,0.2,1613.1027516646136,Y,None,nogo,None,1,,,,,,,,,,,,,,,,,,,63,001,19,w,Psychologie,2023-01-25_09h05.18.746,00_bat_bachelor,2022.2.4,59.913289002238386,
,,,,,,,,,,,,1,0,1,0,158,0,158,0,,,,,,,158,,,0.2,1614.103605484037,Y,None,nogo,d,0,0.4702227446832694,,,,,,,,,,,,,,,,,,63,001,19,w,Psychologie,2023-01-25_09h05.18.746,00_bat_bachelor,2022.2.4,59.913289002238386,
,,,,,,,,,,,,1,0,1,0,159,0,159,0,,,,,,,159,,,0.2,1614.8877603215806,X,l,go,l,1,0.5336710794072133,,,,,,,,,,,,,,,,,,63,001,19,w,Psychologie,2023-01-25_09h05.18.746,00_bat_bachelor,2022.2.4,59.913289002238386,
,,,,,,,,,,,,1,0,1,0,160,0,160,0,,,,,,,160,,,0.2,1615.7217571710353,Y,d,go,d,1,0.3564902156358585,,,,,,,,,,,,,,,,,,63,001,19,w,Psychologie,2023-01-25_09h05.18.746,00_bat_bachelor,2022.2.4,59.913289002238386,
,,,,,,,,,,,,1,0,1,0,161,0,161,0,,,,,,,161,,,0.2,1616.3887355957413,Y,None,nogo,d,0,0.5217142135370523,,,,,,,,,,,,,,,,,,63,001,19,w,Psychologie,2023-01-25_09h05.18.746,00_bat_bachelor,2022.2.4,59.913289002238386,
,,,,,,,,,,,,1,0,1,0,162,0,162,0,,,,,,,162,,,0.2,1617.222884687828,X,l,go,l,1,0.4230270396801643,,,,,,,,,,,,,,,,,,63,001,19,w,Psychologie,2023-01-25_09h05.18.746,00_bat_bachelor,2022.2.4,59.913289002238386,
,,,,,,,,,,,,1,0,1,0,163,0,163,0,,,,,,,163,,,0.2,1617.956787331088,Y,d,go,d,1,0.37686551798833534,,,,,,,,,,,,,,,,,,63,001,19,w,Psychologie,2023-01-25_09h05.18.746,00_bat_bachelor,2022.2.4,59.913289002238386,
,,,,,,,,,,,,1,0,1,0,164,0,164,0,,,,,,,164,,,0.2,1618.64052844682,Y,None,nogo,None,1,,,,,,,,,,,,,,,,,,,63,001,19,w,Psychologie,2023-01-25_09h05.18.746,00_bat_bachelor,2022.2.4,59.913289002238386,
,,,,,,,,,,,,1,0,1,0,165,0,165,0,,,,,,,165,,,0.2,1619.6410574172914,X,l,go,l,1,0.2768997968232725,,,,,,,,,,,,,,,,,,63,001,19,w,Psychologie,2023-01-25_09h05.18.746,00_bat_bachelor,2022.2.4,59.913289002238386,
,,,,,,,,,,,,1,0,1,0,166,0,166,0,,,,,,,166,,,0.2,1620.224993296957,Y,d,go,d,1,0.4611056405119598,,,,,,,,,,,,,,,,,,63,001,19,w,Psychologie,2023-01-25_09h05.18.746,00_bat_bachelor,2022.2.4,59.913289002238386,
,,,,,,,,,,,,1,0,1,0,167,0,167,0,,,,,,,167,,,0.2,1620.992078533949,X,l,go,l,1,0.3660480476974044,,,,,,,,,,,,,,,,,,63,001,19,w,Psychologie,2023-01-25_09h05.18.746,00_bat_bachelor,2022.2.4,59.913289002238386,
,,,,,,,,,,,,1,0,1,0,168,0,168,0,,,,,,,168,,,0.2,1621.6596426564502,Y,d,go,d,1,0.4182134568982292,,,,,,,,,,,,,,,,,,63,001,19,w,Psychologie,2023-01-25_09h05.18.746,00_bat_bachelor,2022.2.4,59.913289002238386,
,,,,,,,,,,,,1,0,1,0,169,0,169,0,,,,,,,169,,,0.2,1622.393281056895,X,l,go,l,1,0.45216599115519784,,,,,,,,,,,,,,,,,,63,001,19,w,Psychologie,2023-01-25_09h05.18.746,00_bat_bachelor,2022.2.4,59.913289002238386,
,,,,,,,,,,,,1,0,1,0,170,0,170,0,,,,,,,170,,,0.2,1623.1609907796374,Y,d,go,d,1,0.4368951810756698,,,,,,,,,,,,,,,,,,63,001,19,w,Psychologie,2023-01-25_09h05.18.746,00_bat_bachelor,2022.2.4,59.913289002238386,
,,,,,,,,,,,,1,0,1,0,171,0,171,0,,,,,,,171,,,0.2,1623.9277148039546,X,l,go,l,1,0.4701296536368318,,,,,,,,,,,,,,,,,,63,001,19,w,Psychologie,2023-01-25_09h05.18.746,00_bat_bachelor,2022.2.4,59.913289002238386,
,,,,,,,,,,,,1,0,1,0,172,0,172,0,,,,,,,172,,,0.2,1624.7120029750513,Y,d,go,d,1,0.5178586927650031,,,,,,,,,,,,,,,,,,63,001,19,w,Psychologie,2023-01-25_09h05.18.746,00_bat_bachelor,2022.2.4,59.913289002238386,
,,,,,,,,,,,,1,0,1,0,173,0,173,0,,,,,,,173,,,0.2,1625.5459309759026,X,l,go,l,1,0.42018679311149754,,,,,,,,,,,,,,,,,,63,001,19,w,Psychologie,2023-01-25_09h05.18.746,00_bat_bachelor,2022.2.4,59.913289002238386,
,,,,,,,,,,,,1,0,1,0,174,0,174,0,,,,,,,174,,,0.2,1626.2797778614913,Y,d,go,d,1,0.45444041868904606,,,,,,,,,,,,,,,,,,63,001,19,w,Psychologie,2023-01-25_09h05.18.746,00_bat_bachelor,2022.2.4,59.913289002238386,
,,,,,,,,,,,,1,0,1,0,175,0,175,0,,,,,,,175,,,0.2,1627.0470361896441,Y,None,nogo,None,1,,,,,,,,,1627.8475299600395,,,,,,,,,,63,001,19,w,Psychologie,2023-01-25_09h05.18.746,00_bat_bachelor,2022.2.4,59.913289002238386,
,,,,,,,,,,,,1,0,1,0,176,0,176,0,,,,,,,176,,,0.2,1628.047751827049,X,l,go,l,1,0.4302527471445501,,,,,,,,,,,,,,,,,,63,001,19,w,Psychologie,2023-01-25_09h05.18.746,00_bat_bachelor,2022.2.4,59.913289002238386,
,,,,,,,,,,,,1,0,1,0,177,0,177,0,,,,,,,177,,,0.2,1628.781679197593,Y,d,go,d,1,0.2727897302247584,,,,,,,,,,,,,,,,,,63,001,19,w,Psychologie,2023-01-25_09h05.18.746,00_bat_bachelor,2022.2.4,59.913289002238386,
,,,,,,,,,,,,1,0,1,0,178,0,178,0,,,,,,,178,,,0.2,1629.365178712993,X,l,go,l,1,0.32878059954964556,,,,,,,,,,,,,,,,,,63,001,19,w,Psychologie,2023-01-25_09h05.18.746,00_bat_bachelor,2022.2.4,59.913289002238386,
,,,,,,,,,,,,1,0,1,0,179,0,179,0,,,,,,,179,,,0.2,1629.9990162409958,Y,d,go,d,1,0.41493442183127627,,,,,,,,,,,,,,,,,,63,001,19,w,Psychologie,2023-01-25_09h05.18.746,00_bat_bachelor,2022.2.4,59.913289002238386,
,,,,,,,,,,,,1,0,1,0,180,0,180,0,,,,,,,180,,,0.2,1630.7165692847047,X,l,go,l,1,0.3378026732825674,,,,,,,,,,,,,,,,,,63,001,19,w,Psychologie,2023-01-25_09h05.18.746,00_bat_bachelor,2022.2.4,59.913289002238386,
,,,,,,,,,,,,1,0,1,0,181,0,181,0,,,,,,,181,,,0.2,1631.3669479276869,Y,d,go,d,1,0.5834132123563904,,,,,,,,,,,,,,,,,,63,001,19,w,Psychologie,2023-01-25_09h05.18.746,00_bat_bachelor,2022.2.4,59.913289002238386,
,,,,,,,,,,,,1,0,1,0,182,0,182,0,,,,,,,182,,,0.2,1632.2510946682596,Y,None,nogo,None,1,,,,,,,,,,,,,,,,,,,63,001,19,w,Psychologie,2023-01-25_09h05.18.746,00_bat_bachelor,2022.2.4,59.913289002238386,
,,,,,,,,,,,,1,0,1,0,183,0,183,0,,,,,,,183,,,0.2,1633.251916487643,X,l,go,l,1,0.28229228951386176,,,,,,,,,,,,,,,,,,63,001,19,w,Psychologie,2023-01-25_09h05.18.746,00_bat_bachelor,2022.2.4,59.913289002238386,
,,,,,,,,,,,,1,0,1,0,184,0,184,0,,,,,,,184,,,0.2,1633.8352443664335,Y,d,go,d,1,0.306750506919343,,,,,,,,,,,,,,,,,,63,001,19,w,Psychologie,2023-01-25_09h05.18.746,00_bat_bachelor,2022.2.4,59.913289002238386,
,,,,,,,,,,,,1,0,1,0,185,0,185,0,,,,,,,185,,,0.2,1634.4524137489789,X,l,go,l,1,0.2808779844199307,,,,,,,,,,,,,,,,,,63,001,19,w,Psychologie,2023-01-25_09h05.18.746,00_bat_bachelor,2022.2.4,59.913289002238386,
,,,,,,,,,,,,1,0,1,0,186,0,186,0,,,,,,,186,,,0.2,1635.036410719622,Y,d,go,d,1,0.3224382873158902,,,,,,,,,,,,,,,,,,63,001,19,w,Psychologie,2023-01-25_09h05.18.746,00_bat_bachelor,2022.2.4,59.913289002238386,
,,,,,,,,,,,,1,0,1,0,187,0,187,0,,,,,,,187,,,0.2,1635.6703694599273,X,l,go,l,1,0.32819296233356,,,,,,,,,,,,,,,,,,63,001,19,w,Psychologie,2023-01-25_09h05.18.746,00_bat_bachelor,2022.2.4,59.913289002238386,
,,,,,,,,,,,,1,0,1,0,188,0,188,0,,,,,,,188,,,0.2,1636.304143472691,Y,d,go,d,1,0.3497236602997873,,,,,,,,,,,,,,,,,,63,001,19,w,Psychologie,2023-01-25_09h05.18.746,00_bat_bachelor,2022.2.4,59.913289002238386,
,,,,,,,,,,,,1,0,1,0,189,0,189,0,,,,,,,189,,,0.2,1636.954484782298,X,l,go,l,1,0.48338300627074204,,,,,,,,,,,,,,,,,,63,001,19,w,Psychologie,2023-01-25_09h05.18.746,00_bat_bachelor,2022.2.4,59.913289002238386,
,,,,,,,,,,,,1,0,1,0,190,0,190,0,,,,,,,190,,,0.2,1637.7382536798832,X,None,nogo,d,0,0.46778152900515124,,,,,,,,,,,,,,,,,,63,001,19,w,Psychologie,2023-01-25_09h05.18.746,00_bat_bachelor,2022.2.4,59.913289002238386,
,,,,,,,,,,,,1,0,1,0,191,0,191,0,,,,,,,191,,,0.2,1638.522511305462,Y,d,go,None,0,,,,,,,,,,,,,,,,,,,63,001,19,w,Psychologie,2023-01-25_09h05.18.746,00_bat_bachelor,2022.2.4,59.913289002238386,
,,,,,,,,,,,,1,0,1,0,192,0,192,0,,,,,,,192,,,0.2,1639.5233234278567,X,l,go,l,1,0.15500192253966816,,,,,,,,,,,,,,,,,,63,001,19,w,Psychologie,2023-01-25_09h05.18.746,00_bat_bachelor,2022.2.4,59.913289002238386,
,,,,,,,,,,,,1,0,1,0,193,0,193,0,,,,,,,193,,,0.2,1639.9903141677205,Y,d,go,d,1,0.5518582573859021,,,,,,,,,,,,,,,,,,63,001,19,w,Psychologie,2023-01-25_09h05.18.746,00_bat_bachelor,2022.2.4,59.913289002238386,
,,,,,,,,,,,,1,0,1,0,194,0,194,0,,,,,,,194,,,0.2,1640.857268640888,X,l,go,l,1,0.43638851365540177,,,,,,,,,,,,,,,,,,63,001,19,w,Psychologie,2023-01-25_09h05.18.746,00_bat_bachelor,2022.2.4,59.913289002238386,
,,,,,,,,,,,,1,0,1,0,195,0,195,0,,,,,,,195,,,0.2,1641.6081317936478,X,None,nogo,d,0,0.32557380700018257,,,,,,,,,,,,,,,,,,63,001,19,w,Psychologie,2023-01-25_09h05.18.746,00_bat_bachelor,2022.2.4,59.913289002238386,
,,,,,,,,,,,,1,0,1,0,196,0,196,0,,,,,,,196,,,0.2,1642.241910654906,Y,d,go,None,0,,,,,,,,,,,,,,,,,,,63,001,19,w,Psychologie,2023-01-25_09h05.18.746,00_bat_bachelor,2022.2.4,59.913289002238386,
,,,,,,,,,,,,1,0,1,0,197,0,197,0,,,,,,,197,,,0.2,1643.2428168380284,X,l,go,l,1,0.2270985122595448,,,,,,,,,,,,,,,,,,63,001,19,w,Psychologie,2023-01-25_09h05.18.746,00_bat_bachelor,2022.2.4,59.913289002238386,
