loop_instruction.thisRepN,loop_instruction.thisTrialN,loop_instruction.thisN,loop_instruction.thisIndex,loop_rsi_practice.thisRepN,loop_rsi_practice.thisTrialN,loop_rsi_practice.thisN,loop_rsi_practice.thisIndex,loop_practice.thisRepN,loop_practice.thisTrialN,loop_practice.thisN,loop_practice.thisIndex,loop_exp.thisRepN,loop_exp.thisTrialN,loop_exp.thisN,loop_exp.thisIndex,loop_trials.thisRepN,loop_trials.thisTrialN,loop_trials.thisN,loop_trials.thisIndex,map_condition,map_x_key,map_y_key,key_resp_welcome.started,key_resp_welcome.keys,key_resp_welcome.rt,index,text_empty_rsi_practice.started,text_empty_rsi_practice.stopped,rsi,stimulus.started,stimulus,correct,trial_type,key_resp_trial.keys,key_resp_trial.corr,key_resp_trial.rt,key_resp_instruction_rsi.started,key_resp_instruction_rsi.keys,key_resp_instruction_rsi.rt,stimulus.stopped,key_resp_instruction_rsi.stopped,key_resp_instruction_final.started,key_resp_instruction_final.keys,key_resp_instruction_final.rt,key_resp_break.started,key_resp_break.keys,key_resp_break.rt,key_resp_break.stopped,key_resp_end_screen.started,image_end_screen.started,key_resp_end_screen.stopped,image_end_screen.stopped,key_resp_end_screen.keys,participant,session,Alter,Geschlecht (w/m/d/andere),Studiengang,date,expName,psychopyVersion,frameRate,
,,,,0,0,0,0,0,0,0,0,,,,,,,,,0,d,l,1008.2052546883933,j,26.481182356830686,0,1034.7174052279443,1035.7326149176806,1,1035.7326149176806,X,d,go,d,1,0.5578625621274114,,,,,,,,,,,,,,,,,,64,001,20,w,Psychologie,2023-01-25_09h05.39.438,00_bat_bachelor,2022.2.4,59.96514028821549,
,,,,0,0,0,0,1,0,1,0,,,,,,,,,,,,,,,1,1037.0084295717534,1038.0092062987387,1,1038.0092062987387,Y,l,go,l,1,0.337351638590917,,,,,,,,,,,,,,,,,,64,001,20,w,Psychologie,2023-01-25_09h05.39.438,00_bat_bachelor,2022.2.4,59.96514028821549,
,,,,0,0,0,0,2,0,2,0,,,,,,,,,,,,,,,2,1039.0600785163697,1040.0608048189897,1,1040.0608048189897,X,d,go,d,1,0.3178728602360934,,,,,,,,,,,,,,,,,,64,001,20,w,Psychologie,2023-01-25_09h05.39.438,00_bat_bachelor,2022.2.4,59.96514028821549,
,,,,0,0,0,0,3,0,3,0,,,,,,,,,,,,,,,3,1041.0949497721158,1042.0956300143152,1,1042.0956300143152,Y,l,go,l,1,0.522213609656319,,,,,,,,,,,,,,,,,,64,001,20,w,Psychologie,2023-01-25_09h05.39.438,00_bat_bachelor,2022.2.4,59.96514028821549,
,,,,0,0,0,0,4,0,4,0,,,,,,,,,,,,,,,4,1043.3297229916789,1044.330651476048,1,1044.330651476048,Y,None,nogo,None,1,,,,,,,,,,,,,,,,,,,64,001,20,w,Psychologie,2023-01-25_09h05.39.438,00_bat_bachelor,2022.2.4,59.96514028821549,
,,,,0,0,0,0,5,0,5,0,,,,,,,,,,,,,,,5,1045.7317494633608,1046.7322866753675,1,1046.7322866753675,X,d,go,d,1,0.2537288914900273,,,,,,,,,,,,,,,,,,64,001,20,w,Psychologie,2023-01-25_09h05.39.438,00_bat_bachelor,2022.2.4,59.96514028821549,
,,,,0,0,0,0,6,0,6,0,,,,,,,,,,,,,,,6,1047.699764994206,1048.7005974785425,1,1048.7005974785425,Y,l,go,l,1,0.4616972755175084,,,,,,,,,,,,,,,,,,64,001,20,w,Psychologie,2023-01-25_09h05.39.438,00_bat_bachelor,2022.2.4,59.96514028821549,
,,,,0,0,0,0,7,0,7,0,,,,,,,,,,,,,,,7,1049.8680844276678,1050.869075942319,1,1050.869075942319,Y,None,nogo,l,0,0.32626121980138123,,,,,,,,,,,,,,,,,,64,001,20,w,Psychologie,2023-01-25_09h05.39.438,00_bat_bachelor,2022.2.4,59.96514028821549,
,,,,0,0,0,0,8,0,8,0,,,,,,,,,,,,,,,8,1052.303449549945,1053.3039959738962,1,1053.3039959738962,X,d,go,None,0,,,,,,,,,,,,,,,,,,,64,001,20,w,Psychologie,2023-01-25_09h05.39.438,00_bat_bachelor,2022.2.4,59.96514028821549,
,,,,0,0,0,0,9,0,9,0,,,,,,,,,,,,,,,9,1054.70512596122,1055.7059482638724,1,1055.7059482638724,Y,l,go,None,0,,,,,,,,,,,,,,,,,,,64,001,20,w,Psychologie,2023-01-25_09h05.39.438,00_bat_bachelor,2022.2.4,59.96514028821549,
,,,,0,0,0,0,10,0,10,0,,,,,,,,,,,,,,,10,1057.1069003117736,1058.1079931599088,1,1058.1079931599088,X,d,go,None,0,,,,,,,,,,,,,,,,,,,64,001,20,w,Psychologie,2023-01-25_09h05.39.438,00_bat_bachelor,2022.2.4,59.96514028821549,
,,,,0,0,0,0,11,0,11,0,,,,,,,,,,,,,,,11,1059.5089195109904,1060.5097486013547,1,1060.5097486013547,X,None,nogo,d,0,0.30049347481690347,,,,,,,,,,,,,,,,,,64,001,20,w,Psychologie,2023-01-25_09h05.39.438,00_bat_bachelor,2022.2.4,59.96514028821549,
,,,,0,0,0,0,12,0,12,0,,,,,,,,,,,,,,,12,1061.9105454978999,1062.9115961641073,1,1062.9115961641073,Y,l,go,l,1,0.5392812376376241,,,,,,,,,,,,,,,,,,64,001,20,w,Psychologie,2023-01-25_09h05.39.438,00_bat_bachelor,2022.2.4,59.96514028821549,
,,,,0,0,0,0,13,0,13,0,,,,,,,,,,,,,,,13,1064.162457618164,1065.1632784663234,1,1065.1632784663234,X,d,go,d,1,0.4155198431108147,,,,,,,,,,,,,,,,,,64,001,20,w,Psychologie,2023-01-25_09h05.39.438,00_bat_bachelor,2022.2.4,59.96514028821549,
,,,,0,0,0,0,14,0,14,0,,,,,,,,,,,,,,,14,1066.280782409478,1067.2812968334183,1,1067.2812968334183,Y,l,go,l,1,0.44129098230041564,,,,,,,,,,,,,,,,,,64,001,20,w,Psychologie,2023-01-25_09h05.39.438,00_bat_bachelor,2022.2.4,59.96514028821549,
,,,,1,0,1,0,0,0,0,0,,,,,,,,,,,,,,,0,1089.548546158243,1089.7489717581775,0.2,1089.7489717581775,X,d,go,d,1,0.5011954382061958,1068.4596070500556,j,21.05845771334134,,,,,,,,,,,,,,,64,001,20,w,Psychologie,2023-01-25_09h05.39.438,00_bat_bachelor,2022.2.4,59.96514028821549,
,,,,1,0,1,0,1,0,1,0,,,,,,,,,,,,,,,1,1090.9664916526526,1091.1664532527793,0.2,1091.1664532527793,Y,l,go,l,1,0.36349223204888403,,,,,,,,,,,,,,,,,,64,001,20,w,Psychologie,2023-01-25_09h05.39.438,00_bat_bachelor,2022.2.4,59.96514028821549,
,,,,1,0,1,0,2,0,2,0,,,,,,,,,,,,,,,2,1092.2341133411974,1092.4342271834612,0.2,1092.4342271834612,X,d,go,d,1,0.28077954496257007,,,,,,,,,,,,,,,,,,64,001,20,w,Psychologie,2023-01-25_09h05.39.438,00_bat_bachelor,2022.2.4,59.96514028821549,
,,,,1,0,1,0,3,0,3,0,,,,,,,,,,,,,,,3,1093.4184002820402,1093.6184637001716,0.2,1093.6184637001716,Y,l,go,l,1,0.29654777981340885,,,,,,,,,,,,,,,,,,64,001,20,w,Psychologie,2023-01-25_09h05.39.438,00_bat_bachelor,2022.2.4,59.96514028821549,
,,,,1,0,1,0,4,0,4,0,,,,,,,,,,,,,,,4,1094.619073639391,1094.8193882089108,0.2,1094.8193882089108,X,d,go,d,1,0.3749918630346656,,,,,,,,,,,,,,,,,,64,001,20,w,Psychologie,2023-01-25_09h05.39.438,00_bat_bachelor,2022.2.4,59.96514028821549,
,,,,1,0,1,0,5,0,5,0,,,,,,,,,,,,,,,5,1095.9034235619474,1096.1035044346936,0.2,1096.1035044346936,Y,l,go,l,1,0.35443963040597737,,,,,,,,,,,,,,,,,,64,001,20,w,Psychologie,2023-01-25_09h05.39.438,00_bat_bachelor,2022.2.4,59.96514028821549,
,,,,1,0,1,0,6,0,6,0,,,,,,,,,,,,,,,6,1097.1713114322629,1097.371147456579,0.2,1097.371147456579,X,d,go,d,1,0.3510534502565861,,,,,,,,,,,,,,,,,,64,001,20,w,Psychologie,2023-01-25_09h05.39.438,00_bat_bachelor,2022.2.4,59.96514028821549,
,,,,1,0,1,0,7,0,7,0,,,,,,,,,,,,,,,7,1098.4388502114452,1098.6389912054874,0.2,1098.6389912054874,Y,l,go,l,1,0.3625104143284261,,,,,,,,,,,,,,,,,,64,001,20,w,Psychologie,2023-01-25_09h05.39.438,00_bat_bachelor,2022.2.4,59.96514028821549,
,,,,1,0,1,0,8,0,8,0,,,,,,,,,,,,,,,8,1099.7229819525965,1099.9231171282008,0.2,1099.9231171282008,X,d,go,d,1,0.3271373405586928,,,,,,,,,,,,,,,,,,64,001,20,w,Psychologie,2023-01-25_09h05.39.438,00_bat_bachelor,2022.2.4,59.96514028821549,
,,,,1,0,1,0,9,0,9,0,,,,,,,,,,,,,,,9,1100.9574298388325,1101.1575160447974,0.2,1101.1575160447974,X,None,nogo,None,1,,,,,1101.9582186869811,,,,,,,,,,,,,,64,001,20,w,Psychologie,2023-01-25_09h05.39.438,00_bat_bachelor,2022.2.4,59.96514028821549,
,,,,1,0,1,0,10,0,10,0,,,,,,,,,,,,,,,10,1102.5586203353014,1102.7585819351953,0.2,1102.7585819351953,X,None,nogo,None,1,,,,,1103.5593102744315,,,,,,,,,,,,,,64,001,20,w,Psychologie,2023-01-25_09h05.39.438,00_bat_bachelor,2022.2.4,59.96514028821549,
,,,,1,0,1,0,11,0,11,0,,,,,,,,,,,,,,,11,1104.1597158014774,1104.3599629770033,0.2,1104.3599629770033,Y,l,go,l,1,0.3866825238801539,,,,,,,,,,,,,,,,,,64,001,20,w,Psychologie,2023-01-25_09h05.39.438,00_bat_bachelor,2022.2.4,59.96514028821549,
,,,,1,0,1,0,12,0,12,0,,,,,,,,,,,,,,,12,1105.4606620797422,1105.6608554371633,0.2,1105.6608554371633,X,d,go,d,1,0.3812420417089015,,,,,,,,,,,,,,,,,,64,001,20,w,Psychologie,2023-01-25_09h05.39.438,00_bat_bachelor,2022.2.4,59.96514028821549,
,,,,1,0,1,0,13,0,13,0,,,,,,,,,,,,,,,13,1106.7451506690122,1106.9453396629542,0.2,1106.9453396629542,X,None,nogo,d,0,0.31340352911502123,,,,,,,,,,,,,,,,,,64,001,20,w,Psychologie,2023-01-25_09h05.39.438,00_bat_bachelor,2022.2.4,59.96514028821549,
,,,,1,0,1,0,14,0,14,0,,,,,,,,,,,,,,,14,1108.3630645512603,1108.5630600906443,0.2,1108.5630600906443,Y,l,go,l,1,0.44002989190630615,,,,,,,,,,,,,,,,,,64,001,20,w,Psychologie,2023-01-25_09h05.39.438,00_bat_bachelor,2022.2.4,59.96514028821549,
,,,,,,,,,,,,,,,,,,,,,,,,,,,,,,,,,,,,,1109.7447031540796,None,,,1109.7447031540796,1109.7447031540796,space,16.4929074421525,,,,,,,,,,64,001,20,w,Psychologie,2023-01-25_09h05.39.438,00_bat_bachelor,2022.2.4,59.96514028821549,
,,,,,,,,,,,,0,0,0,0,0,0,0,0,,,,,,,0,,,1,1127.2604764797725,X,d,go,d,1,0.3338010951410979,,,,,,,,,,,,,,,,,,64,001,20,w,Psychologie,2023-01-25_09h05.39.438,00_bat_bachelor,2022.2.4,59.96514028821549,
,,,,,,,,,,,,0,0,0,0,1,0,1,0,,,,,,,1,,,1,1128.6949746934697,Y,l,go,l,1,0.3714675009250641,,,,,,,,,,,,,,,,,,64,001,20,w,Psychologie,2023-01-25_09h05.39.438,00_bat_bachelor,2022.2.4,59.96514028821549,
,,,,,,,,,,,,0,0,0,0,2,0,2,0,,,,,,,2,,,1,1130.1794612463564,X,d,go,d,1,0.3588410827796906,,,,,,,,,,,,,,,,,,64,001,20,w,Psychologie,2023-01-25_09h05.39.438,00_bat_bachelor,2022.2.4,59.96514028821549,
,,,,,,,,,,,,0,0,0,0,3,0,3,0,,,,,,,3,,,1,1131.6470619894098,Y,l,go,l,1,0.31482946779578924,,,,,,,,,,,,,,,,,,64,001,20,w,Psychologie,2023-01-25_09h05.39.438,00_bat_bachelor,2022.2.4,59.96514028821549,
,,,,,,,,,,,,0,0,0,0,4,0,4,0,,,,,,,4,,,1,1133.0649604534265,Y,None,nogo,None,1,,,,,,,,,,,,,,,,,,,64,001,20,w,Psychologie,2023-01-25_09h05.39.438,00_bat_bachelor,2022.2.4,59.96514028821549,
,,,,,,,,,,,,0,0,0,0,5,0,5,0,,,,,,,5,,,1,1134.8663957011886,X,d,go,d,1,0.3769201044924557,,,,,,,,,,,,,,,,,,64,001,20,w,Psychologie,2023-01-25_09h05.39.438,00_bat_bachelor,2022.2.4,59.96514028821549,
,,,,,,,,,,,,0,0,0,0,6,0,6,0,,,,,,,6,,,1,1136.3505923149642,Y,l,go,l,1,0.428137049311772,,,,,,,,,,,,,,,,,,64,001,20,w,Psychologie,2023-01-25_09h05.39.438,00_bat_bachelor,2022.2.4,59.96514028821549,
,,,,,,,,,,,,0,0,0,0,7,0,7,0,,,,,,,7,,,1,1137.8853430859745,Y,None,nogo,None,1,,,,,,,,,,,,,,,,,,,64,001,20,w,Psychologie,2023-01-25_09h05.39.438,00_bat_bachelor,2022.2.4,59.96514028821549,
,,,,,,,,,,,,0,0,0,0,8,0,8,0,,,,,,,8,,,1,1139.6867225761525,X,d,go,d,1,0.34042218257673085,,,,,,,,,,,,,,,,,,64,001,20,w,Psychologie,2023-01-25_09h05.39.438,00_bat_bachelor,2022.2.4,59.96514028821549,
,,,,,,,,,,,,0,0,0,0,9,0,9,0,,,,,,,9,,,1,1141.1377512060571,Y,l,go,l,1,0.36031599109992385,,,,,,,,,,,,,,,,,,64,001,20,w,Psychologie,2023-01-25_09h05.39.438,00_bat_bachelor,2022.2.4,59.96514028821549,
,,,,,,,,,,,,0,0,0,0,10,0,10,0,,,,,,,10,,,1,1142.6054217671044,X,d,go,d,1,0.36552956444211304,,,,,,,,,,,,,,,,,,64,001,20,w,Psychologie,2023-01-25_09h05.39.438,00_bat_bachelor,2022.2.4,59.96514028821549,
,,,,,,,,,,,,0,0,0,0,11,0,11,0,,,,,,,11,,,1,1144.0733066312969,X,None,nogo,None,1,,,,,1144.8740024853032,,,,,,,,,,,,,,64,001,20,w,Psychologie,2023-01-25_09h05.39.438,00_bat_bachelor,2022.2.4,59.96514028821549,
,,,,,,,,,,,,0,0,0,0,12,0,12,0,,,,,,,12,,,1,1145.8747409093194,Y,l,go,l,1,0.44012637669220567,,,,,,,,,,,,,,,,,,64,001,20,w,Psychologie,2023-01-25_09h05.39.438,00_bat_bachelor,2022.2.4,59.96514028821549,
,,,,,,,,,,,,0,0,0,0,13,0,13,0,,,,,,,13,,,1,1147.426697005285,X,d,go,d,1,0.39175500627607107,,,,,,,,,,,,,,,,,,64,001,20,w,Psychologie,2023-01-25_09h05.39.438,00_bat_bachelor,2022.2.4,59.96514028821549,
,,,,,,,,,,,,0,0,0,0,14,0,14,0,,,,,,,14,,,1,1148.9444965117145,Y,l,go,l,1,0.36143647553399205,,,,,,,,,,,,,,,,,,64,001,20,w,Psychologie,2023-01-25_09h05.39.438,00_bat_bachelor,2022.2.4,59.96514028821549,
,,,,,,,,,,,,0,0,0,0,15,0,15,0,,,,,,,15,,,1,1150.4287328831851,X,d,go,d,1,0.4934650177601725,,,,,,,,,,,,,,,,,,64,001,20,w,Psychologie,2023-01-25_09h05.39.438,00_bat_bachelor,2022.2.4,59.96514028821549,
,,,,,,,,,,,,0,0,0,0,16,0,16,0,,,,,,,16,,,1,1152.0635296662804,X,None,nogo,None,1,,,,,1152.8643113386352,,,,,,,,,,,,,,64,001,20,w,Psychologie,2023-01-25_09h05.39.438,00_bat_bachelor,2022.2.4,59.96514028821549,
,,,,,,,,,,,,0,0,0,0,17,0,17,0,,,,,,,17,,,1,1153.864883459406,Y,l,go,l,1,0.2889909348450601,,,,,,,,,,,,,,,,,,64,001,20,w,Psychologie,2023-01-25_09h05.39.438,00_bat_bachelor,2022.2.4,59.96514028821549,
,,,,,,,,,,,,0,0,0,0,18,0,18,0,,,,,,,18,,,1,1155.3320391117595,X,d,go,d,1,0.5345835431944579,,,,,,,,,,,,,,,,,,64,001,20,w,Psychologie,2023-01-25_09h05.39.438,00_bat_bachelor,2022.2.4,59.96514028821549,
,,,,,,,,,,,,0,0,0,0,19,0,19,0,,,,,,,19,,,1,1156.9829900688492,Y,l,go,l,1,0.35561344819143414,,,,,,,,,,,,,,,,,,64,001,20,w,Psychologie,2023-01-25_09h05.39.438,00_bat_bachelor,2022.2.4,59.96514028821549,
,,,,,,,,,,,,0,0,0,0,20,0,20,0,,,,,,,20,,,1,1158.4509806300048,X,d,go,d,1,0.2956755377817899,,,,,,,,,,,,,,,,,,64,001,20,w,Psychologie,2023-01-25_09h05.39.438,00_bat_bachelor,2022.2.4,59.96514028821549,
,,,,,,,,,,,,0,0,0,0,21,0,21,0,,,,,,,21,,,1,1159.8519690416288,X,None,nogo,None,1,,,,,,,,,,,,,,,,,,,64,001,20,w,Psychologie,2023-01-25_09h05.39.438,00_bat_bachelor,2022.2.4,59.96514028821549,
,,,,,,,,,,,,0,0,0,0,22,0,22,0,,,,,,,22,,,1,1161.6534682891797,Y,l,go,l,1,0.30914171296171844,,,,,,,,,,,,,,,,,,64,001,20,w,Psychologie,2023-01-25_09h05.39.438,00_bat_bachelor,2022.2.4,59.96514028821549,
,,,,,,,,,,,,0,0,0,0,23,0,23,0,,,,,,,23,,,1,1163.0709114808124,X,d,go,d,1,0.4755169050768018,,,,,,,,,,,,,,,,,,64,001,20,w,Psychologie,2023-01-25_09h05.39.438,00_bat_bachelor,2022.2.4,59.96514028821549,
,,,,,,,,,,,,0,0,0,0,24,0,24,0,,,,,,,24,,,1,1164.6555245306809,X,None,nogo,None,1,,,,,1165.4562766272575,,,,,,,,,,,,,,64,001,20,w,Psychologie,2023-01-25_09h05.39.438,00_bat_bachelor,2022.2.4,59.96514028821549,
,,,,,,,,,,,,0,0,0,0,25,0,25,0,,,,,,,25,,,1,1166.457628868986,Y,l,go,d,0,0.30330559448339045,,,,,,,,,,,,,,,,,,64,001,20,w,Psychologie,2023-01-25_09h05.39.438,00_bat_bachelor,2022.2.4,59.96514028821549,
,,,,,,,,,,,,0,0,0,0,26,0,26,0,,,,,,,26,,,1,1167.8923297491856,X,d,go,d,1,0.4377976506948471,,,,,,,,,,,,,,,,,,64,001,20,w,Psychologie,2023-01-25_09h05.39.438,00_bat_bachelor,2022.2.4,59.96514028821549,
,,,,,,,,,,,,0,0,0,0,27,0,27,0,,,,,,,27,,,1,1169.4599144437816,Y,l,go,l,1,0.3734393788035959,,,,,,,,,,,,,,,,,,64,001,20,w,Psychologie,2023-01-25_09h05.39.438,00_bat_bachelor,2022.2.4,59.96514028821549,
,,,,,,,,,,,,0,0,0,0,28,0,28,0,,,,,,,28,,,1,1170.9611171097495,Y,None,nogo,None,1,,,,,1171.7618182974402,,,,,,,,,,,,,,64,001,20,w,Psychologie,2023-01-25_09h05.39.438,00_bat_bachelor,2022.2.4,59.96514028821549,
,,,,,,,,,,,,0,0,0,0,29,0,29,0,,,,,,,29,,,1,1172.7624413273297,X,d,go,d,1,0.2547577393706888,,,,,,,,,,,,,,,,,,64,001,20,w,Psychologie,2023-01-25_09h05.39.438,00_bat_bachelor,2022.2.4,59.96514028821549,
,,,,,,,,,,,,0,0,0,0,30,0,30,0,,,,,,,30,,,1,1174.1471073227003,Y,l,go,l,1,0.3748245902825147,,,,,,,,,,,,,,,,,,64,001,20,w,Psychologie,2023-01-25_09h05.39.438,00_bat_bachelor,2022.2.4,59.96514028821549,
,,,,,,,,,,,,0,0,0,0,31,0,31,0,,,,,,,31,,,1,1175.6482018677052,X,d,go,d,1,0.410029906546697,,,,,,,,,,,,,,,,,,64,001,20,w,Psychologie,2023-01-25_09h05.39.438,00_bat_bachelor,2022.2.4,59.96514028821549,
,,,,,,,,,,,,0,0,0,0,32,0,32,0,,,,,,,32,,,1,1177.1824639115948,X,None,nogo,None,1,,,,,1177.9834133414552,,,,,,,,,,,,,,64,001,20,w,Psychologie,2023-01-25_09h05.39.438,00_bat_bachelor,2022.2.4,59.96514028821549,
,,,,,,,,,,,,0,0,0,0,33,0,33,0,,,,,,,33,,,1,1178.9838162502274,Y,l,go,l,1,0.4667479395866394,,,,,,,,,,,,,,,,,,64,001,20,w,Psychologie,2023-01-25_09h05.39.438,00_bat_bachelor,2022.2.4,59.96514028821549,
,,,,,,,,,,,,0,0,0,0,34,0,34,0,,,,,,,34,,,1,1180.5681829974055,X,d,go,d,1,0.41823838744312525,,,,,,,,,,,,,,,,,,64,001,20,w,Psychologie,2023-01-25_09h05.39.438,00_bat_bachelor,2022.2.4,59.96514028821549,
,,,,,,,,,,,,0,0,0,0,35,0,35,0,,,,,,,35,,,1,1182.1027461320627,Y,l,go,l,1,0.5484695970080793,,,,,,,,,,,,,,,,,,64,001,20,w,Psychologie,2023-01-25_09h05.39.438,00_bat_bachelor,2022.2.4,59.96514028821549,
,,,,,,,,,,,,0,0,0,0,36,0,36,0,,,,,,,36,,,1,1183.7539841192774,X,d,go,d,1,0.3037729882635176,,,,,,,,,,,,,,,,,,64,001,20,w,Psychologie,2023-01-25_09h05.39.438,00_bat_bachelor,2022.2.4,59.96514028821549,
,,,,,,,,,,,,0,0,0,0,37,0,37,0,,,,,,,37,,,1,1185.188445969252,Y,l,go,l,1,0.37337246956303716,,,,,,,,,,,,,,,,,,64,001,20,w,Psychologie,2023-01-25_09h05.39.438,00_bat_bachelor,2022.2.4,59.96514028821549,
,,,,,,,,,,,,0,0,0,0,38,0,38,0,,,,,,,38,,,1,1186.6727031890769,Y,None,nogo,None,1,,,,,1187.473357831128,,,,,,,,,,,,,,64,001,20,w,Psychologie,2023-01-25_09h05.39.438,00_bat_bachelor,2022.2.4,59.96514028821549,
,,,,,,,,,,,,0,0,0,0,39,0,39,0,,,,,,,39,,,1,1188.474208739819,X,d,go,d,1,0.3034146854188293,,,,,,,,,,,,,,,,,,64,001,20,w,Psychologie,2023-01-25_09h05.39.438,00_bat_bachelor,2022.2.4,59.96514028821549,
,,,,,,,,,,,,0,0,0,0,40,0,40,0,,,,,,,40,,,1,1189.9084921656176,Y,l,go,l,1,0.4070548778399825,,,,,,,,,,,,,,,,,,64,001,20,w,Psychologie,2023-01-25_09h05.39.438,00_bat_bachelor,2022.2.4,59.96514028821549,
,,,,,,,,,,,,0,0,0,0,41,0,41,0,,,,,,,41,,,1,1191.4262645207345,X,d,go,None,0,,,,,1192.2266864355188,,,,,,,,,,,,,,64,001,20,w,Psychologie,2023-01-25_09h05.39.438,00_bat_bachelor,2022.2.4,59.96514028821549,
,,,,,,,,,,,,0,0,0,0,42,0,42,0,,,,,,,42,,,1,1193.2276774654165,Y,l,go,l,1,0.5588492283131927,,,,,,,,,,,,,,,,,,64,001,20,w,Psychologie,2023-01-25_09h05.39.438,00_bat_bachelor,2022.2.4,59.96514028821549,
,,,,,,,,,,,,0,0,0,0,43,0,43,0,,,,,,,43,,,1,1194.8955510810483,X,d,go,d,1,0.2985885061789304,,,,,,,,,,,,,,,,,,64,001,20,w,Psychologie,2023-01-25_09h05.39.438,00_bat_bachelor,2022.2.4,59.96514028821549,
,,,,,,,,,,,,0,0,0,0,44,0,44,0,,,,,,,44,,,1,1196.29647743213,Y,l,go,l,1,0.3857394941151142,,,,,,,,,,,,,,,,,,64,001,20,w,Psychologie,2023-01-25_09h05.39.438,00_bat_bachelor,2022.2.4,59.96514028821549,
,,,,,,,,,,,,0,0,0,0,45,0,45,0,,,,,,,45,,,1,1197.7978250677697,Y,None,nogo,None,1,,,,,,,,,,,,,,,,,,,64,001,20,w,Psychologie,2023-01-25_09h05.39.438,00_bat_bachelor,2022.2.4,59.96514028821549,
,,,,,,,,,,,,0,0,0,0,46,0,46,0,,,,,,,46,,,1,1199.599206497427,X,d,go,d,1,0.2832900893408805,,,,,,,,,,,,,,,,,,64,001,20,w,Psychologie,2023-01-25_09h05.39.438,00_bat_bachelor,2022.2.4,59.96514028821549,
,,,,,,,,,,,,0,0,0,0,47,0,47,0,,,,,,,47,,,1,1200.9841260684188,Y,l,go,l,1,0.4494461298454553,,,,,,,,,,,,,,,,,,64,001,20,w,Psychologie,2023-01-25_09h05.39.438,00_bat_bachelor,2022.2.4,59.96514028821549,
,,,,,,,,,,,,0,0,0,0,48,0,48,0,,,,,,,48,,,1,1202.5518038538285,Y,None,nogo,None,1,,,,,1203.3527028593235,,,,,,,,,,,,,,64,001,20,w,Psychologie,2023-01-25_09h05.39.438,00_bat_bachelor,2022.2.4,59.96514028821549,
,,,,,,,,,,,,0,0,0,0,49,0,49,0,,,,,,,49,,,1,1204.3531809197739,X,d,go,d,1,0.23274805303663015,,,,,,,,,,,,,,,,,,64,001,20,w,Psychologie,2023-01-25_09h05.39.438,00_bat_bachelor,2022.2.4,59.96514028821549,
,,,,,,,,,,,,0,0,0,0,50,0,50,0,,,,,,,50,,,1,1205.7042013555765,Y,l,go,l,1,0.5298887575045228,,,,,,,,,,,,,,,,,,64,001,20,w,Psychologie,2023-01-25_09h05.39.438,00_bat_bachelor,2022.2.4,59.96514028821549,
,,,,,,,,,,,,0,0,0,0,51,0,51,0,,,,,,,51,,,1,1207.3390315931756,X,d,go,d,1,0.3686054418794811,,,,,,,,,,,,,,,,,,64,001,20,w,Psychologie,2023-01-25_09h05.39.438,00_bat_bachelor,2022.2.4,59.96514028821549,
,,,,,,,,,,,,0,0,0,0,52,0,52,0,,,,,,,52,,,1,1208.823403722141,Y,l,go,l,1,0.2581366468220949,,,,,,,,,,,,,,,,,,64,001,20,w,Psychologie,2023-01-25_09h05.39.438,00_bat_bachelor,2022.2.4,59.96514028821549,
,,,,,,,,,,,,0,0,0,0,53,0,53,0,,,,,,,53,,,1,1210.207820020616,Y,None,nogo,None,1,,,,,1211.0085100566503,,,,,,,,,,,,,,64,001,20,w,Psychologie,2023-01-25_09h05.39.438,00_bat_bachelor,2022.2.4,59.96514028821549,
,,,,,,,,,,,,0,0,0,0,54,0,54,0,,,,,,,54,,,1,1212.0092838744167,X,d,go,d,1,0.27380742714740336,,,,,,,,,,,,,,,,,,64,001,20,w,Psychologie,2023-01-25_09h05.39.438,00_bat_bachelor,2022.2.4,59.96514028821549,
,,,,,,,,,,,,0,0,0,0,55,0,55,0,,,,,,,55,,,1,1213.3936148395296,Y,l,go,l,1,0.3447339383419603,,,,,,,,,,,,,,,,,,64,001,20,w,Psychologie,2023-01-25_09h05.39.438,00_bat_bachelor,2022.2.4,59.96514028821549,
,,,,,,,,,,,,0,0,0,0,56,0,56,0,,,,,,,56,,,1,1214.8444504996296,Y,None,nogo,None,1,,,,,1215.6455070809461,,,,,,,,,,,,,,64,001,20,w,Psychologie,2023-01-25_09h05.39.438,00_bat_bachelor,2022.2.4,59.96514028821549,
,,,,,,,,,,,,0,0,0,0,57,0,57,0,,,,,,,57,,,1,1216.6461548383813,X,d,go,d,1,0.3724119854159653,,,,,,,,,,,,,,,,,,64,001,20,w,Psychologie,2023-01-25_09h05.39.438,00_bat_bachelor,2022.2.4,59.96514028821549,
,,,,,,,,,,,,0,0,0,0,58,0,58,0,,,,,,,58,,,1,1218.146446474595,Y,l,go,l,1,0.2802389389835298,,,,,,,,,,,,,,,,,,64,001,20,w,Psychologie,2023-01-25_09h05.39.438,00_bat_bachelor,2022.2.4,59.96514028821549,
,,,,,,,,,,,,0,0,0,0,59,0,59,0,,,,,,,59,,,1,1219.5308986518066,X,d,go,d,1,0.3190811020322144,,,,,,,,,,,,,,,,,,64,001,20,w,Psychologie,2023-01-25_09h05.39.438,00_bat_bachelor,2022.2.4,59.96514028821549,
,,,,,,,,,,,,0,0,0,0,60,0,60,0,,,,,,,60,,,1,1220.9654409864452,X,None,nogo,None,1,,,,,1221.7657853257842,,,,,,,,,,,,,,64,001,20,w,Psychologie,2023-01-25_09h05.39.438,00_bat_bachelor,2022.2.4,59.96514028821549,
,,,,,,,,,,,,0,0,0,0,61,0,61,0,,,,,,,61,,,1,1222.7666847191285,Y,l,go,l,1,0.3156755280215293,,,,,,,,,,,,,,,,,,64,001,20,w,Psychologie,2023-01-25_09h05.39.438,00_bat_bachelor,2022.2.4,59.96514028821549,
,,,,,,,,,,,,0,0,0,0,62,0,62,0,,,,,,,62,,,1,1224.1842113046441,X,d,go,d,1,0.48214478068985045,,,,,,,,,,,,,,,,,,64,001,20,w,Psychologie,2023-01-25_09h05.39.438,00_bat_bachelor,2022.2.4,59.96514028821549,
,,,,,,,,,,,,0,0,0,0,63,0,63,0,,,,,,,63,,,1,1225.7688723546453,Y,l,go,l,1,0.44988152338191867,,,,,,,,,,,,,,,,,,64,001,20,w,Psychologie,2023-01-25_09h05.39.438,00_bat_bachelor,2022.2.4,59.96514028821549,
,,,,,,,,,,,,0,0,0,0,64,0,64,0,,,,,,,64,,,1,1227.319869420724,Y,None,nogo,None,1,,,,,,,,,,,,,,,,,,,64,001,20,w,Psychologie,2023-01-25_09h05.39.438,00_bat_bachelor,2022.2.4,59.96514028821549,
,,,,,,,,,,,,0,0,0,0,65,0,65,0,,,,,,,65,,,1,1229.1214646685403,Y,None,nogo,None,1,,,,,1229.9219350682106,,,,,,,,,,,,,,64,001,20,w,Psychologie,2023-01-25_09h05.39.438,00_bat_bachelor,2022.2.4,59.96514028821549,
,,,,,,,,,,,,0,0,0,0,66,0,66,0,,,,,,,66,,,1,1230.9226065829862,X,d,go,d,1,0.223505875794217,,,,,,,,,,,,,,,,,,64,001,20,w,Psychologie,2023-01-25_09h05.39.438,00_bat_bachelor,2022.2.4,59.96514028821549,
,,,,,,,,,,,,0,0,0,0,67,0,67,0,,,,,,,67,,,1,1232.2572672693059,Y,l,go,l,1,0.3457031496800482,,,,,,,,,,,,,,,,,,64,001,20,w,Psychologie,2023-01-25_09h05.39.438,00_bat_bachelor,2022.2.4,59.96514028821549,
,,,,,,,,,,,,0,0,0,0,68,0,68,0,,,,,,,68,,,1,1233.7083215960301,X,d,go,d,1,0.3988900331314653,,,,,,,,,,,,,,,,,,64,001,20,w,Psychologie,2023-01-25_09h05.39.438,00_bat_bachelor,2022.2.4,59.96514028821549,
,,,,,,,,,,,,0,0,0,0,69,0,69,0,,,,,,,69,,,1,1235.2095072923694,Y,l,go,l,1,0.25723192002624273,,,,,,,,,,,,,,,,,,64,001,20,w,Psychologie,2023-01-25_09h05.39.438,00_bat_bachelor,2022.2.4,59.96514028821549,
,,,,,,,,,,,,0,0,0,0,70,0,70,0,,,,,,,70,,,1,1236.577977416804,X,d,go,d,1,0.35968277929350734,,,,,,,,,,,,,,,,,,64,001,20,w,Psychologie,2023-01-25_09h05.39.438,00_bat_bachelor,2022.2.4,59.96514028821549,
,,,,,,,,,,,,0,0,0,0,71,0,71,0,,,,,,,71,,,1,1238.0623359698802,Y,l,go,l,1,0.41235329932533205,,,,,,,,,,,,,,,,,,64,001,20,w,Psychologie,2023-01-25_09h05.39.438,00_bat_bachelor,2022.2.4,59.96514028821549,
,,,,,,,,,,,,0,0,0,0,72,0,72,0,,,,,,,72,,,1,1239.596634862246,X,d,go,d,1,0.4774946009274572,,,,,,,,,,,,,,,,,,64,001,20,w,Psychologie,2023-01-25_09h05.39.438,00_bat_bachelor,2022.2.4,59.96514028821549,
,,,,,,,,,,,,0,0,0,0,73,0,73,0,,,,,,,73,,,1,1241.1814263362903,X,None,nogo,None,1,,,,,1241.9818390391301,,,,,,,,,,,,,,64,001,20,w,Psychologie,2023-01-25_09h05.39.438,00_bat_bachelor,2022.2.4,59.96514028821549,
,,,,,,,,,,,,0,0,0,0,74,0,74,0,,,,,,,74,,,1,1242.9827806144021,Y,l,go,l,1,0.2279727824497968,,,,,,,,,,,,,,,,,,64,001,20,w,Psychologie,2023-01-25_09h05.39.438,00_bat_bachelor,2022.2.4,59.96514028821549,
,,,,,,,,,,,,0,0,0,0,75,0,75,0,,,,,,,75,,,1,1244.3502616484184,X,d,go,d,1,0.29941565706394613,,,,,,,,,,,,,,,,,,64,001,20,w,Psychologie,2023-01-25_09h05.39.438,00_bat_bachelor,2022.2.4,59.96514028821549,
,,,,,,,,,,,,0,0,0,0,76,0,76,0,,,,,,,76,,,1,1245.7680447185412,Y,l,go,l,1,0.27445906307548285,,,,,,,,,,,,,,,,,,64,001,20,w,Psychologie,2023-01-25_09h05.39.438,00_bat_bachelor,2022.2.4,59.96514028821549,
,,,,,,,,,,,,0,0,0,0,77,0,77,0,,,,,,,77,,,1,1247.1693657361902,X,d,go,d,1,0.28057542396709323,,,,,,,,,,,,,,,,,,64,001,20,w,Psychologie,2023-01-25_09h05.39.438,00_bat_bachelor,2022.2.4,59.96514028821549,
,,,,,,,,,,,,0,0,0,0,78,0,78,0,,,,,,,78,,,1,1248.587082867045,Y,l,go,l,1,0.382563253166154,,,,,,,,,,,,,,,,,,64,001,20,w,Psychologie,2023-01-25_09h05.39.438,00_bat_bachelor,2022.2.4,59.96514028821549,
,,,,,,,,,,,,0,0,0,0,79,0,79,0,,,,,,,79,,,1,1250.0880188664887,X,d,go,d,1,0.2738442753907293,,,,,,,,,,,,,,,,,,64,001,20,w,Psychologie,2023-01-25_09h05.39.438,00_bat_bachelor,2022.2.4,59.96514028821549,
,,,,,,,,,,,,0,0,0,0,80,0,80,0,,,,,,,80,,,1,1251.489316611318,X,None,nogo,None,1,,,,,1252.2899761018343,,,,,,,,,,,,,,64,001,20,w,Psychologie,2023-01-25_09h05.39.438,00_bat_bachelor,2022.2.4,59.96514028821549,
,,,,,,,,,,,,0,0,0,0,81,0,81,0,,,,,,,81,,,1,1253.2906776773743,Y,l,go,l,1,0.2562578597571701,,,,,,,,,,,,,,,,,,64,001,20,w,Psychologie,2023-01-25_09h05.39.438,00_bat_bachelor,2022.2.4,59.96514028821549,
,,,,,,,,,,,,0,0,0,0,82,0,82,0,,,,,,,82,,,1,1254.6583822262473,X,d,go,d,1,0.3599412036128342,,,,,,,,,,,,,,,,,,64,001,20,w,Psychologie,2023-01-25_09h05.39.438,00_bat_bachelor,2022.2.4,59.96514028821549,
,,,,,,,,,,,,0,0,0,0,83,0,83,0,,,,,,,83,,,1,1256.1426423550583,Y,l,go,l,1,0.3305419450625777,,,,,,,,,,,,,,,,,,64,001,20,w,Psychologie,2023-01-25_09h05.39.438,00_bat_bachelor,2022.2.4,59.96514028821549,
,,,,,,,,,,,,0,0,0,0,84,0,84,0,,,,,,,84,,,1,1257.6103677041829,Y,None,nogo,d,0,0.22306611854583025,,,,,,,,,,,,,,,,,,64,001,20,w,Psychologie,2023-01-25_09h05.39.438,00_bat_bachelor,2022.2.4,59.96514028821549,
,,,,,,,,,,,,0,0,0,0,85,0,85,0,,,,,,,85,,,1,1258.9615956549533,X,d,go,d,1,0.4718349673785269,,,,,,,,,,,,,,,,,,64,001,20,w,Psychologie,2023-01-25_09h05.39.438,00_bat_bachelor,2022.2.4,59.96514028821549,
,,,,,,,,,,,,0,0,0,0,86,0,86,0,,,,,,,86,,,1,1260.5795371737331,Y,l,go,l,1,0.4866320511791855,,,,,,,,,,,,,,,,,,64,001,20,w,Psychologie,2023-01-25_09h05.39.438,00_bat_bachelor,2022.2.4,59.96514028821549,
,,,,,,,,,,,,0,0,0,0,87,0,87,0,,,,,,,87,,,1,1262.180756760994,X,d,go,d,1,0.4369511054828763,,,,,,,,,,,,,,,,,,64,001,20,w,Psychologie,2023-01-25_09h05.39.438,00_bat_bachelor,2022.2.4,59.96514028821549,
,,,,,,,,,,,,0,0,0,0,88,0,88,0,,,,,,,88,,,1,1263.7646386595443,Y,l,go,l,1,0.2937807508278638,,,,,,,,,,,,,,,,,,64,001,20,w,Psychologie,2023-01-25_09h05.39.438,00_bat_bachelor,2022.2.4,59.96514028821549,
,,,,,,,,,,,,0,0,0,0,89,0,89,0,,,,,,,89,,,1,1265.1655553136952,Y,None,nogo,l,0,0.4774548434652388,,,,,,,,,,,,,,,,,,64,001,20,w,Psychologie,2023-01-25_09h05.39.438,00_bat_bachelor,2022.2.4,59.96514028821549,
,,,,,,,,,,,,0,0,0,0,90,0,90,0,,,,,,,90,,,1,1266.750192121137,X,d,go,d,1,0.444746010703966,,,,,,,,,,,,,,,,,,64,001,20,w,Psychologie,2023-01-25_09h05.39.438,00_bat_bachelor,2022.2.4,59.96514028821549,
,,,,,,,,,,,,0,0,0,0,91,0,91,0,,,,,,,91,,,1,1268.3013792478014,Y,l,go,l,1,0.34854533011093736,,,,,,,,,,,,,,,,,,64,001,20,w,Psychologie,2023-01-25_09h05.39.438,00_bat_bachelor,2022.2.4,59.96514028821549,
,,,,,,,,,,,,0,0,0,0,92,0,92,0,,,,,,,92,,,1,1269.752583392663,X,d,go,d,1,0.5622489841189235,,,,,,,,,,,,,,,,,,64,001,20,w,Psychologie,2023-01-25_09h05.39.438,00_bat_bachelor,2022.2.4,59.96514028821549,
,,,,,,,,,,,,0,0,0,0,93,0,93,0,,,,,,,93,,,1,1271.420394462999,X,None,nogo,None,1,,,,,,,,,,,,,,,,,,,64,001,20,w,Psychologie,2023-01-25_09h05.39.438,00_bat_bachelor,2022.2.4,59.96514028821549,
,,,,,,,,,,,,0,0,0,0,94,0,94,0,,,,,,,94,,,1,1273.221864619758,Y,l,go,l,1,0.40496566658839583,,,,,,,,,,,,,,,,,,64,001,20,w,Psychologie,2023-01-25_09h05.39.438,00_bat_bachelor,2022.2.4,59.96514028821549,
,,,,,,,,,,,,0,0,0,0,95,0,95,0,,,,,,,95,,,1,1274.7395317626651,X,d,go,d,1,0.4867392028681934,,,,,,,,,,,,,,,,,,64,001,20,w,Psychologie,2023-01-25_09h05.39.438,00_bat_bachelor,2022.2.4,59.96514028821549,
,,,,,,,,,,,,0,0,0,0,96,0,96,0,,,,,,,96,,,1,1276.3406422592234,Y,l,go,l,1,0.3423712726216763,,,,,,,,,,,,,,,,,,64,001,20,w,Psychologie,2023-01-25_09h05.39.438,00_bat_bachelor,2022.2.4,59.96514028821549,
,,,,,,,,,,,,0,0,0,0,97,0,97,0,,,,,,,97,,,1,1277.7919661614578,X,d,go,d,1,0.25026901438832283,,,,,,,,,,,,,,,,,,64,001,20,w,Psychologie,2023-01-25_09h05.39.438,00_bat_bachelor,2022.2.4,59.96514028821549,
,,,,,,,,,,,,0,0,0,0,98,0,98,0,,,,,,,98,,,1,1279.1429749610834,X,None,nogo,None,1,,,,,,,,,,,,,,,,,,,64,001,20,w,Psychologie,2023-01-25_09h05.39.438,00_bat_bachelor,2022.2.4,59.96514028821549,
,,,,,,,,,,,,0,0,0,0,99,0,99,0,,,,,,,99,,,1,1280.944283663528,Y,l,go,l,1,0.2821114230901003,,,,,,,,,,,,,,,,,,64,001,20,w,Psychologie,2023-01-25_09h05.39.438,00_bat_bachelor,2022.2.4,59.96514028821549,
,,,,,,,,,,,,0,0,0,0,100,0,100,0,,,,,,,100,,,1,1282.3284628710244,X,d,go,d,1,0.2267402985598892,,,,,,,,,,,,,,,,,,64,001,20,w,Psychologie,2023-01-25_09h05.39.438,00_bat_bachelor,2022.2.4,59.96514028821549,
,,,,,,,,,,,,0,0,0,0,101,0,101,0,,,,,,,101,,,1,1283.6630435574334,Y,l,go,l,1,0.2991737178526819,,,,,,,,,,,,,,,,,,64,001,20,w,Psychologie,2023-01-25_09h05.39.438,00_bat_bachelor,2022.2.4,59.96514028821549,
,,,,,,,,,,,,0,0,0,0,102,0,102,0,,,,,,,102,,,1,1285.064113423461,X,d,go,d,1,0.22707629832439125,,,,,,,,,,,,,,,,,,64,001,20,w,Psychologie,2023-01-25_09h05.39.438,00_bat_bachelor,2022.2.4,59.96514028821549,
,,,,,,,,,,,,0,0,0,0,103,0,103,0,,,,,,,103,,,1,1286.3984676855616,Y,l,go,l,1,0.20422685472294688,,,,,,,,,,,,,,,,,,64,001,20,w,Psychologie,2023-01-25_09h05.39.438,00_bat_bachelor,2022.2.4,59.96514028821549,
,,,,,,,,,,,,0,0,0,0,104,0,104,0,,,,,,,104,,,1,1287.7161465620156,Y,None,nogo,None,1,,,,,1288.5165340525564,,,,,,,,,,,,,,64,001,20,w,Psychologie,2023-01-25_09h05.39.438,00_bat_bachelor,2022.2.4,59.96514028821549,
,,,,,,,,,,,,0,0,0,0,105,0,105,0,,,,,,,105,,,1,1289.5172215674538,X,d,go,d,1,0.18967267987318337,,,,,,,,,,,,,,,,,,64,001,20,w,Psychologie,2023-01-25_09h05.39.438,00_bat_bachelor,2022.2.4,59.96514028821549,
,,,,,,,,,,,,0,0,0,0,106,0,106,0,,,,,,,106,,,1,1290.8183753609192,Y,l,go,l,1,0.37627380178309977,,,,,,,,,,,,,,,,,,64,001,20,w,Psychologie,2023-01-25_09h05.39.438,00_bat_bachelor,2022.2.4,59.96514028821549,
,,,,,,,,,,,,0,0,0,0,107,0,107,0,,,,,,,107,,,1,1292.3027057927102,X,d,go,d,1,0.2197793321684003,,,,,,,,,,,,,,,,,,64,001,20,w,Psychologie,2023-01-25_09h05.39.438,00_bat_bachelor,2022.2.4,59.96514028821549,
,,,,,,,,,,,,0,0,0,0,108,0,108,0,,,,,,,108,,,1,1293.6372501153965,Y,l,go,l,1,0.2936338419094682,,,,,,,,,,,,,,,,,,64,001,20,w,Psychologie,2023-01-25_09h05.39.438,00_bat_bachelor,2022.2.4,59.96514028821549,
,,,,,,,,,,,,0,0,0,0,109,0,109,0,,,,,,,109,,,1,1295.038372345036,X,d,go,d,1,0.36460592853836715,,,,,,,,,,,,,,,,,,64,001,20,w,Psychologie,2023-01-25_09h05.39.438,00_bat_bachelor,2022.2.4,59.96514028821549,
,,,,,,,,,,,,0,0,0,0,110,0,110,0,,,,,,,110,,,1,1296.5063270272221,Y,l,go,l,1,0.5917699395213276,,,,,,,,,,,,,,,,,,64,001,20,w,Psychologie,2023-01-25_09h05.39.438,00_bat_bachelor,2022.2.4,59.96514028821549,
,,,,,,,,,,,,0,0,0,0,111,0,111,0,,,,,,,111,,,1,1298.2073385661934,Y,None,nogo,None,1,,,,,,,,,,,,,,,,,,,64,001,20,w,Psychologie,2023-01-25_09h05.39.438,00_bat_bachelor,2022.2.4,59.96514028821549,
,,,,,,,,,,,,0,0,0,0,112,0,112,0,,,,,,,112,,,1,1300.0089086017106,X,d,go,d,1,0.41788153909146786,,,,,,,,,,,,,,,,,,64,001,20,w,Psychologie,2023-01-25_09h05.39.438,00_bat_bachelor,2022.2.4,59.96514028821549,
,,,,,,,,,,,,0,0,0,0,113,0,113,0,,,,,,,113,,,1,1301.543081433745,Y,l,go,l,1,0.3062588053289801,,,,,,,,,,,,,,,,,,64,001,20,w,Psychologie,2023-01-25_09h05.39.438,00_bat_bachelor,2022.2.4,59.96514028821549,
,,,,,,,,,,,,0,0,0,0,114,0,114,0,,,,,,,114,,,1,1302.9610962613951,Y,None,nogo,None,1,,,,,1303.7615201156586,,,,,,,,,,,,,,64,001,20,w,Psychologie,2023-01-25_09h05.39.438,00_bat_bachelor,2022.2.4,59.96514028821549,
,,,,,,,,,,,,0,0,0,0,115,0,115,0,,,,,,,115,,,1,1304.7624224182218,X,d,go,d,1,0.2565017386805266,,,,,,,,,,,,,,,,,,64,001,20,w,Psychologie,2023-01-25_09h05.39.438,00_bat_bachelor,2022.2.4,59.96514028821549,
,,,,,,,,,,,,0,0,0,0,116,0,116,0,,,,,,,116,,,1,1306.130120179383,Y,l,go,l,1,0.31308352923952043,,,,,,,,,,,,,,,,,,64,001,20,w,Psychologie,2023-01-25_09h05.39.438,00_bat_bachelor,2022.2.4,59.96514028821549,
,,,,,,,,,,,,0,0,0,0,117,0,117,0,,,,,,,117,,,1,1307.5479367040098,X,d,go,d,1,0.27027191361412406,,,,,,,,,,,,,,,,,,64,001,20,w,Psychologie,2023-01-25_09h05.39.438,00_bat_bachelor,2022.2.4,59.96514028821549,
,,,,,,,,,,,,0,0,0,0,118,0,118,0,,,,,,,118,,,1,1308.932249245001,Y,l,go,l,1,0.4065928172785789,,,,,,,,,,,,,,,,,,64,001,20,w,Psychologie,2023-01-25_09h05.39.438,00_bat_bachelor,2022.2.4,59.96514028821549,
,,,,,,,,,,,,0,0,0,0,119,0,119,0,,,,,,,119,,,1,1310.4500094789546,X,d,go,d,1,0.48886138340458274,,,,,,,,,,,,,,,,,,64,001,20,w,Psychologie,2023-01-25_09h05.39.438,00_bat_bachelor,2022.2.4,59.96514028821549,
,,,,,,,,,,,,0,0,0,0,120,0,120,0,,,,,,,120,,,1,1312.0514176720753,X,None,nogo,None,1,,,,,,,,,,,,,,,,,,,64,001,20,w,Psychologie,2023-01-25_09h05.39.438,00_bat_bachelor,2022.2.4,59.96514028821549,
,,,,,,,,,,,,0,0,0,0,121,0,121,0,,,,,,,121,,,1,1313.8525508593302,Y,l,go,l,1,0.23786368686705828,,,,,,,,,,,,,,,,,,64,001,20,w,Psychologie,2023-01-25_09h05.39.438,00_bat_bachelor,2022.2.4,59.96514028821549,
,,,,,,,,,,,,0,0,0,0,122,0,122,0,,,,,,,122,,,1,1315.2037807498127,X,d,go,d,1,0.5020153163932264,,,,,,,,,,,,,,,,,,64,001,20,w,Psychologie,2023-01-25_09h05.39.438,00_bat_bachelor,2022.2.4,59.96514028821549,
,,,,,,,,,,,,0,0,0,0,123,0,123,0,,,,,,,123,,,1,1316.8217319652904,X,None,nogo,None,1,,,,,,,,,,,,,,,,,,,64,001,20,w,Psychologie,2023-01-25_09h05.39.438,00_bat_bachelor,2022.2.4,59.96514028821549,
,,,,,,,,,,,,0,0,0,0,124,0,124,0,,,,,,,124,,,1,1318.623121152399,Y,l,go,l,1,0.17134687071666121,,,,,,,,,,,,,,,,,,64,001,20,w,Psychologie,2023-01-25_09h05.39.438,00_bat_bachelor,2022.2.4,59.96514028821549,
,,,,,,,,,,,,0,0,0,0,125,0,125,0,,,,,,,125,,,1,1319.907526348019,X,d,go,d,1,0.34408860513940454,,,,,,,,,,,,,,,,,,64,001,20,w,Psychologie,2023-01-25_09h05.39.438,00_bat_bachelor,2022.2.4,59.96514028821549,
,,,,,,,,,,,,0,0,0,0,126,0,126,0,,,,,,,126,,,1,1321.3584187354427,Y,l,go,l,1,0.6520118496846408,,,,,,,,,,,,,,,,,,64,001,20,w,Psychologie,2023-01-25_09h05.39.438,00_bat_bachelor,2022.2.4,59.96514028821549,
,,,,,,,,,,,,0,0,0,0,127,0,127,0,,,,,,,127,,,1,1323.1262273327447,Y,None,nogo,None,1,,,,,,,,,,,,,,,,,,,64,001,20,w,Psychologie,2023-01-25_09h05.39.438,00_bat_bachelor,2022.2.4,59.96514028821549,
,,,,,,,,,,,,0,0,0,0,128,0,128,0,,,,,,,128,,,1,1324.927600035211,X,d,go,d,1,0.2185948477126658,,,,,,,,,,,,,,,,,,64,001,20,w,Psychologie,2023-01-25_09h05.39.438,00_bat_bachelor,2022.2.4,59.96514028821549,
,,,,,,,,,,,,0,0,0,0,129,0,129,0,,,,,,,129,,,1,1326.2620643577538,Y,l,go,None,0,,,,,,,,,,,,,,,,,,,64,001,20,w,Psychologie,2023-01-25_09h05.39.438,00_bat_bachelor,2022.2.4,59.96514028821549,
,,,,,,,,,,,,0,0,0,0,130,0,130,0,,,,,,,130,,,1,1328.0635107571725,X,d,go,d,1,0.25097349868156016,,,,,,,,,,,,,,,,,,64,001,20,w,Psychologie,2023-01-25_09h05.39.438,00_bat_bachelor,2022.2.4,59.96514028821549,
,,,,,,,,,,,,0,0,0,0,131,0,131,0,,,,,,,131,,,1,1329.4310131245293,X,None,nogo,d,0,0.5477845063433051,,,,,,,,,,,,,,,,,,64,001,20,w,Psychologie,2023-01-25_09h05.39.438,00_bat_bachelor,2022.2.4,59.96514028821549,
,,,,,,,,,,,,0,0,0,0,132,0,132,0,,,,,,,132,,,1,1331.0825187480077,Y,l,go,l,1,0.3032411097083241,,,,,,,,,,,,,,,,,,64,001,20,w,Psychologie,2023-01-25_09h05.39.438,00_bat_bachelor,2022.2.4,59.96514028821549,
,,,,,,,,,,,,0,0,0,0,133,0,133,0,,,,,,,133,,,1,1332.500239272602,X,d,go,d,1,0.407546998700127,,,,,,,,,,,,,,,,,,64,001,20,w,Psychologie,2023-01-25_09h05.39.438,00_bat_bachelor,2022.2.4,59.96514028821549,
,,,,,,,,,,,,0,0,0,0,134,0,134,0,,,,,,,134,,,1,1334.0178050822578,Y,l,go,None,0,,,,,1334.8187200878747,,,,,,,,,,,,,,64,001,20,w,Psychologie,2023-01-25_09h05.39.438,00_bat_bachelor,2022.2.4,59.96514028821549,
,,,,,,,,,,,,0,0,0,0,135,0,135,0,,,,,,,135,,,1,1335.8191777847242,Y,None,nogo,None,1,,,,,,,,,,,,,,,,,,,64,001,20,w,Psychologie,2023-01-25_09h05.39.438,00_bat_bachelor,2022.2.4,59.96514028821549,
,,,,,,,,,,,,0,0,0,0,136,0,136,0,,,,,,,136,,,1,1337.6205514566973,X,d,go,d,1,0.3743450753390789,,,,,,,,,,,,,,,,,,64,001,20,w,Psychologie,2023-01-25_09h05.39.438,00_bat_bachelor,2022.2.4,59.96514028821549,
,,,,,,,,,,,,0,0,0,0,137,0,137,0,,,,,,,137,,,1,1339.1053541307338,Y,l,go,l,1,0.28073930251412094,,,,,,,,,,,,,,,,,,64,001,20,w,Psychologie,2023-01-25_09h05.39.438,00_bat_bachelor,2022.2.4,59.96514028821549,
,,,,,,,,,,,,0,0,0,0,138,0,138,0,,,,,,,138,,,1,1340.4896526110824,Y,None,nogo,l,0,0.529937727143988,,,,,,,,,,,,,,,,,,64,001,20,w,Psychologie,2023-01-25_09h05.39.438,00_bat_bachelor,2022.2.4,59.96514028821549,
,,,,,,,,,,,,0,0,0,0,139,0,139,0,,,,,,,139,,,1,1342.1240052732173,X,d,go,d,1,0.33329006494022906,,,,,,,,,,,,,,,,,,64,001,20,w,Psychologie,2023-01-25_09h05.39.438,00_bat_bachelor,2022.2.4,59.96514028821549,
,,,,,,,,,,,,0,0,0,0,140,0,140,0,,,,,,,140,,,1,1343.5587071231566,Y,l,go,l,1,0.4515857652295381,,,,,,,,,,,,,,,,,,64,001,20,w,Psychologie,2023-01-25_09h05.39.438,00_bat_bachelor,2022.2.4,59.96514028821549,
,,,,,,,,,,,,0,0,0,0,141,0,141,0,,,,,,,141,,,1,1345.1264964235015,Y,None,nogo,None,1,,,,,,,,,,,,,,,,,,,64,001,20,w,Psychologie,2023-01-25_09h05.39.438,00_bat_bachelor,2022.2.4,59.96514028821549,
,,,,,,,,,,,,0,0,0,0,142,0,142,0,,,,,,,142,,,1,1346.9276669442188,X,d,go,d,1,0.28194802929647267,,,,,,,,,,,,,,,,,,64,001,20,w,Psychologie,2023-01-25_09h05.39.438,00_bat_bachelor,2022.2.4,59.96514028821549,
,,,,,,,,,,,,0,0,0,0,143,0,143,0,,,,,,,143,,,1,1348.312265060842,Y,l,go,l,1,0.30606632051058114,,,,,,,,,,,,,,,,,,64,001,20,w,Psychologie,2023-01-25_09h05.39.438,00_bat_bachelor,2022.2.4,59.96514028821549,
,,,,,,,,,,,,0,0,0,0,144,0,144,0,,,,,,,144,,,1,1349.7298895856366,Y,None,nogo,None,1,,,,,,,,,,,,,,,,,,,64,001,20,w,Psychologie,2023-01-25_09h05.39.438,00_bat_bachelor,2022.2.4,59.96514028821549,
,,,,,,,,,,,,0,0,0,0,145,0,145,0,,,,,,,145,,,1,1351.5314033788163,X,d,go,d,1,0.19101716415025294,,,,,,,,,,,,,,,,,,64,001,20,w,Psychologie,2023-01-25_09h05.39.438,00_bat_bachelor,2022.2.4,59.96514028821549,
,,,,,,,,,,,,0,0,0,0,146,0,146,0,,,,,,,146,,,1,1352.832430141978,Y,l,go,None,0,,,,,,,,,,,,,,,,,,,64,001,20,w,Psychologie,2023-01-25_09h05.39.438,00_bat_bachelor,2022.2.4,59.96514028821549,
,,,,,,,,,,,,0,0,0,0,147,0,147,0,,,,,,,147,,,1,1354.6335099958815,X,d,go,d,1,0.5135968865361065,,,,,,,,,,,,,,,,,,64,001,20,w,Psychologie,2023-01-25_09h05.39.438,00_bat_bachelor,2022.2.4,59.96514028821549,
,,,,,,,,,,,,0,0,0,0,148,0,148,0,,,,,,,148,,,1,1356.2517681203317,Y,l,go,l,1,0.25419434579089284,,,,,,,,,,,,,,,,,,64,001,20,w,Psychologie,2023-01-25_09h05.39.438,00_bat_bachelor,2022.2.4,59.96514028821549,
,,,,,,,,,,,,0,0,0,0,149,0,149,0,,,,,,,149,,,1,1357.6193218815606,X,d,go,d,1,0.29567359830252826,,,,,,,,,,,,,,,,,,64,001,20,w,Psychologie,2023-01-25_09h05.39.438,00_bat_bachelor,2022.2.4,59.96514028821549,
,,,,,,,,,,,,0,0,0,0,150,0,150,0,,,,,,,150,,,1,1359.0204756264575,Y,l,go,l,1,0.2384212624747306,,,,,,,,,,,,,,,,,,64,001,20,w,Psychologie,2023-01-25_09h05.39.438,00_bat_bachelor,2022.2.4,59.96514028821549,
,,,,,,,,,,,,0,0,0,0,151,0,151,0,,,,,,,151,,,1,1360.371566365473,X,d,go,None,0,,,,,,,,,,,,,,,,,,,64,001,20,w,Psychologie,2023-01-25_09h05.39.438,00_bat_bachelor,2022.2.4,59.96514028821549,
,,,,,,,,,,,,0,0,0,0,152,0,152,0,,,,,,,152,,,1,1362.172623431543,Y,l,go,l,1,0.42991062393411994,,,,,,,,,,,,,,,,,,64,001,20,w,Psychologie,2023-01-25_09h05.39.438,00_bat_bachelor,2022.2.4,59.96514028821549,
,,,,,,,,,,,,0,0,0,0,153,0,153,0,,,,,,,153,,,1,1363.707414929755,X,d,go,None,0,,,,,,,,,,,,,,,,,,,64,001,20,w,Psychologie,2023-01-25_09h05.39.438,00_bat_bachelor,2022.2.4,59.96514028821549,
,,,,,,,,,,,,0,0,0,0,154,0,154,0,,,,,,,154,,,1,1365.5088622986805,Y,l,go,l,1,0.2466360463295132,,,,,,,,,,,,,,,,,,64,001,20,w,Psychologie,2023-01-25_09h05.39.438,00_bat_bachelor,2022.2.4,59.96514028821549,
,,,,,,,,,,,,0,0,0,0,155,0,155,0,,,,,,,155,,,1,1366.8595336438157,Y,None,nogo,l,0,0.49531422881409526,,,,,,,,,,,,,,,,,,64,001,20,w,Psychologie,2023-01-25_09h05.39.438,00_bat_bachelor,2022.2.4,59.96514028821549,
,,,,,,,,,,,,0,0,0,0,156,0,156,0,,,,,,,156,,,1,1368.4608812311199,X,d,go,d,1,0.31747867865487933,,,,,,,,,,,,,,,,,,64,001,20,w,Psychologie,2023-01-25_09h05.39.438,00_bat_bachelor,2022.2.4,59.96514028821549,
,,,,,,,,,,,,0,0,0,0,157,0,157,0,,,,,,,157,,,1,1369.8951748388354,Y,l,go,l,1,0.27433106303215027,,,,,,,,,,,,,,,,,,64,001,20,w,Psychologie,2023-01-25_09h05.39.438,00_bat_bachelor,2022.2.4,59.96514028821549,
,,,,,,,,,,,,0,0,0,0,158,0,158,0,,,,,,,158,,,1,1371.279845197685,X,d,go,d,1,0.5541946850717068,,,,,,,,,,,,,,,,,,64,001,20,w,Psychologie,2023-01-25_09h05.39.438,00_bat_bachelor,2022.2.4,59.96514028821549,
,,,,,,,,,,,,0,0,0,0,159,0,159,0,,,,,,,159,,,1,1372.947625237517,Y,l,go,l,1,0.39088179473765194,,,,,,,,,,,,,,,,,,64,001,20,w,Psychologie,2023-01-25_09h05.39.438,00_bat_bachelor,2022.2.4,59.96514028821549,
,,,,,,,,,,,,0,0,0,0,160,0,160,0,,,,,,,160,,,1,1374.449236630695,X,d,go,d,1,0.24943216610699892,,,,,,,,,,,,,,,,,,64,001,20,w,Psychologie,2023-01-25_09h05.39.438,00_bat_bachelor,2022.2.4,59.96514028821549,
,,,,,,,,,,,,0,0,0,0,161,0,161,0,,,,,,,161,,,1,1375.800287127262,X,None,nogo,None,1,,,,,1376.6008908601943,,,,,,,,,,,,,,64,001,20,w,Psychologie,2023-01-25_09h05.39.438,00_bat_bachelor,2022.2.4,59.96514028821549,
,,,,,,,,,,,,0,0,0,0,162,0,162,0,,,,,,,162,,,1,1377.60160795087,Y,l,go,l,1,0.2326753258239478,,,,,,,,,,,,,,,,,,64,001,20,w,Psychologie,2023-01-25_09h05.39.438,00_bat_bachelor,2022.2.4,59.96514028821549,
,,,,,,,,,,,,0,0,0,0,163,0,163,0,,,,,,,163,,,1,1378.9359384553973,X,d,go,d,1,0.5152080373372883,,,,,,,,,,,,,,,,,,64,001,20,w,Psychologie,2023-01-25_09h05.39.438,00_bat_bachelor,2022.2.4,59.96514028821549,
,,,,,,,,,,,,0,0,0,0,164,0,164,0,,,,,,,164,,,1,1380.553910519462,Y,l,go,l,1,0.27246585208922625,,,,,,,,,,,,,,,,,,64,001,20,w,Psychologie,2023-01-25_09h05.39.438,00_bat_bachelor,2022.2.4,59.96514028821549,
,,,,,,,,,,,,0,0,0,0,165,0,165,0,,,,,,,165,,,1,1381.9382031816058,X,d,go,d,1,0.3923906423151493,,,,,,,,,,,,,,,,,,64,001,20,w,Psychologie,2023-01-25_09h05.39.438,00_bat_bachelor,2022.2.4,59.96514028821549,
,,,,,,,,,,,,0,0,0,0,166,0,166,0,,,,,,,166,,,1,1383.4388337268028,Y,l,go,l,1,0.2676716723944992,,,,,,,,,,,,,,,,,,64,001,20,w,Psychologie,2023-01-25_09h05.39.438,00_bat_bachelor,2022.2.4,59.96514028821549,
,,,,,,,,,,,,0,0,0,0,167,0,167,0,,,,,,,167,,,1,1384.8231981464196,X,d,go,d,1,0.4033773036208004,,,,,,,,,,,,,,,,,,64,001,20,w,Psychologie,2023-01-25_09h05.39.438,00_bat_bachelor,2022.2.4,59.96514028821549,
,,,,,,,,,,,,0,0,0,0,168,0,168,0,,,,,,,168,,,1,1386.3411508649588,X,None,nogo,None,1,,,,,,,,,,,,,,,,,,,64,001,20,w,Psychologie,2023-01-25_09h05.39.438,00_bat_bachelor,2022.2.4,59.96514028821549,
,,,,,,,,,,,,0,0,0,0,169,0,169,0,,,,,,,169,,,1,1388.1426646581385,Y,l,go,l,1,0.31541370996274054,,,,,,,,,,,,,,,,,,64,001,20,w,Psychologie,2023-01-25_09h05.39.438,00_bat_bachelor,2022.2.4,59.96514028821549,
,,,,,,,,,,,,0,0,0,0,170,0,170,0,,,,,,,170,,,1,1389.5603973041289,X,d,go,d,1,0.4494369176682085,,,,,,,,,,,,,,,,,,64,001,20,w,Psychologie,2023-01-25_09h05.39.438,00_bat_bachelor,2022.2.4,59.96514028821549,
,,,,,,,,,,,,0,0,0,0,171,0,171,0,,,,,,,171,,,1,1391.11156067322,Y,l,go,l,1,0.2584925254341215,,,,,,,,,,,,,,,,,,64,001,20,w,Psychologie,2023-01-25_09h05.39.438,00_bat_bachelor,2022.2.4,59.96514028821549,
,,,,,,,,,,,,0,0,0,0,172,0,172,0,,,,,,,172,,,1,1392.4791042525321,Y,None,nogo,None,1,,,,,,,,,,,,,,,,,,,64,001,20,w,Psychologie,2023-01-25_09h05.39.438,00_bat_bachelor,2022.2.4,59.96514028821549,
,,,,,,,,,,,,0,0,0,0,173,0,173,0,,,,,,,173,,,1,1394.2806204701774,X,d,go,d,1,0.19493861682713032,,,,,,,,,,,,,,,,,,64,001,20,w,Psychologie,2023-01-25_09h05.39.438,00_bat_bachelor,2022.2.4,59.96514028821549,
,,,,,,,,,,,,0,0,0,0,174,0,174,0,,,,,,,174,,,1,1395.581380566582,Y,l,go,l,1,0.38103646598756313,,,,,,,,,,,,,,,,,,64,001,20,w,Psychologie,2023-01-25_09h05.39.438,00_bat_bachelor,2022.2.4,59.96514028821549,
,,,,,,,,,,,,0,0,0,0,175,0,175,0,,,,,,,175,,,1,1397.0660853013396,X,d,go,d,1,0.44884782703593373,,,,,,,,,,,,,,,,,,64,001,20,w,Psychologie,2023-01-25_09h05.39.438,00_bat_bachelor,2022.2.4,59.96514028821549,
,,,,,,,,,,,,0,0,0,0,176,0,176,0,,,,,,,176,,,1,1398.6171754584648,Y,l,go,l,1,0.2104358214419335,,,,,,,,,,,,,,,,,,64,001,20,w,Psychologie,2023-01-25_09h05.39.438,00_bat_bachelor,2022.2.4,59.96514028821549,
,,,,,,,,,,,,0,0,0,0,177,0,177,0,,,,,,,177,,,1,1399.9347127589863,Y,None,nogo,None,1,,,,,1400.7353155224118,,,,,,,,,,,,,,64,001,20,w,Psychologie,2023-01-25_09h05.39.438,00_bat_bachelor,2022.2.4,59.96514028821549,
,,,,,,,,,,,,0,0,0,0,178,0,178,0,,,,,,,178,,,1,1401.736420006724,X,d,go,d,1,0.6579822711646557,,,,,,,,,,,,,,,,,,64,001,20,w,Psychologie,2023-01-25_09h05.39.438,00_bat_bachelor,2022.2.4,59.96514028821549,
,,,,,,,,,,,,0,0,0,0,179,0,179,0,,,,,,,179,,,1,1403.504370664712,Y,l,go,None,0,,,,,,,,,,,,,,,,,,,64,001,20,w,Psychologie,2023-01-25_09h05.39.438,00_bat_bachelor,2022.2.4,59.96514028821549,
,,,,,,,,,,,,0,0,0,0,180,0,180,0,,,,,,,180,,,1,1405.3056192458607,X,d,go,d,1,0.4808555692434311,,,,,,,,,,,,,,,,,,64,001,20,w,Psychologie,2023-01-25_09h05.39.438,00_bat_bachelor,2022.2.4,59.96514028821549,
,,,,,,,,,,,,0,0,0,0,181,0,181,0,,,,,,,181,,,1,1406.890271568438,Y,l,go,l,1,0.272358700633049,,,,,,,,,,,,,,,,,,64,001,20,w,Psychologie,2023-01-25_09h05.39.438,00_bat_bachelor,2022.2.4,59.96514028821549,
,,,,,,,,,,,,0,0,0,0,182,0,182,0,,,,,,,182,,,1,1408.2745855639223,X,d,go,d,1,0.21615218231454492,,,,,,,,,,,,,,,,,,64,001,20,w,Psychologie,2023-01-25_09h05.39.438,00_bat_bachelor,2022.2.4,59.96514028821549,
,,,,,,,,,,,,0,0,0,0,183,0,183,0,,,,,,,183,,,1,1409.5926697733812,X,None,nogo,None,1,,,,,1410.3930713245645,,,,,,,,,,,,,,64,001,20,w,Psychologie,2023-01-25_09h05.39.438,00_bat_bachelor,2022.2.4,59.96514028821549,
,,,,,,,,,,,,0,0,0,0,184,0,184,0,,,,,,,184,,,1,1411.3938621121924,Y,l,go,l,1,0.23262344719842076,,,,,,,,,,,,,,,,,,64,001,20,w,Psychologie,2023-01-25_09h05.39.438,00_bat_bachelor,2022.2.4,59.96514028821549,
,,,,,,,,,,,,0,0,0,0,185,0,185,0,,,,,,,185,,,1,1412.7284583135042,X,d,go,d,1,0.27400427544489503,,,,,,,,,,,,,,,,,,64,001,20,w,Psychologie,2023-01-25_09h05.39.438,00_bat_bachelor,2022.2.4,59.96514028821549,
,,,,,,,,,,,,0,0,0,0,186,0,186,0,,,,,,,186,,,1,1414.1127815211657,Y,l,go,l,1,0.3452260592021048,,,,,,,,,,,,,,,,,,64,001,20,w,Psychologie,2023-01-25_09h05.39.438,00_bat_bachelor,2022.2.4,59.96514028821549,
,,,,,,,,,,,,0,0,0,0,187,0,187,0,,,,,,,187,,,1,1415.5638673631474,Y,None,nogo,None,1,,,,,1416.3643232174218,,,,,,,,,,,,,,64,001,20,w,Psychologie,2023-01-25_09h05.39.438,00_bat_bachelor,2022.2.4,59.96514028821549,
,,,,,,,,,,,,0,0,0,0,188,0,188,0,,,,,,,188,,,1,1417.364663095912,X,d,go,d,1,0.27824233402498066,,,,,,,,,,,,,,,,,,64,001,20,w,Psychologie,2023-01-25_09h05.39.438,00_bat_bachelor,2022.2.4,59.96514028821549,
,,,,,,,,,,,,0,0,0,0,189,0,189,0,,,,,,,189,,,1,1418.7493901820853,Y,l,go,l,1,0.3327480044681579,,,,,,,,,,,,,,,,,,64,001,20,w,Psychologie,2023-01-25_09h05.39.438,00_bat_bachelor,2022.2.4,59.96514028821549,
,,,,,,,,,,,,0,0,0,0,190,0,190,0,,,,,,,190,,,1,1420.183853971539,Y,None,nogo,d,0,0.19496625335887074,,,,,,,,,,,,,,,,,,64,001,20,w,Psychologie,2023-01-25_09h05.39.438,00_bat_bachelor,2022.2.4,59.96514028821549,
,,,,,,,,,,,,0,0,0,0,191,0,191,0,,,,,,,191,,,1,1421.484705219511,Y,None,nogo,None,1,,,,,1422.2852522253525,,,,,,,,,,,,,,64,001,20,w,Psychologie,2023-01-25_09h05.39.438,00_bat_bachelor,2022.2.4,59.96514028821549,
,,,,,,,,,,,,0,0,0,0,192,0,192,0,,,,,,,192,,,1,1423.2858776797075,X,d,go,d,1,0.29314026632346213,,,,,,,,,,,,,,,,,,64,001,20,w,Psychologie,2023-01-25_09h05.39.438,00_bat_bachelor,2022.2.4,59.96514028821549,
,,,,,,,,,,,,0,0,0,0,193,0,193,0,,,,,,,193,,,1,1424.687167182099,Y,l,go,l,1,0.5715066767297685,,,,,,,,,,,,,,,,,,64,001,20,w,Psychologie,2023-01-25_09h05.39.438,00_bat_bachelor,2022.2.4,59.96514028821549,
,,,,,,,,,,,,0,0,0,0,194,0,194,0,,,,,,,194,,,1,1426.371793274302,X,d,go,d,1,0.406550150597468,,,,,,,,,,,,,,,,,,64,001,20,w,Psychologie,2023-01-25_09h05.39.438,00_bat_bachelor,2022.2.4,59.96514028821549,
,,,,,,,,,,,,0,0,0,0,195,0,195,0,,,,,,,195,,,1,1427.8895476900507,X,None,nogo,None,1,,,,,,,,,,,,,,,,,,,64,001,20,w,Psychologie,2023-01-25_09h05.39.438,00_bat_bachelor,2022.2.4,59.96514028821549,
,,,,,,,,,,,,0,0,0,0,196,0,196,0,,,,,,,196,,,1,1429.6909979679622,Y,l,go,l,1,0.24006974650546908,,,,,,,,,,,,,,,,,,64,001,20,w,Psychologie,2023-01-25_09h05.39.438,00_bat_bachelor,2022.2.4,59.96514028821549,
,,,,,,,,,,,,0,0,0,0,197,0,197,0,,,,,,,197,,,1,1431.0417570706923,X,d,go,d,1,0.47184660378843546,,,,,,,,,,,,,,,,,,64,001,20,w,Psychologie,2023-01-25_09h05.39.438,00_bat_bachelor,2022.2.4,59.96514028821549,
,,,,,,,,,,,,0,0,0,0,198,0,198,0,,,,,,,198,,,1,1432.626588787185,Y,l,go,l,1,0.31266122637316585,,,,,,,,,,,,,,,,,,64,001,20,w,Psychologie,2023-01-25_09h05.39.438,00_bat_bachelor,2022.2.4,59.96514028821549,
,,,,,,,,,,,,0,0,0,0,199,0,199,0,,,,,,,199,,,1,1434.044255008921,X,d,go,d,1,0.4625103659927845,,,,,,,,,,,,,,,,,,64,001,20,w,Psychologie,2023-01-25_09h05.39.438,00_bat_bachelor,2022.2.4,59.96514028821549,
,,,,,,,,,,,,0,0,0,0,200,0,200,0,,,,,,,200,,,1,1435.6121175214648,Y,l,go,l,1,0.25448089092969894,,,,,,,,,,,,,,,,,,64,001,20,w,Psychologie,2023-01-25_09h05.39.438,00_bat_bachelor,2022.2.4,59.96514028821549,
,,,,,,,,,,,,0,0,0,0,201,0,201,0,,,,,,,201,,,1,1436.9795980704948,Y,None,nogo,None,1,,,,,,,,,,,,,,,,,,,64,001,20,w,Psychologie,2023-01-25_09h05.39.438,00_bat_bachelor,2022.2.4,59.96514028821549,
,,,,,,,,,,,,0,0,0,0,202,0,202,0,,,,,,,202,,,1,1438.7812907728367,Y,None,nogo,d,0,0.2367975057568401,,,,,,,,,,,,,,,,,,64,001,20,w,Psychologie,2023-01-25_09h05.39.438,00_bat_bachelor,2022.2.4,59.96514028821549,
,,,,,,,,,,,,0,0,0,0,203,0,203,0,,,,,,,203,,,1,1440.132301996462,X,d,go,d,1,0.3431698177009821,,,,,,,,,,,,,,,,,,64,001,20,w,Psychologie,2023-01-25_09h05.39.438,00_bat_bachelor,2022.2.4,59.96514028821549,
,,,,,,,,,,,,0,0,0,0,204,0,204,0,,,,,,,204,,,1,1441.5833277171478,Y,l,go,l,1,0.6664869941305369,,,,,,,,,,,,,,,,,,64,001,20,w,Psychologie,2023-01-25_09h05.39.438,00_bat_bachelor,2022.2.4,59.96514028821549,
,,,,,,,,,,,,0,0,0,0,205,0,205,0,,,,,,,205,,,1,1443.351141163148,Y,None,nogo,None,1,,,,,,,,,,,,,,,,,,,64,001,20,w,Psychologie,2023-01-25_09h05.39.438,00_bat_bachelor,2022.2.4,59.96514028821549,
,,,,,,,,,,,,0,0,0,0,206,0,206,0,,,,,,,206,,,1,1445.1527664714959,X,d,go,d,1,0.31465249811299145,,,,,,,,,,,,,,,,,,64,001,20,w,Psychologie,2023-01-25_09h05.39.438,00_bat_bachelor,2022.2.4,59.96514028821549,
,,,,,,,,,,,,0,0,0,0,207,0,207,0,,,,,,,207,,,1,1446.570441905409,Y,l,go,l,1,0.3842762219719589,,,,,,,,,,,,,,,,,,64,001,20,w,Psychologie,2023-01-25_09h05.39.438,00_bat_bachelor,2022.2.4,59.96514028821549,
,,,,,,,,,,,,0,0,0,0,208,0,208,0,,,,,,,208,,,1,1448.0716174198315,X,d,go,d,1,0.33868739544413984,,,,,,,,,,,,,,,,,,64,001,20,w,Psychologie,2023-01-25_09h05.39.438,00_bat_bachelor,2022.2.4,59.96514028821549,
,,,,,,,,,,,,0,0,0,0,209,0,209,0,,,,,,,209,,,1,1449.523596352199,Y,l,go,l,1,0.3260779471602291,,,,,,,,,,,,,,,,,,64,001,20,w,Psychologie,2023-01-25_09h05.39.438,00_bat_bachelor,2022.2.4,59.96514028821549,
,,,,,,,,,,,,0,0,0,0,210,0,210,0,,,,,,,210,,,1,1450.9744082549587,Y,None,nogo,None,1,,,,,1451.7752679877449,,,,,,,,,,,,,,64,001,20,w,Psychologie,2023-01-25_09h05.39.438,00_bat_bachelor,2022.2.4,59.96514028821549,
,,,,,,,,,,,,0,0,0,0,211,0,211,0,,,,,,,211,,,1,1452.775939017767,X,d,go,d,1,0.22533714747987688,,,,,,,,,,,,,,,,,,64,001,20,w,Psychologie,2023-01-25_09h05.39.438,00_bat_bachelor,2022.2.4,59.96514028821549,
,,,,,,,,,,,,0,0,0,0,212,0,212,0,,,,,,,212,,,1,1454.1268232113216,Y,l,go,l,1,0.37888664891943336,,,,,,,,,,,,,,,,,,64,001,20,w,Psychologie,2023-01-25_09h05.39.438,00_bat_bachelor,2022.2.4,59.96514028821549,
,,,,,,,,,,,,0,0,0,0,213,0,213,0,,,,,,,213,,,1,1455.6115090369713,X,d,go,d,1,0.43033971497789025,,,,,,,,,,,,,,,,,,64,001,20,w,Psychologie,2023-01-25_09h05.39.438,00_bat_bachelor,2022.2.4,59.96514028821549,
,,,,,,,,,,,,0,0,0,0,214,0,214,0,,,,,,,214,,,1,1457.1626244061626,X,None,nogo,None,1,,,,,1457.9630060784984,,,,,,,,,,,,,,64,001,20,w,Psychologie,2023-01-25_09h05.39.438,00_bat_bachelor,2022.2.4,59.96514028821549,
,,,,,,,,,,,,0,0,0,0,215,0,215,0,,,,,,,215,,,1,1458.9638167449739,Y,l,go,l,1,0.21475533465854824,,,,,,,,,,,,,,,,,,64,001,20,w,Psychologie,2023-01-25_09h05.39.438,00_bat_bachelor,2022.2.4,59.96514028821549,
,,,,,,,,,,,,0,0,0,0,216,0,216,0,,,,,,,216,,,1,1460.2819741663989,X,d,go,d,1,0.351706056157127,,,,,,,,,,,,,,,,,,64,001,20,w,Psychologie,2023-01-25_09h05.39.438,00_bat_bachelor,2022.2.4,59.96514028821549,
,,,,,,,,,,,,0,0,0,0,217,0,217,0,,,,,,,217,,,1,1461.7661746589001,Y,l,go,l,1,0.6440613081213087,,,,,,,,,,,,,,,,,,64,001,20,w,Psychologie,2023-01-25_09h05.39.438,00_bat_bachelor,2022.2.4,59.96514028821549,
,,,,,,,,,,,,0,0,0,0,218,0,218,0,,,,,,,218,,,1,1463.5506717329845,Y,None,nogo,None,1,,,,,1464.3514742539264,,,,,,,,,,,,,,64,001,20,w,Psychologie,2023-01-25_09h05.39.438,00_bat_bachelor,2022.2.4,59.96514028821549,
,,,,,,,,,,,,0,0,0,0,219,0,219,0,,,,,,,219,,,1,1465.3522592231166,X,d,go,d,1,0.19382686004973948,,,,,,,,,,,,,,,,,,64,001,20,w,Psychologie,2023-01-25_09h05.39.438,00_bat_bachelor,2022.2.4,59.96514028821549,
,,,,,,,,,,,,0,0,0,0,220,0,220,0,,,,,,,220,,,1,1466.6696680390742,Y,l,go,l,1,0.3160692248493433,,,,,,,,,,,,,,,,,,64,001,20,w,Psychologie,2023-01-25_09h05.39.438,00_bat_bachelor,2022.2.4,59.96514028821549,
,,,,,,,,,,,,0,0,0,0,221,0,221,0,,,,,,,221,,,1,1468.120871214196,Y,None,nogo,d,0,0.20950539782643318,,,,,,,,,,,,,,,,,,64,001,20,w,Psychologie,2023-01-25_09h05.39.438,00_bat_bachelor,2022.2.4,59.96514028821549,
,,,,,,,,,,,,0,0,0,0,222,0,222,0,,,,,,,222,,,1,1469.4551726279315,X,d,go,d,1,0.28274027118459344,,,,,,,,,,,,,,,,,,64,001,20,w,Psychologie,2023-01-25_09h05.39.438,00_bat_bachelor,2022.2.4,59.96514028821549,
,,,,,,,,,,,,0,0,0,0,223,0,223,0,,,,,,,223,,,1,1470.8730890313163,Y,l,go,l,1,0.6410213096532971,,,,,,,,,,,,,,,,,,64,001,20,w,Psychologie,2023-01-25_09h05.39.438,00_bat_bachelor,2022.2.4,59.96514028821549,
,,,,,,,,,,,,0,0,0,0,224,0,224,0,,,,,,,224,,,1,1472.6408801742364,X,d,go,d,1,0.520333853084594,,,,,,,,,,,,,,,,,,64,001,20,w,Psychologie,2023-01-25_09h05.39.438,00_bat_bachelor,2022.2.4,59.96514028821549,
,,,,,,,,,,,,0,0,0,0,225,0,225,0,,,,,,,225,,,1,1474.2923402220476,Y,l,go,l,1,0.42138068890199065,,,,,,,,,,,,,,,,,,64,001,20,w,Psychologie,2023-01-25_09h05.39.438,00_bat_bachelor,2022.2.4,59.96514028821549,
,,,,,,,,,,,,0,0,0,0,226,0,226,0,,,,,,,226,,,1,1475.8435855305288,X,d,go,d,1,0.3106132273096591,,,,,,,,,,,,,,,,,,64,001,20,w,Psychologie,2023-01-25_09h05.39.438,00_bat_bachelor,2022.2.4,59.96514028821549,
,,,,,,,,,,,,0,0,0,0,227,0,227,0,,,,,,,227,,,1,1477.2777365925722,Y,l,go,l,1,0.3809390114620328,,,,,,,,,,,,,,,,,,64,001,20,w,Psychologie,2023-01-25_09h05.39.438,00_bat_bachelor,2022.2.4,59.96514028821549,
,,,,,,,,,,,,0,0,0,0,228,0,228,0,,,,,,,228,,,1,1478.7785523498897,X,d,go,d,1,0.3509647229220718,,,,,,,,,,,,,,,,,,64,001,20,w,Psychologie,2023-01-25_09h05.39.438,00_bat_bachelor,2022.2.4,59.96514028821549,
,,,,,,,,,,,,0,0,0,0,229,0,229,0,,,,,,,229,,,1,1480.2630190241616,X,None,nogo,None,1,,,,,1481.06375318137,,,,,,,,,,,,,,64,001,20,w,Psychologie,2023-01-25_09h05.39.438,00_bat_bachelor,2022.2.4,59.96514028821549,
,,,,,,,,,,,,0,0,0,0,230,0,230,0,,,,,,,230,,,1,1482.064354877919,Y,l,go,l,1,0.34646484651602805,,,,,,,,,,,,,,,,,,64,001,20,w,Psychologie,2023-01-25_09h05.39.438,00_bat_bachelor,2022.2.4,59.96514028821549,
,,,,,,,,,,,,0,0,0,0,231,0,231,0,,,,,,,231,,,1,1483.5154489623383,X,d,go,d,1,0.31895116274245083,,,,,,,,,,,,,,,,,,64,001,20,w,Psychologie,2023-01-25_09h05.39.438,00_bat_bachelor,2022.2.4,59.96514028821549,
,,,,,,,,,,,,0,0,0,0,232,0,232,0,,,,,,,232,,,1,1484.949941842584,X,None,nogo,None,1,,,,,,,,,,,,,,,,,,,64,001,20,w,Psychologie,2023-01-25_09h05.39.438,00_bat_bachelor,2022.2.4,59.96514028821549,
,,,,,,,,,,,,0,0,0,0,233,0,233,0,,,,,,,233,,,1,1486.751255393494,Y,l,go,l,1,0.3479029063601047,,,,,,,,,,,,,,,,,,64,001,20,w,Psychologie,2023-01-25_09h05.39.438,00_bat_bachelor,2022.2.4,59.96514028821549,
,,,,,,,,,,,,0,0,0,0,234,0,234,0,,,,,,,234,,,1,1488.20236208383,X,d,go,d,1,0.31992328353226185,,,,,,,,,,,,,,,,,,64,001,20,w,Psychologie,2023-01-25_09h05.39.438,00_bat_bachelor,2022.2.4,59.96514028821549,
,,,,,,,,,,,,0,0,0,0,235,0,235,0,,,,,,,235,,,1,1489.6367570245638,Y,l,go,l,1,0.6465757312253118,,,,,,,,,,,,,,,,,,64,001,20,w,Psychologie,2023-01-25_09h05.39.438,00_bat_bachelor,2022.2.4,59.96514028821549,
,,,,,,,,,,,,0,0,0,0,236,0,236,0,,,,,,,236,,,1,1491.3879799330607,Y,None,nogo,None,1,,,,,1492.188800393371,,,,,,,,,,,,,,64,001,20,w,Psychologie,2023-01-25_09h05.39.438,00_bat_bachelor,2022.2.4,59.96514028821549,
,,,,,,,,,,,,0,0,0,0,237,0,237,0,,,,,,,237,,,1,1493.1895654839464,X,d,go,d,1,0.2779989403206855,,,,,,,,,,,,,,,,,,64,001,20,w,Psychologie,2023-01-25_09h05.39.438,00_bat_bachelor,2022.2.4,59.96514028821549,
,,,,,,,,,,,,0,0,0,0,238,0,238,0,,,,,,,238,,,1,1494.5739090552088,Y,l,go,l,1,0.5406392975710332,,,,,,,,,,,,,,,,,,64,001,20,w,Psychologie,2023-01-25_09h05.39.438,00_bat_bachelor,2022.2.4,59.96514028821549,
,,,,,,,,,,,,0,0,0,0,239,0,239,0,,,,,,,239,,,1,1496.2249855878763,X,d,go,d,1,0.3454185437876731,,,,,,,,,,,,,,,,,,64,001,20,w,Psychologie,2023-01-25_09h05.39.438,00_bat_bachelor,2022.2.4,59.96514028821549,
,,,,,,,,,,,,0,0,0,0,240,0,240,0,,,,,,,240,,,1,1497.6761092480738,Y,l,go,l,1,0.3979542760644108,,,,,,,,,,,,,,,,,,64,001,20,w,Psychologie,2023-01-25_09h05.39.438,00_bat_bachelor,2022.2.4,59.96514028821549,
,,,,,,,,,,,,0,0,0,0,241,0,241,0,,,,,,,241,,,1,1499.1774583382066,X,d,go,d,1,0.273038457846269,,,,,,,,,,,,,,,,,,64,001,20,w,Psychologie,2023-01-25_09h05.39.438,00_bat_bachelor,2022.2.4,59.96514028821549,
,,,,,,,,,,,,0,0,0,0,242,0,242,0,,,,,,,242,,,1,1500.5617277277634,Y,l,go,l,1,0.5524933526758105,,,,,,,,,,,,,,,,,,64,001,20,w,Psychologie,2023-01-25_09h05.39.438,00_bat_bachelor,2022.2.4,59.96514028821549,
,,,,,,,,,,,,0,0,0,0,243,0,243,0,,,,,,,243,,,1,1502.22979576746,X,d,go,d,1,0.40508154523558915,,,,,,,,,,,,,,,,,,64,001,20,w,Psychologie,2023-01-25_09h05.39.438,00_bat_bachelor,2022.2.4,59.96514028821549,
,,,,,,,,,,,,0,0,0,0,244,0,244,0,,,,,,,244,,,1,1503.7477256981656,Y,l,go,l,1,0.3429938177578151,,,,,,,,,,,,,,,,,,64,001,20,w,Psychologie,2023-01-25_09h05.39.438,00_bat_bachelor,2022.2.4,59.96514028821549,
,,,,,,,,,,,,0,0,0,0,245,0,245,0,,,,,,,245,,,1,1505.1989802671596,Y,None,nogo,l,0,0.6352152519393712,,,,,,,,,,,,,,,,,,64,001,20,w,Psychologie,2023-01-25_09h05.39.438,00_bat_bachelor,2022.2.4,59.96514028821549,
,,,,,,,,,,,,0,0,0,0,246,0,246,0,,,,,,,246,,,1,1506.950056266738,Y,None,nogo,d,0,0.5330441498663276,,,,,,,,,,,,,,,,,,64,001,20,w,Psychologie,2023-01-25_09h05.39.438,00_bat_bachelor,2022.2.4,59.96514028821549,
,,,,,,,,,,,,0,0,0,0,247,0,247,0,,,,,,,247,,,1,1508.5845233530272,X,d,go,d,1,0.3222200097516179,,,,,,,,,,,,,,,,,,64,001,20,w,Psychologie,2023-01-25_09h05.39.438,00_bat_bachelor,2022.2.4,59.96514028821549,
,,,,,,,,,,,,0,0,0,0,248,0,248,0,,,,,,,248,,,1,1510.0185692030936,Y,l,go,l,1,0.4398291646502912,,,,,,,,,,,,,,,,,,64,001,20,w,Psychologie,2023-01-25_09h05.39.438,00_bat_bachelor,2022.2.4,59.96514028821549,
,,,,,,,,,,,,0,0,0,0,249,0,249,0,,,,,,,249,,,1,1511.5700399661437,X,d,go,d,1,0.5835250951349735,,,,,,,,,,,,,,,,,,64,001,20,w,Psychologie,2023-01-25_09h05.39.438,00_bat_bachelor,2022.2.4,59.96514028821549,
,,,,,,,,,,,,1,0,1,0,0,0,0,0,,,,,,,0,,,0.2,1544.7285378286615,X,d,go,d,1,0.5308458479121327,,,,,,,,,1512.257337572286,space,32.25298707350157,,,,,,,64,001,20,w,Psychologie,2023-01-25_09h05.39.438,00_bat_bachelor,2022.2.4,59.96514028821549,
,,,,,,,,,,,,1,0,1,0,1,0,1,0,,,,,,,1,,,0.2,1545.5623619093094,Y,l,go,l,1,0.31993298046290874,,,,,,,,,,,,,,,,,,64,001,20,w,Psychologie,2023-01-25_09h05.39.438,00_bat_bachelor,2022.2.4,59.96514028821549,
,,,,,,,,,,,,1,0,1,0,2,0,2,0,,,,,,,2,,,0.2,1546.1963868138846,X,d,go,d,1,0.5332802708726376,,,,,,,,,,,,,,,,,,64,001,20,w,Psychologie,2023-01-25_09h05.39.438,00_bat_bachelor,2022.2.4,59.96514028821549,
,,,,,,,,,,,,1,0,1,0,3,0,3,0,,,,,,,3,,,0.2,1547.0303495610133,X,None,nogo,d,0,0.40399306104518473,,,,,,,,,,,,,,,,,,64,001,20,w,Psychologie,2023-01-25_09h05.39.438,00_bat_bachelor,2022.2.4,59.96514028821549,
,,,,,,,,,,,,1,0,1,0,4,0,4,0,,,,,,,4,,,0.2,1547.7472956378479,Y,l,go,l,1,0.37485028710216284,,,,,,,,,,,,,,,,,,64,001,20,w,Psychologie,2023-01-25_09h05.39.438,00_bat_bachelor,2022.2.4,59.96514028821549,
,,,,,,,,,,,,1,0,1,0,5,0,5,0,,,,,,,5,,,0.2,1548.431223548483,X,d,go,d,1,0.47503254166804254,,,,,,,,,,,,,,,,,,64,001,20,w,Psychologie,2023-01-25_09h05.39.438,00_bat_bachelor,2022.2.4,59.96514028821549,
,,,,,,,,,,,,1,0,1,0,6,0,6,0,,,,,,,6,,,0.2,1549.215381713817,Y,l,go,l,1,0.3470340580679476,,,,,,,,,,,,,,,,,,64,001,20,w,Psychologie,2023-01-25_09h05.39.438,00_bat_bachelor,2022.2.4,59.96514028821549,
,,,,,,,,,,,,1,0,1,0,7,0,7,0,,,,,,,7,,,0.2,1549.8656189742032,X,d,go,d,1,0.5132700987160206,,,,,,,,,,,,,,,,,,64,001,20,w,Psychologie,2023-01-25_09h05.39.438,00_bat_bachelor,2022.2.4,59.96514028821549,
,,,,,,,,,,,,1,0,1,0,8,0,8,0,,,,,,,8,,,0.2,1550.6831075476948,Y,l,go,l,1,0.3833957377355546,,,,,,,,,,,,,,,,,,64,001,20,w,Psychologie,2023-01-25_09h05.39.438,00_bat_bachelor,2022.2.4,59.96514028821549,
,,,,,,,,,,,,1,0,1,0,9,0,9,0,,,,,,,9,,,0.2,1551.3671382463071,X,d,go,d,1,0.3717642279807478,,,,,,,,,,,,,,,,,,64,001,20,w,Psychologie,2023-01-25_09h05.39.438,00_bat_bachelor,2022.2.4,59.96514028821549,
,,,,,,,,,,,,1,0,1,0,10,0,10,0,,,,,,,10,,,0.2,1552.0509153692983,Y,l,go,l,1,0.26439361344091594,,,,,,,,,,,,,,,,,,64,001,20,w,Psychologie,2023-01-25_09h05.39.438,00_bat_bachelor,2022.2.4,59.96514028821549,
,,,,,,,,,,,,1,0,1,0,11,0,11,0,,,,,,,11,,,0.2,1552.6178809124976,Y,None,nogo,None,1,,,,,,,,,,,,,,,,,,,64,001,20,w,Psychologie,2023-01-25_09h05.39.438,00_bat_bachelor,2022.2.4,59.96514028821549,
,,,,,,,,,,,,1,0,1,0,12,0,12,0,,,,,,,12,,,0.2,1553.6184152152855,X,d,go,d,1,0.5520070497877896,,,,,,,,,,,,,,,,,,64,001,20,w,Psychologie,2023-01-25_09h05.39.438,00_bat_bachelor,2022.2.4,59.96514028821549,
,,,,,,,,,,,,1,0,1,0,13,0,13,0,,,,,,,13,,,0.2,1554.4857389160898,Y,l,go,l,1,0.3720633795019239,,,,,,,,,,,,,,,,,,64,001,20,w,Psychologie,2023-01-25_09h05.39.438,00_bat_bachelor,2022.2.4,59.96514028821549,
,,,,,,,,,,,,1,0,1,0,14,0,14,0,,,,,,,14,,,0.2,1555.169762342004,X,d,go,d,1,0.28088087821379304,,,,,,,,,,,,,,,,,,64,001,20,w,Psychologie,2023-01-25_09h05.39.438,00_bat_bachelor,2022.2.4,59.96514028821549,
,,,,,,,,,,,,1,0,1,0,15,0,15,0,,,,,,,15,,,0.2,1555.7534803620074,Y,l,go,l,1,0.3207969800569117,,,,,,,,,,,,,,,,,,64,001,20,w,Psychologie,2023-01-25_09h05.39.438,00_bat_bachelor,2022.2.4,59.96514028821549,
,,,,,,,,,,,,1,0,1,0,16,0,16,0,,,,,,,16,,,0.2,1556.3871639335994,X,d,go,d,1,0.5673423151019961,,,,,,,,,,,,,,,,,,64,001,20,w,Psychologie,2023-01-25_09h05.39.438,00_bat_bachelor,2022.2.4,59.96514028821549,
,,,,,,,,,,,,1,0,1,0,17,0,17,0,,,,,,,17,,,0.2,1557.2545191494282,Y,l,go,l,1,0.3872953720856458,,,,,,,,,,,,,,,,,,64,001,20,w,Psychologie,2023-01-25_09h05.39.438,00_bat_bachelor,2022.2.4,59.96514028821549,
,,,,,,,,,,,,1,0,1,0,18,0,18,0,,,,,,,18,,,0.2,1557.9553493550047,X,d,go,d,1,0.519160520285368,,,,,,,,,,,,,,,,,,64,001,20,w,Psychologie,2023-01-25_09h05.39.438,00_bat_bachelor,2022.2.4,59.96514028821549,
,,,,,,,,,,,,1,0,1,0,19,0,19,0,,,,,,,19,,,0.2,1558.789361556759,Y,l,go,l,1,0.3574088409077376,,,,,,,,,,,,,,,,,,64,001,20,w,Psychologie,2023-01-25_09h05.39.438,00_bat_bachelor,2022.2.4,59.96514028821549,
,,,,,,,,,,,,1,0,1,0,20,0,20,0,,,,,,,20,,,0.2,1559.4564982028678,X,d,go,d,1,0.5054698602762073,,,,,,,,,,,,,,,,,,64,001,20,w,Psychologie,2023-01-25_09h05.39.438,00_bat_bachelor,2022.2.4,59.96514028821549,
,,,,,,,,,,,,1,0,1,0,21,0,21,0,,,,,,,21,,,0.2,1560.27378556435,Y,l,go,l,1,0.31245516589842737,,,,,,,,,,,,,,,,,,64,001,20,w,Psychologie,2023-01-25_09h05.39.438,00_bat_bachelor,2022.2.4,59.96514028821549,
,,,,,,,,,,,,1,0,1,0,22,0,22,0,,,,,,,22,,,0.2,1560.8907729014754,Y,None,nogo,d,0,0.28811917756684124,,,,,,,,,,,,,,,,,,64,001,20,w,Psychologie,2023-01-25_09h05.39.438,00_bat_bachelor,2022.2.4,59.96514028821549,
,,,,,,,,,,,,1,0,1,0,23,0,23,0,,,,,,,23,,,0.2,1561.4913408528082,X,d,go,d,1,0.6476026398595423,,,,,,,,,,,,,,,,,,64,001,20,w,Psychologie,2023-01-25_09h05.39.438,00_bat_bachelor,2022.2.4,59.96514028821549,
,,,,,,,,,,,,1,0,1,0,24,0,24,0,,,,,,,24,,,0.2,1562.4418315433431,Y,l,go,l,1,0.33631794224493206,,,,,,,,,,,,,,,,,,64,001,20,w,Psychologie,2023-01-25_09h05.39.438,00_bat_bachelor,2022.2.4,59.96514028821549,
,,,,,,,,,,,,1,0,1,0,25,0,25,0,,,,,,,25,,,0.2,1563.0927218943834,X,d,go,d,1,0.4209976587444544,,,,,,,,,,,,,,,,,,64,001,20,w,Psychologie,2023-01-25_09h05.39.438,00_bat_bachelor,2022.2.4,59.96514028821549,
,,,,,,,,,,,,1,0,1,0,26,0,26,0,,,,,,,26,,,0.2,1563.8264122053515,X,None,nogo,l,0,0.4080090590287,,,,,,,,,,,,,,,,,,64,001,20,w,Psychologie,2023-01-25_09h05.39.438,00_bat_bachelor,2022.2.4,59.96514028821549,
,,,,,,,,,,,,1,0,1,0,27,0,27,0,,,,,,,27,,,0.2,1564.543671494117,Y,l,go,None,0,,,,,,,,,,,,,,,,,,,64,001,20,w,Psychologie,2023-01-25_09h05.39.438,00_bat_bachelor,2022.2.4,59.96514028821549,
,,,,,,,,,,,,1,0,1,0,28,0,28,0,,,,,,,28,,,0.2,1565.544484099606,X,d,go,None,0,,,,,,,,,,,,,,,,,,,64,001,20,w,Psychologie,2023-01-25_09h05.39.438,00_bat_bachelor,2022.2.4,59.96514028821549,
,,,,,,,,,,,,1,0,1,0,29,0,29,0,,,,,,,29,,,0.2,1566.5452816751786,X,None,nogo,d,0,0.504785739351064,,,,,,,,,,,,,,,,,,64,001,20,w,Psychologie,2023-01-25_09h05.39.438,00_bat_bachelor,2022.2.4,59.96514028821549,
,,,,,,,,,,,,1,0,1,0,30,0,30,0,,,,,,,30,,,0.2,1567.3622407941148,X,None,nogo,d,0,0.3605443546548486,,,,,,,,,,,,,,,,,,64,001,20,w,Psychologie,2023-01-25_09h05.39.438,00_bat_bachelor,2022.2.4,59.96514028821549,
,,,,,,,,,,,,1,0,1,0,31,0,31,0,,,,,,,31,,,0.2,1568.0297265311237,Y,l,go,l,1,0.42877656407654285,,,,,,,,,,,,,,,,,,64,001,20,w,Psychologie,2023-01-25_09h05.39.438,00_bat_bachelor,2022.2.4,59.96514028821549,
,,,,,,,,,,,,1,0,1,0,32,0,32,0,,,,,,,32,,,0.2,1568.763547266135,X,d,go,d,1,0.2711916707921773,,,,,,,,,,,,,,,,,,64,001,20,w,Psychologie,2023-01-25_09h05.39.438,00_bat_bachelor,2022.2.4,59.96514028821549,
,,,,,,,,,,,,1,0,1,0,33,0,33,0,,,,,,,33,,,0.2,1569.3474180134945,Y,l,go,l,1,0.4392061347607523,,,,,,,,,,,,,,,,,,64,001,20,w,Psychologie,2023-01-25_09h05.39.438,00_bat_bachelor,2022.2.4,59.96514028821549,
,,,,,,,,,,,,1,0,1,0,34,0,34,0,,,,,,,34,,,0.2,1570.0978850435931,X,d,go,d,1,0.39298167219385505,,,,,,,,,,,,,,,,,,64,001,20,w,Psychologie,2023-01-25_09h05.39.438,00_bat_bachelor,2022.2.4,59.96514028821549,
,,,,,,,,,,,,1,0,1,0,35,0,35,0,,,,,,,35,,,0.2,1570.7984350069892,Y,l,go,l,1,0.3646098074968904,,,,,,,,,,,,,,,,,,64,001,20,w,Psychologie,2023-01-25_09h05.39.438,00_bat_bachelor,2022.2.4,59.96514028821549,
,,,,,,,,,,,,1,0,1,0,36,0,36,0,,,,,,,36,,,0.2,1571.4656298349146,Y,None,nogo,d,0,0.43242407753132284,,,,,,,,,,,,,,,,,,64,001,20,w,Psychologie,2023-01-25_09h05.39.438,00_bat_bachelor,2022.2.4,59.96514028821549,
,,,,,,,,,,,,1,0,1,0,37,0,37,0,,,,,,,37,,,0.2,1572.1994137214497,X,d,go,d,1,0.5802189148962498,,,,,,,,,,,,,,,,,,64,001,20,w,Psychologie,2023-01-25_09h05.39.438,00_bat_bachelor,2022.2.4,59.96514028821549,
,,,,,,,,,,,,1,0,1,0,38,0,38,0,,,,,,,38,,,0.2,1573.0832915960345,Y,l,go,None,0,,,,,,,,,,,,,,,,,,,64,001,20,w,Psychologie,2023-01-25_09h05.39.438,00_bat_bachelor,2022.2.4,59.96514028821549,
,,,,,,,,,,,,1,0,1,0,39,0,39,0,,,,,,,39,,,0.2,1574.0840271108318,Y,None,nogo,d,0,0.4383261352777481,,,,,,,,,,,,,,,,,,64,001,20,w,Psychologie,2023-01-25_09h05.39.438,00_bat_bachelor,2022.2.4,59.96514028821549,
,,,,,,,,,,,,1,0,1,0,40,0,40,0,,,,,,,40,,,0.2,1574.8349242012482,X,d,go,d,1,0.47064999816939235,,,,,,,,,,,,,,,,,,64,001,20,w,Psychologie,2023-01-25_09h05.39.438,00_bat_bachelor,2022.2.4,59.96514028821549,
,,,,,,,,,,,,1,0,1,0,41,0,41,0,,,,,,,41,,,0.2,1575.6188253969885,Y,l,go,l,1,0.39111355203203857,,,,,,,,,,,,,,,,,,64,001,20,w,Psychologie,2023-01-25_09h05.39.438,00_bat_bachelor,2022.2.4,59.96514028821549,
,,,,,,,,,,,,1,0,1,0,42,0,42,0,,,,,,,42,,,0.2,1576.3193089361303,X,d,go,d,1,0.6666057822294533,,,,,,,,,,,,,,,,,,64,001,20,w,Psychologie,2023-01-25_09h05.39.438,00_bat_bachelor,2022.2.4,59.96514028821549,
,,,,,,,,,,,,1,0,1,0,43,0,43,0,,,,,,,43,,,0.2,1577.286721800454,Y,l,go,l,1,0.37196495523676276,,,,,,,,,,,,,,,,,,64,001,20,w,Psychologie,2023-01-25_09h05.39.438,00_bat_bachelor,2022.2.4,59.96514028821549,
,,,,,,,,,,,,1,0,1,0,44,0,44,0,,,,,,,44,,,0.2,1577.9704931052402,X,d,go,d,1,0.567449951544404,,,,,,,,,,,,,,,,,,64,001,20,w,Psychologie,2023-01-25_09h05.39.438,00_bat_bachelor,2022.2.4,59.96514028821549,
,,,,,,,,,,,,1,0,1,0,45,0,45,0,,,,,,,45,,,0.2,1578.854622615967,Y,l,go,l,1,0.32399746333248913,,,,,,,,,,,,,,,,,,64,001,20,w,Psychologie,2023-01-25_09h05.39.438,00_bat_bachelor,2022.2.4,59.96514028821549,
,,,,,,,,,,,,1,0,1,0,46,0,46,0,,,,,,,46,,,0.2,1579.4883270359132,Y,None,nogo,None,1,,,,,,,,,,,,,,,,,,,64,001,20,w,Psychologie,2023-01-25_09h05.39.438,00_bat_bachelor,2022.2.4,59.96514028821549,
,,,,,,,,,,,,1,0,1,0,47,0,47,0,,,,,,,47,,,0.2,1580.4891798840836,X,d,go,d,1,0.5137641592882574,,,,,,,,,,,,,,,,,,64,001,20,w,Psychologie,2023-01-25_09h05.39.438,00_bat_bachelor,2022.2.4,59.96514028821549,
,,,,,,,,,,,,1,0,1,0,48,0,48,0,,,,,,,48,,,0.2,1581.3061947606038,Y,l,go,l,1,0.44907231186516583,,,,,,,,,,,,,,,,,,64,001,20,w,Psychologie,2023-01-25_09h05.39.438,00_bat_bachelor,2022.2.4,59.96514028821549,
,,,,,,,,,,,,1,0,1,0,49,0,49,0,,,,,,,49,,,0.2,1582.0569371846505,X,d,go,d,1,0.4820390834938735,,,,,,,,,,,,,,,,,,64,001,20,w,Psychologie,2023-01-25_09h05.39.438,00_bat_bachelor,2022.2.4,59.96514028821549,
,,,,,,,,,,,,1,0,1,0,50,0,50,0,,,,,,,50,,,0.2,1582.8407176530454,Y,l,go,l,1,0.33678630576469004,,,,,,,,,,,,,,,,,,64,001,20,w,Psychologie,2023-01-25_09h05.39.438,00_bat_bachelor,2022.2.4,59.96514028821549,
,,,,,,,,,,,,1,0,1,0,51,0,51,0,,,,,,,51,,,0.2,1583.491264246637,X,d,go,None,0,,,,,,,,,,,,,,,,,,,64,001,20,w,Psychologie,2023-01-25_09h05.39.438,00_bat_bachelor,2022.2.4,59.96514028821549,
,,,,,,,,,,,,1,0,1,0,52,0,52,0,,,,,,,52,,,0.2,1584.4921073978767,Y,l,go,l,1,0.4303949875757098,,,,,,,,,,,,,,,,,,64,001,20,w,Psychologie,2023-01-25_09h05.39.438,00_bat_bachelor,2022.2.4,59.96514028821549,
,,,,,,,,,,,,1,0,1,0,53,0,53,0,,,,,,,53,,,0.2,1585.2261424358003,Y,None,nogo,None,1,,,,,,,,,,,,,,,,,,,64,001,20,w,Psychologie,2023-01-25_09h05.39.438,00_bat_bachelor,2022.2.4,59.96514028821549,
,,,,,,,,,,,,1,0,1,0,54,0,54,0,,,,,,,54,,,0.2,1586.2269293444697,X,d,go,d,1,0.03979251021519303,,,,,,,,,,,,,,,,,,64,001,20,w,Psychologie,2023-01-25_09h05.39.438,00_bat_bachelor,2022.2.4,59.96514028821549,
,,,,,,,,,,,,1,0,1,0,55,0,55,0,,,,,,,55,,,0.2,1586.5771875989158,Y,l,go,None,0,,,,,,,,,,,,,,,,,,,64,001,20,w,Psychologie,2023-01-25_09h05.39.438,00_bat_bachelor,2022.2.4,59.96514028821549,
,,,,,,,,,,,,1,0,1,0,56,0,56,0,,,,,,,56,,,0.2,1587.5778605684172,X,d,go,d,1,0.5460167496930808,,,,,,,,,,,,,,,,,,64,001,20,w,Psychologie,2023-01-25_09h05.39.438,00_bat_bachelor,2022.2.4,59.96514028821549,
,,,,,,,,,,,,1,0,1,0,57,0,57,0,,,,,,,57,,,0.2,1588.428529246943,Y,l,go,l,1,0.3495615723077208,,,,,,,,,,,,,,,,,,64,001,20,w,Psychologie,2023-01-25_09h05.39.438,00_bat_bachelor,2022.2.4,59.96514028821549,
,,,,,,,,,,,,1,0,1,0,58,0,58,0,,,,,,,58,,,0.2,1589.0791112345178,X,d,go,d,1,0.38712809956632555,,,,,,,,,,,,,,,,,,64,001,20,w,Psychologie,2023-01-25_09h05.39.438,00_bat_bachelor,2022.2.4,59.96514028821549,
,,,,,,,,,,,,1,0,1,0,59,0,59,0,,,,,,,59,,,0.2,1589.7796602281742,Y,l,go,l,1,0.35941950674168766,,,,,,,,,,,,,,,,,,64,001,20,w,Psychologie,2023-01-25_09h05.39.438,00_bat_bachelor,2022.2.4,59.96514028821549,
,,,,,,,,,,,,1,0,1,0,60,0,60,0,,,,,,,60,,,0.2,1590.446622813819,Y,None,nogo,l,0,0.6038319943472743,,,,,,,,,,,,,,,,,,64,001,20,w,Psychologie,2023-01-25_09h05.39.438,00_bat_bachelor,2022.2.4,59.96514028821549,
,,,,,,,,,,,,1,0,1,0,61,0,61,0,,,,,,,61,,,0.2,1591.3638582478743,X,d,go,d,1,0.4225845669861883,,,,,,,,,,,,,,,,,,64,001,20,w,Psychologie,2023-01-25_09h05.39.438,00_bat_bachelor,2022.2.4,59.96514028821549,
,,,,,,,,,,,,1,0,1,0,62,0,62,0,,,,,,,62,,,0.2,1592.098095467547,Y,l,go,None,0,,,,,1592.8986846553162,,,,,,,,,,,,,,64,001,20,w,Psychologie,2023-01-25_09h05.39.438,00_bat_bachelor,2022.2.4,59.96514028821549,
,,,,,,,,,,,,1,0,1,0,63,0,63,0,,,,,,,63,,,0.2,1593.098820315674,Y,None,nogo,None,1,,,,,,,,,,,,,,,,,,,64,001,20,w,Psychologie,2023-01-25_09h05.39.438,00_bat_bachelor,2022.2.4,59.96514028821549,
,,,,,,,,,,,,1,0,1,0,64,0,64,0,,,,,,,64,,,0.2,1594.0992886791937,X,d,go,d,1,0.29552765912376344,,,,,,,,,,,,,,,,,,64,001,20,w,Psychologie,2023-01-25_09h05.39.438,00_bat_bachelor,2022.2.4,59.96514028821549,
,,,,,,,,,,,,1,0,1,0,65,0,65,0,,,,,,,65,,,0.2,1594.7000180848408,Y,l,go,l,1,0.5108293727971613,,,,,,,,,,,,,,,,,,64,001,20,w,Psychologie,2023-01-25_09h05.39.438,00_bat_bachelor,2022.2.4,59.96514028821549,
,,,,,,,,,,,,1,0,1,0,66,0,66,0,,,,,,,66,,,0.2,1595.5173306583893,X,d,go,None,0,,,,,,,,,,,,,,,,,,,64,001,20,w,Psychologie,2023-01-25_09h05.39.438,00_bat_bachelor,2022.2.4,59.96514028821549,
,,,,,,,,,,,,1,0,1,0,67,0,67,0,,,,,,,67,,,0.2,1596.5180613247212,X,None,nogo,d,0,0.3401870313100517,,,,,,,,,,,,,,,,,,64,001,20,w,Psychologie,2023-01-25_09h05.39.438,00_bat_bachelor,2022.2.4,59.96514028821549,
,,,,,,,,,,,,1,0,1,0,68,0,68,0,,,,,,,68,,,0.2,1597.1685565244406,Y,l,go,l,1,0.3467615735717118,,,,,,,,,,,,,,,,,,64,001,20,w,Psychologie,2023-01-25_09h05.39.438,00_bat_bachelor,2022.2.4,59.96514028821549,
,,,,,,,,,,,,1,0,1,0,69,0,69,0,,,,,,,69,,,0.2,1597.8187831181567,X,d,go,None,0,,,,,1598.6194062451832,,,,,,,,,,,,,,64,001,20,w,Psychologie,2023-01-25_09h05.39.438,00_bat_bachelor,2022.2.4,59.96514028821549,
,,,,,,,,,,,,1,0,1,0,70,0,70,0,,,,,,,70,,,0.2,1598.8199011783581,X,None,nogo,None,1,,,,,,,,,,,,,,,,,,,64,001,20,w,Psychologie,2023-01-25_09h05.39.438,00_bat_bachelor,2022.2.4,59.96514028821549,
,,,,,,,,,,,,1,0,1,0,71,0,71,0,,,,,,,71,,,0.2,1599.8203191175126,Y,l,go,l,1,0.31691189110279083,,,,,,,,,,,,,,,,,,64,001,20,w,Psychologie,2023-01-25_09h05.39.438,00_bat_bachelor,2022.2.4,59.96514028821549,
,,,,,,,,,,,,1,0,1,0,72,0,72,0,,,,,,,72,,,0.2,1600.4376880303025,X,d,go,None,0,,,,,,,,,,,,,,,,,,,64,001,20,w,Psychologie,2023-01-25_09h05.39.438,00_bat_bachelor,2022.2.4,59.96514028821549,
,,,,,,,,,,,,1,0,1,0,73,0,73,0,,,,,,,73,,,0.2,1601.438497242052,Y,l,go,None,0,,,,,,,,,,,,,,,,,,,64,001,20,w,Psychologie,2023-01-25_09h05.39.438,00_bat_bachelor,2022.2.4,59.96514028821549,
,,,,,,,,,,,,1,0,1,0,74,0,74,0,,,,,,,74,,,0.2,1602.4392502112314,X,d,go,l,0,0.3230466761160642,,,,,,,,,,,,,,,,,,64,001,20,w,Psychologie,2023-01-25_09h05.39.438,00_bat_bachelor,2022.2.4,59.96514028821549,
,,,,,,,,,,,,1,0,1,0,75,0,75,0,,,,,,,75,,,0.2,1603.0729240858927,Y,l,go,None,0,,,,,,,,,,,,,,,,,,,64,001,20,w,Psychologie,2023-01-25_09h05.39.438,00_bat_bachelor,2022.2.4,59.96514028821549,
,,,,,,,,,,,,1,0,1,0,76,0,76,0,,,,,,,76,,,0.2,1604.0738622671925,Y,None,nogo,None,1,,,,,1604.8741978793405,,,,,,,,,,,,,,64,001,20,w,Psychologie,2023-01-25_09h05.39.438,00_bat_bachelor,2022.2.4,59.96514028821549,
,,,,,,,,,,,,1,0,1,0,77,0,77,0,,,,,,,77,,,0.2,1605.0743073578924,X,d,go,d,1,0.24700744007714093,,,,,,,,,,,,,,,,,,64,001,20,w,Psychologie,2023-01-25_09h05.39.438,00_bat_bachelor,2022.2.4,59.96514028821549,
,,,,,,,,,,,,1,0,1,0,78,0,78,0,,,,,,,78,,,0.2,1605.6248355759308,Y,l,go,l,1,0.43286965298466384,,,,,,,,,,,,,,,,,,64,001,20,w,Psychologie,2023-01-25_09h05.39.438,00_bat_bachelor,2022.2.4,59.96514028821549,
,,,,,,,,,,,,1,0,1,0,79,0,79,0,,,,,,,79,,,0.2,1606.359135341132,X,d,go,d,1,0.33881878945976496,,,,,,,,,,,,,,,,,,64,001,20,w,Psychologie,2023-01-25_09h05.39.438,00_bat_bachelor,2022.2.4,59.96514028821549,
,,,,,,,,,,,,1,0,1,0,80,0,80,0,,,,,,,80,,,0.2,1607.0266424114816,Y,l,go,l,1,0.5032274371478707,,,,,,,,,,,,,,,,,,64,001,20,w,Psychologie,2023-01-25_09h05.39.438,00_bat_bachelor,2022.2.4,59.96514028821549,
,,,,,,,,,,,,1,0,1,0,81,0,81,0,,,,,,,81,,,0.2,1607.8441149846185,Y,None,nogo,d,0,0.37467768136411905,,,,,,,,,,,,,,,,,,64,001,20,w,Psychologie,2023-01-25_09h05.39.438,00_bat_bachelor,2022.2.4,59.96514028821549,
,,,,,,,,,,,,1,0,1,0,82,0,82,0,,,,,,,82,,,0.2,1608.54441088764,X,d,go,l,0,0.47254720935598016,,,,,,,,,,,,,,,,,,64,001,20,w,Psychologie,2023-01-25_09h05.39.438,00_bat_bachelor,2022.2.4,59.96514028821549,
,,,,,,,,,,,,1,0,1,0,83,0,83,0,,,,,,,83,,,0.2,1609.3617467337754,Y,l,go,None,0,,,,,1610.162254466908,,,,,,,,,,,,,,64,001,20,w,Psychologie,2023-01-25_09h05.39.438,00_bat_bachelor,2022.2.4,59.96514028821549,
,,,,,,,,,,,,1,0,1,0,84,0,84,0,,,,,,,84,,,0.2,1610.3627198243048,Y,None,nogo,None,1,,,,,1611.1633274359629,,,,,,,,,,,,,,64,001,20,w,Psychologie,2023-01-25_09h05.39.438,00_bat_bachelor,2022.2.4,59.96514028821549,
,,,,,,,,,,,,1,0,1,0,85,0,85,0,,,,,,,85,,,0.2,1611.363490248099,X,d,go,d,1,0.37452689348720014,,,,,,,,,,,,,,,,,,64,001,20,w,Psychologie,2023-01-25_09h05.39.438,00_bat_bachelor,2022.2.4,59.96514028821549,
,,,,,,,,,,,,1,0,1,0,86,0,86,0,,,,,,,86,,,0.2,1612.0804474761244,Y,l,go,l,1,0.3776464071124792,,,,,,,,,,,,,,,,,,64,001,20,w,Psychologie,2023-01-25_09h05.39.438,00_bat_bachelor,2022.2.4,59.96514028821549,
,,,,,,,,,,,,1,0,1,0,87,0,87,0,,,,,,,87,,,0.2,1612.7642881143838,X,d,go,d,1,0.3969079733360559,,,,,,,,,,,,,,,,,,64,001,20,w,Psychologie,2023-01-25_09h05.39.438,00_bat_bachelor,2022.2.4,59.96514028821549,
,,,,,,,,,,,,1,0,1,0,88,0,88,0,,,,,,,88,,,0.2,1613.4983808493707,X,None,nogo,l,0,0.33487454894930124,,,,,,,,,,,,,,,,,,64,001,20,w,Psychologie,2023-01-25_09h05.39.438,00_bat_bachelor,2022.2.4,59.96514028821549,
,,,,,,,,,,,,1,0,1,0,89,0,89,0,,,,,,,89,,,0.2,1614.1655645258725,Y,l,go,l,1,0.46833727206103504,,,,,,,,,,,,,,,,,,64,001,20,w,Psychologie,2023-01-25_09h05.39.438,00_bat_bachelor,2022.2.4,59.96514028821549,
,,,,,,,,,,,,1,0,1,0,90,0,90,0,,,,,,,90,,,0.2,1614.949509842787,X,d,go,d,1,0.5482097184285522,,,,,,,,,,,,,,,,,,64,001,20,w,Psychologie,2023-01-25_09h05.39.438,00_bat_bachelor,2022.2.4,59.96514028821549,
,,,,,,,,,,,,1,0,1,0,91,0,91,0,,,,,,,91,,,0.2,1615.8334934141021,Y,l,go,None,0,,,,,1616.6339240563102,,,,,,,,,,,,,,64,001,20,w,Psychologie,2023-01-25_09h05.39.438,00_bat_bachelor,2022.2.4,59.96514028821549,
,,,,,,,,,,,,1,0,1,0,92,0,92,0,,,,,,,92,,,0.2,1616.8340635956265,Y,None,nogo,None,1,,,,,1617.635039692279,,,,,,,,,,,,,,64,001,20,w,Psychologie,2023-01-25_09h05.39.438,00_bat_bachelor,2022.2.4,59.96514028821549,
,,,,,,,,,,,,1,0,1,0,93,0,93,0,,,,,,,93,,,0.2,1617.834803958889,Y,None,nogo,None,1,,,,,1618.635780540295,,,,,,,,,,,,,,64,001,20,w,Psychologie,2023-01-25_09h05.39.438,00_bat_bachelor,2022.2.4,59.96514028821549,
,,,,,,,,,,,,1,0,1,0,94,0,94,0,,,,,,,94,,,0.2,1618.835599109996,X,d,go,None,0,,,,,1619.6364661157131,,,,,,,,,,,,,,64,001,20,w,Psychologie,2023-01-25_09h05.39.438,00_bat_bachelor,2022.2.4,59.96514028821549,
,,,,,,,,,,,,1,0,1,0,95,0,95,0,,,,,,,95,,,0.2,1619.8364155944437,Y,l,go,None,0,,,,,1620.6372409032192,,,,,,,,,,,,,,64,001,20,w,Psychologie,2023-01-25_09h05.39.438,00_bat_bachelor,2022.2.4,59.96514028821549,
,,,,,,,,,,,,1,0,1,0,96,0,96,0,,,,,,,96,,,0.2,1620.8370541397016,Y,None,nogo,None,1,,,,,1621.6380307211075,,,,,,,,,,,,,,64,001,20,w,Psychologie,2023-01-25_09h05.39.438,00_bat_bachelor,2022.2.4,59.96514028821549,
,,,,,,,,,,,,1,0,1,0,97,0,97,0,,,,,,,97,,,0.2,1621.8381188663188,X,d,go,d,1,0.29946171771734953,,,,,,,,,,,,,,,,,,64,001,20,w,Psychologie,2023-01-25_09h05.39.438,00_bat_bachelor,2022.2.4,59.96514028821549,
,,,,,,,,,,,,1,0,1,0,98,0,98,0,,,,,,,98,,,0.2,1622.4719163773116,Y,l,go,None,0,,,,,1623.272347504273,,,,,,,,,,,,,,64,001,20,w,Psychologie,2023-01-25_09h05.39.438,00_bat_bachelor,2022.2.4,59.96514028821549,
,,,,,,,,,,,,1,0,1,0,99,0,99,0,,,,,,,99,,,0.2,1623.4725355284754,Y,None,nogo,l,0,0.24881834839470685,,,,,,,,,,,,,,,,,,64,001,20,w,Psychologie,2023-01-25_09h05.39.438,00_bat_bachelor,2022.2.4,59.96514028821549,
,,,,,,,,,,,,1,0,1,0,100,0,100,0,,,,,,,100,,,0.2,1624.0564479727764,X,d,go,d,1,0.4335455314721912,,,,,,,,,,,,,,,,,,64,001,20,w,Psychologie,2023-01-25_09h05.39.438,00_bat_bachelor,2022.2.4,59.96514028821549,
,,,,,,,,,,,,1,0,1,0,101,0,101,0,,,,,,,101,,,0.2,1624.823551600799,Y,l,go,l,1,0.27342633646912873,,,,,,,,,,,,,,,,,,64,001,20,w,Psychologie,2023-01-25_09h05.39.438,00_bat_bachelor,2022.2.4,59.96514028821549,
,,,,,,,,,,,,1,0,1,0,102,0,102,0,,,,,,,102,,,0.2,1625.440866210498,X,d,go,d,1,0.4405220129992813,,,,,,,,,,,,,,,,,,64,001,20,w,Psychologie,2023-01-25_09h05.39.438,00_bat_bachelor,2022.2.4,59.96514028821549,
,,,,,,,,,,,,1,0,1,0,103,0,103,0,,,,,,,103,,,0.2,1626.224624860799,Y,l,go,l,1,0.34506605938076973,,,,,,,,,,,,,,,,,,64,001,20,w,Psychologie,2023-01-25_09h05.39.438,00_bat_bachelor,2022.2.4,59.96514028821549,
,,,,,,,,,,,,1,0,1,0,104,0,104,0,,,,,,,104,,,0.2,1626.8750570302363,X,d,go,d,1,0.4314805625472218,,,,,,,,,,,,,,,,,,64,001,20,w,Psychologie,2023-01-25_09h05.39.438,00_bat_bachelor,2022.2.4,59.96514028821549,
,,,,,,,,,,,,1,0,1,0,105,0,105,0,,,,,,,105,,,0.2,1627.6256297572982,X,None,nogo,None,1,,,,,1628.426247550873,,,,,,,,,,,,,,64,001,20,w,Psychologie,2023-01-25_09h05.39.438,00_bat_bachelor,2022.2.4,59.96514028821549,
,,,,,,,,,,,,1,0,1,0,106,0,106,0,,,,,,,106,,,0.2,1628.6263958176132,X,None,nogo,l,0,0.23138708411715925,,,,,,,,,,,,,,,,,,64,001,20,w,Psychologie,2023-01-25_09h05.39.438,00_bat_bachelor,2022.2.4,59.96514028821549,
,,,,,,,,,,,,1,0,1,0,107,0,107,0,,,,,,,107,,,0.2,1629.176858580904,Y,l,go,l,1,0.48112223553471267,,,,,,,,,,,,,,,,,,64,001,20,w,Psychologie,2023-01-25_09h05.39.438,00_bat_bachelor,2022.2.4,59.96514028821549,
,,,,,,,,,,,,1,0,1,0,108,0,108,0,,,,,,,108,,,0.2,1629.9773963745683,X,d,go,d,1,0.3681588964536786,,,,,,,,,,,,,,,,,,64,001,20,w,Psychologie,2023-01-25_09h05.39.438,00_bat_bachelor,2022.2.4,59.96514028821549,
,,,,,,,,,,,,1,0,1,0,109,0,109,0,,,,,,,109,,,0.2,1630.678166944068,X,None,nogo,l,0,0.2909308127127588,,,,,,,,,,,,,,,,,,64,001,20,w,Psychologie,2023-01-25_09h05.39.438,00_bat_bachelor,2022.2.4,59.96514028821549,
,,,,,,,,,,,,1,0,1,0,110,0,110,0,,,,,,,110,,,0.2,1631.2952779175248,Y,l,go,None,0,,,,,1632.0957415294833,,,,,,,,,,,,,,64,001,20,w,Psychologie,2023-01-25_09h05.39.438,00_bat_bachelor,2022.2.4,59.96514028821549,
,,,,,,,,,,,,1,0,1,0,111,0,111,0,,,,,,,111,,,0.2,1632.296092462493,X,d,go,None,0,,,,,1633.0966549834702,,,,,,,,,,,,,,64,001,20,w,Psychologie,2023-01-25_09h05.39.438,00_bat_bachelor,2022.2.4,59.96514028821549,
,,,,,,,,,,,,1,0,1,0,112,0,112,0,,,,,,,112,,,0.2,1633.2968619167805,Y,l,go,l,1,0.456410005223006,,,,,,,,,,,,,,,,,,64,001,20,w,Psychologie,2023-01-25_09h05.39.438,00_bat_bachelor,2022.2.4,59.96514028821549,
,,,,,,,,,,,,1,0,1,0,113,0,113,0,,,,,,,113,,,0.2,1634.097423468018,X,d,go,d,1,0.34467915049754083,,,,,,,,,,,,,,,,,,64,001,20,w,Psychologie,2023-01-25_09h05.39.438,00_bat_bachelor,2022.2.4,59.96514028821549,
,,,,,,,,,,,,1,0,1,0,114,0,114,0,,,,,,,114,,,0.2,1634.7810837426223,X,None,nogo,None,1,,,,,1635.5816738998983,,,,,,,,,,,,,,64,001,20,w,Psychologie,2023-01-25_09h05.39.438,00_bat_bachelor,2022.2.4,59.96514028821549,
,,,,,,,,,,,,1,0,1,0,115,0,115,0,,,,,,,115,,,0.2,1635.7820786512457,Y,l,go,None,0,,,,,1636.5828375357669,,,,,,,,,,,,,,64,001,20,w,Psychologie,2023-01-25_09h05.39.438,00_bat_bachelor,2022.2.4,59.96514028821549,
,,,,,,,,,,,,1,0,1,0,116,0,116,0,,,,,,,116,,,0.2,1636.7827642266639,X,d,go,d,1,0.539280268130824,,,,,,,,,,,,,,,,,,64,001,20,w,Psychologie,2023-01-25_09h05.39.438,00_bat_bachelor,2022.2.4,59.96514028821549,
,,,,,,,,,,,,1,0,1,0,117,0,117,0,,,,,,,117,,,0.2,1637.666552888928,X,None,nogo,None,1,,,,,1638.4673941975925,,,,,,,,,,,,,,64,001,20,w,Psychologie,2023-01-25_09h05.39.438,00_bat_bachelor,2022.2.4,59.96514028821549,
,,,,,,,,,,,,1,0,1,0,118,0,118,0,,,,,,,118,,,0.2,1638.667313131038,Y,l,go,l,1,0.4144439650699496,,,,,,,,,,,,,,,,,,64,001,20,w,Psychologie,2023-01-25_09h05.39.438,00_bat_bachelor,2022.2.4,59.96514028821549,
,,,,,,,,,,,,1,0,1,0,119,0,119,0,,,,,,,119,,,0.2,1639.401424775133,X,d,go,d,1,0.3361972151324153,,,,,,,,,,,,,,,,,,64,001,20,w,Psychologie,2023-01-25_09h05.39.438,00_bat_bachelor,2022.2.4,59.96514028821549,
,,,,,,,,,,,,1,0,1,0,120,0,120,0,,,,,,,120,,,0.2,1640.0683989971876,X,None,nogo,None,1,,,,,1640.8693372756243,,,,,,,,,,,,,,64,001,20,w,Psychologie,2023-01-25_09h05.39.438,00_bat_bachelor,2022.2.4,59.96514028821549,
,,,,,,,,,,,,1,0,1,0,121,0,121,0,,,,,,,121,,,0.2,1641.0691563300788,Y,l,go,l,1,0.460426488192752,,,,,,,,,,,,,,,,,,64,001,20,w,Psychologie,2023-01-25_09h05.39.438,00_bat_bachelor,2022.2.4,59.96514028821549,
,,,,,,,,,,,,1,0,1,0,122,0,122,0,,,,,,,122,,,0.2,1641.8533261318225,X,d,go,d,1,0.3800672544166446,,,,,,,,,,,,,,,,,,64,001,20,w,Psychologie,2023-01-25_09h05.39.438,00_bat_bachelor,2022.2.4,59.96514028821549,
,,,,,,,,,,,,1,0,1,0,123,0,123,0,,,,,,,123,,,0.2,1642.5535934285726,Y,l,go,l,1,0.5116468269843608,,,,,,,,,,,,,,,,,,64,001,20,w,Psychologie,2023-01-25_09h05.39.438,00_bat_bachelor,2022.2.4,59.96514028821549,
,,,,,,,,,,,,1,0,1,0,124,0,124,0,,,,,,,124,,,0.2,1643.404309622245,X,d,go,d,1,0.444835223024711,,,,,,,,,,,,,,,,,,64,001,20,w,Psychologie,2023-01-25_09h05.39.438,00_bat_bachelor,2022.2.4,59.96514028821549,
,,,,,,,,,,,,1,0,1,0,125,0,125,0,,,,,,,125,,,0.2,1644.188277726993,Y,l,go,l,1,0.3336435193195939,,,,,,,,,,,,,,,,,,64,001,20,w,Psychologie,2023-01-25_09h05.39.438,00_bat_bachelor,2022.2.4,59.96514028821549,
,,,,,,,,,,,,1,0,1,0,126,0,126,0,,,,,,,126,,,0.2,1644.8390134114306,Y,None,nogo,None,1,,,,,1645.6395701142028,,,,,,,,,,,,,,64,001,20,w,Psychologie,2023-01-25_09h05.39.438,00_bat_bachelor,2022.2.4,59.96514028821549,
,,,,,,,,,,,,1,0,1,0,127,0,127,0,,,,,,,127,,,0.2,1645.8399074715562,X,d,go,d,1,0.05815856182016432,,,,,,,,,,,,,,,,,,64,001,20,w,Psychologie,2023-01-25_09h05.39.438,00_bat_bachelor,2022.2.4,59.96514028821549,
,,,,,,,,,,,,1,0,1,0,128,0,128,0,,,,,,,128,,,0.2,1646.2400498229545,Y,l,go,l,1,0.53744414774701,,,,,,,,,,,,,,,,,,64,001,20,w,Psychologie,2023-01-25_09h05.39.438,00_bat_bachelor,2022.2.4,59.96514028821549,
,,,,,,,,,,,,1,0,1,0,129,0,129,0,,,,,,,129,,,0.2,1647.1071534026414,Y,None,nogo,None,1,,,,,1647.9077789539006,,,,,,,,,,,,,,64,001,20,w,Psychologie,2023-01-25_09h05.39.438,00_bat_bachelor,2022.2.4,59.96514028821549,
,,,,,,,,,,,,1,0,1,0,130,0,130,0,,,,,,,130,,,0.2,1648.1078302508686,X,d,go,None,0,,,,,1648.9088582261465,,,,,,,,,,,,,,64,001,20,w,Psychologie,2023-01-25_09h05.39.438,00_bat_bachelor,2022.2.4,59.96514028821549,
,,,,,,,,,,,,1,0,1,0,131,0,131,0,,,,,,,131,,,0.2,1649.1088993411977,Y,l,go,d,0,0.46911739301867783,,,,,,,,,,,,,,,,,,64,001,20,w,Psychologie,2023-01-25_09h05.39.438,00_bat_bachelor,2022.2.4,59.96514028821549,
,,,,,,,,,,,,1,0,1,0,132,0,132,0,,,,,,,132,,,0.2,1649.9261459752452,Y,None,nogo,None,1,,,,,1650.7268772234675,,,,,,,,,,,,,,64,001,20,w,Psychologie,2023-01-25_09h05.39.438,00_bat_bachelor,2022.2.4,59.96514028821549,
,,,,,,,,,,,,1,0,1,0,133,0,133,0,,,,,,,133,,,0.2,1650.9271617324557,X,d,go,None,0,,,,,1651.7275729805697,,,,,,,,,,,,,,64,001,20,w,Psychologie,2023-01-25_09h05.39.438,00_bat_bachelor,2022.2.4,59.96514028821549,
,,,,,,,,,,,,1,0,1,0,134,0,134,0,,,,,,,134,,,0.2,1651.9274890050292,Y,l,go,l,1,0.06609455798752606,,,,,,,,,,,,,,,,,,64,001,20,w,Psychologie,2023-01-25_09h05.39.438,00_bat_bachelor,2022.2.4,59.96514028821549,
,,,,,,,,,,,,1,0,1,0,135,0,135,0,,,,,,,135,,,0.2,1652.311280818889,Y,None,nogo,None,1,,,,,1653.111869521672,,,,,,,,,,,,,,64,001,20,w,Psychologie,2023-01-25_09h05.39.438,00_bat_bachelor,2022.2.4,59.96514028821549,
,,,,,,,,,,,,1,0,1,0,136,0,136,0,,,,,,,136,,,0.2,1653.3120842124335,X,d,go,d,1,0.31396449846215546,,,,,,,,,,,,,,,,,,64,001,20,w,Psychologie,2023-01-25_09h05.39.438,00_bat_bachelor,2022.2.4,59.96514028821549,
,,,,,,,,,,,,1,0,1,0,137,0,137,0,,,,,,,137,,,0.2,1653.9623835333623,Y,l,go,None,0,,,,,1654.7630066603888,,,,,,,,,,,,,,64,001,20,w,Psychologie,2023-01-25_09h05.39.438,00_bat_bachelor,2022.2.4,59.96514028821549,
,,,,,,,,,,,,1,0,1,0,138,0,138,0,,,,,,,138,,,0.2,1654.9632203816436,X,d,go,d,1,0.6620002083946019,,,,,,,,,,,,,,,,,,64,001,20,w,Psychologie,2023-01-25_09h05.39.438,00_bat_bachelor,2022.2.4,59.96514028821549,
,,,,,,,,,,,,1,0,1,0,139,0,139,0,,,,,,,139,,,0.2,1655.9641188052483,Y,l,go,l,1,0.41311402642168105,,,,,,,,,,,,,,,,,,64,001,20,w,Psychologie,2023-01-25_09h05.39.438,00_bat_bachelor,2022.2.4,59.96514028821549,
,,,,,,,,,,,,1,0,1,0,140,0,140,0,,,,,,,140,,,0.2,1656.7144418354146,Y,None,nogo,d,0,0.2879620869643986,,,,,,,,,,,,,,,,,,64,001,20,w,Psychologie,2023-01-25_09h05.39.438,00_bat_bachelor,2022.2.4,59.96514028821549,
,,,,,,,,,,,,1,0,1,0,141,0,141,0,,,,,,,141,,,0.2,1657.3318141421769,X,d,go,None,0,,,,,1658.1322045419365,,,,,,,,,,,,,,64,001,20,w,Psychologie,2023-01-25_09h05.39.438,00_bat_bachelor,2022.2.4,59.96514028821549,
,,,,,,,,,,,,1,0,1,0,142,0,142,0,,,,,,,142,,,0.2,1658.3325865054503,Y,l,go,l,1,0.15660651423968375,,,,,,,,,,,,,,,,,,64,001,20,w,Psychologie,2023-01-25_09h05.39.438,00_bat_bachelor,2022.2.4,59.96514028821549,
,,,,,,,,,,,,1,0,1,0,143,0,143,0,,,,,,,143,,,0.2,1658.816026271088,Y,None,nogo,d,0,0.4262335349339992,,,,,,,,,,,,,,,,,,64,001,20,w,Psychologie,2023-01-25_09h05.39.438,00_bat_bachelor,2022.2.4,59.96514028821549,
,,,,,,,,,,,,1,0,1,0,144,0,144,0,,,,,,,144,,,0.2,1659.5668356039096,X,d,go,None,0,,,,,1660.3675590946805,,,,,,,,,,,,,,64,001,20,w,Psychologie,2023-01-25_09h05.39.438,00_bat_bachelor,2022.2.4,59.96514028821549,
,,,,,,,,,,,,1,0,1,0,145,0,145,0,,,,,,,145,,,0.2,1660.5676719672047,Y,l,go,None,0,,,,,1661.3680463670753,,,,,,,,,,,,,,64,001,20,w,Psychologie,2023-01-25_09h05.39.438,00_bat_bachelor,2022.2.4,59.96514028821549,
,,,,,,,,,,,,1,0,1,0,146,0,146,0,,,,,,,146,,,0.2,1661.56848505768,X,d,go,d,1,0.3449632714036852,,,,,,,,,,,,,,,,,,64,001,20,w,Psychologie,2023-01-25_09h05.39.438,00_bat_bachelor,2022.2.4,59.96514028821549,
,,,,,,,,,,,,1,0,1,0,147,0,147,0,,,,,,,147,,,0.2,1662.2350335831288,Y,l,go,l,1,0.4785122973844409,,,,,,,,,,,,,,,,,,64,001,20,w,Psychologie,2023-01-25_09h05.39.438,00_bat_bachelor,2022.2.4,59.96514028821549,
,,,,,,,,,,,,1,0,1,0,148,0,148,0,,,,,,,148,,,0.2,1663.0189435060602,Y,None,nogo,d,0,0.38256373815238476,,,,,,,,,,,,,,,,,,64,001,20,w,Psychologie,2023-01-25_09h05.39.438,00_bat_bachelor,2022.2.4,59.96514028821549,
,,,,,,,,,,,,1,0,1,0,149,0,149,0,,,,,,,149,,,0.2,1663.702939780429,X,d,go,None,0,,,,,1664.5036303012166,,,,,,,,,,,,,,64,001,20,w,Psychologie,2023-01-25_09h05.39.438,00_bat_bachelor,2022.2.4,59.96514028821549,
,,,,,,,,,,,,1,0,1,0,150,0,150,0,,,,,,,150,,,0.2,1664.7036447497085,Y,l,go,None,0,,,,,1665.5042189070955,,,,,,,,,,,,,,64,001,20,w,Psychologie,2023-01-25_09h05.39.438,00_bat_bachelor,2022.2.4,59.96514028821549,
,,,,,,,,,,,,1,0,1,0,151,0,151,0,,,,,,,151,,,0.2,1665.704174204031,X,d,go,d,1,0.4349312277045101,,,,,,,,,,,,,,,,,,64,001,20,w,Psychologie,2023-01-25_09h05.39.438,00_bat_bachelor,2022.2.4,59.96514028821549,
,,,,,,,,,,,,1,0,1,0,152,0,152,0,,,,,,,152,,,0.2,1666.4548899612855,X,None,nogo,None,1,,,,,1667.2550646036398,,,,,,,,,,,,,,64,001,20,w,Psychologie,2023-01-25_09h05.39.438,00_bat_bachelor,2022.2.4,59.96514028821549,
,,,,,,,,,,,,1,0,1,0,153,0,153,0,,,,,,,153,,,0.2,1667.4554242640734,Y,l,go,l,1,0.3959736709948629,,,,,,,,,,,,,,,,,,64,001,20,w,Psychologie,2023-01-25_09h05.39.438,00_bat_bachelor,2022.2.4,59.96514028821549,
,,,,,,,,,,,,1,0,1,0,154,0,154,0,,,,,,,154,,,0.2,1668.156005742494,X,d,go,d,1,0.3494199966080487,,,,,,,,,,,,,,,,,,64,001,20,w,Psychologie,2023-01-25_09h05.39.438,00_bat_bachelor,2022.2.4,59.96514028821549,
,,,,,,,,,,,,1,0,1,0,155,0,155,0,,,,,,,155,,,0.2,1668.8066522150766,X,None,nogo,None,1,,,,,,,,,,,,,,,,,,,64,001,20,w,Psychologie,2023-01-25_09h05.39.438,00_bat_bachelor,2022.2.4,59.96514028821549,
,,,,,,,,,,,,1,0,1,0,156,0,156,0,,,,,,,156,,,0.2,1669.807252941886,Y,l,go,l,1,0.3315038839355111,,,,,,,,,,,,,,,,,,64,001,20,w,Psychologie,2023-01-25_09h05.39.438,00_bat_bachelor,2022.2.4,59.96514028821549,
,,,,,,,,,,,,1,0,1,0,157,0,157,0,,,,,,,157,,,0.2,1670.4410785741638,X,d,go,None,0,,,,,,,,,,,,,,,,,,,64,001,20,w,Psychologie,2023-01-25_09h05.39.438,00_bat_bachelor,2022.2.4,59.96514028821549,
,,,,,,,,,,,,1,0,1,0,158,0,158,0,,,,,,,158,,,0.2,1671.4416666950565,X,None,nogo,d,0,0.2160081823822111,,,,,,,,,,,,,,,,,,64,001,20,w,Psychologie,2023-01-25_09h05.39.438,00_bat_bachelor,2022.2.4,59.96514028821549,
,,,,,,,,,,,,1,0,1,0,159,0,159,0,,,,,,,159,,,0.2,1671.9588329896796,Y,l,go,None,0,,,,,1672.7594774500467,,,,,,,,,,,,,,64,001,20,w,Psychologie,2023-01-25_09h05.39.438,00_bat_bachelor,2022.2.4,59.96514028821549,
,,,,,,,,,,,,1,0,1,0,160,0,160,0,,,,,,,160,,,0.2,1672.9595583227929,X,d,go,None,0,,,,,1673.760151389055,,,,,,,,,,,,,,64,001,20,w,Psychologie,2023-01-25_09h05.39.438,00_bat_bachelor,2022.2.4,59.96514028821549,
,,,,,,,,,,,,1,0,1,0,161,0,161,0,,,,,,,161,,,0.2,1673.9601508071646,Y,l,go,l,1,0.46533897053450346,,,,,,,,,,,,,,,,,,64,001,20,w,Psychologie,2023-01-25_09h05.39.438,00_bat_bachelor,2022.2.4,59.96514028821549,
,,,,,,,,,,,,1,0,1,0,162,0,162,0,,,,,,,162,,,0.2,1674.7276311623864,Y,None,nogo,d,0,0.22794320690445602,,,,,,,,,,,,,,,,,,64,001,20,w,Psychologie,2023-01-25_09h05.39.438,00_bat_bachelor,2022.2.4,59.96514028821549,
,,,,,,,,,,,,1,0,1,0,163,0,163,0,,,,,,,163,,,0.2,1675.2614098126069,X,d,go,l,0,0.5889330925419927,,,,,,,,,,,,,,,,,,64,001,20,w,Psychologie,2023-01-25_09h05.39.438,00_bat_bachelor,2022.2.4,59.96514028821549,
,,,,,,,,,,,,1,0,1,0,164,0,164,0,,,,,,,164,,,0.2,1676.1621531336568,Y,l,go,d,0,0.6640966923441738,,,,,,,,,,,,,,,,,,64,001,20,w,Psychologie,2023-01-25_09h05.39.438,00_bat_bachelor,2022.2.4,59.96514028821549,
,,,,,,,,,,,,1,0,1,0,165,0,165,0,,,,,,,165,,,0.2,1677.1294670887291,Y,None,nogo,None,1,,,,,,,,,,,,,,,,,,,64,001,20,w,Psychologie,2023-01-25_09h05.39.438,00_bat_bachelor,2022.2.4,59.96514028821549,
,,,,,,,,,,,,1,0,1,0,166,0,166,0,,,,,,,166,,,0.2,1678.130096906796,X,d,go,None,0,,,,,1678.9308839123696,,,,,,,,,,,,,,64,001,20,w,Psychologie,2023-01-25_09h05.39.438,00_bat_bachelor,2022.2.4,59.96514028821549,
,,,,,,,,,,,,1,0,1,0,167,0,167,0,,,,,,,167,,,0.2,1679.13096333039,Y,l,go,l,1,0.4323363199364394,,,,,,,,,,,,,,,,,,64,001,20,w,Psychologie,2023-01-25_09h05.39.438,00_bat_bachelor,2022.2.4,59.96514028821549,
,,,,,,,,,,,,1,0,1,0,168,0,168,0,,,,,,,168,,,0.2,1679.8649091564585,X,d,go,d,1,0.3527174494229257,,,,,,,,,,,,,,,,,,64,001,20,w,Psychologie,2023-01-25_09h05.39.438,00_bat_bachelor,2022.2.4,59.96514028821549,
,,,,,,,,,,,,1,0,1,0,169,0,169,0,,,,,,,169,,,0.2,1680.5318925906904,X,None,nogo,d,0,0.4543154607526958,,,,,,,,,,,,,,,,,,64,001,20,w,Psychologie,2023-01-25_09h05.39.438,00_bat_bachelor,2022.2.4,59.96514028821549,
,,,,,,,,,,,,1,0,1,0,170,0,170,0,,,,,,,170,,,0.2,1681.2993336732034,Y,l,go,l,1,0.5021719224750996,,,,,,,,,,,,,,,,,,64,001,20,w,Psychologie,2023-01-25_09h05.39.438,00_bat_bachelor,2022.2.4,59.96514028821549,
,,,,,,,,,,,,1,0,1,0,171,0,171,0,,,,,,,171,,,0.2,1682.1163373983,X,d,go,d,1,0.4383814078755677,,,,,,,,,,,,,,,,,,64,001,20,w,Psychologie,2023-01-25_09h05.39.438,00_bat_bachelor,2022.2.4,59.96514028821549,
,,,,,,,,,,,,1,0,1,0,172,0,172,0,,,,,,,172,,,0.2,1682.8668626099825,Y,l,go,l,1,0.4233617789577693,,,,,,,,,,,,,,,,,,64,001,20,w,Psychologie,2023-01-25_09h05.39.438,00_bat_bachelor,2022.2.4,59.96514028821549,
,,,,,,,,,,,,1,0,1,0,173,0,173,0,,,,,,,173,,,0.2,1683.6010111025535,X,d,go,d,1,0.4246126872021705,,,,,,,,,,,,,,,,,,64,001,20,w,Psychologie,2023-01-25_09h05.39.438,00_bat_bachelor,2022.2.4,59.96514028821549,
,,,,,,,,,,,,1,0,1,0,174,0,174,0,,,,,,,174,,,0.2,1684.3348934133537,Y,l,go,l,1,0.5709326164796948,,,,,,,,,,,,,,,,,,64,001,20,w,Psychologie,2023-01-25_09h05.39.438,00_bat_bachelor,2022.2.4,59.96514028821549,
,,,,,,,,,,,,1,0,1,0,175,0,175,0,,,,,,,175,,,0.2,1685.218714560615,Y,None,nogo,l,0,0.6145786559209228,,,,,,,,,,,,,,,,,,64,001,20,w,Psychologie,2023-01-25_09h05.39.438,00_bat_bachelor,2022.2.4,59.96514028821549,
,,,,,,,,,,,,1,0,1,0,176,0,176,0,,,,,,,176,,,0.2,1686.1363722975366,X,d,go,d,1,0.369413198903203,,,,,,,,,,,,,,,,,,64,001,20,w,Psychologie,2023-01-25_09h05.39.438,00_bat_bachelor,2022.2.4,59.96514028821549,
,,,,,,,,,,,,1,0,1,0,177,0,177,0,,,,,,,177,,,0.2,1686.8199132995214,Y,l,go,None,0,,,,,1687.6206973961089,,,,,,,,,,,,,,64,001,20,w,Psychologie,2023-01-25_09h05.39.438,00_bat_bachelor,2022.2.4,59.96514028821549,
,,,,,,,,,,,,1,0,1,0,178,0,178,0,,,,,,,178,,,0.2,1687.8209707534406,X,d,go,d,1,0.3966102765407413,,,,,,,,,,,,,,,,,,64,001,20,w,Psychologie,2023-01-25_09h05.39.438,00_bat_bachelor,2022.2.4,59.96514028821549,
,,,,,,,,,,,,1,0,1,0,179,0,179,0,,,,,,,179,,,0.2,1688.521436353214,X,None,nogo,None,1,,,,,,,,,,,,,,,,,,,64,001,20,w,Psychologie,2023-01-25_09h05.39.438,00_bat_bachelor,2022.2.4,59.96514028821549,
,,,,,,,,,,,,1,0,1,0,180,0,180,0,,,,,,,180,,,0.2,1689.5222717467695,Y,l,go,l,1,0.2804629390593618,,,,,,,,,,,,,,,,,,64,001,20,w,Psychologie,2023-01-25_09h05.39.438,00_bat_bachelor,2022.2.4,59.96514028821549,
,,,,,,,,,,,,1,0,1,0,181,0,181,0,,,,,,,181,,,0.2,1690.1060300092213,X,d,go,d,1,0.4156968127936125,,,,,,,,,,,,,,,,,,64,001,20,w,Psychologie,2023-01-25_09h05.39.438,00_bat_bachelor,2022.2.4,59.96514028821549,
,,,,,,,,,,,,1,0,1,0,182,0,182,0,,,,,,,182,,,0.2,1690.8230808130465,Y,l,go,l,1,0.628231497714296,,,,,,,,,,,,,,,,,,64,001,20,w,Psychologie,2023-01-25_09h05.39.438,00_bat_bachelor,2022.2.4,59.96514028821549,
,,,,,,,,,,,,1,0,1,0,183,0,183,0,,,,,,,183,,,0.2,1691.7571763601154,X,d,go,d,1,0.3336444890592247,,,,,,,,,,,,,,,,,,64,001,20,w,Psychologie,2023-01-25_09h05.39.438,00_bat_bachelor,2022.2.4,59.96514028821549,
,,,,,,,,,,,,1,0,1,0,184,0,184,0,,,,,,,184,,,0.2,1692.3908502347767,Y,l,go,l,1,0.6118993842974305,,,,,,,,,,,,,,,,,,64,001,20,w,Psychologie,2023-01-25_09h05.39.438,00_bat_bachelor,2022.2.4,59.96514028821549,
,,,,,,,,,,,,1,0,1,0,185,0,185,0,,,,,,,185,,,0.2,1693.3081933052745,X,d,go,d,1,0.35023648105561733,,,,,,,,,,,,,,,,,,64,001,20,w,Psychologie,2023-01-25_09h05.39.438,00_bat_bachelor,2022.2.4,59.96514028821549,
,,,,,,,,,,,,1,0,1,0,186,0,186,0,,,,,,,186,,,0.2,1693.9589571107645,Y,l,go,None,0,,,,,,,,,,,,,,,,,,,64,001,20,w,Psychologie,2023-01-25_09h05.39.438,00_bat_bachelor,2022.2.4,59.96514028821549,
,,,,,,,,,,,,1,0,1,0,187,0,187,0,,,,,,,187,,,0.2,1694.9595059591811,X,d,go,d,1,0.395058277528733,,,,,,,,,,,,,,,,,,64,001,20,w,Psychologie,2023-01-25_09h05.39.438,00_bat_bachelor,2022.2.4,59.96514028821549,
,,,,,,,,,,,,1,0,1,0,188,0,188,0,,,,,,,188,,,0.2,1695.6600433164276,Y,l,go,None,0,,,,,,,,,,,,,,,,,,,64,001,20,w,Psychologie,2023-01-25_09h05.39.438,00_bat_bachelor,2022.2.4,59.96514028821549,
,,,,,,,,,,,,1,0,1,0,189,0,189,0,,,,,,,189,,,0.2,1696.6609688918106,Y,None,nogo,None,1,,,,,1697.4615605035797,,,,,,,,,,,,,,64,001,20,w,Psychologie,2023-01-25_09h05.39.438,00_bat_bachelor,2022.2.4,59.96514028821549,
,,,,,,,,,,,,1,0,1,0,190,0,190,0,,,,,,,190,,,0.2,1697.6615652551409,X,d,go,d,1,0.3486791483592242,,,,,,,,,,,,,,,,,,64,001,20,w,Psychologie,2023-01-25_09h05.39.438,00_bat_bachelor,2022.2.4,59.96514028821549,
,,,,,,,,,,,,1,0,1,0,191,0,191,0,,,,,,,191,,,0.2,1698.3120274851099,Y,l,go,l,1,0.5776579463854432,,,,,,,,,,,,,,,,,,64,001,20,w,Psychologie,2023-01-25_09h05.39.438,00_bat_bachelor,2022.2.4,59.96514028821549,
,,,,,,,,,,,,1,0,1,0,192,0,192,0,,,,,,,192,,,0.2,1699.1961744504515,X,d,go,d,1,0.46254382049664855,,,,,,,,,,,,,,,,,,64,001,20,w,Psychologie,2023-01-25_09h05.39.438,00_bat_bachelor,2022.2.4,59.96514028821549,
,,,,,,,,,,,,1,0,1,0,193,0,193,0,,,,,,,193,,,0.2,1699.9635597753804,Y,l,go,l,1,0.49602889525704086,,,,,,,,,,,,,,,,,,64,001,20,w,Psychologie,2023-01-25_09h05.39.438,00_bat_bachelor,2022.2.4,59.96514028821549,
,,,,,,,,,,,,1,0,1,0,194,0,194,0,,,,,,,194,,,0.2,1700.7641552658752,X,d,go,d,1,0.5093505857512355,,,,,,,,,,,,,,,,,,64,001,20,w,Psychologie,2023-01-25_09h05.39.438,00_bat_bachelor,2022.2.4,59.96514028821549,
,,,,,,,,,,,,1,0,1,0,195,0,195,0,,,,,,,195,,,0.2,1701.5811871122569,Y,l,go,None,0,,,,,,,,,,,,,,,,,,,64,001,20,w,Psychologie,2023-01-25_09h05.39.438,00_bat_bachelor,2022.2.4,59.96514028821549,
,,,,,,,,,,,,1,0,1,0,196,0,196,0,,,,,,,196,,,0.2,1702.5821543845814,Y,None,nogo,None,1,,,,,,,,,,,,,,,,,,,64,001,20,w,Psychologie,2023-01-25_09h05.39.438,00_bat_bachelor,2022.2.4,59.96514028821549,
,,,,,,,,,,,,1,0,1,0,197,0,197,0,,,,,,,197,,,0.2,1703.583041172009,X,d,go,d,1,0.2188236960209906,,,,,,,,,,,,,,,,,,64,001,20,w,Psychologie,2023-01-25_09h05.39.438,00_bat_bachelor,2022.2.4,59.96514028821549,
,,,,,,,,,,,,1,0,1,0,198,0,198,0,,,,,,,198,,,0.2,1704.1167301253881,Y,l,go,None,0,,,,,,,,,,,,,,,,,,,64,001,20,w,Psychologie,2023-01-25_09h05.39.438,00_bat_bachelor,2022.2.4,59.96514028821549,
