loop_instruction.thisRepN,loop_instruction.thisTrialN,loop_instruction.thisN,loop_instruction.thisIndex,loop_rsi_practice.thisRepN,loop_rsi_practice.thisTrialN,loop_rsi_practice.thisN,loop_rsi_practice.thisIndex,loop_practice.thisRepN,loop_practice.thisTrialN,loop_practice.thisN,loop_practice.thisIndex,loop_exp.thisRepN,loop_exp.thisTrialN,loop_exp.thisN,loop_exp.thisIndex,loop_trials.thisRepN,loop_trials.thisTrialN,loop_trials.thisN,loop_trials.thisIndex,map_condition,map_x_key,map_y_key,key_resp_welcome.started,key_resp_welcome.keys,key_resp_welcome.rt,index,text_empty_rsi_practice.started,text_empty_rsi_practice.stopped,rsi,stimulus.started,stimulus.stopped,stimulus,correct,trial_type,key_resp_trial.keys,key_resp_trial.corr,key_resp_trial.rt,key_resp_instruction_rsi.started,key_resp_instruction_rsi.keys,key_resp_instruction_rsi.rt,key_resp_instruction_rsi.stopped,key_resp_instruction_final.started,key_resp_instruction_final.keys,key_resp_instruction_final.rt,key_resp_break.started,key_resp_break.keys,key_resp_break.rt,key_resp_break.stopped,key_resp_end_screen.started,image_end_screen.started,key_resp_end_screen.stopped,image_end_screen.stopped,key_resp_end_screen.keys,participant,session,Alter,Geschlecht (w/m/d/andere),Studiengang,date,expName,psychopyVersion,frameRate,
,,,,0,0,0,0,0,0,0,0,,,,,,,,,0,d,l,215.88038915934158,j,20.640568324917695,0,236.54543594486313,237.55842117586872,1,237.55842117586872,238.35894209783874,X,d,go,None,0,,,,,,,,,,,,,,,,,,66,001,19,w,Psychologie Bachelor,2023-01-25_10h30.47.531,00_bat_bachelor,2022.2.4,60.02156415137956,
,,,,0,0,0,0,1,0,1,0,,,,,,,,,,,,,,,1,238.95939436517074,239.95998685088125,1,239.95998685088125,240.7605780759768,Y,l,go,None,0,,,,,,,,,,,,,,,,,,66,001,19,w,Psychologie Bachelor,2023-01-25_10h30.47.531,00_bat_bachelor,2022.2.4,60.02156415137956,
,,,,0,0,0,0,2,0,2,0,,,,,,,,,,,,,,,2,241.3610642827698,242.36189434456173,1,242.36189434456173,,X,d,go,d,1,0.3474663228262216,,,,,,,,,,,,,,,,,66,001,19,w,Psychologie Bachelor,2023-01-25_10h30.47.531,00_bat_bachelor,2022.2.4,60.02156415137956,
,,,,0,0,0,0,3,0,3,0,,,,,,,,,,,,,,,3,243.412877691444,244.4135230257234,1,244.4135230257234,,X,None,nogo,None,1,,,,,,,,,,,,,,,,,,66,001,19,w,Psychologie Bachelor,2023-01-25_10h30.47.531,00_bat_bachelor,2022.2.4,60.02156415137956,
,,,,0,0,0,0,4,0,4,0,,,,,,,,,,,,,,,4,245.8144108815759,246.8154310042737,1,246.8154310042737,,Y,l,go,l,1,0.40553137694951147,,,,,,,,,,,,,,,,,66,001,19,w,Psychologie Bachelor,2023-01-25_10h30.47.531,00_bat_bachelor,2022.2.4,60.02156415137956,
,,,,0,0,0,0,5,0,5,0,,,,,,,,,,,,,,,5,247.93289687208016,248.93342244860833,1,248.93342244860833,,X,d,go,d,1,0.4796008180419449,,,,,,,,,,,,,,,,,66,001,19,w,Psychologie Bachelor,2023-01-25_10h30.47.531,00_bat_bachelor,2022.2.4,60.02156415137956,
,,,,0,0,0,0,6,0,6,0,,,,,,,,,,,,,,,6,250.11771120151388,251.11868089990458,1,251.11868089990458,251.91921588248806,X,None,nogo,None,1,,,,,,,,,,,,,,,,,,66,001,19,w,Psychologie Bachelor,2023-01-25_10h30.47.531,00_bat_bachelor,2022.2.4,60.02156415137956,
,,,,0,0,0,0,7,0,7,0,,,,,,,,,,,,,,,7,252.51952172536403,253.52033336291788,1,253.52033336291788,,Y,l,go,l,1,0.4202737014275044,,,,,,,,,,,,,,,,,66,001,19,w,Psychologie Bachelor,2023-01-25_10h30.47.531,00_bat_bachelor,2022.2.4,60.02156415137956,
,,,,0,0,0,0,8,0,8,0,,,,,,,,,,,,,,,8,254.6547369523323,255.6554351351806,1,255.6554351351806,,X,d,go,d,1,0.47766675462480634,,,,,,,,,,,,,,,,,66,001,19,w,Psychologie Bachelor,2023-01-25_10h30.47.531,00_bat_bachelor,2022.2.4,60.02156415137956,
,,,,0,0,0,0,9,0,9,0,,,,,,,,,,,,,,,9,256.83949891806697,257.84054425291833,1,257.84054425291833,,Y,l,go,l,1,0.46784564942936413,,,,,,,,,,,,,,,,,66,001,19,w,Psychologie Bachelor,2023-01-25_10h30.47.531,00_bat_bachelor,2022.2.4,60.02156415137956,
,,,,0,0,0,0,10,0,10,0,,,,,,,,,,,,,,,10,259.0246802783222,260.02545021884725,1,260.02545021884725,,X,d,go,d,1,0.45903981843730435,,,,,,,,,,,,,,,,,66,001,19,w,Psychologie Bachelor,2023-01-25_10h30.47.531,00_bat_bachelor,2022.2.4,60.02156415137956,
,,,,0,0,0,0,11,0,11,0,,,,,,,,,,,,,,,11,261.1928351895767,262.1936012512888,1,262.1936012512888,,Y,l,go,l,1,0.4348952984728385,,,,,,,,,,,,,,,,,66,001,19,w,Psychologie Bachelor,2023-01-25_10h30.47.531,00_bat_bachelor,2022.2.4,60.02156415137956,
,,,,0,0,0,0,12,0,12,0,,,,,,,,,,,,,,,12,263.3447103195649,264.345328017429,1,264.345328017429,,X,d,go,d,1,0.4918131994199939,,,,,,,,,,,,,,,,,66,001,19,w,Psychologie Bachelor,2023-01-25_10h30.47.531,00_bat_bachelor,2022.2.4,60.02156415137956,
,,,,0,0,0,0,13,0,13,0,,,,,,,,,,,,,,,13,265.5463624916738,266.5471605534549,1,266.5471605534549,,Y,l,go,l,1,0.6098676741821691,,,,,,,,,,,,,,,,,66,001,19,w,Psychologie Bachelor,2023-01-25_10h30.47.531,00_bat_bachelor,2022.2.4,60.02156415137956,
,,,,0,0,0,0,14,0,14,0,,,,,,,,,,,,,,,14,267.86483956096345,268.86538550115074,1,268.86538550115074,,X,d,go,d,1,0.40358131349785253,,,,,,,,,,,,,,,,,66,001,19,w,Psychologie Bachelor,2023-01-25_10h30.47.531,00_bat_bachelor,2022.2.4,60.02156415137956,
,,,,1,0,1,0,0,0,0,0,,,,,,,,,,,,,,,0,298.0043015819974,298.20447060043807,0.2,298.20447060043807,,X,d,go,d,1,0.6005435394181404,269.99872630118625,j,27.97725681459997,,,,,,,,,,,,,,66,001,19,w,Psychologie Bachelor,2023-01-25_10h30.47.531,00_bat_bachelor,2022.2.4,60.02156415137956,
,,,,1,0,1,0,1,0,1,0,,,,,,,,,,,,,,,1,299.5053515229374,299.7056529051915,0.2,299.7056529051915,,Y,l,go,l,1,0.5071926157397684,,,,,,,,,,,,,,,,,66,001,19,w,Psychologie Bachelor,2023-01-25_10h30.47.531,00_bat_bachelor,2022.2.4,60.02156415137956,
,,,,1,0,1,0,2,0,2,0,,,,,,,,,,,,,,,2,300.92315673670964,301.1234178764862,0.2,301.1234178764862,,X,d,go,d,1,0.35304645213182084,,,,,,,,,,,,,,,,,66,001,19,w,Psychologie Bachelor,2023-01-25_10h30.47.531,00_bat_bachelor,2022.2.4,60.02156415137956,
,,,,1,0,1,0,3,0,3,0,,,,,,,,,,,,,,,3,302.1908783382387,302.3910793567193,0.2,302.3910793567193,,Y,l,go,l,1,0.3821020095492713,,,,,,,,,,,,,,,,,66,001,19,w,Psychologie Bachelor,2023-01-25_10h30.47.531,00_bat_bachelor,2022.2.4,60.02156415137956,
,,,,1,0,1,0,4,0,4,0,,,,,,,,,,,,,,,4,303.47493159989244,303.67536970961373,0.2,303.67536970961373,,X,d,go,l,0,0.3611972518847324,,,,,,,,,,,,,,,,,66,001,19,w,Psychologie Bachelor,2023-01-25_10h30.47.531,00_bat_bachelor,2022.2.4,60.02156415137956,
,,,,1,0,1,0,5,0,5,0,,,,,,,,,,,,,,,5,304.7425310194376,304.9429691291589,0.2,304.9429691291589,,X,None,nogo,d,0,0.3576205194112845,,,,,,,,,,,,,,,,,66,001,19,w,Psychologie Bachelor,2023-01-25_10h30.47.531,00_bat_bachelor,2022.2.4,60.02156415137956,
,,,,1,0,1,0,6,0,6,0,,,,,,,,,,,,,,,6,306.4106473851716,306.61088088856195,0.2,306.61088088856195,,Y,l,go,l,1,0.6100577350589447,,,,,,,,,,,,,,,,,66,001,19,w,Psychologie Bachelor,2023-01-25_10h30.47.531,00_bat_bachelor,2022.2.4,60.02156415137956,
,,,,1,0,1,0,7,0,7,0,,,,,,,,,,,,,,,7,307.92858025975875,308.1287575206079,0.2,308.1287575206079,,X,d,go,d,1,0.38848117034649476,,,,,,,,,,,,,,,,,66,001,19,w,Psychologie Bachelor,2023-01-25_10h30.47.531,00_bat_bachelor,2022.2.4,60.02156415137956,
,,,,1,0,1,0,8,0,8,0,,,,,,,,,,,,,,,8,309.22963572794106,309.4298013524385,0.2,309.4298013524385,,X,None,nogo,None,1,,,,,,,,,,,,,,,,,,66,001,19,w,Psychologie Bachelor,2023-01-25_10h30.47.531,00_bat_bachelor,2022.2.4,60.02156415137956,
,,,,1,0,1,0,9,0,9,0,,,,,,,,,,,,,,,9,310.83079102658667,311.0306967719225,0.2,311.0306967719225,,X,None,nogo,d,0,0.41482981471926905,,,,,,,,,,,,,,,,,66,001,19,w,Psychologie Bachelor,2023-01-25_10h30.47.531,00_bat_bachelor,2022.2.4,60.02156415137956,
,,,,1,0,1,0,10,0,10,0,,,,,,,,,,,,,,,10,312.5487949800736,312.74893005905324,0.2,312.74893005905324,,Y,l,go,l,1,0.4556550862325821,,,,,,,,,,,,,,,,,66,001,19,w,Psychologie Bachelor,2023-01-25_10h30.47.531,00_bat_bachelor,2022.2.4,60.02156415137956,
,,,,1,0,1,0,11,0,11,0,,,,,,,,,,,,,,,11,313.9163979389996,314.1166576242249,0.2,314.1166576242249,,X,d,go,d,1,0.44891180368722416,,,,,,,,,,,,,,,,,66,001,19,w,Psychologie Bachelor,2023-01-25_10h30.47.531,00_bat_bachelor,2022.2.4,60.02156415137956,
,,,,1,0,1,0,12,0,12,0,,,,,,,,,,,,,,,12,315.26744717688416,315.4676128013816,0.2,315.4676128013816,,Y,l,go,l,1,0.47330747556407005,,,,,,,,,,,,,,,,,66,001,19,w,Psychologie Bachelor,2023-01-25_10h30.47.531,00_bat_bachelor,2022.2.4,60.02156415137956,
,,,,1,0,1,0,13,0,13,0,,,,,,,,,,,,,,,13,316.65184725116706,316.85211372427875,0.2,316.85211372427875,,Y,None,nogo,None,1,,,,,,,,,,,,,,,,,,66,001,19,w,Psychologie Bachelor,2023-01-25_10h30.47.531,00_bat_bachelor,2022.2.4,60.02156415137956,
,,,,1,0,1,0,14,0,14,0,,,,,,,,,,,,,,,14,318.2531843682518,318.4530076892115,0.2,318.4530076892115,,X,d,go,d,1,0.43220584001392126,,,,,,,,,,,,,,,,,66,001,19,w,Psychologie Bachelor,2023-01-25_10h30.47.531,00_bat_bachelor,2022.2.4,60.02156415137956,
,,,,,,,,,,,,,,,,,,,,,,,,,,,,,,,,,,,,,,319.6181444142712,None,,319.6181444142712,319.6181444142712,space,20.294115457334556,,,,,,,,,,66,001,19,w,Psychologie Bachelor,2023-01-25_10h30.47.531,00_bat_bachelor,2022.2.4,60.02156415137956,
,,,,,,,,,,,,0,0,0,0,0,0,0,0,,,,,,,0,,,1,340.9371262115601,,X,d,go,d,1,0.3476491109468043,,,,,,,,,,,,,,,,,66,001,19,w,Psychologie Bachelor,2023-01-25_10h30.47.531,00_bat_bachelor,2022.2.4,60.02156415137956,
,,,,,,,,,,,,0,0,0,0,1,0,1,0,,,,,,,1,,,1,342.38818771616207,,Y,l,go,l,1,0.4002159752708394,,,,,,,,,,,,,,,,,66,001,19,w,Psychologie Bachelor,2023-01-25_10h30.47.531,00_bat_bachelor,2022.2.4,60.02156415137956,
,,,,,,,,,,,,0,0,0,0,2,0,2,0,,,,,,,2,,,1,343.88909995989525,,X,d,go,d,1,0.3564646388986148,,,,,,,,,,,,,,,,,66,001,19,w,Psychologie Bachelor,2023-01-25_10h30.47.531,00_bat_bachelor,2022.2.4,60.02156415137956,
,,,,,,,,,,,,0,0,0,0,3,0,3,0,,,,,,,3,,,1,345.3571457315993,,Y,l,go,l,1,0.37661109247710556,,,,,,,,,,,,,,,,,66,001,19,w,Psychologie Bachelor,2023-01-25_10h30.47.531,00_bat_bachelor,2022.2.4,60.02156415137956,
,,,,,,,,,,,,0,0,0,0,4,0,4,0,,,,,,,4,,,1,346.84135007226723,,X,d,go,d,1,0.37962588472873904,,,,,,,,,,,,,,,,,66,001,19,w,Psychologie Bachelor,2023-01-25_10h30.47.531,00_bat_bachelor,2022.2.4,60.02156415137956,
,,,,,,,,,,,,0,0,0,0,5,0,5,0,,,,,,,5,,,1,348.3259912620415,,X,None,nogo,None,1,,,,,,,,,,,,,,,,,,66,001,19,w,Psychologie Bachelor,2023-01-25_10h30.47.531,00_bat_bachelor,2022.2.4,60.02156415137956,
,,,,,,,,,,,,0,0,0,0,6,0,6,0,,,,,,,6,,,1,350.1274469732598,,Y,l,go,l,1,0.34169904168811627,,,,,,,,,,,,,,,,,66,001,19,w,Psychologie Bachelor,2023-01-25_10h30.47.531,00_bat_bachelor,2022.2.4,60.02156415137956,
,,,,,,,,,,,,0,0,0,0,7,0,7,0,,,,,,,7,,,1,351.5784692050365,,X,d,go,d,1,0.36260622361442074,,,,,,,,,,,,,,,,,66,001,19,w,Psychologie Bachelor,2023-01-25_10h30.47.531,00_bat_bachelor,2022.2.4,60.02156415137956,
,,,,,,,,,,,,0,0,0,0,8,0,8,0,,,,,,,8,,,1,353.04636079471675,,X,None,nogo,None,1,,,,,,,,,,,,,,,,,,66,001,19,w,Psychologie Bachelor,2023-01-25_10h30.47.531,00_bat_bachelor,2022.2.4,60.02156415137956,
,,,,,,,,,,,,0,0,0,0,9,0,9,0,,,,,,,9,,,1,354.84783589988365,,Y,l,go,l,1,0.40545913443202153,,,,,,,,,,,,,,,,,66,001,19,w,Psychologie Bachelor,2023-01-25_10h30.47.531,00_bat_bachelor,2022.2.4,60.02156415137956,
,,,,,,,,,,,,0,0,0,0,10,0,10,0,,,,,,,10,,,1,356.3655782287242,,X,d,go,d,1,0.2966124306549318,,,,,,,,,,,,,,,,,66,001,19,w,Psychologie Bachelor,2023-01-25_10h30.47.531,00_bat_bachelor,2022.2.4,60.02156415137956,
,,,,,,,,,,,,0,0,0,0,11,0,11,0,,,,,,,11,,,1,357.7667109333852,,Y,l,go,l,1,0.35045396350324154,,,,,,,,,,,,,,,,,66,001,19,w,Psychologie Bachelor,2023-01-25_10h30.47.531,00_bat_bachelor,2022.2.4,60.02156415137956,
,,,,,,,,,,,,0,0,0,0,12,0,12,0,,,,,,,12,,,1,359.2342771892436,,X,d,go,d,1,0.3552578492963221,,,,,,,,,,,,,,,,,66,001,19,w,Psychologie Bachelor,2023-01-25_10h30.47.531,00_bat_bachelor,2022.2.4,60.02156415137956,
,,,,,,,,,,,,0,0,0,0,13,0,13,0,,,,,,,13,,,1,360.70201702110353,,X,None,nogo,d,0,0.3267239896231331,,,,,,,,,,,,,,,,,66,001,19,w,Psychologie Bachelor,2023-01-25_10h30.47.531,00_bat_bachelor,2022.2.4,60.02156415137956,
,,,,,,,,,,,,0,0,0,0,14,0,14,0,,,,,,,14,,,1,362.1363774104975,,Y,l,go,l,1,0.5077841317397542,,,,,,,,,,,,,,,,,66,001,19,w,Psychologie Bachelor,2023-01-25_10h30.47.531,00_bat_bachelor,2022.2.4,60.02156415137956,
,,,,,,,,,,,,0,0,0,0,15,0,15,0,,,,,,,15,,,1,363.75451503685326,,X,d,go,d,1,0.4587091513094492,,,,,,,,,,,,,,,,,66,001,19,w,Psychologie Bachelor,2023-01-25_10h30.47.531,00_bat_bachelor,2022.2.4,60.02156415137956,
,,,,,,,,,,,,0,0,0,0,16,0,16,0,,,,,,,16,,,1,365.32253234792734,,Y,l,go,l,1,0.41115805180743337,,,,,,,,,,,,,,,,,66,001,19,w,Psychologie Bachelor,2023-01-25_10h30.47.531,00_bat_bachelor,2022.2.4,60.02156415137956,
,,,,,,,,,,,,0,0,0,0,17,0,17,0,,,,,,,17,,,1,366.85694476161734,,X,d,go,d,1,0.47674166233628057,,,,,,,,,,,,,,,,,66,001,19,w,Psychologie Bachelor,2023-01-25_10h30.47.531,00_bat_bachelor,2022.2.4,60.02156415137956,
,,,,,,,,,,,,0,0,0,0,18,0,18,0,,,,,,,18,,,1,368.4411938538542,,X,None,nogo,d,0,0.4283188040717505,,,,,,,,,,,,,,,,,66,001,19,w,Psychologie Bachelor,2023-01-25_10h30.47.531,00_bat_bachelor,2022.2.4,60.02156415137956,
,,,,,,,,,,,,0,0,0,0,19,0,19,0,,,,,,,19,,,1,369.9759834802244,,Y,l,go,l,1,0.60503130350844,,,,,,,,,,,,,,,,,66,001,19,w,Psychologie Bachelor,2023-01-25_10h30.47.531,00_bat_bachelor,2022.2.4,60.02156415137956,
,,,,,,,,,,,,0,0,0,0,20,0,20,0,,,,,,,20,,,1,371.69375616061734,,X,d,go,None,0,,,,,,,,,,,,,,,,,,66,001,19,w,Psychologie Bachelor,2023-01-25_10h30.47.531,00_bat_bachelor,2022.2.4,60.02156415137956,
,,,,,,,,,,,,0,0,0,0,21,0,21,0,,,,,,,21,,,1,373.4952642355347,,X,None,nogo,None,1,,,,,,,,,,,,,,,,,,66,001,19,w,Psychologie Bachelor,2023-01-25_10h30.47.531,00_bat_bachelor,2022.2.4,60.02156415137956,
,,,,,,,,,,,,0,0,0,0,22,0,22,0,,,,,,,22,,,1,375.29679849231616,,Y,l,go,l,1,0.38870080703054555,,,,,,,,,,,,,,,,,66,001,19,w,Psychologie Bachelor,2023-01-25_10h30.47.531,00_bat_bachelor,2022.2.4,60.02156415137956,
,,,,,,,,,,,,0,0,0,0,23,0,23,0,,,,,,,23,,,1,376.7978532817215,,X,d,go,d,1,0.43972876004409045,,,,,,,,,,,,,,,,,66,001,19,w,Psychologie Bachelor,2023-01-25_10h30.47.531,00_bat_bachelor,2022.2.4,60.02156415137956,
,,,,,,,,,,,,0,0,0,0,24,0,24,0,,,,,,,24,,,1,378.3487500830379,,Y,l,go,l,1,0.45667036043596454,,,,,,,,,,,,,,,,,66,001,19,w,Psychologie Bachelor,2023-01-25_10h30.47.531,00_bat_bachelor,2022.2.4,60.02156415137956,
,,,,,,,,,,,,0,0,0,0,25,0,25,0,,,,,,,25,,,1,379.91690121244756,,Y,None,nogo,None,1,,,,,,,,,,,,,,,,,,66,001,19,w,Psychologie Bachelor,2023-01-25_10h30.47.531,00_bat_bachelor,2022.2.4,60.02156415137956,
,,,,,,,,,,,,0,0,0,0,26,0,26,0,,,,,,,26,,,1,381.7181363172713,,Y,None,nogo,None,1,,,,,,,,,,,,,,,,,,66,001,19,w,Psychologie Bachelor,2023-01-25_10h30.47.531,00_bat_bachelor,2022.2.4,60.02156415137956,
,,,,,,,,,,,,0,0,0,0,27,0,27,0,,,,,,,27,,,1,383.51933845237363,,X,d,go,d,1,0.3248267747403588,,,,,,,,,,,,,,,,,66,001,19,w,Psychologie Bachelor,2023-01-25_10h30.47.531,00_bat_bachelor,2022.2.4,60.02156415137956,
,,,,,,,,,,,,0,0,0,0,28,0,28,0,,,,,,,28,,,1,384.9540959332371,,Y,l,go,l,1,0.4764313588675577,,,,,,,,,,,,,,,,,66,001,19,w,Psychologie Bachelor,2023-01-25_10h30.47.531,00_bat_bachelor,2022.2.4,60.02156415137956,
,,,,,,,,,,,,0,0,0,0,29,0,29,0,,,,,,,29,,,1,386.53865338955075,,X,d,go,d,1,0.44300634058890864,,,,,,,,,,,,,,,,,66,001,19,w,Psychologie Bachelor,2023-01-25_10h30.47.531,00_bat_bachelor,2022.2.4,60.02156415137956,
,,,,,,,,,,,,0,0,0,0,30,0,30,0,,,,,,,30,,,1,388.0895249787136,388.8902558403788,X,None,nogo,None,1,,,,,,,,,,,,,,,,,,66,001,19,w,Psychologie Bachelor,2023-01-25_10h30.47.531,00_bat_bachelor,2022.2.4,60.02156415137956,
,,,,,,,,,,,,0,0,0,0,31,0,31,0,,,,,,,31,,,1,389.89116638715495,,Y,l,go,d,0,0.4987509064958431,,,,,,,,,,,,,,,,,66,001,19,w,Psychologie Bachelor,2023-01-25_10h30.47.531,00_bat_bachelor,2022.2.4,60.02156415137956,
,,,,,,,,,,,,0,0,0,0,32,0,32,0,,,,,,,32,,,1,391.49244677688694,,X,d,go,d,1,0.5934555291023571,,,,,,,,,,,,,,,,,66,001,19,w,Psychologie Bachelor,2023-01-25_10h30.47.531,00_bat_bachelor,2022.2.4,60.02156415137956,
,,,,,,,,,,,,0,0,0,0,33,0,33,0,,,,,,,33,,,1,393.1934790693049,,Y,l,go,l,1,0.41139029458281584,,,,,,,,,,,,,,,,,66,001,19,w,Psychologie Bachelor,2023-01-25_10h30.47.531,00_bat_bachelor,2022.2.4,60.02156415137956,
,,,,,,,,,,,,0,0,0,0,34,0,34,0,,,,,,,34,,,1,394.7115869744157,,X,d,go,d,1,0.5896887357230298,,,,,,,,,,,,,,,,,66,001,19,w,Psychologie Bachelor,2023-01-25_10h30.47.531,00_bat_bachelor,2022.2.4,60.02156415137956,
,,,,,,,,,,,,0,0,0,0,35,0,35,0,,,,,,,35,,,1,396.4125460546056,,X,None,nogo,None,1,,,,,,,,,,,,,,,,,,66,001,19,w,Psychologie Bachelor,2023-01-25_10h30.47.531,00_bat_bachelor,2022.2.4,60.02156415137956,
,,,,,,,,,,,,0,0,0,0,36,0,36,0,,,,,,,36,,,1,398.21418164487113,,Y,l,go,l,1,0.4306247468048241,,,,,,,,,,,,,,,,,66,001,19,w,Psychologie Bachelor,2023-01-25_10h30.47.531,00_bat_bachelor,2022.2.4,60.02156415137956,
,,,,,,,,,,,,0,0,0,0,37,0,37,0,,,,,,,37,,,1,399.7487875133811,,X,d,go,d,1,0.5925154065189417,,,,,,,,,,,,,,,,,66,001,19,w,Psychologie Bachelor,2023-01-25_10h30.47.531,00_bat_bachelor,2022.2.4,60.02156415137956,
,,,,,,,,,,,,0,0,0,0,38,0,38,0,,,,,,,38,,,1,401.4499162907887,,Y,l,go,l,1,0.5383461156161502,,,,,,,,,,,,,,,,,66,001,19,w,Psychologie Bachelor,2023-01-25_10h30.47.531,00_bat_bachelor,2022.2.4,60.02156415137956,
,,,,,,,,,,,,0,0,0,0,39,0,39,0,,,,,,,39,,,1,403.1012350563251,,Y,None,nogo,None,1,,,,,,,,,,,,,,,,,,66,001,19,w,Psychologie Bachelor,2023-01-25_10h30.47.531,00_bat_bachelor,2022.2.4,60.02156415137956,
,,,,,,,,,,,,0,0,0,0,40,0,40,0,,,,,,,40,,,1,404.90232325185207,,X,d,go,d,1,0.4786073620489333,,,,,,,,,,,,,,,,,66,001,19,w,Psychologie Bachelor,2023-01-25_10h30.47.531,00_bat_bachelor,2022.2.4,60.02156415137956,
,,,,,,,,,,,,0,0,0,0,41,0,41,0,,,,,,,41,,,1,406.4869301627914,,Y,l,go,l,1,0.46227618676493876,,,,,,,,,,,,,,,,,66,001,19,w,Psychologie Bachelor,2023-01-25_10h30.47.531,00_bat_bachelor,2022.2.4,60.02156415137956,
,,,,,,,,,,,,0,0,0,0,42,0,42,0,,,,,,,42,,,1,408.05508856498636,,X,d,go,d,1,0.5579514774435665,,,,,,,,,,,,,,,,,66,001,19,w,Psychologie Bachelor,2023-01-25_10h30.47.531,00_bat_bachelor,2022.2.4,60.02156415137956,
,,,,,,,,,,,,0,0,0,0,43,0,43,0,,,,,,,43,,,1,409.7228238392563,,Y,l,go,l,1,0.4426199157605879,,,,,,,,,,,,,,,,,66,001,19,w,Psychologie Bachelor,2023-01-25_10h30.47.531,00_bat_bachelor,2022.2.4,60.02156415137956,
,,,,,,,,,,,,0,0,0,0,44,0,44,0,,,,,,,44,,,1,411.2738956711255,,Y,None,nogo,None,1,,,,,,,,,,,,,,,,,,66,001,19,w,Psychologie Bachelor,2023-01-25_10h30.47.531,00_bat_bachelor,2022.2.4,60.02156415137956,
,,,,,,,,,,,,0,0,0,0,45,0,45,0,,,,,,,45,,,1,413.07556714021484,,X,d,go,d,1,0.35333105860627256,,,,,,,,,,,,,,,,,66,001,19,w,Psychologie Bachelor,2023-01-25_10h30.47.531,00_bat_bachelor,2022.2.4,60.02156415137956,
,,,,,,,,,,,,0,0,0,0,46,0,46,0,,,,,,,46,,,1,414.5433651539788,,Y,l,go,l,1,0.48555961457896046,,,,,,,,,,,,,,,,,66,001,19,w,Psychologie Bachelor,2023-01-25_10h30.47.531,00_bat_bachelor,2022.2.4,60.02156415137956,
,,,,,,,,,,,,0,0,0,0,47,0,47,0,,,,,,,47,,,1,416.14468627105816,,X,d,go,d,1,0.5003833937225863,,,,,,,,,,,,,,,,,66,001,19,w,Psychologie Bachelor,2023-01-25_10h30.47.531,00_bat_bachelor,2022.2.4,60.02156415137956,
,,,,,,,,,,,,0,0,0,0,48,0,48,0,,,,,,,48,,,1,417.7458536909253,,Y,l,go,l,1,0.6436805718403775,,,,,,,,,,,,,,,,,66,001,19,w,Psychologie Bachelor,2023-01-25_10h30.47.531,00_bat_bachelor,2022.2.4,60.02156415137956,
,,,,,,,,,,,,0,0,0,0,49,0,49,0,,,,,,,49,,,1,419.4970625411661,,Y,None,nogo,None,1,,,,,,,,,,,,,,,,,,66,001,19,w,Psychologie Bachelor,2023-01-25_10h30.47.531,00_bat_bachelor,2022.2.4,60.02156415137956,
,,,,,,,,,,,,0,0,0,0,50,0,50,0,,,,,,,50,,,1,421.2983015248028,,Y,None,nogo,None,1,,,,,,,,,,,,,,,,,,66,001,19,w,Psychologie Bachelor,2023-01-25_10h30.47.531,00_bat_bachelor,2022.2.4,60.02156415137956,
,,,,,,,,,,,,0,0,0,0,51,0,51,0,,,,,,,51,,,1,423.09982802398736,,X,d,go,d,1,0.281263075012248,,,,,,,,,,,,,,,,,66,001,19,w,Psychologie Bachelor,2023-01-25_10h30.47.531,00_bat_bachelor,2022.2.4,60.02156415137956,
,,,,,,,,,,,,0,0,0,0,52,0,52,0,,,,,,,52,,,1,424.4842499164806,,Y,l,go,l,1,0.5287911926279776,,,,,,,,,,,,,,,,,66,001,19,w,Psychologie Bachelor,2023-01-25_10h30.47.531,00_bat_bachelor,2022.2.4,60.02156415137956,
,,,,,,,,,,,,0,0,0,0,53,0,53,0,,,,,,,53,,,1,426.1189722942654,,X,d,go,d,1,0.3497717806894798,,,,,,,,,,,,,,,,,66,001,19,w,Psychologie Bachelor,2023-01-25_10h30.47.531,00_bat_bachelor,2022.2.4,60.02156415137956,
,,,,,,,,,,,,0,0,0,0,54,0,54,0,,,,,,,54,,,1,427.56986846524524,,Y,l,go,l,1,0.4831106413039379,,,,,,,,,,,,,,,,,66,001,19,w,Psychologie Bachelor,2023-01-25_10h30.47.531,00_bat_bachelor,2022.2.4,60.02156415137956,
,,,,,,,,,,,,0,0,0,0,55,0,55,0,,,,,,,55,,,1,429.1545674975496,,X,d,go,d,1,0.38636286422843114,,,,,,,,,,,,,,,,,66,001,19,w,Psychologie Bachelor,2023-01-25_10h30.47.531,00_bat_bachelor,2022.2.4,60.02156415137956,
,,,,,,,,,,,,0,0,0,0,56,0,56,0,,,,,,,56,,,1,430.65556701415335,,Y,l,go,l,1,0.4209078841668088,,,,,,,,,,,,,,,,,66,001,19,w,Psychologie Bachelor,2023-01-25_10h30.47.531,00_bat_bachelor,2022.2.4,60.02156415137956,
,,,,,,,,,,,,0,0,0,0,57,0,57,0,,,,,,,57,,,1,432.18992948837695,,X,d,go,d,1,0.567514642898459,,,,,,,,,,,,,,,,,66,001,19,w,Psychologie Bachelor,2023-01-25_10h30.47.531,00_bat_bachelor,2022.2.4,60.02156415137956,
,,,,,,,,,,,,0,0,0,0,58,0,58,0,,,,,,,58,,,1,433.8581418542599,,Y,l,go,l,1,0.5799374488124158,,,,,,,,,,,,,,,,,66,001,19,w,Psychologie Bachelor,2023-01-25_10h30.47.531,00_bat_bachelor,2022.2.4,60.02156415137956,
,,,,,,,,,,,,0,0,0,0,59,0,59,0,,,,,,,59,,,1,435.5426916984434,,Y,None,nogo,None,1,,,,,,,,,,,,,,,,,,66,001,19,w,Psychologie Bachelor,2023-01-25_10h30.47.531,00_bat_bachelor,2022.2.4,60.02156415137956,
,,,,,,,,,,,,0,0,0,0,60,0,60,0,,,,,,,60,,,1,437.3438094697776,,X,d,go,d,1,0.3893049291218631,,,,,,,,,,,,,,,,,66,001,19,w,Psychologie Bachelor,2023-01-25_10h30.47.531,00_bat_bachelor,2022.2.4,60.02156415137956,
,,,,,,,,,,,,0,0,0,0,61,0,61,0,,,,,,,61,,,1,438.8452109263744,,Y,l,go,l,1,0.6157571372750681,,,,,,,,,,,,,,,,,66,001,19,w,Psychologie Bachelor,2023-01-25_10h30.47.531,00_bat_bachelor,2022.2.4,60.02156415137956,
,,,,,,,,,,,,0,0,0,0,62,0,62,0,,,,,,,62,,,1,440.5632250616618,,X,d,go,d,1,0.5140318984049372,,,,,,,,,,,,,,,,,66,001,19,w,Psychologie Bachelor,2023-01-25_10h30.47.531,00_bat_bachelor,2022.2.4,60.02156415137956,
,,,,,,,,,,,,0,0,0,0,63,0,63,0,,,,,,,63,,,1,442.18082062664325,,Y,l,go,l,1,0.3356810935365502,,,,,,,,,,,,,,,,,66,001,19,w,Psychologie Bachelor,2023-01-25_10h30.47.531,00_bat_bachelor,2022.2.4,60.02156415137956,
,,,,,,,,,,,,0,0,0,0,64,0,64,0,,,,,,,64,,,1,443.6322283135378,,Y,None,nogo,None,1,,,,,,,,,,,,,,,,,,66,001,19,w,Psychologie Bachelor,2023-01-25_10h30.47.531,00_bat_bachelor,2022.2.4,60.02156415137956,
,,,,,,,,,,,,0,0,0,0,65,0,65,0,,,,,,,65,,,1,445.43365250955685,,X,d,go,d,1,0.34792305072187446,,,,,,,,,,,,,,,,,66,001,19,w,Psychologie Bachelor,2023-01-25_10h30.47.531,00_bat_bachelor,2022.2.4,60.02156415137956,
,,,,,,,,,,,,0,0,0,0,66,0,66,0,,,,,,,66,,,1,446.88453122598,,Y,l,go,l,1,0.36783774639479816,,,,,,,,,,,,,,,,,66,001,19,w,Psychologie Bachelor,2023-01-25_10h30.47.531,00_bat_bachelor,2022.2.4,60.02156415137956,
,,,,,,,,,,,,0,0,0,0,67,0,67,0,,,,,,,67,,,1,448.36890332447365,,Y,None,nogo,None,1,,,,,,,,,,,,,,,,,,66,001,19,w,Psychologie Bachelor,2023-01-25_10h30.47.531,00_bat_bachelor,2022.2.4,60.02156415137956,
,,,,,,,,,,,,0,0,0,0,68,0,68,0,,,,,,,68,,,1,450.17054279352305,,X,d,go,d,1,0.44375640226644464,,,,,,,,,,,,,,,,,66,001,19,w,Psychologie Bachelor,2023-01-25_10h30.47.531,00_bat_bachelor,2022.2.4,60.02156415137956,
,,,,,,,,,,,,0,0,0,0,69,0,69,0,,,,,,,69,,,1,451.72179498928017,,Y,l,go,l,1,0.47452590154716745,,,,,,,,,,,,,,,,,66,001,19,w,Psychologie Bachelor,2023-01-25_10h30.47.531,00_bat_bachelor,2022.2.4,60.02156415137956,
,,,,,,,,,,,,0,0,0,0,70,0,70,0,,,,,,,70,,,1,453.3060057784314,,Y,None,nogo,None,1,,,,,,,,,,,,,,,,,,66,001,19,w,Psychologie Bachelor,2023-01-25_10h30.47.531,00_bat_bachelor,2022.2.4,60.02156415137956,
,,,,,,,,,,,,0,0,0,0,71,0,71,0,,,,,,,71,,,1,455.10780233860714,,X,d,go,d,1,0.4160593922715634,,,,,,,,,,,,,,,,,66,001,19,w,Psychologie Bachelor,2023-01-25_10h30.47.531,00_bat_bachelor,2022.2.4,60.02156415137956,
,,,,,,,,,,,,0,0,0,0,72,0,72,0,,,,,,,72,,,1,456.64246687389095,,Y,l,go,l,1,0.5470447949192021,,,,,,,,,,,,,,,,,66,001,19,w,Psychologie Bachelor,2023-01-25_10h30.47.531,00_bat_bachelor,2022.2.4,60.02156415137956,
,,,,,,,,,,,,0,0,0,0,73,0,73,0,,,,,,,73,,,1,458.29371679085307,459.09417856123764,Y,None,nogo,None,1,,,,,,,,,,,,,,,,,,66,001,19,w,Psychologie Bachelor,2023-01-25_10h30.47.531,00_bat_bachelor,2022.2.4,60.02156415137956,
,,,,,,,,,,,,0,0,0,0,74,0,74,0,,,,,,,74,,,1,460.09521856272477,,X,d,go,d,1,0.4693797122745309,,,,,,,,,,,,,,,,,66,001,19,w,Psychologie Bachelor,2023-01-25_10h30.47.531,00_bat_bachelor,2022.2.4,60.02156415137956,
,,,,,,,,,,,,0,0,0,0,75,0,75,0,,,,,,,75,,,1,461.6796315340034,,Y,l,go,l,1,0.46988250088179484,,,,,,,,,,,,,,,,,66,001,19,w,Psychologie Bachelor,2023-01-25_10h30.47.531,00_bat_bachelor,2022.2.4,60.02156415137956,
,,,,,,,,,,,,0,0,0,0,76,0,76,0,,,,,,,76,,,1,463.26399795975885,,X,d,go,d,1,0.5164139624685049,,,,,,,,,,,,,,,,,66,001,19,w,Psychologie Bachelor,2023-01-25_10h30.47.531,00_bat_bachelor,2022.2.4,60.02156415137956,
,,,,,,,,,,,,0,0,0,0,77,0,77,0,,,,,,,77,,,1,464.88149267609697,,X,None,nogo,None,1,,,,,,,,,,,,,,,,,,66,001,19,w,Psychologie Bachelor,2023-01-25_10h30.47.531,00_bat_bachelor,2022.2.4,60.02156415137956,
,,,,,,,,,,,,0,0,0,0,78,0,78,0,,,,,,,78,,,1,466.6828843872354,,Y,l,go,l,1,0.39514008912374265,,,,,,,,,,,,,,,,,66,001,19,w,Psychologie Bachelor,2023-01-25_10h30.47.531,00_bat_bachelor,2022.2.4,60.02156415137956,
,,,,,,,,,,,,0,0,0,0,79,0,79,0,,,,,,,79,,,1,468.18402111614705,,X,d,go,d,1,0.5085632844129577,,,,,,,,,,,,,,,,,66,001,19,w,Psychologie Bachelor,2023-01-25_10h30.47.531,00_bat_bachelor,2022.2.4,60.02156415137956,
,,,,,,,,,,,,0,0,0,0,80,0,80,0,,,,,,,80,,,1,469.8022954699991,,Y,l,go,l,1,0.602163420553552,,,,,,,,,,,,,,,,,66,001,19,w,Psychologie Bachelor,2023-01-25_10h30.47.531,00_bat_bachelor,2022.2.4,60.02156415137956,
,,,,,,,,,,,,0,0,0,0,81,0,81,0,,,,,,,81,,,1,471.5199129986577,472.3208814364334,Y,None,nogo,None,1,,,,,,,,,,,,,,,,,,66,001,19,w,Psychologie Bachelor,2023-01-25_10h30.47.531,00_bat_bachelor,2022.2.4,60.02156415137956,
,,,,,,,,,,,,0,0,0,0,82,0,82,0,,,,,,,82,,,1,473.3216717406176,,X,d,go,d,1,0.39668433379847556,,,,,,,,,,,,,,,,,66,001,19,w,Psychologie Bachelor,2023-01-25_10h30.47.531,00_bat_bachelor,2022.2.4,60.02156415137956,
,,,,,,,,,,,,0,0,0,0,83,0,83,0,,,,,,,83,,,1,474.82266737840837,,Y,l,go,l,1,0.4309757776209153,,,,,,,,,,,,,,,,,66,001,19,w,Psychologie Bachelor,2023-01-25_10h30.47.531,00_bat_bachelor,2022.2.4,60.02156415137956,
,,,,,,,,,,,,0,0,0,0,84,0,84,0,,,,,,,84,,,1,476.3571985801682,,X,d,go,d,1,0.4155823006585706,,,,,,,,,,,,,,,,,66,001,19,w,Psychologie Bachelor,2023-01-25_10h30.47.531,00_bat_bachelor,2022.2.4,60.02156415137956,
,,,,,,,,,,,,0,0,0,0,85,0,85,0,,,,,,,85,,,1,477.87476927239913,,Y,l,go,l,1,0.4655518279178068,,,,,,,,,,,,,,,,,66,001,19,w,Psychologie Bachelor,2023-01-25_10h30.47.531,00_bat_bachelor,2022.2.4,60.02156415137956,
,,,,,,,,,,,,0,0,0,0,86,0,86,0,,,,,,,86,,,1,479.4426115528913,,X,d,go,d,1,0.48209051860612817,,,,,,,,,,,,,,,,,66,001,19,w,Psychologie Bachelor,2023-01-25_10h30.47.531,00_bat_bachelor,2022.2.4,60.02156415137956,
,,,,,,,,,,,,0,0,0,0,87,0,87,0,,,,,,,87,,,1,481.02745991872507,,X,None,nogo,None,1,,,,,,,,,,,,,,,,,,66,001,19,w,Psychologie Bachelor,2023-01-25_10h30.47.531,00_bat_bachelor,2022.2.4,60.02156415137956,
,,,,,,,,,,,,0,0,0,0,88,0,88,0,,,,,,,88,,,1,482.8285699324624,,Y,l,go,l,1,0.4556002982717473,,,,,,,,,,,,,,,,,66,001,19,w,Psychologie Bachelor,2023-01-25_10h30.47.531,00_bat_bachelor,2022.2.4,60.02156415137956,
,,,,,,,,,,,,0,0,0,0,89,0,89,0,,,,,,,89,,,1,484.396702637634,,X,d,go,d,1,0.40960701924632303,,,,,,,,,,,,,,,,,66,001,19,w,Psychologie Bachelor,2023-01-25_10h30.47.531,00_bat_bachelor,2022.2.4,60.02156415137956,
,,,,,,,,,,,,0,0,0,0,90,0,90,0,,,,,,,90,,,1,485.9144808452984,,Y,l,go,l,1,0.5711674966732971,,,,,,,,,,,,,,,,,66,001,19,w,Psychologie Bachelor,2023-01-25_10h30.47.531,00_bat_bachelor,2022.2.4,60.02156415137956,
,,,,,,,,,,,,0,0,0,0,91,0,91,0,,,,,,,91,,,1,487.5991921442619,,Y,None,nogo,None,1,,,,,,,,,,,,,,,,,,66,001,19,w,Psychologie Bachelor,2023-01-25_10h30.47.531,00_bat_bachelor,2022.2.4,60.02156415137956,
,,,,,,,,,,,,0,0,0,0,92,0,92,0,,,,,,,92,,,1,489.4005760978034,,X,d,go,d,1,0.39726275886641815,,,,,,,,,,,,,,,,,66,001,19,w,Psychologie Bachelor,2023-01-25_10h30.47.531,00_bat_bachelor,2022.2.4,60.02156415137956,
,,,,,,,,,,,,0,0,0,0,93,0,93,0,,,,,,,93,,,1,490.9020876151626,,Y,l,go,l,1,0.3675342307833489,,,,,,,,,,,,,,,,,66,001,19,w,Psychologie Bachelor,2023-01-25_10h30.47.531,00_bat_bachelor,2022.2.4,60.02156415137956,
,,,,,,,,,,,,0,0,0,0,94,0,94,0,,,,,,,94,,,1,492.3864587439457,493.1869641507219,Y,None,nogo,None,1,,,,,,,,,,,,,,,,,,66,001,19,w,Psychologie Bachelor,2023-01-25_10h30.47.531,00_bat_bachelor,2022.2.4,60.02156415137956,
,,,,,,,,,,,,0,0,0,0,95,0,95,0,,,,,,,95,,,1,494.1877782125084,494.9884770741337,Y,None,nogo,None,1,,,,,,,,,,,,,,,,,,66,001,19,w,Psychologie Bachelor,2023-01-25_10h30.47.531,00_bat_bachelor,2022.2.4,60.02156415137956,
,,,,,,,,,,,,0,0,0,0,96,0,96,0,,,,,,,96,,,1,495.98926543892594,,X,d,go,d,1,0.27245433488860726,,,,,,,,,,,,,,,,,66,001,19,w,Psychologie Bachelor,2023-01-25_10h30.47.531,00_bat_bachelor,2022.2.4,60.02156415137956,
,,,,,,,,,,,,0,0,0,0,97,0,97,0,,,,,,,97,,,1,497.3734575129056,,Y,l,go,l,1,0.44000560892163776,,,,,,,,,,,,,,,,,66,001,19,w,Psychologie Bachelor,2023-01-25_10h30.47.531,00_bat_bachelor,2022.2.4,60.02156415137956,
,,,,,,,,,,,,0,0,0,0,98,0,98,0,,,,,,,98,,,1,498.92481492093066,499.72548760069185,Y,None,nogo,None,1,,,,,,,,,,,,,,,,,,66,001,19,w,Psychologie Bachelor,2023-01-25_10h30.47.531,00_bat_bachelor,2022.2.4,60.02156415137956,
,,,,,,,,,,,,0,0,0,0,99,0,99,0,,,,,,,99,,,1,500.7262076017505,,X,d,go,d,1,0.4634485521237366,,,,,,,,,,,,,,,,,66,001,19,w,Psychologie Bachelor,2023-01-25_10h30.47.531,00_bat_bachelor,2022.2.4,60.02156415137956,
,,,,,,,,,,,,0,0,0,0,100,0,100,0,,,,,,,100,,,1,502.2941458823916,,Y,l,go,None,0,,,,,,,,,,,,,,,,,,66,001,19,w,Psychologie Bachelor,2023-01-25_10h30.47.531,00_bat_bachelor,2022.2.4,60.02156415137956,
,,,,,,,,,,,,0,0,0,0,101,0,101,0,,,,,,,101,,,1,504.09525201734505,,X,d,go,d,1,0.37486902935779653,,,,,,,,,,,,,,,,,66,001,19,w,Psychologie Bachelor,2023-01-25_10h30.47.531,00_bat_bachelor,2022.2.4,60.02156415137956,
,,,,,,,,,,,,0,0,0,0,102,0,102,0,,,,,,,102,,,1,505.5797104189696,506.38056346264784,X,None,nogo,None,1,,,,,,,,,,,,,,,,,,66,001,19,w,Psychologie Bachelor,2023-01-25_10h30.47.531,00_bat_bachelor,2022.2.4,60.02156415137956,
,,,,,,,,,,,,0,0,0,0,103,0,103,0,,,,,,,103,,,1,507.3812534030294,,Y,l,go,l,1,0.43125262649846263,,,,,,,,,,,,,,,,,66,001,19,w,Psychologie Bachelor,2023-01-25_10h30.47.531,00_bat_bachelor,2022.2.4,60.02156415137956,
,,,,,,,,,,,,0,0,0,0,104,0,104,0,,,,,,,104,,,1,508.9322190529201,,X,d,go,d,1,0.4006984002480749,,,,,,,,,,,,,,,,,66,001,19,w,Psychologie Bachelor,2023-01-25_10h30.47.531,00_bat_bachelor,2022.2.4,60.02156415137956,
,,,,,,,,,,,,0,0,0,0,105,0,105,0,,,,,,,105,,,1,510.43339602433844,,Y,l,go,l,1,0.48322603543056175,,,,,,,,,,,,,,,,,66,001,19,w,Psychologie Bachelor,2023-01-25_10h30.47.531,00_bat_bachelor,2022.2.4,60.02156415137956,
,,,,,,,,,,,,0,0,0,0,106,0,106,0,,,,,,,106,,,1,512.0179239048448,,X,d,go,d,1,0.4188506690552458,,,,,,,,,,,,,,,,,66,001,19,w,Psychologie Bachelor,2023-01-25_10h30.47.531,00_bat_bachelor,2022.2.4,60.02156415137956,
,,,,,,,,,,,,0,0,0,0,107,0,107,0,,,,,,,107,,,1,513.552563227975,514.3532422107819,X,None,nogo,None,1,,,,,,,,,,,,,,,,,,66,001,19,w,Psychologie Bachelor,2023-01-25_10h30.47.531,00_bat_bachelor,2022.2.4,60.02156415137956,
,,,,,,,,,,,,0,0,0,0,108,0,108,0,,,,,,,108,,,1,515.3541905758029,,Y,l,go,l,1,0.31576882215449587,,,,,,,,,,,,,,,,,66,001,19,w,Psychologie Bachelor,2023-01-25_10h30.47.531,00_bat_bachelor,2022.2.4,60.02156415137956,
,,,,,,,,,,,,0,0,0,0,109,0,109,0,,,,,,,109,,,1,516.7716525163269,,X,d,go,d,1,0.46551013085991144,,,,,,,,,,,,,,,,,66,001,19,w,Psychologie Bachelor,2023-01-25_10h30.47.531,00_bat_bachelor,2022.2.4,60.02156415137956,
,,,,,,,,,,,,0,0,0,0,110,0,110,0,,,,,,,110,,,1,518.3396945547138,,Y,l,go,l,1,0.49792229922604747,,,,,,,,,,,,,,,,,66,001,19,w,Psychologie Bachelor,2023-01-25_10h30.47.531,00_bat_bachelor,2022.2.4,60.02156415137956,
,,,,,,,,,,,,0,0,0,0,111,0,111,0,,,,,,,111,,,1,519.9409565201786,,X,d,go,d,1,0.4647353418695275,,,,,,,,,,,,,,,,,66,001,19,w,Psychologie Bachelor,2023-01-25_10h30.47.531,00_bat_bachelor,2022.2.4,60.02156415137956,
,,,,,,,,,,,,0,0,0,0,112,0,112,0,,,,,,,112,,,1,521.5085757700435,,Y,l,go,l,1,0.4975450865458697,,,,,,,,,,,,,,,,,66,001,19,w,Psychologie Bachelor,2023-01-25_10h30.47.531,00_bat_bachelor,2022.2.4,60.02156415137956,
,,,,,,,,,,,,0,0,0,0,113,0,113,0,,,,,,,113,,,1,523.1097339777916,,X,d,go,d,1,0.351296146545792,,,,,,,,,,,,,,,,,66,001,19,w,Psychologie Bachelor,2023-01-25_10h30.47.531,00_bat_bachelor,2022.2.4,60.02156415137956,
,,,,,,,,,,,,0,0,0,0,114,0,114,0,,,,,,,114,,,1,524.5775964765053,,Y,l,go,l,1,0.38737183541525155,,,,,,,,,,,,,,,,,66,001,19,w,Psychologie Bachelor,2023-01-25_10h30.47.531,00_bat_bachelor,2022.2.4,60.02156415137956,
,,,,,,,,,,,,0,0,0,0,115,0,115,0,,,,,,,115,,,1,526.078703144769,526.8792347334384,Y,None,nogo,None,1,,,,,,,,,,,,,,,,,,66,001,19,w,Psychologie Bachelor,2023-01-25_10h30.47.531,00_bat_bachelor,2022.2.4,60.02156415137956,
,,,,,,,,,,,,0,0,0,0,116,0,116,0,,,,,,,116,,,1,527.8800357042928,,X,d,go,d,1,0.4453811318962835,,,,,,,,,,,,,,,,,66,001,19,w,Psychologie Bachelor,2023-01-25_10h30.47.531,00_bat_bachelor,2022.2.4,60.02156415137956,
,,,,,,,,,,,,0,0,0,0,117,0,117,0,,,,,,,117,,,1,529.4310222026834,,Y,l,go,l,1,0.3980579115450382,,,,,,,,,,,,,,,,,66,001,19,w,Psychologie Bachelor,2023-01-25_10h30.47.531,00_bat_bachelor,2022.2.4,60.02156415137956,
,,,,,,,,,,,,0,0,0,0,118,0,118,0,,,,,,,118,,,1,530.9323654773762,,Y,None,nogo,None,1,,,,,,,,,,,,,,,,,,66,001,19,w,Psychologie Bachelor,2023-01-25_10h30.47.531,00_bat_bachelor,2022.2.4,60.02156415137956,
,,,,,,,,,,,,0,0,0,0,119,0,119,0,,,,,,,119,,,1,532.7337887036847,,X,d,go,d,1,0.28070501357433386,,,,,,,,,,,,,,,,,66,001,19,w,Psychologie Bachelor,2023-01-25_10h30.47.531,00_bat_bachelor,2022.2.4,60.02156415137956,
,,,,,,,,,,,,0,0,0,0,120,0,120,0,,,,,,,120,,,1,534.1179827170563,,Y,l,go,l,1,0.4793419085617643,,,,,,,,,,,,,,,,,66,001,19,w,Psychologie Bachelor,2023-01-25_10h30.47.531,00_bat_bachelor,2022.2.4,60.02156415137956,
,,,,,,,,,,,,0,0,0,0,121,0,121,0,,,,,,,121,,,1,535.7025290218589,,X,d,go,d,1,0.3185028867155779,,,,,,,,,,,,,,,,,66,001,19,w,Psychologie Bachelor,2023-01-25_10h30.47.531,00_bat_bachelor,2022.2.4,60.02156415137956,
,,,,,,,,,,,,0,0,0,0,122,0,122,0,,,,,,,122,,,1,537.137146381312,537.9377783337259,X,None,nogo,None,1,,,,,,,,,,,,,,,,,,66,001,19,w,Psychologie Bachelor,2023-01-25_10h30.47.531,00_bat_bachelor,2022.2.4,60.02156415137956,
,,,,,,,,,,,,0,0,0,0,123,0,123,0,,,,,,,123,,,1,538.9384794256766,,Y,l,go,l,1,0.4430824618902989,,,,,,,,,,,,,,,,,66,001,19,w,Psychologie Bachelor,2023-01-25_10h30.47.531,00_bat_bachelor,2022.2.4,60.02156415137956,
,,,,,,,,,,,,0,0,0,0,124,0,124,0,,,,,,,124,,,1,540.4897224092856,,X,d,go,d,1,0.3476961413398385,,,,,,,,,,,,,,,,,66,001,19,w,Psychologie Bachelor,2023-01-25_10h30.47.531,00_bat_bachelor,2022.2.4,60.02156415137956,
,,,,,,,,,,,,0,0,0,0,125,0,125,0,,,,,,,125,,,1,541.9407795502339,542.7413925935398,X,None,nogo,None,1,,,,,,,,,,,,,,,,,,66,001,19,w,Psychologie Bachelor,2023-01-25_10h30.47.531,00_bat_bachelor,2022.2.4,60.02156415137956,
,,,,,,,,,,,,0,0,0,0,126,0,126,0,,,,,,,126,,,1,543.7420132005063,,Y,l,go,l,1,0.4866723434533924,,,,,,,,,,,,,,,,,66,001,19,w,Psychologie Bachelor,2023-01-25_10h30.47.531,00_bat_bachelor,2022.2.4,60.02156415137956,
,,,,,,,,,,,,0,0,0,0,127,0,127,0,,,,,,,127,,,1,545.3435156511841,,X,d,go,d,1,0.42218109816894867,,,,,,,,,,,,,,,,,66,001,19,w,Psychologie Bachelor,2023-01-25_10h30.47.531,00_bat_bachelor,2022.2.4,60.02156415137956,
,,,,,,,,,,,,0,0,0,0,128,0,128,0,,,,,,,128,,,1,546.8776890342124,547.6784538353095,X,None,nogo,None,1,,,,,,,,,,,,,,,,,,66,001,19,w,Psychologie Bachelor,2023-01-25_10h30.47.531,00_bat_bachelor,2022.2.4,60.02156415137956,
,,,,,,,,,,,,0,0,0,0,129,0,129,0,,,,,,,129,,,1,548.6791190484073,,Y,l,go,l,1,0.3655255005869549,,,,,,,,,,,,,,,,,66,001,19,w,Psychologie Bachelor,2023-01-25_10h30.47.531,00_bat_bachelor,2022.2.4,60.02156415137956,
,,,,,,,,,,,,0,0,0,0,130,0,130,0,,,,,,,130,,,1,550.1469020318473,,X,d,go,d,1,0.35459603017079644,,,,,,,,,,,,,,,,,66,001,19,w,Psychologie Bachelor,2023-01-25_10h30.47.531,00_bat_bachelor,2022.2.4,60.02156415137956,
,,,,,,,,,,,,0,0,0,0,131,0,131,0,,,,,,,131,,,1,551.6148052579083,,Y,l,go,l,1,0.4064758631866425,,,,,,,,,,,,,,,,,66,001,19,w,Psychologie Bachelor,2023-01-25_10h30.47.531,00_bat_bachelor,2022.2.4,60.02156415137956,
,,,,,,,,,,,,0,0,0,0,132,0,132,0,,,,,,,132,,,1,553.1325834655727,,X,d,go,d,1,0.3440684996894561,,,,,,,,,,,,,,,,,66,001,19,w,Psychologie Bachelor,2023-01-25_10h30.47.531,00_bat_bachelor,2022.2.4,60.02156415137956,
,,,,,,,,,,,,0,0,0,0,133,0,133,0,,,,,,,133,,,1,554.583679879288,,Y,l,go,None,0,,,,,,,,,,,,,,,,,,66,001,19,w,Psychologie Bachelor,2023-01-25_10h30.47.531,00_bat_bachelor,2022.2.4,60.02156415137956,
,,,,,,,,,,,,0,0,0,0,134,0,134,0,,,,,,,134,,,1,556.384717165638,,Y,None,nogo,None,1,,,,,,,,,,,,,,,,,,66,001,19,w,Psychologie Bachelor,2023-01-25_10h30.47.531,00_bat_bachelor,2022.2.4,60.02156415137956,
,,,,,,,,,,,,0,0,0,0,135,0,135,0,,,,,,,135,,,1,558.1864628166659,,X,d,go,d,1,0.33189442136790603,,,,,,,,,,,,,,,,,66,001,19,w,Psychologie Bachelor,2023-01-25_10h30.47.531,00_bat_bachelor,2022.2.4,60.02156415137956,
,,,,,,,,,,,,0,0,0,0,136,0,136,0,,,,,,,136,,,1,559.6205284177267,,Y,l,go,l,1,0.36776744324015453,,,,,,,,,,,,,,,,,66,001,19,w,Psychologie Bachelor,2023-01-25_10h30.47.531,00_bat_bachelor,2022.2.4,60.02156415137956,
,,,,,,,,,,,,0,0,0,0,137,0,137,0,,,,,,,137,,,1,561.1053572441451,,X,d,go,d,1,0.41960897319950163,,,,,,,,,,,,,,,,,66,001,19,w,Psychologie Bachelor,2023-01-25_10h30.47.531,00_bat_bachelor,2022.2.4,60.02156415137956,
,,,,,,,,,,,,0,0,0,0,138,0,138,0,,,,,,,138,,,1,562.6398995974159,,Y,l,go,l,1,0.5330724109662697,,,,,,,,,,,,,,,,,66,001,19,w,Psychologie Bachelor,2023-01-25_10h30.47.531,00_bat_bachelor,2022.2.4,60.02156415137956,
,,,,,,,,,,,,0,0,0,0,139,0,139,0,,,,,,,139,,,1,564.2744978538249,,X,d,go,d,1,0.32213440717896447,,,,,,,,,,,,,,,,,66,001,19,w,Psychologie Bachelor,2023-01-25_10h30.47.531,00_bat_bachelor,2022.2.4,60.02156415137956,
,,,,,,,,,,,,0,0,0,0,140,0,140,0,,,,,,,140,,,1,565.708829637093,,Y,l,go,l,1,0.39319632871774957,,,,,,,,,,,,,,,,,66,001,19,w,Psychologie Bachelor,2023-01-25_10h30.47.531,00_bat_bachelor,2022.2.4,60.02156415137956,
,,,,,,,,,,,,0,0,0,0,141,0,141,0,,,,,,,141,,,1,567.209650244331,,Y,None,nogo,l,0,0.42821698571788147,,,,,,,,,,,,,,,,,66,001,19,w,Psychologie Bachelor,2023-01-25_10h30.47.531,00_bat_bachelor,2022.2.4,60.02156415137956,
,,,,,,,,,,,,0,0,0,0,142,0,142,0,,,,,,,142,,,1,568.7444209615642,,X,d,go,d,1,0.39745524400495924,,,,,,,,,,,,,,,,,66,001,19,w,Psychologie Bachelor,2023-01-25_10h30.47.531,00_bat_bachelor,2022.2.4,60.02156415137956,
,,,,,,,,,,,,0,0,0,0,143,0,143,0,,,,,,,143,,,1,570.245600842085,,Y,l,go,l,1,0.6246570290240925,,,,,,,,,,,,,,,,,66,001,19,w,Psychologie Bachelor,2023-01-25_10h30.47.531,00_bat_bachelor,2022.2.4,60.02156415137956,
,,,,,,,,,,,,0,0,0,0,144,0,144,0,,,,,,,144,,,1,571.9803568198986,,X,d,go,d,1,0.34477637949748896,,,,,,,,,,,,,,,,,66,001,19,w,Psychologie Bachelor,2023-01-25_10h30.47.531,00_bat_bachelor,2022.2.4,60.02156415137956,
,,,,,,,,,,,,0,0,0,0,145,0,145,0,,,,,,,145,,,1,573.431316021306,574.2319736707432,Y,l,go,None,0,,,,,,,,,,,,,,,,,,66,001,19,w,Psychologie Bachelor,2023-01-25_10h30.47.531,00_bat_bachelor,2022.2.4,60.02156415137956,
,,,,,,,,,,,,0,0,0,0,146,0,146,0,,,,,,,146,,,1,575.2328192477289,,X,d,go,d,1,0.5006277576903813,,,,,,,,,,,,,,,,,66,001,19,w,Psychologie Bachelor,2023-01-25_10h30.47.531,00_bat_bachelor,2022.2.4,60.02156415137956,
,,,,,,,,,,,,0,0,0,0,147,0,147,0,,,,,,,147,,,1,576.8339566069772,,X,None,nogo,None,1,,,,,,,,,,,,,,,,,,66,001,19,w,Psychologie Bachelor,2023-01-25_10h30.47.531,00_bat_bachelor,2022.2.4,60.02156415137956,
,,,,,,,,,,,,0,0,0,0,148,0,148,0,,,,,,,148,,,1,578.6351960754255,,X,None,nogo,None,1,,,,,,,,,,,,,,,,,,66,001,19,w,Psychologie Bachelor,2023-01-25_10h30.47.531,00_bat_bachelor,2022.2.4,60.02156415137956,
,,,,,,,,,,,,0,0,0,0,149,0,149,0,,,,,,,149,,,1,580.4367424534285,,Y,l,go,l,1,0.27336197259137407,,,,,,,,,,,,,,,,,66,001,19,w,Psychologie Bachelor,2023-01-25_10h30.47.531,00_bat_bachelor,2022.2.4,60.02156415137956,
,,,,,,,,,,,,0,0,0,0,150,0,150,0,,,,,,,150,,,1,581.8211454368138,,X,d,go,d,1,0.48825052758911625,,,,,,,,,,,,,,,,,66,001,19,w,Psychologie Bachelor,2023-01-25_10h30.47.531,00_bat_bachelor,2022.2.4,60.02156415137956,
,,,,,,,,,,,,0,0,0,0,151,0,151,0,,,,,,,151,,,1,583.4222420687147,,Y,l,go,l,1,0.42255976537126116,,,,,,,,,,,,,,,,,66,001,19,w,Psychologie Bachelor,2023-01-25_10h30.47.531,00_bat_bachelor,2022.2.4,60.02156415137956,
,,,,,,,,,,,,0,0,0,0,152,0,152,0,,,,,,,152,,,1,584.9568789675832,,X,d,go,d,1,0.5046583090152126,,,,,,,,,,,,,,,,,66,001,19,w,Psychologie Bachelor,2023-01-25_10h30.47.531,00_bat_bachelor,2022.2.4,60.02156415137956,
,,,,,,,,,,,,0,0,0,0,153,0,153,0,,,,,,,153,,,1,586.5747605935903,,Y,l,go,l,1,0.470304804504849,,,,,,,,,,,,,,,,,66,001,19,w,Psychologie Bachelor,2023-01-25_10h30.47.531,00_bat_bachelor,2022.2.4,60.02156415137956,
,,,,,,,,,,,,0,0,0,0,154,0,154,0,,,,,,,154,,,1,588.1592807165289,,X,d,go,d,1,0.4055037405632902,,,,,,,,,,,,,,,,,66,001,19,w,Psychologie Bachelor,2023-01-25_10h30.47.531,00_bat_bachelor,2022.2.4,60.02156415137956,
,,,,,,,,,,,,0,0,0,0,155,0,155,0,,,,,,,155,,,1,589.6772106820135,,X,None,nogo,None,1,,,,,,,,,,,,,,,,,,66,001,19,w,Psychologie Bachelor,2023-01-25_10h30.47.531,00_bat_bachelor,2022.2.4,60.02156415137956,
,,,,,,,,,,,,0,0,0,0,156,0,156,0,,,,,,,156,,,1,591.4784598474507,,Y,l,go,l,1,0.4303348069661297,,,,,,,,,,,,,,,,,66,001,19,w,Psychologie Bachelor,2023-01-25_10h30.47.531,00_bat_bachelor,2022.2.4,60.02156415137956,
,,,,,,,,,,,,0,0,0,0,157,0,157,0,,,,,,,157,,,1,593.0130807462847,,X,d,go,d,1,0.36825956517714076,,,,,,,,,,,,,,,,,66,001,19,w,Psychologie Bachelor,2023-01-25_10h30.47.531,00_bat_bachelor,2022.2.4,60.02156415137956,
,,,,,,,,,,,,0,0,0,0,158,0,158,0,,,,,,,158,,,1,594.4975401176198,,Y,l,go,l,1,0.2929547283856664,,,,,,,,,,,,,,,,,66,001,19,w,Psychologie Bachelor,2023-01-25_10h30.47.531,00_bat_bachelor,2022.2.4,60.02156415137956,
,,,,,,,,,,,,0,0,0,0,159,0,159,0,,,,,,,159,,,1,595.8984905190009,596.6991025926254,Y,None,nogo,None,1,,,,,,,,,,,,,,,,,,66,001,19,w,Psychologie Bachelor,2023-01-25_10h30.47.531,00_bat_bachelor,2022.2.4,60.02156415137956,
,,,,,,,,,,,,0,0,0,0,160,0,160,0,,,,,,,160,,,1,597.6999118059175,,X,d,go,d,1,0.36942562749027275,,,,,,,,,,,,,,,,,66,001,19,w,Psychologie Bachelor,2023-01-25_10h30.47.531,00_bat_bachelor,2022.2.4,60.02156415137956,
,,,,,,,,,,,,0,0,0,0,161,0,161,0,,,,,,,161,,,1,599.1844856016687,,Y,l,go,l,1,0.32462459261296317,,,,,,,,,,,,,,,,,66,001,19,w,Psychologie Bachelor,2023-01-25_10h30.47.531,00_bat_bachelor,2022.2.4,60.02156415137956,
,,,,,,,,,,,,0,0,0,0,162,0,162,0,,,,,,,162,,,1,600.6188314455794,,Y,None,nogo,None,1,,,,,,,,,,,,,,,,,,66,001,19,w,Psychologie Bachelor,2023-01-25_10h30.47.531,00_bat_bachelor,2022.2.4,60.02156415137956,
,,,,,,,,,,,,0,0,0,0,163,0,163,0,,,,,,,163,,,1,602.4201232777559,,X,d,go,d,1,0.32077392033534124,,,,,,,,,,,,,,,,,66,001,19,w,Psychologie Bachelor,2023-01-25_10h30.47.531,00_bat_bachelor,2022.2.4,60.02156415137956,
,,,,,,,,,,,,0,0,0,0,164,0,164,0,,,,,,,164,,,1,603.8546223339799,,Y,l,go,l,1,0.39132287143729627,,,,,,,,,,,,,,,,,66,001,19,w,Psychologie Bachelor,2023-01-25_10h30.47.531,00_bat_bachelor,2022.2.4,60.02156415137956,
,,,,,,,,,,,,0,0,0,0,165,0,165,0,,,,,,,165,,,1,605.3556034263165,,Y,None,nogo,l,0,0.3618406467430759,,,,,,,,,,,,,,,,,66,001,19,w,Psychologie Bachelor,2023-01-25_10h30.47.531,00_bat_bachelor,2022.2.4,60.02156415137956,
,,,,,,,,,,,,0,0,0,0,166,0,166,0,,,,,,,166,,,1,606.8235371978662,,X,d,go,d,1,0.46214285324094817,,,,,,,,,,,,,,,,,66,001,19,w,Psychologie Bachelor,2023-01-25_10h30.47.531,00_bat_bachelor,2022.2.4,60.02156415137956,
,,,,,,,,,,,,0,0,0,0,167,0,167,0,,,,,,,167,,,1,608.3911263870832,,Y,l,go,None,0,,,,,,,,,,,,,,,,,,66,001,19,w,Psychologie Bachelor,2023-01-25_10h30.47.531,00_bat_bachelor,2022.2.4,60.02156415137956,
,,,,,,,,,,,,0,0,0,0,168,0,168,0,,,,,,,168,,,1,610.1929011290777,,X,d,go,d,1,0.43647057347698137,,,,,,,,,,,,,,,,,66,001,19,w,Psychologie Bachelor,2023-01-25_10h30.47.531,00_bat_bachelor,2022.2.4,60.02156415137956,
,,,,,,,,,,,,0,0,0,0,169,0,169,0,,,,,,,169,,,1,611.744034536765,,Y,l,go,l,1,0.644976088864496,,,,,,,,,,,,,,,,,66,001,19,w,Psychologie Bachelor,2023-01-25_10h30.47.531,00_bat_bachelor,2022.2.4,60.02156415137956,
,,,,,,,,,,,,0,0,0,0,170,0,170,0,,,,,,,170,,,1,613.4950184169866,,X,d,go,d,1,0.5903907973843161,,,,,,,,,,,,,,,,,66,001,19,w,Psychologie Bachelor,2023-01-25_10h30.47.531,00_bat_bachelor,2022.2.4,60.02156415137956,
,,,,,,,,,,,,0,0,0,0,171,0,171,0,,,,,,,171,,,1,615.1964322857093,,Y,l,go,l,1,0.6323312220047228,,,,,,,,,,,,,,,,,66,001,19,w,Psychologie Bachelor,2023-01-25_10h30.47.531,00_bat_bachelor,2022.2.4,60.02156415137956,
,,,,,,,,,,,,0,0,0,0,172,0,172,0,,,,,,,172,,,1,616.9312910515582,,Y,None,nogo,None,1,,,,,,,,,,,,,,,,,,66,001,19,w,Psychologie Bachelor,2023-01-25_10h30.47.531,00_bat_bachelor,2022.2.4,60.02156415137956,
,,,,,,,,,,,,0,0,0,0,173,0,173,0,,,,,,,173,,,1,618.7326769444917,,X,d,go,d,1,0.34516038006404415,,,,,,,,,,,,,,,,,66,001,19,w,Psychologie Bachelor,2023-01-25_10h30.47.531,00_bat_bachelor,2022.2.4,60.02156415137956,
,,,,,,,,,,,,0,0,0,0,174,0,174,0,,,,,,,174,,,1,620.1838131158438,,Y,l,go,l,1,0.3823284341196995,,,,,,,,,,,,,,,,,66,001,19,w,Psychologie Bachelor,2023-01-25_10h30.47.531,00_bat_bachelor,2022.2.4,60.02156415137956,
,,,,,,,,,,,,0,0,0,0,175,0,175,0,,,,,,,175,,,1,621.6682972144918,,Y,None,nogo,None,1,,,,,,,,,,,,,,,,,,66,001,19,w,Psychologie Bachelor,2023-01-25_10h30.47.531,00_bat_bachelor,2022.2.4,60.02156415137956,
,,,,,,,,,,,,0,0,0,0,176,0,176,0,,,,,,,176,,,1,623.4692991068587,,X,d,go,d,1,0.34490680394810624,,,,,,,,,,,,,,,,,66,001,19,w,Psychologie Bachelor,2023-01-25_10h30.47.531,00_bat_bachelor,2022.2.4,60.02156415137956,
,,,,,,,,,,,,0,0,0,0,177,0,177,0,,,,,,,177,,,1,624.9205560056434,,Y,l,go,l,1,0.493742414371809,,,,,,,,,,,,,,,,,66,001,19,w,Psychologie Bachelor,2023-01-25_10h30.47.531,00_bat_bachelor,2022.2.4,60.02156415137956,
,,,,,,,,,,,,0,0,0,0,178,0,178,0,,,,,,,178,,,1,626.5219251227973,,Y,None,nogo,l,0,0.46014915336854756,,,,,,,,,,,,,,,,,66,001,19,w,Psychologie Bachelor,2023-01-25_10h30.47.531,00_bat_bachelor,2022.2.4,60.02156415137956,
,,,,,,,,,,,,0,0,0,0,179,0,179,0,,,,,,,179,,,1,628.0899981915136,,X,d,go,d,1,0.33189345165737905,,,,,,,,,,,,,,,,,66,001,19,w,Psychologie Bachelor,2023-01-25_10h30.47.531,00_bat_bachelor,2022.2.4,60.02156415137956,
,,,,,,,,,,,,0,0,0,0,180,0,180,0,,,,,,,180,,,1,629.524239307968,,Y,l,go,l,1,0.3685155655257404,,,,,,,,,,,,,,,,,66,001,19,w,Psychologie Bachelor,2023-01-25_10h30.47.531,00_bat_bachelor,2022.2.4,60.02156415137956,
,,,,,,,,,,,,0,0,0,0,181,0,181,0,,,,,,,181,,,1,631.0086603762174,,X,d,go,d,1,0.3250386538275052,,,,,,,,,,,,,,,,,66,001,19,w,Psychologie Bachelor,2023-01-25_10h30.47.531,00_bat_bachelor,2022.2.4,60.02156415137956,
,,,,,,,,,,,,0,0,0,0,182,0,182,0,,,,,,,182,,,1,632.4429422200192,,X,None,nogo,None,1,,,,,,,,,,,,,,,,,,66,001,19,w,Psychologie Bachelor,2023-01-25_10h30.47.531,00_bat_bachelor,2022.2.4,60.02156415137956,
,,,,,,,,,,,,0,0,0,0,183,0,183,0,,,,,,,183,,,1,634.2445060526079,,Y,l,go,l,1,0.36876041439245455,,,,,,,,,,,,,,,,,66,001,19,w,Psychologie Bachelor,2023-01-25_10h30.47.531,00_bat_bachelor,2022.2.4,60.02156415137956,
,,,,,,,,,,,,0,0,0,0,184,0,184,0,,,,,,,184,,,1,635.7290124543069,,X,d,go,d,1,0.5644785172480624,,,,,,,,,,,,,,,,,66,001,19,w,Psychologie Bachelor,2023-01-25_10h30.47.531,00_bat_bachelor,2022.2.4,60.02156415137956,
,,,,,,,,,,,,0,0,0,0,185,0,185,0,,,,,,,185,,,1,637.396963486477,638.197548408556,Y,l,go,None,0,,,,,,,,,,,,,,,,,,66,001,19,w,Psychologie Bachelor,2023-01-25_10h30.47.531,00_bat_bachelor,2022.2.4,60.02156415137956,
,,,,,,,,,,,,0,0,0,0,186,0,186,0,,,,,,,186,,,1,639.1983687733882,,Y,None,nogo,None,1,,,,,,,,,,,,,,,,,,66,001,19,w,Psychologie Bachelor,2023-01-25_10h30.47.531,00_bat_bachelor,2022.2.4,60.02156415137956,
,,,,,,,,,,,,0,0,0,0,187,0,187,0,,,,,,,187,,,1,640.9994976962334,,X,d,go,d,1,0.3493291133781895,,,,,,,,,,,,,,,,,66,001,19,w,Psychologie Bachelor,2023-01-25_10h30.47.531,00_bat_bachelor,2022.2.4,60.02156415137956,
,,,,,,,,,,,,0,0,0,0,188,0,188,0,,,,,,,188,,,1,642.4505892614543,,Y,l,go,l,1,0.4022809479793068,,,,,,,,,,,,,,,,,66,001,19,w,Psychologie Bachelor,2023-01-25_10h30.47.531,00_bat_bachelor,2022.2.4,60.02156415137956,
,,,,,,,,,,,,0,0,0,0,189,0,189,0,,,,,,,189,,,1,643.9682908629766,,Y,None,nogo,l,0,0.5164464474073611,,,,,,,,,,,,,,,,,66,001,19,w,Psychologie Bachelor,2023-01-25_10h30.47.531,00_bat_bachelor,2022.2.4,60.02156415137956,
,,,,,,,,,,,,0,0,0,0,190,0,190,0,,,,,,,190,,,1,645.5862980649108,,Y,None,nogo,None,1,,,,,,,,,,,,,,,,,,66,001,19,w,Psychologie Bachelor,2023-01-25_10h30.47.531,00_bat_bachelor,2022.2.4,60.02156415137956,
,,,,,,,,,,,,0,0,0,0,191,0,191,0,,,,,,,191,,,1,647.3879234733467,,X,d,go,d,1,0.2820451367588248,,,,,,,,,,,,,,,,,66,001,19,w,Psychologie Bachelor,2023-01-25_10h30.47.531,00_bat_bachelor,2022.2.4,60.02156415137956,
,,,,,,,,,,,,0,0,0,0,192,0,192,0,,,,,,,192,,,1,648.772300274868,649.5728842272074,Y,l,go,None,0,,,,,,,,,,,,,,,,,,66,001,19,w,Psychologie Bachelor,2023-01-25_10h30.47.531,00_bat_bachelor,2022.2.4,60.02156415137956,
,,,,,,,,,,,,0,0,0,0,193,0,193,0,,,,,,,193,,,1,650.5734776826284,,X,d,go,d,1,0.28090137749677524,,,,,,,,,,,,,,,,,66,001,19,w,Psychologie Bachelor,2023-01-25_10h30.47.531,00_bat_bachelor,2022.2.4,60.02156415137956,
,,,,,,,,,,,,0,0,0,0,194,0,194,0,,,,,,,194,,,1,651.9584377577121,,Y,l,go,l,1,0.5256964002328459,,,,,,,,,,,,,,,,,66,001,19,w,Psychologie Bachelor,2023-01-25_10h30.47.531,00_bat_bachelor,2022.2.4,60.02156415137956,
,,,,,,,,,,,,0,0,0,0,195,0,195,0,,,,,,,195,,,1,653.6097274323402,,X,d,go,d,1,0.3623230716912076,,,,,,,,,,,,,,,,,66,001,19,w,Psychologie Bachelor,2023-01-25_10h30.47.531,00_bat_bachelor,2022.2.4,60.02156415137956,
,,,,,,,,,,,,0,0,0,0,196,0,196,0,,,,,,,196,,,1,655.0941620763624,,Y,l,go,l,1,0.3990251856739633,,,,,,,,,,,,,,,,,66,001,19,w,Psychologie Bachelor,2023-01-25_10h30.47.531,00_bat_bachelor,2022.2.4,60.02156415137956,
,,,,,,,,,,,,0,0,0,0,197,0,197,0,,,,,,,197,,,1,656.6120954357611,657.4127686003922,Y,None,nogo,None,1,,,,,,,,,,,,,,,,,,66,001,19,w,Psychologie Bachelor,2023-01-25_10h30.47.531,00_bat_bachelor,2022.2.4,60.02156415137956,
,,,,,,,,,,,,0,0,0,0,198,0,198,0,,,,,,,198,,,1,658.4136073894915,659.2141229781264,Y,None,nogo,None,1,,,,,,,,,,,,,,,,,,66,001,19,w,Psychologie Bachelor,2023-01-25_10h30.47.531,00_bat_bachelor,2022.2.4,60.02156415137956,
,,,,,,,,,,,,0,0,0,0,199,0,199,0,,,,,,,199,,,1,660.2149792217824,,X,d,go,d,1,0.34935481040156446,,,,,,,,,,,,,,,,,66,001,19,w,Psychologie Bachelor,2023-01-25_10h30.47.531,00_bat_bachelor,2022.2.4,60.02156415137956,
,,,,,,,,,,,,0,0,0,0,200,0,200,0,,,,,,,200,,,1,661.6828363871609,,Y,l,go,l,1,0.3859182575251907,,,,,,,,,,,,,,,,,66,001,19,w,Psychologie Bachelor,2023-01-25_10h30.47.531,00_bat_bachelor,2022.2.4,60.02156415137956,
,,,,,,,,,,,,0,0,0,0,201,0,201,0,,,,,,,201,,,1,663.2006053827063,,X,d,go,d,1,0.4688715903030243,,,,,,,,,,,,,,,,,66,001,19,w,Psychologie Bachelor,2023-01-25_10h30.47.531,00_bat_bachelor,2022.2.4,60.02156415137956,
,,,,,,,,,,,,0,0,0,0,202,0,202,0,,,,,,,202,,,1,664.7851817481278,665.5857821853715,X,None,nogo,None,1,,,,,,,,,,,,,,,,,,66,001,19,w,Psychologie Bachelor,2023-01-25_10h30.47.531,00_bat_bachelor,2022.2.4,60.02156415137956,
,,,,,,,,,,,,0,0,0,0,203,0,203,0,,,,,,,203,,,1,666.5862553981715,,Y,l,go,l,1,0.39375923862098716,,,,,,,,,,,,,,,,,66,001,19,w,Psychologie Bachelor,2023-01-25_10h30.47.531,00_bat_bachelor,2022.2.4,60.02156415137956,
,,,,,,,,,,,,0,0,0,0,204,0,204,0,,,,,,,204,,,1,668.1041024544393,,X,d,go,d,1,0.44437846378423274,,,,,,,,,,,,,,,,,66,001,19,w,Psychologie Bachelor,2023-01-25_10h30.47.531,00_bat_bachelor,2022.2.4,60.02156415137956,
,,,,,,,,,,,,0,0,0,0,205,0,205,0,,,,,,,205,,,1,669.6720795230067,,X,None,nogo,d,0,0.47752226956072263,,,,,,,,,,,,,,,,,66,001,19,w,Psychologie Bachelor,2023-01-25_10h30.47.531,00_bat_bachelor,2022.2.4,60.02156415137956,
,,,,,,,,,,,,0,0,0,0,206,0,206,0,,,,,,,206,,,1,671.2734098522342,,Y,l,go,l,1,0.5071557672054041,,,,,,,,,,,,,,,,,66,001,19,w,Psychologie Bachelor,2023-01-25_10h30.47.531,00_bat_bachelor,2022.2.4,60.02156415137956,
,,,,,,,,,,,,0,0,0,0,207,0,207,0,,,,,,,207,,,1,672.9247082541115,673.724770023895,X,d,go,None,0,,,,,,,,,,,,,,,,,,66,001,19,w,Psychologie Bachelor,2023-01-25_10h30.47.531,00_bat_bachelor,2022.2.4,60.02156415137956,
,,,,,,,,,,,,0,0,0,0,208,0,208,0,,,,,,,208,,,1,674.725694146473,675.5264351899677,X,None,nogo,None,1,,,,,,,,,,,,,,,,,,66,001,19,w,Psychologie Bachelor,2023-01-25_10h30.47.531,00_bat_bachelor,2022.2.4,60.02156415137956,
,,,,,,,,,,,,0,0,0,0,209,0,209,0,,,,,,,209,,,1,676.5269244028023,,Y,l,go,l,1,0.31079960279748775,,,,,,,,,,,,,,,,,66,001,19,w,Psychologie Bachelor,2023-01-25_10h30.47.531,00_bat_bachelor,2022.2.4,60.02156415137956,
,,,,,,,,,,,,0,0,0,0,210,0,210,0,,,,,,,210,,,1,677.944890101644,,X,d,go,d,1,0.5561240808456205,,,,,,,,,,,,,,,,,66,001,19,w,Psychologie Bachelor,2023-01-25_10h30.47.531,00_bat_bachelor,2022.2.4,60.02156415137956,
,,,,,,,,,,,,0,0,0,0,211,0,211,0,,,,,,,211,,,1,679.6126438002102,680.4132684798969,X,None,nogo,None,1,,,,,,,,,,,,,,,,,,66,001,19,w,Psychologie Bachelor,2023-01-25_10h30.47.531,00_bat_bachelor,2022.2.4,60.02156415137956,
,,,,,,,,,,,,0,0,0,0,212,0,212,0,,,,,,,212,,,1,681.4143239965779,,Y,l,go,l,1,0.4799557276419364,,,,,,,,,,,,,,,,,66,001,19,w,Psychologie Bachelor,2023-01-25_10h30.47.531,00_bat_bachelor,2022.2.4,60.02156415137956,
,,,,,,,,,,,,0,0,0,0,213,0,213,0,,,,,,,213,,,1,682.998813089187,683.7992554655939,X,d,go,None,0,,,,,,,,,,,,,,,,,,66,001,19,w,Psychologie Bachelor,2023-01-25_10h30.47.531,00_bat_bachelor,2022.2.4,60.02156415137956,
,,,,,,,,,,,,0,0,0,0,214,0,214,0,,,,,,,214,,,1,684.8000700122211,,Y,l,go,l,1,0.5009521218307782,,,,,,,,,,,,,,,,,66,001,19,w,Psychologie Bachelor,2023-01-25_10h30.47.531,00_bat_bachelor,2022.2.4,60.02156415137956,
,,,,,,,,,,,,0,0,0,0,215,0,215,0,,,,,,,215,,,1,686.4012146441964,687.2019702331745,Y,None,nogo,None,1,,,,,,,,,,,,,,,,,,66,001,19,w,Psychologie Bachelor,2023-01-25_10h30.47.531,00_bat_bachelor,2022.2.4,60.02156415137956,
,,,,,,,,,,,,0,0,0,0,216,0,216,0,,,,,,,216,,,1,688.2027193251706,,X,d,go,d,1,0.4584880600741599,,,,,,,,,,,,,,,,,66,001,19,w,Psychologie Bachelor,2023-01-25_10h30.47.531,00_bat_bachelor,2022.2.4,60.02156415137956,
,,,,,,,,,,,,0,0,0,0,217,0,217,0,,,,,,,217,,,1,689.7706246360613,,Y,l,go,l,1,0.5074238888046239,,,,,,,,,,,,,,,,,66,001,19,w,Psychologie Bachelor,2023-01-25_10h30.47.531,00_bat_bachelor,2022.2.4,60.02156415137956,
,,,,,,,,,,,,0,0,0,0,218,0,218,0,,,,,,,218,,,1,691.3885547469836,,X,d,go,d,1,0.5850346683582757,,,,,,,,,,,,,,,,,66,001,19,w,Psychologie Bachelor,2023-01-25_10h30.47.531,00_bat_bachelor,2022.2.4,60.02156415137956,
,,,,,,,,,,,,0,0,0,0,219,0,219,0,,,,,,,219,,,1,693.0898338276311,693.8904812952387,X,None,nogo,None,1,,,,,,,,,,,,,,,,,,66,001,19,w,Psychologie Bachelor,2023-01-25_10h30.47.531,00_bat_bachelor,2022.2.4,60.02156415137956,
,,,,,,,,,,,,0,0,0,0,220,0,220,0,,,,,,,220,,,1,694.8911988720356,,Y,l,go,l,1,0.5056042498035822,,,,,,,,,,,,,,,,,66,001,19,w,Psychologie Bachelor,2023-01-25_10h30.47.531,00_bat_bachelor,2022.2.4,60.02156415137956,
,,,,,,,,,,,,0,0,0,0,221,0,221,0,,,,,,,221,,,1,696.5090397707245,,X,d,go,d,1,0.4410203982843086,,,,,,,,,,,,,,,,,66,001,19,w,Psychologie Bachelor,2023-01-25_10h30.47.531,00_bat_bachelor,2022.2.4,60.02156415137956,
,,,,,,,,,,,,0,0,0,0,222,0,222,0,,,,,,,222,,,1,698.0601814208785,,X,None,nogo,d,0,0.47357608200400136,,,,,,,,,,,,,,,,,66,001,19,w,Psychologie Bachelor,2023-01-25_10h30.47.531,00_bat_bachelor,2022.2.4,60.02156415137956,
,,,,,,,,,,,,0,0,0,0,223,0,223,0,,,,,,,223,,,1,699.6445968163898,,Y,l,go,l,1,0.520266574138077,,,,,,,,,,,,,,,,,66,001,19,w,Psychologie Bachelor,2023-01-25_10h30.47.531,00_bat_bachelor,2022.2.4,60.02156415137956,
,,,,,,,,,,,,0,0,0,0,224,0,224,0,,,,,,,224,,,1,701.2793492547935,702.0800422982429,X,d,go,None,0,,,,,,,,,,,,,,,,,,66,001,19,w,Psychologie Bachelor,2023-01-25_10h30.47.531,00_bat_bachelor,2022.2.4,60.02156415137956,
,,,,,,,,,,,,0,0,0,0,225,0,225,0,,,,,,,225,,,1,703.0807404810621,,X,None,nogo,d,0,0.412408962729387,,,,,,,,,,,,,,,,,66,001,19,w,Psychologie Bachelor,2023-01-25_10h30.47.531,00_bat_bachelor,2022.2.4,60.02156415137956,
,,,,,,,,,,,,0,0,0,0,226,0,226,0,,,,,,,226,,,1,704.598510446318,,Y,l,go,l,1,0.4469685281510465,,,,,,,,,,,,,,,,,66,001,19,w,Psychologie Bachelor,2023-01-25_10h30.47.531,00_bat_bachelor,2022.2.4,60.02156415137956,
,,,,,,,,,,,,0,0,0,0,227,0,227,0,,,,,,,227,,,1,706.1497524602455,706.9501381092996,X,d,go,None,0,,,,,,,,,,,,,,,,,,66,001,19,w,Psychologie Bachelor,2023-01-25_10h30.47.531,00_bat_bachelor,2022.2.4,60.02156415137956,
,,,,,,,,,,,,0,0,0,0,228,0,228,0,,,,,,,228,,,1,707.9510884137126,708.7516277599498,X,None,nogo,None,1,,,,,,,,,,,,,,,,,,66,001,19,w,Psychologie Bachelor,2023-01-25_10h30.47.531,00_bat_bachelor,2022.2.4,60.02156415137956,
,,,,,,,,,,,,0,0,0,0,229,0,229,0,,,,,,,229,,,1,709.7525732158683,,Y,l,go,l,1,0.3484709303302225,,,,,,,,,,,,,,,,,66,001,19,w,Psychologie Bachelor,2023-01-25_10h30.47.531,00_bat_bachelor,2022.2.4,60.02156415137956,
,,,,,,,,,,,,0,0,0,0,230,0,230,0,,,,,,,230,,,1,711.220343593217,,X,d,go,d,1,0.5775490817031823,,,,,,,,,,,,,,,,,66,001,19,w,Psychologie Bachelor,2023-01-25_10h30.47.531,00_bat_bachelor,2022.2.4,60.02156415137956,
,,,,,,,,,,,,0,0,0,0,231,0,231,0,,,,,,,231,,,1,712.9049414374749,713.7055748444691,X,None,nogo,None,1,,,,,,,,,,,,,,,,,,66,001,19,w,Psychologie Bachelor,2023-01-25_10h30.47.531,00_bat_bachelor,2022.2.4,60.02156415137956,
,,,,,,,,,,,,0,0,0,0,232,0,232,0,,,,,,,232,,,1,714.7061474513612,,Y,l,go,l,1,0.40251076652202755,,,,,,,,,,,,,,,,,66,001,19,w,Psychologie Bachelor,2023-01-25_10h30.47.531,00_bat_bachelor,2022.2.4,60.02156415137956,
,,,,,,,,,,,,0,0,0,0,233,0,233,0,,,,,,,233,,,1,716.2239620227192,,X,d,go,d,1,0.596451412216993,,,,,,,,,,,,,,,,,66,001,19,w,Psychologie Bachelor,2023-01-25_10h30.47.531,00_bat_bachelor,2022.2.4,60.02156415137956,
,,,,,,,,,,,,0,0,0,0,234,0,234,0,,,,,,,234,,,1,717.9421259764349,,Y,l,go,l,1,0.44756780174793676,,,,,,,,,,,,,,,,,66,001,19,w,Psychologie Bachelor,2023-01-25_10h30.47.531,00_bat_bachelor,2022.2.4,60.02156415137956,
,,,,,,,,,,,,0,0,0,0,235,0,235,0,,,,,,,235,,,1,719.5100928631728,,X,d,go,d,1,0.47954651492182165,,,,,,,,,,,,,,,,,66,001,19,w,Psychologie Bachelor,2023-01-25_10h30.47.531,00_bat_bachelor,2022.2.4,60.02156415137956,
,,,,,,,,,,,,0,0,0,0,236,0,236,0,,,,,,,236,,,1,721.0943463190342,721.8951411808084,X,None,nogo,None,1,,,,,,,,,,,,,,,,,,66,001,19,w,Psychologie Bachelor,2023-01-25_10h30.47.531,00_bat_bachelor,2022.2.4,60.02156415137956,
,,,,,,,,,,,,0,0,0,0,237,0,237,0,,,,,,,237,,,1,722.8959547577542,,Y,l,go,l,1,0.39069935539737344,,,,,,,,,,,,,,,,,66,001,19,w,Psychologie Bachelor,2023-01-25_10h30.47.531,00_bat_bachelor,2022.2.4,60.02156415137956,
,,,,,,,,,,,,0,0,0,0,238,0,238,0,,,,,,,238,,,1,724.3968505166413,725.19744513568,X,d,go,None,0,,,,,,,,,,,,,,,,,,66,001,19,w,Psychologie Bachelor,2023-01-25_10h30.47.531,00_bat_bachelor,2022.2.4,60.02156415137956,
,,,,,,,,,,,,0,0,0,0,239,0,239,0,,,,,,,239,,,1,726.198247076245,,Y,l,go,l,1,0.48023548562196083,,,,,,,,,,,,,,,,,66,001,19,w,Psychologie Bachelor,2023-01-25_10h30.47.531,00_bat_bachelor,2022.2.4,60.02156415137956,
,,,,,,,,,,,,0,0,0,0,240,0,240,0,,,,,,,240,,,1,727.7827516839898,728.5833850909839,Y,None,nogo,None,1,,,,,,,,,,,,,,,,,,66,001,19,w,Psychologie Bachelor,2023-01-25_10h30.47.531,00_bat_bachelor,2022.2.4,60.02156415137956,
,,,,,,,,,,,,0,0,0,0,241,0,241,0,,,,,,,241,,,1,729.5841467890714,,X,d,go,d,1,0.452842960919952,,,,,,,,,,,,,,,,,66,001,19,w,Psychologie Bachelor,2023-01-25_10h30.47.531,00_bat_bachelor,2022.2.4,60.02156415137956,
,,,,,,,,,,,,0,0,0,0,242,0,242,0,,,,,,,242,,,1,731.1519691907451,,Y,l,go,l,1,0.4215847336454317,,,,,,,,,,,,,,,,,66,001,19,w,Psychologie Bachelor,2023-01-25_10h30.47.531,00_bat_bachelor,2022.2.4,60.02156415137956,
,,,,,,,,,,,,0,0,0,0,243,0,243,0,,,,,,,243,,,1,732.6865100894647,,Y,None,nogo,None,1,,,,,,,,,,,,,,,,,,66,001,19,w,Psychologie Bachelor,2023-01-25_10h30.47.531,00_bat_bachelor,2022.2.4,60.02156415137956,
,,,,,,,,,,,,0,0,0,0,244,0,244,0,,,,,,,244,,,1,734.4874344059499,,X,d,go,d,1,0.39882445812691003,,,,,,,,,,,,,,,,,66,001,19,w,Psychologie Bachelor,2023-01-25_10h30.47.531,00_bat_bachelor,2022.2.4,60.02156415137956,
,,,,,,,,,,,,0,0,0,0,245,0,245,0,,,,,,,245,,,1,735.9888082261314,,Y,l,go,l,1,0.4489505916426424,,,,,,,,,,,,,,,,,66,001,19,w,Psychologie Bachelor,2023-01-25_10h30.47.531,00_bat_bachelor,2022.2.4,60.02156415137956,
,,,,,,,,,,,,0,0,0,0,246,0,246,0,,,,,,,246,,,1,737.5401467250485,738.3404174648458,Y,None,nogo,None,1,,,,,,,,,,,,,,,,,,66,001,19,w,Psychologie Bachelor,2023-01-25_10h30.47.531,00_bat_bachelor,2022.2.4,60.02156415137956,
,,,,,,,,,,,,0,0,0,0,247,0,247,0,,,,,,,247,,,1,739.3411743144388,,X,d,go,d,1,0.4404356701707002,,,,,,,,,,,,,,,,,66,001,19,w,Psychologie Bachelor,2023-01-25_10h30.47.531,00_bat_bachelor,2022.2.4,60.02156415137956,
,,,,,,,,,,,,0,0,0,0,248,0,248,0,,,,,,,248,,,1,740.8925356012478,,Y,l,go,l,1,0.48950434758444317,,,,,,,,,,,,,,,,,66,001,19,w,Psychologie Bachelor,2023-01-25_10h30.47.531,00_bat_bachelor,2022.2.4,60.02156415137956,
,,,,,,,,,,,,0,0,0,0,249,0,249,0,,,,,,,249,,,1,742.4935459299886,743.2975073418347,Y,None,nogo,None,1,,,,,,,,,,,,,,,,,,66,001,19,w,Psychologie Bachelor,2023-01-25_10h30.47.531,00_bat_bachelor,2022.2.4,60.02156415137956,
,,,,,,,,,,,,1,0,1,0,0,0,0,0,,,,,,,0,,,0.2,757.922322311264,,X,d,go,d,1,0.5963268060004339,,,,,,,,743.2975073418347,space,14.4076123496925,,,,,,,66,001,19,w,Psychologie Bachelor,2023-01-25_10h30.47.531,00_bat_bachelor,2022.2.4,60.02156415137956,
,,,,,,,,,,,,1,0,1,0,1,0,1,0,,,,,,,1,,,0.2,758.8230179243837,,Y,l,go,l,1,0.39930348910274915,,,,,,,,,,,,,,,,,66,001,19,w,Psychologie Bachelor,2023-01-25_10h30.47.531,00_bat_bachelor,2022.2.4,60.02156415137956,
,,,,,,,,,,,,1,0,1,0,2,0,2,0,,,,,,,2,,,0.2,759.5235396705975,,X,d,go,d,1,0.46545970655279234,,,,,,,,,,,,,,,,,66,001,19,w,Psychologie Bachelor,2023-01-25_10h30.47.531,00_bat_bachelor,2022.2.4,60.02156415137956,
,,,,,,,,,,,,1,0,1,0,3,0,3,0,,,,,,,3,,,0.2,760.2908169078582,761.0911773447297,X,None,nogo,None,1,,,,,,,,,,,,,,,,,,66,001,19,w,Psychologie Bachelor,2023-01-25_10h30.47.531,00_bat_bachelor,2022.2.4,60.02156415137956,
,,,,,,,,,,,,1,0,1,0,4,0,4,0,,,,,,,4,,,0.2,761.2915606665192,,Y,l,go,l,1,0.5385012673505116,,,,,,,,,,,,,,,,,66,001,19,w,Psychologie Bachelor,2023-01-25_10h30.47.531,00_bat_bachelor,2022.2.4,60.02156415137956,
,,,,,,,,,,,,1,0,1,0,5,0,5,0,,,,,,,5,,,0.2,762.1421655401064,,X,d,go,d,1,0.5828761197626591,,,,,,,,,,,,,,,,,66,001,19,w,Psychologie Bachelor,2023-01-25_10h30.47.531,00_bat_bachelor,2022.2.4,60.02156415137956,
,,,,,,,,,,,,1,0,1,0,6,0,6,0,,,,,,,6,,,0.2,763.0260126438807,,Y,l,go,l,1,0.6123098595417105,,,,,,,,,,,,,,,,,66,001,19,w,Psychologie Bachelor,2023-01-25_10h30.47.531,00_bat_bachelor,2022.2.4,60.02156415137956,
,,,,,,,,,,,,1,0,1,0,7,0,7,0,,,,,,,7,,,0.2,763.943273129611,,Y,None,nogo,None,1,,,,,,,,,,,,,,,,,,66,001,19,w,Psychologie Bachelor,2023-01-25_10h30.47.531,00_bat_bachelor,2022.2.4,60.02156415137956,
,,,,,,,,,,,,1,0,1,0,8,0,8,0,,,,,,,8,,,0.2,764.944223434024,,X,d,go,d,1,0.5329715623229276,,,,,,,,,,,,,,,,,66,001,19,w,Psychologie Bachelor,2023-01-25_10h30.47.531,00_bat_bachelor,2022.2.4,60.02156415137956,
,,,,,,,,,,,,1,0,1,0,9,0,9,0,,,,,,,9,,,0.2,765.7781092530058,,Y,l,go,l,1,0.5472464921767823,,,,,,,,,,,,,,,,,66,001,19,w,Psychologie Bachelor,2023-01-25_10h30.47.531,00_bat_bachelor,2022.2.4,60.02156415137956,
,,,,,,,,,,,,1,0,1,0,10,0,10,0,,,,,,,10,,,0.2,766.6289803088293,,X,d,go,d,1,0.40109549171756953,,,,,,,,,,,,,,,,,66,001,19,w,Psychologie Bachelor,2023-01-25_10h30.47.531,00_bat_bachelor,2022.2.4,60.02156415137956,
,,,,,,,,,,,,1,0,1,0,11,0,11,0,,,,,,,11,,,0.2,767.3462603824446,,X,None,nogo,None,1,,,,,,,,,,,,,,,,,,66,001,19,w,Psychologie Bachelor,2023-01-25_10h30.47.531,00_bat_bachelor,2022.2.4,60.02156415137956,
,,,,,,,,,,,,1,0,1,0,12,0,12,0,,,,,,,12,,,0.2,768.3469158985536,,Y,l,go,l,1,0.49160374456550926,,,,,,,,,,,,,,,,,66,001,19,w,Psychologie Bachelor,2023-01-25_10h30.47.531,00_bat_bachelor,2022.2.4,60.02156415137956,
,,,,,,,,,,,,1,0,1,0,13,0,13,0,,,,,,,13,,,0.2,769.1472409414419,,X,d,go,d,1,0.4575872102577705,,,,,,,,,,,,,,,,,66,001,19,w,Psychologie Bachelor,2023-01-25_10h30.47.531,00_bat_bachelor,2022.2.4,60.02156415137956,
,,,,,,,,,,,,1,0,1,0,14,0,14,0,,,,,,,14,,,0.2,769.9148318761145,,Y,l,go,l,1,0.3780249127012212,,,,,,,,,,,,,,,,,66,001,19,w,Psychologie Bachelor,2023-01-25_10h30.47.531,00_bat_bachelor,2022.2.4,60.02156415137956,
,,,,,,,,,,,,1,0,1,0,15,0,15,0,,,,,,,15,,,0.2,770.5986219616316,,X,d,go,d,1,0.4481059843383264,,,,,,,,,,,,,,,,,66,001,19,w,Psychologie Bachelor,2023-01-25_10h30.47.531,00_bat_bachelor,2022.2.4,60.02156415137956,
,,,,,,,,,,,,1,0,1,0,16,0,16,0,,,,,,,16,,,0.2,771.3491966291331,,Y,l,go,l,1,0.4168041206430644,,,,,,,,,,,,,,,,,66,001,19,w,Psychologie Bachelor,2023-01-25_10h30.47.531,00_bat_bachelor,2022.2.4,60.02156415137956,
,,,,,,,,,,,,1,0,1,0,17,0,17,0,,,,,,,17,,,0.2,772.0664417936059,,X,d,go,d,1,0.4673782548052259,,,,,,,,,,,,,,,,,66,001,19,w,Psychologie Bachelor,2023-01-25_10h30.47.531,00_bat_bachelor,2022.2.4,60.02156415137956,
,,,,,,,,,,,,1,0,1,0,18,0,18,0,,,,,,,18,,,0.2,772.850411903637,773.6510617954773,X,None,nogo,None,1,,,,,,,,,,,,,,,,,,66,001,19,w,Psychologie Bachelor,2023-01-25_10h30.47.531,00_bat_bachelor,2022.2.4,60.02156415137956,
,,,,,,,,,,,,1,0,1,0,19,0,19,0,,,,,,,19,,,0.2,773.8511934805138,,Y,l,go,l,1,0.41176847694441676,,,,,,,,,,,,,,,,,66,001,19,w,Psychologie Bachelor,2023-01-25_10h30.47.531,00_bat_bachelor,2022.2.4,60.02156415137956,
,,,,,,,,,,,,1,0,1,0,20,0,20,0,,,,,,,20,,,0.2,774.5683930691739,,X,d,go,d,1,0.412853084562812,,,,,,,,,,,,,,,,,66,001,19,w,Psychologie Bachelor,2023-01-25_10h30.47.531,00_bat_bachelor,2022.2.4,60.02156415137956,
,,,,,,,,,,,,1,0,1,0,21,0,21,0,,,,,,,21,,,0.2,775.2856251427147,,Y,l,go,l,1,0.4318397788447328,,,,,,,,,,,,,,,,,66,001,19,w,Psychologie Bachelor,2023-01-25_10h30.47.531,00_bat_bachelor,2022.2.4,60.02156415137956,
,,,,,,,,,,,,1,0,1,0,22,0,22,0,,,,,,,22,,,0.2,776.0194574828492,776.8199973139272,X,d,go,None,0,,,,,,,,,,,,,,,,,,66,001,19,w,Psychologie Bachelor,2023-01-25_10h30.47.531,00_bat_bachelor,2022.2.4,60.02156415137956,
,,,,,,,,,,,,1,0,1,0,23,0,23,0,,,,,,,23,,,0.2,777.0201280292822,,X,None,nogo,d,0,0.36181543458951637,,,,,,,,,,,,,,,,,66,001,19,w,Psychologie Bachelor,2023-01-25_10h30.47.531,00_bat_bachelor,2022.2.4,60.02156415137956,
,,,,,,,,,,,,1,0,1,0,24,0,24,0,,,,,,,24,,,0.2,777.6873193027568,778.4876807093387,Y,l,go,None,0,,,,,,,,,,,,,,,,,,66,001,19,w,Psychologie Bachelor,2023-01-25_10h30.47.531,00_bat_bachelor,2022.2.4,60.02156415137956,
,,,,,,,,,,,,1,0,1,0,25,0,25,0,,,,,,,25,,,0.2,778.6878642732627,,X,d,go,d,1,0.3901296576077584,,,,,,,,,,,,,,,,,66,001,19,w,Psychologie Bachelor,2023-01-25_10h30.47.531,00_bat_bachelor,2022.2.4,60.02156415137956,
,,,,,,,,,,,,1,0,1,0,26,0,26,0,,,,,,,26,,,0.2,779.3883947467548,,Y,l,go,l,1,0.42522546619875357,,,,,,,,,,,,,,,,,66,001,19,w,Psychologie Bachelor,2023-01-25_10h30.47.531,00_bat_bachelor,2022.2.4,60.02156415137956,
,,,,,,,,,,,,1,0,1,0,27,0,27,0,,,,,,,27,,,0.2,780.1226838148141,,X,d,go,d,1,0.41225041705183685,,,,,,,,,,,,,,,,,66,001,19,w,Psychologie Bachelor,2023-01-25_10h30.47.531,00_bat_bachelor,2022.2.4,60.02156415137956,
,,,,,,,,,,,,1,0,1,0,28,0,28,0,,,,,,,28,,,0.2,780.8397806154389,,Y,l,go,l,1,0.365286469925195,,,,,,,,,,,,,,,,,66,001,19,w,Psychologie Bachelor,2023-01-25_10h30.47.531,00_bat_bachelor,2022.2.4,60.02156415137956,
,,,,,,,,,,,,1,0,1,0,29,0,29,0,,,,,,,29,,,0.2,781.5070712830056,,X,d,go,d,1,0.35429396911058575,,,,,,,,,,,,,,,,,66,001,19,w,Psychologie Bachelor,2023-01-25_10h30.47.531,00_bat_bachelor,2022.2.4,60.02156415137956,
,,,,,,,,,,,,1,0,1,0,30,0,30,0,,,,,,,30,,,0.2,782.1741272835643,,X,None,nogo,None,1,,,,,,,,,,,,,,,,,,66,001,19,w,Psychologie Bachelor,2023-01-25_10h30.47.531,00_bat_bachelor,2022.2.4,60.02156415137956,
,,,,,,,,,,,,1,0,1,0,31,0,31,0,,,,,,,31,,,0.2,783.1746761328541,,X,None,nogo,l,0,0.27119760581990704,,,,,,,,,,,,,,,,,66,001,19,w,Psychologie Bachelor,2023-01-25_10h30.47.531,00_bat_bachelor,2022.2.4,60.02156415137956,
,,,,,,,,,,,,1,0,1,0,32,0,32,0,,,,,,,32,,,0.2,783.7587637703109,784.5593176620314,Y,l,go,None,0,,,,,,,,,,,,,,,,,,66,001,19,w,Psychologie Bachelor,2023-01-25_10h30.47.531,00_bat_bachelor,2022.2.4,60.02156415137956,
,,,,,,,,,,,,1,0,1,0,33,0,33,0,,,,,,,33,,,0.2,784.759142922383,,X,d,go,d,1,0.3340224244748242,,,,,,,,,,,,,,,,,66,001,19,w,Psychologie Bachelor,2023-01-25_10h30.47.531,00_bat_bachelor,2022.2.4,60.02156415137956,
,,,,,,,,,,,,1,0,1,0,34,0,34,0,,,,,,,34,,,0.2,785.4099758690572,,X,None,nogo,None,1,,,,,,,,,,,,,,,,,,66,001,19,w,Psychologie Bachelor,2023-01-25_10h30.47.531,00_bat_bachelor,2022.2.4,60.02156415137956,
,,,,,,,,,,,,1,0,1,0,35,0,35,0,,,,,,,35,,,0.2,786.410727385286,,X,None,nogo,None,1,,,,,,,,,,,,,,,,,,66,001,19,w,Psychologie Bachelor,2023-01-25_10h30.47.531,00_bat_bachelor,2022.2.4,60.02156415137956,
,,,,,,,,,,,,1,0,1,0,36,0,36,0,,,,,,,36,,,0.2,787.4113363558718,,Y,l,go,l,1,0.338637703913264,,,,,,,,,,,,,,,,,66,001,19,w,Psychologie Bachelor,2023-01-25_10h30.47.531,00_bat_bachelor,2022.2.4,60.02156415137956,
,,,,,,,,,,,,1,0,1,0,37,0,37,0,,,,,,,37,,,0.2,788.0619753628562,,X,d,go,None,0,,,,,,,,,,,,,,,,,,66,001,19,w,Psychologie Bachelor,2023-01-25_10h30.47.531,00_bat_bachelor,2022.2.4,60.02156415137956,
,,,,,,,,,,,,1,0,1,0,38,0,38,0,,,,,,,38,,,0.2,789.0624626362987,,X,None,nogo,None,1,,,,,,,,,,,,,,,,,,66,001,19,w,Psychologie Bachelor,2023-01-25_10h30.47.531,00_bat_bachelor,2022.2.4,60.02156415137956,
,,,,,,,,,,,,1,0,1,0,39,0,39,0,,,,,,,39,,,0.2,790.0633799709613,,Y,l,go,l,1,0.4060351352673024,,,,,,,,,,,,,,,,,66,001,19,w,Psychologie Bachelor,2023-01-25_10h30.47.531,00_bat_bachelor,2022.2.4,60.02156415137956,
,,,,,,,,,,,,1,0,1,0,40,0,40,0,,,,,,,40,,,0.2,790.7804297412222,,X,d,go,None,0,,,,,,,,,,,,,,,,,,66,001,19,w,Psychologie Bachelor,2023-01-25_10h30.47.531,00_bat_bachelor,2022.2.4,60.02156415137956,
,,,,,,,,,,,,1,0,1,0,41,0,41,0,,,,,,,41,,,0.2,791.7815172579722,,Y,l,go,None,0,,,,,,,,,,,,,,,,,,66,001,19,w,Psychologie Bachelor,2023-01-25_10h30.47.531,00_bat_bachelor,2022.2.4,60.02156415137956,
,,,,,,,,,,,,1,0,1,0,42,0,42,0,,,,,,,42,,,0.2,792.7822910772811,,X,d,go,d,1,0.4396720326913055,,,,,,,,,,,,,,,,,66,001,19,w,Psychologie Bachelor,2023-01-25_10h30.47.531,00_bat_bachelor,2022.2.4,60.02156415137956,
,,,,,,,,,,,,1,0,1,0,43,0,43,0,,,,,,,43,,,0.2,793.5325981080241,,Y,l,go,l,1,0.28124901436967775,,,,,,,,,,,,,,,,,66,001,19,w,Psychologie Bachelor,2023-01-25_10h30.47.531,00_bat_bachelor,2022.2.4,60.02156415137956,
,,,,,,,,,,,,1,0,1,0,44,0,44,0,,,,,,,44,,,0.2,794.1167036849074,,X,d,go,None,0,,,,,,,,,,,,,,,,,,66,001,19,w,Psychologie Bachelor,2023-01-25_10h30.47.531,00_bat_bachelor,2022.2.4,60.02156415137956,
,,,,,,,,,,,,1,0,1,0,45,0,45,0,,,,,,,45,,,0.2,795.1170222308137,,X,None,nogo,None,1,,,,,,,,,,,,,,,,,,66,001,19,w,Psychologie Bachelor,2023-01-25_10h30.47.531,00_bat_bachelor,2022.2.4,60.02156415137956,
,,,,,,,,,,,,1,0,1,0,46,0,46,0,,,,,,,46,,,0.2,796.1181868385756,,Y,l,go,l,1,0.5749202294100542,,,,,,,,,,,,,,,,,66,001,19,w,Psychologie Bachelor,2023-01-25_10h30.47.531,00_bat_bachelor,2022.2.4,60.02156415137956,
,,,,,,,,,,,,1,0,1,0,47,0,47,0,,,,,,,47,,,0.2,797.0022026698571,,X,d,go,None,0,,,,,,,,,,,,,,,,,,66,001,19,w,Psychologie Bachelor,2023-01-25_10h30.47.531,00_bat_bachelor,2022.2.4,60.02156415137956,
,,,,,,,,,,,,1,0,1,0,48,0,48,0,,,,,,,48,,,0.2,798.0028417010908,,Y,l,go,d,0,0.3865989857877139,,,,,,,,,,,,,,,,,66,001,19,w,Psychologie Bachelor,2023-01-25_10h30.47.531,00_bat_bachelor,2022.2.4,60.02156415137956,
,,,,,,,,,,,,1,0,1,0,49,0,49,0,,,,,,,49,,,0.2,798.7032102349622,,Y,None,nogo,None,1,,,,,,,,,,,,,,,,,,66,001,19,w,Psychologie Bachelor,2023-01-25_10h30.47.531,00_bat_bachelor,2022.2.4,60.02156415137956,
,,,,,,,,,,,,1,0,1,0,50,0,50,0,,,,,,,50,,,0.2,799.704249266797,800.5045040065597,Y,None,nogo,None,1,,,,,,,,,,,,,,,,,,66,001,19,w,Psychologie Bachelor,2023-01-25_10h30.47.531,00_bat_bachelor,2022.2.4,60.02156415137956,
,,,,,,,,,,,,1,0,1,0,51,0,51,0,,,,,,,51,,,0.2,800.704863085848,,X,d,go,d,1,0.32587162472191267,,,,,,,,,,,,,,,,,66,001,19,w,Psychologie Bachelor,2023-01-25_10h30.47.531,00_bat_bachelor,2022.2.4,60.02156415137956,
,,,,,,,,,,,,1,0,1,0,52,0,52,0,,,,,,,52,,,0.2,801.338494068099,,Y,l,go,l,1,0.6663666654494591,,,,,,,,,,,,,,,,,66,001,19,w,Psychologie Bachelor,2023-01-25_10h30.47.531,00_bat_bachelor,2022.2.4,60.02156415137956,
,,,,,,,,,,,,1,0,1,0,53,0,53,0,,,,,,,53,,,0.2,802.3062530515017,,X,d,go,d,1,0.4510301098052878,,,,,,,,,,,,,,,,,66,001,19,w,Psychologie Bachelor,2023-01-25_10h30.47.531,00_bat_bachelor,2022.2.4,60.02156415137956,
,,,,,,,,,,,,1,0,1,0,54,0,54,0,,,,,,,54,,,0.2,803.0735128342058,,Y,l,go,l,1,0.42017576191574335,,,,,,,,,,,,,,,,,66,001,19,w,Psychologie Bachelor,2023-01-25_10h30.47.531,00_bat_bachelor,2022.2.4,60.02156415137956,
,,,,,,,,,,,,1,0,1,0,55,0,55,0,,,,,,,55,,,0.2,803.8073660228401,,X,d,go,d,1,0.5499674658640288,,,,,,,,,,,,,,,,,66,001,19,w,Psychologie Bachelor,2023-01-25_10h30.47.531,00_bat_bachelor,2022.2.4,60.02156415137956,
,,,,,,,,,,,,1,0,1,0,56,0,56,0,,,,,,,56,,,0.2,804.6580896844971,805.4586799398821,X,None,nogo,None,1,,,,,,,,,,,,,,,,,,66,001,19,w,Psychologie Bachelor,2023-01-25_10h30.47.531,00_bat_bachelor,2022.2.4,60.02156415137956,
,,,,,,,,,,,,1,0,1,0,57,0,57,0,,,,,,,57,,,0.2,805.658786412765,,Y,l,go,l,1,0.4115595069597475,,,,,,,,,,,,,,,,,66,001,19,w,Psychologie Bachelor,2023-01-25_10h30.47.531,00_bat_bachelor,2022.2.4,60.02156415137956,
,,,,,,,,,,,,1,0,1,0,58,0,58,0,,,,,,,58,,,0.2,806.3759913347603,,X,d,go,d,1,0.47799063386628404,,,,,,,,,,,,,,,,,66,001,19,w,Psychologie Bachelor,2023-01-25_10h30.47.531,00_bat_bachelor,2022.2.4,60.02156415137956,
,,,,,,,,,,,,1,0,1,0,59,0,59,0,,,,,,,59,,,0.2,807.1600268994225,,X,None,nogo,None,1,,,,,,,,,,,,,,,,,,66,001,19,w,Psychologie Bachelor,2023-01-25_10h30.47.531,00_bat_bachelor,2022.2.4,60.02156415137956,
,,,,,,,,,,,,1,0,1,0,60,0,60,0,,,,,,,60,,,0.2,808.160664476105,,Y,l,go,l,1,0.42132436964311637,,,,,,,,,,,,,,,,,66,001,19,w,Psychologie Bachelor,2023-01-25_10h30.47.531,00_bat_bachelor,2022.2.4,60.02156415137956,
,,,,,,,,,,,,1,0,1,0,61,0,61,0,,,,,,,61,,,0.2,808.8945263920468,,X,d,go,d,1,0.534381503763143,,,,,,,,,,,,,,,,,66,001,19,w,Psychologie Bachelor,2023-01-25_10h30.47.531,00_bat_bachelor,2022.2.4,60.02156415137956,
,,,,,,,,,,,,1,0,1,0,62,0,62,0,,,,,,,62,,,0.2,809.7452272657829,,Y,l,go,None,0,,,,,,,,,,,,,,,,,,66,001,19,w,Psychologie Bachelor,2023-01-25_10h30.47.531,00_bat_bachelor,2022.2.4,60.02156415137956,
,,,,,,,,,,,,1,0,1,0,63,0,63,0,,,,,,,63,,,0.2,810.7458425394143,,Y,None,nogo,None,1,,,,,,,,,,,,,,,,,,66,001,19,w,Psychologie Bachelor,2023-01-25_10h30.47.531,00_bat_bachelor,2022.2.4,60.02156415137956,
,,,,,,,,,,,,1,0,1,0,64,0,64,0,,,,,,,64,,,0.2,811.7466837527463,,X,d,go,d,1,0.4998529686999973,,,,,,,,,,,,,,,,,66,001,19,w,Psychologie Bachelor,2023-01-25_10h30.47.531,00_bat_bachelor,2022.2.4,60.02156415137956,
,,,,,,,,,,,,1,0,1,0,65,0,65,0,,,,,,,65,,,0.2,812.5472987354733,,Y,l,go,l,1,0.35444863597513177,,,,,,,,,,,,,,,,,66,001,19,w,Psychologie Bachelor,2023-01-25_10h30.47.531,00_bat_bachelor,2022.2.4,60.02156415137956,
,,,,,,,,,,,,1,0,1,0,66,0,66,0,,,,,,,66,,,0.2,813.2142718268151,,Y,None,nogo,None,1,,,,,,,,,,,,,,,,,,66,001,19,w,Psychologie Bachelor,2023-01-25_10h30.47.531,00_bat_bachelor,2022.2.4,60.02156415137956,
,,,,,,,,,,,,1,0,1,0,67,0,67,0,,,,,,,67,,,0.2,814.2152371615521,,X,d,go,d,1,0.2864063551824074,,,,,,,,,,,,,,,,,66,001,19,w,Psychologie Bachelor,2023-01-25_10h30.47.531,00_bat_bachelor,2022.2.4,60.02156415137956,
,,,,,,,,,,,,1,0,1,0,68,0,68,0,,,,,,,68,,,0.2,814.8159061564656,,Y,l,go,l,1,0.565775973664131,,,,,,,,,,,,,,,,,66,001,19,w,Psychologie Bachelor,2023-01-25_10h30.47.531,00_bat_bachelor,2022.2.4,60.02156415137956,
,,,,,,,,,,,,1,0,1,0,69,0,69,0,,,,,,,69,,,0.2,815.6828072961944,,X,d,go,d,1,0.3868559558468405,,,,,,,,,,,,,,,,,66,001,19,w,Psychologie Bachelor,2023-01-25_10h30.47.531,00_bat_bachelor,2022.2.4,60.02156415137956,
,,,,,,,,,,,,1,0,1,0,70,0,70,0,,,,,,,70,,,0.2,816.3833464969939,,Y,l,go,l,1,0.4538058714242652,,,,,,,,,,,,,,,,,66,001,19,w,Psychologie Bachelor,2023-01-25_10h30.47.531,00_bat_bachelor,2022.2.4,60.02156415137956,
,,,,,,,,,,,,1,0,1,0,71,0,71,0,,,,,,,71,,,0.2,817.150735734409,,Y,None,nogo,None,1,,,,,,,,,,,,,,,,,,66,001,19,w,Psychologie Bachelor,2023-01-25_10h30.47.531,00_bat_bachelor,2022.2.4,60.02156415137956,
,,,,,,,,,,,,1,0,1,0,72,0,72,0,,,,,,,72,,,0.2,818.1513127049257,818.9522278092918,Y,None,nogo,None,1,,,,,,,,,,,,,,,,,,66,001,19,w,Psychologie Bachelor,2023-01-25_10h30.47.531,00_bat_bachelor,2022.2.4,60.02156415137956,
,,,,,,,,,,,,1,0,1,0,73,0,73,0,,,,,,,73,,,0.2,819.1521248273202,,X,d,go,d,1,0.45279302148264833,,,,,,,,,,,,,,,,,66,001,19,w,Psychologie Bachelor,2023-01-25_10h30.47.531,00_bat_bachelor,2022.2.4,60.02156415137956,
,,,,,,,,,,,,1,0,1,0,74,0,74,0,,,,,,,74,,,0.2,819.9195737011905,,Y,l,go,l,1,0.4224647349328734,,,,,,,,,,,,,,,,,66,001,19,w,Psychologie Bachelor,2023-01-25_10h30.47.531,00_bat_bachelor,2022.2.4,60.02156415137956,
,,,,,,,,,,,,1,0,1,0,75,0,75,0,,,,,,,75,,,0.2,820.6535728294402,,X,d,go,d,1,0.5841440004005563,,,,,,,,,,,,,,,,,66,001,19,w,Psychologie Bachelor,2023-01-25_10h30.47.531,00_bat_bachelor,2022.2.4,60.02156415137956,
,,,,,,,,,,,,1,0,1,0,76,0,76,0,,,,,,,76,,,0.2,821.5541981394344,,X,None,nogo,None,1,,,,,,,,,,,,,,,,,,66,001,19,w,Psychologie Bachelor,2023-01-25_10h30.47.531,00_bat_bachelor,2022.2.4,60.02156415137956,
,,,,,,,,,,,,1,0,1,0,77,0,77,0,,,,,,,77,,,0.2,822.5550412921875,,Y,l,go,l,1,0.45982575896778144,,,,,,,,,,,,,,,,,66,001,19,w,Psychologie Bachelor,2023-01-25_10h30.47.531,00_bat_bachelor,2022.2.4,60.02156415137956,
,,,,,,,,,,,,1,0,1,0,78,0,78,0,,,,,,,78,,,0.2,823.3222060444241,,X,d,go,None,0,,,,,,,,,,,,,,,,,,66,001,19,w,Psychologie Bachelor,2023-01-25_10h30.47.531,00_bat_bachelor,2022.2.4,60.02156415137956,
,,,,,,,,,,,,1,0,1,0,79,0,79,0,,,,,,,79,,,0.2,824.3232722277753,825.123859574087,X,None,nogo,None,1,,,,,,,,,,,,,,,,,,66,001,19,w,Psychologie Bachelor,2023-01-25_10h30.47.531,00_bat_bachelor,2022.2.4,60.02156415137956,
,,,,,,,,,,,,1,0,1,0,80,0,80,0,,,,,,,80,,,0.2,825.3234971978236,,Y,l,go,l,1,0.42684874127735384,,,,,,,,,,,,,,,,,66,001,19,w,Psychologie Bachelor,2023-01-25_10h30.47.531,00_bat_bachelor,2022.2.4,60.02156415137956,
,,,,,,,,,,,,1,0,1,0,81,0,81,0,,,,,,,81,,,0.2,826.0577562052058,,X,d,go,d,1,0.53925278360839,,,,,,,,,,,,,,,,,66,001,19,w,Psychologie Bachelor,2023-01-25_10h30.47.531,00_bat_bachelor,2022.2.4,60.02156415137956,
,,,,,,,,,,,,1,0,1,0,82,0,82,0,,,,,,,82,,,0.2,826.9083043514693,,X,None,nogo,None,1,,,,,,,,,,,,,,,,,,66,001,19,w,Psychologie Bachelor,2023-01-25_10h30.47.531,00_bat_bachelor,2022.2.4,60.02156415137956,
,,,,,,,,,,,,1,0,1,0,83,0,83,0,,,,,,,83,,,0.2,827.9089496857487,,Y,l,go,l,1,0.3686920506588649,,,,,,,,,,,,,,,,,66,001,19,w,Psychologie Bachelor,2023-01-25_10h30.47.531,00_bat_bachelor,2022.2.4,60.02156415137956,
,,,,,,,,,,,,1,0,1,0,84,0,84,0,,,,,,,84,,,0.2,828.5929724988528,,X,d,go,d,1,0.5173754184215795,,,,,,,,,,,,,,,,,66,001,19,w,Psychologie Bachelor,2023-01-25_10h30.47.531,00_bat_bachelor,2022.2.4,60.02156415137956,
,,,,,,,,,,,,1,0,1,0,85,0,85,0,,,,,,,85,,,0.2,829.4101513844507,,Y,l,go,l,1,0.49951842275913805,,,,,,,,,,,,,,,,,66,001,19,w,Psychologie Bachelor,2023-01-25_10h30.47.531,00_bat_bachelor,2022.2.4,60.02156415137956,
,,,,,,,,,,,,1,0,1,0,86,0,86,0,,,,,,,86,,,0.2,830.2105399426073,,X,d,go,d,1,0.6108771302097011,,,,,,,,,,,,,,,,,66,001,19,w,Psychologie Bachelor,2023-01-25_10h30.47.531,00_bat_bachelor,2022.2.4,60.02156415137956,
,,,,,,,,,,,,1,0,1,0,87,0,87,0,,,,,,,87,,,0.2,831.1280942469311,,Y,l,go,None,0,,,,,,,,,,,,,,,,,,66,001,19,w,Psychologie Bachelor,2023-01-25_10h30.47.531,00_bat_bachelor,2022.2.4,60.02156415137956,
,,,,,,,,,,,,1,0,1,0,88,0,88,0,,,,,,,88,,,0.2,832.1286736417096,,Y,None,nogo,None,1,,,,,,,,,,,,,,,,,,66,001,19,w,Psychologie Bachelor,2023-01-25_10h30.47.531,00_bat_bachelor,2022.2.4,60.02156415137956,
,,,,,,,,,,,,1,0,1,0,89,0,89,0,,,,,,,89,,,0.2,833.1295677036105,,X,d,go,d,1,0.42887104727560654,,,,,,,,,,,,,,,,,66,001,19,w,Psychologie Bachelor,2023-01-25_10h30.47.531,00_bat_bachelor,2022.2.4,60.02156415137956,
,,,,,,,,,,,,1,0,1,0,90,0,90,0,,,,,,,90,,,0.2,833.8636885290034,,Y,l,go,None,0,,,,,,,,,,,,,,,,,,66,001,19,w,Psychologie Bachelor,2023-01-25_10h30.47.531,00_bat_bachelor,2022.2.4,60.02156415137956,
,,,,,,,,,,,,1,0,1,0,91,0,91,0,,,,,,,91,,,0.2,834.864524893841,,X,d,go,None,0,,,,,,,,,,,,,,,,,,66,001,19,w,Psychologie Bachelor,2023-01-25_10h30.47.531,00_bat_bachelor,2022.2.4,60.02156415137956,
,,,,,,,,,,,,1,0,1,0,92,0,92,0,,,,,,,92,,,0.2,835.8648962883162,,Y,l,go,l,1,0.524690823018318,,,,,,,,,,,,,,,,,66,001,19,w,Psychologie Bachelor,2023-01-25_10h30.47.531,00_bat_bachelor,2022.2.4,60.02156415137956,
,,,,,,,,,,,,1,0,1,0,93,0,93,0,,,,,,,93,,,0.2,836.6991176229494,,X,d,go,None,0,,,,,,,,,,,,,,,,,,66,001,19,w,Psychologie Bachelor,2023-01-25_10h30.47.531,00_bat_bachelor,2022.2.4,60.02156415137956,
,,,,,,,,,,,,1,0,1,0,94,0,94,0,,,,,,,94,,,0.2,837.6997396844672,838.5004244854499,X,None,nogo,None,1,,,,,,,,,,,,,,,,,,66,001,19,w,Psychologie Bachelor,2023-01-25_10h30.47.531,00_bat_bachelor,2022.2.4,60.02156415137956,
,,,,,,,,,,,,1,0,1,0,95,0,95,0,,,,,,,95,,,0.2,838.700429140008,,Y,l,go,l,1,0.40906641239416786,,,,,,,,,,,,,,,,,66,001,19,w,Psychologie Bachelor,2023-01-25_10h30.47.531,00_bat_bachelor,2022.2.4,60.02156415137956,
,,,,,,,,,,,,1,0,1,0,96,0,96,0,,,,,,,96,,,0.2,839.4178570926306,,X,d,go,d,1,0.44353725042310543,,,,,,,,,,,,,,,,,66,001,19,w,Psychologie Bachelor,2023-01-25_10h30.47.531,00_bat_bachelor,2022.2.4,60.02156415137956,
,,,,,,,,,,,,1,0,1,0,97,0,97,0,,,,,,,97,,,0.2,840.1684608510986,,Y,l,go,l,1,0.3820011609059293,,,,,,,,,,,,,,,,,66,001,19,w,Psychologie Bachelor,2023-01-25_10h30.47.531,00_bat_bachelor,2022.2.4,60.02156415137956,
,,,,,,,,,,,,1,0,1,0,98,0,98,0,,,,,,,98,,,0.2,840.8519769968116,,X,d,go,d,1,0.38581934830290265,,,,,,,,,,,,,,,,,66,001,19,w,Psychologie Bachelor,2023-01-25_10h30.47.531,00_bat_bachelor,2022.2.4,60.02156415137956,
,,,,,,,,,,,,1,0,1,0,99,0,99,0,,,,,,,99,,,0.2,841.5528347435175,,X,None,nogo,None,1,,,,,,,,,,,,,,,,,,66,001,19,w,Psychologie Bachelor,2023-01-25_10h30.47.531,00_bat_bachelor,2022.2.4,60.02156415137956,
,,,,,,,,,,,,1,0,1,0,100,0,100,0,,,,,,,100,,,0.2,842.5535862597462,,Y,l,go,l,1,0.34871383977588266,,,,,,,,,,,,,,,,,66,001,19,w,Psychologie Bachelor,2023-01-25_10h30.47.531,00_bat_bachelor,2022.2.4,60.02156415137956,
,,,,,,,,,,,,1,0,1,0,101,0,101,0,,,,,,,101,,,0.2,843.2038970238355,,X,d,go,d,1,0.40090688539203256,,,,,,,,,,,,,,,,,66,001,19,w,Psychologie Bachelor,2023-01-25_10h30.47.531,00_bat_bachelor,2022.2.4,60.02156415137956,
,,,,,,,,,,,,1,0,1,0,102,0,102,0,,,,,,,102,,,0.2,843.9212352793547,,Y,l,go,l,1,0.48447694635251537,,,,,,,,,,,,,,,,,66,001,19,w,Psychologie Bachelor,2023-01-25_10h30.47.531,00_bat_bachelor,2022.2.4,60.02156415137956,
,,,,,,,,,,,,1,0,1,0,103,0,103,0,,,,,,,103,,,0.2,844.721877898497,,Y,None,nogo,None,1,,,,,,,,,,,,,,,,,,66,001,19,w,Psychologie Bachelor,2023-01-25_10h30.47.531,00_bat_bachelor,2022.2.4,60.02156415137956,
,,,,,,,,,,,,1,0,1,0,104,0,104,0,,,,,,,104,,,0.2,845.7227370512555,,X,d,go,d,1,0.3301552673219703,,,,,,,,,,,,,,,,,66,001,19,w,Psychologie Bachelor,2023-01-25_10h30.47.531,00_bat_bachelor,2022.2.4,60.02156415137956,
,,,,,,,,,,,,1,0,1,0,105,0,105,0,,,,,,,105,,,0.2,846.3562104575103,,Y,l,go,l,1,0.46565510076470673,,,,,,,,,,,,,,,,,66,001,19,w,Psychologie Bachelor,2023-01-25_10h30.47.531,00_bat_bachelor,2022.2.4,60.02156415137956,
,,,,,,,,,,,,1,0,1,0,106,0,106,0,,,,,,,106,,,0.2,847.1237558163702,847.9240333440539,Y,None,nogo,None,1,,,,,,,,,,,,,,,,,,66,001,19,w,Psychologie Bachelor,2023-01-25_10h30.47.531,00_bat_bachelor,2022.2.4,60.02156415137956,
,,,,,,,,,,,,1,0,1,0,107,0,107,0,,,,,,,107,,,0.2,848.1242939989606,,X,d,go,d,1,0.31445633541443385,,,,,,,,,,,,,,,,,66,001,19,w,Psychologie Bachelor,2023-01-25_10h30.47.531,00_bat_bachelor,2022.2.4,60.02156415137956,
,,,,,,,,,,,,1,0,1,0,108,0,108,0,,,,,,,108,,,0.2,848.7416481090477,,Y,l,go,l,1,0.48101997160119936,,,,,,,,,,,,,,,,,66,001,19,w,Psychologie Bachelor,2023-01-25_10h30.47.531,00_bat_bachelor,2022.2.4,60.02156415137956,
,,,,,,,,,,,,1,0,1,0,109,0,109,0,,,,,,,109,,,0.2,849.5255067037651,,X,d,go,d,1,0.4965758730249945,,,,,,,,,,,,,,,,,66,001,19,w,Psychologie Bachelor,2023-01-25_10h30.47.531,00_bat_bachelor,2022.2.4,60.02156415137956,
,,,,,,,,,,,,1,0,1,0,110,0,110,0,,,,,,,110,,,0.2,850.3259292013536,,X,None,nogo,None,1,,,,,,,,,,,,,,,,,,66,001,19,w,Psychologie Bachelor,2023-01-25_10h30.47.531,00_bat_bachelor,2022.2.4,60.02156415137956,
,,,,,,,,,,,,1,0,1,0,111,0,111,0,,,,,,,111,,,0.2,851.3269488391816,,Y,l,go,l,1,0.31161269490257837,,,,,,,,,,,,,,,,,66,001,19,w,Psychologie Bachelor,2023-01-25_10h30.47.531,00_bat_bachelor,2022.2.4,60.02156415137956,
,,,,,,,,,,,,1,0,1,0,112,0,112,0,,,,,,,112,,,0.2,851.944033857988,,X,d,go,d,1,0.39786542640649714,,,,,,,,,,,,,,,,,66,001,19,w,Psychologie Bachelor,2023-01-25_10h30.47.531,00_bat_bachelor,2022.2.4,60.02156415137956,
,,,,,,,,,,,,1,0,1,0,113,0,113,0,,,,,,,113,,,0.2,852.6446685740666,,Y,l,go,l,1,0.4810926989885047,,,,,,,,,,,,,,,,,66,001,19,w,Psychologie Bachelor,2023-01-25_10h30.47.531,00_bat_bachelor,2022.2.4,60.02156415137956,
,,,,,,,,,,,,1,0,1,0,114,0,114,0,,,,,,,114,,,0.2,853.4286158961768,,X,d,go,d,1,0.3684185957245063,,,,,,,,,,,,,,,,,66,001,19,w,Psychologie Bachelor,2023-01-25_10h30.47.531,00_bat_bachelor,2022.2.4,60.02156415137956,
,,,,,,,,,,,,1,0,1,0,115,0,115,0,,,,,,,115,,,0.2,854.1121771328617,,X,None,nogo,None,1,,,,,,,,,,,,,,,,,,66,001,19,w,Psychologie Bachelor,2023-01-25_10h30.47.531,00_bat_bachelor,2022.2.4,60.02156415137956,
,,,,,,,,,,,,1,0,1,0,116,0,116,0,,,,,,,116,,,0.2,855.1130741038651,,Y,l,go,l,1,0.3656801674806047,,,,,,,,,,,,,,,,,66,001,19,w,Psychologie Bachelor,2023-01-25_10h30.47.531,00_bat_bachelor,2022.2.4,60.02156415137956,
,,,,,,,,,,,,1,0,1,0,117,0,117,0,,,,,,,117,,,0.2,855.7802290136751,,X,d,go,None,0,,,,,,,,,,,,,,,,,,66,001,19,w,Psychologie Bachelor,2023-01-25_10h30.47.531,00_bat_bachelor,2022.2.4,60.02156415137956,
,,,,,,,,,,,,1,0,1,0,118,0,118,0,,,,,,,118,,,0.2,856.7811744695937,,Y,l,go,None,0,,,,,,,,,,,,,,,,,,66,001,19,w,Psychologie Bachelor,2023-01-25_10h30.47.531,00_bat_bachelor,2022.2.4,60.02156415137956,
,,,,,,,,,,,,1,0,1,0,119,0,119,0,,,,,,,119,,,0.2,857.7819987132098,,Y,None,nogo,None,1,,,,,,,,,,,,,,,,,,66,001,19,w,Psychologie Bachelor,2023-01-25_10h30.47.531,00_bat_bachelor,2022.2.4,60.02156415137956,
,,,,,,,,,,,,1,0,1,0,120,0,120,0,,,,,,,120,,,0.2,858.7824127744243,,X,d,go,d,1,0.4712250482698437,,,,,,,,,,,,,,,,,66,001,19,w,Psychologie Bachelor,2023-01-25_10h30.47.531,00_bat_bachelor,2022.2.4,60.02156415137956,
,,,,,,,,,,,,1,0,1,0,121,0,121,0,,,,,,,121,,,0.2,859.5665617937921,,Y,l,go,None,0,,,,,,,,,,,,,,,,,,66,001,19,w,Psychologie Bachelor,2023-01-25_10h30.47.531,00_bat_bachelor,2022.2.4,60.02156415137956,
,,,,,,,,,,,,1,0,1,0,122,0,122,0,,,,,,,122,,,0.2,860.5673588858626,,Y,None,nogo,None,1,,,,,,,,,,,,,,,,,,66,001,19,w,Psychologie Bachelor,2023-01-25_10h30.47.531,00_bat_bachelor,2022.2.4,60.02156415137956,
,,,,,,,,,,,,1,0,1,0,123,0,123,0,,,,,,,123,,,0.2,861.5678403411002,,X,d,go,d,1,0.5011547887988854,,,,,,,,,,,,,,,,,66,001,19,w,Psychologie Bachelor,2023-01-25_10h30.47.531,00_bat_bachelor,2022.2.4,60.02156415137956,
,,,,,,,,,,,,1,0,1,0,124,0,124,0,,,,,,,124,,,0.2,862.3855583789991,,Y,l,go,l,1,0.4680046799767297,,,,,,,,,,,,,,,,,66,001,19,w,Psychologie Bachelor,2023-01-25_10h30.47.531,00_bat_bachelor,2022.2.4,60.02156415137956,
,,,,,,,,,,,,1,0,1,0,125,0,125,0,,,,,,,125,,,0.2,863.1692783068283,,Y,None,nogo,None,1,,,,,,,,,,,,,,,,,,66,001,19,w,Psychologie Bachelor,2023-01-25_10h30.47.531,00_bat_bachelor,2022.2.4,60.02156415137956,
,,,,,,,,,,,,1,0,1,0,126,0,126,0,,,,,,,126,,,0.2,864.1700506715861,,X,d,go,d,1,0.3476525049190968,,,,,,,,,,,,,,,,,66,001,19,w,Psychologie Bachelor,2023-01-25_10h30.47.531,00_bat_bachelor,2022.2.4,60.02156415137956,
,,,,,,,,,,,,1,0,1,0,127,0,127,0,,,,,,,127,,,0.2,864.8205868905352,,Y,l,go,None,0,,,,,,,,,,,,,,,,,,66,001,19,w,Psychologie Bachelor,2023-01-25_10h30.47.531,00_bat_bachelor,2022.2.4,60.02156415137956,
,,,,,,,,,,,,1,0,1,0,128,0,128,0,,,,,,,128,,,0.2,865.8213767098787,,X,d,go,d,1,0.5527320759138092,,,,,,,,,,,,,,,,,66,001,19,w,Psychologie Bachelor,2023-01-25_10h30.47.531,00_bat_bachelor,2022.2.4,60.02156415137956,
,,,,,,,,,,,,1,0,1,0,129,0,129,0,,,,,,,129,,,0.2,866.6887083956972,,X,None,nogo,None,1,,,,,,,,,,,,,,,,,,66,001,19,w,Psychologie Bachelor,2023-01-25_10h30.47.531,00_bat_bachelor,2022.2.4,60.02156415137956,
,,,,,,,,,,,,1,0,1,0,130,0,130,0,,,,,,,130,,,0.2,867.689315426891,,Y,l,go,l,1,0.3658804102160502,,,,,,,,,,,,,,,,,66,001,19,w,Psychologie Bachelor,2023-01-25_10h30.47.531,00_bat_bachelor,2022.2.4,60.02156415137956,
,,,,,,,,,,,,1,0,1,0,131,0,131,0,,,,,,,131,,,0.2,868.3563025788462,,X,d,go,d,1,0.464786251046462,,,,,,,,,,,,,,,,,66,001,19,w,Psychologie Bachelor,2023-01-25_10h30.47.531,00_bat_bachelor,2022.2.4,60.02156415137956,
,,,,,,,,,,,,1,0,1,0,132,0,132,0,,,,,,,132,,,0.2,869.1238542407518,,Y,l,go,l,1,0.4814771843957715,,,,,,,,,,,,,,,,,66,001,19,w,Psychologie Bachelor,2023-01-25_10h30.47.531,00_bat_bachelor,2022.2.4,60.02156415137956,
,,,,,,,,,,,,1,0,1,0,133,0,133,0,,,,,,,133,,,0.2,869.9078049568052,,X,d,go,d,1,0.530688407481648,,,,,,,,,,,,,,,,,66,001,19,w,Psychologie Bachelor,2023-01-25_10h30.47.531,00_bat_bachelor,2022.2.4,60.02156415137956,
,,,,,,,,,,,,1,0,1,0,134,0,134,0,,,,,,,134,,,0.2,870.7421213218768,871.5425331527658,X,None,nogo,None,1,,,,,,,,,,,,,,,,,,66,001,19,w,Psychologie Bachelor,2023-01-25_10h30.47.531,00_bat_bachelor,2022.2.4,60.02156415137956,
,,,,,,,,,,,,1,0,1,0,135,0,135,0,,,,,,,135,,,0.2,871.7424922315113,,Y,l,go,l,1,0.36018682617577724,,,,,,,,,,,,,,,,,66,001,19,w,Psychologie Bachelor,2023-01-25_10h30.47.531,00_bat_bachelor,2022.2.4,60.02156415137956,
,,,,,,,,,,,,1,0,1,0,136,0,136,0,,,,,,,136,,,0.2,872.4099496871931,,X,d,go,d,1,0.49133125934167765,,,,,,,,,,,,,,,,,66,001,19,w,Psychologie Bachelor,2023-01-25_10h30.47.531,00_bat_bachelor,2022.2.4,60.02156415137956,
,,,,,,,,,,,,1,0,1,0,137,0,137,0,,,,,,,137,,,0.2,873.2105588517152,874.0110788040038,X,None,nogo,None,1,,,,,,,,,,,,,,,,,,66,001,19,w,Psychologie Bachelor,2023-01-25_10h30.47.531,00_bat_bachelor,2022.2.4,60.02156415137956,
,,,,,,,,,,,,1,0,1,0,138,0,138,0,,,,,,,138,,,0.2,874.2111799435224,,Y,l,go,l,1,0.4185389110352844,,,,,,,,,,,,,,,,,66,001,19,w,Psychologie Bachelor,2023-01-25_10h30.47.531,00_bat_bachelor,2022.2.4,60.02156415137956,
,,,,,,,,,,,,1,0,1,0,139,0,139,0,,,,,,,139,,,0.2,874.9451596777944,,X,d,go,d,1,0.32521659348276444,,,,,,,,,,,,,,,,,66,001,19,w,Psychologie Bachelor,2023-01-25_10h30.47.531,00_bat_bachelor,2022.2.4,60.02156415137956,
,,,,,,,,,,,,1,0,1,0,140,0,140,0,,,,,,,140,,,0.2,875.5789787815302,,Y,l,go,None,0,,,,,,,,,,,,,,,,,,66,001,19,w,Psychologie Bachelor,2023-01-25_10h30.47.531,00_bat_bachelor,2022.2.4,60.02156415137956,
,,,,,,,,,,,,1,0,1,0,141,0,141,0,,,,,,,141,,,0.2,876.5795111459447,877.3801450377796,Y,None,nogo,None,1,,,,,,,,,,,,,,,,,,66,001,19,w,Psychologie Bachelor,2023-01-25_10h30.47.531,00_bat_bachelor,2022.2.4,60.02156415137956,
,,,,,,,,,,,,1,0,1,0,142,0,142,0,,,,,,,142,,,0.2,877.5804934503976,,X,d,go,d,1,0.3455133502720855,,,,,,,,,,,,,,,,,66,001,19,w,Psychologie Bachelor,2023-01-25_10h30.47.531,00_bat_bachelor,2022.2.4,60.02156415137956,
,,,,,,,,,,,,1,0,1,0,143,0,143,0,,,,,,,143,,,0.2,878.2309671238181,879.0314381063217,Y,l,go,None,0,,,,,,,,,,,,,,,,,,66,001,19,w,Psychologie Bachelor,2023-01-25_10h30.47.531,00_bat_bachelor,2022.2.4,60.02156415137956,
,,,,,,,,,,,,1,0,1,0,144,0,144,0,,,,,,,144,,,0.2,879.2317297916161,880.0323016227339,X,d,go,None,0,,,,,,,,,,,,,,,,,,66,001,19,w,Psychologie Bachelor,2023-01-25_10h30.47.531,00_bat_bachelor,2022.2.4,60.02156415137956,
,,,,,,,,,,,,1,0,1,0,145,0,145,0,,,,,,,145,,,0.2,880.2325215503224,,Y,l,go,l,1,0.5575805678381585,,,,,,,,,,,,,,,,,66,001,19,w,Psychologie Bachelor,2023-01-25_10h30.47.531,00_bat_bachelor,2022.2.4,60.02156415137956,
,,,,,,,,,,,,1,0,1,0,146,0,146,0,,,,,,,146,,,0.2,881.0998968725617,,X,d,go,d,1,0.2984805545711424,,,,,,,,,,,,,,,,,66,001,19,w,Psychologie Bachelor,2023-01-25_10h30.47.531,00_bat_bachelor,2022.2.4,60.02156415137956,
,,,,,,,,,,,,1,0,1,0,147,0,147,0,,,,,,,147,,,0.2,881.7003093822568,,Y,l,go,l,1,0.657409561536042,,,,,,,,,,,,,,,,,66,001,19,w,Psychologie Bachelor,2023-01-25_10h30.47.531,00_bat_bachelor,2022.2.4,60.02156415137956,
,,,,,,,,,,,,1,0,1,0,148,0,148,0,,,,,,,148,,,0.2,882.6677250924404,,X,d,go,d,1,0.426647528889589,,,,,,,,,,,,,,,,,66,001,19,w,Psychologie Bachelor,2023-01-25_10h30.47.531,00_bat_bachelor,2022.2.4,60.02156415137956,
,,,,,,,,,,,,1,0,1,0,149,0,149,0,,,,,,,149,,,0.2,883.4016461599676,,Y,l,go,l,1,0.5076837679662276,,,,,,,,,,,,,,,,,66,001,19,w,Psychologie Bachelor,2023-01-25_10h30.47.531,00_bat_bachelor,2022.2.4,60.02156415137956,
,,,,,,,,,,,,1,0,1,0,150,0,150,0,,,,,,,150,,,0.2,884.2187198332977,885.0193425735924,Y,None,nogo,None,1,,,,,,,,,,,,,,,,,,66,001,19,w,Psychologie Bachelor,2023-01-25_10h30.47.531,00_bat_bachelor,2022.2.4,60.02156415137956,
,,,,,,,,,,,,1,0,1,0,151,0,151,0,,,,,,,151,,,0.2,885.2196667437674,,X,d,go,d,1,0.40135343148722313,,,,,,,,,,,,,,,,,66,001,19,w,Psychologie Bachelor,2023-01-25_10h30.47.531,00_bat_bachelor,2022.2.4,60.02156415137956,
,,,,,,,,,,,,1,0,1,0,152,0,152,0,,,,,,,152,,,0.2,885.9367717868299,,Y,l,go,l,1,0.5163775988039561,,,,,,,,,,,,,,,,,66,001,19,w,Psychologie Bachelor,2023-01-25_10h30.47.531,00_bat_bachelor,2022.2.4,60.02156415137956,
,,,,,,,,,,,,1,0,1,0,153,0,153,0,,,,,,,153,,,0.2,886.7542023091519,,X,d,go,d,1,0.5960872904979624,,,,,,,,,,,,,,,,,66,001,19,w,Psychologie Bachelor,2023-01-25_10h30.47.531,00_bat_bachelor,2022.2.4,60.02156415137956,
,,,,,,,,,,,,1,0,1,0,154,0,154,0,,,,,,,154,,,0.2,887.654711255338,888.4553606623376,Y,l,go,None,0,,,,,,,,,,,,,,,,,,66,001,19,w,Psychologie Bachelor,2023-01-25_10h30.47.531,00_bat_bachelor,2022.2.4,60.02156415137956,
,,,,,,,,,,,,1,0,1,0,155,0,155,0,,,,,,,155,,,0.2,888.6556378021487,889.4559807844635,X,d,go,None,0,,,,,,,,,,,,,,,,,,66,001,19,w,Psychologie Bachelor,2023-01-25_10h30.47.531,00_bat_bachelor,2022.2.4,60.02156415137956,
,,,,,,,,,,,,1,0,1,0,156,0,156,0,,,,,,,156,,,0.2,889.6561900453526,,Y,l,go,l,1,0.3812738871201873,,,,,,,,,,,,,,,,,66,001,19,w,Psychologie Bachelor,2023-01-25_10h30.47.531,00_bat_bachelor,2022.2.4,60.02156415137956,
,,,,,,,,,,,,1,0,1,0,157,0,157,0,,,,,,,157,,,0.2,890.3400261915522,,X,d,go,d,1,0.3215938003268093,,,,,,,,,,,,,,,,,66,001,19,w,Psychologie Bachelor,2023-01-25_10h30.47.531,00_bat_bachelor,2022.2.4,60.02156415137956,
,,,,,,,,,,,,1,0,1,0,158,0,158,0,,,,,,,158,,,0.2,890.9740537804319,,Y,l,go,l,1,0.29658430939889513,,,,,,,,,,,,,,,,,66,001,19,w,Psychologie Bachelor,2023-01-25_10h30.47.531,00_bat_bachelor,2022.2.4,60.02156415137956,
,,,,,,,,,,,,1,0,1,0,159,0,159,0,,,,,,,159,,,0.2,891.5744178052119,,Y,None,nogo,d,0,0.2714773637999315,,,,,,,,,,,,,,,,,66,001,19,w,Psychologie Bachelor,2023-01-25_10h30.47.531,00_bat_bachelor,2022.2.4,60.02156415137956,
,,,,,,,,,,,,1,0,1,0,160,0,160,0,,,,,,,160,,,0.2,892.1582843514334,892.9587228490564,Y,None,nogo,None,1,,,,,,,,,,,,,,,,,,66,001,19,w,Psychologie Bachelor,2023-01-25_10h30.47.531,00_bat_bachelor,2022.2.4,60.02156415137956,
,,,,,,,,,,,,1,0,1,0,161,0,161,0,,,,,,,161,,,0.2,893.1590319888783,893.959666365583,X,d,go,None,0,,,,,,,,,,,,,,,,,,66,001,19,w,Psychologie Bachelor,2023-01-25_10h30.47.531,00_bat_bachelor,2022.2.4,60.02156415137956,
,,,,,,,,,,,,1,0,1,0,162,0,162,0,,,,,,,162,,,0.2,894.159806293057,,Y,l,go,l,1,0.5176260854641441,,,,,,,,,,,,,,,,,66,001,19,w,Psychologie Bachelor,2023-01-25_10h30.47.531,00_bat_bachelor,2022.2.4,60.02156415137956,
,,,,,,,,,,,,1,0,1,0,163,0,163,0,,,,,,,163,,,0.2,894.9770874818205,,X,d,go,d,1,0.2451704164268449,,,,,,,,,,,,,,,,,66,001,19,w,Psychologie Bachelor,2023-01-25_10h30.47.531,00_bat_bachelor,2022.2.4,60.02156415137956,
,,,,,,,,,,,,1,0,1,0,164,0,164,0,,,,,,,164,,,0.2,895.5272919184936,,Y,l,go,l,1,0.3495414773642551,,,,,,,,,,,,,,,,,66,001,19,w,Psychologie Bachelor,2023-01-25_10h30.47.531,00_bat_bachelor,2022.2.4,60.02156415137956,
,,,,,,,,,,,,1,0,1,0,165,0,165,0,,,,,,,165,,,0.2,896.1779280163755,,X,d,go,d,1,0.24405380873940885,,,,,,,,,,,,,,,,,66,001,19,w,Psychologie Bachelor,2023-01-25_10h30.47.531,00_bat_bachelor,2022.2.4,60.02156415137956,
,,,,,,,,,,,,1,0,1,0,166,0,166,0,,,,,,,166,,,0.2,896.7284461504605,,Y,l,go,l,1,0.3821577672206331,,,,,,,,,,,,,,,,,66,001,19,w,Psychologie Bachelor,2023-01-25_10h30.47.531,00_bat_bachelor,2022.2.4,60.02156415137956,
,,,,,,,,,,,,1,0,1,0,167,0,167,0,,,,,,,167,,,0.2,897.41227114512,,Y,None,nogo,d,0,0.36887386909802444,,,,,,,,,,,,,,,,,66,001,19,w,Psychologie Bachelor,2023-01-25_10h30.47.531,00_bat_bachelor,2022.2.4,60.02156415137956,
,,,,,,,,,,,,1,0,1,0,168,0,168,0,,,,,,,168,,,0.2,898.0961135943362,,Y,None,nogo,None,1,,,,,,,,,,,,,,,,,,66,001,19,w,Psychologie Bachelor,2023-01-25_10h30.47.531,00_bat_bachelor,2022.2.4,60.02156415137956,
,,,,,,,,,,,,1,0,1,0,169,0,169,0,,,,,,,169,,,0.2,899.0967613528483,,X,d,go,d,1,0.44584416286670603,,,,,,,,,,,,,,,,,66,001,19,w,Psychologie Bachelor,2023-01-25_10h30.47.531,00_bat_bachelor,2022.2.4,60.02156415137956,
,,,,,,,,,,,,1,0,1,0,170,0,170,0,,,,,,,170,,,0.2,899.8474654750898,,Y,l,go,l,1,0.33397248497931287,,,,,,,,,,,,,,,,,66,001,19,w,Psychologie Bachelor,2023-01-25_10h30.47.531,00_bat_bachelor,2022.2.4,60.02156415137956,
,,,,,,,,,,,,1,0,1,0,171,0,171,0,,,,,,,171,,,0.2,900.4813185182866,,X,d,go,d,1,0.4046392544405535,,,,,,,,,,,,,,,,,66,001,19,w,Psychologie Bachelor,2023-01-25_10h30.47.531,00_bat_bachelor,2022.2.4,60.02156415137956,
,,,,,,,,,,,,1,0,1,0,172,0,172,0,,,,,,,172,,,0.2,901.1985244099633,901.9991233926557,X,None,nogo,None,1,,,,,,,,,,,,,,,,,,66,001,19,w,Psychologie Bachelor,2023-01-25_10h30.47.531,00_bat_bachelor,2022.2.4,60.02156415137956,
,,,,,,,,,,,,1,0,1,0,173,0,173,0,,,,,,,173,,,0.2,902.1991886533506,,Y,l,go,l,1,0.3987910035357345,,,,,,,,,,,,,,,,,66,001,19,w,Psychologie Bachelor,2023-01-25_10h30.47.531,00_bat_bachelor,2022.2.4,60.02156415137956,
,,,,,,,,,,,,1,0,1,0,174,0,174,0,,,,,,,174,,,0.2,902.8998320967075,,X,d,go,d,1,0.33850000670645386,,,,,,,,,,,,,,,,,66,001,19,w,Psychologie Bachelor,2023-01-25_10h30.47.531,00_bat_bachelor,2022.2.4,60.02156415137956,
,,,,,,,,,,,,1,0,1,0,175,0,175,0,,,,,,,175,,,0.2,903.5503944975499,904.350995904475,X,None,nogo,None,1,,,,,,,,,,,,,,,,,,66,001,19,w,Psychologie Bachelor,2023-01-25_10h30.47.531,00_bat_bachelor,2022.2.4,60.02156415137956,
,,,,,,,,,,,,1,0,1,0,176,0,176,0,,,,,,,176,,,0.2,904.5511319531652,905.3517362691928,X,None,nogo,None,1,,,,,,,,,,,,,,,,,,66,001,19,w,Psychologie Bachelor,2023-01-25_10h30.47.531,00_bat_bachelor,2022.2.4,60.02156415137956,
,,,,,,,,,,,,1,0,1,0,177,0,177,0,,,,,,,177,,,0.2,905.5519004391099,,Y,l,go,l,1,0.3579104591917712,,,,,,,,,,,,,,,,,66,001,19,w,Psychologie Bachelor,2023-01-25_10h30.47.531,00_bat_bachelor,2022.2.4,60.02156415137956,
,,,,,,,,,,,,1,0,1,0,178,0,178,0,,,,,,,178,,,0.2,906.2187794697238,,X,d,go,d,1,0.3627880420535803,,,,,,,,,,,,,,,,,66,001,19,w,Psychologie Bachelor,2023-01-25_10h30.47.531,00_bat_bachelor,2022.2.4,60.02156415137956,
,,,,,,,,,,,,1,0,1,0,179,0,179,0,,,,,,,179,,,0.2,906.8860138948075,,Y,l,go,l,1,0.43212002169457264,,,,,,,,,,,,,,,,,66,001,19,w,Psychologie Bachelor,2023-01-25_10h30.47.531,00_bat_bachelor,2022.2.4,60.02156415137956,
,,,,,,,,,,,,1,0,1,0,180,0,180,0,,,,,,,180,,,0.2,907.619934477465,,X,d,go,d,1,0.32093101149075665,,,,,,,,,,,,,,,,,66,001,19,w,Psychologie Bachelor,2023-01-25_10h30.47.531,00_bat_bachelor,2022.2.4,60.02156415137956,
,,,,,,,,,,,,1,0,1,0,181,0,181,0,,,,,,,181,,,0.2,908.253948490601,,Y,l,go,l,1,0.3601334927370772,,,,,,,,,,,,,,,,,66,001,19,w,Psychologie Bachelor,2023-01-25_10h30.47.531,00_bat_bachelor,2022.2.4,60.02156415137956,
