loop_instruction.thisRepN,loop_instruction.thisTrialN,loop_instruction.thisN,loop_instruction.thisIndex,loop_rsi_practice.thisRepN,loop_rsi_practice.thisTrialN,loop_rsi_practice.thisN,loop_rsi_practice.thisIndex,loop_practice.thisRepN,loop_practice.thisTrialN,loop_practice.thisN,loop_practice.thisIndex,loop_exp.thisRepN,loop_exp.thisTrialN,loop_exp.thisN,loop_exp.thisIndex,loop_trials.thisRepN,loop_trials.thisTrialN,loop_trials.thisN,loop_trials.thisIndex,map_condition,map_x_key,map_y_key,key_resp_welcome.started,key_resp_welcome.keys,key_resp_welcome.rt,index,text_empty_rsi_practice.started,text_empty_rsi_practice.stopped,rsi,stimulus.started,stimulus,correct,trial_type,key_resp_trial.keys,key_resp_trial.corr,key_resp_trial.rt,stimulus.stopped,key_resp_instruction_rsi.started,key_resp_instruction_rsi.keys,key_resp_instruction_rsi.rt,key_resp_instruction_rsi.stopped,key_resp_instruction_final.started,key_resp_instruction_final.keys,key_resp_instruction_final.rt,key_resp_break.started,key_resp_break.keys,key_resp_break.rt,key_resp_break.stopped,key_resp_end_screen.started,image_end_screen.started,key_resp_end_screen.stopped,image_end_screen.stopped,key_resp_end_screen.keys,participant,session,Alter,Geschlecht (w/m/d/andere),Studiengang,date,expName,psychopyVersion,frameRate,
,,,,0,0,0,0,0,0,0,0,,,,,,,,,1,l,d,217.01497017452493,j,17.494044569786638,0,234.53457816503942,235.54902858217247,1,235.54902858217247,X,l,go,None,0,,,,,,,,,,,,,,,,,,,67,001,20,w,Psychologie,2023-01-25_10h30.36.443,00_bat_bachelor,2022.2.4,60.039327554746585,
,,,,0,0,0,0,1,0,1,0,,,,,,,,,,,,,,,1,236.95022644824348,237.9508315389976,1,237.9508315389976,Y,d,go,d,1,0.6501904334872961,,,,,,,,,,,,,,,,,,67,001,20,w,Psychologie,2023-01-25_10h30.36.443,00_bat_bachelor,2022.2.4,60.039327554746585,
,,,,0,0,0,0,2,0,2,0,,,,,,,,,,,,,,,2,239.30202555051073,240.3027731864713,1,240.3027731864713,X,l,go,l,1,0.5067015332169831,,,,,,,,,,,,,,,,,,67,001,20,w,Psychologie,2023-01-25_10h30.36.443,00_bat_bachelor,2022.2.4,60.039327554746585,
,,,,0,0,0,0,3,0,3,0,,,,,,,,,,,,,,,3,241.53702034568414,242.53767198161222,1,242.53767198161222,Y,d,go,d,1,0.44830737984739244,,,,,,,,,,,,,,,,,,67,001,20,w,Psychologie,2023-01-25_10h30.36.443,00_bat_bachelor,2022.2.4,60.039327554746585,
,,,,0,0,0,0,4,0,4,0,,,,,,,,,,,,,,,4,243.68869542353787,244.68934705969878,1,244.68934705969878,Y,None,nogo,None,1,,245.4898761259392,,,,,,,,,,,,,,,,,67,001,20,w,Psychologie,2023-01-25_10h30.36.443,00_bat_bachelor,2022.2.4,60.039327554746585,
,,,,0,0,0,0,5,0,5,0,,,,,,,,,,,,,,,5,246.09034274402075,247.0912785010878,1,247.0912785010878,X,l,go,l,1,0.6620629124809057,,,,,,,,,,,,,,,,,,67,001,20,w,Psychologie,2023-01-25_10h30.36.443,00_bat_bachelor,2022.2.4,60.039327554746585,
,,,,0,0,0,0,6,0,6,0,,,,,,,,,,,,,,,6,248.45879735331982,249.45978547399864,1,249.45978547399864,Y,d,go,l,0,0.5657536257058382,,,,,,,,,,,,,,,,,,67,001,20,w,Psychologie,2023-01-25_10h30.36.443,00_bat_bachelor,2022.2.4,60.039327554746585,
,,,,0,0,0,0,7,0,7,0,,,,,,,,,,,,,,,7,250.7273819502443,251.72813685890287,1,251.72813685890287,Y,None,nogo,d,0,0.5534976315684617,,,,,,,,,,,,,,,,,,67,001,20,w,Psychologie,2023-01-25_10h30.36.443,00_bat_bachelor,2022.2.4,60.039327554746585,
,,,,0,0,0,0,8,0,8,0,,,,,,,,,,,,,,,8,253.41249822406098,254.41328464797698,1,254.41328464797698,X,l,go,None,0,,,,,,,,,,,,,,,,,,,67,001,20,w,Psychologie,2023-01-25_10h30.36.443,00_bat_bachelor,2022.2.4,60.039327554746585,
,,,,0,0,0,0,9,0,9,0,,,,,,,,,,,,,,,9,255.81427209009416,256.81492808973417,1,256.81492808973417,Y,d,go,d,1,0.3951132236979902,,,,,,,,,,,,,,,,,,67,001,20,w,Psychologie,2023-01-25_10h30.36.443,00_bat_bachelor,2022.2.4,60.039327554746585,
,,,,0,0,0,0,10,0,10,0,,,,,,,,,,,,,,,10,257.91599082853645,258.91657797968946,1,258.91657797968946,X,l,go,l,1,0.3561062121298164,,,,,,,,,,,,,,,,,,67,001,20,w,Psychologie,2023-01-25_10h30.36.443,00_bat_bachelor,2022.2.4,60.039327554746585,
,,,,0,0,0,0,11,0,11,0,,,,,,,,,,,,,,,11,259.9841057045851,260.9849580677692,1,260.9849580677692,Y,d,go,d,1,0.40031516063027084,,,,,,,,,,,,,,,,,,67,001,20,w,Psychologie,2023-01-25_10h30.36.443,00_bat_bachelor,2022.2.4,60.039327554746585,
,,,,0,0,0,0,12,0,12,0,,,,,,,,,,,,,,,12,262.08571826131083,263.0866491701454,1,263.0866491701454,Y,None,nogo,None,1,,263.8875588423107,,,,,,,,,,,,,,,,,67,001,20,w,Psychologie,2023-01-25_10h30.36.443,00_bat_bachelor,2022.2.4,60.039327554746585,
,,,,0,0,0,0,13,0,13,0,,,,,,,,,,,,,,,13,264.48772097565234,265.4884918841999,1,265.4884918841999,X,l,go,l,1,0.31222308217547834,,,,,,,,,,,,,,,,,,67,001,20,w,Psychologie,2023-01-25_10h30.36.443,00_bat_bachelor,2022.2.4,60.039327554746585,
,,,,0,0,0,0,14,0,14,0,,,,,,,,,,,,,,,14,266.50588339101523,267.5066732089035,1,267.5066732089035,Y,d,go,d,1,0.3903864382300526,,,,,,,,,,,,,,,,,,67,001,20,w,Psychologie,2023-01-25_10h30.36.443,00_bat_bachelor,2022.2.4,60.039327554746585,
,,,,1,0,1,0,0,0,0,0,,,,,,,,,,,,,,,0,284.6530891377479,284.85323594976217,0.2,284.85323594976217,X,l,go,l,1,0.5954985809512436,,268.62871484667994,j,15.991755358641967,,,,,,,,,,,,,,67,001,20,w,Psychologie,2023-01-25_10h30.36.443,00_bat_bachelor,2022.2.4,60.039327554746585,
,,,,1,0,1,0,1,0,1,0,,,,,,,,,,,,,,,1,286.1708285231143,286.3705583657138,0.2,286.3705583657138,Y,d,go,d,1,0.3745357790030539,,,,,,,,,,,,,,,,,,67,001,20,w,Psychologie,2023-01-25_10h30.36.443,00_bat_bachelor,2022.2.4,60.039327554746585,
,,,,1,0,1,0,2,0,2,0,,,,,,,,,,,,,,,2,287.4551639005076,287.6552365308162,0.2,287.6552365308162,X,l,go,l,1,0.33762670611031353,,,,,,,,,,,,,,,,,,67,001,20,w,Psychologie,2023-01-25_10h30.36.443,00_bat_bachelor,2022.2.4,60.039327554746585,
,,,,1,0,1,0,3,0,3,0,,,,,,,,,,,,,,,3,288.7057839001063,288.90587786375545,0.2,288.90587786375545,Y,d,go,d,1,0.4801493037957698,,,,,,,,,,,,,,,,,,67,001,20,w,Psychologie,2023-01-25_10h30.36.443,00_bat_bachelor,2022.2.4,60.039327554746585,
,,,,1,0,1,0,4,0,4,0,,,,,,,,,,,,,,,4,290.09043050161563,290.2903339196928,0.2,290.2903339196928,Y,None,nogo,None,1,,291.09090613760054,,,,,,,,,,,,,,,,,67,001,20,w,Psychologie,2023-01-25_10h30.36.443,00_bat_bachelor,2022.2.4,60.039327554746585,
,,,,1,0,1,0,5,0,5,0,,,,,,,,,,,,,,,5,291.69153227075003,291.8915855069645,0.2,291.8915855069645,X,l,go,l,1,0.23010627343319356,,,,,,,,,,,,,,,,,,67,001,20,w,Psychologie,2023-01-25_10h30.36.443,00_bat_bachelor,2022.2.4,60.039327554746585,
,,,,1,0,1,0,6,0,6,0,,,,,,,,,,,,,,,6,292.8255714783445,293.02597429044545,0.2,293.02597429044545,Y,d,go,d,1,0.4874782699625939,,,,,,,,,,,,,,,,,,67,001,20,w,Psychologie,2023-01-25_10h30.36.443,00_bat_bachelor,2022.2.4,60.039327554746585,
,,,,1,0,1,0,7,0,7,0,,,,,,,,,,,,,,,7,294.22663067793474,294.4269811261911,0.2,294.4269811261911,X,l,go,l,1,0.479520455468446,,,,,,,,,,,,,,,,,,67,001,20,w,Psychologie,2023-01-25_10h30.36.443,00_bat_bachelor,2022.2.4,60.039327554746585,
,,,,1,0,1,0,8,0,8,0,,,,,,,,,,,,,,,8,295.61130879446864,295.81127184908837,0.2,295.81127184908837,X,None,nogo,None,1,,,,,,,,,,,,,,,,,,,67,001,20,w,Psychologie,2023-01-25_10h30.36.443,00_bat_bachelor,2022.2.4,60.039327554746585,
,,,,1,0,1,0,9,0,9,0,,,,,,,,,,,,,,,9,297.2124275332317,297.41257725446485,0.2,297.41257725446485,Y,d,go,d,1,0.4047612191643566,,,,,,,,,,,,,,,,,,67,001,20,w,Psychologie,2023-01-25_10h30.36.443,00_bat_bachelor,2022.2.4,60.039327554746585,
,,,,1,0,1,0,10,0,10,0,,,,,,,,,,,,,,,10,298.5302232580725,298.73026922158897,0.2,298.73026922158897,X,l,go,l,1,0.3992179490160197,,,,,,,,,,,,,,,,,,67,001,20,w,Psychologie,2023-01-25_10h30.36.443,00_bat_bachelor,2022.2.4,60.039327554746585,
,,,,1,0,1,0,11,0,11,0,,,,,,,,,,,,,,,11,299.8309794757515,300.0312169545796,0.2,300.0312169545796,Y,d,go,d,1,0.5058826245367527,,,,,,,,,,,,,,,,,,67,001,20,w,Psychologie,2023-01-25_10h30.36.443,00_bat_bachelor,2022.2.4,60.039327554746585,
,,,,1,0,1,0,12,0,12,0,,,,,,,,,,,,,,,12,301.24893175810575,301.4488186913077,0.2,301.4488186913077,X,l,go,l,1,0.49694541678763926,,,,,,,,,,,,,,,,,,67,001,20,w,Psychologie,2023-01-25_10h30.36.443,00_bat_bachelor,2022.2.4,60.039327554746585,
,,,,1,0,1,0,13,0,13,0,,,,,,,,,,,,,,,13,302.64997156360187,302.84986043628305,0.2,302.84986043628305,X,None,nogo,None,1,,,,,,,,,,,,,,,,,,,67,001,20,w,Psychologie,2023-01-25_10h30.36.443,00_bat_bachelor,2022.2.4,60.039327554746585,
,,,,1,0,1,0,14,0,14,0,,,,,,,,,,,,,,,14,304.2509278783109,304.45128172053955,0.2,304.45128172053955,Y,d,go,d,1,0.35899542295373976,,,,,,,,,,,,,,,,,,67,001,20,w,Psychologie,2023-01-25_10h30.36.443,00_bat_bachelor,2022.2.4,60.039327554746585,
,,,,,,,,,,,,,,,,,,,,,,,,,,,,,,,,,,,,,,305.5484118552413,None,,305.5484118552413,305.5484118552413,space,4.0313626122660935,,,,,,,,,,67,001,20,w,Psychologie,2023-01-25_10h30.36.443,00_bat_bachelor,2022.2.4,60.039327554746585,
,,,,,,,,,,,,0,0,0,0,0,0,0,0,,,,,,,0,,,1,310.6062348575797,X,l,go,l,1,0.2673319522291422,,,,,,,,,,,,,,,,,,67,001,20,w,Psychologie,2023-01-25_10h30.36.443,00_bat_bachelor,2022.2.4,60.039327554746585,
,,,,,,,,,,,,0,0,0,0,1,0,1,0,,,,,,,1,,,1,311.99044509558007,Y,d,go,d,1,0.3390948264859617,,,,,,,,,,,,,,,,,,67,001,20,w,Psychologie,2023-01-25_10h30.36.443,00_bat_bachelor,2022.2.4,60.039327554746585,
,,,,,,,,,,,,0,0,0,0,2,0,2,0,,,,,,,2,,,1,313.44157408876345,X,l,go,l,1,0.44098035292699933,,,,,,,,,,,,,,,,,,67,001,20,w,Psychologie,2023-01-25_10h30.36.443,00_bat_bachelor,2022.2.4,60.039327554746585,
,,,,,,,,,,,,0,0,0,0,3,0,3,0,,,,,,,3,,,1,314.992650185246,X,None,nogo,None,1,,,,,,,,,,,,,,,,,,,67,001,20,w,Psychologie,2023-01-25_10h30.36.443,00_bat_bachelor,2022.2.4,60.039327554746585,
,,,,,,,,,,,,0,0,0,0,4,0,4,0,,,,,,,4,,,1,316.79410143313,Y,d,go,d,1,0.35081069986335933,,,,,,,,,,,,,,,,,,67,001,20,w,Psychologie,2023-01-25_10h30.36.443,00_bat_bachelor,2022.2.4,60.039327554746585,
,,,,,,,,,,,,0,0,0,0,5,0,5,0,,,,,,,5,,,1,318.2621778121684,X,l,go,l,1,0.41957963607273996,,,,,,,,,,,,,,,,,,67,001,20,w,Psychologie,2023-01-25_10h30.36.443,00_bat_bachelor,2022.2.4,60.039327554746585,
,,,,,,,,,,,,0,0,0,0,6,0,6,0,,,,,,,6,,,1,319.7966793712694,X,None,nogo,None,1,,320.59731219522655,,,,,,,,,,,,,,,,,67,001,20,w,Psychologie,2023-01-25_10h30.36.443,00_bat_bachelor,2022.2.4,60.039327554746585,
,,,,,,,,,,,,0,0,0,0,7,0,7,0,,,,,,,7,,,1,321.5980816492811,Y,d,go,d,1,0.2996941185556352,,,,,,,,,,,,,,,,,,67,001,20,w,Psychologie,2023-01-25_10h30.36.443,00_bat_bachelor,2022.2.4,60.039327554746585,
,,,,,,,,,,,,0,0,0,0,8,0,8,0,,,,,,,8,,,1,322.99878400051966,X,l,go,l,1,0.3551050005480647,,,,,,,,,,,,,,,,,,67,001,20,w,Psychologie,2023-01-25_10h30.36.443,00_bat_bachelor,2022.2.4,60.039327554746585,
,,,,,,,,,,,,0,0,0,0,9,0,9,0,,,,,,,9,,,1,324.4664332282264,Y,d,go,d,1,0.534362610662356,,,,,,,,,,,,,,,,,,67,001,20,w,Psychologie,2023-01-25_10h30.36.443,00_bat_bachelor,2022.2.4,60.039327554746585,
,,,,,,,,,,,,0,0,0,0,10,0,10,0,,,,,,,10,,,1,326.1178646699991,X,l,go,l,1,0.45127125713042915,,,,,,,,,,,,,,,,,,67,001,20,w,Psychologie,2023-01-25_10h30.36.443,00_bat_bachelor,2022.2.4,60.039327554746585,
,,,,,,,,,,,,0,0,0,0,11,0,11,0,,,,,,,11,,,1,327.6856854856014,Y,d,go,d,1,0.4199970904737711,,,,,,,,,,,,,,,,,,67,001,20,w,Psychologie,2023-01-25_10h30.36.443,00_bat_bachelor,2022.2.4,60.039327554746585,
,,,,,,,,,,,,0,0,0,0,12,0,12,0,,,,,,,12,,,1,329.2199339538347,X,l,go,l,1,0.4527965895831585,,,,,,,,,,,,,,,,,,67,001,20,w,Psychologie,2023-01-25_10h30.36.443,00_bat_bachelor,2022.2.4,60.039327554746585,
,,,,,,,,,,,,0,0,0,0,13,0,13,0,,,,,,,13,,,1,330.7881208299659,Y,d,go,d,1,0.4693119756411761,,,,,,,,,,,,,,,,,,67,001,20,w,Psychologie,2023-01-25_10h30.36.443,00_bat_bachelor,2022.2.4,60.039327554746585,
,,,,,,,,,,,,0,0,0,0,14,0,14,0,,,,,,,14,,,1,332.3723969103303,X,l,go,l,1,0.42041890835389495,,,,,,,,,,,,,,,,,,67,001,20,w,Psychologie,2023-01-25_10h30.36.443,00_bat_bachelor,2022.2.4,60.039327554746585,
,,,,,,,,,,,,0,0,0,0,15,0,15,0,,,,,,,15,,,1,333.9071127723437,X,None,nogo,l,0,0.4071001270785928,,,,,,,,,,,,,,,,,,67,001,20,w,Psychologie,2023-01-25_10h30.36.443,00_bat_bachelor,2022.2.4,60.039327554746585,
,,,,,,,,,,,,0,0,0,0,16,0,16,0,,,,,,,16,,,1,335.4247590666637,Y,d,go,d,1,0.5361327915452421,,,,,,,,,,,,,,,,,,67,001,20,w,Psychologie,2023-01-25_10h30.36.443,00_bat_bachelor,2022.2.4,60.039327554746585,
,,,,,,,,,,,,0,0,0,0,17,0,17,0,,,,,,,17,,,1,337.0759393570479,X,l,go,l,1,0.6454180721193552,,,,,,,,,,,,,,,,,,67,001,20,w,Psychologie,2023-01-25_10h30.36.443,00_bat_bachelor,2022.2.4,60.039327554746585,
,,,,,,,,,,,,0,0,0,0,18,0,18,0,,,,,,,18,,,1,338.82745171990246,X,None,nogo,None,1,,,,,,,,,,,,,,,,,,,67,001,20,w,Psychologie,2023-01-25_10h30.36.443,00_bat_bachelor,2022.2.4,60.039327554746585,
,,,,,,,,,,,,0,0,0,0,19,0,19,0,,,,,,,19,,,1,340.6285635740496,Y,d,go,d,1,0.4042201281990856,,,,,,,,,,,,,,,,,,67,001,20,w,Psychologie,2023-01-25_10h30.36.443,00_bat_bachelor,2022.2.4,60.039327554746585,
,,,,,,,,,,,,0,0,0,0,20,0,20,0,,,,,,,20,,,1,342.1466515650973,X,l,go,l,1,0.40746909636072814,,,,,,,,,,,,,,,,,,67,001,20,w,Psychologie,2023-01-25_10h30.36.443,00_bat_bachelor,2022.2.4,60.039327554746585,
,,,,,,,,,,,,0,0,0,0,21,0,21,0,,,,,,,21,,,1,343.6646488897968,X,None,nogo,None,1,,344.46540147135966,,,,,,,,,,,,,,,,,67,001,20,w,Psychologie,2023-01-25_10h30.36.443,00_bat_bachelor,2022.2.4,60.039327554746585,
,,,,,,,,,,,,0,0,0,0,22,0,22,0,,,,,,,22,,,1,345.46627662237734,Y,d,go,d,1,0.35070015443488955,,,,,,,,,,,,,,,,,,67,001,20,w,Psychologie,2023-01-25_10h30.36.443,00_bat_bachelor,2022.2.4,60.039327554746585,
,,,,,,,,,,,,0,0,0,0,23,0,23,0,,,,,,,23,,,1,346.93392197135836,X,l,go,None,0,,347.7347492193803,,,,,,,,,,,,,,,,,67,001,20,w,Psychologie,2023-01-25_10h30.36.443,00_bat_bachelor,2022.2.4,60.039327554746585,
,,,,,,,,,,,,0,0,0,0,24,0,24,0,,,,,,,24,,,1,348.7351521283854,X,None,nogo,None,1,,,,,,,,,,,,,,,,,,,67,001,20,w,Psychologie,2023-01-25_10h30.36.443,00_bat_bachelor,2022.2.4,60.039327554746585,
,,,,,,,,,,,,0,0,0,0,25,0,25,0,,,,,,,25,,,1,350.53653210331686,Y,d,go,d,1,0.3523694868199527,,,,,,,,,,,,,,,,,,67,001,20,w,Psychologie,2023-01-25_10h30.36.443,00_bat_bachelor,2022.2.4,60.039327554746585,
,,,,,,,,,,,,0,0,0,0,26,0,26,0,,,,,,,26,,,1,352.00455417949706,X,l,go,l,1,0.5653875654097646,,,,,,,,,,,,,,,,,,67,001,20,w,Psychologie,2023-01-25_10h30.36.443,00_bat_bachelor,2022.2.4,60.039327554746585,
,,,,,,,,,,,,0,0,0,0,27,0,27,0,,,,,,,27,,,1,353.67212137090974,Y,d,go,None,0,,,,,,,,,,,,,,,,,,,67,001,20,w,Psychologie,2023-01-25_10h30.36.443,00_bat_bachelor,2022.2.4,60.039327554746585,
,,,,,,,,,,,,0,0,0,0,28,0,28,0,,,,,,,28,,,1,355.473514436977,Y,None,nogo,None,1,,,,,,,,,,,,,,,,,,,67,001,20,w,Psychologie,2023-01-25_10h30.36.443,00_bat_bachelor,2022.2.4,60.039327554746585,
,,,,,,,,,,,,0,0,0,0,29,0,29,0,,,,,,,29,,,1,357.27468447270803,Y,None,nogo,None,1,,,,,,,,,,,,,,,,,,,67,001,20,w,Psychologie,2023-01-25_10h30.36.443,00_bat_bachelor,2022.2.4,60.039327554746585,
,,,,,,,,,,,,0,0,0,0,30,0,30,0,,,,,,,30,,,1,359.07625790243037,X,l,go,l,1,0.5493715731427073,,,,,,,,,,,,,,,,,,67,001,20,w,Psychologie,2023-01-25_10h30.36.443,00_bat_bachelor,2022.2.4,60.039327554746585,
,,,,,,,,,,,,0,0,0,0,31,0,31,0,,,,,,,31,,,1,360.7274968593847,Y,d,go,None,0,,,,,,,,,,,,,,,,,,,67,001,20,w,Psychologie,2023-01-25_10h30.36.443,00_bat_bachelor,2022.2.4,60.039327554746585,
,,,,,,,,,,,,0,0,0,0,32,0,32,0,,,,,,,32,,,1,362.5286882284563,Y,None,nogo,None,1,,,,,,,,,,,,,,,,,,,67,001,20,w,Psychologie,2023-01-25_10h30.36.443,00_bat_bachelor,2022.2.4,60.039327554746585,
,,,,,,,,,,,,0,0,0,0,33,0,33,0,,,,,,,33,,,1,364.33005414297804,X,l,go,None,0,,365.1308930274099,,,,,,,,,,,,,,,,,67,001,20,w,Psychologie,2023-01-25_10h30.36.443,00_bat_bachelor,2022.2.4,60.039327554746585,
,,,,,,,,,,,,0,0,0,0,34,0,34,0,,,,,,,34,,,1,366.13147678459063,Y,d,go,None,0,,366.9322720328346,,,,,,,,,,,,,,,,,67,001,20,w,Psychologie,2023-01-25_10h30.36.443,00_bat_bachelor,2022.2.4,60.039327554746585,
,,,,,,,,,,,,0,0,0,0,35,0,35,0,,,,,,,35,,,1,367.93324754736386,Y,None,nogo,None,1,,,,,,,,,,,,,,,,,,,67,001,20,w,Psychologie,2023-01-25_10h30.36.443,00_bat_bachelor,2022.2.4,60.039327554746585,
,,,,,,,,,,,,0,0,0,0,36,0,36,0,,,,,,,36,,,1,369.73418388632126,X,l,go,l,1,0.6444430423434824,,,,,,,,,,,,,,,,,,67,001,20,w,Psychologie,2023-01-25_10h30.36.443,00_bat_bachelor,2022.2.4,60.039327554746585,
,,,,,,,,,,,,0,0,0,0,37,0,37,0,,,,,,,37,,,1,371.4856341886334,Y,d,go,d,1,0.46051876759156585,,,,,,,,,,,,,,,,,,67,001,20,w,Psychologie,2023-01-25_10h30.36.443,00_bat_bachelor,2022.2.4,60.039327554746585,
,,,,,,,,,,,,0,0,0,0,38,0,38,0,,,,,,,38,,,1,373.05360918608494,Y,None,nogo,None,1,,,,,,,,,,,,,,,,,,,67,001,20,w,Psychologie,2023-01-25_10h30.36.443,00_bat_bachelor,2022.2.4,60.039327554746585,
,,,,,,,,,,,,0,0,0,0,39,0,39,0,,,,,,,39,,,1,374.85506285796873,X,l,go,l,1,0.43483441649004817,,,,,,,,,,,,,,,,,,67,001,20,w,Psychologie,2023-01-25_10h30.36.443,00_bat_bachelor,2022.2.4,60.039327554746585,
,,,,,,,,,,,,0,0,0,0,40,0,40,0,,,,,,,40,,,1,376.4061142273713,Y,d,go,d,1,0.3872189244721085,,,,,,,,,,,,,,,,,,67,001,20,w,Psychologie,2023-01-25_10h30.36.443,00_bat_bachelor,2022.2.4,60.039327554746585,
,,,,,,,,,,,,0,0,0,0,41,0,41,0,,,,,,,41,,,1,377.9072131358553,Y,None,nogo,None,1,,,,,,,,,,,,,,,,,,,67,001,20,w,Psychologie,2023-01-25_10h30.36.443,00_bat_bachelor,2022.2.4,60.039327554746585,
,,,,,,,,,,,,0,0,0,0,42,0,42,0,,,,,,,42,,,1,379.70841517159715,X,l,go,l,1,0.44478010875172913,,,,,,,,,,,,,,,,,,67,001,20,w,Psychologie,2023-01-25_10h30.36.443,00_bat_bachelor,2022.2.4,60.039327554746585,
,,,,,,,,,,,,0,0,0,0,43,0,43,0,,,,,,,43,,,1,381.2598209648859,Y,d,go,d,1,0.49402323621325195,,,,,,,,,,,,,,,,,,67,001,20,w,Psychologie,2023-01-25_10h30.36.443,00_bat_bachelor,2022.2.4,60.039327554746585,
,,,,,,,,,,,,0,0,0,0,44,0,44,0,,,,,,,44,,,1,382.8608354614116,X,l,go,l,1,0.4767272446770221,,,,,,,,,,,,,,,,,,67,001,20,w,Psychologie,2023-01-25_10h30.36.443,00_bat_bachelor,2022.2.4,60.039327554746585,
,,,,,,,,,,,,0,0,0,0,45,0,45,0,,,,,,,45,,,1,384.44557311711833,Y,d,go,d,1,0.4750317302532494,,,,,,,,,,,,,,,,,,67,001,20,w,Psychologie,2023-01-25_10h30.36.443,00_bat_bachelor,2022.2.4,60.039327554746585,
,,,,,,,,,,,,0,0,0,0,46,0,46,0,,,,,,,46,,,1,386.0301226519514,Y,None,nogo,None,1,,386.83049171837047,,,,,,,,,,,,,,,,,67,001,20,w,Psychologie,2023-01-25_10h30.36.443,00_bat_bachelor,2022.2.4,60.039327554746585,
,,,,,,,,,,,,0,0,0,0,47,0,47,0,,,,,,,47,,,1,387.8314754755702,X,l,go,l,1,0.5619291428010911,,,,,,,,,,,,,,,,,,67,001,20,w,Psychologie,2023-01-25_10h30.36.443,00_bat_bachelor,2022.2.4,60.039327554746585,
,,,,,,,,,,,,0,0,0,0,48,0,48,0,,,,,,,48,,,1,389.49921139422804,Y,d,go,d,1,0.46255997894331813,,,,,,,,,,,,,,,,,,67,001,20,w,Psychologie,2023-01-25_10h30.36.443,00_bat_bachelor,2022.2.4,60.039327554746585,
,,,,,,,,,,,,0,0,0,0,49,0,49,0,,,,,,,49,,,1,391.06709087640047,X,l,go,None,0,,,,,,,,,,,,,,,,,,,67,001,20,w,Psychologie,2023-01-25_10h30.36.443,00_bat_bachelor,2022.2.4,60.039327554746585,
,,,,,,,,,,,,0,0,0,0,50,0,50,0,,,,,,,50,,,1,392.8686269726604,Y,d,go,d,1,0.5656338683329523,,,,,,,,,,,,,,,,,,67,001,20,w,Psychologie,2023-01-25_10h30.36.443,00_bat_bachelor,2022.2.4,60.039327554746585,
,,,,,,,,,,,,0,0,0,0,51,0,51,0,,,,,,,51,,,1,394.5364016792737,X,l,go,l,1,0.5292363101616502,,,,,,,,,,,,,,,,,,67,001,20,w,Psychologie,2023-01-25_10h30.36.443,00_bat_bachelor,2022.2.4,60.039327554746585,
,,,,,,,,,,,,0,0,0,0,52,0,52,0,,,,,,,52,,,1,396.1712551896926,Y,d,go,d,1,0.5741691368166357,,,,,,,,,,,,,,,,,,67,001,20,w,Psychologie,2023-01-25_10h30.36.443,00_bat_bachelor,2022.2.4,60.039327554746585,
,,,,,,,,,,,,0,0,0,0,53,0,53,0,,,,,,,53,,,1,397.8558012819849,X,l,go,l,1,0.4417662920895964,,,,,,,,,,,,,,,,,,67,001,20,w,Psychologie,2023-01-25_10h30.36.443,00_bat_bachelor,2022.2.4,60.039327554746585,
,,,,,,,,,,,,0,0,0,0,54,0,54,0,,,,,,,54,,,1,399.40682259062305,X,None,nogo,None,1,,,,,,,,,,,,,,,,,,,67,001,20,w,Psychologie,2023-01-25_10h30.36.443,00_bat_bachelor,2022.2.4,60.039327554746585,
,,,,,,,,,,,,0,0,0,0,55,0,55,0,,,,,,,55,,,1,401.2081729900092,Y,d,go,d,1,0.48089257604442537,,,,,,,,,,,,,,,,,,67,001,20,w,Psychologie,2023-01-25_10h30.36.443,00_bat_bachelor,2022.2.4,60.039327554746585,
,,,,,,,,,,,,0,0,0,0,56,0,56,0,,,,,,,56,,,1,402.793006160995,X,l,go,l,1,0.5291824920568615,,,,,,,,,,,,,,,,,,67,001,20,w,Psychologie,2023-01-25_10h30.36.443,00_bat_bachelor,2022.2.4,60.039327554746585,
,,,,,,,,,,,,0,0,0,0,57,0,57,0,,,,,,,57,,,1,404.427271065535,X,None,nogo,None,1,,,,,,,,,,,,,,,,,,,67,001,20,w,Psychologie,2023-01-25_10h30.36.443,00_bat_bachelor,2022.2.4,60.039327554746585,
,,,,,,,,,,,,0,0,0,0,58,0,58,0,,,,,,,58,,,1,406.2289162524976,Y,d,go,d,1,0.3237372583243996,,,,,,,,,,,,,,,,,,67,001,20,w,Psychologie,2023-01-25_10h30.36.443,00_bat_bachelor,2022.2.4,60.039327554746585,
,,,,,,,,,,,,0,0,0,0,59,0,59,0,,,,,,,59,,,1,407.6632321632933,X,l,go,l,1,0.44166835281066597,,,,,,,,,,,,,,,,,,67,001,20,w,Psychologie,2023-01-25_10h30.36.443,00_bat_bachelor,2022.2.4,60.039327554746585,
,,,,,,,,,,,,0,0,0,0,60,0,60,0,,,,,,,60,,,1,409.2142151687294,X,None,nogo,None,1,,,,,,,,,,,,,,,,,,,67,001,20,w,Psychologie,2023-01-25_10h30.36.443,00_bat_bachelor,2022.2.4,60.039327554746585,
,,,,,,,,,,,,0,0,0,0,61,0,61,0,,,,,,,61,,,1,411.01584241655655,Y,d,go,d,1,0.3216189562808722,,,,,,,,,,,,,,,,,,67,001,20,w,Psychologie,2023-01-25_10h30.36.443,00_bat_bachelor,2022.2.4,60.039327554746585,
,,,,,,,,,,,,0,0,0,0,62,0,62,0,,,,,,,62,,,1,412.4502431754954,X,l,go,l,1,0.5034545045346022,,,,,,,,,,,,,,,,,,67,001,20,w,Psychologie,2023-01-25_10h30.36.443,00_bat_bachelor,2022.2.4,60.039327554746585,
,,,,,,,,,,,,0,0,0,0,63,0,63,0,,,,,,,63,,,1,414.0681711183861,Y,d,go,d,1,0.46929743024520576,,,,,,,,,,,,,,,,,,67,001,20,w,Psychologie,2023-01-25_10h30.36.443,00_bat_bachelor,2022.2.4,60.039327554746585,
,,,,,,,,,,,,0,0,0,0,64,0,64,0,,,,,,,64,,,1,415.65268138051033,X,l,go,l,1,0.3883510450832546,,,,,,,,,,,,,,,,,,67,001,20,w,Psychologie,2023-01-25_10h30.36.443,00_bat_bachelor,2022.2.4,60.039327554746585,
,,,,,,,,,,,,0,0,0,0,65,0,65,0,,,,,,,65,,,1,417.15361641021445,X,None,nogo,None,1,,,,,,,,,,,,,,,,,,,67,001,20,w,Psychologie,2023-01-25_10h30.36.443,00_bat_bachelor,2022.2.4,60.039327554746585,
,,,,,,,,,,,,0,0,0,0,66,0,66,0,,,,,,,66,,,1,418.95499541563913,X,None,nogo,None,1,,,,,,,,,,,,,,,,,,,67,001,20,w,Psychologie,2023-01-25_10h30.36.443,00_bat_bachelor,2022.2.4,60.039327554746585,
,,,,,,,,,,,,0,0,0,0,67,0,67,0,,,,,,,67,,,1,420.756705572363,Y,d,go,d,1,0.29323739442043006,,,,,,,,,,,,,,,,,,67,001,20,w,Psychologie,2023-01-25_10h30.36.443,00_bat_bachelor,2022.2.4,60.039327554746585,
,,,,,,,,,,,,0,0,0,0,68,0,68,0,,,,,,,68,,,1,422.1579567717854,X,l,go,l,1,0.5714816229883581,,,,,,,,,,,,,,,,,,67,001,20,w,Psychologie,2023-01-25_10h30.36.443,00_bat_bachelor,2022.2.4,60.039327554746585,
,,,,,,,,,,,,0,0,0,0,69,0,69,0,,,,,,,69,,,1,423.8421062582638,Y,d,go,d,1,0.4708857929799706,,,,,,,,,,,,,,,,,,67,001,20,w,Psychologie,2023-01-25_10h30.36.443,00_bat_bachelor,2022.2.4,60.039327554746585,
,,,,,,,,,,,,0,0,0,0,70,0,70,0,,,,,,,70,,,1,425.42680561123416,X,l,go,l,1,0.34320294577628374,,,,,,,,,,,,,,,,,,67,001,20,w,Psychologie,2023-01-25_10h30.36.443,00_bat_bachelor,2022.2.4,60.039327554746585,
,,,,,,,,,,,,0,0,0,0,71,0,71,0,,,,,,,71,,,1,426.8777154532727,Y,d,go,d,1,0.5721235619857907,,,,,,,,,,,,,,,,,,67,001,20,w,Psychologie,2023-01-25_10h30.36.443,00_bat_bachelor,2022.2.4,60.039327554746585,
,,,,,,,,,,,,0,0,0,0,72,0,72,0,,,,,,,72,,,1,428.5625010605436,Y,None,nogo,None,1,,,,,,,,,,,,,,,,,,,67,001,20,w,Psychologie,2023-01-25_10h30.36.443,00_bat_bachelor,2022.2.4,60.039327554746585,
,,,,,,,,,,,,0,0,0,0,73,0,73,0,,,,,,,73,,,1,430.3638403082732,X,l,go,l,1,0.5106743797659874,,,,,,,,,,,,,,,,,,67,001,20,w,Psychologie,2023-01-25_10h30.36.443,00_bat_bachelor,2022.2.4,60.039327554746585,
,,,,,,,,,,,,0,0,0,0,74,0,74,0,,,,,,,74,,,1,431.98188606929034,Y,d,go,d,1,0.5237497673369944,,,,,,,,,,,,,,,,,,67,001,20,w,Psychologie,2023-01-25_10h30.36.443,00_bat_bachelor,2022.2.4,60.039327554746585,
,,,,,,,,,,,,0,0,0,0,75,0,75,0,,,,,,,75,,,1,433.61643848894164,X,l,go,l,1,0.33005095226690173,,,,,,,,,,,,,,,,,,67,001,20,w,Psychologie,2023-01-25_10h30.36.443,00_bat_bachelor,2022.2.4,60.039327554746585,
,,,,,,,,,,,,0,0,0,0,76,0,76,0,,,,,,,76,,,1,435.0508310056757,Y,d,go,d,1,0.46334834210574627,,,,,,,,,,,,,,,,,,67,001,20,w,Psychologie,2023-01-25_10h30.36.443,00_bat_bachelor,2022.2.4,60.039327554746585,
,,,,,,,,,,,,0,0,0,0,77,0,77,0,,,,,,,77,,,1,436.61847485159524,Y,None,nogo,None,1,,,,,,,,,,,,,,,,,,,67,001,20,w,Psychologie,2023-01-25_10h30.36.443,00_bat_bachelor,2022.2.4,60.039327554746585,
,,,,,,,,,,,,0,0,0,0,78,0,78,0,,,,,,,78,,,1,438.41986064473167,X,l,go,l,1,0.5012591115664691,,,,,,,,,,,,,,,,,,67,001,20,w,Psychologie,2023-01-25_10h30.36.443,00_bat_bachelor,2022.2.4,60.039327554746585,
,,,,,,,,,,,,0,0,0,0,79,0,79,0,,,,,,,79,,,1,440.03792725433595,Y,d,go,d,1,0.49952286994084716,,,,,,,,,,,,,,,,,,67,001,20,w,Psychologie,2023-01-25_10h30.36.443,00_bat_bachelor,2022.2.4,60.039327554746585,
,,,,,,,,,,,,0,0,0,0,80,0,80,0,,,,,,,80,,,1,441.6392505990807,X,l,go,l,1,0.4177532128524035,,,,,,,,,,,,,,,,,,67,001,20,w,Psychologie,2023-01-25_10h30.36.443,00_bat_bachelor,2022.2.4,60.039327554746585,
,,,,,,,,,,,,0,0,0,0,81,0,81,0,,,,,,,81,,,1,443.1733953098301,Y,d,go,d,1,0.30905605340376496,,,,,,,,,,,,,,,,,,67,001,20,w,Psychologie,2023-01-25_10h30.36.443,00_bat_bachelor,2022.2.4,60.039327554746585,
,,,,,,,,,,,,0,0,0,0,82,0,82,0,,,,,,,82,,,1,444.59140771324746,Y,None,nogo,l,0,0.3785333528649062,,,,,,,,,,,,,,,,,,67,001,20,w,Psychologie,2023-01-25_10h30.36.443,00_bat_bachelor,2022.2.4,60.039327554746585,
,,,,,,,,,,,,0,0,0,0,83,0,83,0,,,,,,,83,,,1,446.0759325691033,X,l,go,None,0,,446.8762735144701,,,,,,,,,,,,,,,,,67,001,20,w,Psychologie,2023-01-25_10h30.36.443,00_bat_bachelor,2022.2.4,60.039327554746585,
,,,,,,,,,,,,0,0,0,0,84,0,84,0,,,,,,,84,,,1,447.877071574796,Y,d,go,None,0,,,,,,,,,,,,,,,,,,,67,001,20,w,Psychologie,2023-01-25_10h30.36.443,00_bat_bachelor,2022.2.4,60.039327554746585,
,,,,,,,,,,,,0,0,0,0,85,0,85,0,,,,,,,85,,,1,449.6783555499278,X,l,go,l,1,0.45809549605473876,,,,,,,,,,,,,,,,,,67,001,20,w,Psychologie,2023-01-25_10h30.36.443,00_bat_bachelor,2022.2.4,60.039327554746585,
,,,,,,,,,,,,0,0,0,0,86,0,86,0,,,,,,,86,,,1,451.2464939409401,Y,d,go,d,1,0.2663685588631779,,,,,,,,,,,,,,,,,,67,001,20,w,Psychologie,2023-01-25_10h30.36.443,00_bat_bachelor,2022.2.4,60.039327554746585,
,,,,,,,,,,,,0,0,0,0,87,0,87,0,,,,,,,87,,,1,452.6142004292924,Y,None,nogo,l,0,0.3403840381652117,,,,,,,,,,,,,,,,,,67,001,20,w,Psychologie,2023-01-25_10h30.36.443,00_bat_bachelor,2022.2.4,60.039327554746585,
,,,,,,,,,,,,0,0,0,0,88,0,88,0,,,,,,,88,,,1,454.06532990769483,X,l,go,None,0,,,,,,,,,,,,,,,,,,,67,001,20,w,Psychologie,2023-01-25_10h30.36.443,00_bat_bachelor,2022.2.4,60.039327554746585,
,,,,,,,,,,,,0,0,0,0,89,0,89,0,,,,,,,89,,,1,455.86642091325484,Y,d,go,None,0,,,,,,,,,,,,,,,,,,,67,001,20,w,Psychologie,2023-01-25_10h30.36.443,00_bat_bachelor,2022.2.4,60.039327554746585,
,,,,,,,,,,,,0,0,0,0,90,0,90,0,,,,,,,90,,,1,457.6684059789404,X,l,go,l,1,0.5329686719924212,,,,,,,,,,,,,,,,,,67,001,20,w,Psychologie,2023-01-25_10h30.36.443,00_bat_bachelor,2022.2.4,60.039327554746585,
,,,,,,,,,,,,0,0,0,0,91,0,91,0,,,,,,,91,,,1,459.30282603483647,Y,d,go,d,1,0.32234089518897235,,,,,,,,,,,,,,,,,,67,001,20,w,Psychologie,2023-01-25_10h30.36.443,00_bat_bachelor,2022.2.4,60.039327554746585,
,,,,,,,,,,,,0,0,0,0,92,0,92,0,,,,,,,92,,,1,460.7374280060176,X,l,go,l,1,0.5193109817337245,,,,,,,,,,,,,,,,,,67,001,20,w,Psychologie,2023-01-25_10h30.36.443,00_bat_bachelor,2022.2.4,60.039327554746585,
,,,,,,,,,,,,0,0,0,0,93,0,93,0,,,,,,,93,,,1,462.37195230438374,Y,d,go,d,1,0.30987932556308806,,,,,,,,,,,,,,,,,,67,001,20,w,Psychologie,2023-01-25_10h30.36.443,00_bat_bachelor,2022.2.4,60.039327554746585,
,,,,,,,,,,,,0,0,0,0,94,0,94,0,,,,,,,94,,,1,463.78914095065556,Y,None,nogo,None,1,,,,,,,,,,,,,,,,,,,67,001,20,w,Psychologie,2023-01-25_10h30.36.443,00_bat_bachelor,2022.2.4,60.039327554746585,
,,,,,,,,,,,,0,0,0,0,95,0,95,0,,,,,,,95,,,1,465.59076238027774,X,l,go,l,1,0.4024727351497859,,,,,,,,,,,,,,,,,,67,001,20,w,Psychologie,2023-01-25_10h30.36.443,00_bat_bachelor,2022.2.4,60.039327554746585,
,,,,,,,,,,,,0,0,0,0,96,0,96,0,,,,,,,96,,,1,467.108565765433,Y,d,go,d,1,0.5329807931557298,,,,,,,,,,,,,,,,,,67,001,20,w,Psychologie,2023-01-25_10h30.36.443,00_bat_bachelor,2022.2.4,60.039327554746585,
,,,,,,,,,,,,0,0,0,0,97,0,97,0,,,,,,,97,,,1,468.7431516395882,X,l,go,l,1,0.3228165314067155,,,,,,,,,,,,,,,,,,67,001,20,w,Psychologie,2023-01-25_10h30.36.443,00_bat_bachelor,2022.2.4,60.039327554746585,
,,,,,,,,,,,,0,0,0,0,98,0,98,0,,,,,,,98,,,1,470.1775281562004,Y,d,go,None,0,,,,,,,,,,,,,,,,,,,67,001,20,w,Psychologie,2023-01-25_10h30.36.443,00_bat_bachelor,2022.2.4,60.039327554746585,
,,,,,,,,,,,,0,0,0,0,99,0,99,0,,,,,,,99,,,1,471.9787554042414,Y,None,nogo,None,1,,,,,,,,,,,,,,,,,,,67,001,20,w,Psychologie,2023-01-25_10h30.36.443,00_bat_bachelor,2022.2.4,60.039327554746585,
,,,,,,,,,,,,0,0,0,0,100,0,100,0,,,,,,,100,,,1,473.7802793791052,X,l,go,l,1,0.3576877871528268,,,,,,,,,,,,,,,,,,67,001,20,w,Psychologie,2023-01-25_10h30.36.443,00_bat_bachelor,2022.2.4,60.039327554746585,
,,,,,,,,,,,,0,0,0,0,101,0,101,0,,,,,,,101,,,1,475.2480818191543,Y,d,go,d,1,0.5847208893392235,,,,,,,,,,,,,,,,,,67,001,20,w,Psychologie,2023-01-25_10h30.36.443,00_bat_bachelor,2022.2.4,60.039327554746585,
,,,,,,,,,,,,0,0,0,0,102,0,102,0,,,,,,,102,,,1,476.94951953948475,X,l,go,l,1,0.4357619311194867,,,,,,,,,,,,,,,,,,67,001,20,w,Psychologie,2023-01-25_10h30.36.443,00_bat_bachelor,2022.2.4,60.039327554746585,
,,,,,,,,,,,,0,0,0,0,103,0,103,0,,,,,,,103,,,1,478.50053793913685,X,None,nogo,l,0,0.5004188695456833,,,,,,,,,,,,,,,,,,67,001,20,w,Psychologie,2023-01-25_10h30.36.443,00_bat_bachelor,2022.2.4,60.039327554746585,
,,,,,,,,,,,,0,0,0,0,104,0,104,0,,,,,,,104,,,1,480.10189085965976,Y,d,go,d,1,0.6609467917587608,,,,,,,,,,,,,,,,,,67,001,20,w,Psychologie,2023-01-25_10h30.36.443,00_bat_bachelor,2022.2.4,60.039327554746585,
,,,,,,,,,,,,0,0,0,0,105,0,105,0,,,,,,,105,,,1,481.86981242662296,X,l,go,l,1,0.5715039260685444,,,,,,,,,,,,,,,,,,67,001,20,w,Psychologie,2023-01-25_10h30.36.443,00_bat_bachelor,2022.2.4,60.039327554746585,
,,,,,,,,,,,,0,0,0,0,106,0,106,0,,,,,,,106,,,1,483.55447342805564,X,None,nogo,l,0,0.4388979298528284,,,,,,,,,,,,,,,,,,67,001,20,w,Psychologie,2023-01-25_10h30.36.443,00_bat_bachelor,2022.2.4,60.039327554746585,
,,,,,,,,,,,,0,0,0,0,107,0,107,0,,,,,,,107,,,1,485.10565861547366,Y,d,go,d,1,0.6324454722926021,,,,,,,,,,,,,,,,,,67,001,20,w,Psychologie,2023-01-25_10h30.36.443,00_bat_bachelor,2022.2.4,60.039327554746585,
,,,,,,,,,,,,0,0,0,0,108,0,108,0,,,,,,,108,,,1,486.8403074713424,X,l,go,l,1,0.5605201737489551,,,,,,,,,,,,,,,,,,67,001,20,w,Psychologie,2023-01-25_10h30.36.443,00_bat_bachelor,2022.2.4,60.039327554746585,
,,,,,,,,,,,,0,0,0,0,109,0,109,0,,,,,,,109,,,1,488.5079890869092,Y,d,go,d,1,0.5892973719164729,,,,,,,,,,,,,,,,,,67,001,20,w,Psychologie,2023-01-25_10h30.36.443,00_bat_bachelor,2022.2.4,60.039327554746585,
,,,,,,,,,,,,0,0,0,0,110,0,110,0,,,,,,,110,,,1,490.2095087468624,Y,None,nogo,None,1,,,,,,,,,,,,,,,,,,,67,001,20,w,Psychologie,2023-01-25_10h30.36.443,00_bat_bachelor,2022.2.4,60.039327554746585,
,,,,,,,,,,,,0,0,0,0,111,0,111,0,,,,,,,111,,,1,492.01083538867533,X,l,go,l,1,0.5423572736326605,,,,,,,,,,,,,,,,,,67,001,20,w,Psychologie,2023-01-25_10h30.36.443,00_bat_bachelor,2022.2.4,60.039327554746585,
,,,,,,,,,,,,0,0,0,0,112,0,112,0,,,,,,,112,,,1,493.66215143655427,Y,d,go,d,1,0.523444312857464,,,,,,,,,,,,,,,,,,67,001,20,w,Psychologie,2023-01-25_10h30.36.443,00_bat_bachelor,2022.2.4,60.039327554746585,
,,,,,,,,,,,,0,0,0,0,113,0,113,0,,,,,,,113,,,1,495.29734482546337,X,l,go,l,1,0.43911708099767566,,,,,,,,,,,,,,,,,,67,001,20,w,Psychologie,2023-01-25_10h30.36.443,00_bat_bachelor,2022.2.4,60.039327554746585,
,,,,,,,,,,,,0,0,0,0,114,0,114,0,,,,,,,114,,,1,496.8653203076683,Y,d,go,d,1,0.5036431103944778,,,,,,,,,,,,,,,,,,67,001,20,w,Psychologie,2023-01-25_10h30.36.443,00_bat_bachelor,2022.2.4,60.039327554746585,
,,,,,,,,,,,,0,0,0,0,115,0,115,0,,,,,,,115,,,1,498.4826940689236,Y,None,nogo,None,1,,499.2832827717066,,,,,,,,,,,,,,,,,67,001,20,w,Psychologie,2023-01-25_10h30.36.443,00_bat_bachelor,2022.2.4,60.039327554746585,
,,,,,,,,,,,,0,0,0,0,116,0,116,0,,,,,,,116,,,1,500.28400325612165,X,l,go,l,1,0.2677014064975083,,,,,,,,,,,,,,,,,,67,001,20,w,Psychologie,2023-01-25_10h30.36.443,00_bat_bachelor,2022.2.4,60.039327554746585,
,,,,,,,,,,,,0,0,0,0,117,0,117,0,,,,,,,117,,,1,501.6850556677673,Y,d,go,d,1,0.32496004551649094,,,,,,,,,,,,,,,,,,67,001,20,w,Psychologie,2023-01-25_10h30.36.443,00_bat_bachelor,2022.2.4,60.039327554746585,
,,,,,,,,,,,,0,0,0,0,118,0,118,0,,,,,,,118,,,1,503.11955533595756,X,l,go,l,1,0.39429286029189825,,,,,,,,,,,,,,,,,,67,001,20,w,Psychologie,2023-01-25_10h30.36.443,00_bat_bachelor,2022.2.4,60.039327554746585,
,,,,,,,,,,,,0,0,0,0,119,0,119,0,,,,,,,119,,,1,504.6202910931315,Y,d,go,d,1,0.3655641470104456,,,,,,,,,,,,,,,,,,67,001,20,w,Psychologie,2023-01-25_10h30.36.443,00_bat_bachelor,2022.2.4,60.039327554746585,
,,,,,,,,,,,,0,0,0,0,120,0,120,0,,,,,,,120,,,1,506.0880765633192,Y,None,nogo,None,1,,,,,,,,,,,,,,,,,,,67,001,20,w,Psychologie,2023-01-25_10h30.36.443,00_bat_bachelor,2022.2.4,60.039327554746585,
,,,,,,,,,,,,0,0,0,0,121,0,121,0,,,,,,,121,,,1,507.88976344722323,X,l,go,l,1,0.2644824991002679,,,,,,,,,,,,,,,,,,67,001,20,w,Psychologie,2023-01-25_10h30.36.443,00_bat_bachelor,2022.2.4,60.039327554746585,
,,,,,,,,,,,,0,0,0,0,122,0,122,0,,,,,,,122,,,1,509.2573336933274,Y,d,go,d,1,0.4478521072305739,,,,,,,,,,,,,,,,,,67,001,20,w,Psychologie,2023-01-25_10h30.36.443,00_bat_bachelor,2022.2.4,60.039327554746585,
,,,,,,,,,,,,0,0,0,0,123,0,123,0,,,,,,,123,,,1,510.8085125775542,Y,None,nogo,None,1,,,,,,,,,,,,,,,,,,,67,001,20,w,Psychologie,2023-01-25_10h30.36.443,00_bat_bachelor,2022.2.4,60.039327554746585,
,,,,,,,,,,,,0,0,0,0,124,0,124,0,,,,,,,124,,,1,512.6096855225042,X,l,go,l,1,0.45536531577818096,,,,,,,,,,,,,,,,,,67,001,20,w,Psychologie,2023-01-25_10h30.36.443,00_bat_bachelor,2022.2.4,60.039327554746585,
,,,,,,,,,,,,0,0,0,0,125,0,125,0,,,,,,,125,,,1,514.1777041561436,Y,d,go,d,1,0.3607069372665137,,,,,,,,,,,,,,,,,,67,001,20,w,Psychologie,2023-01-25_10h30.36.443,00_bat_bachelor,2022.2.4,60.039327554746585,
,,,,,,,,,,,,0,0,0,0,126,0,126,0,,,,,,,126,,,1,515.6455895050894,Y,None,nogo,None,1,,,,,,,,,,,,,,,,,,,67,001,20,w,Psychologie,2023-01-25_10h30.36.443,00_bat_bachelor,2022.2.4,60.039327554746585,
,,,,,,,,,,,,0,0,0,0,127,0,127,0,,,,,,,127,,,1,517.4468763892073,X,l,go,l,1,0.2424868734087795,,,,,,,,,,,,,,,,,,67,001,20,w,Psychologie,2023-01-25_10h30.36.443,00_bat_bachelor,2022.2.4,60.039327554746585,
,,,,,,,,,,,,0,0,0,0,128,0,128,0,,,,,,,128,,,1,518.798806400504,Y,d,go,d,1,0.3790312921628356,,,,,,,,,,,,,,,,,,67,001,20,w,Psychologie,2023-01-25_10h30.36.443,00_bat_bachelor,2022.2.4,60.039327554746585,
,,,,,,,,,,,,0,0,0,0,129,0,129,0,,,,,,,129,,,1,520.299877672689,Y,None,nogo,None,1,,521.1002064968925,,,,,,,,,,,,,,,,,67,001,20,w,Psychologie,2023-01-25_10h30.36.443,00_bat_bachelor,2022.2.4,60.039327554746585,
,,,,,,,,,,,,0,0,0,0,130,0,130,0,,,,,,,130,,,1,522.1009972842876,X,l,go,l,1,0.2751060090959072,,,,,,,,,,,,,,,,,,67,001,20,w,Psychologie,2023-01-25_10h30.36.443,00_bat_bachelor,2022.2.4,60.039327554746585,
,,,,,,,,,,,,0,0,0,0,131,0,131,0,,,,,,,131,,,1,523.5023071502801,Y,d,go,d,1,0.4101701860781759,,,,,,,,,,,,,,,,,,67,001,20,w,Psychologie,2023-01-25_10h30.36.443,00_bat_bachelor,2022.2.4,60.039327554746585,
,,,,,,,,,,,,0,0,0,0,132,0,132,0,,,,,,,132,,,1,525.036724830512,X,l,go,l,1,0.3804475339129567,,,,,,,,,,,,,,,,,,67,001,20,w,Psychologie,2023-01-25_10h30.36.443,00_bat_bachelor,2022.2.4,60.039327554746585,
,,,,,,,,,,,,0,0,0,0,133,0,133,0,,,,,,,133,,,1,526.5380845875479,Y,d,go,d,1,0.4783834863919765,,,,,,,,,,,,,,,,,,67,001,20,w,Psychologie,2023-01-25_10h30.36.443,00_bat_bachelor,2022.2.4,60.039327554746585,
,,,,,,,,,,,,0,0,0,0,134,0,134,0,,,,,,,134,,,1,528.1391776294913,X,l,go,l,1,0.6369448639452457,,,,,,,,,,,,,,,,,,67,001,20,w,Psychologie,2023-01-25_10h30.36.443,00_bat_bachelor,2022.2.4,60.039327554746585,
,,,,,,,,,,,,0,0,0,0,135,0,135,0,,,,,,,135,,,1,529.9069290147163,Y,d,go,d,1,0.5973468227311969,,,,,,,,,,,,,,,,,,67,001,20,w,Psychologie,2023-01-25_10h30.36.443,00_bat_bachelor,2022.2.4,60.039327554746585,
,,,,,,,,,,,,0,0,0,0,136,0,136,0,,,,,,,136,,,1,531.6249281817582,X,l,go,None,0,,532.4259479145985,,,,,,,,,,,,,,,,,67,001,20,w,Psychologie,2023-01-25_10h30.36.443,00_bat_bachelor,2022.2.4,60.039327554746585,
,,,,,,,,,,,,0,0,0,0,137,0,137,0,,,,,,,137,,,1,533.4259939752519,X,None,nogo,l,0,0.5830437992699444,,,,,,,,,,,,,,,,,,67,001,20,w,Psychologie,2023-01-25_10h30.36.443,00_bat_bachelor,2022.2.4,60.039327554746585,
,,,,,,,,,,,,0,0,0,0,138,0,138,0,,,,,,,138,,,1,535.1104610373732,Y,d,go,l,0,0.4659238560125232,,,,,,,,,,,,,,,,,,67,001,20,w,Psychologie,2023-01-25_10h30.36.443,00_bat_bachelor,2022.2.4,60.039327554746585,
,,,,,,,,,,,,0,0,0,0,139,0,139,0,,,,,,,139,,,1,536.6783279133961,X,l,go,None,0,,,,,,,,,,,,,,,,,,,67,001,20,w,Psychologie,2023-01-25_10h30.36.443,00_bat_bachelor,2022.2.4,60.039327554746585,
,,,,,,,,,,,,0,0,0,0,140,0,140,0,,,,,,,140,,,1,538.4799061915837,X,None,nogo,None,1,,539.2804978033528,,,,,,,,,,,,,,,,,67,001,20,w,Psychologie,2023-01-25_10h30.36.443,00_bat_bachelor,2022.2.4,60.039327554746585,
,,,,,,,,,,,,0,0,0,0,141,0,141,0,,,,,,,141,,,1,540.2812022878788,X,None,nogo,None,1,,541.0816891724244,,,,,,,,,,,,,,,,,67,001,20,w,Psychologie,2023-01-25_10h30.36.443,00_bat_bachelor,2022.2.4,60.039327554746585,
,,,,,,,,,,,,0,0,0,0,142,0,142,0,,,,,,,142,,,1,542.0825987476856,Y,d,go,d,1,0.2639283174648881,,,,,,,,,,,,,,,,,,67,001,20,w,Psychologie,2023-01-25_10h30.36.443,00_bat_bachelor,2022.2.4,60.039327554746585,
,,,,,,,,,,,,0,0,0,0,143,0,143,0,,,,,,,143,,,1,543.4501311755739,X,l,go,l,1,0.4791335465852171,,,,,,,,,,,,,,,,,,67,001,20,w,Psychologie,2023-01-25_10h30.36.443,00_bat_bachelor,2022.2.4,60.039327554746585,
,,,,,,,,,,,,0,0,0,0,144,0,144,0,,,,,,,144,,,1,545.0346113771666,Y,d,go,d,1,0.4147995172534138,,,,,,,,,,,,,,,,,,67,001,20,w,Psychologie,2023-01-25_10h30.36.443,00_bat_bachelor,2022.2.4,60.039327554746585,
,,,,,,,,,,,,0,0,0,0,145,0,145,0,,,,,,,145,,,1,546.5524719743989,Y,None,nogo,None,1,,,,,,,,,,,,,,,,,,,67,001,20,w,Psychologie,2023-01-25_10h30.36.443,00_bat_bachelor,2022.2.4,60.039327554746585,
,,,,,,,,,,,,0,0,0,0,146,0,146,0,,,,,,,146,,,1,548.3536967982072,Y,None,nogo,None,1,,549.1544042886235,,,,,,,,,,,,,,,,,67,001,20,w,Psychologie,2023-01-25_10h30.36.443,00_bat_bachelor,2022.2.4,60.039327554746585,
,,,,,,,,,,,,0,0,0,0,147,0,147,0,,,,,,,147,,,1,550.1551921670325,X,l,go,l,1,0.2226502769626677,,,,,,,,,,,,,,,,,,67,001,20,w,Psychologie,2023-01-25_10h30.36.443,00_bat_bachelor,2022.2.4,60.039327554746585,
,,,,,,,,,,,,0,0,0,0,148,0,148,0,,,,,,,148,,,1,551.4894984292332,Y,d,go,d,1,0.2487016583327204,,,,,,,,,,,,,,,,,,67,001,20,w,Psychologie,2023-01-25_10h30.36.443,00_bat_bachelor,2022.2.4,60.039327554746585,
,,,,,,,,,,,,0,0,0,0,149,0,149,0,,,,,,,149,,,1,552.8403394713532,Y,None,nogo,d,0,0.40087806922383606,,,,,,,,,,,,,,,,,,67,001,20,w,Psychologie,2023-01-25_10h30.36.443,00_bat_bachelor,2022.2.4,60.039327554746585,
,,,,,,,,,,,,0,0,0,0,150,0,150,0,,,,,,,150,,,1,554.3583290383685,X,l,go,l,1,0.4509948934428394,,,,,,,,,,,,,,,,,,67,001,20,w,Psychologie,2023-01-25_10h30.36.443,00_bat_bachelor,2022.2.4,60.039327554746585,
,,,,,,,,,,,,0,0,0,0,151,0,151,0,,,,,,,151,,,1,555.9262332478538,Y,d,go,None,0,,556.7268549201544,,,,,,,,,,,,,,,,,67,001,20,w,Psychologie,2023-01-25_10h30.36.443,00_bat_bachelor,2022.2.4,60.039327554746585,
,,,,,,,,,,,,0,0,0,0,152,0,152,0,,,,,,,152,,,1,557.7276854652446,X,l,go,l,1,0.25005486980080605,,,,,,,,,,,,,,,,,,67,001,20,w,Psychologie,2023-01-25_10h30.36.443,00_bat_bachelor,2022.2.4,60.039327554746585,
,,,,,,,,,,,,0,0,0,0,153,0,153,0,,,,,,,153,,,1,559.0786472344771,X,None,nogo,None,1,,,,,,,,,,,,,,,,,,,67,001,20,w,Psychologie,2023-01-25_10h30.36.443,00_bat_bachelor,2022.2.4,60.039327554746585,
,,,,,,,,,,,,0,0,0,0,154,0,154,0,,,,,,,154,,,1,560.8801411490422,Y,d,go,d,1,0.41028703446500003,,,,,,,,,,,,,,,,,,67,001,20,w,Psychologie,2023-01-25_10h30.36.443,00_bat_bachelor,2022.2.4,60.039327554746585,
,,,,,,,,,,,,0,0,0,0,155,0,155,0,,,,,,,155,,,1,562.3977816251572,X,l,go,l,1,0.3796116553712636,,,,,,,,,,,,,,,,,,67,001,20,w,Psychologie,2023-01-25_10h30.36.443,00_bat_bachelor,2022.2.4,60.039327554746585,
,,,,,,,,,,,,0,0,0,0,156,0,156,0,,,,,,,156,,,1,563.8822516934015,Y,d,go,None,0,,564.6829713052139,,,,,,,,,,,,,,,,,67,001,20,w,Psychologie,2023-01-25_10h30.36.443,00_bat_bachelor,2022.2.4,60.039327554746585,
,,,,,,,,,,,,0,0,0,0,157,0,157,0,,,,,,,157,,,1,565.6836830624379,X,l,go,l,1,0.2947050298098475,,,,,,,,,,,,,,,,,,67,001,20,w,Psychologie,2023-01-25_10h30.36.443,00_bat_bachelor,2022.2.4,60.039327554746585,
,,,,,,,,,,,,0,0,0,0,158,0,158,0,,,,,,,158,,,1,567.0844741407782,X,None,nogo,l,0,0.509326986502856,,,,,,,,,,,,,,,,,,67,001,20,w,Psychologie,2023-01-25_10h30.36.443,00_bat_bachelor,2022.2.4,60.039327554746585,
,,,,,,,,,,,,0,0,0,0,159,0,159,0,,,,,,,159,,,1,568.7026784471236,Y,d,go,l,0,0.4747107606381178,,,,,,,,,,,,,,,,,,67,001,20,w,Psychologie,2023-01-25_10h30.36.443,00_bat_bachelor,2022.2.4,60.039327554746585,
,,,,,,,,,,,,0,0,0,0,160,0,160,0,,,,,,,160,,,1,570.287171254633,X,l,go,l,1,0.39462061785161495,,,,,,,,,,,,,,,,,,67,001,20,w,Psychologie,2023-01-25_10h30.36.443,00_bat_bachelor,2022.2.4,60.039327554746585,
,,,,,,,,,,,,0,0,0,0,161,0,161,0,,,,,,,161,,,1,571.788315739017,Y,d,go,d,1,0.3973304347600788,,,,,,,,,,,,,,,,,,67,001,20,w,Psychologie,2023-01-25_10h30.36.443,00_bat_bachelor,2022.2.4,60.039327554746585,
,,,,,,,,,,,,0,0,0,0,162,0,162,0,,,,,,,162,,,1,573.2895945261698,Y,None,nogo,None,1,,,,,,,,,,,,,,,,,,,67,001,20,w,Psychologie,2023-01-25_10h30.36.443,00_bat_bachelor,2022.2.4,60.039327554746585,
,,,,,,,,,,,,0,0,0,0,163,0,163,0,,,,,,,163,,,1,575.09066225891,X,l,go,l,1,0.3278414986561984,,,,,,,,,,,,,,,,,,67,001,20,w,Psychologie,2023-01-25_10h30.36.443,00_bat_bachelor,2022.2.4,60.039327554746585,
,,,,,,,,,,,,0,0,0,0,164,0,164,0,,,,,,,164,,,1,576.5253931996413,Y,d,go,d,1,0.28331303549930453,,,,,,,,,,,,,,,,,,67,001,20,w,Psychologie,2023-01-25_10h30.36.443,00_bat_bachelor,2022.2.4,60.039327554746585,
,,,,,,,,,,,,0,0,0,0,165,0,165,0,,,,,,,165,,,1,577.9094676801469,Y,None,nogo,None,1,,,,,,,,,,,,,,,,,,,67,001,20,w,Psychologie,2023-01-25_10h30.36.443,00_bat_bachelor,2022.2.4,60.039327554746585,
,,,,,,,,,,,,0,0,0,0,166,0,166,0,,,,,,,166,,,1,579.7113698369358,X,l,go,l,1,0.39425552706234157,,,,,,,,,,,,,,,,,,67,001,20,w,Psychologie,2023-01-25_10h30.36.443,00_bat_bachelor,2022.2.4,60.039327554746585,
,,,,,,,,,,,,0,0,0,0,167,0,167,0,,,,,,,167,,,1,581.212348987814,Y,d,go,None,0,,,,,,,,,,,,,,,,,,,67,001,20,w,Psychologie,2023-01-25_10h30.36.443,00_bat_bachelor,2022.2.4,60.039327554746585,
,,,,,,,,,,,,0,0,0,0,168,0,168,0,,,,,,,168,,,1,583.0137182963081,X,l,go,None,0,,583.8142934232019,,,,,,,,,,,,,,,,,67,001,20,w,Psychologie,2023-01-25_10h30.36.443,00_bat_bachelor,2022.2.4,60.039327554746585,
,,,,,,,,,,,,0,0,0,0,169,0,169,0,,,,,,,169,,,1,584.815214634873,X,None,nogo,l,0,0.4269585416186601,,,,,,,,,,,,,,,,,,67,001,20,w,Psychologie,2023-01-25_10h30.36.443,00_bat_bachelor,2022.2.4,60.039327554746585,
,,,,,,,,,,,,0,0,0,0,170,0,170,0,,,,,,,170,,,1,586.3495198304299,Y,d,go,None,0,,587.150096896803,,,,,,,,,,,,,,,,,67,001,20,w,Psychologie,2023-01-25_10h30.36.443,00_bat_bachelor,2022.2.4,60.039327554746585,
,,,,,,,,,,,,0,0,0,0,171,0,171,0,,,,,,,171,,,1,588.1509342298377,X,l,go,l,1,0.37011493276804686,,,,,,,,,,,,,,,,,,67,001,20,w,Psychologie,2023-01-25_10h30.36.443,00_bat_bachelor,2022.2.4,60.039327554746585,
,,,,,,,,,,,,0,0,0,0,172,0,172,0,,,,,,,172,,,1,589.6352404193021,X,None,nogo,l,0,0.48585887672379613,,,,,,,,,,,,,,,,,,67,001,20,w,Psychologie,2023-01-25_10h30.36.443,00_bat_bachelor,2022.2.4,60.039327554746585,
,,,,,,,,,,,,0,0,0,0,173,0,173,0,,,,,,,173,,,1,591.2362195218448,X,None,nogo,l,0,0.5489977551624179,,,,,,,,,,,,,,,,,,67,001,20,w,Psychologie,2023-01-25_10h30.36.443,00_bat_bachelor,2022.2.4,60.039327554746585,
,,,,,,,,,,,,0,0,0,0,174,0,174,0,,,,,,,174,,,1,592.887688296847,Y,d,go,None,0,,,,,,,,,,,,,,,,,,,67,001,20,w,Psychologie,2023-01-25_10h30.36.443,00_bat_bachelor,2022.2.4,60.039327554746585,
,,,,,,,,,,,,0,0,0,0,175,0,175,0,,,,,,,175,,,1,594.6891017265152,X,l,go,l,1,0.3437168849632144,,,,,,,,,,,,,,,,,,67,001,20,w,Psychologie,2023-01-25_10h30.36.443,00_bat_bachelor,2022.2.4,60.039327554746585,
,,,,,,,,,,,,0,0,0,0,176,0,176,0,,,,,,,176,,,1,596.1399795683101,Y,d,go,d,1,0.3328873144928366,,,,,,,,,,,,,,,,,,67,001,20,w,Psychologie,2023-01-25_10h30.36.443,00_bat_bachelor,2022.2.4,60.039327554746585,
,,,,,,,,,,,,0,0,0,0,177,0,177,0,,,,,,,177,,,1,597.5744142669719,X,l,go,l,1,0.3871505609713495,,,,,,,,,,,,,,,,,,67,001,20,w,Psychologie,2023-01-25_10h30.36.443,00_bat_bachelor,2022.2.4,60.039327554746585,
,,,,,,,,,,,,0,0,0,0,178,0,178,0,,,,,,,178,,,1,599.0757362055592,X,None,nogo,d,0,0.34229676448740065,,,,,,,,,,,,,,,,,,67,001,20,w,Psychologie,2023-01-25_10h30.36.443,00_bat_bachelor,2022.2.4,60.039327554746585,
,,,,,,,,,,,,0,0,0,0,179,0,179,0,,,,,,,179,,,1,600.5270266535226,Y,d,go,None,0,,,,,,,,,,,,,,,,,,,67,001,20,w,Psychologie,2023-01-25_10h30.36.443,00_bat_bachelor,2022.2.4,60.039327554746585,
,,,,,,,,,,,,0,0,0,0,180,0,180,0,,,,,,,180,,,1,602.3283484468702,X,l,go,l,1,0.3049770249053836,,,,,,,,,,,,,,,,,,67,001,20,w,Psychologie,2023-01-25_10h30.36.443,00_bat_bachelor,2022.2.4,60.039327554746585,
,,,,,,,,,,,,0,0,0,0,181,0,181,0,,,,,,,181,,,1,603.746015638113,Y,d,go,d,1,0.26436274172738194,,,,,,,,,,,,,,,,,,67,001,20,w,Psychologie,2023-01-25_10h30.36.443,00_bat_bachelor,2022.2.4,60.039327554746585,
,,,,,,,,,,,,0,0,0,0,182,0,182,0,,,,,,,182,,,1,605.1137129145209,X,l,go,l,1,0.2707486778963357,,,,,,,,,,,,,,,,,,67,001,20,w,Psychologie,2023-01-25_10h30.36.443,00_bat_bachelor,2022.2.4,60.039327554746585,
,,,,,,,,,,,,0,0,0,0,183,0,183,0,,,,,,,183,,,1,606.498129212996,Y,d,go,d,1,0.3444717936217785,,,,,,,,,,,,,,,,,,67,001,20,w,Psychologie,2023-01-25_10h30.36.443,00_bat_bachelor,2022.2.4,60.039327554746585,
,,,,,,,,,,,,0,0,0,0,184,0,184,0,,,,,,,184,,,1,607.9490085095167,X,l,go,l,1,0.30026478483341634,,,,,,,,,,,,,,,,,,67,001,20,w,Psychologie,2023-01-25_10h30.36.443,00_bat_bachelor,2022.2.4,60.039327554746585,
,,,,,,,,,,,,0,0,0,0,185,0,185,0,,,,,,,185,,,1,609.3502771633212,Y,d,go,None,0,,,,,,,,,,,,,,,,,,,67,001,20,w,Psychologie,2023-01-25_10h30.36.443,00_bat_bachelor,2022.2.4,60.039327554746585,
,,,,,,,,,,,,0,0,0,0,186,0,186,0,,,,,,,186,,,1,611.1519145928323,Y,None,nogo,None,1,,,,,,,,,,,,,,,,,,,67,001,20,w,Psychologie,2023-01-25_10h30.36.443,00_bat_bachelor,2022.2.4,60.039327554746585,
,,,,,,,,,,,,0,0,0,0,187,0,187,0,,,,,,,187,,,1,612.953145719599,X,l,go,l,1,0.239497299073264,,,,,,,,,,,,,,,,,,67,001,20,w,Psychologie,2023-01-25_10h30.36.443,00_bat_bachelor,2022.2.4,60.039327554746585,
,,,,,,,,,,,,0,0,0,0,188,0,188,0,,,,,,,188,,,1,614.3043562159874,Y,d,go,d,1,0.2173174312338233,,,,,,,,,,,,,,,,,,67,001,20,w,Psychologie,2023-01-25_10h30.36.443,00_bat_bachelor,2022.2.4,60.039327554746585,
,,,,,,,,,,,,0,0,0,0,189,0,189,0,,,,,,,189,,,1,615.6218401833903,X,l,go,l,1,0.3236591978929937,,,,,,,,,,,,,,,,,,67,001,20,w,Psychologie,2023-01-25_10h30.36.443,00_bat_bachelor,2022.2.4,60.039327554746585,
,,,,,,,,,,,,0,0,0,0,190,0,190,0,,,,,,,190,,,1,617.0562831242569,X,None,nogo,l,0,0.5050312308594584,,,,,,,,,,,,,,,,,,67,001,20,w,Psychologie,2023-01-25_10h30.36.443,00_bat_bachelor,2022.2.4,60.039327554746585,
,,,,,,,,,,,,0,0,0,0,191,0,191,0,,,,,,,191,,,1,618.6743337335065,Y,d,go,None,0,,619.4749660727102,,,,,,,,,,,,,,,,,67,001,20,w,Psychologie,2023-01-25_10h30.36.443,00_bat_bachelor,2022.2.4,60.039327554746585,
,,,,,,,,,,,,0,0,0,0,192,0,192,0,,,,,,,192,,,1,620.4755100724287,X,l,go,l,1,0.18891550553962588,,,,,,,,,,,,,,,,,,67,001,20,w,Psychologie,2023-01-25_10h30.36.443,00_bat_bachelor,2022.2.4,60.039327554746585,
,,,,,,,,,,,,0,0,0,0,193,0,193,0,,,,,,,193,,,1,621.7761901691556,Y,d,go,d,1,0.29653193801641464,,,,,,,,,,,,,,,,,,67,001,20,w,Psychologie,2023-01-25_10h30.36.443,00_bat_bachelor,2022.2.4,60.039327554746585,
,,,,,,,,,,,,0,0,0,0,194,0,194,0,,,,,,,194,,,1,623.1771344596054,Y,None,nogo,None,1,,,,,,,,,,,,,,,,,,,67,001,20,w,Psychologie,2023-01-25_10h30.36.443,00_bat_bachelor,2022.2.4,60.039327554746585,
,,,,,,,,,,,,0,0,0,0,195,0,195,0,,,,,,,195,,,1,624.9787573434878,X,l,go,l,1,0.29543375689536333,,,,,,,,,,,,,,,,,,67,001,20,w,Psychologie,2023-01-25_10h30.36.443,00_bat_bachelor,2022.2.4,60.039327554746585,
,,,,,,,,,,,,0,0,0,0,196,0,196,0,,,,,,,196,,,1,626.3798771491274,Y,d,go,d,1,0.430756842950359,,,,,,,,,,,,,,,,,,67,001,20,w,Psychologie,2023-01-25_10h30.36.443,00_bat_bachelor,2022.2.4,60.039327554746585,
,,,,,,,,,,,,0,0,0,0,197,0,197,0,,,,,,,197,,,1,627.9143724050373,X,l,go,l,1,0.3507025786675513,,,,,,,,,,,,,,,,,,67,001,20,w,Psychologie,2023-01-25_10h30.36.443,00_bat_bachelor,2022.2.4,60.039327554746585,
,,,,,,,,,,,,0,0,0,0,198,0,198,0,,,,,,,198,,,1,629.3820444208104,Y,d,go,d,1,0.3868131064809859,,,,,,,,,,,,,,,,,,67,001,20,w,Psychologie,2023-01-25_10h30.36.443,00_bat_bachelor,2022.2.4,60.039327554746585,
,,,,,,,,,,,,0,0,0,0,199,0,199,0,,,,,,,199,,,1,630.8833789655473,Y,None,nogo,None,1,,,,,,,,,,,,,,,,,,,67,001,20,w,Psychologie,2023-01-25_10h30.36.443,00_bat_bachelor,2022.2.4,60.039327554746585,
,,,,,,,,,,,,0,0,0,0,200,0,200,0,,,,,,,200,,,1,632.684548516525,X,l,go,l,1,0.23634772491641343,,,,,,,,,,,,,,,,,,67,001,20,w,Psychologie,2023-01-25_10h30.36.443,00_bat_bachelor,2022.2.4,60.039327554746585,
,,,,,,,,,,,,0,0,0,0,201,0,201,0,,,,,,,201,,,1,634.0357716190629,Y,d,go,d,1,0.5338084292598069,,,,,,,,,,,,,,,,,,67,001,20,w,Psychologie,2023-01-25_10h30.36.443,00_bat_bachelor,2022.2.4,60.039327554746585,
,,,,,,,,,,,,0,0,0,0,202,0,202,0,,,,,,,202,,,1,635.670225614449,X,l,go,l,1,0.37067493237555027,,,,,,,,,,,,,,,,,,67,001,20,w,Psychologie,2023-01-25_10h30.36.443,00_bat_bachelor,2022.2.4,60.039327554746585,
,,,,,,,,,,,,0,0,0,0,203,0,203,0,,,,,,,203,,,1,637.1545948339626,X,None,nogo,None,1,,,,,,,,,,,,,,,,,,,67,001,20,w,Psychologie,2023-01-25_10h30.36.443,00_bat_bachelor,2022.2.4,60.039327554746585,
,,,,,,,,,,,,0,0,0,0,204,0,204,0,,,,,,,204,,,1,638.9560960212257,X,None,nogo,l,0,0.3824756541289389,,,,,,,,,,,,,,,,,,67,001,20,w,Psychologie,2023-01-25_10h30.36.443,00_bat_bachelor,2022.2.4,60.039327554746585,
,,,,,,,,,,,,0,0,0,0,205,0,205,0,,,,,,,205,,,1,640.4405302105006,Y,d,go,None,0,,641.2412197617814,,,,,,,,,,,,,,,,,67,001,20,w,Psychologie,2023-01-25_10h30.36.443,00_bat_bachelor,2022.2.4,60.039327554746585,
,,,,,,,,,,,,0,0,0,0,206,0,206,0,,,,,,,206,,,1,642.2419208523352,X,l,go,l,1,0.45592967909760773,,,,,,,,,,,,,,,,,,67,001,20,w,Psychologie,2023-01-25_10h30.36.443,00_bat_bachelor,2022.2.4,60.039327554746585,
,,,,,,,,,,,,0,0,0,0,207,0,207,0,,,,,,,207,,,1,643.8100374252535,X,None,nogo,None,1,,,,,,,,,,,,,,,,,,,67,001,20,w,Psychologie,2023-01-25_10h30.36.443,00_bat_bachelor,2022.2.4,60.039327554746585,
,,,,,,,,,,,,0,0,0,0,208,0,208,0,,,,,,,208,,,1,645.6109349764884,Y,d,go,d,1,0.4144455778878182,,,,,,,,,,,,,,,,,,67,001,20,w,Psychologie,2023-01-25_10h30.36.443,00_bat_bachelor,2022.2.4,60.039327554746585,
,,,,,,,,,,,,0,0,0,0,209,0,209,0,,,,,,,209,,,1,647.1288363011554,X,l,go,l,1,0.4319781754165888,,,,,,,,,,,,,,,,,,67,001,20,w,Psychologie,2023-01-25_10h30.36.443,00_bat_bachelor,2022.2.4,60.039327554746585,
,,,,,,,,,,,,0,0,0,0,210,0,210,0,,,,,,,210,,,1,648.6635284055956,Y,d,go,d,1,0.5301546128466725,,,,,,,,,,,,,,,,,,67,001,20,w,Psychologie,2023-01-25_10h30.36.443,00_bat_bachelor,2022.2.4,60.039327554746585,
,,,,,,,,,,,,0,0,0,0,211,0,211,0,,,,,,,211,,,1,650.2983096735552,Y,None,nogo,None,1,,,,,,,,,,,,,,,,,,,67,001,20,w,Psychologie,2023-01-25_10h30.36.443,00_bat_bachelor,2022.2.4,60.039327554746585,
,,,,,,,,,,,,0,0,0,0,212,0,212,0,,,,,,,212,,,1,652.0996406788472,X,l,go,l,1,0.4688465213403106,,,,,,,,,,,,,,,,,,67,001,20,w,Psychologie,2023-01-25_10h30.36.443,00_bat_bachelor,2022.2.4,60.039327554746585,
,,,,,,,,,,,,0,0,0,0,213,0,213,0,,,,,,,213,,,1,653.7007792964578,Y,d,go,d,1,0.38876219652593136,,,,,,,,,,,,,,,,,,67,001,20,w,Psychologie,2023-01-25_10h30.36.443,00_bat_bachelor,2022.2.4,60.039327554746585,
,,,,,,,,,,,,0,0,0,0,214,0,214,0,,,,,,,214,,,1,655.202003295999,X,l,go,l,1,0.3602283922955394,,,,,,,,,,,,,,,,,,67,001,20,w,Psychologie,2023-01-25_10h30.36.443,00_bat_bachelor,2022.2.4,60.039327554746585,
,,,,,,,,,,,,0,0,0,0,215,0,215,0,,,,,,,215,,,1,656.6693950693589,X,None,nogo,None,1,,657.470273711253,,,,,,,,,,,,,,,,,67,001,20,w,Psychologie,2023-01-25_10h30.36.443,00_bat_bachelor,2022.2.4,60.039327554746585,
,,,,,,,,,,,,0,0,0,0,216,0,216,0,,,,,,,216,,,1,658.4709990443662,Y,d,go,d,1,0.3375544638838619,,,,,,,,,,,,,,,,,,67,001,20,w,Psychologie,2023-01-25_10h30.36.443,00_bat_bachelor,2022.2.4,60.039327554746585,
,,,,,,,,,,,,0,0,0,0,217,0,217,0,,,,,,,217,,,1,659.9219040377066,X,l,go,l,1,0.32827252871356905,,,,,,,,,,,,,,,,,,67,001,20,w,Psychologie,2023-01-25_10h30.36.443,00_bat_bachelor,2022.2.4,60.039327554746585,
,,,,,,,,,,,,0,0,0,0,218,0,218,0,,,,,,,218,,,1,661.3564967967104,X,None,nogo,l,0,0.4296649645548314,,,,,,,,,,,,,,,,,,67,001,20,w,Psychologie,2023-01-25_10h30.36.443,00_bat_bachelor,2022.2.4,60.039327554746585,
,,,,,,,,,,,,0,0,0,0,219,0,219,0,,,,,,,219,,,1,662.8915767797735,Y,d,go,d,1,0.4612518581561744,,,,,,,,,,,,,,,,,,67,001,20,w,Psychologie,2023-01-25_10h30.36.443,00_bat_bachelor,2022.2.4,60.039327554746585,
,,,,,,,,,,,,0,0,0,0,220,0,220,0,,,,,,,220,,,1,664.4596589286812,X,l,go,l,1,0.31724368571303785,,,,,,,,,,,,,,,,,,67,001,20,w,Psychologie,2023-01-25_10h30.36.443,00_bat_bachelor,2022.2.4,60.039327554746585,
,,,,,,,,,,,,0,0,0,0,221,0,221,0,,,,,,,221,,,1,665.8941251421347,X,None,nogo,None,1,,666.6944496026263,,,,,,,,,,,,,,,,,67,001,20,w,Psychologie,2023-01-25_10h30.36.443,00_bat_bachelor,2022.2.4,60.039327554746585,
,,,,,,,,,,,,0,0,0,0,222,0,222,0,,,,,,,222,,,1,667.695436268812,Y,d,go,d,1,0.3936169818043709,,,,,,,,,,,,,,,,,,67,001,20,w,Psychologie,2023-01-25_10h30.36.443,00_bat_bachelor,2022.2.4,60.039327554746585,
,,,,,,,,,,,,0,0,0,0,223,0,223,0,,,,,,,223,,,1,669.2131805026438,X,l,go,l,1,0.41233648802153766,,,,,,,,,,,,,,,,,,67,001,20,w,Psychologie,2023-01-25_10h30.36.443,00_bat_bachelor,2022.2.4,60.039327554746585,
,,,,,,,,,,,,0,0,0,0,224,0,224,0,,,,,,,224,,,1,670.7311540697701,Y,d,go,d,1,0.3180999276228249,,,,,,,,,,,,,,,,,,67,001,20,w,Psychologie,2023-01-25_10h30.36.443,00_bat_bachelor,2022.2.4,60.039327554746585,
,,,,,,,,,,,,0,0,0,0,225,0,225,0,,,,,,,225,,,1,672.1822452449705,X,l,go,None,0,,672.982304493431,,,,,,,,,,,,,,,,,67,001,20,w,Psychologie,2023-01-25_10h30.36.443,00_bat_bachelor,2022.2.4,60.039327554746585,
,,,,,,,,,,,,0,0,0,0,226,0,226,0,,,,,,,226,,,1,673.9830647353083,Y,d,go,d,1,0.3787200194783509,,,,,,,,,,,,,,,,,,67,001,20,w,Psychologie,2023-01-25_10h30.36.443,00_bat_bachelor,2022.2.4,60.039327554746585,
,,,,,,,,,,,,0,0,0,0,227,0,227,0,,,,,,,227,,,1,675.4672831674106,X,l,go,l,1,0.38204365433193743,,,,,,,,,,,,,,,,,,67,001,20,w,Psychologie,2023-01-25_10h30.36.443,00_bat_bachelor,2022.2.4,60.039327554746585,
,,,,,,,,,,,,0,0,0,0,228,0,228,0,,,,,,,228,,,1,676.9516654778272,X,None,nogo,None,1,,677.7522905443329,,,,,,,,,,,,,,,,,67,001,20,w,Psychologie,2023-01-25_10h30.36.443,00_bat_bachelor,2022.2.4,60.039327554746585,
,,,,,,,,,,,,0,0,0,0,229,0,229,0,,,,,,,229,,,1,678.7530939378776,Y,d,go,d,1,0.2161906436085701,,,,,,,,,,,,,,,,,,67,001,20,w,Psychologie,2023-01-25_10h30.36.443,00_bat_bachelor,2022.2.4,60.039327554746585,
,,,,,,,,,,,,0,0,0,0,230,0,230,0,,,,,,,230,,,1,680.0713012986816,X,l,go,l,1,0.5950394296087325,,,,,,,,,,,,,,,,,,67,001,20,w,Psychologie,2023-01-25_10h30.36.443,00_bat_bachelor,2022.2.4,60.039327554746585,
,,,,,,,,,,,,0,0,0,0,231,0,231,0,,,,,,,231,,,1,681.7719079894014,X,None,nogo,None,1,,,,,,,,,,,,,,,,,,,67,001,20,w,Psychologie,2023-01-25_10h30.36.443,00_bat_bachelor,2022.2.4,60.039327554746585,
,,,,,,,,,,,,0,0,0,0,232,0,232,0,,,,,,,232,,,1,683.5734998430125,Y,d,go,d,1,0.3877076515927911,,,,,,,,,,,,,,,,,,67,001,20,w,Psychologie,2023-01-25_10h30.36.443,00_bat_bachelor,2022.2.4,60.039327554746585,
,,,,,,,,,,,,0,0,0,0,233,0,233,0,,,,,,,233,,,1,685.0745866303332,X,l,go,l,1,0.3744751731865108,,,,,,,,,,,,,,,,,,67,001,20,w,Psychologie,2023-01-25_10h30.36.443,00_bat_bachelor,2022.2.4,60.039327554746585,
,,,,,,,,,,,,0,0,0,0,234,0,234,0,,,,,,,234,,,1,686.5590935470536,X,None,nogo,None,1,,687.3595343711786,,,,,,,,,,,,,,,,,67,001,20,w,Psychologie,2023-01-25_10h30.36.443,00_bat_bachelor,2022.2.4,60.039327554746585,
,,,,,,,,,,,,0,0,0,0,235,0,235,0,,,,,,,235,,,1,688.3604395827278,Y,d,go,None,0,,,,,,,,,,,,,,,,,,,67,001,20,w,Psychologie,2023-01-25_10h30.36.443,00_bat_bachelor,2022.2.4,60.039327554746585,
,,,,,,,,,,,,0,0,0,0,236,0,236,0,,,,,,,236,,,1,690.1618981033098,X,l,go,l,1,0.4401207168120891,,,,,,,,,,,,,,,,,,67,001,20,w,Psychologie,2023-01-25_10h30.36.443,00_bat_bachelor,2022.2.4,60.039327554746585,
,,,,,,,,,,,,0,0,0,0,237,0,237,0,,,,,,,237,,,1,691.7129417147953,Y,d,go,d,1,0.47261573164723814,,,,,,,,,,,,,,,,,,67,001,20,w,Psychologie,2023-01-25_10h30.36.443,00_bat_bachelor,2022.2.4,60.039327554746585,
,,,,,,,,,,,,0,0,0,0,238,0,238,0,,,,,,,238,,,1,693.2975184011739,X,l,go,l,1,0.2799510976765305,,,,,,,,,,,,,,,,,,67,001,20,w,Psychologie,2023-01-25_10h30.36.443,00_bat_bachelor,2022.2.4,60.039327554746585,
,,,,,,,,,,,,0,0,0,0,239,0,239,0,,,,,,,239,,,1,694.6816782148089,Y,d,go,d,1,0.3667704495601356,,,,,,,,,,,,,,,,,,67,001,20,w,Psychologie,2023-01-25_10h30.36.443,00_bat_bachelor,2022.2.4,60.039327554746585,
,,,,,,,,,,,,0,0,0,0,240,0,240,0,,,,,,,240,,,1,696.1497541090939,X,l,go,l,1,0.4041013403329998,,,,,,,,,,,,,,,,,,67,001,20,w,Psychologie,2023-01-25_10h30.36.443,00_bat_bachelor,2022.2.4,60.039327554746585,
,,,,,,,,,,,,0,0,0,0,241,0,241,0,,,,,,,241,,,1,697.6676476763096,X,None,nogo,None,1,,,,,,,,,,,,,,,,,,,67,001,20,w,Psychologie,2023-01-25_10h30.36.443,00_bat_bachelor,2022.2.4,60.039327554746585,
,,,,,,,,,,,,0,0,0,0,242,0,242,0,,,,,,,242,,,1,699.4689442573581,Y,d,go,d,1,0.477323608007282,,,,,,,,,,,,,,,,,,67,001,20,w,Psychologie,2023-01-25_10h30.36.443,00_bat_bachelor,2022.2.4,60.039327554746585,
,,,,,,,,,,,,0,0,0,0,243,0,243,0,,,,,,,243,,,1,701.0532266406808,X,l,go,l,1,0.3811369880568236,,,,,,,,,,,,,,,,,,67,001,20,w,Psychologie,2023-01-25_10h30.36.443,00_bat_bachelor,2022.2.4,60.039327554746585,
,,,,,,,,,,,,0,0,0,0,244,0,244,0,,,,,,,244,,,1,702.5380341634154,Y,d,go,d,1,0.33496876806020737,,,,,,,,,,,,,,,,,,67,001,20,w,Psychologie,2023-01-25_10h30.36.443,00_bat_bachelor,2022.2.4,60.039327554746585,
,,,,,,,,,,,,0,0,0,0,245,0,245,0,,,,,,,245,,,1,703.9887524901424,X,l,go,l,1,0.34021434118039906,,,,,,,,,,,,,,,,,,67,001,20,w,Psychologie,2023-01-25_10h30.36.443,00_bat_bachelor,2022.2.4,60.039327554746585,
,,,,,,,,,,,,0,0,0,0,246,0,246,0,,,,,,,246,,,1,705.4402068168856,Y,d,go,d,1,0.29833460389636457,,,,,,,,,,,,,,,,,,67,001,20,w,Psychologie,2023-01-25_10h30.36.443,00_bat_bachelor,2022.2.4,60.039327554746585,
,,,,,,,,,,,,0,0,0,0,247,0,247,0,,,,,,,247,,,1,706.8412955920212,Y,None,nogo,None,1,,,,,,,,,,,,,,,,,,,67,001,20,w,Psychologie,2023-01-25_10h30.36.443,00_bat_bachelor,2022.2.4,60.039327554746585,
,,,,,,,,,,,,0,0,0,0,248,0,248,0,,,,,,,248,,,1,708.642292537028,X,l,go,l,1,0.27966455230489373,,,,,,,,,,,,,,,,,,67,001,20,w,Psychologie,2023-01-25_10h30.36.443,00_bat_bachelor,2022.2.4,60.039327554746585,
,,,,,,,,,,,,0,0,0,0,249,0,249,0,,,,,,,249,,,1,710.0270288353786,Y,d,go,d,1,0.3187971394509077,,,,,,,,,,,,,,,,,,67,001,20,w,Psychologie,2023-01-25_10h30.36.443,00_bat_bachelor,2022.2.4,60.039327554746585,
,,,,,,,,,,,,1,0,1,0,0,0,0,0,,,,,,,0,,,0.2,723.3708366686478,X,l,go,None,0,,724.1714699773584,,,,,,,,710.4662000162061,space,12.683127629337832,,,,,,,67,001,20,w,Psychologie,2023-01-25_10h30.36.443,00_bat_bachelor,2022.2.4,60.039327554746585,
,,,,,,,,,,,,1,0,1,0,1,0,1,0,,,,,,,1,,,0.2,724.3714776379056,Y,d,go,d,1,0.5985414886381477,,,,,,,,,,,,,,,,,,67,001,20,w,Psychologie,2023-01-25_10h30.36.443,00_bat_bachelor,2022.2.4,60.039327554746585,
,,,,,,,,,,,,1,0,1,0,2,0,2,0,,,,,,,2,,,0.2,725.2723213224672,X,l,go,l,1,0.6252789301797748,,,,,,,,,,,,,,,,,,67,001,20,w,Psychologie,2023-01-25_10h30.36.443,00_bat_bachelor,2022.2.4,60.039327554746585,
,,,,,,,,,,,,1,0,1,0,3,0,3,0,,,,,,,3,,,0.2,726.2065565057565,X,None,nogo,None,1,,727.0069629056379,,,,,,,,,,,,,,,,,67,001,20,w,Psychologie,2023-01-25_10h30.36.443,00_bat_bachelor,2022.2.4,60.039327554746585,
,,,,,,,,,,,,1,0,1,0,4,0,4,0,,,,,,,4,,,0.2,727.206922081532,Y,d,go,d,1,0.4815068789757788,,,,,,,,,,,,,,,,,,67,001,20,w,Psychologie,2023-01-25_10h30.36.443,00_bat_bachelor,2022.2.4,60.039327554746585,
,,,,,,,,,,,,1,0,1,0,5,0,5,0,,,,,,,5,,,0.2,727.991043883143,X,l,go,l,1,0.5312062485609204,,,,,,,,,,,,,,,,,,67,001,20,w,Psychologie,2023-01-25_10h30.36.443,00_bat_bachelor,2022.2.4,60.039327554746585,
,,,,,,,,,,,,1,0,1,0,6,0,6,0,,,,,,,6,,,0.2,728.8248660243116,Y,d,go,None,0,,729.6254542421084,,,,,,,,,,,,,,,,,67,001,20,w,Psychologie,2023-01-25_10h30.36.443,00_bat_bachelor,2022.2.4,60.039327554746585,
,,,,,,,,,,,,1,0,1,0,7,0,7,0,,,,,,,7,,,0.2,729.8255908724386,Y,None,nogo,None,1,,,,,,,,,,,,,,,,,,,67,001,20,w,Psychologie,2023-01-25_10h30.36.443,00_bat_bachelor,2022.2.4,60.039327554746585,
,,,,,,,,,,,,1,0,1,0,8,0,8,0,,,,,,,8,,,0.2,730.8264063871466,X,l,go,l,1,0.4299199946690351,,,,,,,,,,,,,,,,,,67,001,20,w,Psychologie,2023-01-25_10h30.36.443,00_bat_bachelor,2022.2.4,60.039327554746585,
,,,,,,,,,,,,1,0,1,0,9,0,9,0,,,,,,,9,,,0.2,731.5769335383084,Y,d,go,d,1,0.6399252261035144,,,,,,,,,,,,,,,,,,67,001,20,w,Psychologie,2023-01-25_10h30.36.443,00_bat_bachelor,2022.2.4,60.039327554746585,
,,,,,,,,,,,,1,0,1,0,10,0,10,0,,,,,,,10,,,0.2,732.5275813199114,X,l,go,l,1,0.4418525949586183,,,,,,,,,,,,,,,,,,67,001,20,w,Psychologie,2023-01-25_10h30.36.443,00_bat_bachelor,2022.2.4,60.039327554746585,
,,,,,,,,,,,,1,0,1,0,11,0,11,0,,,,,,,11,,,0.2,733.2781981681474,Y,d,go,d,1,0.5399500019848347,,,,,,,,,,,,,,,,,,67,001,20,w,Psychologie,2023-01-25_10h30.36.443,00_bat_bachelor,2022.2.4,60.039327554746585,
,,,,,,,,,,,,1,0,1,0,12,0,12,0,,,,,,,12,,,0.2,734.1288731496315,X,l,go,l,1,0.6005778512917459,,,,,,,,,,,,,,,,,,67,001,20,w,Psychologie,2023-01-25_10h30.36.443,00_bat_bachelor,2022.2.4,60.039327554746585,
,,,,,,,,,,,,1,0,1,0,13,0,13,0,,,,,,,13,,,0.2,735.0295592583716,Y,d,go,d,1,0.38796171196736395,,,,,,,,,,,,,,,,,,67,001,20,w,Psychologie,2023-01-25_10h30.36.443,00_bat_bachelor,2022.2.4,60.039327554746585,
,,,,,,,,,,,,1,0,1,0,14,0,14,0,,,,,,,14,,,0.2,735.7298808582127,X,l,go,l,1,0.42275878600776196,,,,,,,,,,,,,,,,,,67,001,20,w,Psychologie,2023-01-25_10h30.36.443,00_bat_bachelor,2022.2.4,60.039327554746585,
,,,,,,,,,,,,1,0,1,0,15,0,15,0,,,,,,,15,,,0.2,736.4639905628283,Y,d,go,d,1,0.4904130562208593,,,,,,,,,,,,,,,,,,67,001,20,w,Psychologie,2023-01-25_10h30.36.443,00_bat_bachelor,2022.2.4,60.039327554746585,
,,,,,,,,,,,,1,0,1,0,16,0,16,0,,,,,,,16,,,0.2,737.264501204947,Y,None,nogo,None,1,,,,,,,,,,,,,,,,,,,67,001,20,w,Psychologie,2023-01-25_10h30.36.443,00_bat_bachelor,2022.2.4,60.039327554746585,
,,,,,,,,,,,,1,0,1,0,17,0,17,0,,,,,,,17,,,0.2,738.2653336895164,X,l,go,l,1,0.480517303571105,,,,,,,,,,,,,,,,,,67,001,20,w,Psychologie,2023-01-25_10h30.36.443,00_bat_bachelor,2022.2.4,60.039327554746585,
,,,,,,,,,,,,1,0,1,0,18,0,18,0,,,,,,,18,,,0.2,739.0492227638606,Y,d,go,d,1,0.6085773627273738,,,,,,,,,,,,,,,,,,67,001,20,w,Psychologie,2023-01-25_10h30.36.443,00_bat_bachelor,2022.2.4,60.039327554746585,
,,,,,,,,,,,,1,0,1,0,19,0,19,0,,,,,,,19,,,0.2,739.9666118950117,Y,None,nogo,None,1,,740.7672932036221,,,,,,,,,,,,,,,,,67,001,20,w,Psychologie,2023-01-25_10h30.36.443,00_bat_bachelor,2022.2.4,60.039327554746585,
,,,,,,,,,,,,1,0,1,0,20,0,20,0,,,,,,,20,,,0.2,740.9672232884914,X,l,go,l,1,0.4496625305619091,,,,,,,,,,,,,,,,,,67,001,20,w,Psychologie,2023-01-25_10h30.36.443,00_bat_bachelor,2022.2.4,60.039327554746585,
,,,,,,,,,,,,1,0,1,0,21,0,21,0,,,,,,,21,,,0.2,741.7179356517736,Y,d,go,d,1,0.6270806263200939,,,,,,,,,,,,,,,,,,67,001,20,w,Psychologie,2023-01-25_10h30.36.443,00_bat_bachelor,2022.2.4,60.039327554746585,
,,,,,,,,,,,,1,0,1,0,22,0,22,0,,,,,,,22,,,0.2,742.6520326535683,Y,None,nogo,None,1,,743.4526039017364,,,,,,,,,,,,,,,,,67,001,20,w,Psychologie,2023-01-25_10h30.36.443,00_bat_bachelor,2022.2.4,60.039327554746585,
,,,,,,,,,,,,1,0,1,0,23,0,23,0,,,,,,,23,,,0.2,743.6525936229154,X,l,go,l,1,0.3571961510460824,,,,,,,,,,,,,,,,,,67,001,20,w,Psychologie,2023-01-25_10h30.36.443,00_bat_bachelor,2022.2.4,60.039327554746585,
,,,,,,,,,,,,1,0,1,0,24,0,24,0,,,,,,,24,,,0.2,744.3198471176438,Y,d,go,None,0,,,,,,,,,,,,,,,,,,,67,001,20,w,Psychologie,2023-01-25_10h30.36.443,00_bat_bachelor,2022.2.4,60.039327554746585,
,,,,,,,,,,,,1,0,1,0,25,0,25,0,,,,,,,25,,,0.2,745.3205617838539,X,l,go,l,1,0.3359859795309603,,,,,,,,,,,,,,,,,,67,001,20,w,Psychologie,2023-01-25_10h30.36.443,00_bat_bachelor,2022.2.4,60.039327554746585,
,,,,,,,,,,,,1,0,1,0,26,0,26,0,,,,,,,26,,,0.2,745.9710244988091,X,None,nogo,l,0,0.6628449726849794,,,,,,,,,,,,,,,,,,67,001,20,w,Psychologie,2023-01-25_10h30.36.443,00_bat_bachelor,2022.2.4,60.039327554746585,
,,,,,,,,,,,,1,0,1,0,27,0,27,0,,,,,,,27,,,0.2,746.9385319084395,X,None,nogo,l,0,0.527316311141476,,,,,,,,,,,,,,,,,,67,001,20,w,Psychologie,2023-01-25_10h30.36.443,00_bat_bachelor,2022.2.4,60.039327554746585,
,,,,,,,,,,,,1,0,1,0,28,0,28,0,,,,,,,28,,,0.2,747.7725630193017,Y,d,go,d,1,0.47681354777887464,,,,,,,,,,,,,,,,,,67,001,20,w,Psychologie,2023-01-25_10h30.36.443,00_bat_bachelor,2022.2.4,60.039327554746585,
,,,,,,,,,,,,1,0,1,0,29,0,29,0,,,,,,,29,,,0.2,748.5565233663656,X,l,go,l,1,0.44502883590757847,,,,,,,,,,,,,,,,,,67,001,20,w,Psychologie,2023-01-25_10h30.36.443,00_bat_bachelor,2022.2.4,60.039327554746585,
,,,,,,,,,,,,1,0,1,0,30,0,30,0,,,,,,,30,,,0.2,749.3069283359218,Y,d,go,d,1,0.43025550968013704,,,,,,,,,,,,,,,,,,67,001,20,w,Psychologie,2023-01-25_10h30.36.443,00_bat_bachelor,2022.2.4,60.039327554746585,
,,,,,,,,,,,,1,0,1,0,31,0,31,0,,,,,,,31,,,0.2,750.0405493136495,Y,None,nogo,None,1,,,,,,,,,,,,,,,,,,,67,001,20,w,Psychologie,2023-01-25_10h30.36.443,00_bat_bachelor,2022.2.4,60.039327554746585,
,,,,,,,,,,,,1,0,1,0,32,0,32,0,,,,,,,32,,,0.2,751.0417914947029,X,l,go,l,1,0.23186239367350936,,,,,,,,,,,,,,,,,,67,001,20,w,Psychologie,2023-01-25_10h30.36.443,00_bat_bachelor,2022.2.4,60.039327554746585,
,,,,,,,,,,,,1,0,1,0,33,0,33,0,,,,,,,33,,,0.2,751.5753829937894,Y,d,go,d,1,0.4659287044778466,,,,,,,,,,,,,,,,,,67,001,20,w,Psychologie,2023-01-25_10h30.36.443,00_bat_bachelor,2022.2.4,60.039327554746585,
,,,,,,,,,,,,1,0,1,0,34,0,34,0,,,,,,,34,,,0.2,752.3425137733575,Y,None,nogo,None,1,,753.1431102335919,,,,,,,,,,,,,,,,,67,001,20,w,Psychologie,2023-01-25_10h30.36.443,00_bat_bachelor,2022.2.4,60.039327554746585,
,,,,,,,,,,,,1,0,1,0,35,0,35,0,,,,,,,35,,,0.2,753.3433016517665,X,l,go,l,1,0.2820548543240875,,,,,,,,,,,,,,,,,,67,001,20,w,Psychologie,2023-01-25_10h30.36.443,00_bat_bachelor,2022.2.4,60.039327554746585,
,,,,,,,,,,,,1,0,1,0,36,0,36,0,,,,,,,36,,,0.2,753.926871792879,Y,d,go,d,1,0.6273099596146494,,,,,,,,,,,,,,,,,,67,001,20,w,Psychologie,2023-01-25_10h30.36.443,00_bat_bachelor,2022.2.4,60.039327554746585,
,,,,,,,,,,,,1,0,1,0,37,0,37,0,,,,,,,37,,,0.2,754.860890249256,X,l,go,l,1,0.4119398819748312,,,,,,,,,,,,,,,,,,67,001,20,w,Psychologie,2023-01-25_10h30.36.443,00_bat_bachelor,2022.2.4,60.039327554746585,
,,,,,,,,,,,,1,0,1,0,38,0,38,0,,,,,,,38,,,0.2,755.5783042043913,Y,d,go,d,1,0.3663248741067946,,,,,,,,,,,,,,,,,,67,001,20,w,Psychologie,2023-01-25_10h30.36.443,00_bat_bachelor,2022.2.4,60.039327554746585,
,,,,,,,,,,,,1,0,1,0,39,0,39,0,,,,,,,39,,,0.2,756.2456391535234,Y,None,nogo,None,1,,,,,,,,,,,,,,,,,,,67,001,20,w,Psychologie,2023-01-25_10h30.36.443,00_bat_bachelor,2022.2.4,60.039327554746585,
,,,,,,,,,,,,1,0,1,0,40,0,40,0,,,,,,,40,,,0.2,757.2460730927996,X,l,go,l,1,0.5221807984635234,,,,,,,,,,,,,,,,,,67,001,20,w,Psychologie,2023-01-25_10h30.36.443,00_bat_bachelor,2022.2.4,60.039327554746585,
,,,,,,,,,,,,1,0,1,0,41,0,41,0,,,,,,,41,,,0.2,758.0801997187082,Y,d,go,d,1,0.4416508979629725,,,,,,,,,,,,,,,,,,67,001,20,w,Psychologie,2023-01-25_10h30.36.443,00_bat_bachelor,2022.2.4,60.039327554746585,
,,,,,,,,,,,,1,0,1,0,42,0,42,0,,,,,,,42,,,0.2,758.8307714760303,X,l,go,l,1,0.42758545046672225,,,,,,,,,,,,,,,,,,67,001,20,w,Psychologie,2023-01-25_10h30.36.443,00_bat_bachelor,2022.2.4,60.039327554746585,
,,,,,,,,,,,,1,0,1,0,43,0,43,0,,,,,,,43,,,0.2,759.5647939078044,X,None,nogo,None,1,,760.365374853136,,,,,,,,,,,,,,,,,67,001,20,w,Psychologie,2023-01-25_10h30.36.443,00_bat_bachelor,2022.2.4,60.039327554746585,
,,,,,,,,,,,,1,0,1,0,44,0,44,0,,,,,,,44,,,0.2,760.5655735440087,Y,d,go,d,1,0.5313992181327194,,,,,,,,,,,,,,,,,,67,001,20,w,Psychologie,2023-01-25_10h30.36.443,00_bat_bachelor,2022.2.4,60.039327554746585,
,,,,,,,,,,,,1,0,1,0,45,0,45,0,,,,,,,45,,,0.2,761.3994674426503,X,l,go,l,1,0.41800387925468385,,,,,,,,,,,,,,,,,,67,001,20,w,Psychologie,2023-01-25_10h30.36.443,00_bat_bachelor,2022.2.4,60.039327554746585,
,,,,,,,,,,,,1,0,1,0,46,0,46,0,,,,,,,46,,,0.2,762.1334738745354,X,None,nogo,l,0,0.5154108623974025,,,,,,,,,,,,,,,,,,67,001,20,w,Psychologie,2023-01-25_10h30.36.443,00_bat_bachelor,2022.2.4,60.039327554746585,
,,,,,,,,,,,,1,0,1,0,47,0,47,0,,,,,,,47,,,0.2,762.9504068118986,Y,d,go,d,1,0.45130034792236984,,,,,,,,,,,,,,,,,,67,001,20,w,Psychologie,2023-01-25_10h30.36.443,00_bat_bachelor,2022.2.4,60.039327554746585,
,,,,,,,,,,,,1,0,1,0,48,0,48,0,,,,,,,48,,,0.2,763.7178163791541,X,l,go,l,1,0.3871049853041768,,,,,,,,,,,,,,,,,,67,001,20,w,Psychologie,2023-01-25_10h30.36.443,00_bat_bachelor,2022.2.4,60.039327554746585,
,,,,,,,,,,,,1,0,1,0,49,0,49,0,,,,,,,49,,,0.2,764.4183697365224,Y,d,go,d,1,0.4549711341969669,,,,,,,,,,,,,,,,,,67,001,20,w,Psychologie,2023-01-25_10h30.36.443,00_bat_bachelor,2022.2.4,60.039327554746585,
,,,,,,,,,,,,1,0,1,0,50,0,50,0,,,,,,,50,,,0.2,765.1854282736313,Y,None,nogo,None,1,,,,,,,,,,,,,,,,,,,67,001,20,w,Psychologie,2023-01-25_10h30.36.443,00_bat_bachelor,2022.2.4,60.039327554746585,
,,,,,,,,,,,,1,0,1,0,51,0,51,0,,,,,,,51,,,0.2,766.1864551822655,X,l,go,l,1,0.3509949422441423,,,,,,,,,,,,,,,,,,67,001,20,w,Psychologie,2023-01-25_10h30.36.443,00_bat_bachelor,2022.2.4,60.039327554746585,
,,,,,,,,,,,,1,0,1,0,52,0,52,0,,,,,,,52,,,0.2,766.8536058890168,Y,d,go,d,1,0.30830647773109376,,,,,,,,,,,,,,,,,,67,001,20,w,Psychologie,2023-01-25_10h30.36.443,00_bat_bachelor,2022.2.4,60.039327554746585,
,,,,,,,,,,,,1,0,1,0,53,0,53,0,,,,,,,53,,,0.2,767.4708283776417,Y,None,nogo,None,1,,,,,,,,,,,,,,,,,,,67,001,20,w,Psychologie,2023-01-25_10h30.36.443,00_bat_bachelor,2022.2.4,60.039327554746585,
,,,,,,,,,,,,1,0,1,0,54,0,54,0,,,,,,,54,,,0.2,768.4715202562511,X,l,go,l,1,0.25884953211061656,,,,,,,,,,,,,,,,,,67,001,20,w,Psychologie,2023-01-25_10h30.36.443,00_bat_bachelor,2022.2.4,60.039327554746585,
,,,,,,,,,,,,1,0,1,0,55,0,55,0,,,,,,,55,,,0.2,769.0387481022626,Y,d,go,d,1,0.42714132950641215,,,,,,,,,,,,,,,,,,67,001,20,w,Psychologie,2023-01-25_10h30.36.443,00_bat_bachelor,2022.2.4,60.039327554746585,
,,,,,,,,,,,,1,0,1,0,56,0,56,0,,,,,,,56,,,0.2,769.7724510193802,Y,None,nogo,None,1,,,,,,,,,,,,,,,,,,,67,001,20,w,Psychologie,2023-01-25_10h30.36.443,00_bat_bachelor,2022.2.4,60.039327554746585,
,,,,,,,,,,,,1,0,1,0,57,0,57,0,,,,,,,57,,,0.2,770.7732772007585,X,l,go,l,1,0.3569129998795688,,,,,,,,,,,,,,,,,,67,001,20,w,Psychologie,2023-01-25_10h30.36.443,00_bat_bachelor,2022.2.4,60.039327554746585,
,,,,,,,,,,,,1,0,1,0,58,0,58,0,,,,,,,58,,,0.2,771.4402150593232,Y,d,go,None,0,,,,,,,,,,,,,,,,,,,67,001,20,w,Psychologie,2023-01-25_10h30.36.443,00_bat_bachelor,2022.2.4,60.039327554746585,
,,,,,,,,,,,,1,0,1,0,59,0,59,0,,,,,,,59,,,0.2,772.4413355435245,X,l,go,l,1,0.5452833326999098,,,,,,,,,,,,,,,,,,67,001,20,w,Psychologie,2023-01-25_10h30.36.443,00_bat_bachelor,2022.2.4,60.039327554746585,
,,,,,,,,,,,,1,0,1,0,60,0,60,0,,,,,,,60,,,0.2,773.2918214341626,X,None,nogo,None,1,,774.0922598340549,,,,,,,,,,,,,,,,,67,001,20,w,Psychologie,2023-01-25_10h30.36.443,00_bat_bachelor,2022.2.4,60.039327554746585,
,,,,,,,,,,,,1,0,1,0,61,0,61,0,,,,,,,61,,,0.2,774.2925690701231,Y,d,go,d,1,0.30909338663332164,,,,,,,,,,,,,,,,,,67,001,20,w,Psychologie,2023-01-25_10h30.36.443,00_bat_bachelor,2022.2.4,60.039327554746585,
,,,,,,,,,,,,1,0,1,0,62,0,62,0,,,,,,,62,,,0.2,774.9097338619176,X,l,go,l,1,0.3646623292006552,,,,,,,,,,,,,,,,,,67,001,20,w,Psychologie,2023-01-25_10h30.36.443,00_bat_bachelor,2022.2.4,60.039327554746585,
,,,,,,,,,,,,1,0,1,0,63,0,63,0,,,,,,,63,,,0.2,775.5768811746966,Y,d,go,d,1,0.6407897106837481,,,,,,,,,,,,,,,,,,67,001,20,w,Psychologie,2023-01-25_10h30.36.443,00_bat_bachelor,2022.2.4,60.039327554746585,
,,,,,,,,,,,,1,0,1,0,64,0,64,0,,,,,,,64,,,0.2,776.5274470169097,X,l,go,l,1,0.4105187919922173,,,,,,,,,,,,,,,,,,67,001,20,w,Psychologie,2023-01-25_10h30.36.443,00_bat_bachelor,2022.2.4,60.039327554746585,
,,,,,,,,,,,,1,0,1,0,65,0,65,0,,,,,,,65,,,0.2,777.2448090934195,X,None,nogo,None,1,,,,,,,,,,,,,,,,,,,67,001,20,w,Psychologie,2023-01-25_10h30.36.443,00_bat_bachelor,2022.2.4,60.039327554746585,
,,,,,,,,,,,,1,0,1,0,66,0,66,0,,,,,,,66,,,0.2,778.2455809717067,Y,d,go,None,0,,,,,,,,,,,,,,,,,,,67,001,20,w,Psychologie,2023-01-25_10h30.36.443,00_bat_bachelor,2022.2.4,60.039327554746585,
,,,,,,,,,,,,1,0,1,0,67,0,67,0,,,,,,,67,,,0.2,779.2463606076781,X,l,go,l,1,0.3633440269622952,,,,,,,,,,,,,,,,,,67,001,20,w,Psychologie,2023-01-25_10h30.36.443,00_bat_bachelor,2022.2.4,60.039327554746585,
,,,,,,,,,,,,1,0,1,0,68,0,68,0,,,,,,,68,,,0.2,779.9135355569888,X,None,nogo,None,1,,,,,,,,,,,,,,,,,,,67,001,20,w,Psychologie,2023-01-25_10h30.36.443,00_bat_bachelor,2022.2.4,60.039327554746585,
,,,,,,,,,,,,1,0,1,0,69,0,69,0,,,,,,,69,,,0.2,780.9143137384672,Y,d,go,None,0,,781.714736622991,,,,,,,,,,,,,,,,,67,001,20,w,Psychologie,2023-01-25_10h30.36.443,00_bat_bachelor,2022.2.4,60.039327554746585,
,,,,,,,,,,,,1,0,1,0,70,0,70,0,,,,,,,70,,,0.2,781.915085132001,X,l,go,l,1,0.28643885208293796,,,,,,,,,,,,,,,,,,67,001,20,w,Psychologie,2023-01-25_10h30.36.443,00_bat_bachelor,2022.2.4,60.039327554746585,
,,,,,,,,,,,,1,0,1,0,71,0,71,0,,,,,,,71,,,0.2,782.5152157500852,Y,d,go,d,1,0.3250463486183435,,,,,,,,,,,,,,,,,,67,001,20,w,Psychologie,2023-01-25_10h30.36.443,00_bat_bachelor,2022.2.4,60.039327554746585,
,,,,,,,,,,,,1,0,1,0,72,0,72,0,,,,,,,72,,,0.2,783.1491015034262,X,l,go,l,1,0.397062313510105,,,,,,,,,,,,,,,,,,67,001,20,w,Psychologie,2023-01-25_10h30.36.443,00_bat_bachelor,2022.2.4,60.039327554746585,
,,,,,,,,,,,,1,0,1,0,73,0,73,0,,,,,,,73,,,0.2,783.849620436551,X,None,nogo,None,1,,784.6504093816038,,,,,,,,,,,,,,,,,67,001,20,w,Psychologie,2023-01-25_10h30.36.443,00_bat_bachelor,2022.2.4,60.039327554746585,
,,,,,,,,,,,,1,0,1,0,74,0,74,0,,,,,,,74,,,0.2,784.8506875874009,Y,d,go,l,0,0.22983087948523462,,,,,,,,,,,,,,,,,,67,001,20,w,Psychologie,2023-01-25_10h30.36.443,00_bat_bachelor,2022.2.4,60.039327554746585,
,,,,,,,,,,,,1,0,1,0,75,0,75,0,,,,,,,75,,,0.2,785.3843673288357,X,l,go,None,0,,,,,,,,,,,,,,,,,,,67,001,20,w,Psychologie,2023-01-25_10h30.36.443,00_bat_bachelor,2022.2.4,60.039327554746585,
,,,,,,,,,,,,1,0,1,0,76,0,76,0,,,,,,,76,,,0.2,786.3849215102382,X,None,nogo,l,0,0.47234179242514074,,,,,,,,,,,,,,,,,,67,001,20,w,Psychologie,2023-01-25_10h30.36.443,00_bat_bachelor,2022.2.4,60.039327554746585,
,,,,,,,,,,,,1,0,1,0,77,0,77,0,,,,,,,77,,,0.2,787.1691024634056,Y,d,go,None,0,,,,,,,,,,,,,,,,,,,67,001,20,w,Psychologie,2023-01-25_10h30.36.443,00_bat_bachelor,2022.2.4,60.039327554746585,
,,,,,,,,,,,,1,0,1,0,78,0,78,0,,,,,,,78,,,0.2,788.1697860993445,X,l,go,l,1,0.6076697267126292,,,,,,,,,,,,,,,,,,67,001,20,w,Psychologie,2023-01-25_10h30.36.443,00_bat_bachelor,2022.2.4,60.039327554746585,
,,,,,,,,,,,,1,0,1,0,79,0,79,0,,,,,,,79,,,0.2,789.0873817757238,X,None,nogo,None,1,,,,,,,,,,,,,,,,,,,67,001,20,w,Psychologie,2023-01-25_10h30.36.443,00_bat_bachelor,2022.2.4,60.039327554746585,
,,,,,,,,,,,,1,0,1,0,80,0,80,0,,,,,,,80,,,0.2,790.0879771693144,Y,d,go,d,1,0.38551128888502717,,,,,,,,,,,,,,,,,,67,001,20,w,Psychologie,2023-01-25_10h30.36.443,00_bat_bachelor,2022.2.4,60.039327554746585,
,,,,,,,,,,,,1,0,1,0,81,0,81,0,,,,,,,81,,,0.2,790.7884936782066,X,l,go,l,1,0.3085644170641899,,,,,,,,,,,,,,,,,,67,001,20,w,Psychologie,2023-01-25_10h30.36.443,00_bat_bachelor,2022.2.4,60.039327554746585,
,,,,,,,,,,,,1,0,1,0,82,0,82,0,,,,,,,82,,,0.2,791.4052875610068,Y,d,go,d,1,0.29966890648938715,,,,,,,,,,,,,,,,,,67,001,20,w,Psychologie,2023-01-25_10h30.36.443,00_bat_bachelor,2022.2.4,60.039327554746585,
,,,,,,,,,,,,1,0,1,0,83,0,83,0,,,,,,,83,,,0.2,792.005693573039,Y,None,nogo,None,1,,,,,,,,,,,,,,,,,,,67,001,20,w,Psychologie,2023-01-25_10h30.36.443,00_bat_bachelor,2022.2.4,60.039327554746585,
,,,,,,,,,,,,1,0,1,0,84,0,84,0,,,,,,,84,,,0.2,793.0066293301061,X,l,go,l,1,0.250164445489645,,,,,,,,,,,,,,,,,,67,001,20,w,Psychologie,2023-01-25_10h30.36.443,00_bat_bachelor,2022.2.4,60.039327554746585,
,,,,,,,,,,,,1,0,1,0,85,0,85,0,,,,,,,85,,,0.2,793.5575754870661,Y,d,go,d,1,0.40366740128956735,,,,,,,,,,,,,,,,,,67,001,20,w,Psychologie,2023-01-25_10h30.36.443,00_bat_bachelor,2022.2.4,60.039327554746585,
,,,,,,,,,,,,1,0,1,0,86,0,86,0,,,,,,,86,,,0.2,794.2745807152241,X,l,go,l,1,0.43857405125163496,,,,,,,,,,,,,,,,,,67,001,20,w,Psychologie,2023-01-25_10h30.36.443,00_bat_bachelor,2022.2.4,60.039327554746585,
,,,,,,,,,,,,1,0,1,0,87,0,87,0,,,,,,,87,,,0.2,795.0252678664401,Y,d,go,d,1,0.4083709141705185,,,,,,,,,,,,,,,,,,67,001,20,w,Psychologie,2023-01-25_10h30.36.443,00_bat_bachelor,2022.2.4,60.039327554746585,
,,,,,,,,,,,,1,0,1,0,88,0,88,0,,,,,,,88,,,0.2,795.7423850945197,X,l,go,l,1,0.3638443904928863,,,,,,,,,,,,,,,,,,67,001,20,w,Psychologie,2023-01-25_10h30.36.443,00_bat_bachelor,2022.2.4,60.039327554746585,
,,,,,,,,,,,,1,0,1,0,89,0,89,0,,,,,,,89,,,0.2,796.4096051347442,Y,d,go,d,1,0.4471660468261689,,,,,,,,,,,,,,,,,,67,001,20,w,Psychologie,2023-01-25_10h30.36.443,00_bat_bachelor,2022.2.4,60.039327554746585,
,,,,,,,,,,,,1,0,1,0,90,0,90,0,,,,,,,90,,,0.2,797.1599839222617,Y,None,nogo,None,1,,797.9607631703839,,,,,,,,,,,,,,,,,67,001,20,w,Psychologie,2023-01-25_10h30.36.443,00_bat_bachelor,2022.2.4,60.039327554746585,
,,,,,,,,,,,,1,0,1,0,91,0,91,0,,,,,,,91,,,0.2,798.1608081643935,X,l,go,l,1,0.3918943163007498,,,,,,,,,,,,,,,,,,67,001,20,w,Psychologie,2023-01-25_10h30.36.443,00_bat_bachelor,2022.2.4,60.039327554746585,
,,,,,,,,,,,,1,0,1,0,92,0,92,0,,,,,,,92,,,0.2,798.8610953399912,Y,d,go,d,1,0.36386814806610346,,,,,,,,,,,,,,,,,,67,001,20,w,Psychologie,2023-01-25_10h30.36.443,00_bat_bachelor,2022.2.4,60.039327554746585,
,,,,,,,,,,,,1,0,1,0,93,0,93,0,,,,,,,93,,,0.2,799.5282824104652,Y,None,nogo,None,1,,,,,,,,,,,,,,,,,,,67,001,20,w,Psychologie,2023-01-25_10h30.36.443,00_bat_bachelor,2022.2.4,60.039327554746585,
,,,,,,,,,,,,1,0,1,0,94,0,94,0,,,,,,,94,,,0.2,800.529195864452,X,l,go,l,1,0.2967428471893072,,,,,,,,,,,,,,,,,,67,001,20,w,Psychologie,2023-01-25_10h30.36.443,00_bat_bachelor,2022.2.4,60.039327554746585,
,,,,,,,,,,,,1,0,1,0,95,0,95,0,,,,,,,95,,,0.2,801.1294578765519,Y,d,go,d,1,0.4647093110252172,,,,,,,,,,,,,,,,,,67,001,20,w,Psychologie,2023-01-25_10h30.36.443,00_bat_bachelor,2022.2.4,60.039327554746585,
,,,,,,,,,,,,1,0,1,0,96,0,96,0,,,,,,,96,,,0.2,801.896657504607,X,l,go,l,1,0.40050425147637725,,,,,,,,,,,,,,,,,,67,001,20,w,Psychologie,2023-01-25_10h30.36.443,00_bat_bachelor,2022.2.4,60.039327554746585,
,,,,,,,,,,,,1,0,1,0,97,0,97,0,,,,,,,97,,,0.2,802.5974615283776,Y,d,go,d,1,0.3552165157161653,,,,,,,,,,,,,,,,,,67,001,20,w,Psychologie,2023-01-25_10h30.36.443,00_bat_bachelor,2022.2.4,60.039327554746585,
,,,,,,,,,,,,1,0,1,0,98,0,98,0,,,,,,,98,,,0.2,803.264693205012,X,l,go,l,1,0.39290425507351756,,,,,,,,,,,,,,,,,,67,001,20,w,Psychologie,2023-01-25_10h30.36.443,00_bat_bachelor,2022.2.4,60.039327554746585,
,,,,,,,,,,,,1,0,1,0,99,0,99,0,,,,,,,99,,,0.2,803.9653372289613,Y,d,go,d,1,0.36459784442558885,,,,,,,,,,,,,,,,,,67,001,20,w,Psychologie,2023-01-25_10h30.36.443,00_bat_bachelor,2022.2.4,60.039327554746585,
,,,,,,,,,,,,1,0,1,0,100,0,100,0,,,,,,,100,,,0.2,804.6323783600237,X,l,go,l,1,0.3691098422277719,,,,,,,,,,,,,,,,,,67,001,20,w,Psychologie,2023-01-25_10h30.36.443,00_bat_bachelor,2022.2.4,60.039327554746585,
,,,,,,,,,,,,1,0,1,0,101,0,101,0,,,,,,,101,,,0.2,805.316004695138,Y,d,go,d,1,0.40513843088410795,,,,,,,,,,,,,,,,,,67,001,20,w,Psychologie,2023-01-25_10h30.36.443,00_bat_bachelor,2022.2.4,60.039327554746585,
,,,,,,,,,,,,1,0,1,0,102,0,102,0,,,,,,,102,,,0.2,806.033439014107,Y,None,nogo,d,0,0.5679160489235073,,,,,,,,,,,,,,,,,,67,001,20,w,Psychologie,2023-01-25_10h30.36.443,00_bat_bachelor,2022.2.4,60.039327554746585,
,,,,,,,,,,,,1,0,1,0,103,0,103,0,,,,,,,103,,,0.2,806.9177605246659,X,l,go,l,1,0.48313354467973113,,,,,,,,,,,,,,,,,,67,001,20,w,Psychologie,2023-01-25_10h30.36.443,00_bat_bachelor,2022.2.4,60.039327554746585,
,,,,,,,,,,,,1,0,1,0,104,0,104,0,,,,,,,104,,,0.2,807.701637962833,Y,d,go,d,1,0.371272265445441,,,,,,,,,,,,,,,,,,67,001,20,w,Psychologie,2023-01-25_10h30.36.443,00_bat_bachelor,2022.2.4,60.039327554746585,
,,,,,,,,,,,,1,0,1,0,105,0,105,0,,,,,,,105,,,0.2,808.3854194495361,Y,None,nogo,None,1,,809.1860658491496,,,,,,,,,,,,,,,,,67,001,20,w,Psychologie,2023-01-25_10h30.36.443,00_bat_bachelor,2022.2.4,60.039327554746585,
,,,,,,,,,,,,1,0,1,0,106,0,106,0,,,,,,,106,,,0.2,809.3861539945938,X,l,go,l,1,0.3503762756008655,,,,,,,,,,,,,,,,,,67,001,20,w,Psychologie,2023-01-25_10h30.36.443,00_bat_bachelor,2022.2.4,60.039327554746585,
,,,,,,,,,,,,1,0,1,0,107,0,107,0,,,,,,,107,,,0.2,810.0368256790098,Y,d,go,d,1,0.3566657272167504,,,,,,,,,,,,,,,,,,67,001,20,w,Psychologie,2023-01-25_10h30.36.443,00_bat_bachelor,2022.2.4,60.039327554746585,
,,,,,,,,,,,,1,0,1,0,108,0,108,0,,,,,,,108,,,0.2,810.7036379617639,X,l,go,l,1,0.36285917880013585,,,,,,,,,,,,,,,,,,67,001,20,w,Psychologie,2023-01-25_10h30.36.443,00_bat_bachelor,2022.2.4,60.039327554746585,
,,,,,,,,,,,,1,0,1,0,109,0,109,0,,,,,,,109,,,0.2,811.3707775170915,Y,d,go,d,1,0.3343452529516071,,,,,,,,,,,,,,,,,,67,001,20,w,Psychologie,2023-01-25_10h30.36.443,00_bat_bachelor,2022.2.4,60.039327554746585,
,,,,,,,,,,,,1,0,1,0,110,0,110,0,,,,,,,110,,,0.2,812.0213502927218,X,l,go,l,1,0.4357464159838855,,,,,,,,,,,,,,,,,,67,001,20,w,Psychologie,2023-01-25_10h30.36.443,00_bat_bachelor,2022.2.4,60.039327554746585,
,,,,,,,,,,,,1,0,1,0,111,0,111,0,,,,,,,111,,,0.2,812.7718750196509,X,None,nogo,None,1,,813.5725029951427,,,,,,,,,,,,,,,,,67,001,20,w,Psychologie,2023-01-25_10h30.36.443,00_bat_bachelor,2022.2.4,60.039327554746585,
,,,,,,,,,,,,1,0,1,0,112,0,112,0,,,,,,,112,,,0.2,813.7726381707471,Y,d,go,None,0,,814.573113903869,,,,,,,,,,,,,,,,,67,001,20,w,Psychologie,2023-01-25_10h30.36.443,00_bat_bachelor,2022.2.4,60.039327554746585,
,,,,,,,,,,,,1,0,1,0,113,0,113,0,,,,,,,113,,,0.2,814.7735012006015,X,l,go,l,1,0.3245600457303226,,,,,,,,,,,,,,,,,,67,001,20,w,Psychologie,2023-01-25_10h30.36.443,00_bat_bachelor,2022.2.4,60.039327554746585,
,,,,,,,,,,,,1,0,1,0,114,0,114,0,,,,,,,114,,,0.2,815.4072642873507,Y,d,go,d,1,0.2823767934460193,,,,,,,,,,,,,,,,,,67,001,20,w,Psychologie,2023-01-25_10h30.36.443,00_bat_bachelor,2022.2.4,60.039327554746585,
,,,,,,,,,,,,1,0,1,0,115,0,115,0,,,,,,,115,,,0.2,815.99091491336,X,l,go,l,1,0.36961893318220973,,,,,,,,,,,,,,,,,,67,001,20,w,Psychologie,2023-01-25_10h30.36.443,00_bat_bachelor,2022.2.4,60.039327554746585,
,,,,,,,,,,,,1,0,1,0,116,0,116,0,,,,,,,116,,,0.2,816.6749422182329,Y,d,go,d,1,0.32678162050433457,,,,,,,,,,,,,,,,,,67,001,20,w,Psychologie,2023-01-25_10h30.36.443,00_bat_bachelor,2022.2.4,60.039327554746585,
,,,,,,,,,,,,1,0,1,0,117,0,117,0,,,,,,,117,,,0.2,817.3086951230653,X,l,go,l,1,0.28398503502830863,,,,,,,,,,,,,,,,,,67,001,20,w,Psychologie,2023-01-25_10h30.36.443,00_bat_bachelor,2022.2.4,60.039327554746585,
,,,,,,,,,,,,1,0,1,0,118,0,118,0,,,,,,,118,,,0.2,817.9091782257892,Y,d,go,d,1,0.3246453790925443,,,,,,,,,,,,,,,,,,67,001,20,w,Psychologie,2023-01-25_10h30.36.443,00_bat_bachelor,2022.2.4,60.039327554746585,
,,,,,,,,,,,,1,0,1,0,119,0,119,0,,,,,,,119,,,0.2,818.5429907669313,Y,None,nogo,l,0,0.3620950577314943,,,,,,,,,,,,,,,,,,67,001,20,w,Psychologie,2023-01-25_10h30.36.443,00_bat_bachelor,2022.2.4,60.039327554746585,
,,,,,,,,,,,,1,0,1,0,120,0,120,0,,,,,,,120,,,0.2,819.2103068069555,X,l,go,l,1,0.6071131208445877,,,,,,,,,,,,,,,,,,67,001,20,w,Psychologie,2023-01-25_10h30.36.443,00_bat_bachelor,2022.2.4,60.039327554746585,
,,,,,,,,,,,,1,0,1,0,121,0,121,0,,,,,,,121,,,0.2,820.127501513809,Y,d,go,d,1,0.3628475421573967,,,,,,,,,,,,,,,,,,67,001,20,w,Psychologie,2023-01-25_10h30.36.443,00_bat_bachelor,2022.2.4,60.039327554746585,
,,,,,,,,,,,,1,0,1,0,122,0,122,0,,,,,,,122,,,0.2,820.7946745236404,Y,None,nogo,l,0,0.3498691243585199,,,,,,,,,,,,,,,,,,67,001,20,w,Psychologie,2023-01-25_10h30.36.443,00_bat_bachelor,2022.2.4,60.039327554746585,
,,,,,,,,,,,,1,0,1,0,123,0,123,0,,,,,,,123,,,0.2,821.4450582084246,X,l,go,None,0,,822.2457637595944,,,,,,,,,,,,,,,,,67,001,20,w,Psychologie,2023-01-25_10h30.36.443,00_bat_bachelor,2022.2.4,60.039327554746585,
,,,,,,,,,,,,1,0,1,0,124,0,124,0,,,,,,,124,,,0.2,822.4459925109986,Y,d,go,d,1,0.39532219315879047,,,,,,,,,,,,,,,,,,67,001,20,w,Psychologie,2023-01-25_10h30.36.443,00_bat_bachelor,2022.2.4,60.039327554746585,
,,,,,,,,,,,,1,0,1,0,125,0,125,0,,,,,,,125,,,0.2,823.1464459896088,X,l,go,l,1,0.35010621533729136,,,,,,,,,,,,,,,,,,67,001,20,w,Psychologie,2023-01-25_10h30.36.443,00_bat_bachelor,2022.2.4,60.039327554746585,
,,,,,,,,,,,,1,0,1,0,126,0,126,0,,,,,,,126,,,0.2,823.79692324996,Y,d,go,d,1,0.2608214099891484,,,,,,,,,,,,,,,,,,67,001,20,w,Psychologie,2023-01-25_10h30.36.443,00_bat_bachelor,2022.2.4,60.039327554746585,
,,,,,,,,,,,,1,0,1,0,127,0,127,0,,,,,,,127,,,0.2,824.3642233384307,Y,None,nogo,None,1,,,,,,,,,,,,,,,,,,,67,001,20,w,Psychologie,2023-01-25_10h30.36.443,00_bat_bachelor,2022.2.4,60.039327554746585,
,,,,,,,,,,,,1,0,1,0,128,0,128,0,,,,,,,128,,,0.2,825.3648599442095,X,l,go,l,1,0.34064731071703136,,,,,,,,,,,,,,,,,,67,001,20,w,Psychologie,2023-01-25_10h30.36.443,00_bat_bachelor,2022.2.4,60.039327554746585,
,,,,,,,,,,,,1,0,1,0,129,0,129,0,,,,,,,129,,,0.2,826.0153667803388,Y,d,go,d,1,0.2973707257770002,,,,,,,,,,,,,,,,,,67,001,20,w,Psychologie,2023-01-25_10h30.36.443,00_bat_bachelor,2022.2.4,60.039327554746585,
,,,,,,,,,,,,1,0,1,0,130,0,130,0,,,,,,,130,,,0.2,826.6157092771027,Y,None,nogo,None,1,,,,,,,,,,,,,,,,,,,67,001,20,w,Psychologie,2023-01-25_10h30.36.443,00_bat_bachelor,2022.2.4,60.039327554746585,
,,,,,,,,,,,,1,0,1,0,131,0,131,0,,,,,,,131,,,0.2,827.6163095193915,X,l,go,l,1,0.1843923560809344,,,,,,,,,,,,,,,,,,67,001,20,w,Psychologie,2023-01-25_10h30.36.443,00_bat_bachelor,2022.2.4,60.039327554746585,
,,,,,,,,,,,,1,0,1,0,132,0,132,0,,,,,,,132,,,0.2,828.1169090340845,Y,d,go,d,1,0.30825265985913575,,,,,,,,,,,,,,,,,,67,001,20,w,Psychologie,2023-01-25_10h30.36.443,00_bat_bachelor,2022.2.4,60.039327554746585,
,,,,,,,,,,,,1,0,1,0,133,0,133,0,,,,,,,133,,,0.2,828.7341247349977,X,l,go,l,1,0.4753682150039822,,,,,,,,,,,,,,,,,,67,001,20,w,Psychologie,2023-01-25_10h30.36.443,00_bat_bachelor,2022.2.4,60.039327554746585,
,,,,,,,,,,,,1,0,1,0,134,0,134,0,,,,,,,134,,,0.2,829.5180312639568,Y,d,go,d,1,0.29848442203365266,,,,,,,,,,,,,,,,,,67,001,20,w,Psychologie,2023-01-25_10h30.36.443,00_bat_bachelor,2022.2.4,60.039327554746585,
,,,,,,,,,,,,1,0,1,0,135,0,135,0,,,,,,,135,,,0.2,830.1184115789365,Y,None,nogo,l,0,0.35487857670523226,,,,,,,,,,,,,,,,,,67,001,20,w,Psychologie,2023-01-25_10h30.36.443,00_bat_bachelor,2022.2.4,60.039327554746585,
,,,,,,,,,,,,1,0,1,0,136,0,136,0,,,,,,,136,,,0.2,830.785584588768,X,l,go,l,1,0.39153601322323084,,,,,,,,,,,,,,,,,,67,001,20,w,Psychologie,2023-01-25_10h30.36.443,00_bat_bachelor,2022.2.4,60.039327554746585,
,,,,,,,,,,,,1,0,1,0,137,0,137,0,,,,,,,137,,,0.2,831.4862043701578,Y,d,go,d,1,0.29895327030681074,,,,,,,,,,,,,,,,,,67,001,20,w,Psychologie,2023-01-25_10h30.36.443,00_bat_bachelor,2022.2.4,60.039327554746585,
,,,,,,,,,,,,1,0,1,0,138,0,138,0,,,,,,,138,,,0.2,832.0866258973256,X,l,go,l,1,0.4021066748537123,,,,,,,,,,,,,,,,,,67,001,20,w,Psychologie,2023-01-25_10h30.36.443,00_bat_bachelor,2022.2.4,60.039327554746585,
,,,,,,,,,,,,1,0,1,0,139,0,139,0,,,,,,,139,,,0.2,832.8038764586672,X,None,nogo,d,0,0.26164662186056376,,,,,,,,,,,,,,,,,,67,001,20,w,Psychologie,2023-01-25_10h30.36.443,00_bat_bachelor,2022.2.4,60.039327554746585,
,,,,,,,,,,,,1,0,1,0,140,0,140,0,,,,,,,140,,,0.2,833.3709893957712,Y,d,go,None,0,,,,,,,,,,,,,,,,,,,67,001,20,w,Psychologie,2023-01-25_10h30.36.443,00_bat_bachelor,2022.2.4,60.039327554746585,
,,,,,,,,,,,,1,0,1,0,141,0,141,0,,,,,,,141,,,0.2,834.3715290320106,X,l,go,l,1,0.357759544858709,,,,,,,,,,,,,,,,,,67,001,20,w,Psychologie,2023-01-25_10h30.36.443,00_bat_bachelor,2022.2.4,60.039327554746585,
,,,,,,,,,,,,1,0,1,0,142,0,142,0,,,,,,,142,,,0.2,835.0386060418095,Y,d,go,d,1,0.31463956576772034,,,,,,,,,,,,,,,,,,67,001,20,w,Psychologie,2023-01-25_10h30.36.443,00_bat_bachelor,2022.2.4,60.039327554746585,
,,,,,,,,,,,,1,0,1,0,143,0,143,0,,,,,,,143,,,0.2,835.6560554394964,X,l,go,l,1,0.33726985775865614,,,,,,,,,,,,,,,,,,67,001,20,w,Psychologie,2023-01-25_10h30.36.443,00_bat_bachelor,2022.2.4,60.039327554746585,
,,,,,,,,,,,,1,0,1,0,144,0,144,0,,,,,,,144,,,0.2,836.3064895484131,Y,d,go,d,1,0.2466812958009541,,,,,,,,,,,,,,,,,,67,001,20,w,Psychologie,2023-01-25_10h30.36.443,00_bat_bachelor,2022.2.4,60.039327554746585,
,,,,,,,,,,,,1,0,1,0,145,0,145,0,,,,,,,145,,,0.2,836.8569014025852,X,l,go,l,1,0.3521774869877845,,,,,,,,,,,,,,,,,,67,001,20,w,Psychologie,2023-01-25_10h30.36.443,00_bat_bachelor,2022.2.4,60.039327554746585,
,,,,,,,,,,,,1,0,1,0,146,0,146,0,,,,,,,146,,,0.2,837.523985685315,X,None,nogo,d,0,0.38946037786081433,,,,,,,,,,,,,,,,,,67,001,20,w,Psychologie,2023-01-25_10h30.36.443,00_bat_bachelor,2022.2.4,60.039327554746585,
,,,,,,,,,,,,1,0,1,0,147,0,147,0,,,,,,,147,,,0.2,838.2245938305277,Y,d,go,None,0,,,,,,,,,,,,,,,,,,,67,001,20,w,Psychologie,2023-01-25_10h30.36.443,00_bat_bachelor,2022.2.4,60.039327554746585,
,,,,,,,,,,,,1,0,1,0,148,0,148,0,,,,,,,148,,,0.2,839.2254263148643,X,l,go,l,1,0.2082929506432265,,,,,,,,,,,,,,,,,,67,001,20,w,Psychologie,2023-01-25_10h30.36.443,00_bat_bachelor,2022.2.4,60.039327554746585,
,,,,,,,,,,,,1,0,1,0,149,0,149,0,,,,,,,149,,,0.2,839.7424350338988,Y,d,go,d,1,0.37944632209837437,,,,,,,,,,,,,,,,,,67,001,20,w,Psychologie,2023-01-25_10h30.36.443,00_bat_bachelor,2022.2.4,60.039327554746585,
,,,,,,,,,,,,1,0,1,0,150,0,150,0,,,,,,,150,,,0.2,840.4262577325571,X,l,go,l,1,0.3348524044267833,,,,,,,,,,,,,,,,,,67,001,20,w,Psychologie,2023-01-25_10h30.36.443,00_bat_bachelor,2022.2.4,60.039327554746585,
,,,,,,,,,,,,1,0,1,0,151,0,151,0,,,,,,,151,,,0.2,841.0766040841118,X,None,nogo,l,0,0.5489778763148934,,,,,,,,,,,,,,,,,,67,001,20,w,Psychologie,2023-01-25_10h30.36.443,00_bat_bachelor,2022.2.4,60.039327554746585,
,,,,,,,,,,,,1,0,1,0,152,0,152,0,,,,,,,152,,,0.2,841.9272330049425,Y,d,go,d,1,0.5786942255217582,,,,,,,,,,,,,,,,,,67,001,20,w,Psychologie,2023-01-25_10h30.36.443,00_bat_bachelor,2022.2.4,60.039327554746585,
,,,,,,,,,,,,1,0,1,0,153,0,153,0,,,,,,,153,,,0.2,842.8111748793162,X,l,go,l,1,0.36565820779651403,,,,,,,,,,,,,,,,,,67,001,20,w,Psychologie,2023-01-25_10h30.36.443,00_bat_bachelor,2022.2.4,60.039327554746585,
,,,,,,,,,,,,1,0,1,0,154,0,154,0,,,,,,,154,,,0.2,843.478552010376,Y,d,go,d,1,0.3712523865979165,,,,,,,,,,,,,,,,,,67,001,20,w,Psychologie,2023-01-25_10h30.36.443,00_bat_bachelor,2022.2.4,60.039327554746585,
,,,,,,,,,,,,1,0,1,0,155,0,155,0,,,,,,,155,,,0.2,844.1625211331993,X,l,go,l,1,0.4400300504639745,,,,,,,,,,,,,,,,,,67,001,20,w,Psychologie,2023-01-25_10h30.36.443,00_bat_bachelor,2022.2.4,60.039327554746585,
,,,,,,,,,,,,1,0,1,0,156,0,156,0,,,,,,,156,,,0.2,844.9129668299574,Y,d,go,d,1,0.3613091188017279,,,,,,,,,,,,,,,,,,67,001,20,w,Psychologie,2023-01-25_10h30.36.443,00_bat_bachelor,2022.2.4,60.039327554746585,
,,,,,,,,,,,,1,0,1,0,157,0,157,0,,,,,,,157,,,0.2,845.5801611731295,Y,None,nogo,None,1,,,,,,,,,,,,,,,,,,,67,001,20,w,Psychologie,2023-01-25_10h30.36.443,00_bat_bachelor,2022.2.4,60.039327554746585,
,,,,,,,,,,,,1,0,1,0,158,0,158,0,,,,,,,158,,,0.2,846.5809083243366,X,l,go,l,1,0.3567869393154979,,,,,,,,,,,,,,,,,,67,001,20,w,Psychologie,2023-01-25_10h30.36.443,00_bat_bachelor,2022.2.4,60.039327554746585,
,,,,,,,,,,,,1,0,1,0,159,0,159,0,,,,,,,159,,,0.2,847.2480115159415,Y,d,go,d,1,0.31366211152635515,,,,,,,,,,,,,,,,,,67,001,20,w,Psychologie,2023-01-25_10h30.36.443,00_bat_bachelor,2022.2.4,60.039327554746585,
,,,,,,,,,,,,1,0,1,0,160,0,160,0,,,,,,,160,,,0.2,847.8654429742601,X,l,go,l,1,0.303288298426196,,,,,,,,,,,,,,,,,,67,001,20,w,Psychologie,2023-01-25_10h30.36.443,00_bat_bachelor,2022.2.4,60.039327554746585,
,,,,,,,,,,,,1,0,1,0,161,0,161,0,,,,,,,161,,,0.2,848.4825820690021,Y,d,go,d,1,0.3264621056150645,,,,,,,,,,,,,,,,,,67,001,20,w,Psychologie,2023-01-25_10h30.36.443,00_bat_bachelor,2022.2.4,60.039327554746585,
,,,,,,,,,,,,1,0,1,0,162,0,162,0,,,,,,,162,,,0.2,849.1165366705973,Y,None,nogo,None,1,,,,,,,,,,,,,,,,,,,67,001,20,w,Psychologie,2023-01-25_10h30.36.443,00_bat_bachelor,2022.2.4,60.039327554746585,
,,,,,,,,,,,,1,0,1,0,163,0,163,0,,,,,,,163,,,0.2,850.1175795793533,X,l,go,l,1,0.17904690420255065,,,,,,,,,,,,,,,,,,67,001,20,w,Psychologie,2023-01-25_10h30.36.443,00_bat_bachelor,2022.2.4,60.039327554746585,
,,,,,,,,,,,,1,0,1,0,164,0,164,0,,,,,,,164,,,0.2,850.6346348437946,Y,d,go,d,1,0.366047540679574,,,,,,,,,,,,,,,,,,67,001,20,w,Psychologie,2023-01-25_10h30.36.443,00_bat_bachelor,2022.2.4,60.039327554746585,
,,,,,,,,,,,,1,0,1,0,165,0,165,0,,,,,,,165,,,0.2,851.3353040798102,X,l,go,l,1,0.3365290097426623,,,,,,,,,,,,,,,,,,67,001,20,w,Psychologie,2023-01-25_10h30.36.443,00_bat_bachelor,2022.2.4,60.039327554746585,
,,,,,,,,,,,,1,0,1,0,166,0,166,0,,,,,,,166,,,0.2,852.0022642412223,Y,d,go,d,1,0.5022535354364663,,,,,,,,,,,,,,,,,,67,001,20,w,Psychologie,2023-01-25_10h30.36.443,00_bat_bachelor,2022.2.4,60.039327554746585,
,,,,,,,,,,,,1,0,1,0,167,0,167,0,,,,,,,167,,,0.2,852.8363341398071,Y,None,nogo,None,1,,853.6367875700817,,,,,,,,,,,,,,,,,67,001,20,w,Psychologie,2023-01-25_10h30.36.443,00_bat_bachelor,2022.2.4,60.039327554746585,
,,,,,,,,,,,,1,0,1,0,168,0,168,0,,,,,,,168,,,0.2,853.8369208062068,X,l,go,l,1,0.20439574029296637,,,,,,,,,,,,,,,,,,67,001,20,w,Psychologie,2023-01-25_10h30.36.443,00_bat_bachelor,2022.2.4,60.039327554746585,
,,,,,,,,,,,,1,0,1,0,169,0,169,0,,,,,,,169,,,0.2,854.3539217677899,Y,d,go,d,1,0.39153989194892347,,,,,,,,,,,,,,,,,,67,001,20,w,Psychologie,2023-01-25_10h30.36.443,00_bat_bachelor,2022.2.4,60.039327554746585,
,,,,,,,,,,,,1,0,1,0,170,0,170,0,,,,,,,170,,,0.2,855.054326761514,Y,None,nogo,None,1,,855.85512782773,,,,,,,,,,,,,,,,,67,001,20,w,Psychologie,2023-01-25_10h30.36.443,00_bat_bachelor,2022.2.4,60.039327554746585,
,,,,,,,,,,,,1,0,1,0,171,0,171,0,,,,,,,171,,,0.2,856.0553114882205,X,l,go,l,1,0.19497319962829351,,,,,,,,,,,,,,,,,,67,001,20,w,Psychologie,2023-01-25_10h30.36.443,00_bat_bachelor,2022.2.4,60.039327554746585,
,,,,,,,,,,,,1,0,1,0,172,0,172,0,,,,,,,172,,,0.2,856.5550169430207,Y,d,go,d,1,0.30164320836775005,,,,,,,,,,,,,,,,,,67,001,20,w,Psychologie,2023-01-25_10h30.36.443,00_bat_bachelor,2022.2.4,60.039327554746585,
,,,,,,,,,,,,1,0,1,0,173,0,173,0,,,,,,,173,,,0.2,857.1723945830017,Y,None,nogo,None,1,,,,,,,,,,,,,,,,,,,67,001,20,w,Psychologie,2023-01-25_10h30.36.443,00_bat_bachelor,2022.2.4,60.039327554746585,
,,,,,,,,,,,,1,0,1,0,174,0,174,0,,,,,,,174,,,0.2,858.1730476736557,Y,None,nogo,l,0,0.21989342966116965,,,,,,,,,,,,,,,,,,67,001,20,w,Psychologie,2023-01-25_10h30.36.443,00_bat_bachelor,2022.2.4,60.039327554746585,
,,,,,,,,,,,,1,0,1,0,175,0,175,0,,,,,,,175,,,0.2,858.706937354058,X,l,go,None,0,,859.5075551478658,,,,,,,,,,,,,,,,,67,001,20,w,Psychologie,2023-01-25_10h30.36.443,00_bat_bachelor,2022.2.4,60.039327554746585,
,,,,,,,,,,,,1,0,1,0,176,0,176,0,,,,,,,176,,,0.2,859.7076820810325,Y,d,go,d,1,0.3652131170965731,,,,,,,,,,,,,,,,,,67,001,20,w,Psychologie,2023-01-25_10h30.36.443,00_bat_bachelor,2022.2.4,60.039327554746585,
,,,,,,,,,,,,1,0,1,0,177,0,177,0,,,,,,,177,,,0.2,860.3748434544541,Y,None,nogo,None,1,,,,,,,,,,,,,,,,,,,67,001,20,w,Psychologie,2023-01-25_10h30.36.443,00_bat_bachelor,2022.2.4,60.039327554746585,
,,,,,,,,,,,,1,0,1,0,178,0,178,0,,,,,,,178,,,0.2,861.3755387270357,X,l,go,l,1,0.21754337032325566,,,,,,,,,,,,,,,,,,67,001,20,w,Psychologie,2023-01-25_10h30.36.443,00_bat_bachelor,2022.2.4,60.039327554746585,
,,,,,,,,,,,,1,0,1,0,179,0,179,0,,,,,,,179,,,0.2,861.90936246817,Y,d,go,d,1,0.4193095755763352,,,,,,,,,,,,,,,,,,67,001,20,w,Psychologie,2023-01-25_10h30.36.443,00_bat_bachelor,2022.2.4,60.039327554746585,
,,,,,,,,,,,,1,0,1,0,180,0,180,0,,,,,,,180,,,0.2,862.6431104759686,X,l,go,l,1,0.3899350443389267,,,,,,,,,,,,,,,,,,67,001,20,w,Psychologie,2023-01-25_10h30.36.443,00_bat_bachelor,2022.2.4,60.039327554746585,
,,,,,,,,,,,,1,0,1,0,181,0,181,0,,,,,,,181,,,0.2,863.343630378833,Y,d,go,d,1,0.3785226861946285,,,,,,,,,,,,,,,,,,67,001,20,w,Psychologie,2023-01-25_10h30.36.443,00_bat_bachelor,2022.2.4,60.039327554746585,
,,,,,,,,,,,,1,0,1,0,182,0,182,0,,,,,,,182,,,0.2,864.0275515017565,X,l,go,l,1,0.33309288998134434,,,,,,,,,,,,,,,,,,67,001,20,w,Psychologie,2023-01-25_10h30.36.443,00_bat_bachelor,2022.2.4,60.039327554746585,
,,,,,,,,,,,,1,0,1,0,183,0,183,0,,,,,,,183,,,0.2,864.6614125277847,Y,d,go,d,1,0.35585069726221263,,,,,,,,,,,,,,,,,,67,001,20,w,Psychologie,2023-01-25_10h30.36.443,00_bat_bachelor,2022.2.4,60.039327554746585,
,,,,,,,,,,,,1,0,1,0,184,0,184,0,,,,,,,184,,,0.2,865.3282912347931,X,l,go,l,1,0.39205480087548494,,,,,,,,,,,,,,,,,,67,001,20,w,Psychologie,2023-01-25_10h30.36.443,00_bat_bachelor,2022.2.4,60.039327554746585,
,,,,,,,,,,,,1,0,1,0,185,0,185,0,,,,,,,185,,,0.2,866.0291025312617,X,None,nogo,None,1,,866.8297974157613,,,,,,,,,,,,,,,,,67,001,20,w,Psychologie,2023-01-25_10h30.36.443,00_bat_bachelor,2022.2.4,60.039327554746585,
,,,,,,,,,,,,1,0,1,0,186,0,186,0,,,,,,,186,,,0.2,867.0296150159556,Y,d,go,d,1,0.38795056054368615,,,,,,,,,,,,,,,,,,67,001,20,w,Psychologie,2023-01-25_10h30.36.443,00_bat_bachelor,2022.2.4,60.039327554746585,
,,,,,,,,,,,,1,0,1,0,187,0,187,0,,,,,,,187,,,0.2,867.7301969791297,X,l,go,l,1,0.40699443011544645,,,,,,,,,,,,,,,,,,67,001,20,w,Psychologie,2023-01-25_10h30.36.443,00_bat_bachelor,2022.2.4,60.039327554746585,
,,,,,,,,,,,,1,0,1,0,188,0,188,0,,,,,,,188,,,0.2,868.4476691163145,Y,d,go,d,1,0.31447374750860035,,,,,,,,,,,,,,,,,,67,001,20,w,Psychologie,2023-01-25_10h30.36.443,00_bat_bachelor,2022.2.4,60.039327554746585,
,,,,,,,,,,,,1,0,1,0,189,0,189,0,,,,,,,189,,,0.2,869.0646137867589,Y,None,nogo,None,1,,869.8650638228282,,,,,,,,,,,,,,,,,67,001,20,w,Psychologie,2023-01-25_10h30.36.443,00_bat_bachelor,2022.2.4,60.039327554746585,
,,,,,,,,,,,,1,0,1,0,190,0,190,0,,,,,,,190,,,0.2,870.0653575439937,Y,None,nogo,l,0,0.2322793633211404,,,,,,,,,,,,,,,,,,67,001,20,w,Psychologie,2023-01-25_10h30.36.443,00_bat_bachelor,2022.2.4,60.039327554746585,
,,,,,,,,,,,,1,0,1,0,191,0,191,0,,,,,,,191,,,0.2,870.599305891199,X,l,go,l,1,0.4824048175942153,,,,,,,,,,,,,,,,,,67,001,20,w,Psychologie,2023-01-25_10h30.36.443,00_bat_bachelor,2022.2.4,60.039327554746585,
,,,,,,,,,,,,1,0,1,0,192,0,192,0,,,,,,,192,,,0.2,871.3832487838808,Y,d,go,d,1,0.35394766787067056,,,,,,,,,,,,,,,,,,67,001,20,w,Psychologie,2023-01-25_10h30.36.443,00_bat_bachelor,2022.2.4,60.039327554746585,
,,,,,,,,,,,,1,0,1,0,193,0,193,0,,,,,,,193,,,0.2,872.0501711270772,Y,None,nogo,None,1,,,,,,,,,,,,,,,,,,,67,001,20,w,Psychologie,2023-01-25_10h30.36.443,00_bat_bachelor,2022.2.4,60.039327554746585,
,,,,,,,,,,,,1,0,1,0,194,0,194,0,,,,,,,194,,,0.2,873.0509754903615,X,l,go,l,1,0.33395058661699295,,,,,,,,,,,,,,,,,,67,001,20,w,Psychologie,2023-01-25_10h30.36.443,00_bat_bachelor,2022.2.4,60.039327554746585,
,,,,,,,,,,,,1,0,1,0,195,0,195,0,,,,,,,195,,,0.2,873.7014929931611,Y,d,go,d,1,0.2919690313283354,,,,,,,,,,,,,,,,,,67,001,20,w,Psychologie,2023-01-25_10h30.36.443,00_bat_bachelor,2022.2.4,60.039327554746585,
,,,,,,,,,,,,1,0,1,0,196,0,196,0,,,,,,,196,,,0.2,874.301968823187,Y,None,nogo,None,1,,,,,,,,,,,,,,,,,,,67,001,20,w,Psychologie,2023-01-25_10h30.36.443,00_bat_bachelor,2022.2.4,60.039327554746585,
,,,,,,,,,,,,1,0,1,0,197,0,197,0,,,,,,,197,,,0.2,875.3028759742156,X,l,go,l,1,0.40244218963198364,,,,,,,,,,,,,,,,,,67,001,20,w,Psychologie,2023-01-25_10h30.36.443,00_bat_bachelor,2022.2.4,60.039327554746585,
,,,,,,,,,,,,1,0,1,0,198,0,198,0,,,,,,,198,,,0.2,876.0200945355464,Y,d,go,d,1,0.3732359011191875,,,,,,,,,,,,,,,,,,67,001,20,w,Psychologie,2023-01-25_10h30.36.443,00_bat_bachelor,2022.2.4,60.039327554746585,
,,,,,,,,,,,,1,0,1,0,199,0,199,0,,,,,,,199,,,0.2,876.7036093557253,Y,None,nogo,None,1,,,,,,,,,,,,,,,,,,,67,001,20,w,Psychologie,2023-01-25_10h30.36.443,00_bat_bachelor,2022.2.4,60.039327554746585,
