loop_instruction.thisRepN,loop_instruction.thisTrialN,loop_instruction.thisN,loop_instruction.thisIndex,loop_rsi_practice.thisRepN,loop_rsi_practice.thisTrialN,loop_rsi_practice.thisN,loop_rsi_practice.thisIndex,loop_practice.thisRepN,loop_practice.thisTrialN,loop_practice.thisN,loop_practice.thisIndex,loop_exp.thisRepN,loop_exp.thisTrialN,loop_exp.thisN,loop_exp.thisIndex,loop_trials.thisRepN,loop_trials.thisTrialN,loop_trials.thisN,loop_trials.thisIndex,map_condition,map_x_key,map_y_key,key_resp_welcome.started,key_resp_welcome.keys,key_resp_welcome.rt,index,text_empty_rsi_practice.started,text_empty_rsi_practice.stopped,rsi,stimulus.started,stimulus,correct,trial_type,key_resp_trial.keys,key_resp_trial.corr,stimulus.stopped,key_resp_trial.rt,key_resp_instruction_rsi.started,key_resp_instruction_rsi.keys,key_resp_instruction_rsi.rt,key_resp_instruction_rsi.stopped,key_resp_instruction_final.started,key_resp_instruction_final.keys,key_resp_instruction_final.rt,key_resp_break.started,key_resp_break.keys,key_resp_break.rt,key_resp_break.stopped,key_resp_end_screen.started,image_end_screen.started,key_resp_end_screen.keys,participant,session,date,expName,psychopyVersion,frameRate,
,,,,0,0,0,0,0,0,0,0,,,,,,,,,0,d,l,3594.3582504929655,j,25.316400493698893,0,3619.702872871334,3620.721897346957,1,3620.721897346957,X,d,go,None,0,,,,,,,,,,,,,,,,,6,001,2022-12-16_11h01.12.981,00_bat_bachelor,2022.2.4,59.95154464480134,
,,,,0,0,0,0,1,0,1,0,,,,,,,,,,,,,,,1,3622.1171815189446,3623.1181017609197,1,3623.1181017609197,Y,l,go,None,0,3623.9172199189197,,,,,,,,,,,,,,,,6,001,2022-12-16_11h01.12.981,00_bat_bachelor,2022.2.4,59.95154464480134,
,,,,0,0,0,0,2,0,2,0,,,,,,,,,,,,,,,2,3624.5171629007673,3625.5172409613297,1,3625.5172409613297,X,d,go,d,1,,0.2823074193147477,,,,,,,,,,,,,,,6,001,2022-12-16_11h01.12.981,00_bat_bachelor,2022.2.4,59.95154464480134,
,,,,0,0,0,0,3,0,3,0,,,,,,,,,,,,,,,3,3626.517222052251,3627.5172782946465,1,3627.5172782946465,X,None,nogo,d,0,,0.3307699412544025,,,,,,,,,,,,,,,6,001,2022-12-16_11h01.12.981,00_bat_bachelor,2022.2.4,59.95154464480134,
,,,,0,0,0,0,4,0,4,0,,,,,,,,,,,,,,,4,3628.966420864759,3629.9667578342924,1,3629.9667578342924,Y,l,go,l,1,,0.42602710719802417,,,,,,,,,,,,,,,6,001,2022-12-16_11h01.12.981,00_bat_bachelor,2022.2.4,59.95154464480134,
,,,,0,0,0,0,5,0,5,0,,,,,,,,,,,,,,,5,3631.1003087998542,3632.100348072563,1,3632.100348072563,X,d,go,d,1,,0.3237464295234531,,,,,,,,,,,,,,,6,001,2022-12-16_11h01.12.981,00_bat_bachelor,2022.2.4,59.95154464480134,
,,,,0,0,0,0,6,0,6,0,,,,,,,,,,,,,,,6,3633.133645510956,3634.13341714743,1,3634.13341714743,Y,l,go,l,1,,0.41783123239292763,,,,,,,,,,,,,,,6,001,2022-12-16_11h01.12.981,00_bat_bachelor,2022.2.4,59.95154464480134,
,,,,0,0,0,0,7,0,7,0,,,,,,,,,,,,,,,7,3635.2835586503934,3636.283665317009,1,3636.283665317009,X,d,go,d,1,,0.38058131105208304,,,,,,,,,,,,,,,6,001,2022-12-16_11h01.12.981,00_bat_bachelor,2022.2.4,59.95154464480134,
,,,,0,0,0,0,8,0,8,0,,,,,,,,,,,,,,,8,3637.3669064887654,3638.366990367518,1,3638.366990367518,X,None,nogo,None,1,3639.1668348281964,,,,,,,,,,,,,,,,6,001,2022-12-16_11h01.12.981,00_bat_bachelor,2022.2.4,59.95154464480134,
,,,,0,0,0,0,9,0,9,0,,,,,,,,,,,,,,,9,3639.7671283553354,3640.7669038705935,1,3640.7669038705935,X,None,nogo,None,1,3641.566757543391,,,,,,,,,,,,,,,,6,001,2022-12-16_11h01.12.981,00_bat_bachelor,2022.2.4,59.95154464480134,
,,,,0,0,0,0,10,0,10,0,,,,,,,,,,,,,,,10,3642.1668876766635,3643.166830464572,1,3643.166830464572,Y,l,go,l,1,,0.344649207268958,,,,,,,,,,,,,,,6,001,2022-12-16_11h01.12.981,00_bat_bachelor,2022.2.4,59.95154464480134,
,,,,0,0,0,0,11,0,11,0,,,,,,,,,,,,,,,11,3644.2167858342873,3645.2167567433935,1,3645.2167567433935,X,d,go,d,1,,0.47041738870029803,,,,,,,,,,,,,,,6,001,2022-12-16_11h01.12.981,00_bat_bachelor,2022.2.4,59.95154464480134,
,,,,0,0,0,0,12,0,12,0,,,,,,,,,,,,,,,12,3646.400374108911,3647.400316411964,1,3647.400316411964,Y,l,go,l,1,,0.464582724875072,,,,,,,,,,,,,,,6,001,2022-12-16_11h01.12.981,00_bat_bachelor,2022.2.4,59.95154464480134,
,,,,0,0,0,0,13,0,13,0,,,,,,,,,,,,,,,13,3648.566748331272,3649.566890876653,1,3649.566890876653,Y,None,nogo,None,1,3650.3667435797543,,,,,,,,,,,,,,,,6,001,2022-12-16_11h01.12.981,00_bat_bachelor,2022.2.4,59.95154464480134,
,,,,0,0,0,0,14,0,14,0,,,,,,,,,,,,,,,14,3650.9669445008767,3651.9667694706586,1,3651.9667694706586,X,d,go,d,1,,0.3295495782222133,,,,,,,,,,,,,,,6,001,2022-12-16_11h01.12.981,00_bat_bachelor,2022.2.4,59.95154464480134,
,,,,1,0,1,0,0,0,0,0,,,,,,,,,,,,,,,0,3673.166753858546,3673.3667518221773,0.2,3673.3667518221773,X,d,go,None,0,3674.167000161455,,3653.0526016714575,j,20.09503187374503,,,,,,,,,,,,6,001,2022-12-16_11h01.12.981,00_bat_bachelor,2022.2.4,59.95154464480134,
,,,,1,0,1,0,1,0,1,0,,,,,,,,,,,,,,,1,3674.766929567544,3674.9670240159903,0.2,3674.9670240159903,Y,l,go,l,1,,0.35302883957047015,,,,,,,,,,,,,,,6,001,2022-12-16_11h01.12.981,00_bat_bachelor,2022.2.4,59.95154464480134,
,,,,1,0,1,0,2,0,2,0,,,,,,,,,,,,,,,2,3676.033642650349,3676.233547523123,0.2,3676.233547523123,X,d,go,d,1,,0.41428068865207024,,,,,,,,,,,,,,,6,001,2022-12-16_11h01.12.981,00_bat_bachelor,2022.2.4,59.95154464480134,
,,,,1,0,1,0,3,0,3,0,,,,,,,,,,,,,,,3,3677.350076436327,3677.5501607029582,0.2,3677.5501607029582,Y,l,go,l,1,,0.34612508534337394,,,,,,,,,,,,,,,6,001,2022-12-16_11h01.12.981,00_bat_bachelor,2022.2.4,59.95154464480134,
,,,,1,0,1,0,4,0,4,0,,,,,,,,,,,,,,,4,3678.6002605574467,3678.800192096882,0.2,3678.800192096882,X,d,go,d,1,,0.39167657839425374,,,,,,,,,,,,,,,6,001,2022-12-16_11h01.12.981,00_bat_bachelor,2022.2.4,59.95154464480134,
,,,,1,0,1,0,5,0,5,0,,,,,,,,,,,,,,,5,3679.900067442388,3680.100202133239,0.2,3680.100202133239,Y,l,go,l,1,,0.3553420505777467,,,,,,,,,,,,,,,6,001,2022-12-16_11h01.12.981,00_bat_bachelor,2022.2.4,59.95154464480134,
,,,,1,0,1,0,6,0,6,0,,,,,,,,,,,,,,,6,3681.166745131268,3681.3669030948367,0.2,3681.3669030948367,X,d,go,d,1,,0.30507540827966295,,,,,,,,,,,,,,,6,001,2022-12-16_11h01.12.981,00_bat_bachelor,2022.2.4,59.95154464480134,
,,,,1,0,1,0,7,0,7,0,,,,,,,,,,,,,,,7,3682.3834732686228,3682.583615717027,0.2,3682.583615717027,X,None,nogo,None,1,3683.383561511,,,,,,,,,,,,,,,,6,001,2022-12-16_11h01.12.981,00_bat_bachelor,2022.2.4,59.95154464480134,
,,,,1,0,1,0,8,0,8,0,,,,,,,,,,,,,,,8,3683.983604856432,3684.1834020928945,0.2,3684.1834020928945,Y,l,go,l,1,,0.368707862260635,,,,,,,,,,,,,,,6,001,2022-12-16_11h01.12.981,00_bat_bachelor,2022.2.4,59.95154464480134,
,,,,1,0,1,0,9,0,9,0,,,,,,,,,,,,,,,9,3685.2669555069297,3685.46688704635,0.2,3685.46688704635,X,d,go,d,1,,0.34926156867004465,,,,,,,,,,,,,,,6,001,2022-12-16_11h01.12.981,00_bat_bachelor,2022.2.4,59.95154464480134,
,,,,1,0,1,0,10,0,10,0,,,,,,,,,,,,,,,10,3686.516665931311,3686.717038197792,0.2,3686.717038197792,Y,l,go,l,1,,0.363875864612055,,,,,,,,,,,,,,,6,001,2022-12-16_11h01.12.981,00_bat_bachelor,2022.2.4,59.95154464480134,
,,,,1,0,1,0,11,0,11,0,,,,,,,,,,,,,,,11,3687.7836010746105,3687.9833876444172,0.2,3687.9833876444172,Y,None,nogo,None,1,3688.7833605898777,,,,,,,,,,,,,,,,6,001,2022-12-16_11h01.12.981,00_bat_bachelor,2022.2.4,59.95154464480134,
,,,,1,0,1,0,12,0,12,0,,,,,,,,,,,,,,,12,3689.383391329262,3689.583494504972,0.2,3689.583494504972,X,d,go,d,1,,0.3123331017268356,,,,,,,,,,,,,,,6,001,2022-12-16_11h01.12.981,00_bat_bachelor,2022.2.4,59.95154464480134,
,,,,1,0,1,0,13,0,13,0,,,,,,,,,,,,,,,13,3690.6002843150054,3690.800278884708,0.2,3690.800278884708,Y,l,go,l,1,,0.42367365380050614,,,,,,,,,,,,,,,6,001,2022-12-16_11h01.12.981,00_bat_bachelor,2022.2.4,59.95154464480134,
,,,,1,0,1,0,14,0,14,0,,,,,,,,,,,,,,,14,3691.933558820092,3692.1335427231243,0.2,3692.1335427231243,Y,None,nogo,l,0,,0.41811341408174485,,,,,,,,,,,,,,,6,001,2022-12-16_11h01.12.981,00_bat_bachelor,2022.2.4,59.95154464480134,
,,,,,,,,,,,,,,,,,,,,,,,,,,,,,,,,,,,,,,3693.7185552879673,None,,3693.7185552879673,3693.7185552879673,space,9.139988942857599,,,,,,,,6,001,2022-12-16_11h01.12.981,00_bat_bachelor,2022.2.4,59.95154464480134,
,,,,,,,,,,,,0,0,0,0,0,0,0,0,,,,,,,0,,,1,3703.8835011473857,X,d,go,d,1,,0.2844436606974341,,,,,,,,,,,,,,,6,001,2022-12-16_11h01.12.981,00_bat_bachelor,2022.2.4,59.95154464480134,
,,,,,,,,,,,,0,0,0,0,1,0,1,0,,,,,,,1,,,1,3705.283578529168,Y,l,go,l,1,,0.3568732013372937,,,,,,,,,,,,,,,6,001,2022-12-16_11h01.12.981,00_bat_bachelor,2022.2.4,59.95154464480134,
,,,,,,,,,,,,0,0,0,0,2,0,2,0,,,,,,,2,,,1,3706.7503569695255,X,d,go,d,1,,0.31456631276523694,,,,,,,,,,,,,,,6,001,2022-12-16_11h01.12.981,00_bat_bachelor,2022.2.4,59.95154464480134,
,,,,,,,,,,,,0,0,0,0,3,0,3,0,,,,,,,3,,,1,3708.166957979658,Y,l,go,l,1,,0.465488421410555,,,,,,,,,,,,,,,6,001,2022-12-16_11h01.12.981,00_bat_bachelor,2022.2.4,59.95154464480134,
,,,,,,,,,,,,0,0,0,0,4,0,4,0,,,,,,,4,,,1,3709.73348376558,X,d,go,d,1,,0.32277091484866105,,,,,,,,,,,,,,,6,001,2022-12-16_11h01.12.981,00_bat_bachelor,2022.2.4,59.95154464480134,
,,,,,,,,,,,,0,0,0,0,5,0,5,0,,,,,,,5,,,1,3711.166935191781,X,None,nogo,d,0,,0.3603922299371334,,,,,,,,,,,,,,,6,001,2022-12-16_11h01.12.981,00_bat_bachelor,2022.2.4,59.95154464480134,
,,,,,,,,,,,,0,0,0,0,6,0,6,0,,,,,,,6,,,1,3712.6337868442206,Y,l,go,l,1,,0.3825827646360267,,,,,,,,,,,,,,,6,001,2022-12-16_11h01.12.981,00_bat_bachelor,2022.2.4,59.95154464480134,
,,,,,,,,,,,,0,0,0,0,7,0,7,0,,,,,,,7,,,1,3714.1169565493474,X,d,go,d,1,,0.48355580658244435,,,,,,,,,,,,,,,6,001,2022-12-16_11h01.12.981,00_bat_bachelor,2022.2.4,59.95154464480134,
,,,,,,,,,,,,0,0,0,0,8,0,8,0,,,,,,,8,,,1,3715.7004365088796,Y,l,go,l,1,,0.3560334441572195,,,,,,,,,,,,,,,6,001,2022-12-16_11h01.12.981,00_bat_bachelor,2022.2.4,59.95154464480134,
,,,,,,,,,,,,0,0,0,0,9,0,9,0,,,,,,,9,,,1,3717.166993373583,Y,None,nogo,None,1,3717.96663904647,,,,,,,,,,,,,,,,6,001,2022-12-16_11h01.12.981,00_bat_bachelor,2022.2.4,59.95154464480134,
,,,,,,,,,,,,0,0,0,0,10,0,10,0,,,,,,,10,,,1,3718.966735531285,X,d,go,d,1,,0.32199564248730894,,,,,,,,,,,,,,,6,001,2022-12-16_11h01.12.981,00_bat_bachelor,2022.2.4,59.95154464480134,
,,,,,,,,,,,,0,0,0,0,11,0,11,0,,,,,,,11,,,1,3720.4000167757476,Y,l,go,l,1,,0.409075842690072,,,,,,,,,,,,,,,6,001,2022-12-16_11h01.12.981,00_bat_bachelor,2022.2.4,59.95154464480134,
,,,,,,,,,,,,0,0,0,0,12,0,12,0,,,,,,,12,,,1,3721.916639070725,Y,None,nogo,None,1,3722.7166910464584,,,,,,,,,,,,,,,,6,001,2022-12-16_11h01.12.981,00_bat_bachelor,2022.2.4,59.95154464480134,
,,,,,,,,,,,,0,0,0,0,13,0,13,0,,,,,,,13,,,1,3723.7167628039897,X,d,go,d,1,,0.45165957961580716,,,,,,,,,,,,,,,6,001,2022-12-16_11h01.12.981,00_bat_bachelor,2022.2.4,59.95154464480134,
,,,,,,,,,,,,0,0,0,0,14,0,14,0,,,,,,,14,,,1,3725.2832939232467,Y,l,go,l,1,,0.35803489774116315,,,,,,,,,,,,,,,6,001,2022-12-16_11h01.12.981,00_bat_bachelor,2022.2.4,59.95154464480134,
,,,,,,,,,,,,0,0,0,0,15,0,15,0,,,,,,,15,,,1,3726.750023878776,Y,None,nogo,None,1,3727.549789309196,,,,,,,,,,,,,,,,6,001,2022-12-16_11h01.12.981,00_bat_bachelor,2022.2.4,59.95154464480134,
,,,,,,,,,,,,0,0,0,0,16,0,16,0,,,,,,,16,,,1,3728.549730642553,Y,None,nogo,l,0,,0.36968580119719263,,,,,,,,,,,,,,,6,001,2022-12-16_11h01.12.981,00_bat_bachelor,2022.2.4,59.95154464480134,
,,,,,,,,,,,,0,0,0,0,17,0,17,0,,,,,,,17,,,1,3730.0335524685797,X,d,go,d,1,,0.4541652753687231,,,,,,,,,,,,,,,6,001,2022-12-16_11h01.12.981,00_bat_bachelor,2022.2.4,59.95154464480134,
,,,,,,,,,,,,0,0,0,0,18,0,18,0,,,,,,,18,,,1,3731.60001134545,Y,l,go,l,1,,0.39217694180842955,,,,,,,,,,,,,,,6,001,2022-12-16_11h01.12.981,00_bat_bachelor,2022.2.4,59.95154464480134,
,,,,,,,,,,,,0,0,0,0,19,0,19,0,,,,,,,19,,,1,3733.1163883072004,X,d,go,None,0,3733.9163564041955,,,,,,,,,,,,,,,,6,001,2022-12-16_11h01.12.981,00_bat_bachelor,2022.2.4,59.95154464480134,
,,,,,,,,,,,,0,0,0,0,20,0,20,0,,,,,,,20,,,1,3734.9167515555164,X,None,nogo,None,1,3735.716764258541,,,,,,,,,,,,,,,,6,001,2022-12-16_11h01.12.981,00_bat_bachelor,2022.2.4,59.95154464480134,
,,,,,,,,,,,,0,0,0,0,21,0,21,0,,,,,,,21,,,1,3736.717012985697,Y,l,go,l,1,,0.3633265315438621,,,,,,,,,,,,,,,6,001,2022-12-16_11h01.12.981,00_bat_bachelor,2022.2.4,59.95154464480134,
,,,,,,,,,,,,0,0,0,0,22,0,22,0,,,,,,,22,,,1,3738.183351183834,X,d,go,d,1,,0.44906709603674244,,,,,,,,,,,,,,,6,001,2022-12-16_11h01.12.981,00_bat_bachelor,2022.2.4,59.95154464480134,
,,,,,,,,,,,,0,0,0,0,23,0,23,0,,,,,,,23,,,1,3739.733350432318,X,None,nogo,None,1,3740.5333044686995,,,,,,,,,,,,,,,,6,001,2022-12-16_11h01.12.981,00_bat_bachelor,2022.2.4,59.95154464480134,
,,,,,,,,,,,,0,0,0,0,24,0,24,0,,,,,,,24,,,1,3741.533394650469,Y,l,go,l,1,,0.37927270562795456,,,,,,,,,,,,,,,6,001,2022-12-16_11h01.12.981,00_bat_bachelor,2022.2.4,59.95154464480134,
,,,,,,,,,,,,0,0,0,0,25,0,25,0,,,,,,,25,,,1,3743.0166855676653,X,d,go,d,1,,0.47936865710653365,,,,,,,,,,,,,,,6,001,2022-12-16_11h01.12.981,00_bat_bachelor,2022.2.4,59.95154464480134,
,,,,,,,,,,,,0,0,0,0,26,0,26,0,,,,,,,26,,,1,3744.5997029819555,Y,l,go,l,1,,0.28761165916512255,,,,,,,,,,,,,,,6,001,2022-12-16_11h01.12.981,00_bat_bachelor,2022.2.4,59.95154464480134,
,,,,,,,,,,,,0,0,0,0,27,0,27,0,,,,,,,27,,,1,3746.000003393943,Y,None,nogo,None,1,3746.799981672739,,,,,,,,,,,,,,,,6,001,2022-12-16_11h01.12.981,00_bat_bachelor,2022.2.4,59.95154464480134,
,,,,,,,,,,,,0,0,0,0,28,0,28,0,,,,,,,28,,,1,3747.8000083393854,X,d,go,d,1,,0.43252940707316156,,,,,,,,,,,,,,,6,001,2022-12-16_11h01.12.981,00_bat_bachelor,2022.2.4,59.95154464480134,
,,,,,,,,,,,,0,0,0,0,29,0,29,0,,,,,,,29,,,1,3749.3332061414694,Y,l,go,l,1,,0.3549798689346062,,,,,,,,,,,,,,,6,001,2022-12-16_11h01.12.981,00_bat_bachelor,2022.2.4,59.95154464480134,
,,,,,,,,,,,,0,0,0,0,30,0,30,0,,,,,,,30,,,1,3750.80006894542,Y,None,nogo,None,1,3751.5997063758987,,,,,,,,,,,,,,,,6,001,2022-12-16_11h01.12.981,00_bat_bachelor,2022.2.4,59.95154464480134,
,,,,,,,,,,,,0,0,0,0,31,0,31,0,,,,,,,31,,,1,3752.5997058910434,X,d,go,d,1,,0.5123073077993467,,,,,,,,,,,,,,,6,001,2022-12-16_11h01.12.981,00_bat_bachelor,2022.2.4,59.95154464480134,
,,,,,,,,,,,,0,0,0,0,32,0,32,0,,,,,,,32,,,1,3754.2165201374446,Y,l,go,l,1,,0.4320818921405589,,,,,,,,,,,,,,,6,001,2022-12-16_11h01.12.981,00_bat_bachelor,2022.2.4,59.95154464480134,
,,,,,,,,,,,,0,0,0,0,33,0,33,0,,,,,,,33,,,1,3755.7501048484264,Y,None,nogo,None,1,3756.550001672731,,,,,,,,,,,,,,,,6,001,2022-12-16_11h01.12.981,00_bat_bachelor,2022.2.4,59.95154464480134,
,,,,,,,,,,,,0,0,0,0,34,0,34,0,,,,,,,34,,,1,3757.549998278788,X,d,go,d,1,,0.21817072313569952,,,,,,,,,,,,,,,6,001,2022-12-16_11h01.12.981,00_bat_bachelor,2022.2.4,59.95154464480134,
,,,,,,,,,,,,0,0,0,0,35,0,35,0,,,,,,,35,,,1,3758.8831864808744,Y,l,go,l,1,,0.3085508005169686,,,,,,,,,,,,,,,6,001,2022-12-16_11h01.12.981,00_bat_bachelor,2022.2.4,59.95154464480134,
,,,,,,,,,,,,0,0,0,0,36,0,36,0,,,,,,,36,,,1,3760.299657066833,Y,None,nogo,l,0,,0.49344477149134036,,,,,,,,,,,,,,,6,001,2022-12-16_11h01.12.981,00_bat_bachelor,2022.2.4,59.95154464480134,
,,,,,,,,,,,,0,0,0,0,37,0,37,0,,,,,,,37,,,1,3761.899844897038,X,d,go,d,1,,0.29936971406277735,,,,,,,,,,,,,,,6,001,2022-12-16_11h01.12.981,00_bat_bachelor,2022.2.4,59.95154464480134,
,,,,,,,,,,,,0,0,0,0,38,0,38,0,,,,,,,38,,,1,3763.2997142789245,Y,l,go,l,1,,0.388331610331079,,,,,,,,,,,,,,,6,001,2022-12-16_11h01.12.981,00_bat_bachelor,2022.2.4,59.95154464480134,
,,,,,,,,,,,,0,0,0,0,39,0,39,0,,,,,,,39,,,1,3764.7998464000702,Y,None,nogo,None,1,3765.5999609212304,,,,,,,,,,,,,,,,6,001,2022-12-16_11h01.12.981,00_bat_bachelor,2022.2.4,59.95154464480134,
,,,,,,,,,,,,0,0,0,0,40,0,40,0,,,,,,,40,,,1,3766.5999958303,X,d,go,d,1,,0.30385068159375805,,,,,,,,,,,,,,,6,001,2022-12-16_11h01.12.981,00_bat_bachelor,2022.2.4,59.95154464480134,
,,,,,,,,,,,,0,0,0,0,41,0,41,0,,,,,,,41,,,1,3768.0163723556907,Y,l,go,l,1,,0.27939154193154536,,,,,,,,,,,,,,,6,001,2022-12-16_11h01.12.981,00_bat_bachelor,2022.2.4,59.95154464480134,
,,,,,,,,,,,,0,0,0,0,42,0,42,0,,,,,,,42,,,1,3769.399941624273,Y,None,nogo,None,1,3770.1998151758453,,,,,,,,,,,,,,,,6,001,2022-12-16_11h01.12.981,00_bat_bachelor,2022.2.4,59.95154464480134,
,,,,,,,,,,,,0,0,0,0,43,0,43,0,,,,,,,43,,,1,3771.1997880243434,X,d,go,d,1,,0.3930443353165174,,,,,,,,,,,,,,,6,001,2022-12-16_11h01.12.981,00_bat_bachelor,2022.2.4,59.95154464480134,
,,,,,,,,,,,,0,0,0,0,44,0,44,0,,,,,,,44,,,1,3772.700004024242,Y,l,go,l,1,,0.44520479488710407,,,,,,,,,,,,,,,6,001,2022-12-16_11h01.12.981,00_bat_bachelor,2022.2.4,59.95154464480134,
,,,,,,,,,,,,0,0,0,0,45,0,45,0,,,,,,,45,,,1,3774.2497055759013,X,d,go,d,1,,0.46239024108217563,,,,,,,,,,,,,,,6,001,2022-12-16_11h01.12.981,00_bat_bachelor,2022.2.4,59.95154464480134,
,,,,,,,,,,,,0,0,0,0,46,0,46,0,,,,,,,46,,,1,3775.8163743920595,X,None,nogo,None,1,3776.6165776404523,,,,,,,,,,,,,,,,6,001,2022-12-16_11h01.12.981,00_bat_bachelor,2022.2.4,59.95154464480134,
,,,,,,,,,,,,0,0,0,0,47,0,47,0,,,,,,,47,,,1,3777.616586852557,Y,l,go,l,1,,0.37502737434988376,,,,,,,,,,,,,,,6,001,2022-12-16_11h01.12.981,00_bat_bachelor,2022.2.4,59.95154464480134,
,,,,,,,,,,,,0,0,0,0,48,0,48,0,,,,,,,48,,,1,3779.099710497103,X,d,go,d,1,,0.4444212801026879,,,,,,,,,,,,,,,6,001,2022-12-16_11h01.12.981,00_bat_bachelor,2022.2.4,59.95154464480134,
,,,,,,,,,,,,0,0,0,0,49,0,49,0,,,,,,,49,,,1,3780.6496428365353,Y,l,go,l,1,,0.3665594996709842,,,,,,,,,,,,,,,6,001,2022-12-16_11h01.12.981,00_bat_bachelor,2022.2.4,59.95154464480134,
,,,,,,,,,,,,0,0,0,0,50,0,50,0,,,,,,,50,,,1,3782.116507579878,Y,None,nogo,None,1,3782.9166657373717,,,,,,,,,,,,,,,,6,001,2022-12-16_11h01.12.981,00_bat_bachelor,2022.2.4,59.95154464480134,
,,,,,,,,,,,,0,0,0,0,51,0,51,0,,,,,,,51,,,1,3783.9166987070494,X,d,go,d,1,,0.23563398739497643,,,,,,,,,,,,,,,6,001,2022-12-16_11h01.12.981,00_bat_bachelor,2022.2.4,59.95154464480134,
,,,,,,,,,,,,0,0,0,0,52,0,52,0,,,,,,,52,,,1,3785.2663547799457,Y,l,go,l,1,,0.31022886031132657,,,,,,,,,,,,,,,6,001,2022-12-16_11h01.12.981,00_bat_bachelor,2022.2.4,59.95154464480134,
,,,,,,,,,,,,0,0,0,0,53,0,53,0,,,,,,,53,,,1,3786.6831346990803,Y,None,nogo,None,1,3787.4830116445955,,,,,,,,,,,,,,,,6,001,2022-12-16_11h01.12.981,00_bat_bachelor,2022.2.4,59.95154464480134,
,,,,,,,,,,,,0,0,0,0,54,0,54,0,,,,,,,54,,,1,3788.4833190383943,Y,None,nogo,None,1,3789.2832910141587,,,,,,,,,,,,,,,,6,001,2022-12-16_11h01.12.981,00_bat_bachelor,2022.2.4,59.95154464480134,
,,,,,,,,,,,,0,0,0,0,55,0,55,0,,,,,,,55,,,1,3790.2831378021074,X,d,go,d,1,,0.300480016565416,,,,,,,,,,,,,,,6,001,2022-12-16_11h01.12.981,00_bat_bachelor,2022.2.4,59.95154464480134,
,,,,,,,,,,,,0,0,0,0,56,0,56,0,,,,,,,56,,,1,3791.6834954261867,Y,l,go,l,1,,0.38981039749342017,,,,,,,,,,,,,,,6,001,2022-12-16_11h01.12.981,00_bat_bachelor,2022.2.4,59.95154464480134,
,,,,,,,,,,,,0,0,0,0,57,0,57,0,,,,,,,57,,,1,3793.1833851232077,X,d,go,d,1,,0.3294273964565946,,,,,,,,,,,,,,,6,001,2022-12-16_11h01.12.981,00_bat_bachelor,2022.2.4,59.95154464480134,
,,,,,,,,,,,,0,0,0,0,58,0,58,0,,,,,,,58,,,1,3794.616647943447,Y,l,go,l,1,,0.2706822128238855,,,,,,,,,,,,,,,6,001,2022-12-16_11h01.12.981,00_bat_bachelor,2022.2.4,59.95154464480134,
,,,,,,,,,,,,0,0,0,0,59,0,59,0,,,,,,,59,,,1,3795.999662060771,Y,None,nogo,None,1,3796.7998464000702,,,,,,,,,,,,,,,,6,001,2022-12-16_11h01.12.981,00_bat_bachelor,2022.2.4,59.95154464480134,
,,,,,,,,,,,,0,0,0,0,60,0,60,0,,,,,,,60,,,1,3797.79967912742,X,d,go,d,1,,0.22435059893177822,,,,,,,,,,,,,,,6,001,2022-12-16_11h01.12.981,00_bat_bachelor,2022.2.4,59.95154464480134,
,,,,,,,,,,,,0,0,0,0,61,0,61,0,,,,,,,61,,,1,3799.1333167838457,Y,l,go,l,1,,0.3307951533643063,,,,,,,,,,,,,,,6,001,2022-12-16_11h01.12.981,00_bat_bachelor,2022.2.4,59.95154464480134,
,,,,,,,,,,,,0,0,0,0,62,0,62,0,,,,,,,62,,,1,3800.566327967841,X,d,go,d,1,,0.32172315777279437,,,,,,,,,,,,,,,6,001,2022-12-16_11h01.12.981,00_bat_bachelor,2022.2.4,59.95154464480134,
,,,,,,,,,,,,0,0,0,0,63,0,63,0,,,,,,,63,,,1,3801.999771151619,Y,l,go,l,1,,0.34473017691925634,,,,,,,,,,,,,,,6,001,2022-12-16_11h01.12.981,00_bat_bachelor,2022.2.4,59.95154464480134,
,,,,,,,,,,,,0,0,0,0,64,0,64,0,,,,,,,64,,,1,3803.4495963880763,X,d,go,d,1,,0.3012014707637718,,,,,,,,,,,,,,,6,001,2022-12-16_11h01.12.981,00_bat_bachelor,2022.2.4,59.95154464480134,
,,,,,,,,,,,,0,0,0,0,65,0,65,0,,,,,,,65,,,1,3804.88313169303,Y,l,go,l,1,,0.24464974059083033,,,,,,,,,,,,,,,6,001,2022-12-16_11h01.12.981,00_bat_bachelor,2022.2.4,59.95154464480134,
,,,,,,,,,,,,0,0,0,0,66,0,66,0,,,,,,,66,,,1,3806.2333109171886,Y,None,nogo,None,1,3807.033317317182,,,,,,,,,,,,,,,,6,001,2022-12-16_11h01.12.981,00_bat_bachelor,2022.2.4,59.95154464480134,
,,,,,,,,,,,,0,0,0,0,67,0,67,0,,,,,,,67,,,1,3808.0331316202937,X,d,go,d,1,,0.343514177511679,,,,,,,,,,,,,,,6,001,2022-12-16_11h01.12.981,00_bat_bachelor,2022.2.4,59.95154464480134,
,,,,,,,,,,,,0,0,0,0,68,0,68,0,,,,,,,68,,,1,3809.483529947378,Y,l,go,l,1,,0.26808633530163206,,,,,,,,,,,,,,,6,001,2022-12-16_11h01.12.981,00_bat_bachelor,2022.2.4,59.95154464480134,
,,,,,,,,,,,,0,0,0,0,69,0,69,0,,,,,,,69,,,1,3810.86628951937,X,d,go,d,1,,0.4055156020040158,,,,,,,,,,,,,,,6,001,2022-12-16_11h01.12.981,00_bat_bachelor,2022.2.4,59.95154464480134,
,,,,,,,,,,,,0,0,0,0,70,0,70,0,,,,,,,70,,,1,3812.3829510870564,Y,l,go,l,1,,0.328625457448652,,,,,,,,,,,,,,,6,001,2022-12-16_11h01.12.981,00_bat_bachelor,2022.2.4,59.95154464480134,
,,,,,,,,,,,,0,0,0,0,71,0,71,0,,,,,,,71,,,1,3813.816338513294,X,d,go,d,1,,0.28713020484428853,,,,,,,,,,,,,,,6,001,2022-12-16_11h01.12.981,00_bat_bachelor,2022.2.4,59.95154464480134,
,,,,,,,,,,,,0,0,0,0,72,0,72,0,,,,,,,72,,,1,3815.2166394101077,X,None,nogo,None,1,3816.0166312646616,,,,,,,,,,,,,,,,6,001,2022-12-16_11h01.12.981,00_bat_bachelor,2022.2.4,59.95154464480134,
,,,,,,,,,,,,0,0,0,0,73,0,73,0,,,,,,,73,,,1,3817.0163238708774,Y,l,go,l,1,,0.2715835457202047,,,,,,,,,,,,,,,6,001,2022-12-16_11h01.12.981,00_bat_bachelor,2022.2.4,59.95154464480134,
,,,,,,,,,,,,0,0,0,0,74,0,74,0,,,,,,,74,,,1,3818.3996667153115,X,d,go,d,1,,0.3289381845825119,,,,,,,,,,,,,,,6,001,2022-12-16_11h01.12.981,00_bat_bachelor,2022.2.4,59.95154464480134,
,,,,,,,,,,,,0,0,0,0,75,0,75,0,,,,,,,75,,,1,3819.833430383791,Y,l,go,l,1,,0.41489305198774673,,,,,,,,,,,,,,,6,001,2022-12-16_11h01.12.981,00_bat_bachelor,2022.2.4,59.95154464480134,
,,,,,,,,,,,,0,0,0,0,76,0,76,0,,,,,,,76,,,1,3821.3501244362997,X,d,go,d,1,,0.337770180311054,,,,,,,,,,,,,,,6,001,2022-12-16_11h01.12.981,00_bat_bachelor,2022.2.4,59.95154464480134,
,,,,,,,,,,,,0,0,0,0,77,0,77,0,,,,,,,77,,,1,3822.8173237249284,X,None,nogo,None,1,3823.61795024584,,,,,,,,,,,,,,,,6,001,2022-12-16_11h01.12.981,00_bat_bachelor,2022.2.4,59.95154464480134,
,,,,,,,,,,,,0,0,0,0,78,0,78,0,,,,,,,78,,,1,3824.6176350944734,Y,l,go,l,1,,0.4308474685094552,,,,,,,,,,,,,,,6,001,2022-12-16_11h01.12.981,00_bat_bachelor,2022.2.4,59.95154464480134,
,,,,,,,,,,,,0,0,0,0,79,0,79,0,,,,,,,79,,,1,3826.184230698549,X,d,go,d,1,,0.39900408999528736,,,,,,,,,,,,,,,6,001,2022-12-16_11h01.12.981,00_bat_bachelor,2022.2.4,59.95154464480134,
,,,,,,,,,,,,0,0,0,0,80,0,80,0,,,,,,,80,,,1,3827.717615652058,Y,l,go,l,1,,0.3216528547782218,,,,,,,,,,,,,,,6,001,2022-12-16_11h01.12.981,00_bat_bachelor,2022.2.4,59.95154464480134,
,,,,,,,,,,,,0,0,0,0,81,0,81,0,,,,,,,81,,,1,3829.184225850069,X,d,go,d,1,,0.2789367542718537,,,,,,,,,,,,,,,6,001,2022-12-16_11h01.12.981,00_bat_bachelor,2022.2.4,59.95154464480134,
,,,,,,,,,,,,0,0,0,0,82,0,82,0,,,,,,,82,,,1,3830.6009955873888,Y,l,go,l,1,,0.2711355459323386,,,,,,,,,,,,,,,6,001,2022-12-16_11h01.12.981,00_bat_bachelor,2022.2.4,59.95154464480134,
,,,,,,,,,,,,0,0,0,0,83,0,83,0,,,,,,,83,,,1,3832.016892597865,Y,None,nogo,None,1,3832.816871361516,,,,,,,,,,,,,,,,6,001,2022-12-16_11h01.12.981,00_bat_bachelor,2022.2.4,59.95154464480134,
,,,,,,,,,,,,0,0,0,0,84,0,84,0,,,,,,,84,,,1,3833.816897543322,X,d,go,d,1,,0.36650762091448996,,,,,,,,,,,,,,,6,001,2022-12-16_11h01.12.981,00_bat_bachelor,2022.2.4,59.95154464480134,
,,,,,,,,,,,,0,0,0,0,85,0,85,0,,,,,,,85,,,1,3835.2837244684924,Y,l,go,l,1,,0.35486544473678805,,,,,,,,,,,,,,,6,001,2022-12-16_11h01.12.981,00_bat_bachelor,2022.2.4,59.95154464480134,
,,,,,,,,,,,,0,0,0,0,86,0,86,0,,,,,,,86,,,1,3836.7668888402986,X,d,go,d,1,,0.31273649547074456,,,,,,,,,,,,,,,6,001,2022-12-16_11h01.12.981,00_bat_bachelor,2022.2.4,59.95154464480134,
,,,,,,,,,,,,0,0,0,0,87,0,87,0,,,,,,,87,,,1,3838.1834646383213,X,None,nogo,None,1,3838.9835772200895,,,,,,,,,,,,,,,,6,001,2022-12-16_11h01.12.981,00_bat_bachelor,2022.2.4,59.95154464480134,
,,,,,,,,,,,,0,0,0,0,88,0,88,0,,,,,,,88,,,1,3839.983427886822,Y,l,go,l,1,,0.2167947238049237,,,,,,,,,,,,,,,6,001,2022-12-16_11h01.12.981,00_bat_bachelor,2022.2.4,59.95154464480134,
,,,,,,,,,,,,0,0,0,0,89,0,89,0,,,,,,,89,,,1,3841.2998733091517,X,d,go,d,1,,0.3233381872996688,,,,,,,,,,,,,,,6,001,2022-12-16_11h01.12.981,00_bat_bachelor,2022.2.4,59.95154464480134,
,,,,,,,,,,,,0,0,0,0,90,0,90,0,,,,,,,90,,,1,3842.732932977975,X,None,nogo,None,1,3843.53324434752,,,,,,,,,,,,,,,,6,001,2022-12-16_11h01.12.981,00_bat_bachelor,2022.2.4,59.95154464480134,
,,,,,,,,,,,,0,0,0,0,91,0,91,0,,,,,,,91,,,1,3844.532937923417,X,None,nogo,None,1,3845.332957899169,,,,,,,,,,,,,,,,6,001,2022-12-16_11h01.12.981,00_bat_bachelor,2022.2.4,59.95154464480134,
,,,,,,,,,,,,0,0,0,0,92,0,92,0,,,,,,,92,,,1,3846.333319111116,Y,l,go,l,1,,0.331781334723928,,,,,,,,,,,,,,,6,001,2022-12-16_11h01.12.981,00_bat_bachelor,2022.2.4,59.95154464480134,
,,,,,,,,,,,,0,0,0,0,93,0,93,0,,,,,,,93,,,1,3847.7664335677837,X,d,go,d,1,,0.43318977039598394,,,,,,,,,,,,,,,6,001,2022-12-16_11h01.12.981,00_bat_bachelor,2022.2.4,59.95154464480134,
,,,,,,,,,,,,0,0,0,0,94,0,94,0,,,,,,,94,,,1,3849.299643006234,Y,l,go,l,1,,0.3730128298775526,,,,,,,,,,,,,,,6,001,2022-12-16_11h01.12.981,00_bat_bachelor,2022.2.4,59.95154464480134,
,,,,,,,,,,,,0,0,0,0,95,0,95,0,,,,,,,95,,,1,3850.7834434989345,Y,None,nogo,None,1,3851.583117293034,,,,,,,,,,,,,,,,6,001,2022-12-16_11h01.12.981,00_bat_bachelor,2022.2.4,59.95154464480134,
,,,,,,,,,,,,0,0,0,0,96,0,96,0,,,,,,,96,,,1,3852.583239474785,X,d,go,d,1,,0.2722933635668596,,,,,,,,,,,,,,,6,001,2022-12-16_11h01.12.981,00_bat_bachelor,2022.2.4,59.95154464480134,
,,,,,,,,,,,,0,0,0,0,97,0,97,0,,,,,,,97,,,1,3853.966707410087,Y,l,go,l,1,,0.32922133595275227,,,,,,,,,,,,,,,6,001,2022-12-16_11h01.12.981,00_bat_bachelor,2022.2.4,59.95154464480134,
,,,,,,,,,,,,0,0,0,0,98,0,98,0,,,,,,,98,,,1,3855.3996453819855,X,d,go,d,1,,0.5131863376591355,,,,,,,,,,,,,,,6,001,2022-12-16_11h01.12.981,00_bat_bachelor,2022.2.4,59.95154464480134,
,,,,,,,,,,,,0,0,0,0,99,0,99,0,,,,,,,99,,,1,3857.0167839918577,X,None,nogo,None,1,3857.816285664827,,,,,,,,,,,,,,,,6,001,2022-12-16_11h01.12.981,00_bat_bachelor,2022.2.4,59.95154464480134,
,,,,,,,,,,,,0,0,0,0,100,0,100,0,,,,,,,100,,,1,3858.8165770586347,Y,l,go,l,1,,0.35942883645475376,,,,,,,,,,,,,,,6,001,2022-12-16_11h01.12.981,00_bat_bachelor,2022.2.4,59.95154464480134,
,,,,,,,,,,,,0,0,0,0,101,0,101,0,,,,,,,101,,,1,3860.283388468655,X,d,go,d,1,,0.6049632628710242,,,,,,,,,,,,,,,6,001,2022-12-16_11h01.12.981,00_bat_bachelor,2022.2.4,59.95154464480134,
,,,,,,,,,,,,0,0,0,0,102,0,102,0,,,,,,,102,,,1,3861.9999762424413,Y,l,go,l,1,,0.3128407378389966,,,,,,,,,,,,,,,6,001,2022-12-16_11h01.12.981,00_bat_bachelor,2022.2.4,59.95154464480134,
,,,,,,,,,,,,0,0,0,0,103,0,103,0,,,,,,,103,,,1,3863.416270828471,X,d,go,d,1,,0.3670782872941345,,,,,,,,,,,,,,,6,001,2022-12-16_11h01.12.981,00_bat_bachelor,2022.2.4,59.95154464480134,
,,,,,,,,,,,,0,0,0,0,104,0,104,0,,,,,,,104,,,1,3864.899587442618,X,None,nogo,None,1,3865.6998750546045,,,,,,,,,,,,,,,,6,001,2022-12-16_11h01.12.981,00_bat_bachelor,2022.2.4,59.95154464480134,
,,,,,,,,,,,,0,0,0,0,105,0,105,0,,,,,,,105,,,1,3866.699583175956,Y,l,go,l,1,,0.30006547129596584,,,,,,,,,,,,,,,6,001,2022-12-16_11h01.12.981,00_bat_bachelor,2022.2.4,59.95154464480134,
,,,,,,,,,,,,0,0,0,0,106,0,106,0,,,,,,,106,,,1,3868.099916072766,X,d,go,d,1,,0.30834183092520107,,,,,,,,,,,,,,,6,001,2022-12-16_11h01.12.981,00_bat_bachelor,2022.2.4,59.95154464480134,
,,,,,,,,,,,,0,0,0,0,107,0,107,0,,,,,,,107,,,1,3869.5163115072355,X,None,nogo,None,1,3870.31659717983,,,,,,,,,,,,,,,,6,001,2022-12-16_11h01.12.981,00_bat_bachelor,2022.2.4,59.95154464480134,
,,,,,,,,,,,,0,0,0,0,108,0,108,0,,,,,,,108,,,1,3871.3165249374433,X,None,nogo,None,1,3872.1166646707134,,,,,,,,,,,,,,,,6,001,2022-12-16_11h01.12.981,00_bat_bachelor,2022.2.4,59.95154464480134,
,,,,,,,,,,,,0,0,0,0,109,0,109,0,,,,,,,109,,,1,3873.1167747312575,Y,l,go,l,1,,0.29944922919094097,,,,,,,,,,,,,,,6,001,2022-12-16_11h01.12.981,00_bat_bachelor,2022.2.4,59.95154464480134,
,,,,,,,,,,,,0,0,0,0,110,0,110,0,,,,,,,110,,,1,3874.516767264591,X,d,go,d,1,,0.30754231616447214,,,,,,,,,,,,,,,6,001,2022-12-16_11h01.12.981,00_bat_bachelor,2022.2.4,59.95154464480134,
,,,,,,,,,,,,0,0,0,0,111,0,111,0,,,,,,,111,,,1,3875.9332577293244,X,None,nogo,None,1,3876.733319402032,,,,,,,,,,,,,,,,6,001,2022-12-16_11h01.12.981,00_bat_bachelor,2022.2.4,59.95154464480134,
,,,,,,,,,,,,0,0,0,0,112,0,112,0,,,,,,,112,,,1,3877.7332587959972,X,None,nogo,None,1,,,,,,,,,,,,,,,,,6,001,2022-12-16_11h01.12.981,00_bat_bachelor,2022.2.4,59.95154464480134,
,,,,,,,,,,,,0,0,0,0,113,0,113,0,,,,,,,113,,,1,3879.5339061653794,Y,l,go,l,1,,0.37757428221812006,,,,,,,,,,,,,,,6,001,2022-12-16_11h01.12.981,00_bat_bachelor,2022.2.4,59.95154464480134,
,,,,,,,,,,,,0,0,0,0,114,0,114,0,,,,,,,114,,,1,3881.0170875068725,X,d,go,d,1,,0.35062981041846797,,,,,,,,,,,,,,,6,001,2022-12-16_11h01.12.981,00_bat_bachelor,2022.2.4,59.95154464480134,
,,,,,,,,,,,,0,0,0,0,115,0,115,0,,,,,,,115,,,1,3882.5007507875125,Y,l,go,l,1,,0.5157696091482649,,,,,,,,,,,,,,,6,001,2022-12-16_11h01.12.981,00_bat_bachelor,2022.2.4,59.95154464480134,
,,,,,,,,,,,,0,0,0,0,116,0,116,0,,,,,,,116,,,1,3884.1339257532527,Y,None,nogo,None,1,3884.933886577506,,,,,,,,,,,,,,,,6,001,2022-12-16_11h01.12.981,00_bat_bachelor,2022.2.4,59.95154464480134,
,,,,,,,,,,,,0,0,0,0,117,0,117,0,,,,,,,117,,,1,3885.933698456385,X,d,go,d,1,,0.3133440103265457,,,,,,,,,,,,,,,6,001,2022-12-16_11h01.12.981,00_bat_bachelor,2022.2.4,59.95154464480134,
,,,,,,,,,,,,0,0,0,0,118,0,118,0,,,,,,,118,,,1,3887.367011215989,Y,l,go,l,1,,0.4000499076792039,,,,,,,,,,,,,,,6,001,2022-12-16_11h01.12.981,00_bat_bachelor,2022.2.4,59.95154464480134,
,,,,,,,,,,,,0,0,0,0,119,0,119,0,,,,,,,119,,,1,3888.9003370180144,Y,None,nogo,None,1,3889.700375418004,,,,,,,,,,,,,,,,6,001,2022-12-16_11h01.12.981,00_bat_bachelor,2022.2.4,59.95154464480134,
,,,,,,,,,,,,0,0,0,0,120,0,120,0,,,,,,,120,,,1,3890.7005203876324,X,d,go,d,1,,0.23435883648926392,,,,,,,,,,,,,,,6,001,2022-12-16_11h01.12.981,00_bat_bachelor,2022.2.4,59.95154464480134,
,,,,,,,,,,,,0,0,0,0,121,0,121,0,,,,,,,121,,,1,3892.0671766947053,Y,l,go,l,1,,0.3561018077743938,,,,,,,,,,,,,,,6,001,2022-12-16_11h01.12.981,00_bat_bachelor,2022.2.4,59.95154464480134,
,,,,,,,,,,,,0,0,0,0,122,0,122,0,,,,,,,122,,,1,3893.56698930086,X,d,go,d,1,,0.3932474867324345,,,,,,,,,,,,,,,6,001,2022-12-16_11h01.12.981,00_bat_bachelor,2022.2.4,59.95154464480134,
,,,,,,,,,,,,0,0,0,0,123,0,123,0,,,,,,,123,,,1,3895.0838583835866,Y,l,go,l,1,,0.3474928422510857,,,,,,,,,,,,,,,6,001,2022-12-16_11h01.12.981,00_bat_bachelor,2022.2.4,59.95154464480134,
,,,,,,,,,,,,0,0,0,0,124,0,124,0,,,,,,,124,,,1,3896.550289672581,X,d,go,d,1,,0.4341289214498829,,,,,,,,,,,,,,,6,001,2022-12-16_11h01.12.981,00_bat_bachelor,2022.2.4,59.95154464480134,
,,,,,,,,,,,,0,0,0,0,125,0,125,0,,,,,,,125,,,1,3898.100489648248,Y,l,go,l,1,,0.30725140721187927,,,,,,,,,,,,,,,6,001,2022-12-16_11h01.12.981,00_bat_bachelor,2022.2.4,59.95154464480134,
,,,,,,,,,,,,0,0,0,0,126,0,126,0,,,,,,,126,,,1,3899.5504007028358,X,d,go,d,1,,0.4419097661593696,,,,,,,,,,,,,,,6,001,2022-12-16_11h01.12.981,00_bat_bachelor,2022.2.4,59.95154464480134,
,,,,,,,,,,,,0,0,0,0,127,0,127,0,,,,,,,127,,,1,3901.117235337093,X,None,nogo,None,1,3901.917043434165,,,,,,,,,,,,,,,,6,001,2022-12-16_11h01.12.981,00_bat_bachelor,2022.2.4,59.95154464480134,
,,,,,,,,,,,,0,0,0,0,128,0,128,0,,,,,,,128,,,1,3902.916953252381,Y,l,go,l,1,,0.2896489915001439,,,,,,,,,,,,,,,6,001,2022-12-16_11h01.12.981,00_bat_bachelor,2022.2.4,59.95154464480134,
,,,,,,,,,,,,0,0,0,0,129,0,129,0,,,,,,,129,,,1,3904.350309163492,X,d,go,l,0,,0.29832001760951243,,,,,,,,,,,,,,,6,001,2022-12-16_11h01.12.981,00_bat_bachelor,2022.2.4,59.95154464480134,
,,,,,,,,,,,,0,0,0,0,130,0,130,0,,,,,,,130,,,1,3905.767163749246,Y,l,go,l,1,,0.5762728525442071,,,,,,,,,,,,,,,6,001,2022-12-16_11h01.12.981,00_bat_bachelor,2022.2.4,59.95154464480134,
,,,,,,,,,,,,0,0,0,0,131,0,131,0,,,,,,,131,,,1,3907.4836497048964,X,d,go,d,1,,0.34780120573122986,,,,,,,,,,,,,,,6,001,2022-12-16_11h01.12.981,00_bat_bachelor,2022.2.4,59.95154464480134,
,,,,,,,,,,,,0,0,0,0,132,0,132,0,,,,,,,132,,,1,3908.933703304865,X,None,nogo,d,0,,0.48239023139467463,,,,,,,,,,,,,,,6,001,2022-12-16_11h01.12.981,00_bat_bachelor,2022.2.4,59.95154464480134,
,,,,,,,,,,,,0,0,0,0,133,0,133,0,,,,,,,133,,,1,3910.5504855512845,Y,l,go,None,0,3911.350550617921,,,,,,,,,,,,,,,,6,001,2022-12-16_11h01.12.981,00_bat_bachelor,2022.2.4,59.95154464480134,
,,,,,,,,,,,,0,0,0,0,134,0,134,0,,,,,,,134,,,1,3912.350690254214,X,d,go,d,1,,0.2340916851098882,,,,,,,,,,,,,,,6,001,2022-12-16_11h01.12.981,00_bat_bachelor,2022.2.4,59.95154464480134,
,,,,,,,,,,,,0,0,0,0,135,0,135,0,,,,,,,135,,,1,3913.7004263270646,X,None,nogo,None,1,3914.50030812106,,,,,,,,,,,,,,,,6,001,2022-12-16_11h01.12.981,00_bat_bachelor,2022.2.4,59.95154464480134,
,,,,,,,,,,,,0,0,0,0,136,0,136,0,,,,,,,136,,,1,3915.500454060384,Y,l,go,l,1,,0.2669915479491465,,,,,,,,,,,,,,,6,001,2022-12-16_11h01.12.981,00_bat_bachelor,2022.2.4,59.95154464480134,
,,,,,,,,,,,,0,0,0,0,137,0,137,0,,,,,,,137,,,1,3916.8836121776403,X,d,go,d,1,,0.33991902774141636,,,,,,,,,,,,,,,6,001,2022-12-16_11h01.12.981,00_bat_bachelor,2022.2.4,59.95154464480134,
,,,,,,,,,,,,0,0,0,0,138,0,138,0,,,,,,,138,,,1,3918.349933890946,Y,l,go,l,1,,0.28217408603813965,,,,,,,,,,,,,,,6,001,2022-12-16_11h01.12.981,00_bat_bachelor,2022.2.4,59.95154464480134,
,,,,,,,,,,,,0,0,0,0,139,0,139,0,,,,,,,139,,,1,3919.733619523089,Y,None,nogo,l,0,,0.6426713658001972,,,,,,,,,,,,,,,6,001,2022-12-16_11h01.12.981,00_bat_bachelor,2022.2.4,59.95154464480134,
,,,,,,,,,,,,0,0,0,0,140,0,140,0,,,,,,,140,,,1,3921.483309826275,X,d,go,d,1,,0.26796075960737653,,,,,,,,,,,,,,,6,001,2022-12-16_11h01.12.981,00_bat_bachelor,2022.2.4,59.95154464480134,
,,,,,,,,,,,,0,0,0,0,141,0,141,0,,,,,,,141,,,1,3922.8666206707276,Y,l,go,l,1,,0.29332802003773395,,,,,,,,,,,,,,,6,001,2022-12-16_11h01.12.981,00_bat_bachelor,2022.2.4,59.95154464480134,
,,,,,,,,,,,,0,0,0,0,142,0,142,0,,,,,,,142,,,1,3924.2666083555814,Y,None,nogo,None,1,3925.066564331355,,,,,,,,,,,,,,,,6,001,2022-12-16_11h01.12.981,00_bat_bachelor,2022.2.4,59.95154464480134,
,,,,,,,,,,,,0,0,0,0,143,0,143,0,,,,,,,143,,,1,3926.067227118925,X,d,go,d,1,,0.27638596763426904,,,,,,,,,,,,,,,6,001,2022-12-16_11h01.12.981,00_bat_bachelor,2022.2.4,59.95154464480134,
,,,,,,,,,,,,0,0,0,0,144,0,144,0,,,,,,,144,,,1,3927.4835600079678,Y,l,go,l,1,,0.3642235008155694,,,,,,,,,,,,,,,6,001,2022-12-16_11h01.12.981,00_bat_bachelor,2022.2.4,59.95154464480134,
,,,,,,,,,,,,0,0,0,0,145,0,145,0,,,,,,,145,,,1,3928.9503956604167,X,d,go,d,1,,0.3697308920818614,,,,,,,,,,,,,,,6,001,2022-12-16_11h01.12.981,00_bat_bachelor,2022.2.4,59.95154464480134,
,,,,,,,,,,,,0,0,0,0,146,0,146,0,,,,,,,146,,,1,3930.4336948200216,Y,l,go,l,1,,0.3903820335690398,,,,,,,,,,,,,,,6,001,2022-12-16_11h01.12.981,00_bat_bachelor,2022.2.4,59.95154464480134,
,,,,,,,,,,,,0,0,0,0,147,0,147,0,,,,,,,147,,,1,3931.933707183649,Y,None,nogo,None,1,3932.733477947404,,,,,,,,,,,,,,,,6,001,2022-12-16_11h01.12.981,00_bat_bachelor,2022.2.4,59.95154464480134,
,,,,,,,,,,,,0,0,0,0,148,0,148,0,,,,,,,148,,,1,3933.73346340195,X,d,go,d,1,,0.2421770145301707,,,,,,,,,,,,,,,6,001,2022-12-16_11h01.12.981,00_bat_bachelor,2022.2.4,59.95154464480134,
,,,,,,,,,,,,0,0,0,0,149,0,149,0,,,,,,,149,,,1,3935.0836324442935,Y,l,go,l,1,,0.3489328415453201,,,,,,,,,,,,,,,6,001,2022-12-16_11h01.12.981,00_bat_bachelor,2022.2.4,59.95154464480134,
,,,,,,,,,,,,0,0,0,0,150,0,150,0,,,,,,,150,,,1,3936.533625438242,Y,None,nogo,None,1,3937.333713292741,,,,,,,,,,,,,,,,6,001,2022-12-16_11h01.12.981,00_bat_bachelor,2022.2.4,59.95154464480134,
,,,,,,,,,,,,0,0,0,0,151,0,151,0,,,,,,,151,,,1,3938.3335862624954,X,d,go,d,1,,0.2176674506481504,,,,,,,,,,,,,,,6,001,2022-12-16_11h01.12.981,00_bat_bachelor,2022.2.4,59.95154464480134,
,,,,,,,,,,,,0,0,0,0,152,0,152,0,,,,,,,152,,,1,3939.6835138504102,Y,l,go,l,1,,0.29142256641353015,,,,,,,,,,,,,,,6,001,2022-12-16_11h01.12.981,00_bat_bachelor,2022.2.4,59.95154464480134,
,,,,,,,,,,,,0,0,0,0,153,0,153,0,,,,,,,153,,,1,3941.100267102898,Y,None,nogo,None,1,3941.900286108954,,,,,,,,,,,,,,,,6,001,2022-12-16_11h01.12.981,00_bat_bachelor,2022.2.4,59.95154464480134,
,,,,,,,,,,,,0,0,0,0,154,0,154,0,,,,,,,154,,,1,3942.9001144726644,X,d,go,d,1,,0.3557410806824919,,,,,,,,,,,,,,,6,001,2022-12-16_11h01.12.981,00_bat_bachelor,2022.2.4,59.95154464480134,
,,,,,,,,,,,,0,0,0,0,155,0,155,0,,,,,,,155,,,1,3944.3669845493423,Y,l,go,l,1,,0.23301823108340614,,,,,,,,,,,,,,,6,001,2022-12-16_11h01.12.981,00_bat_bachelor,2022.2.4,59.95154464480134,
,,,,,,,,,,,,0,0,0,0,156,0,156,0,,,,,,,156,,,1,3945.7002915392513,Y,None,nogo,None,1,3946.500339636201,,,,,,,,,,,,,,,,6,001,2022-12-16_11h01.12.981,00_bat_bachelor,2022.2.4,59.95154464480134,
,,,,,,,,,,,,0,0,0,0,157,0,157,0,,,,,,,157,,,1,3947.5001500605285,X,d,go,d,1,,0.31572849402436987,,,,,,,,,,,,,,,6,001,2022-12-16_11h01.12.981,00_bat_bachelor,2022.2.4,59.95154464480134,
,,,,,,,,,,,,0,0,0,0,158,0,158,0,,,,,,,158,,,1,3948.916980888738,Y,l,go,l,1,,0.25795834021118935,,,,,,,,,,,,,,,6,001,2022-12-16_11h01.12.981,00_bat_bachelor,2022.2.4,59.95154464480134,
,,,,,,,,,,,,0,0,0,0,159,0,159,0,,,,,,,159,,,1,3950.300140460531,Y,None,nogo,None,1,3951.100308314999,,,,,,,,,,,,,,,,6,001,2022-12-16_11h01.12.981,00_bat_bachelor,2022.2.4,59.95154464480134,
,,,,,,,,,,,,0,0,0,0,160,0,160,0,,,,,,,160,,,1,3952.1003441937646,X,d,go,d,1,,0.3080324977490818,,,,,,,,,,,,,,,6,001,2022-12-16_11h01.12.981,00_bat_bachelor,2022.2.4,59.95154464480134,
,,,,,,,,,,,,0,0,0,0,161,0,161,0,,,,,,,161,,,1,3953.516809931243,Y,l,go,l,1,,0.2674007598689059,,,,,,,,,,,,,,,6,001,2022-12-16_11h01.12.981,00_bat_bachelor,2022.2.4,59.95154464480134,
,,,,,,,,,,,,0,0,0,0,162,0,162,0,,,,,,,162,,,1,3954.90046404826,Y,None,nogo,None,1,3955.700190205971,,,,,,,,,,,,,,,,6,001,2022-12-16_11h01.12.981,00_bat_bachelor,2022.2.4,59.95154464480134,
,,,,,,,,,,,,0,0,0,0,163,0,163,0,,,,,,,163,,,1,3956.7004942058265,X,d,go,d,1,,0.2504063438682351,,,,,,,,,,,,,,,6,001,2022-12-16_11h01.12.981,00_bat_bachelor,2022.2.4,59.95154464480134,
,,,,,,,,,,,,0,0,0,0,164,0,164,0,,,,,,,164,,,1,3958.067013785694,Y,l,go,l,1,,0.3244538231228944,,,,,,,,,,,,,,,6,001,2022-12-16_11h01.12.981,00_bat_bachelor,2022.2.4,59.95154464480134,
,,,,,,,,,,,,0,0,0,0,165,0,165,0,,,,,,,165,,,1,3959.500107393891,X,d,go,d,1,,0.34785308450227603,,,,,,,,,,,,,,,6,001,2022-12-16_11h01.12.981,00_bat_bachelor,2022.2.4,59.95154464480134,
,,,,,,,,,,,,0,0,0,0,166,0,166,0,,,,,,,166,,,1,3960.9504005088966,Y,l,go,l,1,,0.2888601434096927,,,,,,,,,,,,,,,6,001,2022-12-16_11h01.12.981,00_bat_bachelor,2022.2.4,59.95154464480134,
,,,,,,,,,,,,0,0,0,0,167,0,167,0,,,,,,,167,,,1,3962.366791094886,X,d,go,d,1,,0.34451296490442473,,,,,,,,,,,,,,,6,001,2022-12-16_11h01.12.981,00_bat_bachelor,2022.2.4,59.95154464480134,
,,,,,,,,,,,,0,0,0,0,168,0,168,0,,,,,,,168,,,1,3963.8336820200348,Y,l,go,l,1,,0.25319810009386856,,,,,,,,,,,,,,,6,001,2022-12-16_11h01.12.981,00_bat_bachelor,2022.2.4,59.95154464480134,
,,,,,,,,,,,,0,0,0,0,169,0,169,0,,,,,,,169,,,1,3965.216801834278,Y,None,nogo,None,1,3966.017111749272,,,,,,,,,,,,,,,,6,001,2022-12-16_11h01.12.981,00_bat_bachelor,2022.2.4,59.95154464480134,
,,,,,,,,,,,,0,0,0,0,170,0,170,0,,,,,,,170,,,1,3967.017069567475,X,d,go,d,1,,0.39885960522224195,,,,,,,,,,,,,,,6,001,2022-12-16_11h01.12.981,00_bat_bachelor,2022.2.4,59.95154464480134,
,,,,,,,,,,,,0,0,0,0,171,0,171,0,,,,,,,171,,,1,3968.5167396282486,Y,l,go,l,1,,0.30635007431556005,,,,,,,,,,,,,,,6,001,2022-12-16_11h01.12.981,00_bat_bachelor,2022.2.4,59.95154464480134,
,,,,,,,,,,,,0,0,0,0,172,0,172,0,,,,,,,172,,,1,3969.9334599110443,X,d,go,d,1,,0.5534151666652178,,,,,,,,,,,,,,,6,001,2022-12-16_11h01.12.981,00_bat_bachelor,2022.2.4,59.95154464480134,
,,,,,,,,,,,,0,0,0,0,173,0,173,0,,,,,,,173,,,1,3971.616922852394,X,None,nogo,None,1,3972.4169641614717,,,,,,,,,,,,,,,,6,001,2022-12-16_11h01.12.981,00_bat_bachelor,2022.2.4,59.95154464480134,
,,,,,,,,,,,,0,0,0,0,174,0,174,0,,,,,,,174,,,1,3973.4170548280963,Y,l,go,l,1,,0.3823859162366716,,,,,,,,,,,,,,,6,001,2022-12-16_11h01.12.981,00_bat_bachelor,2022.2.4,59.95154464480134,
,,,,,,,,,,,,0,0,0,0,175,0,175,0,,,,,,,175,,,1,3974.900437866454,X,d,go,d,1,,0.4194923225004459,,,,,,,,,,,,,,,6,001,2022-12-16_11h01.12.981,00_bat_bachelor,2022.2.4,59.95154464480134,
,,,,,,,,,,,,0,0,0,0,176,0,176,0,,,,,,,176,,,1,3976.433638577626,X,None,nogo,None,1,3977.2334709170973,,,,,,,,,,,,,,,,6,001,2022-12-16_11h01.12.981,00_bat_bachelor,2022.2.4,59.95154464480134,
,,,,,,,,,,,,0,0,0,0,177,0,177,0,,,,,,,177,,,1,3978.233324008077,Y,l,go,l,1,,0.5436241410934599,,,,,,,,,,,,,,,6,001,2022-12-16_11h01.12.981,00_bat_bachelor,2022.2.4,59.95154464480134,
,,,,,,,,,,,,0,0,0,0,178,0,178,0,,,,,,,178,,,1,3979.883470601955,X,d,go,d,1,,0.30061334984202404,,,,,,,,,,,,,,,6,001,2022-12-16_11h01.12.981,00_bat_bachelor,2022.2.4,59.95154464480134,
,,,,,,,,,,,,0,0,0,0,179,0,179,0,,,,,,,179,,,1,3981.299983854551,X,None,nogo,d,0,,0.3722477393312147,,,,,,,,,,,,,,,6,001,2022-12-16_11h01.12.981,00_bat_bachelor,2022.2.4,59.95154464480134,
,,,,,,,,,,,,0,0,0,0,180,0,180,0,,,,,,,180,,,1,3982.783358165645,Y,l,go,l,1,,0.45690951646247413,,,,,,,,,,,,,,,6,001,2022-12-16_11h01.12.981,00_bat_bachelor,2022.2.4,59.95154464480134,
,,,,,,,,,,,,0,0,0,0,181,0,181,0,,,,,,,181,,,1,3984.3499537697207,X,d,go,d,1,,0.42528092574502807,,,,,,,,,,,,,,,6,001,2022-12-16_11h01.12.981,00_bat_bachelor,2022.2.4,59.95154464480134,
,,,,,,,,,,,,0,0,0,0,182,0,182,0,,,,,,,182,,,1,3985.8831927839055,Y,l,go,l,1,,0.44578903702495154,,,,,,,,,,,,,,,6,001,2022-12-16_11h01.12.981,00_bat_bachelor,2022.2.4,59.95154464480134,
,,,,,,,,,,,,0,0,0,0,183,0,183,0,,,,,,,183,,,1,3987.4332822141587,X,d,go,d,1,,0.5111810053203953,,,,,,,,,,,,,,,6,001,2022-12-16_11h01.12.981,00_bat_bachelor,2022.2.4,59.95154464480134,
,,,,,,,,,,,,0,0,0,0,184,0,184,0,,,,,,,184,,,1,3989.0499723394023,Y,l,go,l,1,,0.4302346203185152,,,,,,,,,,,,,,,6,001,2022-12-16_11h01.12.981,00_bat_bachelor,2022.2.4,59.95154464480134,
,,,,,,,,,,,,0,0,0,0,185,0,185,0,,,,,,,185,,,1,3990.5831890505797,Y,None,nogo,None,1,3991.3829714506865,,,,,,,,,,,,,,,,6,001,2022-12-16_11h01.12.981,00_bat_bachelor,2022.2.4,59.95154464480134,
,,,,,,,,,,,,0,0,0,0,186,0,186,0,,,,,,,186,,,1,3992.384184056151,X,d,go,d,1,,0.24751907253812533,,,,,,,,,,,,,,,6,001,2022-12-16_11h01.12.981,00_bat_bachelor,2022.2.4,59.95154464480134,
,,,,,,,,,,,,0,0,0,0,187,0,187,0,,,,,,,187,,,1,3993.7669625372364,Y,l,go,l,1,,0.3037881361669861,,,,,,,,,,,,,,,6,001,2022-12-16_11h01.12.981,00_bat_bachelor,2022.2.4,59.95154464480134,
,,,,,,,,,,,,0,0,0,0,188,0,188,0,,,,,,,188,,,1,3995.200201115047,Y,None,nogo,None,1,3996.00022739383,,,,,,,,,,,,,,,,6,001,2022-12-16_11h01.12.981,00_bat_bachelor,2022.2.4,59.95154464480134,
,,,,,,,,,,,,0,0,0,0,189,0,189,0,,,,,,,189,,,1,3997.0002632725955,X,d,go,d,1,,0.25498719012830406,,,,,,,,,,,,,,,6,001,2022-12-16_11h01.12.981,00_bat_bachelor,2022.2.4,59.95154464480134,
,,,,,,,,,,,,0,0,0,0,190,0,190,0,,,,,,,190,,,1,3998.383562480696,Y,l,go,l,1,,0.34418617718620226,,,,,,,,,,,,,,,6,001,2022-12-16_11h01.12.981,00_bat_bachelor,2022.2.4,59.95154464480134,
,,,,,,,,,,,,0,0,0,0,191,0,191,0,,,,,,,191,,,1,3999.850398617986,Y,None,nogo,None,1,4000.6504055028345,,,,,,,,,,,,,,,,6,001,2022-12-16_11h01.12.981,00_bat_bachelor,2022.2.4,59.95154464480134,
,,,,,,,,,,,,0,0,0,0,192,0,192,0,,,,,,,192,,,1,4001.6502377453435,X,d,go,d,1,,0.2285823544516461,,,,,,,,,,,,,,,6,001,2022-12-16_11h01.12.981,00_bat_bachelor,2022.2.4,59.95154464480134,
,,,,,,,,,,,,0,0,0,0,193,0,193,0,,,,,,,193,,,1,4003.000180848394,Y,l,go,l,1,,0.31952824974723626,,,,,,,,,,,,,,,6,001,2022-12-16_11h01.12.981,00_bat_bachelor,2022.2.4,59.95154464480134,
,,,,,,,,,,,,0,0,0,0,194,0,194,0,,,,,,,194,,,1,4004.4335435473768,X,d,go,d,1,,0.4695495103514986,,,,,,,,,,,,,,,6,001,2022-12-16_11h01.12.981,00_bat_bachelor,2022.2.4,59.95154464480134,
,,,,,,,,,,,,0,0,0,0,195,0,195,0,,,,,,,195,,,1,4006.033503983752,Y,l,go,l,1,,0.2931515352538554,,,,,,,,,,,,,,,6,001,2022-12-16_11h01.12.981,00_bat_bachelor,2022.2.4,59.95154464480134,
,,,,,,,,,,,,0,0,0,0,196,0,196,0,,,,,,,196,,,1,4007.4503159028827,X,d,go,d,1,,0.39741039380896837,,,,,,,,,,,,,,,6,001,2022-12-16_11h01.12.981,00_bat_bachelor,2022.2.4,59.95154464480134,
,,,,,,,,,,,,0,0,0,0,197,0,197,0,,,,,,,197,,,1,4008.950334084686,Y,l,go,l,1,,0.33767418035131413,,,,,,,,,,,,,,,6,001,2022-12-16_11h01.12.981,00_bat_bachelor,2022.2.4,59.95154464480134,
,,,,,,,,,,,,0,0,0,0,198,0,198,0,,,,,,,198,,,1,4010.400169987799,Y,None,nogo,None,1,4011.2003775998164,,,,,,,,,,,,,,,,6,001,2022-12-16_11h01.12.981,00_bat_bachelor,2022.2.4,59.95154464480134,
,,,,,,,,,,,,0,0,0,0,199,0,199,0,,,,,,,199,,,1,4012.2003334786277,X,d,go,d,1,,0.28681068985315505,,,,,,,,,,,,,,,6,001,2022-12-16_11h01.12.981,00_bat_bachelor,2022.2.4,59.95154464480134,
,,,,,,,,,,,,0,0,0,0,200,0,200,0,,,,,,,200,,,1,4013.616819094881,Y,l,go,l,1,,0.3123209805198712,,,,,,,,,,,,,,,6,001,2022-12-16_11h01.12.981,00_bat_bachelor,2022.2.4,59.95154464480134,
,,,,,,,,,,,,0,0,0,0,201,0,201,0,,,,,,,201,,,1,4015.0334278625814,Y,None,nogo,None,1,4015.8331758384593,,,,,,,,,,,,,,,,6,001,2022-12-16_11h01.12.981,00_bat_bachelor,2022.2.4,59.95154464480134,
,,,,,,,,,,,,0,0,0,0,202,0,202,0,,,,,,,202,,,1,4016.833218020256,X,d,go,d,1,,0.24655519421503413,,,,,,,,,,,,,,,6,001,2022-12-16_11h01.12.981,00_bat_bachelor,2022.2.4,59.95154464480134,
,,,,,,,,,,,,0,0,0,0,203,0,203,0,,,,,,,203,,,1,4018.1832105778303,Y,l,go,l,1,,0.3044533479551319,,,,,,,,,,,,,,,6,001,2022-12-16_11h01.12.981,00_bat_bachelor,2022.2.4,59.95154464480134,
,,,,,,,,,,,,0,0,0,0,204,0,204,0,,,,,,,204,,,1,4019.5996161941293,X,d,go,d,1,,0.47278344817459583,,,,,,,,,,,,,,,6,001,2022-12-16_11h01.12.981,00_bat_bachelor,2022.2.4,59.95154464480134,
,,,,,,,,,,,,0,0,0,0,205,0,205,0,,,,,,,205,,,1,4021.1827921537915,Y,l,go,l,1,,0.2968766243720893,,,,,,,,,,,,,,,6,001,2022-12-16_11h01.12.981,00_bat_bachelor,2022.2.4,59.95154464480134,
,,,,,,,,,,,,0,0,0,0,206,0,206,0,,,,,,,206,,,1,4022.5831735354295,Y,None,nogo,None,1,4023.383257996,,,,,,,,,,,,,,,,6,001,2022-12-16_11h01.12.981,00_bat_bachelor,2022.2.4,59.95154464480134,
,,,,,,,,,,,,0,0,0,0,207,0,207,0,,,,,,,207,,,1,4024.3828856325417,X,d,go,d,1,,0.31372946468763985,,,,,,,,,,,,,,,6,001,2022-12-16_11h01.12.981,00_bat_bachelor,2022.2.4,59.95154464480134,
,,,,,,,,,,,,0,0,0,0,208,0,208,0,,,,,,,208,,,1,4025.7998076122167,Y,l,go,l,1,,0.28803832562698517,,,,,,,,,,,,,,,6,001,2022-12-16_11h01.12.981,00_bat_bachelor,2022.2.4,59.95154464480134,
,,,,,,,,,,,,0,0,0,0,209,0,209,0,,,,,,,209,,,1,4027.1995325093158,X,d,go,d,1,,0.3283873969776323,,,,,,,,,,,,,,,6,001,2022-12-16_11h01.12.981,00_bat_bachelor,2022.2.4,59.95154464480134,
,,,,,,,,,,,,0,0,0,0,210,0,210,0,,,,,,,210,,,1,4028.6328355719597,X,None,nogo,None,1,4029.432862820424,,,,,,,,,,,,,,,,6,001,2022-12-16_11h01.12.981,00_bat_bachelor,2022.2.4,59.95154464480134,
,,,,,,,,,,,,0,0,0,0,211,0,211,0,,,,,,,211,,,1,4030.43285894164,Y,l,go,l,1,,0.374131859629415,,,,,,,,,,,,,,,6,001,2022-12-16_11h01.12.981,00_bat_bachelor,2022.2.4,59.95154464480134,
,,,,,,,,,,,,0,0,0,0,212,0,212,0,,,,,,,212,,,1,4031.9161804042815,X,d,go,d,1,,0.315821100040921,,,,,,,,,,,,,,,6,001,2022-12-16_11h01.12.981,00_bat_bachelor,2022.2.4,59.95154464480134,
,,,,,,,,,,,,0,0,0,0,213,0,213,0,,,,,,,213,,,1,4033.333174626343,Y,l,go,l,1,,0.3395810885122046,,,,,,,,,,,,,,,6,001,2022-12-16_11h01.12.981,00_bat_bachelor,2022.2.4,59.95154464480134,
,,,,,,,,,,,,0,0,0,0,214,0,214,0,,,,,,,214,,,1,4034.783132226352,X,d,go,d,1,,0.29691783647285774,,,,,,,,,,,,,,,6,001,2022-12-16_11h01.12.981,00_bat_bachelor,2022.2.4,59.95154464480134,
,,,,,,,,,,,,0,0,0,0,215,0,215,0,,,,,,,215,,,1,4036.18315482029,Y,l,go,l,1,,0.36896095305564813,,,,,,,,,,,,,,,6,001,2022-12-16_11h01.12.981,00_bat_bachelor,2022.2.4,59.95154464480134,
,,,,,,,,,,,,0,0,0,0,216,0,216,0,,,,,,,216,,,1,4037.666264404237,X,d,go,d,1,,0.42103220053832047,,,,,,,,,,,,,,,6,001,2022-12-16_11h01.12.981,00_bat_bachelor,2022.2.4,59.95154464480134,
,,,,,,,,,,,,0,0,0,0,217,0,217,0,,,,,,,217,,,1,4039.1998214788764,X,None,nogo,None,1,4039.999838060685,,,,,,,,,,,,,,,,6,001,2022-12-16_11h01.12.981,00_bat_bachelor,2022.2.4,59.95154464480134,
,,,,,,,,,,,,0,0,0,0,218,0,218,0,,,,,,,218,,,1,4040.999804606152,Y,l,go,l,1,,0.335701332820463,,,,,,,,,,,,,,,6,001,2022-12-16_11h01.12.981,00_bat_bachelor,2022.2.4,59.95154464480134,
,,,,,,,,,,,,0,0,0,0,219,0,219,0,,,,,,,219,,,1,4042.449817478875,X,d,go,d,1,,0.34202763276698533,,,,,,,,,,,,,,,6,001,2022-12-16_11h01.12.981,00_bat_bachelor,2022.2.4,59.95154464480134,
,,,,,,,,,,,,0,0,0,0,220,0,220,0,,,,,,,220,,,1,4043.899870594003,X,None,nogo,None,1,4044.6997363880073,,,,,,,,,,,,,,,,6,001,2022-12-16_11h01.12.981,00_bat_bachelor,2022.2.4,59.95154464480134,
,,,,,,,,,,,,0,0,0,0,221,0,221,0,,,,,,,221,,,1,4045.6996011153387,Y,l,go,l,1,,0.3721721030160552,,,,,,,,,,,,,,,6,001,2022-12-16_11h01.12.981,00_bat_bachelor,2022.2.4,59.95154464480134,
,,,,,,,,,,,,0,0,0,0,222,0,222,0,,,,,,,222,,,1,4047.1831310627167,X,d,go,d,1,,0.3287636392051354,,,,,,,,,,,,,,,6,001,2022-12-16_11h01.12.981,00_bat_bachelor,2022.2.4,59.95154464480134,
,,,,,,,,,,,,0,0,0,0,223,0,223,0,,,,,,,223,,,1,4048.616144186104,Y,l,go,l,1,,0.383666400477523,,,,,,,,,,,,,,,6,001,2022-12-16_11h01.12.981,00_bat_bachelor,2022.2.4,59.95154464480134,
,,,,,,,,,,,,0,0,0,0,224,0,224,0,,,,,,,224,,,1,4050.099888921264,Y,None,nogo,None,1,4050.8997770182905,,,,,,,,,,,,,,,,6,001,2022-12-16_11h01.12.981,00_bat_bachelor,2022.2.4,59.95154464480134,
,,,,,,,,,,,,0,0,0,0,225,0,225,0,,,,,,,225,,,1,4051.899885624298,X,d,go,d,1,,0.3325774555414682,,,,,,,,,,,,,,,6,001,2022-12-16_11h01.12.981,00_bat_bachelor,2022.2.4,59.95154464480134,
,,,,,,,,,,,,0,0,0,0,226,0,226,0,,,,,,,226,,,1,4053.333321050508,Y,l,go,l,1,,0.3392867856309749,,,,,,,,,,,,,,,6,001,2022-12-16_11h01.12.981,00_bat_bachelor,2022.2.4,59.95154464480134,
,,,,,,,,,,,,0,0,0,0,227,0,227,0,,,,,,,227,,,1,4054.783143862718,X,d,go,d,1,,0.36102738113550004,,,,,,,,,,,,,,,6,001,2022-12-16_11h01.12.981,00_bat_bachelor,2022.2.4,59.95154464480134,
,,,,,,,,,,,,0,0,0,0,228,0,228,0,,,,,,,228,,,1,4056.2503892119275,X,None,nogo,None,1,4057.0497197334626,,,,,,,,,,,,,,,,6,001,2022-12-16_11h01.12.981,00_bat_bachelor,2022.2.4,59.95154464480134,
,,,,,,,,,,,,0,0,0,0,229,0,229,0,,,,,,,229,,,1,4058.0497997334314,X,None,nogo,None,1,4058.849784315258,,,,,,,,,,,,,,,,6,001,2022-12-16_11h01.12.981,00_bat_bachelor,2022.2.4,59.95154464480134,
,,,,,,,,,,,,0,0,0,0,230,0,230,0,,,,,,,230,,,1,4059.849783345562,Y,l,go,l,1,,0.36618131803697906,,,,,,,,,,,,,,,6,001,2022-12-16_11h01.12.981,00_bat_bachelor,2022.2.4,59.95154464480134,
,,,,,,,,,,,,0,0,0,0,231,0,231,0,,,,,,,231,,,1,4061.3161147558276,X,d,go,d,1,,0.35659295904042665,,,,,,,,,,,,,,,6,001,2022-12-16_11h01.12.981,00_bat_bachelor,2022.2.4,59.95154464480134,
,,,,,,,,,,,,0,0,0,0,232,0,232,0,,,,,,,232,,,1,4062.782775378044,X,None,nogo,None,1,4063.583105656682,,,,,,,,,,,,,,,,6,001,2022-12-16_11h01.12.981,00_bat_bachelor,2022.2.4,59.95154464480134,
,,,,,,,,,,,,0,0,0,0,233,0,233,0,,,,,,,233,,,1,4064.5828016568266,Y,l,go,l,1,,0.5137448828463675,,,,,,,,,,,,,,,6,001,2022-12-16_11h01.12.981,00_bat_bachelor,2022.2.4,59.95154464480134,
,,,,,,,,,,,,0,0,0,0,234,0,234,0,,,,,,,234,,,1,4066.199740024371,X,d,go,d,1,,0.3841720971831819,,,,,,,,,,,,,,,6,001,2022-12-16_11h01.12.981,00_bat_bachelor,2022.2.4,59.95154464480134,
,,,,,,,,,,,,0,0,0,0,235,0,235,0,,,,,,,235,,,1,4067.6996151759377,X,None,nogo,None,1,4068.4994887275243,,,,,,,,,,,,,,,,6,001,2022-12-16_11h01.12.981,00_bat_bachelor,2022.2.4,59.95154464480134,
,,,,,,,,,,,,0,0,0,0,236,0,236,0,,,,,,,236,,,1,4069.4998014546436,Y,l,go,l,1,,0.41164990204561036,,,,,,,,,,,,,,,6,001,2022-12-16_11h01.12.981,00_bat_bachelor,2022.2.4,59.95154464480134,
,,,,,,,,,,,,0,0,0,0,237,0,237,0,,,,,,,237,,,1,4071.017434658206,X,d,go,d,1,,0.33358739444520324,,,,,,,,,,,,,,,6,001,2022-12-16_11h01.12.981,00_bat_bachelor,2022.2.4,59.95154464480134,
,,,,,,,,,,,,0,0,0,0,238,0,238,0,,,,,,,238,,,1,4072.4840419471293,Y,l,go,l,1,,0.35558302013669163,,,,,,,,,,,,,,,6,001,2022-12-16_11h01.12.981,00_bat_bachelor,2022.2.4,59.95154464480134,
,,,,,,,,,,,,0,0,0,0,239,0,239,0,,,,,,,239,,,1,4073.9833653413953,Y,None,nogo,None,1,4074.7834754989162,,,,,,,,,,,,,,,,6,001,2022-12-16_11h01.12.981,00_bat_bachelor,2022.2.4,59.95154464480134,
,,,,,,,,,,,,0,0,0,0,240,0,240,0,,,,,,,240,,,1,4075.783404711081,Y,None,nogo,None,1,4076.5833883232117,,,,,,,,,,,,,,,,6,001,2022-12-16_11h01.12.981,00_bat_bachelor,2022.2.4,59.95154464480134,
,,,,,,,,,,,,0,0,0,0,241,0,241,0,,,,,,,241,,,1,4077.583628323089,X,d,go,d,1,,0.34473017691925634,,,,,,,,,,,,,,,6,001,2022-12-16_11h01.12.981,00_bat_bachelor,2022.2.4,59.95154464480134,
,,,,,,,,,,,,0,0,0,0,242,0,242,0,,,,,,,242,,,1,4079.0334036201675,Y,l,go,l,1,,0.3174434022657806,,,,,,,,,,,,,,,6,001,2022-12-16_11h01.12.981,00_bat_bachelor,2022.2.4,59.95154464480134,
,,,,,,,,,,,,0,0,0,0,243,0,243,0,,,,,,,243,,,1,4080.4833170990023,Y,None,nogo,None,1,4081.28365610489,,,,,,,,,,,,,,,,6,001,2022-12-16_11h01.12.981,00_bat_bachelor,2022.2.4,59.95154464480134,
,,,,,,,,,,,,0,0,0,0,244,0,244,0,,,,,,,244,,,1,4082.2832978020306,X,d,go,d,1,,0.34767223610833753,,,,,,,,,,,,,,,6,001,2022-12-16_11h01.12.981,00_bat_bachelor,2022.2.4,59.95154464480134,
,,,,,,,,,,,,0,0,0,0,245,0,245,0,,,,,,,245,,,1,4083.7332670384203,Y,l,go,l,1,,0.4023471186810639,,,,,,,,,,,,,,,6,001,2022-12-16_11h01.12.981,00_bat_bachelor,2022.2.4,59.95154464480134,
,,,,,,,,,,,,0,0,0,0,246,0,246,0,,,,,,,246,,,1,4085.2502030301985,Y,None,nogo,None,1,4086.0503825210326,,,,,,,,,,,,,,,,6,001,2022-12-16_11h01.12.981,00_bat_bachelor,2022.2.4,59.95154464480134,
,,,,,,,,,,,,0,0,0,0,247,0,247,0,,,,,,,247,,,1,4087.0501502787083,X,d,go,d,1,,0.3331180613313336,,,,,,,,,,,,,,,6,001,2022-12-16_11h01.12.981,00_bat_bachelor,2022.2.4,59.95154464480134,
,,,,,,,,,,,,0,0,0,0,248,0,248,0,,,,,,,248,,,1,4088.483522674651,Y,l,go,l,1,,0.24408683177898638,,,,,,,,,,,,,,,6,001,2022-12-16_11h01.12.981,00_bat_bachelor,2022.2.4,59.95154464480134,
,,,,,,,,,,,,0,0,0,0,249,0,249,0,,,,,,,249,,,1,4089.8334754746757,Y,None,nogo,None,1,4090.659113862246,,,,,,,,,,,,,,,,6,001,2022-12-16_11h01.12.981,00_bat_bachelor,2022.2.4,59.95154464480134,
,,,,,,,,,,,,1,0,1,0,0,0,0,0,,,,,,,0,,,0.2,4118.550054036343,X,d,go,None,0,4119.3498393455375,,,,,,,,,4090.659113862246,space,27.67214916968078,,,,,6,001,2022-12-16_11h01.12.981,00_bat_bachelor,2022.2.4,59.95154464480134,
,,,,,,,,,,,,1,0,1,0,1,0,1,0,,,,,,,1,,,0.2,4119.549925551546,Y,l,go,None,0,4120.349476679039,,,,,,,,,,,,,,,,6,001,2022-12-16_11h01.12.981,00_bat_bachelor,2022.2.4,59.95154464480134,
,,,,,,,,,,,,1,0,1,0,2,0,2,0,,,,,,,2,,,0.2,4120.549457188143,X,d,go,d,1,,0.5306660867790924,,,,,,,,,,,,,,,6,001,2022-12-16_11h01.12.981,00_bat_bachelor,2022.2.4,59.95154464480134,
,,,,,,,,,,,,1,0,1,0,3,0,3,0,,,,,,,3,,,0.2,4121.383097996077,X,None,nogo,None,1,4122.182810093189,,,,,,,,,,,,,,,,6,001,2022-12-16_11h01.12.981,00_bat_bachelor,2022.2.4,59.95154464480134,
,,,,,,,,,,,,1,0,1,0,4,0,4,0,,,,,,,4,,,0.2,4122.383029147619,Y,l,go,l,1,,0.3779815547459293,,,,,,,,,,,,,,,6,001,2022-12-16_11h01.12.981,00_bat_bachelor,2022.2.4,59.95154464480134,
,,,,,,,,,,,,1,0,1,0,5,0,5,0,,,,,,,5,,,0.2,4123.06644796778,X,d,go,None,0,4123.8664141253685,,,,,,,,,,,,,,,,6,001,2022-12-16_11h01.12.981,00_bat_bachelor,2022.2.4,59.95154464480134,
,,,,,,,,,,,,1,0,1,0,6,0,6,0,,,,,,,6,,,0.2,4124.066172573977,X,None,nogo,None,1,4124.866369034484,,,,,,,,,,,,,,,,6,001,2022-12-16_11h01.12.981,00_bat_bachelor,2022.2.4,59.95154464480134,
,,,,,,,,,,,,1,0,1,0,7,0,7,0,,,,,,,7,,,0.2,4125.0661352406605,Y,l,go,l,1,,0.41377644648309797,,,,,,,,,,,,,,,6,001,2022-12-16_11h01.12.981,00_bat_bachelor,2022.2.4,59.95154464480134,
,,,,,,,,,,,,1,0,1,0,8,0,8,0,,,,,,,8,,,0.2,4125.78309489305,X,d,go,d,1,,0.44872673256031703,,,,,,,,,,,,,,,6,001,2022-12-16_11h01.12.981,00_bat_bachelor,2022.2.4,59.95154464480134,
,,,,,,,,,,,,1,0,1,0,9,0,9,0,,,,,,,9,,,0.2,4126.5330950142525,Y,l,go,l,1,,0.35488047503167763,,,,,,,,,,,,,,,6,001,2022-12-16_11h01.12.981,00_bat_bachelor,2022.2.4,59.95154464480134,
,,,,,,,,,,,,1,0,1,0,10,0,10,0,,,,,,,10,,,0.2,4127.19962317594,X,d,go,d,1,,0.43962613091571257,,,,,,,,,,,,,,,6,001,2022-12-16_11h01.12.981,00_bat_bachelor,2022.2.4,59.95154464480134,
,,,,,,,,,,,,1,0,1,0,11,0,11,0,,,,,,,11,,,0.2,4127.949457479044,Y,l,go,l,1,,0.34714278181490954,,,,,,,,,,,,,,,6,001,2022-12-16_11h01.12.981,00_bat_bachelor,2022.2.4,59.95154464480134,
,,,,,,,,,,,,1,0,1,0,12,0,12,0,,,,,,,12,,,0.2,4128.599455709351,X,d,go,d,1,,0.607475261655054,,,,,,,,,,,,,,,6,001,2022-12-16_11h01.12.981,00_bat_bachelor,2022.2.4,59.95154464480134,
,,,,,,,,,,,,1,0,1,0,13,0,13,0,,,,,,,13,,,0.2,4129.516117567939,Y,l,go,l,1,,0.28396414578310214,,,,,,,,,,,,,,,6,001,2022-12-16_11h01.12.981,00_bat_bachelor,2022.2.4,59.95154464480134,
,,,,,,,,,,,,1,0,1,0,14,0,14,0,,,,,,,14,,,0.2,4130.11613521642,X,d,go,d,1,,0.34040484568686225,,,,,,,,,,,,,,,6,001,2022-12-16_11h01.12.981,00_bat_bachelor,2022.2.4,59.95154464480134,
,,,,,,,,,,,,1,0,1,0,15,0,15,0,,,,,,,15,,,0.2,4130.766402052657,X,None,nogo,None,1,4131.566112210363,,,,,,,,,,,,,,,,6,001,2022-12-16_11h01.12.981,00_bat_bachelor,2022.2.4,59.95154464480134,
,,,,,,,,,,,,1,0,1,0,16,0,16,0,,,,,,,16,,,0.2,4131.766321567848,X,None,nogo,None,1,4132.566412331435,,,,,,,,,,,,,,,,6,001,2022-12-16_11h01.12.981,00_bat_bachelor,2022.2.4,59.95154464480134,
,,,,,,,,,,,,1,0,1,0,17,0,17,0,,,,,,,17,,,0.2,4132.766420961736,Y,l,go,l,1,,0.32948994188336655,,,,,,,,,,,,,,,6,001,2022-12-16_11h01.12.981,00_bat_bachelor,2022.2.4,59.95154464480134,
,,,,,,,,,,,,1,0,1,0,18,0,18,0,,,,,,,18,,,0.2,4133.399757381936,X,d,go,d,1,,0.33581866609165445,,,,,,,,,,,,,,,6,001,2022-12-16_11h01.12.981,00_bat_bachelor,2022.2.4,59.95154464480134,
,,,,,,,,,,,,1,0,1,0,19,0,19,0,,,,,,,19,,,0.2,4134.049471491162,Y,l,go,l,1,,0.31041116325650364,,,,,,,,,,,,,,,6,001,2022-12-16_11h01.12.981,00_bat_bachelor,2022.2.4,59.95154464480134,
,,,,,,,,,,,,1,0,1,0,20,0,20,0,,,,,,,20,,,0.2,4134.666105858851,X,d,go,d,1,,0.39825063581520226,,,,,,,,,,,,,,,6,001,2022-12-16_11h01.12.981,00_bat_bachelor,2022.2.4,59.95154464480134,
,,,,,,,,,,,,1,0,1,0,21,0,21,0,,,,,,,21,,,0.2,4135.36636539812,X,None,nogo,None,1,4136.166572040442,,,,,,,,,,,,,,,,6,001,2022-12-16_11h01.12.981,00_bat_bachelor,2022.2.4,59.95154464480134,
,,,,,,,,,,,,1,0,1,0,22,0,22,0,,,,,,,22,,,0.2,4136.366116186124,Y,l,go,l,1,,0.3457386612863047,,,,,,,,,,,,,,,6,001,2022-12-16_11h01.12.981,00_bat_bachelor,2022.2.4,59.95154464480134,
,,,,,,,,,,,,1,0,1,0,23,0,23,0,,,,,,,23,,,0.2,4137.01642762839,X,d,go,d,1,,0.33545939353643917,,,,,,,,,,,,,,,6,001,2022-12-16_11h01.12.981,00_bat_bachelor,2022.2.4,59.95154464480134,
,,,,,,,,,,,,1,0,1,0,24,0,24,0,,,,,,,24,,,0.2,4137.666119434609,Y,l,go,l,1,,0.29323395946994424,,,,,,,,,,,,,,,6,001,2022-12-16_11h01.12.981,00_bat_bachelor,2022.2.4,59.95154464480134,
,,,,,,,,,,,,1,0,1,0,25,0,25,0,,,,,,,25,,,0.2,4138.283675498824,Y,None,nogo,d,0,,0.28334790366352536,,,,,,,,,,,,,,,6,001,2022-12-16_11h01.12.981,00_bat_bachelor,2022.2.4,59.95154464480134,
,,,,,,,,,,,,1,0,1,0,26,0,26,0,,,,,,,26,,,0.2,4138.900757381445,X,d,go,None,0,4139.700764751149,,,,,,,,,,,,,,,,6,001,2022-12-16_11h01.12.981,00_bat_bachelor,2022.2.4,59.95154464480134,
,,,,,,,,,,,,1,0,1,0,27,0,27,0,,,,,,,27,,,0.2,4139.900813623841,Y,l,go,d,0,,0.2509716769272927,,,,,,,,,,,,,,,6,001,2022-12-16_11h01.12.981,00_bat_bachelor,2022.2.4,59.95154464480134,
,,,,,,,,,,,,1,0,1,0,28,0,28,0,,,,,,,28,,,0.2,4140.500749332976,X,d,go,None,0,4141.300987005583,,,,,,,,,,,,,,,,6,001,2022-12-16_11h01.12.981,00_bat_bachelor,2022.2.4,59.95154464480134,
,,,,,,,,,,,,1,0,1,0,29,0,29,0,,,,,,,29,,,0.2,4141.500719757227,Y,l,go,l,1,,0.3147626762947766,,,,,,,,,,,,,,,6,001,2022-12-16_11h01.12.981,00_bat_bachelor,2022.2.4,59.95154464480134,
,,,,,,,,,,,,1,0,1,0,30,0,30,0,,,,,,,30,,,0.2,4142.150745623876,X,d,go,d,1,,0.2570444012526423,,,,,,,,,,,,,,,6,001,2022-12-16_11h01.12.981,00_bat_bachelor,2022.2.4,59.95154464480134,
,,,,,,,,,,,,1,0,1,0,31,0,31,0,,,,,,,31,,,0.2,4142.75032593924,X,None,nogo,l,0,,0.29729359385964926,,,,,,,,,,,,,,,6,001,2022-12-16_11h01.12.981,00_bat_bachelor,2022.2.4,59.95154464480134,
,,,,,,,,,,,,1,0,1,0,32,0,32,0,,,,,,,32,,,0.2,4143.384080298623,Y,l,go,None,0,4144.184291304584,,,,,,,,,,,,,,,,6,001,2022-12-16_11h01.12.981,00_bat_bachelor,2022.2.4,59.95154464480134,
,,,,,,,,,,,,1,0,1,0,33,0,33,0,,,,,,,33,,,0.2,4144.384048298642,X,d,go,d,1,,0.055222438502823934,,,,,,,,,,,,,,,6,001,2022-12-16_11h01.12.981,00_bat_bachelor,2022.2.4,59.95154464480134,
,,,,,,,,,,,,1,0,1,0,34,0,34,0,,,,,,,34,,,0.2,4144.783650529134,X,None,nogo,l,0,,0.3118831625470193,,,,,,,,,,,,,,,6,001,2022-12-16_11h01.12.981,00_bat_bachelor,2022.2.4,59.95154464480134,
,,,,,,,,,,,,1,0,1,0,35,0,35,0,,,,,,,35,,,0.2,4145.416842949402,Y,l,go,None,0,4146.217010319029,,,,,,,,,,,,,,,,6,001,2022-12-16_11h01.12.981,00_bat_bachelor,2022.2.4,59.95154464480134,
,,,,,,,,,,,,1,0,1,0,36,0,36,0,,,,,,,36,,,0.2,4146.417136767443,X,d,go,d,1,,0.310619163166848,,,,,,,,,,,,,,,6,001,2022-12-16_11h01.12.981,00_bat_bachelor,2022.2.4,59.95154464480134,
,,,,,,,,,,,,1,0,1,0,37,0,37,0,,,,,,,37,,,0.2,4147.033294529305,Y,l,go,l,1,,0.4295655297173653,,,,,,,,,,,,,,,6,001,2022-12-16_11h01.12.981,00_bat_bachelor,2022.2.4,59.95154464480134,
,,,,,,,,,,,,1,0,1,0,38,0,38,0,,,,,,,38,,,0.2,4147.766841810022,Y,None,nogo,l,0,,0.4323582556389738,,,,,,,,,,,,,,,6,001,2022-12-16_11h01.12.981,00_bat_bachelor,2022.2.4,59.95154464480134,
,,,,,,,,,,,,1,0,1,0,39,0,39,0,,,,,,,39,,,0.2,4148.500207757475,X,d,go,d,1,,0.48351507932238746,,,,,,,,,,,,,,,6,001,2022-12-16_11h01.12.981,00_bat_bachelor,2022.2.4,59.95154464480134,
,,,,,,,,,,,,1,0,1,0,40,0,40,0,,,,,,,40,,,0.2,4149.2835770746315,Y,l,go,l,1,,0.37240919380565174,,,,,,,,,,,,,,,6,001,2022-12-16_11h01.12.981,00_bat_bachelor,2022.2.4,59.95154464480134,
,,,,,,,,,,,,1,0,1,0,41,0,41,0,,,,,,,41,,,0.2,4149.9668179554865,Y,None,nogo,None,1,4150.766689082811,,,,,,,,,,,,,,,,6,001,2022-12-16_11h01.12.981,00_bat_bachelor,2022.2.4,59.95154464480134,
,,,,,,,,,,,,1,0,1,0,42,0,42,0,,,,,,,42,,,0.2,4150.966814076688,X,d,go,d,1,,0.3201061888685217,,,,,,,,,,,,,,,6,001,2022-12-16_11h01.12.981,00_bat_bachelor,2022.2.4,59.95154464480134,
,,,,,,,,,,,,1,0,1,0,43,0,43,0,,,,,,,43,,,0.2,4151.616894731196,Y,l,go,l,1,,0.32570424674486276,,,,,,,,,,,,,,,6,001,2022-12-16_11h01.12.981,00_bat_bachelor,2022.2.4,59.95154464480134,
,,,,,,,,,,,,1,0,1,0,44,0,44,0,,,,,,,44,,,0.2,4152.266830900931,Y,None,nogo,None,1,4153.0666700282745,,,,,,,,,,,,,,,,6,001,2022-12-16_11h01.12.981,00_bat_bachelor,2022.2.4,59.95154464480134,
,,,,,,,,,,,,1,0,1,0,45,0,45,0,,,,,,,45,,,0.2,4153.266764476721,X,d,go,d,1,,0.42117038229480386,,,,,,,,,,,,,,,6,001,2022-12-16_11h01.12.981,00_bat_bachelor,2022.2.4,59.95154464480134,
,,,,,,,,,,,,1,0,1,0,46,0,46,0,,,,,,,46,,,0.2,4154.000175030218,Y,l,go,l,1,,0.27896148154104594,,,,,,,,,,,,,,,6,001,2022-12-16_11h01.12.981,00_bat_bachelor,2022.2.4,59.95154464480134,
,,,,,,,,,,,,1,0,1,0,47,0,47,0,,,,,,,47,,,0.2,4154.60022807261,X,d,go,None,0,4155.400242715026,,,,,,,,,,,,,,,,6,001,2022-12-16_11h01.12.981,00_bat_bachelor,2022.2.4,59.95154464480134,
,,,,,,,,,,,,1,0,1,0,48,0,48,0,,,,,,,48,,,0.2,4155.600170375677,X,None,nogo,None,1,4156.4002126544365,,,,,,,,,,,,,,,,6,001,2022-12-16_11h01.12.981,00_bat_bachelor,2022.2.4,59.95154464480134,
,,,,,,,,,,,,1,0,1,0,49,0,49,0,,,,,,,49,,,0.2,4156.6003250422655,Y,l,go,l,1,,0.3200989161268808,,,,,,,,,,,,,,,6,001,2022-12-16_11h01.12.981,00_bat_bachelor,2022.2.4,59.95154464480134,
,,,,,,,,,,,,1,0,1,0,50,0,50,0,,,,,,,50,,,0.2,4157.233325462628,X,d,go,d,1,,0.293905474289204,,,,,,,,,,,,,,,6,001,2022-12-16_11h01.12.981,00_bat_bachelor,2022.2.4,59.95154464480134,
,,,,,,,,,,,,1,0,1,0,51,0,51,0,,,,,,,51,,,0.2,4157.83336880806,Y,l,go,l,1,,0.269755182962399,,,,,,,,,,,,,,,6,001,2022-12-16_11h01.12.981,00_bat_bachelor,2022.2.4,59.95154464480134,
,,,,,,,,,,,,1,0,1,0,52,0,52,0,,,,,,,52,,,0.2,4158.416704282805,Y,None,nogo,d,0,,0.2786986937862821,,,,,,,,,,,,,,,6,001,2022-12-16_11h01.12.981,00_bat_bachelor,2022.2.4,59.95154464480134,
,,,,,,,,,,,,1,0,1,0,53,0,53,0,,,,,,,53,,,0.2,4158.999953454564,X,d,go,None,0,4159.800156702957,,,,,,,,,,,,,,,,6,001,2022-12-16_11h01.12.981,00_bat_bachelor,2022.2.4,59.95154464480134,
,,,,,,,,,,,,1,0,1,0,54,0,54,0,,,,,,,54,,,0.2,4159.999811878879,Y,l,go,l,1,,0.29545456444611773,,,,,,,,,,,,,,,6,001,2022-12-16_11h01.12.981,00_bat_bachelor,2022.2.4,59.95154464480134,
,,,,,,,,,,,,1,0,1,0,55,0,55,0,,,,,,,55,,,0.2,4160.599919224274,X,d,go,d,1,,0.304218681412749,,,,,,,,,,,,,,,6,001,2022-12-16_11h01.12.981,00_bat_bachelor,2022.2.4,59.95154464480134,
,,,,,,,,,,,,1,0,1,0,56,0,56,0,,,,,,,56,,,0.2,4161.216535652595,X,None,nogo,l,0,,0.3268198825826403,,,,,,,,,,,,,,,6,001,2022-12-16_11h01.12.981,00_bat_bachelor,2022.2.4,59.95154464480134,
,,,,,,,,,,,,1,0,1,0,57,0,57,0,,,,,,,57,,,0.2,4161.849760557685,Y,l,go,None,0,4162.649957987902,,,,,,,,,,,,,,,,6,001,2022-12-16_11h01.12.981,00_bat_bachelor,2022.2.4,59.95154464480134,
,,,,,,,,,,,,1,0,1,0,58,0,58,0,,,,,,,58,,,0.2,4162.849681527427,X,d,go,d,1,,0.26239470168366097,,,,,,,,,,,,,,,6,001,2022-12-16_11h01.12.981,00_bat_bachelor,2022.2.4,59.95154464480134,
,,,,,,,,,,,,1,0,1,0,59,0,59,0,,,,,,,59,,,0.2,4163.416554949552,Y,l,go,l,1,,0.3354729692800902,,,,,,,,,,,,,,,6,001,2022-12-16_11h01.12.981,00_bat_bachelor,2022.2.4,59.95154464480134,
,,,,,,,,,,,,1,0,1,0,60,0,60,0,,,,,,,60,,,0.2,4164.066542028348,X,d,go,d,1,,0.325080731898197,,,,,,,,,,,,,,,6,001,2022-12-16_11h01.12.981,00_bat_bachelor,2022.2.4,59.95154464480134,
,,,,,,,,,,,,1,0,1,0,61,0,61,0,,,,,,,61,,,0.2,4164.699556509309,X,None,nogo,None,1,4165.499693818332,,,,,,,,,,,,,,,,6,001,2022-12-16_11h01.12.981,00_bat_bachelor,2022.2.4,59.95154464480134,
,,,,,,,,,,,,1,0,1,0,62,0,62,0,,,,,,,62,,,0.2,4165.699731054672,Y,l,go,l,1,,0.3408048454875825,,,,,,,,,,,,,,,6,001,2022-12-16_11h01.12.981,00_bat_bachelor,2022.2.4,59.95154464480134,
,,,,,,,,,,,,1,0,1,0,63,0,63,0,,,,,,,63,,,0.2,4166.3497418910265,X,d,go,d,1,,0.2821066921314923,,,,,,,,,,,,,,,6,001,2022-12-16_11h01.12.981,00_bat_bachelor,2022.2.4,59.95154464480134,
,,,,,,,,,,,,1,0,1,0,64,0,64,0,,,,,,,64,,,0.2,4166.9328979719285,X,None,nogo,None,1,4167.73285685679,,,,,,,,,,,,,,,,6,001,2022-12-16_11h01.12.981,00_bat_bachelor,2022.2.4,59.95154464480134,
,,,,,,,,,,,,1,0,1,0,65,0,65,0,,,,,,,65,,,0.2,4167.933328032319,Y,l,go,l,1,,0.3471151454577921,,,,,,,,,,,,,,,6,001,2022-12-16_11h01.12.981,00_bat_bachelor,2022.2.4,59.95154464480134,
,,,,,,,,,,,,1,0,1,0,66,0,66,0,,,,,,,66,,,0.2,4168.583066383973,X,d,go,d,1,,0.25817118858685717,,,,,,,,,,,,,,,6,001,2022-12-16_11h01.12.981,00_bat_bachelor,2022.2.4,59.95154464480134,
,,,,,,,,,,,,1,0,1,0,67,0,67,0,,,,,,,67,,,0.2,4169.14973326074,X,None,nogo,None,1,4169.949704266808,,,,,,,,,,,,,,,,6,001,2022-12-16_11h01.12.981,00_bat_bachelor,2022.2.4,59.95154464480134,
,,,,,,,,,,,,1,0,1,0,68,0,68,0,,,,,,,68,,,0.2,4170.149518472957,Y,l,go,l,1,,0.2742676656343974,,,,,,,,,,,,,,,6,001,2022-12-16_11h01.12.981,00_bat_bachelor,2022.2.4,59.95154464480134,
,,,,,,,,,,,,1,0,1,0,69,0,69,0,,,,,,,69,,,0.2,4170.732931038583,X,d,go,d,1,,0.31417067658912856,,,,,,,,,,,,,,,6,001,2022-12-16_11h01.12.981,00_bat_bachelor,2022.2.4,59.95154464480134,
,,,,,,,,,,,,1,0,1,0,70,0,70,0,,,,,,,70,,,0.2,4171.349504315396,Y,l,go,l,1,,0.4655795728758676,,,,,,,,,,,,,,,6,001,2022-12-16_11h01.12.981,00_bat_bachelor,2022.2.4,59.95154464480134,
,,,,,,,,,,,,1,0,1,0,71,0,71,0,,,,,,,71,,,0.2,4172.134041147132,X,d,go,d,1,,0.3049978325434495,,,,,,,,,,,,,,,6,001,2022-12-16_11h01.12.981,00_bat_bachelor,2022.2.4,59.95154464480134,
,,,,,,,,,,,,1,0,1,0,72,0,72,0,,,,,,,72,,,0.2,4172.783721801825,X,None,nogo,None,1,4173.584167959183,,,,,,,,,,,,,,,,6,001,2022-12-16_11h01.12.981,00_bat_bachelor,2022.2.4,59.95154464480134,
,,,,,,,,,,,,1,0,1,0,73,0,73,0,,,,,,,73,,,0.2,4173.783975862316,Y,l,go,l,1,,0.35086302243871614,,,,,,,,,,,,,,,6,001,2022-12-16_11h01.12.981,00_bat_bachelor,2022.2.4,59.95154464480134,
,,,,,,,,,,,,1,0,1,0,74,0,74,0,,,,,,,74,,,0.2,4174.483886310845,X,d,go,d,1,,0.30785019480390474,,,,,,,,,,,,,,,6,001,2022-12-16_11h01.12.981,00_bat_bachelor,2022.2.4,59.95154464480134,
,,,,,,,,,,,,1,0,1,0,75,0,75,0,,,,,,,75,,,0.2,4175.134063450154,Y,l,go,l,1,,0.34576969157205895,,,,,,,,,,,,,,,6,001,2022-12-16_11h01.12.981,00_bat_bachelor,2022.2.4,59.95154464480134,
,,,,,,,,,,,,1,0,1,0,76,0,76,0,,,,,,,76,,,0.2,4175.817104088681,Y,None,nogo,None,1,4176.617319943121,,,,,,,,,,,,,,,,6,001,2022-12-16_11h01.12.981,00_bat_bachelor,2022.2.4,59.95154464480134,
,,,,,,,,,,,,1,0,1,0,77,0,77,0,,,,,,,77,,,0.2,4176.817382876427,X,d,go,d,1,,0.2782569970295299,,,,,,,,,,,,,,,6,001,2022-12-16_11h01.12.981,00_bat_bachelor,2022.2.4,59.95154464480134,
,,,,,,,,,,,,1,0,1,0,78,0,78,0,,,,,,,78,,,0.2,4177.41728610071,Y,l,go,l,1,,0.33406206087965984,,,,,,,,,,,,,,,6,001,2022-12-16_11h01.12.981,00_bat_bachelor,2022.2.4,59.95154464480134,
,,,,,,,,,,,,1,0,1,0,79,0,79,0,,,,,,,79,,,0.2,4178.083547595859,X,d,go,d,1,,0.35575998976128176,,,,,,,,,,,,,,,6,001,2022-12-16_11h01.12.981,00_bat_bachelor,2022.2.4,59.95154464480134,
,,,,,,,,,,,,1,0,1,0,80,0,80,0,,,,,,,80,,,0.2,4178.750120363577,Y,l,go,l,1,,0.49013422764255665,,,,,,,,,,,,,,,6,001,2022-12-16_11h01.12.981,00_bat_bachelor,2022.2.4,59.95154464480134,
,,,,,,,,,,,,1,0,1,0,81,0,81,0,,,,,,,81,,,0.2,4179.5499080970185,X,d,go,d,1,,0.3147917672031326,,,,,,,,,,,,,,,6,001,2022-12-16_11h01.12.981,00_bat_bachelor,2022.2.4,59.95154464480134,
,,,,,,,,,,,,1,0,1,0,82,0,82,0,,,,,,,82,,,0.2,4180.166650101019,X,None,nogo,l,0,,0.22552344683208503,,,,,,,,,,,,,,,6,001,2022-12-16_11h01.12.981,00_bat_bachelor,2022.2.4,59.95154464480134,
,,,,,,,,,,,,1,0,1,0,83,0,83,0,,,,,,,83,,,0.2,4180.700087418139,Y,l,go,None,0,4181.5000167272665,,,,,,,,,,,,,,,,6,001,2022-12-16_11h01.12.981,00_bat_bachelor,2022.2.4,59.95154464480134,
,,,,,,,,,,,,1,0,1,0,84,0,84,0,,,,,,,84,,,0.2,4181.7002653574455,X,d,go,d,1,,0.24337410485895816,,,,,,,,,,,,,,,6,001,2022-12-16_11h01.12.981,00_bat_bachelor,2022.2.4,59.95154464480134,
,,,,,,,,,,,,1,0,1,0,85,0,85,0,,,,,,,85,,,0.2,4182.266786779743,Y,l,go,l,1,,0.28528196332626976,,,,,,,,,,,,,,,6,001,2022-12-16_11h01.12.981,00_bat_bachelor,2022.2.4,59.95154464480134,
,,,,,,,,,,,,1,0,1,0,86,0,86,0,,,,,,,86,,,0.2,4182.866839337294,X,d,go,d,1,,0.3731427692109719,,,,,,,,,,,,,,,6,001,2022-12-16_11h01.12.981,00_bat_bachelor,2022.2.4,59.95154464480134,
,,,,,,,,,,,,1,0,1,0,87,0,87,0,,,,,,,87,,,0.2,4183.566935482697,Y,l,go,l,1,,0.2976688664057292,,,,,,,,,,,,,,,6,001,2022-12-16_11h01.12.981,00_bat_bachelor,2022.2.4,59.95154464480134,
,,,,,,,,,,,,1,0,1,0,88,0,88,0,,,,,,,88,,,0.2,4184.166780525193,Y,None,nogo,d,0,,0.4333153460902395,,,,,,,,,,,,,,,6,001,2022-12-16_11h01.12.981,00_bat_bachelor,2022.2.4,59.95154464480134,
,,,,,,,,,,,,1,0,1,0,89,0,89,0,,,,,,,89,,,0.2,4184.9001115635765,X,d,go,None,0,4185.699890084899,,,,,,,,,,,,,,,,6,001,2022-12-16_11h01.12.981,00_bat_bachelor,2022.2.4,59.95154464480134,
,,,,,,,,,,,,1,0,1,0,90,0,90,0,,,,,,,90,,,0.2,4185.900242472606,Y,l,go,l,1,,0.20381630584597588,,,,,,,,,,,,,,,6,001,2022-12-16_11h01.12.981,00_bat_bachelor,2022.2.4,59.95154464480134,
,,,,,,,,,,,,1,0,1,0,91,0,91,0,,,,,,,91,,,0.2,4186.416741616122,X,d,go,None,0,4187.216801834278,,,,,,,,,,,,,,,,6,001,2022-12-16_11h01.12.981,00_bat_bachelor,2022.2.4,59.95154464480134,
,,,,,,,,,,,,1,0,1,0,92,0,92,0,,,,,,,92,,,0.2,4187.416337252682,Y,l,go,d,0,,0.06415043417655397,,,,,,,,,,,,,,,6,001,2022-12-16_11h01.12.981,00_bat_bachelor,2022.2.4,59.95154464480134,
,,,,,,,,,,,,1,0,1,0,93,0,93,0,,,,,,,93,,,0.2,4187.782755499269,X,d,go,None,0,4188.582676565973,,,,,,,,,,,,,,,,6,001,2022-12-16_11h01.12.981,00_bat_bachelor,2022.2.4,59.95154464480134,
,,,,,,,,,,,,1,0,1,0,94,0,94,0,,,,,,,94,,,0.2,4188.783061438517,Y,l,go,l,1,,0.2003743681270862,,,,,,,,,,,,,,,6,001,2022-12-16_11h01.12.981,00_bat_bachelor,2022.2.4,59.95154464480134,
,,,,,,,,,,,,1,0,1,0,95,0,95,0,,,,,,,95,,,0.2,4189.28284737801,X,d,go,None,0,4190.083050626403,,,,,,,,,,,,,,,,6,001,2022-12-16_11h01.12.981,00_bat_bachelor,2022.2.4,59.95154464480134,
,,,,,,,,,,,,1,0,1,0,96,0,96,0,,,,,,,96,,,0.2,4190.283071862752,Y,l,go,l,1,,0.38053379592020065,,,,,,,,,,,,,,,6,001,2022-12-16_11h01.12.981,00_bat_bachelor,2022.2.4,59.95154464480134,
,,,,,,,,,,,,1,0,1,0,97,0,97,0,,,,,,,97,,,0.2,4190.9661968648725,X,d,go,d,1,,0.4648668459558394,,,,,,,,,,,,,,,6,001,2022-12-16_11h01.12.981,00_bat_bachelor,2022.2.4,59.95154464480134,
,,,,,,,,,,,,1,0,1,0,98,0,98,0,,,,,,,98,,,0.2,4191.733103159713,X,None,nogo,None,1,4192.532821559842,,,,,,,,,,,,,,,,6,001,2022-12-16_11h01.12.981,00_bat_bachelor,2022.2.4,59.95154464480134,
,,,,,,,,,,,,1,0,1,0,99,0,99,0,,,,,,,99,,,0.2,4192.73324667479,Y,l,go,l,1,,0.26655857847072184,,,,,,,,,,,,,,,6,001,2022-12-16_11h01.12.981,00_bat_bachelor,2022.2.4,59.95154464480134,
,,,,,,,,,,,,1,0,1,0,100,0,100,0,,,,,,,100,,,0.2,4193.299708460749,X,d,go,d,1,,0.4516547311359318,,,,,,,,,,,,,,,6,001,2022-12-16_11h01.12.981,00_bat_bachelor,2022.2.4,59.95154464480134,
,,,,,,,,,,,,1,0,1,0,101,0,101,0,,,,,,,101,,,0.2,4194.066021301318,Y,l,go,None,0,4194.866183822451,,,,,,,,,,,,,,,,6,001,2022-12-16_11h01.12.981,00_bat_bachelor,2022.2.4,59.95154464480134,
,,,,,,,,,,,,1,0,1,0,102,0,102,0,,,,,,,102,,,0.2,4195.066226392126,X,d,go,d,1,,0.33288436448492575,,,,,,,,,,,,,,,6,001,2022-12-16_11h01.12.981,00_bat_bachelor,2022.2.4,59.95154464480134,
,,,,,,,,,,,,1,0,1,0,103,0,103,0,,,,,,,103,,,0.2,4195.699733478919,X,None,nogo,None,1,4196.499934787906,,,,,,,,,,,,,,,,6,001,2022-12-16_11h01.12.981,00_bat_bachelor,2022.2.4,59.95154464480134,
,,,,,,,,,,,,1,0,1,0,104,0,104,0,,,,,,,104,,,0.2,4196.699666569853,Y,l,go,l,1,,0.28387008522986434,,,,,,,,,,,,,,,6,001,2022-12-16_11h01.12.981,00_bat_bachelor,2022.2.4,59.95154464480134,
,,,,,,,,,,,,1,0,1,0,105,0,105,0,,,,,,,105,,,0.2,4197.282833802266,X,d,go,d,1,,0.2770875430578599,,,,,,,,,,,,,,,6,001,2022-12-16_11h01.12.981,00_bat_bachelor,2022.2.4,59.95154464480134,
,,,,,,,,,,,,1,0,1,0,106,0,106,0,,,,,,,106,,,0.2,4197.866083943722,X,None,nogo,None,1,4198.66615628307,,,,,,,,,,,,,,,,6,001,2022-12-16_11h01.12.981,00_bat_bachelor,2022.2.4,59.95154464480134,
,,,,,,,,,,,,1,0,1,0,107,0,107,0,,,,,,,107,,,0.2,4198.866375822356,Y,l,go,l,1,,0.05320353039132897,,,,,,,,,,,,,,,6,001,2022-12-16_11h01.12.981,00_bat_bachelor,2022.2.4,59.95154464480134,
,,,,,,,,,,,,1,0,1,0,108,0,108,0,,,,,,,108,,,0.2,4199.232713099293,X,d,go,d,1,,0.29566401889314875,,,,,,,,,,,,,,,6,001,2022-12-16_11h01.12.981,00_bat_bachelor,2022.2.4,59.95154464480134,
,,,,,,,,,,,,1,0,1,0,109,0,109,0,,,,,,,109,,,0.2,4199.832824808327,X,None,nogo,None,1,4200.633205996026,,,,,,,,,,,,,,,,6,001,2022-12-16_11h01.12.981,00_bat_bachelor,2022.2.4,59.95154464480134,
,,,,,,,,,,,,1,0,1,0,110,0,110,0,,,,,,,110,,,0.2,4200.83306044458,Y,l,go,l,1,,0.19907642937323544,,,,,,,,,,,,,,,6,001,2022-12-16_11h01.12.981,00_bat_bachelor,2022.2.4,59.95154464480134,
,,,,,,,,,,,,1,0,1,0,111,0,111,0,,,,,,,111,,,0.2,4201.333117414251,X,d,go,d,1,,0.13166506811103318,,,,,,,,,,,,,,,6,001,2022-12-16_11h01.12.981,00_bat_bachelor,2022.2.4,59.95154464480134,
,,,,,,,,,,,,1,0,1,0,112,0,112,0,,,,,,,112,,,0.2,4201.766016113441,Y,l,go,l,1,,0.626582161479746,,,,,,,,,,,,,,,6,001,2022-12-16_11h01.12.981,00_bat_bachelor,2022.2.4,59.95154464480134,
,,,,,,,,,,,,1,0,1,0,113,0,113,0,,,,,,,113,,,0.2,4202.699891054595,X,d,go,d,1,,0.25197725220641587,,,,,,,,,,,,,,,6,001,2022-12-16_11h01.12.981,00_bat_bachelor,2022.2.4,59.95154464480134,
,,,,,,,,,,,,1,0,1,0,114,0,114,0,,,,,,,114,,,0.2,4203.2660696891835,Y,l,go,l,1,,0.4533386091061402,,,,,,,,,,,,,,,6,001,2022-12-16_11h01.12.981,00_bat_bachelor,2022.2.4,59.95154464480134,
,,,,,,,,,,,,1,0,1,0,115,0,115,0,,,,,,,115,,,0.2,4204.033243620244,X,d,go,d,1,,0.29612462472869083,,,,,,,,,,,,,,,6,001,2022-12-16_11h01.12.981,00_bat_bachelor,2022.2.4,59.95154464480134,
,,,,,,,,,,,,1,0,1,0,116,0,116,0,,,,,,,116,,,0.2,4204.632908784042,X,None,nogo,l,0,,0.3349115150049329,,,,,,,,,,,,,,,6,001,2022-12-16_11h01.12.981,00_bat_bachelor,2022.2.4,59.95154464480134,
,,,,,,,,,,,,1,0,1,0,117,0,117,0,,,,,,,117,,,0.2,4205.282775620464,Y,l,go,None,0,4206.083071474874,,,,,,,,,,,,,,,,6,001,2022-12-16_11h01.12.981,00_bat_bachelor,2022.2.4,59.95154464480134,
,,,,,,,,,,,,1,0,1,0,118,0,118,0,,,,,,,118,,,0.2,4206.282733923523,X,d,go,d,1,,0.0931176928570494,,,,,,,,,,,,,,,6,001,2022-12-16_11h01.12.981,00_bat_bachelor,2022.2.4,59.95154464480134,
,,,,,,,,,,,,1,0,1,0,119,0,119,0,,,,,,,119,,,0.2,4206.683030456712,Y,l,go,None,0,4207.483155644528,,,,,,,,,,,,,,,,6,001,2022-12-16_11h01.12.981,00_bat_bachelor,2022.2.4,59.95154464480134,
,,,,,,,,,,,,1,0,1,0,120,0,120,0,,,,,,,120,,,0.2,4207.682729365944,Y,None,nogo,d,0,,0.3241522475145757,,,,,,,,,,,,,,,6,001,2022-12-16_11h01.12.981,00_bat_bachelor,2022.2.4,59.95154464480134,
,,,,,,,,,,,,1,0,1,0,121,0,121,0,,,,,,,121,,,0.2,4208.316067725536,X,d,go,None,0,4209.116452307178,,,,,,,,,,,,,,,,6,001,2022-12-16_11h01.12.981,00_bat_bachelor,2022.2.4,59.95154464480134,
,,,,,,,,,,,,1,0,1,0,122,0,122,0,,,,,,,122,,,0.2,4209.3160657861445,Y,l,go,l,1,,0.05138631915906444,,,,,,,,,,,,,,,6,001,2022-12-16_11h01.12.981,00_bat_bachelor,2022.2.4,59.95154464480134,
,,,,,,,,,,,,1,0,1,0,123,0,123,0,,,,,,,123,,,0.2,4209.68273033564,X,d,go,d,1,,0.31019395124167204,,,,,,,,,,,,,,,6,001,2022-12-16_11h01.12.981,00_bat_bachelor,2022.2.4,59.95154464480134,
,,,,,,,,,,,,1,0,1,0,124,0,124,0,,,,,,,124,,,0.2,4210.299531975979,Y,l,go,l,1,,0.3649313792557223,,,,,,,,,,,,,,,6,001,2022-12-16_11h01.12.981,00_bat_bachelor,2022.2.4,59.95154464480134,
,,,,,,,,,,,,1,0,1,0,125,0,125,0,,,,,,,125,,,0.2,4210.966664743435,X,d,go,d,1,,0.2898080217419192,,,,,,,,,,,,,,,6,001,2022-12-16_11h01.12.981,00_bat_bachelor,2022.2.4,59.95154464480134,
,,,,,,,,,,,,1,0,1,0,126,0,126,0,,,,,,,126,,,0.2,4211.566350270863,X,None,nogo,None,1,4212.3663678223675,,,,,,,,,,,,,,,,6,001,2022-12-16_11h01.12.981,00_bat_bachelor,2022.2.4,59.95154464480134,
,,,,,,,,,,,,1,0,1,0,127,0,127,0,,,,,,,127,,,0.2,4212.566368695087,Y,l,go,l,1,,0.2889348100288771,,,,,,,,,,,,,,,6,001,2022-12-16_11h01.12.981,00_bat_bachelor,2022.2.4,59.95154464480134,
,,,,,,,,,,,,1,0,1,0,128,0,128,0,,,,,,,128,,,0.2,4213.167314827966,X,d,go,d,1,,0.2321973829966737,,,,,,,,,,,,,,,6,001,2022-12-16_11h01.12.981,00_bat_bachelor,2022.2.4,59.95154464480134,
,,,,,,,,,,,,1,0,1,0,129,0,129,0,,,,,,,129,,,0.2,4213.71731407645,Y,l,go,l,1,,0.25745894652209245,,,,,,,,,,,,,,,6,001,2022-12-16_11h01.12.981,00_bat_bachelor,2022.2.4,59.95154464480134,
,,,,,,,,,,,,1,0,1,0,130,0,130,0,,,,,,,130,,,0.2,4214.31739136127,X,d,go,d,1,,0.23450186672562268,,,,,,,,,,,,,,,6,001,2022-12-16_11h01.12.981,00_bat_bachelor,2022.2.4,59.95154464480134,
,,,,,,,,,,,,1,0,1,0,131,0,131,0,,,,,,,131,,,0.2,4214.90038841193,X,None,nogo,None,1,4215.700616872433,,,,,,,,,,,,,,,,6,001,2022-12-16_11h01.12.981,00_bat_bachelor,2022.2.4,59.95154464480134,
,,,,,,,,,,,,1,0,1,0,132,0,132,0,,,,,,,132,,,0.2,4215.900424290696,X,None,nogo,None,1,4216.700181478693,,,,,,,,,,,,,,,,6,001,2022-12-16_11h01.12.981,00_bat_bachelor,2022.2.4,59.95154464480134,
,,,,,,,,,,,,1,0,1,0,133,0,133,0,,,,,,,133,,,0.2,4216.900232775646,Y,l,go,l,1,,0.33967951270460617,,,,,,,,,,,,,,,6,001,2022-12-16_11h01.12.981,00_bat_bachelor,2022.2.4,59.95154464480134,
,,,,,,,,,,,,1,0,1,0,134,0,134,0,,,,,,,134,,,0.2,4217.550206278684,X,d,go,d,1,,0.265501609275816,,,,,,,,,,,,,,,6,001,2022-12-16_11h01.12.981,00_bat_bachelor,2022.2.4,59.95154464480134,
,,,,,,,,,,,,1,0,1,0,135,0,135,0,,,,,,,135,,,0.2,4218.116809640327,Y,l,go,l,1,,0.25838258242583834,,,,,,,,,,,,,,,6,001,2022-12-16_11h01.12.981,00_bat_bachelor,2022.2.4,59.95154464480134,
,,,,,,,,,,,,1,0,1,0,136,0,136,0,,,,,,,136,,,0.2,4218.700129115081,Y,None,nogo,d,0,,0.2676717900467338,,,,,,,,,,,,,,,6,001,2022-12-16_11h01.12.981,00_bat_bachelor,2022.2.4,59.95154464480134,
,,,,,,,,,,,,1,0,1,0,137,0,137,0,,,,,,,137,,,0.2,4219.300135612051,X,d,go,None,0,4220.100158496891,,,,,,,,,,,,,,,,6,001,2022-12-16_11h01.12.981,00_bat_bachelor,2022.2.4,59.95154464480134,
,,,,,,,,,,,,1,0,1,0,138,0,138,0,,,,,,,138,,,0.2,4220.300033793916,Y,l,go,l,1,,0.29983710778469685,,,,,,,,,,,,,,,6,001,2022-12-16_11h01.12.981,00_bat_bachelor,2022.2.4,59.95154464480134,
,,,,,,,,,,,,1,0,1,0,139,0,139,0,,,,,,,139,,,0.2,4220.900255078668,X,d,go,d,1,,0.3072315284371143,,,,,,,,,,,,,,,6,001,2022-12-16_11h01.12.981,00_bat_bachelor,2022.2.4,59.95154464480134,
,,,,,,,,,,,,1,0,1,0,140,0,140,0,,,,,,,140,,,0.2,4221.516759991879,X,None,nogo,None,1,4222.316960816024,,,,,,,,,,,,,,,,6,001,2022-12-16_11h01.12.981,00_bat_bachelor,2022.2.4,59.95154464480134,
,,,,,,,,,,,,1,0,1,0,141,0,141,0,,,,,,,141,,,0.2,4222.516839506992,Y,l,go,l,1,,0.2755651195620885,,,,,,,,,,,,,,,6,001,2022-12-16_11h01.12.981,00_bat_bachelor,2022.2.4,59.95154464480134,
,,,,,,,,,,,,1,0,1,0,142,0,142,0,,,,,,,142,,,0.2,4223.099997527272,X,d,go,d,1,,0.2031200637575239,,,,,,,,,,,,,,,6,001,2022-12-16_11h01.12.981,00_bat_bachelor,2022.2.4,59.95154464480134,
,,,,,,,,,,,,1,0,1,0,143,0,143,0,,,,,,,143,,,0.2,4223.633511935259,X,None,nogo,None,1,4224.433297244468,,,,,,,,,,,,,,,,6,001,2022-12-16_11h01.12.981,00_bat_bachelor,2022.2.4,59.95154464480134,
,,,,,,,,,,,,1,0,1,0,144,0,144,0,,,,,,,144,,,0.2,4224.633270965685,Y,l,go,l,1,,0.22238259988080245,,,,,,,,,,,,,,,6,001,2022-12-16_11h01.12.981,00_bat_bachelor,2022.2.4,59.95154464480134,
,,,,,,,,,,,,1,0,1,0,145,0,145,0,,,,,,,145,,,0.2,4225.166655919194,X,d,go,d,1,,0.36072386614978313,,,,,,,,,,,,,,,6,001,2022-12-16_11h01.12.981,00_bat_bachelor,2022.2.4,59.95154464480134,
,,,,,,,,,,,,1,0,1,0,146,0,146,0,,,,,,,146,,,0.2,4225.8333033535455,Y,l,go,None,0,4226.633608420074,,,,,,,,,,,,,,,,6,001,2022-12-16_11h01.12.981,00_bat_bachelor,2022.2.4,59.95154464480134,
,,,,,,,,,,,,1,0,1,0,147,0,147,0,,,,,,,147,,,0.2,4226.8334720807325,Y,None,nogo,None,1,4227.633439208032,,,,,,,,,,,,,,,,6,001,2022-12-16_11h01.12.981,00_bat_bachelor,2022.2.4,59.95154464480134,
,,,,,,,,,,,,1,0,1,0,148,0,148,0,,,,,,,148,,,0.2,4227.833460444381,Y,None,nogo,d,0,,0.14244421440525912,,,,,,,,,,,,,,,6,001,2022-12-16_11h01.12.981,00_bat_bachelor,2022.2.4,59.95154464480134,
,,,,,,,,,,,,1,0,1,0,149,0,149,0,,,,,,,149,,,0.2,4228.283277923256,X,d,go,None,0,4229.0832867474965,,,,,,,,,,,,,,,,6,001,2022-12-16_11h01.12.981,00_bat_bachelor,2022.2.4,59.95154464480134,
,,,,,,,,,,,,1,0,1,0,150,0,150,0,,,,,,,150,,,0.2,4229.283203256622,Y,l,go,l,1,,0.27686014921346214,,,,,,,,,,,,,,,6,001,2022-12-16_11h01.12.981,00_bat_bachelor,2022.2.4,59.95154464480134,
,,,,,,,,,,,,1,0,1,0,151,0,151,0,,,,,,,151,,,0.2,4229.866814125184,X,d,go,d,1,,0.3958394854707876,,,,,,,,,,,,,,,6,001,2022-12-16_11h01.12.981,00_bat_bachelor,2022.2.4,59.95154464480134,
,,,,,,,,,,,,1,0,1,0,152,0,152,0,,,,,,,152,,,0.2,4230.583242868728,X,None,nogo,d,0,,0.5758718830329599,,,,,,,,,,,,,,,6,001,2022-12-16_11h01.12.981,00_bat_bachelor,2022.2.4,59.95154464480134,
,,,,,,,,,,,,1,0,1,0,153,0,153,0,,,,,,,153,,,0.2,4231.466792016101,Y,l,go,l,1,,0.3158094636746682,,,,,,,,,,,,,,,6,001,2022-12-16_11h01.12.981,00_bat_bachelor,2022.2.4,59.95154464480134,
,,,,,,,,,,,,1,0,1,0,154,0,154,0,,,,,,,154,,,0.2,4232.099973769713,X,d,go,d,1,,0.37142058822792023,,,,,,,,,,,,,,,6,001,2022-12-16_11h01.12.981,00_bat_bachelor,2022.2.4,59.95154464480134,
,,,,,,,,,,,,1,0,1,0,155,0,155,0,,,,,,,155,,,0.2,4232.800111127217,X,None,nogo,None,1,4233.600188799901,,,,,,,,,,,,,,,,6,001,2022-12-16_11h01.12.981,00_bat_bachelor,2022.2.4,59.95154464480134,
,,,,,,,,,,,,1,0,1,0,156,0,156,0,,,,,,,156,,,0.2,4233.799999612122,Y,l,go,l,1,,0.3515592645126162,,,,,,,,,,,,,,,6,001,2022-12-16_11h01.12.981,00_bat_bachelor,2022.2.4,59.95154464480134,
,,,,,,,,,,,,1,0,1,0,157,0,157,0,,,,,,,157,,,0.2,4234.466774561559,X,d,go,d,1,,0.259645127269323,,,,,,,,,,,,,,,6,001,2022-12-16_11h01.12.981,00_bat_bachelor,2022.2.4,59.95154464480134,
,,,,,,,,,,,,1,0,1,0,158,0,158,0,,,,,,,158,,,0.2,4235.050112460551,Y,l,go,l,1,,0.5094389455480268,,,,,,,,,,,,,,,6,001,2022-12-16_11h01.12.981,00_bat_bachelor,2022.2.4,59.95154464480134,
,,,,,,,,,,,,1,0,1,0,159,0,159,0,,,,,,,159,,,0.2,4235.866627943455,X,d,go,d,1,,0.31650764515507035,,,,,,,,,,,,,,,6,001,2022-12-16_11h01.12.981,00_bat_bachelor,2022.2.4,59.95154464480134,
,,,,,,,,,,,,1,0,1,0,160,0,160,0,,,,,,,160,,,0.2,4236.483311280812,X,None,nogo,None,1,4237.283300226278,,,,,,,,,,,,,,,,6,001,2022-12-16_11h01.12.981,00_bat_bachelor,2022.2.4,59.95154464480134,
,,,,,,,,,,,,1,0,1,0,161,0,161,0,,,,,,,161,,,0.2,4237.483286068702,Y,l,go,l,1,,0.25251737314101774,,,,,,,,,,,,,,,6,001,2022-12-16_11h01.12.981,00_bat_bachelor,2022.2.4,59.95154464480134,
,,,,,,,,,,,,1,0,1,0,162,0,162,0,,,,,,,162,,,0.2,4238.0499878545525,X,d,go,d,1,,0.2459118005936034,,,,,,,,,,,,,,,6,001,2022-12-16_11h01.12.981,00_bat_bachelor,2022.2.4,59.95154464480134,
,,,,,,,,,,,,1,0,1,0,163,0,163,0,,,,,,,163,,,0.2,4238.600131102969,Y,l,go,l,1,,0.4476843088195892,,,,,,,,,,,,,,,6,001,2022-12-16_11h01.12.981,00_bat_bachelor,2022.2.4,59.95154464480134,
,,,,,,,,,,,,1,0,1,0,164,0,164,0,,,,,,,164,,,0.2,4239.366716428252,Y,None,nogo,d,0,,0.32045285536150914,,,,,,,,,,,,,,,6,001,2022-12-16_11h01.12.981,00_bat_bachelor,2022.2.4,59.95154464480134,
,,,,,,,,,,,,1,0,1,0,165,0,165,0,,,,,,,165,,,0.2,4240.016878052425,X,d,go,None,0,4240.8166173010395,,,,,,,,,,,,,,,,6,001,2022-12-16_11h01.12.981,00_bat_bachelor,2022.2.4,59.95154464480134,
,,,,,,,,,,,,1,0,1,0,166,0,166,0,,,,,,,166,,,0.2,4241.016601204072,Y,l,go,l,1,,0.33494206044997554,,,,,,,,,,,,,,,6,001,2022-12-16_11h01.12.981,00_bat_bachelor,2022.2.4,59.95154464480134,
,,,,,,,,,,,,1,0,1,0,167,0,167,0,,,,,,,167,,,0.2,4241.666883070604,X,d,go,d,1,,0.4530341244098963,,,,,,,,,,,,,,,6,001,2022-12-16_11h01.12.981,00_bat_bachelor,2022.2.4,59.95154464480134,
,,,,,,,,,,,,1,0,1,0,168,0,168,0,,,,,,,168,,,0.2,4242.43345094136,X,None,nogo,None,1,4243.2334946746705,,,,,,,,,,,,,,,,6,001,2022-12-16_11h01.12.981,00_bat_bachelor,2022.2.4,59.95154464480134,
,,,,,,,,,,,,1,0,1,0,169,0,169,0,,,,,,,169,,,0.2,4243.433319062635,X,None,nogo,l,0,,0.03011990521918051,,,,,,,,,,,,,,,6,001,2022-12-16_11h01.12.981,00_bat_bachelor,2022.2.4,59.95154464480134,
,,,,,,,,,,,,1,0,1,0,170,0,170,0,,,,,,,170,,,0.2,4243.76684471911,Y,l,go,None,0,4244.566492816244,,,,,,,,,,,,,,,,6,001,2022-12-16_11h01.12.981,00_bat_bachelor,2022.2.4,59.95154464480134,
,,,,,,,,,,,,1,0,1,0,171,0,171,0,,,,,,,171,,,0.2,4244.766340476926,X,d,go,d,1,,0.2170992085011676,,,,,,,,,,,,,,,6,001,2022-12-16_11h01.12.981,00_bat_bachelor,2022.2.4,59.95154464480134,
,,,,,,,,,,,,1,0,1,0,172,0,172,0,,,,,,,172,,,0.2,4245.29989658187,Y,l,go,l,1,,0.4039776633580914,,,,,,,,,,,,,,,6,001,2022-12-16_11h01.12.981,00_bat_bachelor,2022.2.4,59.95154464480134,
,,,,,,,,,,,,1,0,1,0,173,0,173,0,,,,,,,173,,,0.2,4246.0160528407,X,d,go,d,1,,0.3424824204412289,,,,,,,,,,,,,,,6,001,2022-12-16_11h01.12.981,00_bat_bachelor,2022.2.4,59.95154464480134,
,,,,,,,,,,,,1,0,1,0,174,0,174,0,,,,,,,174,,,0.2,4246.666343919351,Y,l,go,l,1,,0.33308412195765413,,,,,,,,,,,,,,,6,001,2022-12-16_11h01.12.981,00_bat_bachelor,2022.2.4,59.95154464480134,
,,,,,,,,,,,,1,0,1,0,175,0,175,0,,,,,,,175,,,0.2,4247.299771491016,X,d,go,d,1,,0.3414642391144298,,,,,,,,,,,,,,,6,001,2022-12-16_11h01.12.981,00_bat_bachelor,2022.2.4,59.95154464480134,
,,,,,,,,,,,,1,0,1,0,176,0,176,0,,,,,,,176,,,0.2,4247.949719297103,Y,l,go,l,1,,0.3782860394421732,,,,,,,,,,,,,,,6,001,2022-12-16_11h01.12.981,00_bat_bachelor,2022.2.4,59.95154464480134,
,,,,,,,,,,,,1,0,1,0,177,0,177,0,,,,,,,177,,,0.2,4248.63323557176,X,d,go,None,0,4249.432735790193,,,,,,,,,,,,,,,,6,001,2022-12-16_11h01.12.981,00_bat_bachelor,2022.2.4,59.95154464480134,
,,,,,,,,,,,,1,0,1,0,178,0,178,0,,,,,,,178,,,0.2,4249.6330120567145,X,None,nogo,None,1,4250.432701850805,,,,,,,,,,,,,,,,6,001,2022-12-16_11h01.12.981,00_bat_bachelor,2022.2.4,59.95154464480134,
,,,,,,,,,,,,1,0,1,0,179,0,179,0,,,,,,,179,,,0.2,4250.63286078407,Y,l,go,l,1,,0.31853237144241575,,,,,,,,,,,,,,,6,001,2022-12-16_11h01.12.981,00_bat_bachelor,2022.2.4,59.95154464480134,
,,,,,,,,,,,,1,0,1,0,180,0,180,0,,,,,,,180,,,0.2,4251.266344598131,X,d,go,d,1,,0.27670354323345236,,,,,,,,,,,,,,,6,001,2022-12-16_11h01.12.981,00_bat_bachelor,2022.2.4,59.95154464480134,
,,,,,,,,,,,,1,0,1,0,181,0,181,0,,,,,,,181,,,0.2,4251.849709648624,Y,l,go,l,1,,0.34965671999088954,,,,,,,,,,,,,,,6,001,2022-12-16_11h01.12.981,00_bat_bachelor,2022.2.4,59.95154464480134,
,,,,,,,,,,,,1,0,1,0,182,0,182,0,,,,,,,182,,,0.2,4252.4996477577515,X,d,go,d,1,,0.3076228009740589,,,,,,,,,,,,,,,6,001,2022-12-16_11h01.12.981,00_bat_bachelor,2022.2.4,59.95154464480134,
,,,,,,,,,,,,1,0,1,0,183,0,183,0,,,,,,,183,,,0.2,4253.116082852808,Y,l,go,l,1,,0.44437958316120785,,,,,,,,,,,,,,,6,001,2022-12-16_11h01.12.981,00_bat_bachelor,2022.2.4,59.95154464480134,
,,,,,,,,,,,,1,0,1,0,184,0,184,0,,,,,,,184,,,0.2,4253.866370489035,Y,None,nogo,None,1,4254.666147555807,,,,,,,,,,,,,,,,6,001,2022-12-16_11h01.12.981,00_bat_bachelor,2022.2.4,59.95154464480134,
,,,,,,,,,,,,1,0,1,0,185,0,185,0,,,,,,,185,,,0.2,4254.866312307247,X,d,go,d,1,,0.24573192189563997,,,,,,,,,,,,,,,6,001,2022-12-16_11h01.12.981,00_bat_bachelor,2022.2.4,59.95154464480134,
,,,,,,,,,,,,1,0,1,0,186,0,186,0,,,,,,,186,,,0.2,4255.4164027071965,Y,l,go,l,1,,0.2710434247710509,,,,,,,,,,,,,,,6,001,2022-12-16_11h01.12.981,00_bat_bachelor,2022.2.4,59.95154464480134,
,,,,,,,,,,,,1,0,1,0,187,0,187,0,,,,,,,187,,,0.2,4255.999380848778,Y,None,nogo,None,1,4256.799383854843,,,,,,,,,,,,,,,,6,001,2022-12-16_11h01.12.981,00_bat_bachelor,2022.2.4,59.95154464480134,
,,,,,,,,,,,,1,0,1,0,188,0,188,0,,,,,,,188,,,0.2,4256.999659151683,Y,None,nogo,None,1,4257.7996577941085,,,,,,,,,,,,,,,,6,001,2022-12-16_11h01.12.981,00_bat_bachelor,2022.2.4,59.95154464480134,
,,,,,,,,,,,,1,0,1,0,189,0,189,0,,,,,,,189,,,0.2,4257.99979781828,X,d,go,d,1,,0.29669674567412585,,,,,,,,,,,,,,,6,001,2022-12-16_11h01.12.981,00_bat_bachelor,2022.2.4,59.95154464480134,
,,,,,,,,,,,,1,0,1,0,190,0,190,0,,,,,,,190,,,0.2,4258.5993471033435,Y,l,go,l,1,,0.30451783278840594,,,,,,,,,,,,,,,6,001,2022-12-16_11h01.12.981,00_bat_bachelor,2022.2.4,59.95154464480134,
,,,,,,,,,,,,1,0,1,0,191,0,191,0,,,,,,,191,,,0.2,4259.21602995586,X,d,go,None,0,4260.0160528407,,,,,,,,,,,,,,,,6,001,2022-12-16_11h01.12.981,00_bat_bachelor,2022.2.4,59.95154464480134,
,,,,,,,,,,,,1,0,1,0,192,0,192,0,,,,,,,192,,,0.2,4260.216064864944,X,None,nogo,d,0,,0.23899495546356775,,,,,,,,,,,,,,,6,001,2022-12-16_11h01.12.981,00_bat_bachelor,2022.2.4,59.95154464480134,
,,,,,,,,,,,,1,0,1,0,193,0,193,0,,,,,,,193,,,0.2,4260.766186780034,Y,l,go,l,1,,0.2977125027537113,,,,,,,,,,,,,,,6,001,2022-12-16_11h01.12.981,00_bat_bachelor,2022.2.4,59.95154464480134,
,,,,,,,,,,,,1,0,1,0,194,0,194,0,,,,,,,194,,,0.2,4261.366029398283,X,d,go,None,0,4262.166053737674,,,,,,,,,,,,,,,,6,001,2022-12-16_11h01.12.981,00_bat_bachelor,2022.2.4,59.95154464480134,
,,,,,,,,,,,,1,0,1,0,195,0,195,0,,,,,,,195,,,0.2,4262.3660080649715,Y,l,go,l,1,,0.4415742511773715,,,,,,,,,,,,,,,6,001,2022-12-16_11h01.12.981,00_bat_bachelor,2022.2.4,59.95154464480134,
,,,,,,,,,,,,1,0,1,0,196,0,196,0,,,,,,,196,,,0.2,4263.1160377619235,X,d,go,d,1,,0.4267820159147959,,,,,,,,,,,,,,,6,001,2022-12-16_11h01.12.981,00_bat_bachelor,2022.2.4,59.95154464480134,
,,,,,,,,,,,,1,0,1,0,197,0,197,0,,,,,,,197,,,0.2,4263.849365891219,X,None,nogo,None,1,4264.649314594266,,,,,,,,,,,,,,,,6,001,2022-12-16_11h01.12.981,00_bat_bachelor,2022.2.4,59.95154464480134,
,,,,,,,,,,,,1,0,1,0,198,0,198,0,,,,,,,198,,,0.2,4264.849661163797,Y,l,go,l,1,,0.26351518600131385,,,,,,,,,,,,,,,6,001,2022-12-16_11h01.12.981,00_bat_bachelor,2022.2.4,59.95154464480134,
,,,,,,,,,,,,1,0,1,0,199,0,199,0,,,,,,,199,,,0.2,4265.416164161856,X,d,go,d,1,,0.3519035067729419,,,,,,,,,,,,,,,6,001,2022-12-16_11h01.12.981,00_bat_bachelor,2022.2.4,59.95154464480134,
,,,,,,,,,,,,1,0,1,0,200,0,200,0,,,,,,,200,,,0.2,4266.083050626403,X,None,nogo,None,1,4266.883213632376,,,,,,,,,,,,,,,,6,001,2022-12-16_11h01.12.981,00_bat_bachelor,2022.2.4,59.95154464480134,
,,,,,,,,,,,,1,0,1,0,201,0,201,0,,,,,,,201,,,0.2,4267.082878020417,Y,l,go,l,1,,0.3009580769430613,,,,,,,,,,,,,,,6,001,2022-12-16_11h01.12.981,00_bat_bachelor,2022.2.4,59.95154464480134,
,,,,,,,,,,,,1,0,1,0,202,0,202,0,,,,,,,202,,,0.2,4267.699684509236,X,d,go,None,0,4268.49932727305,,,,,,,,,,,,,,,,6,001,2022-12-16_11h01.12.981,00_bat_bachelor,2022.2.4,59.95154464480134,
,,,,,,,,,,,,1,0,1,0,203,0,203,0,,,,,,,203,,,0.2,4268.699345600311,X,None,nogo,d,0,,0.12443501100642607,,,,,,,,,,,,,,,6,001,2022-12-16_11h01.12.981,00_bat_bachelor,2022.2.4,59.95154464480134,
,,,,,,,,,,,,1,0,1,0,204,0,204,0,,,,,,,204,,,0.2,4269.132685511431,Y,l,go,l,1,,0.5708963702927576,,,,,,,,,,,,,,,6,001,2022-12-16_11h01.12.981,00_bat_bachelor,2022.2.4,59.95154464480134,
,,,,,,,,,,,,1,0,1,0,205,0,205,0,,,,,,,205,,,0.2,4270.016046052828,X,d,go,d,1,,0.344760722364299,,,,,,,,,,,,,,,6,001,2022-12-16_11h01.12.981,00_bat_bachelor,2022.2.4,59.95154464480134,
,,,,,,,,,,,,1,0,1,0,206,0,206,0,,,,,,,206,,,0.2,4270.6663555557025,X,None,nogo,l,0,,0.3648683489736868,,,,,,,,,,,,,,,6,001,2022-12-16_11h01.12.981,00_bat_bachelor,2022.2.4,59.95154464480134,
,,,,,,,,,,,,1,0,1,0,207,0,207,0,,,,,,,207,,,0.2,4271.333083474863,Y,l,go,None,0,4272.133050602162,,,,,,,,,,,,,,,,6,001,2022-12-16_11h01.12.981,00_bat_bachelor,2022.2.4,59.95154464480134,
,,,,,,,,,,,,1,0,1,0,208,0,208,0,,,,,,,208,,,0.2,4272.333284202046,X,d,go,d,1,,0.26665215416869614,,,,,,,,,,,,,,,6,001,2022-12-16_11h01.12.981,00_bat_bachelor,2022.2.4,59.95154464480134,
,,,,,,,,,,,,1,0,1,0,209,0,209,0,,,,,,,209,,,0.2,4272.900098472674,X,None,nogo,None,1,4273.69999723637,,,,,,,,,,,,,,,,6,001,2022-12-16_11h01.12.981,00_bat_bachelor,2022.2.4,59.95154464480134,
,,,,,,,,,,,,1,0,1,0,210,0,210,0,,,,,,,210,,,0.2,4273.8999651394115,Y,l,go,l,1,,0.251838585594669,,,,,,,,,,,,,,,6,001,2022-12-16_11h01.12.981,00_bat_bachelor,2022.2.4,59.95154464480134,
,,,,,,,,,,,,1,0,1,0,211,0,211,0,,,,,,,211,,,0.2,4274.466698440388,X,d,go,None,0,4275.266642294955,,,,,,,,,,,,,,,,6,001,2022-12-16_11h01.12.981,00_bat_bachelor,2022.2.4,59.95154464480134,
,,,,,,,,,,,,1,0,1,0,212,0,212,0,,,,,,,212,,,0.2,4275.466681955542,X,None,nogo,None,1,4276.266621446484,,,,,,,,,,,,,,,,6,001,2022-12-16_11h01.12.981,00_bat_bachelor,2022.2.4,59.95154464480134,
,,,,,,,,,,,,1,0,1,0,213,0,213,0,,,,,,,213,,,0.2,4276.466367773886,Y,l,go,l,1,,0.30939686072815675,,,,,,,,,,,,,,,6,001,2022-12-16_11h01.12.981,00_bat_bachelor,2022.2.4,59.95154464480134,
,,,,,,,,,,,,1,0,1,0,214,0,214,0,,,,,,,214,,,0.2,4277.083301777791,X,d,go,d,1,,0.2683738503110362,,,,,,,,,,,,,,,6,001,2022-12-16_11h01.12.981,00_bat_bachelor,2022.2.4,59.95154464480134,
,,,,,,,,,,,,1,0,1,0,215,0,215,0,,,,,,,215,,,0.2,4277.666602343466,X,None,nogo,None,1,4278.466657228288,,,,,,,,,,,,,,,,6,001,2022-12-16_11h01.12.981,00_bat_bachelor,2022.2.4,59.95154464480134,
,,,,,,,,,,,,1,0,1,0,216,0,216,0,,,,,,,216,,,0.2,4278.666658585862,X,None,nogo,l,0,,0.25220270662975963,,,,,,,,,,,,,,,6,001,2022-12-16_11h01.12.981,00_bat_bachelor,2022.2.4,59.95154464480134,
,,,,,,,,,,,,1,0,1,0,217,0,217,0,,,,,,,217,,,0.2,4279.2499819394,Y,l,go,None,0,4280.049954884875,,,,,,,,,,,,,,,,6,001,2022-12-16_11h01.12.981,00_bat_bachelor,2022.2.4,59.95154464480134,
,,,,,,,,,,,,1,0,1,0,218,0,218,0,,,,,,,218,,,0.2,4280.2496968486375,X,d,go,d,1,,0.20584830486041028,,,,,,,,,,,,,,,6,001,2022-12-16_11h01.12.981,00_bat_bachelor,2022.2.4,59.95154464480134,
,,,,,,,,,,,,1,0,1,0,219,0,219,0,,,,,,,219,,,0.2,4280.766812234273,Y,l,go,l,1,,0.44043388809950557,,,,,,,,,,,,,,,6,001,2022-12-16_11h01.12.981,00_bat_bachelor,2022.2.4,59.95154464480134,
,,,,,,,,,,,,1,0,1,0,220,0,220,0,,,,,,,220,,,0.2,4281.533027620346,Y,None,nogo,d,0,,0.297756623942405,,,,,,,,,,,,,,,6,001,2022-12-16_11h01.12.981,00_bat_bachelor,2022.2.4,59.95154464480134,
,,,,,,,,,,,,1,0,1,0,221,0,221,0,,,,,,,221,,,0.2,4282.133365753514,X,d,go,None,0,4282.933338214134,,,,,,,,,,,,,,,,6,001,2022-12-16_11h01.12.981,00_bat_bachelor,2022.2.4,59.95154464480134,
,,,,,,,,,,,,1,0,1,0,222,0,222,0,,,,,,,222,,,0.2,4283.1333012686955,Y,l,go,l,1,,0.33114181987184566,,,,,,,,,,,,,,,6,001,2022-12-16_11h01.12.981,00_bat_bachelor,2022.2.4,59.95154464480134,
,,,,,,,,,,,,1,0,1,0,223,0,223,0,,,,,,,223,,,0.2,4283.766371507212,X,d,go,d,1,,0.3054468020272907,,,,,,,,,,,,,,,6,001,2022-12-16_11h01.12.981,00_bat_bachelor,2022.2.4,59.95154464480134,
,,,,,,,,,,,,1,0,1,0,224,0,224,0,,,,,,,224,,,0.2,4284.383349147465,X,None,nogo,None,1,4285.183140759691,,,,,,,,,,,,,,,,6,001,2022-12-16_11h01.12.981,00_bat_bachelor,2022.2.4,59.95154464480134,
,,,,,,,,,,,,1,0,1,0,225,0,225,0,,,,,,,225,,,0.2,4285.383456298936,Y,l,go,l,1,,0.35181138561165426,,,,,,,,,,,,,,,6,001,2022-12-16_11h01.12.981,00_bat_bachelor,2022.2.4,59.95154464480134,
,,,,,,,,,,,,1,0,1,0,226,0,226,0,,,,,,,226,,,0.2,4286.066664210099,X,d,go,d,1,,0.2937095956003759,,,,,,,,,,,,,,,6,001,2022-12-16_11h01.12.981,00_bat_bachelor,2022.2.4,59.95154464480134,
,,,,,,,,,,,,1,0,1,0,227,0,227,0,,,,,,,227,,,0.2,4286.666661979805,Y,l,go,None,0,4287.466550561672,,,,,,,,,,,,,,,,6,001,2022-12-16_11h01.12.981,00_bat_bachelor,2022.2.4,59.95154464480134,
,,,,,,,,,,,,1,0,1,0,228,0,228,0,,,,,,,228,,,0.2,4287.666412767794,X,d,go,d,1,,0.3579418068839004,,,,,,,,,,,,,,,6,001,2022-12-16_11h01.12.981,00_bat_bachelor,2022.2.4,59.95154464480134,
,,,,,,,,,,,,1,0,1,0,229,0,229,0,,,,,,,229,,,0.2,4288.3330122021725,X,None,nogo,None,1,4289.132992905215,,,,,,,,,,,,,,,,6,001,2022-12-16_11h01.12.981,00_bat_bachelor,2022.2.4,59.95154464480134,
,,,,,,,,,,,,1,0,1,0,230,0,230,0,,,,,,,230,,,0.2,4289.3329806870315,Y,l,go,l,1,,0.2741372414602665,,,,,,,,,,,,,,,6,001,2022-12-16_11h01.12.981,00_bat_bachelor,2022.2.4,59.95154464480134,
,,,,,,,,,,,,1,0,1,0,231,0,231,0,,,,,,,231,,,0.2,4289.9163268284465,X,d,go,d,1,,0.2994870473485207,,,,,,,,,,,,,,,6,001,2022-12-16_11h01.12.981,00_bat_bachelor,2022.2.4,59.95154464480134,
,,,,,,,,,,,,1,0,1,0,232,0,232,0,,,,,,,232,,,0.2,4290.516068113415,Y,l,go,l,1,,0.3085769823373994,,,,,,,,,,,,,,,6,001,2022-12-16_11h01.12.981,00_bat_bachelor,2022.2.4,59.95154464480134,
,,,,,,,,,,,,1,0,1,0,233,0,233,0,,,,,,,233,,,0.2,4291.132949753723,Y,None,nogo,d,0,,0.3635214405367151,,,,,,,,,,,,,,,6,001,2022-12-16_11h01.12.981,00_bat_bachelor,2022.2.4,59.95154464480134,
,,,,,,,,,,,,1,0,1,0,234,0,234,0,,,,,,,234,,,0.2,4291.799836218255,Y,None,nogo,None,1,4292.5999041939795,,,,,,,,,,,,,,,,6,001,2022-12-16_11h01.12.981,00_bat_bachelor,2022.2.4,59.95154464480134,
,,,,,,,,,,,,1,0,1,0,235,0,235,0,,,,,,,235,,,0.2,4292.79939597605,X,d,go,None,0,4293.599634133512,,,,,,,,,,,,,,,,6,001,2022-12-16_11h01.12.981,00_bat_bachelor,2022.2.4,59.95154464480134,
,,,,,,,,,,,,1,0,1,0,236,0,236,0,,,,,,,236,,,0.2,4293.799436703295,Y,l,go,l,1,,0.4002928166446509,,,,,,,,,,,,,,,6,001,2022-12-16_11h01.12.981,00_bat_bachelor,2022.2.4,59.95154464480134,
,,,,,,,,,,,,1,0,1,0,237,0,237,0,,,,,,,237,,,0.2,4294.4994494548155,X,d,go,d,1,,0.2608330054790713,,,,,,,,,,,,,,,6,001,2022-12-16_11h01.12.981,00_bat_bachelor,2022.2.4,59.95154464480134,
,,,,,,,,,,,,1,0,1,0,238,0,238,0,,,,,,,238,,,0.2,4295.0663020284555,X,None,nogo,None,1,4295.865985034674,,,,,,,,,,,,,,,,6,001,2022-12-16_11h01.12.981,00_bat_bachelor,2022.2.4,59.95154464480134,
,,,,,,,,,,,,1,0,1,0,239,0,239,0,,,,,,,239,,,0.2,4296.066168210338,Y,l,go,l,1,,0.2781522698060144,,,,,,,,,,,,,,,6,001,2022-12-16_11h01.12.981,00_bat_bachelor,2022.2.4,59.95154464480134,
,,,,,,,,,,,,1,0,1,0,240,0,240,0,,,,,,,240,,,0.2,4296.6496370183595,X,d,go,d,1,,0.33383466706436593,,,,,,,,,,,,,,,6,001,2022-12-16_11h01.12.981,00_bat_bachelor,2022.2.4,59.95154464480134,
,,,,,,,,,,,,1,0,1,0,241,0,241,0,,,,,,,241,,,0.2,4297.283003499149,Y,l,go,l,1,,0.48427289714163635,,,,,,,,,,,,,,,6,001,2022-12-16_11h01.12.981,00_bat_bachelor,2022.2.4,59.95154464480134,
,,,,,,,,,,,,1,0,1,0,242,0,242,0,,,,,,,242,,,0.2,4298.082684565976,X,d,go,d,1,,0.38905694331333507,,,,,,,,,,,,,,,6,001,2022-12-16_11h01.12.981,00_bat_bachelor,2022.2.4,59.95154464480134,
,,,,,,,,,,,,1,0,1,0,243,0,243,0,,,,,,,243,,,0.2,4298.7826750144595,Y,l,go,l,1,,0.31410522207443137,,,,,,,,,,,,,,,6,001,2022-12-16_11h01.12.981,00_bat_bachelor,2022.2.4,59.95154464480134,
,,,,,,,,,,,,1,0,1,0,244,0,244,0,,,,,,,244,,,0.2,4299.399504291156,X,d,go,d,1,,0.3039350451872451,,,,,,,,,,,,,,,6,001,2022-12-16_11h01.12.981,00_bat_bachelor,2022.2.4,59.95154464480134,
,,,,,,,,,,,,1,0,1,0,245,0,245,0,,,,,,,245,,,0.2,4300.015978658921,X,None,nogo,None,1,4300.816129058847,,,,,,,,,,,,,,,,6,001,2022-12-16_11h01.12.981,00_bat_bachelor,2022.2.4,59.95154464480134,
,,,,,,,,,,,,1,0,1,0,246,0,246,0,,,,,,,246,,,0.2,4301.016015507383,Y,l,go,l,1,,0.3506909013085533,,,,,,,,,,,,,,,6,001,2022-12-16_11h01.12.981,00_bat_bachelor,2022.2.4,59.95154464480134,
