loop_instruction.thisRepN,loop_instruction.thisTrialN,loop_instruction.thisN,loop_instruction.thisIndex,loop_rsi_practice.thisRepN,loop_rsi_practice.thisTrialN,loop_rsi_practice.thisN,loop_rsi_practice.thisIndex,loop_practice.thisRepN,loop_practice.thisTrialN,loop_practice.thisN,loop_practice.thisIndex,loop_exp.thisRepN,loop_exp.thisTrialN,loop_exp.thisN,loop_exp.thisIndex,loop_trials.thisRepN,loop_trials.thisTrialN,loop_trials.thisN,loop_trials.thisIndex,map_condition,map_x_key,map_y_key,key_resp_welcome.started,key_resp_welcome.keys,key_resp_welcome.rt,index,text_empty_rsi_practice.started,text_empty_rsi_practice.stopped,rsi,stimulus.started,stimulus,correct,trial_type,key_resp_trial.keys,key_resp_trial.corr,key_resp_trial.rt,stimulus.stopped,key_resp_instruction_rsi.started,key_resp_instruction_rsi.keys,key_resp_instruction_rsi.rt,key_resp_instruction_rsi.stopped,key_resp_instruction_final.started,key_resp_instruction_final.keys,key_resp_instruction_final.rt,key_resp_break.started,key_resp_break.keys,key_resp_break.rt,key_resp_break.stopped,key_resp_end_screen.started,image_end_screen.started,key_resp_end_screen.keys,participant,session,Alter,Geschlecht (w/m/d/andere),Studiengang,date,expName,psychopyVersion,frameRate,
,,,,0,0,0,0,0,0,0,0,,,,,,,,,0,d,l,366.17245400854154,j,18.640009368245956,0,384.8444118418265,385.8493973466102,1,385.8493973466102,X,d,go,d,1,0.5328308396274224,,,,,,,,,,,,,,,,70,001,22,w,Psychologie,2023-01-25_12h06.18.082,00_bat_bachelor,2022.2.5,60.21089171903543,
,,,,0,0,0,0,1,0,1,0,,,,,,,,,,,,,,,1,387.07861385314027,388.07946837705094,1,388.07946837705094,Y,l,go,l,1,0.3058089990518056,,,,,,,,,,,,,,,,70,001,22,w,Psychologie,2023-01-25_12h06.18.082,00_bat_bachelor,2022.2.5,60.21089171903543,
,,,,0,0,0,0,2,0,2,0,,,,,,,,,,,,,,,2,389.09675855684327,390.09752569295233,1,390.09752569295233,X,d,go,d,1,0.3681520015816204,,,,,,,,,,,,,,,,70,001,22,w,Psychologie,2023-01-25_12h06.18.082,00_bat_bachelor,2022.2.5,60.21089171903543,
,,,,0,0,0,0,3,0,3,0,,,,,,,,,,,,,,,3,391.18167664983775,392.1832402467262,1,392.1832402467262,X,None,nogo,d,0,0.5210062111145817,,,,,,,,,,,,,,,,70,001,22,w,Psychologie,2023-01-25_12h06.18.082,00_bat_bachelor,2022.2.5,60.21089171903543,
,,,,0,0,0,0,4,0,4,0,,,,,,,,,,,,,,,4,393.86697109695524,394.8691458221292,1,394.8691458221292,Y,l,go,l,1,0.4124678927473724,,,,,,,,,,,,,,,,70,001,22,w,Psychologie,2023-01-25_12h06.18.082,00_bat_bachelor,2022.2.5,60.21089171903543,
,,,,0,0,0,0,5,0,5,0,,,,,,,,,,,,,,,5,396.01958132436266,397.02066868694965,1,397.02066868694965,X,d,go,d,1,0.34955745592014864,,,,,,,,,,,,,,,,70,001,22,w,Psychologie,2023-01-25_12h06.18.082,00_bat_bachelor,2022.2.5,60.21089171903543,
,,,,0,0,0,0,6,0,6,0,,,,,,,,,,,,,,,6,398.08710601436906,399.08787842892343,1,399.08787842892343,Y,l,go,l,1,0.38597706524888054,,,,,,,,,,,,,,,,70,001,22,w,Psychologie,2023-01-25_12h06.18.082,00_bat_bachelor,2022.2.5,60.21089171903543,
,,,,0,0,0,0,7,0,7,0,,,,,,,,,,,,,,,7,400.1886879099766,401.18947234761436,1,401.18947234761436,Y,None,nogo,None,1,,401.9900069969008,,,,,,,,,,,,,,,70,001,22,w,Psychologie,2023-01-25_12h06.18.082,00_bat_bachelor,2022.2.5,60.21089171903543,
,,,,0,0,0,0,8,0,8,0,,,,,,,,,,,,,,,8,402.5905261627049,403.5912839148659,1,403.5912839148659,X,d,go,d,1,0.40202064893674105,,,,,,,,,,,,,,,,70,001,22,w,Psychologie,2023-01-25_12h06.18.082,00_bat_bachelor,2022.2.5,60.21089171903543,
,,,,0,0,0,0,9,0,9,0,,,,,,,,,,,,,,,9,404.7088786030654,405.7096920722979,1,405.7096920722979,Y,l,go,l,1,0.48351184878265485,,,,,,,,,,,,,,,,70,001,22,w,Psychologie,2023-01-25_12h06.18.082,00_bat_bachelor,2022.2.5,60.21089171903543,
,,,,0,0,0,0,10,0,10,0,,,,,,,,,,,,,,,10,406.89383904106217,407.89454664784716,1,407.89454664784716,X,d,go,d,1,0.3785939670051448,,,,,,,,,,,,,,,,70,001,22,w,Psychologie,2023-01-25_12h06.18.082,00_bat_bachelor,2022.2.5,60.21089171903543,
,,,,0,0,0,0,11,0,11,0,,,,,,,,,,,,,,,11,408.9785970207304,409.9792785284808,1,409.9792785284808,Y,l,go,l,1,0.47735863155685365,,,,,,,,,,,,,,,,70,001,22,w,Psychologie,2023-01-25_12h06.18.082,00_bat_bachelor,2022.2.5,60.21089171903543,
,,,,0,0,0,0,12,0,12,0,,,,,,,,,,,,,,,12,411.1636820889544,412.16437122115167,1,412.16437122115167,Y,None,nogo,None,1,,412.96517389884684,,,,,,,,,,,,,,,70,001,22,w,Psychologie,2023-01-25_12h06.18.082,00_bat_bachelor,2022.2.5,60.21089171903543,
,,,,0,0,0,0,13,0,13,0,,,,,,,,,,,,,,,13,413.56553236488253,414.5663188553299,1,414.5663188553299,X,d,go,d,1,0.25897645589429885,,,,,,,,,,,,,,,,70,001,22,w,Psychologie,2023-01-25_12h06.18.082,00_bat_bachelor,2022.2.5,60.21089171903543,
,,,,0,0,0,0,14,0,14,0,,,,,,,,,,,,,,,14,415.5336548697087,416.53447361738654,1,416.53447361738654,Y,l,go,l,1,0.5787716164486483,,,,,,,,,,,,,,,,70,001,22,w,Psychologie,2023-01-25_12h06.18.082,00_bat_bachelor,2022.2.5,60.21089171903543,
,,,,1,0,1,0,0,0,0,0,,,,,,,,,,,,,,,0,429.49422213988146,429.6943528697011,0.2,429.6943528697011,X,d,go,d,1,0.45093173207715154,,417.8474211501307,j,11.629013751109596,,,,,,,,,,,,70,001,22,w,Psychologie,2023-01-25_12h06.18.082,00_bat_bachelor,2022.2.5,60.21089171903543,
,,,,1,0,1,0,1,0,1,0,,,,,,,,,,,,,,,1,430.86183339660056,431.061938613886,0.2,431.061938613886,Y,l,go,l,1,0.39490000740624964,,,,,,,,,,,,,,,,70,001,22,w,Psychologie,2023-01-25_12h06.18.082,00_bat_bachelor,2022.2.5,60.21089171903543,
,,,,1,0,1,0,2,0,2,0,,,,,,,,,,,,,,,2,432.1626395932981,432.3630236891913,0.2,432.3630236891913,X,d,go,d,1,0.35866836982313544,,,,,,,,,,,,,,,,70,001,22,w,Psychologie,2023-01-25_12h06.18.082,00_bat_bachelor,2022.2.5,60.21089171903543,
,,,,1,0,1,0,3,0,3,0,,,,,,,,,,,,,,,3,433.4304111392121,433.63056708837394,0.2,433.63056708837394,X,None,nogo,d,0,0.4905465688207187,,,,,,,,,,,,,,,,70,001,22,w,Psychologie,2023-01-25_12h06.18.082,00_bat_bachelor,2022.2.5,60.21089171903543,
,,,,1,0,1,0,4,0,4,0,,,,,,,,,,,,,,,4,435.2318824217655,435.4319058229448,0.2,435.4319058229448,Y,l,go,l,1,0.3699276166735217,,,,,,,,,,,,,,,,70,001,22,w,Psychologie,2023-01-25_12h06.18.082,00_bat_bachelor,2022.2.5,60.21089171903543,
,,,,1,0,1,0,5,0,5,0,,,,,,,,,,,,,,,5,436.5159544363851,436.7162197669386,0.2,436.7162197669386,X,d,go,d,1,0.3408544496051036,,,,,,,,,,,,,,,,70,001,22,w,Psychologie,2023-01-25_12h06.18.082,00_bat_bachelor,2022.2.5,60.21089171903543,
,,,,1,0,1,0,6,0,6,0,,,,,,,,,,,,,,,6,437.76759706356097,437.96735947421985,0.2,437.96735947421985,X,None,nogo,None,1,,438.76785160257714,,,,,,,,,,,,,,,70,001,22,w,Psychologie,2023-01-25_12h06.18.082,00_bat_bachelor,2022.2.5,60.21089171903543,
,,,,1,0,1,0,7,0,7,0,,,,,,,,,,,,,,,7,439.36861357750604,439.5684654287761,0.2,439.5684654287761,Y,l,go,l,1,0.3524315769318491,,,,,,,,,,,,,,,,70,001,22,w,Psychologie,2023-01-25_12h06.18.082,00_bat_bachelor,2022.2.5,60.21089171903543,
,,,,1,0,1,0,8,0,8,0,,,,,,,,,,,,,,,8,440.6359332287102,440.8361187958508,0.2,440.8361187958508,X,d,go,l,0,0.5413045262102969,,,,,,,,,,,,,,,,70,001,22,w,Psychologie,2023-01-25_12h06.18.082,00_bat_bachelor,2022.2.5,60.21089171903543,
,,,,1,0,1,0,9,0,9,0,,,,,,,,,,,,,,,9,442.0870022046729,442.287168124225,0.2,442.287168124225,X,None,nogo,None,1,,443.0877907478134,,,,,,,,,,,,,,,70,001,22,w,Psychologie,2023-01-25_12h06.18.082,00_bat_bachelor,2022.2.5,60.21089171903543,
,,,,1,0,1,0,10,0,10,0,,,,,,,,,,,,,,,10,443.68817707238486,443.88836293283384,0.2,443.88836293283384,Y,l,go,l,1,0.4887958798208274,,,,,,,,,,,,,,,,70,001,22,w,Psychologie,2023-01-25_12h06.18.082,00_bat_bachelor,2022.2.5,60.21089171903543,
,,,,1,0,1,0,11,0,11,0,,,,,,,,,,,,,,,11,445.0892587460112,445.28948360832874,0.2,445.28948360832874,X,d,go,d,1,0.6552908010198735,,,,,,,,,,,,,,,,70,001,22,w,Psychologie,2023-01-25_12h06.18.082,00_bat_bachelor,2022.2.5,60.21089171903543,
,,,,1,0,1,0,12,0,12,0,,,,,,,,,,,,,,,12,446.6571027827449,446.8572511074599,0.2,446.8572511074599,Y,l,go,l,1,0.46400970133254305,,,,,,,,,,,,,,,,70,001,22,w,Psychologie,2023-01-25_12h06.18.082,00_bat_bachelor,2022.2.5,60.21089171903543,
,,,,1,0,1,0,13,0,13,0,,,,,,,,,,,,,,,13,448.02494072000263,448.2250136800576,0.2,448.2250136800576,X,d,go,d,1,0.49625170353101566,,,,,,,,,,,,,,,,70,001,22,w,Psychologie,2023-01-25_12h06.18.082,00_bat_bachelor,2022.2.5,60.21089171903543,
,,,,1,0,1,0,14,0,14,0,,,,,,,,,,,,,,,14,449.4260511318571,449.6262343530543,0.2,449.6262343530543,Y,l,go,l,1,0.5032656028633937,,,,,,,,,,,,,,,,70,001,22,w,Psychologie,2023-01-25_12h06.18.082,00_bat_bachelor,2022.2.5,60.21089171903543,
,,,,,,,,,,,,,,,,,,,,,,,,,,,,,,,,,,,,,,450.88354868470924,None,,450.88354868470924,450.88354868470924,space,9.273092815419659,,,,,,,,70,001,22,w,Psychologie,2023-01-25_12h06.18.082,00_bat_bachelor,2022.2.5,60.21089171903543,
,,,,,,,,,,,,0,0,0,0,0,0,0,0,,,,,,,0,,,1,461.18499973317375,X,d,go,d,1,0.3121824453701265,,,,,,,,,,,,,,,,70,001,22,w,Psychologie,2023-01-25_12h06.18.082,00_bat_bachelor,2022.2.5,60.21089171903543,
,,,,,,,,,,,,0,0,0,0,1,0,1,0,,,,,,,1,,,1,462.60244638996664,Y,l,go,l,1,0.3671127316192724,,,,,,,,,,,,,,,,70,001,22,w,Psychologie,2023-01-25_12h06.18.082,00_bat_bachelor,2022.2.5,60.21089171903543,
,,,,,,,,,,,,0,0,0,0,2,0,2,0,,,,,,,2,,,1,464.0704049692722,X,d,go,d,1,0.48163975530769676,,,,,,,,,,,,,,,,70,001,22,w,Psychologie,2023-01-25_12h06.18.082,00_bat_bachelor,2022.2.5,60.21089171903543,
,,,,,,,,,,,,0,0,0,0,3,0,3,0,,,,,,,3,,,1,465.67168364673853,Y,l,go,l,1,0.3300465109641664,,,,,,,,,,,,,,,,70,001,22,w,Psychologie,2023-01-25_12h06.18.082,00_bat_bachelor,2022.2.5,60.21089171903543,
,,,,,,,,,,,,0,0,0,0,4,0,4,0,,,,,,,4,,,1,467.105972693942,X,d,go,d,1,0.38301907532149926,,,,,,,,,,,,,,,,70,001,22,w,Psychologie,2023-01-25_12h06.18.082,00_bat_bachelor,2022.2.5,60.21089171903543,
,,,,,,,,,,,,0,0,0,0,5,0,5,0,,,,,,,5,,,1,468.590623520955,X,None,nogo,None,1,,,,,,,,,,,,,,,,,70,001,22,w,Psychologie,2023-01-25_12h06.18.082,00_bat_bachelor,2022.2.5,60.21089171903543,
,,,,,,,,,,,,0,0,0,0,6,0,6,0,,,,,,,6,,,1,470.4099530041567,Y,l,go,l,1,0.35928037780104205,,,,,,,,,,,,,,,,70,001,22,w,Psychologie,2023-01-25_12h06.18.082,00_bat_bachelor,2022.2.5,60.21089171903543,
,,,,,,,,,,,,0,0,0,0,7,0,7,0,,,,,,,7,,,1,471.9110465249396,X,d,go,d,1,0.37018948688637465,,,,,,,,,,,,,,,,70,001,22,w,Psychologie,2023-01-25_12h06.18.082,00_bat_bachelor,2022.2.5,60.21089171903543,
,,,,,,,,,,,,0,0,0,0,8,0,8,0,,,,,,,8,,,1,473.41087292227894,X,None,nogo,d,0,0.35038529423763976,,,,,,,,,,,,,,,,70,001,22,w,Psychologie,2023-01-25_12h06.18.082,00_bat_bachelor,2022.2.5,60.21089171903543,
,,,,,,,,,,,,0,0,0,0,9,0,9,0,,,,,,,9,,,1,474.86204893368995,Y,l,go,l,1,0.3229739620583132,,,,,,,,,,,,,,,,70,001,22,w,Psychologie,2023-01-25_12h06.18.082,00_bat_bachelor,2022.2.5,60.21089171903543,
,,,,,,,,,,,,0,0,0,0,10,0,10,0,,,,,,,10,,,1,476.29655381129123,X,d,go,d,1,0.5447452018852346,,,,,,,,,,,,,,,,70,001,22,w,Psychologie,2023-01-25_12h06.18.082,00_bat_bachelor,2022.2.5,60.21089171903543,
,,,,,,,,,,,,0,0,0,0,11,0,11,0,,,,,,,11,,,1,477.94769897300284,X,None,nogo,None,1,,478.7483380184858,,,,,,,,,,,,,,,70,001,22,w,Psychologie,2023-01-25_12h06.18.082,00_bat_bachelor,2022.2.5,60.21089171903543,
,,,,,,,,,,,,0,0,0,0,12,0,12,0,,,,,,,12,,,1,479.7492365295184,Y,l,go,l,1,0.3716439956333488,,,,,,,,,,,,,,,,70,001,22,w,Psychologie,2023-01-25_12h06.18.082,00_bat_bachelor,2022.2.5,60.21089171903543,
,,,,,,,,,,,,0,0,0,0,13,0,13,0,,,,,,,13,,,1,481.23382225551177,X,d,go,d,1,0.4473544029169716,,,,,,,,,,,,,,,,70,001,22,w,Psychologie,2023-01-25_12h06.18.082,00_bat_bachelor,2022.2.5,60.21089171903543,
,,,,,,,,,,,,0,0,0,0,14,0,14,0,,,,,,,14,,,1,482.7846200946369,X,None,nogo,None,1,,483.58532365463907,,,,,,,,,,,,,,,70,001,22,w,Psychologie,2023-01-25_12h06.18.082,00_bat_bachelor,2022.2.5,60.21089171903543,
,,,,,,,,,,,,0,0,0,0,15,0,15,0,,,,,,,15,,,1,484.58603184792446,Y,l,go,l,1,0.295312782865949,,,,,,,,,,,,,,,,70,001,22,w,Psychologie,2023-01-25_12h06.18.082,00_bat_bachelor,2022.2.5,60.21089171903543,
,,,,,,,,,,,,0,0,0,0,16,0,16,0,,,,,,,16,,,1,485.9872000296018,X,d,go,d,1,0.5179174327640794,,,,,,,,,,,,,,,,70,001,22,w,Psychologie,2023-01-25_12h06.18.082,00_bat_bachelor,2022.2.5,60.21089171903543,
,,,,,,,,,,,,0,0,0,0,17,0,17,0,,,,,,,17,,,1,487.6216423867736,Y,l,go,l,1,0.5798745211795904,,,,,,,,,,,,,,,,70,001,22,w,Psychologie,2023-01-25_12h06.18.082,00_bat_bachelor,2022.2.5,60.21089171903543,
,,,,,,,,,,,,0,0,0,0,18,0,18,0,,,,,,,18,,,1,489.3061342147994,X,d,go,d,1,0.454787646594923,,,,,,,,,,,,,,,,70,001,22,w,Psychologie,2023-01-25_12h06.18.082,00_bat_bachelor,2022.2.5,60.21089171903543,
,,,,,,,,,,,,0,0,0,0,19,0,19,0,,,,,,,19,,,1,490.8739873422892,X,None,nogo,None,1,,,,,,,,,,,,,,,,,70,001,22,w,Psychologie,2023-01-25_12h06.18.082,00_bat_bachelor,2022.2.5,60.21089171903543,
,,,,,,,,,,,,0,0,0,0,20,0,20,0,,,,,,,20,,,1,492.67546595603926,Y,l,go,l,1,0.5103915227809921,,,,,,,,,,,,,,,,70,001,22,w,Psychologie,2023-01-25_12h06.18.082,00_bat_bachelor,2022.2.5,60.21089171903543,
,,,,,,,,,,,,0,0,0,0,21,0,21,0,,,,,,,21,,,1,494.2932706096326,X,d,go,d,1,0.411184640659485,,,,,,,,,,,,,,,,70,001,22,w,Psychologie,2023-01-25_12h06.18.082,00_bat_bachelor,2022.2.5,60.21089171903543,
,,,,,,,,,,,,0,0,0,0,22,0,22,0,,,,,,,22,,,1,495.8111135613872,X,None,nogo,None,1,,496.6119191715843,,,,,,,,,,,,,,,70,001,22,w,Psychologie,2023-01-25_12h06.18.082,00_bat_bachelor,2022.2.5,60.21089171903543,
,,,,,,,,,,,,0,0,0,0,23,0,23,0,,,,,,,23,,,1,497.61254877445754,Y,l,go,l,1,0.3011539845610969,,,,,,,,,,,,,,,,70,001,22,w,Psychologie,2023-01-25_12h06.18.082,00_bat_bachelor,2022.2.5,60.21089171903543,
,,,,,,,,,,,,0,0,0,0,24,0,24,0,,,,,,,24,,,1,499.03013208467746,X,d,go,d,1,0.45900366926798597,,,,,,,,,,,,,,,,70,001,22,w,Psychologie,2023-01-25_12h06.18.082,00_bat_bachelor,2022.2.5,60.21089171903543,
,,,,,,,,,,,,0,0,0,0,25,0,25,0,,,,,,,25,,,1,500.5980828636093,Y,l,go,l,1,0.37029593577608466,,,,,,,,,,,,,,,,70,001,22,w,Psychologie,2023-01-25_12h06.18.082,00_bat_bachelor,2022.2.5,60.21089171903543,
,,,,,,,,,,,,0,0,0,0,26,0,26,0,,,,,,,26,,,1,502.0826169780339,X,d,go,d,1,0.4381519957096316,,,,,,,,,,,,,,,,70,001,22,w,Psychologie,2023-01-25_12h06.18.082,00_bat_bachelor,2022.2.5,60.21089171903543,
,,,,,,,,,,,,0,0,0,0,27,0,27,0,,,,,,,27,,,1,503.633684605069,X,None,nogo,None,1,,,,,,,,,,,,,,,,,70,001,22,w,Psychologie,2023-01-25_12h06.18.082,00_bat_bachelor,2022.2.5,60.21089171903543,
,,,,,,,,,,,,0,0,0,0,28,0,28,0,,,,,,,28,,,1,505.435255885066,Y,l,go,l,1,0.32600936939707026,,,,,,,,,,,,,,,,70,001,22,w,Psychologie,2023-01-25_12h06.18.082,00_bat_bachelor,2022.2.5,60.21089171903543,
,,,,,,,,,,,,0,0,0,0,29,0,29,0,,,,,,,29,,,1,506.86952968343394,X,d,go,d,1,0.4352130669285543,,,,,,,,,,,,,,,,70,001,22,w,Psychologie,2023-01-25_12h06.18.082,00_bat_bachelor,2022.2.5,60.21089171903543,
,,,,,,,,,,,,0,0,0,0,30,0,30,0,,,,,,,30,,,1,508.42081548681017,Y,l,go,None,0,,509.2213038029149,,,,,,,,,,,,,,,70,001,22,w,Psychologie,2023-01-25_12h06.18.082,00_bat_bachelor,2022.2.5,60.21089171903543,
,,,,,,,,,,,,0,0,0,0,31,0,31,0,,,,,,,31,,,1,510.221956572379,Y,None,nogo,None,1,,,,,,,,,,,,,,,,,70,001,22,w,Psychologie,2023-01-25_12h06.18.082,00_bat_bachelor,2022.2.5,60.21089171903543,
,,,,,,,,,,,,0,0,0,0,32,0,32,0,,,,,,,32,,,1,512.0235108440393,X,d,go,d,1,0.3217613826855086,,,,,,,,,,,,,,,,70,001,22,w,Psychologie,2023-01-25_12h06.18.082,00_bat_bachelor,2022.2.5,60.21089171903543,
,,,,,,,,,,,,0,0,0,0,33,0,33,0,,,,,,,33,,,1,513.4580884470488,Y,l,go,l,1,0.3199960313504562,,,,,,,,,,,,,,,,70,001,22,w,Psychologie,2023-01-25_12h06.18.082,00_bat_bachelor,2022.2.5,60.21089171903543,
,,,,,,,,,,,,0,0,0,0,34,0,34,0,,,,,,,34,,,1,514.8920906980056,X,d,go,d,1,0.36444388394011185,,,,,,,,,,,,,,,,70,001,22,w,Psychologie,2023-01-25_12h06.18.082,00_bat_bachelor,2022.2.5,60.21089171903543,
,,,,,,,,,,,,0,0,0,0,35,0,35,0,,,,,,,35,,,1,516.35999678605,X,None,nogo,None,1,,,,,,,,,,,,,,,,,70,001,22,w,Psychologie,2023-01-25_12h06.18.082,00_bat_bachelor,2022.2.5,60.21089171903543,
,,,,,,,,,,,,0,0,0,0,36,0,36,0,,,,,,,36,,,1,518.1613815604942,X,None,nogo,None,1,,,,,,,,,,,,,,,,,70,001,22,w,Psychologie,2023-01-25_12h06.18.082,00_bat_bachelor,2022.2.5,60.21089171903543,
,,,,,,,,,,,,0,0,0,0,37,0,37,0,,,,,,,37,,,1,519.9628780623316,Y,l,go,l,1,0.30169649282470345,,,,,,,,,,,,,,,,70,001,22,w,Psychologie,2023-01-25_12h06.18.082,00_bat_bachelor,2022.2.5,60.21089171903543,
,,,,,,,,,,,,0,0,0,0,38,0,38,0,,,,,,,38,,,1,521.3805877623381,X,d,go,d,1,0.4444260310847312,,,,,,,,,,,,,,,,70,001,22,w,Psychologie,2023-01-25_12h06.18.082,00_bat_bachelor,2022.2.5,60.21089171903543,
,,,,,,,,,,,,0,0,0,0,39,0,39,0,,,,,,,39,,,1,522.9316002588021,X,None,nogo,None,1,,,,,,,,,,,,,,,,,70,001,22,w,Psychologie,2023-01-25_12h06.18.082,00_bat_bachelor,2022.2.5,60.21089171903543,
,,,,,,,,,,,,0,0,0,0,40,0,40,0,,,,,,,40,,,1,524.7332469034591,Y,l,go,l,1,0.3083013116265647,,,,,,,,,,,,,,,,70,001,22,w,Psychologie,2023-01-25_12h06.18.082,00_bat_bachelor,2022.2.5,60.21089171903543,
,,,,,,,,,,,,0,0,0,0,41,0,41,0,,,,,,,41,,,1,526.1525404345011,X,d,go,d,1,0.4173437228309922,,,,,,,,,,,,,,,,70,001,22,w,Psychologie,2023-01-25_12h06.18.082,00_bat_bachelor,2022.2.5,60.21089171903543,
,,,,,,,,,,,,0,0,0,0,42,0,42,0,,,,,,,42,,,1,527.7021649894305,Y,l,go,l,1,0.5476982066174969,,,,,,,,,,,,,,,,70,001,22,w,Psychologie,2023-01-25_12h06.18.082,00_bat_bachelor,2022.2.5,60.21089171903543,
,,,,,,,,,,,,0,0,0,0,43,0,43,0,,,,,,,43,,,1,529.3534755428554,Y,None,nogo,None,1,,530.1539879053016,,,,,,,,,,,,,,,70,001,22,w,Psychologie,2023-01-25_12h06.18.082,00_bat_bachelor,2022.2.5,60.21089171903543,
,,,,,,,,,,,,0,0,0,0,44,0,44,0,,,,,,,44,,,1,531.1546386220143,X,d,go,d,1,0.3421168811037205,,,,,,,,,,,,,,,,70,001,22,w,Psychologie,2023-01-25_12h06.18.082,00_bat_bachelor,2022.2.5,60.21089171903543,
,,,,,,,,,,,,0,0,0,0,45,0,45,0,,,,,,,45,,,1,532.6058539286605,Y,l,go,l,1,0.6190937667270191,,,,,,,,,,,,,,,,70,001,22,w,Psychologie,2023-01-25_12h06.18.082,00_bat_bachelor,2022.2.5,60.21089171903543,
,,,,,,,,,,,,0,0,0,0,46,0,46,0,,,,,,,46,,,1,534.3404905330972,X,d,go,d,1,0.4049490207689814,,,,,,,,,,,,,,,,70,001,22,w,Psychologie,2023-01-25_12h06.18.082,00_bat_bachelor,2022.2.5,60.21089171903543,
,,,,,,,,,,,,0,0,0,0,47,0,47,0,,,,,,,47,,,1,535.858358704194,Y,l,go,l,1,0.5588973376434296,,,,,,,,,,,,,,,,70,001,22,w,Psychologie,2023-01-25_12h06.18.082,00_bat_bachelor,2022.2.5,60.21089171903543,
,,,,,,,,,,,,0,0,0,0,48,0,48,0,,,,,,,48,,,1,537.5260706035187,Y,None,nogo,None,1,,,,,,,,,,,,,,,,,70,001,22,w,Psychologie,2023-01-25_12h06.18.082,00_bat_bachelor,2022.2.5,60.21089171903543,
,,,,,,,,,,,,0,0,0,0,49,0,49,0,,,,,,,49,,,1,539.3275629999116,X,d,go,d,1,0.26530767447547987,,,,,,,,,,,,,,,,70,001,22,w,Psychologie,2023-01-25_12h06.18.082,00_bat_bachelor,2022.2.5,60.21089171903543,
,,,,,,,,,,,,0,0,0,0,50,0,50,0,,,,,,,50,,,1,540.695372492075,Y,l,go,l,1,0.5776698847184889,,,,,,,,,,,,,,,,70,001,22,w,Psychologie,2023-01-25_12h06.18.082,00_bat_bachelor,2022.2.5,60.21089171903543,
,,,,,,,,,,,,0,0,0,0,51,0,51,0,,,,,,,51,,,1,542.3798869002494,X,d,go,d,1,0.3974952498683706,,,,,,,,,,,,,,,,70,001,22,w,Psychologie,2023-01-25_12h06.18.082,00_bat_bachelor,2022.2.5,60.21089171903543,
,,,,,,,,,,,,0,0,0,0,52,0,52,0,,,,,,,52,,,1,543.8808569637476,Y,l,go,l,1,0.4719690314377658,,,,,,,,,,,,,,,,70,001,22,w,Psychologie,2023-01-25_12h06.18.082,00_bat_bachelor,2022.2.5,60.21089171903543,
,,,,,,,,,,,,0,0,0,0,53,0,53,0,,,,,,,53,,,1,545.4657213923638,Y,None,nogo,None,1,,,,,,,,,,,,,,,,,70,001,22,w,Psychologie,2023-01-25_12h06.18.082,00_bat_bachelor,2022.2.5,60.21089171903543,
,,,,,,,,,,,,0,0,0,0,54,0,54,0,,,,,,,54,,,1,547.2669835892739,X,d,go,d,1,0.2701908358139917,,,,,,,,,,,,,,,,70,001,22,w,Psychologie,2023-01-25_12h06.18.082,00_bat_bachelor,2022.2.5,60.21089171903543,
,,,,,,,,,,,,0,0,0,0,55,0,55,0,,,,,,,55,,,1,548.6515680250013,Y,l,go,l,1,0.5018108008080162,,,,,,,,,,,,,,,,70,001,22,w,Psychologie,2023-01-25_12h06.18.082,00_bat_bachelor,2022.2.5,60.21089171903543,
,,,,,,,,,,,,0,0,0,0,56,0,56,0,,,,,,,56,,,1,550.2692926219897,X,d,go,d,1,0.3711495799361728,,,,,,,,,,,,,,,,70,001,22,w,Psychologie,2023-01-25_12h06.18.082,00_bat_bachelor,2022.2.5,60.21089171903543,
,,,,,,,,,,,,0,0,0,0,57,0,57,0,,,,,,,57,,,1,551.7537364160526,X,None,nogo,None,1,,552.5544074255158,,,,,,,,,,,,,,,70,001,22,w,Psychologie,2023-01-25_12h06.18.082,00_bat_bachelor,2022.2.5,60.21089171903543,
,,,,,,,,,,,,0,0,0,0,58,0,58,0,,,,,,,58,,,1,553.5550572625361,Y,l,go,l,1,0.3098402757314034,,,,,,,,,,,,,,,,70,001,22,w,Psychologie,2023-01-25_12h06.18.082,00_bat_bachelor,2022.2.5,60.21089171903543,
,,,,,,,,,,,,0,0,0,0,59,0,59,0,,,,,,,59,,,1,554.974198597949,X,d,go,d,1,0.41076470992993563,,,,,,,,,,,,,,,,70,001,22,w,Psychologie,2023-01-25_12h06.18.082,00_bat_bachelor,2022.2.5,60.21089171903543,
,,,,,,,,,,,,0,0,0,0,60,0,60,0,,,,,,,60,,,1,556.5241064301808,Y,l,go,l,1,0.3493932371493429,,,,,,,,,,,,,,,,70,001,22,w,Psychologie,2023-01-25_12h06.18.082,00_bat_bachelor,2022.2.5,60.21089171903543,
,,,,,,,,,,,,0,0,0,0,61,0,61,0,,,,,,,61,,,1,557.9751018009847,Y,None,nogo,None,1,,,,,,,,,,,,,,,,,70,001,22,w,Psychologie,2023-01-25_12h06.18.082,00_bat_bachelor,2022.2.5,60.21089171903543,
,,,,,,,,,,,,0,0,0,0,62,0,62,0,,,,,,,62,,,1,559.7933008141117,X,d,go,d,1,0.35963667382020503,,,,,,,,,,,,,,,,70,001,22,w,Psychologie,2023-01-25_12h06.18.082,00_bat_bachelor,2022.2.5,60.21089171903543,
,,,,,,,,,,,,0,0,0,0,63,0,63,0,,,,,,,63,,,1,561.2610245020478,Y,l,go,l,1,0.5242234320612624,,,,,,,,,,,,,,,,70,001,22,w,Psychologie,2023-01-25_12h06.18.082,00_bat_bachelor,2022.2.5,60.21089171903543,
,,,,,,,,,,,,0,0,0,0,64,0,64,0,,,,,,,64,,,1,562.8955070341472,X,d,go,d,1,0.42570480227004737,,,,,,,,,,,,,,,,70,001,22,w,Psychologie,2023-01-25_12h06.18.082,00_bat_bachelor,2022.2.5,60.21089171903543,
,,,,,,,,,,,,0,0,0,0,65,0,65,0,,,,,,,65,,,1,564.4299249344622,X,None,nogo,None,1,,,,,,,,,,,,,,,,,70,001,22,w,Psychologie,2023-01-25_12h06.18.082,00_bat_bachelor,2022.2.5,60.21089171903543,
,,,,,,,,,,,,0,0,0,0,66,0,66,0,,,,,,,66,,,1,566.2313299429952,X,None,nogo,None,1,,,,,,,,,,,,,,,,,70,001,22,w,Psychologie,2023-01-25_12h06.18.082,00_bat_bachelor,2022.2.5,60.21089171903543,
,,,,,,,,,,,,0,0,0,0,67,0,67,0,,,,,,,67,,,1,568.032638473087,Y,l,go,l,1,0.2319296306814067,,,,,,,,,,,,,,,,70,001,22,w,Psychologie,2023-01-25_12h06.18.082,00_bat_bachelor,2022.2.5,60.21089171903543,
,,,,,,,,,,,,0,0,0,0,68,0,68,0,,,,,,,68,,,1,569.3674590611481,X,d,go,d,1,0.3687997858505696,,,,,,,,,,,,,,,,70,001,22,w,Psychologie,2023-01-25_12h06.18.082,00_bat_bachelor,2022.2.5,60.21089171903543,
,,,,,,,,,,,,0,0,0,0,69,0,69,0,,,,,,,69,,,1,570.8848290043534,X,None,nogo,None,1,,571.6856416524388,,,,,,,,,,,,,,,70,001,22,w,Psychologie,2023-01-25_12h06.18.082,00_bat_bachelor,2022.2.5,60.21089171903543,
,,,,,,,,,,,,0,0,0,0,70,0,70,0,,,,,,,70,,,1,572.6861753633711,Y,l,go,l,1,0.3547106983605772,,,,,,,,,,,,,,,,70,001,22,w,Psychologie,2023-01-25_12h06.18.082,00_bat_bachelor,2022.2.5,60.21089171903543,
,,,,,,,,,,,,0,0,0,0,71,0,71,0,,,,,,,71,,,1,574.1539794011042,X,d,go,d,1,0.5428804395487532,,,,,,,,,,,,,,,,70,001,22,w,Psychologie,2023-01-25_12h06.18.082,00_bat_bachelor,2022.2.5,60.21089171903543,
,,,,,,,,,,,,0,0,0,0,72,0,72,0,,,,,,,72,,,1,575.8053148806212,X,None,nogo,None,1,,,,,,,,,,,,,,,,,70,001,22,w,Psychologie,2023-01-25_12h06.18.082,00_bat_bachelor,2022.2.5,60.21089171903543,
,,,,,,,,,,,,0,0,0,0,73,0,73,0,,,,,,,73,,,1,577.6067371907993,Y,l,go,l,1,0.20991845557000488,,,,,,,,,,,,,,,,70,001,22,w,Psychologie,2023-01-25_12h06.18.082,00_bat_bachelor,2022.2.5,60.21089171903543,
,,,,,,,,,,,,0,0,0,0,74,0,74,0,,,,,,,74,,,1,578.9242291836999,X,d,go,d,1,0.3489413423812948,,,,,,,,,,,,,,,,70,001,22,w,Psychologie,2023-01-25_12h06.18.082,00_bat_bachelor,2022.2.5,60.21089171903543,
,,,,,,,,,,,,0,0,0,0,75,0,75,0,,,,,,,75,,,1,580.376412794285,X,None,nogo,None,1,,581.1923092262587,,,,,,,,,,,,,,,70,001,22,w,Psychologie,2023-01-25_12h06.18.082,00_bat_bachelor,2022.2.5,60.21089171903543,
,,,,,,,,,,,,0,0,0,0,76,0,76,0,,,,,,,76,,,1,582.1946443579509,Y,l,go,l,1,0.27776835730765015,,,,,,,,,,,,,,,,70,001,22,w,Psychologie,2023-01-25_12h06.18.082,00_bat_bachelor,2022.2.5,60.21089171903543,
,,,,,,,,,,,,0,0,0,0,77,0,77,0,,,,,,,77,,,1,583.6124124142807,X,d,go,d,1,0.4117116068373434,,,,,,,,,,,,,,,,70,001,22,w,Psychologie,2023-01-25_12h06.18.082,00_bat_bachelor,2022.2.5,60.21089171903543,
,,,,,,,,,,,,0,0,0,0,78,0,78,0,,,,,,,78,,,1,585.1624331468483,X,None,nogo,None,1,,585.9630000534235,,,,,,,,,,,,,,,70,001,22,w,Psychologie,2023-01-25_12h06.18.082,00_bat_bachelor,2022.2.5,60.21089171903543,
,,,,,,,,,,,,0,0,0,0,79,0,79,0,,,,,,,79,,,1,586.9651076248847,Y,l,go,l,1,0.2911639139056206,,,,,,,,,,,,,,,,70,001,22,w,Psychologie,2023-01-25_12h06.18.082,00_bat_bachelor,2022.2.5,60.21089171903543,
,,,,,,,,,,,,0,0,0,0,80,0,80,0,,,,,,,80,,,1,588.400131844217,X,d,go,None,0,,589.2016283460543,,,,,,,,,,,,,,,70,001,22,w,Psychologie,2023-01-25_12h06.18.082,00_bat_bachelor,2022.2.5,60.21089171903543,
,,,,,,,,,,,,0,0,0,0,81,0,81,0,,,,,,,81,,,1,590.2163446904742,X,None,nogo,None,1,,591.0169379892759,,,,,,,,,,,,,,,70,001,22,w,Psychologie,2023-01-25_12h06.18.082,00_bat_bachelor,2022.2.5,60.21089171903543,
,,,,,,,,,,,,0,0,0,0,82,0,82,0,,,,,,,82,,,1,592.0175804950413,Y,l,go,l,1,0.4389320347108878,,,,,,,,,,,,,,,,70,001,22,w,Psychologie,2023-01-25_12h06.18.082,00_bat_bachelor,2022.2.5,60.21089171903543,
,,,,,,,,,,,,0,0,0,0,83,0,83,0,,,,,,,83,,,1,593.5686472423258,X,d,go,d,1,0.45597060793079436,,,,,,,,,,,,,,,,70,001,22,w,Psychologie,2023-01-25_12h06.18.082,00_bat_bachelor,2022.2.5,60.21089171903543,
,,,,,,,,,,,,0,0,0,0,84,0,84,0,,,,,,,84,,,1,595.1366370232427,X,None,nogo,None,1,,,,,,,,,,,,,,,,,70,001,22,w,Psychologie,2023-01-25_12h06.18.082,00_bat_bachelor,2022.2.5,60.21089171903543,
,,,,,,,,,,,,0,0,0,0,85,0,85,0,,,,,,,85,,,1,596.93802648969,Y,l,go,l,1,0.27860440663062036,,,,,,,,,,,,,,,,70,001,22,w,Psychologie,2023-01-25_12h06.18.082,00_bat_bachelor,2022.2.5,60.21089171903543,
,,,,,,,,,,,,0,0,0,0,86,0,86,0,,,,,,,86,,,1,598.3223291143076,X,d,go,d,1,0.326504958095029,,,,,,,,,,,,,,,,70,001,22,w,Psychologie,2023-01-25_12h06.18.082,00_bat_bachelor,2022.2.5,60.21089171903543,
,,,,,,,,,,,,0,0,0,0,87,0,87,0,,,,,,,87,,,1,599.7567820870318,Y,l,go,l,1,0.32383083197055385,,,,,,,,,,,,,,,,70,001,22,w,Psychologie,2023-01-25_12h06.18.082,00_bat_bachelor,2022.2.5,60.21089171903543,
,,,,,,,,,,,,0,0,0,0,88,0,88,0,,,,,,,88,,,1,601.1910596976522,X,d,go,d,1,0.33771933801472187,,,,,,,,,,,,,,,,70,001,22,w,Psychologie,2023-01-25_12h06.18.082,00_bat_bachelor,2022.2.5,60.21089171903543,
,,,,,,,,,,,,0,0,0,0,89,0,89,0,,,,,,,89,,,1,602.6422292575589,X,None,nogo,None,1,,,,,,,,,,,,,,,,,70,001,22,w,Psychologie,2023-01-25_12h06.18.082,00_bat_bachelor,2022.2.5,60.21089171903543,
,,,,,,,,,,,,0,0,0,0,90,0,90,0,,,,,,,90,,,1,604.4436363189016,Y,l,go,l,1,0.357271337590646,,,,,,,,,,,,,,,,70,001,22,w,Psychologie,2023-01-25_12h06.18.082,00_bat_bachelor,2022.2.5,60.21089171903543,
,,,,,,,,,,,,0,0,0,0,91,0,91,0,,,,,,,91,,,1,605.9114183631027,X,d,go,d,1,0.36083253810647875,,,,,,,,,,,,,,,,70,001,22,w,Psychologie,2023-01-25_12h06.18.082,00_bat_bachelor,2022.2.5,60.21089171903543,
,,,,,,,,,,,,0,0,0,0,92,0,92,0,,,,,,,92,,,1,607.3791616985691,Y,l,go,l,1,0.26990228006616235,,,,,,,,,,,,,,,,70,001,22,w,Psychologie,2023-01-25_12h06.18.082,00_bat_bachelor,2022.2.5,60.21089171903543,
,,,,,,,,,,,,0,0,0,0,93,0,93,0,,,,,,,93,,,1,608.7635845547775,X,d,go,d,1,0.21274037851253524,,,,,,,,,,,,,,,,70,001,22,w,Psychologie,2023-01-25_12h06.18.082,00_bat_bachelor,2022.2.5,60.21089171903543,
,,,,,,,,,,,,0,0,0,0,94,0,94,0,,,,,,,94,,,1,610.0811777181225,Y,l,go,l,1,0.3193391563836485,,,,,,,,,,,,,,,,70,001,22,w,Psychologie,2023-01-25_12h06.18.082,00_bat_bachelor,2022.2.5,60.21089171903543,
,,,,,,,,,,,,0,0,0,0,95,0,95,0,,,,,,,95,,,1,611.5156846484751,X,d,go,d,1,0.2851215443224646,,,,,,,,,,,,,,,,70,001,22,w,Psychologie,2023-01-25_12h06.18.082,00_bat_bachelor,2022.2.5,60.21089171903543,
,,,,,,,,,,,,0,0,0,0,96,0,96,0,,,,,,,96,,,1,612.9166965290788,Y,l,go,l,1,0.3555977727519348,,,,,,,,,,,,,,,,70,001,22,w,Psychologie,2023-01-25_12h06.18.082,00_bat_bachelor,2022.2.5,60.21089171903543,
,,,,,,,,,,,,0,0,0,0,97,0,97,0,,,,,,,97,,,1,614.3846337013529,Y,None,nogo,None,1,,,,,,,,,,,,,,,,,70,001,22,w,Psychologie,2023-01-25_12h06.18.082,00_bat_bachelor,2022.2.5,60.21089171903543,
,,,,,,,,,,,,0,0,0,0,98,0,98,0,,,,,,,98,,,1,616.1858114429051,X,d,go,d,1,0.3344985981239006,,,,,,,,,,,,,,,,70,001,22,w,Psychologie,2023-01-25_12h06.18.082,00_bat_bachelor,2022.2.5,60.21089171903543,
,,,,,,,,,,,,0,0,0,0,99,0,99,0,,,,,,,99,,,1,617.6369220600463,Y,l,go,l,1,0.3474117622245103,,,,,,,,,,,,,,,,70,001,22,w,Psychologie,2023-01-25_12h06.18.082,00_bat_bachelor,2022.2.5,60.21089171903543,
,,,,,,,,,,,,0,0,0,0,100,0,100,0,,,,,,,100,,,1,619.0880238797981,X,d,go,d,1,0.4559157706098631,,,,,,,,,,,,,,,,70,001,22,w,Psychologie,2023-01-25_12h06.18.082,00_bat_bachelor,2022.2.5,60.21089171903543,
,,,,,,,,,,,,0,0,0,0,101,0,101,0,,,,,,,101,,,1,620.6560465044458,Y,l,go,l,1,0.32089102343888953,,,,,,,,,,,,,,,,70,001,22,w,Psychologie,2023-01-25_12h06.18.082,00_bat_bachelor,2022.2.5,60.21089171903543,
,,,,,,,,,,,,0,0,0,0,102,0,102,0,,,,,,,102,,,1,622.0904115028679,X,d,go,d,1,0.4458963752258569,,,,,,,,,,,,,,,,70,001,22,w,Psychologie,2023-01-25_12h06.18.082,00_bat_bachelor,2022.2.5,60.21089171903543,
,,,,,,,,,,,,0,0,0,0,103,0,103,0,,,,,,,103,,,1,623.6416207685252,Y,l,go,l,1,0.35892877384321764,,,,,,,,,,,,,,,,70,001,22,w,Psychologie,2023-01-25_12h06.18.082,00_bat_bachelor,2022.2.5,60.21089171903543,
,,,,,,,,,,,,0,0,0,0,104,0,104,0,,,,,,,104,,,1,625.109413076425,X,d,go,d,1,0.41869823419256136,,,,,,,,,,,,,,,,70,001,22,w,Psychologie,2023-01-25_12h06.18.082,00_bat_bachelor,2022.2.5,60.21089171903543,
,,,,,,,,,,,,0,0,0,0,105,0,105,0,,,,,,,105,,,1,626.6439256957383,Y,l,go,l,1,0.3656679000123404,,,,,,,,,,,,,,,,70,001,22,w,Psychologie,2023-01-25_12h06.18.082,00_bat_bachelor,2022.2.5,60.21089171903543,
,,,,,,,,,,,,0,0,0,0,106,0,106,0,,,,,,,106,,,1,628.1116839869064,X,d,go,d,1,0.32922248484101146,,,,,,,,,,,,,,,,70,001,22,w,Psychologie,2023-01-25_12h06.18.082,00_bat_bachelor,2022.2.5,60.21089171903543,
,,,,,,,,,,,,0,0,0,0,107,0,107,0,,,,,,,107,,,1,629.5461261094315,X,None,nogo,None,1,,630.3466619317187,,,,,,,,,,,,,,,70,001,22,w,Psychologie,2023-01-25_12h06.18.082,00_bat_bachelor,2022.2.5,60.21089171903543,
,,,,,,,,,,,,0,0,0,0,108,0,108,0,,,,,,,108,,,1,631.3474795063958,Y,l,go,l,1,0.3094355938374065,,,,,,,,,,,,,,,,70,001,22,w,Psychologie,2023-01-25_12h06.18.082,00_bat_bachelor,2022.2.5,60.21089171903543,
,,,,,,,,,,,,0,0,0,0,109,0,109,0,,,,,,,109,,,1,632.7653296720819,X,d,go,d,1,0.3389782505691983,,,,,,,,,,,,,,,,70,001,22,w,Psychologie,2023-01-25_12h06.18.082,00_bat_bachelor,2022.2.5,60.21089171903543,
,,,,,,,,,,,,0,0,0,0,110,0,110,0,,,,,,,110,,,1,634.2164382364717,Y,l,go,l,1,0.32094732695259154,,,,,,,,,,,,,,,,70,001,22,w,Psychologie,2023-01-25_12h06.18.082,00_bat_bachelor,2022.2.5,60.21089171903543,
,,,,,,,,,,,,0,0,0,0,111,0,111,0,,,,,,,111,,,1,635.6526615457842,X,d,go,d,1,0.43673091719392687,,,,,,,,,,,,,,,,70,001,22,w,Psychologie,2023-01-25_12h06.18.082,00_bat_bachelor,2022.2.5,60.21089171903543,
,,,,,,,,,,,,0,0,0,0,112,0,112,0,,,,,,,112,,,1,637.2366163199767,Y,l,go,l,1,0.32440647727344185,,,,,,,,,,,,,,,,70,001,22,w,Psychologie,2023-01-25_12h06.18.082,00_bat_bachelor,2022.2.5,60.21089171903543,
,,,,,,,,,,,,0,0,0,0,113,0,113,0,,,,,,,113,,,1,638.6863404618343,X,d,go,d,1,0.4905512607656419,,,,,,,,,,,,,,,,70,001,22,w,Psychologie,2023-01-25_12h06.18.082,00_bat_bachelor,2022.2.5,60.21089171903543,
,,,,,,,,,,,,0,0,0,0,114,0,114,0,,,,,,,114,,,1,640.2875126902945,X,None,nogo,None,1,,,,,,,,,,,,,,,,,70,001,22,w,Psychologie,2023-01-25_12h06.18.082,00_bat_bachelor,2022.2.5,60.21089171903543,
,,,,,,,,,,,,0,0,0,0,115,0,115,0,,,,,,,115,,,1,642.0898440684541,Y,l,go,l,1,0.3019208273617551,,,,,,,,,,,,,,,,70,001,22,w,Psychologie,2023-01-25_12h06.18.082,00_bat_bachelor,2022.2.5,60.21089171903543,
,,,,,,,,,,,,0,0,0,0,116,0,116,0,,,,,,,116,,,1,643.5419660970801,X,d,go,d,1,0.3944803698686883,,,,,,,,,,,,,,,,70,001,22,w,Psychologie,2023-01-25_12h06.18.082,00_bat_bachelor,2022.2.5,60.21089171903543,
,,,,,,,,,,,,0,0,0,0,117,0,117,0,,,,,,,117,,,1,645.0764370752149,Y,l,go,l,1,0.5806838849675842,,,,,,,,,,,,,,,,70,001,22,w,Psychologie,2023-01-25_12h06.18.082,00_bat_bachelor,2022.2.5,60.21089171903543,
,,,,,,,,,,,,0,0,0,0,118,0,118,0,,,,,,,118,,,1,646.792565348791,X,d,go,d,1,0.4395748337265104,,,,,,,,,,,,,,,,70,001,22,w,Psychologie,2023-01-25_12h06.18.082,00_bat_bachelor,2022.2.5,60.21089171903543,
,,,,,,,,,,,,0,0,0,0,119,0,119,0,,,,,,,119,,,1,648.3437048215419,Y,l,go,l,1,0.4089726729434915,,,,,,,,,,,,,,,,70,001,22,w,Psychologie,2023-01-25_12h06.18.082,00_bat_bachelor,2022.2.5,60.21089171903543,
,,,,,,,,,,,,0,0,0,0,120,0,120,0,,,,,,,120,,,1,649.8615146363154,X,d,go,None,0,,650.6621835930273,,,,,,,,,,,,,,,70,001,22,w,Psychologie,2023-01-25_12h06.18.082,00_bat_bachelor,2022.2.5,60.21089171903543,
,,,,,,,,,,,,0,0,0,0,121,0,121,0,,,,,,,121,,,1,651.6629117271514,X,None,nogo,None,1,,652.4634818594204,,,,,,,,,,,,,,,70,001,22,w,Psychologie,2023-01-25_12h06.18.082,00_bat_bachelor,2022.2.5,60.21089171903543,
,,,,,,,,,,,,0,0,0,0,122,0,122,0,,,,,,,122,,,1,653.4643011935987,Y,l,go,l,1,0.40031218755757436,,,,,,,,,,,,,,,,70,001,22,w,Psychologie,2023-01-25_12h06.18.082,00_bat_bachelor,2022.2.5,60.21089171903543,
,,,,,,,,,,,,0,0,0,0,123,0,123,0,,,,,,,123,,,1,654.9655618655961,X,d,go,d,1,0.42688453797018155,,,,,,,,,,,,,,,,70,001,22,w,Psychologie,2023-01-25_12h06.18.082,00_bat_bachelor,2022.2.5,60.21089171903543,
,,,,,,,,,,,,0,0,0,0,124,0,124,0,,,,,,,124,,,1,656.5002574715181,Y,l,go,l,1,0.5890267830109224,,,,,,,,,,,,,,,,70,001,22,w,Psychologie,2023-01-25_12h06.18.082,00_bat_bachelor,2022.2.5,60.21089171903543,
,,,,,,,,,,,,0,0,0,0,125,0,125,0,,,,,,,125,,,1,658.20131075877,X,d,go,d,1,0.41562910337233916,,,,,,,,,,,,,,,,70,001,22,w,Psychologie,2023-01-25_12h06.18.082,00_bat_bachelor,2022.2.5,60.21089171903543,
,,,,,,,,,,,,0,0,0,0,126,0,126,0,,,,,,,126,,,1,659.7191663201666,Y,l,go,l,1,0.5057854806655087,,,,,,,,,,,,,,,,70,001,22,w,Psychologie,2023-01-25_12h06.18.082,00_bat_bachelor,2022.2.5,60.21089171903543,
,,,,,,,,,,,,0,0,0,0,127,0,127,0,,,,,,,127,,,1,661.3368947293493,Y,None,nogo,None,1,,662.137360758672,,,,,,,,,,,,,,,70,001,22,w,Psychologie,2023-01-25_12h06.18.082,00_bat_bachelor,2022.2.5,60.21089171903543,
,,,,,,,,,,,,0,0,0,0,128,0,128,0,,,,,,,128,,,1,663.13833052892,X,d,go,d,1,0.293817805883009,,,,,,,,,,,,,,,,70,001,22,w,Psychologie,2023-01-25_12h06.18.082,00_bat_bachelor,2022.2.5,60.21089171903543,
,,,,,,,,,,,,0,0,0,0,129,0,129,0,,,,,,,129,,,1,664.5393746668124,Y,l,go,None,0,,665.3398137173499,,,,,,,,,,,,,,,70,001,22,w,Psychologie,2023-01-25_12h06.18.082,00_bat_bachelor,2022.2.5,60.21089171903543,
,,,,,,,,,,,,0,0,0,0,130,0,130,0,,,,,,,130,,,1,666.3405873048468,Y,None,nogo,l,0,0.4119048570864834,,,,,,,,,,,,,,,,70,001,22,w,Psychologie,2023-01-25_12h06.18.082,00_bat_bachelor,2022.2.5,60.21089171903543,
,,,,,,,,,,,,0,0,0,0,131,0,131,0,,,,,,,131,,,1,667.8584921318688,Y,None,nogo,None,1,,,,,,,,,,,,,,,,,70,001,22,w,Psychologie,2023-01-25_12h06.18.082,00_bat_bachelor,2022.2.5,60.21089171903543,
,,,,,,,,,,,,0,0,0,0,132,0,132,0,,,,,,,132,,,1,669.6600071083521,X,d,go,d,1,0.3007320010801777,,,,,,,,,,,,,,,,70,001,22,w,Psychologie,2023-01-25_12h06.18.082,00_bat_bachelor,2022.2.5,60.21089171903543,
,,,,,,,,,,,,0,0,0,0,133,0,133,0,,,,,,,133,,,1,671.0609873182257,Y,l,go,l,1,0.36407409858657047,,,,,,,,,,,,,,,,70,001,22,w,Psychologie,2023-01-25_12h06.18.082,00_bat_bachelor,2022.2.5,60.21089171903543,
,,,,,,,,,,,,0,0,0,0,134,0,134,0,,,,,,,134,,,1,672.528793115518,X,d,go,None,0,,,,,,,,,,,,,,,,,70,001,22,w,Psychologie,2023-01-25_12h06.18.082,00_bat_bachelor,2022.2.5,60.21089171903543,
,,,,,,,,,,,,0,0,0,0,135,0,135,0,,,,,,,135,,,1,674.3300899156602,Y,l,go,d,0,0.31089332833653316,,,,,,,,,,,,,,,,70,001,22,w,Psychologie,2023-01-25_12h06.18.082,00_bat_bachelor,2022.2.5,60.21089171903543,
,,,,,,,,,,,,0,0,0,0,136,0,136,0,,,,,,,136,,,1,675.7478274741443,Y,None,nogo,l,0,0.42851001012604684,,,,,,,,,,,,,,,,70,001,22,w,Psychologie,2023-01-25_12h06.18.082,00_bat_bachelor,2022.2.5,60.21089171903543,
,,,,,,,,,,,,0,0,0,0,137,0,137,0,,,,,,,137,,,1,677.2824160446762,X,d,go,d,1,0.4620651756413281,,,,,,,,,,,,,,,,70,001,22,w,Psychologie,2023-01-25_12h06.18.082,00_bat_bachelor,2022.2.5,60.21089171903543,
,,,,,,,,,,,,0,0,0,0,138,0,138,0,,,,,,,138,,,1,678.8502201997326,Y,l,go,None,0,,,,,,,,,,,,,,,,,70,001,22,w,Psychologie,2023-01-25_12h06.18.082,00_bat_bachelor,2022.2.5,60.21089171903543,
,,,,,,,,,,,,0,0,0,0,139,0,139,0,,,,,,,139,,,1,680.6515964700375,X,d,go,d,1,0.4848000861238688,,,,,,,,,,,,,,,,70,001,22,w,Psychologie,2023-01-25_12h06.18.082,00_bat_bachelor,2022.2.5,60.21089171903543,
,,,,,,,,,,,,0,0,0,0,140,0,140,0,,,,,,,140,,,1,682.2527936245897,Y,l,go,l,1,0.6115957153378986,,,,,,,,,,,,,,,,70,001,22,w,Psychologie,2023-01-25_12h06.18.082,00_bat_bachelor,2022.2.5,60.21089171903543,
,,,,,,,,,,,,0,0,0,0,141,0,141,0,,,,,,,141,,,1,683.9708514682716,X,d,go,d,1,0.6295609513763338,,,,,,,,,,,,,,,,70,001,22,w,Psychologie,2023-01-25_12h06.18.082,00_bat_bachelor,2022.2.5,60.21089171903543,
,,,,,,,,,,,,0,0,0,0,142,0,142,0,,,,,,,142,,,1,685.7055065473542,X,None,nogo,None,1,,686.5058499991428,,,,,,,,,,,,,,,70,001,22,w,Psychologie,2023-01-25_12h06.18.082,00_bat_bachelor,2022.2.5,60.21089171903543,
,,,,,,,,,,,,0,0,0,0,143,0,143,0,,,,,,,143,,,1,687.5067775417119,Y,l,go,l,1,0.5658335263724439,,,,,,,,,,,,,,,,70,001,22,w,Psychologie,2023-01-25_12h06.18.082,00_bat_bachelor,2022.2.5,60.21089171903543,
,,,,,,,,,,,,0,0,0,0,144,0,144,0,,,,,,,144,,,1,689.1748873782344,X,d,go,None,0,,689.9754768648418,,,,,,,,,,,,,,,70,001,22,w,Psychologie,2023-01-25_12h06.18.082,00_bat_bachelor,2022.2.5,60.21089171903543,
,,,,,,,,,,,,0,0,0,0,145,0,145,0,,,,,,,145,,,1,690.9762794838753,Y,l,go,l,1,0.4159683909965679,,,,,,,,,,,,,,,,70,001,22,w,Psychologie,2023-01-25_12h06.18.082,00_bat_bachelor,2022.2.5,60.21089171903543,
,,,,,,,,,,,,0,0,0,0,146,0,146,0,,,,,,,146,,,1,692.4939570439165,Y,None,nogo,l,0,0.4748193994164467,,,,,,,,,,,,,,,,70,001,22,w,Psychologie,2023-01-25_12h06.18.082,00_bat_bachelor,2022.2.5,60.21089171903543,
,,,,,,,,,,,,0,0,0,0,147,0,147,0,,,,,,,147,,,1,694.0782874684082,X,d,go,d,1,0.39353112695971504,,,,,,,,,,,,,,,,70,001,22,w,Psychologie,2023-01-25_12h06.18.082,00_bat_bachelor,2022.2.5,60.21089171903543,
,,,,,,,,,,,,0,0,0,0,148,0,148,0,,,,,,,148,,,1,695.579587728891,Y,l,go,l,1,0.36513858783291653,,,,,,,,,,,,,,,,70,001,22,w,Psychologie,2023-01-25_12h06.18.082,00_bat_bachelor,2022.2.5,60.21089171903543,
,,,,,,,,,,,,0,0,0,0,149,0,149,0,,,,,,,149,,,1,697.0473210939672,X,d,go,d,1,0.48052277468377724,,,,,,,,,,,,,,,,70,001,22,w,Psychologie,2023-01-25_12h06.18.082,00_bat_bachelor,2022.2.5,60.21089171903543,
,,,,,,,,,,,,0,0,0,0,150,0,150,0,,,,,,,150,,,1,698.6317087017815,X,None,nogo,None,1,,,,,,,,,,,,,,,,,70,001,22,w,Psychologie,2023-01-25_12h06.18.082,00_bat_bachelor,2022.2.5,60.21089171903543,
,,,,,,,,,,,,0,0,0,0,151,0,151,0,,,,,,,151,,,1,700.4333993336768,Y,l,go,l,1,0.44755263841943815,,,,,,,,,,,,,,,,70,001,22,w,Psychologie,2023-01-25_12h06.18.082,00_bat_bachelor,2022.2.5,60.21089171903543,
,,,,,,,,,,,,0,0,0,0,152,0,152,0,,,,,,,152,,,1,701.9845517092617,X,d,go,d,1,0.6077755771111697,,,,,,,,,,,,,,,,70,001,22,w,Psychologie,2023-01-25_12h06.18.082,00_bat_bachelor,2022.2.5,60.21089171903543,
,,,,,,,,,,,,0,0,0,0,153,0,153,0,,,,,,,153,,,1,703.7024866821594,X,None,nogo,None,1,,,,,,,,,,,,,,,,,70,001,22,w,Psychologie,2023-01-25_12h06.18.082,00_bat_bachelor,2022.2.5,60.21089171903543,
,,,,,,,,,,,,0,0,0,0,154,0,154,0,,,,,,,154,,,1,705.5036908160546,Y,l,go,l,1,0.3285867237718776,,,,,,,,,,,,,,,,70,001,22,w,Psychologie,2023-01-25_12h06.18.082,00_bat_bachelor,2022.2.5,60.21089171903543,
,,,,,,,,,,,,0,0,0,0,155,0,155,0,,,,,,,155,,,1,706.9381783920107,X,d,go,d,1,0.45396332716336474,,,,,,,,,,,,,,,,70,001,22,w,Psychologie,2023-01-25_12h06.18.082,00_bat_bachelor,2022.2.5,60.21089171903543,
,,,,,,,,,,,,0,0,0,0,156,0,156,0,,,,,,,156,,,1,708.5059086486581,Y,l,go,l,1,0.41480712994234636,,,,,,,,,,,,,,,,70,001,22,w,Psychologie,2023-01-25_12h06.18.082,00_bat_bachelor,2022.2.5,60.21089171903543,
,,,,,,,,,,,,0,0,0,0,157,0,157,0,,,,,,,157,,,1,710.0237721277517,Y,None,nogo,None,1,,,,,,,,,,,,,,,,,70,001,22,w,Psychologie,2023-01-25_12h06.18.082,00_bat_bachelor,2022.2.5,60.21089171903543,
,,,,,,,,,,,,0,0,0,0,158,0,158,0,,,,,,,158,,,1,711.8251929716789,X,d,go,d,1,0.32669263664865866,,,,,,,,,,,,,,,,70,001,22,w,Psychologie,2023-01-25_12h06.18.082,00_bat_bachelor,2022.2.5,60.21089171903543,
,,,,,,,,,,,,0,0,0,0,159,0,159,0,,,,,,,159,,,1,713.2595433077076,Y,l,go,l,1,0.3970583106856793,,,,,,,,,,,,,,,,70,001,22,w,Psychologie,2023-01-25_12h06.18.082,00_bat_bachelor,2022.2.5,60.21089171903543,
,,,,,,,,,,,,0,0,0,0,160,0,160,0,,,,,,,160,,,1,714.7608470871928,X,d,go,d,1,0.5595380839658901,,,,,,,,,,,,,,,,70,001,22,w,Psychologie,2023-01-25_12h06.18.082,00_bat_bachelor,2022.2.5,60.21089171903543,
,,,,,,,,,,,,0,0,0,0,161,0,161,0,,,,,,,161,,,1,716.4302269796608,Y,l,go,l,1,0.3696745438501239,,,,,,,,,,,,,,,,70,001,22,w,Psychologie,2023-01-25_12h06.18.082,00_bat_bachelor,2022.2.5,60.21089171903543,
,,,,,,,,,,,,0,0,0,0,162,0,162,0,,,,,,,162,,,1,717.9466456271475,X,d,go,d,1,0.44575180404353887,,,,,,,,,,,,,,,,70,001,22,w,Psychologie,2023-01-25_12h06.18.082,00_bat_bachelor,2022.2.5,60.21089171903543,
,,,,,,,,,,,,0,0,0,0,163,0,163,0,,,,,,,163,,,1,719.4977798213949,Y,l,go,l,1,0.32655393047025427,,,,,,,,,,,,,,,,70,001,22,w,Psychologie,2023-01-25_12h06.18.082,00_bat_bachelor,2022.2.5,60.21089171903543,
,,,,,,,,,,,,0,0,0,0,164,0,164,0,,,,,,,164,,,1,720.9321946719429,Y,None,nogo,None,1,,721.7327791733551,,,,,,,,,,,,,,,70,001,22,w,Psychologie,2023-01-25_12h06.18.082,00_bat_bachelor,2022.2.5,60.21089171903543,
,,,,,,,,,,,,0,0,0,0,165,0,165,0,,,,,,,165,,,1,722.7336949860328,X,d,go,d,1,0.3556502640713006,,,,,,,,,,,,,,,,70,001,22,w,Psychologie,2023-01-25_12h06.18.082,00_bat_bachelor,2022.2.5,60.21089171903543,
,,,,,,,,,,,,0,0,0,0,166,0,166,0,,,,,,,166,,,1,724.2013591446448,Y,l,go,l,1,0.3354091323562898,,,,,,,,,,,,,,,,70,001,22,w,Psychologie,2023-01-25_12h06.18.082,00_bat_bachelor,2022.2.5,60.21089171903543,
,,,,,,,,,,,,0,0,0,0,167,0,167,0,,,,,,,167,,,1,725.6525794364279,Y,None,nogo,None,1,,726.4530850541778,,,,,,,,,,,,,,,70,001,22,w,Psychologie,2023-01-25_12h06.18.082,00_bat_bachelor,2022.2.5,60.21089171903543,
,,,,,,,,,,,,0,0,0,0,168,0,168,0,,,,,,,168,,,1,727.4538645066787,X,d,go,d,1,0.19430154736619443,,,,,,,,,,,,,,,,70,001,22,w,Psychologie,2023-01-25_12h06.18.082,00_bat_bachelor,2022.2.5,60.21089171903543,
,,,,,,,,,,,,0,0,0,0,169,0,169,0,,,,,,,169,,,1,728.7547419625334,Y,l,go,l,1,0.3253170115640387,,,,,,,,,,,,,,,,70,001,22,w,Psychologie,2023-01-25_12h06.18.082,00_bat_bachelor,2022.2.5,60.21089171903543,
,,,,,,,,,,,,0,0,0,0,170,0,170,0,,,,,,,170,,,1,730.1890656130272,X,d,go,d,1,0.5158969558542594,,,,,,,,,,,,,,,,70,001,22,w,Psychologie,2023-01-25_12h06.18.082,00_bat_bachelor,2022.2.5,60.21089171903543,
,,,,,,,,,,,,0,0,0,0,171,0,171,0,,,,,,,171,,,1,731.8068494460313,Y,l,go,l,1,0.36127152998233214,,,,,,,,,,,,,,,,70,001,22,w,Psychologie,2023-01-25_12h06.18.082,00_bat_bachelor,2022.2.5,60.21089171903543,
,,,,,,,,,,,,0,0,0,0,172,0,172,0,,,,,,,172,,,1,733.2749182865373,Y,None,nogo,None,1,,,,,,,,,,,,,,,,,70,001,22,w,Psychologie,2023-01-25_12h06.18.082,00_bat_bachelor,2022.2.5,60.21089171903543,
,,,,,,,,,,,,0,0,0,0,173,0,173,0,,,,,,,173,,,1,735.0762731497525,X,d,go,d,1,0.5001469131675549,,,,,,,,,,,,,,,,70,001,22,w,Psychologie,2023-01-25_12h06.18.082,00_bat_bachelor,2022.2.5,60.21089171903543,
,,,,,,,,,,,,0,0,0,0,174,0,174,0,,,,,,,174,,,1,736.6773673743592,Y,l,go,None,0,,,,,,,,,,,,,,,,,70,001,22,w,Psychologie,2023-01-25_12h06.18.082,00_bat_bachelor,2022.2.5,60.21089171903543,
,,,,,,,,,,,,0,0,0,0,175,0,175,0,,,,,,,175,,,1,738.4789137283224,Y,None,nogo,None,1,,739.2793149498757,,,,,,,,,,,,,,,70,001,22,w,Psychologie,2023-01-25_12h06.18.082,00_bat_bachelor,2022.2.5,60.21089171903543,
,,,,,,,,,,,,0,0,0,0,176,0,176,0,,,,,,,176,,,1,740.2801193284104,X,d,go,d,1,0.367643216799479,,,,,,,,,,,,,,,,70,001,22,w,Psychologie,2023-01-25_12h06.18.082,00_bat_bachelor,2022.2.5,60.21089171903543,
,,,,,,,,,,,,0,0,0,0,177,0,177,0,,,,,,,177,,,1,741.764829391439,Y,l,go,None,0,,,,,,,,,,,,,,,,,70,001,22,w,Psychologie,2023-01-25_12h06.18.082,00_bat_bachelor,2022.2.5,60.21089171903543,
,,,,,,,,,,,,0,0,0,0,178,0,178,0,,,,,,,178,,,1,743.565922091133,X,d,go,d,1,0.4658671325305477,,,,,,,,,,,,,,,,70,001,22,w,Psychologie,2023-01-25_12h06.18.082,00_bat_bachelor,2022.2.5,60.21089171903543,
,,,,,,,,,,,,0,0,0,0,179,0,179,0,,,,,,,179,,,1,745.1338708173716,X,None,nogo,None,1,,,,,,,,,,,,,,,,,70,001,22,w,Psychologie,2023-01-25_12h06.18.082,00_bat_bachelor,2022.2.5,60.21089171903543,
,,,,,,,,,,,,0,0,0,0,180,0,180,0,,,,,,,180,,,1,746.9351767081534,Y,l,go,l,1,0.32901897095143795,,,,,,,,,,,,,,,,70,001,22,w,Psychologie,2023-01-25_12h06.18.082,00_bat_bachelor,2022.2.5,60.21089171903543,
,,,,,,,,,,,,0,0,0,0,181,0,181,0,,,,,,,181,,,1,748.36958950595,X,d,go,d,1,0.43046333332313225,,,,,,,,,,,,,,,,70,001,22,w,Psychologie,2023-01-25_12h06.18.082,00_bat_bachelor,2022.2.5,60.21089171903543,
,,,,,,,,,,,,0,0,0,0,182,0,182,0,,,,,,,182,,,1,749.9041065240162,Y,l,go,l,1,0.35224859038135037,,,,,,,,,,,,,,,,70,001,22,w,Psychologie,2023-01-25_12h06.18.082,00_bat_bachelor,2022.2.5,60.21089171903543,
,,,,,,,,,,,,0,0,0,0,183,0,183,0,,,,,,,183,,,1,751.3718351971474,X,d,go,d,1,0.4363872308167629,,,,,,,,,,,,,,,,70,001,22,w,Psychologie,2023-01-25_12h06.18.082,00_bat_bachelor,2022.2.5,60.21089171903543,
,,,,,,,,,,,,0,0,0,0,184,0,184,0,,,,,,,184,,,1,752.9232292089146,Y,l,go,l,1,0.37335421645548195,,,,,,,,,,,,,,,,70,001,22,w,Psychologie,2023-01-25_12h06.18.082,00_bat_bachelor,2022.2.5,60.21089171903543,
,,,,,,,,,,,,0,0,0,0,185,0,185,0,,,,,,,185,,,1,754.407468316087,Y,None,nogo,None,1,,755.2081208509626,,,,,,,,,,,,,,,70,001,22,w,Psychologie,2023-01-25_12h06.18.082,00_bat_bachelor,2022.2.5,60.21089171903543,
,,,,,,,,,,,,0,0,0,0,186,0,186,0,,,,,,,186,,,1,756.2090428218362,X,d,go,d,1,0.4154367328155786,,,,,,,,,,,,,,,,70,001,22,w,Psychologie,2023-01-25_12h06.18.082,00_bat_bachelor,2022.2.5,60.21089171903543,
,,,,,,,,,,,,0,0,0,0,187,0,187,0,,,,,,,187,,,1,757.7445645066327,Y,l,go,l,1,0.5755611402564682,,,,,,,,,,,,,,,,70,001,22,w,Psychologie,2023-01-25_12h06.18.082,00_bat_bachelor,2022.2.5,60.21089171903543,
,,,,,,,,,,,,0,0,0,0,188,0,188,0,,,,,,,188,,,1,759.4614461336168,Y,None,nogo,None,1,,760.262035326974,,,,,,,,,,,,,,,70,001,22,w,Psychologie,2023-01-25_12h06.18.082,00_bat_bachelor,2022.2.5,60.21089171903543,
,,,,,,,,,,,,0,0,0,0,189,0,189,0,,,,,,,189,,,1,761.2628490894567,X,d,go,d,1,0.32165200129384175,,,,,,,,,,,,,,,,70,001,22,w,Psychologie,2023-01-25_12h06.18.082,00_bat_bachelor,2022.2.5,60.21089171903543,
,,,,,,,,,,,,0,0,0,0,190,0,190,0,,,,,,,190,,,1,762.6970533881104,Y,l,go,None,0,,,,,,,,,,,,,,,,,70,001,22,w,Psychologie,2023-01-25_12h06.18.082,00_bat_bachelor,2022.2.5,60.21089171903543,
,,,,,,,,,,,,0,0,0,0,191,0,191,0,,,,,,,191,,,1,764.4986525267013,Y,None,nogo,None,1,,,,,,,,,,,,,,,,,70,001,22,w,Psychologie,2023-01-25_12h06.18.082,00_bat_bachelor,2022.2.5,60.21089171903543,
,,,,,,,,,,,,0,0,0,0,192,0,192,0,,,,,,,192,,,1,766.2999100316083,X,d,go,d,1,0.3804329235572368,,,,,,,,,,,,,,,,70,001,22,w,Psychologie,2023-01-25_12h06.18.082,00_bat_bachelor,2022.2.5,60.21089171903543,
,,,,,,,,,,,,0,0,0,0,193,0,193,0,,,,,,,193,,,1,767.7845309473341,Y,l,go,l,1,0.5438672181917354,,,,,,,,,,,,,,,,70,001,22,w,Psychologie,2023-01-25_12h06.18.082,00_bat_bachelor,2022.2.5,60.21089171903543,
,,,,,,,,,,,,0,0,0,0,194,0,194,0,,,,,,,194,,,1,769.4356901849387,X,d,go,d,1,0.48478278453694656,,,,,,,,,,,,,,,,70,001,22,w,Psychologie,2023-01-25_12h06.18.082,00_bat_bachelor,2022.2.5,60.21089171903543,
,,,,,,,,,,,,0,0,0,0,195,0,195,0,,,,,,,195,,,1,771.0368882192415,X,None,nogo,None,1,,771.8375568827614,,,,,,,,,,,,,,,70,001,22,w,Psychologie,2023-01-25_12h06.18.082,00_bat_bachelor,2022.2.5,60.21089171903543,
,,,,,,,,,,,,0,0,0,0,196,0,196,0,,,,,,,196,,,1,772.8381955763325,Y,l,go,l,1,0.31340822094352916,,,,,,,,,,,,,,,,70,001,22,w,Psychologie,2023-01-25_12h06.18.082,00_bat_bachelor,2022.2.5,60.21089171903543,
,,,,,,,,,,,,0,0,0,0,197,0,197,0,,,,,,,197,,,1,774.2560958873364,X,d,go,d,1,0.455988496018108,,,,,,,,,,,,,,,,70,001,22,w,Psychologie,2023-01-25_12h06.18.082,00_bat_bachelor,2022.2.5,60.21089171903543,
,,,,,,,,,,,,0,0,0,0,198,0,198,0,,,,,,,198,,,1,775.8238809813047,X,None,nogo,None,1,,776.6244420228759,,,,,,,,,,,,,,,70,001,22,w,Psychologie,2023-01-25_12h06.18.082,00_bat_bachelor,2022.2.5,60.21089171903543,
,,,,,,,,,,,,0,0,0,0,199,0,199,0,,,,,,,199,,,1,777.6253100361791,X,None,nogo,None,1,,,,,,,,,,,,,,,,,70,001,22,w,Psychologie,2023-01-25_12h06.18.082,00_bat_bachelor,2022.2.5,60.21089171903543,
,,,,,,,,,,,,0,0,0,0,200,0,200,0,,,,,,,200,,,1,779.4264083076268,Y,l,go,l,1,0.3259422156843357,,,,,,,,,,,,,,,,70,001,22,w,Psychologie,2023-01-25_12h06.18.082,00_bat_bachelor,2022.2.5,60.21089171903543,
,,,,,,,,,,,,0,0,0,0,201,0,201,0,,,,,,,201,,,1,780.8609800456907,X,d,go,None,0,,,,,,,,,,,,,,,,,70,001,22,w,Psychologie,2023-01-25_12h06.18.082,00_bat_bachelor,2022.2.5,60.21089171903543,
,,,,,,,,,,,,0,0,0,0,202,0,202,0,,,,,,,202,,,1,782.6623724445817,Y,l,go,l,1,0.5378700086730532,,,,,,,,,,,,,,,,70,001,22,w,Psychologie,2023-01-25_12h06.18.082,00_bat_bachelor,2022.2.5,60.21089171903543,
,,,,,,,,,,,,0,0,0,0,203,0,203,0,,,,,,,203,,,1,784.3145340029732,Y,None,nogo,None,1,,785.1170257876511,,,,,,,,,,,,,,,70,001,22,w,Psychologie,2023-01-25_12h06.18.082,00_bat_bachelor,2022.2.5,60.21089171903543,
,,,,,,,,,,,,0,0,0,0,204,0,204,0,,,,,,,204,,,1,786.1326723138336,X,d,go,d,1,0.3790435157716274,,,,,,,,,,,,,,,,70,001,22,w,Psychologie,2023-01-25_12h06.18.082,00_bat_bachelor,2022.2.5,60.21089171903543,
,,,,,,,,,,,,0,0,0,0,205,0,205,0,,,,,,,205,,,1,787.6495176368044,Y,l,go,l,1,0.44680544314906,,,,,,,,,,,,,,,,70,001,22,w,Psychologie,2023-01-25_12h06.18.082,00_bat_bachelor,2022.2.5,60.21089171903543,
,,,,,,,,,,,,0,0,0,0,206,0,206,0,,,,,,,206,,,1,789.2006650272524,X,d,go,d,1,0.5117548315320164,,,,,,,,,,,,,,,,70,001,22,w,Psychologie,2023-01-25_12h06.18.082,00_bat_bachelor,2022.2.5,60.21089171903543,
,,,,,,,,,,,,0,0,0,0,207,0,207,0,,,,,,,207,,,1,790.8187382957549,Y,l,go,l,1,0.3568138711270876,,,,,,,,,,,,,,,,70,001,22,w,Psychologie,2023-01-25_12h06.18.082,00_bat_bachelor,2022.2.5,60.21089171903543,
,,,,,,,,,,,,0,0,0,0,208,0,208,0,,,,,,,208,,,1,792.2862432208494,Y,None,nogo,None,1,,793.0869942869758,,,,,,,,,,,,,,,70,001,22,w,Psychologie,2023-01-25_12h06.18.082,00_bat_bachelor,2022.2.5,60.21089171903543,
,,,,,,,,,,,,0,0,0,0,209,0,209,0,,,,,,,209,,,1,794.0877499863855,Y,None,nogo,d,0,0.2318563187145628,,,,,,,,,,,,,,,,70,001,22,w,Psychologie,2023-01-25_12h06.18.082,00_bat_bachelor,2022.2.5,60.21089171903543,
,,,,,,,,,,,,0,0,0,0,210,0,210,0,,,,,,,210,,,1,795.4220820237533,X,d,go,None,0,,,,,,,,,,,,,,,,,70,001,22,w,Psychologie,2023-01-25_12h06.18.082,00_bat_bachelor,2022.2.5,60.21089171903543,
,,,,,,,,,,,,0,0,0,0,211,0,211,0,,,,,,,211,,,1,797.2234184123226,Y,l,go,l,1,0.48073215351905674,,,,,,,,,,,,,,,,70,001,22,w,Psychologie,2023-01-25_12h06.18.082,00_bat_bachelor,2022.2.5,60.21089171903543,
,,,,,,,,,,,,0,0,0,0,212,0,212,0,,,,,,,212,,,1,798.8077881320496,X,d,go,d,1,0.49684406392043456,,,,,,,,,,,,,,,,70,001,22,w,Psychologie,2023-01-25_12h06.18.082,00_bat_bachelor,2022.2.5,60.21089171903543,
,,,,,,,,,,,,0,0,0,0,213,0,213,0,,,,,,,213,,,1,800.4090978937456,Y,l,go,None,0,,,,,,,,,,,,,,,,,70,001,22,w,Psychologie,2023-01-25_12h06.18.082,00_bat_bachelor,2022.2.5,60.21089171903543,
,,,,,,,,,,,,0,0,0,0,214,0,214,0,,,,,,,214,,,1,802.2105052482802,X,d,go,d,1,0.36556966201169416,,,,,,,,,,,,,,,,70,001,22,w,Psychologie,2023-01-25_12h06.18.082,00_bat_bachelor,2022.2.5,60.21089171903543,
,,,,,,,,,,,,0,0,0,0,215,0,215,0,,,,,,,215,,,1,803.6783529800014,X,None,nogo,None,1,,,,,,,,,,,,,,,,,70,001,22,w,Psychologie,2023-01-25_12h06.18.082,00_bat_bachelor,2022.2.5,60.21089171903543,
,,,,,,,,,,,,0,0,0,0,216,0,216,0,,,,,,,216,,,1,805.4809204225312,Y,l,go,l,1,0.382701488037128,,,,,,,,,,,,,,,,70,001,22,w,Psychologie,2023-01-25_12h06.18.082,00_bat_bachelor,2022.2.5,60.21089171903543,
,,,,,,,,,,,,0,0,0,0,217,0,217,0,,,,,,,217,,,1,806.9977548953611,X,d,go,d,1,0.36947572184726596,,,,,,,,,,,,,,,,70,001,22,w,Psychologie,2023-01-25_12h06.18.082,00_bat_bachelor,2022.2.5,60.21089171903543,
,,,,,,,,,,,,0,0,0,0,218,0,218,0,,,,,,,218,,,1,808.4986061935197,X,None,nogo,d,0,0.38929633639054373,,,,,,,,,,,,,,,,70,001,22,w,Psychologie,2023-01-25_12h06.18.082,00_bat_bachelor,2022.2.5,60.21089171903543,
,,,,,,,,,,,,0,0,0,0,219,0,219,0,,,,,,,219,,,1,809.9998038173071,Y,l,go,l,1,0.33554666553391144,,,,,,,,,,,,,,,,70,001,22,w,Psychologie,2023-01-25_12h06.18.082,00_bat_bachelor,2022.2.5,60.21089171903543,
,,,,,,,,,,,,0,0,0,0,220,0,220,0,,,,,,,220,,,1,811.4508733797702,X,d,go,d,1,0.4216034394921735,,,,,,,,,,,,,,,,70,001,22,w,Psychologie,2023-01-25_12h06.18.082,00_bat_bachelor,2022.2.5,60.21089171903543,
,,,,,,,,,,,,0,0,0,0,221,0,221,0,,,,,,,221,,,1,812.9855795425829,Y,l,go,l,1,0.42272951075574383,,,,,,,,,,,,,,,,70,001,22,w,Psychologie,2023-01-25_12h06.18.082,00_bat_bachelor,2022.2.5,60.21089171903543,
,,,,,,,,,,,,0,0,0,0,222,0,222,0,,,,,,,222,,,1,814.5197877707542,Y,None,nogo,l,0,0.48807009164011106,,,,,,,,,,,,,,,,70,001,22,w,Psychologie,2023-01-25_12h06.18.082,00_bat_bachelor,2022.2.5,60.21089171903543,
,,,,,,,,,,,,0,0,0,0,223,0,223,0,,,,,,,223,,,1,816.1210063323961,Y,None,nogo,None,1,,,,,,,,,,,,,,,,,70,001,22,w,Psychologie,2023-01-25_12h06.18.082,00_bat_bachelor,2022.2.5,60.21089171903543,
,,,,,,,,,,,,0,0,0,0,224,0,224,0,,,,,,,224,,,1,817.9241236145026,X,d,go,d,1,0.3088989505195059,,,,,,,,,,,,,,,,70,001,22,w,Psychologie,2023-01-25_12h06.18.082,00_bat_bachelor,2022.2.5,60.21089171903543,
,,,,,,,,,,,,0,0,0,0,225,0,225,0,,,,,,,225,,,1,819.3735075889854,Y,l,go,l,1,0.5467844466329552,,,,,,,,,,,,,,,,70,001,22,w,Psychologie,2023-01-25_12h06.18.082,00_bat_bachelor,2022.2.5,60.21089171903543,
,,,,,,,,,,,,0,0,0,0,226,0,226,0,,,,,,,226,,,1,821.0249937978224,X,d,go,d,1,0.48662438028259203,,,,,,,,,,,,,,,,70,001,22,w,Psychologie,2023-01-25_12h06.18.082,00_bat_bachelor,2022.2.5,60.21089171903543,
,,,,,,,,,,,,0,0,0,0,227,0,227,0,,,,,,,227,,,1,822.6260161767132,X,None,nogo,None,1,,823.4266569816973,,,,,,,,,,,,,,,70,001,22,w,Psychologie,2023-01-25_12h06.18.082,00_bat_bachelor,2022.2.5,60.21089171903543,
,,,,,,,,,,,,0,0,0,0,228,0,228,0,,,,,,,228,,,1,824.4274082824122,X,None,nogo,None,1,,,,,,,,,,,,,,,,,70,001,22,w,Psychologie,2023-01-25_12h06.18.082,00_bat_bachelor,2022.2.5,60.21089171903543,
,,,,,,,,,,,,0,0,0,0,229,0,229,0,,,,,,,229,,,1,826.2289434929262,Y,l,go,l,1,0.33053564821602777,,,,,,,,,,,,,,,,70,001,22,w,Psychologie,2023-01-25_12h06.18.082,00_bat_bachelor,2022.2.5,60.21089171903543,
,,,,,,,,,,,,0,0,0,0,230,0,230,0,,,,,,,230,,,1,827.6633114238502,X,d,go,None,0,,,,,,,,,,,,,,,,,70,001,22,w,Psychologie,2023-01-25_12h06.18.082,00_bat_bachelor,2022.2.5,60.21089171903543,
,,,,,,,,,,,,0,0,0,0,231,0,231,0,,,,,,,231,,,1,829.4646551436163,Y,l,go,l,1,0.3677945326198824,,,,,,,,,,,,,,,,70,001,22,w,Psychologie,2023-01-25_12h06.18.082,00_bat_bachelor,2022.2.5,60.21089171903543,
,,,,,,,,,,,,0,0,0,0,232,0,232,0,,,,,,,232,,,1,830.9489288540208,X,d,go,d,1,0.6589581572334282,,,,,,,,,,,,,,,,70,001,22,w,Psychologie,2023-01-25_12h06.18.082,00_bat_bachelor,2022.2.5,60.21089171903543,
,,,,,,,,,,,,0,0,0,0,233,0,233,0,,,,,,,233,,,1,832.7169701878447,Y,l,go,l,1,0.41887271660380065,,,,,,,,,,,,,,,,70,001,22,w,Psychologie,2023-01-25_12h06.18.082,00_bat_bachelor,2022.2.5,60.21089171903543,
,,,,,,,,,,,,0,0,0,0,234,0,234,0,,,,,,,234,,,1,834.251534418785,X,d,go,d,1,0.4773419164121151,,,,,,,,,,,,,,,,70,001,22,w,Psychologie,2023-01-25_12h06.18.082,00_bat_bachelor,2022.2.5,60.21089171903543,
,,,,,,,,,,,,0,0,0,0,235,0,235,0,,,,,,,235,,,1,835.8359885938698,Y,l,go,l,1,0.3875198415480554,,,,,,,,,,,,,,,,70,001,22,w,Psychologie,2023-01-25_12h06.18.082,00_bat_bachelor,2022.2.5,60.21089171903543,
,,,,,,,,,,,,0,0,0,0,236,0,236,0,,,,,,,236,,,1,837.337164224009,X,d,go,d,1,0.42255092289997265,,,,,,,,,,,,,,,,70,001,22,w,Psychologie,2023-01-25_12h06.18.082,00_bat_bachelor,2022.2.5,60.21089171903543,
,,,,,,,,,,,,0,0,0,0,237,0,237,0,,,,,,,237,,,1,838.8716008922202,Y,l,go,l,1,0.45584891008911654,,,,,,,,,,,,,,,,70,001,22,w,Psychologie,2023-01-25_12h06.18.082,00_bat_bachelor,2022.2.5,60.21089171903543,
,,,,,,,,,,,,0,0,0,0,238,0,238,0,,,,,,,238,,,1,840.4396179451142,Y,None,nogo,None,1,,841.2402130034752,,,,,,,,,,,,,,,70,001,22,w,Psychologie,2023-01-25_12h06.18.082,00_bat_bachelor,2022.2.5,60.21089171903543,
,,,,,,,,,,,,0,0,0,0,239,0,239,0,,,,,,,239,,,1,842.2409839517204,X,d,go,d,1,0.5429305849247612,,,,,,,,,,,,,,,,70,001,22,w,Psychologie,2023-01-25_12h06.18.082,00_bat_bachelor,2022.2.5,60.21089171903543,
,,,,,,,,,,,,0,0,0,0,240,0,240,0,,,,,,,240,,,1,843.8923795470619,Y,l,go,l,1,0.4998099715448916,,,,,,,,,,,,,,,,70,001,22,w,Psychologie,2023-01-25_12h06.18.082,00_bat_bachelor,2022.2.5,60.21089171903543,
,,,,,,,,,,,,0,0,0,0,241,0,241,0,,,,,,,241,,,1,845.4935139465961,Y,None,nogo,None,1,,846.2939767501666,,,,,,,,,,,,,,,70,001,22,w,Psychologie,2023-01-25_12h06.18.082,00_bat_bachelor,2022.2.5,60.21089171903543,
,,,,,,,,,,,,0,0,0,0,242,0,242,0,,,,,,,242,,,1,847.2947324495763,Y,None,nogo,None,1,,848.0953829317004,,,,,,,,,,,,,,,70,001,22,w,Psychologie,2023-01-25_12h06.18.082,00_bat_bachelor,2022.2.5,60.21089171903543,
,,,,,,,,,,,,0,0,0,0,243,0,243,0,,,,,,,243,,,1,849.096078808594,X,d,go,d,1,0.2956957644200884,,,,,,,,,,,,,,,,70,001,22,w,Psychologie,2023-01-25_12h06.18.082,00_bat_bachelor,2022.2.5,60.21089171903543,
,,,,,,,,,,,,0,0,0,0,244,0,244,0,,,,,,,244,,,1,850.4973440552712,Y,l,go,l,1,0.45440671779215336,,,,,,,,,,,,,,,,70,001,22,w,Psychologie,2023-01-25_12h06.18.082,00_bat_bachelor,2022.2.5,60.21089171903543,
,,,,,,,,,,,,0,0,0,0,245,0,245,0,,,,,,,245,,,1,852.0651760689216,X,d,go,d,1,0.5751546988612972,,,,,,,,,,,,,,,,70,001,22,w,Psychologie,2023-01-25_12h06.18.082,00_bat_bachelor,2022.2.5,60.21089171903543,
,,,,,,,,,,,,0,0,0,0,246,0,246,0,,,,,,,246,,,1,853.7496209773235,X,None,nogo,None,1,,,,,,,,,,,,,,,,,70,001,22,w,Psychologie,2023-01-25_12h06.18.082,00_bat_bachelor,2022.2.5,60.21089171903543,
,,,,,,,,,,,,0,0,0,0,247,0,247,0,,,,,,,247,,,1,855.5510796502349,Y,l,go,l,1,0.35316880175378174,,,,,,,,,,,,,,,,70,001,22,w,Psychologie,2023-01-25_12h06.18.082,00_bat_bachelor,2022.2.5,60.21089171903543,
,,,,,,,,,,,,0,0,0,0,248,0,248,0,,,,,,,248,,,1,857.0187476210413,X,d,go,d,1,0.44513481081230566,,,,,,,,,,,,,,,,70,001,22,w,Psychologie,2023-01-25_12h06.18.082,00_bat_bachelor,2022.2.5,60.21089171903543,
,,,,,,,,,,,,0,0,0,0,249,0,249,0,,,,,,,249,,,1,858.5698656867025,X,None,nogo,None,1,,,,,,,,,,,,,,,,,70,001,22,w,Psychologie,2023-01-25_12h06.18.082,00_bat_bachelor,2022.2.5,60.21089171903543,
,,,,,,,,,,,,1,0,1,0,0,0,0,0,,,,,,,0,,,0.2,872.413836777152,X,d,go,None,0,,,,,,,,,,859.3851105221547,space,12.810998604283668,,,,,70,001,22,w,Psychologie,2023-01-25_12h06.18.082,00_bat_bachelor,2022.2.5,60.21089171903543,
,,,,,,,,,,,,1,0,1,0,1,0,1,0,,,,,,,1,,,0.2,873.4144575826358,Y,l,go,l,1,0.4170129394624382,,,,,,,,,,,,,,,,70,001,22,w,Psychologie,2023-01-25_12h06.18.082,00_bat_bachelor,2022.2.5,60.21089171903543,
,,,,,,,,,,,,1,0,1,0,2,0,2,0,,,,,,,2,,,0.2,874.1325415253523,X,d,go,d,1,0.2355535861570388,,,,,,,,,,,,,,,,70,001,22,w,Psychologie,2023-01-25_12h06.18.082,00_bat_bachelor,2022.2.5,60.21089171903543,
,,,,,,,,,,,,1,0,1,0,3,0,3,0,,,,,,,3,,,0.2,874.7164303187747,Y,l,go,l,1,0.1710751536884345,,,,,,,,,,,,,,,,70,001,22,w,Psychologie,2023-01-25_12h06.18.082,00_bat_bachelor,2022.2.5,60.21089171903543,
,,,,,,,,,,,,1,0,1,0,4,0,4,0,,,,,,,4,,,0.2,875.2341653553885,X,d,go,d,1,0.39736651408020407,,,,,,,,,,,,,,,,70,001,22,w,Psychologie,2023-01-25_12h06.18.082,00_bat_bachelor,2022.2.5,60.21089171903543,
,,,,,,,,,,,,1,0,1,0,5,0,5,0,,,,,,,5,,,0.2,875.9667471729917,Y,l,go,l,1,0.37733564095105976,,,,,,,,,,,,,,,,70,001,22,w,Psychologie,2023-01-25_12h06.18.082,00_bat_bachelor,2022.2.5,60.21089171903543,
,,,,,,,,,,,,1,0,1,0,6,0,6,0,,,,,,,6,,,0.2,876.6506915075006,X,d,go,d,1,0.33286168926861137,,,,,,,,,,,,,,,,70,001,22,w,Psychologie,2023-01-25_12h06.18.082,00_bat_bachelor,2022.2.5,60.21089171903543,
,,,,,,,,,,,,1,0,1,0,7,0,7,0,,,,,,,7,,,0.2,877.2843195157475,Y,l,go,l,1,0.3559669716632925,,,,,,,,,,,,,,,,70,001,22,w,Psychologie,2023-01-25_12h06.18.082,00_bat_bachelor,2022.2.5,60.21089171903543,
,,,,,,,,,,,,1,0,1,0,8,0,8,0,,,,,,,8,,,0.2,877.9515232167323,Y,None,nogo,None,1,,,,,,,,,,,,,,,,,70,001,22,w,Psychologie,2023-01-25_12h06.18.082,00_bat_bachelor,2022.2.5,60.21089171903543,
,,,,,,,,,,,,1,0,1,0,9,0,9,0,,,,,,,9,,,0.2,878.9520364002674,X,d,go,d,1,0.35181898245355114,,,,,,,,,,,,,,,,70,001,22,w,Psychologie,2023-01-25_12h06.18.082,00_bat_bachelor,2022.2.5,60.21089171903543,
,,,,,,,,,,,,1,0,1,0,10,0,10,0,,,,,,,10,,,0.2,879.6194192756666,Y,l,go,l,1,0.4119705446064472,,,,,,,,,,,,,,,,70,001,22,w,Psychologie,2023-01-25_12h06.18.082,00_bat_bachelor,2022.2.5,60.21089171903543,
,,,,,,,,,,,,1,0,1,0,11,0,11,0,,,,,,,11,,,0.2,880.3365683446173,X,d,go,d,1,0.27989352360600606,,,,,,,,,,,,,,,,70,001,22,w,Psychologie,2023-01-25_12h06.18.082,00_bat_bachelor,2022.2.5,60.21089171903543,
,,,,,,,,,,,,1,0,1,0,12,0,12,0,,,,,,,12,,,0.2,880.9201020150213,X,None,nogo,d,0,0.4716118556680158,,,,,,,,,,,,,,,,70,001,22,w,Psychologie,2023-01-25_12h06.18.082,00_bat_bachelor,2022.2.5,60.21089171903543,
,,,,,,,,,,,,1,0,1,0,13,0,13,0,,,,,,,13,,,0.2,881.7041845865897,Y,l,go,l,1,0.3595756783033721,,,,,,,,,,,,,,,,70,001,22,w,Psychologie,2023-01-25_12h06.18.082,00_bat_bachelor,2022.2.5,60.21089171903543,
,,,,,,,,,,,,1,0,1,0,14,0,14,0,,,,,,,14,,,0.2,882.3712451827014,X,d,go,d,1,0.3966266500065103,,,,,,,,,,,,,,,,70,001,22,w,Psychologie,2023-01-25_12h06.18.082,00_bat_bachelor,2022.2.5,60.21089171903543,
,,,,,,,,,,,,1,0,1,0,15,0,15,0,,,,,,,15,,,0.2,883.0718348452356,X,None,nogo,None,1,,,,,,,,,,,,,,,,,70,001,22,w,Psychologie,2023-01-25_12h06.18.082,00_bat_bachelor,2022.2.5,60.21089171903543,
,,,,,,,,,,,,1,0,1,0,16,0,16,0,,,,,,,16,,,0.2,884.072677932505,Y,l,go,l,1,0.17518414097139612,,,,,,,,,,,,,,,,70,001,22,w,Psychologie,2023-01-25_12h06.18.082,00_bat_bachelor,2022.2.5,60.21089171903543,
,,,,,,,,,,,,1,0,1,0,17,0,17,0,,,,,,,17,,,0.2,884.5561912514968,X,d,go,d,1,0.3796106568770483,,,,,,,,,,,,,,,,70,001,22,w,Psychologie,2023-01-25_12h06.18.082,00_bat_bachelor,2022.2.5,60.21089171903543,
,,,,,,,,,,,,1,0,1,0,18,0,18,0,,,,,,,18,,,0.2,885.2400502509554,X,None,nogo,None,1,,,,,,,,,,,,,,,,,70,001,22,w,Psychologie,2023-01-25_12h06.18.082,00_bat_bachelor,2022.2.5,60.21089171903543,
,,,,,,,,,,,,1,0,1,0,19,0,19,0,,,,,,,19,,,0.2,886.2408604944358,Y,l,go,l,1,0.24725417082663625,,,,,,,,,,,,,,,,70,001,22,w,Psychologie,2023-01-25_12h06.18.082,00_bat_bachelor,2022.2.5,60.21089171903543,
,,,,,,,,,,,,1,0,1,0,20,0,20,0,,,,,,,20,,,0.2,886.791385613149,X,d,go,d,1,0.33643696567742154,,,,,,,,,,,,,,,,70,001,22,w,Psychologie,2023-01-25_12h06.18.082,00_bat_bachelor,2022.2.5,60.21089171903543,
,,,,,,,,,,,,1,0,1,0,21,0,21,0,,,,,,,21,,,0.2,887.4419369482202,X,None,nogo,None,1,,,,,,,,,,,,,,,,,70,001,22,w,Psychologie,2023-01-25_12h06.18.082,00_bat_bachelor,2022.2.5,60.21089171903543,
,,,,,,,,,,,,1,0,1,0,22,0,22,0,,,,,,,22,,,0.2,888.442483855295,Y,l,go,l,1,0.2606772927683778,,,,,,,,,,,,,,,,70,001,22,w,Psychologie,2023-01-25_12h06.18.082,00_bat_bachelor,2022.2.5,60.21089171903543,
,,,,,,,,,,,,1,0,1,0,23,0,23,0,,,,,,,23,,,0.2,889.0096587007283,X,d,go,d,1,0.23840835288865492,,,,,,,,,,,,,,,,70,001,22,w,Psychologie,2023-01-25_12h06.18.082,00_bat_bachelor,2022.2.5,60.21089171903543,
,,,,,,,,,,,,1,0,1,0,24,0,24,0,,,,,,,24,,,0.2,889.5601008303347,X,None,nogo,None,1,,,,,,,,,,,,,,,,,70,001,22,w,Psychologie,2023-01-25_12h06.18.082,00_bat_bachelor,2022.2.5,60.21089171903543,
,,,,,,,,,,,,1,0,1,0,25,0,25,0,,,,,,,25,,,0.2,890.560815181816,Y,l,go,l,1,0.29448875674279407,,,,,,,,,,,,,,,,70,001,22,w,Psychologie,2023-01-25_12h06.18.082,00_bat_bachelor,2022.2.5,60.21089171903543,
,,,,,,,,,,,,1,0,1,0,26,0,26,0,,,,,,,26,,,0.2,891.1613633791567,X,d,go,d,1,0.21423799474723637,,,,,,,,,,,,,,,,70,001,22,w,Psychologie,2023-01-25_12h06.18.082,00_bat_bachelor,2022.2.5,60.21089171903543,
,,,,,,,,,,,,1,0,1,0,27,0,27,0,,,,,,,27,,,0.2,891.6784022456268,Y,l,go,l,1,0.40921812132000923,,,,,,,,,,,,,,,,70,001,22,w,Psychologie,2023-01-25_12h06.18.082,00_bat_bachelor,2022.2.5,60.21089171903543,
,,,,,,,,,,,,1,0,1,0,28,0,28,0,,,,,,,28,,,0.2,892.3955859178095,X,d,go,d,1,0.47628446511225775,,,,,,,,,,,,,,,,70,001,22,w,Psychologie,2023-01-25_12h06.18.082,00_bat_bachelor,2022.2.5,60.21089171903543,
,,,,,,,,,,,,1,0,1,0,29,0,29,0,,,,,,,29,,,0.2,893.1795215721941,Y,l,go,l,1,0.44369379145791754,,,,,,,,,,,,,,,,70,001,22,w,Psychologie,2023-01-25_12h06.18.082,00_bat_bachelor,2022.2.5,60.21089171903543,
,,,,,,,,,,,,1,0,1,0,30,0,30,0,,,,,,,30,,,0.2,893.9300703853369,X,d,go,d,1,0.37358236318686977,,,,,,,,,,,,,,,,70,001,22,w,Psychologie,2023-01-25_12h06.18.082,00_bat_bachelor,2022.2.5,60.21089171903543,
,,,,,,,,,,,,1,0,1,0,31,0,31,0,,,,,,,31,,,0.2,894.6138478619396,X,None,nogo,None,1,,,,,,,,,,,,,,,,,70,001,22,w,Psychologie,2023-01-25_12h06.18.082,00_bat_bachelor,2022.2.5,60.21089171903543,
,,,,,,,,,,,,1,0,1,0,32,0,32,0,,,,,,,32,,,0.2,895.6145704243681,Y,l,go,l,1,0.22532041318481788,,,,,,,,,,,,,,,,70,001,22,w,Psychologie,2023-01-25_12h06.18.082,00_bat_bachelor,2022.2.5,60.21089171903543,
,,,,,,,,,,,,1,0,1,0,33,0,33,0,,,,,,,33,,,0.2,896.1485531450016,X,d,go,d,1,0.2752200344693847,,,,,,,,,,,,,,,,70,001,22,w,Psychologie,2023-01-25_12h06.18.082,00_bat_bachelor,2022.2.5,60.21089171903543,
,,,,,,,,,,,,1,0,1,0,34,0,34,0,,,,,,,34,,,0.2,896.7323595358175,X,None,nogo,None,1,,897.5327933078515,,,,,,,,,,,,,,,70,001,22,w,Psychologie,2023-01-25_12h06.18.082,00_bat_bachelor,2022.2.5,60.21089171903543,
,,,,,,,,,,,,1,0,1,0,35,0,35,0,,,,,,,35,,,0.2,897.7330689021037,Y,l,go,l,1,0.27436990931164473,,,,,,,,,,,,,,,,70,001,22,w,Psychologie,2023-01-25_12h06.18.082,00_bat_bachelor,2022.2.5,60.21089171903543,
,,,,,,,,,,,,1,0,1,0,36,0,36,0,,,,,,,36,,,0.2,898.3166911333101,X,d,go,d,1,0.33895185828441754,,,,,,,,,,,,,,,,70,001,22,w,Psychologie,2023-01-25_12h06.18.082,00_bat_bachelor,2022.2.5,60.21089171903543,
,,,,,,,,,,,,1,0,1,0,37,0,37,0,,,,,,,37,,,0.2,898.9672720864182,X,None,nogo,None,1,,,,,,,,,,,,,,,,,70,001,22,w,Psychologie,2023-01-25_12h06.18.082,00_bat_bachelor,2022.2.5,60.21089171903543,
,,,,,,,,,,,,1,0,1,0,38,0,38,0,,,,,,,38,,,0.2,899.9679439169704,Y,l,go,l,1,0.23208329250337556,,,,,,,,,,,,,,,,70,001,22,w,Psychologie,2023-01-25_12h06.18.082,00_bat_bachelor,2022.2.5,60.21089171903543,
,,,,,,,,,,,,1,0,1,0,39,0,39,0,,,,,,,39,,,0.2,900.5018017141265,X,d,go,d,1,0.4019889780902304,,,,,,,,,,,,,,,,70,001,22,w,Psychologie,2023-01-25_12h06.18.082,00_bat_bachelor,2022.2.5,60.21089171903543,
,,,,,,,,,,,,1,0,1,0,40,0,40,0,,,,,,,40,,,0.2,901.2191079638433,Y,l,go,l,1,0.6290301730041392,,,,,,,,,,,,,,,,70,001,22,w,Psychologie,2023-01-25_12h06.18.082,00_bat_bachelor,2022.2.5,60.21089171903543,
,,,,,,,,,,,,1,0,1,0,41,0,41,0,,,,,,,41,,,0.2,902.1529020089656,Y,None,nogo,l,0,0.3105487622669898,,,,,,,,,,,,,,,,70,001,22,w,Psychologie,2023-01-25_12h06.18.082,00_bat_bachelor,2022.2.5,60.21089171903543,
,,,,,,,,,,,,1,0,1,0,42,0,42,0,,,,,,,42,,,0.2,902.77019993047,X,d,go,d,1,0.4929130779928528,,,,,,,,,,,,,,,,70,001,22,w,Psychologie,2023-01-25_12h06.18.082,00_bat_bachelor,2022.2.5,60.21089171903543,
,,,,,,,,,,,,1,0,1,0,43,0,43,0,,,,,,,43,,,0.2,903.570643086452,Y,l,go,l,1,0.612661377643235,,,,,,,,,,,,,,,,70,001,22,w,Psychologie,2023-01-25_12h06.18.082,00_bat_bachelor,2022.2.5,60.21089171903543,
,,,,,,,,,,,,1,0,1,0,44,0,44,0,,,,,,,44,,,0.2,904.4881123232772,X,d,go,d,1,0.480411927041132,,,,,,,,,,,,,,,,70,001,22,w,Psychologie,2023-01-25_12h06.18.082,00_bat_bachelor,2022.2.5,60.21089171903543,
,,,,,,,,,,,,1,0,1,0,45,0,45,0,,,,,,,45,,,0.2,905.2720098554855,X,None,nogo,l,0,0.30409701878670603,,,,,,,,,,,,,,,,70,001,22,w,Psychologie,2023-01-25_12h06.18.082,00_bat_bachelor,2022.2.5,60.21089171903543,
,,,,,,,,,,,,1,0,1,0,46,0,46,0,,,,,,,46,,,0.2,905.8891148199909,Y,l,go,None,0,,,,,,,,,,,,,,,,,70,001,22,w,Psychologie,2023-01-25_12h06.18.082,00_bat_bachelor,2022.2.5,60.21089171903543,
,,,,,,,,,,,,1,0,1,0,47,0,47,0,,,,,,,47,,,0.2,906.8899233040283,X,d,go,d,1,0.4219286512234248,,,,,,,,,,,,,,,,70,001,22,w,Psychologie,2023-01-25_12h06.18.082,00_bat_bachelor,2022.2.5,60.21089171903543,
,,,,,,,,,,,,1,0,1,0,48,0,48,0,,,,,,,48,,,0.2,907.6238968753605,Y,l,go,l,1,0.639929604891222,,,,,,,,,,,,,,,,70,001,22,w,Psychologie,2023-01-25_12h06.18.082,00_bat_bachelor,2022.2.5,60.21089171903543,
,,,,,,,,,,,,1,0,1,0,49,0,49,0,,,,,,,49,,,0.2,908.5745679141255,X,d,go,None,0,,,,,,,,,,,,,,,,,70,001,22,w,Psychologie,2023-01-25_12h06.18.082,00_bat_bachelor,2022.2.5,60.21089171903543,
,,,,,,,,,,,,1,0,1,0,50,0,50,0,,,,,,,50,,,0.2,909.5754901782493,Y,l,go,l,1,0.6489150087581947,,,,,,,,,,,,,,,,70,001,22,w,Psychologie,2023-01-25_12h06.18.082,00_bat_bachelor,2022.2.5,60.21089171903543,
,,,,,,,,,,,,1,0,1,0,51,0,51,0,,,,,,,51,,,0.2,910.5259307243396,Y,None,nogo,None,1,,,,,,,,,,,,,,,,,70,001,22,w,Psychologie,2023-01-25_12h06.18.082,00_bat_bachelor,2022.2.5,60.21089171903543,
,,,,,,,,,,,,1,0,1,0,52,0,52,0,,,,,,,52,,,0.2,911.5268858322524,X,d,go,d,1,0.3529031192883849,,,,,,,,,,,,,,,,70,001,22,w,Psychologie,2023-01-25_12h06.18.082,00_bat_bachelor,2022.2.5,60.21089171903543,
,,,,,,,,,,,,1,0,1,0,53,0,53,0,,,,,,,53,,,0.2,912.1939212090219,Y,l,go,l,1,0.45384632132481784,,,,,,,,,,,,,,,,70,001,22,w,Psychologie,2023-01-25_12h06.18.082,00_bat_bachelor,2022.2.5,60.21089171903543,
,,,,,,,,,,,,1,0,1,0,54,0,54,0,,,,,,,54,,,0.2,912.9611499534221,X,d,go,d,1,0.5832934965728782,,,,,,,,,,,,,,,,70,001,22,w,Psychologie,2023-01-25_12h06.18.082,00_bat_bachelor,2022.2.5,60.21089171903543,
,,,,,,,,,,,,1,0,1,0,55,0,55,0,,,,,,,55,,,0.2,913.8451552248443,Y,l,go,l,1,0.4266376233426854,,,,,,,,,,,,,,,,70,001,22,w,Psychologie,2023-01-25_12h06.18.082,00_bat_bachelor,2022.2.5,60.21089171903543,
,,,,,,,,,,,,1,0,1,0,56,0,56,0,,,,,,,56,,,0.2,914.5793056245893,X,d,go,d,1,0.41256173205329105,,,,,,,,,,,,,,,,70,001,22,w,Psychologie,2023-01-25_12h06.18.082,00_bat_bachelor,2022.2.5,60.21089171903543,
,,,,,,,,,,,,1,0,1,0,57,0,57,0,,,,,,,57,,,0.2,915.2963775693788,Y,l,go,l,1,0.4075099532492459,,,,,,,,,,,,,,,,70,001,22,w,Psychologie,2023-01-25_12h06.18.082,00_bat_bachelor,2022.2.5,60.21089171903543,
,,,,,,,,,,,,1,0,1,0,58,0,58,0,,,,,,,58,,,0.2,916.0136609458132,X,d,go,d,1,0.4423562884912826,,,,,,,,,,,,,,,,70,001,22,w,Psychologie,2023-01-25_12h06.18.082,00_bat_bachelor,2022.2.5,60.21089171903543,
,,,,,,,,,,,,1,0,1,0,59,0,59,0,,,,,,,59,,,0.2,916.7643294040463,Y,l,go,l,1,0.4510783559526317,,,,,,,,,,,,,,,,70,001,22,w,Psychologie,2023-01-25_12h06.18.082,00_bat_bachelor,2022.2.5,60.21089171903543,
,,,,,,,,,,,,1,0,1,0,60,0,60,0,,,,,,,60,,,0.2,917.5314848364796,X,d,go,d,1,0.6282231552177109,,,,,,,,,,,,,,,,70,001,22,w,Psychologie,2023-01-25_12h06.18.082,00_bat_bachelor,2022.2.5,60.21089171903543,
,,,,,,,,,,,,1,0,1,0,61,0,61,0,,,,,,,61,,,0.2,918.4654715452925,X,None,nogo,None,1,,,,,,,,,,,,,,,,,70,001,22,w,Psychologie,2023-01-25_12h06.18.082,00_bat_bachelor,2022.2.5,60.21089171903543,
,,,,,,,,,,,,1,0,1,0,62,0,62,0,,,,,,,62,,,0.2,919.4661281270091,Y,l,go,l,1,0.29338086681673303,,,,,,,,,,,,,,,,70,001,22,w,Psychologie,2023-01-25_12h06.18.082,00_bat_bachelor,2022.2.5,60.21089171903543,
,,,,,,,,,,,,1,0,1,0,63,0,63,0,,,,,,,63,,,0.2,920.0667974356329,X,d,go,d,1,0.3569311702158302,,,,,,,,,,,,,,,,70,001,22,w,Psychologie,2023-01-25_12h06.18.082,00_bat_bachelor,2022.2.5,60.21089171903543,
,,,,,,,,,,,,1,0,1,0,64,0,64,0,,,,,,,64,,,0.2,920.73388530378,X,None,nogo,None,1,,921.5344633537461,,,,,,,,,,,,,,,70,001,22,w,Psychologie,2023-01-25_12h06.18.082,00_bat_bachelor,2022.2.5,60.21089171903543,
,,,,,,,,,,,,1,0,1,0,65,0,65,0,,,,,,,65,,,0.2,921.7346512668882,Y,l,go,l,1,0.3139108475879766,,,,,,,,,,,,,,,,70,001,22,w,Psychologie,2023-01-25_12h06.18.082,00_bat_bachelor,2022.2.5,60.21089171903543,
,,,,,,,,,,,,1,0,1,0,66,0,66,0,,,,,,,66,,,0.2,922.3516744152876,X,d,go,d,1,0.45621517655672505,,,,,,,,,,,,,,,,70,001,22,w,Psychologie,2023-01-25_12h06.18.082,00_bat_bachelor,2022.2.5,60.21089171903543,
,,,,,,,,,,,,1,0,1,0,67,0,67,0,,,,,,,67,,,0.2,923.118762400758,Y,l,go,l,1,0.36895901936804876,,,,,,,,,,,,,,,,70,001,22,w,Psychologie,2023-01-25_12h06.18.082,00_bat_bachelor,2022.2.5,60.21089171903543,
,,,,,,,,,,,,1,0,1,0,68,0,68,0,,,,,,,68,,,0.2,923.8028870826238,Y,None,nogo,None,1,,,,,,,,,,,,,,,,,70,001,22,w,Psychologie,2023-01-25_12h06.18.082,00_bat_bachelor,2022.2.5,60.21089171903543,
,,,,,,,,,,,,1,0,1,0,69,0,69,0,,,,,,,69,,,0.2,924.8035172719974,X,d,go,d,1,0.2600875715143047,,,,,,,,,,,,,,,,70,001,22,w,Psychologie,2023-01-25_12h06.18.082,00_bat_bachelor,2022.2.5,60.21089171903543,
,,,,,,,,,,,,1,0,1,0,70,0,70,0,,,,,,,70,,,0.2,925.3706199785229,Y,l,go,l,1,0.34181219671154395,,,,,,,,,,,,,,,,70,001,22,w,Psychologie,2023-01-25_12h06.18.082,00_bat_bachelor,2022.2.5,60.21089171903543,
,,,,,,,,,,,,1,0,1,0,71,0,71,0,,,,,,,71,,,0.2,926.0212736570393,X,d,go,d,1,0.41856920515419915,,,,,,,,,,,,,,,,70,001,22,w,Psychologie,2023-01-25_12h06.18.082,00_bat_bachelor,2022.2.5,60.21089171903543,
,,,,,,,,,,,,1,0,1,0,72,0,72,0,,,,,,,72,,,0.2,926.7550246533356,Y,l,go,l,1,0.46072972542606294,,,,,,,,,,,,,,,,70,001,22,w,Psychologie,2023-01-25_12h06.18.082,00_bat_bachelor,2022.2.5,60.21089171903543,
,,,,,,,,,,,,1,0,1,0,73,0,73,0,,,,,,,73,,,0.2,927.5223061823053,X,d,go,d,1,0.41381477954564616,,,,,,,,,,,,,,,,70,001,22,w,Psychologie,2023-01-25_12h06.18.082,00_bat_bachelor,2022.2.5,60.21089171903543,
,,,,,,,,,,,,1,0,1,0,74,0,74,0,,,,,,,74,,,0.2,928.2394103843835,X,None,nogo,None,1,,,,,,,,,,,,,,,,,70,001,22,w,Psychologie,2023-01-25_12h06.18.082,00_bat_bachelor,2022.2.5,60.21089171903543,
,,,,,,,,,,,,1,0,1,0,75,0,75,0,,,,,,,75,,,0.2,929.240253471653,Y,l,go,l,1,0.27160428994102404,,,,,,,,,,,,,,,,70,001,22,w,Psychologie,2023-01-25_12h06.18.082,00_bat_bachelor,2022.2.5,60.21089171903543,
,,,,,,,,,,,,1,0,1,0,76,0,76,0,,,,,,,76,,,0.2,929.8242745198077,X,d,go,d,1,0.4549389624153264,,,,,,,,,,,,,,,,70,001,22,w,Psychologie,2023-01-25_12h06.18.082,00_bat_bachelor,2022.2.5,60.21089171903543,
,,,,,,,,,,,,1,0,1,0,77,0,77,0,,,,,,,77,,,0.2,930.6080043143011,X,None,nogo,None,1,,,,,,,,,,,,,,,,,70,001,22,w,Psychologie,2023-01-25_12h06.18.082,00_bat_bachelor,2022.2.5,60.21089171903543,
,,,,,,,,,,,,1,0,1,0,78,0,78,0,,,,,,,78,,,0.2,931.608867342351,Y,l,go,l,1,0.24651284061837941,,,,,,,,,,,,,,,,70,001,22,w,Psychologie,2023-01-25_12h06.18.082,00_bat_bachelor,2022.2.5,60.21089171903543,
,,,,,,,,,,,,1,0,1,0,79,0,79,0,,,,,,,79,,,0.2,932.1590651966399,X,d,go,d,1,0.3368307974305935,,,,,,,,,,,,,,,,70,001,22,w,Psychologie,2023-01-25_12h06.18.082,00_bat_bachelor,2022.2.5,60.21089171903543,
,,,,,,,,,,,,1,0,1,0,80,0,80,0,,,,,,,80,,,0.2,932.8098229781026,Y,l,go,l,1,0.43012903089402243,,,,,,,,,,,,,,,,70,001,22,w,Psychologie,2023-01-25_12h06.18.082,00_bat_bachelor,2022.2.5,60.21089171903543,
,,,,,,,,,,,,1,0,1,0,81,0,81,0,,,,,,,81,,,0.2,933.5434279370238,X,d,go,d,1,0.3679525931365788,,,,,,,,,,,,,,,,70,001,22,w,Psychologie,2023-01-25_12h06.18.082,00_bat_bachelor,2022.2.5,60.21089171903543,
,,,,,,,,,,,,1,0,1,0,82,0,82,0,,,,,,,82,,,0.2,934.2273482252494,Y,l,go,l,1,0.31636591762071475,,,,,,,,,,,,,,,,70,001,22,w,Psychologie,2023-01-25_12h06.18.082,00_bat_bachelor,2022.2.5,60.21089171903543,
,,,,,,,,,,,,1,0,1,0,83,0,83,0,,,,,,,83,,,0.2,934.8444446855574,Y,None,nogo,None,1,,,,,,,,,,,,,,,,,70,001,22,w,Psychologie,2023-01-25_12h06.18.082,00_bat_bachelor,2022.2.5,60.21089171903543,
,,,,,,,,,,,,1,0,1,0,84,0,84,0,,,,,,,84,,,0.2,935.8452566885389,X,d,go,d,1,0.23496210551820695,,,,,,,,,,,,,,,,70,001,22,w,Psychologie,2023-01-25_12h06.18.082,00_bat_bachelor,2022.2.5,60.21089171903543,
,,,,,,,,,,,,1,0,1,0,85,0,85,0,,,,,,,85,,,0.2,936.3955671499716,Y,l,go,l,1,0.3399620967102237,,,,,,,,,,,,,,,,70,001,22,w,Psychologie,2023-01-25_12h06.18.082,00_bat_bachelor,2022.2.5,60.21089171903543,
,,,,,,,,,,,,1,0,1,0,86,0,86,0,,,,,,,86,,,0.2,937.0462093917886,X,d,go,d,1,0.4812019364326261,,,,,,,,,,,,,,,,70,001,22,w,Psychologie,2023-01-25_12h06.18.082,00_bat_bachelor,2022.2.5,60.21089171903543,
,,,,,,,,,,,,1,0,1,0,87,0,87,0,,,,,,,87,,,0.2,937.8300039940514,Y,l,go,l,1,0.4174390283296816,,,,,,,,,,,,,,,,70,001,22,w,Psychologie,2023-01-25_12h06.18.082,00_bat_bachelor,2022.2.5,60.21089171903543,
,,,,,,,,,,,,1,0,1,0,88,0,88,0,,,,,,,88,,,0.2,938.5639488270972,X,d,go,d,1,0.37922826188150793,,,,,,,,,,,,,,,,70,001,22,w,Psychologie,2023-01-25_12h06.18.082,00_bat_bachelor,2022.2.5,60.21089171903543,
,,,,,,,,,,,,1,0,1,0,89,0,89,0,,,,,,,89,,,0.2,939.2479089970584,X,None,nogo,l,0,0.3759820093982853,,,,,,,,,,,,,,,,70,001,22,w,Psychologie,2023-01-25_12h06.18.082,00_bat_bachelor,2022.2.5,60.21089171903543,
,,,,,,,,,,,,1,0,1,0,90,0,90,0,,,,,,,90,,,0.2,939.9317958550528,Y,l,go,None,0,,,,,,,,,,,,,,,,,70,001,22,w,Psychologie,2023-01-25_12h06.18.082,00_bat_bachelor,2022.2.5,60.21089171903543,
,,,,,,,,,,,,1,0,1,0,91,0,91,0,,,,,,,91,,,0.2,940.9325465692091,X,d,go,d,1,0.48266201687511057,,,,,,,,,,,,,,,,70,001,22,w,Psychologie,2023-01-25_12h06.18.082,00_bat_bachelor,2022.2.5,60.21089171903543,
,,,,,,,,,,,,1,0,1,0,92,0,92,0,,,,,,,92,,,0.2,941.7163567136158,Y,l,go,l,1,0.41895599890267476,,,,,,,,,,,,,,,,70,001,22,w,Psychologie,2023-01-25_12h06.18.082,00_bat_bachelor,2022.2.5,60.21089171903543,
,,,,,,,,,,,,1,0,1,0,93,0,93,0,,,,,,,93,,,0.2,942.4502933357144,Y,None,nogo,None,1,,,,,,,,,,,,,,,,,70,001,22,w,Psychologie,2023-01-25_12h06.18.082,00_bat_bachelor,2022.2.5,60.21089171903543,
,,,,,,,,,,,,1,0,1,0,94,0,94,0,,,,,,,94,,,0.2,943.4510073939455,X,d,go,d,1,0.37243840377777815,,,,,,,,,,,,,,,,70,001,22,w,Psychologie,2023-01-25_12h06.18.082,00_bat_bachelor,2022.2.5,60.21089171903543,
,,,,,,,,,,,,1,0,1,0,95,0,95,0,,,,,,,95,,,0.2,944.1348933721893,Y,l,go,l,1,0.4886835658689961,,,,,,,,,,,,,,,,70,001,22,w,Psychologie,2023-01-25_12h06.18.082,00_bat_bachelor,2022.2.5,60.21089171903543,
,,,,,,,,,,,,1,0,1,0,96,0,96,0,,,,,,,96,,,0.2,944.9357212692266,X,d,go,d,1,0.4968449436710216,,,,,,,,,,,,,,,,70,001,22,w,Psychologie,2023-01-25_12h06.18.082,00_bat_bachelor,2022.2.5,60.21089171903543,
,,,,,,,,,,,,1,0,1,0,97,0,97,0,,,,,,,97,,,0.2,945.7361427248688,Y,l,go,l,1,0.39920253813033924,,,,,,,,,,,,,,,,70,001,22,w,Psychologie,2023-01-25_12h06.18.082,00_bat_bachelor,2022.2.5,60.21089171903543,
,,,,,,,,,,,,1,0,1,0,98,0,98,0,,,,,,,98,,,0.2,946.4366268182057,Y,None,nogo,None,1,,,,,,,,,,,,,,,,,70,001,22,w,Psychologie,2023-01-25_12h06.18.082,00_bat_bachelor,2022.2.5,60.21089171903543,
,,,,,,,,,,,,1,0,1,0,99,0,99,0,,,,,,,99,,,0.2,947.4374505511369,X,d,go,d,1,0.2981496614520438,,,,,,,,,,,,,,,,70,001,22,w,Psychologie,2023-01-25_12h06.18.082,00_bat_bachelor,2022.2.5,60.21089171903543,
,,,,,,,,,,,,1,0,1,0,100,0,100,0,,,,,,,100,,,0.2,948.0380169298151,Y,l,go,l,1,0.36989653238561004,,,,,,,,,,,,,,,,70,001,22,w,Psychologie,2023-01-25_12h06.18.082,00_bat_bachelor,2022.2.5,60.21089171903543,
,,,,,,,,,,,,1,0,1,0,101,0,101,0,,,,,,,101,,,0.2,948.721712003753,X,d,go,d,1,0.41326523339375854,,,,,,,,,,,,,,,,70,001,22,w,Psychologie,2023-01-25_12h06.18.082,00_bat_bachelor,2022.2.5,60.21089171903543,
,,,,,,,,,,,,1,0,1,0,102,0,102,0,,,,,,,102,,,0.2,949.4562471444951,Y,l,go,l,1,0.431003202451393,,,,,,,,,,,,,,,,70,001,22,w,Psychologie,2023-01-25_12h06.18.082,00_bat_bachelor,2022.2.5,60.21089171903543,
,,,,,,,,,,,,1,0,1,0,103,0,103,0,,,,,,,103,,,0.2,950.2064132693922,Y,None,nogo,None,1,,951.0067285693367,,,,,,,,,,,,,,,70,001,22,w,Psychologie,2023-01-25_12h06.18.082,00_bat_bachelor,2022.2.5,60.21089171903543,
,,,,,,,,,,,,1,0,1,0,104,0,104,0,,,,,,,104,,,0.2,951.2069798239972,X,d,go,d,1,0.3598654070519842,,,,,,,,,,,,,,,,70,001,22,w,Psychologie,2023-01-25_12h06.18.082,00_bat_bachelor,2022.2.5,60.21089171903543,
,,,,,,,,,,,,1,0,1,0,105,0,105,0,,,,,,,105,,,0.2,951.8742955456255,Y,l,go,l,1,0.3735806036856957,,,,,,,,,,,,,,,,70,001,22,w,Psychologie,2023-01-25_12h06.18.082,00_bat_bachelor,2022.2.5,60.21089171903543,
,,,,,,,,,,,,1,0,1,0,106,0,106,0,,,,,,,106,,,0.2,952.5580495623872,X,d,go,d,1,0.40105175838107243,,,,,,,,,,,,,,,,70,001,22,w,Psychologie,2023-01-25_12h06.18.082,00_bat_bachelor,2022.2.5,60.21089171903543,
,,,,,,,,,,,,1,0,1,0,107,0,107,0,,,,,,,107,,,0.2,953.275214466732,X,None,nogo,None,1,,,,,,,,,,,,,,,,,70,001,22,w,Psychologie,2023-01-25_12h06.18.082,00_bat_bachelor,2022.2.5,60.21089171903543,
,,,,,,,,,,,,1,0,1,0,108,0,108,0,,,,,,,108,,,0.2,954.2760610729456,Y,l,go,l,1,0.347306192968972,,,,,,,,,,,,,,,,70,001,22,w,Psychologie,2023-01-25_12h06.18.082,00_bat_bachelor,2022.2.5,60.21089171903543,
,,,,,,,,,,,,1,0,1,0,109,0,109,0,,,,,,,109,,,0.2,954.926612701267,X,d,go,d,1,0.48119548498652875,,,,,,,,,,,,,,,,70,001,22,w,Psychologie,2023-01-25_12h06.18.082,00_bat_bachelor,2022.2.5,60.21089171903543,
,,,,,,,,,,,,1,0,1,0,110,0,110,0,,,,,,,110,,,0.2,955.7104861871921,Y,l,go,l,1,0.4010473596281372,,,,,,,,,,,,,,,,70,001,22,w,Psychologie,2023-01-25_12h06.18.082,00_bat_bachelor,2022.2.5,60.21089171903543,
,,,,,,,,,,,,1,0,1,0,111,0,111,0,,,,,,,111,,,0.2,956.427726456197,Y,None,nogo,None,1,,,,,,,,,,,,,,,,,70,001,22,w,Psychologie,2023-01-25_12h06.18.082,00_bat_bachelor,2022.2.5,60.21089171903543,
,,,,,,,,,,,,1,0,1,0,112,0,112,0,,,,,,,112,,,0.2,957.4284921260551,X,d,go,d,1,0.24290384066989645,,,,,,,,,,,,,,,,70,001,22,w,Psychologie,2023-01-25_12h06.18.082,00_bat_bachelor,2022.2.5,60.21089171903543,
,,,,,,,,,,,,1,0,1,0,113,0,113,0,,,,,,,113,,,0.2,957.9788715006434,Y,l,go,l,1,0.3406940430868417,,,,,,,,,,,,,,,,70,001,22,w,Psychologie,2023-01-25_12h06.18.082,00_bat_bachelor,2022.2.5,60.21089171903543,
,,,,,,,,,,,,1,0,1,0,114,0,114,0,,,,,,,114,,,0.2,958.6294770865352,Y,None,nogo,None,1,,959.4299316791585,,,,,,,,,,,,,,,70,001,22,w,Psychologie,2023-01-25_12h06.18.082,00_bat_bachelor,2022.2.5,60.21089171903543,
,,,,,,,,,,,,1,0,1,0,115,0,115,0,,,,,,,115,,,0.2,959.6301471575862,X,d,go,d,1,0.28147618169896305,,,,,,,,,,,,,,,,70,001,22,w,Psychologie,2023-01-25_12h06.18.082,00_bat_bachelor,2022.2.5,60.21089171903543,
,,,,,,,,,,,,1,0,1,0,116,0,116,0,,,,,,,116,,,0.2,960.2138602956547,Y,l,go,l,1,0.3932152991183102,,,,,,,,,,,,,,,,70,001,22,w,Psychologie,2023-01-25_12h06.18.082,00_bat_bachelor,2022.2.5,60.21089171903543,
,,,,,,,,,,,,1,0,1,0,117,0,117,0,,,,,,,117,,,0.2,960.9145212174044,Y,None,nogo,None,1,,,,,,,,,,,,,,,,,70,001,22,w,Psychologie,2023-01-25_12h06.18.082,00_bat_bachelor,2022.2.5,60.21089171903543,
,,,,,,,,,,,,1,0,1,0,118,0,118,0,,,,,,,118,,,0.2,961.915333220386,X,d,go,d,1,0.4437553734751418,,,,,,,,,,,,,,,,70,001,22,w,Psychologie,2023-01-25_12h06.18.082,00_bat_bachelor,2022.2.5,60.21089171903543,
,,,,,,,,,,,,1,0,1,0,119,0,119,0,,,,,,,119,,,0.2,962.6659741132753,Y,l,go,l,1,0.32605834177229553,,,,,,,,,,,,,,,,70,001,22,w,Psychologie,2023-01-25_12h06.18.082,00_bat_bachelor,2022.2.5,60.21089171903543,
,,,,,,,,,,,,1,0,1,0,120,0,120,0,,,,,,,120,,,0.2,963.2993962615728,X,d,go,d,1,0.4442808734020218,,,,,,,,,,,,,,,,70,001,22,w,Psychologie,2023-01-25_12h06.18.082,00_bat_bachelor,2022.2.5,60.21089171903543,
,,,,,,,,,,,,1,0,1,0,121,0,121,0,,,,,,,121,,,0.2,964.0499418490217,Y,l,go,l,1,0.45337595196906477,,,,,,,,,,,,,,,,70,001,22,w,Psychologie,2023-01-25_12h06.18.082,00_bat_bachelor,2022.2.5,60.21089171903543,
,,,,,,,,,,,,1,0,1,0,122,0,122,0,,,,,,,122,,,0.2,964.8173711748095,X,d,go,d,1,0.5349035146064125,,,,,,,,,,,,,,,,70,001,22,w,Psychologie,2023-01-25_12h06.18.082,00_bat_bachelor,2022.2.5,60.21089171903543,
,,,,,,,,,,,,1,0,1,0,123,0,123,0,,,,,,,123,,,0.2,965.6682192179724,Y,l,go,l,1,0.4114201185875572,,,,,,,,,,,,,,,,70,001,22,w,Psychologie,2023-01-25_12h06.18.082,00_bat_bachelor,2022.2.5,60.21089171903543,
,,,,,,,,,,,,1,0,1,0,124,0,124,0,,,,,,,124,,,0.2,966.3851656527258,X,d,go,d,1,0.374237771902699,,,,,,,,,,,,,,,,70,001,22,w,Psychologie,2023-01-25_12h06.18.082,00_bat_bachelor,2022.2.5,60.21089171903543,
,,,,,,,,,,,,1,0,1,0,125,0,125,0,,,,,,,125,,,0.2,967.0689748000586,Y,l,go,l,1,0.4264464258449152,,,,,,,,,,,,,,,,70,001,22,w,Psychologie,2023-01-25_12h06.18.082,00_bat_bachelor,2022.2.5,60.21089171903543,
,,,,,,,,,,,,1,0,1,0,126,0,126,0,,,,,,,126,,,0.2,967.8029026247677,X,d,go,d,1,0.3570068281260319,,,,,,,,,,,,,,,,70,001,22,w,Psychologie,2023-01-25_12h06.18.082,00_bat_bachelor,2022.2.5,60.21089171903543,
,,,,,,,,,,,,1,0,1,0,127,0,127,0,,,,,,,127,,,0.2,968.4699814022752,X,None,nogo,None,1,,,,,,,,,,,,,,,,,70,001,22,w,Psychologie,2023-01-25_12h06.18.082,00_bat_bachelor,2022.2.5,60.21089171903543,
,,,,,,,,,,,,1,0,1,0,128,0,128,0,,,,,,,128,,,0.2,969.4707555762725,Y,l,go,l,1,0.33667390985647216,,,,,,,,,,,,,,,,70,001,22,w,Psychologie,2023-01-25_12h06.18.082,00_bat_bachelor,2022.2.5,60.21089171903543,
,,,,,,,,,,,,1,0,1,0,129,0,129,0,,,,,,,129,,,0.2,970.1214412188274,X,d,go,d,1,0.32627417211188003,,,,,,,,,,,,,,,,70,001,22,w,Psychologie,2023-01-25_12h06.18.082,00_bat_bachelor,2022.2.5,60.21089171903543,
,,,,,,,,,,,,1,0,1,0,130,0,130,0,,,,,,,130,,,0.2,970.7551038302481,X,None,nogo,l,0,0.35595905396621674,,,,,,,,,,,,,,,,70,001,22,w,Psychologie,2023-01-25_12h06.18.082,00_bat_bachelor,2022.2.5,60.21089171903543,
,,,,,,,,,,,,1,0,1,0,131,0,131,0,,,,,,,131,,,0.2,971.4224166194326,Y,l,go,None,0,,,,,,,,,,,,,,,,,70,001,22,w,Psychologie,2023-01-25_12h06.18.082,00_bat_bachelor,2022.2.5,60.21089171903543,
,,,,,,,,,,,,1,0,1,0,132,0,132,0,,,,,,,132,,,0.2,972.4231479793089,X,d,go,None,0,,,,,,,,,,,,,,,,,70,001,22,w,Psychologie,2023-01-25_12h06.18.082,00_bat_bachelor,2022.2.5,60.21089171903543,
,,,,,,,,,,,,1,0,1,0,133,0,133,0,,,,,,,133,,,0.2,973.423735061253,Y,l,go,l,1,0.3671737271361053,,,,,,,,,,,,,,,,70,001,22,w,Psychologie,2023-01-25_12h06.18.082,00_bat_bachelor,2022.2.5,60.21089171903543,
,,,,,,,,,,,,1,0,1,0,134,0,134,0,,,,,,,134,,,0.2,974.0909540111315,Y,None,nogo,d,0,0.2684119950281456,,,,,,,,,,,,,,,,70,001,22,w,Psychologie,2023-01-25_12h06.18.082,00_bat_bachelor,2022.2.5,60.21089171903543,
,,,,,,,,,,,,1,0,1,0,135,0,135,0,,,,,,,135,,,0.2,974.674761281698,X,d,go,None,0,,,,,,,,,,,,,,,,,70,001,22,w,Psychologie,2023-01-25_12h06.18.082,00_bat_bachelor,2022.2.5,60.21089171903543,
,,,,,,,,,,,,1,0,1,0,136,0,136,0,,,,,,,136,,,0.2,975.6756442506448,Y,l,go,l,1,0.4125016162288375,,,,,,,,,,,,,,,,70,001,22,w,Psychologie,2023-01-25_12h06.18.082,00_bat_bachelor,2022.2.5,60.21089171903543,
,,,,,,,,,,,,1,0,1,0,137,0,137,0,,,,,,,137,,,0.2,976.3926546134171,Y,None,nogo,None,1,,,,,,,,,,,,,,,,,70,001,22,w,Psychologie,2023-01-25_12h06.18.082,00_bat_bachelor,2022.2.5,60.21089171903543,
,,,,,,,,,,,,1,0,1,0,138,0,138,0,,,,,,,138,,,0.2,977.3934754138463,X,d,go,d,1,0.35794375464320183,,,,,,,,,,,,,,,,70,001,22,w,Psychologie,2023-01-25_12h06.18.082,00_bat_bachelor,2022.2.5,60.21089171903543,
,,,,,,,,,,,,1,0,1,0,139,0,139,0,,,,,,,139,,,0.2,978.060661519994,Y,l,go,l,1,0.35461304686032236,,,,,,,,,,,,,,,,70,001,22,w,Psychologie,2023-01-25_12h06.18.082,00_bat_bachelor,2022.2.5,60.21089171903543,
,,,,,,,,,,,,1,0,1,0,140,0,140,0,,,,,,,140,,,0.2,978.7277675695368,X,d,go,d,1,0.46334402897628024,,,,,,,,,,,,,,,,70,001,22,w,Psychologie,2023-01-25_12h06.18.082,00_bat_bachelor,2022.2.5,60.21089171903543,
,,,,,,,,,,,,1,0,1,0,141,0,141,0,,,,,,,141,,,0.2,979.4951713827904,X,None,nogo,None,1,,,,,,,,,,,,,,,,,70,001,22,w,Psychologie,2023-01-25_12h06.18.082,00_bat_bachelor,2022.2.5,60.21089171903543,
,,,,,,,,,,,,1,0,1,0,142,0,142,0,,,,,,,142,,,0.2,980.4958144750562,Y,l,go,l,1,0.3435977821354754,,,,,,,,,,,,,,,,70,001,22,w,Psychologie,2023-01-25_12h06.18.082,00_bat_bachelor,2022.2.5,60.21089171903543,
,,,,,,,,,,,,1,0,1,0,143,0,143,0,,,,,,,143,,,0.2,981.1463259284501,X,d,go,d,1,0.4052408022689633,,,,,,,,,,,,,,,,70,001,22,w,Psychologie,2023-01-25_12h06.18.082,00_bat_bachelor,2022.2.5,60.21089171903543,
,,,,,,,,,,,,1,0,1,0,144,0,144,0,,,,,,,144,,,0.2,981.8634081369382,X,None,nogo,l,0,0.3364308074815199,,,,,,,,,,,,,,,,70,001,22,w,Psychologie,2023-01-25_12h06.18.082,00_bat_bachelor,2022.2.5,60.21089171903543,
,,,,,,,,,,,,1,0,1,0,145,0,145,0,,,,,,,145,,,0.2,982.5139585922589,Y,l,go,None,0,,,,,,,,,,,,,,,,,70,001,22,w,Psychologie,2023-01-25_12h06.18.082,00_bat_bachelor,2022.2.5,60.21089171903543,
,,,,,,,,,,,,1,0,1,0,146,0,146,0,,,,,,,146,,,0.2,983.5149160461151,X,d,go,d,1,0.5322343737352639,,,,,,,,,,,,,,,,70,001,22,w,Psychologie,2023-01-25_12h06.18.082,00_bat_bachelor,2022.2.5,60.21089171903543,
,,,,,,,,,,,,1,0,1,0,147,0,147,0,,,,,,,147,,,0.2,984.3487885643262,Y,l,go,l,1,0.4991651197196916,,,,,,,,,,,,,,,,70,001,22,w,Psychologie,2023-01-25_12h06.18.082,00_bat_bachelor,2022.2.5,60.21089171903543,
,,,,,,,,,,,,1,0,1,0,148,0,148,0,,,,,,,148,,,0.2,985.1493358232547,Y,None,nogo,None,1,,,,,,,,,,,,,,,,,70,001,22,w,Psychologie,2023-01-25_12h06.18.082,00_bat_bachelor,2022.2.5,60.21089171903543,
,,,,,,,,,,,,1,0,1,0,149,0,149,0,,,,,,,149,,,0.2,986.1500513476785,X,d,go,d,1,0.3529764312552288,,,,,,,,,,,,,,,,70,001,22,w,Psychologie,2023-01-25_12h06.18.082,00_bat_bachelor,2022.2.5,60.21089171903543,
,,,,,,,,,,,,1,0,1,0,150,0,150,0,,,,,,,150,,,0.2,986.8172362808837,Y,l,go,l,1,0.5504825938260183,,,,,,,,,,,,,,,,70,001,22,w,Psychologie,2023-01-25_12h06.18.082,00_bat_bachelor,2022.2.5,60.21089171903543,
,,,,,,,,,,,,1,0,1,0,151,0,151,0,,,,,,,151,,,0.2,987.6681332963635,X,d,go,d,1,0.5159567783703096,,,,,,,,,,,,,,,,70,001,22,w,Psychologie,2023-01-25_12h06.18.082,00_bat_bachelor,2022.2.5,60.21089171903543,
,,,,,,,,,,,,1,0,1,0,152,0,152,0,,,,,,,152,,,0.2,988.4852118099225,Y,l,go,l,1,0.3703176361741498,,,,,,,,,,,,,,,,70,001,22,w,Psychologie,2023-01-25_12h06.18.082,00_bat_bachelor,2022.2.5,60.21089171903543,
,,,,,,,,,,,,1,0,1,0,153,0,153,0,,,,,,,153,,,0.2,989.1690288749523,Y,None,nogo,None,1,,,,,,,,,,,,,,,,,70,001,22,w,Psychologie,2023-01-25_12h06.18.082,00_bat_bachelor,2022.2.5,60.21089171903543,
,,,,,,,,,,,,1,0,1,0,154,0,154,0,,,,,,,154,,,0.2,990.1698273885413,X,d,go,d,1,0.38248301844578236,,,,,,,,,,,,,,,,70,001,22,w,Psychologie,2023-01-25_12h06.18.082,00_bat_bachelor,2022.2.5,60.21089171903543,
,,,,,,,,,,,,1,0,1,0,155,0,155,0,,,,,,,155,,,0.2,990.8536945989472,Y,l,go,l,1,0.47395431861514226,,,,,,,,,,,,,,,,70,001,22,w,Psychologie,2023-01-25_12h06.18.082,00_bat_bachelor,2022.2.5,60.21089171903543,
,,,,,,,,,,,,1,0,1,0,156,0,156,0,,,,,,,156,,,0.2,991.6377651473158,X,d,go,d,1,0.362076201767195,,,,,,,,,,,,,,,,70,001,22,w,Psychologie,2023-01-25_12h06.18.082,00_bat_bachelor,2022.2.5,60.21089171903543,
,,,,,,,,,,,,1,0,1,0,157,0,157,0,,,,,,,157,,,0.2,992.3223431902006,Y,l,go,l,1,0.3722524847253226,,,,,,,,,,,,,,,,70,001,22,w,Psychologie,2023-01-25_12h06.18.082,00_bat_bachelor,2022.2.5,60.21089171903543,
,,,,,,,,,,,,1,0,1,0,158,0,158,0,,,,,,,158,,,0.2,993.038952096831,X,d,go,d,1,0.3928672141046263,,,,,,,,,,,,,,,,70,001,22,w,Psychologie,2023-01-25_12h06.18.082,00_bat_bachelor,2022.2.5,60.21089171903543,
,,,,,,,,,,,,1,0,1,0,159,0,159,0,,,,,,,159,,,0.2,993.7393370724749,Y,l,go,l,1,0.4197829575277865,,,,,,,,,,,,,,,,70,001,22,w,Psychologie,2023-01-25_12h06.18.082,00_bat_bachelor,2022.2.5,60.21089171903543,
,,,,,,,,,,,,1,0,1,0,160,0,160,0,,,,,,,160,,,0.2,994.4732214965043,Y,None,nogo,l,0,0.5101762790000066,,,,,,,,,,,,,,,,70,001,22,w,Psychologie,2023-01-25_12h06.18.082,00_bat_bachelor,2022.2.5,60.21089171903543,
,,,,,,,,,,,,1,0,1,0,161,0,161,0,,,,,,,161,,,0.2,995.2902812422253,Y,None,nogo,None,1,,996.0911062067025,,,,,,,,,,,,,,,70,001,22,w,Psychologie,2023-01-25_12h06.18.082,00_bat_bachelor,2022.2.5,60.21089171903543,
,,,,,,,,,,,,1,0,1,0,162,0,162,0,,,,,,,162,,,0.2,996.2912873752066,X,d,go,d,1,0.6045914931455627,,,,,,,,,,,,,,,,70,001,22,w,Psychologie,2023-01-25_12h06.18.082,00_bat_bachelor,2022.2.5,60.21089171903543,
,,,,,,,,,,,,1,0,1,0,163,0,163,0,,,,,,,163,,,0.2,997.208551338641,Y,l,go,l,1,0.2867698898189701,,,,,,,,,,,,,,,,70,001,22,w,Psychologie,2023-01-25_12h06.18.082,00_bat_bachelor,2022.2.5,60.21089171903543,
,,,,,,,,,,,,1,0,1,0,164,0,164,0,,,,,,,164,,,0.2,997.8091294472106,X,d,go,d,1,0.30189091607462615,,,,,,,,,,,,,,,,70,001,22,w,Psychologie,2023-01-25_12h06.18.082,00_bat_bachelor,2022.2.5,60.21089171903543,
,,,,,,,,,,,,1,0,1,0,165,0,165,0,,,,,,,165,,,0.2,998.4261933570378,X,None,nogo,None,1,,999.2267728731968,,,,,,,,,,,,,,,70,001,22,w,Psychologie,2023-01-25_12h06.18.082,00_bat_bachelor,2022.2.5,60.21089171903543,
,,,,,,,,,,,,1,0,1,0,166,0,166,0,,,,,,,166,,,0.2,999.4268742782879,Y,l,go,l,1,0.3165574083686806,,,,,,,,,,,,,,,,70,001,22,w,Psychologie,2023-01-25_12h06.18.082,00_bat_bachelor,2022.2.5,60.21089171903543,
,,,,,,,,,,,,1,0,1,0,167,0,167,0,,,,,,,167,,,0.2,1000.0441273328615,X,d,go,d,1,0.3632122434792109,,,,,,,,,,,,,,,,70,001,22,w,Psychologie,2023-01-25_12h06.18.082,00_bat_bachelor,2022.2.5,60.21089171903543,
,,,,,,,,,,,,1,0,1,0,168,0,168,0,,,,,,,168,,,0.2,1000.7111855830299,Y,l,go,l,1,0.3679992195102386,,,,,,,,,,,,,,,,70,001,22,w,Psychologie,2023-01-25_12h06.18.082,00_bat_bachelor,2022.2.5,60.21089171903543,
,,,,,,,,,,,,1,0,1,0,169,0,169,0,,,,,,,169,,,0.2,1001.3951642275788,X,d,go,d,1,0.4924820038722828,,,,,,,,,,,,,,,,70,001,22,w,Psychologie,2023-01-25_12h06.18.082,00_bat_bachelor,2022.2.5,60.21089171903543,
,,,,,,,,,,,,1,0,1,0,170,0,170,0,,,,,,,170,,,0.2,1002.1955589976278,X,None,nogo,d,0,0.4435075790970586,,,,,,,,,,,,,,,,70,001,22,w,Psychologie,2023-01-25_12h06.18.082,00_bat_bachelor,2022.2.5,60.21089171903543,
,,,,,,,,,,,,1,0,1,0,171,0,171,0,,,,,,,171,,,0.2,1002.9461661670939,Y,l,go,l,1,0.37307357834652066,,,,,,,,,,,,,,,,70,001,22,w,Psychologie,2023-01-25_12h06.18.082,00_bat_bachelor,2022.2.5,60.21089171903543,
,,,,,,,,,,,,1,0,1,0,172,0,172,0,,,,,,,172,,,0.2,1003.6299870443181,X,d,go,d,1,0.40961136657278985,,,,,,,,,,,,,,,,70,001,22,w,Psychologie,2023-01-25_12h06.18.082,00_bat_bachelor,2022.2.5,60.21089171903543,
,,,,,,,,,,,,1,0,1,0,173,0,173,0,,,,,,,173,,,0.2,1004.3472287795739,X,None,nogo,None,1,,,,,,,,,,,,,,,,,70,001,22,w,Psychologie,2023-01-25_12h06.18.082,00_bat_bachelor,2022.2.5,60.21089171903543,
,,,,,,,,,,,,1,0,1,0,174,0,174,0,,,,,,,174,,,0.2,1005.3481023645727,Y,l,go,l,1,0.38761954579968005,,,,,,,,,,,,,,,,70,001,22,w,Psychologie,2023-01-25_12h06.18.082,00_bat_bachelor,2022.2.5,60.21089171903543,
,,,,,,,,,,,,1,0,1,0,175,0,175,0,,,,,,,175,,,0.2,1006.0486231139512,X,d,go,d,1,0.47080395818920806,,,,,,,,,,,,,,,,70,001,22,w,Psychologie,2023-01-25_12h06.18.082,00_bat_bachelor,2022.2.5,60.21089171903543,
,,,,,,,,,,,,1,0,1,0,176,0,176,0,,,,,,,176,,,0.2,1006.832570204977,X,None,nogo,None,1,,,,,,,,,,,,,,,,,70,001,22,w,Psychologie,2023-01-25_12h06.18.082,00_bat_bachelor,2022.2.5,60.21089171903543,
,,,,,,,,,,,,1,0,1,0,177,0,177,0,,,,,,,177,,,0.2,1007.8331998079084,Y,l,go,l,1,0.3581499077845365,,,,,,,,,,,,,,,,70,001,22,w,Psychologie,2023-01-25_12h06.18.082,00_bat_bachelor,2022.2.5,60.21089171903543,
,,,,,,,,,,,,1,0,1,0,178,0,178,0,,,,,,,178,,,0.2,1008.5005776980543,X,d,go,d,1,0.5304678493994288,,,,,,,,,,,,,,,,70,001,22,w,Psychologie,2023-01-25_12h06.18.082,00_bat_bachelor,2022.2.5,60.21089171903543,
,,,,,,,,,,,,1,0,1,0,179,0,179,0,,,,,,,179,,,0.2,1009.3344194252277,Y,l,go,l,1,0.3374979359796271,,,,,,,,,,,,,,,,70,001,22,w,Psychologie,2023-01-25_12h06.18.082,00_bat_bachelor,2022.2.5,60.21089171903543,
,,,,,,,,,,,,1,0,1,0,180,0,180,0,,,,,,,180,,,0.2,1009.9851478819037,Y,None,nogo,None,1,,,,,,,,,,,,,,,,,70,001,22,w,Psychologie,2023-01-25_12h06.18.082,00_bat_bachelor,2022.2.5,60.21089171903543,
,,,,,,,,,,,,1,0,1,0,181,0,181,0,,,,,,,181,,,0.2,1010.9856754345819,Y,None,nogo,None,1,,,,,,,,,,,,,,,,,70,001,22,w,Psychologie,2023-01-25_12h06.18.082,00_bat_bachelor,2022.2.5,60.21089171903543,
,,,,,,,,,,,,1,0,1,0,182,0,182,0,,,,,,,182,,,0.2,1011.9865498993313,X,d,go,d,1,0.3572408398031257,,,,,,,,,,,,,,,,70,001,22,w,Psychologie,2023-01-25_12h06.18.082,00_bat_bachelor,2022.2.5,60.21089171903543,
,,,,,,,,,,,,1,0,1,0,183,0,183,0,,,,,,,183,,,0.2,1012.6536433392321,Y,l,go,l,1,0.4021575955557637,,,,,,,,,,,,,,,,70,001,22,w,Psychologie,2023-01-25_12h06.18.082,00_bat_bachelor,2022.2.5,60.21089171903543,
,,,,,,,,,,,,1,0,1,0,184,0,184,0,,,,,,,184,,,0.2,1013.3708190937177,X,d,go,d,1,0.46033208147855476,,,,,,,,,,,,,,,,70,001,22,w,Psychologie,2023-01-25_12h06.18.082,00_bat_bachelor,2022.2.5,60.21089171903543,
,,,,,,,,,,,,1,0,1,0,185,0,185,0,,,,,,,185,,,0.2,1014.1379270200268,Y,l,go,l,1,0.3573337993584573,,,,,,,,,,,,,,,,70,001,22,w,Psychologie,2023-01-25_12h06.18.082,00_bat_bachelor,2022.2.5,60.21089171903543,
,,,,,,,,,,,,1,0,1,0,186,0,186,0,,,,,,,186,,,0.2,1014.8054749938892,X,d,go,d,1,0.4580180635675788,,,,,,,,,,,,,,,,70,001,22,w,Psychologie,2023-01-25_12h06.18.082,00_bat_bachelor,2022.2.5,60.21089171903543,
,,,,,,,,,,,,1,0,1,0,187,0,187,0,,,,,,,187,,,0.2,1015.5892760475981,Y,l,go,l,1,0.3065312682883814,,,,,,,,,,,,,,,,70,001,22,w,Psychologie,2023-01-25_12h06.18.082,00_bat_bachelor,2022.2.5,60.21089171903543,
,,,,,,,,,,,,1,0,1,0,188,0,188,0,,,,,,,188,,,0.2,1016.2063622442656,X,d,go,d,1,0.41723316843854263,,,,,,,,,,,,,,,,70,001,22,w,Psychologie,2023-01-25_12h06.18.082,00_bat_bachelor,2022.2.5,60.21089171903543,
,,,,,,,,,,,,1,0,1,0,189,0,189,0,,,,,,,189,,,0.2,1016.923489026376,Y,l,go,l,1,0.34737539949128404,,,,,,,,,,,,,,,,70,001,22,w,Psychologie,2023-01-25_12h06.18.082,00_bat_bachelor,2022.2.5,60.21089171903543,
,,,,,,,,,,,,1,0,1,0,190,0,190,0,,,,,,,190,,,0.2,1017.5740412411978,Y,None,nogo,d,0,0.44146217621164396,,,,,,,,,,,,,,,,70,001,22,w,Psychologie,2023-01-25_12h06.18.082,00_bat_bachelor,2022.2.5,60.21089171903543,
,,,,,,,,,,,,1,0,1,0,191,0,191,0,,,,,,,191,,,0.2,1018.3246566216112,X,d,go,None,0,,,,,,,,,,,,,,,,,70,001,22,w,Psychologie,2023-01-25_12h06.18.082,00_bat_bachelor,2022.2.5,60.21089171903543,
,,,,,,,,,,,,1,0,1,0,192,0,192,0,,,,,,,192,,,0.2,1019.3254052830744,Y,l,go,None,0,,,,,,,,,,,,,,,,,70,001,22,w,Psychologie,2023-01-25_12h06.18.082,00_bat_bachelor,2022.2.5,60.21089171903543,
,,,,,,,,,,,,1,0,1,0,193,0,193,0,,,,,,,193,,,0.2,1020.3260800460703,Y,None,nogo,None,1,,,,,,,,,,,,,,,,,70,001,22,w,Psychologie,2023-01-25_12h06.18.082,00_bat_bachelor,2022.2.5,60.21089171903543,
,,,,,,,,,,,,1,0,1,0,194,0,194,0,,,,,,,194,,,0.2,1021.3270008440013,Y,None,nogo,None,1,,1022.127595609054,,,,,,,,,,,,,,,70,001,22,w,Psychologie,2023-01-25_12h06.18.082,00_bat_bachelor,2022.2.5,60.21089171903543,
,,,,,,,,,,,,1,0,1,0,195,0,195,0,,,,,,,195,,,0.2,1022.3276879234472,X,d,go,d,1,0.39112766849575564,,,,,,,,,,,,,,,,70,001,22,w,Psychologie,2023-01-25_12h06.18.082,00_bat_bachelor,2022.2.5,60.21089171903543,
,,,,,,,,,,,,1,0,1,0,196,0,196,0,,,,,,,196,,,0.2,1023.0284183449112,Y,l,go,l,1,0.30741599667817354,,,,,,,,,,,,,,,,70,001,22,w,Psychologie,2023-01-25_12h06.18.082,00_bat_bachelor,2022.2.5,60.21089171903543,
,,,,,,,,,,,,1,0,1,0,197,0,197,0,,,,,,,197,,,0.2,1023.6453488270054,X,d,go,d,1,0.2818266127142124,,,,,,,,,,,,,,,,70,001,22,w,Psychologie,2023-01-25_12h06.18.082,00_bat_bachelor,2022.2.5,60.21089171903543,
,,,,,,,,,,,,1,0,1,0,198,0,198,0,,,,,,,198,,,0.2,1024.2291074184468,Y,l,go,l,1,0.2984933478292078,,,,,,,,,,,,,,,,70,001,22,w,Psychologie,2023-01-25_12h06.18.082,00_bat_bachelor,2022.2.5,60.21089171903543,
,,,,,,,,,,,,1,0,1,0,199,0,199,0,,,,,,,199,,,0.2,1024.8296218922478,Y,None,nogo,d,0,0.3700601646560244,,,,,,,,,,,,,,,,70,001,22,w,Psychologie,2023-01-25_12h06.18.082,00_bat_bachelor,2022.2.5,60.21089171903543,
,,,,,,,,,,,,1,0,1,0,200,0,200,0,,,,,,,200,,,0.2,1025.5134023012943,X,d,go,None,0,,,,,,,,,,,,,,,,,70,001,22,w,Psychologie,2023-01-25_12h06.18.082,00_bat_bachelor,2022.2.5,60.21089171903543,
,,,,,,,,,,,,1,0,1,0,201,0,201,0,,,,,,,201,,,0.2,1026.5142131313332,Y,l,go,l,1,0.2455829520476982,,,,,,,,,,,,,,,,70,001,22,w,Psychologie,2023-01-25_12h06.18.082,00_bat_bachelor,2022.2.5,60.21089171903543,
,,,,,,,,,,,,1,0,1,0,202,0,202,0,,,,,,,202,,,0.2,1027.0645511579933,X,d,go,d,1,0.4065343180554919,,,,,,,,,,,,,,,,70,001,22,w,Psychologie,2023-01-25_12h06.18.082,00_bat_bachelor,2022.2.5,60.21089171903543,
,,,,,,,,,,,,1,0,1,0,203,0,203,0,,,,,,,203,,,0.2,1027.7817579967668,X,None,nogo,None,1,,,,,,,,,,,,,,,,,70,001,22,w,Psychologie,2023-01-25_12h06.18.082,00_bat_bachelor,2022.2.5,60.21089171903543,
,,,,,,,,,,,,1,0,1,0,204,0,204,0,,,,,,,204,,,0.2,1028.7825984447263,Y,l,go,l,1,0.368588060955517,,,,,,,,,,,,,,,,70,001,22,w,Psychologie,2023-01-25_12h06.18.082,00_bat_bachelor,2022.2.5,60.21089171903543,
,,,,,,,,,,,,1,0,1,0,205,0,205,0,,,,,,,205,,,0.2,1029.4663797335816,X,d,go,d,1,0.38091912830714136,,,,,,,,,,,,,,,,70,001,22,w,Psychologie,2023-01-25_12h06.18.082,00_bat_bachelor,2022.2.5,60.21089171903543,
,,,,,,,,,,,,1,0,1,0,206,0,206,0,,,,,,,206,,,0.2,1030.1503695215215,Y,l,go,l,1,0.3687742733163759,,,,,,,,,,,,,,,,70,001,22,w,Psychologie,2023-01-25_12h06.18.082,00_bat_bachelor,2022.2.5,60.21089171903543,
,,,,,,,,,,,,1,0,1,0,207,0,207,0,,,,,,,207,,,0.2,1030.8341396668693,X,d,go,d,1,0.4214236785774119,,,,,,,,,,,,,,,,70,001,22,w,Psychologie,2023-01-25_12h06.18.082,00_bat_bachelor,2022.2.5,60.21089171903543,
