loop_instruction.thisRepN,loop_instruction.thisTrialN,loop_instruction.thisN,loop_instruction.thisIndex,loop_rsi_practice.thisRepN,loop_rsi_practice.thisTrialN,loop_rsi_practice.thisN,loop_rsi_practice.thisIndex,loop_practice.thisRepN,loop_practice.thisTrialN,loop_practice.thisN,loop_practice.thisIndex,loop_exp.thisRepN,loop_exp.thisTrialN,loop_exp.thisN,loop_exp.thisIndex,loop_trials.thisRepN,loop_trials.thisTrialN,loop_trials.thisN,loop_trials.thisIndex,map_condition,map_x_key,map_y_key,key_resp_welcome.started,key_resp_welcome.keys,key_resp_welcome.rt,index,text_empty_rsi_practice.started,text_empty_rsi_practice.stopped,rsi,stimulus.started,stimulus.stopped,stimulus,correct,trial_type,key_resp_trial.keys,key_resp_trial.corr,key_resp_trial.rt,key_resp_instruction_rsi.started,key_resp_instruction_rsi.keys,key_resp_instruction_rsi.rt,key_resp_instruction_rsi.stopped,key_resp_instruction_final.started,key_resp_instruction_final.keys,key_resp_instruction_final.rt,key_resp_break.started,key_resp_break.keys,key_resp_break.rt,key_resp_break.stopped,key_resp_end_screen.started,image_end_screen.started,key_resp_end_screen.stopped,image_end_screen.stopped,key_resp_end_screen.keys,participant,session,Alter,Geschlecht (w/m/d/andere),Studiengang,date,expName,psychopyVersion,frameRate,
,,,,0,0,0,0,0,0,0,0,,,,,,,,,0,d,l,191.60009396378882,j,20.336801071476657,0,211.95757278677775,212.97191123187076,1,212.97191123187076,213.77223578991834,X,d,go,None,0,,,,,,,,,,,,,,,,,,74,001,19,w,Psychologie,2023-01-26_08h55.27.178,00_bat_bachelor,2022.2.4,59.951079842963544,
,,,,0,0,0,0,1,0,1,0,,,,,,,,,,,,,,,1,214.3727365421655,215.37362721015234,1,215.37362721015234,,Y,l,go,l,1,0.5445128887658939,,,,,,,,,,,,,,,,,74,001,19,w,Psychologie,2023-01-26_08h55.27.178,00_bat_bachelor,2022.2.4,59.951079842963544,
,,,,0,0,0,0,2,0,2,0,,,,,,,,,,,,,,,2,216.6244867265341,217.6252973943774,1,217.6252973943774,,X,d,go,d,1,0.34016737941419706,,,,,,,,,,,,,,,,,74,001,19,w,Psychologie,2023-01-26_08h55.27.178,00_bat_bachelor,2022.2.4,59.951079842963544,
,,,,0,0,0,0,3,0,3,0,,,,,,,,,,,,,,,3,218.6760824379453,219.67659589325194,1,219.67659589325194,,X,None,nogo,None,1,,,,,,,,,,,,,,,,,,74,001,19,w,Psychologie,2023-01-26_08h55.27.178,00_bat_bachelor,2022.2.4,59.951079842963544,
,,,,0,0,0,0,4,0,4,0,,,,,,,,,,,,,,,4,221.07782459806185,222.07855769002344,1,222.07855769002344,,Y,l,go,l,1,0.4791421270056162,,,,,,,,,,,,,,,,,74,001,19,w,Psychologie,2023-01-26_08h55.27.178,00_bat_bachelor,2022.2.4,59.951079842963544,
,,,,0,0,0,0,5,0,5,0,,,,,,,,,,,,,,,5,223.26288232178194,224.2634272922587,1,224.2634272922587,,X,d,go,d,1,0.2942114337638486,,,,,,,,,,,,,,,,,74,001,19,w,Psychologie,2023-01-26_08h55.27.178,00_bat_bachelor,2022.2.4,59.951079842963544,
,,,,0,0,0,0,6,0,6,0,,,,,,,,,,,,,,,6,225.26435674817185,226.26517905239598,1,226.26517905239598,,Y,l,go,l,1,0.37217421384411864,,,,,,,,,,,,,,,,,74,001,19,w,Psychologie,2023-01-26_08h55.27.178,00_bat_bachelor,2022.2.4,59.951079842963544,
,,,,0,0,0,0,7,0,7,0,,,,,,,,,,,,,,,7,227.3493731142662,228.34988705438445,1,228.34988705438445,229.15050543105463,Y,None,nogo,None,1,,,,,,,,,,,,,,,,,,74,001,19,w,Psychologie,2023-01-26_08h55.27.178,00_bat_bachelor,2022.2.4,59.951079842963544,
,,,,0,0,0,0,8,0,8,0,,,,,,,,,,,,,,,8,229.7511555168603,230.75175042680348,1,230.75175042680348,231.55262383414083,X,d,go,None,0,,,,,,,,,,,,,,,,,,74,001,19,w,Psychologie,2023-01-26_08h55.27.178,00_bat_bachelor,2022.2.4,59.951079842963544,
,,,,0,0,0,0,9,0,9,0,,,,,,,,,,,,,,,9,232.15311537423986,233.15354398093768,1,233.15354398093768,,Y,l,go,l,1,0.34815866374992765,,,,,,,,,,,,,,,,,74,001,19,w,Psychologie,2023-01-26_08h55.27.178,00_bat_bachelor,2022.2.4,59.951079842963544,
,,,,0,0,0,0,10,0,10,0,,,,,,,,,,,,,,,10,234.20457581273513,235.20527205616236,1,235.20527205616236,,X,d,go,d,1,0.4886199589527678,,,,,,,,,,,,,,,,,74,001,19,w,Psychologie,2023-01-26_08h55.27.178,00_bat_bachelor,2022.2.4,59.951079842963544,
,,,,0,0,0,0,11,0,11,0,,,,,,,,,,,,,,,11,236.40604228759184,237.4067205916217,1,237.4067205916217,,Y,l,go,l,1,0.3661262050445657,,,,,,,,,,,,,,,,,74,001,19,w,Psychologie,2023-01-26_08h55.27.178,00_bat_bachelor,2022.2.4,59.951079842963544,
,,,,0,0,0,0,12,0,12,0,,,,,,,,,,,,,,,12,238.47444578103023,239.47522444883361,1,239.47522444883361,,Y,None,nogo,None,1,,,,,,,,,,,,,,,,,,74,001,19,w,Psychologie,2023-01-26_08h55.27.178,00_bat_bachelor,2022.2.4,59.951079842963544,
,,,,0,0,0,0,13,0,13,0,,,,,,,,,,,,,,,13,240.87665630545234,241.87734285191982,1,241.87734285191982,,X,d,go,d,1,0.2962778610235546,,,,,,,,,,,,,,,,,74,001,19,w,Psychologie,2023-01-26_08h55.27.178,00_bat_bachelor,2022.2.4,59.951079842963544,
,,,,0,0,0,0,14,0,14,0,,,,,,,,,,,,,,,14,242.8781942470814,243.87892782391282,1,243.87892782391282,,Y,l,go,l,1,0.35843407263746485,,,,,,,,,,,,,,,,,74,001,19,w,Psychologie,2023-01-26_08h55.27.178,00_bat_bachelor,2022.2.4,59.951079842963544,
,,,,1,0,1,0,0,0,0,0,,,,,,,,,,,,,,,0,263.46022321487544,263.6604004757537,0.2,263.6604004757537,,X,d,go,d,1,0.6252082788851112,244.9757774193131,j,18.465227924956707,,,,,,,,,,,,,,74,001,19,w,Psychologie,2023-01-26_08h55.27.178,00_bat_bachelor,2022.2.4,59.951079842963544,
,,,,1,0,1,0,1,0,1,0,,,,,,,,,,,,,,,1,264.994439264643,265.1948919198476,0.2,265.1948919198476,,Y,l,go,l,1,0.32356274919584394,,,,,,,,,,,,,,,,,74,001,19,w,Psychologie,2023-01-26_08h55.27.178,00_bat_bachelor,2022.2.4,59.951079842963544,
,,,,1,0,1,0,2,0,2,0,,,,,,,,,,,,,,,2,266.22908154534525,266.42909977567615,0.2,266.42909977567615,,X,d,go,d,1,0.22380842227721587,,,,,,,,,,,,,,,,,74,001,19,w,Psychologie,2023-01-26_08h55.27.178,00_bat_bachelor,2022.2.4,59.951079842963544,
,,,,1,0,1,0,3,0,3,0,,,,,,,,,,,,,,,3,267.3630381038238,267.56340203163563,0.2,267.56340203163563,,X,None,nogo,l,0,0.2900868217111565,,,,,,,,,,,,,,,,,74,001,19,w,Psychologie,2023-01-26_08h55.27.178,00_bat_bachelor,2022.2.4,59.951079842963544,
,,,,1,0,1,0,4,0,4,0,,,,,,,,,,,,,,,4,268.96412309934385,269.16425575409085,0.2,269.16425575409085,,Y,l,go,None,0,,,,,,,,,,,,,,,,,,74,001,19,w,Psychologie,2023-01-26_08h55.27.178,00_bat_bachelor,2022.2.4,59.951079842963544,
,,,,1,0,1,0,5,0,5,0,,,,,,,,,,,,,,,5,270.56573270168155,270.76584644729155,0.2,270.76584644729155,,X,d,go,d,1,0.36753663132549264,,,,,,,,,,,,,,,,,74,001,19,w,Psychologie,2023-01-26_08h55.27.178,00_bat_bachelor,2022.2.4,59.951079842963544,
,,,,1,0,1,0,6,0,6,0,,,,,,,,,,,,,,,6,271.8496967511019,272.05004710311186,0.2,272.05004710311186,,X,None,nogo,None,1,,,,,,,,,,,,,,,,,,74,001,19,w,Psychologie,2023-01-26_08h55.27.178,00_bat_bachelor,2022.2.4,59.951079842963544,
,,,,1,0,1,0,7,0,7,0,,,,,,,,,,,,,,,7,273.45088501946884,273.6510574318527,0.2,273.6510574318527,,X,None,nogo,d,0,0.4898985062900465,,,,,,,,,,,,,,,,,74,001,19,w,Psychologie,2023-01-26_08h55.27.178,00_bat_bachelor,2022.2.4,59.951079842963544,
,,,,1,0,1,0,8,0,8,0,,,,,,,,,,,,,,,8,275.2526020644,275.45277544646524,0.2,275.45277544646524,,Y,l,go,l,1,0.6245159142417833,,,,,,,,,,,,,,,,,74,001,19,w,Psychologie,2023-01-26_08h55.27.178,00_bat_bachelor,2022.2.4,59.951079842963544,
,,,,1,0,1,0,9,0,9,0,,,,,,,,,,,,,,,9,276.7870959327556,276.9872251935594,0.2,276.9872251935594,,X,d,go,d,1,0.38672162892180495,,,,,,,,,,,,,,,,,74,001,19,w,Psychologie,2023-01-26_08h55.27.178,00_bat_bachelor,2022.2.4,59.951079842963544,
,,,,1,0,1,0,10,0,10,0,,,,,,,,,,,,,,,10,278.08812570394366,278.28826126779313,0.2,278.28826126779313,,X,None,nogo,None,1,,,,,,,,,,,,,,,,,,74,001,19,w,Psychologie,2023-01-26_08h55.27.178,00_bat_bachelor,2022.2.4,59.951079842963544,
,,,,1,0,1,0,11,0,11,0,,,,,,,,,,,,,,,11,279.68932221477735,279.88948589988286,0.2,279.88948589988286,,Y,l,go,d,0,0.46038040274288505,,,,,,,,,,,,,,,,,74,001,19,w,Psychologie,2023-01-26_08h55.27.178,00_bat_bachelor,2022.2.4,59.951079842963544,
,,,,1,0,1,0,12,0,12,0,,,,,,,,,,,,,,,12,281.05705559815397,281.2571969801793,0.2,281.2571969801793,,X,d,go,d,1,0.5488901072531007,,,,,,,,,,,,,,,,,74,001,19,w,Psychologie,2023-01-26_08h55.27.178,00_bat_bachelor,2022.2.4,59.951079842963544,
,,,,1,0,1,0,13,0,13,0,,,,,,,,,,,,,,,13,282.50813649670454,282.7082914545026,0.2,282.7082914545026,,Y,l,go,l,1,0.3613344405021053,,,,,,,,,,,,,,,,,74,001,19,w,Psychologie,2023-01-26_08h55.27.178,00_bat_bachelor,2022.2.4,59.951079842963544,
,,,,1,0,1,0,14,0,14,0,,,,,,,,,,,,,,,14,283.7757587041415,283.97592093469575,0.2,283.97592093469575,284.77646852337057,Y,None,nogo,None,1,,,,,,,,,,,,,,,,,,74,001,19,w,Psychologie,2023-01-26_08h55.27.178,00_bat_bachelor,2022.2.4,59.951079842963544,
,,,,,,,,,,,,,,,,,,,,,,,,,,,,,,,,,,,,,,285.4038066479843,None,,285.4038066479843,285.4038066479843,space,9.540715065057157,,,,,,,,,,74,001,19,w,Psychologie,2023-01-26_08h55.27.178,00_bat_bachelor,2022.2.4,59.951079842963544,
,,,,,,,,,,,,0,0,0,0,0,0,0,0,,,,,,,0,,,1,295.96809207482147,,X,d,go,d,1,0.2693338218086865,,,,,,,,,,,,,,,,,74,001,19,w,Psychologie,2023-01-26_08h55.27.178,00_bat_bachelor,2022.2.4,59.951079842963544,
,,,,,,,,,,,,0,0,0,0,1,0,1,0,,,,,,,1,,,1,297.352821361681,,Y,l,go,l,1,0.3242880835896358,,,,,,,,,,,,,,,,,74,001,19,w,Psychologie,2023-01-26_08h55.27.178,00_bat_bachelor,2022.2.4,59.951079842963544,
,,,,,,,,,,,,0,0,0,0,2,0,2,0,,,,,,,2,,,1,298.78724138753023,,X,d,go,d,1,0.2662656961765606,,,,,,,,,,,,,,,,,74,001,19,w,Psychologie,2023-01-26_08h55.27.178,00_bat_bachelor,2022.2.4,59.951079842963544,
,,,,,,,,,,,,0,0,0,0,3,0,3,0,,,,,,,3,,,1,300.154946164781,,Y,l,go,l,1,0.3388650745037012,,,,,,,,,,,,,,,,,74,001,19,w,Psychologie,2023-01-26_08h55.27.178,00_bat_bachelor,2022.2.4,59.951079842963544,
,,,,,,,,,,,,0,0,0,0,4,0,4,0,,,,,,,4,,,1,301.60608330584364,,Y,None,nogo,None,1,,,,,,,,,,,,,,,,,,74,001,19,w,Psychologie,2023-01-26_08h55.27.178,00_bat_bachelor,2022.2.4,59.951079842963544,
,,,,,,,,,,,,0,0,0,0,5,0,5,0,,,,,,,5,,,1,303.40724228933686,,X,d,go,d,1,0.2864635437144898,,,,,,,,,,,,,,,,,74,001,19,w,Psychologie,2023-01-26_08h55.27.178,00_bat_bachelor,2022.2.4,59.951079842963544,
,,,,,,,,,,,,0,0,0,0,6,0,6,0,,,,,,,6,,,1,304.8085931761598,,Y,l,go,l,1,0.3098512140859384,,,,,,,,,,,,,,,,,74,001,19,w,Psychologie,2023-01-26_08h55.27.178,00_bat_bachelor,2022.2.4,59.951079842963544,
,,,,,,,,,,,,0,0,0,0,7,0,7,0,,,,,,,7,,,1,306.22623160181683,,X,d,go,d,1,0.3152791007887572,,,,,,,,,,,,,,,,,74,001,19,w,Psychologie,2023-01-26_08h55.27.178,00_bat_bachelor,2022.2.4,59.951079842963544,
,,,,,,,,,,,,0,0,0,0,8,0,8,0,,,,,,,8,,,1,307.6439766942931,,Y,l,go,l,1,0.41795512891258113,,,,,,,,,,,,,,,,,74,001,19,w,Psychologie,2023-01-26_08h55.27.178,00_bat_bachelor,2022.2.4,59.951079842963544,
,,,,,,,,,,,,0,0,0,0,9,0,9,0,,,,,,,9,,,1,309.1785539567063,,X,d,go,d,1,0.275625224923715,,,,,,,,,,,,,,,,,74,001,19,w,Psychologie,2023-01-26_08h55.27.178,00_bat_bachelor,2022.2.4,59.951079842963544,
,,,,,,,,,,,,0,0,0,0,10,0,10,0,,,,,,,10,,,1,310.56288760664756,,Y,l,go,l,1,0.25089694652706385,,,,,,,,,,,,,,,,,74,001,19,w,Psychologie,2023-01-26_08h55.27.178,00_bat_bachelor,2022.2.4,59.951079842963544,
,,,,,,,,,,,,0,0,0,0,11,0,11,0,,,,,,,11,,,1,311.93047068675514,,X,d,go,d,1,0.43487636564532295,,,,,,,,,,,,,,,,,74,001,19,w,Psychologie,2023-01-26_08h55.27.178,00_bat_bachelor,2022.2.4,59.951079842963544,
,,,,,,,,,,,,0,0,0,0,12,0,12,0,,,,,,,12,,,1,313.4818116099341,,Y,l,go,l,1,0.4520429360854905,,,,,,,,,,,,,,,,,74,001,19,w,Psychologie,2023-01-26_08h55.27.178,00_bat_bachelor,2022.2.4,59.951079842963544,
,,,,,,,,,,,,0,0,0,0,13,0,13,0,,,,,,,13,,,1,315.0493455263204,,X,d,go,d,1,0.29234427952906117,,,,,,,,,,,,,,,,,74,001,19,w,Psychologie,2023-01-26_08h55.27.178,00_bat_bachelor,2022.2.4,59.951079842963544,
,,,,,,,,,,,,0,0,0,0,14,0,14,0,,,,,,,14,,,1,316.45050295832334,,Y,l,go,l,1,0.5396168816369027,,,,,,,,,,,,,,,,,74,001,19,w,Psychologie,2023-01-26_08h55.27.178,00_bat_bachelor,2022.2.4,59.951079842963544,
,,,,,,,,,,,,0,0,0,0,15,0,15,0,,,,,,,15,,,1,318.1021242697607,,Y,None,nogo,None,1,,,,,,,,,,,,,,,,,,74,001,19,w,Psychologie,2023-01-26_08h55.27.178,00_bat_bachelor,2022.2.4,59.951079842963544,
,,,,,,,,,,,,0,0,0,0,16,0,16,0,,,,,,,16,,,1,319.90339525343734,,X,d,go,d,1,0.2705134598945733,,,,,,,,,,,,,,,,,74,001,19,w,Psychologie,2023-01-26_08h55.27.178,00_bat_bachelor,2022.2.4,59.951079842963544,
,,,,,,,,,,,,0,0,0,0,17,0,17,0,,,,,,,17,,,1,321.2876406608266,,Y,l,go,l,1,0.4219716195948422,,,,,,,,,,,,,,,,,74,001,19,w,Psychologie,2023-01-26_08h55.27.178,00_bat_bachelor,2022.2.4,59.951079842963544,
,,,,,,,,,,,,0,0,0,0,18,0,18,0,,,,,,,18,,,1,322.8222707718087,,Y,None,nogo,None,1,,,,,,,,,,,,,,,,,,74,001,19,w,Psychologie,2023-01-26_08h55.27.178,00_bat_bachelor,2022.2.4,59.951079842963544,
,,,,,,,,,,,,0,0,0,0,19,0,19,0,,,,,,,19,,,1,324.62365181624773,,X,d,go,d,1,0.33387694600969553,,,,,,,,,,,,,,,,,74,001,19,w,Psychologie,2023-01-26_08h55.27.178,00_bat_bachelor,2022.2.4,59.951079842963544,
,,,,,,,,,,,,0,0,0,0,20,0,20,0,,,,,,,20,,,1,326.05808978146524,,Y,l,go,l,1,0.3236926887766458,,,,,,,,,,,,,,,,,74,001,19,w,Psychologie,2023-01-26_08h55.27.178,00_bat_bachelor,2022.2.4,59.951079842963544,
,,,,,,,,,,,,0,0,0,0,21,0,21,0,,,,,,,21,,,1,327.492518049723,,X,d,go,d,1,0.3138134016771801,,,,,,,,,,,,,,,,,74,001,19,w,Psychologie,2023-01-26_08h55.27.178,00_bat_bachelor,2022.2.4,59.951079842963544,
,,,,,,,,,,,,0,0,0,0,22,0,22,0,,,,,,,22,,,1,328.90994556600344,,X,None,nogo,None,1,,,,,,,,,,,,,,,,,,74,001,19,w,Psychologie,2023-01-26_08h55.27.178,00_bat_bachelor,2022.2.4,59.951079842963544,
,,,,,,,,,,,,0,0,0,0,23,0,23,0,,,,,,,23,,,1,330.7116369139112,,Y,l,go,l,1,0.39016745213302784,,,,,,,,,,,,,,,,,74,001,19,w,Psychologie,2023-01-26_08h55.27.178,00_bat_bachelor,2022.2.4,59.951079842963544,
,,,,,,,,,,,,0,0,0,0,24,0,24,0,,,,,,,24,,,1,332.21244443024625,,X,d,go,d,1,0.2975408931670245,,,,,,,,,,,,,,,,,74,001,19,w,Psychologie,2023-01-26_08h55.27.178,00_bat_bachelor,2022.2.4,59.951079842963544,
,,,,,,,,,,,,0,0,0,0,25,0,25,0,,,,,,,25,,,1,333.6139228323882,,X,None,nogo,None,1,,,,,,,,,,,,,,,,,,74,001,19,w,Psychologie,2023-01-26_08h55.27.178,00_bat_bachelor,2022.2.4,59.951079842963544,
,,,,,,,,,,,,0,0,0,0,26,0,26,0,,,,,,,26,,,1,335.4149892097048,,Y,l,go,l,1,0.35891164909116924,,,,,,,,,,,,,,,,,74,001,19,w,Psychologie,2023-01-26_08h55.27.178,00_bat_bachelor,2022.2.4,59.951079842963544,
,,,,,,,,,,,,0,0,0,0,27,0,27,0,,,,,,,27,,,1,336.8830054056016,,X,d,go,d,1,0.28260123505606316,,,,,,,,,,,,,,,,,74,001,19,w,Psychologie,2023-01-26_08h55.27.178,00_bat_bachelor,2022.2.4,59.951079842963544,
,,,,,,,,,,,,0,0,0,0,28,0,28,0,,,,,,,28,,,1,338.26734341916745,,X,None,nogo,None,1,,,,,,,,,,,,,,,,,,74,001,19,w,Psychologie,2023-01-26_08h55.27.178,00_bat_bachelor,2022.2.4,59.951079842963544,
,,,,,,,,,,,,0,0,0,0,29,0,29,0,,,,,,,29,,,1,340.06877294852166,,Y,l,go,l,1,0.34512205328792334,,,,,,,,,,,,,,,,,74,001,19,w,Psychologie,2023-01-26_08h55.27.178,00_bat_bachelor,2022.2.4,59.951079842963544,
,,,,,,,,,,,,0,0,0,0,30,0,30,0,,,,,,,30,,,1,341.51988584711216,,X,d,go,d,1,0.33398894616402686,,,,,,,,,,,,,,,,,74,001,19,w,Psychologie,2023-01-26_08h55.27.178,00_bat_bachelor,2022.2.4,59.951079842963544,
,,,,,,,,,,,,0,0,0,0,31,0,31,0,,,,,,,31,,,1,342.9707902605587,,X,None,nogo,None,1,,,,,,,,,,,,,,,,,,74,001,19,w,Psychologie,2023-01-26_08h55.27.178,00_bat_bachelor,2022.2.4,59.951079842963544,
,,,,,,,,,,,,0,0,0,0,32,0,32,0,,,,,,,32,,,1,344.7721528807306,,Y,l,go,l,1,0.3453276293585077,,,,,,,,,,,,,,,,,74,001,19,w,Psychologie,2023-01-26_08h55.27.178,00_bat_bachelor,2022.2.4,59.951079842963544,
,,,,,,,,,,,,0,0,0,0,33,0,33,0,,,,,,,33,,,1,346.22347814324894,,X,d,go,d,1,0.3177304982964415,,,,,,,,,,,,,,,,,74,001,19,w,Psychologie,2023-01-26_08h55.27.178,00_bat_bachelor,2022.2.4,59.951079842963544,
,,,,,,,,,,,,0,0,0,0,34,0,34,0,,,,,,,34,,,1,347.65757525950903,348.4583226060495,X,None,nogo,None,1,,,,,,,,,,,,,,,,,,74,001,19,w,Psychologie,2023-01-26_08h55.27.178,00_bat_bachelor,2022.2.4,59.951079842963544,
,,,,,,,,,,,,0,0,0,0,35,0,35,0,,,,,,,35,,,1,349.4590455162106,,Y,l,go,l,1,0.4591789464466274,,,,,,,,,,,,,,,,,74,001,19,w,Psychologie,2023-01-26_08h55.27.178,00_bat_bachelor,2022.2.4,59.951079842963544,
,,,,,,,,,,,,0,0,0,0,36,0,36,0,,,,,,,36,,,1,351.02713361525093,,X,d,go,d,1,0.3782765257637948,,,,,,,,,,,,,,,,,74,001,19,w,Psychologie,2023-01-26_08h55.27.178,00_bat_bachelor,2022.2.4,59.951079842963544,
,,,,,,,,,,,,0,0,0,0,37,0,37,0,,,,,,,37,,,1,352.5116555321147,,X,None,nogo,None,1,,,,,,,,,,,,,,,,,,74,001,19,w,Psychologie,2023-01-26_08h55.27.178,00_bat_bachelor,2022.2.4,59.951079842963544,
,,,,,,,,,,,,0,0,0,0,38,0,38,0,,,,,,,38,,,1,354.31295803099056,,Y,l,go,l,1,0.45277554320637137,,,,,,,,,,,,,,,,,74,001,19,w,Psychologie,2023-01-26_08h55.27.178,00_bat_bachelor,2022.2.4,59.951079842963544,
,,,,,,,,,,,,0,0,0,0,39,0,39,0,,,,,,,39,,,1,355.88062528092996,,X,d,go,d,1,0.27668704465031624,,,,,,,,,,,,,,,,,74,001,19,w,Psychologie,2023-01-26_08h55.27.178,00_bat_bachelor,2022.2.4,59.951079842963544,
,,,,,,,,,,,,0,0,0,0,40,0,40,0,,,,,,,40,,,1,357.2652294767031,,X,None,nogo,None,1,,,,,,,,,,,,,,,,,,74,001,19,w,Psychologie,2023-01-26_08h55.27.178,00_bat_bachelor,2022.2.4,59.951079842963544,
,,,,,,,,,,,,0,0,0,0,41,0,41,0,,,,,,,41,,,1,359.0665979150799,,Y,l,go,l,1,0.38727726609795354,,,,,,,,,,,,,,,,,74,001,19,w,Psychologie,2023-01-26_08h55.27.178,00_bat_bachelor,2022.2.4,59.951079842963544,
,,,,,,,,,,,,0,0,0,0,42,0,42,0,,,,,,,42,,,1,360.5677390076453,,X,d,go,d,1,0.309937032405287,,,,,,,,,,,,,,,,,74,001,19,w,Psychologie,2023-01-26_08h55.27.178,00_bat_bachelor,2022.2.4,59.951079842963544,
,,,,,,,,,,,,0,0,0,0,43,0,43,0,,,,,,,43,,,1,361.9854293121607,362.7861179919564,X,None,nogo,None,1,,,,,,,,,,,,,,,,,,74,001,19,w,Psychologie,2023-01-26_08h55.27.178,00_bat_bachelor,2022.2.4,59.951079842963544,
,,,,,,,,,,,,0,0,0,0,44,0,44,0,,,,,,,44,,,1,363.7868307202589,,Y,l,go,l,1,0.38707847794285044,,,,,,,,,,,,,,,,,74,001,19,w,Psychologie,2023-01-26_08h55.27.178,00_bat_bachelor,2022.2.4,59.951079842963544,
,,,,,,,,,,,,0,0,0,0,45,0,45,0,,,,,,,45,,,1,365.2879810249433,,X,d,go,d,1,0.4540414844523184,,,,,,,,,,,,,,,,,74,001,19,w,Psychologie,2023-01-26_08h55.27.178,00_bat_bachelor,2022.2.4,59.951079842963544,
,,,,,,,,,,,,0,0,0,0,46,0,46,0,,,,,,,46,,,1,366.8558892449364,,Y,l,go,l,1,0.34225853395764716,,,,,,,,,,,,,,,,,74,001,19,w,Psychologie,2023-01-26_08h55.27.178,00_bat_bachelor,2022.2.4,59.951079842963544,
,,,,,,,,,,,,0,0,0,0,47,0,47,0,,,,,,,47,,,1,368.30702977994224,,X,d,go,d,1,0.37842634416301735,,,,,,,,,,,,,,,,,74,001,19,w,Psychologie,2023-01-26_08h55.27.178,00_bat_bachelor,2022.2.4,59.951079842963544,
,,,,,,,,,,,,0,0,0,0,48,0,48,0,,,,,,,48,,,1,369.79143533299793,,Y,l,go,l,1,0.3983192215964664,,,,,,,,,,,,,,,,,74,001,19,w,Psychologie,2023-01-26_08h55.27.178,00_bat_bachelor,2022.2.4,59.951079842963544,
,,,,,,,,,,,,0,0,0,0,49,0,49,0,,,,,,,49,,,1,371.2925371527963,,X,d,go,d,1,0.46488028808380477,,,,,,,,,,,,,,,,,74,001,19,w,Psychologie,2023-01-26_08h55.27.178,00_bat_bachelor,2022.2.4,59.951079842963544,
,,,,,,,,,,,,0,0,0,0,50,0,50,0,,,,,,,50,,,1,372.8604715546535,,Y,l,go,l,1,0.44944899293477647,,,,,,,,,,,,,,,,,74,001,19,w,Psychologie,2023-01-26_08h55.27.178,00_bat_bachelor,2022.2.4,59.951079842963544,
,,,,,,,,,,,,0,0,0,0,51,0,51,0,,,,,,,51,,,1,374.4116476290801,,X,d,go,d,1,0.45000753918429837,,,,,,,,,,,,,,,,,74,001,19,w,Psychologie,2023-01-26_08h55.27.178,00_bat_bachelor,2022.2.4,59.951079842963544,
,,,,,,,,,,,,0,0,0,0,52,0,52,0,,,,,,,52,,,1,375.9628503702115,,Y,l,go,l,1,0.6592868738807738,,,,,,,,,,,,,,,,,74,001,19,w,Psychologie,2023-01-26_08h55.27.178,00_bat_bachelor,2022.2.4,59.951079842963544,
,,,,,,,,,,,,0,0,0,0,53,0,53,0,,,,,,,53,,,1,377.73088106312207,,X,d,go,d,1,0.3154735252901446,,,,,,,,,,,,,,,,,74,001,19,w,Psychologie,2023-01-26_08h55.27.178,00_bat_bachelor,2022.2.4,59.951079842963544,
,,,,,,,,,,,,0,0,0,0,54,0,54,0,,,,,,,54,,,1,379.1486295495415,,Y,l,go,l,1,0.4330416963202879,,,,,,,,,,,,,,,,,74,001,19,w,Psychologie,2023-01-26_08h55.27.178,00_bat_bachelor,2022.2.4,59.951079842963544,
,,,,,,,,,,,,0,0,0,0,55,0,55,0,,,,,,,55,,,1,380.68304390262347,,X,d,go,d,1,0.37072402992635034,,,,,,,,,,,,,,,,,74,001,19,w,Psychologie,2023-01-26_08h55.27.178,00_bat_bachelor,2022.2.4,59.951079842963544,
,,,,,,,,,,,,0,0,0,0,56,0,56,0,,,,,,,56,,,1,382.16723563720006,,X,None,nogo,None,1,,,,,,,,,,,,,,,,,,74,001,19,w,Psychologie,2023-01-26_08h55.27.178,00_bat_bachelor,2022.2.4,59.951079842963544,
,,,,,,,,,,,,0,0,0,0,57,0,57,0,,,,,,,57,,,1,383.96876407580567,,Y,l,go,l,1,0.4131919704959728,,,,,,,,,,,,,,,,,74,001,19,w,Psychologie,2023-01-26_08h55.27.178,00_bat_bachelor,2022.2.4,59.951079842963544,
,,,,,,,,,,,,0,0,0,0,58,0,58,0,,,,,,,58,,,1,385.4869107688428,,X,d,go,d,1,0.30306284059770405,,,,,,,,,,,,,,,,,74,001,19,w,Psychologie,2023-01-26_08h55.27.178,00_bat_bachelor,2022.2.4,59.951079842963544,
,,,,,,,,,,,,0,0,0,0,59,0,59,0,,,,,,,59,,,1,386.904573436972,,X,None,nogo,l,0,0.5009074919798877,,,,,,,,,,,,,,,,,74,001,19,w,Psychologie,2023-01-26_08h55.27.178,00_bat_bachelor,2022.2.4,59.951079842963544,
,,,,,,,,,,,,0,0,0,0,60,0,60,0,,,,,,,60,,,1,388.5224390629446,,X,None,nogo,None,1,,,,,,,,,,,,,,,,,,74,001,19,w,Psychologie,2023-01-26_08h55.27.178,00_bat_bachelor,2022.2.4,59.951079842963544,
,,,,,,,,,,,,0,0,0,0,61,0,61,0,,,,,,,61,,,1,390.3238055619004,,Y,l,go,l,1,0.47362308867741376,,,,,,,,,,,,,,,,,74,001,19,w,Psychologie,2023-01-26_08h55.27.178,00_bat_bachelor,2022.2.4,59.951079842963544,
,,,,,,,,,,,,0,0,0,0,62,0,62,0,,,,,,,62,,,1,391.9083635030838,,X,d,go,d,1,0.32967718233703636,,,,,,,,,,,,,,,,,74,001,19,w,Psychologie,2023-01-26_08h55.27.178,00_bat_bachelor,2022.2.4,59.951079842963544,
,,,,,,,,,,,,0,0,0,0,63,0,63,0,,,,,,,63,,,1,393.34277480162564,,Y,l,go,l,1,0.3827594413596671,,,,,,,,,,,,,,,,,74,001,19,w,Psychologie,2023-01-26_08h55.27.178,00_bat_bachelor,2022.2.4,59.951079842963544,
,,,,,,,,,,,,0,0,0,0,64,0,64,0,,,,,,,64,,,1,394.82728459726786,395.6276387311227,Y,None,nogo,None,1,,,,,,,,,,,,,,,,,,74,001,19,w,Psychologie,2023-01-26_08h55.27.178,00_bat_bachelor,2022.2.4,59.951079842963544,
,,,,,,,,,,,,0,0,0,0,65,0,65,0,,,,,,,65,,,1,396.62857497492223,,X,d,go,d,1,0.4258494434179738,,,,,,,,,,,,,,,,,74,001,19,w,Psychologie,2023-01-26_08h55.27.178,00_bat_bachelor,2022.2.4,59.951079842963544,
,,,,,,,,,,,,0,0,0,0,66,0,66,0,,,,,,,66,,,1,398.16293502488406,,Y,l,go,l,1,0.3304146379523445,,,,,,,,,,,,,,,,,74,001,19,w,Psychologie,2023-01-26_08h55.27.178,00_bat_bachelor,2022.2.4,59.951079842963544,
,,,,,,,,,,,,0,0,0,0,67,0,67,0,,,,,,,67,,,1,399.59749080848997,,X,d,go,d,1,0.2724610991135705,,,,,,,,,,,,,,,,,74,001,19,w,Psychologie,2023-01-26_08h55.27.178,00_bat_bachelor,2022.2.4,59.951079842963544,
,,,,,,,,,,,,0,0,0,0,68,0,68,0,,,,,,,68,,,1,400.9817973068566,,X,None,nogo,None,1,,,,,,,,,,,,,,,,,,74,001,19,w,Psychologie,2023-01-26_08h55.27.178,00_bat_bachelor,2022.2.4,59.951079842963544,
,,,,,,,,,,,,0,0,0,0,69,0,69,0,,,,,,,69,,,1,402.78327386660385,,Y,l,go,l,1,0.4629554367857054,,,,,,,,,,,,,,,,,74,001,19,w,Psychologie,2023-01-26_08h55.27.178,00_bat_bachelor,2022.2.4,59.951079842963544,
,,,,,,,,,,,,0,0,0,0,70,0,70,0,,,,,,,70,,,1,404.3509929954016,,X,d,go,d,1,0.2872126357106026,,,,,,,,,,,,,,,,,74,001,19,w,Psychologie,2023-01-26_08h55.27.178,00_bat_bachelor,2022.2.4,59.951079842963544,
,,,,,,,,,,,,0,0,0,0,71,0,71,0,,,,,,,71,,,1,405.75225321541075,406.5528900163481,X,None,nogo,None,1,,,,,,,,,,,,,,,,,,74,001,19,w,Psychologie,2023-01-26_08h55.27.178,00_bat_bachelor,2022.2.4,59.951079842963544,
,,,,,,,,,,,,0,0,0,0,72,0,72,0,,,,,,,72,,,1,407.5536497750145,408.35416778788203,X,None,nogo,None,1,,,,,,,,,,,,,,,,,,74,001,19,w,Psychologie,2023-01-26_08h55.27.178,00_bat_bachelor,2022.2.4,59.951079842963544,
,,,,,,,,,,,,0,0,0,0,73,0,73,0,,,,,,,73,,,1,409.3546788189269,,Y,l,go,l,1,0.2746206173906103,,,,,,,,,,,,,,,,,74,001,19,w,Psychologie,2023-01-26_08h55.27.178,00_bat_bachelor,2022.2.4,59.951079842963544,
,,,,,,,,,,,,0,0,0,0,74,0,74,0,,,,,,,74,,,1,410.7391884691315,,X,d,go,d,1,0.39377909374888986,,,,,,,,,,,,,,,,,74,001,19,w,Psychologie,2023-01-26_08h55.27.178,00_bat_bachelor,2022.2.4,59.951079842963544,
,,,,,,,,,,,,0,0,0,0,75,0,75,0,,,,,,,75,,,1,412.24064568337053,,Y,l,go,l,1,0.33365343054174446,,,,,,,,,,,,,,,,,74,001,19,w,Psychologie,2023-01-26_08h55.27.178,00_bat_bachelor,2022.2.4,59.951079842963544,
,,,,,,,,,,,,0,0,0,0,76,0,76,0,,,,,,,76,,,1,413.691450702725,,Y,None,nogo,None,1,,,,,,,,,,,,,,,,,,74,001,19,w,Psychologie,2023-01-26_08h55.27.178,00_bat_bachelor,2022.2.4,59.951079842963544,
,,,,,,,,,,,,0,0,0,0,77,0,77,0,,,,,,,77,,,1,415.49281671684,,X,d,go,d,1,0.26478933039470576,,,,,,,,,,,,,,,,,74,001,19,w,Psychologie,2023-01-26_08h55.27.178,00_bat_bachelor,2022.2.4,59.951079842963544,
,,,,,,,,,,,,0,0,0,0,78,0,78,0,,,,,,,78,,,1,416.8607576156501,,Y,l,go,l,1,0.3688331180892419,,,,,,,,,,,,,,,,,74,001,19,w,Psychologie,2023-01-26_08h55.27.178,00_bat_bachelor,2022.2.4,59.951079842963544,
,,,,,,,,,,,,0,0,0,0,79,0,79,0,,,,,,,79,,,1,418.34500656244927,,X,d,go,d,1,0.29262791632208973,,,,,,,,,,,,,,,,,74,001,19,w,Psychologie,2023-01-26_08h55.27.178,00_bat_bachelor,2022.2.4,59.951079842963544,
,,,,,,,,,,,,0,0,0,0,80,0,80,0,,,,,,,80,,,1,419.74623769152095,,Y,l,go,l,1,0.3792927696777042,,,,,,,,,,,,,,,,,74,001,19,w,Psychologie,2023-01-26_08h55.27.178,00_bat_bachelor,2022.2.4,59.951079842963544,
,,,,,,,,,,,,0,0,0,0,81,0,81,0,,,,,,,81,,,1,421.23082748727757,,X,d,go,d,1,0.3189809243485797,,,,,,,,,,,,,,,,,74,001,19,w,Psychologie,2023-01-26_08h55.27.178,00_bat_bachelor,2022.2.4,59.951079842963544,
,,,,,,,,,,,,0,0,0,0,82,0,82,0,,,,,,,82,,,1,422.6656853319146,423.4667837092711,X,None,nogo,None,1,,,,,,,,,,,,,,,,,,74,001,19,w,Psychologie,2023-01-26_08h55.27.178,00_bat_bachelor,2022.2.4,59.951079842963544,
,,,,,,,,,,,,0,0,0,0,83,0,83,0,,,,,,,83,,,1,424.46720892202575,,Y,l,go,l,1,0.32981390980421565,,,,,,,,,,,,,,,,,74,001,19,w,Psychologie,2023-01-26_08h55.27.178,00_bat_bachelor,2022.2.4,59.951079842963544,
,,,,,,,,,,,,0,0,0,0,84,0,84,0,,,,,,,84,,,1,425.9182010931545,,X,d,go,d,1,0.2388925654522609,,,,,,,,,,,,,,,,,74,001,19,w,Psychologie,2023-01-26_08h55.27.178,00_bat_bachelor,2022.2.4,59.951079842963544,
,,,,,,,,,,,,0,0,0,0,85,0,85,0,,,,,,,85,,,1,427.30276068282546,428.1031225742481,X,None,nogo,None,1,,,,,,,,,,,,,,,,,,74,001,19,w,Psychologie,2023-01-26_08h55.27.178,00_bat_bachelor,2022.2.4,59.951079842963544,
,,,,,,,,,,,,0,0,0,0,86,0,86,0,,,,,,,86,,,1,429.1038285146642,,Y,l,go,l,1,0.4136753650964238,,,,,,,,,,,,,,,,,74,001,19,w,Psychologie,2023-01-26_08h55.27.178,00_bat_bachelor,2022.2.4,59.951079842963544,
,,,,,,,,,,,,0,0,0,0,87,0,87,0,,,,,,,87,,,1,430.6219819956168,,X,d,go,d,1,0.2713120065163821,,,,,,,,,,,,,,,,,74,001,19,w,Psychologie,2023-01-26_08h55.27.178,00_bat_bachelor,2022.2.4,59.951079842963544,
,,,,,,,,,,,,0,0,0,0,88,0,88,0,,,,,,,88,,,1,432.0063166152686,,Y,l,go,l,1,0.3108582458808087,,,,,,,,,,,,,,,,,74,001,19,w,Psychologie,2023-01-26_08h55.27.178,00_bat_bachelor,2022.2.4,59.951079842963544,
,,,,,,,,,,,,0,0,0,0,89,0,89,0,,,,,,,89,,,1,433.4406100954511,434.24177344259806,Y,None,nogo,None,1,,,,,,,,,,,,,,,,,,74,001,19,w,Psychologie,2023-01-26_08h55.27.178,00_bat_bachelor,2022.2.4,59.951079842963544,
,,,,,,,,,,,,0,0,0,0,90,0,90,0,,,,,,,90,,,1,435.2420958673174,,X,d,go,d,1,0.3554469168011565,,,,,,,,,,,,,,,,,74,001,19,w,Psychologie,2023-01-26_08h55.27.178,00_bat_bachelor,2022.2.4,59.951079842963544,
,,,,,,,,,,,,0,0,0,0,91,0,91,0,,,,,,,91,,,1,436.7264446930203,,Y,l,go,l,1,0.34283308024168946,,,,,,,,,,,,,,,,,74,001,19,w,Psychologie,2023-01-26_08h55.27.178,00_bat_bachelor,2022.2.4,59.951079842963544,
,,,,,,,,,,,,0,0,0,0,92,0,92,0,,,,,,,92,,,1,438.1942858583643,438.9952630234184,Y,None,nogo,None,1,,,,,,,,,,,,,,,,,,74,001,19,w,Psychologie,2023-01-26_08h55.27.178,00_bat_bachelor,2022.2.4,59.951079842963544,
,,,,,,,,,,,,0,0,0,0,93,0,93,0,,,,,,,93,,,1,439.99593017590814,,X,d,go,d,1,0.24110735653084703,,,,,,,,,,,,,,,,,74,001,19,w,Psychologie,2023-01-26_08h55.27.178,00_bat_bachelor,2022.2.4,59.951079842963544,
,,,,,,,,,,,,0,0,0,0,94,0,94,0,,,,,,,94,,,1,441.3634701044648,,Y,l,go,l,1,0.3460020545462612,,,,,,,,,,,,,,,,,74,001,19,w,Psychologie,2023-01-26_08h55.27.178,00_bat_bachelor,2022.2.4,59.951079842963544,
,,,,,,,,,,,,0,0,0,0,95,0,95,0,,,,,,,95,,,1,442.83153042162303,,X,d,go,d,1,0.3019583541317843,,,,,,,,,,,,,,,,,74,001,19,w,Psychologie,2023-01-26_08h55.27.178,00_bat_bachelor,2022.2.4,59.951079842963544,
,,,,,,,,,,,,0,0,0,0,96,0,96,0,,,,,,,96,,,1,444.2824270774727,,Y,l,go,l,1,0.3874508420994971,,,,,,,,,,,,,,,,,74,001,19,w,Psychologie,2023-01-26_08h55.27.178,00_bat_bachelor,2022.2.4,59.951079842963544,
,,,,,,,,,,,,0,0,0,0,97,0,97,0,,,,,,,97,,,1,445.78336210915586,,X,d,go,d,1,0.35821928444784135,,,,,,,,,,,,,,,,,74,001,19,w,Psychologie,2023-01-26_08h55.27.178,00_bat_bachelor,2022.2.4,59.951079842963544,
,,,,,,,,,,,,0,0,0,0,98,0,98,0,,,,,,,98,,,1,447.2681172384764,,Y,l,go,l,1,0.3448665377800353,,,,,,,,,,,,,,,,,74,001,19,w,Psychologie,2023-01-26_08h55.27.178,00_bat_bachelor,2022.2.4,59.951079842963544,
,,,,,,,,,,,,0,0,0,0,99,0,99,0,,,,,,,99,,,1,448.7525426703796,449.5526640766184,Y,None,nogo,None,1,,,,,,,,,,,,,,,,,,74,001,19,w,Psychologie,2023-01-26_08h55.27.178,00_bat_bachelor,2022.2.4,59.951079842963544,
,,,,,,,,,,,,0,0,0,0,100,0,100,0,,,,,,,100,,,1,450.55333898667595,,X,d,go,d,1,0.3721514259232208,,,,,,,,,,,,,,,,,74,001,19,w,Psychologie,2023-01-26_08h55.27.178,00_bat_bachelor,2022.2.4,59.951079842963544,
,,,,,,,,,,,,0,0,0,0,101,0,101,0,,,,,,,101,,,1,452.0547656554263,,Y,l,go,l,1,0.3591783161391504,,,,,,,,,,,,,,,,,74,001,19,w,Psychologie,2023-01-26_08h55.27.178,00_bat_bachelor,2022.2.4,59.951079842963544,
,,,,,,,,,,,,0,0,0,0,102,0,102,0,,,,,,,102,,,1,453.52265482084476,,X,d,go,d,1,0.3161164353368804,,,,,,,,,,,,,,,,,74,001,19,w,Psychologie,2023-01-26_08h55.27.178,00_bat_bachelor,2022.2.4,59.951079842963544,
,,,,,,,,,,,,0,0,0,0,103,0,103,0,,,,,,,103,,,1,454.9402651252458,,Y,l,go,l,1,0.3852767783391755,,,,,,,,,,,,,,,,,74,001,19,w,Psychologie,2023-01-26_08h55.27.178,00_bat_bachelor,2022.2.4,59.951079842963544,
,,,,,,,,,,,,0,0,0,0,104,0,104,0,,,,,,,104,,,1,456.4413659753336,,X,d,go,d,1,0.27666328704799525,,,,,,,,,,,,,,,,,74,001,19,w,Psychologie,2023-01-26_08h55.27.178,00_bat_bachelor,2022.2.4,59.951079842963544,
,,,,,,,,,,,,0,0,0,0,105,0,105,0,,,,,,,105,,,1,457.8255439886707,458.62646830518497,X,None,nogo,None,1,,,,,,,,,,,,,,,,,,74,001,19,w,Psychologie,2023-01-26_08h55.27.178,00_bat_bachelor,2022.2.4,59.951079842963544,
,,,,,,,,,,,,0,0,0,0,106,0,106,0,,,,,,,106,,,1,459.62712091219146,,Y,l,go,l,1,0.30684660366387106,,,,,,,,,,,,,,,,,74,001,19,w,Psychologie,2023-01-26_08h55.27.178,00_bat_bachelor,2022.2.4,59.951079842963544,
,,,,,,,,,,,,0,0,0,0,107,0,107,0,,,,,,,107,,,1,461.04492855022545,,X,d,go,d,1,0.2650603610672988,,,,,,,,,,,,,,,,,74,001,19,w,Psychologie,2023-01-26_08h55.27.178,00_bat_bachelor,2022.2.4,59.951079842963544,
,,,,,,,,,,,,0,0,0,0,108,0,108,0,,,,,,,108,,,1,462.4128418126202,463.21320515862317,X,None,nogo,None,1,,,,,,,,,,,,,,,,,,74,001,19,w,Psychologie,2023-01-26_08h55.27.178,00_bat_bachelor,2022.2.4,59.951079842963544,
,,,,,,,,,,,,0,0,0,0,109,0,109,0,,,,,,,109,,,1,464.21399061431293,,Y,l,go,l,1,0.34480399219319224,,,,,,,,,,,,,,,,,74,001,19,w,Psychologie,2023-01-26_08h55.27.178,00_bat_bachelor,2022.2.4,59.951079842963544,
,,,,,,,,,,,,0,0,0,0,110,0,110,0,,,,,,,110,,,1,465.665188846353,,X,d,go,d,1,0.3326851867022924,,,,,,,,,,,,,,,,,74,001,19,w,Psychologie,2023-01-26_08h55.27.178,00_bat_bachelor,2022.2.4,59.951079842963544,
,,,,,,,,,,,,0,0,0,0,111,0,111,0,,,,,,,111,,,1,467.09949978109216,,Y,l,go,l,1,0.32185268608736806,,,,,,,,,,,,,,,,,74,001,19,w,Psychologie,2023-01-26_08h55.27.178,00_bat_bachelor,2022.2.4,59.951079842963544,
,,,,,,,,,,,,0,0,0,0,112,0,112,0,,,,,,,112,,,1,468.5339765342942,,X,d,go,d,1,0.5515596868935972,,,,,,,,,,,,,,,,,74,001,19,w,Psychologie,2023-01-26_08h55.27.178,00_bat_bachelor,2022.2.4,59.951079842963544,
,,,,,,,,,,,,0,0,0,0,113,0,113,0,,,,,,,113,,,1,470.201663323649,,Y,l,go,l,1,0.402938864659518,,,,,,,,,,,,,,,,,74,001,19,w,Psychologie,2023-01-26_08h55.27.178,00_bat_bachelor,2022.2.4,59.951079842963544,
,,,,,,,,,,,,0,0,0,0,114,0,114,0,,,,,,,114,,,1,471.7358929491893,,Y,None,nogo,None,1,,,,,,,,,,,,,,,,,,74,001,19,w,Psychologie,2023-01-26_08h55.27.178,00_bat_bachelor,2022.2.4,59.951079842963544,
,,,,,,,,,,,,0,0,0,0,115,0,115,0,,,,,,,115,,,1,473.53735447858344,,X,d,go,d,1,0.41307512181811035,,,,,,,,,,,,,,,,,74,001,19,w,Psychologie,2023-01-26_08h55.27.178,00_bat_bachelor,2022.2.4,59.951079842963544,
,,,,,,,,,,,,0,0,0,0,116,0,116,0,,,,,,,116,,,1,475.0548946253257,,Y,l,go,l,1,0.3185503782588057,,,,,,,,,,,,,,,,,74,001,19,w,Psychologie,2023-01-26_08h55.27.178,00_bat_bachelor,2022.2.4,59.951079842963544,
,,,,,,,,,,,,0,0,0,0,117,0,117,0,,,,,,,117,,,1,476.48965501526254,,X,d,go,d,1,0.40472117025638,,,,,,,,,,,,,,,,,74,001,19,w,Psychologie,2023-01-26_08h55.27.178,00_bat_bachelor,2022.2.4,59.951079842963544,
,,,,,,,,,,,,0,0,0,0,118,0,118,0,,,,,,,118,,,1,478.00738522288157,,X,None,nogo,None,1,,,,,,,,,,,,,,,,,,74,001,19,w,Psychologie,2023-01-26_08h55.27.178,00_bat_bachelor,2022.2.4,59.951079842963544,
,,,,,,,,,,,,0,0,0,0,119,0,119,0,,,,,,,119,,,1,479.80880602495745,,Y,l,go,l,1,0.3970930379582569,,,,,,,,,,,,,,,,,74,001,19,w,Psychologie,2023-01-26_08h55.27.178,00_bat_bachelor,2022.2.4,59.951079842963544,
,,,,,,,,,,,,0,0,0,0,120,0,120,0,,,,,,,120,,,1,481.3099960872787,,X,d,go,d,1,0.2727709177415818,,,,,,,,,,,,,,,,,74,001,19,w,Psychologie,2023-01-26_08h55.27.178,00_bat_bachelor,2022.2.4,59.951079842963544,
,,,,,,,,,,,,0,0,0,0,121,0,121,0,,,,,,,121,,,1,482.69404319135356,,Y,l,go,l,1,0.42313962129992433,,,,,,,,,,,,,,,,,74,001,19,w,Psychologie,2023-01-26_08h55.27.178,00_bat_bachelor,2022.2.4,59.951079842963544,
,,,,,,,,,,,,0,0,0,0,122,0,122,0,,,,,,,122,,,1,484.22850893845316,,X,d,go,d,1,0.3137077045685146,,,,,,,,,,,,,,,,,74,001,19,w,Psychologie,2023-01-26_08h55.27.178,00_bat_bachelor,2022.2.4,59.951079842963544,
,,,,,,,,,,,,0,0,0,0,123,0,123,0,,,,,,,123,,,1,485.646636092104,,Y,l,go,l,1,0.3669722668710165,,,,,,,,,,,,,,,,,74,001,19,w,Psychologie,2023-01-26_08h55.27.178,00_bat_bachelor,2022.2.4,59.951079842963544,
,,,,,,,,,,,,0,0,0,0,124,0,124,0,,,,,,,124,,,1,487.11428428746876,487.91463599706185,Y,None,nogo,None,1,,,,,,,,,,,,,,,,,,74,001,19,w,Psychologie,2023-01-26_08h55.27.178,00_bat_bachelor,2022.2.4,59.951079842963544,
,,,,,,,,,,,,0,0,0,0,125,0,125,0,,,,,,,125,,,1,488.9158515139716,,X,d,go,d,1,0.3459909030352719,,,,,,,,,,,,,,,,,74,001,19,w,Psychologie,2023-01-26_08h55.27.178,00_bat_bachelor,2022.2.4,59.951079842963544,
,,,,,,,,,,,,0,0,0,0,126,0,126,0,,,,,,,126,,,1,490.366583321098,,Y,l,go,l,1,0.3191098942188546,,,,,,,,,,,,,,,,,74,001,19,w,Psychologie,2023-01-26_08h55.27.178,00_bat_bachelor,2022.2.4,59.951079842963544,
,,,,,,,,,,,,0,0,0,0,127,0,127,0,,,,,,,127,,,1,491.8010014075262,,Y,None,nogo,None,1,,,,,,,,,,,,,,,,,,74,001,19,w,Psychologie,2023-01-26_08h55.27.178,00_bat_bachelor,2022.2.4,59.951079842963544,
,,,,,,,,,,,,0,0,0,0,128,0,128,0,,,,,,,128,,,1,493.6025448764558,,X,d,go,d,1,0.21969156782142818,,,,,,,,,,,,,,,,,74,001,19,w,Psychologie,2023-01-26_08h55.27.178,00_bat_bachelor,2022.2.4,59.951079842963544,
,,,,,,,,,,,,0,0,0,0,129,0,129,0,,,,,,,129,,,1,494.93705590846366,,Y,l,go,l,1,0.40429013935499825,,,,,,,,,,,,,,,,,74,001,19,w,Psychologie,2023-01-26_08h55.27.178,00_bat_bachelor,2022.2.4,59.951079842963544,
,,,,,,,,,,,,0,0,0,0,130,0,130,0,,,,,,,130,,,1,496.4545087823353,,X,d,go,d,1,0.3587642549246084,,,,,,,,,,,,,,,,,74,001,19,w,Psychologie,2023-01-26_08h55.27.178,00_bat_bachelor,2022.2.4,59.951079842963544,
,,,,,,,,,,,,0,0,0,0,131,0,131,0,,,,,,,131,,,1,497.9226747966313,498.7232810520509,X,None,nogo,None,1,,,,,,,,,,,,,,,,,,74,001,19,w,Psychologie,2023-01-26_08h55.27.178,00_bat_bachelor,2022.2.4,59.951079842963544,
,,,,,,,,,,,,0,0,0,0,132,0,132,0,,,,,,,132,,,1,499.72407426533755,,Y,l,go,l,1,0.37037202939973213,,,,,,,,,,,,,,,,,74,001,19,w,Psychologie,2023-01-26_08h55.27.178,00_bat_bachelor,2022.2.4,59.951079842963544,
,,,,,,,,,,,,0,0,0,0,133,0,133,0,,,,,,,133,,,1,501.2084633335471,,X,d,go,d,1,0.30979933525668457,,,,,,,,,,,,,,,,,74,001,19,w,Psychologie,2023-01-26_08h55.27.178,00_bat_bachelor,2022.2.4,59.951079842963544,
,,,,,,,,,,,,0,0,0,0,134,0,134,0,,,,,,,134,,,1,502.62603145604953,,Y,l,go,l,1,0.44426498538814485,,,,,,,,,,,,,,,,,74,001,19,w,Psychologie,2023-01-26_08h55.27.178,00_bat_bachelor,2022.2.4,59.951079842963544,
,,,,,,,,,,,,0,0,0,0,135,0,135,0,,,,,,,135,,,1,504.17746643995633,,X,d,go,d,1,0.34827308816602454,,,,,,,,,,,,,,,,,74,001,19,w,Psychologie,2023-01-26_08h55.27.178,00_bat_bachelor,2022.2.4,59.951079842963544,
,,,,,,,,,,,,0,0,0,0,136,0,136,0,,,,,,,136,,,1,505.6284586111142,,Y,l,go,l,1,0.3695531191187911,,,,,,,,,,,,,,,,,74,001,19,w,Psychologie,2023-01-26_08h55.27.178,00_bat_bachelor,2022.2.4,59.951079842963544,
,,,,,,,,,,,,0,0,0,0,137,0,137,0,,,,,,,137,,,1,507.11338634675485,,Y,None,nogo,d,0,0.3728830633626785,,,,,,,,,,,,,,,,,74,001,19,w,Psychologie,2023-01-26_08h55.27.178,00_bat_bachelor,2022.2.4,59.951079842963544,
,,,,,,,,,,,,0,0,0,0,138,0,138,0,,,,,,,138,,,1,508.597430687194,,X,d,go,d,1,0.39246563729830086,,,,,,,,,,,,,,,,,74,001,19,w,Psychologie,2023-01-26_08h55.27.178,00_bat_bachelor,2022.2.4,59.951079842963544,
,,,,,,,,,,,,0,0,0,0,139,0,139,0,,,,,,,139,,,1,510.09866729503847,,Y,l,go,l,1,0.3478939360938966,,,,,,,,,,,,,,,,,74,001,19,w,Psychologie,2023-01-26_08h55.27.178,00_bat_bachelor,2022.2.4,59.951079842963544,
,,,,,,,,,,,,0,0,0,0,140,0,140,0,,,,,,,140,,,1,511.54974916329957,,Y,None,nogo,None,1,,,,,,,,,,,,,,,,,,74,001,19,w,Psychologie,2023-01-26_08h55.27.178,00_bat_bachelor,2022.2.4,59.951079842963544,
,,,,,,,,,,,,0,0,0,0,141,0,141,0,,,,,,,141,,,1,513.3510763894592,,X,d,go,d,1,0.3910910898412112,,,,,,,,,,,,,,,,,74,001,19,w,Psychologie,2023-01-26_08h55.27.178,00_bat_bachelor,2022.2.4,59.951079842963544,
,,,,,,,,,,,,0,0,0,0,142,0,142,0,,,,,,,142,,,1,514.8522194214165,,Y,l,go,l,1,0.34609466075198725,,,,,,,,,,,,,,,,,74,001,19,w,Psychologie,2023-01-26_08h55.27.178,00_bat_bachelor,2022.2.4,59.951079842963544,
,,,,,,,,,,,,0,0,0,0,143,0,143,0,,,,,,,143,,,1,516.3031378954765,,Y,None,nogo,None,1,,,,,,,,,,,,,,,,,,74,001,19,w,Psychologie,2023-01-26_08h55.27.178,00_bat_bachelor,2022.2.4,59.951079842963544,
,,,,,,,,,,,,0,0,0,0,144,0,144,0,,,,,,,144,,,1,518.1043725154595,,X,d,go,d,1,0.3412519870616961,,,,,,,,,,,,,,,,,74,001,19,w,Psychologie,2023-01-26_08h55.27.178,00_bat_bachelor,2022.2.4,59.951079842963544,
,,,,,,,,,,,,0,0,0,0,145,0,145,0,,,,,,,145,,,1,519.5558577782358,,Y,l,go,l,1,0.34630217621452175,,,,,,,,,,,,,,,,,74,001,19,w,Psychologie,2023-01-26_08h55.27.178,00_bat_bachelor,2022.2.4,59.951079842963544,
,,,,,,,,,,,,0,0,0,0,146,0,146,0,,,,,,,146,,,1,521.0069653434912,,X,d,go,d,1,0.3195283190871123,,,,,,,,,,,,,,,,,74,001,19,w,Psychologie,2023-01-26_08h55.27.178,00_bat_bachelor,2022.2.4,59.951079842963544,
,,,,,,,,,,,,0,0,0,0,147,0,147,0,,,,,,,147,,,1,522.4411759144568,523.2416410787555,X,None,nogo,None,1,,,,,,,,,,,,,,,,,,74,001,19,w,Psychologie,2023-01-26_08h55.27.178,00_bat_bachelor,2022.2.4,59.951079842963544,
,,,,,,,,,,,,0,0,0,0,148,0,148,0,,,,,,,148,,,1,524.2424435041612,,Y,l,go,l,1,0.39474588303710334,,,,,,,,,,,,,,,,,74,001,19,w,Psychologie,2023-01-26_08h55.27.178,00_bat_bachelor,2022.2.4,59.951079842963544,
,,,,,,,,,,,,0,0,0,0,149,0,149,0,,,,,,,149,,,1,525.7435579300509,,X,d,go,d,1,0.3016470809816383,,,,,,,,,,,,,,,,,74,001,19,w,Psychologie,2023-01-26_08h55.27.178,00_bat_bachelor,2022.2.4,59.951079842963544,
,,,,,,,,,,,,0,0,0,0,150,0,150,0,,,,,,,150,,,1,527.1616753866838,,Y,l,go,l,1,0.3881189642997924,,,,,,,,,,,,,,,,,74,001,19,w,Psychologie,2023-01-26_08h55.27.178,00_bat_bachelor,2022.2.4,59.951079842963544,
,,,,,,,,,,,,0,0,0,0,151,0,151,0,,,,,,,151,,,1,528.6628135701758,,X,d,go,d,1,0.32674820837564766,,,,,,,,,,,,,,,,,74,001,19,w,Psychologie,2023-01-26_08h55.27.178,00_bat_bachelor,2022.2.4,59.951079842963544,
,,,,,,,,,,,,0,0,0,0,152,0,152,0,,,,,,,152,,,1,530.0972161414102,,Y,l,go,l,1,0.36501929434598424,,,,,,,,,,,,,,,,,74,001,19,w,Psychologie,2023-01-26_08h55.27.178,00_bat_bachelor,2022.2.4,59.951079842963544,
,,,,,,,,,,,,0,0,0,0,153,0,153,0,,,,,,,153,,,1,531.5647077304893,532.3656514409522,Y,None,nogo,None,1,,,,,,,,,,,,,,,,,,74,001,19,w,Psychologie,2023-01-26_08h55.27.178,00_bat_bachelor,2022.2.4,59.951079842963544,
,,,,,,,,,,,,0,0,0,0,154,0,154,0,,,,,,,154,,,1,533.3664189572155,,X,d,go,d,1,0.31206164153991267,,,,,,,,,,,,,,,,,74,001,19,w,Psychologie,2023-01-26_08h55.27.178,00_bat_bachelor,2022.2.4,59.951079842963544,
,,,,,,,,,,,,0,0,0,0,155,0,155,0,,,,,,,155,,,1,534.7842018679366,,Y,l,go,l,1,0.4137999713420868,,,,,,,,,,,,,,,,,74,001,19,w,Psychologie,2023-01-26_08h55.27.178,00_bat_bachelor,2022.2.4,59.951079842963544,
,,,,,,,,,,,,0,0,0,0,156,0,156,0,,,,,,,156,,,1,536.302057166642,,Y,None,nogo,None,1,,,,,,,,,,,,,,,,,,74,001,19,w,Psychologie,2023-01-26_08h55.27.178,00_bat_bachelor,2022.2.4,59.951079842963544,
,,,,,,,,,,,,0,0,0,0,157,0,157,0,,,,,,,157,,,1,538.1033843928017,,X,d,go,d,1,0.2626530848501716,,,,,,,,,,,,,,,,,74,001,19,w,Psychologie,2023-01-26_08h55.27.178,00_bat_bachelor,2022.2.4,59.951079842963544,
,,,,,,,,,,,,0,0,0,0,158,0,158,0,,,,,,,158,,,1,539.4710343821207,,Y,l,go,l,1,0.6391234506154433,,,,,,,,,,,,,,,,,74,001,19,w,Psychologie,2023-01-26_08h55.27.178,00_bat_bachelor,2022.2.4,59.951079842963544,
,,,,,,,,,,,,0,0,0,0,159,0,159,0,,,,,,,159,,,1,541.2224129295791,,Y,None,nogo,None,1,,,,,,,,,,,,,,,,,,74,001,19,w,Psychologie,2023-01-26_08h55.27.178,00_bat_bachelor,2022.2.4,59.951079842963544,
,,,,,,,,,,,,0,0,0,0,160,0,160,0,,,,,,,160,,,1,543.0245348235767,,X,d,go,d,1,0.26920630648965016,,,,,,,,,,,,,,,,,74,001,19,w,Psychologie,2023-01-26_08h55.27.178,00_bat_bachelor,2022.2.4,59.951079842963544,
,,,,,,,,,,,,0,0,0,0,161,0,161,0,,,,,,,161,,,1,544.4424379768898,,Y,l,go,l,1,0.3400136822310742,,,,,,,,,,,,,,,,,74,001,19,w,Psychologie,2023-01-26_08h55.27.178,00_bat_bachelor,2022.2.4,59.951079842963544,
,,,,,,,,,,,,0,0,0,0,162,0,162,0,,,,,,,162,,,1,545.8931969355617,,X,d,go,d,1,0.2809231720166281,,,,,,,,,,,,,,,,,74,001,19,w,Psychologie,2023-01-26_08h55.27.178,00_bat_bachelor,2022.2.4,59.951079842963544,
,,,,,,,,,,,,0,0,0,0,163,0,163,0,,,,,,,163,,,1,547.2774864642415,,Y,l,go,l,1,0.30462890345370397,,,,,,,,,,,,,,,,,74,001,19,w,Psychologie,2023-01-26_08h55.27.178,00_bat_bachelor,2022.2.4,59.951079842963544,
,,,,,,,,,,,,0,0,0,0,164,0,164,0,,,,,,,164,,,1,548.6952470718825,,X,d,go,d,1,0.34287235303781927,,,,,,,,,,,,,,,,,74,001,19,w,Psychologie,2023-01-26_08h55.27.178,00_bat_bachelor,2022.2.4,59.951079842963544,
,,,,,,,,,,,,0,0,0,0,165,0,165,0,,,,,,,165,,,1,550.1628070246952,550.9635587348894,X,None,nogo,None,1,,,,,,,,,,,,,,,,,,74,001,19,w,Psychologie,2023-01-26_08h55.27.178,00_bat_bachelor,2022.2.4,59.951079842963544,
,,,,,,,,,,,,0,0,0,0,166,0,166,0,,,,,,,166,,,1,551.9641517054406,,Y,l,go,l,1,0.25800919931498356,,,,,,,,,,,,,,,,,74,001,19,w,Psychologie,2023-01-26_08h55.27.178,00_bat_bachelor,2022.2.4,59.951079842963544,
,,,,,,,,,,,,0,0,0,0,167,0,167,0,,,,,,,167,,,1,553.3322603620763,,X,d,go,d,1,0.3306653049949091,,,,,,,,,,,,,,,,,74,001,19,w,Psychologie,2023-01-26_08h55.27.178,00_bat_bachelor,2022.2.4,59.951079842963544,
,,,,,,,,,,,,0,0,0,0,168,0,168,0,,,,,,,168,,,1,554.7664486299909,,Y,l,go,l,1,0.3998178904002998,,,,,,,,,,,,,,,,,74,001,19,w,Psychologie,2023-01-26_08h55.27.178,00_bat_bachelor,2022.2.4,59.951079842963544,
,,,,,,,,,,,,0,0,0,0,169,0,169,0,,,,,,,169,,,1,556.2676561468979,,X,d,go,d,1,0.29017457939335145,,,,,,,,,,,,,,,,,74,001,19,w,Psychologie,2023-01-26_08h55.27.178,00_bat_bachelor,2022.2.4,59.951079842963544,
,,,,,,,,,,,,0,0,0,0,170,0,170,0,,,,,,,170,,,1,557.6854162696982,,Y,l,go,l,1,0.36050292415893637,,,,,,,,,,,,,,,,,74,001,19,w,Psychologie,2023-01-26_08h55.27.178,00_bat_bachelor,2022.2.4,59.951079842963544,
,,,,,,,,,,,,0,0,0,0,171,0,171,0,,,,,,,171,,,1,559.1531279803312,,X,d,go,d,1,0.28467057141824625,,,,,,,,,,,,,,,,,74,001,19,w,Psychologie,2023-01-26_08h55.27.178,00_bat_bachelor,2022.2.4,59.951079842963544,
,,,,,,,,,,,,0,0,0,0,172,0,172,0,,,,,,,172,,,1,560.554482745938,561.3546778492455,X,None,nogo,None,1,,,,,,,,,,,,,,,,,,74,001,19,w,Psychologie,2023-01-26_08h55.27.178,00_bat_bachelor,2022.2.4,59.951079842963544,
,,,,,,,,,,,,0,0,0,0,173,0,173,0,,,,,,,173,,,1,562.355704274989,,Y,l,go,l,1,0.31410479606711306,,,,,,,,,,,,,,,,,74,001,19,w,Psychologie,2023-01-26_08h55.27.178,00_bat_bachelor,2022.2.4,59.951079842963544,
,,,,,,,,,,,,0,0,0,0,174,0,174,0,,,,,,,174,,,1,563.7897824821121,,X,d,go,d,1,0.2563582878210582,,,,,,,,,,,,,,,,,74,001,19,w,Psychologie,2023-01-26_08h55.27.178,00_bat_bachelor,2022.2.4,59.951079842963544,
,,,,,,,,,,,,0,0,0,0,175,0,175,0,,,,,,,175,,,1,565.1574882290734,,Y,l,go,l,1,0.281457960663829,,,,,,,,,,,,,,,,,74,001,19,w,Psychologie,2023-01-26_08h55.27.178,00_bat_bachelor,2022.2.4,59.951079842963544,
,,,,,,,,,,,,0,0,0,0,176,0,176,0,,,,,,,176,,,1,566.5417675759236,,X,d,go,d,1,0.36870657245162874,,,,,,,,,,,,,,,,,74,001,19,w,Psychologie,2023-01-26_08h55.27.178,00_bat_bachelor,2022.2.4,59.951079842963544,
,,,,,,,,,,,,0,0,0,0,177,0,177,0,,,,,,,177,,,1,568.0259593105002,,Y,l,go,l,1,0.2913983387697954,,,,,,,,,,,,,,,,,74,001,19,w,Psychologie,2023-01-26_08h55.27.178,00_bat_bachelor,2022.2.4,59.951079842963544,
,,,,,,,,,,,,0,0,0,0,178,0,178,0,,,,,,,178,,,1,569.4272030456341,,X,d,go,d,1,0.3631642613618169,,,,,,,,,,,,,,,,,74,001,19,w,Psychologie,2023-01-26_08h55.27.178,00_bat_bachelor,2022.2.4,59.951079842963544,
,,,,,,,,,,,,0,0,0,0,179,0,179,0,,,,,,,179,,,1,570.8947314832476,,Y,l,go,l,1,0.38284283541725017,,,,,,,,,,,,,,,,,74,001,19,w,Psychologie,2023-01-26_08h55.27.178,00_bat_bachelor,2022.2.4,59.951079842963544,
,,,,,,,,,,,,0,0,0,0,180,0,180,0,,,,,,,180,,,1,572.379458976211,,X,d,go,d,1,0.3070793312799651,,,,,,,,,,,,,,,,,74,001,19,w,Psychologie,2023-01-26_08h55.27.178,00_bat_bachelor,2022.2.4,59.951079842963544,
,,,,,,,,,,,,0,0,0,0,181,0,181,0,,,,,,,181,,,1,573.7972496445,574.5978088695556,X,None,nogo,None,1,,,,,,,,,,,,,,,,,,74,001,19,w,Psychologie,2023-01-26_08h55.27.178,00_bat_bachelor,2022.2.4,59.951079842963544,
,,,,,,,,,,,,0,0,0,0,182,0,182,0,,,,,,,182,,,1,575.598626810126,,Y,l,go,l,1,0.25534252874786034,,,,,,,,,,,,,,,,,74,001,19,w,Psychologie,2023-01-26_08h55.27.178,00_bat_bachelor,2022.2.4,59.951079842963544,
,,,,,,,,,,,,0,0,0,0,183,0,183,0,,,,,,,183,,,1,576.9663829814235,,X,d,go,d,1,0.27922038166434504,,,,,,,,,,,,,,,,,74,001,19,w,Psychologie,2023-01-26_08h55.27.178,00_bat_bachelor,2022.2.4,59.951079842963544,
,,,,,,,,,,,,0,0,0,0,184,0,184,0,,,,,,,184,,,1,578.350631782756,,Y,l,go,l,1,0.33590652473503724,,,,,,,,,,,,,,,,,74,001,19,w,Psychologie,2023-01-26_08h55.27.178,00_bat_bachelor,2022.2.4,59.951079842963544,
,,,,,,,,,,,,0,0,0,0,185,0,185,0,,,,,,,185,,,1,579.8018920754839,,X,d,go,d,1,0.30793896890827455,,,,,,,,,,,,,,,,,74,001,19,w,Psychologie,2023-01-26_08h55.27.178,00_bat_bachelor,2022.2.4,59.951079842963544,
,,,,,,,,,,,,0,0,0,0,186,0,186,0,,,,,,,186,,,1,581.219633774017,,Y,l,go,l,1,0.31397146251401864,,,,,,,,,,,,,,,,,74,001,19,w,Psychologie,2023-01-26_08h55.27.178,00_bat_bachelor,2022.2.4,59.951079842963544,
,,,,,,,,,,,,0,0,0,0,187,0,187,0,,,,,,,187,,,1,582.6371509873716,,X,d,go,d,1,0.27238497778307647,,,,,,,,,,,,,,,,,74,001,19,w,Psychologie,2023-01-26_08h55.27.178,00_bat_bachelor,2022.2.4,59.951079842963544,
,,,,,,,,,,,,0,0,0,0,188,0,188,0,,,,,,,188,,,1,584.0218153044698,,X,None,nogo,None,1,,,,,,,,,,,,,,,,,,74,001,19,w,Psychologie,2023-01-26_08h55.27.178,00_bat_bachelor,2022.2.4,59.951079842963544,
,,,,,,,,,,,,0,0,0,0,189,0,189,0,,,,,,,189,,,1,585.8231987731415,,Y,l,go,l,1,0.255676589848008,,,,,,,,,,,,,,,,,74,001,19,w,Psychologie,2023-01-26_08h55.27.178,00_bat_bachelor,2022.2.4,59.951079842963544,
,,,,,,,,,,,,0,0,0,0,190,0,190,0,,,,,,,190,,,1,587.190759550198,,X,d,go,d,1,0.24738130506011657,,,,,,,,,,,,,,,,,74,001,19,w,Psychologie,2023-01-26_08h55.27.178,00_bat_bachelor,2022.2.4,59.951079842963544,
,,,,,,,,,,,,0,0,0,0,191,0,191,0,,,,,,,191,,,1,588.5425176376011,,Y,l,go,l,1,0.2548523462319281,,,,,,,,,,,,,,,,,74,001,19,w,Psychologie,2023-01-26_08h55.27.178,00_bat_bachelor,2022.2.4,59.951079842963544,
,,,,,,,,,,,,0,0,0,0,192,0,192,0,,,,,,,192,,,1,589.9436406453024,,X,d,go,d,1,0.35769128368701786,,,,,,,,,,,,,,,,,74,001,19,w,Psychologie,2023-01-26_08h55.27.178,00_bat_bachelor,2022.2.4,59.951079842963544,
,,,,,,,,,,,,0,0,0,0,193,0,193,0,,,,,,,193,,,1,591.4281266833423,592.2289050602412,X,None,nogo,None,1,,,,,,,,,,,,,,,,,,74,001,19,w,Psychologie,2023-01-26_08h55.27.178,00_bat_bachelor,2022.2.4,59.951079842963544,
,,,,,,,,,,,,0,0,0,0,194,0,194,0,,,,,,,194,,,1,593.2293293032853,,Y,l,go,l,1,0.25743174392846413,,,,,,,,,,,,,,,,,74,001,19,w,Psychologie,2023-01-26_08h55.27.178,00_bat_bachelor,2022.2.4,59.951079842963544,
,,,,,,,,,,,,0,0,0,0,195,0,195,0,,,,,,,195,,,1,594.5970161411387,,X,d,go,d,1,0.2331049206550233,,,,,,,,,,,,,,,,,74,001,19,w,Psychologie,2023-01-26_08h55.27.178,00_bat_bachelor,2022.2.4,59.951079842963544,
,,,,,,,,,,,,0,0,0,0,196,0,196,0,,,,,,,196,,,1,595.9479213788,,Y,l,go,l,1,0.27416776824975386,,,,,,,,,,,,,,,,,74,001,19,w,Psychologie,2023-01-26_08h55.27.178,00_bat_bachelor,2022.2.4,59.951079842963544,
,,,,,,,,,,,,0,0,0,0,197,0,197,0,,,,,,,197,,,1,597.3489799015515,,X,d,go,d,1,0.24930130783468485,,,,,,,,,,,,,,,,,74,001,19,w,Psychologie,2023-01-26_08h55.27.178,00_bat_bachelor,2022.2.4,59.951079842963544,
,,,,,,,,,,,,0,0,0,0,198,0,198,0,,,,,,,198,,,1,598.7001905942161,,Y,l,go,l,1,0.3535070351790637,,,,,,,,,,,,,,,,,74,001,19,w,Psychologie,2023-01-26_08h55.27.178,00_bat_bachelor,2022.2.4,59.951079842963544,
,,,,,,,,,,,,0,0,0,0,199,0,199,0,,,,,,,199,,,1,600.1847585717915,,X,d,go,d,1,0.2294569153455086,,,,,,,,,,,,,,,,,74,001,19,w,Psychologie,2023-01-26_08h55.27.178,00_bat_bachelor,2022.2.4,59.951079842963544,
,,,,,,,,,,,,0,0,0,0,200,0,200,0,,,,,,,200,,,1,601.5355270819855,,Y,l,go,l,1,0.3982935245439876,,,,,,,,,,,,,,,,,74,001,19,w,Psychologie,2023-01-26_08h55.27.178,00_bat_bachelor,2022.2.4,59.951079842963544,
,,,,,,,,,,,,0,0,0,0,201,0,201,0,,,,,,,201,,,1,603.0362167799613,,Y,None,nogo,None,1,,,,,,,,,,,,,,,,,,74,001,19,w,Psychologie,2023-01-26_08h55.27.178,00_bat_bachelor,2022.2.4,59.951079842963544,
,,,,,,,,,,,,0,0,0,0,202,0,202,0,,,,,,,202,,,1,604.8373350361362,,X,d,go,d,1,0.39227460671099834,,,,,,,,,,,,,,,,,74,001,19,w,Psychologie,2023-01-26_08h55.27.178,00_bat_bachelor,2022.2.4,59.951079842963544,
,,,,,,,,,,,,0,0,0,0,203,0,203,0,,,,,,,203,,,1,606.3387258260336,,Y,l,go,l,1,0.33207039794069715,,,,,,,,,,,,,,,,,74,001,19,w,Psychologie,2023-01-26_08h55.27.178,00_bat_bachelor,2022.2.4,59.951079842963544,
,,,,,,,,,,,,0,0,0,0,204,0,204,0,,,,,,,204,,,1,607.773254458094,,X,d,go,d,1,0.28900900195003487,,,,,,,,,,,,,,,,,74,001,19,w,Psychologie,2023-01-26_08h55.27.178,00_bat_bachelor,2022.2.4,59.951079842963544,
,,,,,,,,,,,,0,0,0,0,205,0,205,0,,,,,,,205,,,1,609.1741001320479,,X,None,nogo,None,1,,,,,,,,,,,,,,,,,,74,001,19,w,Psychologie,2023-01-26_08h55.27.178,00_bat_bachelor,2022.2.4,59.951079842963544,
,,,,,,,,,,,,0,0,0,0,206,0,206,0,,,,,,,206,,,1,610.9753492974851,,Y,l,go,l,1,0.27075200571562164,,,,,,,,,,,,,,,,,74,001,19,w,Psychologie,2023-01-26_08h55.27.178,00_bat_bachelor,2022.2.4,59.951079842963544,
,,,,,,,,,,,,0,0,0,0,207,0,207,0,,,,,,,207,,,1,612.3600717964873,,X,d,go,d,1,0.24622784880921245,,,,,,,,,,,,,,,,,74,001,19,w,Psychologie,2023-01-26_08h55.27.178,00_bat_bachelor,2022.2.4,59.951079842963544,
,,,,,,,,,,,,0,0,0,0,208,0,208,0,,,,,,,208,,,1,613.7111074585991,,Y,l,go,l,1,0.3031147194560617,,,,,,,,,,,,,,,,,74,001,19,w,Psychologie,2023-01-26_08h55.27.178,00_bat_bachelor,2022.2.4,59.951079842963544,
,,,,,,,,,,,,0,0,0,0,209,0,209,0,,,,,,,209,,,1,615.1288816420129,,X,d,go,d,1,0.3252859032363631,,,,,,,,,,,,,,,,,74,001,19,w,Psychologie,2023-01-26_08h55.27.178,00_bat_bachelor,2022.2.4,59.951079842963544,
,,,,,,,,,,,,0,0,0,0,210,0,210,0,,,,,,,210,,,1,616.5631067584618,617.3638007715927,X,None,nogo,None,1,,,,,,,,,,,,,,,,,,74,001,19,w,Psychologie,2023-01-26_08h55.27.178,00_bat_bachelor,2022.2.4,59.951079842963544,
,,,,,,,,,,,,0,0,0,0,211,0,211,0,,,,,,,211,,,1,618.3646744698344,,X,None,nogo,l,0,0.24163535729167052,,,,,,,,,,,,,,,,,74,001,19,w,Psychologie,2023-01-26_08h55.27.178,00_bat_bachelor,2022.2.4,59.951079842963544,
,,,,,,,,,,,,0,0,0,0,212,0,212,0,,,,,,,212,,,1,619.716206617537,,Y,l,go,l,1,0.3784622229868546,,,,,,,,,,,,,,,,,74,001,19,w,Psychologie,2023-01-26_08h55.27.178,00_bat_bachelor,2022.2.4,59.951079842963544,
,,,,,,,,,,,,0,0,0,0,213,0,213,0,,,,,,,213,,,1,621.2004676855286,,X,d,go,d,1,0.28576972451992333,,,,,,,,,,,,,,,,,74,001,19,w,Psychologie,2023-01-26_08h55.27.178,00_bat_bachelor,2022.2.4,59.951079842963544,
,,,,,,,,,,,,0,0,0,0,214,0,214,0,,,,,,,214,,,1,622.6015514204628,623.4017460389296,X,None,nogo,None,1,,,,,,,,,,,,,,,,,,74,001,19,w,Psychologie,2023-01-26_08h55.27.178,00_bat_bachelor,2022.2.4,59.951079842963544,
,,,,,,,,,,,,0,0,0,0,215,0,215,0,,,,,,,215,,,1,624.4025329491415,,Y,l,go,l,1,0.3794590729230549,,,,,,,,,,,,,,,,,74,001,19,w,Psychologie,2023-01-26_08h55.27.178,00_bat_bachelor,2022.2.4,59.951079842963544,
,,,,,,,,,,,,0,0,0,0,216,0,216,0,,,,,,,216,,,1,625.8870805630286,,X,d,go,d,1,0.5589963037637062,,,,,,,,,,,,,,,,,74,001,19,w,Psychologie,2023-01-26_08h55.27.178,00_bat_bachelor,2022.2.4,59.951079842963544,
,,,,,,,,,,,,0,0,0,0,217,0,217,0,,,,,,,217,,,1,627.5550519588869,,Y,l,go,l,1,0.37960161856608465,,,,,,,,,,,,,,,,,74,001,19,w,Psychologie,2023-01-26_08h55.27.178,00_bat_bachelor,2022.2.4,59.951079842963544,
,,,,,,,,,,,,0,0,0,0,218,0,218,0,,,,,,,218,,,1,629.0395297544892,,Y,None,nogo,None,1,,,,,,,,,,,,,,,,,,74,001,19,w,Psychologie,2023-01-26_08h55.27.178,00_bat_bachelor,2022.2.4,59.951079842963544,
,,,,,,,,,,,,0,0,0,0,219,0,219,0,,,,,,,219,,,1,630.8408385563816,,X,d,go,d,1,0.3729460937320255,,,,,,,,,,,,,,,,,74,001,19,w,Psychologie,2023-01-26_08h55.27.178,00_bat_bachelor,2022.2.4,59.951079842963544,
,,,,,,,,,,,,0,0,0,0,220,0,220,0,,,,,,,220,,,1,632.3252368367102,,Y,l,go,l,1,0.28120244515594095,,,,,,,,,,,,,,,,,74,001,19,w,Psychologie,2023-01-26_08h55.27.178,00_bat_bachelor,2022.2.4,59.951079842963544,
,,,,,,,,,,,,0,0,0,0,221,0,221,0,,,,,,,221,,,1,633.7097382444772,,X,d,go,d,1,0.33678652602247894,,,,,,,,,,,,,,,,,74,001,19,w,Psychologie,2023-01-26_08h55.27.178,00_bat_bachelor,2022.2.4,59.951079842963544,
,,,,,,,,,,,,0,0,0,0,222,0,222,0,,,,,,,222,,,1,635.1605965972412,,X,None,nogo,None,1,,,,,,,,,,,,,,,,,,74,001,19,w,Psychologie,2023-01-26_08h55.27.178,00_bat_bachelor,2022.2.4,59.951079842963544,
,,,,,,,,,,,,0,0,0,0,223,0,223,0,,,,,,,223,,,1,636.9619296416058,,Y,l,go,l,1,0.37952064877026714,,,,,,,,,,,,,,,,,74,001,19,w,Psychologie,2023-01-26_08h55.27.178,00_bat_bachelor,2022.2.4,59.951079842963544,
,,,,,,,,,,,,0,0,0,0,224,0,224,0,,,,,,,224,,,1,638.4467206497793,,X,d,go,d,1,0.2714259460917674,,,,,,,,,,,,,,,,,74,001,19,w,Psychologie,2023-01-26_08h55.27.178,00_bat_bachelor,2022.2.4,59.951079842963544,
,,,,,,,,,,,,0,0,0,0,225,0,225,0,,,,,,,225,,,1,639.8310407239478,,Y,l,go,l,1,0.3276277248223778,,,,,,,,,,,,,,,,,74,001,19,w,Psychologie,2023-01-26_08h55.27.178,00_bat_bachelor,2022.2.4,59.951079842963544,
,,,,,,,,,,,,0,0,0,0,226,0,226,0,,,,,,,226,,,1,641.2651121432136,,X,d,go,d,1,0.49246432818472385,,,,,,,,,,,,,,,,,74,001,19,w,Psychologie,2023-01-26_08h55.27.178,00_bat_bachelor,2022.2.4,59.951079842963544,
,,,,,,,,,,,,0,0,0,0,227,0,227,0,,,,,,,227,,,1,642.8667067152273,,Y,l,go,l,1,0.29950938088586554,,,,,,,,,,,,,,,,,74,001,19,w,Psychologie,2023-01-26_08h55.27.178,00_bat_bachelor,2022.2.4,59.951079842963544,
,,,,,,,,,,,,0,0,0,0,228,0,228,0,,,,,,,228,,,1,644.2674180859467,,Y,None,nogo,None,1,,,,,,,,,,,,,,,,,,74,001,19,w,Psychologie,2023-01-26_08h55.27.178,00_bat_bachelor,2022.2.4,59.951079842963544,
,,,,,,,,,,,,0,0,0,0,229,0,229,0,,,,,,,229,,,1,646.0691176762921,,X,d,go,d,1,0.37679191754432395,,,,,,,,,,,,,,,,,74,001,19,w,Psychologie,2023-01-26_08h55.27.178,00_bat_bachelor,2022.2.4,59.951079842963544,
,,,,,,,,,,,,0,0,0,0,230,0,230,0,,,,,,,230,,,1,647.5535785021784,,Y,l,go,l,1,0.3962217639782466,,,,,,,,,,,,,,,,,74,001,19,w,Psychologie,2023-01-26_08h55.27.178,00_bat_bachelor,2022.2.4,59.951079842963544,
,,,,,,,,,,,,0,0,0,0,231,0,231,0,,,,,,,231,,,1,649.0547923221311,,X,d,go,d,1,0.2874759088153951,,,,,,,,,,,,,,,,,74,001,19,w,Psychologie,2023-01-26_08h55.27.178,00_bat_bachelor,2022.2.4,59.951079842963544,
,,,,,,,,,,,,0,0,0,0,232,0,232,0,,,,,,,232,,,1,650.4557650265924,,X,None,nogo,None,1,,,,,,,,,,,,,,,,,,74,001,19,w,Psychologie,2023-01-26_08h55.27.178,00_bat_bachelor,2022.2.4,59.951079842963544,
,,,,,,,,,,,,0,0,0,0,233,0,233,0,,,,,,,233,,,1,652.257732738537,653.0588369340694,X,None,nogo,None,1,,,,,,,,,,,,,,,,,,74,001,19,w,Psychologie,2023-01-26_08h55.27.178,00_bat_bachelor,2022.2.4,59.951079842963544,
,,,,,,,,,,,,0,0,0,0,234,0,234,0,,,,,,,234,,,1,654.0590953587089,,Y,l,go,l,1,0.370033119834261,,,,,,,,,,,,,,,,,74,001,19,w,Psychologie,2023-01-26_08h55.27.178,00_bat_bachelor,2022.2.4,59.951079842963544,
,,,,,,,,,,,,0,0,0,0,235,0,235,0,,,,,,,235,,,1,655.560278148303,,X,d,go,d,1,0.40570929291425273,,,,,,,,,,,,,,,,,74,001,19,w,Psychologie,2023-01-26_08h55.27.178,00_bat_bachelor,2022.2.4,59.951079842963544,
,,,,,,,,,,,,0,0,0,0,236,0,236,0,,,,,,,236,,,1,657.0778352647321,,Y,l,go,l,1,0.32803887693444267,,,,,,,,,,,,,,,,,74,001,19,w,Psychologie,2023-01-26_08h55.27.178,00_bat_bachelor,2022.2.4,59.951079842963544,
,,,,,,,,,,,,0,0,0,0,237,0,237,0,,,,,,,237,,,1,658.5126305638405,659.3129696673714,Y,None,nogo,None,1,,,,,,,,,,,,,,,,,,74,001,19,w,Psychologie,2023-01-26_08h55.27.178,00_bat_bachelor,2022.2.4,59.951079842963544,
,,,,,,,,,,,,0,0,0,0,238,0,238,0,,,,,,,238,,,1,660.3140882144507,,X,d,go,d,1,0.24332311731996015,,,,,,,,,,,,,,,,,74,001,19,w,Psychologie,2023-01-26_08h55.27.178,00_bat_bachelor,2022.2.4,59.951079842963544,
,,,,,,,,,,,,0,0,0,0,239,0,239,0,,,,,,,239,,,1,661.6815782035119,,Y,l,go,l,1,0.2840897220885381,,,,,,,,,,,,,,,,,74,001,19,w,Psychologie,2023-01-26_08h55.27.178,00_bat_bachelor,2022.2.4,59.951079842963544,
,,,,,,,,,,,,0,0,0,0,240,0,240,0,,,,,,,240,,,1,663.0992326292035,,X,d,go,d,1,0.37149300074088387,,,,,,,,,,,,,,,,,74,001,19,w,Psychologie,2023-01-26_08h55.27.178,00_bat_bachelor,2022.2.4,59.951079842963544,
,,,,,,,,,,,,0,0,0,0,241,0,241,0,,,,,,,241,,,1,664.5833152727282,,Y,l,go,l,1,0.34239623113535345,,,,,,,,,,,,,,,,,74,001,19,w,Psychologie,2023-01-26_08h55.27.178,00_bat_bachelor,2022.2.4,59.951079842963544,
,,,,,,,,,,,,0,0,0,0,242,0,242,0,,,,,,,242,,,1,666.0344165349088,,X,d,go,d,1,0.34809030004544184,,,,,,,,,,,,,,,,,74,001,19,w,Psychologie,2023-01-26_08h55.27.178,00_bat_bachelor,2022.2.4,59.951079842963544,
,,,,,,,,,,,,0,0,0,0,243,0,243,0,,,,,,,243,,,1,667.4854334333795,,X,None,nogo,None,1,,,,,,,,,,,,,,,,,,74,001,19,w,Psychologie,2023-01-26_08h55.27.178,00_bat_bachelor,2022.2.4,59.951079842963544,
,,,,,,,,,,,,0,0,0,0,244,0,244,0,,,,,,,244,,,1,669.286563810776,,Y,l,go,l,1,0.2150379852973856,,,,,,,,,,,,,,,,,74,001,19,w,Psychologie,2023-01-26_08h55.27.178,00_bat_bachelor,2022.2.4,59.951079842963544,
,,,,,,,,,,,,0,0,0,0,245,0,245,0,,,,,,,245,,,1,670.6045768793847,,X,d,go,d,1,0.2739558891626075,,,,,,,,,,,,,,,,,74,001,19,w,Psychologie,2023-01-26_08h55.27.178,00_bat_bachelor,2022.2.4,59.951079842963544,
,,,,,,,,,,,,0,0,0,0,246,0,246,0,,,,,,,246,,,1,671.9889769536676,672.789577875752,X,None,nogo,None,1,,,,,,,,,,,,,,,,,,74,001,19,w,Psychologie,2023-01-26_08h55.27.178,00_bat_bachelor,2022.2.4,59.951079842963544,
,,,,,,,,,,,,0,0,0,0,247,0,247,0,,,,,,,247,,,1,673.7903308465611,,Y,l,go,l,1,0.28801845508860424,,,,,,,,,,,,,,,,,74,001,19,w,Psychologie,2023-01-26_08h55.27.178,00_bat_bachelor,2022.2.4,59.951079842963544,
,,,,,,,,,,,,0,0,0,0,248,0,248,0,,,,,,,248,,,1,675.1914776118647,,X,d,go,d,1,0.45561918371822685,,,,,,,,,,,,,,,,,74,001,19,w,Psychologie,2023-01-26_08h55.27.178,00_bat_bachelor,2022.2.4,59.951079842963544,
,,,,,,,,,,,,0,0,0,0,249,0,249,0,,,,,,,249,,,1,676.7591715285089,,X,None,nogo,None,1,,,,,,,,,,,,,,,,,,74,001,19,w,Psychologie,2023-01-26_08h55.27.178,00_bat_bachelor,2022.2.4,59.951079842963544,
,,,,,,,,,,,,1,0,1,0,0,0,0,0,,,,,,,0,,,0.2,688.051258256397,,X,d,go,None,0,,,,,,,,,677.5636977896211,space,10.261949083826039,,,,,,,74,001,19,w,Psychologie,2023-01-26_08h55.27.178,00_bat_bachelor,2022.2.4,59.951079842963544,
,,,,,,,,,,,,1,0,1,0,1,0,1,0,,,,,,,1,,,0.2,689.0519011664146,,Y,l,go,None,0,,,,,,,,,,,,,,,,,,74,001,19,w,Psychologie,2023-01-26_08h55.27.178,00_bat_bachelor,2022.2.4,59.951079842963544,
,,,,,,,,,,,,1,0,1,0,2,0,2,0,,,,,,,2,,,0.2,690.0527472282411,690.8529917861742,X,d,go,None,0,,,,,,,,,,,,,,,,,,74,001,19,w,Psychologie,2023-01-26_08h55.27.178,00_bat_bachelor,2022.2.4,59.951079842963544,
,,,,,,,,,,,,1,0,1,0,3,0,3,0,,,,,,,3,,,0.2,691.053466744459,,Y,l,go,None,0,,,,,,,,,,,,,,,,,,74,001,19,w,Psychologie,2023-01-26_08h55.27.178,00_bat_bachelor,2022.2.4,59.951079842963544,
,,,,,,,,,,,,1,0,1,0,4,0,4,0,,,,,,,4,,,0.2,692.0543195941718,,Y,None,nogo,None,1,,,,,,,,,,,,,,,,,,74,001,19,w,Psychologie,2023-01-26_08h55.27.178,00_bat_bachelor,2022.2.4,59.951079842963544,
,,,,,,,,,,,,1,0,1,0,5,0,5,0,,,,,,,5,,,0.2,693.0550478376681,,X,d,go,d,1,0.351287880417658,,,,,,,,,,,,,,,,,74,001,19,w,Psychologie,2023-01-26_08h55.27.178,00_bat_bachelor,2022.2.4,59.951079842963544,
,,,,,,,,,,,,1,0,1,0,6,0,6,0,,,,,,,6,,,0.2,693.7222260202107,,Y,l,go,l,1,0.627547191339545,,,,,,,,,,,,,,,,,74,001,19,w,Psychologie,2023-01-26_08h55.27.178,00_bat_bachelor,2022.2.4,59.951079842963544,
,,,,,,,,,,,,1,0,1,0,7,0,7,0,,,,,,,7,,,0.2,694.6562787727744,,X,d,go,d,1,0.5265041353122797,,,,,,,,,,,,,,,,,74,001,19,w,Psychologie,2023-01-26_08h55.27.178,00_bat_bachelor,2022.2.4,59.951079842963544,
,,,,,,,,,,,,1,0,1,0,8,0,8,0,,,,,,,8,,,0.2,695.4899328338506,,X,None,nogo,l,0,0.5715684432652779,,,,,,,,,,,,,,,,,74,001,19,w,Psychologie,2023-01-26_08h55.27.178,00_bat_bachelor,2022.2.4,59.951079842963544,
,,,,,,,,,,,,1,0,1,0,9,0,9,0,,,,,,,9,,,0.2,696.3741964231012,,Y,l,go,None,0,,,,,,,,,,,,,,,,,,74,001,19,w,Psychologie,2023-01-26_08h55.27.178,00_bat_bachelor,2022.2.4,59.951079842963544,
,,,,,,,,,,,,1,0,1,0,10,0,10,0,,,,,,,10,,,0.2,697.3747724239365,698.1753908005776,X,d,go,None,0,,,,,,,,,,,,,,,,,,74,001,19,w,Psychologie,2023-01-26_08h55.27.178,00_bat_bachelor,2022.2.4,59.951079842963544,
,,,,,,,,,,,,1,0,1,0,11,0,11,0,,,,,,,11,,,0.2,698.3756921828317,,Y,l,go,l,1,0.24597912121680565,,,,,,,,,,,,,,,,,74,001,19,w,Psychologie,2023-01-26_08h55.27.178,00_bat_bachelor,2022.2.4,59.951079842963544,
,,,,,,,,,,,,1,0,1,0,12,0,12,0,,,,,,,12,,,0.2,698.9262510442641,,Y,None,nogo,l,0,0.6407845439389348,,,,,,,,,,,,,,,,,74,001,19,w,Psychologie,2023-01-26_08h55.27.178,00_bat_bachelor,2022.2.4,59.951079842963544,
,,,,,,,,,,,,1,0,1,0,13,0,13,0,,,,,,,13,,,0.2,699.8769166694547,,X,d,go,d,1,0.4252298061619513,,,,,,,,,,,,,,,,,74,001,19,w,Psychologie,2023-01-26_08h55.27.178,00_bat_bachelor,2022.2.4,59.951079842963544,
,,,,,,,,,,,,1,0,1,0,14,0,14,0,,,,,,,14,,,0.2,700.6108644036867,,Y,l,go,None,0,,,,,,,,,,,,,,,,,,74,001,19,w,Psychologie,2023-01-26_08h55.27.178,00_bat_bachelor,2022.2.4,59.951079842963544,
,,,,,,,,,,,,1,0,1,0,15,0,15,0,,,,,,,15,,,0.2,701.6116590715246,,X,d,go,d,1,0.595272720180219,,,,,,,,,,,,,,,,,74,001,19,w,Psychologie,2023-01-26_08h55.27.178,00_bat_bachelor,2022.2.4,59.951079842963544,
,,,,,,,,,,,,1,0,1,0,16,0,16,0,,,,,,,16,,,0.2,702.5119008658221,,X,None,nogo,None,1,,,,,,,,,,,,,,,,,,74,001,19,w,Psychologie,2023-01-26_08h55.27.178,00_bat_bachelor,2022.2.4,59.951079842963544,
,,,,,,,,,,,,1,0,1,0,17,0,17,0,,,,,,,17,,,0.2,703.5130368674581,,Y,l,go,None,0,,,,,,,,,,,,,,,,,,74,001,19,w,Psychologie,2023-01-26_08h55.27.178,00_bat_bachelor,2022.2.4,59.951079842963544,
,,,,,,,,,,,,1,0,1,0,18,0,18,0,,,,,,,18,,,0.2,704.513816504972,,X,d,go,None,0,,,,,,,,,,,,,,,,,,74,001,19,w,Psychologie,2023-01-26_08h55.27.178,00_bat_bachelor,2022.2.4,59.951079842963544,
,,,,,,,,,,,,1,0,1,0,19,0,19,0,,,,,,,19,,,0.2,705.514603415184,706.3148067609582,X,None,nogo,None,1,,,,,,,,,,,,,,,,,,74,001,19,w,Psychologie,2023-01-26_08h55.27.178,00_bat_bachelor,2022.2.4,59.951079842963544,
,,,,,,,,,,,,1,0,1,0,20,0,20,0,,,,,,,20,,,0.2,706.5153340829129,,Y,l,go,l,1,0.13877460162620991,,,,,,,,,,,,,,,,,74,001,19,w,Psychologie,2023-01-26_08h55.27.178,00_bat_bachelor,2022.2.4,59.951079842963544,
,,,,,,,,,,,,1,0,1,0,21,0,21,0,,,,,,,21,,,0.2,706.9656702531211,,X,d,go,d,1,0.664580457349075,,,,,,,,,,,,,,,,,74,001,19,w,Psychologie,2023-01-26_08h55.27.178,00_bat_bachelor,2022.2.4,59.951079842963544,
,,,,,,,,,,,,1,0,1,0,22,0,22,0,,,,,,,22,,,0.2,707.9328866902797,,Y,l,go,l,1,0.5617041864898056,,,,,,,,,,,,,,,,,74,001,19,w,Psychologie,2023-01-26_08h55.27.178,00_bat_bachelor,2022.2.4,59.951079842963544,
,,,,,,,,,,,,1,0,1,0,23,0,23,0,,,,,,,23,,,0.2,708.8003138913773,,Y,None,nogo,d,0,0.4776987309742253,,,,,,,,,,,,,,,,,74,001,19,w,Psychologie,2023-01-26_08h55.27.178,00_bat_bachelor,2022.2.4,59.951079842963544,
,,,,,,,,,,,,1,0,1,0,24,0,24,0,,,,,,,24,,,0.2,709.5843024256756,,Y,None,nogo,None,1,,,,,,,,,,,,,,,,,,74,001,19,w,Psychologie,2023-01-26_08h55.27.178,00_bat_bachelor,2022.2.4,59.951079842963544,
,,,,,,,,,,,,1,0,1,0,25,0,25,0,,,,,,,25,,,0.2,710.5850563661661,,X,d,go,l,0,0.2769658329489175,,,,,,,,,,,,,,,,,74,001,19,w,Psychologie,2023-01-26_08h55.27.178,00_bat_bachelor,2022.2.4,59.951079842963544,
,,,,,,,,,,,,1,0,1,0,26,0,26,0,,,,,,,26,,,0.2,711.1688918820291,711.9693095311231,Y,l,go,None,0,,,,,,,,,,,,,,,,,,74,001,19,w,Psychologie,2023-01-26_08h55.27.178,00_bat_bachelor,2022.2.4,59.951079842963544,
,,,,,,,,,,,,1,0,1,0,27,0,27,0,,,,,,,27,,,0.2,712.1693777009204,,Y,None,nogo,None,1,,,,,,,,,,,,,,,,,,74,001,19,w,Psychologie,2023-01-26_08h55.27.178,00_bat_bachelor,2022.2.4,59.951079842963544,
,,,,,,,,,,,,1,0,1,0,28,0,28,0,,,,,,,28,,,0.2,713.1705064298294,,X,d,go,None,0,,,,,,,,,,,,,,,,,,74,001,19,w,Psychologie,2023-01-26_08h55.27.178,00_bat_bachelor,2022.2.4,59.951079842963544,
,,,,,,,,,,,,1,0,1,0,29,0,29,0,,,,,,,29,,,0.2,714.1711110367905,,Y,l,go,l,1,0.03455917729297653,,,,,,,,,,,,,,,,,74,001,19,w,Psychologie,2023-01-26_08h55.27.178,00_bat_bachelor,2022.2.4,59.951079842963544,
,,,,,,,,,,,,1,0,1,0,30,0,30,0,,,,,,,30,,,0.2,714.5211086367781,,X,d,go,None,0,,,,,,,,,,,,,,,,,,74,001,19,w,Psychologie,2023-01-26_08h55.27.178,00_bat_bachelor,2022.2.4,59.951079842963544,
,,,,,,,,,,,,1,0,1,0,31,0,31,0,,,,,,,31,,,0.2,715.5222310626414,,X,None,nogo,None,1,,,,,,,,,,,,,,,,,,74,001,19,w,Psychologie,2023-01-26_08h55.27.178,00_bat_bachelor,2022.2.4,59.951079842963544,
,,,,,,,,,,,,1,0,1,0,32,0,32,0,,,,,,,32,,,0.2,716.5229593061376,,Y,l,go,l,1,0.30689508857904,,,,,,,,,,,,,,,,,74,001,19,w,Psychologie,2023-01-26_08h55.27.178,00_bat_bachelor,2022.2.4,59.951079842963544,
,,,,,,,,,,,,1,0,1,0,33,0,33,0,,,,,,,33,,,0.2,717.1400467491767,,X,d,go,None,0,,,,,,,,,,,,,,,,,,74,001,19,w,Psychologie,2023-01-26_08h55.27.178,00_bat_bachelor,2022.2.4,59.951079842963544,
,,,,,,,,,,,,1,0,1,0,34,0,34,0,,,,,,,34,,,0.2,718.1408865079575,,X,None,nogo,None,1,,,,,,,,,,,,,,,,,,74,001,19,w,Psychologie,2023-01-26_08h55.27.178,00_bat_bachelor,2022.2.4,59.951079842963544,
,,,,,,,,,,,,1,0,1,0,35,0,35,0,,,,,,,35,,,0.2,719.1416089332488,,Y,l,go,l,1,0.2647510272799991,,,,,,,,,,,,,,,,,74,001,19,w,Psychologie,2023-01-26_08h55.27.178,00_bat_bachelor,2022.2.4,59.951079842963544,
,,,,,,,,,,,,1,0,1,0,36,0,36,0,,,,,,,36,,,0.2,719.7085081820842,,X,d,go,d,1,0.5609153368859552,,,,,,,,,,,,,,,,,74,001,19,w,Psychologie,2023-01-26_08h55.27.178,00_bat_bachelor,2022.2.4,59.951079842963544,
,,,,,,,,,,,,1,0,1,0,37,0,37,0,,,,,,,37,,,0.2,720.5760561106435,,X,None,nogo,None,1,,,,,,,,,,,,,,,,,,74,001,19,w,Psychologie,2023-01-26_08h55.27.178,00_bat_bachelor,2022.2.4,59.951079842963544,
,,,,,,,,,,,,1,0,1,0,38,0,38,0,,,,,,,38,,,0.2,721.5765210810059,,Y,l,go,l,1,0.38953278452390805,,,,,,,,,,,,,,,,,74,001,19,w,Psychologie,2023-01-26_08h55.27.178,00_bat_bachelor,2022.2.4,59.951079842963544,
,,,,,,,,,,,,1,0,1,0,39,0,39,0,,,,,,,39,,,0.2,722.2772745851544,723.0776301735314,X,d,go,None,0,,,,,,,,,,,,,,,,,,74,001,19,w,Psychologie,2023-01-26_08h55.27.178,00_bat_bachelor,2022.2.4,59.951079842963544,
,,,,,,,,,,,,1,0,1,0,40,0,40,0,,,,,,,40,,,0.2,723.2781565258047,,Y,l,go,d,0,0.048058348475024104,,,,,,,,,,,,,,,,,74,001,19,w,Psychologie,2023-01-26_08h55.27.178,00_bat_bachelor,2022.2.4,59.951079842963544,
,,,,,,,,,,,,1,0,1,0,41,0,41,0,,,,,,,41,,,0.2,723.6282346107764,,Y,None,nogo,None,1,,,,,,,,,,,,,,,,,,74,001,19,w,Psychologie,2023-01-26_08h55.27.178,00_bat_bachelor,2022.2.4,59.951079842963544,
,,,,,,,,,,,,1,0,1,0,42,0,42,0,,,,,,,42,,,0.2,724.6288149752654,,X,d,go,l,0,0.360711409302894,,,,,,,,,,,,,,,,,74,001,19,w,Psychologie,2023-01-26_08h55.27.178,00_bat_bachelor,2022.2.4,59.951079842963544,
,,,,,,,,,,,,1,0,1,0,43,0,43,0,,,,,,,43,,,0.2,725.2963480674371,,Y,l,go,None,0,,,,,,,,,,,,,,,,,,74,001,19,w,Psychologie,2023-01-26_08h55.27.178,00_bat_bachelor,2022.2.4,59.951079842963544,
,,,,,,,,,,,,1,0,1,0,44,0,44,0,,,,,,,44,,,0.2,726.29685715909,,X,d,go,None,0,,,,,,,,,,,,,,,,,,74,001,19,w,Psychologie,2023-01-26_08h55.27.178,00_bat_bachelor,2022.2.4,59.951079842963544,
,,,,,,,,,,,,1,0,1,0,45,0,45,0,,,,,,,45,,,0.2,727.2975252812612,,Y,l,go,l,1,0.028453471459215507,,,,,,,,,,,,,,,,,74,001,19,w,Psychologie,2023-01-26_08h55.27.178,00_bat_bachelor,2022.2.4,59.951079842963544,
,,,,,,,,,,,,1,0,1,0,46,0,46,0,,,,,,,46,,,0.2,727.6314433427178,,X,d,go,None,0,,,,,,,,,,,,,,,,,,74,001,19,w,Psychologie,2023-01-26_08h55.27.178,00_bat_bachelor,2022.2.4,59.951079842963544,
,,,,,,,,,,,,1,0,1,0,47,0,47,0,,,,,,,47,,,0.2,728.6321890407708,,X,None,nogo,None,1,,,,,,,,,,,,,,,,,,74,001,19,w,Psychologie,2023-01-26_08h55.27.178,00_bat_bachelor,2022.2.4,59.951079842963544,
,,,,,,,,,,,,1,0,1,0,48,0,48,0,,,,,,,48,,,0.2,729.6330254056375,,Y,l,go,d,0,0.4291459330706857,,,,,,,,,,,,,,,,,74,001,19,w,Psychologie,2023-01-26_08h55.27.178,00_bat_bachelor,2022.2.4,59.951079842963544,
,,,,,,,,,,,,1,0,1,0,49,0,49,0,,,,,,,49,,,0.2,730.3665775029222,,X,d,go,l,0,0.4790301268512849,,,,,,,,,,,,,,,,,74,001,19,w,Psychologie,2023-01-26_08h55.27.178,00_bat_bachelor,2022.2.4,59.951079842963544,
,,,,,,,,,,,,1,0,1,0,50,0,50,0,,,,,,,50,,,0.2,731.1506193706009,731.9513686565624,Y,l,go,None,0,,,,,,,,,,,,,,,,,,74,001,19,w,Psychologie,2023-01-26_08h55.27.178,00_bat_bachelor,2022.2.4,59.951079842963544,
,,,,,,,,,,,,1,0,1,0,51,0,51,0,,,,,,,51,,,0.2,732.1515042203828,,X,d,go,None,0,,,,,,,,,,,,,,,,,,74,001,19,w,Psychologie,2023-01-26_08h55.27.178,00_bat_bachelor,2022.2.4,59.951079842963544,
,,,,,,,,,,,,1,0,1,0,52,0,52,0,,,,,,,52,,,0.2,733.1523401003797,,Y,l,go,d,0,0.5578792112355586,,,,,,,,,,,,,,,,,74,001,19,w,Psychologie,2023-01-26_08h55.27.178,00_bat_bachelor,2022.2.4,59.951079842963544,
,,,,,,,,,,,,1,0,1,0,53,0,53,0,,,,,,,53,,,0.2,734.0194395434519,734.8200487079739,Y,None,nogo,None,1,,,,,,,,,,,,,,,,,,74,001,19,w,Psychologie,2023-01-26_08h55.27.178,00_bat_bachelor,2022.2.4,59.951079842963544,
,,,,,,,,,,,,1,0,1,0,54,0,54,0,,,,,,,54,,,0.2,735.0204034236376,735.8210130730004,X,d,go,None,0,,,,,,,,,,,,,,,,,,74,001,19,w,Psychologie,2023-01-26_08h55.27.178,00_bat_bachelor,2022.2.4,59.951079842963544,
,,,,,,,,,,,,1,0,1,0,55,0,55,0,,,,,,,55,,,0.2,736.0212504551746,736.8215037403861,Y,l,go,None,0,,,,,,,,,,,,,,,,,,74,001,19,w,Psychologie,2023-01-26_08h55.27.178,00_bat_bachelor,2022.2.4,59.951079842963544,
,,,,,,,,,,,,1,0,1,0,56,0,56,0,,,,,,,56,,,0.2,737.0219336076698,737.8225965904712,X,d,go,None,0,,,,,,,,,,,,,,,,,,74,001,19,w,Psychologie,2023-01-26_08h55.27.178,00_bat_bachelor,2022.2.4,59.951079842963544,
,,,,,,,,,,,,1,0,1,0,57,0,57,0,,,,,,,57,,,0.2,738.0226996693818,,X,None,nogo,l,0,0.10403903594124131,,,,,,,,,,,,,,,,,74,001,19,w,Psychologie,2023-01-26_08h55.27.178,00_bat_bachelor,2022.2.4,59.951079842963544,
,,,,,,,,,,,,1,0,1,0,58,0,58,0,,,,,,,58,,,0.2,738.4397315487149,739.24033295564,Y,l,go,None,0,,,,,,,,,,,,,,,,,,74,001,19,w,Psychologie,2023-01-26_08h55.27.178,00_bat_bachelor,2022.2.4,59.951079842963544,
,,,,,,,,,,,,1,0,1,0,59,0,59,0,,,,,,,59,,,0.2,739.4404636709951,,X,d,go,d,1,0.35005490892217495,,,,,,,,,,,,,,,,,74,001,19,w,Psychologie,2023-01-26_08h55.27.178,00_bat_bachelor,2022.2.4,59.951079842963544,
,,,,,,,,,,,,1,0,1,0,60,0,60,0,,,,,,,60,,,0.2,740.0909354050236,,Y,l,go,l,1,0.6109445005422458,,,,,,,,,,,,,,,,,74,001,19,w,Psychologie,2023-01-26_08h55.27.178,00_bat_bachelor,2022.2.4,59.951079842963544,
,,,,,,,,,,,,1,0,1,0,61,0,61,0,,,,,,,61,,,0.2,741.0083078908792,,Y,None,nogo,None,1,,,,,,,,,,,,,,,,,,74,001,19,w,Psychologie,2023-01-26_08h55.27.178,00_bat_bachelor,2022.2.4,59.951079842963544,
,,,,,,,,,,,,1,0,1,0,62,0,62,0,,,,,,,62,,,0.2,742.009112255706,,X,d,go,d,1,0.2768097115040291,,,,,,,,,,,,,,,,,74,001,19,w,Psychologie,2023-01-26_08h55.27.178,00_bat_bachelor,2022.2.4,59.951079842963544,
,,,,,,,,,,,,1,0,1,0,63,0,63,0,,,,,,,63,,,0.2,742.592872619949,,Y,l,go,l,1,0.42894472065381706,,,,,,,,,,,,,,,,,74,001,19,w,Psychologie,2023-01-26_08h55.27.178,00_bat_bachelor,2022.2.4,59.951079842963544,
,,,,,,,,,,,,1,0,1,0,64,0,64,0,,,,,,,64,,,0.2,743.3264596263762,,X,d,go,d,1,0.5433279173448682,,,,,,,,,,,,,,,,,74,001,19,w,Psychologie,2023-01-26_08h55.27.178,00_bat_bachelor,2022.2.4,59.951079842963544,
,,,,,,,,,,,,1,0,1,0,65,0,65,0,,,,,,,65,,,0.2,744.1772948033467,,X,None,nogo,l,0,0.46107228254550137,,,,,,,,,,,,,,,,,74,001,19,w,Psychologie,2023-01-26_08h55.27.178,00_bat_bachelor,2022.2.4,59.951079842963544,
,,,,,,,,,,,,1,0,1,0,66,0,66,0,,,,,,,66,,,0.2,744.9446995559265,,Y,l,go,d,0,0.42986254018615,,,,,,,,,,,,,,,,,74,001,19,w,Psychologie,2023-01-26_08h55.27.178,00_bat_bachelor,2022.2.4,59.951079842963544,
,,,,,,,,,,,,1,0,1,0,67,0,67,0,,,,,,,67,,,0.2,745.6785895931243,,X,d,go,None,0,,,,,,,,,,,,,,,,,,74,001,19,w,Psychologie,2023-01-26_08h55.27.178,00_bat_bachelor,2022.2.4,59.951079842963544,
,,,,,,,,,,,,1,0,1,0,68,0,68,0,,,,,,,68,,,0.2,746.6790152906906,,Y,l,go,l,1,0.4234533187118359,,,,,,,,,,,,,,,,,74,001,19,w,Psychologie,2023-01-26_08h55.27.178,00_bat_bachelor,2022.2.4,59.951079842963544,
,,,,,,,,,,,,1,0,1,0,69,0,69,0,,,,,,,69,,,0.2,747.4132301768404,,X,d,go,d,1,0.392632425413467,,,,,,,,,,,,,,,,,74,001,19,w,Psychologie,2023-01-26_08h55.27.178,00_bat_bachelor,2022.2.4,59.951079842963544,
,,,,,,,,,,,,1,0,1,0,70,0,70,0,,,,,,,70,,,0.2,748.1137475594005,,Y,l,go,l,1,0.2051451223960612,,,,,,,,,,,,,,,,,74,001,19,w,Psychologie,2023-01-26_08h55.27.178,00_bat_bachelor,2022.2.4,59.951079842963544,
,,,,,,,,,,,,1,0,1,0,71,0,71,0,,,,,,,71,,,0.2,748.6308397054672,,X,d,go,d,1,0.599692120536929,,,,,,,,,,,,,,,,,74,001,19,w,Psychologie,2023-01-26_08h55.27.178,00_bat_bachelor,2022.2.4,59.951079842963544,
,,,,,,,,,,,,1,0,1,0,72,0,72,0,,,,,,,72,,,0.2,749.5312890152272,,Y,l,go,l,1,0.45032414569868706,,,,,,,,,,,,,,,,,74,001,19,w,Psychologie,2023-01-26_08h55.27.178,00_bat_bachelor,2022.2.4,59.951079842963544,
,,,,,,,,,,,,1,0,1,0,73,0,73,0,,,,,,,73,,,0.2,750.281990713207,,X,d,go,d,1,0.5001089453871828,,,,,,,,,,,,,,,,,74,001,19,w,Psychologie,2023-01-26_08h55.27.178,00_bat_bachelor,2022.2.4,59.951079842963544,
,,,,,,,,,,,,1,0,1,0,74,0,74,0,,,,,,,74,,,0.2,751.082650786906,,Y,l,go,l,1,0.4674228372168727,,,,,,,,,,,,,,,,,74,001,19,w,Psychologie,2023-01-26_08h55.27.178,00_bat_bachelor,2022.2.4,59.951079842963544,
,,,,,,,,,,,,1,0,1,0,75,0,75,0,,,,,,,75,,,0.2,751.8663217449794,,X,d,go,d,1,0.45243275482789613,,,,,,,,,,,,,,,,,74,001,19,w,Psychologie,2023-01-26_08h55.27.178,00_bat_bachelor,2022.2.4,59.951079842963544,
,,,,,,,,,,,,1,0,1,0,76,0,76,0,,,,,,,76,,,0.2,752.6338501340942,,Y,l,go,None,0,,,,,,,,,,,,,,,,,,74,001,19,w,Psychologie,2023-01-26_08h55.27.178,00_bat_bachelor,2022.2.4,59.951079842963544,
,,,,,,,,,,,,1,0,1,0,77,0,77,0,,,,,,,77,,,0.2,753.6346748625801,,X,d,go,d,1,0.4442383186542429,,,,,,,,,,,,,,,,,74,001,19,w,Psychologie,2023-01-26_08h55.27.178,00_bat_bachelor,2022.2.4,59.951079842963544,
,,,,,,,,,,,,1,0,1,0,78,0,78,0,,,,,,,78,,,0.2,754.3852097724448,,X,None,nogo,l,0,0.14077508938498795,,,,,,,,,,,,,,,,,74,001,19,w,Psychologie,2023-01-26_08h55.27.178,00_bat_bachelor,2022.2.4,59.951079842963544,
,,,,,,,,,,,,1,0,1,0,79,0,79,0,,,,,,,79,,,0.2,754.8355241244135,,Y,l,go,None,0,,,,,,,,,,,,,,,,,,74,001,19,w,Psychologie,2023-01-26_08h55.27.178,00_bat_bachelor,2022.2.4,59.951079842963544,
,,,,,,,,,,,,1,0,1,0,80,0,80,0,,,,,,,80,,,0.2,755.8363357619673,,X,d,go,None,0,,,,,,,,,,,,,,,,,,74,001,19,w,Psychologie,2023-01-26_08h55.27.178,00_bat_bachelor,2022.2.4,59.951079842963544,
,,,,,,,,,,,,1,0,1,0,81,0,81,0,,,,,,,81,,,0.2,756.8368666718306,,Y,l,go,None,0,,,,,,,,,,,,,,,,,,74,001,19,w,Psychologie,2023-01-26_08h55.27.178,00_bat_bachelor,2022.2.4,59.951079842963544,
,,,,,,,,,,,,1,0,1,0,82,0,82,0,,,,,,,82,,,0.2,757.8378678853915,,Y,None,nogo,None,1,,,,,,,,,,,,,,,,,,74,001,19,w,Psychologie,2023-01-26_08h55.27.178,00_bat_bachelor,2022.2.4,59.951079842963544,
,,,,,,,,,,,,1,0,1,0,83,0,83,0,,,,,,,83,,,0.2,758.8386523713998,,Y,None,nogo,d,0,0.26349623760324903,,,,,,,,,,,,,,,,,74,001,19,w,Psychologie,2023-01-26_08h55.27.178,00_bat_bachelor,2022.2.4,59.951079842963544,
,,,,,,,,,,,,1,0,1,0,84,0,84,0,,,,,,,84,,,0.2,759.4058192569646,760.2061549665523,X,d,go,None,0,,,,,,,,,,,,,,,,,,74,001,19,w,Psychologie,2023-01-26_08h55.27.178,00_bat_bachelor,2022.2.4,59.951079842963544,
,,,,,,,,,,,,1,0,1,0,85,0,85,0,,,,,,,85,,,0.2,760.4064427730336,,Y,l,go,None,0,,,,,,,,,,,,,,,,,,74,001,19,w,Psychologie,2023-01-26_08h55.27.178,00_bat_bachelor,2022.2.4,59.951079842963544,
,,,,,,,,,,,,1,0,1,0,86,0,86,0,,,,,,,86,,,0.2,761.4069251979527,,X,d,go,d,1,0.23856965589220636,,,,,,,,,,,,,,,,,74,001,19,w,Psychologie,2023-01-26_08h55.27.178,00_bat_bachelor,2022.2.4,59.951079842963544,
,,,,,,,,,,,,1,0,1,0,87,0,87,0,,,,,,,87,,,0.2,761.9574670896691,,X,None,nogo,l,0,0.4401621915458236,,,,,,,,,,,,,,,,,74,001,19,w,Psychologie,2023-01-26_08h55.27.178,00_bat_bachelor,2022.2.4,59.951079842963544,
,,,,,,,,,,,,1,0,1,0,88,0,88,0,,,,,,,88,,,0.2,762.7080495147384,,Y,l,go,None,0,,,,,,,,,,,,,,,,,,74,001,19,w,Psychologie,2023-01-26_08h55.27.178,00_bat_bachelor,2022.2.4,59.951079842963544,
,,,,,,,,,,,,1,0,1,0,89,0,89,0,,,,,,,89,,,0.2,763.708976061549,,X,d,go,d,1,0.32155159473768435,,,,,,,,,,,,,,,,,74,001,19,w,Psychologie,2023-01-26_08h55.27.178,00_bat_bachelor,2022.2.4,59.951079842963544,
,,,,,,,,,,,,1,0,1,0,90,0,90,0,,,,,,,90,,,0.2,764.342678316636,,Y,l,go,l,1,0.18335163613664918,,,,,,,,,,,,,,,,,74,001,19,w,Psychologie,2023-01-26_08h55.27.178,00_bat_bachelor,2022.2.4,59.951079842963544,
,,,,,,,,,,,,1,0,1,0,91,0,91,0,,,,,,,91,,,0.2,764.8265214446583,,X,d,go,d,1,0.22825012571411207,,,,,,,,,,,,,,,,,74,001,19,w,Psychologie,2023-01-26_08h55.27.178,00_bat_bachelor,2022.2.4,59.951079842963544,
,,,,,,,,,,,,1,0,1,0,92,0,92,0,,,,,,,92,,,0.2,765.3599496144743,,Y,l,go,l,1,0.33451209843042307,,,,,,,,,,,,,,,,,74,001,19,w,Psychologie,2023-01-26_08h55.27.178,00_bat_bachelor,2022.2.4,59.951079842963544,
,,,,,,,,,,,,1,0,1,0,93,0,93,0,,,,,,,93,,,0.2,766.0104485000484,,Y,None,nogo,d,0,0.49944421715917997,,,,,,,,,,,,,,,,,74,001,19,w,Psychologie,2023-01-26_08h55.27.178,00_bat_bachelor,2022.2.4,59.951079842963544,
,,,,,,,,,,,,1,0,1,0,94,0,94,0,,,,,,,94,,,0.2,766.811364574125,,X,d,go,None,0,,,,,,,,,,,,,,,,,,74,001,19,w,Psychologie,2023-01-26_08h55.27.178,00_bat_bachelor,2022.2.4,59.951079842963544,
,,,,,,,,,,,,1,0,1,0,95,0,95,0,,,,,,,95,,,0.2,767.812125302502,,Y,l,go,None,0,,,,,,,,,,,,,,,,,,74,001,19,w,Psychologie,2023-01-26_08h55.27.178,00_bat_bachelor,2022.2.4,59.951079842963544,
,,,,,,,,,,,,1,0,1,0,96,0,96,0,,,,,,,96,,,0.2,768.8128288186854,,Y,None,nogo,d,0,0.0336234183923807,,,,,,,,,,,,,,,,,74,001,19,w,Psychologie,2023-01-26_08h55.27.178,00_bat_bachelor,2022.2.4,59.951079842963544,
,,,,,,,,,,,,1,0,1,0,97,0,97,0,,,,,,,97,,,0.2,769.1632259344042,,X,d,go,None,0,,,,,,,,,,,,,,,,,,74,001,19,w,Psychologie,2023-01-26_08h55.27.178,00_bat_bachelor,2022.2.4,59.951079842963544,
,,,,,,,,,,,,1,0,1,0,98,0,98,0,,,,,,,98,,,0.2,770.1638635110867,,Y,l,go,l,1,0.2820412342553027,,,,,,,,,,,,,,,,,74,001,19,w,Psychologie,2023-01-26_08h55.27.178,00_bat_bachelor,2022.2.4,59.951079842963544,
,,,,,,,,,,,,1,0,1,0,99,0,99,0,,,,,,,99,,,0.2,770.7473896931915,,Y,None,nogo,None,1,,,,,,,,,,,,,,,,,,74,001,19,w,Psychologie,2023-01-26_08h55.27.178,00_bat_bachelor,2022.2.4,59.951079842963544,
,,,,,,,,,,,,1,0,1,0,100,0,100,0,,,,,,,100,,,0.2,771.7484204825596,,X,d,go,d,1,0.25011439993977547,,,,,,,,,,,,,,,,,74,001,19,w,Psychologie,2023-01-26_08h55.27.178,00_bat_bachelor,2022.2.4,59.951079842963544,
,,,,,,,,,,,,1,0,1,0,101,0,101,0,,,,,,,101,,,0.2,772.2985279494023,,Y,l,go,l,1,0.5636629772197921,,,,,,,,,,,,,,,,,74,001,19,w,Psychologie,2023-01-26_08h55.27.178,00_bat_bachelor,2022.2.4,59.951079842963544,
,,,,,,,,,,,,1,0,1,0,102,0,102,0,,,,,,,102,,,0.2,773.1662004841783,,X,d,go,d,1,0.4638305895787198,,,,,,,,,,,,,,,,,74,001,19,w,Psychologie,2023-01-26_08h55.27.178,00_bat_bachelor,2022.2.4,59.951079842963544,
,,,,,,,,,,,,1,0,1,0,103,0,103,0,,,,,,,103,,,0.2,773.9334903275012,,X,None,nogo,None,1,,,,,,,,,,,,,,,,,,74,001,19,w,Psychologie,2023-01-26_08h55.27.178,00_bat_bachelor,2022.2.4,59.951079842963544,
,,,,,,,,,,,,1,0,1,0,104,0,104,0,,,,,,,104,,,0.2,774.9341831770143,,Y,l,go,l,1,0.36027698442921974,,,,,,,,,,,,,,,,,74,001,19,w,Psychologie,2023-01-26_08h55.27.178,00_bat_bachelor,2022.2.4,59.951079842963544,
,,,,,,,,,,,,1,0,1,0,105,0,105,0,,,,,,,105,,,0.2,775.601120874373,,X,d,go,d,1,0.36548474957817234,,,,,,,,,,,,,,,,,74,001,19,w,Psychologie,2023-01-26_08h55.27.178,00_bat_bachelor,2022.2.4,59.951079842963544,
,,,,,,,,,,,,1,0,1,0,106,0,106,0,,,,,,,106,,,0.2,776.2685361481854,,Y,l,go,l,1,0.4493864473479334,,,,,,,,,,,,,,,,,74,001,19,w,Psychologie,2023-01-26_08h55.27.178,00_bat_bachelor,2022.2.4,59.951079842963544,
,,,,,,,,,,,,1,0,1,0,107,0,107,0,,,,,,,107,,,0.2,777.0191786945798,,X,d,go,d,1,0.4196535556111485,,,,,,,,,,,,,,,,,74,001,19,w,Psychologie,2023-01-26_08h55.27.178,00_bat_bachelor,2022.2.4,59.951079842963544,
,,,,,,,,,,,,1,0,1,0,108,0,108,0,,,,,,,108,,,0.2,777.7529897013446,778.5536672296003,Y,l,go,None,0,,,,,,,,,,,,,,,,,,74,001,19,w,Psychologie,2023-01-26_08h55.27.178,00_bat_bachelor,2022.2.4,59.951079842963544,
,,,,,,,,,,,,1,0,1,0,109,0,109,0,,,,,,,109,,,0.2,778.7535031566222,,X,d,go,d,1,0.33251985313836485,,,,,,,,,,,,,,,,,74,001,19,w,Psychologie,2023-01-26_08h55.27.178,00_bat_bachelor,2022.2.4,59.951079842963544,
,,,,,,,,,,,,1,0,1,0,110,0,110,0,,,,,,,110,,,0.2,779.3876393517421,,Y,l,go,l,1,0.355246674065711,,,,,,,,,,,,,,,,,74,001,19,w,Psychologie,2023-01-26_08h55.27.178,00_bat_bachelor,2022.2.4,59.951079842963544,
,,,,,,,,,,,,1,0,1,0,111,0,111,0,,,,,,,111,,,0.2,780.0547515948128,,X,d,go,d,1,0.4710960547090508,,,,,,,,,,,,,,,,,74,001,19,w,Psychologie,2023-01-26_08h55.27.178,00_bat_bachelor,2022.2.4,59.951079842963544,
,,,,,,,,,,,,1,0,1,0,112,0,112,0,,,,,,,112,,,0.2,780.8384143104486,,Y,l,go,l,1,0.27953359426464885,,,,,,,,,,,,,,,,,74,001,19,w,Psychologie,2023-01-26_08h55.27.178,00_bat_bachelor,2022.2.4,59.951079842963544,
,,,,,,,,,,,,1,0,1,0,113,0,113,0,,,,,,,113,,,0.2,781.4222207353741,,X,d,go,None,0,,,,,,,,,,,,,,,,,,74,001,19,w,Psychologie,2023-01-26_08h55.27.178,00_bat_bachelor,2022.2.4,59.951079842963544,
,,,,,,,,,,,,1,0,1,0,114,0,114,0,,,,,,,114,,,0.2,782.4233063127031,,Y,l,go,l,1,0.37489179355907254,,,,,,,,,,,,,,,,,74,001,19,w,Psychologie,2023-01-26_08h55.27.178,00_bat_bachelor,2022.2.4,59.951079842963544,
,,,,,,,,,,,,1,0,1,0,115,0,115,0,,,,,,,115,,,0.2,783.1072399135737,,X,d,go,d,1,0.49135887206648476,,,,,,,,,,,,,,,,,74,001,19,w,Psychologie,2023-01-26_08h55.27.178,00_bat_bachelor,2022.2.4,59.951079842963544,
,,,,,,,,,,,,1,0,1,0,116,0,116,0,,,,,,,116,,,0.2,783.9078049568343,,Y,l,go,l,1,0.36248838156461716,,,,,,,,,,,,,,,,,74,001,19,w,Psychologie,2023-01-26_08h55.27.178,00_bat_bachelor,2022.2.4,59.951079842963544,
,,,,,,,,,,,,1,0,1,0,117,0,117,0,,,,,,,117,,,0.2,784.5749501696264,,Y,None,nogo,d,0,0.44776317226933315,,,,,,,,,,,,,,,,,74,001,19,w,Psychologie,2023-01-26_08h55.27.178,00_bat_bachelor,2022.2.4,59.951079842963544,
,,,,,,,,,,,,1,0,1,0,118,0,118,0,,,,,,,118,,,0.2,785.325196109392,,X,d,go,d,1,0.6243738534103613,,,,,,,,,,,,,,,,,74,001,19,w,Psychologie,2023-01-26_08h55.27.178,00_bat_bachelor,2022.2.4,59.951079842963544,
,,,,,,,,,,,,1,0,1,0,119,0,119,0,,,,,,,119,,,0.2,786.2592488619557,,Y,l,go,l,1,0.4105005726160016,,,,,,,,,,,,,,,,,74,001,19,w,Psychologie,2023-01-26_08h55.27.178,00_bat_bachelor,2022.2.4,59.951079842963544,
,,,,,,,,,,,,1,0,1,0,120,0,120,0,,,,,,,120,,,0.2,786.9763834808255,,X,d,go,None,0,,,,,,,,,,,,,,,,,,74,001,19,w,Psychologie,2023-01-26_08h55.27.178,00_bat_bachelor,2022.2.4,59.951079842963544,
,,,,,,,,,,,,1,0,1,0,121,0,121,0,,,,,,,121,,,0.2,787.9775660279847,,Y,l,go,l,1,0.3412476234079804,,,,,,,,,,,,,,,,,74,001,19,w,Psychologie,2023-01-26_08h55.27.178,00_bat_bachelor,2022.2.4,59.951079842963544,
,,,,,,,,,,,,1,0,1,0,122,0,122,0,,,,,,,122,,,0.2,788.6279892770981,,X,d,go,d,1,0.33000978888594545,,,,,,,,,,,,,,,,,74,001,19,w,Psychologie,2023-01-26_08h55.27.178,00_bat_bachelor,2022.2.4,59.951079842963544,
,,,,,,,,,,,,1,0,1,0,123,0,123,0,,,,,,,123,,,0.2,789.2616532290995,,X,None,nogo,None,1,,,,,,,,,,,,,,,,,,74,001,19,w,Psychologie,2023-01-26_08h55.27.178,00_bat_bachelor,2022.2.4,59.951079842963544,
,,,,,,,,,,,,1,0,1,0,124,0,124,0,,,,,,,124,,,0.2,790.262630685058,,Y,l,go,l,1,0.19968765991507098,,,,,,,,,,,,,,,,,74,001,19,w,Psychologie,2023-01-26_08h55.27.178,00_bat_bachelor,2022.2.4,59.951079842963544,
,,,,,,,,,,,,1,0,1,0,125,0,125,0,,,,,,,125,,,0.2,790.7627899580111,,X,d,go,d,1,0.5309521417366341,,,,,,,,,,,,,,,,,74,001,19,w,Psychologie,2023-01-26_08h55.27.178,00_bat_bachelor,2022.2.4,59.951079842963544,
,,,,,,,,,,,,1,0,1,0,126,0,126,0,,,,,,,126,,,0.2,791.5969807471265,,Y,l,go,l,1,0.41792409858317114,,,,,,,,,,,,,,,,,74,001,19,w,Psychologie,2023-01-26_08h55.27.178,00_bat_bachelor,2022.2.4,59.951079842963544,
,,,,,,,,,,,,1,0,1,0,127,0,127,0,,,,,,,127,,,0.2,792.3308295721363,,X,d,go,d,1,0.5956460540473927,,,,,,,,,,,,,,,,,74,001,19,w,Psychologie,2023-01-26_08h55.27.178,00_bat_bachelor,2022.2.4,59.951079842963544,
,,,,,,,,,,,,1,0,1,0,128,0,128,0,,,,,,,128,,,0.2,793.2313133061689,,X,None,nogo,None,1,,,,,,,,,,,,,,,,,,74,001,19,w,Psychologie,2023-01-26_08h55.27.178,00_bat_bachelor,2022.2.4,59.951079842963544,
,,,,,,,,,,,,1,0,1,0,129,0,129,0,,,,,,,129,,,0.2,794.2319736707723,,X,None,nogo,l,0,0.2139926504169125,,,,,,,,,,,,,,,,,74,001,19,w,Psychologie,2023-01-26_08h55.27.178,00_bat_bachelor,2022.2.4,59.951079842963544,
,,,,,,,,,,,,1,0,1,0,130,0,130,0,,,,,,,130,,,0.2,794.7490459380206,,Y,l,go,None,0,,,,,,,,,,,,,,,,,,74,001,19,w,Psychologie,2023-01-26_08h55.27.178,00_bat_bachelor,2022.2.4,59.951079842963544,
,,,,,,,,,,,,1,0,1,0,131,0,131,0,,,,,,,131,,,0.2,795.7507046071114,,X,d,go,d,1,0.27905310870846733,,,,,,,,,,,,,,,,,74,001,19,w,Psychologie,2023-01-26_08h55.27.178,00_bat_bachelor,2022.2.4,59.951079842963544,
,,,,,,,,,,,,1,0,1,0,132,0,132,0,,,,,,,132,,,0.2,796.3680194444023,,Y,l,go,l,1,0.382872896065237,,,,,,,,,,,,,,,,,74,001,19,w,Psychologie,2023-01-26_08h55.27.178,00_bat_bachelor,2022.2.4,59.951079842963544,
,,,,,,,,,,,,1,0,1,0,133,0,133,0,,,,,,,133,,,0.2,797.0853654575185,,X,d,go,d,1,0.5440096153179184,,,,,,,,,,,,,,,,,74,001,19,w,Psychologie,2023-01-26_08h55.27.178,00_bat_bachelor,2022.2.4,59.951079842963544,
,,,,,,,,,,,,1,0,1,0,134,0,134,0,,,,,,,134,,,0.2,797.9689551063639,,Y,l,go,l,1,0.38054804419516586,,,,,,,,,,,,,,,,,74,001,19,w,Psychologie,2023-01-26_08h55.27.178,00_bat_bachelor,2022.2.4,59.951079842963544,
,,,,,,,,,,,,1,0,1,0,135,0,135,0,,,,,,,135,,,0.2,798.6864805136865,,Y,None,nogo,d,0,0.46279640626744367,,,,,,,,,,,,,,,,,74,001,19,w,Psychologie,2023-01-26_08h55.27.178,00_bat_bachelor,2022.2.4,59.951079842963544,
,,,,,,,,,,,,1,0,1,0,136,0,136,0,,,,,,,136,,,0.2,799.4870596175606,,X,d,go,d,1,0.5748465086508077,,,,,,,,,,,,,,,,,74,001,19,w,Psychologie,2023-01-26_08h55.27.178,00_bat_bachelor,2022.2.4,59.951079842963544,
,,,,,,,,,,,,1,0,1,0,137,0,137,0,,,,,,,137,,,0.2,800.404165921238,,Y,l,go,l,1,0.2010049951786641,,,,,,,,,,,,,,,,,74,001,19,w,Psychologie,2023-01-26_08h55.27.178,00_bat_bachelor,2022.2.4,59.951079842963544,
,,,,,,,,,,,,1,0,1,0,138,0,138,0,,,,,,,138,,,0.2,800.9549022374558,801.7556646143203,Y,None,nogo,None,1,,,,,,,,,,,,,,,,,,74,001,19,w,Psychologie,2023-01-26_08h55.27.178,00_bat_bachelor,2022.2.4,59.951079842963544,
,,,,,,,,,,,,1,0,1,0,139,0,139,0,,,,,,,139,,,0.2,801.9553565411479,802.7560413421306,X,d,go,None,0,,,,,,,,,,,,,,,,,,74,001,19,w,Psychologie,2023-01-26_08h55.27.178,00_bat_bachelor,2022.2.4,59.951079842963544,
,,,,,,,,,,,,1,0,1,0,140,0,140,0,,,,,,,140,,,0.2,802.9561715726159,,Y,l,go,l,1,0.035122572066029534,,,,,,,,,,,,,,,,,74,001,19,w,Psychologie,2023-01-26_08h55.27.178,00_bat_bachelor,2022.2.4,59.951079842963544,
,,,,,,,,,,,,1,0,1,0,141,0,141,0,,,,,,,141,,,0.2,803.3064266275323,804.1070052465657,X,d,go,None,0,,,,,,,,,,,,,,,,,,74,001,19,w,Psychologie,2023-01-26_08h55.27.178,00_bat_bachelor,2022.2.4,59.951079842963544,
,,,,,,,,,,,,1,0,1,0,142,0,142,0,,,,,,,142,,,0.2,804.3070632345334,,Y,l,go,d,0,0.3956302479491569,,,,,,,,,,,,,,,,,74,001,19,w,Psychologie,2023-01-26_08h55.27.178,00_bat_bachelor,2022.2.4,59.951079842963544,
,,,,,,,,,,,,1,0,1,0,143,0,143,0,,,,,,,143,,,0.2,805.0078749205568,805.8081815391779,Y,None,nogo,None,1,,,,,,,,,,,,,,,,,,74,001,19,w,Psychologie,2023-01-26_08h55.27.178,00_bat_bachelor,2022.2.4,59.951079842963544,
,,,,,,,,,,,,1,0,1,0,144,0,144,0,,,,,,,144,,,0.2,806.0084315274435,,X,d,go,d,1,0.34128204770968296,,,,,,,,,,,,,,,,,74,001,19,w,Psychologie,2023-01-26_08h55.27.178,00_bat_bachelor,2022.2.4,59.951079842963544,
,,,,,,,,,,,,1,0,1,0,145,0,145,0,,,,,,,145,,,0.2,806.6756625585549,,Y,l,go,l,1,0.3304505168052856,,,,,,,,,,,,,,,,,74,001,19,w,Psychologie,2023-01-26_08h55.27.178,00_bat_bachelor,2022.2.4,59.951079842963544,
,,,,,,,,,,,,1,0,1,0,146,0,146,0,,,,,,,146,,,0.2,807.3263010806986,,X,d,go,d,1,0.3357329487334937,,,,,,,,,,,,,,,,,74,001,19,w,Psychologie,2023-01-26_08h55.27.178,00_bat_bachelor,2022.2.4,59.951079842963544,
,,,,,,,,,,,,1,0,1,0,147,0,147,0,,,,,,,147,,,0.2,807.9764649354911,,X,None,nogo,l,0,0.26141865880344994,,,,,,,,,,,,,,,,,74,001,19,w,Psychologie,2023-01-26_08h55.27.178,00_bat_bachelor,2022.2.4,59.951079842963544,
,,,,,,,,,,,,1,0,1,0,148,0,148,0,,,,,,,148,,,0.2,808.5437413969776,809.3441653491172,Y,l,go,None,0,,,,,,,,,,,,,,,,,,74,001,19,w,Psychologie,2023-01-26_08h55.27.178,00_bat_bachelor,2022.2.4,59.951079842963544,
,,,,,,,,,,,,1,0,1,0,149,0,149,0,,,,,,,149,,,0.2,809.5445399435994,,X,d,go,d,1,0.23034758330322802,,,,,,,,,,,,,,,,,74,001,19,w,Psychologie,2023-01-26_08h55.27.178,00_bat_bachelor,2022.2.4,59.951079842963544,
,,,,,,,,,,,,1,0,1,0,150,0,150,0,,,,,,,150,,,0.2,810.0781189015252,810.878782854008,Y,l,go,None,0,,,,,,,,,,,,,,,,,,74,001,19,w,Psychologie,2023-01-26_08h55.27.178,00_bat_bachelor,2022.2.4,59.951079842963544,
,,,,,,,,,,,,1,0,1,0,151,0,151,0,,,,,,,151,,,0.2,811.0788049631228,,Y,None,nogo,d,0,0.2636712681269273,,,,,,,,,,,,,,,,,74,001,19,w,Psychologie,2023-01-26_08h55.27.178,00_bat_bachelor,2022.2.4,59.951079842963544,
,,,,,,,,,,,,1,0,1,0,152,0,152,0,,,,,,,152,,,0.2,811.6459631214093,812.4467638013593,X,d,go,None,0,,,,,,,,,,,,,,,,,,74,001,19,w,Psychologie,2023-01-26_08h55.27.178,00_bat_bachelor,2022.2.4,59.951079842963544,
,,,,,,,,,,,,1,0,1,0,153,0,153,0,,,,,,,153,,,0.2,812.6469357289025,813.447477984213,Y,l,go,None,0,,,,,,,,,,,,,,,,,,74,001,19,w,Psychologie,2023-01-26_08h55.27.178,00_bat_bachelor,2022.2.4,59.951079842963544,
,,,,,,,,,,,,1,0,1,0,154,0,154,0,,,,,,,154,,,0.2,813.6476120935113,,Y,None,nogo,d,0,0.15752565918955952,,,,,,,,,,,,,,,,,74,001,19,w,Psychologie,2023-01-26_08h55.27.178,00_bat_bachelor,2022.2.4,59.951079842963544,
,,,,,,,,,,,,1,0,1,0,155,0,155,0,,,,,,,155,,,0.2,814.1312515848549,,X,d,go,l,0,0.2672198793734424,,,,,,,,,,,,,,,,,74,001,19,w,Psychologie,2023-01-26_08h55.27.178,00_bat_bachelor,2022.2.4,59.951079842963544,
,,,,,,,,,,,,1,0,1,0,156,0,156,0,,,,,,,156,,,0.2,814.6984412583406,815.498871513526,Y,l,go,None,0,,,,,,,,,,,,,,,,,,74,001,19,w,Psychologie,2023-01-26_08h55.27.178,00_bat_bachelor,2022.2.4,59.951079842963544,
,,,,,,,,,,,,1,0,1,0,157,0,157,0,,,,,,,157,,,0.2,815.6991932594392,,X,d,go,d,1,0.18695358079276048,,,,,,,,,,,,,,,,,74,001,19,w,Psychologie,2023-01-26_08h55.27.178,00_bat_bachelor,2022.2.4,59.951079842963544,
,,,,,,,,,,,,1,0,1,0,158,0,158,0,,,,,,,158,,,0.2,816.2161981326644,817.0168805094145,X,None,nogo,None,1,,,,,,,,,,,,,,,,,,74,001,19,w,Psychologie,2023-01-26_08h55.27.178,00_bat_bachelor,2022.2.4,59.951079842963544,
,,,,,,,,,,,,1,0,1,0,159,0,159,0,,,,,,,159,,,0.2,817.2169026185293,,Y,l,go,l,1,0.2690254577319138,,,,,,,,,,,,,,,,,74,001,19,w,Psychologie,2023-01-26_08h55.27.178,00_bat_bachelor,2022.2.4,59.951079842963544,
,,,,,,,,,,,,1,0,1,0,160,0,160,0,,,,,,,160,,,0.2,817.8007269828813,818.6012159048114,X,d,go,None,0,,,,,,,,,,,,,,,,,,74,001,19,w,Psychologie,2023-01-26_08h55.27.178,00_bat_bachelor,2022.2.4,59.951079842963544,
,,,,,,,,,,,,1,0,1,0,161,0,161,0,,,,,,,161,,,0.2,818.8016118326632,,Y,l,go,d,0,0.076995117822662,,,,,,,,,,,,,,,,,74,001,19,w,Psychologie,2023-01-26_08h55.27.178,00_bat_bachelor,2022.2.4,59.951079842963544,
,,,,,,,,,,,,1,0,1,0,162,0,162,0,,,,,,,162,,,0.2,819.1851226935396,819.9858128278574,X,d,go,None,0,,,,,,,,,,,,,,,,,,74,001,19,w,Psychologie,2023-01-26_08h55.27.178,00_bat_bachelor,2022.2.4,59.951079842963544,
,,,,,,,,,,,,1,0,1,0,163,0,163,0,,,,,,,163,,,0.2,820.185985725082,820.9861148889177,X,None,nogo,None,1,,,,,,,,,,,,,,,,,,74,001,19,w,Psychologie,2023-01-26_08h55.27.178,00_bat_bachelor,2022.2.4,59.951079842963544,
,,,,,,,,,,,,1,0,1,0,164,0,164,0,,,,,,,164,,,0.2,821.1862058466068,,Y,l,go,d,0,0.15540589854936115,,,,,,,,,,,,,,,,,74,001,19,w,Psychologie,2023-01-26_08h55.27.178,00_bat_bachelor,2022.2.4,59.951079842963544,
,,,,,,,,,,,,1,0,1,0,165,0,165,0,,,,,,,165,,,0.2,821.6534414353082,822.4540646604728,X,d,go,None,0,,,,,,,,,,,,,,,,,,74,001,19,w,Psychologie,2023-01-26_08h55.27.178,00_bat_bachelor,2022.2.4,59.951079842963544,
,,,,,,,,,,,,1,0,1,0,166,0,166,0,,,,,,,166,,,0.2,822.654209921282,823.4547754493833,X,None,nogo,None,1,,,,,,,,,,,,,,,,,,74,001,19,w,Psychologie,2023-01-26_08h55.27.178,00_bat_bachelor,2022.2.4,59.951079842963544,
,,,,,,,,,,,,1,0,1,0,167,0,167,0,,,,,,,167,,,0.2,823.6549963466823,824.4553984805825,Y,l,go,None,0,,,,,,,,,,,,,,,,,,74,001,19,w,Psychologie,2023-01-26_08h55.27.178,00_bat_bachelor,2022.2.4,59.951079842963544,
,,,,,,,,,,,,1,0,1,0,168,0,168,0,,,,,,,168,,,0.2,824.6553265289695,,X,d,go,d,1,0.2873706965474412,,,,,,,,,,,,,,,,,74,001,19,w,Psychologie,2023-01-26_08h55.27.178,00_bat_bachelor,2022.2.4,59.951079842963544,
,,,,,,,,,,,,1,0,1,0,169,0,169,0,,,,,,,169,,,0.2,825.2560207360366,,Y,l,go,l,1,0.3902513310313225,,,,,,,,,,,,,,,,,74,001,19,w,Psychologie,2023-01-26_08h55.27.178,00_bat_bachelor,2022.2.4,59.951079842963544,
,,,,,,,,,,,,1,0,1,0,170,0,170,0,,,,,,,170,,,0.2,825.9562350878841,,Y,None,nogo,d,0,0.3777708280540537,,,,,,,,,,,,,,,,,74,001,19,w,Psychologie,2023-01-26_08h55.27.178,00_bat_bachelor,2022.2.4,59.951079842963544,
,,,,,,,,,,,,1,0,1,0,171,0,171,0,,,,,,,171,,,0.2,826.640446022473,,X,d,go,None,0,,,,,,,,,,,,,,,,,,74,001,19,w,Psychologie,2023-01-26_08h55.27.178,00_bat_bachelor,2022.2.4,59.951079842963544,
,,,,,,,,,,,,1,0,1,0,172,0,172,0,,,,,,,172,,,0.2,827.6411412962188,,Y,l,go,l,1,0.18085175374289975,,,,,,,,,,,,,,,,,74,001,19,w,Psychologie,2023-01-26_08h55.27.178,00_bat_bachelor,2022.2.4,59.951079842963544,
,,,,,,,,,,,,1,0,1,0,173,0,173,0,,,,,,,173,,,0.2,828.124547090265,,X,d,go,d,1,0.3538115204719361,,,,,,,,,,,,,,,,,74,001,19,w,Psychologie,2023-01-26_08h55.27.178,00_bat_bachelor,2022.2.4,59.951079842963544,
,,,,,,,,,,,,1,0,1,0,174,0,174,0,,,,,,,174,,,0.2,828.7918421214854,,X,None,nogo,l,0,0.5178408499632496,,,,,,,,,,,,,,,,,74,001,19,w,Psychologie,2023-01-26_08h55.27.178,00_bat_bachelor,2022.2.4,59.951079842963544,
,,,,,,,,,,,,1,0,1,0,175,0,175,0,,,,,,,175,,,0.2,829.6259475771512,,Y,l,go,None,0,,,,,,,,,,,,,,,,,,74,001,19,w,Psychologie,2023-01-26_08h55.27.178,00_bat_bachelor,2022.2.4,59.951079842963544,
,,,,,,,,,,,,1,0,1,0,176,0,176,0,,,,,,,176,,,0.2,830.626434365724,,X,d,go,l,0,0.043720402754843235,,,,,,,,,,,,,,,,,74,001,19,w,Psychologie,2023-01-26_08h55.27.178,00_bat_bachelor,2022.2.4,59.951079842963544,
,,,,,,,,,,,,1,0,1,0,177,0,177,0,,,,,,,177,,,0.2,830.9768814209383,,X,None,nogo,None,1,,,,,,,,,,,,,,,,,,74,001,19,w,Psychologie,2023-01-26_08h55.27.178,00_bat_bachelor,2022.2.4,59.951079842963544,
,,,,,,,,,,,,1,0,1,0,178,0,178,0,,,,,,,178,,,0.2,831.977473421779,,Y,l,go,None,0,,,,,,,,,,,,,,,,,,74,001,19,w,Psychologie,2023-01-26_08h55.27.178,00_bat_bachelor,2022.2.4,59.951079842963544,
,,,,,,,,,,,,1,0,1,0,179,0,179,0,,,,,,,179,,,0.2,832.9785560900345,,X,d,go,d,1,0.34803260295302607,,,,,,,,,,,,,,,,,74,001,19,w,Psychologie,2023-01-26_08h55.27.178,00_bat_bachelor,2022.2.4,59.951079842963544,
,,,,,,,,,,,,1,0,1,0,180,0,180,0,,,,,,,180,,,0.2,833.6288590965269,,Y,l,go,None,0,,,,,,,,,,,,,,,,,,74,001,19,w,Psychologie,2023-01-26_08h55.27.178,00_bat_bachelor,2022.2.4,59.951079842963544,
,,,,,,,,,,,,1,0,1,0,181,0,181,0,,,,,,,181,,,0.2,834.6298443100823,,X,d,go,d,1,0.4412041324249003,,,,,,,,,,,,,,,,,74,001,19,w,Psychologie,2023-01-26_08h55.27.178,00_bat_bachelor,2022.2.4,59.951079842963544,
,,,,,,,,,,,,1,0,1,0,182,0,182,0,,,,,,,182,,,0.2,835.3801944924053,,Y,l,go,l,1,0.6021415786526632,,,,,,,,,,,,,,,,,74,001,19,w,Psychologie,2023-01-26_08h55.27.178,00_bat_bachelor,2022.2.4,59.951079842963544,
,,,,,,,,,,,,1,0,1,0,183,0,183,0,,,,,,,183,,,0.2,836.2973870992428,,Y,None,nogo,d,0,0.5012817955866922,,,,,,,,,,,,,,,,,74,001,19,w,Psychologie,2023-01-26_08h55.27.178,00_bat_bachelor,2022.2.4,59.951079842963544,
,,,,,,,,,,,,1,0,1,0,184,0,184,0,,,,,,,184,,,0.2,837.1149722884584,,X,d,go,None,0,,,,,,,,,,,,,,,,,,74,001,19,w,Psychologie,2023-01-26_08h55.27.178,00_bat_bachelor,2022.2.4,59.951079842963544,
,,,,,,,,,,,,1,0,1,0,185,0,185,0,,,,,,,185,,,0.2,838.1154973801458,,Y,l,go,l,1,0.36301638232544065,,,,,,,,,,,,,,,,,74,001,19,w,Psychologie,2023-01-26_08h55.27.178,00_bat_bachelor,2022.2.4,59.951079842963544,
,,,,,,,,,,,,1,0,1,0,186,0,186,0,,,,,,,186,,,0.2,838.7827924113371,,Y,None,nogo,None,1,,,,,,,,,,,,,,,,,,74,001,19,w,Psychologie,2023-01-26_08h55.27.178,00_bat_bachelor,2022.2.4,59.951079842963544,
,,,,,,,,,,,,1,0,1,0,187,0,187,0,,,,,,,187,,,0.2,839.7837407763582,,X,d,go,d,1,0.5351291175174993,,,,,,,,,,,,,,,,,74,001,19,w,Psychologie,2023-01-26_08h55.27.178,00_bat_bachelor,2022.2.4,59.951079842963544,
,,,,,,,,,,,,1,0,1,0,188,0,188,0,,,,,,,188,,,0.2,840.6349648023897,841.4353150574316,Y,l,go,None,0,,,,,,,,,,,,,,,,,,74,001,19,w,Psychologie,2023-01-26_08h55.27.178,00_bat_bachelor,2022.2.4,59.951079842963544,
,,,,,,,,,,,,1,0,1,0,189,0,189,0,,,,,,,189,,,0.2,841.6354932879913,842.4360830585647,Y,None,nogo,None,1,,,,,,,,,,,,,,,,,,74,001,19,w,Psychologie,2023-01-26_08h55.27.178,00_bat_bachelor,2022.2.4,59.951079842963544,
,,,,,,,,,,,,1,0,1,0,190,0,190,0,,,,,,,190,,,0.2,842.6363180164772,,X,d,go,d,1,0.0972986624983605,,,,,,,,,,,,,,,,,74,001,19,w,Psychologie,2023-01-26_08h55.27.178,00_bat_bachelor,2022.2.4,59.951079842963544,
,,,,,,,,,,,,1,0,1,0,191,0,191,0,,,,,,,191,,,0.2,843.053481774783,,Y,l,go,l,1,0.4647222272469662,,,,,,,,,,,,,,,,,74,001,19,w,Psychologie,2023-01-26_08h55.27.178,00_bat_bachelor,2022.2.4,59.951079842963544,
,,,,,,,,,,,,1,0,1,0,192,0,192,0,,,,,,,192,,,0.2,843.8204744055402,844.6211175095232,X,d,go,None,0,,,,,,,,,,,,,,,,,,74,001,19,w,Psychologie,2023-01-26_08h55.27.178,00_bat_bachelor,2022.2.4,59.951079842963544,
,,,,,,,,,,,,1,0,1,0,193,0,193,0,,,,,,,193,,,0.2,844.8214421645389,845.6222326626594,Y,l,go,None,0,,,,,,,,,,,,,,,,,,74,001,19,w,Psychologie,2023-01-26_08h55.27.178,00_bat_bachelor,2022.2.4,59.951079842963544,
,,,,,,,,,,,,1,0,1,0,194,0,194,0,,,,,,,194,,,0.2,845.8222256808367,,X,d,go,d,1,0.41662421787623316,,,,,,,,,,,,,,,,,74,001,19,w,Psychologie,2023-01-26_08h55.27.178,00_bat_bachelor,2022.2.4,59.951079842963544,
,,,,,,,,,,,,1,0,1,0,195,0,195,0,,,,,,,195,,,0.2,846.539233269199,,Y,l,go,l,1,0.30625702705583535,,,,,,,,,,,,,,,,,74,001,19,w,Psychologie,2023-01-26_08h55.27.178,00_bat_bachelor,2022.2.4,59.951079842963544,
,,,,,,,,,,,,1,0,1,0,196,0,196,0,,,,,,,196,,,0.2,847.1732875247835,,X,d,go,d,1,0.44035128271207213,,,,,,,,,,,,,,,,,74,001,19,w,Psychologie,2023-01-26_08h55.27.178,00_bat_bachelor,2022.2.4,59.951079842963544,
,,,,,,,,,,,,1,0,1,0,197,0,197,0,,,,,,,197,,,0.2,847.9403737314569,,Y,l,go,l,1,0.45748779247514904,,,,,,,,,,,,,,,,,74,001,19,w,Psychologie,2023-01-26_08h55.27.178,00_bat_bachelor,2022.2.4,59.951079842963544,
,,,,,,,,,,,,1,0,1,0,198,0,198,0,,,,,,,198,,,0.2,848.7244597204262,,X,d,go,d,1,0.44234837652766146,,,,,,,,,,,,,,,,,74,001,19,w,Psychologie,2023-01-26_08h55.27.178,00_bat_bachelor,2022.2.4,59.951079842963544,
,,,,,,,,,,,,1,0,1,0,199,0,199,0,,,,,,,199,,,0.2,849.4750377819,850.275318218657,X,None,nogo,None,1,,,,,,,,,,,,,,,,,,74,001,19,w,Psychologie,2023-01-26_08h55.27.178,00_bat_bachelor,2022.2.4,59.951079842963544,
