loop_instruction.thisRepN,loop_instruction.thisTrialN,loop_instruction.thisN,loop_instruction.thisIndex,loop_rsi_practice.thisRepN,loop_rsi_practice.thisTrialN,loop_rsi_practice.thisN,loop_rsi_practice.thisIndex,loop_practice.thisRepN,loop_practice.thisTrialN,loop_practice.thisN,loop_practice.thisIndex,loop_exp.thisRepN,loop_exp.thisTrialN,loop_exp.thisN,loop_exp.thisIndex,loop_trials.thisRepN,loop_trials.thisTrialN,loop_trials.thisN,loop_trials.thisIndex,map_condition,map_x_key,map_y_key,key_resp_welcome.started,key_resp_welcome.keys,key_resp_welcome.rt,index,text_empty_rsi_practice.started,text_empty_rsi_practice.stopped,rsi,stimulus.started,stimulus,correct,trial_type,key_resp_trial.keys,key_resp_trial.corr,stimulus.stopped,key_resp_trial.rt,key_resp_instruction_rsi.started,key_resp_instruction_rsi.keys,key_resp_instruction_rsi.rt,key_resp_instruction_rsi.stopped,key_resp_instruction_final.started,key_resp_instruction_final.keys,key_resp_instruction_final.rt,key_resp_break.started,key_resp_break.keys,key_resp_break.rt,key_resp_break.stopped,key_resp_end_screen.started,image_end_screen.started,key_resp_end_screen.keys,participant,session,Alter,Geschlecht (w/m/d/andere),Studiengang,date,expName,psychopyVersion,frameRate,
,,,,0,0,0,0,0,0,0,0,,,,,,,,,0,d,l,1020.9775971018244,j,10.755981231341138,0,1031.7659618104808,1032.7807458033785,1,1032.7807458033785,X,d,go,None,0,,,,,,,,,,,,,,,,,76,001,22,w,Psychologie,2023-01-26_12h01.07.502,00_bat_bachelor,2022.2.4,60.071503256170914,
,,,,0,0,0,0,1,0,1,0,,,,,,,,,,,,,,,1,1034.1814093666617,1035.1821293663234,1,1035.1821293663234,Y,l,go,None,0,1035.982853826601,,,,,,,,,,,,,,,,76,001,22,w,Psychologie,2023-01-26_12h01.07.502,00_bat_bachelor,2022.2.4,60.071503256170914,
,,,,0,0,0,0,2,0,2,0,,,,,,,,,,,,,,,2,1036.583191959653,1037.5841534137726,1,1037.5841534137726,X,d,go,d,1,,0.30672569177113473,,,,,,,,,,,,,,,76,001,22,w,Psychologie,2023-01-26_12h01.07.502,00_bat_bachelor,2022.2.4,60.071503256170914,
,,,,0,0,0,0,3,0,3,0,,,,,,,,,,,,,,,3,1038.6016511023045,1039.6023114656564,1,1039.6023114656564,X,None,nogo,None,1,1040.4028652592096,,,,,,,,,,,,,,,,76,001,22,w,Psychologie,2023-01-26_12h01.07.502,00_bat_bachelor,2022.2.4,60.071503256170914,
,,,,0,0,0,0,4,0,4,0,,,,,,,,,,,,,,,4,1041.0035786649678,1042.003984482959,1,1042.003984482959,Y,l,go,None,0,,,,,,,,,,,,,,,,,76,001,22,w,Psychologie,2023-01-26_12h01.07.502,00_bat_bachelor,2022.2.4,60.071503256170914,
,,,,0,0,0,0,5,0,5,0,,,,,,,,,,,,,,,5,1043.4052865915,1044.4059576212894,1,1044.4059576212894,X,d,go,d,1,,0.3484129442367703,,,,,,,,,,,,,,,76,001,22,w,Psychologie,2023-01-26_12h01.07.502,00_bat_bachelor,2022.2.4,60.071503256170914,
,,,,0,0,0,0,6,0,6,0,,,,,,,,,,,,,,,6,1045.456872020848,1046.4575988084543,1,1046.4575988084543,Y,l,go,None,0,,,,,,,,,,,,,,,,,76,001,22,w,Psychologie,2023-01-26_12h01.07.502,00_bat_bachelor,2022.2.4,60.071503256170914,
,,,,0,0,0,0,7,0,7,0,,,,,,,,,,,,,,,7,1047.8584960685112,1048.8594560681377,1,1048.8594560681377,X,d,go,None,0,,,,,,,,,,,,,,,,,76,001,22,w,Psychologie,2023-01-26_12h01.07.502,00_bat_bachelor,2022.2.4,60.071503256170914,
,,,,0,0,0,0,8,0,8,0,,,,,,,,,,,,,,,8,1050.2605729645584,1051.2611373278778,1,1051.2611373278778,X,None,nogo,d,0,,0.21361203980632126,,,,,,,,,,,,,,,76,001,22,w,Psychologie,2023-01-26_12h01.07.502,00_bat_bachelor,2022.2.4,60.071503256170914,
,,,,0,0,0,0,9,0,9,0,,,,,,,,,,,,,,,9,1052.5788680829573,1053.5797233553603,1,1053.5797233553603,Y,l,go,None,0,1054.3804182398599,,,,,,,,,,,,,,,,76,001,22,w,Psychologie,2023-01-26_12h01.07.502,00_bat_bachelor,2022.2.4,60.071503256170914,
,,,,0,0,0,0,10,0,10,0,,,,,,,,,,,,,,,10,1054.9807956456207,1055.9816921302117,1,1055.9816921302117,X,d,go,d,1,,0.4365738711785525,,,,,,,,,,,,,,,76,001,22,w,Psychologie,2023-01-26_12h01.07.502,00_bat_bachelor,2022.2.4,60.071503256170914,
,,,,0,0,0,0,11,0,11,0,,,,,,,,,,,,,,,11,1057.132167208707,1058.1331567838788,1,1058.1331567838788,Y,l,go,None,0,,,,,,,,,,,,,,,,,76,001,22,w,Psychologie,2023-01-26_12h01.07.502,00_bat_bachelor,2022.2.4,60.071503256170914,
,,,,0,0,0,0,12,0,12,0,,,,,,,,,,,,,,,12,1059.5341321045998,1060.5350426496007,1,1060.5350426496007,X,d,go,None,0,,,,,,,,,,,,,,,,,76,001,22,w,Psychologie,2023-01-26_12h01.07.502,00_bat_bachelor,2022.2.4,60.071503256170914,
,,,,0,0,0,0,13,0,13,0,,,,,,,,,,,,,,,13,1061.9361629399937,1062.9367088791914,1,1062.9367088791914,Y,l,go,l,1,,0.5536807235330343,,,,,,,,,,,,,,,76,001,22,w,Psychologie,2023-01-26_12h01.07.502,00_bat_bachelor,2022.2.4,60.071503256170914,
,,,,0,0,0,0,14,0,14,0,,,,,,,,,,,,,,,14,1064.2043465676252,1065.20525420364,1,1065.20525420364,Y,None,nogo,d,0,,0.2530025662854314,,,,,,,,,,,,,,,76,001,22,w,Psychologie,2023-01-26_12h01.07.502,00_bat_bachelor,2022.2.4,60.071503256170914,
,,,,1,0,1,0,0,0,0,0,,,,,,,,,,,,,,,0,1069.5419270100538,1069.7418478827458,0.2,1069.7418478827458,X,d,go,None,0,,,1066.5826048085,j,2.9269644212909043,,,,,,,,,,,,76,001,22,w,Psychologie,2023-01-26_12h01.07.502,00_bat_bachelor,2022.2.4,60.071503256170914,
,,,,1,0,1,0,1,0,1,0,,,,,,,,,,,,,,,1,1071.1431335064117,1071.343267227523,0.2,1071.343267227523,Y,l,go,l,1,,0.2910127295181155,,,,,,,,,,,,,,,76,001,22,w,Psychologie,2023-01-26_12h01.07.502,00_bat_bachelor,2022.2.4,60.071503256170914,
,,,,1,0,1,0,2,0,2,0,,,,,,,,,,,,,,,2,1072.3438015303109,1072.5439289484639,0.2,1072.5439289484639,X,d,go,d,1,,0.36992129730060697,,,,,,,,,,,,,,,76,001,22,w,Psychologie,2023-01-26_12h01.07.502,00_bat_bachelor,2022.2.4,60.071503256170914,
,,,,1,0,1,0,3,0,3,0,,,,,,,,,,,,,,,3,1073.628337149974,1073.828537780093,0.2,1073.828537780093,Y,l,go,l,1,,0.3821598368231207,,,,,,,,,,,,,,,76,001,22,w,Psychologie,2023-01-26_12h01.07.502,00_bat_bachelor,2022.2.4,60.071503256170914,
,,,,1,0,1,0,4,0,4,0,,,,,,,,,,,,,,,4,1074.9125697393902,1075.1128367937636,0.2,1075.1128367937636,Y,None,nogo,d,0,,0.10598687990568578,,,,,,,,,,,,,,,76,001,22,w,Psychologie,2023-01-26_12h01.07.502,00_bat_bachelor,2022.2.4,60.071503256170914,
,,,,1,0,1,0,5,0,5,0,,,,,,,,,,,,,,,5,1076.3302834762726,1076.5305704094935,0.2,1076.5305704094935,X,d,go,d,1,,0.4960167515091598,,,,,,,,,,,,,,,76,001,22,w,Psychologie,2023-01-26_12h01.07.502,00_bat_bachelor,2022.2.4,60.071503256170914,
,,,,1,0,1,0,6,0,6,0,,,,,,,,,,,,,,,6,1077.7312932212371,1077.931629608851,0.2,1077.931629608851,Y,l,go,l,1,,0.3902611662633717,,,,,,,,,,,,,,,76,001,22,w,Psychologie,2023-01-26_12h01.07.502,00_bat_bachelor,2022.2.4,60.071503256170914,
,,,,1,0,1,0,7,0,7,0,,,,,,,,,,,,,,,7,1079.0321628935635,1079.2327402508818,0.2,1079.2327402508818,X,d,go,d,1,,0.5619716283399612,,,,,,,,,,,,,,,76,001,22,w,Psychologie,2023-01-26_12h01.07.502,00_bat_bachelor,2022.2.4,60.071503256170914,
,,,,1,0,1,0,8,0,8,0,,,,,,,,,,,,,,,8,1080.5000909089576,1080.7001523878425,0.2,1080.7001523878425,Y,l,go,l,1,,0.4056507346685976,,,,,,,,,,,,,,,76,001,22,w,Psychologie,2023-01-26_12h01.07.502,00_bat_bachelor,2022.2.4,60.071503256170914,
,,,,1,0,1,0,9,0,9,0,,,,,,,,,,,,,,,9,1081.8180136641022,1082.0180756275076,0.2,1082.0180756275076,X,d,go,d,1,,0.3993050407152623,,,,,,,,,,,,,,,76,001,22,w,Psychologie,2023-01-26_12h01.07.502,00_bat_bachelor,2022.2.4,60.071503256170914,
,,,,1,0,1,0,10,0,10,0,,,,,,,,,,,,,,,10,1083.1188843059354,1083.3190694211517,0.2,1083.3190694211517,X,None,nogo,d,0,,0.5389975791331381,,,,,,,,,,,,,,,76,001,22,w,Psychologie,2023-01-26_12h01.07.502,00_bat_bachelor,2022.2.4,60.071503256170914,
,,,,1,0,1,0,11,0,11,0,,,,,,,,,,,,,,,11,1084.9702778325882,1085.1704367657658,0.2,1085.1704367657658,Y,l,go,None,0,,,,,,,,,,,,,,,,,76,001,22,w,Psychologie,2023-01-26_12h01.07.502,00_bat_bachelor,2022.2.4,60.071503256170914,
,,,,1,0,1,0,12,0,12,0,,,,,,,,,,,,,,,12,1086.5715783894993,1086.7714076261036,0.2,1086.7714076261036,X,d,go,None,0,1087.5721849347465,,,,,,,,,,,,,,,,76,001,22,w,Psychologie,2023-01-26_12h01.07.502,00_bat_bachelor,2022.2.4,60.071503256170914,
,,,,1,0,1,0,13,0,13,0,,,,,,,,,,,,,,,13,1088.1729856131133,1088.3730664858595,0.2,1088.3730664858595,X,None,nogo,d,0,,0.3328410729300231,,,,,,,,,,,,,,,76,001,22,w,Psychologie,2023-01-26_12h01.07.502,00_bat_bachelor,2022.2.4,60.071503256170914,
,,,,1,0,1,0,14,0,14,0,,,,,,,,,,,,,,,14,1089.8075133054517,1090.0076494507957,0.2,1090.0076494507957,Y,l,go,l,1,,0.5065049887634814,,,,,,,,,,,,,,,76,001,22,w,Psychologie,2023-01-26_12h01.07.502,00_bat_bachelor,2022.2.4,60.071503256170914,
,,,,,,,,,,,,,,,,,,,,,,,,,,,,,,,,,,,,,,1091.2539770889562,None,,1091.2539770889562,1091.2539770889562,space,5.1196508733555675,,,,,,,,76,001,22,w,Psychologie,2023-01-26_12h01.07.502,00_bat_bachelor,2022.2.4,60.071503256170914,
,,,,,,,,,,,,0,0,0,0,0,0,0,0,,,,,,,0,,,1,1097.39621314127,X,d,go,d,1,,0.5907148872502148,,,,,,,,,,,,,,,76,001,22,w,Psychologie,2023-01-26_12h01.07.502,00_bat_bachelor,2022.2.4,60.071503256170914,
,,,,,,,,,,,,0,0,0,0,1,0,1,0,,,,,,,1,,,1,1099.0977546193171,Y,l,go,l,1,,0.3770243243779987,,,,,,,,,,,,,,,76,001,22,w,Psychologie,2023-01-26_12h01.07.502,00_bat_bachelor,2022.2.4,60.071503256170914,
,,,,,,,,,,,,0,0,0,0,2,0,2,0,,,,,,,2,,,1,1100.5820399601944,X,d,go,d,1,,0.3794771716929972,,,,,,,,,,,,,,,76,001,22,w,Psychologie,2023-01-26_12h01.07.502,00_bat_bachelor,2022.2.4,60.071503256170914,
,,,,,,,,,,,,0,0,0,0,3,0,3,0,,,,,,,3,,,1,1102.0666472404264,Y,l,go,l,1,,0.4153792147990316,,,,,,,,,,,,,,,76,001,22,w,Psychologie,2023-01-26_12h01.07.502,00_bat_bachelor,2022.2.4,60.071503256170914,
,,,,,,,,,,,,0,0,0,0,4,0,4,0,,,,,,,4,,,1,1103.5844928075094,X,d,go,d,1,,0.5779885905794799,,,,,,,,,,,,,,,76,001,22,w,Psychologie,2023-01-26_12h01.07.502,00_bat_bachelor,2022.2.4,60.071503256170914,
,,,,,,,,,,,,0,0,0,0,5,0,5,0,,,,,,,5,,,1,1105.268935627304,Y,l,go,l,1,,0.5087765029165894,,,,,,,,,,,,,,,76,001,22,w,Psychologie,2023-01-26_12h01.07.502,00_bat_bachelor,2022.2.4,60.071503256170914,
,,,,,,,,,,,,0,0,0,0,6,0,6,0,,,,,,,6,,,1,1106.8869876912795,X,d,go,d,1,,0.3474839748814702,,,,,,,,,,,,,,,76,001,22,w,Psychologie,2023-01-26_12h01.07.502,00_bat_bachelor,2022.2.4,60.071503256170914,
,,,,,,,,,,,,0,0,0,0,7,0,7,0,,,,,,,7,,,1,1108.3382388663013,Y,l,go,l,1,,0.4804123954381794,,,,,,,,,,,,,,,76,001,22,w,Psychologie,2023-01-26_12h01.07.502,00_bat_bachelor,2022.2.4,60.071503256170914,
,,,,,,,,,,,,0,0,0,0,8,0,8,0,,,,,,,8,,,1,1109.922515431419,Y,None,nogo,l,0,,0.31896132230758667,,,,,,,,,,,,,,,76,001,22,w,Psychologie,2023-01-26_12h01.07.502,00_bat_bachelor,2022.2.4,60.071503256170914,
,,,,,,,,,,,,0,0,0,0,9,0,9,0,,,,,,,9,,,1,1111.357032069238,Y,None,nogo,None,1,1112.1576566507574,,,,,,,,,,,,,,,,76,001,22,w,Psychologie,2023-01-26_12h01.07.502,00_bat_bachelor,2022.2.4,60.071503256170914,
,,,,,,,,,,,,0,0,0,0,10,0,10,0,,,,,,,10,,,1,1113.158473135205,X,d,go,d,1,,0.4277753299102187,,,,,,,,,,,,,,,76,001,22,w,Psychologie,2023-01-26_12h01.07.502,00_bat_bachelor,2022.2.4,60.071503256170914,
,,,,,,,,,,,,0,0,0,0,11,0,11,0,,,,,,,11,,,1,1114.6926716640592,Y,l,go,l,1,,0.268833831185475,,,,,,,,,,,,,,,76,001,22,w,Psychologie,2023-01-26_12h01.07.502,00_bat_bachelor,2022.2.4,60.071503256170914,
,,,,,,,,,,,,0,0,0,0,12,0,12,0,,,,,,,12,,,1,1116.0772843260784,X,d,go,d,1,,0.436093871248886,,,,,,,,,,,,,,,76,001,22,w,Psychologie,2023-01-26_12h01.07.502,00_bat_bachelor,2022.2.4,60.071503256170914,
,,,,,,,,,,,,0,0,0,0,13,0,13,0,,,,,,,13,,,1,1117.6460244141053,Y,l,go,l,1,,0.5149815906770527,,,,,,,,,,,,,,,76,001,22,w,Psychologie,2023-01-26_12h01.07.502,00_bat_bachelor,2022.2.4,60.071503256170914,
,,,,,,,,,,,,0,0,0,0,14,0,14,0,,,,,,,14,,,1,1119.2806359850802,X,d,go,d,1,,0.4962839027866721,,,,,,,,,,,,,,,76,001,22,w,Psychologie,2023-01-26_12h01.07.502,00_bat_bachelor,2022.2.4,60.071503256170914,
,,,,,,,,,,,,0,0,0,0,15,0,15,0,,,,,,,15,,,1,1120.8984664734453,Y,l,go,l,1,,0.510900623165071,,,,,,,,,,,,,,,76,001,22,w,Psychologie,2023-01-26_12h01.07.502,00_bat_bachelor,2022.2.4,60.071503256170914,
,,,,,,,,,,,,0,0,0,0,16,0,16,0,,,,,,,16,,,1,1122.5328390144277,X,d,go,d,1,,0.5737485925201327,,,,,,,,,,,,,,,76,001,22,w,Psychologie,2023-01-26_12h01.07.502,00_bat_bachelor,2022.2.4,60.071503256170914,
,,,,,,,,,,,,0,0,0,0,17,0,17,0,,,,,,,17,,,1,1124.2173283793963,X,None,nogo,d,0,,0.4400545966345817,,,,,,,,,,,,,,,76,001,22,w,Psychologie,2023-01-26_12h01.07.502,00_bat_bachelor,2022.2.4,60.071503256170914,
,,,,,,,,,,,,0,0,0,0,18,0,18,0,,,,,,,18,,,1,1125.7685523547698,Y,l,go,l,1,,0.44145580823533237,,,,,,,,,,,,,,,76,001,22,w,Psychologie,2023-01-26_12h01.07.502,00_bat_bachelor,2022.2.4,60.071503256170914,
,,,,,,,,,,,,0,0,0,0,19,0,19,0,,,,,,,19,,,1,1127.3195465118624,X,d,go,d,1,,0.5537456930615008,,,,,,,,,,,,,,,76,001,22,w,Psychologie,2023-01-26_12h01.07.502,00_bat_bachelor,2022.2.4,60.071503256170914,
,,,,,,,,,,,,0,0,0,0,20,0,20,0,,,,,,,20,,,1,1129.0043592706788,Y,l,go,l,1,,0.3903809238690883,,,,,,,,,,,,,,,76,001,22,w,Psychologie,2023-01-26_12h01.07.502,00_bat_bachelor,2022.2.4,60.071503256170914,
,,,,,,,,,,,,0,0,0,0,21,0,21,0,,,,,,,21,,,1,1130.5054707853124,X,d,go,d,1,,0.5361229139380157,,,,,,,,,,,,,,,76,001,22,w,Psychologie,2023-01-26_12h01.07.502,00_bat_bachelor,2022.2.4,60.071503256170914,
,,,,,,,,,,,,0,0,0,0,22,0,22,0,,,,,,,22,,,1,1132.156556530157,Y,l,go,None,0,1132.9568998997565,,,,,,,,,,,,,,,,76,001,22,w,Psychologie,2023-01-26_12h01.07.502,00_bat_bachelor,2022.2.4,60.071503256170914,
,,,,,,,,,,,,0,0,0,0,23,0,23,0,,,,,,,23,,,1,1133.9576819599606,X,d,go,d,1,,0.3971052842680365,,,,,,,,,,,,,,,76,001,22,w,Psychologie,2023-01-26_12h01.07.502,00_bat_bachelor,2022.2.4,60.071503256170914,
,,,,,,,,,,,,0,0,0,0,24,0,24,0,,,,,,,24,,,1,1135.4587760199793,Y,l,go,l,1,,0.49544220604002476,,,,,,,,,,,,,,,76,001,22,w,Psychologie,2023-01-26_12h01.07.502,00_bat_bachelor,2022.2.4,60.071503256170914,
,,,,,,,,,,,,0,0,0,0,25,0,25,0,,,,,,,25,,,1,1137.060021789046,Y,None,nogo,None,1,,,,,,,,,,,,,,,,,76,001,22,w,Psychologie,2023-01-26_12h01.07.502,00_bat_bachelor,2022.2.4,60.071503256170914,
,,,,,,,,,,,,0,0,0,0,26,0,26,0,,,,,,,26,,,1,1138.8614075824153,X,d,go,d,1,,0.436471083201468,,,,,,,,,,,,,,,76,001,22,w,Psychologie,2023-01-26_12h01.07.502,00_bat_bachelor,2022.2.4,60.071503256170914,
,,,,,,,,,,,,0,0,0,0,27,0,27,0,,,,,,,27,,,1,1140.4125166484155,Y,l,go,l,1,,0.5015808700118214,,,,,,,,,,,,,,,76,001,22,w,Psychologie,2023-01-26_12h01.07.502,00_bat_bachelor,2022.2.4,60.071503256170914,
,,,,,,,,,,,,0,0,0,0,28,0,28,0,,,,,,,28,,,1,1142.0305158640258,Y,None,nogo,None,1,,,,,,,,,,,,,,,,,76,001,22,w,Psychologie,2023-01-26_12h01.07.502,00_bat_bachelor,2022.2.4,60.071503256170914,
,,,,,,,,,,,,0,0,0,0,29,0,29,0,,,,,,,29,,,1,1143.8315622634254,X,d,go,d,1,,0.5057912920601666,,,,,,,,,,,,,,,76,001,22,w,Psychologie,2023-01-26_12h01.07.502,00_bat_bachelor,2022.2.4,60.071503256170914,
,,,,,,,,,,,,0,0,0,0,30,0,30,0,,,,,,,30,,,1,1145.4496836608741,Y,l,go,l,1,,0.2655038936063647,,,,,,,,,,,,,,,76,001,22,w,Psychologie,2023-01-26_12h01.07.502,00_bat_bachelor,2022.2.4,60.071503256170914,
,,,,,,,,,,,,0,0,0,0,31,0,31,0,,,,,,,31,,,1,1146.8175166945439,X,d,go,d,1,,0.5288511596154422,,,,,,,,,,,,,,,76,001,22,w,Psychologie,2023-01-26_12h01.07.502,00_bat_bachelor,2022.2.4,60.071503256170914,
,,,,,,,,,,,,0,0,0,0,32,0,32,0,,,,,,,32,,,1,1148.4520298414864,X,None,nogo,d,0,,0.3496148830745369,,,,,,,,,,,,,,,76,001,22,w,Psychologie,2023-01-26_12h01.07.502,00_bat_bachelor,2022.2.4,60.071503256170914,
,,,,,,,,,,,,0,0,0,0,33,0,33,0,,,,,,,33,,,1,1149.903115683468,Y,l,go,l,1,,0.6581466121133417,,,,,,,,,,,,,,,76,001,22,w,Psychologie,2023-01-26_12h01.07.502,00_bat_bachelor,2022.2.4,60.071503256170914,
,,,,,,,,,,,,0,0,0,0,34,0,34,0,,,,,,,34,,,1,1151.6711448866408,X,d,go,None,0,,,,,,,,,,,,,,,,,76,001,22,w,Psychologie,2023-01-26_12h01.07.502,00_bat_bachelor,2022.2.4,60.071503256170914,
,,,,,,,,,,,,0,0,0,0,35,0,35,0,,,,,,,35,,,1,1153.4725461951457,X,None,nogo,None,1,1154.272928837454,,,,,,,,,,,,,,,,76,001,22,w,Psychologie,2023-01-26_12h01.07.502,00_bat_bachelor,2022.2.4,60.071503256170914,
,,,,,,,,,,,,0,0,0,0,36,0,36,0,,,,,,,36,,,1,1155.273942170199,Y,l,go,None,0,1156.0742244487628,,,,,,,,,,,,,,,,76,001,22,w,Psychologie,2023-01-26_12h01.07.502,00_bat_bachelor,2022.2.4,60.071503256170914,
,,,,,,,,,,,,0,0,0,0,37,0,37,0,,,,,,,37,,,1,1157.075208690716,X,d,go,d,1,,0.4636909489054233,,,,,,,,,,,,,,,76,001,22,w,Psychologie,2023-01-26_12h01.07.502,00_bat_bachelor,2022.2.4,60.071503256170914,
,,,,,,,,,,,,0,0,0,0,38,0,38,0,,,,,,,38,,,1,1158.6430639305618,X,None,nogo,d,0,,0.5116899558342993,,,,,,,,,,,,,,,76,001,22,w,Psychologie,2023-01-26_12h01.07.502,00_bat_bachelor,2022.2.4,60.071503256170914,
,,,,,,,,,,,,0,0,0,0,39,0,39,0,,,,,,,39,,,1,1160.260739267571,Y,l,go,l,1,,0.31667089904658496,,,,,,,,,,,,,,,76,001,22,w,Psychologie,2023-01-26_12h01.07.502,00_bat_bachelor,2022.2.4,60.071503256170914,
,,,,,,,,,,,,0,0,0,0,40,0,40,0,,,,,,,40,,,1,1161.6788151860237,X,d,go,d,1,,0.4994252345059067,,,,,,,,,,,,,,,76,001,22,w,Psychologie,2023-01-26_12h01.07.502,00_bat_bachelor,2022.2.4,60.071503256170914,
,,,,,,,,,,,,0,0,0,0,41,0,41,0,,,,,,,41,,,1,1163.2800449552014,X,None,nogo,d,0,,0.35450263833627105,,,,,,,,,,,,,,,76,001,22,w,Psychologie,2023-01-26_12h01.07.502,00_bat_bachelor,2022.2.4,60.071503256170914,
,,,,,,,,,,,,0,0,0,0,42,0,42,0,,,,,,,42,,,1,1164.747642789036,Y,l,go,l,1,,0.48550669592805207,,,,,,,,,,,,,,,76,001,22,w,Psychologie,2023-01-26_12h01.07.502,00_bat_bachelor,2022.2.4,60.071503256170914,
,,,,,,,,,,,,0,0,0,0,43,0,43,0,,,,,,,43,,,1,1166.3488255278207,X,d,go,d,1,,0.5491992712486535,,,,,,,,,,,,,,,76,001,22,w,Psychologie,2023-01-26_12h01.07.502,00_bat_bachelor,2022.2.4,60.071503256170914,
,,,,,,,,,,,,0,0,0,0,44,0,44,0,,,,,,,44,,,1,1168.000251636142,Y,l,go,l,1,,0.5145040149800479,,,,,,,,,,,,,,,76,001,22,w,Psychologie,2023-01-26_12h01.07.502,00_bat_bachelor,2022.2.4,60.071503256170914,
,,,,,,,,,,,,0,0,0,0,45,0,45,0,,,,,,,45,,,1,1169.6178949731402,Y,None,nogo,None,1,,,,,,,,,,,,,,,,,76,001,22,w,Psychologie,2023-01-26_12h01.07.502,00_bat_bachelor,2022.2.4,60.071503256170914,
,,,,,,,,,,,,0,0,0,0,46,0,46,0,,,,,,,46,,,1,1171.419480523793,X,d,go,d,1,,0.42335448367521167,,,,,,,,,,,,,,,76,001,22,w,Psychologie,2023-01-26_12h01.07.502,00_bat_bachelor,2022.2.4,60.071503256170914,
,,,,,,,,,,,,0,0,0,0,47,0,47,0,,,,,,,47,,,1,1172.954153234372,Y,l,go,l,1,,0.3601385143119842,,,,,,,,,,,,,,,76,001,22,w,Psychologie,2023-01-26_12h01.07.502,00_bat_bachelor,2022.2.4,60.071503256170914,
,,,,,,,,,,,,0,0,0,0,48,0,48,0,,,,,,,48,,,1,1174.4217423410155,X,d,go,d,1,,0.4442795645445585,,,,,,,,,,,,,,,76,001,22,w,Psychologie,2023-01-26_12h01.07.502,00_bat_bachelor,2022.2.4,60.071503256170914,
,,,,,,,,,,,,0,0,0,0,49,0,49,0,,,,,,,49,,,1,1175.972887285985,Y,l,go,l,1,,0.445476169930771,,,,,,,,,,,,,,,76,001,22,w,Psychologie,2023-01-26_12h01.07.502,00_bat_bachelor,2022.2.4,60.071503256170914,
,,,,,,,,,,,,0,0,0,0,50,0,50,0,,,,,,,50,,,1,1177.5241883518174,X,d,go,d,1,,0.44657968427054584,,,,,,,,,,,,,,,76,001,22,w,Psychologie,2023-01-26_12h01.07.502,00_bat_bachelor,2022.2.4,60.071503256170914,
,,,,,,,,,,,,0,0,0,0,51,0,51,0,,,,,,,51,,,1,1179.0753468726762,Y,l,go,l,1,,0.5110843805596232,,,,,,,,,,,,,,,76,001,22,w,Psychologie,2023-01-26_12h01.07.502,00_bat_bachelor,2022.2.4,60.071503256170914,
,,,,,,,,,,,,0,0,0,0,52,0,52,0,,,,,,,52,,,1,1180.6930934821721,X,d,go,None,0,,,,,,,,,,,,,,,,,76,001,22,w,Psychologie,2023-01-26_12h01.07.502,00_bat_bachelor,2022.2.4,60.071503256170914,
,,,,,,,,,,,,0,0,0,0,53,0,53,0,,,,,,,53,,,1,1182.494581093546,Y,l,go,l,1,,0.3711242061108351,,,,,,,,,,,,,,,76,001,22,w,Psychologie,2023-01-26_12h01.07.502,00_bat_bachelor,2022.2.4,60.071503256170914,
,,,,,,,,,,,,0,0,0,0,54,0,54,0,,,,,,,54,,,1,1183.9790914040059,Y,None,nogo,None,1,,,,,,,,,,,,,,,,,76,001,22,w,Psychologie,2023-01-26_12h01.07.502,00_bat_bachelor,2022.2.4,60.071503256170914,
,,,,,,,,,,,,0,0,0,0,55,0,55,0,,,,,,,55,,,1,1185.7801935612224,Y,None,nogo,None,1,,,,,,,,,,,,,,,,,76,001,22,w,Psychologie,2023-01-26_12h01.07.502,00_bat_bachelor,2022.2.4,60.071503256170914,
,,,,,,,,,,,,0,0,0,0,56,0,56,0,,,,,,,56,,,1,1187.5817955967505,X,d,go,d,1,,0.32468980411067605,,,,,,,,,,,,,,,76,001,22,w,Psychologie,2023-01-26_12h01.07.502,00_bat_bachelor,2022.2.4,60.071503256170914,
,,,,,,,,,,,,0,0,0,0,57,0,57,0,,,,,,,57,,,1,1189.0159864164889,Y,l,go,l,1,,0.2820381885394454,,,,,,,,,,,,,,,76,001,22,w,Psychologie,2023-01-26_12h01.07.502,00_bat_bachelor,2022.2.4,60.071503256170914,
,,,,,,,,,,,,0,0,0,0,58,0,58,0,,,,,,,58,,,1,1190.4004710784648,Y,None,nogo,None,1,,,,,,,,,,,,,,,,,76,001,22,w,Psychologie,2023-01-26_12h01.07.502,00_bat_bachelor,2022.2.4,60.071503256170914,
,,,,,,,,,,,,0,0,0,0,59,0,59,0,,,,,,,59,,,1,1192.2020192961209,X,d,go,d,1,,0.42408805899322033,,,,,,,,,,,,,,,76,001,22,w,Psychologie,2023-01-26_12h01.07.502,00_bat_bachelor,2022.2.4,60.071503256170914,
,,,,,,,,,,,,0,0,0,0,60,0,60,0,,,,,,,60,,,1,1193.7363254611846,Y,l,go,l,1,,0.29814339289441705,,,,,,,,,,,,,,,76,001,22,w,Psychologie,2023-01-26_12h01.07.502,00_bat_bachelor,2022.2.4,60.071503256170914,
,,,,,,,,,,,,0,0,0,0,61,0,61,0,,,,,,,61,,,1,1195.137358478969,X,d,go,d,1,,0.5917990079615265,,,,,,,,,,,,,,,76,001,22,w,Psychologie,2023-01-26_12h01.07.502,00_bat_bachelor,2022.2.4,60.071503256170914,
,,,,,,,,,,,,0,0,0,0,62,0,62,0,,,,,,,62,,,1,1196.8387700174935,Y,l,go,l,1,,0.5393500637728721,,,,,,,,,,,,,,,76,001,22,w,Psychologie,2023-01-26_12h01.07.502,00_bat_bachelor,2022.2.4,60.071503256170914,
,,,,,,,,,,,,0,0,0,0,63,0,63,0,,,,,,,63,,,1,1198.490103035001,X,d,go,d,1,,0.37571038538590074,,,,,,,,,,,,,,,76,001,22,w,Psychologie,2023-01-26_12h01.07.502,00_bat_bachelor,2022.2.4,60.071503256170914,
,,,,,,,,,,,,0,0,0,0,64,0,64,0,,,,,,,64,,,1,1199.9743491034023,X,None,nogo,None,1,,,,,,,,,,,,,,,,,76,001,22,w,Psychologie,2023-01-26_12h01.07.502,00_bat_bachelor,2022.2.4,60.071503256170914,
,,,,,,,,,,,,0,0,0,0,65,0,65,0,,,,,,,65,,,1,1201.7757256845944,X,None,nogo,None,1,,,,,,,,,,,,,,,,,76,001,22,w,Psychologie,2023-01-26_12h01.07.502,00_bat_bachelor,2022.2.4,60.071503256170914,
,,,,,,,,,,,,0,0,0,0,66,0,66,0,,,,,,,66,,,1,1203.5773955988698,Y,l,go,l,1,,0.37698020320385695,,,,,,,,,,,,,,,76,001,22,w,Psychologie,2023-01-26_12h01.07.502,00_bat_bachelor,2022.2.4,60.071503256170914,
,,,,,,,,,,,,0,0,0,0,67,0,67,0,,,,,,,67,,,1,1205.0617657883558,X,d,go,d,1,,0.5082451091147959,,,,,,,,,,,,,,,76,001,22,w,Psychologie,2023-01-26_12h01.07.502,00_bat_bachelor,2022.2.4,60.071503256170914,
,,,,,,,,,,,,0,0,0,0,68,0,68,0,,,,,,,68,,,1,1206.6794275494758,Y,l,go,l,1,,0.23376039369031787,,,,,,,,,,,,,,,76,001,22,w,Psychologie,2023-01-26_12h01.07.502,00_bat_bachelor,2022.2.4,60.071503256170914,
,,,,,,,,,,,,0,0,0,0,69,0,69,0,,,,,,,69,,,1,1208.0140164780896,X,d,go,d,1,,0.29215454729273915,,,,,,,,,,,,,,,76,001,22,w,Psychologie,2023-01-26_12h01.07.502,00_bat_bachelor,2022.2.4,60.071503256170914,
,,,,,,,,,,,,0,0,0,0,70,0,70,0,,,,,,,70,,,1,1209.4151799199171,X,None,nogo,d,0,,0.4911808748729527,,,,,,,,,,,,,,,76,001,22,w,Psychologie,2023-01-26_12h01.07.502,00_bat_bachelor,2022.2.4,60.071503256170914,
,,,,,,,,,,,,0,0,0,0,71,0,71,0,,,,,,,71,,,1,1211.0163418103475,Y,l,go,None,0,,,,,,,,,,,,,,,,,76,001,22,w,Psychologie,2023-01-26_12h01.07.502,00_bat_bachelor,2022.2.4,60.071503256170914,
,,,,,,,,,,,,0,0,0,0,72,0,72,0,,,,,,,72,,,1,1212.8178279672284,X,d,go,d,1,,0.32025732146576047,,,,,,,,,,,,,,,76,001,22,w,Psychologie,2023-01-26_12h01.07.502,00_bat_bachelor,2022.2.4,60.071503256170914,
,,,,,,,,,,,,0,0,0,0,73,0,73,0,,,,,,,73,,,1,1214.2521312716417,X,None,nogo,None,1,1215.0527413077652,,,,,,,,,,,,,,,,76,001,22,w,Psychologie,2023-01-26_12h01.07.502,00_bat_bachelor,2022.2.4,60.071503256170914,
,,,,,,,,,,,,0,0,0,0,74,0,74,0,,,,,,,74,,,1,1216.0534860347398,Y,l,go,l,1,,0.5572283579967916,,,,,,,,,,,,,,,76,001,22,w,Psychologie,2023-01-26_12h01.07.502,00_bat_bachelor,2022.2.4,60.071503256170914,
,,,,,,,,,,,,0,0,0,0,75,0,75,0,,,,,,,75,,,1,1217.7213834079448,X,d,go,d,1,,0.6483483139891177,,,,,,,,,,,,,,,76,001,22,w,Psychologie,2023-01-26_12h01.07.502,00_bat_bachelor,2022.2.4,60.071503256170914,
,,,,,,,,,,,,0,0,0,0,76,0,76,0,,,,,,,76,,,1,1219.4728041344788,X,None,nogo,d,0,,0.33672276814468205,,,,,,,,,,,,,,,76,001,22,w,Psychologie,2023-01-26_12h01.07.502,00_bat_bachelor,2022.2.4,60.071503256170914,
,,,,,,,,,,,,0,0,0,0,77,0,77,0,,,,,,,77,,,1,1220.9238957944326,Y,l,go,None,0,,,,,,,,,,,,,,,,,76,001,22,w,Psychologie,2023-01-26_12h01.07.502,00_bat_bachelor,2022.2.4,60.071503256170914,
,,,,,,,,,,,,0,0,0,0,78,0,78,0,,,,,,,78,,,1,1222.7250110423192,X,d,go,d,1,,0.380779474042356,,,,,,,,,,,,,,,76,001,22,w,Psychologie,2023-01-26_12h01.07.502,00_bat_bachelor,2022.2.4,60.071503256170914,
,,,,,,,,,,,,0,0,0,0,79,0,79,0,,,,,,,79,,,1,1224.209601837676,X,None,nogo,None,1,1225.0103568434715,,,,,,,,,,,,,,,,76,001,22,w,Psychologie,2023-01-26_12h01.07.502,00_bat_bachelor,2022.2.4,60.071503256170914,
,,,,,,,,,,,,0,0,0,0,80,0,80,0,,,,,,,80,,,1,1226.010833449196,Y,l,go,l,1,,0.48638233193196356,,,,,,,,,,,,,,,76,001,22,w,Psychologie,2023-01-26_12h01.07.502,00_bat_bachelor,2022.2.4,60.071503256170914,
,,,,,,,,,,,,0,0,0,0,81,0,81,0,,,,,,,81,,,1,1227.6123429758009,X,d,go,d,1,,0.3110136897303164,,,,,,,,,,,,,,,76,001,22,w,Psychologie,2023-01-26_12h01.07.502,00_bat_bachelor,2022.2.4,60.071503256170914,
,,,,,,,,,,,,0,0,0,0,82,0,82,0,,,,,,,82,,,1,1229.0298899249174,Y,l,go,None,0,1229.8306691730395,,,,,,,,,,,,,,,,76,001,22,w,Psychologie,2023-01-26_12h01.07.502,00_bat_bachelor,2022.2.4,60.071503256170914,
,,,,,,,,,,,,0,0,0,0,83,0,83,0,,,,,,,83,,,1,1230.8314594756812,X,d,go,d,1,,0.6273388697300106,,,,,,,,,,,,,,,76,001,22,w,Psychologie,2023-01-26_12h01.07.502,00_bat_bachelor,2022.2.4,60.071503256170914,
,,,,,,,,,,,,0,0,0,0,84,0,84,0,,,,,,,84,,,1,1232.5661548769567,Y,l,go,l,1,,0.5884656764101237,,,,,,,,,,,,,,,76,001,22,w,Psychologie,2023-01-26_12h01.07.502,00_bat_bachelor,2022.2.4,60.071503256170914,
,,,,,,,,,,,,0,0,0,0,85,0,85,0,,,,,,,85,,,1,1234.2672037491575,X,d,go,d,1,,0.48629893781617284,,,,,,,,,,,,,,,76,001,22,w,Psychologie,2023-01-26_12h01.07.502,00_bat_bachelor,2022.2.4,60.071503256170914,
,,,,,,,,,,,,0,0,0,0,86,0,86,0,,,,,,,86,,,1,1235.8687273364048,Y,l,go,l,1,,0.46977191558107734,,,,,,,,,,,,,,,76,001,22,w,Psychologie,2023-01-26_12h01.07.502,00_bat_bachelor,2022.2.4,60.071503256170914,
,,,,,,,,,,,,0,0,0,0,87,0,87,0,,,,,,,87,,,1,1237.4532395377755,Y,None,nogo,None,1,,,,,,,,,,,,,,,,,76,001,22,w,Psychologie,2023-01-26_12h01.07.502,00_bat_bachelor,2022.2.4,60.071503256170914,
,,,,,,,,,,,,0,0,0,0,88,0,88,0,,,,,,,88,,,1,1239.2544449674897,X,d,go,None,0,,,,,,,,,,,,,,,,,76,001,22,w,Psychologie,2023-01-26_12h01.07.502,00_bat_bachelor,2022.2.4,60.071503256170914,
,,,,,,,,,,,,0,0,0,0,89,0,89,0,,,,,,,89,,,1,1241.055917063728,Y,l,go,l,1,,0.3055741770658642,,,,,,,,,,,,,,,76,001,22,w,Psychologie,2023-01-26_12h01.07.502,00_bat_bachelor,2022.2.4,60.071503256170914,
,,,,,,,,,,,,0,0,0,0,90,0,90,0,,,,,,,90,,,1,1242.4736414672807,X,d,go,d,1,,0.3605918474495411,,,,,,,,,,,,,,,76,001,22,w,Psychologie,2023-01-26_12h01.07.502,00_bat_bachelor,2022.2.4,60.071503256170914,
,,,,,,,,,,,,0,0,0,0,91,0,91,0,,,,,,,91,,,1,1243.9412150587887,X,None,nogo,d,0,,0.3962689209729433,,,,,,,,,,,,,,,76,001,22,w,Psychologie,2023-01-26_12h01.07.502,00_bat_bachelor,2022.2.4,60.071503256170914,
,,,,,,,,,,,,0,0,0,0,92,0,92,0,,,,,,,92,,,1,1245.4422950583976,Y,l,go,l,1,,0.5759614398702979,,,,,,,,,,,,,,,76,001,22,w,Psychologie,2023-01-26_12h01.07.502,00_bat_bachelor,2022.2.4,60.071503256170914,
,,,,,,,,,,,,0,0,0,0,93,0,93,0,,,,,,,93,,,1,1247.1270995747764,X,d,go,d,1,,0.555059147067368,,,,,,,,,,,,,,,76,001,22,w,Psychologie,2023-01-26_12h01.07.502,00_bat_bachelor,2022.2.4,60.071503256170914,
,,,,,,,,,,,,0,0,0,0,94,0,94,0,,,,,,,94,,,1,1248.794899493456,X,None,nogo,None,1,,,,,,,,,,,,,,,,,76,001,22,w,Psychologie,2023-01-26_12h01.07.502,00_bat_bachelor,2022.2.4,60.071503256170914,
,,,,,,,,,,,,0,0,0,0,95,0,95,0,,,,,,,95,,,1,1250.5964031047188,Y,l,go,l,1,,0.6526237057987601,,,,,,,,,,,,,,,76,001,22,w,Psychologie,2023-01-26_12h01.07.502,00_bat_bachelor,2022.2.4,60.071503256170914,
,,,,,,,,,,,,0,0,0,0,96,0,96,0,,,,,,,96,,,1,1252.3644138840027,X,d,go,d,1,,0.5497350285295397,,,,,,,,,,,,,,,76,001,22,w,Psychologie,2023-01-26_12h01.07.502,00_bat_bachelor,2022.2.4,60.071503256170914,
,,,,,,,,,,,,0,0,0,0,97,0,97,0,,,,,,,97,,,1,1254.0155364773236,X,None,nogo,None,1,,,,,,,,,,,,,,,,,76,001,22,w,Psychologie,2023-01-26_12h01.07.502,00_bat_bachelor,2022.2.4,60.071503256170914,
,,,,,,,,,,,,0,0,0,0,98,0,98,0,,,,,,,98,,,1,1255.8172573007178,Y,l,go,l,1,,0.472120035905391,,,,,,,,,,,,,,,76,001,22,w,Psychologie,2023-01-26_12h01.07.502,00_bat_bachelor,2022.2.4,60.071503256170914,
,,,,,,,,,,,,0,0,0,0,99,0,99,0,,,,,,,99,,,1,1257.4014170174487,X,d,go,d,1,,0.6316491703037173,,,,,,,,,,,,,,,76,001,22,w,Psychologie,2023-01-26_12h01.07.502,00_bat_bachelor,2022.2.4,60.071503256170914,
,,,,,,,,,,,,0,0,0,0,100,0,100,0,,,,,,,100,,,1,1259.1362365400419,Y,l,go,l,1,,0.5459260605275631,,,,,,,,,,,,,,,76,001,22,w,Psychologie,2023-01-26_12h01.07.502,00_bat_bachelor,2022.2.4,60.071503256170914,
,,,,,,,,,,,,0,0,0,0,101,0,101,0,,,,,,,101,,,1,1260.787459012121,Y,None,nogo,None,1,,,,,,,,,,,,,,,,,76,001,22,w,Psychologie,2023-01-26_12h01.07.502,00_bat_bachelor,2022.2.4,60.071503256170914,
,,,,,,,,,,,,0,0,0,0,102,0,102,0,,,,,,,102,,,1,1262.5889723205473,X,d,go,d,1,,0.3243358649779111,,,,,,,,,,,,,,,76,001,22,w,Psychologie,2023-01-26_12h01.07.502,00_bat_bachelor,2022.2.4,60.071503256170914,
,,,,,,,,,,,,0,0,0,0,103,0,103,0,,,,,,,103,,,1,1264.0233590190765,Y,l,go,l,1,,0.2344377269037068,,,,,,,,,,,,,,,76,001,22,w,Psychologie,2023-01-26_12h01.07.502,00_bat_bachelor,2022.2.4,60.071503256170914,
,,,,,,,,,,,,0,0,0,0,104,0,104,0,,,,,,,104,,,1,1265.3743430911563,X,d,go,d,1,,0.5641762334853411,,,,,,,,,,,,,,,76,001,22,w,Psychologie,2023-01-26_12h01.07.502,00_bat_bachelor,2022.2.4,60.071503256170914,
,,,,,,,,,,,,0,0,0,0,105,0,105,0,,,,,,,105,,,1,1267.0420761008281,Y,l,go,l,1,,0.5755056827329099,,,,,,,,,,,,,,,76,001,22,w,Psychologie,2023-01-26_12h01.07.502,00_bat_bachelor,2022.2.4,60.071503256170914,
,,,,,,,,,,,,0,0,0,0,106,0,106,0,,,,,,,106,,,1,1268.7271123747341,Y,None,nogo,None,1,1269.527446047403,,,,,,,,,,,,,,,,76,001,22,w,Psychologie,2023-01-26_12h01.07.502,00_bat_bachelor,2022.2.4,60.071503256170914,
,,,,,,,,,,,,0,0,0,0,107,0,107,0,,,,,,,107,,,1,1270.5283813194837,X,d,go,d,1,,0.4012604337185621,,,,,,,,,,,,,,,76,001,22,w,Psychologie,2023-01-26_12h01.07.502,00_bat_bachelor,2022.2.4,60.071503256170914,
,,,,,,,,,,,,0,0,0,0,108,0,108,0,,,,,,,108,,,1,1272.0461134321522,Y,l,go,l,1,,0.4034063720609993,,,,,,,,,,,,,,,76,001,22,w,Psychologie,2023-01-26_12h01.07.502,00_bat_bachelor,2022.2.4,60.071503256170914,
,,,,,,,,,,,,0,0,0,0,109,0,109,0,,,,,,,109,,,1,1273.5639827568084,X,d,go,d,1,,0.59797597466968,,,,,,,,,,,,,,,76,001,22,w,Psychologie,2023-01-26_12h01.07.502,00_bat_bachelor,2022.2.4,60.071503256170914,
,,,,,,,,,,,,0,0,0,0,110,0,110,0,,,,,,,110,,,1,1275.2650161138736,X,None,nogo,None,1,,,,,,,,,,,,,,,,,76,001,22,w,Psychologie,2023-01-26_12h01.07.502,00_bat_bachelor,2022.2.4,60.071503256170914,
,,,,,,,,,,,,0,0,0,0,111,0,111,0,,,,,,,111,,,1,1277.0667660282925,Y,l,go,l,1,,0.3758442036341876,,,,,,,,,,,,,,,76,001,22,w,Psychologie,2023-01-26_12h01.07.502,00_bat_bachelor,2022.2.4,60.071503256170914,
,,,,,,,,,,,,0,0,0,0,112,0,112,0,,,,,,,112,,,1,1278.5511085812468,X,d,go,d,1,,0.45832901215180755,,,,,,,,,,,,,,,76,001,22,w,Psychologie,2023-01-26_12h01.07.502,00_bat_bachelor,2022.2.4,60.071503256170914,
,,,,,,,,,,,,0,0,0,0,113,0,113,0,,,,,,,113,,,1,1280.119038972538,Y,l,go,l,1,,0.5708603514358401,,,,,,,,,,,,,,,76,001,22,w,Psychologie,2023-01-26_12h01.07.502,00_bat_bachelor,2022.2.4,60.071503256170914,
,,,,,,,,,,,,0,0,0,0,114,0,114,0,,,,,,,114,,,1,1281.8033722166438,Y,None,nogo,None,1,,,,,,,,,,,,,,,,,76,001,22,w,Psychologie,2023-01-26_12h01.07.502,00_bat_bachelor,2022.2.4,60.071503256170914,
,,,,,,,,,,,,0,0,0,0,115,0,115,0,,,,,,,115,,,1,1283.6050416461658,X,d,go,d,1,,0.23719069501385093,,,,,,,,,,,,,,,76,001,22,w,Psychologie,2023-01-26_12h01.07.502,00_bat_bachelor,2022.2.4,60.071503256170914,
,,,,,,,,,,,,0,0,0,0,116,0,116,0,,,,,,,116,,,1,1284.9559374758974,Y,l,go,l,1,,0.32694483338855207,,,,,,,,,,,,,,,76,001,22,w,Psychologie,2023-01-26_12h01.07.502,00_bat_bachelor,2022.2.4,60.071503256170914,
,,,,,,,,,,,,0,0,0,0,117,0,117,0,,,,,,,117,,,1,1286.3901855077129,Y,None,nogo,l,0,,0.41221461025997996,,,,,,,,,,,,,,,76,001,22,w,Psychologie,2023-01-26_12h01.07.502,00_bat_bachelor,2022.2.4,60.071503256170914,
,,,,,,,,,,,,0,0,0,0,118,0,118,0,,,,,,,118,,,1,1287.9082798019517,X,d,go,d,1,,0.6377383796498179,,,,,,,,,,,,,,,76,001,22,w,Psychologie,2023-01-26_12h01.07.502,00_bat_bachelor,2022.2.4,60.071503256170914,
,,,,,,,,,,,,0,0,0,0,119,0,119,0,,,,,,,119,,,1,1289.6595589530189,Y,l,go,l,1,,0.3749297799076885,,,,,,,,,,,,,,,76,001,22,w,Psychologie,2023-01-26_12h01.07.502,00_bat_bachelor,2022.2.4,60.071503256170914,
,,,,,,,,,,,,0,0,0,0,120,0,120,0,,,,,,,120,,,1,1291.144075566437,Y,None,nogo,None,1,,,,,,,,,,,,,,,,,76,001,22,w,Psychologie,2023-01-26_12h01.07.502,00_bat_bachelor,2022.2.4,60.071503256170914,
,,,,,,,,,,,,0,0,0,0,121,0,121,0,,,,,,,121,,,1,1292.9454448749311,X,d,go,d,1,,0.4658208873588592,,,,,,,,,,,,,,,76,001,22,w,Psychologie,2023-01-26_12h01.07.502,00_bat_bachelor,2022.2.4,60.071503256170914,
,,,,,,,,,,,,0,0,0,0,122,0,122,0,,,,,,,122,,,1,1294.513197811786,Y,l,go,l,1,,0.5616957498714328,,,,,,,,,,,,,,,76,001,22,w,Psychologie,2023-01-26_12h01.07.502,00_bat_bachelor,2022.2.4,60.071503256170914,
,,,,,,,,,,,,0,0,0,0,123,0,123,0,,,,,,,123,,,1,1296.1812430636492,Y,None,nogo,None,1,,,,,,,,,,,,,,,,,76,001,22,w,Psychologie,2023-01-26_12h01.07.502,00_bat_bachelor,2022.2.4,60.071503256170914,
,,,,,,,,,,,,0,0,0,0,124,0,124,0,,,,,,,124,,,1,1297.9825750386808,X,d,go,d,1,,0.3387135548982769,,,,,,,,,,,,,,,76,001,22,w,Psychologie,2023-01-26_12h01.07.502,00_bat_bachelor,2022.2.4,60.071503256170914,
,,,,,,,,,,,,0,0,0,0,125,0,125,0,,,,,,,125,,,1,1299.43349457765,Y,l,go,l,1,,0.5521093301940709,,,,,,,,,,,,,,,76,001,22,w,Psychologie,2023-01-26_12h01.07.502,00_bat_bachelor,2022.2.4,60.071503256170914,
,,,,,,,,,,,,0,0,0,0,126,0,126,0,,,,,,,126,,,1,1301.1016367992852,X,d,go,d,1,,0.42061751522123814,,,,,,,,,,,,,,,76,001,22,w,Psychologie,2023-01-26_12h01.07.502,00_bat_bachelor,2022.2.4,60.071503256170914,
,,,,,,,,,,,,0,0,0,0,127,0,127,0,,,,,,,127,,,1,1302.6358906007372,X,None,nogo,None,1,1303.4365064550657,,,,,,,,,,,,,,,,76,001,22,w,Psychologie,2023-01-26_12h01.07.502,00_bat_bachelor,2022.2.4,60.071503256170914,
,,,,,,,,,,,,0,0,0,0,128,0,128,0,,,,,,,128,,,1,1304.4372531212866,Y,l,go,l,1,,0.44514162465929985,,,,,,,,,,,,,,,76,001,22,w,Psychologie,2023-01-26_12h01.07.502,00_bat_bachelor,2022.2.4,60.071503256170914,
,,,,,,,,,,,,0,0,0,0,129,0,129,0,,,,,,,129,,,1,1305.9885173388757,X,d,go,d,1,,0.3332313757855445,,,,,,,,,,,,,,,76,001,22,w,Psychologie,2023-01-26_12h01.07.502,00_bat_bachelor,2022.2.4,60.071503256170914,
,,,,,,,,,,,,0,0,0,0,130,0,130,0,,,,,,,130,,,1,1307.4232681584544,Y,l,go,l,1,,0.5475983021315187,,,,,,,,,,,,,,,76,001,22,w,Psychologie,2023-01-26_12h01.07.502,00_bat_bachelor,2022.2.4,60.071503256170914,
,,,,,,,,,,,,0,0,0,0,131,0,131,0,,,,,,,131,,,1,1309.074309782125,X,d,go,d,1,,0.43108005565591156,,,,,,,,,,,,,,,76,001,22,w,Psychologie,2023-01-26_12h01.07.502,00_bat_bachelor,2022.2.4,60.071503256170914,
,,,,,,,,,,,,0,0,0,0,132,0,132,0,,,,,,,132,,,1,1310.6088530381676,X,None,nogo,d,0,,0.46537628141231835,,,,,,,,,,,,,,,76,001,22,w,Psychologie,2023-01-26_12h01.07.502,00_bat_bachelor,2022.2.4,60.071503256170914,
,,,,,,,,,,,,0,0,0,0,133,0,133,0,,,,,,,133,,,1,1312.1767010053154,Y,l,go,l,1,,0.6573102488182485,,,,,,,,,,,,,,,76,001,22,w,Psychologie,2023-01-26_12h01.07.502,00_bat_bachelor,2022.2.4,60.071503256170914,
,,,,,,,,,,,,0,0,0,0,134,0,134,0,,,,,,,134,,,1,1313.9450725114439,X,d,go,d,1,,0.2328580911271274,,,,,,,,,,,,,,,76,001,22,w,Psychologie,2023-01-26_12h01.07.502,00_bat_bachelor,2022.2.4,60.071503256170914,
,,,,,,,,,,,,0,0,0,0,135,0,135,0,,,,,,,135,,,1,1315.2793196220882,Y,l,go,l,1,,0.5941000978928059,,,,,,,,,,,,,,,76,001,22,w,Psychologie,2023-01-26_12h01.07.502,00_bat_bachelor,2022.2.4,60.071503256170914,
,,,,,,,,,,,,0,0,0,0,136,0,136,0,,,,,,,136,,,1,1316.9807684940752,Y,None,nogo,None,1,1317.7813984090462,,,,,,,,,,,,,,,,76,001,22,w,Psychologie,2023-01-26_12h01.07.502,00_bat_bachelor,2022.2.4,60.071503256170914,
,,,,,,,,,,,,0,0,0,0,137,0,137,0,,,,,,,137,,,1,1318.7822895601857,X,d,go,d,1,,0.57934858975932,,,,,,,,,,,,,,,76,001,22,w,Psychologie,2023-01-26_12h01.07.502,00_bat_bachelor,2022.2.4,60.071503256170914,
,,,,,,,,,,,,0,0,0,0,138,0,138,0,,,,,,,138,,,1,1320.4666121373884,Y,l,go,l,1,,0.33479113271459937,,,,,,,,,,,,,,,76,001,22,w,Psychologie,2023-01-26_12h01.07.502,00_bat_bachelor,2022.2.4,60.071503256170914,
,,,,,,,,,,,,0,0,0,0,139,0,139,0,,,,,,,139,,,1,1321.9174221006688,X,d,go,d,1,,0.6294140198733658,,,,,,,,,,,,,,,76,001,22,w,Psychologie,2023-01-26_12h01.07.502,00_bat_bachelor,2022.2.4,60.071503256170914,
,,,,,,,,,,,,0,0,0,0,140,0,140,0,,,,,,,140,,,1,1323.6522261081263,X,None,nogo,None,1,,,,,,,,,,,,,,,,,76,001,22,w,Psychologie,2023-01-26_12h01.07.502,00_bat_bachelor,2022.2.4,60.071503256170914,
,,,,,,,,,,,,0,0,0,0,141,0,141,0,,,,,,,141,,,1,1325.453470325563,Y,l,go,l,1,,0.38888807594776154,,,,,,,,,,,,,,,76,001,22,w,Psychologie,2023-01-26_12h01.07.502,00_bat_bachelor,2022.2.4,60.071503256170914,
,,,,,,,,,,,,0,0,0,0,142,0,142,0,,,,,,,142,,,1,1326.954411173705,X,d,go,d,1,,0.35953633277677,,,,,,,,,,,,,,,76,001,22,w,Psychologie,2023-01-26_12h01.07.502,00_bat_bachelor,2022.2.4,60.071503256170914,
,,,,,,,,,,,,0,0,0,0,143,0,143,0,,,,,,,143,,,1,1328.4222237952054,X,None,nogo,None,1,,,,,,,,,,,,,,,,,76,001,22,w,Psychologie,2023-01-26_12h01.07.502,00_bat_bachelor,2022.2.4,60.071503256170914,
,,,,,,,,,,,,0,0,0,0,144,0,144,0,,,,,,,144,,,1,1330.2238714066334,X,None,nogo,None,1,1331.0245008366182,,,,,,,,,,,,,,,,76,001,22,w,Psychologie,2023-01-26_12h01.07.502,00_bat_bachelor,2022.2.4,60.071503256170914,
,,,,,,,,,,,,0,0,0,0,145,0,145,0,,,,,,,145,,,1,1332.0249619272072,Y,l,go,l,1,,0.393578982912004,,,,,,,,,,,,,,,76,001,22,w,Psychologie,2023-01-26_12h01.07.502,00_bat_bachelor,2022.2.4,60.071503256170914,
,,,,,,,,,,,,0,0,0,0,146,0,146,0,,,,,,,146,,,1,1333.5263003509026,X,d,go,d,1,,0.31563768722116947,,,,,,,,,,,,,,,76,001,22,w,Psychologie,2023-01-26_12h01.07.502,00_bat_bachelor,2022.2.4,60.071503256170914,
,,,,,,,,,,,,0,0,0,0,147,0,147,0,,,,,,,147,,,1,1334.9439049968496,X,None,nogo,None,1,1335.7446270328946,,,,,,,,,,,,,,,,76,001,22,w,Psychologie,2023-01-26_12h01.07.502,00_bat_bachelor,2022.2.4,60.071503256170914,
,,,,,,,,,,,,0,0,0,0,148,0,148,0,,,,,,,148,,,1,1336.7453809720464,X,None,nogo,None,1,,,,,,,,,,,,,,,,,76,001,22,w,Psychologie,2023-01-26_12h01.07.502,00_bat_bachelor,2022.2.4,60.071503256170914,
,,,,,,,,,,,,0,0,0,0,149,0,149,0,,,,,,,149,,,1,1338.5470256742556,Y,l,go,l,1,,0.4622945860028267,,,,,,,,,,,,,,,76,001,22,w,Psychologie,2023-01-26_12h01.07.502,00_bat_bachelor,2022.2.4,60.071503256170914,
,,,,,,,,,,,,0,0,0,0,150,0,150,0,,,,,,,150,,,1,1340.1144484293181,X,d,go,d,1,,0.5595905387308449,,,,,,,,,,,,,,,76,001,22,w,Psychologie,2023-01-26_12h01.07.502,00_bat_bachelor,2022.2.4,60.071503256170914,
,,,,,,,,,,,,0,0,0,0,151,0,151,0,,,,,,,151,,,1,1341.7825765903108,Y,l,go,l,1,,0.491460632532835,,,,,,,,,,,,,,,76,001,22,w,Psychologie,2023-01-26_12h01.07.502,00_bat_bachelor,2022.2.4,60.071503256170914,
,,,,,,,,,,,,0,0,0,0,152,0,152,0,,,,,,,152,,,1,1343.3838689047843,X,d,go,d,1,,0.49087445088662207,,,,,,,,,,,,,,,76,001,22,w,Psychologie,2023-01-26_12h01.07.502,00_bat_bachelor,2022.2.4,60.071503256170914,
,,,,,,,,,,,,0,0,0,0,153,0,153,0,,,,,,,153,,,1,1344.9848097043578,Y,l,go,l,1,,0.6327303820289671,,,,,,,,,,,,,,,76,001,22,w,Psychologie,2023-01-26_12h01.07.502,00_bat_bachelor,2022.2.4,60.071503256170914,
,,,,,,,,,,,,0,0,0,0,154,0,154,0,,,,,,,154,,,1,1346.719714075327,X,d,go,d,1,,0.45019083423539996,,,,,,,,,,,,,,,76,001,22,w,Psychologie,2023-01-26_12h01.07.502,00_bat_bachelor,2022.2.4,60.071503256170914,
,,,,,,,,,,,,0,0,0,0,155,0,155,0,,,,,,,155,,,1,1348.2709176868666,Y,l,go,l,1,,0.3711149937007576,,,,,,,,,,,,,,,76,001,22,w,Psychologie,2023-01-26_12h01.07.502,00_bat_bachelor,2022.2.4,60.071503256170914,
,,,,,,,,,,,,0,0,0,0,156,0,156,0,,,,,,,156,,,1,1349.7551307855174,X,d,go,d,1,,0.3589971815235913,,,,,,,,,,,,,,,76,001,22,w,Psychologie,2023-01-26_12h01.07.502,00_bat_bachelor,2022.2.4,60.071503256170914,
,,,,,,,,,,,,0,0,0,0,157,0,157,0,,,,,,,157,,,1,1351.2231038918253,X,None,nogo,None,1,,,,,,,,,,,,,,,,,76,001,22,w,Psychologie,2023-01-26_12h01.07.502,00_bat_bachelor,2022.2.4,60.071503256170914,
,,,,,,,,,,,,0,0,0,0,158,0,158,0,,,,,,,158,,,1,1353.0242826549802,Y,l,go,None,0,,,,,,,,,,,,,,,,,76,001,22,w,Psychologie,2023-01-26_12h01.07.502,00_bat_bachelor,2022.2.4,60.071503256170914,
,,,,,,,,,,,,0,0,0,0,159,0,159,0,,,,,,,159,,,1,1354.8259191147517,X,d,go,d,1,,0.24842656846158206,,,,,,,,,,,,,,,76,001,22,w,Psychologie,2023-01-26_12h01.07.502,00_bat_bachelor,2022.2.4,60.071503256170914,
,,,,,,,,,,,,0,0,0,0,160,0,160,0,,,,,,,160,,,1,1356.1767393082846,Y,l,go,l,1,,0.43314260011538863,,,,,,,,,,,,,,,76,001,22,w,Psychologie,2023-01-26_12h01.07.502,00_bat_bachelor,2022.2.4,60.071503256170914,
,,,,,,,,,,,,0,0,0,0,161,0,161,0,,,,,,,161,,,1,1357.7114222005475,X,d,go,d,1,,0.38602844113484025,,,,,,,,,,,,,,,76,001,22,w,Psychologie,2023-01-26_12h01.07.502,00_bat_bachelor,2022.2.4,60.071503256170914,
,,,,,,,,,,,,0,0,0,0,162,0,162,0,,,,,,,162,,,1,1359.212496866705,Y,l,go,l,1,,0.2937516374513507,,,,,,,,,,,,,,,76,001,22,w,Psychologie,2023-01-26_12h01.07.502,00_bat_bachelor,2022.2.4,60.071503256170914,
,,,,,,,,,,,,0,0,0,0,163,0,163,0,,,,,,,163,,,1,1360.6136287935078,X,d,go,d,1,,0.42917460203170776,,,,,,,,,,,,,,,76,001,22,w,Psychologie,2023-01-26_12h01.07.502,00_bat_bachelor,2022.2.4,60.071503256170914,
,,,,,,,,,,,,0,0,0,0,164,0,164,0,,,,,,,164,,,1,1362.1480833222158,Y,l,go,l,1,,0.3657918449025601,,,,,,,,,,,,,,,76,001,22,w,Psychologie,2023-01-26_12h01.07.502,00_bat_bachelor,2022.2.4,60.071503256170914,
,,,,,,,,,,,,0,0,0,0,165,0,165,0,,,,,,,165,,,1,1363.6159187317826,X,d,go,d,1,,0.30712375207804143,,,,,,,,,,,,,,,76,001,22,w,Psychologie,2023-01-26_12h01.07.502,00_bat_bachelor,2022.2.4,60.071503256170914,
,,,,,,,,,,,,0,0,0,0,166,0,166,0,,,,,,,166,,,1,1365.0337837412953,Y,l,go,l,1,,0.2321167583577335,,,,,,,,,,,,,,,76,001,22,w,Psychologie,2023-01-26_12h01.07.502,00_bat_bachelor,2022.2.4,60.071503256170914,
,,,,,,,,,,,,0,0,0,0,167,0,167,0,,,,,,,167,,,1,1366.3680027306546,X,d,go,d,1,,0.401301161153242,,,,,,,,,,,,,,,76,001,22,w,Psychologie,2023-01-26_12h01.07.502,00_bat_bachelor,2022.2.4,60.071503256170914,
,,,,,,,,,,,,0,0,0,0,168,0,168,0,,,,,,,168,,,1,1367.885908903787,Y,l,go,l,1,,0.27632522163912654,,,,,,,,,,,,,,,76,001,22,w,Psychologie,2023-01-26_12h01.07.502,00_bat_bachelor,2022.2.4,60.071503256170914,
,,,,,,,,,,,,0,0,0,0,169,0,169,0,,,,,,,169,,,1,1369.2705133233685,Y,None,nogo,None,1,1370.0712440866046,,,,,,,,,,,,,,,,76,001,22,w,Psychologie,2023-01-26_12h01.07.502,00_bat_bachelor,2022.2.4,60.071503256170914,
,,,,,,,,,,,,0,0,0,0,170,0,170,0,,,,,,,170,,,1,1371.0718302682508,X,d,go,d,1,,0.3858825017232448,,,,,,,,,,,,,,,76,001,22,w,Psychologie,2023-01-26_12h01.07.502,00_bat_bachelor,2022.2.4,60.071503256170914,
,,,,,,,,,,,,0,0,0,0,171,0,171,0,,,,,,,171,,,1,1372.5726610557176,Y,l,go,l,1,,0.23040088010020554,,,,,,,,,,,,,,,76,001,22,w,Psychologie,2023-01-26_12h01.07.502,00_bat_bachelor,2022.2.4,60.071503256170914,
,,,,,,,,,,,,0,0,0,0,172,0,172,0,,,,,,,172,,,1,1373.907076408621,Y,None,nogo,d,0,,0.20769640640355647,,,,,,,,,,,,,,,76,001,22,w,Psychologie,2023-01-26_12h01.07.502,00_bat_bachelor,2022.2.4,60.071503256170914,
,,,,,,,,,,,,0,0,0,0,173,0,173,0,,,,,,,173,,,1,1375.224908981938,X,d,go,d,1,,0.6166397230699658,,,,,,,,,,,,,,,76,001,22,w,Psychologie,2023-01-26_12h01.07.502,00_bat_bachelor,2022.2.4,60.071503256170914,
,,,,,,,,,,,,0,0,0,0,174,0,174,0,,,,,,,174,,,1,1376.9425454824232,Y,l,go,l,1,,0.4343047814909369,,,,,,,,,,,,,,,76,001,22,w,Psychologie,2023-01-26_12h01.07.502,00_bat_bachelor,2022.2.4,60.071503256170914,
,,,,,,,,,,,,0,0,0,0,175,0,175,0,,,,,,,175,,,1,1378.4939920029137,Y,None,nogo,l,0,,0.33947573648765683,,,,,,,,,,,,,,,76,001,22,w,Psychologie,2023-01-26_12h01.07.502,00_bat_bachelor,2022.2.4,60.071503256170914,
,,,,,,,,,,,,0,0,0,0,176,0,176,0,,,,,,,176,,,1,1379.9450220873114,X,d,go,d,1,,0.3936851646285504,,,,,,,,,,,,,,,76,001,22,w,Psychologie,2023-01-26_12h01.07.502,00_bat_bachelor,2022.2.4,60.071503256170914,
,,,,,,,,,,,,0,0,0,0,177,0,177,0,,,,,,,177,,,1,1381.4462397836614,Y,l,go,l,1,,0.5079672911670059,,,,,,,,,,,,,,,76,001,22,w,Psychologie,2023-01-26_12h01.07.502,00_bat_bachelor,2022.2.4,60.071503256170914,
,,,,,,,,,,,,0,0,0,0,178,0,178,0,,,,,,,178,,,1,1383.06418663566,Y,None,nogo,l,0,,0.3307538013905287,,,,,,,,,,,,,,,76,001,22,w,Psychologie,2023-01-26_12h01.07.502,00_bat_bachelor,2022.2.4,60.071503256170914,
,,,,,,,,,,,,0,0,0,0,179,0,179,0,,,,,,,179,,,1,1384.498265455477,X,d,go,d,1,,0.41436103358864784,,,,,,,,,,,,,,,76,001,22,w,Psychologie,2023-01-26_12h01.07.502,00_bat_bachelor,2022.2.4,60.071503256170914,
,,,,,,,,,,,,0,0,0,0,180,0,180,0,,,,,,,180,,,1,1386.0163398708683,Y,l,go,None,0,1386.8169140282553,,,,,,,,,,,,,,,,76,001,22,w,Psychologie,2023-01-26_12h01.07.502,00_bat_bachelor,2022.2.4,60.071503256170914,
,,,,,,,,,,,,0,0,0,0,181,0,181,0,,,,,,,181,,,1,1387.8177508763038,Y,None,nogo,None,1,1388.6183303669095,,,,,,,,,,,,,,,,76,001,22,w,Psychologie,2023-01-26_12h01.07.502,00_bat_bachelor,2022.2.4,60.071503256170914,
,,,,,,,,,,,,0,0,0,0,182,0,182,0,,,,,,,182,,,1,1389.6188506090548,X,d,go,d,1,,0.38275377615354955,,,,,,,,,,,,,,,76,001,22,w,Psychologie,2023-01-26_12h01.07.502,00_bat_bachelor,2022.2.4,60.071503256170914,
,,,,,,,,,,,,0,0,0,0,183,0,183,0,,,,,,,183,,,1,1391.1034927982837,Y,l,go,l,1,,0.3544148807413876,,,,,,,,,,,,,,,76,001,22,w,Psychologie,2023-01-26_12h01.07.502,00_bat_bachelor,2022.2.4,60.071503256170914,
,,,,,,,,,,,,0,0,0,0,184,0,184,0,,,,,,,184,,,1,1392.5715483289678,X,d,go,d,1,,0.45390574145130813,,,,,,,,,,,,,,,76,001,22,w,Psychologie,2023-01-26_12h01.07.502,00_bat_bachelor,2022.2.4,60.071503256170914,
,,,,,,,,,,,,0,0,0,0,185,0,185,0,,,,,,,185,,,1,1394.1389279325958,X,None,nogo,d,0,,0.5828661636915058,,,,,,,,,,,,,,,76,001,22,w,Psychologie,2023-01-26_12h01.07.502,00_bat_bachelor,2022.2.4,60.071503256170914,
,,,,,,,,,,,,0,0,0,0,186,0,186,0,,,,,,,186,,,1,1395.8237469946034,Y,l,go,l,1,,0.5301321288570762,,,,,,,,,,,,,,,76,001,22,w,Psychologie,2023-01-26_12h01.07.502,00_bat_bachelor,2022.2.4,60.071503256170914,
,,,,,,,,,,,,0,0,0,0,187,0,187,0,,,,,,,187,,,1,1397.4583508081269,X,d,go,d,1,,0.6084554847329855,,,,,,,,,,,,,,,76,001,22,w,Psychologie,2023-01-26_12h01.07.502,00_bat_bachelor,2022.2.4,60.071503256170914,
,,,,,,,,,,,,0,0,0,0,188,0,188,0,,,,,,,188,,,1,1399.1763397932518,X,None,nogo,d,0,,0.41004394460469484,,,,,,,,,,,,,,,76,001,22,w,Psychologie,2023-01-26_12h01.07.502,00_bat_bachelor,2022.2.4,60.071503256170914,
,,,,,,,,,,,,0,0,0,0,189,0,189,0,,,,,,,189,,,1,1400.6940534817986,Y,l,go,l,1,,0.6033078508917242,,,,,,,,,,,,,,,76,001,22,w,Psychologie,2023-01-26_12h01.07.502,00_bat_bachelor,2022.2.4,60.071503256170914,
,,,,,,,,,,,,0,0,0,0,190,0,190,0,,,,,,,190,,,1,1402.4121326487511,X,d,go,d,1,,0.5020395363681018,,,,,,,,,,,,,,,76,001,22,w,Psychologie,2023-01-26_12h01.07.502,00_bat_bachelor,2022.2.4,60.071503256170914,
,,,,,,,,,,,,0,0,0,0,191,0,191,0,,,,,,,191,,,1,1404.0298128339928,Y,l,go,l,1,,0.4032197054475546,,,,,,,,,,,,,,,76,001,22,w,Psychologie,2023-01-26_12h01.07.502,00_bat_bachelor,2022.2.4,60.071503256170914,
,,,,,,,,,,,,0,0,0,0,192,0,192,0,,,,,,,192,,,1,1405.547600219259,X,d,go,d,1,,0.45449095335789025,,,,,,,,,,,,,,,76,001,22,w,Psychologie,2023-01-26_12h01.07.502,00_bat_bachelor,2022.2.4,60.071503256170914,
,,,,,,,,,,,,0,0,0,0,193,0,193,0,,,,,,,193,,,1,1407.1155519438908,Y,l,go,l,1,,0.37419378012418747,,,,,,,,,,,,,,,76,001,22,w,Psychologie,2023-01-26_12h01.07.502,00_bat_bachelor,2022.2.4,60.071503256170914,
,,,,,,,,,,,,0,0,0,0,194,0,194,0,,,,,,,194,,,1,1408.60020237579,Y,None,nogo,l,0,,0.6329602003097534,,,,,,,,,,,,,,,76,001,22,w,Psychologie,2023-01-26_12h01.07.502,00_bat_bachelor,2022.2.4,60.071503256170914,
,,,,,,,,,,,,0,0,0,0,195,0,195,0,,,,,,,195,,,1,1410.3348609285895,X,d,go,d,1,,0.33819719147868454,,,,,,,,,,,,,,,76,001,22,w,Psychologie,2023-01-26_12h01.07.502,00_bat_bachelor,2022.2.4,60.071503256170914,
,,,,,,,,,,,,0,0,0,0,196,0,196,0,,,,,,,196,,,1,1411.7859710128978,Y,l,go,None,0,1412.586599473143,,,,,,,,,,,,,,,,76,001,22,w,Psychologie,2023-01-26_12h01.07.502,00_bat_bachelor,2022.2.4,60.071503256170914,
,,,,,,,,,,,,0,0,0,0,197,0,197,0,,,,,,,197,,,1,1413.5873480788432,X,d,go,d,1,,0.49592947866767645,,,,,,,,,,,,,,,76,001,22,w,Psychologie,2023-01-26_12h01.07.502,00_bat_bachelor,2022.2.4,60.071503256170914,
,,,,,,,,,,,,0,0,0,0,198,0,198,0,,,,,,,198,,,1,1415.1883092420176,X,None,nogo,None,1,,,,,,,,,,,,,,,,,76,001,22,w,Psychologie,2023-01-26_12h01.07.502,00_bat_bachelor,2022.2.4,60.071503256170914,
,,,,,,,,,,,,0,0,0,0,199,0,199,0,,,,,,,199,,,1,1416.9899524897337,Y,l,go,l,1,,0.38805122789926827,,,,,,,,,,,,,,,76,001,22,w,Psychologie,2023-01-26_12h01.07.502,00_bat_bachelor,2022.2.4,60.071503256170914,
,,,,,,,,,,,,0,0,0,0,200,0,200,0,,,,,,,200,,,1,1418.4911008528434,X,d,go,d,1,,0.4229457564651966,,,,,,,,,,,,,,,76,001,22,w,Psychologie,2023-01-26_12h01.07.502,00_bat_bachelor,2022.2.4,60.071503256170914,
,,,,,,,,,,,,0,0,0,0,201,0,201,0,,,,,,,201,,,1,1420.0255510178395,X,None,nogo,None,1,1420.8259268722031,,,,,,,,,,,,,,,,76,001,22,w,Psychologie,2023-01-26_12h01.07.502,00_bat_bachelor,2022.2.4,60.071503256170914,
,,,,,,,,,,,,0,0,0,0,202,0,202,0,,,,,,,202,,,1,1421.8266958415043,Y,l,go,l,1,,0.38285753363743424,,,,,,,,,,,,,,,76,001,22,w,Psychologie,2023-01-26_12h01.07.502,00_bat_bachelor,2022.2.4,60.071503256170914,
,,,,,,,,,,,,0,0,0,0,203,0,203,0,,,,,,,203,,,1,1423.311343849171,X,d,go,d,1,,0.33797755534760654,,,,,,,,,,,,,,,76,001,22,w,Psychologie,2023-01-26_12h01.07.502,00_bat_bachelor,2022.2.4,60.071503256170914,
,,,,,,,,,,,,0,0,0,0,204,0,204,0,,,,,,,204,,,1,1424.7624951454345,Y,l,go,l,1,,0.2627834100276232,,,,,,,,,,,,,,,76,001,22,w,Psychologie,2023-01-26_12h01.07.502,00_bat_bachelor,2022.2.4,60.071503256170914,
,,,,,,,,,,,,0,0,0,0,205,0,205,0,,,,,,,205,,,1,1426.1302336337976,X,d,go,d,1,,0.24048911780118942,,,,,,,,,,,,,,,76,001,22,w,Psychologie,2023-01-26_12h01.07.502,00_bat_bachelor,2022.2.4,60.071503256170914,
,,,,,,,,,,,,0,0,0,0,206,0,206,0,,,,,,,206,,,1,1427.481013584882,X,None,nogo,None,1,,,,,,,,,,,,,,,,,76,001,22,w,Psychologie,2023-01-26_12h01.07.502,00_bat_bachelor,2022.2.4,60.071503256170914,
,,,,,,,,,,,,0,0,0,0,207,0,207,0,,,,,,,207,,,1,1429.2826122266706,Y,l,go,l,1,,0.22437082254327834,,,,,,,,,,,,,,,76,001,22,w,Psychologie,2023-01-26_12h01.07.502,00_bat_bachelor,2022.2.4,60.071503256170914,
,,,,,,,,,,,,0,0,0,0,208,0,208,0,,,,,,,208,,,1,1430.616796307033,X,d,go,d,1,,0.6495187375694513,,,,,,,,,,,,,,,76,001,22,w,Psychologie,2023-01-26_12h01.07.502,00_bat_bachelor,2022.2.4,60.071503256170914,
,,,,,,,,,,,,0,0,0,0,209,0,209,0,,,,,,,209,,,1,1432.368245154852,Y,l,go,l,1,,0.5294232808519155,,,,,,,,,,,,,,,76,001,22,w,Psychologie,2023-01-26_12h01.07.502,00_bat_bachelor,2022.2.4,60.071503256170914,
,,,,,,,,,,,,0,0,0,0,210,0,210,0,,,,,,,210,,,1,1434.0026467866264,X,d,go,None,0,,,,,,,,,,,,,,,,,76,001,22,w,Psychologie,2023-01-26_12h01.07.502,00_bat_bachelor,2022.2.4,60.071503256170914,
,,,,,,,,,,,,0,0,0,0,211,0,211,0,,,,,,,211,,,1,1435.8043181553949,Y,l,go,l,1,,0.4531653781887144,,,,,,,,,,,,,,,76,001,22,w,Psychologie,2023-01-26_12h01.07.502,00_bat_bachelor,2022.2.4,60.071503256170914,
,,,,,,,,,,,,0,0,0,0,212,0,212,0,,,,,,,212,,,1,1437.372024546843,X,d,go,d,1,,0.2789545536506921,,,,,,,,,,,,,,,76,001,22,w,Psychologie,2023-01-26_12h01.07.502,00_bat_bachelor,2022.2.4,60.071503256170914,
,,,,,,,,,,,,0,0,0,0,213,0,213,0,,,,,,,213,,,1,1438.7565334513783,Y,l,go,l,1,,0.3011203610803932,,,,,,,,,,,,,,,76,001,22,w,Psychologie,2023-01-26_12h01.07.502,00_bat_bachelor,2022.2.4,60.071503256170914,
,,,,,,,,,,,,0,0,0,0,214,0,214,0,,,,,,,214,,,1,1440.1742486427538,X,d,go,d,1,,0.40384903852827847,,,,,,,,,,,,,,,76,001,22,w,Psychologie,2023-01-26_12h01.07.502,00_bat_bachelor,2022.2.4,60.071503256170914,
,,,,,,,,,,,,0,0,0,0,215,0,215,0,,,,,,,215,,,1,1441.6920151796658,Y,l,go,l,1,,0.2304023348260671,,,,,,,,,,,,,,,76,001,22,w,Psychologie,2023-01-26_12h01.07.502,00_bat_bachelor,2022.2.4,60.071503256170914,
,,,,,,,,,,,,0,0,0,0,216,0,216,0,,,,,,,216,,,1,1443.0261784116738,Y,None,nogo,d,0,,0.367266753455624,,,,,,,,,,,,,,,76,001,22,w,Psychologie,2023-01-26_12h01.07.502,00_bat_bachelor,2022.2.4,60.071503256170914,
,,,,,,,,,,,,0,0,0,0,217,0,217,0,,,,,,,217,,,1,1444.5106625403278,X,d,go,d,1,,0.41879836469888687,,,,,,,,,,,,,,,76,001,22,w,Psychologie,2023-01-26_12h01.07.502,00_bat_bachelor,2022.2.4,60.071503256170914,
,,,,,,,,,,,,0,0,0,0,218,0,218,0,,,,,,,218,,,1,1446.0453905235045,Y,l,go,l,1,,0.3883174096699804,,,,,,,,,,,,,,,76,001,22,w,Psychologie,2023-01-26_12h01.07.502,00_bat_bachelor,2022.2.4,60.071503256170914,
,,,,,,,,,,,,0,0,0,0,219,0,219,0,,,,,,,219,,,1,1447.5465626441874,X,d,go,d,1,,0.2954907880630344,,,,,,,,,,,,,,,76,001,22,w,Psychologie,2023-01-26_12h01.07.502,00_bat_bachelor,2022.2.4,60.071503256170914,
,,,,,,,,,,,,0,0,0,0,220,0,220,0,,,,,,,220,,,1,1448.947623783024,Y,l,go,l,1,,0.47830572980456054,,,,,,,,,,,,,,,76,001,22,w,Psychologie,2023-01-26_12h01.07.502,00_bat_bachelor,2022.2.4,60.071503256170914,
,,,,,,,,,,,,0,0,0,0,221,0,221,0,,,,,,,221,,,1,1450.5321931964718,Y,None,nogo,None,1,,,,,,,,,,,,,,,,,76,001,22,w,Psychologie,2023-01-26_12h01.07.502,00_bat_bachelor,2022.2.4,60.071503256170914,
,,,,,,,,,,,,0,0,0,0,222,0,222,0,,,,,,,222,,,1,1452.3335852927994,X,d,go,d,1,,0.500040507176891,,,,,,,,,,,,,,,76,001,22,w,Psychologie,2023-01-26_12h01.07.502,00_bat_bachelor,2022.2.4,60.071503256170914,
,,,,,,,,,,,,0,0,0,0,223,0,223,0,,,,,,,223,,,1,1453.9349149407353,Y,l,go,l,1,,0.25953638134524226,,,,,,,,,,,,,,,76,001,22,w,Psychologie,2023-01-26_12h01.07.502,00_bat_bachelor,2022.2.4,60.071503256170914,
,,,,,,,,,,,,0,0,0,0,224,0,224,0,,,,,,,224,,,1,1455.3025773079135,X,d,go,None,0,,,,,,,,,,,,,,,,,76,001,22,w,Psychologie,2023-01-26_12h01.07.502,00_bat_bachelor,2022.2.4,60.071503256170914,
,,,,,,,,,,,,0,0,0,0,225,0,225,0,,,,,,,225,,,1,1457.1036726769526,X,None,nogo,d,0,,0.5302218256983906,,,,,,,,,,,,,,,76,001,22,w,Psychologie,2023-01-26_12h01.07.502,00_bat_bachelor,2022.2.4,60.071503256170914,
,,,,,,,,,,,,0,0,0,0,226,0,226,0,,,,,,,226,,,1,1458.738276490476,Y,l,go,l,1,,0.6405854087788612,,,,,,,,,,,,,,,76,001,22,w,Psychologie,2023-01-26_12h01.07.502,00_bat_bachelor,2022.2.4,60.071503256170914,
,,,,,,,,,,,,0,0,0,0,227,0,227,0,,,,,,,227,,,1,1460.4898198838346,X,d,go,d,1,,0.6162867536768317,,,,,,,,,,,,,,,76,001,22,w,Psychologie,2023-01-26_12h01.07.502,00_bat_bachelor,2022.2.4,60.071503256170914,
,,,,,,,,,,,,0,0,0,0,228,0,228,0,,,,,,,228,,,1,1462.2075897175819,Y,l,go,l,1,,0.6263240820262581,,,,,,,,,,,,,,,76,001,22,w,Psychologie,2023-01-26_12h01.07.502,00_bat_bachelor,2022.2.4,60.071503256170914,
,,,,,,,,,,,,0,0,0,0,229,0,229,0,,,,,,,229,,,1,1463.94258039142,X,d,go,d,1,,0.5876836162060499,,,,,,,,,,,,,,,76,001,22,w,Psychologie,2023-01-26_12h01.07.502,00_bat_bachelor,2022.2.4,60.071503256170914,
,,,,,,,,,,,,0,0,0,0,230,0,230,0,,,,,,,230,,,1,1465.6434115667362,Y,l,go,l,1,,0.43762453738600016,,,,,,,,,,,,,,,76,001,22,w,Psychologie,2023-01-26_12h01.07.502,00_bat_bachelor,2022.2.4,60.071503256170914,
,,,,,,,,,,,,0,0,0,0,231,0,231,0,,,,,,,231,,,1,1467.1948416025843,X,d,go,d,1,,0.5824516185093671,,,,,,,,,,,,,,,76,001,22,w,Psychologie,2023-01-26_12h01.07.502,00_bat_bachelor,2022.2.4,60.071503256170914,
,,,,,,,,,,,,0,0,0,0,232,0,232,0,,,,,,,232,,,1,1468.8792121796869,X,None,nogo,None,1,,,,,,,,,,,,,,,,,76,001,22,w,Psychologie,2023-01-26_12h01.07.502,00_bat_bachelor,2022.2.4,60.071503256170914,
,,,,,,,,,,,,0,0,0,0,233,0,233,0,,,,,,,233,,,1,1470.6808287608437,Y,l,go,l,1,,0.5523008452728391,,,,,,,,,,,,,,,76,001,22,w,Psychologie,2023-01-26_12h01.07.502,00_bat_bachelor,2022.2.4,60.071503256170914,
,,,,,,,,,,,,0,0,0,0,234,0,234,0,,,,,,,234,,,1,1472.3488628612831,X,d,go,d,1,,0.2772682514041662,,,,,,,,,,,,,,,76,001,22,w,Psychologie,2023-01-26_12h01.07.502,00_bat_bachelor,2022.2.4,60.071503256170914,
,,,,,,,,,,,,0,0,0,0,235,0,235,0,,,,,,,235,,,1,1473.7331041293219,X,None,nogo,None,1,,,,,,,,,,,,,,,,,76,001,22,w,Psychologie,2023-01-26_12h01.07.502,00_bat_bachelor,2022.2.4,60.071503256170914,
,,,,,,,,,,,,0,0,0,0,236,0,236,0,,,,,,,236,,,1,1475.5343934379052,Y,l,go,l,1,,0.6442581340670586,,,,,,,,,,,,,,,76,001,22,w,Psychologie,2023-01-26_12h01.07.502,00_bat_bachelor,2022.2.4,60.071503256170914,
,,,,,,,,,,,,0,0,0,0,237,0,237,0,,,,,,,237,,,1,1477.2858655583113,X,d,go,d,1,,0.23599505936726928,,,,,,,,,,,,,,,76,001,22,w,Psychologie,2023-01-26_12h01.07.502,00_bat_bachelor,2022.2.4,60.071503256170914,
,,,,,,,,,,,,0,0,0,0,238,0,238,0,,,,,,,238,,,1,1478.6369810244069,X,None,nogo,d,0,,0.5649471422657371,,,,,,,,,,,,,,,76,001,22,w,Psychologie,2023-01-26_12h01.07.502,00_bat_bachelor,2022.2.4,60.071503256170914,
,,,,,,,,,,,,0,0,0,0,239,0,239,0,,,,,,,239,,,1,1480.3048279734794,Y,l,go,l,1,,0.4170965473167598,,,,,,,,,,,,,,,76,001,22,w,Psychologie,2023-01-26_12h01.07.502,00_bat_bachelor,2022.2.4,60.071503256170914,
,,,,,,,,,,,,0,0,0,0,240,0,240,0,,,,,,,240,,,1,1481.8393736537546,X,d,go,d,1,,0.6589781269431114,,,,,,,,,,,,,,,76,001,22,w,Psychologie,2023-01-26_12h01.07.502,00_bat_bachelor,2022.2.4,60.071503256170914,
,,,,,,,,,,,,0,0,0,0,241,0,241,0,,,,,,,241,,,1,1483.607096432941,Y,l,go,l,1,,0.20173519710078835,,,,,,,,,,,,,,,76,001,22,w,Psychologie,2023-01-26_12h01.07.502,00_bat_bachelor,2022.2.4,60.071503256170914,
,,,,,,,,,,,,0,0,0,0,242,0,242,0,,,,,,,242,,,1,1484.9250865818467,Y,None,nogo,None,1,,,,,,,,,,,,,,,,,76,001,22,w,Psychologie,2023-01-26_12h01.07.502,00_bat_bachelor,2022.2.4,60.071503256170914,
,,,,,,,,,,,,0,0,0,0,243,0,243,0,,,,,,,243,,,1,1486.7264030417427,X,d,go,d,1,,0.23553202906623483,,,,,,,,,,,,,,,76,001,22,w,Psychologie,2023-01-26_12h01.07.502,00_bat_bachelor,2022.2.4,60.071503256170914,
,,,,,,,,,,,,0,0,0,0,244,0,244,0,,,,,,,244,,,1,1488.0773362049367,Y,l,go,l,1,,0.3569118492305279,,,,,,,,,,,,,,,76,001,22,w,Psychologie,2023-01-26_12h01.07.502,00_bat_bachelor,2022.2.4,60.071503256170914,
,,,,,,,,,,,,0,0,0,0,245,0,245,0,,,,,,,245,,,1,1489.5450794931967,X,d,go,d,1,,0.4885054824408144,,,,,,,,,,,,,,,76,001,22,w,Psychologie,2023-01-26_12h01.07.502,00_bat_bachelor,2022.2.4,60.071503256170914,
,,,,,,,,,,,,0,0,0,0,246,0,246,0,,,,,,,246,,,1,1491.146389262285,X,None,nogo,l,0,,0.2646316515747458,,,,,,,,,,,,,,,76,001,22,w,Psychologie,2023-01-26_12h01.07.502,00_bat_bachelor,2022.2.4,60.071503256170914,
,,,,,,,,,,,,0,0,0,0,247,0,247,0,,,,,,,247,,,1,1492.5140477507375,Y,l,go,l,1,,0.31896229181438684,,,,,,,,,,,,,,,76,001,22,w,Psychologie,2023-01-26_12h01.07.502,00_bat_bachelor,2022.2.4,60.071503256170914,
,,,,,,,,,,,,0,0,0,0,248,0,248,0,,,,,,,248,,,1,1493.9486104492098,X,d,go,d,1,,0.27719649369828403,,,,,,,,,,,,,,,76,001,22,w,Psychologie,2023-01-26_12h01.07.502,00_bat_bachelor,2022.2.4,60.071503256170914,
,,,,,,,,,,,,0,0,0,0,249,0,249,0,,,,,,,249,,,1,1495.3329181417357,X,None,nogo,None,1,,,,,,,,,,,,,,,,,76,001,22,w,Psychologie,2023-01-26_12h01.07.502,00_bat_bachelor,2022.2.4,60.071503256170914,
,,,,,,,,,,,,1,0,1,0,0,0,0,0,,,,,,,0,,,0.2,1512.9127767696045,X,d,go,None,0,1513.7133620784152,,,,,,,,,1496.136930842651,space,16.555553692160174,,,,,76,001,22,w,Psychologie,2023-01-26_12h01.07.502,00_bat_bachelor,2022.2.4,60.071503256170914,
,,,,,,,,,,,,1,0,1,0,1,0,1,0,,,,,,,1,,,0.2,1513.9137697387487,Y,l,go,None,0,,,,,,,,,,,,,,,,,76,001,22,w,Psychologie,2023-01-26_12h01.07.502,00_bat_bachelor,2022.2.4,60.071503256170914,
,,,,,,,,,,,,1,0,1,0,2,0,2,0,,,,,,,2,,,0.2,1514.914496526355,X,d,go,d,1,,0.4153874572366476,,,,,,,,,,,,,,,76,001,22,w,Psychologie,2023-01-26_12h01.07.502,00_bat_bachelor,2022.2.4,60.071503256170914,
,,,,,,,,,,,,1,0,1,0,3,0,3,0,,,,,,,3,,,0.2,1515.6318130269647,X,None,nogo,d,0,,0.6428079530596733,,,,,,,,,,,,,,,76,001,22,w,Psychologie,2023-01-26_12h01.07.502,00_bat_bachelor,2022.2.4,60.071503256170914,
,,,,,,,,,,,,1,0,1,0,4,0,4,0,,,,,,,4,,,0.2,1516.5822940208018,Y,l,go,l,1,,0.4283474509138614,,,,,,,,,,,,,,,76,001,22,w,Psychologie,2023-01-26_12h01.07.502,00_bat_bachelor,2022.2.4,60.071503256170914,
,,,,,,,,,,,,1,0,1,0,5,0,5,0,,,,,,,5,,,0.2,1517.316480816342,X,d,go,d,1,,0.5900918573606759,,,,,,,,,,,,,,,76,001,22,w,Psychologie,2023-01-26_12h01.07.502,00_bat_bachelor,2022.2.4,60.071503256170914,
,,,,,,,,,,,,1,0,1,0,6,0,6,0,,,,,,,6,,,0.2,1518.2168221978936,Y,l,go,l,1,,0.40793097601272166,,,,,,,,,,,,,,,76,001,22,w,Psychologie,2023-01-26_12h01.07.502,00_bat_bachelor,2022.2.4,60.071503256170914,
,,,,,,,,,,,,1,0,1,0,7,0,7,0,,,,,,,7,,,0.2,1518.934280274203,Y,None,nogo,l,0,,0.6028428813442588,,,,,,,,,,,,,,,76,001,22,w,Psychologie,2023-01-26_12h01.07.502,00_bat_bachelor,2022.2.4,60.071503256170914,
,,,,,,,,,,,,1,0,1,0,8,0,8,0,,,,,,,8,,,0.2,1519.8516664961353,X,d,go,d,1,,0.4386858702637255,,,,,,,,,,,,,,,76,001,22,w,Psychologie,2023-01-26_12h01.07.502,00_bat_bachelor,2022.2.4,60.071503256170914,
,,,,,,,,,,,,1,0,1,0,9,0,9,0,,,,,,,9,,,0.2,1520.6021398291923,Y,l,go,l,1,,0.5674921106547117,,,,,,,,,,,,,,,76,001,22,w,Psychologie,2023-01-26_12h01.07.502,00_bat_bachelor,2022.2.4,60.071503256170914,
,,,,,,,,,,,,1,0,1,0,10,0,10,0,,,,,,,10,,,0.2,1521.469273954397,X,d,go,None,0,,,,,,,,,,,,,,,,,76,001,22,w,Psychologie,2023-01-26_12h01.07.502,00_bat_bachelor,2022.2.4,60.071503256170914,
,,,,,,,,,,,,1,0,1,0,11,0,11,0,,,,,,,11,,,0.2,1522.470363408327,Y,l,go,l,1,,0.3797981410752982,,,,,,,,,,,,,,,76,001,22,w,Psychologie,2023-01-26_12h01.07.502,00_bat_bachelor,2022.2.4,60.071503256170914,
,,,,,,,,,,,,1,0,1,0,12,0,12,0,,,,,,,12,,,0.2,1523.154119682964,X,d,go,d,1,,0.6083730605896562,,,,,,,,,,,,,,,76,001,22,w,Psychologie,2023-01-26_12h01.07.502,00_bat_bachelor,2022.2.4,60.071503256170914,
,,,,,,,,,,,,1,0,1,0,13,0,13,0,,,,,,,13,,,0.2,1524.0714137835894,X,None,nogo,None,1,,,,,,,,,,,,,,,,,76,001,22,w,Psychologie,2023-01-26_12h01.07.502,00_bat_bachelor,2022.2.4,60.071503256170914,
,,,,,,,,,,,,1,0,1,0,14,0,14,0,,,,,,,14,,,0.2,1525.072271480225,Y,l,go,l,1,,0.41747327451594174,,,,,,,,,,,,,,,76,001,22,w,Psychologie,2023-01-26_12h01.07.502,00_bat_bachelor,2022.2.4,60.071503256170914,
,,,,,,,,,,,,1,0,1,0,15,0,15,0,,,,,,,15,,,0.2,1525.8061828818172,X,d,go,None,0,,,,,,,,,,,,,,,,,76,001,22,w,Psychologie,2023-01-26_12h01.07.502,00_bat_bachelor,2022.2.4,60.071503256170914,
,,,,,,,,,,,,1,0,1,0,16,0,16,0,,,,,,,16,,,0.2,1526.806885426864,Y,l,go,l,1,,0.44415156450122595,,,,,,,,,,,,,,,76,001,22,w,Psychologie,2023-01-26_12h01.07.502,00_bat_bachelor,2022.2.4,60.071503256170914,
,,,,,,,,,,,,1,0,1,0,17,0,17,0,,,,,,,17,,,0.2,1527.5572501539718,X,d,go,d,1,,0.6361587441060692,,,,,,,,,,,,,,,76,001,22,w,Psychologie,2023-01-26_12h01.07.502,00_bat_bachelor,2022.2.4,60.071503256170914,
,,,,,,,,,,,,1,0,1,0,18,0,18,0,,,,,,,18,,,0.2,1528.5082295718603,X,None,nogo,None,1,,,,,,,,,,,,,,,,,76,001,22,w,Psychologie,2023-01-26_12h01.07.502,00_bat_bachelor,2022.2.4,60.071503256170914,
,,,,,,,,,,,,1,0,1,0,19,0,19,0,,,,,,,19,,,0.2,1529.5087381775957,Y,l,go,l,1,,0.5562397525645792,,,,,,,,,,,,,,,76,001,22,w,Psychologie,2023-01-26_12h01.07.502,00_bat_bachelor,2022.2.4,60.071503256170914,
,,,,,,,,,,,,1,0,1,0,20,0,20,0,,,,,,,20,,,0.2,1530.3763120600488,X,d,go,None,0,,,,,,,,,,,,,,,,,76,001,22,w,Psychologie,2023-01-26_12h01.07.502,00_bat_bachelor,2022.2.4,60.071503256170914,
,,,,,,,,,,,,1,0,1,0,21,0,21,0,,,,,,,21,,,0.2,1531.3768017566763,X,None,nogo,None,1,1532.1775630654301,,,,,,,,,,,,,,,,76,001,22,w,Psychologie,2023-01-26_12h01.07.502,00_bat_bachelor,2022.2.4,60.071503256170914,
,,,,,,,,,,,,1,0,1,0,22,0,22,0,,,,,,,22,,,0.2,1532.377854362363,X,None,nogo,None,1,,,,,,,,,,,,,,,,,76,001,22,w,Psychologie,2023-01-26_12h01.07.502,00_bat_bachelor,2022.2.4,60.071503256170914,
,,,,,,,,,,,,1,0,1,0,23,0,23,0,,,,,,,23,,,0.2,1533.3785680588335,Y,l,go,l,1,,0.49508002446964383,,,,,,,,,,,,,,,76,001,22,w,Psychologie,2023-01-26_12h01.07.502,00_bat_bachelor,2022.2.4,60.071503256170914,
,,,,,,,,,,,,1,0,1,0,24,0,24,0,,,,,,,24,,,0.2,1534.1792028222699,X,d,go,d,1,,0.39882358629256487,,,,,,,,,,,,,,,76,001,22,w,Psychologie,2023-01-26_12h01.07.502,00_bat_bachelor,2022.2.4,60.071503256170914,
,,,,,,,,,,,,1,0,1,0,25,0,25,0,,,,,,,25,,,0.2,1534.8797610281035,Y,l,go,l,1,,0.41782769840210676,,,,,,,,,,,,,,,76,001,22,w,Psychologie,2023-01-26_12h01.07.502,00_bat_bachelor,2022.2.4,60.071503256170914,
,,,,,,,,,,,,1,0,1,0,26,0,26,0,,,,,,,26,,,0.2,1535.6133907330222,Y,None,nogo,l,0,,0.49943977990187705,,,,,,,,,,,,,,,76,001,22,w,Psychologie,2023-01-26_12h01.07.502,00_bat_bachelor,2022.2.4,60.071503256170914,
,,,,,,,,,,,,1,0,1,0,27,0,27,0,,,,,,,27,,,0.2,1536.414263071958,X,d,go,d,1,,0.5157621963880956,,,,,,,,,,,,,,,76,001,22,w,Psychologie,2023-01-26_12h01.07.502,00_bat_bachelor,2022.2.4,60.071503256170914,
,,,,,,,,,,,,1,0,1,0,28,0,28,0,,,,,,,28,,,0.2,1537.2315678878222,Y,l,go,l,1,,0.44949216791428626,,,,,,,,,,,,,,,76,001,22,w,Psychologie,2023-01-26_12h01.07.502,00_bat_bachelor,2022.2.4,60.071503256170914,
,,,,,,,,,,,,1,0,1,0,29,0,29,0,,,,,,,29,,,0.2,1537.9821124935988,X,d,go,None,0,,,,,,,,,,,,,,,,,76,001,22,w,Psychologie,2023-01-26_12h01.07.502,00_bat_bachelor,2022.2.4,60.071503256170914,
,,,,,,,,,,,,1,0,1,0,30,0,30,0,,,,,,,30,,,0.2,1538.9827112811618,Y,l,go,None,0,,,,,,,,,,,,,,,,,76,001,22,w,Psychologie,2023-01-26_12h01.07.502,00_bat_bachelor,2022.2.4,60.071503256170914,
,,,,,,,,,,,,1,0,1,0,31,0,31,0,,,,,,,31,,,0.2,1539.9836000080686,X,d,go,d,1,,0.4343372662551701,,,,,,,,,,,,,,,76,001,22,w,Psychologie,2023-01-26_12h01.07.502,00_bat_bachelor,2022.2.4,60.071503256170914,
,,,,,,,,,,,,1,0,1,0,32,0,32,0,,,,,,,32,,,0.2,1540.7339312804397,X,None,nogo,None,1,,,,,,,,,,,,,,,,,76,001,22,w,Psychologie,2023-01-26_12h01.07.502,00_bat_bachelor,2022.2.4,60.071503256170914,
,,,,,,,,,,,,1,0,1,0,33,0,33,0,,,,,,,33,,,0.2,1541.734721098328,Y,l,go,l,1,,0.411804428556934,,,,,,,,,,,,,,,76,001,22,w,Psychologie,2023-01-26_12h01.07.502,00_bat_bachelor,2022.2.4,60.071503256170914,
,,,,,,,,,,,,1,0,1,0,34,0,34,0,,,,,,,34,,,0.2,1542.452174326172,X,d,go,d,1,,0.5268884941469878,,,,,,,,,,,,,,,76,001,22,w,Psychologie,2023-01-26_12h01.07.502,00_bat_bachelor,2022.2.4,60.071503256170914,
,,,,,,,,,,,,1,0,1,0,35,0,35,0,,,,,,,35,,,0.2,1543.2859072552528,Y,l,go,l,1,,0.6511677063535899,,,,,,,,,,,,,,,76,001,22,w,Psychologie,2023-01-26_12h01.07.502,00_bat_bachelor,2022.2.4,60.071503256170914,
,,,,,,,,,,,,1,0,1,0,36,0,36,0,,,,,,,36,,,0.2,1544.2536454529036,X,d,go,d,1,,0.4203489092178643,,,,,,,,,,,,,,,76,001,22,w,Psychologie,2023-01-26_12h01.07.502,00_bat_bachelor,2022.2.4,60.071503256170914,
,,,,,,,,,,,,1,0,1,0,37,0,37,0,,,,,,,37,,,0.2,1544.9874128545634,Y,l,go,l,1,,0.43845556722953916,,,,,,,,,,,,,,,76,001,22,w,Psychologie,2023-01-26_12h01.07.502,00_bat_bachelor,2022.2.4,60.071503256170914,
,,,,,,,,,,,,1,0,1,0,38,0,38,0,,,,,,,38,,,0.2,1545.737879884662,X,d,go,d,1,,0.4874087555799633,,,,,,,,,,,,,,,76,001,22,w,Psychologie,2023-01-26_12h01.07.502,00_bat_bachelor,2022.2.4,60.071503256170914,
,,,,,,,,,,,,1,0,1,0,39,0,39,0,,,,,,,39,,,0.2,1546.5386130721308,Y,l,go,l,1,,0.454416771652177,,,,,,,,,,,,,,,76,001,22,w,Psychologie,2023-01-26_12h01.07.502,00_bat_bachelor,2022.2.4,60.071503256170914,
,,,,,,,,,,,,1,0,1,0,40,0,40,0,,,,,,,40,,,0.2,1547.3058253063355,X,d,go,d,1,,0.4723639143630862,,,,,,,,,,,,,,,76,001,22,w,Psychologie,2023-01-26_12h01.07.502,00_bat_bachelor,2022.2.4,60.071503256170914,
,,,,,,,,,,,,1,0,1,0,41,0,41,0,,,,,,,41,,,0.2,1548.0896334110294,Y,l,go,l,1,,0.4083358240313828,,,,,,,,,,,,,,,76,001,22,w,Psychologie,2023-01-26_12h01.07.502,00_bat_bachelor,2022.2.4,60.071503256170914,
,,,,,,,,,,,,1,0,1,0,42,0,42,0,,,,,,,42,,,0.2,1548.8069193663541,Y,None,nogo,d,0,,0.36341075506061316,,,,,,,,,,,,,,,76,001,22,w,Psychologie,2023-01-26_12h01.07.502,00_bat_bachelor,2022.2.4,60.071503256170914,
,,,,,,,,,,,,1,0,1,0,43,0,43,0,,,,,,,43,,,0.2,1549.4742024368607,X,d,go,None,0,,,,,,,,,,,,,,,,,76,001,22,w,Psychologie,2023-01-26_12h01.07.502,00_bat_bachelor,2022.2.4,60.071503256170914,
,,,,,,,,,,,,1,0,1,0,44,0,44,0,,,,,,,44,,,0.2,1550.4749166183174,Y,l,go,None,0,,,,,,,,,,,,,,,,,76,001,22,w,Psychologie,2023-01-26_12h01.07.502,00_bat_bachelor,2022.2.4,60.071503256170914,
,,,,,,,,,,,,1,0,1,0,45,0,45,0,,,,,,,45,,,0.2,1551.475668617757,X,d,go,l,0,,0.26973370951600373,,,,,,,,,,,,,,,76,001,22,w,Psychologie,2023-01-26_12h01.07.502,00_bat_bachelor,2022.2.4,60.071503256170914,
,,,,,,,,,,,,1,0,1,0,46,0,46,0,,,,,,,46,,,0.2,1552.0596072438639,X,None,nogo,None,1,,,,,,,,,,,,,,,,,76,001,22,w,Psychologie,2023-01-26_12h01.07.502,00_bat_bachelor,2022.2.4,60.071503256170914,
,,,,,,,,,,,,1,0,1,0,47,0,47,0,,,,,,,47,,,0.2,1553.0600096678827,Y,l,go,l,1,,0.46210064669139683,,,,,,,,,,,,,,,76,001,22,w,Psychologie,2023-01-26_12h01.07.502,00_bat_bachelor,2022.2.4,60.071503256170914,
,,,,,,,,,,,,1,0,1,0,48,0,48,0,,,,,,,48,,,0.2,1553.827512810938,X,d,go,d,1,,0.38239110936410725,,,,,,,,,,,,,,,76,001,22,w,Psychologie,2023-01-26_12h01.07.502,00_bat_bachelor,2022.2.4,60.071503256170914,
,,,,,,,,,,,,1,0,1,0,49,0,49,0,,,,,,,49,,,0.2,1554.5112060552929,Y,l,go,l,1,,0.45001095556654036,,,,,,,,,,,,,,,76,001,22,w,Psychologie,2023-01-26_12h01.07.502,00_bat_bachelor,2022.2.4,60.071503256170914,
,,,,,,,,,,,,1,0,1,0,50,0,50,0,,,,,,,50,,,0.2,1555.2616793883499,X,d,go,d,1,,0.3558073646854609,,,,,,,,,,,,,,,76,001,22,w,Psychologie,2023-01-26_12h01.07.502,00_bat_bachelor,2022.2.4,60.071503256170914,
,,,,,,,,,,,,1,0,1,0,51,0,51,0,,,,,,,51,,,0.2,1555.928862095112,X,None,nogo,d,0,,0.6168583899270743,,,,,,,,,,,,,,,76,001,22,w,Psychologie,2023-01-26_12h01.07.502,00_bat_bachelor,2022.2.4,60.071503256170914,
,,,,,,,,,,,,1,0,1,0,52,0,52,0,,,,,,,52,,,0.2,1556.8462323169224,X,None,nogo,d,0,,0.5476356353610754,,,,,,,,,,,,,,,76,001,22,w,Psychologie,2023-01-26_12h01.07.502,00_bat_bachelor,2022.2.4,60.071503256170914,
,,,,,,,,,,,,1,0,1,0,53,0,53,0,,,,,,,53,,,0.2,1557.6971312984824,Y,l,go,l,1,,0.46404440328478813,,,,,,,,,,,,,,,76,001,22,w,Psychologie,2023-01-26_12h01.07.502,00_bat_bachelor,2022.2.4,60.071503256170914,
,,,,,,,,,,,,1,0,1,0,54,0,54,0,,,,,,,54,,,0.2,1558.4641534718685,X,d,go,d,1,,0.4820439098402858,,,,,,,,,,,,,,,76,001,22,w,Psychologie,2023-01-26_12h01.07.502,00_bat_bachelor,2022.2.4,60.071503256170914,
,,,,,,,,,,,,1,0,1,0,55,0,55,0,,,,,,,55,,,0.2,1559.248062425293,X,None,nogo,None,1,,,,,,,,,,,,,,,,,76,001,22,w,Psychologie,2023-01-26_12h01.07.502,00_bat_bachelor,2022.2.4,60.071503256170914,
,,,,,,,,,,,,1,0,1,0,56,0,56,0,,,,,,,56,,,0.2,1560.2491659398656,Y,l,go,l,1,,0.4089186117053032,,,,,,,,,,,,,,,76,001,22,w,Psychologie,2023-01-26_12h01.07.502,00_bat_bachelor,2022.2.4,60.071503256170914,
,,,,,,,,,,,,1,0,1,0,57,0,57,0,,,,,,,57,,,0.2,1560.9662661980838,X,d,go,None,0,1561.7668209616095,,,,,,,,,,,,,,,,76,001,22,w,Psychologie,2023-01-26_12h01.07.502,00_bat_bachelor,2022.2.4,60.071503256170914,
,,,,,,,,,,,,1,0,1,0,58,0,58,0,,,,,,,58,,,0.2,1561.9667917736806,X,None,nogo,None,1,,,,,,,,,,,,,,,,,76,001,22,w,Psychologie,2023-01-26_12h01.07.502,00_bat_bachelor,2022.2.4,60.071503256170914,
,,,,,,,,,,,,1,0,1,0,59,0,59,0,,,,,,,59,,,0.2,1562.9678298337385,Y,l,go,l,1,,0.3459188847336918,,,,,,,,,,,,,,,76,001,22,w,Psychologie,2023-01-26_12h01.07.502,00_bat_bachelor,2022.2.4,60.071503256170914,
,,,,,,,,,,,,1,0,1,0,60,0,60,0,,,,,,,60,,,0.2,1563.618212548783,X,d,go,d,1,,0.639626863412559,,,,,,,,,,,,,,,76,001,22,w,Psychologie,2023-01-26_12h01.07.502,00_bat_bachelor,2022.2.4,60.071503256170914,
,,,,,,,,,,,,1,0,1,0,61,0,61,0,,,,,,,61,,,0.2,1564.5690523302183,Y,l,go,l,1,,0.4889340882655233,,,,,,,,,,,,,,,76,001,22,w,Psychologie,2023-01-26_12h01.07.502,00_bat_bachelor,2022.2.4,60.071503256170914,
,,,,,,,,,,,,1,0,1,0,62,0,62,0,,,,,,,62,,,0.2,1565.3693923058454,X,d,go,d,1,,0.5521015727426857,,,,,,,,,,,,,,,76,001,22,w,Psychologie,2023-01-26_12h01.07.502,00_bat_bachelor,2022.2.4,60.071503256170914,
,,,,,,,,,,,,1,0,1,0,63,0,63,0,,,,,,,63,,,0.2,1566.2369584306143,X,None,nogo,None,1,,,,,,,,,,,,,,,,,76,001,22,w,Psychologie,2023-01-26_12h01.07.502,00_bat_bachelor,2022.2.4,60.071503256170914,
,,,,,,,,,,,,1,0,1,0,64,0,64,0,,,,,,,64,,,0.2,1567.2377875209786,Y,l,go,l,1,,0.38088759523816407,,,,,,,,,,,,,,,76,001,22,w,Psychologie,2023-01-26_12h01.07.502,00_bat_bachelor,2022.2.4,60.071503256170914,
,,,,,,,,,,,,1,0,1,0,65,0,65,0,,,,,,,65,,,0.2,1567.9215699774213,X,d,go,d,1,,0.368218025425449,,,,,,,,,,,,,,,76,001,22,w,Psychologie,2023-01-26_12h01.07.502,00_bat_bachelor,2022.2.4,60.071503256170914,
,,,,,,,,,,,,1,0,1,0,66,0,66,0,,,,,,,66,,,0.2,1568.6054421307053,X,None,nogo,None,1,,,,,,,,,,,,,,,,,76,001,22,w,Psychologie,2023-01-26_12h01.07.502,00_bat_bachelor,2022.2.4,60.071503256170914,
,,,,,,,,,,,,1,0,1,0,67,0,67,0,,,,,,,67,,,0.2,1569.6059929183684,Y,l,go,l,1,,0.39636637549847364,,,,,,,,,,,,,,,76,001,22,w,Psychologie,2023-01-26_12h01.07.502,00_bat_bachelor,2022.2.4,60.071503256170914,
,,,,,,,,,,,,1,0,1,0,68,0,68,0,,,,,,,68,,,0.2,1570.3066878512036,X,d,go,d,1,,0.49524778220802546,,,,,,,,,,,,,,,76,001,22,w,Psychologie,2023-01-26_12h01.07.502,00_bat_bachelor,2022.2.4,60.071503256170914,
,,,,,,,,,,,,1,0,1,0,69,0,69,0,,,,,,,69,,,0.2,1571.107328432845,Y,l,go,l,1,,0.6072802126873285,,,,,,,,,,,,,,,76,001,22,w,Psychologie,2023-01-26_12h01.07.502,00_bat_bachelor,2022.2.4,60.071503256170914,
,,,,,,,,,,,,1,0,1,0,70,0,70,0,,,,,,,70,,,0.2,1572.0250458060764,X,d,go,d,1,,0.39277122588828206,,,,,,,,,,,,,,,76,001,22,w,Psychologie,2023-01-26_12h01.07.502,00_bat_bachelor,2022.2.4,60.071503256170914,
,,,,,,,,,,,,1,0,1,0,71,0,71,0,,,,,,,71,,,0.2,1572.7253921332303,X,None,nogo,None,1,,,,,,,,,,,,,,,,,76,001,22,w,Psychologie,2023-01-26_12h01.07.502,00_bat_bachelor,2022.2.4,60.071503256170914,
,,,,,,,,,,,,1,0,1,0,72,0,72,0,,,,,,,72,,,0.2,1573.7257329814602,Y,l,go,l,1,,0.32450701645575464,,,,,,,,,,,,,,,76,001,22,w,Psychologie,2023-01-26_12h01.07.502,00_bat_bachelor,2022.2.4,60.071503256170914,
,,,,,,,,,,,,1,0,1,0,73,0,73,0,,,,,,,73,,,0.2,1574.3596890377812,X,d,go,d,1,,0.4106083079241216,,,,,,,,,,,,,,,76,001,22,w,Psychologie,2023-01-26_12h01.07.502,00_bat_bachelor,2022.2.4,60.071503256170914,
,,,,,,,,,,,,1,0,1,0,74,0,74,0,,,,,,,74,,,0.2,1575.0767897809856,X,None,nogo,None,1,,,,,,,,,,,,,,,,,76,001,22,w,Psychologie,2023-01-26_12h01.07.502,00_bat_bachelor,2022.2.4,60.071503256170914,
,,,,,,,,,,,,1,0,1,0,75,0,75,0,,,,,,,75,,,0.2,1576.0775820231065,Y,l,go,l,1,,0.48366427258588374,,,,,,,,,,,,,,,76,001,22,w,Psychologie,2023-01-26_12h01.07.502,00_bat_bachelor,2022.2.4,60.071503256170914,
,,,,,,,,,,,,1,0,1,0,76,0,76,0,,,,,,,76,,,0.2,1576.8617295215372,X,d,go,None,0,,,,,,,,,,,,,,,,,76,001,22,w,Psychologie,2023-01-26_12h01.07.502,00_bat_bachelor,2022.2.4,60.071503256170914,
,,,,,,,,,,,,1,0,1,0,77,0,77,0,,,,,,,77,,,0.2,1577.8624786122236,X,None,nogo,None,1,,,,,,,,,,,,,,,,,76,001,22,w,Psychologie,2023-01-26_12h01.07.502,00_bat_bachelor,2022.2.4,60.071503256170914,
,,,,,,,,,,,,1,0,1,0,78,0,78,0,,,,,,,78,,,0.2,1578.8632320663892,X,None,nogo,None,1,1579.663862950867,,,,,,,,,,,,,,,,76,001,22,w,Psychologie,2023-01-26_12h01.07.502,00_bat_bachelor,2022.2.4,60.071503256170914,
,,,,,,,,,,,,1,0,1,0,79,0,79,0,,,,,,,79,,,0.2,1579.8637610357255,Y,l,go,l,1,,0.3458670061081648,,,,,,,,,,,,,,,76,001,22,w,Psychologie,2023-01-26_12h01.07.502,00_bat_bachelor,2022.2.4,60.071503256170914,
,,,,,,,,,,,,1,0,1,0,80,0,80,0,,,,,,,80,,,0.2,1580.514503993094,X,d,go,d,1,,0.4477365321945399,,,,,,,,,,,,,,,76,001,22,w,Psychologie,2023-01-26_12h01.07.502,00_bat_bachelor,2022.2.4,60.071503256170914,
,,,,,,,,,,,,1,0,1,0,81,0,81,0,,,,,,,81,,,0.2,1581.265129568521,Y,l,go,l,1,,0.35221803304739296,,,,,,,,,,,,,,,76,001,22,w,Psychologie,2023-01-26_12h01.07.502,00_bat_bachelor,2022.2.4,60.071503256170914,
,,,,,,,,,,,,1,0,1,0,82,0,82,0,,,,,,,82,,,0.2,1581.9322186994832,Y,None,nogo,d,0,,0.40619715861976147,,,,,,,,,,,,,,,76,001,22,w,Psychologie,2023-01-26_12h01.07.502,00_bat_bachelor,2022.2.4,60.071503256170914,
,,,,,,,,,,,,1,0,1,0,83,0,83,0,,,,,,,83,,,0.2,1582.649223442888,X,d,go,None,0,,,,,,,,,,,,,,,,,76,001,22,w,Psychologie,2023-01-26_12h01.07.502,00_bat_bachelor,2022.2.4,60.071503256170914,
,,,,,,,,,,,,1,0,1,0,84,0,84,0,,,,,,,84,,,0.2,1583.6502508362755,Y,l,go,l,1,,0.48088463745079935,,,,,,,,,,,,,,,76,001,22,w,Psychologie,2023-01-26_12h01.07.502,00_bat_bachelor,2022.2.4,60.071503256170914,
,,,,,,,,,,,,1,0,1,0,85,0,85,0,,,,,,,85,,,0.2,1584.433953244239,Y,None,nogo,l,0,,0.6068516066297889,,,,,,,,,,,,,,,76,001,22,w,Psychologie,2023-01-26_12h01.07.502,00_bat_bachelor,2022.2.4,60.071503256170914,
,,,,,,,,,,,,1,0,1,0,86,0,86,0,,,,,,,86,,,0.2,1585.3515552235767,X,d,go,d,1,,0.42641872470267117,,,,,,,,,,,,,,,76,001,22,w,Psychologie,2023-01-26_12h01.07.502,00_bat_bachelor,2022.2.4,60.071503256170914,
,,,,,,,,,,,,1,0,1,0,87,0,87,0,,,,,,,87,,,0.2,1586.0854045646265,Y,l,go,None,0,,,,,,,,,,,,,,,,,76,001,22,w,Psychologie,2023-01-26_12h01.07.502,00_bat_bachelor,2022.2.4,60.071503256170914,
,,,,,,,,,,,,1,0,1,0,88,0,88,0,,,,,,,88,,,0.2,1587.0860183825716,Y,None,nogo,l,0,,0.3876512283459306,,,,,,,,,,,,,,,76,001,22,w,Psychologie,2023-01-26_12h01.07.502,00_bat_bachelor,2022.2.4,60.071503256170914,
,,,,,,,,,,,,1,0,1,0,89,0,89,0,,,,,,,89,,,0.2,1587.7864447096363,X,d,go,d,1,,0.5188089828006923,,,,,,,,,,,,,,,76,001,22,w,Psychologie,2023-01-26_12h01.07.502,00_bat_bachelor,2022.2.4,60.071503256170914,
,,,,,,,,,,,,1,0,1,0,90,0,90,0,,,,,,,90,,,0.2,1588.6206649111118,Y,l,go,l,1,,0.5326698245480657,,,,,,,,,,,,,,,76,001,22,w,Psychologie,2023-01-26_12h01.07.502,00_bat_bachelor,2022.2.4,60.071503256170914,
,,,,,,,,,,,,1,0,1,0,91,0,91,0,,,,,,,91,,,0.2,1589.4546775978524,Y,None,nogo,None,1,1590.2552740580868,,,,,,,,,,,,,,,,76,001,22,w,Psychologie,2023-01-26_12h01.07.502,00_bat_bachelor,2022.2.4,60.071503256170914,
,,,,,,,,,,,,1,0,1,0,92,0,92,0,,,,,,,92,,,0.2,1590.4551609915216,Y,None,nogo,None,1,,,,,,,,,,,,,,,,,76,001,22,w,Psychologie,2023-01-26_12h01.07.502,00_bat_bachelor,2022.2.4,60.071503256170914,
,,,,,,,,,,,,1,0,1,0,93,0,93,0,,,,,,,93,,,0.2,1591.4560511729214,X,d,go,d,1,,0.35327160847373307,,,,,,,,,,,,,,,76,001,22,w,Psychologie,2023-01-26_12h01.07.502,00_bat_bachelor,2022.2.4,60.071503256170914,
,,,,,,,,,,,,1,0,1,0,94,0,94,0,,,,,,,94,,,0.2,1592.1233512128238,Y,l,go,l,1,,0.4864933621138334,,,,,,,,,,,,,,,76,001,22,w,Psychologie,2023-01-26_12h01.07.502,00_bat_bachelor,2022.2.4,60.071503256170914,
,,,,,,,,,,,,1,0,1,0,95,0,95,0,,,,,,,95,,,0.2,1592.9237949461676,X,d,go,d,1,,0.6131274825893342,,,,,,,,,,,,,,,76,001,22,w,Psychologie,2023-01-26_12h01.07.502,00_bat_bachelor,2022.2.4,60.071503256170914,
,,,,,,,,,,,,1,0,1,0,96,0,96,0,,,,,,,96,,,0.2,1593.841444925405,X,None,nogo,None,1,,,,,,,,,,,,,,,,,76,001,22,w,Psychologie,2023-01-26_12h01.07.502,00_bat_bachelor,2022.2.4,60.071503256170914,
,,,,,,,,,,,,1,0,1,0,97,0,97,0,,,,,,,97,,,0.2,1594.8419147434179,Y,l,go,l,1,,0.5189064373262227,,,,,,,,,,,,,,,76,001,22,w,Psychologie,2023-01-26_12h01.07.502,00_bat_bachelor,2022.2.4,60.071503256170914,
,,,,,,,,,,,,1,0,1,0,98,0,98,0,,,,,,,98,,,0.2,1595.6761223389767,X,d,go,None,0,1596.4765345568303,,,,,,,,,,,,,,,,76,001,22,w,Psychologie,2023-01-26_12h01.07.502,00_bat_bachelor,2022.2.4,60.071503256170914,
,,,,,,,,,,,,1,0,1,0,99,0,99,0,,,,,,,99,,,0.2,1596.6765451265965,X,None,nogo,None,1,,,,,,,,,,,,,,,,,76,001,22,w,Psychologie,2023-01-26_12h01.07.502,00_bat_bachelor,2022.2.4,60.071503256170914,
,,,,,,,,,,,,1,0,1,0,100,0,100,0,,,,,,,100,,,0.2,1597.6776020957623,Y,l,go,l,1,,0.40398673550225794,,,,,,,,,,,,,,,76,001,22,w,Psychologie,2023-01-26_12h01.07.502,00_bat_bachelor,2022.2.4,60.071503256170914,
,,,,,,,,,,,,1,0,1,0,101,0,101,0,,,,,,,101,,,0.2,1598.3948235660791,X,d,go,d,1,,0.37477365881204605,,,,,,,,,,,,,,,76,001,22,w,Psychologie,2023-01-26_12h01.07.502,00_bat_bachelor,2022.2.4,60.071503256170914,
,,,,,,,,,,,,1,0,1,0,102,0,102,0,,,,,,,102,,,0.2,1599.0786317195743,Y,l,go,None,0,,,,,,,,,,,,,,,,,76,001,22,w,Psychologie,2023-01-26_12h01.07.502,00_bat_bachelor,2022.2.4,60.071503256170914,
,,,,,,,,,,,,1,0,1,0,103,0,103,0,,,,,,,103,,,0.2,1600.0794006888755,X,d,go,d,1,,0.5630698096938431,,,,,,,,,,,,,,,76,001,22,w,Psychologie,2023-01-26_12h01.07.502,00_bat_bachelor,2022.2.4,60.071503256170914,
,,,,,,,,,,,,1,0,1,0,104,0,104,0,,,,,,,104,,,0.2,1600.9468257226981,X,None,nogo,None,1,,,,,,,,,,,,,,,,,76,001,22,w,Psychologie,2023-01-26_12h01.07.502,00_bat_bachelor,2022.2.4,60.071503256170914,
,,,,,,,,,,,,1,0,1,0,105,0,105,0,,,,,,,105,,,0.2,1601.9475471768528,Y,l,go,l,1,,0.46987567306496203,,,,,,,,,,,,,,,76,001,22,w,Psychologie,2023-01-26_12h01.07.502,00_bat_bachelor,2022.2.4,60.071503256170914,
,,,,,,,,,,,,1,0,1,0,106,0,106,0,,,,,,,106,,,0.2,1602.7313974634744,X,d,go,d,1,,0.3747625071555376,,,,,,,,,,,,,,,76,001,22,w,Psychologie,2023-01-26_12h01.07.502,00_bat_bachelor,2022.2.4,60.071503256170914,
,,,,,,,,,,,,1,0,1,0,107,0,107,0,,,,,,,107,,,0.2,1603.4153084047139,Y,l,go,l,1,,0.5865825256332755,,,,,,,,,,,,,,,76,001,22,w,Psychologie,2023-01-26_12h01.07.502,00_bat_bachelor,2022.2.4,60.071503256170914,
,,,,,,,,,,,,1,0,1,0,108,0,108,0,,,,,,,108,,,0.2,1604.315717665013,X,d,go,d,1,,0.32549465214833617,,,,,,,,,,,,,,,76,001,22,w,Psychologie,2023-01-26_12h01.07.502,00_bat_bachelor,2022.2.4,60.071503256170914,
,,,,,,,,,,,,1,0,1,0,109,0,109,0,,,,,,,109,,,0.2,1604.9495471760165,X,None,nogo,None,1,,,,,,,,,,,,,,,,,76,001,22,w,Psychologie,2023-01-26_12h01.07.502,00_bat_bachelor,2022.2.4,60.071503256170914,
,,,,,,,,,,,,1,0,1,0,110,0,110,0,,,,,,,110,,,0.2,1605.950669599697,X,None,nogo,None,1,,,,,,,,,,,,,,,,,76,001,22,w,Psychologie,2023-01-26_12h01.07.502,00_bat_bachelor,2022.2.4,60.071503256170914,
,,,,,,,,,,,,1,0,1,0,111,0,111,0,,,,,,,111,,,0.2,1606.951120508602,Y,l,go,l,1,,0.4113515804056078,,,,,,,,,,,,,,,76,001,22,w,Psychologie,2023-01-26_12h01.07.502,00_bat_bachelor,2022.2.4,60.071503256170914,
,,,,,,,,,,,,1,0,1,0,112,0,112,0,,,,,,,112,,,0.2,1607.66827797913,X,d,go,d,1,,0.3804483227431774,,,,,,,,,,,,,,,76,001,22,w,Psychologie,2023-01-26_12h01.07.502,00_bat_bachelor,2022.2.4,60.071503256170914,
,,,,,,,,,,,,1,0,1,0,113,0,113,0,,,,,,,113,,,0.2,1608.3522209201474,X,None,nogo,None,1,,,,,,,,,,,,,,,,,76,001,22,w,Psychologie,2023-01-26_12h01.07.502,00_bat_bachelor,2022.2.4,60.071503256170914,
,,,,,,,,,,,,1,0,1,0,114,0,114,0,,,,,,,114,,,0.2,1609.3531673438847,Y,l,go,l,1,,0.44128368701785803,,,,,,,,,,,,,,,76,001,22,w,Psychologie,2023-01-26_12h01.07.502,00_bat_bachelor,2022.2.4,60.071503256170914,
,,,,,,,,,,,,1,0,1,0,115,0,115,0,,,,,,,115,,,0.2,1610.1035829801112,X,d,go,d,1,,0.36268348270095885,,,,,,,,,,,,,,,76,001,22,w,Psychologie,2023-01-26_12h01.07.502,00_bat_bachelor,2022.2.4,60.071503256170914,
,,,,,,,,,,,,1,0,1,0,116,0,116,0,,,,,,,116,,,0.2,1610.770655626431,X,None,nogo,None,1,,,,,,,,,,,,,,,,,76,001,22,w,Psychologie,2023-01-26_12h01.07.502,00_bat_bachelor,2022.2.4,60.071503256170914,
,,,,,,,,,,,,1,0,1,0,117,0,117,0,,,,,,,117,,,0.2,1611.7714308986906,Y,l,go,l,1,,0.23082027398049831,,,,,,,,,,,,,,,76,001,22,w,Psychologie,2023-01-26_12h01.07.502,00_bat_bachelor,2022.2.4,60.071503256170914,
,,,,,,,,,,,,1,0,1,0,118,0,118,0,,,,,,,118,,,0.2,1612.3051455491222,X,d,go,d,1,,0.30459720781072974,,,,,,,,,,,,,,,76,001,22,w,Psychologie,2023-01-26_12h01.07.502,00_bat_bachelor,2022.2.4,60.071503256170914,
,,,,,,,,,,,,1,0,1,0,119,0,119,0,,,,,,,119,,,0.2,1612.9225445224438,Y,l,go,None,0,,,,,,,,,,,,,,,,,76,001,22,w,Psychologie,2023-01-26_12h01.07.502,00_bat_bachelor,2022.2.4,60.071503256170914,
,,,,,,,,,,,,1,0,1,0,120,0,120,0,,,,,,,120,,,0.2,1613.9230608858634,Y,None,nogo,None,1,,,,,,,,,,,,,,,,,76,001,22,w,Psychologie,2023-01-26_12h01.07.502,00_bat_bachelor,2022.2.4,60.071503256170914,
,,,,,,,,,,,,1,0,1,0,121,0,121,0,,,,,,,121,,,0.2,1614.92413821863,X,d,go,d,1,,0.37329584127292037,,,,,,,,,,,,,,,76,001,22,w,Psychologie,2023-01-26_12h01.07.502,00_bat_bachelor,2022.2.4,60.071503256170914,
,,,,,,,,,,,,1,0,1,0,122,0,122,0,,,,,,,122,,,0.2,1615.6076738871634,Y,l,go,l,1,,0.4108027322217822,,,,,,,,,,,,,,,76,001,22,w,Psychologie,2023-01-26_12h01.07.502,00_bat_bachelor,2022.2.4,60.071503256170914,
,,,,,,,,,,,,1,0,1,0,123,0,123,0,,,,,,,123,,,0.2,1616.325091236271,X,d,go,None,0,,,,,,,,,,,,,,,,,76,001,22,w,Psychologie,2023-01-26_12h01.07.502,00_bat_bachelor,2022.2.4,60.071503256170914,
,,,,,,,,,,,,1,0,1,0,124,0,124,0,,,,,,,124,,,0.2,1617.3259300237987,Y,l,go,l,1,,0.4037205537315458,,,,,,,,,,,,,,,76,001,22,w,Psychologie,2023-01-26_12h01.07.502,00_bat_bachelor,2022.2.4,60.071503256170914,
,,,,,,,,,,,,1,0,1,0,125,0,125,0,,,,,,,125,,,0.2,1618.0430647064932,X,d,go,d,1,,0.4382339916191995,,,,,,,,,,,,,,,76,001,22,w,Psychologie,2023-01-26_12h01.07.502,00_bat_bachelor,2022.2.4,60.071503256170914,
,,,,,,,,,,,,1,0,1,0,126,0,126,0,,,,,,,126,,,0.2,1618.793429433601,Y,l,go,l,1,,0.4561438011005521,,,,,,,,,,,,,,,76,001,22,w,Psychologie,2023-01-26_12h01.07.502,00_bat_bachelor,2022.2.4,60.071503256170914,
,,,,,,,,,,,,1,0,1,0,127,0,127,0,,,,,,,127,,,0.2,1619.5609296674374,Y,None,nogo,d,0,,0.4408274448942393,,,,,,,,,,,,,,,76,001,22,w,Psychologie,2023-01-26_12h01.07.502,00_bat_bachelor,2022.2.4,60.071503256170914,
,,,,,,,,,,,,1,0,1,0,128,0,128,0,,,,,,,128,,,0.2,1620.3113157278858,X,d,go,None,0,1621.1121226123068,,,,,,,,,,,,,,,,76,001,22,w,Psychologie,2023-01-26_12h01.07.502,00_bat_bachelor,2022.2.4,60.071503256170914,
,,,,,,,,,,,,1,0,1,0,129,0,129,0,,,,,,,129,,,0.2,1621.3120226366445,Y,l,go,l,1,,0.3534146386664361,,,,,,,,,,,,,,,76,001,22,w,Psychologie,2023-01-26_12h01.07.502,00_bat_bachelor,2022.2.4,60.071503256170914,
,,,,,,,,,,,,1,0,1,0,130,0,130,0,,,,,,,130,,,0.2,1621.9794758886565,X,d,go,d,1,,0.4376390827819705,,,,,,,,,,,,,,,76,001,22,w,Psychologie,2023-01-26_12h01.07.502,00_bat_bachelor,2022.2.4,60.071503256170914,
,,,,,,,,,,,,1,0,1,0,131,0,131,0,,,,,,,131,,,0.2,1622.7300112824887,X,None,nogo,d,0,,0.6480234656482935,,,,,,,,,,,,,,,76,001,22,w,Psychologie,2023-01-26_12h01.07.502,00_bat_bachelor,2022.2.4,60.071503256170914,
,,,,,,,,,,,,1,0,1,0,132,0,132,0,,,,,,,132,,,0.2,1623.680893730605,Y,l,go,l,1,,0.33698361646384,,,,,,,,,,,,,,,76,001,22,w,Psychologie,2023-01-26_12h01.07.502,00_bat_bachelor,2022.2.4,60.071503256170914,
,,,,,,,,,,,,1,0,1,0,133,0,133,0,,,,,,,133,,,0.2,1624.3311469908804,X,d,go,None,0,,,,,,,,,,,,,,,,,76,001,22,w,Psychologie,2023-01-26_12h01.07.502,00_bat_bachelor,2022.2.4,60.071503256170914,
,,,,,,,,,,,,1,0,1,0,134,0,134,0,,,,,,,134,,,0.2,1625.3319925663527,Y,l,go,l,1,,0.46212149504572153,,,,,,,,,,,,,,,76,001,22,w,Psychologie,2023-01-26_12h01.07.502,00_bat_bachelor,2022.2.4,60.071503256170914,
,,,,,,,,,,,,1,0,1,0,135,0,135,0,,,,,,,135,,,0.2,1626.099223224679,X,d,go,d,1,,0.5104749260935932,,,,,,,,,,,,,,,76,001,22,w,Psychologie,2023-01-26_12h01.07.502,00_bat_bachelor,2022.2.4,60.071503256170914,
,,,,,,,,,,,,1,0,1,0,136,0,136,0,,,,,,,136,,,0.2,1626.9166366464924,Y,l,go,l,1,,0.39770940504968166,,,,,,,,,,,,,,,76,001,22,w,Psychologie,2023-01-26_12h01.07.502,00_bat_bachelor,2022.2.4,60.071503256170914,
,,,,,,,,,,,,1,0,1,0,137,0,137,0,,,,,,,137,,,0.2,1627.6168283070438,X,d,go,d,1,,0.3846902600489557,,,,,,,,,,,,,,,76,001,22,w,Psychologie,2023-01-26_12h01.07.502,00_bat_bachelor,2022.2.4,60.071503256170914,
,,,,,,,,,,,,1,0,1,0,138,0,138,0,,,,,,,138,,,0.2,1628.317574633984,X,None,nogo,None,1,,,,,,,,,,,,,,,,,76,001,22,w,Psychologie,2023-01-26_12h01.07.502,00_bat_bachelor,2022.2.4,60.071503256170914,
,,,,,,,,,,,,1,0,1,0,139,0,139,0,,,,,,,139,,,0.2,1629.318218997214,Y,l,go,l,1,,0.4439697463531047,,,,,,,,,,,,,,,76,001,22,w,Psychologie,2023-01-26_12h01.07.502,00_bat_bachelor,2022.2.4,60.071503256170914,
,,,,,,,,,,,,1,0,1,0,140,0,140,0,,,,,,,140,,,0.2,1630.068657421274,X,d,go,d,1,,0.4120851557236165,,,,,,,,,,,,,,,76,001,22,w,Psychologie,2023-01-26_12h01.07.502,00_bat_bachelor,2022.2.4,60.071503256170914,
,,,,,,,,,,,,1,0,1,0,141,0,141,0,,,,,,,141,,,0.2,1630.7862425278872,X,None,nogo,None,1,,,,,,,,,,,,,,,,,76,001,22,w,Psychologie,2023-01-26_12h01.07.502,00_bat_bachelor,2022.2.4,60.071503256170914,
,,,,,,,,,,,,1,0,1,0,142,0,142,0,,,,,,,142,,,0.2,1631.7869242245797,Y,l,go,l,1,,0.42293072608299553,,,,,,,,,,,,,,,76,001,22,w,Psychologie,2023-01-26_12h01.07.502,00_bat_bachelor,2022.2.4,60.071503256170914,
,,,,,,,,,,,,1,0,1,0,143,0,143,0,,,,,,,143,,,0.2,1632.5206940504722,X,d,go,d,1,,0.4251576343085617,,,,,,,,,,,,,,,76,001,22,w,Psychologie,2023-01-26_12h01.07.502,00_bat_bachelor,2022.2.4,60.071503256170914,
,,,,,,,,,,,,1,0,1,0,144,0,144,0,,,,,,,144,,,0.2,1633.2547736945562,X,None,nogo,None,1,,,,,,,,,,,,,,,,,76,001,22,w,Psychologie,2023-01-26_12h01.07.502,00_bat_bachelor,2022.2.4,60.071503256170914,
,,,,,,,,,,,,1,0,1,0,145,0,145,0,,,,,,,145,,,0.2,1634.255460239714,Y,l,go,l,1,,0.46634549321606755,,,,,,,,,,,,,,,76,001,22,w,Psychologie,2023-01-26_12h01.07.502,00_bat_bachelor,2022.2.4,60.071503256170914,
,,,,,,,,,,,,1,0,1,0,146,0,146,0,,,,,,,146,,,0.2,1635.022699140478,X,d,go,d,1,,0.275550918886438,,,,,,,,,,,,,,,76,001,22,w,Psychologie,2023-01-26_12h01.07.502,00_bat_bachelor,2022.2.4,60.071503256170914,
,,,,,,,,,,,,1,0,1,0,147,0,147,0,,,,,,,147,,,0.2,1635.6062692818232,Y,l,go,None,0,,,,,,,,,,,,,,,,,76,001,22,w,Psychologie,2023-01-26_12h01.07.502,00_bat_bachelor,2022.2.4,60.071503256170914,
,,,,,,,,,,,,1,0,1,0,148,0,148,0,,,,,,,148,,,0.2,1636.6070702511352,Y,None,nogo,l,0,,0.5790814384818077,,,,,,,,,,,,,,,76,001,22,w,Psychologie,2023-01-26_12h01.07.502,00_bat_bachelor,2022.2.4,60.071503256170914,
,,,,,,,,,,,,1,0,1,0,149,0,149,0,,,,,,,149,,,0.2,1637.4909869134426,X,d,go,d,1,,0.5576060549356043,,,,,,,,,,,,,,,76,001,22,w,Psychologie,2023-01-26_12h01.07.502,00_bat_bachelor,2022.2.4,60.071503256170914,
,,,,,,,,,,,,1,0,1,0,150,0,150,0,,,,,,,150,,,0.2,1638.3585782505106,Y,l,go,None,0,,,,,,,,,,,,,,,,,76,001,22,w,Psychologie,2023-01-26_12h01.07.502,00_bat_bachelor,2022.2.4,60.071503256170914,
,,,,,,,,,,,,1,0,1,0,151,0,151,0,,,,,,,151,,,0.2,1639.3593622499611,X,d,go,d,1,,0.402202493743971,,,,,,,,,,,,,,,76,001,22,w,Psychologie,2023-01-26_12h01.07.502,00_bat_bachelor,2022.2.4,60.071503256170914,
,,,,,,,,,,,,1,0,1,0,152,0,152,0,,,,,,,152,,,0.2,1640.0765522052534,Y,l,go,l,1,,0.469050946412608,,,,,,,,,,,,,,,76,001,22,w,Psychologie,2023-01-26_12h01.07.502,00_bat_bachelor,2022.2.4,60.071503256170914,
,,,,,,,,,,,,1,0,1,0,153,0,153,0,,,,,,,153,,,0.2,1640.8604558252264,Y,None,nogo,d,0,,0.31007114448584616,,,,,,,,,,,,,,,76,001,22,w,Psychologie,2023-01-26_12h01.07.502,00_bat_bachelor,2022.2.4,60.071503256170914,
,,,,,,,,,,,,1,0,1,0,154,0,154,0,,,,,,,154,,,0.2,1641.477632253198,X,d,go,None,0,,,,,,,,,,,,,,,,,76,001,22,w,Psychologie,2023-01-26_12h01.07.502,00_bat_bachelor,2022.2.4,60.071503256170914,
,,,,,,,,,,,,1,0,1,0,155,0,155,0,,,,,,,155,,,0.2,1642.478496252792,Y,l,go,l,1,,0.30851138778962195,,,,,,,,,,,,,,,76,001,22,w,Psychologie,2023-01-26_12h01.07.502,00_bat_bachelor,2022.2.4,60.071503256170914,
,,,,,,,,,,,,1,0,1,0,156,0,156,0,,,,,,,156,,,0.2,1643.09546128707,X,d,go,d,1,,0.21746125002391636,,,,,,,,,,,,,,,76,001,22,w,Psychologie,2023-01-26_12h01.07.502,00_bat_bachelor,2022.2.4,60.071503256170914,
,,,,,,,,,,,,1,0,1,0,157,0,157,0,,,,,,,157,,,0.2,1643.629268543329,Y,l,go,l,1,,0.4846126358024776,,,,,,,,,,,,,,,76,001,22,w,Psychologie,2023-01-26_12h01.07.502,00_bat_bachelor,2022.2.4,60.071503256170914,
,,,,,,,,,,,,1,0,1,0,158,0,158,0,,,,,,,158,,,0.2,1644.4298451249488,Y,None,nogo,d,0,,0.3242224103305489,,,,,,,,,,,,,,,76,001,22,w,Psychologie,2023-01-26_12h01.07.502,00_bat_bachelor,2022.2.4,60.071503256170914,
,,,,,,,,,,,,1,0,1,0,159,0,159,0,,,,,,,159,,,0.2,1645.0635616660584,Y,None,nogo,None,1,,,,,,,,,,,,,,,,,76,001,22,w,Psychologie,2023-01-26_12h01.07.502,00_bat_bachelor,2022.2.4,60.071503256170914,
,,,,,,,,,,,,1,0,1,0,160,0,160,0,,,,,,,160,,,0.2,1646.064410635503,X,d,go,d,1,,0.5608952653128654,,,,,,,,,,,,,,,76,001,22,w,Psychologie,2023-01-26_12h01.07.502,00_bat_bachelor,2022.2.4,60.071503256170914,
,,,,,,,,,,,,1,0,1,0,161,0,161,0,,,,,,,161,,,0.2,1646.9318894876633,Y,l,go,l,1,,0.39865679875947535,,,,,,,,,,,,,,,76,001,22,w,Psychologie,2023-01-26_12h01.07.502,00_bat_bachelor,2022.2.4,60.071503256170914,
,,,,,,,,,,,,1,0,1,0,162,0,162,0,,,,,,,162,,,0.2,1647.63266005693,X,d,go,l,0,,0.43285217601805925,,,,,,,,,,,,,,,76,001,22,w,Psychologie,2023-01-26_12h01.07.502,00_bat_bachelor,2022.2.4,60.071503256170914,
,,,,,,,,,,,,1,0,1,0,163,0,163,0,,,,,,,163,,,0.2,1648.366372185992,Y,l,go,None,0,1649.167209615931,,,,,,,,,,,,,,,,76,001,22,w,Psychologie,2023-01-26_12h01.07.502,00_bat_bachelor,2022.2.4,60.071503256170914,
,,,,,,,,,,,,1,0,1,0,164,0,164,0,,,,,,,164,,,0.2,1649.3674592156895,X,d,go,d,1,,0.26645225659012794,,,,,,,,,,,,,,,76,001,22,w,Psychologie,2023-01-26_12h01.07.502,00_bat_bachelor,2022.2.4,60.071503256170914,
,,,,,,,,,,,,1,0,1,0,165,0,165,0,,,,,,,165,,,0.2,1649.9342109409627,Y,l,go,l,1,,0.5642935666255653,,,,,,,,,,,,,,,76,001,22,w,Psychologie,2023-01-26_12h01.07.502,00_bat_bachelor,2022.2.4,60.071503256170914,
,,,,,,,,,,,,1,0,1,0,166,0,166,0,,,,,,,166,,,0.2,1650.801501187263,X,d,go,None,0,1651.6020006777253,,,,,,,,,,,,,,,,76,001,22,w,Psychologie,2023-01-26_12h01.07.502,00_bat_bachelor,2022.2.4,60.071503256170914,
,,,,,,,,,,,,1,0,1,0,167,0,167,0,,,,,,,167,,,0.2,1651.8021460352466,Y,l,go,l,1,,0.37611474888399243,,,,,,,,,,,,,,,76,001,22,w,Psychologie,2023-01-26_12h01.07.502,00_bat_bachelor,2022.2.4,60.071503256170914,
,,,,,,,,,,,,1,0,1,0,168,0,168,0,,,,,,,168,,,0.2,1652.4859638856724,Y,None,nogo,d,0,,0.3153957480099052,,,,,,,,,,,,,,,76,001,22,w,Psychologie,2023-01-26_12h01.07.502,00_bat_bachelor,2022.2.4,60.071503256170914,
,,,,,,,,,,,,1,0,1,0,169,0,169,0,,,,,,,169,,,0.2,1653.1031146165915,X,d,go,None,0,,,,,,,,,,,,,,,,,76,001,22,w,Psychologie,2023-01-26_12h01.07.502,00_bat_bachelor,2022.2.4,60.071503256170914,
,,,,,,,,,,,,1,0,1,0,170,0,170,0,,,,,,,170,,,0.2,1654.1039243133273,Y,l,go,l,1,,0.2811916433274746,,,,,,,,,,,,,,,76,001,22,w,Psychologie,2023-01-26_12h01.07.502,00_bat_bachelor,2022.2.4,60.071503256170914,
,,,,,,,,,,,,1,0,1,0,171,0,171,0,,,,,,,171,,,0.2,1654.6877785755787,X,d,go,d,1,,0.27401395002380013,,,,,,,,,,,,,,,76,001,22,w,Psychologie,2023-01-26_12h01.07.502,00_bat_bachelor,2022.2.4,60.071503256170914,
,,,,,,,,,,,,1,0,1,0,172,0,172,0,,,,,,,172,,,0.2,1655.2713739289902,Y,l,go,l,1,,0.426923451712355,,,,,,,,,,,,,,,76,001,22,w,Psychologie,2023-01-26_12h01.07.502,00_bat_bachelor,2022.2.4,60.071503256170914,
,,,,,,,,,,,,1,0,1,0,173,0,173,0,,,,,,,173,,,0.2,1656.0050768461078,X,d,go,d,1,,0.31667186855338514,,,,,,,,,,,,,,,76,001,22,w,Psychologie,2023-01-26_12h01.07.502,00_bat_bachelor,2022.2.4,60.071503256170914,
,,,,,,,,,,,,1,0,1,0,174,0,174,0,,,,,,,174,,,0.2,1656.62244915287,Y,l,go,l,1,,0.4510708339512348,,,,,,,,,,,,,,,76,001,22,w,Psychologie,2023-01-26_12h01.07.502,00_bat_bachelor,2022.2.4,60.071503256170914,
,,,,,,,,,,,,1,0,1,0,175,0,175,0,,,,,,,175,,,0.2,1657.389715689933,Y,None,nogo,l,0,,0.5960748845245689,,,,,,,,,,,,,,,76,001,22,w,Psychologie,2023-01-26_12h01.07.502,00_bat_bachelor,2022.2.4,60.071503256170914,
,,,,,,,,,,,,1,0,1,0,176,0,176,0,,,,,,,176,,,0.2,1658.29035476828,X,d,go,d,1,,0.4965864480473101,,,,,,,,,,,,,,,76,001,22,w,Psychologie,2023-01-26_12h01.07.502,00_bat_bachelor,2022.2.4,60.071503256170914,
,,,,,,,,,,,,1,0,1,0,177,0,177,0,,,,,,,177,,,0.2,1659.091084077023,Y,l,go,l,1,,0.4473709568846971,,,,,,,,,,,,,,,76,001,22,w,Psychologie,2023-01-26_12h01.07.502,00_bat_bachelor,2022.2.4,60.071503256170914,
,,,,,,,,,,,,1,0,1,0,178,0,178,0,,,,,,,178,,,0.2,1659.8416640767828,Y,None,nogo,None,1,1660.6420050221495,,,,,,,,,,,,,,,,76,001,22,w,Psychologie,2023-01-26_12h01.07.502,00_bat_bachelor,2022.2.4,60.071503256170914,
,,,,,,,,,,,,1,0,1,0,179,0,179,0,,,,,,,179,,,0.2,1660.842251712922,X,d,go,d,1,,0.40770697593688965,,,,,,,,,,,,,,,76,001,22,w,Psychologie,2023-01-26_12h01.07.502,00_bat_bachelor,2022.2.4,60.071503256170914,
,,,,,,,,,,,,1,0,1,0,180,0,180,0,,,,,,,180,,,0.2,1661.5595420317259,Y,l,go,l,1,,0.41036345972679555,,,,,,,,,,,,,,,76,001,22,w,Psychologie,2023-01-26_12h01.07.502,00_bat_bachelor,2022.2.4,60.071503256170914,
,,,,,,,,,,,,1,0,1,0,181,0,181,0,,,,,,,181,,,0.2,1662.2765550173353,Y,None,nogo,None,1,,,,,,,,,,,,,,,,,76,001,22,w,Psychologie,2023-01-26_12h01.07.502,00_bat_bachelor,2022.2.4,60.071503256170914,
,,,,,,,,,,,,1,0,1,0,182,0,182,0,,,,,,,182,,,0.2,1663.2775344108231,Y,None,nogo,None,1,,,,,,,,,,,,,,,,,76,001,22,w,Psychologie,2023-01-26_12h01.07.502,00_bat_bachelor,2022.2.4,60.071503256170914,
,,,,,,,,,,,,1,0,1,0,183,0,183,0,,,,,,,183,,,0.2,1664.2784250772092,X,d,go,d,1,,0.3959474666044116,,,,,,,,,,,,,,,76,001,22,w,Psychologie,2023-01-26_12h01.07.502,00_bat_bachelor,2022.2.4,60.071503256170914,
,,,,,,,,,,,,1,0,1,0,184,0,184,0,,,,,,,184,,,0.2,1664.9788024346344,Y,l,go,l,1,,0.28707624645903707,,,,,,,,,,,,,,,76,001,22,w,Psychologie,2023-01-26_12h01.07.502,00_bat_bachelor,2022.2.4,60.071503256170914,
,,,,,,,,,,,,1,0,1,0,185,0,185,0,,,,,,,185,,,0.2,1665.5791934160516,X,d,go,None,0,1666.3798630884849,,,,,,,,,,,,,,,,76,001,22,w,Psychologie,2023-01-26_12h01.07.502,00_bat_bachelor,2022.2.4,60.071503256170914,
,,,,,,,,,,,,1,0,1,0,186,0,186,0,,,,,,,186,,,0.2,1666.580096203601,X,None,nogo,None,1,1667.380742118461,,,,,,,,,,,,,,,,76,001,22,w,Psychologie,2023-01-26_12h01.07.502,00_bat_bachelor,2022.2.4,60.071503256170914,
,,,,,,,,,,,,1,0,1,0,187,0,187,0,,,,,,,187,,,0.2,1667.5808026276063,Y,l,go,l,1,,0.46882743132300675,,,,,,,,,,,,,,,76,001,22,w,Psychologie,2023-01-26_12h01.07.502,00_bat_bachelor,2022.2.4,60.071503256170914,
,,,,,,,,,,,,1,0,1,0,188,0,188,0,,,,,,,188,,,0.2,1668.3645176414866,X,d,go,d,1,,0.3252900461666286,,,,,,,,,,,,,,,76,001,22,w,Psychologie,2023-01-26_12h01.07.502,00_bat_bachelor,2022.2.4,60.071503256170914,
,,,,,,,,,,,,1,0,1,0,189,0,189,0,,,,,,,189,,,0.2,1668.9986036370974,Y,l,go,l,1,,0.5705805940087885,,,,,,,,,,,,,,,76,001,22,w,Psychologie,2023-01-26_12h01.07.502,00_bat_bachelor,2022.2.4,60.071503256170914,
,,,,,,,,,,,,1,0,1,0,190,0,190,0,,,,,,,190,,,0.2,1669.8825464812107,X,d,go,d,1,,0.37461753748357296,,,,,,,,,,,,,,,76,001,22,w,Psychologie,2023-01-26_12h01.07.502,00_bat_bachelor,2022.2.4,60.071503256170914,
,,,,,,,,,,,,1,0,1,0,191,0,191,0,,,,,,,191,,,0.2,1670.566360452678,Y,l,go,l,1,,0.5076826852746308,,,,,,,,,,,,,,,76,001,22,w,Psychologie,2023-01-26_12h01.07.502,00_bat_bachelor,2022.2.4,60.071503256170914,
,,,,,,,,,,,,1,0,1,0,192,0,192,0,,,,,,,192,,,0.2,1671.3835042989813,X,d,go,d,1,,0.3631484522484243,,,,,,,,,,,,,,,76,001,22,w,Psychologie,2023-01-26_12h01.07.502,00_bat_bachelor,2022.2.4,60.071503256170914,
,,,,,,,,,,,,1,0,1,0,193,0,193,0,,,,,,,193,,,0.2,1672.0509483390488,X,None,nogo,None,1,,,,,,,,,,,,,,,,,76,001,22,w,Psychologie,2023-01-26_12h01.07.502,00_bat_bachelor,2022.2.4,60.071503256170914,
,,,,,,,,,,,,1,0,1,0,194,0,194,0,,,,,,,194,,,0.2,1673.0516964597628,Y,l,go,l,1,,0.4700220974627882,,,,,,,,,,,,,,,76,001,22,w,Psychologie,2023-01-26_12h01.07.502,00_bat_bachelor,2022.2.4,60.071503256170914,
,,,,,,,,,,,,1,0,1,0,195,0,195,0,,,,,,,195,,,0.2,1673.8353649282362,X,d,go,d,1,,0.18242320627905428,,,,,,,,,,,,,,,76,001,22,w,Psychologie,2023-01-26_12h01.07.502,00_bat_bachelor,2022.2.4,60.071503256170914,
,,,,,,,,,,,,1,0,1,0,196,0,196,0,,,,,,,196,,,0.2,1674.3193937845062,X,None,nogo,None,1,1675.1199931539595,,,,,,,,,,,,,,,,76,001,22,w,Psychologie,2023-01-26_12h01.07.502,00_bat_bachelor,2022.2.4,60.071503256170914,
,,,,,,,,,,,,1,0,1,0,197,0,197,0,,,,,,,197,,,0.2,1675.320008572191,Y,l,go,l,1,,0.48984802700579166,,,,,,,,,,,,,,,76,001,22,w,Psychologie,2023-01-26_12h01.07.502,00_bat_bachelor,2022.2.4,60.071503256170914,
,,,,,,,,,,,,1,0,1,0,198,0,198,0,,,,,,,198,,,0.2,1676.1205405476503,X,d,go,d,1,,0.4085501271765679,,,,,,,,,,,,,,,76,001,22,w,Psychologie,2023-01-26_12h01.07.502,00_bat_bachelor,2022.2.4,60.071503256170914,
,,,,,,,,,,,,1,0,1,0,199,0,199,0,,,,,,,199,,,0.2,1676.8377246847376,Y,l,go,l,1,,0.42811811761930585,,,,,,,,,,,,,,,76,001,22,w,Psychologie,2023-01-26_12h01.07.502,00_bat_bachelor,2022.2.4,60.071503256170914,
,,,,,,,,,,,,1,0,1,0,200,0,200,0,,,,,,,200,,,0.2,1677.5715362078045,Y,None,nogo,None,1,,,,,,,,,,,,,,,,,76,001,22,w,Psychologie,2023-01-26_12h01.07.502,00_bat_bachelor,2022.2.4,60.071503256170914,
,,,,,,,,,,,,1,0,1,0,201,0,201,0,,,,,,,201,,,0.2,1678.5725417830981,X,d,go,d,1,,0.35690166731365025,,,,,,,,,,,,,,,76,001,22,w,Psychologie,2023-01-26_12h01.07.502,00_bat_bachelor,2022.2.4,60.071503256170914,
,,,,,,,,,,,,1,0,1,0,202,0,202,0,,,,,,,202,,,0.2,1679.2395077627152,Y,l,go,l,1,,0.2817904311232269,,,,,,,,,,,,,,,76,001,22,w,Psychologie,2023-01-26_12h01.07.502,00_bat_bachelor,2022.2.4,60.071503256170914,
,,,,,,,,,,,,1,0,1,0,203,0,203,0,,,,,,,203,,,0.2,1679.8235103886109,X,d,go,d,1,,0.5784996205475181,,,,,,,,,,,,,,,76,001,22,w,Psychologie,2023-01-26_12h01.07.502,00_bat_bachelor,2022.2.4,60.071503256170914,
