loop_instruction.thisRepN,loop_instruction.thisTrialN,loop_instruction.thisN,loop_instruction.thisIndex,loop_rsi_practice.thisRepN,loop_rsi_practice.thisTrialN,loop_rsi_practice.thisN,loop_rsi_practice.thisIndex,loop_practice.thisRepN,loop_practice.thisTrialN,loop_practice.thisN,loop_practice.thisIndex,loop_exp.thisRepN,loop_exp.thisTrialN,loop_exp.thisN,loop_exp.thisIndex,loop_trials.thisRepN,loop_trials.thisTrialN,loop_trials.thisN,loop_trials.thisIndex,map_condition,map_x_key,map_y_key,key_resp_welcome.started,key_resp_welcome.keys,key_resp_welcome.rt,index,text_empty_rsi_practice.started,text_empty_rsi_practice.stopped,rsi,stimulus.started,stimulus.stopped,stimulus,correct,trial_type,key_resp_trial.keys,key_resp_trial.corr,key_resp_trial.rt,key_resp_instruction_rsi.started,key_resp_instruction_rsi.keys,key_resp_instruction_rsi.rt,key_resp_instruction_rsi.stopped,key_resp_instruction_final.started,key_resp_instruction_final.keys,key_resp_instruction_final.rt,key_resp_break.started,key_resp_break.keys,key_resp_break.rt,key_resp_break.stopped,key_resp_end_screen.started,image_end_screen.started,key_resp_end_screen.keys,participant,session,Alter,Geschlecht (w/m/d/andere),Studiengang,date,expName,psychopyVersion,frameRate,
,,,,0,0,0,0,0,0,0,0,,,,,,,,,1,l,d,1454.7903264047345,j,20.15627610741649,0,1474.9813537059817,1475.9951776993694,1,1475.9951776993694,1476.7951113720192,X,l,go,None,0,,,,,,,,,,,,,,,,77,001,22,w,Psychologie MSc,2023-01-26_12h07.25.472,00_bat_bachelor,2022.2.4,59.985894240986354,
,,,,0,0,0,0,1,0,1,0,,,,,,,,,,,,,,,1,1477.394998596399,1478.394846838899,1,1478.394846838899,,Y,d,go,d,1,0.2775895030936226,,,,,,,,,,,,,,,77,001,22,w,Psychologie MSc,2023-01-26_12h07.25.472,00_bat_bachelor,2022.2.4,59.985894240986354,
,,,,0,0,0,0,2,0,2,0,,,,,,,,,,,,,,,2,1479.3780526651535,1480.378130240948,1,1480.378130240948,,X,l,go,l,1,0.2616059957072139,,,,,,,,,,,,,,,77,001,22,w,Psychologie MSc,2023-01-26_12h07.25.472,00_bat_bachelor,2022.2.4,59.985894240986354,
,,,,0,0,0,0,3,0,3,0,,,,,,,,,,,,,,,3,1481.3448483176762,1482.3447081964696,1,1482.3447081964696,,Y,d,go,d,1,0.27872259356081486,,,,,,,,,,,,,,,77,001,22,w,Psychologie MSc,2023-01-26_12h07.25.472,00_bat_bachelor,2022.2.4,59.985894240986354,
,,,,0,0,0,0,4,0,4,0,,,,,,,,,,,,,,,4,1483.3283242044272,1484.3283402044326,1,1484.3283402044326,,X,l,go,l,1,0.29535434301942587,,,,,,,,,,,,,,,77,001,22,w,Psychologie MSc,2023-01-26_12h07.25.472,00_bat_bachelor,2022.2.4,59.985894240986354,
,,,,0,0,0,0,5,0,5,0,,,,,,,,,,,,,,,5,1485.3280444470001,1486.3283261439065,1,1486.3283261439065,,X,None,nogo,l,0,0.3916616903152317,,,,,,,,,,,,,,,77,001,22,w,Psychologie MSc,2023-01-26_12h07.25.472,00_bat_bachelor,2022.2.4,59.985894240986354,
,,,,0,0,0,0,6,0,6,0,,,,,,,,,,,,,,,6,1487.8283879619557,1488.8284252953017,1,1488.8284252953017,,Y,d,go,d,1,0.4356088205240667,,,,,,,,,,,,,,,77,001,22,w,Psychologie MSc,2023-01-26_12h07.25.472,00_bat_bachelor,2022.2.4,59.985894240986354,
,,,,0,0,0,0,7,0,7,0,,,,,,,,,,,,,,,7,1489.9783214650815,1490.9780504348455,1,1490.9780504348455,,X,l,go,l,1,0.3498483772855252,,,,,,,,,,,,,,,77,001,22,w,Psychologie MSc,2023-01-26_12h07.25.472,00_bat_bachelor,2022.2.4,59.985894240986354,
,,,,0,0,0,0,8,0,8,0,,,,,,,,,,,,,,,8,1492.0283190165646,1493.027992228861,1,1493.027992228861,,Y,d,go,d,1,0.3797140596434474,,,,,,,,,,,,,,,77,001,22,w,Psychologie MSc,2023-01-26_12h07.25.472,00_bat_bachelor,2022.2.4,59.985894240986354,
,,,,0,0,0,0,9,0,9,0,,,,,,,,,,,,,,,9,1494.1115247943671,1495.1117279458558,1,1495.1117279458558,,X,l,go,l,1,0.3769048488466069,,,,,,,,,,,,,,,77,001,22,w,Psychologie MSc,2023-01-26_12h07.25.472,00_bat_bachelor,2022.2.4,59.985894240986354,
,,,,0,0,0,0,10,0,10,0,,,,,,,,,,,,,,,10,1496.194776632823,1497.19522026903,1,1497.19522026903,,Y,d,go,d,1,0.4691089254338294,,,,,,,,,,,,,,,77,001,22,w,Psychologie MSc,2023-01-26_12h07.25.472,00_bat_bachelor,2022.2.4,59.985894240986354,
,,,,0,0,0,0,11,0,11,0,,,,,,,,,,,,,,,11,1498.3781219985103,1499.3783421196276,1,1499.3783421196276,,X,l,go,l,1,0.381427513435483,,,,,,,,,,,,,,,77,001,22,w,Psychologie MSc,2023-01-26_12h07.25.472,00_bat_bachelor,2022.2.4,59.985894240986354,
,,,,0,0,0,0,12,0,12,0,,,,,,,,,,,,,,,12,1500.4616463215789,1501.4617631700821,1,1501.4617631700821,,Y,d,go,d,1,0.3786963631864637,,,,,,,,,,,,,,,77,001,22,w,Psychologie MSc,2023-01-26_12h07.25.472,00_bat_bachelor,2022.2.4,59.985894240986354,
,,,,0,0,0,0,13,0,13,0,,,,,,,,,,,,,,,13,1502.5446528268512,1503.5449582812143,1,1503.5449582812143,1504.344978256966,Y,None,nogo,None,1,,,,,,,,,,,,,,,,77,001,22,w,Psychologie MSc,2023-01-26_12h07.25.472,00_bat_bachelor,2022.2.4,59.985894240986354,
,,,,0,0,0,0,14,0,14,0,,,,,,,,,,,,,,,14,1504.9446637844667,1505.9449779660208,1,1505.9449779660208,,X,l,go,l,1,0.3583269185619429,,,,,,,,,,,,,,,77,001,22,w,Psychologie MSc,2023-01-26_12h07.25.472,00_bat_bachelor,2022.2.4,59.985894240986354,
,,,,1,0,1,0,0,0,0,0,,,,,,,,,,,,,,,0,1524.2283208590234,1524.4280172470026,0.2,1524.4280172470026,,X,l,go,l,1,0.46739401714876294,1507.0227136859903,j,17.18795221322216,,,,,,,,,,,,77,001,22,w,Psychologie MSc,2023-01-26_12h07.25.472,00_bat_bachelor,2022.2.4,59.985894240986354,
,,,,1,0,1,0,1,0,1,0,,,,,,,,,,,,,,,1,1525.6115415217355,1525.8116054247366,0.2,1525.8116054247366,,Y,d,go,d,1,0.2678009019000456,,,,,,,,,,,,,,,77,001,22,w,Psychologie MSc,2023-01-26_12h07.25.472,00_bat_bachelor,2022.2.4,59.985894240986354,
,,,,1,0,1,0,2,0,2,0,,,,,,,,,,,,,,,2,1526.794969796436,1526.9949158813106,0.2,1526.9949158813106,,X,l,go,l,1,0.36505952128209174,,,,,,,,,,,,,,,77,001,22,w,Psychologie MSc,2023-01-26_12h07.25.472,00_bat_bachelor,2022.2.4,59.985894240986354,
,,,,1,0,1,0,3,0,3,0,,,,,,,,,,,,,,,3,1528.0615616671275,1528.2614966004621,0.2,1528.2614966004621,1529.0616416670382,X,None,nogo,None,1,,,,,,,,,,,,,,,,77,001,22,w,Psychologie MSc,2023-01-26_12h07.25.472,00_bat_bachelor,2022.2.4,59.985894240986354,
,,,,1,0,1,0,4,0,4,0,,,,,,,,,,,,,,,4,1529.6616981034167,1529.8616863701027,0.2,1529.8616863701027,,Y,d,go,d,1,0.29834973555989563,,,,,,,,,,,,,,,77,001,22,w,Psychologie MSc,2023-01-26_12h07.25.472,00_bat_bachelor,2022.2.4,59.985894240986354,
,,,,1,0,1,0,5,0,5,0,,,,,,,,,,,,,,,5,1530.861665521632,1531.0613071217667,0.2,1531.0613071217667,,X,l,go,l,1,0.4096529542002827,,,,,,,,,,,,,,,77,001,22,w,Psychologie MSc,2023-01-26_12h07.25.472,00_bat_bachelor,2022.2.4,59.985894240986354,
,,,,1,0,1,0,6,0,6,0,,,,,,,,,,,,,,,6,1532.1782922771527,1532.3785486649722,0.2,1532.3785486649722,,Y,d,go,d,1,0.37412375945132226,,,,,,,,,,,,,,,77,001,22,w,Psychologie MSc,2023-01-26_12h07.25.472,00_bat_bachelor,2022.2.4,59.985894240986354,
,,,,1,0,1,0,7,0,7,0,,,,,,,,,,,,,,,7,1533.4617302003317,1533.6616559216054,0.2,1533.6616559216054,,X,l,go,l,1,0.43473803298547864,,,,,,,,,,,,,,,77,001,22,w,Psychologie MSc,2023-01-26_12h07.25.472,00_bat_bachelor,2022.2.4,59.985894240986354,
,,,,1,0,1,0,8,0,8,0,,,,,,,,,,,,,,,8,1534.811623364105,1535.011485085357,0.2,1535.011485085357,,Y,d,go,d,1,0.46007668739184737,,,,,,,,,,,,,,,77,001,22,w,Psychologie MSc,2023-01-26_12h07.25.472,00_bat_bachelor,2022.2.4,59.985894240986354,
,,,,1,0,1,0,9,0,9,0,,,,,,,,,,,,,,,9,1536.1782859741943,1536.3779338774038,0.2,1536.3779338774038,,X,l,go,l,1,0.45404614484868944,,,,,,,,,,,,,,,77,001,22,w,Psychologie MSc,2023-01-26_12h07.25.472,00_bat_bachelor,2022.2.4,59.985894240986354,
,,,,1,0,1,0,10,0,10,0,,,,,,,,,,,,,,,10,1537.5449306449154,1537.7446837602183,0.2,1537.7446837602183,1538.5449713721173,X,None,nogo,None,1,,,,,,,,,,,,,,,,77,001,22,w,Psychologie MSc,2023-01-26_12h07.25.472,00_bat_bachelor,2022.2.4,59.985894240986354,
,,,,1,0,1,0,11,0,11,0,,,,,,,,,,,,,,,11,1539.1449545964133,1539.3450951054692,0.2,1539.3450951054692,,Y,d,go,d,1,0.3826115127885714,,,,,,,,,,,,,,,77,001,22,w,Psychologie MSc,2023-01-26_12h07.25.472,00_bat_bachelor,2022.2.4,59.985894240986354,
,,,,1,0,1,0,12,0,12,0,,,,,,,,,,,,,,,12,1540.4279062168207,1540.628477755934,0.2,1540.628477755934,,X,l,go,l,1,0.45894117280840874,,,,,,,,,,,,,,,77,001,22,w,Psychologie MSc,2023-01-26_12h07.25.472,00_bat_bachelor,2022.2.4,59.985894240986354,
,,,,1,0,1,0,13,0,13,0,,,,,,,,,,,,,,,13,1541.7956364627462,1541.995632487,0.2,1541.995632487,,X,None,nogo,l,0,0.40378919953946024,,,,,,,,,,,,,,,77,001,22,w,Psychologie MSc,2023-01-26_12h07.25.472,00_bat_bachelor,2022.2.4,59.985894240986354,
,,,,1,0,1,0,14,0,14,0,,,,,,,,,,,,,,,14,1543.5454407052603,1543.7454663052922,0.2,1543.7454663052922,,X,None,nogo,l,0,0.49418964062351733,,,,,,,,,,,,,,,77,001,22,w,Psychologie MSc,2023-01-26_12h07.25.472,00_bat_bachelor,2022.2.4,59.985894240986354,
,,,,,,,,,,,,,,,,,,,,,,,,,,,,,,,,,,,,,,1545.4101176193217,None,,1545.4101176193217,1545.4101176193217,space,8.384935390437022,,,,,,,,77,001,22,w,Psychologie MSc,2023-01-26_12h07.25.472,00_bat_bachelor,2022.2.4,59.985894240986354,
,,,,,,,,,,,,0,0,0,0,0,0,0,0,,,,,,,0,,,1,1554.8446895298548,,X,l,go,l,1,0.37139648804441094,,,,,,,,,,,,,,,77,001,22,w,Psychologie MSc,2023-01-26_12h07.25.472,00_bat_bachelor,2022.2.4,59.985894240986354,
,,,,,,,,,,,,0,0,0,0,1,0,1,0,,,,,,,1,,,1,1556.3282766892808,,Y,d,go,d,1,0.40746240981388837,,,,,,,,,,,,,,,77,001,22,w,Psychologie MSc,2023-01-26_12h07.25.472,00_bat_bachelor,2022.2.4,59.985894240986354,
,,,,,,,,,,,,0,0,0,0,2,0,2,0,,,,,,,2,,,1,1557.8449658933096,,X,l,go,l,1,0.4751128014177084,,,,,,,,,,,,,,,77,001,22,w,Psychologie MSc,2023-01-26_12h07.25.472,00_bat_bachelor,2022.2.4,59.985894240986354,
,,,,,,,,,,,,0,0,0,0,3,0,3,0,,,,,,,3,,,1,1559.428253852995,,Y,d,go,d,1,0.29913615935947746,,,,,,,,,,,,,,,77,001,22,w,Psychologie MSc,2023-01-26_12h07.25.472,00_bat_bachelor,2022.2.4,59.985894240986354,
,,,,,,,,,,,,0,0,0,0,4,0,4,0,,,,,,,4,,,1,1560.8279583865078,,X,l,go,l,1,0.4037324722157791,,,,,,,,,,,,,,,77,001,22,w,Psychologie MSc,2023-01-26_12h07.25.472,00_bat_bachelor,2022.2.4,59.985894240986354,
,,,,,,,,,,,,0,0,0,0,5,0,5,0,,,,,,,5,,,1,1562.3449084388558,,Y,d,go,d,1,0.39053878164850175,,,,,,,,,,,,,,,77,001,22,w,Psychologie MSc,2023-01-26_12h07.25.472,00_bat_bachelor,2022.2.4,59.985894240986354,
,,,,,,,,,,,,0,0,0,0,6,0,6,0,,,,,,,6,,,1,1563.8449377721408,1564.6445848996518,Y,None,nogo,None,1,,,,,,,,,,,,,,,,77,001,22,w,Psychologie MSc,2023-01-26_12h07.25.472,00_bat_bachelor,2022.2.4,59.985894240986354,
,,,,,,,,,,,,0,0,0,0,7,0,7,0,,,,,,,7,,,1,1565.644973747898,,X,l,go,l,1,0.2588326637633145,,,,,,,,,,,,,,,77,001,22,w,Psychologie MSc,2023-01-26_12h07.25.472,00_bat_bachelor,2022.2.4,59.985894240986354,
,,,,,,,,,,,,0,0,0,0,8,0,8,0,,,,,,,8,,,1,1567.0112693278352,,Y,d,go,d,1,0.36485346080735326,,,,,,,,,,,,,,,77,001,22,w,Psychologie MSc,2023-01-26_12h07.25.472,00_bat_bachelor,2022.2.4,59.985894240986354,
,,,,,,,,,,,,0,0,0,0,9,0,9,0,,,,,,,9,,,1,1568.4781253439141,1569.278250531759,Y,None,nogo,None,1,,,,,,,,,,,,,,,,77,001,22,w,Psychologie MSc,2023-01-26_12h07.25.472,00_bat_bachelor,2022.2.4,59.985894240986354,
,,,,,,,,,,,,0,0,0,0,10,0,10,0,,,,,,,10,,,1,1570.277939259191,,X,l,go,l,1,0.36143915937282145,,,,,,,,,,,,,,,77,001,22,w,Psychologie MSc,2023-01-26_12h07.25.472,00_bat_bachelor,2022.2.4,59.985894240986354,
,,,,,,,,,,,,0,0,0,0,11,0,11,0,,,,,,,11,,,1,1571.7446294571273,,Y,d,go,d,1,0.39960059558507055,,,,,,,,,,,,,,,77,001,22,w,Psychologie MSc,2023-01-26_12h07.25.472,00_bat_bachelor,2022.2.4,59.985894240986354,
,,,,,,,,,,,,0,0,0,0,12,0,12,0,,,,,,,12,,,1,1573.244761578273,,X,l,go,l,1,0.41826967732049525,,,,,,,,,,,,,,,77,001,22,w,Psychologie MSc,2023-01-26_12h07.25.472,00_bat_bachelor,2022.2.4,59.985894240986354,
,,,,,,,,,,,,0,0,0,0,13,0,13,0,,,,,,,13,,,1,1574.7779249561718,1575.5781088105869,X,None,nogo,None,1,,,,,,,,,,,,,,,,77,001,22,w,Psychologie MSc,2023-01-26_12h07.25.472,00_bat_bachelor,2022.2.4,59.985894240986354,
,,,,,,,,,,,,0,0,0,0,14,0,14,0,,,,,,,14,,,1,1576.5781291743042,,Y,d,go,d,1,0.26912114361766726,,,,,,,,,,,,,,,77,001,22,w,Psychologie MSc,2023-01-26_12h07.25.472,00_bat_bachelor,2022.2.4,59.985894240986354,
,,,,,,,,,,,,0,0,0,0,15,0,15,0,,,,,,,15,,,1,1577.9613818369107,,X,l,go,l,1,0.37459551671054214,,,,,,,,,,,,,,,77,001,22,w,Psychologie MSc,2023-01-26_12h07.25.472,00_bat_bachelor,2022.2.4,59.985894240986354,
,,,,,,,,,,,,0,0,0,0,16,0,16,0,,,,,,,16,,,1,1579.444825966144,,Y,d,go,d,1,0.4108384082792327,,,,,,,,,,,,,,,77,001,22,w,Psychologie MSc,2023-01-26_12h07.25.472,00_bat_bachelor,2022.2.4,59.985894240986354,
,,,,,,,,,,,,0,0,0,0,17,0,17,0,,,,,,,17,,,1,1580.9613735944731,1581.7618086003931,Y,None,nogo,None,1,,,,,,,,,,,,,,,,77,001,22,w,Psychologie MSc,2023-01-26_12h07.25.472,00_bat_bachelor,2022.2.4,59.985894240986354,
,,,,,,,,,,,,0,0,0,0,18,0,18,0,,,,,,,18,,,1,1582.7615458125947,,X,l,go,l,1,0.32671772176399827,,,,,,,,,,,,,,,77,001,22,w,Psychologie MSc,2023-01-26_12h07.25.472,00_bat_bachelor,2022.2.4,59.985894240986354,
,,,,,,,,,,,,0,0,0,0,19,0,19,0,,,,,,,19,,,1,1584.1946185723646,,Y,d,go,d,1,0.36449612758588046,,,,,,,,,,,,,,,77,001,22,w,Psychologie MSc,2023-01-26_12h07.25.472,00_bat_bachelor,2022.2.4,59.985894240986354,
,,,,,,,,,,,,0,0,0,0,20,0,20,0,,,,,,,20,,,1,1585.6616675580153,1586.4612356551224,Y,None,nogo,None,1,,,,,,,,,,,,,,,,77,001,22,w,Psychologie MSc,2023-01-26_12h07.25.472,00_bat_bachelor,2022.2.4,59.985894240986354,
,,,,,,,,,,,,0,0,0,0,21,0,21,0,,,,,,,21,,,1,1587.4616438973462,,X,l,go,l,1,0.2980641599278897,,,,,,,,,,,,,,,77,001,22,w,Psychologie MSc,2023-01-26_12h07.25.472,00_bat_bachelor,2022.2.4,59.985894240986354,
,,,,,,,,,,,,0,0,0,0,22,0,22,0,,,,,,,22,,,1,1588.861424067174,,Y,d,go,d,1,0.2898498608265072,,,,,,,,,,,,,,,77,001,22,w,Psychologie MSc,2023-01-26_12h07.25.472,00_bat_bachelor,2022.2.4,59.985894240986354,
,,,,,,,,,,,,0,0,0,0,23,0,23,0,,,,,,,23,,,1,1590.2615741762565,,X,l,go,l,1,0.2830207732040435,,,,,,,,,,,,,,,77,001,22,w,Psychologie MSc,2023-01-26_12h07.25.472,00_bat_bachelor,2022.2.4,59.985894240986354,
,,,,,,,,,,,,0,0,0,0,24,0,24,0,,,,,,,24,,,1,1591.6449315660866,1592.4448104510084,X,None,nogo,None,1,,,,,,,,,,,,,,,,77,001,22,w,Psychologie MSc,2023-01-26_12h07.25.472,00_bat_bachelor,2022.2.4,59.985894240986354,
,,,,,,,,,,,,0,0,0,0,25,0,25,0,,,,,,,25,,,1,1593.444620390539,,Y,d,go,d,1,0.4267719762865454,,,,,,,,,,,,,,,77,001,22,w,Psychologie MSc,2023-01-26_12h07.25.472,00_bat_bachelor,2022.2.4,59.985894240986354,
,,,,,,,,,,,,0,0,0,0,26,0,26,0,,,,,,,26,,,1,1594.9783297075192,,X,l,go,l,1,0.28590271121356636,,,,,,,,,,,,,,,77,001,22,w,Psychologie MSc,2023-01-26_12h07.25.472,00_bat_bachelor,2022.2.4,59.985894240986354,
,,,,,,,,,,,,0,0,0,0,27,0,27,0,,,,,,,27,,,1,1596.3782223621383,1597.1782505802112,X,None,nogo,None,1,,,,,,,,,,,,,,,,77,001,22,w,Psychologie MSc,2023-01-26_12h07.25.472,00_bat_bachelor,2022.2.4,59.985894240986354,
,,,,,,,,,,,,0,0,0,0,28,0,28,0,,,,,,,28,,,1,1598.177972762147,,Y,d,go,d,1,0.269237507134676,,,,,,,,,,,,,,,77,001,22,w,Psychologie MSc,2023-01-26_12h07.25.472,00_bat_bachelor,2022.2.4,59.985894240986354,
,,,,,,,,,,,,0,0,0,0,29,0,29,0,,,,,,,29,,,1,1599.5612467582105,,X,l,go,l,1,0.29363458626903594,,,,,,,,,,,,,,,77,001,22,w,Psychologie MSc,2023-01-26_12h07.25.472,00_bat_bachelor,2022.2.4,59.985894240986354,
,,,,,,,,,,,,0,0,0,0,30,0,30,0,,,,,,,30,,,1,1600.9615791701945,1601.7613698126515,X,None,nogo,None,1,,,,,,,,,,,,,,,,77,001,22,w,Psychologie MSc,2023-01-26_12h07.25.472,00_bat_bachelor,2022.2.4,59.985894240986354,
,,,,,,,,,,,,0,0,0,0,31,0,31,0,,,,,,,31,,,1,1602.7617799942382,,Y,d,go,d,1,0.3905339332995936,,,,,,,,,,,,,,,77,001,22,w,Psychologie MSc,2023-01-26_12h07.25.472,00_bat_bachelor,2022.2.4,59.985894240986354,
,,,,,,,,,,,,0,0,0,0,32,0,32,0,,,,,,,32,,,1,1604.2615809640847,,X,l,go,l,1,0.3620243713958189,,,,,,,,,,,,,,,77,001,22,w,Psychologie MSc,2023-01-26_12h07.25.472,00_bat_bachelor,2022.2.4,59.985894240986354,
,,,,,,,,,,,,0,0,0,0,33,0,33,0,,,,,,,33,,,1,1605.7284107983578,,Y,d,go,d,1,0.28800549812149256,,,,,,,,,,,,,,,77,001,22,w,Psychologie MSc,2023-01-26_12h07.25.472,00_bat_bachelor,2022.2.4,59.985894240986354,
,,,,,,,,,,,,0,0,0,0,34,0,34,0,,,,,,,34,,,1,1607.127934483462,1607.9282570044743,Y,None,nogo,None,1,,,,,,,,,,,,,,,,77,001,22,w,Psychologie MSc,2023-01-26_12h07.25.472,00_bat_bachelor,2022.2.4,59.985894240986354,
,,,,,,,,,,,,0,0,0,0,35,0,35,0,,,,,,,35,,,1,1608.928124156082,,X,l,go,l,1,0.41515452740713954,,,,,,,,,,,,,,,77,001,22,w,Psychologie MSc,2023-01-26_12h07.25.472,00_bat_bachelor,2022.2.4,59.985894240986354,
,,,,,,,,,,,,0,0,0,0,36,0,36,0,,,,,,,36,,,1,1610.4448618448805,,Y,d,go,d,1,0.2911492541898042,,,,,,,,,,,,,,,77,001,22,w,Psychologie MSc,2023-01-26_12h07.25.472,00_bat_bachelor,2022.2.4,59.985894240986354,
,,,,,,,,,,,,0,0,0,0,37,0,37,0,,,,,,,37,,,1,1611.8449309843127,,X,l,go,l,1,0.3305121442535892,,,,,,,,,,,,,,,77,001,22,w,Psychologie MSc,2023-01-26_12h07.25.472,00_bat_bachelor,2022.2.4,59.985894240986354,
,,,,,,,,,,,,0,0,0,0,38,0,38,0,,,,,,,38,,,1,1613.2778990167426,,Y,d,go,d,1,0.3216840273234993,,,,,,,,,,,,,,,77,001,22,w,Psychologie MSc,2023-01-26_12h07.25.472,00_bat_bachelor,2022.2.4,59.985894240986354,
,,,,,,,,,,,,0,0,0,0,39,0,39,0,,,,,,,39,,,1,1614.7116059580585,,X,l,go,l,1,0.3436820771312341,,,,,,,,,,,,,,,77,001,22,w,Psychologie MSc,2023-01-26_12h07.25.472,00_bat_bachelor,2022.2.4,59.985894240986354,
,,,,,,,,,,,,0,0,0,0,40,0,40,0,,,,,,,40,,,1,1616.1615722853458,1616.961607776233,X,None,nogo,None,1,,,,,,,,,,,,,,,,77,001,22,w,Psychologie MSc,2023-01-26_12h07.25.472,00_bat_bachelor,2022.2.4,59.985894240986354,
,,,,,,,,,,,,0,0,0,0,41,0,41,0,,,,,,,41,,,1,1617.96157189738,,Y,d,go,d,1,0.35798994905781,,,,,,,,,,,,,,,77,001,22,w,Psychologie MSc,2023-01-26_12h07.25.472,00_bat_bachelor,2022.2.4,59.985894240986354,
,,,,,,,,,,,,0,0,0,0,42,0,42,0,,,,,,,42,,,1,1619.4282174893888,,X,l,go,l,1,0.28411022725049406,,,,,,,,,,,,,,,77,001,22,w,Psychologie MSc,2023-01-26_12h07.25.472,00_bat_bachelor,2022.2.4,59.985894240986354,
,,,,,,,,,,,,0,0,0,0,43,0,43,0,,,,,,,43,,,1,1620.8282366893254,1621.6283032104839,X,None,nogo,None,1,,,,,,,,,,,,,,,,77,001,22,w,Psychologie MSc,2023-01-26_12h07.25.472,00_bat_bachelor,2022.2.4,59.985894240986354,
,,,,,,,,,,,,0,0,0,0,44,0,44,0,,,,,,,44,,,1,1622.62821108941,,Y,d,go,d,1,0.33154487097635865,,,,,,,,,,,,,,,77,001,22,w,Psychologie MSc,2023-01-26_12h07.25.472,00_bat_bachelor,2022.2.4,59.985894240986354,
,,,,,,,,,,,,0,0,0,0,45,0,45,0,,,,,,,45,,,1,1624.0615670004627,,X,l,go,l,1,0.3215177241945639,,,,,,,,,,,,,,,77,001,22,w,Psychologie MSc,2023-01-26_12h07.25.472,00_bat_bachelor,2022.2.4,59.985894240986354,
,,,,,,,,,,,,0,0,0,0,46,0,46,0,,,,,,,46,,,1,1625.4949190327898,,Y,d,go,d,1,0.3613223109859973,,,,,,,,,,,,,,,77,001,22,w,Psychologie MSc,2023-01-26_12h07.25.472,00_bat_bachelor,2022.2.4,59.985894240986354,
,,,,,,,,,,,,0,0,0,0,47,0,47,0,,,,,,,47,,,1,1626.9615617155796,,X,l,go,l,1,0.27018780971411616,,,,,,,,,,,,,,,77,001,22,w,Psychologie MSc,2023-01-26_12h07.25.472,00_bat_bachelor,2022.2.4,59.985894240986354,
,,,,,,,,,,,,0,0,0,0,48,0,48,0,,,,,,,48,,,1,1628.3447450449457,,Y,d,go,d,1,0.31065179011784494,,,,,,,,,,,,,,,77,001,22,w,Psychologie MSc,2023-01-26_12h07.25.472,00_bat_bachelor,2022.2.4,59.985894240986354,
,,,,,,,,,,,,0,0,0,0,49,0,49,0,,,,,,,49,,,1,1629.7615715095308,,X,l,go,l,1,0.302581975935027,,,,,,,,,,,,,,,77,001,22,w,Psychologie MSc,2023-01-26_12h07.25.472,00_bat_bachelor,2022.2.4,59.985894240986354,
,,,,,,,,,,,,0,0,0,0,50,0,50,0,,,,,,,50,,,1,1631.1782277923776,,Y,d,go,d,1,0.5661105754552409,,,,,,,,,,,,,,,77,001,22,w,Psychologie MSc,2023-01-26_12h07.25.472,00_bat_bachelor,2022.2.4,59.985894240986354,
,,,,,,,,,,,,0,0,0,0,51,0,51,0,,,,,,,51,,,1,1632.8447738934774,1633.6448893842753,Y,None,nogo,None,1,,,,,,,,,,,,,,,,77,001,22,w,Psychologie MSc,2023-01-26_12h07.25.472,00_bat_bachelor,2022.2.4,59.985894240986354,
,,,,,,,,,,,,0,0,0,0,52,0,52,0,,,,,,,52,,,1,1634.6447541116504,,X,l,go,l,1,0.3627147951629013,,,,,,,,,,,,,,,77,001,22,w,Psychologie MSc,2023-01-26_12h07.25.472,00_bat_bachelor,2022.2.4,59.985894240986354,
,,,,,,,,,,,,0,0,0,0,53,0,53,0,,,,,,,53,,,1,1636.111277036951,,Y,d,go,d,1,0.3999627771554515,,,,,,,,,,,,,,,77,001,22,w,Psychologie MSc,2023-01-26_12h07.25.472,00_bat_bachelor,2022.2.4,59.985894240986354,
,,,,,,,,,,,,0,0,0,0,54,0,54,0,,,,,,,54,,,1,1637.6115720671369,,X,l,go,l,1,0.2757257465273142,,,,,,,,,,,,,,,77,001,22,w,Psychologie MSc,2023-01-26_12h07.25.472,00_bat_bachelor,2022.2.4,59.985894240986354,
,,,,,,,,,,,,0,0,0,0,55,0,55,0,,,,,,,55,,,1,1638.9948732146295,,X,None,nogo,d,0,0.3009242797270417,,,,,,,,,,,,,,,77,001,22,w,Psychologie MSc,2023-01-26_12h07.25.472,00_bat_bachelor,2022.2.4,59.985894240986354,
,,,,,,,,,,,,0,0,0,0,56,0,56,0,,,,,,,56,,,1,1640.4113922853721,1641.2114200186916,Y,d,go,None,0,,,,,,,,,,,,,,,,77,001,22,w,Psychologie MSc,2023-01-26_12h07.25.472,00_bat_bachelor,2022.2.4,59.985894240986354,
,,,,,,,,,,,,0,0,0,0,57,0,57,0,,,,,,,57,,,1,1642.2115388065577,,X,l,go,l,1,0.4766720733605325,,,,,,,,,,,,,,,77,001,22,w,Psychologie MSc,2023-01-26_12h07.25.472,00_bat_bachelor,2022.2.4,59.985894240986354,
,,,,,,,,,,,,0,0,0,0,58,0,58,0,,,,,,,58,,,1,1643.7945741602452,,Y,d,go,d,1,0.42889173282310367,,,,,,,,,,,,,,,77,001,22,w,Psychologie MSc,2023-01-26_12h07.25.472,00_bat_bachelor,2022.2.4,59.985894240986354,
,,,,,,,,,,,,0,0,0,0,59,0,59,0,,,,,,,59,,,1,1645.327944568242,,X,l,go,l,1,0.44735766330268234,,,,,,,,,,,,,,,77,001,22,w,Psychologie MSc,2023-01-26_12h07.25.472,00_bat_bachelor,2022.2.4,59.985894240986354,
,,,,,,,,,,,,0,0,0,0,60,0,60,0,,,,,,,60,,,1,1646.8778977561742,,Y,d,go,d,1,0.3217199060600251,,,,,,,,,,,,,,,77,001,22,w,Psychologie MSc,2023-01-26_12h07.25.472,00_bat_bachelor,2022.2.4,59.985894240986354,
,,,,,,,,,,,,0,0,0,0,61,0,61,0,,,,,,,61,,,1,1648.3112614247948,,X,l,go,l,1,0.39215769001748413,,,,,,,,,,,,,,,77,001,22,w,Psychologie MSc,2023-01-26_12h07.25.472,00_bat_bachelor,2022.2.4,59.985894240986354,
,,,,,,,,,,,,0,0,0,0,62,0,62,0,,,,,,,62,,,1,1649.8114827580284,1650.6113286733162,X,None,nogo,None,1,,,,,,,,,,,,,,,,77,001,22,w,Psychologie MSc,2023-01-26_12h07.25.472,00_bat_bachelor,2022.2.4,59.985894240986354,
,,,,,,,,,,,,0,0,0,0,63,0,63,0,,,,,,,63,,,1,1651.6112569157267,,Y,d,go,d,1,0.3879652072209865,,,,,,,,,,,,,,,77,001,22,w,Psychologie MSc,2023-01-26_12h07.25.472,00_bat_bachelor,2022.2.4,59.985894240986354,
,,,,,,,,,,,,0,0,0,0,64,0,64,0,,,,,,,64,,,1,1653.1116750973742,,X,l,go,l,1,0.3275599032640457,,,,,,,,,,,,,,,77,001,22,w,Psychologie MSc,2023-01-26_12h07.25.472,00_bat_bachelor,2022.2.4,59.985894240986354,
,,,,,,,,,,,,0,0,0,0,65,0,65,0,,,,,,,65,,,1,1654.5448782813037,1655.3449176509166,X,None,nogo,None,1,,,,,,,,,,,,,,,,77,001,22,w,Psychologie MSc,2023-01-26_12h07.25.472,00_bat_bachelor,2022.2.4,59.985894240986354,
,,,,,,,,,,,,0,0,0,0,66,0,66,0,,,,,,,66,,,1,1656.3449515902903,,X,None,nogo,l,0,0.5028039393946528,,,,,,,,,,,,,,,77,001,22,w,Psychologie MSc,2023-01-26_12h07.25.472,00_bat_bachelor,2022.2.4,59.985894240986354,
,,,,,,,,,,,,0,0,0,0,67,0,67,0,,,,,,,67,,,1,1657.961520503508,,Y,d,go,d,1,0.3576025551883504,,,,,,,,,,,,,,,77,001,22,w,Psychologie MSc,2023-01-26_12h07.25.472,00_bat_bachelor,2022.2.4,59.985894240986354,
,,,,,,,,,,,,0,0,0,0,68,0,68,0,,,,,,,68,,,1,1659.4280812470242,,X,l,go,l,1,0.5080887852236629,,,,,,,,,,,,,,,77,001,22,w,Psychologie MSc,2023-01-26_12h07.25.472,00_bat_bachelor,2022.2.4,59.985894240986354,
,,,,,,,,,,,,0,0,0,0,69,0,69,0,,,,,,,69,,,1,1661.0447093116818,,Y,d,go,d,1,0.395416839979589,,,,,,,,,,,,,,,77,001,22,w,Psychologie MSc,2023-01-26_12h07.25.472,00_bat_bachelor,2022.2.4,59.985894240986354,
,,,,,,,,,,,,0,0,0,0,70,0,70,0,,,,,,,70,,,1,1662.5621941516874,,Y,None,nogo,l,0,0.2687206589616835,,,,,,,,,,,,,,,77,001,22,w,Psychologie MSc,2023-01-26_12h07.25.472,00_bat_bachelor,2022.2.4,59.985894240986354,
,,,,,,,,,,,,0,0,0,0,71,0,71,0,,,,,,,71,,,1,1663.9783883740893,,X,l,go,l,1,0.6125217044027522,,,,,,,,,,,,,,,77,001,22,w,Psychologie MSc,2023-01-26_12h07.25.472,00_bat_bachelor,2022.2.4,59.985894240986354,
,,,,,,,,,,,,0,0,0,0,72,0,72,0,,,,,,,72,,,1,1665.6952786932234,,Y,d,go,d,1,0.3848612087313086,,,,,,,,,,,,,,,77,001,22,w,Psychologie MSc,2023-01-26_12h07.25.472,00_bat_bachelor,2022.2.4,59.985894240986354,
,,,,,,,,,,,,0,0,0,0,73,0,73,0,,,,,,,73,,,1,1667.195086450898,,X,l,go,l,1,0.4680776532040909,,,,,,,,,,,,,,,77,001,22,w,Psychologie MSc,2023-01-26_12h07.25.472,00_bat_bachelor,2022.2.4,59.985894240986354,
,,,,,,,,,,,,0,0,0,0,74,0,74,0,,,,,,,74,,,1,1668.7786333194235,,Y,d,go,d,1,0.4214914940530434,,,,,,,,,,,,,,,77,001,22,w,Psychologie MSc,2023-01-26_12h07.25.472,00_bat_bachelor,2022.2.4,59.985894240986354,
,,,,,,,,,,,,0,0,0,0,75,0,75,0,,,,,,,75,,,1,1670.311887848773,1671.1116110973526,Y,None,nogo,None,1,,,,,,,,,,,,,,,,77,001,22,w,Psychologie MSc,2023-01-26_12h07.25.472,00_bat_bachelor,2022.2.4,59.985894240986354,
,,,,,,,,,,,,0,0,0,0,76,0,76,0,,,,,,,76,,,1,1672.1117255216232,,X,l,go,l,1,0.383390179136768,,,,,,,,,,,,,,,77,001,22,w,Psychologie MSc,2023-01-26_12h07.25.472,00_bat_bachelor,2022.2.4,59.985894240986354,
,,,,,,,,,,,,0,0,0,0,77,0,77,0,,,,,,,77,,,1,1673.5951992266346,,Y,d,go,d,1,0.372404002584517,,,,,,,,,,,,,,,77,001,22,w,Psychologie MSc,2023-01-26_12h07.25.472,00_bat_bachelor,2022.2.4,59.985894240986354,
,,,,,,,,,,,,0,0,0,0,78,0,78,0,,,,,,,78,,,1,1675.0783689316595,,X,l,go,l,1,0.40897804545238614,,,,,,,,,,,,,,,77,001,22,w,Psychologie MSc,2023-01-26_12h07.25.472,00_bat_bachelor,2022.2.4,59.985894240986354,
,,,,,,,,,,,,0,0,0,0,79,0,79,0,,,,,,,79,,,1,1676.5948457722552,1677.395015081158,X,None,nogo,None,1,,,,,,,,,,,,,,,,77,001,22,w,Psychologie MSc,2023-01-26_12h07.25.472,00_bat_bachelor,2022.2.4,59.985894240986354,
,,,,,,,,,,,,0,0,0,0,80,0,80,0,,,,,,,80,,,1,1678.3948400509544,,X,None,nogo,l,0,0.3728544266195968,,,,,,,,,,,,,,,77,001,22,w,Psychologie MSc,2023-01-26_12h07.25.472,00_bat_bachelor,2022.2.4,59.985894240986354,
,,,,,,,,,,,,0,0,0,0,81,0,81,0,,,,,,,81,,,1,1679.8788121800171,,Y,d,go,d,1,0.4082915004109964,,,,,,,,,,,,,,,77,001,22,w,Psychologie MSc,2023-01-26_12h07.25.472,00_bat_bachelor,2022.2.4,59.985894240986354,
,,,,,,,,,,,,0,0,0,0,82,0,82,0,,,,,,,82,,,1,1681.4289428223856,,X,l,go,l,1,0.37896302971057594,,,,,,,,,,,,,,,77,001,22,w,Psychologie MSc,2023-01-26_12h07.25.472,00_bat_bachelor,2022.2.4,59.985894240986354,
,,,,,,,,,,,,0,0,0,0,83,0,83,0,,,,,,,83,,,1,1682.9287011254346,1683.728630919475,X,None,nogo,None,1,,,,,,,,,,,,,,,,77,001,22,w,Psychologie MSc,2023-01-26_12h07.25.472,00_bat_bachelor,2022.2.4,59.985894240986354,
,,,,,,,,,,,,0,0,0,0,84,0,84,0,,,,,,,84,,,1,1684.7284413437592,,Y,d,go,d,1,0.3580660702427849,,,,,,,,,,,,,,,77,001,22,w,Psychologie MSc,2023-01-26_12h07.25.472,00_bat_bachelor,2022.2.4,59.985894240986354,
,,,,,,,,,,,,0,0,0,0,85,0,85,0,,,,,,,85,,,1,1686.211758927675,,X,l,go,l,1,0.3957756276940927,,,,,,,,,,,,,,,77,001,22,w,Psychologie MSc,2023-01-26_12h07.25.472,00_bat_bachelor,2022.2.4,59.985894240986354,
,,,,,,,,,,,,0,0,0,0,86,0,86,0,,,,,,,86,,,1,1687.7120209881105,1688.5117956306785,X,None,nogo,None,1,,,,,,,,,,,,,,,,77,001,22,w,Psychologie MSc,2023-01-26_12h07.25.472,00_bat_bachelor,2022.2.4,59.985894240986354,
,,,,,,,,,,,,0,0,0,0,87,0,87,0,,,,,,,87,,,1,1689.5120002366602,,Y,d,go,d,1,0.35979600867722183,,,,,,,,,,,,,,,77,001,22,w,Psychologie MSc,2023-01-26_12h07.25.472,00_bat_bachelor,2022.2.4,59.985894240986354,
,,,,,,,,,,,,0,0,0,0,88,0,88,0,,,,,,,88,,,1,1690.9784198892303,,X,l,go,l,1,0.2847002875059843,,,,,,,,,,,,,,,77,001,22,w,Psychologie MSc,2023-01-26_12h07.25.472,00_bat_bachelor,2022.2.4,59.985894240986354,
,,,,,,,,,,,,0,0,0,0,89,0,89,0,,,,,,,89,,,1,1692.3950873236172,,Y,d,go,d,1,0.35590073792263865,,,,,,,,,,,,,,,77,001,22,w,Psychologie MSc,2023-01-26_12h07.25.472,00_bat_bachelor,2022.2.4,59.985894240986354,
,,,,,,,,,,,,0,0,0,0,90,0,90,0,,,,,,,90,,,1,1693.8783443013672,1694.6787138527725,Y,None,nogo,None,1,,,,,,,,,,,,,,,,77,001,22,w,Psychologie MSc,2023-01-26_12h07.25.472,00_bat_bachelor,2022.2.4,59.985894240986354,
,,,,,,,,,,,,0,0,0,0,91,0,91,0,,,,,,,91,,,1,1695.6788864587434,,X,l,go,l,1,0.3691021860577166,,,,,,,,,,,,,,,77,001,22,w,Psychologie MSc,2023-01-26_12h07.25.472,00_bat_bachelor,2022.2.4,59.985894240986354,
,,,,,,,,,,,,0,0,0,0,92,0,92,0,,,,,,,92,,,1,1697.1620493759401,,Y,d,go,d,1,0.5005057586822659,,,,,,,,,,,,,,,77,001,22,w,Psychologie MSc,2023-01-26_12h07.25.472,00_bat_bachelor,2022.2.4,59.985894240986354,
,,,,,,,,,,,,0,0,0,0,93,0,93,0,,,,,,,93,,,1,1698.7785630164435,,X,l,go,l,1,0.2935187075054273,,,,,,,,,,,,,,,77,001,22,w,Psychologie MSc,2023-01-26_12h07.25.472,00_bat_bachelor,2022.2.4,59.985894240986354,
,,,,,,,,,,,,0,0,0,0,94,0,94,0,,,,,,,94,,,1,1700.1784624588909,1700.9786278891843,X,None,nogo,None,1,,,,,,,,,,,,,,,,77,001,22,w,Psychologie MSc,2023-01-26_12h07.25.472,00_bat_bachelor,2022.2.4,59.985894240986354,
,,,,,,,,,,,,0,0,0,0,95,0,95,0,,,,,,,95,,,1,1701.9786613436881,,Y,d,go,d,1,0.3237872988684103,,,,,,,,,,,,,,,77,001,22,w,Psychologie MSc,2023-01-26_12h07.25.472,00_bat_bachelor,2022.2.4,59.985894240986354,
,,,,,,,,,,,,0,0,0,0,96,0,96,0,,,,,,,96,,,1,1703.4287071861327,,X,l,go,l,1,0.26637593272607774,,,,,,,,,,,,,,,77,001,22,w,Psychologie MSc,2023-01-26_12h07.25.472,00_bat_bachelor,2022.2.4,59.985894240986354,
,,,,,,,,,,,,0,0,0,0,97,0,97,0,,,,,,,97,,,1,1704.795332462876,1705.595046014525,X,None,nogo,None,1,,,,,,,,,,,,,,,,77,001,22,w,Psychologie MSc,2023-01-26_12h07.25.472,00_bat_bachelor,2022.2.4,59.985894240986354,
,,,,,,,,,,,,0,0,0,0,98,0,98,0,,,,,,,98,,,1,1706.5950009236112,,Y,d,go,d,1,0.3321436585392803,,,,,,,,,,,,,,,77,001,22,w,Psychologie MSc,2023-01-26_12h07.25.472,00_bat_bachelor,2022.2.4,59.985894240986354,
,,,,,,,,,,,,0,0,0,0,99,0,99,0,,,,,,,99,,,1,1708.028654046706,,X,l,go,l,1,0.5466574939200655,,,,,,,,,,,,,,,77,001,22,w,Psychologie MSc,2023-01-26_12h07.25.472,00_bat_bachelor,2022.2.4,59.985894240986354,
,,,,,,,,,,,,0,0,0,0,100,0,100,0,,,,,,,100,,,1,1709.6951298448257,,Y,d,go,d,1,0.46344153420068324,,,,,,,,,,,,,,,77,001,22,w,Psychologie MSc,2023-01-26_12h07.25.472,00_bat_bachelor,2022.2.4,59.985894240986354,
,,,,,,,,,,,,0,0,0,0,101,0,101,0,,,,,,,101,,,1,1711.2784197437577,,X,l,go,l,1,0.2888859824743122,,,,,,,,,,,,,,,77,001,22,w,Psychologie MSc,2023-01-26_12h07.25.472,00_bat_bachelor,2022.2.4,59.985894240986354,
,,,,,,,,,,,,0,0,0,0,102,0,102,0,,,,,,,102,,,1,1712.6953538446687,1713.4950480024563,X,None,nogo,None,1,,,,,,,,,,,,,,,,77,001,22,w,Psychologie MSc,2023-01-26_12h07.25.472,00_bat_bachelor,2022.2.4,59.985894240986354,
,,,,,,,,,,,,0,0,0,0,103,0,103,0,,,,,,,103,,,1,1714.4951755175134,,Y,d,go,d,1,0.30409712658729404,,,,,,,,,,,,,,,77,001,22,w,Psychologie MSc,2023-01-26_12h07.25.472,00_bat_bachelor,2022.2.4,59.985894240986354,
,,,,,,,,,,,,0,0,0,0,104,0,104,0,,,,,,,104,,,1,1715.9284717922565,,X,l,go,l,1,0.39032884244807065,,,,,,,,,,,,,,,77,001,22,w,Psychologie MSc,2023-01-26_12h07.25.472,00_bat_bachelor,2022.2.4,59.985894240986354,
,,,,,,,,,,,,0,0,0,0,105,0,105,0,,,,,,,105,,,1,1717.4444613602245,,Y,d,go,d,1,0.3787016966380179,,,,,,,,,,,,,,,77,001,22,w,Psychologie MSc,2023-01-26_12h07.25.472,00_bat_bachelor,2022.2.4,59.985894240986354,
,,,,,,,,,,,,0,0,0,0,106,0,106,0,,,,,,,106,,,1,1718.9282031863695,,X,l,go,l,1,0.28691992280073464,,,,,,,,,,,,,,,77,001,22,w,Psychologie MSc,2023-01-26_12h07.25.472,00_bat_bachelor,2022.2.4,59.985894240986354,
,,,,,,,,,,,,0,0,0,0,107,0,107,0,,,,,,,107,,,1,1720.3281317197252,,Y,d,go,d,1,0.263529873569496,,,,,,,,,,,,,,,77,001,22,w,Psychologie MSc,2023-01-26_12h07.25.472,00_bat_bachelor,2022.2.4,59.985894240986354,
,,,,,,,,,,,,0,0,0,0,108,0,108,0,,,,,,,108,,,1,1721.6946731177159,,X,l,go,l,1,0.2562125438125804,,,,,,,,,,,,,,,77,001,22,w,Psychologie MSc,2023-01-26_12h07.25.472,00_bat_bachelor,2022.2.4,59.985894240986354,
,,,,,,,,,,,,0,0,0,0,109,0,109,0,,,,,,,109,,,1,1723.061386636924,,Y,d,go,d,1,0.2824932583607733,,,,,,,,,,,,,,,77,001,22,w,Psychologie MSc,2023-01-26_12h07.25.472,00_bat_bachelor,2022.2.4,59.985894240986354,
,,,,,,,,,,,,0,0,0,0,110,0,110,0,,,,,,,110,,,1,1724.4446131177247,,X,l,go,l,1,0.29049664840567857,,,,,,,,,,,,,,,77,001,22,w,Psychologie MSc,2023-01-26_12h07.25.472,00_bat_bachelor,2022.2.4,59.985894240986354,
,,,,,,,,,,,,0,0,0,0,111,0,111,0,,,,,,,111,,,1,1725.8446512268856,,Y,d,go,d,1,0.39505417353939265,,,,,,,,,,,,,,,77,001,22,w,Psychologie MSc,2023-01-26_12h07.25.472,00_bat_bachelor,2022.2.4,59.985894240986354,
,,,,,,,,,,,,0,0,0,0,112,0,112,0,,,,,,,112,,,1,1727.3448008025298,,X,l,go,l,1,0.3349291116464883,,,,,,,,,,,,,,,77,001,22,w,Psychologie MSc,2023-01-26_12h07.25.472,00_bat_bachelor,2022.2.4,59.985894240986354,
,,,,,,,,,,,,0,0,0,0,113,0,113,0,,,,,,,113,,,1,1728.7944859177805,,X,None,nogo,d,0,0.24453061015810817,,,,,,,,,,,,,,,77,001,22,w,Psychologie MSc,2023-01-26_12h07.25.472,00_bat_bachelor,2022.2.4,59.985894240986354,
,,,,,,,,,,,,0,0,0,0,114,0,114,0,,,,,,,114,,,1,1730.1446821116842,,Y,d,go,d,1,0.5903830484021455,,,,,,,,,,,,,,,77,001,22,w,Psychologie MSc,2023-01-26_12h07.25.472,00_bat_bachelor,2022.2.4,59.985894240986354,
,,,,,,,,,,,,0,0,0,0,115,0,115,0,,,,,,,115,,,1,1731.8446667420212,,X,l,go,l,1,0.219338379916735,,,,,,,,,,,,,,,77,001,22,w,Psychologie MSc,2023-01-26_12h07.25.472,00_bat_bachelor,2022.2.4,59.985894240986354,
,,,,,,,,,,,,0,0,0,0,116,0,116,0,,,,,,,116,,,1,1733.178161852993,,Y,d,go,d,1,0.5015287884743884,,,,,,,,,,,,,,,77,001,22,w,Psychologie MSc,2023-01-26_12h07.25.472,00_bat_bachelor,2022.2.4,59.985894240986354,
,,,,,,,,,,,,0,0,0,0,117,0,117,0,,,,,,,117,,,1,1734.7948277358664,,X,l,go,l,1,0.4206973125692457,,,,,,,,,,,,,,,77,001,22,w,Psychologie MSc,2023-01-26_12h07.25.472,00_bat_bachelor,2022.2.4,59.985894240986354,
,,,,,,,,,,,,0,0,0,0,118,0,118,0,,,,,,,118,,,1,1736.3281700226944,,X,None,nogo,d,0,0.3439807436661795,,,,,,,,,,,,,,,77,001,22,w,Psychologie MSc,2023-01-26_12h07.25.472,00_bat_bachelor,2022.2.4,59.985894240986354,
,,,,,,,,,,,,0,0,0,0,119,0,119,0,,,,,,,119,,,1,1737.7778401076794,,Y,d,go,d,1,0.5739995412295684,,,,,,,,,,,,,,,77,001,22,w,Psychologie MSc,2023-01-26_12h07.25.472,00_bat_bachelor,2022.2.4,59.985894240986354,
,,,,,,,,,,,,0,0,0,0,120,0,120,0,,,,,,,120,,,1,1739.4614543217467,,X,l,go,l,1,0.31479093967936933,,,,,,,,,,,,,,,77,001,22,w,Psychologie MSc,2023-01-26_12h07.25.472,00_bat_bachelor,2022.2.4,59.985894240986354,
,,,,,,,,,,,,0,0,0,0,121,0,121,0,,,,,,,121,,,1,1740.8781576348701,1741.678030701587,X,None,nogo,None,1,,,,,,,,,,,,,,,,77,001,22,w,Psychologie MSc,2023-01-26_12h07.25.472,00_bat_bachelor,2022.2.4,59.985894240986354,
,,,,,,,,,,,,0,0,0,0,122,0,122,0,,,,,,,122,,,1,1742.677877004724,,Y,d,go,d,1,0.5058352106716484,,,,,,,,,,,,,,,77,001,22,w,Psychologie MSc,2023-01-26_12h07.25.472,00_bat_bachelor,2022.2.4,59.985894240986354,
,,,,,,,,,,,,0,0,0,0,123,0,123,0,,,,,,,123,,,1,1744.2949065236608,,X,l,go,l,1,0.32845396327320486,,,,,,,,,,,,,,,77,001,22,w,Psychologie MSc,2023-01-26_12h07.25.472,00_bat_bachelor,2022.2.4,59.985894240986354,
,,,,,,,,,,,,0,0,0,0,124,0,124,0,,,,,,,124,,,1,1745.7281184348976,,Y,d,go,d,1,0.30458730831742287,,,,,,,,,,,,,,,77,001,22,w,Psychologie MSc,2023-01-26_12h07.25.472,00_bat_bachelor,2022.2.4,59.985894240986354,
,,,,,,,,,,,,0,0,0,0,125,0,125,0,,,,,,,125,,,1,1747.144494960201,,X,l,go,l,1,0.26336502528283745,,,,,,,,,,,,,,,77,001,22,w,Psychologie MSc,2023-01-26_12h07.25.472,00_bat_bachelor,2022.2.4,59.985894240986354,
,,,,,,,,,,,,0,0,0,0,126,0,126,0,,,,,,,126,,,1,1748.5114950247807,1749.3113496672595,X,None,nogo,None,1,,,,,,,,,,,,,,,,77,001,22,w,Psychologie MSc,2023-01-26_12h07.25.472,00_bat_bachelor,2022.2.4,59.985894240986354,
,,,,,,,,,,,,0,0,0,0,127,0,127,0,,,,,,,127,,,1,1750.3115222732304,,Y,d,go,d,1,0.4564025073777884,,,,,,,,,,,,,,,77,001,22,w,Psychologie MSc,2023-01-26_12h07.25.472,00_bat_bachelor,2022.2.4,59.985894240986354,
,,,,,,,,,,,,0,0,0,0,128,0,128,0,,,,,,,128,,,1,1751.8778080592165,,X,l,go,l,1,0.2982639173278585,,,,,,,,,,,,,,,77,001,22,w,Psychologie MSc,2023-01-26_12h07.25.472,00_bat_bachelor,2022.2.4,59.985894240986354,
,,,,,,,,,,,,0,0,0,0,129,0,129,0,,,,,,,129,,,1,1753.277798653231,,Y,d,go,d,1,0.3377509284764528,,,,,,,,,,,,,,,77,001,22,w,Psychologie MSc,2023-01-26_12h07.25.472,00_bat_bachelor,2022.2.4,59.985894240986354,
,,,,,,,,,,,,0,0,0,0,130,0,130,0,,,,,,,130,,,1,1754.7281499500386,,X,l,go,l,1,0.23159049509558827,,,,,,,,,,,,,,,77,001,22,w,Psychologie MSc,2023-01-26_12h07.25.472,00_bat_bachelor,2022.2.4,59.985894240986354,
,,,,,,,,,,,,0,0,0,0,131,0,131,0,,,,,,,131,,,1,1756.0614259096328,,Y,d,go,d,1,0.4023045941721648,,,,,,,,,,,,,,,77,001,22,w,Psychologie MSc,2023-01-26_12h07.25.472,00_bat_bachelor,2022.2.4,59.985894240986354,
,,,,,,,,,,,,0,0,0,0,132,0,132,0,,,,,,,132,,,1,1757.5780918409582,,X,l,go,l,1,0.3728840023977682,,,,,,,,,,,,,,,77,001,22,w,Psychologie MSc,2023-01-26_12h07.25.472,00_bat_bachelor,2022.2.4,59.985894240986354,
,,,,,,,,,,,,0,0,0,0,133,0,133,0,,,,,,,133,,,1,1759.0612998490687,,X,None,nogo,d,0,0.25013254676014185,,,,,,,,,,,,,,,77,001,22,w,Psychologie MSc,2023-01-26_12h07.25.472,00_bat_bachelor,2022.2.4,59.985894240986354,
,,,,,,,,,,,,0,0,0,0,134,0,134,0,,,,,,,134,,,1,1760.4114494974492,,X,None,nogo,l,0,0.6130957646528259,,,,,,,,,,,,,,,77,001,22,w,Psychologie MSc,2023-01-26_12h07.25.472,00_bat_bachelor,2022.2.4,59.985894240986354,
,,,,,,,,,,,,0,0,0,0,135,0,135,0,,,,,,,135,,,1,1762.1280886651948,,Y,d,go,d,1,0.5279840484727174,,,,,,,,,,,,,,,77,001,22,w,Psychologie MSc,2023-01-26_12h07.25.472,00_bat_bachelor,2022.2.4,59.985894240986354,
,,,,,,,,,,,,0,0,0,0,136,0,136,0,,,,,,,136,,,1,1763.7614469035761,,X,l,go,l,1,0.3825087249279022,,,,,,,,,,,,,,,77,001,22,w,Psychologie MSc,2023-01-26_12h07.25.472,00_bat_bachelor,2022.2.4,59.985894240986354,
,,,,,,,,,,,,0,0,0,0,137,0,137,0,,,,,,,137,,,1,1765.2448090934195,1766.0448470085394,X,None,nogo,None,1,,,,,,,,,,,,,,,,77,001,22,w,Psychologie MSc,2023-01-26_12h07.25.472,00_bat_bachelor,2022.2.4,59.985894240986354,
,,,,,,,,,,,,0,0,0,0,138,0,138,0,,,,,,,138,,,1,1767.0444188875845,,Y,d,go,d,1,0.39477344637271017,,,,,,,,,,,,,,,77,001,22,w,Psychologie MSc,2023-01-26_12h07.25.472,00_bat_bachelor,2022.2.4,59.985894240986354,
,,,,,,,,,,,,0,0,0,0,139,0,139,0,,,,,,,139,,,1,1768.544776947936,,X,l,go,l,1,0.43176736775785685,,,,,,,,,,,,,,,77,001,22,w,Psychologie MSc,2023-01-26_12h07.25.472,00_bat_bachelor,2022.2.4,59.985894240986354,
,,,,,,,,,,,,0,0,0,0,140,0,140,0,,,,,,,140,,,1,1770.078095962177,1770.8778342410224,X,None,nogo,None,1,,,,,,,,,,,,,,,,77,001,22,w,Psychologie MSc,2023-01-26_12h07.25.472,00_bat_bachelor,2022.2.4,59.985894240986354,
,,,,,,,,,,,,0,0,0,0,141,0,141,0,,,,,,,141,,,1,1771.878139210632,,Y,d,go,d,1,0.37786969693843275,,,,,,,,,,,,,,,77,001,22,w,Psychologie MSc,2023-01-26_12h07.25.472,00_bat_bachelor,2022.2.4,59.985894240986354,
,,,,,,,,,,,,0,0,0,0,142,0,142,0,,,,,,,142,,,1,1773.3614218854345,,X,l,go,l,1,0.20651899208314717,,,,,,,,,,,,,,,77,001,22,w,Psychologie MSc,2023-01-26_12h07.25.472,00_bat_bachelor,2022.2.4,59.985894240986354,
,,,,,,,,,,,,0,0,0,0,143,0,143,0,,,,,,,143,,,1,1774.6780011258088,1775.47778837441,X,None,nogo,None,1,,,,,,,,,,,,,,,,77,001,22,w,Psychologie MSc,2023-01-26_12h07.25.472,00_bat_bachelor,2022.2.4,59.985894240986354,
,,,,,,,,,,,,0,0,0,0,144,0,144,0,,,,,,,144,,,1,1776.4781340712216,,Y,d,go,d,1,0.38589539006352425,,,,,,,,,,,,,,,77,001,22,w,Psychologie MSc,2023-01-26_12h07.25.472,00_bat_bachelor,2022.2.4,59.985894240986354,
,,,,,,,,,,,,0,0,0,0,145,0,145,0,,,,,,,145,,,1,1777.9780169803416,,X,l,go,l,1,0.2612122988793999,,,,,,,,,,,,,,,77,001,22,w,Psychologie MSc,2023-01-26_12h07.25.472,00_bat_bachelor,2022.2.4,59.985894240986354,
,,,,,,,,,,,,0,0,0,0,146,0,146,0,,,,,,,146,,,1,1779.3445263784379,,Y,d,go,d,1,0.20645790128037333,,,,,,,,,,,,,,,77,001,22,w,Psychologie MSc,2023-01-26_12h07.25.472,00_bat_bachelor,2022.2.4,59.985894240986354,
,,,,,,,,,,,,0,0,0,0,147,0,147,0,,,,,,,147,,,1,1780.6615749519551,,X,l,go,l,1,0.21856019843835384,,,,,,,,,,,,,,,77,001,22,w,Psychologie MSc,2023-01-26_12h07.25.472,00_bat_bachelor,2022.2.4,59.985894240986354,
,,,,,,,,,,,,0,0,0,0,148,0,148,0,,,,,,,148,,,1,1781.9947970934445,,Y,d,go,d,1,0.3401160183129832,,,,,,,,,,,,,,,77,001,22,w,Psychologie MSc,2023-01-26_12h07.25.472,00_bat_bachelor,2022.2.4,59.985894240986354,
,,,,,,,,,,,,0,0,0,0,149,0,149,0,,,,,,,149,,,1,1783.4613132309169,,X,l,go,l,1,0.33061105315573514,,,,,,,,,,,,,,,77,001,22,w,Psychologie MSc,2023-01-26_12h07.25.472,00_bat_bachelor,2022.2.4,59.985894240986354,
,,,,,,,,,,,,0,0,0,0,150,0,150,0,,,,,,,150,,,1,1784.8946177480975,1785.694793360075,X,None,nogo,None,1,,,,,,,,,,,,,,,,77,001,22,w,Psychologie MSc,2023-01-26_12h07.25.472,00_bat_bachelor,2022.2.4,59.985894240986354,
,,,,,,,,,,,,0,0,0,0,151,0,151,0,,,,,,,151,,,1,1786.6948772388278,,Y,d,go,d,1,0.40926943940576166,,,,,,,,,,,,,,,77,001,22,w,Psychologie MSc,2023-01-26_12h07.25.472,00_bat_bachelor,2022.2.4,59.985894240986354,
,,,,,,,,,,,,0,0,0,0,152,0,152,0,,,,,,,152,,,1,1788.2114655944752,,X,l,go,l,1,0.2683065985329449,,,,,,,,,,,,,,,77,001,22,w,Psychologie MSc,2023-01-26_12h07.25.472,00_bat_bachelor,2022.2.4,59.985894240986354,
,,,,,,,,,,,,0,0,0,0,153,0,153,0,,,,,,,153,,,1,1789.594682863215,,Y,d,go,d,1,0.3890144188189879,,,,,,,,,,,,,,,77,001,22,w,Psychologie MSc,2023-01-26_12h07.25.472,00_bat_bachelor,2022.2.4,59.985894240986354,
,,,,,,,,,,,,0,0,0,0,154,0,154,0,,,,,,,154,,,1,1791.0947272267658,,X,l,go,l,1,0.2013039643643424,,,,,,,,,,,,,,,77,001,22,w,Psychologie MSc,2023-01-26_12h07.25.472,00_bat_bachelor,2022.2.4,59.985894240986354,
,,,,,,,,,,,,0,0,0,0,155,0,155,0,,,,,,,155,,,1,1792.411315194564,,Y,d,go,d,1,0.40452325984369963,,,,,,,,,,,,,,,77,001,22,w,Psychologie MSc,2023-01-26_12h07.25.472,00_bat_bachelor,2022.2.4,59.985894240986354,
,,,,,,,,,,,,0,0,0,0,156,0,156,0,,,,,,,156,,,1,1793.9279787015403,1794.7281227984931,Y,None,nogo,None,1,,,,,,,,,,,,,,,,77,001,22,w,Psychologie MSc,2023-01-26_12h07.25.472,00_bat_bachelor,2022.2.4,59.985894240986354,
,,,,,,,,,,,,0,0,0,0,157,0,157,0,,,,,,,157,,,1,1795.7281067984877,,X,l,go,l,1,0.2554464836139232,,,,,,,,,,,,,,,77,001,22,w,Psychologie MSc,2023-01-26_12h07.25.472,00_bat_bachelor,2022.2.4,59.985894240986354,
,,,,,,,,,,,,0,0,0,0,158,0,158,0,,,,,,,158,,,1,1797.0944125603419,,Y,d,go,d,1,0.23340625187847763,,,,,,,,,,,,,,,77,001,22,w,Psychologie MSc,2023-01-26_12h07.25.472,00_bat_bachelor,2022.2.4,59.985894240986354,
,,,,,,,,,,,,0,0,0,0,159,0,159,0,,,,,,,159,,,1,1798.4279949440388,,X,l,go,l,1,0.1793936719186604,,,,,,,,,,,,,,,77,001,22,w,Psychologie MSc,2023-01-26_12h07.25.472,00_bat_bachelor,2022.2.4,59.985894240986354,
,,,,,,,,,,,,0,0,0,0,160,0,160,0,,,,,,,160,,,1,1799.7110983219463,,Y,d,go,d,1,0.20867656683549285,,,,,,,,,,,,,,,77,001,22,w,Psychologie MSc,2023-01-26_12h07.25.472,00_bat_bachelor,2022.2.4,59.985894240986354,
,,,,,,,,,,,,0,0,0,0,161,0,161,0,,,,,,,161,,,1,1801.0280775621068,,Y,None,nogo,l,0,0.21975340996868908,,,,,,,,,,,,,,,77,001,22,w,Psychologie MSc,2023-01-26_12h07.25.472,00_bat_bachelor,2022.2.4,59.985894240986354,
,,,,,,,,,,,,0,0,0,0,162,0,162,0,,,,,,,162,,,1,1802.3611498854589,,Y,None,nogo,d,0,0.43836178886704147,,,,,,,,,,,,,,,77,001,22,w,Psychologie MSc,2023-01-26_12h07.25.472,00_bat_bachelor,2022.2.4,59.985894240986354,
,,,,,,,,,,,,0,0,0,0,163,0,163,0,,,,,,,163,,,1,1803.9114492550725,,X,l,go,l,1,0.43960348528344184,,,,,,,,,,,,,,,77,001,22,w,Psychologie MSc,2023-01-26_12h07.25.472,00_bat_bachelor,2022.2.4,59.985894240986354,
,,,,,,,,,,,,0,0,0,0,164,0,164,0,,,,,,,164,,,1,1805.4614344428992,,Y,d,go,d,1,0.5388165280455723,,,,,,,,,,,,,,,77,001,22,w,Psychologie MSc,2023-01-26_12h07.25.472,00_bat_bachelor,2022.2.4,59.985894240986354,
,,,,,,,,,,,,0,0,0,0,165,0,165,0,,,,,,,165,,,1,1807.1113148551667,,X,l,go,l,1,0.39230072021018714,,,,,,,,,,,,,,,77,001,22,w,Psychologie MSc,2023-01-26_12h07.25.472,00_bat_bachelor,2022.2.4,59.985894240986354,
,,,,,,,,,,,,0,0,0,0,166,0,166,0,,,,,,,166,,,1,1808.6111352188746,,Y,d,go,d,1,0.36375964316539466,,,,,,,,,,,,,,,77,001,22,w,Psychologie MSc,2023-01-26_12h07.25.472,00_bat_bachelor,2022.2.4,59.985894240986354,
,,,,,,,,,,,,0,0,0,0,167,0,167,0,,,,,,,167,,,1,1810.0780765681993,,X,l,go,l,1,0.20990129362326115,,,,,,,,,,,,,,,77,001,22,w,Psychologie MSc,2023-01-26_12h07.25.472,00_bat_bachelor,2022.2.4,59.985894240986354,
,,,,,,,,,,,,0,0,0,0,168,0,168,0,,,,,,,168,,,1,1811.3946897480637,,X,None,nogo,l,0,0.4771913457661867,,,,,,,,,,,,,,,77,001,22,w,Psychologie MSc,2023-01-26_12h07.25.472,00_bat_bachelor,2022.2.4,59.985894240986354,
,,,,,,,,,,,,0,0,0,0,169,0,169,0,,,,,,,169,,,1,1812.9781265560305,,Y,d,go,d,1,0.6212276394944638,,,,,,,,,,,,,,,77,001,22,w,Psychologie MSc,2023-01-26_12h07.25.472,00_bat_bachelor,2022.2.4,59.985894240986354,
,,,,,,,,,,,,0,0,0,0,170,0,170,0,,,,,,,170,,,1,1814.7111085037468,,X,l,go,l,1,0.48785315873101354,,,,,,,,,,,,,,,77,001,22,w,Psychologie MSc,2023-01-26_12h07.25.472,00_bat_bachelor,2022.2.4,59.985894240986354,
,,,,,,,,,,,,0,0,0,0,171,0,171,0,,,,,,,171,,,1,1816.3114451823058,,Y,d,go,d,1,0.3919584173709154,,,,,,,,,,,,,,,77,001,22,w,Psychologie MSc,2023-01-26_12h07.25.472,00_bat_bachelor,2022.2.4,59.985894240986354,
,,,,,,,,,,,,0,0,0,0,172,0,172,0,,,,,,,172,,,1,1817.8110740310512,,X,l,go,l,1,0.3796781809069216,,,,,,,,,,,,,,,77,001,22,w,Psychologie MSc,2023-01-26_12h07.25.472,00_bat_bachelor,2022.2.4,59.985894240986354,
,,,,,,,,,,,,0,0,0,0,173,0,173,0,,,,,,,173,,,1,1819.2945288269548,,X,None,nogo,l,0,0.4008330797078088,,,,,,,,,,,,,,,77,001,22,w,Psychologie MSc,2023-01-26_12h07.25.472,00_bat_bachelor,2022.2.4,59.985894240986354,
,,,,,,,,,,,,0,0,0,0,174,0,174,0,,,,,,,174,,,1,1820.8116354852682,,Y,d,go,d,1,0.6118075229460374,,,,,,,,,,,,,,,77,001,22,w,Psychologie MSc,2023-01-26_12h07.25.472,00_bat_bachelor,2022.2.4,59.985894240986354,
,,,,,,,,,,,,0,0,0,0,175,0,175,0,,,,,,,175,,,1,1822.527790289605,,X,l,go,l,1,0.43181536777410656,,,,,,,,,,,,,,,77,001,22,w,Psychologie MSc,2023-01-26_12h07.25.472,00_bat_bachelor,2022.2.4,59.985894240986354,
,,,,,,,,,,,,0,0,0,0,176,0,176,0,,,,,,,176,,,1,1824.0613934247522,,Y,d,go,d,1,0.3863695716718212,,,,,,,,,,,,,,,77,001,22,w,Psychologie MSc,2023-01-26_12h07.25.472,00_bat_bachelor,2022.2.4,59.985894240986354,
,,,,,,,,,,,,0,0,0,0,177,0,177,0,,,,,,,177,,,1,1825.5614067581482,,X,l,go,l,1,0.3106110629159957,,,,,,,,,,,,,,,77,001,22,w,Psychologie MSc,2023-01-26_12h07.25.472,00_bat_bachelor,2022.2.4,59.985894240986354,
,,,,,,,,,,,,0,0,0,0,178,0,178,0,,,,,,,178,,,1,1826.9781134651275,,Y,d,go,d,1,0.3652452181559056,,,,,,,,,,,,,,,77,001,22,w,Psychologie MSc,2023-01-26_12h07.25.472,00_bat_bachelor,2022.2.4,59.985894240986354,
,,,,,,,,,,,,0,0,0,0,179,0,179,0,,,,,,,179,,,1,1828.4447139662225,1829.2447664267384,Y,None,nogo,None,1,,,,,,,,,,,,,,,,77,001,22,w,Psychologie MSc,2023-01-26_12h07.25.472,00_bat_bachelor,2022.2.4,59.985894240986354,
,,,,,,,,,,,,0,0,0,0,180,0,180,0,,,,,,,180,,,1,1830.24477127532,,X,l,go,l,1,0.20378396310843527,,,,,,,,,,,,,,,77,001,22,w,Psychologie MSc,2023-01-26_12h07.25.472,00_bat_bachelor,2022.2.4,59.985894240986354,
,,,,,,,,,,,,0,0,0,0,181,0,181,0,,,,,,,181,,,1,1831.5611415461171,,Y,d,go,d,1,0.26215872273314744,,,,,,,,,,,,,,,77,001,22,w,Psychologie MSc,2023-01-26_12h07.25.472,00_bat_bachelor,2022.2.4,59.985894240986354,
,,,,,,,,,,,,0,0,0,0,182,0,182,0,,,,,,,182,,,1,1832.9281236712122,1833.7280975864269,Y,None,nogo,None,1,,,,,,,,,,,,,,,,77,001,22,w,Psychologie MSc,2023-01-26_12h07.25.472,00_bat_bachelor,2022.2.4,59.985894240986354,
,,,,,,,,,,,,0,0,0,0,183,0,183,0,,,,,,,183,,,1,1834.7280631621834,,X,l,go,l,1,0.2953771309694275,,,,,,,,,,,,,,,77,001,22,w,Psychologie MSc,2023-01-26_12h07.25.472,00_bat_bachelor,2022.2.4,59.985894240986354,
,,,,,,,,,,,,0,0,0,0,184,0,184,0,,,,,,,184,,,1,1836.12809399853,,Y,d,go,d,1,0.47914625389967114,,,,,,,,,,,,,,,77,001,22,w,Psychologie MSc,2023-01-26_12h07.25.472,00_bat_bachelor,2022.2.4,59.985894240986354,
,,,,,,,,,,,,0,0,0,0,185,0,185,0,,,,,,,185,,,1,1837.711513836868,,X,l,go,l,1,0.24057812709361315,,,,,,,,,,,,,,,77,001,22,w,Psychologie MSc,2023-01-26_12h07.25.472,00_bat_bachelor,2022.2.4,59.985894240986354,
,,,,,,,,,,,,0,0,0,0,186,0,186,0,,,,,,,186,,,1,1839.0612872430356,,X,None,nogo,d,0,0.3139691218966618,,,,,,,,,,,,,,,77,001,22,w,Psychologie MSc,2023-01-26_12h07.25.472,00_bat_bachelor,2022.2.4,59.985894240986354,
,,,,,,,,,,,,0,0,0,0,187,0,187,0,,,,,,,187,,,1,1840.4777408592636,1841.2781685923692,Y,d,go,None,0,,,,,,,,,,,,,,,,77,001,22,w,Psychologie MSc,2023-01-26_12h07.25.472,00_bat_bachelor,2022.2.4,59.985894240986354,
,,,,,,,,,,,,0,0,0,0,188,0,188,0,,,,,,,188,,,1,1842.2780750166858,,X,l,go,l,1,0.3134590615518391,,,,,,,,,,,,,,,77,001,22,w,Psychologie MSc,2023-01-26_12h07.25.472,00_bat_bachelor,2022.2.4,59.985894240986354,
,,,,,,,,,,,,0,0,0,0,189,0,189,0,,,,,,,189,,,1,1843.6948714206228,,Y,d,go,d,1,0.4172379203373566,,,,,,,,,,,,,,,77,001,22,w,Psychologie MSc,2023-01-26_12h07.25.472,00_bat_bachelor,2022.2.4,59.985894240986354,
,,,,,,,,,,,,0,0,0,0,190,0,190,0,,,,,,,190,,,1,1845.22777055623,,X,l,go,l,1,0.37139891216065735,,,,,,,,,,,,,,,77,001,22,w,Psychologie MSc,2023-01-26_12h07.25.472,00_bat_bachelor,2022.2.4,59.985894240986354,
,,,,,,,,,,,,0,0,0,0,191,0,191,0,,,,,,,191,,,1,1846.7113775945036,,X,None,nogo,d,0,0.23263679759111255,,,,,,,,,,,,,,,77,001,22,w,Psychologie MSc,2023-01-26_12h07.25.472,00_bat_bachelor,2022.2.4,59.985894240986354,
,,,,,,,,,,,,0,0,0,0,192,0,192,0,,,,,,,192,,,1,1848.0447563419584,1848.844453408732,Y,d,go,None,0,,,,,,,,,,,,,,,,77,001,22,w,Psychologie MSc,2023-01-26_12h07.25.472,00_bat_bachelor,2022.2.4,59.985894240986354,
,,,,,,,,,,,,0,0,0,0,193,0,193,0,,,,,,,193,,,1,1849.8446216511074,,X,l,go,l,1,0.33151965879369527,,,,,,,,,,,,,,,77,001,22,w,Psychologie MSc,2023-01-26_12h07.25.472,00_bat_bachelor,2022.2.4,59.985894240986354,
,,,,,,,,,,,,0,0,0,0,194,0,194,0,,,,,,,194,,,1,1851.2777971986216,1852.0780692955013,X,None,nogo,None,1,,,,,,,,,,,,,,,,77,001,22,w,Psychologie MSc,2023-01-26_12h07.25.472,00_bat_bachelor,2022.2.4,59.985894240986354,
,,,,,,,,,,,,0,0,0,0,195,0,195,0,,,,,,,195,,,1,1853.0777245684294,,Y,d,go,d,1,0.3776539395330474,,,,,,,,,,,,,,,77,001,22,w,Psychologie MSc,2023-01-26_12h07.25.472,00_bat_bachelor,2022.2.4,59.985894240986354,
,,,,,,,,,,,,0,0,0,0,196,0,196,0,,,,,,,196,,,1,1854.5611260309815,,X,l,go,l,1,0.49423133744858205,,,,,,,,,,,,,,,77,001,22,w,Psychologie MSc,2023-01-26_12h07.25.472,00_bat_bachelor,2022.2.4,59.985894240986354,
,,,,,,,,,,,,0,0,0,0,197,0,197,0,,,,,,,197,,,1,1856.1614704672247,,Y,d,go,d,1,0.5255447768140584,,,,,,,,,,,,,,,77,001,22,w,Psychologie MSc,2023-01-26_12h07.25.472,00_bat_bachelor,2022.2.4,59.985894240986354,
,,,,,,,,,,,,0,0,0,0,198,0,198,0,,,,,,,198,,,1,1857.7947142813355,1858.5944312269567,Y,None,nogo,None,1,,,,,,,,,,,,,,,,77,001,22,w,Psychologie MSc,2023-01-26_12h07.25.472,00_bat_bachelor,2022.2.4,59.985894240986354,
,,,,,,,,,,,,0,0,0,0,199,0,199,0,,,,,,,199,,,1,1859.5946038329275,,X,l,go,l,1,0.5172790839569643,,,,,,,,,,,,,,,77,001,22,w,Psychologie MSc,2023-01-26_12h07.25.472,00_bat_bachelor,2022.2.4,59.985894240986354,
,,,,,,,,,,,,0,0,0,0,200,0,200,0,,,,,,,200,,,1,1861.2278015865013,,Y,d,go,d,1,0.46778189577162266,,,,,,,,,,,,,,,77,001,22,w,Psychologie MSc,2023-01-26_12h07.25.472,00_bat_bachelor,2022.2.4,59.985894240986354,
,,,,,,,,,,,,0,0,0,0,201,0,201,0,,,,,,,201,,,1,1862.8114216672257,,X,l,go,l,1,0.40481853240635246,,,,,,,,,,,,,,,77,001,22,w,Psychologie MSc,2023-01-26_12h07.25.472,00_bat_bachelor,2022.2.4,59.985894240986354,
,,,,,,,,,,,,0,0,0,0,202,0,202,0,,,,,,,202,,,1,1864.3279275986133,,Y,d,go,d,1,0.5361202869098634,,,,,,,,,,,,,,,77,001,22,w,Psychologie MSc,2023-01-26_12h07.25.472,00_bat_bachelor,2022.2.4,59.985894240986354,
,,,,,,,,,,,,0,0,0,0,203,0,203,0,,,,,,,203,,,1,1865.9780465561198,,X,l,go,l,1,0.29339167731814086,,,,,,,,,,,,,,,77,001,22,w,Psychologie MSc,2023-01-26_12h07.25.472,00_bat_bachelor,2022.2.4,59.985894240986354,
,,,,,,,,,,,,0,0,0,0,204,0,204,0,,,,,,,204,,,1,1867.3780332712922,,Y,d,go,d,1,0.26930877985432744,,,,,,,,,,,,,,,77,001,22,w,Psychologie MSc,2023-01-26_12h07.25.472,00_bat_bachelor,2022.2.4,59.985894240986354,
,,,,,,,,,,,,0,0,0,0,205,0,205,0,,,,,,,205,,,1,1868.7613732066238,1869.561140091624,Y,None,nogo,None,1,,,,,,,,,,,,,,,,77,001,22,w,Psychologie MSc,2023-01-26_12h07.25.472,00_bat_bachelor,2022.2.4,59.985894240986354,
,,,,,,,,,,,,0,0,0,0,206,0,206,0,,,,,,,206,,,1,1870.5612457884708,,X,l,go,l,1,0.30219167307950556,,,,,,,,,,,,,,,77,001,22,w,Psychologie MSc,2023-01-26_12h07.25.472,00_bat_bachelor,2022.2.4,59.985894240986354,
,,,,,,,,,,,,0,0,0,0,207,0,207,0,,,,,,,207,,,1,1871.97774158651,,Y,d,go,d,1,0.4535603269468993,,,,,,,,,,,,,,,77,001,22,w,Psychologie MSc,2023-01-26_12h07.25.472,00_bat_bachelor,2022.2.4,59.985894240986354,
,,,,,,,,,,,,0,0,0,0,208,0,208,0,,,,,,,208,,,1,1873.544508826919,,X,l,go,l,1,0.3906759937526658,,,,,,,,,,,,,,,77,001,22,w,Psychologie MSc,2023-01-26_12h07.25.472,00_bat_bachelor,2022.2.4,59.985894240986354,
,,,,,,,,,,,,0,0,0,0,209,0,209,0,,,,,,,209,,,1,1875.0447374328505,,X,None,nogo,l,0,0.5391098611289635,,,,,,,,,,,,,,,77,001,22,w,Psychologie MSc,2023-01-26_12h07.25.472,00_bat_bachelor,2022.2.4,59.985894240986354,
,,,,,,,,,,,,0,0,0,0,210,0,210,0,,,,,,,210,,,1,1876.6944292390253,,Y,d,go,d,1,0.48849558271467686,,,,,,,,,,,,,,,77,001,22,w,Psychologie MSc,2023-01-26_12h07.25.472,00_bat_bachelor,2022.2.4,59.985894240986354,
,,,,,,,,,,,,0,0,0,0,211,0,211,0,,,,,,,211,,,1,1878.2946922207484,,X,l,go,l,1,0.3135429401881993,,,,,,,,,,,,,,,77,001,22,w,Psychologie MSc,2023-01-26_12h07.25.472,00_bat_bachelor,2022.2.4,59.985894240986354,
,,,,,,,,,,,,0,0,0,0,212,0,212,0,,,,,,,212,,,1,1879.7111778369872,,Y,d,go,d,1,0.4159375572344288,,,,,,,,,,,,,,,77,001,22,w,Psychologie MSc,2023-01-26_12h07.25.472,00_bat_bachelor,2022.2.4,59.985894240986354,
,,,,,,,,,,,,0,0,0,0,213,0,213,0,,,,,,,213,,,1,1881.2280667985324,,X,l,go,l,1,0.38713999546598643,,,,,,,,,,,,,,,77,001,22,w,Psychologie MSc,2023-01-26_12h07.25.472,00_bat_bachelor,2022.2.4,59.985894240986354,
,,,,,,,,,,,,0,0,0,0,214,0,214,0,,,,,,,214,,,1,1882.7280122530647,,Y,d,go,d,1,0.4884344917954877,,,,,,,,,,,,,,,77,001,22,w,Psychologie MSc,2023-01-26_12h07.25.472,00_bat_bachelor,2022.2.4,59.985894240986354,
,,,,,,,,,,,,0,0,0,0,215,0,215,0,,,,,,,215,,,1,1884.3280565682799,,X,l,go,l,1,0.43956954579334706,,,,,,,,,,,,,,,77,001,22,w,Psychologie MSc,2023-01-26_12h07.25.472,00_bat_bachelor,2022.2.4,59.985894240986354,
,,,,,,,,,,,,0,0,0,0,216,0,216,0,,,,,,,216,,,1,1885.8779176349053,,X,None,nogo,d,0,0.36135382612701505,,,,,,,,,,,,,,,77,001,22,w,Psychologie MSc,2023-01-26_12h07.25.472,00_bat_bachelor,2022.2.4,59.985894240986354,
,,,,,,,,,,,,0,0,0,0,217,0,217,0,,,,,,,217,,,1,1887.3448085600976,1888.1443674451439,Y,d,go,None,0,,,,,,,,,,,,,,,,77,001,22,w,Psychologie MSc,2023-01-26_12h07.25.472,00_bat_bachelor,2022.2.4,59.985894240986354,
,,,,,,,,,,,,0,0,0,0,218,0,218,0,,,,,,,218,,,1,1889.1447257479886,,X,l,go,l,1,0.24660624540410936,,,,,,,,,,,,,,,77,001,22,w,Psychologie MSc,2023-01-26_12h07.25.472,00_bat_bachelor,2022.2.4,59.985894240986354,
,,,,,,,,,,,,0,0,0,0,219,0,219,0,,,,,,,219,,,1,1890.4947255783482,,Y,d,go,d,1,0.36918897391296923,,,,,,,,,,,,,,,77,001,22,w,Psychologie MSc,2023-01-26_12h07.25.472,00_bat_bachelor,2022.2.4,59.985894240986354,
,,,,,,,,,,,,0,0,0,0,220,0,220,0,,,,,,,220,,,1,1891.9780048591783,1892.7780403500656,Y,None,nogo,None,1,,,,,,,,,,,,,,,,77,001,22,w,Psychologie MSc,2023-01-26_12h07.25.472,00_bat_bachelor,2022.2.4,59.985894240986354,
,,,,,,,,,,,,0,0,0,0,221,0,221,0,,,,,,,221,,,1,1893.7777513804613,,X,l,go,l,1,0.17371852311771363,,,,,,,,,,,,,,,77,001,22,w,Psychologie MSc,2023-01-26_12h07.25.472,00_bat_bachelor,2022.2.4,59.985894240986354,
,,,,,,,,,,,,0,0,0,0,222,0,222,0,,,,,,,222,,,1,1895.0613905156497,,Y,d,go,d,1,0.2982168870512396,,,,,,,,,,,,,,,77,001,22,w,Psychologie MSc,2023-01-26_12h07.25.472,00_bat_bachelor,2022.2.4,59.985894240986354,
,,,,,,,,,,,,0,0,0,0,223,0,223,0,,,,,,,223,,,1,1896.4611832915107,,X,l,go,l,1,0.24275121698156,,,,,,,,,,,,,,,77,001,22,w,Psychologie MSc,2023-01-26_12h07.25.472,00_bat_bachelor,2022.2.4,59.985894240986354,
,,,,,,,,,,,,0,0,0,0,224,0,224,0,,,,,,,224,,,1,1897.8113867581123,,Y,d,go,d,1,0.3006396738346666,,,,,,,,,,,,,,,77,001,22,w,Psychologie MSc,2023-01-26_12h07.25.472,00_bat_bachelor,2022.2.4,59.985894240986354,
,,,,,,,,,,,,0,0,0,0,225,0,225,0,,,,,,,225,,,1,1899.2279053441016,1900.0277716228738,Y,None,nogo,None,1,,,,,,,,,,,,,,,,77,001,22,w,Psychologie MSc,2023-01-26_12h07.25.472,00_bat_bachelor,2022.2.4,59.985894240986354,
,,,,,,,,,,,,0,0,0,0,226,0,226,0,,,,,,,226,,,1,1901.0280130773317,,X,l,go,l,1,0.33149881032295525,,,,,,,,,,,,,,,77,001,22,w,Psychologie MSc,2023-01-26_12h07.25.472,00_bat_bachelor,2022.2.4,59.985894240986354,
,,,,,,,,,,,,0,0,0,0,227,0,227,0,,,,,,,227,,,1,1902.461460624705,,Y,d,go,d,1,0.30585033795796335,,,,,,,,,,,,,,,77,001,22,w,Psychologie MSc,2023-01-26_12h07.25.472,00_bat_bachelor,2022.2.4,59.985894240986354,
,,,,,,,,,,,,0,0,0,0,228,0,228,0,,,,,,,228,,,1,1903.8780495136743,1904.677890095627,Y,None,nogo,None,1,,,,,,,,,,,,,,,,77,001,22,w,Psychologie MSc,2023-01-26_12h07.25.472,00_bat_bachelor,2022.2.4,59.985894240986354,
,,,,,,,,,,,,0,0,0,0,229,0,229,0,,,,,,,229,,,1,1905.6779148228234,,X,l,go,l,1,0.22553280112333596,,,,,,,,,,,,,,,77,001,22,w,Psychologie MSc,2023-01-26_12h07.25.472,00_bat_bachelor,2022.2.4,59.985894240986354,
,,,,,,,,,,,,0,0,0,0,230,0,230,0,,,,,,,230,,,1,1907.0111064189114,,Y,d,go,d,1,0.268489386420697,,,,,,,,,,,,,,,77,001,22,w,Psychologie MSc,2023-01-26_12h07.25.472,00_bat_bachelor,2022.2.4,59.985894240986354,
,,,,,,,,,,,,0,0,0,0,231,0,231,0,,,,,,,231,,,1,1908.3944046573015,,X,l,go,l,1,0.29315458657220006,,,,,,,,,,,,,,,77,001,22,w,Psychologie MSc,2023-01-26_12h07.25.472,00_bat_bachelor,2022.2.4,59.985894240986354,
,,,,,,,,,,,,0,0,0,0,232,0,232,0,,,,,,,232,,,1,1909.7944078572327,,X,None,nogo,d,0,0.2207934093894437,,,,,,,,,,,,,,,77,001,22,w,Psychologie MSc,2023-01-26_12h07.25.472,00_bat_bachelor,2022.2.4,59.985894240986354,
,,,,,,,,,,,,0,0,0,0,233,0,233,0,,,,,,,233,,,1,1911.1280023622094,,Y,d,go,l,0,0.2635778735857457,,,,,,,,,,,,,,,77,001,22,w,Psychologie MSc,2023-01-26_12h07.25.472,00_bat_bachelor,2022.2.4,59.985894240986354,
,,,,,,,,,,,,0,0,0,0,234,0,234,0,,,,,,,234,,,1,1912.4944172148826,,X,l,go,l,1,0.4978250327985734,,,,,,,,,,,,,,,77,001,22,w,Psychologie MSc,2023-01-26_12h07.25.472,00_bat_bachelor,2022.2.4,59.985894240986354,
,,,,,,,,,,,,0,0,0,0,235,0,235,0,,,,,,,235,,,1,1914.0945929238806,1914.8947709600907,X,None,nogo,None,1,,,,,,,,,,,,,,,,77,001,22,w,Psychologie MSc,2023-01-26_12h07.25.472,00_bat_bachelor,2022.2.4,59.985894240986354,
,,,,,,,,,,,,0,0,0,0,236,0,236,0,,,,,,,236,,,1,1915.8945658693556,,Y,d,go,d,1,0.47310213558375835,,,,,,,,,,,,,,,77,001,22,w,Psychologie MSc,2023-01-26_12h07.25.472,00_bat_bachelor,2022.2.4,59.985894240986354,
,,,,,,,,,,,,0,0,0,0,237,0,237,0,,,,,,,237,,,1,1917.4780758894049,,X,l,go,l,1,0.4734924384392798,,,,,,,,,,,,,,,77,001,22,w,Psychologie MSc,2023-01-26_12h07.25.472,00_bat_bachelor,2022.2.4,59.985894240986354,
,,,,,,,,,,,,0,0,0,0,238,0,238,0,,,,,,,238,,,1,1919.0612111218506,1919.861099703703,X,None,nogo,None,1,,,,,,,,,,,,,,,,77,001,22,w,Psychologie MSc,2023-01-26_12h07.25.472,00_bat_bachelor,2022.2.4,59.985894240986354,
,,,,,,,,,,,,0,0,0,0,239,0,239,0,,,,,,,239,,,1,1920.8616155822529,,Y,d,go,d,1,0.4500805709976703,,,,,,,,,,,,,,,77,001,22,w,Psychologie MSc,2023-01-26_12h07.25.472,00_bat_bachelor,2022.2.4,59.985894240986354,
,,,,,,,,,,,,0,0,0,0,240,0,240,0,,,,,,,240,,,1,1922.4114141035825,,X,l,go,l,1,0.38827551004942507,,,,,,,,,,,,,,,77,001,22,w,Psychologie MSc,2023-01-26_12h07.25.472,00_bat_bachelor,2022.2.4,59.985894240986354,
,,,,,,,,,,,,0,0,0,0,241,0,241,0,,,,,,,241,,,1,1923.9113067096332,,X,None,nogo,d,0,0.34500377357471734,,,,,,,,,,,,,,,77,001,22,w,Psychologie MSc,2023-01-26_12h07.25.472,00_bat_bachelor,2022.2.4,59.985894240986354,
,,,,,,,,,,,,0,0,0,0,242,0,242,0,,,,,,,242,,,1,1925.3613966732519,,Y,d,go,d,1,0.4461125729139894,,,,,,,,,,,,,,,77,001,22,w,Psychologie MSc,2023-01-26_12h07.25.472,00_bat_bachelor,2022.2.4,59.985894240986354,
,,,,,,,,,,,,0,0,0,0,243,0,243,0,,,,,,,243,,,1,1926.911186467274,,X,l,go,l,1,0.496620669728145,,,,,,,,,,,,,,,77,001,22,w,Psychologie MSc,2023-01-26_12h07.25.472,00_bat_bachelor,2022.2.4,59.985894240986354,
,,,,,,,,,,,,0,0,0,0,244,0,244,0,,,,,,,244,,,1,1928.5116123580374,,Y,d,go,d,1,0.4637188675114885,,,,,,,,,,,,,,,77,001,22,w,Psychologie MSc,2023-01-26_12h07.25.472,00_bat_bachelor,2022.2.4,59.985894240986354,
,,,,,,,,,,,,0,0,0,0,245,0,245,0,,,,,,,245,,,1,1930.0780421439558,,X,l,go,l,1,0.36945515556726605,,,,,,,,,,,,,,,77,001,22,w,Psychologie MSc,2023-01-26_12h07.25.472,00_bat_bachelor,2022.2.4,59.985894240986354,
,,,,,,,,,,,,0,0,0,0,246,0,246,0,,,,,,,246,,,1,1931.561360212625,1932.3613719460554,X,None,nogo,None,1,,,,,,,,,,,,,,,,77,001,22,w,Psychologie MSc,2023-01-26_12h07.25.472,00_bat_bachelor,2022.2.4,59.985894240986354,
,,,,,,,,,,,,0,0,0,0,247,0,247,0,,,,,,,247,,,1,1933.361020431039,,Y,d,go,d,1,0.525564655661583,,,,,,,,,,,,,,,77,001,22,w,Psychologie MSc,2023-01-26_12h07.25.472,00_bat_bachelor,2022.2.4,59.985894240986354,
,,,,,,,,,,,,0,0,0,0,248,0,248,0,,,,,,,248,,,1,1934.9945294571808,1935.7945630087052,X,l,go,None,0,,,,,,,,,,,,,,,,77,001,22,w,Psychologie MSc,2023-01-26_12h07.25.472,00_bat_bachelor,2022.2.4,59.985894240986354,
,,,,,,,,,,,,0,0,0,0,249,0,249,0,,,,,,,249,,,1,1936.7946716146544,,Y,d,go,d,1,0.4693256525788456,,,,,,,,,,,,,,,77,001,22,w,Psychologie MSc,2023-01-26_12h07.25.472,00_bat_bachelor,2022.2.4,59.985894240986354,
,,,,,,,,,,,,1,0,1,0,0,0,0,0,,,,,,,0,,,0.2,1952.644545626943,1953.4445437844843,X,l,go,None,0,,,,,,,,,1937.3839876926504,space,15.034401742275804,,,,,77,001,22,w,Psychologie MSc,2023-01-26_12h07.25.472,00_bat_bachelor,2022.2.4,59.985894240986354,
,,,,,,,,,,,,1,0,1,0,1,0,1,0,,,,,,,1,,,0.2,1953.6446721722605,,Y,d,go,l,0,0.6114138261182234,,,,,,,,,,,,,,,77,001,22,w,Psychologie MSc,2023-01-26_12h07.25.472,00_bat_bachelor,2022.2.4,59.985894240986354,
,,,,,,,,,,,,1,0,1,0,2,0,2,0,,,,,,,2,,,0.2,1954.5613510005642,,X,l,go,l,1,0.49438891315367073,,,,,,,,,,,,,,,77,001,22,w,Psychologie MSc,2023-01-26_12h07.25.472,00_bat_bachelor,2022.2.4,59.985894240986354,
,,,,,,,,,,,,1,0,1,0,3,0,3,0,,,,,,,3,,,0.2,1955.3613792187534,,Y,d,go,d,1,0.47815570898819715,,,,,,,,,,,,,,,77,001,22,w,Psychologie MSc,2023-01-26_12h07.25.472,00_bat_bachelor,2022.2.4,59.985894240986354,
,,,,,,,,,,,,1,0,1,0,4,0,4,0,,,,,,,4,,,0.2,1956.144526475342,1956.9446599056246,Y,None,nogo,None,1,,,,,,,,,,,,,,,,77,001,22,w,Psychologie MSc,2023-01-26_12h07.25.472,00_bat_bachelor,2022.2.4,59.985894240986354,
,,,,,,,,,,,,1,0,1,0,5,0,5,0,,,,,,,5,,,0.2,1957.144684051047,,X,l,go,l,1,0.2792661084095016,,,,,,,,,,,,,,,77,001,22,w,Psychologie MSc,2023-01-26_12h07.25.472,00_bat_bachelor,2022.2.4,59.985894240986354,
,,,,,,,,,,,,1,0,1,0,6,0,6,0,,,,,,,6,,,0.2,1957.727881828905,,Y,d,go,d,1,0.46306432236451656,,,,,,,,,,,,,,,77,001,22,w,Psychologie MSc,2023-01-26_12h07.25.472,00_bat_bachelor,2022.2.4,59.985894240986354,
,,,,,,,,,,,,1,0,1,0,7,0,7,0,,,,,,,7,,,0.2,1958.4945083663333,,X,l,go,l,1,0.27241859666537493,,,,,,,,,,,,,,,77,001,22,w,Psychologie MSc,2023-01-26_12h07.25.472,00_bat_bachelor,2022.2.4,59.985894240986354,
,,,,,,,,,,,,1,0,1,0,8,0,8,0,,,,,,,8,,,0.2,1959.0780562045984,,Y,d,go,d,1,0.5218080515041947,,,,,,,,,,,,,,,77,001,22,w,Psychologie MSc,2023-01-26_12h07.25.472,00_bat_bachelor,2022.2.4,59.985894240986354,
,,,,,,,,,,,,1,0,1,0,9,0,9,0,,,,,,,9,,,0.2,1959.9113474369515,,Y,None,nogo,l,0,0.23316576716024429,,,,,,,,,,,,,,,77,001,22,w,Psychologie MSc,2023-01-26_12h07.25.472,00_bat_bachelor,2022.2.4,59.985894240986354,
,,,,,,,,,,,,1,0,1,0,10,0,10,0,,,,,,,10,,,0.2,1960.4445229360135,1961.244561820873,Y,None,nogo,None,1,,,,,,,,,,,,,,,,77,001,22,w,Psychologie MSc,2023-01-26_12h07.25.472,00_bat_bachelor,2022.2.4,59.985894240986354,
,,,,,,,,,,,,1,0,1,0,11,0,11,0,,,,,,,11,,,0.2,1961.4443546936382,,X,l,go,l,1,0.18754542560782284,,,,,,,,,,,,,,,77,001,22,w,Psychologie MSc,2023-01-26_12h07.25.472,00_bat_bachelor,2022.2.4,59.985894240986354,
,,,,,,,,,,,,1,0,1,0,12,0,12,0,,,,,,,12,,,0.2,1961.9445454814704,,Y,d,go,d,1,0.3901901758508757,,,,,,,,,,,,,,,77,001,22,w,Psychologie MSc,2023-01-26_12h07.25.472,00_bat_bachelor,2022.2.4,59.985894240986354,
,,,,,,,,,,,,1,0,1,0,13,0,13,0,,,,,,,13,,,0.2,1962.6446372632636,1963.4446824510815,Y,None,nogo,None,1,,,,,,,,,,,,,,,,77,001,22,w,Psychologie MSc,2023-01-26_12h07.25.472,00_bat_bachelor,2022.2.4,59.985894240986354,
,,,,,,,,,,,,1,0,1,0,14,0,14,0,,,,,,,14,,,0.2,1963.6446968995733,,X,l,go,l,1,0.19521524012088776,,,,,,,,,,,,,,,77,001,22,w,Psychologie MSc,2023-01-26_12h07.25.472,00_bat_bachelor,2022.2.4,59.985894240986354,
,,,,,,,,,,,,1,0,1,0,15,0,15,0,,,,,,,15,,,0.2,1964.1443592027063,,Y,d,go,d,1,0.4472723299404606,,,,,,,,,,,,,,,77,001,22,w,Psychologie MSc,2023-01-26_12h07.25.472,00_bat_bachelor,2022.2.4,59.985894240986354,
,,,,,,,,,,,,1,0,1,0,16,0,16,0,,,,,,,16,,,0.2,1964.894639081438,1965.69465808745,Y,None,nogo,None,1,,,,,,,,,,,,,,,,77,001,22,w,Psychologie MSc,2023-01-26_12h07.25.472,00_bat_bachelor,2022.2.4,59.985894240986354,
,,,,,,,,,,,,1,0,1,0,17,0,17,0,,,,,,,17,,,0.2,1965.8945619905135,,X,l,go,l,1,0.2334503730526194,,,,,,,,,,,,,,,77,001,22,w,Psychologie MSc,2023-01-26_12h07.25.472,00_bat_bachelor,2022.2.4,59.985894240986354,
,,,,,,,,,,,,1,0,1,0,18,0,18,0,,,,,,,18,,,0.2,1966.4280104591744,1967.2278937076917,Y,d,go,None,0,,,,,,,,,,,,,,,,77,001,22,w,Psychologie MSc,2023-01-26_12h07.25.472,00_bat_bachelor,2022.2.4,59.985894240986354,
,,,,,,,,,,,,1,0,1,0,19,0,19,0,,,,,,,19,,,0.2,1967.4279779742938,,X,l,go,d,0,0.3960151426726952,,,,,,,,,,,,,,,77,001,22,w,Psychologie MSc,2023-01-26_12h07.25.472,00_bat_bachelor,2022.2.4,59.985894240986354,
,,,,,,,,,,,,1,0,1,0,20,0,20,0,,,,,,,20,,,0.2,1968.127711938112,1968.9279583379393,Y,d,go,None,0,,,,,,,,,,,,,,,,77,001,22,w,Psychologie MSc,2023-01-26_12h07.25.472,00_bat_bachelor,2022.2.4,59.985894240986354,
,,,,,,,,,,,,1,0,1,0,21,0,21,0,,,,,,,21,,,0.2,1969.127851089579,,X,l,go,l,1,0.2478940023574978,,,,,,,,,,,,,,,77,001,22,w,Psychologie MSc,2023-01-26_12h07.25.472,00_bat_bachelor,2022.2.4,59.985894240986354,
,,,,,,,,,,,,1,0,1,0,22,0,22,0,,,,,,,22,,,0.2,1969.677877004724,,Y,d,go,d,1,0.4654672301840037,,,,,,,,,,,,,,,77,001,22,w,Psychologie MSc,2023-01-26_12h07.25.472,00_bat_bachelor,2022.2.4,59.985894240986354,
,,,,,,,,,,,,1,0,1,0,23,0,23,0,,,,,,,23,,,0.2,1970.4447445116239,,X,l,go,l,1,0.3715535788796842,,,,,,,,,,,,,,,77,001,22,w,Psychologie MSc,2023-01-26_12h07.25.472,00_bat_bachelor,2022.2.4,59.985894240986354,
,,,,,,,,,,,,1,0,1,0,24,0,24,0,,,,,,,24,,,0.2,1971.127991695539,,X,None,nogo,d,0,0.47118359117303044,,,,,,,,,,,,,,,77,001,22,w,Psychologie MSc,2023-01-26_12h07.25.472,00_bat_bachelor,2022.2.4,59.985894240986354,
,,,,,,,,,,,,1,0,1,0,25,0,25,0,,,,,,,25,,,0.2,1971.9114216186572,,X,None,nogo,l,0,0.3924112656386569,,,,,,,,,,,,,,,77,001,22,w,Psychologie MSc,2023-01-26_12h07.25.472,00_bat_bachelor,2022.2.4,59.985894240986354,
,,,,,,,,,,,,1,0,1,0,26,0,26,0,,,,,,,26,,,0.2,1972.6112016430125,,Y,d,go,d,1,0.6366327230352908,,,,,,,,,,,,,,,77,001,22,w,Psychologie MSc,2023-01-26_12h07.25.472,00_bat_bachelor,2022.2.4,59.985894240986354,
,,,,,,,,,,,,1,0,1,0,27,0,27,0,,,,,,,27,,,0.2,1973.5610668795416,,X,l,go,l,1,0.5821231737500057,,,,,,,,,,,,,,,77,001,22,w,Psychologie MSc,2023-01-26_12h07.25.472,00_bat_bachelor,2022.2.4,59.985894240986354,
,,,,,,,,,,,,1,0,1,0,28,0,28,0,,,,,,,28,,,0.2,1974.4447270571254,,Y,d,go,d,1,0.6583733184961602,,,,,,,,,,,,,,,77,001,22,w,Psychologie MSc,2023-01-26_12h07.25.472,00_bat_bachelor,2022.2.4,59.985894240986354,
,,,,,,,,,,,,1,0,1,0,29,0,29,0,,,,,,,29,,,0.2,1975.4110388309928,1976.2113031703047,X,l,go,None,0,,,,,,,,,,,,,,,,77,001,22,w,Psychologie MSc,2023-01-26_12h07.25.472,00_bat_bachelor,2022.2.4,59.985894240986354,
,,,,,,,,,,,,1,0,1,0,30,0,30,0,,,,,,,30,,,0.2,1976.411131437053,,Y,d,go,d,1,0.48366503964643925,,,,,,,,,,,,,,,77,001,22,w,Psychologie MSc,2023-01-26_12h07.25.472,00_bat_bachelor,2022.2.4,59.985894240986354,
,,,,,,,,,,,,1,0,1,0,31,0,31,0,,,,,,,31,,,0.2,1977.2113434126368,1978.0110506613273,Y,None,nogo,None,1,,,,,,,,,,,,,,,,77,001,22,w,Psychologie MSc,2023-01-26_12h07.25.472,00_bat_bachelor,2022.2.4,59.985894240986354,
,,,,,,,,,,,,1,0,1,0,32,0,32,0,,,,,,,32,,,0.2,1978.2110631704563,,X,l,go,l,1,0.2206891670357436,,,,,,,,,,,,,,,77,001,22,w,Psychologie MSc,2023-01-26_12h07.25.472,00_bat_bachelor,2022.2.4,59.985894240986354,
,,,,,,,,,,,,1,0,1,0,33,0,33,0,,,,,,,33,,,0.2,1978.7443661845755,,Y,d,go,d,1,0.5196558100869879,,,,,,,,,,,,,,,77,001,22,w,Psychologie MSc,2023-01-26_12h07.25.472,00_bat_bachelor,2022.2.4,59.985894240986354,
,,,,,,,,,,,,1,0,1,0,34,0,34,0,,,,,,,34,,,0.2,1979.5781097803265,1980.378015331924,Y,None,nogo,None,1,,,,,,,,,,,,,,,,77,001,22,w,Psychologie MSc,2023-01-26_12h07.25.472,00_bat_bachelor,2022.2.4,59.985894240986354,
,,,,,,,,,,,,1,0,1,0,35,0,35,0,,,,,,,35,,,0.2,1980.5780099015683,,X,l,go,l,1,0.23723606823477894,,,,,,,,,,,,,,,77,001,22,w,Psychologie MSc,2023-01-26_12h07.25.472,00_bat_bachelor,2022.2.4,59.985894240986354,
,,,,,,,,,,,,1,0,1,0,36,0,36,0,,,,,,,36,,,0.2,1981.1280009076,1981.9278618531534,Y,d,go,None,0,,,,,,,,,,,,,,,,77,001,22,w,Psychologie MSc,2023-01-26_12h07.25.472,00_bat_bachelor,2022.2.4,59.985894240986354,
,,,,,,,,,,,,1,0,1,0,37,0,37,0,,,,,,,37,,,0.2,1982.1279698773287,,X,l,go,d,0,0.3998236256884411,,,,,,,,,,,,,,,77,001,22,w,Psychologie MSc,2023-01-26_12h07.25.472,00_bat_bachelor,2022.2.4,59.985894240986354,
,,,,,,,,,,,,1,0,1,0,38,0,38,0,,,,,,,38,,,0.2,1982.82799814397,,Y,d,go,l,0,0.291519193444401,,,,,,,,,,,,,,,77,001,22,w,Psychologie MSc,2023-01-26_12h07.25.472,00_bat_bachelor,2022.2.4,59.985894240986354,
,,,,,,,,,,,,1,0,1,0,39,0,39,0,,,,,,,39,,,0.2,1983.4279692471027,1984.2276721320814,X,l,go,None,0,,,,,,,,,,,,,,,,77,001,22,w,Psychologie MSc,2023-01-26_12h07.25.472,00_bat_bachelor,2022.2.4,59.985894240986354,
,,,,,,,,,,,,1,0,1,0,40,0,40,0,,,,,,,40,,,0.2,1984.427994459169,,Y,d,go,l,0,0.4034148966893554,,,,,,,,,,,,,,,77,001,22,w,Psychologie MSc,2023-01-26_12h07.25.472,00_bat_bachelor,2022.2.4,59.985894240986354,
,,,,,,,,,,,,1,0,1,0,41,0,41,0,,,,,,,41,,,0.2,1985.144330111798,1985.944670087425,Y,None,nogo,None,1,,,,,,,,,,,,,,,,77,001,22,w,Psychologie MSc,2023-01-26_12h07.25.472,00_bat_bachelor,2022.2.4,59.985894240986354,
,,,,,,,,,,,,1,0,1,0,42,0,42,0,,,,,,,42,,,0.2,1986.144665626809,,X,l,go,l,1,0.12681915203575045,,,,,,,,,,,,,,,77,001,22,w,Psychologie MSc,2023-01-26_12h07.25.472,00_bat_bachelor,2022.2.4,59.985894240986354,
,,,,,,,,,,,,1,0,1,0,43,0,43,0,,,,,,,43,,,0.2,1986.5778688107384,,Y,d,go,d,1,0.38168884662445635,,,,,,,,,,,,,,,77,001,22,w,Psychologie MSc,2023-01-26_12h07.25.472,00_bat_bachelor,2022.2.4,59.985894240986354,
,,,,,,,,,,,,1,0,1,0,44,0,44,0,,,,,,,44,,,0.2,1987.2613482369343,,X,l,go,l,1,0.3702823066851124,,,,,,,,,,,,,,,77,001,22,w,Psychologie MSc,2023-01-26_12h07.25.472,00_bat_bachelor,2022.2.4,59.985894240986354,
,,,,,,,,,,,,1,0,1,0,45,0,45,0,,,,,,,45,,,0.2,1987.9447302086046,1988.7446023056982,Y,d,go,None,0,,,,,,,,,,,,,,,,77,001,22,w,Psychologie MSc,2023-01-26_12h07.25.472,00_bat_bachelor,2022.2.4,59.985894240986354,
,,,,,,,,,,,,1,0,1,0,46,0,46,0,,,,,,,46,,,0.2,1988.9445042692823,,X,l,go,l,1,0.3509257099358365,,,,,,,,,,,,,,,77,001,22,w,Psychologie MSc,2023-01-26_12h07.25.472,00_bat_bachelor,2022.2.4,59.985894240986354,
,,,,,,,,,,,,1,0,1,0,47,0,47,0,,,,,,,47,,,0.2,1989.6110416431911,,X,None,nogo,d,0,0.35669104056432843,,,,,,,,,,,,,,,77,001,22,w,Psychologie MSc,2023-01-26_12h07.25.472,00_bat_bachelor,2022.2.4,59.985894240986354,
,,,,,,,,,,,,1,0,1,0,48,0,48,0,,,,,,,48,,,0.2,1990.2777007138357,1991.0776644472498,Y,d,go,None,0,,,,,,,,,,,,,,,,77,001,22,w,Psychologie MSc,2023-01-26_12h07.25.472,00_bat_bachelor,2022.2.4,59.985894240986354,
,,,,,,,,,,,,1,0,1,0,49,0,49,0,,,,,,,49,,,0.2,1991.2780333197443,,X,l,go,l,1,0.1780443392926827,,,,,,,,,,,,,,,77,001,22,w,Psychologie MSc,2023-01-26_12h07.25.472,00_bat_bachelor,2022.2.4,59.985894240986354,
,,,,,,,,,,,,1,0,1,0,50,0,50,0,,,,,,,50,,,0.2,1991.7609887219733,,Y,d,go,d,1,0.4457406942965463,,,,,,,,,,,,,,,77,001,22,w,Psychologie MSc,2023-01-26_12h07.25.472,00_bat_bachelor,2022.2.4,59.985894240986354,
,,,,,,,,,,,,1,0,1,0,51,0,51,0,,,,,,,51,,,0.2,1992.5109389037825,,X,l,go,l,1,0.3525053457124159,,,,,,,,,,,,,,,77,001,22,w,Psychologie MSc,2023-01-26_12h07.25.472,00_bat_bachelor,2022.2.4,59.985894240986354,
,,,,,,,,,,,,1,0,1,0,52,0,52,0,,,,,,,52,,,0.2,1993.1778054895112,1993.9779592833947,X,None,nogo,None,1,,,,,,,,,,,,,,,,77,001,22,w,Psychologie MSc,2023-01-26_12h07.25.472,00_bat_bachelor,2022.2.4,59.985894240986354,
,,,,,,,,,,,,1,0,1,0,53,0,53,0,,,,,,,53,,,0.2,1994.177854459267,,Y,d,go,d,1,0.3332874155603349,,,,,,,,,,,,,,,77,001,22,w,Psychologie MSc,2023-01-26_12h07.25.472,00_bat_bachelor,2022.2.4,59.985894240986354,
,,,,,,,,,,,,1,0,1,0,54,0,54,0,,,,,,,54,,,0.2,1994.8111045764526,,X,l,go,l,1,0.4210207063006237,,,,,,,,,,,,,,,77,001,22,w,Psychologie MSc,2023-01-26_12h07.25.472,00_bat_bachelor,2022.2.4,59.985894240986354,
,,,,,,,,,,,,1,0,1,0,55,0,55,0,,,,,,,55,,,0.2,1995.544412342133,1996.3444657723885,X,None,nogo,None,1,,,,,,,,,,,,,,,,77,001,22,w,Psychologie MSc,2023-01-26_12h07.25.472,00_bat_bachelor,2022.2.4,59.985894240986354,
,,,,,,,,,,,,1,0,1,0,56,0,56,0,,,,,,,56,,,0.2,1996.5444991299883,,X,None,nogo,l,0,0.3344937179936096,,,,,,,,,,,,,,,77,001,22,w,Psychologie MSc,2023-01-26_12h07.25.472,00_bat_bachelor,2022.2.4,59.985894240986354,
,,,,,,,,,,,,1,0,1,0,57,0,57,0,,,,,,,57,,,0.2,1997.194362087641,,Y,d,go,d,1,0.34038268483709544,,,,,,,,,,,,,,,77,001,22,w,Psychologie MSc,2023-01-26_12h07.25.472,00_bat_bachelor,2022.2.4,59.985894240986354,
,,,,,,,,,,,,1,0,1,0,58,0,58,0,,,,,,,58,,,0.2,1997.8446235904703,,X,l,go,l,1,0.4269319762242958,,,,,,,,,,,,,,,77,001,22,w,Psychologie MSc,2023-01-26_12h07.25.472,00_bat_bachelor,2022.2.4,59.985894240986354,
,,,,,,,,,,,,1,0,1,0,59,0,59,0,,,,,,,59,,,0.2,1998.5780637197895,1999.3778543622466,X,None,nogo,None,1,,,,,,,,,,,,,,,,77,001,22,w,Psychologie MSc,2023-01-26_12h07.25.472,00_bat_bachelor,2022.2.4,59.985894240986354,
,,,,,,,,,,,,1,0,1,0,60,0,60,0,,,,,,,60,,,0.2,1999.577966265264,,Y,d,go,l,0,0.2776321697747335,,,,,,,,,,,,,,,77,001,22,w,Psychologie MSc,2023-01-26_12h07.25.472,00_bat_bachelor,2022.2.4,59.985894240986354,
,,,,,,,,,,,,1,0,1,0,61,0,61,0,,,,,,,61,,,0.2,2000.1610452552559,2000.9612969884183,X,l,go,None,0,,,,,,,,,,,,,,,,77,001,22,w,Psychologie MSc,2023-01-26_12h07.25.472,00_bat_bachelor,2022.2.4,59.985894240986354,
,,,,,,,,,,,,1,0,1,0,62,0,62,0,,,,,,,62,,,0.2,2001.1612062249333,,X,None,nogo,l,0,0.4867995835375041,,,,,,,,,,,,,,,77,001,22,w,Psychologie MSc,2023-01-26_12h07.25.472,00_bat_bachelor,2022.2.4,59.985894240986354,
,,,,,,,,,,,,1,0,1,0,63,0,63,0,,,,,,,63,,,0.2,2001.9612969884183,,Y,d,go,d,1,0.42250628140755,,,,,,,,,,,,,,,77,001,22,w,Psychologie MSc,2023-01-26_12h07.25.472,00_bat_bachelor,2022.2.4,59.985894240986354,
,,,,,,,,,,,,1,0,1,0,64,0,64,0,,,,,,,64,,,0.2,2002.694472875446,,X,l,go,l,1,0.31282391026616096,,,,,,,,,,,,,,,77,001,22,w,Psychologie MSc,2023-01-26_12h07.25.472,00_bat_bachelor,2022.2.4,59.985894240986354,
,,,,,,,,,,,,1,0,1,0,65,0,65,0,,,,,,,65,,,0.2,2003.3113220308442,,Y,d,go,d,1,0.5127830861601979,,,,,,,,,,,,,,,77,001,22,w,Psychologie MSc,2023-01-26_12h07.25.472,00_bat_bachelor,2022.2.4,59.985894240986354,
,,,,,,,,,,,,1,0,1,0,66,0,66,0,,,,,,,66,,,0.2,2004.1276106047444,,X,l,go,l,1,0.41606313292868435,,,,,,,,,,,,,,,77,001,22,w,Psychologie MSc,2023-01-26_12h07.25.472,00_bat_bachelor,2022.2.4,59.985894240986354,
,,,,,,,,,,,,1,0,1,0,67,0,67,0,,,,,,,67,,,0.2,2004.8446531662485,2005.6447948388522,X,None,nogo,None,1,,,,,,,,,,,,,,,,77,001,22,w,Psychologie MSc,2023-01-26_12h07.25.472,00_bat_bachelor,2022.2.4,59.985894240986354,
,,,,,,,,,,,,1,0,1,0,68,0,68,0,,,,,,,68,,,0.2,2005.8445338935126,,X,None,nogo,l,0,0.28275216731708497,,,,,,,,,,,,,,,77,001,22,w,Psychologie MSc,2023-01-26_12h07.25.472,00_bat_bachelor,2022.2.4,59.985894240986354,
,,,,,,,,,,,,1,0,1,0,69,0,69,0,,,,,,,69,,,0.2,2006.4279818531359,,Y,d,go,d,1,0.3551904351916164,,,,,,,,,,,,,,,77,001,22,w,Psychologie MSc,2023-01-26_12h07.25.472,00_bat_bachelor,2022.2.4,59.985894240986354,
,,,,,,,,,,,,1,0,1,0,70,0,70,0,,,,,,,70,,,0.2,2007.0946506208275,,X,l,go,l,1,0.3452655915170908,,,,,,,,,,,,,,,77,001,22,w,Psychologie MSc,2023-01-26_12h07.25.472,00_bat_bachelor,2022.2.4,59.985894240986354,
,,,,,,,,,,,,1,0,1,0,71,0,71,0,,,,,,,71,,,0.2,2007.7442978209583,,Y,d,go,d,1,0.49476854933891445,,,,,,,,,,,,,,,77,001,22,w,Psychologie MSc,2023-01-26_12h07.25.472,00_bat_bachelor,2022.2.4,59.985894240986354,
,,,,,,,,,,,,1,0,1,0,72,0,72,0,,,,,,,72,,,0.2,2008.5444428875344,,X,l,go,l,1,0.3671303082956001,,,,,,,,,,,,,,,77,001,22,w,Psychologie MSc,2023-01-26_12h07.25.472,00_bat_bachelor,2022.2.4,59.985894240986354,
,,,,,,,,,,,,1,0,1,0,73,0,73,0,,,,,,,73,,,0.2,2009.2276813441422,,Y,d,go,d,1,0.5161202965537086,,,,,,,,,,,,,,,77,001,22,w,Psychologie MSc,2023-01-26_12h07.25.472,00_bat_bachelor,2022.2.4,59.985894240986354,
,,,,,,,,,,,,1,0,1,0,74,0,74,0,,,,,,,74,,,0.2,2010.0444969481323,,X,l,go,l,1,0.3712607305496931,,,,,,,,,,,,,,,77,001,22,w,Psychologie MSc,2023-01-26_12h07.25.472,00_bat_bachelor,2022.2.4,59.985894240986354,
,,,,,,,,,,,,1,0,1,0,75,0,75,0,,,,,,,75,,,0.2,2010.7276757684303,2011.5277941683307,X,None,nogo,None,1,,,,,,,,,,,,,,,,77,001,22,w,Psychologie MSc,2023-01-26_12h07.25.472,00_bat_bachelor,2022.2.4,59.985894240986354,
,,,,,,,,,,,,1,0,1,0,76,0,76,0,,,,,,,76,,,0.2,2011.7279375864891,,Y,d,go,l,0,0.19132045411970466,,,,,,,,,,,,,,,77,001,22,w,Psychologie MSc,2023-01-26_12h07.25.472,00_bat_bachelor,2022.2.4,59.985894240986354,
,,,,,,,,,,,,1,0,1,0,77,0,77,0,,,,,,,77,,,0.2,2012.2277627986623,2013.0279815621907,X,l,go,None,0,,,,,,,,,,,,,,,,77,001,22,w,Psychologie MSc,2023-01-26_12h07.25.472,00_bat_bachelor,2022.2.4,59.985894240986354,
,,,,,,,,,,,,1,0,1,0,78,0,78,0,,,,,,,78,,,0.2,2013.2276808592724,,X,None,nogo,l,0,0.4670294113457203,,,,,,,,,,,,,,,77,001,22,w,Psychologie MSc,2023-01-26_12h07.25.472,00_bat_bachelor,2022.2.4,59.985894240986354,
,,,,,,,,,,,,1,0,1,0,79,0,79,0,,,,,,,79,,,0.2,2014.011027388624,,Y,d,go,d,1,0.40471719903871417,,,,,,,,,,,,,,,77,001,22,w,Psychologie MSc,2023-01-26_12h07.25.472,00_bat_bachelor,2022.2.4,59.985894240986354,
,,,,,,,,,,,,1,0,1,0,80,0,80,0,,,,,,,80,,,0.2,2014.72780570772,,X,l,go,l,1,0.26360454014502466,,,,,,,,,,,,,,,77,001,22,w,Psychologie MSc,2023-01-26_12h07.25.472,00_bat_bachelor,2022.2.4,59.985894240986354,
,,,,,,,,,,,,1,0,1,0,81,0,81,0,,,,,,,81,,,0.2,2015.2947048267815,,Y,d,go,d,1,0.2724947177339345,,,,,,,,,,,,,,,77,001,22,w,Psychologie MSc,2023-01-26_12h07.25.472,00_bat_bachelor,2022.2.4,59.985894240986354,
,,,,,,,,,,,,1,0,1,0,82,0,82,0,,,,,,,82,,,0.2,2015.8779472106835,2016.6778833076824,Y,None,nogo,None,1,,,,,,,,,,,,,,,,77,001,22,w,Psychologie MSc,2023-01-26_12h07.25.472,00_bat_bachelor,2022.2.4,59.985894240986354,
,,,,,,,,,,,,1,0,1,0,83,0,83,0,,,,,,,83,,,0.2,2016.8779413924785,,X,l,go,l,1,0.2577403006143868,,,,,,,,,,,,,,,77,001,22,w,Psychologie MSc,2023-01-26_12h07.25.472,00_bat_bachelor,2022.2.4,59.985894240986354,
,,,,,,,,,,,,1,0,1,0,84,0,84,0,,,,,,,84,,,0.2,2017.444609238999,,Y,d,go,d,1,0.34662946965545416,,,,,,,,,,,,,,,77,001,22,w,Psychologie MSc,2023-01-26_12h07.25.472,00_bat_bachelor,2022.2.4,59.985894240986354,
,,,,,,,,,,,,1,0,1,0,85,0,85,0,,,,,,,85,,,0.2,2018.0943393482594,2018.8943215057952,Y,None,nogo,None,1,,,,,,,,,,,,,,,,77,001,22,w,Psychologie MSc,2023-01-26_12h07.25.472,00_bat_bachelor,2022.2.4,59.985894240986354,
,,,,,,,,,,,,1,0,1,0,86,0,86,0,,,,,,,86,,,0.2,2019.09433789365,,X,l,go,l,1,0.26480163051746786,,,,,,,,,,,,,,,77,001,22,w,Psychologie MSc,2023-01-26_12h07.25.472,00_bat_bachelor,2022.2.4,59.985894240986354,
,,,,,,,,,,,,1,0,1,0,87,0,87,0,,,,,,,87,,,0.2,2019.6611012552166,,Y,d,go,d,1,0.38694169255904853,,,,,,,,,,,,,,,77,001,22,w,Psychologie MSc,2023-01-26_12h07.25.472,00_bat_bachelor,2022.2.4,59.985894240986354,
,,,,,,,,,,,,1,0,1,0,88,0,88,0,,,,,,,88,,,0.2,2020.3611324309604,2021.1611422249116,Y,None,nogo,None,1,,,,,,,,,,,,,,,,77,001,22,w,Psychologie MSc,2023-01-26_12h07.25.472,00_bat_bachelor,2022.2.4,59.985894240986354,
,,,,,,,,,,,,1,0,1,0,89,0,89,0,,,,,,,89,,,0.2,2021.360988431028,,X,l,go,l,1,0.25370442389976233,,,,,,,,,,,,,,,77,001,22,w,Psychologie MSc,2023-01-26_12h07.25.472,00_bat_bachelor,2022.2.4,59.985894240986354,
,,,,,,,,,,,,1,0,1,0,90,0,90,0,,,,,,,90,,,0.2,2021.927901610732,,Y,d,go,d,1,0.31170100171584636,,,,,,,,,,,,,,,77,001,22,w,Psychologie MSc,2023-01-26_12h07.25.472,00_bat_bachelor,2022.2.4,59.985894240986354,
,,,,,,,,,,,,1,0,1,0,91,0,91,0,,,,,,,91,,,0.2,2022.5446470086463,,X,l,go,l,1,0.3502760133706033,,,,,,,,,,,,,,,77,001,22,w,Psychologie MSc,2023-01-26_12h07.25.472,00_bat_bachelor,2022.2.4,59.985894240986354,
,,,,,,,,,,,,1,0,1,0,92,0,92,0,,,,,,,92,,,0.2,2023.1946399055887,,X,None,nogo,d,0,0.45297366054728627,,,,,,,,,,,,,,,77,001,22,w,Psychologie MSc,2023-01-26_12h07.25.472,00_bat_bachelor,2022.2.4,59.985894240986354,
,,,,,,,,,,,,1,0,1,0,93,0,93,0,,,,,,,93,,,0.2,2023.9609668068588,2024.7610735703493,Y,d,go,None,0,,,,,,,,,,,,,,,,77,001,22,w,Psychologie MSc,2023-01-26_12h07.25.472,00_bat_bachelor,2022.2.4,59.985894240986354,
,,,,,,,,,,,,1,0,1,0,94,0,94,0,,,,,,,94,,,0.2,2024.9609944431577,,X,l,go,l,1,0.30242536996956915,,,,,,,,,,,,,,,77,001,22,w,Psychologie MSc,2023-01-26_12h07.25.472,00_bat_bachelor,2022.2.4,59.985894240986354,
,,,,,,,,,,,,1,0,1,0,95,0,95,0,,,,,,,95,,,0.2,2025.5775885684416,,X,None,nogo,d,0,0.11732242931611836,,,,,,,,,,,,,,,77,001,22,w,Psychologie MSc,2023-01-26_12h07.25.472,00_bat_bachelor,2022.2.4,59.985894240986354,
,,,,,,,,,,,,1,0,1,0,96,0,96,0,,,,,,,96,,,0.2,2026.0112572066719,,X,None,nogo,l,0,0.6275975758908316,,,,,,,,,,,,,,,77,001,22,w,Psychologie MSc,2023-01-26_12h07.25.472,00_bat_bachelor,2022.2.4,59.985894240986354,
,,,,,,,,,,,,1,0,1,0,97,0,97,0,,,,,,,97,,,0.2,2026.9446245117579,,Y,d,go,d,1,0.6066700707888231,,,,,,,,,,,,,,,77,001,22,w,Psychologie MSc,2023-01-26_12h07.25.472,00_bat_bachelor,2022.2.4,59.985894240986354,
,,,,,,,,,,,,1,0,1,0,98,0,98,0,,,,,,,98,,,0.2,2027.8613028550753,,X,l,go,l,1,0.20159390370827168,,,,,,,,,,,,,,,77,001,22,w,Psychologie MSc,2023-01-26_12h07.25.472,00_bat_bachelor,2022.2.4,59.985894240986354,
,,,,,,,,,,,,1,0,1,0,99,0,99,0,,,,,,,99,,,0.2,2028.3777486652834,,X,None,nogo,d,0,0.42090143368113786,,,,,,,,,,,,,,,77,001,22,w,Psychologie MSc,2023-01-26_12h07.25.472,00_bat_bachelor,2022.2.4,59.985894240986354,
,,,,,,,,,,,,1,0,1,0,100,0,100,0,,,,,,,100,,,0.2,2029.1111412794562,2029.9113755581202,Y,d,go,None,0,,,,,,,,,,,,,,,,77,001,22,w,Psychologie MSc,2023-01-26_12h07.25.472,00_bat_bachelor,2022.2.4,59.985894240986354,
,,,,,,,,,,,,1,0,1,0,101,0,101,0,,,,,,,101,,,0.2,2030.1112615218153,,X,l,go,l,1,0.048384280991740525,,,,,,,,,,,,,,,77,001,22,w,Psychologie MSc,2023-01-26_12h07.25.472,00_bat_bachelor,2022.2.4,59.985894240986354,
,,,,,,,,,,,,1,0,1,0,102,0,102,0,,,,,,,102,,,0.2,2030.4611580794444,2031.2612997520482,X,None,nogo,None,1,,,,,,,,,,,,,,,,77,001,22,w,Psychologie MSc,2023-01-26_12h07.25.472,00_bat_bachelor,2022.2.4,59.985894240986354,
,,,,,,,,,,,,1,0,1,0,103,0,103,0,,,,,,,103,,,0.2,2031.4611803824082,,Y,d,go,l,0,0.3947763554751873,,,,,,,,,,,,,,,77,001,22,w,Psychologie MSc,2023-01-26_12h07.25.472,00_bat_bachelor,2022.2.4,59.985894240986354,
,,,,,,,,,,,,1,0,1,0,104,0,104,0,,,,,,,104,,,0.2,2032.161254709703,2032.9613008672604,X,l,go,None,0,,,,,,,,,,,,,,,,77,001,22,w,Psychologie MSc,2023-01-26_12h07.25.472,00_bat_bachelor,2022.2.4,59.985894240986354,
,,,,,,,,,,,,1,0,1,0,105,0,105,0,,,,,,,105,,,0.2,2033.1612925279187,,Y,d,go,l,0,0.24684333626646549,,,,,,,,,,,,,,,77,001,22,w,Psychologie MSc,2023-01-26_12h07.25.472,00_bat_bachelor,2022.2.4,59.985894240986354,
,,,,,,,,,,,,1,0,1,0,106,0,106,0,,,,,,,106,,,0.2,2033.711293230881,2034.5110950248782,X,l,go,None,0,,,,,,,,,,,,,,,,77,001,22,w,Psychologie MSc,2023-01-26_12h07.25.472,00_bat_bachelor,2022.2.4,59.985894240986354,
,,,,,,,,,,,,1,0,1,0,107,0,107,0,,,,,,,107,,,0.2,2034.7113213520497,2035.5112996308599,X,None,nogo,None,1,,,,,,,,,,,,,,,,77,001,22,w,Psychologie MSc,2023-01-26_12h07.25.472,00_bat_bachelor,2022.2.4,59.985894240986354,
,,,,,,,,,,,,1,0,1,0,108,0,108,0,,,,,,,108,,,0.2,2035.7112631703494,,Y,d,go,d,1,0.46361171593889594,,,,,,,,,,,,,,,77,001,22,w,Psychologie MSc,2023-01-26_12h07.25.472,00_bat_bachelor,2022.2.4,59.985894240986354,
,,,,,,,,,,,,1,0,1,0,109,0,109,0,,,,,,,109,,,0.2,2036.4776768593583,,X,l,go,l,1,0.4009475038619712,,,,,,,,,,,,,,,77,001,22,w,Psychologie MSc,2023-01-26_12h07.25.472,00_bat_bachelor,2022.2.4,59.985894240986354,
,,,,,,,,,,,,1,0,1,0,110,0,110,0,,,,,,,110,,,0.2,2037.1945982086472,,Y,d,go,d,1,0.3411812299164012,,,,,,,,,,,,,,,77,001,22,w,Psychologie MSc,2023-01-26_12h07.25.472,00_bat_bachelor,2022.2.4,59.985894240986354,
,,,,,,,,,,,,1,0,1,0,111,0,111,0,,,,,,,111,,,0.2,2037.8442837118637,,X,l,go,l,1,0.44248202932067215,,,,,,,,,,,,,,,77,001,22,w,Psychologie MSc,2023-01-26_12h07.25.472,00_bat_bachelor,2022.2.4,59.985894240986354,
,,,,,,,,,,,,1,0,1,0,112,0,112,0,,,,,,,112,,,0.2,2038.5944278329844,2039.39464465715,X,None,nogo,None,1,,,,,,,,,,,,,,,,77,001,22,w,Psychologie MSc,2023-01-26_12h07.25.472,00_bat_bachelor,2022.2.4,59.985894240986354,
,,,,,,,,,,,,1,0,1,0,113,0,113,0,,,,,,,113,,,0.2,2039.5942561967531,,Y,d,go,l,0,0.27718804869800806,,,,,,,,,,,,,,,77,001,22,w,Psychologie MSc,2023-01-26_12h07.25.472,00_bat_bachelor,2022.2.4,59.985894240986354,
,,,,,,,,,,,,1,0,1,0,114,0,114,0,,,,,,,114,,,0.2,2040.177964034956,2040.9776480108267,X,l,go,None,0,,,,,,,,,,,,,,,,77,001,22,w,Psychologie MSc,2023-01-26_12h07.25.472,00_bat_bachelor,2022.2.4,59.985894240986354,
,,,,,,,,,,,,1,0,1,0,115,0,115,0,,,,,,,115,,,0.2,2041.177721126005,,Y,d,go,l,0,0.08621068694628775,,,,,,,,,,,,,,,77,001,22,w,Psychologie MSc,2023-01-26_12h07.25.472,00_bat_bachelor,2022.2.4,59.985894240986354,
,,,,,,,,,,,,1,0,1,0,116,0,116,0,,,,,,,116,,,0.2,2041.5778237198247,2042.3777923017042,Y,None,nogo,None,1,,,,,,,,,,,,,,,,77,001,22,w,Psychologie MSc,2023-01-26_12h07.25.472,00_bat_bachelor,2022.2.4,59.985894240986354,
,,,,,,,,,,,,1,0,1,0,117,0,117,0,,,,,,,117,,,0.2,2042.5778280835366,,Y,None,nogo,l,0,0.14157162967603654,,,,,,,,,,,,,,,77,001,22,w,Psychologie MSc,2023-01-26_12h07.25.472,00_bat_bachelor,2022.2.4,59.985894240986354,
,,,,,,,,,,,,1,0,1,0,118,0,118,0,,,,,,,118,,,0.2,2043.027927744086,2043.827678144211,X,l,go,None,0,,,,,,,,,,,,,,,,77,001,22,w,Psychologie MSc,2023-01-26_12h07.25.472,00_bat_bachelor,2022.2.4,59.985894240986354,
,,,,,,,,,,,,1,0,1,0,119,0,119,0,,,,,,,119,,,0.2,2044.0278322289232,,Y,d,go,d,1,0.05197167315054685,,,,,,,,,,,,,,,77,001,22,w,Psychologie MSc,2023-01-26_12h07.25.472,00_bat_bachelor,2022.2.4,59.985894240986354,
,,,,,,,,,,,,1,0,1,0,120,0,120,0,,,,,,,120,,,0.2,2044.3944875663146,,Y,None,nogo,l,0,0.34061977569945157,,,,,,,,,,,,,,,77,001,22,w,Psychologie MSc,2023-01-26_12h07.25.472,00_bat_bachelor,2022.2.4,59.985894240986354,
,,,,,,,,,,,,1,0,1,0,121,0,121,0,,,,,,,121,,,0.2,2045.0442758572754,2045.84426092403,X,l,go,None,0,,,,,,,,,,,,,,,,77,001,22,w,Psychologie MSc,2023-01-26_12h07.25.472,00_bat_bachelor,2022.2.4,59.985894240986354,
,,,,,,,,,,,,1,0,1,0,122,0,122,0,,,,,,,122,,,0.2,2046.0443432512693,,Y,d,go,d,1,0.3383332312805578,,,,,,,,,,,,,,,77,001,22,w,Psychologie MSc,2023-01-26_12h07.25.472,00_bat_bachelor,2022.2.4,59.985894240986354,
,,,,,,,,,,,,1,0,1,0,123,0,123,0,,,,,,,123,,,0.2,2046.6943463300122,,X,l,go,l,1,0.15292919997591525,,,,,,,,,,,,,,,77,001,22,w,Psychologie MSc,2023-01-26_12h07.25.472,00_bat_bachelor,2022.2.4,59.985894240986354,
,,,,,,,,,,,,1,0,1,0,124,0,124,0,,,,,,,124,,,0.2,2047.1612983460072,,Y,d,go,d,1,0.5019360609585419,,,,,,,,,,,,,,,77,001,22,w,Psychologie MSc,2023-01-26_12h07.25.472,00_bat_bachelor,2022.2.4,59.985894240986354,
,,,,,,,,,,,,1,0,1,0,125,0,125,0,,,,,,,125,,,0.2,2047.9778264350025,,Y,None,nogo,d,0,0.534240530221723,,,,,,,,,,,,,,,77,001,22,w,Psychologie MSc,2023-01-26_12h07.25.472,00_bat_bachelor,2022.2.4,59.985894240986354,
,,,,,,,,,,,,1,0,1,0,126,0,126,0,,,,,,,126,,,0.2,2048.827906022896,,Y,None,nogo,l,0,0.4519186307443306,,,,,,,,,,,,,,,77,001,22,w,Psychologie MSc,2023-01-26_12h07.25.472,00_bat_bachelor,2022.2.4,59.985894240986354,
,,,,,,,,,,,,1,0,1,0,127,0,127,0,,,,,,,127,,,0.2,2049.594558257144,2050.394567081472,X,l,go,None,0,,,,,,,,,,,,,,,,77,001,22,w,Psychologie MSc,2023-01-26_12h07.25.472,00_bat_bachelor,2022.2.4,59.985894240986354,
,,,,,,,,,,,,1,0,1,0,128,0,128,0,,,,,,,128,,,0.2,2050.594621287426,,Y,d,go,d,1,0.1417767204111442,,,,,,,,,,,,,,,77,001,22,w,Psychologie MSc,2023-01-26_12h07.25.472,00_bat_bachelor,2022.2.4,59.985894240986354,
,,,,,,,,,,,,1,0,1,0,129,0,129,0,,,,,,,129,,,0.2,2051.0446986450115,,X,l,go,l,1,0.39558459748513997,,,,,,,,,,,,,,,77,001,22,w,Psychologie MSc,2023-01-26_12h07.25.472,00_bat_bachelor,2022.2.4,59.985894240986354,
,,,,,,,,,,,,1,0,1,0,130,0,130,0,,,,,,,130,,,0.2,2051.744619275327,2052.54462131171,Y,d,go,None,0,,,,,,,,,,,,,,,,77,001,22,w,Psychologie MSc,2023-01-26_12h07.25.472,00_bat_bachelor,2022.2.4,59.985894240986354,
,,,,,,,,,,,,1,0,1,0,131,0,131,0,,,,,,,131,,,0.2,2052.7442769724876,,Y,None,nogo,d,0,0.08721189852803946,,,,,,,,,,,,,,,77,001,22,w,Psychologie MSc,2023-01-26_12h07.25.472,00_bat_bachelor,2022.2.4,59.985894240986354,
,,,,,,,,,,,,1,0,1,0,132,0,132,0,,,,,,,132,,,0.2,2053.144255930092,2053.9444989360636,X,l,go,None,0,,,,,,,,,,,,,,,,77,001,22,w,Psychologie MSc,2023-01-26_12h07.25.472,00_bat_bachelor,2022.2.4,59.985894240986354,
,,,,,,,,,,,,1,0,1,0,133,0,133,0,,,,,,,133,,,0.2,2054.1442869603634,2054.9446303298464,Y,d,go,None,0,,,,,,,,,,,,,,,,77,001,22,w,Psychologie MSc,2023-01-26_12h07.25.472,00_bat_bachelor,2022.2.4,59.985894240986354,
,,,,,,,,,,,,1,0,1,0,134,0,134,0,,,,,,,134,,,0.2,2055.1445914451033,,Y,None,nogo,l,0,0.07134281529579312,,,,,,,,,,,,,,,77,001,22,w,Psychologie MSc,2023-01-26_12h07.25.472,00_bat_bachelor,2022.2.4,59.985894240986354,
,,,,,,,,,,,,1,0,1,0,135,0,135,0,,,,,,,135,,,0.2,2055.5279430167284,2056.327690507751,X,l,go,None,0,,,,,,,,,,,,,,,,77,001,22,w,Psychologie MSc,2023-01-26_12h07.25.472,00_bat_bachelor,2022.2.4,59.985894240986354,
,,,,,,,,,,,,1,0,1,0,136,0,136,0,,,,,,,136,,,0.2,2056.527927501593,,Y,d,go,d,1,0.40003647410776466,,,,,,,,,,,,,,,77,001,22,w,Psychologie MSc,2023-01-26_12h07.25.472,00_bat_bachelor,2022.2.4,59.985894240986354,
,,,,,,,,,,,,1,0,1,0,137,0,137,0,,,,,,,137,,,0.2,2057.227834071382,,Y,None,nogo,l,0,0.32418826839420944,,,,,,,,,,,,,,,77,001,22,w,Psychologie MSc,2023-01-26_12h07.25.472,00_bat_bachelor,2022.2.4,59.985894240986354,
,,,,,,,,,,,,1,0,1,0,138,0,138,0,,,,,,,138,,,0.2,2057.8612616430037,,X,l,go,l,1,0.6666118599241599,,,,,,,,,,,,,,,77,001,22,w,Psychologie MSc,2023-01-26_12h07.25.472,00_bat_bachelor,2022.2.4,59.985894240986354,
,,,,,,,,,,,,1,0,1,0,139,0,139,0,,,,,,,139,,,0.2,2058.8278090532403,,Y,d,go,d,1,0.48393025156110525,,,,,,,,,,,,,,,77,001,22,w,Psychologie MSc,2023-01-26_12h07.25.472,00_bat_bachelor,2022.2.4,59.985894240986354,
,,,,,,,,,,,,1,0,1,0,140,0,140,0,,,,,,,140,,,0.2,2059.6276292714756,,X,l,go,l,1,0.4193208283977583,,,,,,,,,,,,,,,77,001,22,w,Psychologie MSc,2023-01-26_12h07.25.472,00_bat_bachelor,2022.2.4,59.985894240986354,
,,,,,,,,,,,,1,0,1,0,141,0,141,0,,,,,,,141,,,0.2,2060.361071824911,,X,None,nogo,l,0,0.6458700518123806,,,,,,,,,,,,,,,77,001,22,w,Psychologie MSc,2023-01-26_12h07.25.472,00_bat_bachelor,2022.2.4,59.985894240986354,
,,,,,,,,,,,,1,0,1,0,142,0,142,0,,,,,,,142,,,0.2,2061.311264818767,,Y,d,go,l,0,0.6075500703882426,,,,,,,,,,,,,,,77,001,22,w,Psychologie MSc,2023-01-26_12h07.25.472,00_bat_bachelor,2022.2.4,59.985894240986354,
,,,,,,,,,,,,1,0,1,0,143,0,143,0,,,,,,,143,,,0.2,2062.227976616705,2063.0276329562766,X,l,go,None,0,,,,,,,,,,,,,,,,77,001,22,w,Psychologie MSc,2023-01-26_12h07.25.472,00_bat_bachelor,2022.2.4,59.985894240986354,
,,,,,,,,,,,,1,0,1,0,144,0,144,0,,,,,,,144,,,0.2,2063.227948980406,,Y,d,go,d,1,0.5161760541377589,,,,,,,,,,,,,,,77,001,22,w,Psychologie MSc,2023-01-26_12h07.25.472,00_bat_bachelor,2022.2.4,59.985894240986354,
,,,,,,,,,,,,1,0,1,0,145,0,145,0,,,,,,,145,,,0.2,2064.0442739179125,2064.8445077117067,Y,None,nogo,None,1,,,,,,,,,,,,,,,,77,001,22,w,Psychologie MSc,2023-01-26_12h07.25.472,00_bat_bachelor,2022.2.4,59.985894240986354,
,,,,,,,,,,,,1,0,1,0,146,0,146,0,,,,,,,146,,,0.2,2065.0443485846044,,X,l,go,l,1,0.36251406802330166,,,,,,,,,,,,,,,77,001,22,w,Psychologie MSc,2023-01-26_12h07.25.472,00_bat_bachelor,2022.2.4,59.985894240986354,
,,,,,,,,,,,,1,0,1,0,147,0,147,0,,,,,,,147,,,0.2,2065.711345109623,,Y,d,go,d,1,0.4166250721318647,,,,,,,,,,,,,,,77,001,22,w,Psychologie MSc,2023-01-26_12h07.25.472,00_bat_bachelor,2022.2.4,59.985894240986354,
,,,,,,,,,,,,1,0,1,0,148,0,148,0,,,,,,,148,,,0.2,2066.42772148957,2067.2278878894867,Y,None,nogo,None,1,,,,,,,,,,,,,,,,77,001,22,w,Psychologie MSc,2023-01-26_12h07.25.472,00_bat_bachelor,2022.2.4,59.985894240986354,
,,,,,,,,,,,,1,0,1,0,149,0,149,0,,,,,,,149,,,0.2,2067.4276245199144,,X,l,go,l,1,0.3159211209276691,,,,,,,,,,,,,,,77,001,22,w,Psychologie MSc,2023-01-26_12h07.25.472,00_bat_bachelor,2022.2.4,59.985894240986354,
,,,,,,,,,,,,1,0,1,0,150,0,150,0,,,,,,,150,,,0.2,2068.0445468875114,,Y,d,go,d,1,0.4993750925641507,,,,,,,,,,,,,,,77,001,22,w,Psychologie MSc,2023-01-26_12h07.25.472,00_bat_bachelor,2022.2.4,59.985894240986354,
,,,,,,,,,,,,1,0,1,0,151,0,151,0,,,,,,,151,,,0.2,2068.8445974086644,2069.644577142084,Y,None,nogo,None,1,,,,,,,,,,,,,,,,77,001,22,w,Psychologie MSc,2023-01-26_12h07.25.472,00_bat_bachelor,2022.2.4,59.985894240986354,
,,,,,,,,,,,,1,0,1,0,152,0,152,0,,,,,,,152,,,0.2,2069.844448075397,,X,l,go,l,1,0.39459308271761984,,,,,,,,,,,,,,,77,001,22,w,Psychologie MSc,2023-01-26_12h07.25.472,00_bat_bachelor,2022.2.4,59.985894240986354,
,,,,,,,,,,,,1,0,1,0,153,0,153,0,,,,,,,153,,,0.2,2070.544390039053,,Y,d,go,d,1,0.5589653667993844,,,,,,,,,,,,,,,77,001,22,w,Psychologie MSc,2023-01-26_12h07.25.472,00_bat_bachelor,2022.2.4,59.985894240986354,
,,,,,,,,,,,,1,0,1,0,154,0,154,0,,,,,,,154,,,0.2,2071.411323436885,2072.211260018754,Y,None,nogo,None,1,,,,,,,,,,,,,,,,77,001,22,w,Psychologie MSc,2023-01-26_12h07.25.472,00_bat_bachelor,2022.2.4,59.985894240986354,
,,,,,,,,,,,,1,0,1,0,155,0,155,0,,,,,,,155,,,0.2,2072.4113583459985,,X,l,go,l,1,0.16382567957043648,,,,,,,,,,,,,,,77,001,22,w,Psychologie MSc,2023-01-26_12h07.25.472,00_bat_bachelor,2022.2.4,59.985894240986354,
,,,,,,,,,,,,1,0,1,0,156,0,156,0,,,,,,,156,,,0.2,2072.8776378774783,,Y,d,go,d,1,0.48152491939254105,,,,,,,,,,,,,,,77,001,22,w,Psychologie MSc,2023-01-26_12h07.25.472,00_bat_bachelor,2022.2.4,59.985894240986354,
,,,,,,,,,,,,1,0,1,0,157,0,157,0,,,,,,,157,,,0.2,2073.6612743460573,,X,l,go,l,1,0.5468814937630668,,,,,,,,,,,,,,,77,001,22,w,Psychologie MSc,2023-01-26_12h07.25.472,00_bat_bachelor,2022.2.4,59.985894240986354,
,,,,,,,,,,,,1,0,1,0,158,0,158,0,,,,,,,158,,,0.2,2074.5112501763506,,Y,d,go,d,1,0.3841479968978092,,,,,,,,,,,,,,,77,001,22,w,Psychologie MSc,2023-01-26_12h07.25.472,00_bat_bachelor,2022.2.4,59.985894240986354,
,,,,,,,,,,,,1,0,1,0,159,0,159,0,,,,,,,159,,,0.2,2075.2109531098977,,X,l,go,l,1,0.4366027594078332,,,,,,,,,,,,,,,77,001,22,w,Psychologie MSc,2023-01-26_12h07.25.472,00_bat_bachelor,2022.2.4,59.985894240986354,
,,,,,,,,,,,,1,0,1,0,160,0,160,0,,,,,,,160,,,0.2,2075.9612863218645,2076.7611472673016,X,None,nogo,None,1,,,,,,,,,,,,,,,,77,001,22,w,Psychologie MSc,2023-01-26_12h07.25.472,00_bat_bachelor,2022.2.4,59.985894240986354,
,,,,,,,,,,,,1,0,1,0,161,0,161,0,,,,,,,161,,,0.2,2076.9613023217535,,Y,d,go,d,1,0.3975118692032993,,,,,,,,,,,,,,,77,001,22,w,Psychologie MSc,2023-01-26_12h07.25.472,00_bat_bachelor,2022.2.4,59.985894240986354,
,,,,,,,,,,,,1,0,1,0,162,0,162,0,,,,,,,162,,,0.2,2077.6612593157915,,X,l,go,l,1,0.4020946549717337,,,,,,,,,,,,,,,77,001,22,w,Psychologie MSc,2023-01-26_12h07.25.472,00_bat_bachelor,2022.2.4,59.985894240986354,
,,,,,,,,,,,,1,0,1,0,163,0,163,0,,,,,,,163,,,0.2,2078.3775726654567,,Y,d,go,d,1,0.4536175390239805,,,,,,,,,,,,,,,77,001,22,w,Psychologie MSc,2023-01-26_12h07.25.472,00_bat_bachelor,2022.2.4,59.985894240986354,
,,,,,,,,,,,,1,0,1,0,164,0,164,0,,,,,,,164,,,0.2,2079.1443882936146,2079.9446288753534,Y,None,nogo,None,1,,,,,,,,,,,,,,,,77,001,22,w,Psychologie MSc,2023-01-26_12h07.25.472,00_bat_bachelor,2022.2.4,59.985894240986354,
,,,,,,,,,,,,1,0,1,0,165,0,165,0,,,,,,,165,,,0.2,2080.1446535056457,,X,l,go,l,1,0.4465038455091417,,,,,,,,,,,,,,,77,001,22,w,Psychologie MSc,2023-01-26_12h07.25.472,00_bat_bachelor,2022.2.4,59.985894240986354,
,,,,,,,,,,,,1,0,1,0,166,0,166,0,,,,,,,166,,,0.2,2080.8943316875957,,Y,d,go,d,1,0.5929701987188309,,,,,,,,,,,,,,,77,001,22,w,Psychologie MSc,2023-01-26_12h07.25.472,00_bat_bachelor,2022.2.4,59.985894240986354,
,,,,,,,,,,,,1,0,1,0,167,0,167,0,,,,,,,167,,,0.2,2081.7946173116798,,X,l,go,l,1,0.5256664737826213,,,,,,,,,,,,,,,77,001,22,w,Psychologie MSc,2023-01-26_12h07.25.472,00_bat_bachelor,2022.2.4,59.985894240986354,
,,,,,,,,,,,,1,0,1,0,168,0,168,0,,,,,,,168,,,0.2,2082.6279371500714,2083.4279580955626,X,None,nogo,None,1,,,,,,,,,,,,,,,,77,001,22,w,Psychologie MSc,2023-01-26_12h07.25.472,00_bat_bachelor,2022.2.4,59.985894240986354,
,,,,,,,,,,,,1,0,1,0,169,0,169,0,,,,,,,169,,,0.2,2083.6278072107816,2084.4278955501504,Y,d,go,None,0,,,,,,,,,,,,,,,,77,001,22,w,Psychologie MSc,2023-01-26_12h07.25.472,00_bat_bachelor,2022.2.4,59.985894240986354,
,,,,,,,,,,,,1,0,1,0,170,0,170,0,,,,,,,170,,,0.2,2084.62781351374,,X,l,go,l,1,0.3314837800571695,,,,,,,,,,,,,,,77,001,22,w,Psychologie MSc,2023-01-26_12h07.25.472,00_bat_bachelor,2022.2.4,59.985894240986354,
,,,,,,,,,,,,1,0,1,0,171,0,171,0,,,,,,,171,,,0.2,2085.2614975702018,,Y,d,go,d,1,0.5308373803272843,,,,,,,,,,,,,,,77,001,22,w,Psychologie MSc,2023-01-26_12h07.25.472,00_bat_bachelor,2022.2.4,59.985894240986354,
,,,,,,,,,,,,1,0,1,0,172,0,172,0,,,,,,,172,,,0.2,2086.0944978935877,2086.8945552026853,Y,None,nogo,None,1,,,,,,,,,,,,,,,,77,001,22,w,Psychologie MSc,2023-01-26_12h07.25.472,00_bat_bachelor,2022.2.4,59.985894240986354,
,,,,,,,,,,,,1,0,1,0,173,0,173,0,,,,,,,173,,,0.2,2087.094235590659,,X,l,go,l,1,0.4251220376463607,,,,,,,,,,,,,,,77,001,22,w,Psychologie MSc,2023-01-26_12h07.25.472,00_bat_bachelor,2022.2.4,59.985894240986354,
,,,,,,,,,,,,1,0,1,0,174,0,174,0,,,,,,,174,,,0.2,2087.8279472349677,,Y,d,go,d,1,0.3797412111889571,,,,,,,,,,,,,,,77,001,22,w,Psychologie MSc,2023-01-26_12h07.25.472,00_bat_bachelor,2022.2.4,59.985894240986354,
,,,,,,,,,,,,1,0,1,0,175,0,175,0,,,,,,,175,,,0.2,2088.5108942977386,2089.311335606617,Y,None,nogo,None,1,,,,,,,,,,,,,,,,77,001,22,w,Psychologie MSc,2023-01-26_12h07.25.472,00_bat_bachelor,2022.2.4,59.985894240986354,
,,,,,,,,,,,,1,0,1,0,176,0,176,0,,,,,,,176,,,0.2,2089.511080479482,,X,l,go,l,1,0.36065564467571676,,,,,,,,,,,,,,,77,001,22,w,Psychologie MSc,2023-01-26_12h07.25.472,00_bat_bachelor,2022.2.4,59.985894240986354,
,,,,,,,,,,,,1,0,1,0,177,0,177,0,,,,,,,177,,,0.2,2090.1778054895112,,Y,d,go,d,1,0.4452951188432053,,,,,,,,,,,,,,,77,001,22,w,Psychologie MSc,2023-01-26_12h07.25.472,00_bat_bachelor,2022.2.4,59.985894240986354,
,,,,,,,,,,,,1,0,1,0,178,0,178,0,,,,,,,178,,,0.2,2090.9279937319225,2091.727791647194,Y,None,nogo,None,1,,,,,,,,,,,,,,,,77,001,22,w,Psychologie MSc,2023-01-26_12h07.25.472,00_bat_bachelor,2022.2.4,59.985894240986354,
,,,,,,,,,,,,1,0,1,0,179,0,179,0,,,,,,,179,,,0.2,2091.927806580439,,X,l,go,l,1,0.2638702370459214,,,,,,,,,,,,,,,77,001,22,w,Psychologie MSc,2023-01-26_12h07.25.472,00_bat_bachelor,2022.2.4,59.985894240986354,
,,,,,,,,,,,,1,0,1,0,180,0,180,0,,,,,,,180,,,0.2,2092.4945398814743,,Y,d,go,d,1,0.33663771697320044,,,,,,,,,,,,,,,77,001,22,w,Psychologie MSc,2023-01-26_12h07.25.472,00_bat_bachelor,2022.2.4,59.985894240986354,
,,,,,,,,,,,,1,0,1,0,181,0,181,0,,,,,,,181,,,0.2,2093.1446093844716,,X,l,go,l,1,0.45470020512584597,,,,,,,,,,,,,,,77,001,22,w,Psychologie MSc,2023-01-26_12h07.25.472,00_bat_bachelor,2022.2.4,59.985894240986354,
,,,,,,,,,,,,1,0,1,0,182,0,182,0,,,,,,,182,,,0.2,2093.9112305884482,,Y,d,go,d,1,0.1841670029098168,,,,,,,,,,,,,,,77,001,22,w,Psychologie MSc,2023-01-26_12h07.25.472,00_bat_bachelor,2022.2.4,59.985894240986354,
,,,,,,,,,,,,1,0,1,0,183,0,183,0,,,,,,,183,,,0.2,2094.411092649214,,X,l,go,l,1,0.6286676359595731,,,,,,,,,,,,,,,77,001,22,w,Psychologie MSc,2023-01-26_12h07.25.472,00_bat_bachelor,2022.2.4,59.985894240986354,
,,,,,,,,,,,,1,0,1,0,184,0,184,0,,,,,,,184,,,0.2,2095.3444449239178,,X,None,nogo,d,0,0.4319302767980844,,,,,,,,,,,,,,,77,001,22,w,Psychologie MSc,2023-01-26_12h07.25.472,00_bat_bachelor,2022.2.4,59.985894240986354,
,,,,,,,,,,,,1,0,1,0,185,0,185,0,,,,,,,185,,,0.2,2096.0779146288987,2096.87791230157,Y,d,go,None,0,,,,,,,,,,,,,,,,77,001,22,w,Psychologie MSc,2023-01-26_12h07.25.472,00_bat_bachelor,2022.2.4,59.985894240986354,
,,,,,,,,,,,,1,0,1,0,186,0,186,0,,,,,,,186,,,0.2,2097.0777934168,,X,l,go,l,1,0.5697488767327741,,,,,,,,,,,,,,,77,001,22,w,Psychologie MSc,2023-01-26_12h07.25.472,00_bat_bachelor,2022.2.4,59.985894240986354,
,,,,,,,,,,,,1,0,1,0,187,0,187,0,,,,,,,187,,,0.2,2097.9609391704435,,Y,d,go,d,1,0.40652568312361836,,,,,,,,,,,,,,,77,001,22,w,Psychologie MSc,2023-01-26_12h07.25.472,00_bat_bachelor,2022.2.4,59.985894240986354,
