loop_instruction.thisRepN,loop_instruction.thisTrialN,loop_instruction.thisN,loop_instruction.thisIndex,loop_rsi_practice.thisRepN,loop_rsi_practice.thisTrialN,loop_rsi_practice.thisN,loop_rsi_practice.thisIndex,loop_practice.thisRepN,loop_practice.thisTrialN,loop_practice.thisN,loop_practice.thisIndex,loop_exp.thisRepN,loop_exp.thisTrialN,loop_exp.thisN,loop_exp.thisIndex,loop_trials.thisRepN,loop_trials.thisTrialN,loop_trials.thisN,loop_trials.thisIndex,map_condition,map_x_key,map_y_key,key_resp_welcome.started,key_resp_welcome.keys,key_resp_welcome.rt,index,text_empty_rsi_practice.started,text_empty_rsi_practice.stopped,rsi,stimulus.started,stimulus,correct,trial_type,key_resp_trial.keys,key_resp_trial.corr,key_resp_trial.rt,stimulus.stopped,key_resp_instruction_rsi.started,key_resp_instruction_rsi.keys,key_resp_instruction_rsi.rt,key_resp_instruction_rsi.stopped,key_resp_instruction_final.started,key_resp_instruction_final.keys,key_resp_instruction_final.rt,key_resp_break.started,key_resp_break.keys,key_resp_break.rt,key_resp_break.stopped,key_resp_end_screen.started,image_end_screen.started,key_resp_end_screen.stopped,image_end_screen.stopped,key_resp_end_screen.keys,participant,session,Alter,Geschlecht (w/m/d/andere),Studiengang,date,expName,psychopyVersion,frameRate,
,,,,0,0,0,0,0,0,0,0,,,,,,,,,1,l,d,18311.38730744878,j,27.710211277008057,0,18339.12566442392,18340.14373083948,1,18340.14373083948,X,l,go,None,0,,,,,,,,,,,,,,,,,,,79,001,23,Weiblich ,Bildungswissenschaften ,2023-01-30_13h52.43.173,00_bat_bachelor,2022.2.4,59.912187008330974,
,,,,0,0,0,0,1,0,1,0,,,,,,,,,,,,,,,1,18341.537486769725,18342.553669065004,1,18342.553669065004,Y,d,go,None,0,,,,,,,,,,,,,,,,,,,79,001,23,Weiblich ,Bildungswissenschaften ,2023-01-30_13h52.43.173,00_bat_bachelor,2022.2.4,59.912187008330974,
,,,,0,0,0,0,2,0,2,0,,,,,,,,,,,,,,,2,18343.95600147592,18344.956748627126,1,18344.956748627126,X,l,go,l,1,0.6314869516063482,,,,,,,,,,,,,,,,,,79,001,23,Weiblich ,Bildungswissenschaften ,2023-01-30_13h52.43.173,00_bat_bachelor,2022.2.4,59.912187008330974,
,,,,0,0,0,0,3,0,3,0,,,,,,,,,,,,,,,3,18346.307597426698,18347.30864421418,1,18347.30864421418,Y,d,go,None,0,,18348.10951073491,,,,,,,,,,,,,,,,,79,001,23,Weiblich ,Bildungswissenschaften ,2023-01-30_13h52.43.173,00_bat_bachelor,2022.2.4,59.912187008330974,
,,,,0,0,0,0,4,0,4,0,,,,,,,,,,,,,,,4,18348.70960498927,18349.710216382984,1,18349.710216382984,Y,None,nogo,d,0,0.34249509195797145,,,,,,,,,,,,,,,,,,79,001,23,Weiblich ,Bildungswissenschaften ,2023-01-30_13h52.43.173,00_bat_bachelor,2022.2.4,59.912187008330974,
,,,,0,0,0,0,5,0,5,0,,,,,,,,,,,,,,,5,18351.21110680676,18352.211912139785,1,18352.211912139785,X,l,go,l,1,0.4168228132184595,,,,,,,,,,,,,,,,,,79,001,23,Weiblich ,Bildungswissenschaften ,2023-01-30_13h52.43.173,00_bat_bachelor,2022.2.4,59.912187008330974,
,,,,0,0,0,0,6,0,6,0,,,,,,,,,,,,,,,6,18353.329343355494,18354.3301108703,1,18354.3301108703,Y,d,go,None,0,,18355.13072672463,,,,,,,,,,,,,,,,,79,001,23,Weiblich ,Bildungswissenschaften ,2023-01-30_13h52.43.173,00_bat_bachelor,2022.2.4,59.912187008330974,
,,,,0,0,0,0,7,0,7,0,,,,,,,,,,,,,,,7,18355.731000857893,18356.732063645264,1,18356.732063645264,Y,None,nogo,l,0,0.4263277784921229,,,,,,,,,,,,,,,,,,79,001,23,Weiblich ,Bildungswissenschaften ,2023-01-30_13h52.43.173,00_bat_bachelor,2022.2.4,59.912187008330974,
,,,,0,0,0,0,8,0,8,0,,,,,,,,,,,,,,,8,18358.28298265068,18359.283923741197,1,18359.283923741197,X,l,go,None,0,,18360.084634140832,,,,,,,,,,,,,,,,,79,001,23,Weiblich ,Bildungswissenschaften ,2023-01-30_13h52.43.173,00_bat_bachelor,2022.2.4,59.912187008330974,
,,,,0,0,0,0,9,0,9,0,,,,,,,,,,,,,,,9,18360.68491215282,18361.685704394942,1,18361.685704394942,Y,d,go,d,1,0.33571642846800387,,,,,,,,,,,,,,,,,,79,001,23,Weiblich ,Bildungswissenschaften ,2023-01-30_13h52.43.173,00_bat_bachelor,2022.2.4,59.912187008330974,
,,,,0,0,0,0,10,0,10,0,,,,,,,,,,,,,,,10,18362.73651358229,18363.737256854773,1,18363.737256854773,Y,None,nogo,None,1,,18364.538030769443,,,,,,,,,,,,,,,,,79,001,23,Weiblich ,Bildungswissenschaften ,2023-01-30_13h52.43.173,00_bat_bachelor,2022.2.4,59.912187008330974,
,,,,0,0,0,0,11,0,11,0,,,,,,,,,,,,,,,11,18365.138167205732,18366.13907193276,1,18366.13907193276,X,l,go,l,1,0.31370480288751423,,,,,,,,,,,,,,,,,,79,001,23,Weiblich ,Bildungswissenschaften ,2023-01-30_13h52.43.173,00_bat_bachelor,2022.2.4,59.912187008330974,
,,,,0,0,0,0,12,0,12,0,,,,,,,,,,,,,,,12,18367.156555075664,18368.157285257243,1,18368.157285257243,Y,d,go,d,1,0.3601018711924553,,,,,,,,,,,,,,,,,,79,001,23,Weiblich ,Bildungswissenschaften ,2023-01-30_13h52.43.173,00_bat_bachelor,2022.2.4,59.912187008330974,
,,,,0,0,0,0,13,0,13,0,,,,,,,,,,,,,,,13,18369.22461855784,18370.225543648237,1,18370.225543648237,Y,None,nogo,None,1,,18371.026179866167,,,,,,,,,,,,,,,,,79,001,23,Weiblich ,Bildungswissenschaften ,2023-01-30_13h52.43.173,00_bat_bachelor,2022.2.4,59.912187008330974,
,,,,0,0,0,0,14,0,14,0,,,,,,,,,,,,,,,14,18371.626452544937,18372.62752502924,1,18372.62752502924,X,l,go,l,1,0.2578973148483783,,,,,,,,,,,,,,,,,,79,001,23,Weiblich ,Bildungswissenschaften ,2023-01-30_13h52.43.173,00_bat_bachelor,2022.2.4,59.912187008330974,
,,,,1,0,1,0,0,0,0,0,,,,,,,,,,,,,,,0,18404.901803683955,18405.102086253697,0.2,18405.102086253697,X,l,go,l,1,0.5830666115507483,,18373.632951450767,j,31.239738777978346,,,,,,,,,,,,,,79,001,23,Weiblich ,Bildungswissenschaften ,2023-01-30_13h52.43.173,00_bat_bachelor,2022.2.4,59.912187008330974,
,,,,1,0,1,0,1,0,1,0,,,,,,,,,,,,,,,1,18406.38616950973,18406.58652238245,0.2,18406.58652238245,Y,d,go,d,1,0.3960068232845515,,,,,,,,,,,,,,,,,,79,001,23,Weiblich ,Bildungswissenschaften ,2023-01-30_13h52.43.173,00_bat_bachelor,2022.2.4,59.912187008330974,
,,,,1,0,1,0,2,0,2,0,,,,,,,,,,,,,,,2,18407.68733687885,18407.887478357647,0.2,18407.887478357647,X,l,go,l,1,0.4698424239177257,,,,,,,,,,,,,,,,,,79,001,23,Weiblich ,Bildungswissenschaften ,2023-01-30_13h52.43.173,00_bat_bachelor,2022.2.4,59.912187008330974,
,,,,1,0,1,0,3,0,3,0,,,,,,,,,,,,,,,3,18409.07171099563,18409.27165368665,0.2,18409.27165368665,Y,d,go,d,1,0.461689215619117,,,,,,,,,,,,,,,,,,79,001,23,Weiblich ,Bildungswissenschaften ,2023-01-30_13h52.43.173,00_bat_bachelor,2022.2.4,59.912187008330974,
,,,,1,0,1,0,4,0,4,0,,,,,,,,,,,,,,,4,18410.43927639327,18410.639537144452,0.2,18410.639537144452,Y,None,nogo,None,1,,18411.440189362504,,,,,,,,,,,,,,,,,79,001,23,Weiblich ,Bildungswissenschaften ,2023-01-30_13h52.43.173,00_bat_bachelor,2022.2.4,59.912187008330974,
,,,,1,0,1,0,5,0,5,0,,,,,,,,,,,,,,,5,18412.040607495466,18412.240787762217,0.2,18412.240787762217,X,l,go,l,1,0.3730958041269332,,,,,,,,,,,,,,,,,,79,001,23,Weiblich ,Bildungswissenschaften ,2023-01-30_13h52.43.173,00_bat_bachelor,2022.2.4,59.912187008330974,
,,,,1,0,1,0,6,0,6,0,,,,,,,,,,,,,,,6,18413.324923479,18413.524883139646,0.2,18413.524883139646,Y,d,go,d,1,0.39963979134336114,,,,,,,,,,,,,,,,,,79,001,23,Weiblich ,Bildungswissenschaften ,2023-01-30_13h52.43.173,00_bat_bachelor,2022.2.4,59.912187008330974,
,,,,1,0,1,0,7,0,7,0,,,,,,,,,,,,,,,7,18414.62597787846,18414.825870145112,0.2,18414.825870145112,Y,None,nogo,None,1,,18415.626695453888,,,,,,,,,,,,,,,,,79,001,23,Weiblich ,Bildungswissenschaften ,2023-01-30_13h52.43.173,00_bat_bachelor,2022.2.4,59.912187008330974,
,,,,1,0,1,0,8,0,8,0,,,,,,,,,,,,,,,8,18416.22714316263,18416.427274944494,0.2,18416.427274944494,X,l,go,l,1,0.29733341676183045,,,,,,,,,,,,,,,,,,79,001,23,Weiblich ,Bildungswissenschaften ,2023-01-30_13h52.43.173,00_bat_bachelor,2022.2.4,59.912187008330974,
,,,,1,0,1,0,9,0,9,0,,,,,,,,,,,,,,,9,18417.4445816027,18417.644895687466,0.2,18417.644895687466,Y,d,go,d,1,0.5204203389585018,,,,,,,,,,,,,,,,,,79,001,23,Weiblich ,Bildungswissenschaften ,2023-01-30_13h52.43.173,00_bat_bachelor,2022.2.4,59.912187008330974,
,,,,1,0,1,0,10,0,10,0,,,,,,,,,,,,,,,10,18418.87918793736,18419.079338143347,0.2,18419.079338143347,X,l,go,l,1,0.5262283361516893,,,,,,,,,,,,,,,,,,79,001,23,Weiblich ,Bildungswissenschaften ,2023-01-30_13h52.43.173,00_bat_bachelor,2022.2.4,59.912187008330974,
,,,,1,0,1,0,11,0,11,0,,,,,,,,,,,,,,,11,18420.31364590861,18420.513712720713,0.2,18420.513712720713,X,None,nogo,None,1,,18421.314364453778,,,,,,,,,,,,,,,,,79,001,23,Weiblich ,Bildungswissenschaften ,2023-01-30_13h52.43.173,00_bat_bachelor,2022.2.4,59.912187008330974,
,,,,1,0,1,0,12,0,12,0,,,,,,,,,,,,,,,12,18421.91462064744,18422.11494055041,0.2,18422.11494055041,Y,d,go,d,1,0.2905387533828616,,,,,,,,,,,,,,,,,,79,001,23,Weiblich ,Bildungswissenschaften ,2023-01-30_13h52.43.173,00_bat_bachelor,2022.2.4,59.912187008330974,
,,,,1,0,1,0,13,0,13,0,,,,,,,,,,,,,,,13,18423.11573473178,18423.315688089468,0.2,18423.315688089468,X,l,go,d,0,0.35375763196498156,,,,,,,,,,,,,,,,,,79,001,23,Weiblich ,Bildungswissenschaften ,2023-01-30_13h52.43.173,00_bat_bachelor,2022.2.4,59.912187008330974,
,,,,1,0,1,0,14,0,14,0,,,,,,,,,,,,,,,14,18424.383343814174,18424.58347559604,0.2,18424.58347559604,Y,d,go,d,1,0.5104935558047146,,,,,,,,,,,,,,,,,,79,001,23,Weiblich ,Bildungswissenschaften ,2023-01-30_13h52.43.173,00_bat_bachelor,2022.2.4,59.912187008330974,
,,,,,,,,,,,,,,,,,,,,,,,,,,,,,,,,,,,,,,18425.846335589653,None,,18425.846335589653,18425.846335589653,space,13.23391914460808,,,,,,,,,,79,001,23,Weiblich ,Bildungswissenschaften ,2023-01-30_13h52.43.173,00_bat_bachelor,2022.2.4,59.912187008330974,
,,,,,,,,,,,,0,0,0,0,0,0,0,0,,,,,,,0,,,1,18440.112023218535,X,l,go,l,1,0.3246003126259893,,,,,,,,,,,,,,,,,,79,001,23,Weiblich ,Bildungswissenschaften ,2023-01-30_13h52.43.173,00_bat_bachelor,2022.2.4,59.912187008330974,
,,,,,,,,,,,,0,0,0,0,1,0,1,0,,,,,,,1,,,1,18441.54596870509,Y,d,go,d,1,0.2992315976880491,,,,,,,,,,,,,,,,,,79,001,23,Weiblich ,Bildungswissenschaften ,2023-01-30_13h52.43.173,00_bat_bachelor,2022.2.4,59.912187008330974,
,,,,,,,,,,,,0,0,0,0,2,0,2,0,,,,,,,2,,,1,18442.94730281341,X,l,go,l,1,0.3383026090450585,,,,,,,,,,,,,,,,,,79,001,23,Weiblich ,Bildungswissenschaften ,2023-01-30_13h52.43.173,00_bat_bachelor,2022.2.4,59.912187008330974,
,,,,,,,,,,,,0,0,0,0,3,0,3,0,,,,,,,3,,,1,18444.398355200887,Y,d,go,d,1,0.4229963861871511,,,,,,,,,,,,,,,,,,79,001,23,Weiblich ,Bildungswissenschaften ,2023-01-30_13h52.43.173,00_bat_bachelor,2022.2.4,59.912187008330974,
,,,,,,,,,,,,0,0,0,0,4,0,4,0,,,,,,,4,,,1,18445.93285724474,Y,None,nogo,None,1,,,,,,,,,,,,,,,,,,,79,001,23,Weiblich ,Bildungswissenschaften ,2023-01-30_13h52.43.173,00_bat_bachelor,2022.2.4,59.912187008330974,
,,,,,,,,,,,,0,0,0,0,5,0,5,0,,,,,,,5,,,1,18447.73434970458,X,l,go,l,1,0.2870939066633582,,,,,,,,,,,,,,,,,,79,001,23,Weiblich ,Bildungswissenschaften ,2023-01-30_13h52.43.173,00_bat_bachelor,2022.2.4,59.912187008330974,
,,,,,,,,,,,,0,0,0,0,6,0,6,0,,,,,,,6,,,1,18449.135286722332,Y,d,go,d,1,0.4220761440228671,,,,,,,,,,,,,,,,,,79,001,23,Weiblich ,Bildungswissenschaften ,2023-01-30_13h52.43.173,00_bat_bachelor,2022.2.4,59.912187008330974,
,,,,,,,,,,,,0,0,0,0,7,0,7,0,,,,,,,7,,,1,18450.66983288736,Y,None,nogo,d,0,0.36027932562865317,,,,,,,,,,,,,,,,,,79,001,23,Weiblich ,Bildungswissenschaften ,2023-01-30_13h52.43.173,00_bat_bachelor,2022.2.4,59.912187008330974,
,,,,,,,,,,,,0,0,0,0,8,0,8,0,,,,,,,8,,,1,18452.13737253961,X,l,go,l,1,0.3480490285437554,,,,,,,,,,,,,,,,,,79,001,23,Weiblich ,Bildungswissenschaften ,2023-01-30_13h52.43.173,00_bat_bachelor,2022.2.4,59.912187008330974,
,,,,,,,,,,,,0,0,0,0,9,0,9,0,,,,,,,9,,,1,18453.588716805447,Y,d,go,d,1,0.4654395170509815,,,,,,,,,,,,,,,,,,79,001,23,Weiblich ,Bildungswissenschaften ,2023-01-30_13h52.43.173,00_bat_bachelor,2022.2.4,59.912187008330974,
,,,,,,,,,,,,0,0,0,0,10,0,10,0,,,,,,,10,,,1,18455.15651289397,Y,None,nogo,None,1,,,,,,,,,,,,,,,,,,,79,001,23,Weiblich ,Bildungswissenschaften ,2023-01-30_13h52.43.173,00_bat_bachelor,2022.2.4,59.912187008330974,
,,,,,,,,,,,,0,0,0,0,11,0,11,0,,,,,,,11,,,1,18456.958840747364,Y,None,nogo,d,0,0.4854332043323666,,,,,,,,,,,,,,,,,,79,001,23,Weiblich ,Bildungswissenschaften ,2023-01-30_13h52.43.173,00_bat_bachelor,2022.2.4,59.912187008330974,
,,,,,,,,,,,,0,0,0,0,12,0,12,0,,,,,,,12,,,1,18458.59304553084,X,l,go,l,1,0.3069135332480073,,,,,,,,,,,,,,,,,,79,001,23,Weiblich ,Bildungswissenschaften ,2023-01-30_13h52.43.173,00_bat_bachelor,2022.2.4,59.912187008330974,
,,,,,,,,,,,,0,0,0,0,13,0,13,0,,,,,,,13,,,1,18460.027846289566,Y,d,go,d,1,0.3924650070257485,,,,,,,,,,,,,,,,,,79,001,23,Weiblich ,Bildungswissenschaften ,2023-01-30_13h52.43.173,00_bat_bachelor,2022.2.4,59.912187008330974,
,,,,,,,,,,,,0,0,0,0,14,0,14,0,,,,,,,14,,,1,18461.54540434177,Y,None,nogo,d,0,0.33152637002058327,,,,,,,,,,,,,,,,,,79,001,23,Weiblich ,Bildungswissenschaften ,2023-01-30_13h52.43.173,00_bat_bachelor,2022.2.4,59.912187008330974,
,,,,,,,,,,,,0,0,0,0,15,0,15,0,,,,,,,15,,,1,18462.99668800179,X,l,go,l,1,0.3835074354428798,,,,,,,,,,,,,,,,,,79,001,23,Weiblich ,Bildungswissenschaften ,2023-01-30_13h52.43.173,00_bat_bachelor,2022.2.4,59.912187008330974,
,,,,,,,,,,,,0,0,0,0,16,0,16,0,,,,,,,16,,,1,18464.49776121322,Y,d,go,d,1,0.3711113203316927,,,,,,,,,,,,,,,,,,79,001,23,Weiblich ,Bildungswissenschaften ,2023-01-30_13h52.43.173,00_bat_bachelor,2022.2.4,59.912187008330974,
,,,,,,,,,,,,0,0,0,0,17,0,17,0,,,,,,,17,,,1,18466.015765810618,Y,None,nogo,d,0,0.42196656856685877,,,,,,,,,,,,,,,,,,79,001,23,Weiblich ,Bildungswissenschaften ,2023-01-30_13h52.43.173,00_bat_bachelor,2022.2.4,59.912187008330974,
,,,,,,,,,,,,0,0,0,0,18,0,18,0,,,,,,,18,,,1,18467.56656942237,X,l,go,l,1,0.2950585086364299,,,,,,,,,,,,,,,,,,79,001,23,Weiblich ,Bildungswissenschaften ,2023-01-30_13h52.43.173,00_bat_bachelor,2022.2.4,59.912187008330974,
,,,,,,,,,,,,0,0,0,0,19,0,19,0,,,,,,,19,,,1,18469.017105931183,Y,d,go,d,1,0.4441731031984091,,,,,,,,,,,,,,,,,,79,001,23,Weiblich ,Bildungswissenschaften ,2023-01-30_13h52.43.173,00_bat_bachelor,2022.2.4,59.912187008330974,
,,,,,,,,,,,,0,0,0,0,20,0,20,0,,,,,,,20,,,1,18470.5683391185,Y,None,nogo,None,1,,18471.36892103334,,,,,,,,,,,,,,,,,79,001,23,Weiblich ,Bildungswissenschaften ,2023-01-30_13h52.43.173,00_bat_bachelor,2022.2.4,59.912187008330974,
,,,,,,,,,,,,0,0,0,0,21,0,21,0,,,,,,,21,,,1,18472.369445639197,X,l,go,l,1,0.32465170649811625,,,,,,,,,,,,,,,,,,79,001,23,Weiblich ,Bildungswissenschaften ,2023-01-30_13h52.43.173,00_bat_bachelor,2022.2.4,59.912187008330974,
,,,,,,,,,,,,0,0,0,0,22,0,22,0,,,,,,,22,,,1,18473.803892943542,Y,d,go,d,1,0.42527420329861343,,,,,,,,,,,,,,,,,,79,001,23,Weiblich ,Bildungswissenschaften ,2023-01-30_13h52.43.173,00_bat_bachelor,2022.2.4,59.912187008330974,
,,,,,,,,,,,,0,0,0,0,23,0,23,0,,,,,,,23,,,1,18475.3386155935,X,l,go,l,1,0.2990226282272488,,,,,,,,,,,,,,,,,,79,001,23,Weiblich ,Bildungswissenschaften ,2023-01-30_13h52.43.173,00_bat_bachelor,2022.2.4,59.912187008330974,
,,,,,,,,,,,,0,0,0,0,24,0,24,0,,,,,,,24,,,1,18476.739545823308,Y,d,go,l,0,0.32186091993935406,,,,,,,,,,,,,,,,,,79,001,23,Weiblich ,Bildungswissenschaften ,2023-01-30_13h52.43.173,00_bat_bachelor,2022.2.4,59.912187008330974,
,,,,,,,,,,,,0,0,0,0,25,0,25,0,,,,,,,25,,,1,18478.17407021881,X,l,go,l,1,0.4546060678549111,,,,,,,,,,,,,,,,,,79,001,23,Weiblich ,Bildungswissenschaften ,2023-01-30_13h52.43.173,00_bat_bachelor,2022.2.4,59.912187008330974,
,,,,,,,,,,,,0,0,0,0,26,0,26,0,,,,,,,26,,,1,18479.74196764035,Y,d,go,d,1,0.37548513640649617,,,,,,,,,,,,,,,,,,79,001,23,Weiblich ,Bildungswissenschaften ,2023-01-30_13h52.43.173,00_bat_bachelor,2022.2.4,59.912187008330974,
,,,,,,,,,,,,0,0,0,0,27,0,27,0,,,,,,,27,,,1,18481.226400375133,X,l,go,l,1,0.42599759669974446,,,,,,,,,,,,,,,,,,79,001,23,Weiblich ,Bildungswissenschaften ,2023-01-30_13h52.43.173,00_bat_bachelor,2022.2.4,59.912187008330974,
,,,,,,,,,,,,0,0,0,0,28,0,28,0,,,,,,,28,,,1,18482.761338782497,X,None,nogo,None,1,,18483.561768454965,,,,,,,,,,,,,,,,,79,001,23,Weiblich ,Bildungswissenschaften ,2023-01-30_13h52.43.173,00_bat_bachelor,2022.2.4,59.912187008330974,
,,,,,,,,,,,,0,0,0,0,29,0,29,0,,,,,,,29,,,1,18484.562787605915,Y,d,go,d,1,0.2577305268496275,,,,,,,,,,,,,,,,,,79,001,23,Weiblich ,Bildungswissenschaften ,2023-01-30_13h52.43.173,00_bat_bachelor,2022.2.4,59.912187008330974,
,,,,,,,,,,,,0,0,0,0,30,0,30,0,,,,,,,30,,,1,18485.930270094424,X,l,go,l,1,0.4120266945101321,,,,,,,,,,,,,,,,,,79,001,23,Weiblich ,Bildungswissenschaften ,2023-01-30_13h52.43.173,00_bat_bachelor,2022.2.4,59.912187008330974,
,,,,,,,,,,,,0,0,0,0,31,0,31,0,,,,,,,31,,,1,18487.448203419102,X,None,nogo,None,1,,18488.248813455226,,,,,,,,,,,,,,,,,79,001,23,Weiblich ,Bildungswissenschaften ,2023-01-30_13h52.43.173,00_bat_bachelor,2022.2.4,59.912187008330974,
,,,,,,,,,,,,0,0,0,0,32,0,32,0,,,,,,,32,,,1,18489.24897781876,Y,d,go,d,1,0.37256101658567786,,,,,,,,,,,,,,,,,,79,001,23,Weiblich ,Bildungswissenschaften ,2023-01-30_13h52.43.173,00_bat_bachelor,2022.2.4,59.912187008330974,
,,,,,,,,,,,,0,0,0,0,33,0,33,0,,,,,,,33,,,1,18490.733682553517,X,l,go,l,1,0.4079224541783333,,,,,,,,,,,,,,,,,,79,001,23,Weiblich ,Bildungswissenschaften ,2023-01-30_13h52.43.173,00_bat_bachelor,2022.2.4,59.912187008330974,
,,,,,,,,,,,,0,0,0,0,34,0,34,0,,,,,,,34,,,1,18492.251542665996,X,None,nogo,l,0,0.45823515695519745,,,,,,,,,,,,,,,,,,79,001,23,Weiblich ,Bildungswissenschaften ,2023-01-30_13h52.43.173,00_bat_bachelor,2022.2.4,59.912187008330974,
,,,,,,,,,,,,0,0,0,0,35,0,35,0,,,,,,,35,,,1,18493.819138027262,Y,d,go,d,1,0.2653319777455181,,,,,,,,,,,,,,,,,,79,001,23,Weiblich ,Bildungswissenschaften ,2023-01-30_13h52.43.173,00_bat_bachelor,2022.2.4,59.912187008330974,
,,,,,,,,,,,,0,0,0,0,36,0,36,0,,,,,,,36,,,1,18495.186851788312,X,l,go,l,1,0.6586035445798188,,,,,,,,,,,,,,,,,,79,001,23,Weiblich ,Bildungswissenschaften ,2023-01-30_13h52.43.173,00_bat_bachelor,2022.2.4,59.912187008330974,
,,,,,,,,,,,,0,0,0,0,37,0,37,0,,,,,,,37,,,1,18496.955038567306,X,None,nogo,None,1,,18497.75572860334,,,,,,,,,,,,,,,,,79,001,23,Weiblich ,Bildungswissenschaften ,2023-01-30_13h52.43.173,00_bat_bachelor,2022.2.4,59.912187008330974,
,,,,,,,,,,,,0,0,0,0,38,0,38,0,,,,,,,38,,,1,18498.756364724366,Y,d,go,d,1,0.36818186729215086,,,,,,,,,,,,,,,,,,79,001,23,Weiblich ,Bildungswissenschaften ,2023-01-30_13h52.43.173,00_bat_bachelor,2022.2.4,59.912187008330974,
,,,,,,,,,,,,0,0,0,0,39,0,39,0,,,,,,,39,,,1,18500.240923034726,X,l,go,l,1,0.38829143322072923,,,,,,,,,,,,,,,,,,79,001,23,Weiblich ,Bildungswissenschaften ,2023-01-30_13h52.43.173,00_bat_bachelor,2022.2.4,59.912187008330974,
,,,,,,,,,,,,0,0,0,0,40,0,40,0,,,,,,,40,,,1,18501.741830428364,Y,d,go,d,1,0.47160048387013376,,,,,,,,,,,,,,,,,,79,001,23,Weiblich ,Bildungswissenschaften ,2023-01-30_13h52.43.173,00_bat_bachelor,2022.2.4,59.912187008330974,
,,,,,,,,,,,,0,0,0,0,41,0,41,0,,,,,,,41,,,1,18503.326365417568,X,l,go,l,1,0.374858227558434,,,,,,,,,,,,,,,,,,79,001,23,Weiblich ,Bildungswissenschaften ,2023-01-30_13h52.43.173,00_bat_bachelor,2022.2.4,59.912187008330974,
,,,,,,,,,,,,0,0,0,0,42,0,42,0,,,,,,,42,,,1,18504.811113788746,Y,d,go,d,1,0.42701674764975905,,,,,,,,,,,,,,,,,,79,001,23,Weiblich ,Bildungswissenschaften ,2023-01-30_13h52.43.173,00_bat_bachelor,2022.2.4,59.912187008330974,
,,,,,,,,,,,,0,0,0,0,43,0,43,0,,,,,,,43,,,1,18506.345345772104,Y,None,nogo,None,1,,,,,,,,,,,,,,,,,,,79,001,23,Weiblich ,Bildungswissenschaften ,2023-01-30_13h52.43.173,00_bat_bachelor,2022.2.4,59.912187008330974,
,,,,,,,,,,,,0,0,0,0,44,0,44,0,,,,,,,44,,,1,18508.14695314085,X,l,go,l,1,0.3862031917087734,,,,,,,,,,,,,,,,,,79,001,23,Weiblich ,Bildungswissenschaften ,2023-01-30_13h52.43.173,00_bat_bachelor,2022.2.4,59.912187008330974,
,,,,,,,,,,,,0,0,0,0,45,0,45,0,,,,,,,45,,,1,18509.64811604959,Y,d,go,d,1,0.4054250007029623,,,,,,,,,,,,,,,,,,79,001,23,Weiblich ,Bildungswissenschaften ,2023-01-30_13h52.43.173,00_bat_bachelor,2022.2.4,59.912187008330974,
,,,,,,,,,,,,0,0,0,0,46,0,46,0,,,,,,,46,,,1,18511.165884525748,X,l,go,l,1,0.408302090363577,,,,,,,,,,,,,,,,,,79,001,23,Weiblich ,Bildungswissenschaften ,2023-01-30_13h52.43.173,00_bat_bachelor,2022.2.4,59.912187008330974,
,,,,,,,,,,,,0,0,0,0,47,0,47,0,,,,,,,47,,,1,18512.68369712308,Y,d,go,d,1,0.3617416280321777,,,,,,,,,,,,,,,,,,79,001,23,Weiblich ,Bildungswissenschaften ,2023-01-30_13h52.43.173,00_bat_bachelor,2022.2.4,59.912187008330974,
,,,,,,,,,,,,0,0,0,0,48,0,48,0,,,,,,,48,,,1,18514.15128671471,X,l,go,l,1,0.414343299344182,,,,,,,,,,,,,,,,,,79,001,23,Weiblich ,Bildungswissenschaften ,2023-01-30_13h52.43.173,00_bat_bachelor,2022.2.4,59.912187008330974,
,,,,,,,,,,,,0,0,0,0,49,0,49,0,,,,,,,49,,,1,18515.669353857404,X,None,nogo,None,1,,,,,,,,,,,,,,,,,,,79,001,23,Weiblich ,Bildungswissenschaften ,2023-01-30_13h52.43.173,00_bat_bachelor,2022.2.4,59.912187008330974,
,,,,,,,,,,,,0,0,0,0,50,0,50,0,,,,,,,50,,,1,18517.470654802164,Y,d,go,d,1,0.3105077133513987,,,,,,,,,,,,,,,,,,79,001,23,Weiblich ,Bildungswissenschaften ,2023-01-30_13h52.43.173,00_bat_bachelor,2022.2.4,59.912187008330974,
,,,,,,,,,,,,0,0,0,0,51,0,51,0,,,,,,,51,,,1,18518.888428175356,X,l,go,l,1,0.41321602743119,,,,,,,,,,,,,,,,,,79,001,23,Weiblich ,Bildungswissenschaften ,2023-01-30_13h52.43.173,00_bat_bachelor,2022.2.4,59.912187008330974,
,,,,,,,,,,,,0,0,0,0,52,0,52,0,,,,,,,52,,,1,18520.406248530373,X,None,nogo,None,1,,,,,,,,,,,,,,,,,,,79,001,23,Weiblich ,Bildungswissenschaften ,2023-01-30_13h52.43.173,00_bat_bachelor,2022.2.4,59.912187008330974,
,,,,,,,,,,,,0,0,0,0,53,0,53,0,,,,,,,53,,,1,18522.20761153591,Y,d,go,d,1,0.24621974444016814,,,,,,,,,,,,,,,,,,79,001,23,Weiblich ,Bildungswissenschaften ,2023-01-30_13h52.43.173,00_bat_bachelor,2022.2.4,59.912187008330974,
,,,,,,,,,,,,0,0,0,0,54,0,54,0,,,,,,,54,,,1,18523.558793426026,X,l,go,l,1,0.3503956941422075,,,,,,,,,,,,,,,,,,79,001,23,Weiblich ,Bildungswissenschaften ,2023-01-30_13h52.43.173,00_bat_bachelor,2022.2.4,59.912187008330974,
,,,,,,,,,,,,0,0,0,0,55,0,55,0,,,,,,,55,,,1,18525.009787146933,Y,d,go,d,1,0.371712047373876,,,,,,,,,,,,,,,,,,79,001,23,Weiblich ,Bildungswissenschaften ,2023-01-30_13h52.43.173,00_bat_bachelor,2022.2.4,59.912187008330974,
,,,,,,,,,,,,0,0,0,0,56,0,56,0,,,,,,,56,,,1,18526.494329457404,Y,None,nogo,d,0,0.5990539975464344,,,,,,,,,,,,,,,,,,79,001,23,Weiblich ,Bildungswissenschaften ,2023-01-30_13h52.43.173,00_bat_bachelor,2022.2.4,59.912187008330974,
,,,,,,,,,,,,0,0,0,0,57,0,57,0,,,,,,,57,,,1,18528.1955068144,X,l,go,l,1,0.44948219135403633,,,,,,,,,,,,,,,,,,79,001,23,Weiblich ,Bildungswissenschaften ,2023-01-30_13h52.43.173,00_bat_bachelor,2022.2.4,59.912187008330974,
,,,,,,,,,,,,0,0,0,0,58,0,58,0,,,,,,,58,,,1,18529.746750183403,Y,d,go,d,1,0.4820683575235307,,,,,,,,,,,,,,,,,,79,001,23,Weiblich ,Bildungswissenschaften ,2023-01-30_13h52.43.173,00_bat_bachelor,2022.2.4,59.912187008330974,
,,,,,,,,,,,,0,0,0,0,59,0,59,0,,,,,,,59,,,1,18531.331348687876,X,l,go,None,0,,,,,,,,,,,,,,,,,,,79,001,23,Weiblich ,Bildungswissenschaften ,2023-01-30_13h52.43.173,00_bat_bachelor,2022.2.4,59.912187008330974,
,,,,,,,,,,,,0,0,0,0,60,0,60,0,,,,,,,60,,,1,18533.132701511495,Y,d,go,d,1,0.4725919982884079,,,,,,,,,,,,,,,,,,79,001,23,Weiblich ,Bildungswissenschaften ,2023-01-30_13h52.43.173,00_bat_bachelor,2022.2.4,59.912187008330974,
,,,,,,,,,,,,0,0,0,0,61,0,61,0,,,,,,,61,,,1,18534.716949470574,Y,None,nogo,None,1,,,,,,,,,,,,,,,,,,,79,001,23,Weiblich ,Bildungswissenschaften ,2023-01-30_13h52.43.173,00_bat_bachelor,2022.2.4,59.912187008330974,
,,,,,,,,,,,,0,0,0,0,62,0,62,0,,,,,,,62,,,1,18536.518543263897,X,l,go,l,1,0.3025275960098952,,,,,,,,,,,,,,,,,,79,001,23,Weiblich ,Bildungswissenschaften ,2023-01-30_13h52.43.173,00_bat_bachelor,2022.2.4,59.912187008330974,
,,,,,,,,,,,,0,0,0,0,63,0,63,0,,,,,,,63,,,1,18537.936050940072,Y,d,go,d,1,0.437414318555966,,,,,,,,,,,,,,,,,,79,001,23,Weiblich ,Bildungswissenschaften ,2023-01-30_13h52.43.173,00_bat_bachelor,2022.2.4,59.912187008330974,
,,,,,,,,,,,,0,0,0,0,64,0,64,0,,,,,,,64,,,1,18539.48744606669,X,l,go,l,1,0.4211801446508616,,,,,,,,,,,,,,,,,,79,001,23,Weiblich ,Bildungswissenschaften ,2023-01-30_13h52.43.173,00_bat_bachelor,2022.2.4,59.912187008330974,
,,,,,,,,,,,,0,0,0,0,65,0,65,0,,,,,,,65,,,1,18541.022009686334,X,None,nogo,None,1,,,,,,,,,,,,,,,,,,,79,001,23,Weiblich ,Bildungswissenschaften ,2023-01-30_13h52.43.173,00_bat_bachelor,2022.2.4,59.912187008330974,
,,,,,,,,,,,,0,0,0,0,66,0,66,0,,,,,,,66,,,1,18542.823122025235,Y,d,go,d,1,0.3179113462101668,,,,,,,,,,,,,,,,,,79,001,23,Weiblich ,Bildungswissenschaften ,2023-01-30_13h52.43.173,00_bat_bachelor,2022.2.4,59.912187008330974,
,,,,,,,,,,,,0,0,0,0,67,0,67,0,,,,,,,67,,,1,18544.257729329634,X,l,go,l,1,0.38788367598317564,,,,,,,,,,,,,,,,,,79,001,23,Weiblich ,Bildungswissenschaften ,2023-01-30_13h52.43.173,00_bat_bachelor,2022.2.4,59.912187008330974,
,,,,,,,,,,,,0,0,0,0,68,0,68,0,,,,,,,68,,,1,18545.758738541277,X,None,nogo,None,1,,,,,,,,,,,,,,,,,,,79,001,23,Weiblich ,Bildungswissenschaften ,2023-01-30_13h52.43.173,00_bat_bachelor,2022.2.4,59.912187008330974,
,,,,,,,,,,,,0,0,0,0,69,0,69,0,,,,,,,69,,,1,18547.56079536467,Y,d,go,d,1,0.33277242979966104,,,,,,,,,,,,,,,,,,79,001,23,Weiblich ,Bildungswissenschaften ,2023-01-30_13h52.43.173,00_bat_bachelor,2022.2.4,59.912187008330974,
,,,,,,,,,,,,0,0,0,0,70,0,70,0,,,,,,,70,,,1,18549.011989327613,X,l,go,l,1,0.5129779181443155,,,,,,,,,,,,,,,,,,79,001,23,Weiblich ,Bildungswissenschaften ,2023-01-30_13h52.43.173,00_bat_bachelor,2022.2.4,59.912187008330974,
,,,,,,,,,,,,0,0,0,0,71,0,71,0,,,,,,,71,,,1,18550.64642732311,Y,d,go,d,1,0.4468077684286982,,,,,,,,,,,,,,,,,,79,001,23,Weiblich ,Bildungswissenschaften ,2023-01-30_13h52.43.173,00_bat_bachelor,2022.2.4,59.912187008330974,
,,,,,,,,,,,,0,0,0,0,72,0,72,0,,,,,,,72,,,1,18552.19776863139,X,l,go,l,1,0.44785988912917674,,,,,,,,,,,,,,,,,,79,001,23,Weiblich ,Bildungswissenschaften ,2023-01-30_13h52.43.173,00_bat_bachelor,2022.2.4,59.912187008330974,
,,,,,,,,,,,,0,0,0,0,73,0,73,0,,,,,,,73,,,1,18553.748784121824,X,None,nogo,None,1,,18554.54952943069,,,,,,,,,,,,,,,,,79,001,23,Weiblich ,Bildungswissenschaften ,2023-01-30_13h52.43.173,00_bat_bachelor,2022.2.4,59.912187008330974,
,,,,,,,,,,,,0,0,0,0,74,0,74,0,,,,,,,74,,,1,18555.550417187857,Y,d,go,d,1,0.4705469086766243,,,,,,,,,,,,,,,,,,79,001,23,Weiblich ,Bildungswissenschaften ,2023-01-30_13h52.43.173,00_bat_bachelor,2022.2.4,59.912187008330974,
,,,,,,,,,,,,0,0,0,0,75,0,75,0,,,,,,,75,,,1,18557.15152332047,X,l,go,l,1,0.2931375401094556,,,,,,,,,,,,,,,,,,79,001,23,Weiblich ,Bildungswissenschaften ,2023-01-30_13h52.43.173,00_bat_bachelor,2022.2.4,59.912187008330974,
,,,,,,,,,,,,0,0,0,0,76,0,76,0,,,,,,,76,,,1,18558.55247052014,Y,d,go,d,1,0.41219202778302133,,,,,,,,,,,,,,,,,,79,001,23,Weiblich ,Bildungswissenschaften ,2023-01-30_13h52.43.173,00_bat_bachelor,2022.2.4,59.912187008330974,
,,,,,,,,,,,,0,0,0,0,77,0,77,0,,,,,,,77,,,1,18560.070428571897,X,l,go,l,1,0.43171395757235587,,,,,,,,,,,,,,,,,,79,001,23,Weiblich ,Bildungswissenschaften ,2023-01-30_13h52.43.173,00_bat_bachelor,2022.2.4,59.912187008330974,
,,,,,,,,,,,,0,0,0,0,78,0,78,0,,,,,,,78,,,1,18561.604942737147,Y,d,go,d,1,0.560322865145281,,,,,,,,,,,,,,,,,,79,001,23,Weiblich ,Bildungswissenschaften ,2023-01-30_13h52.43.173,00_bat_bachelor,2022.2.4,59.912187008330974,
,,,,,,,,,,,,0,0,0,0,79,0,79,0,,,,,,,79,,,1,18563.289470405085,Y,None,nogo,None,1,,18564.090270986548,,,,,,,,,,,,,,,,,79,001,23,Weiblich ,Bildungswissenschaften ,2023-01-30_13h52.43.173,00_bat_bachelor,2022.2.4,59.912187008330974,
,,,,,,,,,,,,0,0,0,0,80,0,80,0,,,,,,,80,,,1,18565.090937168105,X,l,go,l,1,0.2739181553479284,,,,,,,,,,,,,,,,,,79,001,23,Weiblich ,Bildungswissenschaften ,2023-01-30_13h52.43.173,00_bat_bachelor,2022.2.4,59.912187008330974,
,,,,,,,,,,,,0,0,0,0,81,0,81,0,,,,,,,81,,,1,18566.491819882765,Y,d,go,d,1,0.5054685885552317,,,,,,,,,,,,,,,,,,79,001,23,Weiblich ,Bildungswissenschaften ,2023-01-30_13h52.43.173,00_bat_bachelor,2022.2.4,59.912187008330974,
,,,,,,,,,,,,0,0,0,0,82,0,82,0,,,,,,,82,,,1,18568.110171098262,X,l,go,l,1,0.40656293951906264,,,,,,,,,,,,,,,,,,79,001,23,Weiblich ,Bildungswissenschaften ,2023-01-30_13h52.43.173,00_bat_bachelor,2022.2.4,59.912187008330974,
,,,,,,,,,,,,0,0,0,0,83,0,83,0,,,,,,,83,,,1,18569.644386596745,X,None,nogo,None,1,,18570.4448094815,,,,,,,,,,,,,,,,,79,001,23,Weiblich ,Bildungswissenschaften ,2023-01-30_13h52.43.173,00_bat_bachelor,2022.2.4,59.912187008330974,
,,,,,,,,,,,,0,0,0,0,84,0,84,0,,,,,,,84,,,1,18571.445745723322,Y,d,go,d,1,0.38354428415186703,,,,,,,,,,,,,,,,,,79,001,23,Weiblich ,Bildungswissenschaften ,2023-01-30_13h52.43.173,00_bat_bachelor,2022.2.4,59.912187008330974,
,,,,,,,,,,,,0,0,0,0,85,0,85,0,,,,,,,85,,,1,18572.930067427922,X,l,go,l,1,0.32207182911224663,,,,,,,,,,,,,,,,,,79,001,23,Weiblich ,Bildungswissenschaften ,2023-01-30_13h52.43.173,00_bat_bachelor,2022.2.4,59.912187008330974,
,,,,,,,,,,,,0,0,0,0,86,0,86,0,,,,,,,86,,,1,18574.381344784983,Y,d,go,d,1,0.4235384464263916,,,,,,,,,,,,,,,,,,79,001,23,Weiblich ,Bildungswissenschaften ,2023-01-30_13h52.43.173,00_bat_bachelor,2022.2.4,59.912187008330974,
,,,,,,,,,,,,0,0,0,0,87,0,87,0,,,,,,,87,,,1,18575.932474214584,X,l,go,l,1,0.4560601278208196,,,,,,,,,,,,,,,,,,79,001,23,Weiblich ,Bildungswissenschaften ,2023-01-30_13h52.43.173,00_bat_bachelor,2022.2.4,59.912187008330974,
,,,,,,,,,,,,0,0,0,0,88,0,88,0,,,,,,,88,,,1,18577.517080961494,X,None,nogo,None,1,,18578.317520330893,,,,,,,,,,,,,,,,,79,001,23,Weiblich ,Bildungswissenschaften ,2023-01-30_13h52.43.173,00_bat_bachelor,2022.2.4,59.912187008330974,
,,,,,,,,,,,,0,0,0,0,89,0,89,0,,,,,,,89,,,1,18579.318439603318,Y,d,go,d,1,0.23738920339383185,,,,,,,,,,,,,,,,,,79,001,23,Weiblich ,Bildungswissenschaften ,2023-01-30_13h52.43.173,00_bat_bachelor,2022.2.4,59.912187008330974,
,,,,,,,,,,,,0,0,0,0,90,0,90,0,,,,,,,90,,,1,18580.685997243272,X,l,go,l,1,0.4713658173568547,,,,,,,,,,,,,,,,,,79,001,23,Weiblich ,Bildungswissenschaften ,2023-01-30_13h52.43.173,00_bat_bachelor,2022.2.4,59.912187008330974,
,,,,,,,,,,,,0,0,0,0,91,0,91,0,,,,,,,91,,,1,18582.270594778005,Y,d,go,d,1,0.3258778878953308,,,,,,,,,,,,,,,,,,79,001,23,Weiblich ,Bildungswissenschaften ,2023-01-30_13h52.43.173,00_bat_bachelor,2022.2.4,59.912187008330974,
,,,,,,,,,,,,0,0,0,0,92,0,92,0,,,,,,,92,,,1,18583.721785831964,X,l,go,l,1,0.2191031516995281,,,,,,,,,,,,,,,,,,79,001,23,Weiblich ,Bildungswissenschaften ,2023-01-30_13h52.43.173,00_bat_bachelor,2022.2.4,59.912187008330974,
,,,,,,,,,,,,0,0,0,0,93,0,93,0,,,,,,,93,,,1,18585.055944215273,Y,d,go,d,1,0.38946379628032446,,,,,,,,,,,,,,,,,,79,001,23,Weiblich ,Bildungswissenschaften ,2023-01-30_13h52.43.173,00_bat_bachelor,2022.2.4,59.912187008330974,
,,,,,,,,,,,,0,0,0,0,94,0,94,0,,,,,,,94,,,1,18586.557228820864,Y,None,nogo,None,1,,18587.358013402205,,,,,,,,,,,,,,,,,79,001,23,Weiblich ,Bildungswissenschaften ,2023-01-30_13h52.43.173,00_bat_bachelor,2022.2.4,59.912187008330974,
,,,,,,,,,,,,0,0,0,0,95,0,95,0,,,,,,,95,,,1,18588.35844491725,X,l,go,l,1,0.22196860471740365,,,,,,,,,,,,,,,,,,79,001,23,Weiblich ,Bildungswissenschaften ,2023-01-30_13h52.43.173,00_bat_bachelor,2022.2.4,59.912187008330974,
,,,,,,,,,,,,0,0,0,0,96,0,96,0,,,,,,,96,,,1,18589.693020270206,Y,d,go,d,1,0.4068708182312548,,,,,,,,,,,,,,,,,,79,001,23,Weiblich ,Bildungswissenschaften ,2023-01-30_13h52.43.173,00_bat_bachelor,2022.2.4,59.912187008330974,
,,,,,,,,,,,,0,0,0,0,97,0,97,0,,,,,,,97,,,1,18591.227103405166,Y,None,nogo,None,1,,18592.027802653378,,,,,,,,,,,,,,,,,79,001,23,Weiblich ,Bildungswissenschaften ,2023-01-30_13h52.43.173,00_bat_bachelor,2022.2.4,59.912187008330974,
,,,,,,,,,,,,0,0,0,0,98,0,98,0,,,,,,,98,,,1,18593.02851538011,Y,None,nogo,None,1,,18593.829149173805,,,,,,,,,,,,,,,,,79,001,23,Weiblich ,Bildungswissenschaften ,2023-01-30_13h52.43.173,00_bat_bachelor,2022.2.4,59.912187008330974,
,,,,,,,,,,,,0,0,0,0,99,0,99,0,,,,,,,99,,,1,18594.829904082464,X,l,go,l,1,0.36051399214193225,,,,,,,,,,,,,,,,,,79,001,23,Weiblich ,Bildungswissenschaften ,2023-01-30_13h52.43.173,00_bat_bachelor,2022.2.4,59.912187008330974,
,,,,,,,,,,,,0,0,0,0,100,0,100,0,,,,,,,100,,,1,18596.297840825282,Y,d,go,d,1,0.4602322466671467,,,,,,,,,,,,,,,,,,79,001,23,Weiblich ,Bildungswissenschaften ,2023-01-30_13h52.43.173,00_bat_bachelor,2022.2.4,59.912187008330974,
,,,,,,,,,,,,0,0,0,0,101,0,101,0,,,,,,,101,,,1,18597.86573339859,X,l,go,l,1,0.4280615958850831,,,,,,,,,,,,,,,,,,79,001,23,Weiblich ,Bildungswissenschaften ,2023-01-30_13h52.43.173,00_bat_bachelor,2022.2.4,59.912187008330974,
,,,,,,,,,,,,0,0,0,0,102,0,102,0,,,,,,,102,,,1,18599.399812654825,Y,d,go,d,1,0.381699436577037,,,,,,,,,,,,,,,,,,79,001,23,Weiblich ,Bildungswissenschaften ,2023-01-30_13h52.43.173,00_bat_bachelor,2022.2.4,59.912187008330974,
,,,,,,,,,,,,0,0,0,0,103,0,103,0,,,,,,,103,,,1,18600.88402235927,X,l,go,l,1,0.41782838851213455,,,,,,,,,,,,,,,,,,79,001,23,Weiblich ,Bildungswissenschaften ,2023-01-30_13h52.43.173,00_bat_bachelor,2022.2.4,59.912187008330974,
,,,,,,,,,,,,0,0,0,0,104,0,104,0,,,,,,,104,,,1,18602.418585978914,X,None,nogo,None,1,,,,,,,,,,,,,,,,,,,79,001,23,Weiblich ,Bildungswissenschaften ,2023-01-30_13h52.43.173,00_bat_bachelor,2022.2.4,59.912187008330974,
,,,,,,,,,,,,0,0,0,0,105,0,105,0,,,,,,,105,,,1,18604.22048474173,Y,d,go,d,1,0.34480006038211286,,,,,,,,,,,,,,,,,,79,001,23,Weiblich ,Bildungswissenschaften ,2023-01-30_13h52.43.173,00_bat_bachelor,2022.2.4,59.912187008330974,
,,,,,,,,,,,,0,0,0,0,106,0,106,0,,,,,,,106,,,1,18605.671589492587,X,l,go,l,1,0.28510021045804024,,,,,,,,,,,,,,,,,,79,001,23,Weiblich ,Bildungswissenschaften ,2023-01-30_13h52.43.173,00_bat_bachelor,2022.2.4,59.912187008330974,
,,,,,,,,,,,,0,0,0,0,107,0,107,0,,,,,,,107,,,1,18607.072666631546,Y,d,go,d,1,0.3407176381442696,,,,,,,,,,,,,,,,,,79,001,23,Weiblich ,Bildungswissenschaften ,2023-01-30_13h52.43.173,00_bat_bachelor,2022.2.4,59.912187008330974,
,,,,,,,,,,,,0,0,0,0,108,0,108,0,,,,,,,108,,,1,18608.5238038674,X,l,go,l,1,0.3616029613185674,,,,,,,,,,,,,,,,,,79,001,23,Weiblich ,Bildungswissenschaften ,2023-01-30_13h52.43.173,00_bat_bachelor,2022.2.4,59.912187008330974,
,,,,,,,,,,,,0,0,0,0,109,0,109,0,,,,,,,109,,,1,18609.99156654952,Y,d,go,d,1,0.2539138013962656,,,,,,,,,,,,,,,,,,79,001,23,Weiblich ,Bildungswissenschaften ,2023-01-30_13h52.43.173,00_bat_bachelor,2022.2.4,59.912187008330974,
,,,,,,,,,,,,0,0,0,0,110,0,110,0,,,,,,,110,,,1,18611.35924249259,Y,None,nogo,None,1,,,,,,,,,,,,,,,,,,,79,001,23,Weiblich ,Bildungswissenschaften ,2023-01-30_13h52.43.173,00_bat_bachelor,2022.2.4,59.912187008330974,
,,,,,,,,,,,,0,0,0,0,111,0,111,0,,,,,,,111,,,1,18613.16005374072,X,l,go,l,1,0.28494069539010525,,,,,,,,,,,,,,,,,,79,001,23,Weiblich ,Bildungswissenschaften ,2023-01-30_13h52.43.173,00_bat_bachelor,2022.2.4,59.912187008330974,
,,,,,,,,,,,,0,0,0,0,112,0,112,0,,,,,,,112,,,1,18614.561121182516,Y,d,go,d,1,0.37230550148524344,,,,,,,,,,,,,,,,,,79,001,23,Weiblich ,Bildungswissenschaften ,2023-01-30_13h52.43.173,00_bat_bachelor,2022.2.4,59.912187008330974,
,,,,,,,,,,,,0,0,0,0,113,0,113,0,,,,,,,113,,,1,18616.04578615981,X,l,go,l,1,0.31251110625453293,,,,,,,,,,,,,,,,,,79,001,23,Weiblich ,Bildungswissenschaften ,2023-01-30_13h52.43.173,00_bat_bachelor,2022.2.4,59.912187008330974,
,,,,,,,,,,,,0,0,0,0,114,0,114,0,,,,,,,114,,,1,18617.463510078378,Y,d,go,d,1,0.4616523673757911,,,,,,,,,,,,,,,,,,79,001,23,Weiblich ,Bildungswissenschaften ,2023-01-30_13h52.43.173,00_bat_bachelor,2022.2.4,59.912187008330974,
,,,,,,,,,,,,0,0,0,0,115,0,115,0,,,,,,,115,,,1,18619.031386651564,X,l,go,l,1,0.365884171333164,,,,,,,,,,,,,,,,,,79,001,23,Weiblich ,Bildungswissenschaften ,2023-01-30_13h52.43.173,00_bat_bachelor,2022.2.4,59.912187008330974,
,,,,,,,,,,,,0,0,0,0,116,0,116,0,,,,,,,116,,,1,18620.49896848551,Y,d,go,d,1,0.41809747950173914,,,,,,,,,,,,,,,,,,79,001,23,Weiblich ,Bildungswissenschaften ,2023-01-30_13h52.43.173,00_bat_bachelor,2022.2.4,59.912187008330974,
,,,,,,,,,,,,0,0,0,0,117,0,117,0,,,,,,,117,,,1,18622.033484590007,X,l,go,l,1,0.4035665774717927,,,,,,,,,,,,,,,,,,79,001,23,Weiblich ,Bildungswissenschaften ,2023-01-30_13h52.43.173,00_bat_bachelor,2022.2.4,59.912187008330974,
,,,,,,,,,,,,0,0,0,0,118,0,118,0,,,,,,,118,,,1,18623.551261308603,Y,d,go,d,1,0.5010865300428122,,,,,,,,,,,,,,,,,,79,001,23,Weiblich ,Bildungswissenschaften ,2023-01-30_13h52.43.173,00_bat_bachelor,2022.2.4,59.912187008330974,
,,,,,,,,,,,,0,0,0,0,119,0,119,0,,,,,,,119,,,1,18625.16946561495,X,l,go,l,1,0.48428168962709606,,,,,,,,,,,,,,,,,,79,001,23,Weiblich ,Bildungswissenschaften ,2023-01-30_13h52.43.173,00_bat_bachelor,2022.2.4,59.912187008330974,
,,,,,,,,,,,,0,0,0,0,120,0,120,0,,,,,,,120,,,1,18626.770534414332,X,None,nogo,None,1,,,,,,,,,,,,,,,,,,,79,001,23,Weiblich ,Bildungswissenschaften ,2023-01-30_13h52.43.173,00_bat_bachelor,2022.2.4,59.912187008330974,
,,,,,,,,,,,,0,0,0,0,121,0,121,0,,,,,,,121,,,1,18628.57218735898,Y,d,go,d,1,0.2812868789769709,,,,,,,,,,,,,,,,,,79,001,23,Weiblich ,Bildungswissenschaften ,2023-01-30_13h52.43.173,00_bat_bachelor,2022.2.4,59.912187008330974,
,,,,,,,,,,,,0,0,0,0,122,0,122,0,,,,,,,122,,,1,18629.956503293943,X,l,go,l,1,0.41679032845422626,,,,,,,,,,,,,,,,,,79,001,23,Weiblich ,Bildungswissenschaften ,2023-01-30_13h52.43.173,00_bat_bachelor,2022.2.4,59.912187008330974,
,,,,,,,,,,,,0,0,0,0,123,0,123,0,,,,,,,123,,,1,18631.474264982156,Y,d,go,d,1,0.4507064332719892,,,,,,,,,,,,,,,,,,79,001,23,Weiblich ,Bildungswissenschaften ,2023-01-30_13h52.43.173,00_bat_bachelor,2022.2.4,59.912187008330974,
,,,,,,,,,,,,0,0,0,0,124,0,124,0,,,,,,,124,,,1,18633.04208046454,X,l,go,l,1,0.35462987376376987,,,,,,,,,,,,,,,,,,79,001,23,Weiblich ,Bildungswissenschaften ,2023-01-30_13h52.43.173,00_bat_bachelor,2022.2.4,59.912187008330974,
,,,,,,,,,,,,0,0,0,0,125,0,125,0,,,,,,,125,,,1,18634.50963514694,X,None,nogo,None,1,,,,,,,,,,,,,,,,,,,79,001,23,Weiblich ,Bildungswissenschaften ,2023-01-30_13h52.43.173,00_bat_bachelor,2022.2.4,59.912187008330974,
,,,,,,,,,,,,0,0,0,0,126,0,126,0,,,,,,,126,,,1,18636.311480576405,Y,d,go,d,1,0.3180558308959007,,,,,,,,,,,,,,,,,,79,001,23,Weiblich ,Bildungswissenschaften ,2023-01-30_13h52.43.173,00_bat_bachelor,2022.2.4,59.912187008330974,
,,,,,,,,,,,,0,0,0,0,127,0,127,0,,,,,,,127,,,1,18637.745690790005,X,l,go,l,1,0.30764226033352315,,,,,,,,,,,,,,,,,,79,001,23,Weiblich ,Bildungswissenschaften ,2023-01-30_13h52.43.173,00_bat_bachelor,2022.2.4,59.912187008330974,
,,,,,,,,,,,,0,0,0,0,128,0,128,0,,,,,,,128,,,1,18639.16340986034,X,None,nogo,None,1,,,,,,,,,,,,,,,,,,,79,001,23,Weiblich ,Bildungswissenschaften ,2023-01-30_13h52.43.173,00_bat_bachelor,2022.2.4,59.912187008330974,
,,,,,,,,,,,,0,0,0,0,129,0,129,0,,,,,,,129,,,1,18640.96482813824,Y,d,go,d,1,0.3202449206728488,,,,,,,,,,,,,,,,,,79,001,23,Weiblich ,Bildungswissenschaften ,2023-01-30_13h52.43.173,00_bat_bachelor,2022.2.4,59.912187008330974,
,,,,,,,,,,,,0,0,0,0,130,0,130,0,,,,,,,130,,,1,18642.39906598837,X,l,go,l,1,0.2628180393949151,,,,,,,,,,,,,,,,,,79,001,23,Weiblich ,Bildungswissenschaften ,2023-01-30_13h52.43.173,00_bat_bachelor,2022.2.4,59.912187008330974,
,,,,,,,,,,,,0,0,0,0,131,0,131,0,,,,,,,131,,,1,18643.76688496163,Y,d,go,d,1,0.38158549717627466,,,,,,,,,,,,,,,,,,79,001,23,Weiblich ,Bildungswissenschaften ,2023-01-30_13h52.43.173,00_bat_bachelor,2022.2.4,59.912187008330974,
,,,,,,,,,,,,0,0,0,0,132,0,132,0,,,,,,,132,,,1,18645.251431150828,Y,None,nogo,None,1,,18646.051973792957,,,,,,,,,,,,,,,,,79,001,23,Weiblich ,Bildungswissenschaften ,2023-01-30_13h52.43.173,00_bat_bachelor,2022.2.4,59.912187008330974,
,,,,,,,,,,,,0,0,0,0,133,0,133,0,,,,,,,133,,,1,18647.05274033826,X,l,go,l,1,0.28101342474110425,,,,,,,,,,,,,,,,,,79,001,23,Weiblich ,Bildungswissenschaften ,2023-01-30_13h52.43.173,00_bat_bachelor,2022.2.4,59.912187008330974,
,,,,,,,,,,,,0,0,0,0,134,0,134,0,,,,,,,134,,,1,18648.43703639414,Y,d,go,d,1,0.4645187903661281,,,,,,,,,,,,,,,,,,79,001,23,Weiblich ,Bildungswissenschaften ,2023-01-30_13h52.43.173,00_bat_bachelor,2022.2.4,59.912187008330974,
,,,,,,,,,,,,0,0,0,0,135,0,135,0,,,,,,,135,,,1,18650.004758300725,X,l,go,l,1,0.2884180271066725,,,,,,,,,,,,,,,,,,79,001,23,Weiblich ,Bildungswissenschaften ,2023-01-30_13h52.43.173,00_bat_bachelor,2022.2.4,59.912187008330974,
,,,,,,,,,,,,0,0,0,0,136,0,136,0,,,,,,,136,,,1,18651.406208287925,Y,d,go,d,1,0.4081915447022766,,,,,,,,,,,,,,,,,,79,001,23,Weiblich ,Bildungswissenschaften ,2023-01-30_13h52.43.173,00_bat_bachelor,2022.2.4,59.912187008330974,
,,,,,,,,,,,,0,0,0,0,137,0,137,0,,,,,,,137,,,1,18652.92411155207,X,l,go,l,1,0.2979414165019989,,,,,,,,,,,,,,,,,,79,001,23,Weiblich ,Bildungswissenschaften ,2023-01-30_13h52.43.173,00_bat_bachelor,2022.2.4,59.912187008330974,
,,,,,,,,,,,,0,0,0,0,138,0,138,0,,,,,,,138,,,1,18654.32501850906,X,None,nogo,None,1,,,,,,,,,,,,,,,,,,,79,001,23,Weiblich ,Bildungswissenschaften ,2023-01-30_13h52.43.173,00_bat_bachelor,2022.2.4,59.912187008330974,
,,,,,,,,,,,,0,0,0,0,139,0,139,0,,,,,,,139,,,1,18656.126575453905,Y,d,go,d,1,0.34357145498506725,,,,,,,,,,,,,,,,,,79,001,23,Weiblich ,Bildungswissenschaften ,2023-01-30_13h52.43.173,00_bat_bachelor,2022.2.4,59.912187008330974,
,,,,,,,,,,,,0,0,0,0,140,0,140,0,,,,,,,140,,,1,18657.57761911396,X,l,go,None,0,,18658.37828102871,,,,,,,,,,,,,,,,,79,001,23,Weiblich ,Bildungswissenschaften ,2023-01-30_13h52.43.173,00_bat_bachelor,2022.2.4,59.912187008330974,
,,,,,,,,,,,,0,0,0,0,141,0,141,0,,,,,,,141,,,1,18659.378589392174,X,None,nogo,l,0,0.3710507145151496,,,,,,,,,,,,,,,,,,79,001,23,Weiblich ,Bildungswissenschaften ,2023-01-30_13h52.43.173,00_bat_bachelor,2022.2.4,59.912187008330974,
,,,,,,,,,,,,0,0,0,0,142,0,142,0,,,,,,,142,,,1,18660.86343861185,Y,d,go,d,1,0.5343791199848056,,,,,,,,,,,,,,,,,,79,001,23,Weiblich ,Bildungswissenschaften ,2023-01-30_13h52.43.173,00_bat_bachelor,2022.2.4,59.912187008330974,
,,,,,,,,,,,,0,0,0,0,143,0,143,0,,,,,,,143,,,1,18662.514527750667,X,l,go,l,1,0.35512732807546854,,,,,,,,,,,,,,,,,,79,001,23,Weiblich ,Bildungswissenschaften ,2023-01-30_13h52.43.173,00_bat_bachelor,2022.2.4,59.912187008330974,
,,,,,,,,,,,,0,0,0,0,144,0,144,0,,,,,,,144,,,1,18663.982372857165,Y,d,go,d,1,0.3911447653081268,,,,,,,,,,,,,,,,,,79,001,23,Weiblich ,Bildungswissenschaften ,2023-01-30_13h52.43.173,00_bat_bachelor,2022.2.4,59.912187008330974,
,,,,,,,,,,,,0,0,0,0,145,0,145,0,,,,,,,145,,,1,18665.483506189892,X,l,go,l,1,0.40970378648489714,,,,,,,,,,,,,,,,,,79,001,23,Weiblich ,Bildungswissenschaften ,2023-01-30_13h52.43.173,00_bat_bachelor,2022.2.4,59.912187008330974,
,,,,,,,,,,,,0,0,0,0,146,0,146,0,,,,,,,146,,,1,18667.001423514448,Y,d,go,d,1,0.4921561102382839,,,,,,,,,,,,,,,,,,79,001,23,Weiblich ,Bildungswissenschaften ,2023-01-30_13h52.43.173,00_bat_bachelor,2022.2.4,59.912187008330974,
,,,,,,,,,,,,0,0,0,0,147,0,147,0,,,,,,,147,,,1,18668.60244722315,X,l,go,l,1,0.3793726498261094,,,,,,,,,,,,,,,,,,79,001,23,Weiblich ,Bildungswissenschaften ,2023-01-30_13h52.43.173,00_bat_bachelor,2022.2.4,59.912187008330974,
,,,,,,,,,,,,0,0,0,0,148,0,148,0,,,,,,,148,,,1,18670.086734503508,Y,d,go,d,1,0.38225701195187867,,,,,,,,,,,,,,,,,,79,001,23,Weiblich ,Bildungswissenschaften ,2023-01-30_13h52.43.173,00_bat_bachelor,2022.2.4,59.912187008330974,
,,,,,,,,,,,,0,0,0,0,149,0,149,0,,,,,,,149,,,1,18671.57120554126,X,l,go,l,1,0.38563494966365397,,,,,,,,,,,,,,,,,,79,001,23,Weiblich ,Bildungswissenschaften ,2023-01-30_13h52.43.173,00_bat_bachelor,2022.2.4,59.912187008330974,
,,,,,,,,,,,,0,0,0,0,150,0,150,0,,,,,,,150,,,1,18673.072598267812,Y,d,go,d,1,0.38778428197838366,,,,,,,,,,,,,,,,,,79,001,23,Weiblich ,Bildungswissenschaften ,2023-01-30_13h52.43.173,00_bat_bachelor,2022.2.4,59.912187008330974,
,,,,,,,,,,,,0,0,0,0,151,0,151,0,,,,,,,151,,,1,18674.573726752307,Y,None,nogo,None,1,,18675.374378970126,,,,,,,,,,,,,,,,,79,001,23,Weiblich ,Bildungswissenschaften ,2023-01-30_13h52.43.173,00_bat_bachelor,2022.2.4,59.912187008330974,
,,,,,,,,,,,,0,0,0,0,152,0,152,0,,,,,,,152,,,1,18676.375041272724,Y,None,nogo,None,1,,,,,,,,,,,,,,,,,,,79,001,23,Weiblich ,Bildungswissenschaften ,2023-01-30_13h52.43.173,00_bat_bachelor,2022.2.4,59.912187008330974,
,,,,,,,,,,,,0,0,0,0,153,0,153,0,,,,,,,153,,,1,18678.17637033877,X,l,go,l,1,0.3580126599408686,,,,,,,,,,,,,,,,,,79,001,23,Weiblich ,Bildungswissenschaften ,2023-01-30_13h52.43.173,00_bat_bachelor,2022.2.4,59.912187008330974,
,,,,,,,,,,,,0,0,0,0,154,0,154,0,,,,,,,154,,,1,18679.64409423317,Y,d,go,d,1,0.4569963696412742,,,,,,,,,,,,,,,,,,79,001,23,Weiblich ,Bildungswissenschaften ,2023-01-30_13h52.43.173,00_bat_bachelor,2022.2.4,59.912187008330974,
,,,,,,,,,,,,0,0,0,0,155,0,155,0,,,,,,,155,,,1,18681.212131775916,X,l,go,l,1,0.40938184736296535,,,,,,,,,,,,,,,,,,79,001,23,Weiblich ,Bildungswissenschaften ,2023-01-30_13h52.43.173,00_bat_bachelor,2022.2.4,59.912187008330974,
,,,,,,,,,,,,0,0,0,0,156,0,156,0,,,,,,,156,,,1,18682.729947767453,X,None,nogo,None,1,,,,,,,,,,,,,,,,,,,79,001,23,Weiblich ,Bildungswissenschaften ,2023-01-30_13h52.43.173,00_bat_bachelor,2022.2.4,59.912187008330974,
,,,,,,,,,,,,0,0,0,0,157,0,157,0,,,,,,,157,,,1,18684.5314664091,Y,d,go,d,1,0.3379413972143084,,,,,,,,,,,,,,,,,,79,001,23,Weiblich ,Bildungswissenschaften ,2023-01-30_13h52.43.173,00_bat_bachelor,2022.2.4,59.912187008330974,
,,,,,,,,,,,,0,0,0,0,158,0,158,0,,,,,,,158,,,1,18685.982573099434,X,l,go,l,1,0.43900074204429984,,,,,,,,,,,,,,,,,,79,001,23,Weiblich ,Bildungswissenschaften ,2023-01-30_13h52.43.173,00_bat_bachelor,2022.2.4,59.912187008330974,
,,,,,,,,,,,,0,0,0,0,159,0,159,0,,,,,,,159,,,1,18687.53362058988,Y,d,go,d,1,0.4868858098052442,,,,,,,,,,,,,,,,,,79,001,23,Weiblich ,Bildungswissenschaften ,2023-01-30_13h52.43.173,00_bat_bachelor,2022.2.4,59.912187008330974,
,,,,,,,,,,,,0,0,0,0,160,0,160,0,,,,,,,160,,,1,18689.134586116765,X,l,go,l,1,0.42201311397366226,,,,,,,,,,,,,,,,,,79,001,23,Weiblich ,Bildungswissenschaften ,2023-01-30_13h52.43.173,00_bat_bachelor,2022.2.4,59.912187008330974,
,,,,,,,,,,,,0,0,0,0,161,0,161,0,,,,,,,161,,,1,18690.66934706946,X,None,nogo,None,1,,18691.46970110573,,,,,,,,,,,,,,,,,79,001,23,Weiblich ,Bildungswissenschaften ,2023-01-30_13h52.43.173,00_bat_bachelor,2022.2.4,59.912187008330974,
,,,,,,,,,,,,0,0,0,0,162,0,162,0,,,,,,,162,,,1,18692.470473469002,Y,d,go,d,1,0.30268177785910666,,,,,,,,,,,,,,,,,,79,001,23,Weiblich ,Bildungswissenschaften ,2023-01-30_13h52.43.173,00_bat_bachelor,2022.2.4,59.912187008330974,
,,,,,,,,,,,,0,0,0,0,163,0,163,0,,,,,,,163,,,1,18693.888824296417,X,l,go,l,1,0.4050017280969769,,,,,,,,,,,,,,,,,,79,001,23,Weiblich ,Bildungswissenschaften ,2023-01-30_13h52.43.173,00_bat_bachelor,2022.2.4,59.912187008330974,
,,,,,,,,,,,,0,0,0,0,164,0,164,0,,,,,,,164,,,1,18695.406310106162,Y,d,go,d,1,0.3921367647126317,,,,,,,,,,,,,,,,,,79,001,23,Weiblich ,Bildungswissenschaften ,2023-01-30_13h52.43.173,00_bat_bachelor,2022.2.4,59.912187008330974,
,,,,,,,,,,,,0,0,0,0,165,0,165,0,,,,,,,165,,,1,18696.90715495427,X,l,go,l,1,0.28161172731779516,,,,,,,,,,,,,,,,,,79,001,23,Weiblich ,Bildungswissenschaften ,2023-01-30_13h52.43.173,00_bat_bachelor,2022.2.4,59.912187008330974,
,,,,,,,,,,,,0,0,0,0,166,0,166,0,,,,,,,166,,,1,18698.291596464813,X,None,nogo,None,1,,,,,,,,,,,,,,,,,,,79,001,23,Weiblich ,Bildungswissenschaften ,2023-01-30_13h52.43.173,00_bat_bachelor,2022.2.4,59.912187008330974,
,,,,,,,,,,,,0,0,0,0,167,0,167,0,,,,,,,167,,,1,18700.09311947017,Y,d,go,d,1,0.32800734136253595,,,,,,,,,,,,,,,,,,79,001,23,Weiblich ,Bildungswissenschaften ,2023-01-30_13h52.43.173,00_bat_bachelor,2022.2.4,59.912187008330974,
,,,,,,,,,,,,0,0,0,0,168,0,168,0,,,,,,,168,,,1,18701.527621077606,X,l,go,l,1,0.39790354995056987,,,,,,,,,,,,,,,,,,79,001,23,Weiblich ,Bildungswissenschaften ,2023-01-30_13h52.43.173,00_bat_bachelor,2022.2.4,59.912187008330974,
,,,,,,,,,,,,0,0,0,0,169,0,169,0,,,,,,,169,,,1,18703.028524592286,X,None,nogo,None,1,,,,,,,,,,,,,,,,,,,79,001,23,Weiblich ,Bildungswissenschaften ,2023-01-30_13h52.43.173,00_bat_bachelor,2022.2.4,59.912187008330974,
,,,,,,,,,,,,0,0,0,0,170,0,170,0,,,,,,,170,,,1,18704.830041294685,Y,d,go,d,1,0.3747030762024224,,,,,,,,,,,,,,,,,,79,001,23,Weiblich ,Bildungswissenschaften ,2023-01-30_13h52.43.173,00_bat_bachelor,2022.2.4,59.912187008330974,
,,,,,,,,,,,,0,0,0,0,171,0,171,0,,,,,,,171,,,1,18706.314544332447,X,l,go,l,1,0.31538722617551684,,,,,,,,,,,,,,,,,,79,001,23,Weiblich ,Bildungswissenschaften ,2023-01-30_13h52.43.173,00_bat_bachelor,2022.2.4,59.912187008330974,
,,,,,,,,,,,,0,0,0,0,172,0,172,0,,,,,,,172,,,1,18707.73220909969,X,None,nogo,None,1,,,,,,,,,,,,,,,,,,,79,001,23,Weiblich ,Bildungswissenschaften ,2023-01-30_13h52.43.173,00_bat_bachelor,2022.2.4,59.912187008330974,
,,,,,,,,,,,,0,0,0,0,173,0,173,0,,,,,,,173,,,1,18709.533638529247,Y,d,go,d,1,0.344438363565132,,,,,,,,,,,,,,,,,,79,001,23,Weiblich ,Bildungswissenschaften ,2023-01-30_13h52.43.173,00_bat_bachelor,2022.2.4,59.912187008330974,
,,,,,,,,,,,,0,0,0,0,174,0,174,0,,,,,,,174,,,1,18710.984570674133,X,l,go,l,1,0.3005227486137301,,,,,,,,,,,,,,,,,,79,001,23,Weiblich ,Bildungswissenschaften ,2023-01-30_13h52.43.173,00_bat_bachelor,2022.2.4,59.912187008330974,
,,,,,,,,,,,,0,0,0,0,175,0,175,0,,,,,,,175,,,1,18712.385710843373,X,None,nogo,None,1,,,,,,,,,,,,,,,,,,,79,001,23,Weiblich ,Bildungswissenschaften ,2023-01-30_13h52.43.173,00_bat_bachelor,2022.2.4,59.912187008330974,
,,,,,,,,,,,,0,0,0,0,176,0,176,0,,,,,,,176,,,1,18714.187301727477,Y,d,go,d,1,0.2823680907022208,,,,,,,,,,,,,,,,,,79,001,23,Weiblich ,Bildungswissenschaften ,2023-01-30_13h52.43.173,00_bat_bachelor,2022.2.4,59.912187008330974,
,,,,,,,,,,,,0,0,0,0,177,0,177,0,,,,,,,177,,,1,18715.571611844236,X,l,go,l,1,0.32150988979265094,,,,,,,,,,,,,,,,,,79,001,23,Weiblich ,Bildungswissenschaften ,2023-01-30_13h52.43.173,00_bat_bachelor,2022.2.4,59.912187008330974,
,,,,,,,,,,,,0,0,0,0,178,0,178,0,,,,,,,178,,,1,18717.006108118454,Y,d,go,d,1,0.3115811673924327,,,,,,,,,,,,,,,,,,79,001,23,Weiblich ,Bildungswissenschaften ,2023-01-30_13h52.43.173,00_bat_bachelor,2022.2.4,59.912187008330974,
,,,,,,,,,,,,0,0,0,0,179,0,179,0,,,,,,,179,,,1,18718.423600279493,X,l,go,l,1,0.3174381342250854,,,,,,,,,,,,,,,,,,79,001,23,Weiblich ,Bildungswissenschaften ,2023-01-30_13h52.43.173,00_bat_bachelor,2022.2.4,59.912187008330974,
,,,,,,,,,,,,0,0,0,0,180,0,180,0,,,,,,,180,,,1,18719.857969038654,X,None,nogo,None,1,,,,,,,,,,,,,,,,,,,79,001,23,Weiblich ,Bildungswissenschaften ,2023-01-30_13h52.43.173,00_bat_bachelor,2022.2.4,59.912187008330974,
,,,,,,,,,,,,0,0,0,0,181,0,181,0,,,,,,,181,,,1,18721.659488165285,Y,d,go,d,1,0.21748618269339204,,,,,,,,,,,,,,,,,,79,001,23,Weiblich ,Bildungswissenschaften ,2023-01-30_13h52.43.173,00_bat_bachelor,2022.2.4,59.912187008330974,
,,,,,,,,,,,,0,0,0,0,182,0,182,0,,,,,,,182,,,1,18722.993726548506,X,l,go,l,1,0.38752682763151824,,,,,,,,,,,,,,,,,,79,001,23,Weiblich ,Bildungswissenschaften ,2023-01-30_13h52.43.173,00_bat_bachelor,2022.2.4,59.912187008330974,
,,,,,,,,,,,,0,0,0,0,183,0,183,0,,,,,,,183,,,1,18724.49507418438,Y,d,go,d,1,0.390362705104053,,,,,,,,,,,,,,,,,,79,001,23,Weiblich ,Bildungswissenschaften ,2023-01-30_13h52.43.173,00_bat_bachelor,2022.2.4,59.912187008330974,
,,,,,,,,,,,,0,0,0,0,184,0,184,0,,,,,,,184,,,1,18725.99624727457,Y,None,nogo,None,1,,,,,,,,,,,,,,,,,,,79,001,23,Weiblich ,Bildungswissenschaften ,2023-01-30_13h52.43.173,00_bat_bachelor,2022.2.4,59.912187008330974,
,,,,,,,,,,,,0,0,0,0,185,0,185,0,,,,,,,185,,,1,18727.79748228006,X,l,go,l,1,0.271613186923787,,,,,,,,,,,,,,,,,,79,001,23,Weiblich ,Bildungswissenschaften ,2023-01-30_13h52.43.173,00_bat_bachelor,2022.2.4,59.912187008330974,
,,,,,,,,,,,,0,0,0,0,186,0,186,0,,,,,,,186,,,1,18729.181787548354,Y,d,go,d,1,0.3430114551447332,,,,,,,,,,,,,,,,,,79,001,23,Weiblich ,Bildungswissenschaften ,2023-01-30_13h52.43.173,00_bat_bachelor,2022.2.4,59.912187008330974,
,,,,,,,,,,,,0,0,0,0,187,0,187,0,,,,,,,187,,,1,18730.63292817818,X,l,go,l,1,0.2997906277887523,,,,,,,,,,,,,,,,,,79,001,23,Weiblich ,Bildungswissenschaften ,2023-01-30_13h52.43.173,00_bat_bachelor,2022.2.4,59.912187008330974,
,,,,,,,,,,,,0,0,0,0,188,0,188,0,,,,,,,188,,,1,18732.033936953405,X,None,nogo,None,1,,,,,,,,,,,,,,,,,,,79,001,23,Weiblich ,Bildungswissenschaften ,2023-01-30_13h52.43.173,00_bat_bachelor,2022.2.4,59.912187008330974,
,,,,,,,,,,,,0,0,0,0,189,0,189,0,,,,,,,189,,,1,18733.835279110353,Y,d,go,d,1,0.33006697660312057,,,,,,,,,,,,,,,,,,79,001,23,Weiblich ,Bildungswissenschaften ,2023-01-30_13h52.43.173,00_bat_bachelor,2022.2.4,59.912187008330974,
,,,,,,,,,,,,0,0,0,0,190,0,190,0,,,,,,,190,,,1,18735.2697923542,X,l,go,l,1,0.3988703372888267,,,,,,,,,,,,,,,,,,79,001,23,Weiblich ,Bildungswissenschaften ,2023-01-30_13h52.43.173,00_bat_bachelor,2022.2.4,59.912187008330974,
,,,,,,,,,,,,0,0,0,0,191,0,191,0,,,,,,,191,,,1,18736.771076959558,Y,d,go,d,1,0.3537615106906742,,,,,,,,,,,,,,,,,,79,001,23,Weiblich ,Bildungswissenschaften ,2023-01-30_13h52.43.173,00_bat_bachelor,2022.2.4,59.912187008330974,
,,,,,,,,,,,,0,0,0,0,192,0,192,0,,,,,,,192,,,1,18738.239021944813,X,l,go,l,1,0.3579976297914982,,,,,,,,,,,,,,,,,,79,001,23,Weiblich ,Bildungswissenschaften ,2023-01-30_13h52.43.173,00_bat_bachelor,2022.2.4,59.912187008330974,
,,,,,,,,,,,,0,0,0,0,193,0,193,0,,,,,,,193,,,1,18739.706672627246,Y,d,go,d,1,0.36293968791142106,,,,,,,,,,,,,,,,,,79,001,23,Weiblich ,Bildungswissenschaften ,2023-01-30_13h52.43.173,00_bat_bachelor,2022.2.4,59.912187008330974,
,,,,,,,,,,,,0,0,0,0,194,0,194,0,,,,,,,194,,,1,18741.174255915685,X,l,go,l,1,0.31834673997946084,,,,,,,,,,,,,,,,,,79,001,23,Weiblich ,Bildungswissenschaften ,2023-01-30_13h52.43.173,00_bat_bachelor,2022.2.4,59.912187008330974,
,,,,,,,,,,,,0,0,0,0,195,0,195,0,,,,,,,195,,,1,18742.609263704624,Y,d,go,d,1,0.3878361606039107,,,,,,,,,,,,,,,,,,79,001,23,Weiblich ,Bildungswissenschaften ,2023-01-30_13h52.43.173,00_bat_bachelor,2022.2.4,59.912187008330974,
,,,,,,,,,,,,0,0,0,0,196,0,196,0,,,,,,,196,,,1,18744.110248188954,X,l,go,l,1,0.2796141526196152,,,,,,,,,,,,,,,,,,79,001,23,Weiblich ,Bildungswissenschaften ,2023-01-30_13h52.43.173,00_bat_bachelor,2022.2.4,59.912187008330974,
,,,,,,,,,,,,0,0,0,0,197,0,197,0,,,,,,,197,,,1,18745.494374548318,X,None,nogo,None,1,,,,,,,,,,,,,,,,,,,79,001,23,Weiblich ,Bildungswissenschaften ,2023-01-30_13h52.43.173,00_bat_bachelor,2022.2.4,59.912187008330974,
,,,,,,,,,,,,0,0,0,0,198,0,198,0,,,,,,,198,,,1,18747.295566402143,Y,d,go,d,1,0.326749644940719,,,,,,,,,,,,,,,,,,79,001,23,Weiblich ,Bildungswissenschaften ,2023-01-30_13h52.43.173,00_bat_bachelor,2022.2.4,59.912187008330974,
,,,,,,,,,,,,0,0,0,0,199,0,199,0,,,,,,,199,,,1,18748.730212494498,X,l,go,l,1,0.2670352493878454,,,,,,,,,,,,,,,,,,79,001,23,Weiblich ,Bildungswissenschaften ,2023-01-30_13h52.43.173,00_bat_bachelor,2022.2.4,59.912187008330974,
,,,,,,,,,,,,0,0,0,0,200,0,200,0,,,,,,,200,,,1,18750.097864195006,X,None,nogo,None,1,,18750.89859447349,,,,,,,,,,,,,,,,,79,001,23,Weiblich ,Bildungswissenschaften ,2023-01-30_13h52.43.173,00_bat_bachelor,2022.2.4,59.912187008330974,
,,,,,,,,,,,,0,0,0,0,201,0,201,0,,,,,,,201,,,1,18751.899349867133,Y,d,go,d,1,0.23376399301923811,,,,,,,,,,,,,,,,,,79,001,23,Weiblich ,Bildungswissenschaften ,2023-01-30_13h52.43.173,00_bat_bachelor,2022.2.4,59.912187008330974,
,,,,,,,,,,,,0,0,0,0,202,0,202,0,,,,,,,202,,,1,18753.25038678781,X,l,go,l,1,0.3231748586986214,,,,,,,,,,,,,,,,,,79,001,23,Weiblich ,Bildungswissenschaften ,2023-01-30_13h52.43.173,00_bat_bachelor,2022.2.4,59.912187008330974,
,,,,,,,,,,,,0,0,0,0,203,0,203,0,,,,,,,203,,,1,18754.6845373651,X,None,nogo,None,1,,,,,,,,,,,,,,,,,,,79,001,23,Weiblich ,Bildungswissenschaften ,2023-01-30_13h52.43.173,00_bat_bachelor,2022.2.4,59.912187008330974,
,,,,,,,,,,,,0,0,0,0,204,0,204,0,,,,,,,204,,,1,18756.4861427946,X,None,nogo,None,1,,,,,,,,,,,,,,,,,,,79,001,23,Weiblich ,Bildungswissenschaften ,2023-01-30_13h52.43.173,00_bat_bachelor,2022.2.4,59.912187008330974,
,,,,,,,,,,,,0,0,0,0,205,0,205,0,,,,,,,205,,,1,18758.287635739427,Y,d,go,d,1,0.3101028648670763,,,,,,,,,,,,,,,,,,79,001,23,Weiblich ,Bildungswissenschaften ,2023-01-30_13h52.43.173,00_bat_bachelor,2022.2.4,59.912187008330974,
,,,,,,,,,,,,0,0,0,0,206,0,206,0,,,,,,,206,,,1,18759.70521226432,X,l,go,l,1,0.29980226419866085,,,,,,,,,,,,,,,,,,79,001,23,Weiblich ,Bildungswissenschaften ,2023-01-30_13h52.43.173,00_bat_bachelor,2022.2.4,59.912187008330974,
,,,,,,,,,,,,0,0,0,0,207,0,207,0,,,,,,,207,,,1,18761.106281645596,X,None,nogo,None,1,,,,,,,,,,,,,,,,,,,79,001,23,Weiblich ,Bildungswissenschaften ,2023-01-30_13h52.43.173,00_bat_bachelor,2022.2.4,59.912187008330974,
,,,,,,,,,,,,0,0,0,0,208,0,208,0,,,,,,,208,,,1,18762.9074550753,Y,d,go,d,1,0.3618012643419206,,,,,,,,,,,,,,,,,,79,001,23,Weiblich ,Bildungswissenschaften ,2023-01-30_13h52.43.173,00_bat_bachelor,2022.2.4,59.912187008330974,
,,,,,,,,,,,,0,0,0,0,209,0,209,0,,,,,,,209,,,1,18764.375356424134,X,l,go,l,1,0.33329121745191514,,,,,,,,,,,,,,,,,,79,001,23,Weiblich ,Bildungswissenschaften ,2023-01-30_13h52.43.173,00_bat_bachelor,2022.2.4,59.912187008330974,
,,,,,,,,,,,,0,0,0,0,210,0,210,0,,,,,,,210,,,1,18765.80973778921,X,None,nogo,None,1,,,,,,,,,,,,,,,,,,,79,001,23,Weiblich ,Bildungswissenschaften ,2023-01-30_13h52.43.173,00_bat_bachelor,2022.2.4,59.912187008330974,
,,,,,,,,,,,,0,0,0,0,211,0,211,0,,,,,,,211,,,1,18767.61133352178,X,None,nogo,l,0,0.37786234728991985,,,,,,,,,,,,,,,,,,79,001,23,Weiblich ,Bildungswissenschaften ,2023-01-30_13h52.43.173,00_bat_bachelor,2022.2.4,59.912187008330974,
,,,,,,,,,,,,0,0,0,0,212,0,212,0,,,,,,,212,,,1,18769.096198256593,Y,d,go,d,1,0.3175399524625391,,,,,,,,,,,,,,,,,,79,001,23,Weiblich ,Bildungswissenschaften ,2023-01-30_13h52.43.173,00_bat_bachelor,2022.2.4,59.912187008330974,
,,,,,,,,,,,,0,0,0,0,213,0,213,0,,,,,,,213,,,1,18770.529929440236,X,l,go,l,1,0.5155282199848443,,,,,,,,,,,,,,,,,,79,001,23,Weiblich ,Bildungswissenschaften ,2023-01-30_13h52.43.173,00_bat_bachelor,2022.2.4,59.912187008330974,
,,,,,,,,,,,,0,0,0,0,214,0,214,0,,,,,,,214,,,1,18772.148031443357,Y,d,go,d,1,0.4337275323923677,,,,,,,,,,,,,,,,,,79,001,23,Weiblich ,Bildungswissenschaften ,2023-01-30_13h52.43.173,00_bat_bachelor,2022.2.4,59.912187008330974,
,,,,,,,,,,,,0,0,0,0,215,0,215,0,,,,,,,215,,,1,18773.682671669172,X,l,go,l,1,0.2754711243323982,,,,,,,,,,,,,,,,,,79,001,23,Weiblich ,Bildungswissenschaften ,2023-01-30_13h52.43.173,00_bat_bachelor,2022.2.4,59.912187008330974,
,,,,,,,,,,,,0,0,0,0,216,0,216,0,,,,,,,216,,,1,18775.066873664735,X,None,nogo,None,1,,,,,,,,,,,,,,,,,,,79,001,23,Weiblich ,Bildungswissenschaften ,2023-01-30_13h52.43.173,00_bat_bachelor,2022.2.4,59.912187008330974,
,,,,,,,,,,,,0,0,0,0,217,0,217,0,,,,,,,217,,,1,18776.868347215466,Y,d,go,d,1,0.27315888297744095,,,,,,,,,,,,,,,,,,79,001,23,Weiblich ,Bildungswissenschaften ,2023-01-30_13h52.43.173,00_bat_bachelor,2022.2.4,59.912187008330974,
,,,,,,,,,,,,0,0,0,0,218,0,218,0,,,,,,,218,,,1,18778.25283284718,X,l,go,l,1,0.4093222108203918,,,,,,,,,,,,,,,,,,79,001,23,Weiblich ,Bildungswissenschaften ,2023-01-30_13h52.43.173,00_bat_bachelor,2022.2.4,59.912187008330974,
,,,,,,,,,,,,0,0,0,0,219,0,219,0,,,,,,,219,,,1,18779.770307990257,Y,d,go,d,1,0.28239087853580713,,,,,,,,,,,,,,,,,,79,001,23,Weiblich ,Bildungswissenschaften ,2023-01-30_13h52.43.173,00_bat_bachelor,2022.2.4,59.912187008330974,
,,,,,,,,,,,,0,0,0,0,220,0,220,0,,,,,,,220,,,1,18781.15495313704,Y,None,nogo,None,1,,,,,,,,,,,,,,,,,,,79,001,23,Weiblich ,Bildungswissenschaften ,2023-01-30_13h52.43.173,00_bat_bachelor,2022.2.4,59.912187008330974,
,,,,,,,,,,,,0,0,0,0,221,0,221,0,,,,,,,221,,,1,18782.956278809113,X,l,go,l,1,0.23250532685779035,,,,,,,,,,,,,,,,,,79,001,23,Weiblich ,Bildungswissenschaften ,2023-01-30_13h52.43.173,00_bat_bachelor,2022.2.4,59.912187008330974,
,,,,,,,,,,,,0,0,0,0,222,0,222,0,,,,,,,222,,,1,18784.29052931373,Y,d,go,d,1,0.5144242206588387,,,,,,,,,,,,,,,,,,79,001,23,Weiblich ,Bildungswissenschaften ,2023-01-30_13h52.43.173,00_bat_bachelor,2022.2.4,59.912187008330974,
,,,,,,,,,,,,0,0,0,0,223,0,223,0,,,,,,,223,,,1,18785.90882574115,X,l,go,l,1,0.3683961699716747,,,,,,,,,,,,,,,,,,79,001,23,Weiblich ,Bildungswissenschaften ,2023-01-30_13h52.43.173,00_bat_bachelor,2022.2.4,59.912187008330974,
,,,,,,,,,,,,0,0,0,0,224,0,224,0,,,,,,,224,,,1,18787.392965142848,Y,d,go,d,1,0.2919637223239988,,,,,,,,,,,,,,,,,,79,001,23,Weiblich ,Bildungswissenschaften ,2023-01-30_13h52.43.173,00_bat_bachelor,2022.2.4,59.912187008330974,
,,,,,,,,,,,,0,0,0,0,225,0,225,0,,,,,,,225,,,1,18788.794128584675,X,l,go,l,1,0.3155152259860188,,,,,,,,,,,,,,,,,,79,001,23,Weiblich ,Bildungswissenschaften ,2023-01-30_13h52.43.173,00_bat_bachelor,2022.2.4,59.912187008330974,
,,,,,,,,,,,,0,0,0,0,226,0,226,0,,,,,,,226,,,1,18790.211590685416,Y,d,go,d,1,0.288800087524578,,,,,,,,,,,,,,,,,,79,001,23,Weiblich ,Bildungswissenschaften ,2023-01-30_13h52.43.173,00_bat_bachelor,2022.2.4,59.912187008330974,
,,,,,,,,,,,,0,0,0,0,227,0,227,0,,,,,,,227,,,1,18791.613655945053,X,l,go,l,1,0.2636931906454265,,,,,,,,,,,,,,,,,,79,001,23,Weiblich ,Bildungswissenschaften ,2023-01-30_13h52.43.173,00_bat_bachelor,2022.2.4,59.912187008330974,
,,,,,,,,,,,,0,0,0,0,228,0,228,0,,,,,,,228,,,1,18792.981123887934,Y,d,go,d,1,0.2703293086960912,,,,,,,,,,,,,,,,,,79,001,23,Weiblich ,Bildungswissenschaften ,2023-01-30_13h52.43.173,00_bat_bachelor,2022.2.4,59.912187008330974,
,,,,,,,,,,,,0,0,0,0,229,0,229,0,,,,,,,229,,,1,18794.39888804918,Y,None,nogo,None,1,,18795.19957032753,,,,,,,,,,,,,,,,,79,001,23,Weiblich ,Bildungswissenschaften ,2023-01-30_13h52.43.173,00_bat_bachelor,2022.2.4,59.912187008330974,
,,,,,,,,,,,,0,0,0,0,230,0,230,0,,,,,,,230,,,1,18796.20048135752,X,l,go,l,1,0.33228952111676335,,,,,,,,,,,,,,,,,,79,001,23,Weiblich ,Bildungswissenschaften ,2023-01-30_13h52.43.173,00_bat_bachelor,2022.2.4,59.912187008330974,
,,,,,,,,,,,,0,0,0,0,231,0,231,0,,,,,,,231,,,1,18797.651597260032,Y,d,go,d,1,0.384945010766387,,,,,,,,,,,,,,,,,,79,001,23,Weiblich ,Bildungswissenschaften ,2023-01-30_13h52.43.173,00_bat_bachelor,2022.2.4,59.912187008330974,
,,,,,,,,,,,,0,0,0,0,232,0,232,0,,,,,,,232,,,1,18799.169454463292,Y,None,nogo,None,1,,18799.970115408534,,,,,,,,,,,,,,,,,79,001,23,Weiblich ,Bildungswissenschaften ,2023-01-30_13h52.43.173,00_bat_bachelor,2022.2.4,59.912187008330974,
,,,,,,,,,,,,0,0,0,0,233,0,233,0,,,,,,,233,,,1,18800.970804377925,X,l,go,l,1,0.21780084911733866,,,,,,,,,,,,,,,,,,79,001,23,Weiblich ,Bildungswissenschaften ,2023-01-30_13h52.43.173,00_bat_bachelor,2022.2.4,59.912187008330974,
,,,,,,,,,,,,0,0,0,0,234,0,234,0,,,,,,,234,,,1,18802.32186990464,Y,d,go,d,1,0.24219453451223671,,,,,,,,,,,,,,,,,,79,001,23,Weiblich ,Bildungswissenschaften ,2023-01-30_13h52.43.173,00_bat_bachelor,2022.2.4,59.912187008330974,
,,,,,,,,,,,,0,0,0,0,235,0,235,0,,,,,,,235,,,1,18803.689499787055,Y,None,nogo,None,1,,18804.48996339878,,,,,,,,,,,,,,,,,79,001,23,Weiblich ,Bildungswissenschaften ,2023-01-30_13h52.43.173,00_bat_bachelor,2022.2.4,59.912187008330974,
,,,,,,,,,,,,0,0,0,0,236,0,236,0,,,,,,,236,,,1,18805.4908972166,X,l,go,l,1,0.14586342964321375,,,,,,,,,,,,,,,,,,79,001,23,Weiblich ,Bildungswissenschaften ,2023-01-30_13h52.43.173,00_bat_bachelor,2022.2.4,59.912187008330974,
,,,,,,,,,,,,0,0,0,0,237,0,237,0,,,,,,,237,,,1,18806.774977563648,Y,d,go,d,1,0.39696342893876135,,,,,,,,,,,,,,,,,,79,001,23,Weiblich ,Bildungswissenschaften ,2023-01-30_13h52.43.173,00_bat_bachelor,2022.2.4,59.912187008330974,
,,,,,,,,,,,,0,0,0,0,238,0,238,0,,,,,,,238,,,1,18808.292805191362,X,l,go,l,1,0.2553077400662005,,,,,,,,,,,,,,,,,,79,001,23,Weiblich ,Bildungswissenschaften ,2023-01-30_13h52.43.173,00_bat_bachelor,2022.2.4,59.912187008330974,
,,,,,,,,,,,,0,0,0,0,239,0,239,0,,,,,,,239,,,1,18809.677169126226,Y,d,go,d,1,0.3597358106635511,,,,,,,,,,,,,,,,,,79,001,23,Weiblich ,Bildungswissenschaften ,2023-01-30_13h52.43.173,00_bat_bachelor,2022.2.4,59.912187008330974,
,,,,,,,,,,,,0,0,0,0,240,0,240,0,,,,,,,240,,,1,18811.161881618667,X,l,go,l,1,0.23431332618929446,,,,,,,,,,,,,,,,,,79,001,23,Weiblich ,Bildungswissenschaften ,2023-01-30_13h52.43.173,00_bat_bachelor,2022.2.4,59.912187008330974,
,,,,,,,,,,,,0,0,0,0,241,0,241,0,,,,,,,241,,,1,18812.529353440506,Y,d,go,d,1,0.5145255539100617,,,,,,,,,,,,,,,,,,79,001,23,Weiblich ,Bildungswissenschaften ,2023-01-30_13h52.43.173,00_bat_bachelor,2022.2.4,59.912187008330974,
,,,,,,,,,,,,0,0,0,0,242,0,242,0,,,,,,,242,,,1,18814.16395095084,X,l,go,l,1,0.36843592766672373,,,,,,,,,,,,,,,,,,79,001,23,Weiblich ,Bildungswissenschaften ,2023-01-30_13h52.43.173,00_bat_bachelor,2022.2.4,59.912187008330974,
,,,,,,,,,,,,0,0,0,0,243,0,243,0,,,,,,,243,,,1,18815.665311192628,Y,d,go,d,1,0.5317720910534263,,,,,,,,,,,,,,,,,,79,001,23,Weiblich ,Bildungswissenschaften ,2023-01-30_13h52.43.173,00_bat_bachelor,2022.2.4,59.912187008330974,
,,,,,,,,,,,,0,0,0,0,244,0,244,0,,,,,,,244,,,1,18817.299787975848,X,l,go,l,1,0.28910893597640097,,,,,,,,,,,,,,,,,,79,001,23,Weiblich ,Bildungswissenschaften ,2023-01-30_13h52.43.173,00_bat_bachelor,2022.2.4,59.912187008330974,
,,,,,,,,,,,,0,0,0,0,245,0,245,0,,,,,,,245,,,1,18818.700966933044,Y,d,go,d,1,0.3592407808173448,,,,,,,,,,,,,,,,,,79,001,23,Weiblich ,Bildungswissenschaften ,2023-01-30_13h52.43.173,00_bat_bachelor,2022.2.4,59.912187008330974,
,,,,,,,,,,,,0,0,0,0,246,0,246,0,,,,,,,246,,,1,18820.20191408391,X,l,go,l,1,0.2666536739561707,,,,,,,,,,,,,,,,,,79,001,23,Weiblich ,Bildungswissenschaften ,2023-01-30_13h52.43.173,00_bat_bachelor,2022.2.4,59.912187008330974,
,,,,,,,,,,,,0,0,0,0,247,0,247,0,,,,,,,247,,,1,18821.586266382597,X,None,nogo,None,1,,18822.386836661026,,,,,,,,,,,,,,,,,79,001,23,Weiblich ,Bildungswissenschaften ,2023-01-30_13h52.43.173,00_bat_bachelor,2022.2.4,59.912187008330974,
,,,,,,,,,,,,0,0,0,0,248,0,248,0,,,,,,,248,,,1,18823.387868418125,Y,d,go,d,1,0.13648985838517547,,,,,,,,,,,,,,,,,,79,001,23,Weiblich ,Bildungswissenschaften ,2023-01-30_13h52.43.173,00_bat_bachelor,2022.2.4,59.912187008330974,
,,,,,,,,,,,,0,0,0,0,249,0,249,0,,,,,,,249,,,1,18824.655479439767,X,l,go,l,1,0.24451550282537937,,,,,,,,,,,,,,,,,,79,001,23,Weiblich ,Bildungswissenschaften ,2023-01-30_13h52.43.173,00_bat_bachelor,2022.2.4,59.912187008330974,
,,,,,,,,,,,,1,0,1,0,0,0,0,0,,,,,,,0,,,0.2,18888.703977840487,X,l,go,l,1,0.38887761486694217,,,,,,,,,18825.051716823597,space,63.420879538636655,,,,,,,79,001,23,Weiblich ,Bildungswissenschaften ,2023-01-30_13h52.43.173,00_bat_bachelor,2022.2.4,59.912187008330974,
,,,,,,,,,,,,1,0,1,0,1,0,1,0,,,,,,,1,,,0.2,18889.404487561435,Y,d,go,d,1,0.45701867272146046,,,,,,,,,,,,,,,,,,79,001,23,Weiblich ,Bildungswissenschaften ,2023-01-30_13h52.43.173,00_bat_bachelor,2022.2.4,59.912187008330974,
,,,,,,,,,,,,1,0,1,0,2,0,2,0,,,,,,,2,,,0.2,18890.171555310953,X,l,go,l,1,0.3450177572667599,,,,,,,,,,,,,,,,,,79,001,23,Weiblich ,Bildungswissenschaften ,2023-01-30_13h52.43.173,00_bat_bachelor,2022.2.4,59.912187008330974,
,,,,,,,,,,,,1,0,1,0,3,0,3,0,,,,,,,3,,,0.2,18890.82227063179,X,None,nogo,None,1,,18891.622937395005,,,,,,,,,,,,,,,,,79,001,23,Weiblich ,Bildungswissenschaften ,2023-01-30_13h52.43.173,00_bat_bachelor,2022.2.4,59.912187008330974,
,,,,,,,,,,,,1,0,1,0,4,0,4,0,,,,,,,4,,,0.2,18891.822831601137,Y,d,go,d,1,0.3733488949947059,,,,,,,,,,,,,,,,,,79,001,23,Weiblich ,Bildungswissenschaften ,2023-01-30_13h52.43.173,00_bat_bachelor,2022.2.4,59.912187008330974,
,,,,,,,,,,,,1,0,1,0,5,0,5,0,,,,,,,5,,,0.2,18892.50685066334,X,l,go,l,1,0.5218860351014882,,,,,,,,,,,,,,,,,,79,001,23,Weiblich ,Bildungswissenschaften ,2023-01-30_13h52.43.173,00_bat_bachelor,2022.2.4,59.912187008330974,
,,,,,,,,,,,,1,0,1,0,6,0,6,0,,,,,,,6,,,0.2,18893.357521281345,Y,d,go,d,1,0.5997259973082691,,,,,,,,,,,,,,,,,,79,001,23,Weiblich ,Bildungswissenschaften ,2023-01-30_13h52.43.173,00_bat_bachelor,2022.2.4,59.912187008330974,
,,,,,,,,,,,,1,0,1,0,7,0,7,0,,,,,,,7,,,0.2,18894.257993087173,Y,None,nogo,None,1,,18895.058807729045,,,,,,,,,,,,,,,,,79,001,23,Weiblich ,Bildungswissenschaften ,2023-01-30_13h52.43.173,00_bat_bachelor,2022.2.4,59.912187008330974,
,,,,,,,,,,,,1,0,1,0,8,0,8,0,,,,,,,8,,,0.2,18895.258917692816,X,l,go,l,1,0.2015792813617736,,,,,,,,,,,,,,,,,,79,001,23,Weiblich ,Bildungswissenschaften ,2023-01-30_13h52.43.173,00_bat_bachelor,2022.2.4,59.912187008330974,
,,,,,,,,,,,,1,0,1,0,9,0,9,0,,,,,,,9,,,0.2,18895.775396957528,Y,d,go,d,1,0.5816799455787987,,,,,,,,,,,,,,,,,,79,001,23,Weiblich ,Bildungswissenschaften ,2023-01-30_13h52.43.173,00_bat_bachelor,2022.2.4,59.912187008330974,
,,,,,,,,,,,,1,0,1,0,10,0,10,0,,,,,,,10,,,0.2,18896.659638468176,Y,None,nogo,d,0,0.48199563031084836,,,,,,,,,,,,,,,,,,79,001,23,Weiblich ,Bildungswissenschaften ,2023-01-30_13h52.43.173,00_bat_bachelor,2022.2.4,59.912187008330974,
,,,,,,,,,,,,1,0,1,0,11,0,11,0,,,,,,,11,,,0.2,18897.443429118488,X,l,go,l,1,0.4980731981340796,,,,,,,,,,,,,,,,,,79,001,23,Weiblich ,Bildungswissenschaften ,2023-01-30_13h52.43.173,00_bat_bachelor,2022.2.4,59.912187008330974,
,,,,,,,,,,,,1,0,1,0,12,0,12,0,,,,,,,12,,,0.2,18898.244097336195,Y,d,go,d,1,0.528939607553184,,,,,,,,,,,,,,,,,,79,001,23,Weiblich ,Bildungswissenschaften ,2023-01-30_13h52.43.173,00_bat_bachelor,2022.2.4,59.912187008330974,
,,,,,,,,,,,,1,0,1,0,13,0,13,0,,,,,,,13,,,0.2,18899.078055719845,X,l,go,l,1,0.44636995042674243,,,,,,,,,,,,,,,,,,79,001,23,Weiblich ,Bildungswissenschaften ,2023-01-30_13h52.43.173,00_bat_bachelor,2022.2.4,59.912187008330974,
,,,,,,,,,,,,1,0,1,0,14,0,14,0,,,,,,,14,,,0.2,18899.828414628748,Y,d,go,d,1,0.4162094802595675,,,,,,,,,,,,,,,,,,79,001,23,Weiblich ,Bildungswissenschaften ,2023-01-30_13h52.43.173,00_bat_bachelor,2022.2.4,59.912187008330974,
,,,,,,,,,,,,1,0,1,0,15,0,15,0,,,,,,,15,,,0.2,18900.545926523162,X,l,go,l,1,0.4665328497067094,,,,,,,,,,,,,,,,,,79,001,23,Weiblich ,Bildungswissenschaften ,2023-01-30_13h52.43.173,00_bat_bachelor,2022.2.4,59.912187008330974,
,,,,,,,,,,,,1,0,1,0,16,0,16,0,,,,,,,16,,,0.2,18901.31289827265,Y,d,go,d,1,0.30810044170357287,,,,,,,,,,,,,,,,,,79,001,23,Weiblich ,Bildungswissenschaften ,2023-01-30_13h52.43.173,00_bat_bachelor,2022.2.4,59.912187008330974,
,,,,,,,,,,,,1,0,1,0,17,0,17,0,,,,,,,17,,,0.2,18901.93020463991,X,l,go,l,1,0.36368635413236916,,,,,,,,,,,,,,,,,,79,001,23,Weiblich ,Bildungswissenschaften ,2023-01-30_13h52.43.173,00_bat_bachelor,2022.2.4,59.912187008330974,
,,,,,,,,,,,,1,0,1,0,18,0,18,0,,,,,,,18,,,0.2,18902.597362134606,Y,d,go,d,1,0.544363115215674,,,,,,,,,,,,,,,,,,79,001,23,Weiblich ,Bildungswissenschaften ,2023-01-30_13h52.43.173,00_bat_bachelor,2022.2.4,59.912187008330974,
,,,,,,,,,,,,1,0,1,0,19,0,19,0,,,,,,,19,,,0.2,18903.447864995105,Y,None,nogo,None,1,,,,,,,,,,,,,,,,,,,79,001,23,Weiblich ,Bildungswissenschaften ,2023-01-30_13h52.43.173,00_bat_bachelor,2022.2.4,59.912187008330974,
,,,,,,,,,,,,1,0,1,0,20,0,20,0,,,,,,,20,,,0.2,18904.449613842648,X,l,go,l,1,0.3864955552853644,,,,,,,,,,,,,,,,,,79,001,23,Weiblich ,Bildungswissenschaften ,2023-01-30_13h52.43.173,00_bat_bachelor,2022.2.4,59.912187008330974,
,,,,,,,,,,,,1,0,1,0,21,0,21,0,,,,,,,21,,,0.2,18905.183573244372,Y,d,go,d,1,0.32426479761488736,,,,,,,,,,,,,,,,,,79,001,23,Weiblich ,Bildungswissenschaften ,2023-01-30_13h52.43.173,00_bat_bachelor,2022.2.4,59.912187008330974,
,,,,,,,,,,,,1,0,1,0,22,0,22,0,,,,,,,22,,,0.2,18905.85048492113,Y,None,nogo,d,0,0.4592882473953068,,,,,,,,,,,,,,,,,,79,001,23,Weiblich ,Bildungswissenschaften ,2023-01-30_13h52.43.173,00_bat_bachelor,2022.2.4,59.912187008330974,
,,,,,,,,,,,,1,0,1,0,23,0,23,0,,,,,,,23,,,0.2,18906.634658601368,X,l,go,l,1,0.3783059837296605,,,,,,,,,,,,,,,,,,79,001,23,Weiblich ,Bildungswissenschaften ,2023-01-30_13h52.43.173,00_bat_bachelor,2022.2.4,59.912187008330974,
,,,,,,,,,,,,1,0,1,0,24,0,24,0,,,,,,,24,,,0.2,18907.351908677956,Y,d,go,None,0,,18908.152229259722,,,,,,,,,,,,,,,,,79,001,23,Weiblich ,Bildungswissenschaften ,2023-01-30_13h52.43.173,00_bat_bachelor,2022.2.4,59.912187008330974,
,,,,,,,,,,,,1,0,1,0,25,0,25,0,,,,,,,25,,,0.2,18908.352563707856,Y,None,nogo,None,1,,18909.153431198327,,,,,,,,,,,,,,,,,79,001,23,Weiblich ,Bildungswissenschaften ,2023-01-30_13h52.43.173,00_bat_bachelor,2022.2.4,59.912187008330974,
,,,,,,,,,,,,1,0,1,0,26,0,26,0,,,,,,,26,,,0.2,18909.353360798443,X,l,go,l,1,0.3783166501671076,,,,,,,,,,,,,,,,,,79,001,23,Weiblich ,Bildungswissenschaften ,2023-01-30_13h52.43.173,00_bat_bachelor,2022.2.4,59.912187008330974,
,,,,,,,,,,,,1,0,1,0,27,0,27,0,,,,,,,27,,,0.2,18910.070570632583,Y,d,go,d,1,0.3827239207457751,,,,,,,,,,,,,,,,,,79,001,23,Weiblich ,Bildungswissenschaften ,2023-01-30_13h52.43.173,00_bat_bachelor,2022.2.4,59.912187008330974,
,,,,,,,,,,,,1,0,1,0,28,0,28,0,,,,,,,28,,,0.2,18910.77085877792,X,l,go,l,1,0.5616862582974136,,,,,,,,,,,,,,,,,,79,001,23,Weiblich ,Bildungswissenschaften ,2023-01-30_13h52.43.173,00_bat_bachelor,2022.2.4,59.912187008330974,
,,,,,,,,,,,,1,0,1,0,29,0,29,0,,,,,,,29,,,0.2,18911.671614704654,X,None,nogo,l,0,0.444560012081638,,,,,,,,,,,,,,,,,,79,001,23,Weiblich ,Bildungswissenschaften ,2023-01-30_13h52.43.173,00_bat_bachelor,2022.2.4,59.912187008330974,
,,,,,,,,,,,,1,0,1,0,30,0,30,0,,,,,,,30,,,0.2,18912.455704506487,Y,d,go,None,0,,18913.25650217873,,,,,,,,,,,,,,,,,79,001,23,Weiblich ,Bildungswissenschaften ,2023-01-30_13h52.43.173,00_bat_bachelor,2022.2.4,59.912187008330974,
,,,,,,,,,,,,1,0,1,0,31,0,31,0,,,,,,,31,,,0.2,18913.456256263657,X,l,go,l,1,0.45242522028274834,,,,,,,,,,,,,,,,,,79,001,23,Weiblich ,Bildungswissenschaften ,2023-01-30_13h52.43.173,00_bat_bachelor,2022.2.4,59.912187008330974,
,,,,,,,,,,,,1,0,1,0,32,0,32,0,,,,,,,32,,,0.2,18914.22381225531,Y,d,go,d,1,0.27698094164952636,,,,,,,,,,,,,,,,,,79,001,23,Weiblich ,Bildungswissenschaften ,2023-01-30_13h52.43.173,00_bat_bachelor,2022.2.4,59.912187008330974,
,,,,,,,,,,,,1,0,1,0,33,0,33,0,,,,,,,33,,,0.2,18914.840870865155,X,l,go,l,1,0.39567906595766544,,,,,,,,,,,,,,,,,,79,001,23,Weiblich ,Bildungswissenschaften ,2023-01-30_13h52.43.173,00_bat_bachelor,2022.2.4,59.912187008330974,
,,,,,,,,,,,,1,0,1,0,34,0,34,0,,,,,,,34,,,0.2,18915.574751721462,X,None,nogo,d,0,0.36536247469484806,,,,,,,,,,,,,,,,,,79,001,23,Weiblich ,Bildungswissenschaften ,2023-01-30_13h52.43.173,00_bat_bachelor,2022.2.4,59.912187008330974,
,,,,,,,,,,,,1,0,1,0,35,0,35,0,,,,,,,35,,,0.2,18916.275377321057,Y,d,go,None,0,,18917.07606056938,,,,,,,,,,,,,,,,,79,001,23,Weiblich ,Bildungswissenschaften ,2023-01-30_13h52.43.173,00_bat_bachelor,2022.2.4,59.912187008330974,
,,,,,,,,,,,,1,0,1,0,36,0,36,0,,,,,,,36,,,0.2,18917.275821442017,X,l,go,l,1,0.4079636661335826,,,,,,,,,,,,,,,,,,79,001,23,Weiblich ,Bildungswissenschaften ,2023-01-30_13h52.43.173,00_bat_bachelor,2022.2.4,59.912187008330974,
,,,,,,,,,,,,1,0,1,0,37,0,37,0,,,,,,,37,,,0.2,18918.02610035101,Y,d,go,None,0,,18918.82636614493,,,,,,,,,,,,,,,,,79,001,23,Weiblich ,Bildungswissenschaften ,2023-01-30_13h52.43.173,00_bat_bachelor,2022.2.4,59.912187008330974,
,,,,,,,,,,,,1,0,1,0,38,0,38,0,,,,,,,38,,,0.2,18919.02666665381,Y,None,nogo,None,1,,18919.827048326377,,,,,,,,,,,,,,,,,79,001,23,Weiblich ,Bildungswissenschaften ,2023-01-30_13h52.43.173,00_bat_bachelor,2022.2.4,59.912187008330974,
,,,,,,,,,,,,1,0,1,0,39,0,39,0,,,,,,,39,,,0.2,18920.027298895875,X,l,go,l,1,0.16877687303349376,,,,,,,,,,,,,,,,,,79,001,23,Weiblich ,Bildungswissenschaften ,2023-01-30_13h52.43.173,00_bat_bachelor,2022.2.4,59.912187008330974,
,,,,,,,,,,,,1,0,1,0,40,0,40,0,,,,,,,40,,,0.2,18920.511247267248,Y,d,go,d,1,0.5654797109309584,,,,,,,,,,,,,,,,,,79,001,23,Weiblich ,Bildungswissenschaften ,2023-01-30_13h52.43.173,00_bat_bachelor,2022.2.4,59.912187008330974,
,,,,,,,,,,,,1,0,1,0,41,0,41,0,,,,,,,41,,,0.2,18921.378446846968,X,l,go,l,1,0.5158482198603451,,,,,,,,,,,,,,,,,,79,001,23,Weiblich ,Bildungswissenschaften ,2023-01-30_13h52.43.173,00_bat_bachelor,2022.2.4,59.912187008330974,
,,,,,,,,,,,,1,0,1,0,42,0,42,0,,,,,,,42,,,0.2,18922.19553008722,Y,d,go,d,1,0.5459092962555587,,,,,,,,,,,,,,,,,,79,001,23,Weiblich ,Bildungswissenschaften ,2023-01-30_13h52.43.173,00_bat_bachelor,2022.2.4,59.912187008330974,
,,,,,,,,,,,,1,0,1,0,43,0,43,0,,,,,,,43,,,0.2,18923.046406280715,Y,None,nogo,None,1,,,,,,,,,,,,,,,,,,,79,001,23,Weiblich ,Bildungswissenschaften ,2023-01-30_13h52.43.173,00_bat_bachelor,2022.2.4,59.912187008330974,
,,,,,,,,,,,,1,0,1,0,44,0,44,0,,,,,,,44,,,0.2,18924.047138886293,X,l,go,l,1,0.23110605496913195,,,,,,,,,,,,,,,,,,79,001,23,Weiblich ,Bildungswissenschaften ,2023-01-30_13h52.43.173,00_bat_bachelor,2022.2.4,59.912187008330974,
,,,,,,,,,,,,1,0,1,0,45,0,45,0,,,,,,,45,,,0.2,18924.58068383974,Y,d,go,d,1,0.3834516778588295,,,,,,,,,,,,,,,,,,79,001,23,Weiblich ,Bildungswissenschaften ,2023-01-30_13h52.43.173,00_bat_bachelor,2022.2.4,59.912187008330974,
,,,,,,,,,,,,1,0,1,0,46,0,46,0,,,,,,,46,,,0.2,18925.26475138683,X,l,go,l,1,0.4040397892240435,,,,,,,,,,,,,,,,,,79,001,23,Weiblich ,Bildungswissenschaften ,2023-01-30_13h52.43.173,00_bat_bachelor,2022.2.4,59.912187008330974,
,,,,,,,,,,,,1,0,1,0,47,0,47,0,,,,,,,47,,,0.2,18925.98193455441,X,None,nogo,None,1,,,,,,,,,,,,,,,,,,,79,001,23,Weiblich ,Bildungswissenschaften ,2023-01-30_13h52.43.173,00_bat_bachelor,2022.2.4,59.912187008330974,
,,,,,,,,,,,,1,0,1,0,48,0,48,0,,,,,,,48,,,0.2,18926.982928978046,Y,d,go,d,1,0.20607043080963194,,,,,,,,,,,,,,,,,,79,001,23,Weiblich ,Bildungswissenschaften ,2023-01-30_13h52.43.173,00_bat_bachelor,2022.2.4,59.912187008330974,
,,,,,,,,,,,,1,0,1,0,49,0,49,0,,,,,,,49,,,0.2,18927.49978642445,X,l,go,l,1,0.4255665666423738,,,,,,,,,,,,,,,,,,79,001,23,Weiblich ,Bildungswissenschaften ,2023-01-30_13h52.43.173,00_bat_bachelor,2022.2.4,59.912187008330974,
,,,,,,,,,,,,1,0,1,0,50,0,50,0,,,,,,,50,,,0.2,18928.23363237176,Y,d,go,d,1,0.4917357468511909,,,,,,,,,,,,,,,,,,79,001,23,Weiblich ,Bildungswissenschaften ,2023-01-30_13h52.43.173,00_bat_bachelor,2022.2.4,59.912187008330974,
,,,,,,,,,,,,1,0,1,0,51,0,51,0,,,,,,,51,,,0.2,18929.034283135086,X,l,go,l,1,0.5079854356590658,,,,,,,,,,,,,,,,,,79,001,23,Weiblich ,Bildungswissenschaften ,2023-01-30_13h52.43.173,00_bat_bachelor,2022.2.4,59.912187008330974,
,,,,,,,,,,,,1,0,1,0,52,0,52,0,,,,,,,52,,,0.2,18929.851630132645,Y,d,go,d,1,0.47267005895264447,,,,,,,,,,,,,,,,,,79,001,23,Weiblich ,Bildungswissenschaften ,2023-01-30_13h52.43.173,00_bat_bachelor,2022.2.4,59.912187008330974,
,,,,,,,,,,,,1,0,1,0,53,0,53,0,,,,,,,53,,,0.2,18930.635491085937,Y,None,nogo,None,1,,,,,,,,,,,,,,,,,,,79,001,23,Weiblich ,Bildungswissenschaften ,2023-01-30_13h52.43.173,00_bat_bachelor,2022.2.4,59.912187008330974,
,,,,,,,,,,,,1,0,1,0,54,0,54,0,,,,,,,54,,,0.2,18931.63620914612,X,l,go,l,1,0.27312154951505363,,,,,,,,,,,,,,,,,,79,001,23,Weiblich ,Bildungswissenschaften ,2023-01-30_13h52.43.173,00_bat_bachelor,2022.2.4,59.912187008330974,
,,,,,,,,,,,,1,0,1,0,55,0,55,0,,,,,,,55,,,0.2,18932.219826317858,Y,d,go,d,1,0.36202283995226026,,,,,,,,,,,,,,,,,,79,001,23,Weiblich ,Bildungswissenschaften ,2023-01-30_13h52.43.173,00_bat_bachelor,2022.2.4,59.912187008330974,
,,,,,,,,,,,,1,0,1,0,56,0,56,0,,,,,,,56,,,0.2,18932.88703666092,Y,None,nogo,None,1,,,,,,,,,,,,,,,,,,,79,001,23,Weiblich ,Bildungswissenschaften ,2023-01-30_13h52.43.173,00_bat_bachelor,2022.2.4,59.912187008330974,
,,,,,,,,,,,,1,0,1,0,57,0,57,0,,,,,,,57,,,0.2,18933.887710599927,X,l,go,l,1,0.2459104114677757,,,,,,,,,,,,,,,,,,79,001,23,Weiblich ,Bildungswissenschaften ,2023-01-30_13h52.43.173,00_bat_bachelor,2022.2.4,59.912187008330974,
,,,,,,,,,,,,1,0,1,0,58,0,58,0,,,,,,,58,,,0.2,18934.43822136335,Y,d,go,d,1,0.4476135862059891,,,,,,,,,,,,,,,,,,79,001,23,Weiblich ,Bildungswissenschaften ,2023-01-30_13h52.43.173,00_bat_bachelor,2022.2.4,59.912187008330974,
,,,,,,,,,,,,1,0,1,0,59,0,59,0,,,,,,,59,,,0.2,18935.188714575255,X,l,go,l,1,0.3995050035882741,,,,,,,,,,,,,,,,,,79,001,23,Weiblich ,Bildungswissenschaften ,2023-01-30_13h52.43.173,00_bat_bachelor,2022.2.4,59.912187008330974,
,,,,,,,,,,,,1,0,1,0,60,0,60,0,,,,,,,60,,,0.2,18935.889433265897,Y,d,go,d,1,0.515393917215988,,,,,,,,,,,,,,,,,,79,001,23,Weiblich ,Bildungswissenschaften ,2023-01-30_13h52.43.173,00_bat_bachelor,2022.2.4,59.912187008330974,
,,,,,,,,,,,,1,0,1,0,61,0,61,0,,,,,,,61,,,0.2,18936.706628990825,X,l,go,l,1,0.4990782884415239,,,,,,,,,,,,,,,,,,79,001,23,Weiblich ,Bildungswissenschaften ,2023-01-30_13h52.43.173,00_bat_bachelor,2022.2.4,59.912187008330974,
,,,,,,,,,,,,1,0,1,0,62,0,62,0,,,,,,,62,,,0.2,18937.50740532973,Y,d,go,d,1,0.43361456296406686,,,,,,,,,,,,,,,,,,79,001,23,Weiblich ,Bildungswissenschaften ,2023-01-30_13h52.43.173,00_bat_bachelor,2022.2.4,59.912187008330974,
,,,,,,,,,,,,1,0,1,0,63,0,63,0,,,,,,,63,,,0.2,18938.241167883156,X,l,go,l,1,0.5149900384712964,,,,,,,,,,,,,,,,,,79,001,23,Weiblich ,Bildungswissenschaften ,2023-01-30_13h52.43.173,00_bat_bachelor,2022.2.4,59.912187008330974,
,,,,,,,,,,,,1,0,1,0,64,0,64,0,,,,,,,64,,,0.2,18939.058595365612,Y,d,go,d,1,0.515773068415001,,,,,,,,,,,,,,,,,,79,001,23,Weiblich ,Bildungswissenschaften ,2023-01-30_13h52.43.173,00_bat_bachelor,2022.2.4,59.912187008330974,
,,,,,,,,,,,,1,0,1,0,65,0,65,0,,,,,,,65,,,0.2,18939.8758153331,X,l,go,l,1,0.46595636545680463,,,,,,,,,,,,,,,,,,79,001,23,Weiblich ,Bildungswissenschaften ,2023-01-30_13h52.43.173,00_bat_bachelor,2022.2.4,59.912187008330974,
,,,,,,,,,,,,1,0,1,0,66,0,66,0,,,,,,,66,,,0.2,18940.64310902171,Y,d,go,d,1,0.5301638492383063,,,,,,,,,,,,,,,,,,79,001,23,Weiblich ,Bildungswissenschaften ,2023-01-30_13h52.43.173,00_bat_bachelor,2022.2.4,59.912187008330974,
,,,,,,,,,,,,1,0,1,0,67,0,67,0,,,,,,,67,,,0.2,18941.477079041535,Y,None,nogo,None,1,,,,,,,,,,,,,,,,,,,79,001,23,Weiblich ,Bildungswissenschaften ,2023-01-30_13h52.43.173,00_bat_bachelor,2022.2.4,59.912187008330974,
,,,,,,,,,,,,1,0,1,0,68,0,68,0,,,,,,,68,,,0.2,18942.477905222913,X,l,go,l,1,0.2310536913573742,,,,,,,,,,,,,,,,,,79,001,23,Weiblich ,Bildungswissenschaften ,2023-01-30_13h52.43.173,00_bat_bachelor,2022.2.4,59.912187008330974,
,,,,,,,,,,,,1,0,1,0,69,0,69,0,,,,,,,69,,,0.2,18943.011334297713,Y,d,go,d,1,0.3854313134215772,,,,,,,,,,,,,,,,,,79,001,23,Weiblich ,Bildungswissenschaften ,2023-01-30_13h52.43.173,00_bat_bachelor,2022.2.4,59.912187008330974,
,,,,,,,,,,,,1,0,1,0,70,0,70,0,,,,,,,70,,,0.2,18943.71187601867,Y,None,nogo,None,1,,,,,,,,,,,,,,,,,,,79,001,23,Weiblich ,Bildungswissenschaften ,2023-01-30_13h52.43.173,00_bat_bachelor,2022.2.4,59.912187008330974,
,,,,,,,,,,,,1,0,1,0,71,0,71,0,,,,,,,71,,,0.2,18944.712908260524,X,l,go,l,1,0.23618677980266511,,,,,,,,,,,,,,,,,,79,001,23,Weiblich ,Bildungswissenschaften ,2023-01-30_13h52.43.173,00_bat_bachelor,2022.2.4,59.912187008330974,
,,,,,,,,,,,,1,0,1,0,72,0,72,0,,,,,,,72,,,0.2,18945.26319259964,Y,d,go,d,1,0.3421556979883462,,,,,,,,,,,,,,,,,,79,001,23,Weiblich ,Bildungswissenschaften ,2023-01-30_13h52.43.173,00_bat_bachelor,2022.2.4,59.912187008330974,
,,,,,,,,,,,,1,0,1,0,73,0,73,0,,,,,,,73,,,0.2,18945.913831799524,Y,None,nogo,d,0,0.5710816476494074,,,,,,,,,,,,,,,,,,79,001,23,Weiblich ,Bildungswissenschaften ,2023-01-30_13h52.43.173,00_bat_bachelor,2022.2.4,59.912187008330974,
,,,,,,,,,,,,1,0,1,0,74,0,74,0,,,,,,,74,,,0.2,18946.797685916303,X,l,go,l,1,0.48765235487371683,,,,,,,,,,,,,,,,,,79,001,23,Weiblich ,Bildungswissenschaften ,2023-01-30_13h52.43.173,00_bat_bachelor,2022.2.4,59.912187008330974,
,,,,,,,,,,,,1,0,1,0,75,0,75,0,,,,,,,75,,,0.2,18947.598323588725,Y,d,go,d,1,0.5346937866415828,,,,,,,,,,,,,,,,,,79,001,23,Weiblich ,Bildungswissenschaften ,2023-01-30_13h52.43.173,00_bat_bachelor,2022.2.4,59.912187008330974,
,,,,,,,,,,,,1,0,1,0,76,0,76,0,,,,,,,76,,,0.2,18948.449059661245,Y,None,nogo,None,1,,,,,,,,,,,,,,,,,,,79,001,23,Weiblich ,Bildungswissenschaften ,2023-01-30_13h52.43.173,00_bat_bachelor,2022.2.4,59.912187008330974,
,,,,,,,,,,,,1,0,1,0,77,0,77,0,,,,,,,77,,,0.2,18949.449768994236,X,l,go,l,1,0.25109004508703947,,,,,,,,,,,,,,,,,,79,001,23,Weiblich ,Bildungswissenschaften ,2023-01-30_13h52.43.173,00_bat_bachelor,2022.2.4,59.912187008330974,
,,,,,,,,,,,,1,0,1,0,78,0,78,0,,,,,,,78,,,0.2,18950.01688193134,Y,d,go,d,1,0.4203127510845661,,,,,,,,,,,,,,,,,,79,001,23,Weiblich ,Bildungswissenschaften ,2023-01-30_13h52.43.173,00_bat_bachelor,2022.2.4,59.912187008330974,
,,,,,,,,,,,,1,0,1,0,79,0,79,0,,,,,,,79,,,0.2,18950.750836969353,X,l,go,l,1,0.4382758936844766,,,,,,,,,,,,,,,,,,79,001,23,Weiblich ,Bildungswissenschaften ,2023-01-30_13h52.43.173,00_bat_bachelor,2022.2.4,59.912187008330974,
,,,,,,,,,,,,1,0,1,0,80,0,80,0,,,,,,,80,,,0.2,18951.50118133286,X,None,nogo,None,1,,,,,,,,,,,,,,,,,,,79,001,23,Weiblich ,Bildungswissenschaften ,2023-01-30_13h52.43.173,00_bat_bachelor,2022.2.4,59.912187008330974,
,,,,,,,,,,,,1,0,1,0,81,0,81,0,,,,,,,81,,,0.2,18952.502167514293,Y,d,go,d,1,0.31938819377683103,,,,,,,,,,,,,,,,,,79,001,23,Weiblich ,Bildungswissenschaften ,2023-01-30_13h52.43.173,00_bat_bachelor,2022.2.4,59.912187008330974,
,,,,,,,,,,,,1,0,1,0,82,0,82,0,,,,,,,82,,,0.2,18953.13592138863,X,l,go,l,1,0.517233916092664,,,,,,,,,,,,,,,,,,79,001,23,Weiblich ,Bildungswissenschaften ,2023-01-30_13h52.43.173,00_bat_bachelor,2022.2.4,59.912187008330974,
,,,,,,,,,,,,1,0,1,0,83,0,83,0,,,,,,,83,,,0.2,18953.952998325927,Y,d,go,d,1,0.5490971733815968,,,,,,,,,,,,,,,,,,79,001,23,Weiblich ,Bildungswissenschaften ,2023-01-30_13h52.43.173,00_bat_bachelor,2022.2.4,59.912187008330974,
,,,,,,,,,,,,1,0,1,0,84,0,84,0,,,,,,,84,,,0.2,18954.80372324679,X,l,go,l,1,0.5131830091122538,,,,,,,,,,,,,,,,,,79,001,23,Weiblich ,Bildungswissenschaften ,2023-01-30_13h52.43.173,00_bat_bachelor,2022.2.4,59.912187008330974,
,,,,,,,,,,,,1,0,1,0,85,0,85,0,,,,,,,85,,,0.2,18955.62129569892,X,None,nogo,None,1,,,,,,,,,,,,,,,,,,,79,001,23,Weiblich ,Bildungswissenschaften ,2023-01-30_13h52.43.173,00_bat_bachelor,2022.2.4,59.912187008330974,
,,,,,,,,,,,,1,0,1,0,86,0,86,0,,,,,,,86,,,0.2,18956.621879941085,Y,d,go,d,1,0.2634013118222356,,,,,,,,,,,,,,,,,,79,001,23,Weiblich ,Bildungswissenschaften ,2023-01-30_13h52.43.173,00_bat_bachelor,2022.2.4,59.912187008330974,
,,,,,,,,,,,,1,0,1,0,87,0,87,0,,,,,,,87,,,0.2,18957.18879796914,X,l,go,l,1,0.35151617834344506,,,,,,,,,,,,,,,,,,79,001,23,Weiblich ,Bildungswissenschaften ,2023-01-30_13h52.43.173,00_bat_bachelor,2022.2.4,59.912187008330974,
,,,,,,,,,,,,1,0,1,0,88,0,88,0,,,,,,,88,,,0.2,18957.85595594882,Y,d,go,d,1,0.48571926495060325,,,,,,,,,,,,,,,,,,79,001,23,Weiblich ,Bildungswissenschaften ,2023-01-30_13h52.43.173,00_bat_bachelor,2022.2.4,59.912187008330974,
,,,,,,,,,,,,1,0,1,0,89,0,89,0,,,,,,,89,,,0.2,18958.65684137866,Y,None,nogo,None,1,,,,,,,,,,,,,,,,,,,79,001,23,Weiblich ,Bildungswissenschaften ,2023-01-30_13h52.43.173,00_bat_bachelor,2022.2.4,59.912187008330974,
,,,,,,,,,,,,1,0,1,0,90,0,90,0,,,,,,,90,,,0.2,18959.657615196425,X,l,go,l,1,0.25162822660058737,,,,,,,,,,,,,,,,,,79,001,23,Weiblich ,Bildungswissenschaften ,2023-01-30_13h52.43.173,00_bat_bachelor,2022.2.4,59.912187008330974,
,,,,,,,,,,,,1,0,1,0,91,0,91,0,,,,,,,91,,,0.2,18960.224453224568,Y,d,go,d,1,0.3240354643203318,,,,,,,,,,,,,,,,,,79,001,23,Weiblich ,Bildungswissenschaften ,2023-01-30_13h52.43.173,00_bat_bachelor,2022.2.4,59.912187008330974,
,,,,,,,,,,,,1,0,1,0,92,0,92,0,,,,,,,92,,,0.2,18960.8584689172,X,l,go,l,1,0.41116851288825274,,,,,,,,,,,,,,,,,,79,001,23,Weiblich ,Bildungswissenschaften ,2023-01-30_13h52.43.173,00_bat_bachelor,2022.2.4,59.912187008330974,
,,,,,,,,,,,,1,0,1,0,93,0,93,0,,,,,,,93,,,0.2,18961.57571075135,X,None,nogo,None,1,,,,,,,,,,,,,,,,,,,79,001,23,Weiblich ,Bildungswissenschaften ,2023-01-30_13h52.43.173,00_bat_bachelor,2022.2.4,59.912187008330974,
,,,,,,,,,,,,1,0,1,0,94,0,94,0,,,,,,,94,,,0.2,18962.576502023498,Y,d,go,d,1,0.19765298021957278,,,,,,,,,,,,,,,,,,79,001,23,Weiblich ,Bildungswissenschaften ,2023-01-30_13h52.43.173,00_bat_bachelor,2022.2.4,59.912187008330974,
,,,,,,,,,,,,1,0,1,0,95,0,95,0,,,,,,,95,,,0.2,18963.07670687209,X,l,go,l,1,0.3679035643581301,,,,,,,,,,,,,,,,,,79,001,23,Weiblich ,Bildungswissenschaften ,2023-01-30_13h52.43.173,00_bat_bachelor,2022.2.4,59.912187008330974,
,,,,,,,,,,,,1,0,1,0,96,0,96,0,,,,,,,96,,,0.2,18963.760556722293,Y,d,go,d,1,0.5156804623547941,,,,,,,,,,,,,,,,,,79,001,23,Weiblich ,Bildungswissenschaften ,2023-01-30_13h52.43.173,00_bat_bachelor,2022.2.4,59.912187008330974,
,,,,,,,,,,,,1,0,1,0,97,0,97,0,,,,,,,97,,,0.2,18964.5777616594,Y,None,nogo,None,1,,18965.37874114979,,,,,,,,,,,,,,,,,79,001,23,Weiblich ,Bildungswissenschaften ,2023-01-30_13h52.43.173,00_bat_bachelor,2022.2.4,59.912187008330974,
,,,,,,,,,,,,1,0,1,0,98,0,98,0,,,,,,,98,,,0.2,18965.57849862869,X,l,go,l,1,0.25081271189264953,,,,,,,,,,,,,,,,,,79,001,23,Weiblich ,Bildungswissenschaften ,2023-01-30_13h52.43.173,00_bat_bachelor,2022.2.4,59.912187008330974,
,,,,,,,,,,,,1,0,1,0,99,0,99,0,,,,,,,99,,,0.2,18966.145840899087,Y,d,go,d,1,0.37128586578182876,,,,,,,,,,,,,,,,,,79,001,23,Weiblich ,Bildungswissenschaften ,2023-01-30_13h52.43.173,00_bat_bachelor,2022.2.4,59.912187008330974,
,,,,,,,,,,,,1,0,1,0,100,0,100,0,,,,,,,100,,,0.2,18966.82974941586,Y,None,nogo,None,1,,,,,,,,,,,,,,,,,,,79,001,23,Weiblich ,Bildungswissenschaften ,2023-01-30_13h52.43.173,00_bat_bachelor,2022.2.4,59.912187008330974,
,,,,,,,,,,,,1,0,1,0,101,0,101,0,,,,,,,101,,,0.2,18967.83050723374,X,l,go,l,1,0.20652570319361985,,,,,,,,,,,,,,,,,,79,001,23,Weiblich ,Bildungswissenschaften ,2023-01-30_13h52.43.173,00_bat_bachelor,2022.2.4,59.912187008330974,
,,,,,,,,,,,,1,0,1,0,102,0,102,0,,,,,,,102,,,0.2,18968.347578498302,Y,d,go,d,1,0.4892727176193148,,,,,,,,,,,,,,,,,,79,001,23,Weiblich ,Bildungswissenschaften ,2023-01-30_13h52.43.173,00_bat_bachelor,2022.2.4,59.912187008330974,
,,,,,,,,,,,,1,0,1,0,103,0,103,0,,,,,,,103,,,0.2,18969.148110958515,X,l,go,l,1,0.48810762725770473,,,,,,,,,,,,,,,,,,79,001,23,Weiblich ,Bildungswissenschaften ,2023-01-30_13h52.43.173,00_bat_bachelor,2022.2.4,59.912187008330974,
,,,,,,,,,,,,1,0,1,0,104,0,104,0,,,,,,,104,,,0.2,18969.948699176544,X,None,nogo,None,1,,,,,,,,,,,,,,,,,,,79,001,23,Weiblich ,Bildungswissenschaften ,2023-01-30_13h52.43.173,00_bat_bachelor,2022.2.4,59.912187008330974,
,,,,,,,,,,,,1,0,1,0,105,0,105,0,,,,,,,105,,,0.2,18970.949561721412,Y,d,go,d,1,0.22352351318113506,,,,,,,,,,,,,,,,,,79,001,23,Weiblich ,Bildungswissenschaften ,2023-01-30_13h52.43.173,00_bat_bachelor,2022.2.4,59.912187008330974,
,,,,,,,,,,,,1,0,1,0,106,0,106,0,,,,,,,106,,,0.2,18971.48319297796,X,l,go,l,1,0.42588705150410533,,,,,,,,,,,,,,,,,,79,001,23,Weiblich ,Bildungswissenschaften ,2023-01-30_13h52.43.173,00_bat_bachelor,2022.2.4,59.912187008330974,
,,,,,,,,,,,,1,0,1,0,107,0,107,0,,,,,,,107,,,0.2,18972.217039410025,Y,d,go,d,1,0.5251839731354266,,,,,,,,,,,,,,,,,,79,001,23,Weiblich ,Bildungswissenschaften ,2023-01-30_13h52.43.173,00_bat_bachelor,2022.2.4,59.912187008330974,
,,,,,,,,,,,,1,0,1,0,108,0,108,0,,,,,,,108,,,0.2,18973.051117551047,X,l,go,l,1,0.5698515877593309,,,,,,,,,,,,,,,,,,79,001,23,Weiblich ,Bildungswissenschaften ,2023-01-30_13h52.43.173,00_bat_bachelor,2022.2.4,59.912187008330974,
,,,,,,,,,,,,1,0,1,0,109,0,109,0,,,,,,,109,,,0.2,18973.935073486064,Y,d,go,d,1,0.501949560130015,,,,,,,,,,,,,,,,,,79,001,23,Weiblich ,Bildungswissenschaften ,2023-01-30_13h52.43.173,00_bat_bachelor,2022.2.4,59.912187008330974,
,,,,,,,,,,,,1,0,1,0,110,0,110,0,,,,,,,110,,,0.2,18974.752466059523,X,l,go,l,1,0.4846608410589397,,,,,,,,,,,,,,,,,,79,001,23,Weiblich ,Bildungswissenschaften ,2023-01-30_13h52.43.173,00_bat_bachelor,2022.2.4,59.912187008330974,
,,,,,,,,,,,,1,0,1,0,111,0,111,0,,,,,,,111,,,0.2,18975.552937428933,X,None,nogo,None,1,,,,,,,,,,,,,,,,,,,79,001,23,Weiblich ,Bildungswissenschaften ,2023-01-30_13h52.43.173,00_bat_bachelor,2022.2.4,59.912187008330974,
,,,,,,,,,,,,1,0,1,0,112,0,112,0,,,,,,,112,,,0.2,18976.55382809532,X,None,nogo,None,1,,,,,,,,,,,,,,,,,,,79,001,23,Weiblich ,Bildungswissenschaften ,2023-01-30_13h52.43.173,00_bat_bachelor,2022.2.4,59.912187008330974,
,,,,,,,,,,,,1,0,1,0,113,0,113,0,,,,,,,113,,,0.2,18977.554590276675,Y,d,go,d,1,0.3381809121929109,,,,,,,,,,,,,,,,,,79,001,23,Weiblich ,Bildungswissenschaften ,2023-01-30_13h52.43.173,00_bat_bachelor,2022.2.4,59.912187008330974,
,,,,,,,,,,,,1,0,1,0,114,0,114,0,,,,,,,114,,,0.2,18978.205066567287,X,l,go,l,1,0.3447913331910968,,,,,,,,,,,,,,,,,,79,001,23,Weiblich ,Bildungswissenschaften ,2023-01-30_13h52.43.173,00_bat_bachelor,2022.2.4,59.912187008330974,
,,,,,,,,,,,,1,0,1,0,115,0,115,0,,,,,,,115,,,0.2,18978.855436676182,Y,d,go,d,1,0.5418394801672548,,,,,,,,,,,,,,,,,,79,001,23,Weiblich ,Bildungswissenschaften ,2023-01-30_13h52.43.173,00_bat_bachelor,2022.2.4,59.912187008330974,
,,,,,,,,,,,,1,0,1,0,116,0,116,0,,,,,,,116,,,0.2,18979.7062207486,X,l,go,l,1,0.45860170223750174,,,,,,,,,,,,,,,,,,79,001,23,Weiblich ,Bildungswissenschaften ,2023-01-30_13h52.43.173,00_bat_bachelor,2022.2.4,59.912187008330974,
,,,,,,,,,,,,1,0,1,0,117,0,117,0,,,,,,,117,,,0.2,18980.473448982695,Y,d,go,d,1,0.5246040944475681,,,,,,,,,,,,,,,,,,79,001,23,Weiblich ,Bildungswissenschaften ,2023-01-30_13h52.43.173,00_bat_bachelor,2022.2.4,59.912187008330974,
,,,,,,,,,,,,1,0,1,0,118,0,118,0,,,,,,,118,,,0.2,18981.30718433601,Y,None,nogo,None,1,,,,,,,,,,,,,,,,,,,79,001,23,Weiblich ,Bildungswissenschaften ,2023-01-30_13h52.43.173,00_bat_bachelor,2022.2.4,59.912187008330974,
,,,,,,,,,,,,1,0,1,0,119,0,119,0,,,,,,,119,,,0.2,18982.307945062872,X,l,go,l,1,0.2084282475989312,,,,,,,,,,,,,,,,,,79,001,23,Weiblich ,Bildungswissenschaften ,2023-01-30_13h52.43.173,00_bat_bachelor,2022.2.4,59.912187008330974,
,,,,,,,,,,,,1,0,1,0,120,0,120,0,,,,,,,120,,,0.2,18982.825253902934,Y,d,go,d,1,0.4286157772876322,,,,,,,,,,,,,,,,,,79,001,23,Weiblich ,Bildungswissenschaften ,2023-01-30_13h52.43.173,00_bat_bachelor,2022.2.4,59.912187008330974,
,,,,,,,,,,,,1,0,1,0,121,0,121,0,,,,,,,121,,,0.2,18983.55913233501,X,l,go,l,1,0.33392491401173174,,,,,,,,,,,,,,,,,,79,001,23,Weiblich ,Bildungswissenschaften ,2023-01-30_13h52.43.173,00_bat_bachelor,2022.2.4,59.912187008330974,
,,,,,,,,,,,,1,0,1,0,122,0,122,0,,,,,,,122,,,0.2,18984.20936862589,X,None,nogo,None,1,,,,,,,,,,,,,,,,,,,79,001,23,Weiblich ,Bildungswissenschaften ,2023-01-30_13h52.43.173,00_bat_bachelor,2022.2.4,59.912187008330974,
,,,,,,,,,,,,1,0,1,0,123,0,123,0,,,,,,,123,,,0.2,18985.210395049537,Y,d,go,d,1,0.3626027184072882,,,,,,,,,,,,,,,,,,79,001,23,Weiblich ,Bildungswissenschaften ,2023-01-30_13h52.43.173,00_bat_bachelor,2022.2.4,59.912187008330974,
,,,,,,,,,,,,1,0,1,0,124,0,124,0,,,,,,,124,,,0.2,18985.87733727158,X,l,go,l,1,0.2556127095595002,,,,,,,,,,,,,,,,,,79,001,23,Weiblich ,Bildungswissenschaften ,2023-01-30_13h52.43.173,00_bat_bachelor,2022.2.4,59.912187008330974,
,,,,,,,,,,,,1,0,1,0,125,0,125,0,,,,,,,125,,,0.2,18986.444430814823,Y,d,go,d,1,0.4889498087577522,,,,,,,,,,,,,,,,,,79,001,23,Weiblich ,Bildungswissenschaften ,2023-01-30_13h52.43.173,00_bat_bachelor,2022.2.4,59.912187008330974,
,,,,,,,,,,,,1,0,1,0,126,0,126,0,,,,,,,126,,,0.2,18987.245243032696,X,l,go,l,1,0.5198200966697186,,,,,,,,,,,,,,,,,,79,001,23,Weiblich ,Bildungswissenschaften ,2023-01-30_13h52.43.173,00_bat_bachelor,2022.2.4,59.912187008330974,
,,,,,,,,,,,,1,0,1,0,127,0,127,0,,,,,,,127,,,0.2,18988.079252810217,X,None,nogo,d,0,0.5495883247349411,,,,,,,,,,,,,,,,,,79,001,23,Weiblich ,Bildungswissenschaften ,2023-01-30_13h52.43.173,00_bat_bachelor,2022.2.4,59.912187008330974,
,,,,,,,,,,,,1,0,1,0,128,0,128,0,,,,,,,128,,,0.2,18988.929886579514,Y,d,go,None,0,,,,,,,,,,,,,,,,,,,79,001,23,Weiblich ,Bildungswissenschaften ,2023-01-30_13h52.43.173,00_bat_bachelor,2022.2.4,59.912187008330974,
,,,,,,,,,,,,1,0,1,0,129,0,129,0,,,,,,,129,,,0.2,18989.930598336738,X,l,go,None,0,,,,,,,,,,,,,,,,,,,79,001,23,Weiblich ,Bildungswissenschaften ,2023-01-30_13h52.43.173,00_bat_bachelor,2022.2.4,59.912187008330974,
,,,,,,,,,,,,1,0,1,0,130,0,130,0,,,,,,,130,,,0.2,18990.931168518262,Y,d,go,d,1,0.3690856243483722,,,,,,,,,,,,,,,,,,79,001,23,Weiblich ,Bildungswissenschaften ,2023-01-30_13h52.43.173,00_bat_bachelor,2022.2.4,59.912187008330974,
,,,,,,,,,,,,1,0,1,0,131,0,131,0,,,,,,,131,,,0.2,18991.61502612615,X,l,go,l,1,0.3257096454035491,,,,,,,,,,,,,,,,,,79,001,23,Weiblich ,Bildungswissenschaften ,2023-01-30_13h52.43.173,00_bat_bachelor,2022.2.4,59.912187008330974,
,,,,,,,,,,,,1,0,1,0,132,0,132,0,,,,,,,132,,,0.2,18992.249100970337,Y,d,go,d,1,0.4288271712139249,,,,,,,,,,,,,,,,,,79,001,23,Weiblich ,Bildungswissenschaften ,2023-01-30_13h52.43.173,00_bat_bachelor,2022.2.4,59.912187008330974,
,,,,,,,,,,,,1,0,1,0,133,0,133,0,,,,,,,133,,,0.2,18992.983039523475,Y,None,nogo,None,1,,,,,,,,,,,,,,,,,,,79,001,23,Weiblich ,Bildungswissenschaften ,2023-01-30_13h52.43.173,00_bat_bachelor,2022.2.4,59.912187008330974,
,,,,,,,,,,,,1,0,1,0,134,0,134,0,,,,,,,134,,,0.2,18993.983504493022,X,l,go,l,1,0.24637150205671787,,,,,,,,,,,,,,,,,,79,001,23,Weiblich ,Bildungswissenschaften ,2023-01-30_13h52.43.173,00_bat_bachelor,2022.2.4,59.912187008330974,
,,,,,,,,,,,,1,0,1,0,135,0,135,0,,,,,,,135,,,0.2,18994.53412774112,Y,d,go,d,1,0.4144649961963296,,,,,,,,,,,,,,,,,,79,001,23,Weiblich ,Bildungswissenschaften ,2023-01-30_13h52.43.173,00_bat_bachelor,2022.2.4,59.912187008330974,
,,,,,,,,,,,,1,0,1,0,136,0,136,0,,,,,,,136,,,0.2,18995.251260484336,X,l,go,l,1,0.4014468207024038,,,,,,,,,,,,,,,,,,79,001,23,Weiblich ,Bildungswissenschaften ,2023-01-30_13h52.43.173,00_bat_bachelor,2022.2.4,59.912187008330974,
,,,,,,,,,,,,1,0,1,0,137,0,137,0,,,,,,,137,,,0.2,18995.968588621356,X,None,nogo,None,1,,,,,,,,,,,,,,,,,,,79,001,23,Weiblich ,Bildungswissenschaften ,2023-01-30_13h52.43.173,00_bat_bachelor,2022.2.4,59.912187008330974,
,,,,,,,,,,,,1,0,1,0,138,0,138,0,,,,,,,138,,,0.2,18996.969347408973,Y,d,go,d,1,0.2037795225623995,,,,,,,,,,,,,,,,,,79,001,23,Weiblich ,Bildungswissenschaften ,2023-01-30_13h52.43.173,00_bat_bachelor,2022.2.4,59.912187008330974,
,,,,,,,,,,,,1,0,1,0,139,0,139,0,,,,,,,139,,,0.2,18997.486425461248,X,l,go,l,1,0.5665114680305123,,,,,,,,,,,,,,,,,,79,001,23,Weiblich ,Bildungswissenschaften ,2023-01-30_13h52.43.173,00_bat_bachelor,2022.2.4,59.912187008330974,
,,,,,,,,,,,,1,0,1,0,140,0,140,0,,,,,,,140,,,0.2,18998.353756919503,X,None,nogo,None,1,,,,,,,,,,,,,,,,,,,79,001,23,Weiblich ,Bildungswissenschaften ,2023-01-30_13h52.43.173,00_bat_bachelor,2022.2.4,59.912187008330974,
,,,,,,,,,,,,1,0,1,0,141,0,141,0,,,,,,,141,,,0.2,18999.3543508586,X,None,nogo,None,1,,,,,,,,,,,,,,,,,,,79,001,23,Weiblich ,Bildungswissenschaften ,2023-01-30_13h52.43.173,00_bat_bachelor,2022.2.4,59.912187008330974,
,,,,,,,,,,,,1,0,1,0,142,0,142,0,,,,,,,142,,,0.2,19000.35504079773,Y,d,go,d,1,0.3856587072368711,,,,,,,,,,,,,,,,,,79,001,23,Weiblich ,Bildungswissenschaften ,2023-01-30_13h52.43.173,00_bat_bachelor,2022.2.4,59.912187008330974,
,,,,,,,,,,,,1,0,1,0,143,0,143,0,,,,,,,143,,,0.2,19001.05584142753,X,l,go,l,1,0.3578929025679827,,,,,,,,,,,,,,,,,,79,001,23,Weiblich ,Bildungswissenschaften ,2023-01-30_13h52.43.173,00_bat_bachelor,2022.2.4,59.912187008330974,
,,,,,,,,,,,,1,0,1,0,144,0,144,0,,,,,,,144,,,0.2,19001.723001346458,Y,d,go,d,1,0.49113938328810036,,,,,,,,,,,,,,,,,,79,001,23,Weiblich ,Bildungswissenschaften ,2023-01-30_13h52.43.173,00_bat_bachelor,2022.2.4,59.912187008330974,
,,,,,,,,,,,,1,0,1,0,145,0,145,0,,,,,,,145,,,0.2,19002.52356338268,X,l,go,l,1,0.5379349971190095,,,,,,,,,,,,,,,,,,79,001,23,Weiblich ,Bildungswissenschaften ,2023-01-30_13h52.43.173,00_bat_bachelor,2022.2.4,59.912187008330974,
,,,,,,,,,,,,1,0,1,0,146,0,146,0,,,,,,,146,,,0.2,19003.374192788266,X,None,nogo,None,1,,,,,,,,,,,,,,,,,,,79,001,23,Weiblich ,Bildungswissenschaften ,2023-01-30_13h52.43.173,00_bat_bachelor,2022.2.4,59.912187008330974,
,,,,,,,,,,,,1,0,1,0,147,0,147,0,,,,,,,147,,,0.2,19004.375027697068,Y,d,go,d,1,0.30191911151632667,,,,,,,,,,,,,,,,,,79,001,23,Weiblich ,Bildungswissenschaften ,2023-01-30_13h52.43.173,00_bat_bachelor,2022.2.4,59.912187008330974,
,,,,,,,,,,,,1,0,1,0,148,0,148,0,,,,,,,148,,,0.2,19004.992051397916,X,l,go,l,1,0.4206274177413434,,,,,,,,,,,,,,,,,,79,001,23,Weiblich ,Bildungswissenschaften ,2023-01-30_13h52.43.173,00_bat_bachelor,2022.2.4,59.912187008330974,
,,,,,,,,,,,,1,0,1,0,149,0,149,0,,,,,,,149,,,0.2,19005.725752860308,Y,d,go,d,1,0.47078884788788855,,,,,,,,,,,,,,,,,,79,001,23,Weiblich ,Bildungswissenschaften ,2023-01-30_13h52.43.173,00_bat_bachelor,2022.2.4,59.912187008330974,
,,,,,,,,,,,,1,0,1,0,150,0,150,0,,,,,,,150,,,0.2,19006.50971611659,Y,None,nogo,None,1,,,,,,,,,,,,,,,,,,,79,001,23,Weiblich ,Bildungswissenschaften ,2023-01-30_13h52.43.173,00_bat_bachelor,2022.2.4,59.912187008330974,
,,,,,,,,,,,,1,0,1,0,151,0,151,0,,,,,,,151,,,0.2,19007.51073623728,X,l,go,l,1,0.2068151575513184,,,,,,,,,,,,,,,,,,79,001,23,Weiblich ,Bildungswissenschaften ,2023-01-30_13h52.43.173,00_bat_bachelor,2022.2.4,59.912187008330974,
,,,,,,,,,,,,1,0,1,0,152,0,152,0,,,,,,,152,,,0.2,19008.027759016957,Y,d,go,d,1,0.44149334682151675,,,,,,,,,,,,,,,,,,79,001,23,Weiblich ,Bildungswissenschaften ,2023-01-30_13h52.43.173,00_bat_bachelor,2022.2.4,59.912187008330974,
,,,,,,,,,,,,1,0,1,0,153,0,153,0,,,,,,,153,,,0.2,19008.7784500469,Y,None,nogo,None,1,,19009.578982507344,,,,,,,,,,,,,,,,,79,001,23,Weiblich ,Bildungswissenschaften ,2023-01-30_13h52.43.173,00_bat_bachelor,2022.2.4,59.912187008330974,
,,,,,,,,,,,,1,0,1,0,154,0,154,0,,,,,,,154,,,0.2,19009.779074531514,X,l,go,l,1,0.19399189110845327,,,,,,,,,,,,,,,,,,79,001,23,Weiblich ,Bildungswissenschaften ,2023-01-30_13h52.43.173,00_bat_bachelor,2022.2.4,59.912187008330974,
,,,,,,,,,,,,1,0,1,0,155,0,155,0,,,,,,,155,,,0.2,19010.279356470797,Y,d,go,d,1,0.4462138293311,,,,,,,,,,,,,,,,,,79,001,23,Weiblich ,Bildungswissenschaften ,2023-01-30_13h52.43.173,00_bat_bachelor,2022.2.4,59.912187008330974,
