loop_instruction.thisRepN,loop_instruction.thisTrialN,loop_instruction.thisN,loop_instruction.thisIndex,loop_rsi_practice.thisRepN,loop_rsi_practice.thisTrialN,loop_rsi_practice.thisN,loop_rsi_practice.thisIndex,loop_practice.thisRepN,loop_practice.thisTrialN,loop_practice.thisN,loop_practice.thisIndex,loop_exp.thisRepN,loop_exp.thisTrialN,loop_exp.thisN,loop_exp.thisIndex,loop_trials.thisRepN,loop_trials.thisTrialN,loop_trials.thisN,loop_trials.thisIndex,map_condition,map_x_key,map_y_key,key_resp_welcome.started,key_resp_welcome.keys,key_resp_welcome.rt,index,text_empty_rsi_practice.started,text_empty_rsi_practice.stopped,rsi,stimulus.started,stimulus,correct,trial_type,key_resp_trial.keys,key_resp_trial.corr,key_resp_trial.rt,stimulus.stopped,key_resp_instruction_rsi.started,key_resp_instruction_rsi.keys,key_resp_instruction_rsi.rt,key_resp_instruction_rsi.stopped,key_resp_instruction_final.started,key_resp_instruction_final.keys,key_resp_instruction_final.rt,key_resp_break.started,key_resp_break.keys,key_resp_break.rt,key_resp_break.stopped,key_resp_end_screen.started,image_end_screen.started,key_resp_end_screen.keys,participant,session,date,expName,psychopyVersion,frameRate,
,,,,0,0,0,0,0,0,0,0,,,,,,,,,1,l,d,122.84009237329542,j,19.45102712458538,0,142.32102632983532,143.33656355423034,1,143.33656355423034,X,l,go,None,0,,,,,,,,,,,,,,,,,7,001,2022-12-16_11h12.49.002,00_bat_bachelor,2022.2.4,59.947639601082656,
,,,,0,0,0,0,1,0,1,0,,,,,,,,,,,,,,,1,144.73755867177078,145.73882554304595,1,145.73882554304595,Y,d,go,None,0,,,,,,,,,,,,,,,,,7,001,2022-12-16_11h12.49.002,00_bat_bachelor,2022.2.4,59.947639601082656,
,,,,0,0,0,0,2,0,2,0,,,,,,,,,,,,,,,2,147.1396869170515,148.14057348079035,1,148.14057348079035,X,l,go,l,1,0.5379940632656144,,,,,,,,,,,,,,,,7,001,2022-12-16_11h12.49.002,00_bat_bachelor,2022.2.4,59.947639601082656,
,,,,0,0,0,0,3,0,3,0,,,,,,,,,,,,,,,3,149.39192599305602,150.3936740949029,1,150.3936740949029,X,None,nogo,None,1,,151.19356176674387,,,,,,,,,,,,,,,7,001,2022-12-16_11h12.49.002,00_bat_bachelor,2022.2.4,59.947639601082656,
,,,,0,0,0,0,4,0,4,0,,,,,,,,,,,,,,,4,151.79429711003195,152.79529690449357,1,152.79529690449357,Y,d,go,None,0,,,,,,,,,,,,,,,,,7,001,2022-12-16_11h12.49.002,00_bat_bachelor,2022.2.4,59.947639601082656,
,,,,0,0,0,0,5,0,5,0,,,,,,,,,,,,,,,5,154.19668381674512,155.19778576501096,1,155.19778576501096,X,l,go,None,0,,,,,,,,,,,,,,,,,7,001,2022-12-16_11h12.49.002,00_bat_bachelor,2022.2.4,59.947639601082656,
,,,,0,0,0,0,6,0,6,0,,,,,,,,,,,,,,,6,156.59919688238074,157.6001745230053,1,157.6001745230053,Y,d,go,None,0,,,,,,,,,,,,,,,,,7,001,2022-12-16_11h12.49.002,00_bat_bachelor,2022.2.4,59.947639601082656,
,,,,0,0,0,0,7,0,7,0,,,,,,,,,,,,,,,7,159.00213169143314,160.0030703577147,1,160.0030703577147,Y,None,nogo,d,0,0.3961586342750252,,,,,,,,,,,,,,,,7,001,2022-12-16_11h12.49.002,00_bat_bachelor,2022.2.4,59.947639601082656,
,,,,0,0,0,0,8,0,8,0,,,,,,,,,,,,,,,8,161.503979690675,162.50515917737061,1,162.50515917737061,X,l,go,None,0,,,,,,,,,,,,,,,,,7,001,2022-12-16_11h12.49.002,00_bat_bachelor,2022.2.4,59.947639601082656,
,,,,0,0,0,0,9,0,9,0,,,,,,,,,,,,,,,9,163.90718075602842,164.90741542259877,1,164.90741542259877,Y,d,go,None,0,,,,,,,,,,,,,,,,,7,001,2022-12-16_11h12.49.002,00_bat_bachelor,2022.2.4,59.947639601082656,
,,,,0,0,0,0,10,0,10,0,,,,,,,,,,,,,,,10,166.3092404885167,167.33064560794026,1,167.33064560794026,X,l,go,l,1,0.5532190826604619,,,,,,,,,,,,,,,,7,001,2022-12-16_11h12.49.002,00_bat_bachelor,2022.2.4,59.947639601082656,
,,,,0,0,0,0,11,0,11,0,,,,,,,,,,,,,,,11,168.61212077451455,169.61206908222806,1,169.61206908222806,X,None,nogo,l,0,0.48353623945348545,,,,,,,,,,,,,,,,7,001,2022-12-16_11h12.49.002,00_bat_bachelor,2022.2.4,59.947639601082656,
,,,,0,0,0,0,12,0,12,0,,,,,,,,,,,,,,,12,171.19706986786878,172.19824238020823,1,172.19824238020823,Y,d,go,None,0,,,,,,,,,,,,,,,,,7,001,2022-12-16_11h12.49.002,00_bat_bachelor,2022.2.4,59.947639601082656,
,,,,0,0,0,0,13,0,13,0,,,,,,,,,,,,,,,13,173.59960672836644,174.6004666254496,1,174.6004666254496,X,l,go,l,1,0.4464039469949057,,,,,,,,,,,,,,,,7,001,2022-12-16_11h12.49.002,00_bat_bachelor,2022.2.4,59.947639601082656,
,,,,0,0,0,0,14,0,14,0,,,,,,,,,,,,,,,14,175.75169323007458,176.7526913835112,1,176.7526913835112,Y,d,go,d,1,0.3180158971027822,,,,,,,,,,,,,,,,7,001,2022-12-16_11h12.49.002,00_bat_bachelor,2022.2.4,59.947639601082656,
,,,,1,0,1,0,0,0,0,0,,,,,,,,,,,,,,,0,205.11457964530064,205.3146439734794,0.2,205.3146439734794,X,l,go,l,1,0.42863862094992555,,177.80754018152197,j,27.274795812270042,,,,,,,,,,,,7,001,2022-12-16_11h12.49.002,00_bat_bachelor,2022.2.4,59.947639601082656,
,,,,1,0,1,0,1,0,1,0,,,,,,,,,,,,,,,1,206.44915263624506,206.64956445146072,0.2,206.64956445146072,Y,d,go,d,1,0.38141853775817935,,,,,,,,,,,,,,,,7,001,2022-12-16_11h12.49.002,00_bat_bachelor,2022.2.4,59.947639601082656,
,,,,1,0,1,0,2,0,2,0,,,,,,,,,,,,,,,2,207.73378554511362,207.9339844373397,0.2,207.9339844373397,X,l,go,l,1,0.32064933191992395,,,,,,,,,,,,,,,,7,001,2022-12-16_11h12.49.002,00_bat_bachelor,2022.2.4,59.947639601082656,
,,,,1,0,1,0,3,0,3,0,,,,,,,,,,,,,,,3,208.96832083350938,209.16849264882353,0.2,209.16849264882353,Y,d,go,d,1,0.4058049892919371,,,,,,,,,,,,,,,,7,001,2022-12-16_11h12.49.002,00_bat_bachelor,2022.2.4,59.947639601082656,
,,,,1,0,1,0,4,0,4,0,,,,,,,,,,,,,,,4,210.28629239536724,210.48657374909794,0.2,210.48657374909794,Y,None,nogo,d,0,0.3040823643576118,,,,,,,,,,,,,,,,7,001,2022-12-16_11h12.49.002,00_bat_bachelor,2022.2.4,59.947639601082656,
,,,,1,0,1,0,5,0,5,0,,,,,,,,,,,,,,,5,211.90466260321534,212.10473882882508,0.2,212.10473882882508,X,l,go,None,0,,212.90563491050875,,,,,,,,,,,,,,,7,001,2022-12-16_11h12.49.002,00_bat_bachelor,2022.2.4,59.947639601082656,
,,,,1,0,1,0,6,0,6,0,,,,,,,,,,,,,,,6,213.50617497182566,213.70636606918316,0.2,213.70636606918316,Y,d,go,None,0,,,,,,,,,,,,,,,,,7,001,2022-12-16_11h12.49.002,00_bat_bachelor,2022.2.4,59.947639601082656,
,,,,1,0,1,0,7,0,7,0,,,,,,,,,,,,,,,7,215.1077796480904,215.30795638647942,0.2,215.30795638647942,X,l,go,l,1,0.4827190090194904,,,,,,,,,,,,,,,,7,001,2022-12-16_11h12.49.002,00_bat_bachelor,2022.2.4,59.947639601082656,
,,,,1,0,1,0,8,0,8,0,,,,,,,,,,,,,,,8,216.49248513128816,216.69269592094525,0.2,216.69269592094525,X,None,nogo,None,1,,,,,,,,,,,,,,,,,7,001,2022-12-16_11h12.49.002,00_bat_bachelor,2022.2.4,59.947639601082656,
,,,,1,0,1,0,9,0,9,0,,,,,,,,,,,,,,,9,218.09418252546357,218.2943034690037,0.2,218.2943034690037,Y,d,go,d,1,0.33634368445547125,,,,,,,,,,,,,,,,7,001,2022-12-16_11h12.49.002,00_bat_bachelor,2022.2.4,59.947639601082656,
,,,,1,0,1,0,10,0,10,0,,,,,,,,,,,,,,,10,219.3453606788264,219.54558254540206,0.2,219.54558254540206,X,l,go,l,1,0.4852589054133887,,,,,,,,,,,,,,,,7,001,2022-12-16_11h12.49.002,00_bat_bachelor,2022.2.4,59.947639601082656,
,,,,1,0,1,0,11,0,11,0,,,,,,,,,,,,,,,11,220.74671395006607,220.94712617553796,0.2,220.94712617553796,Y,d,go,d,1,0.30689426063992187,,,,,,,,,,,,,,,,7,001,2022-12-16_11h12.49.002,00_bat_bachelor,2022.2.4,59.947639601082656,
,,,,1,0,1,0,12,0,12,0,,,,,,,,,,,,,,,12,221.964635501688,222.16518393223225,0.2,222.16518393223225,Y,None,nogo,None,1,,,,,,,,,,,,,,,,,7,001,2022-12-16_11h12.49.002,00_bat_bachelor,2022.2.4,59.947639601082656,
,,,,1,0,1,0,13,0,13,0,,,,,,,,,,,,,,,13,223.56675669056136,223.76641076249814,0.2,223.76641076249814,Y,None,nogo,l,0,0.29726103382279234,,,,,,,,,,,,,,,,7,001,2022-12-16_11h12.49.002,00_bat_bachelor,2022.2.4,59.947639601082656,
,,,,1,0,1,0,14,0,14,0,,,,,,,,,,,,,,,14,225.16768772607685,225.3678090798732,0.2,225.3678090798732,X,l,go,l,1,0.6630052940302562,,,,,,,,,,,,,,,,7,001,2022-12-16_11h12.49.002,00_bat_bachelor,2022.2.4,59.947639601082656,
,,,,,,,,,,,,,,,,,,,,,,,,,,,,,,,,,,,,,,226.7830704479711,None,,226.7830704479711,226.7830704479711,space,18.370931977957753,,,,,,,,7,001,2022-12-16_11h12.49.002,00_bat_bachelor,2022.2.4,59.947639601082656,
,,,,,,,,,,,,0,0,0,0,0,0,0,0,,,,,,,0,,,1,246.171779621834,X,l,go,l,1,0.282920937141796,,,,,,,,,,,,,,,,7,001,2022-12-16_11h12.49.002,00_bat_bachelor,2022.2.4,59.947639601082656,
,,,,,,,,,,,,0,0,0,0,1,0,1,0,,,,,,,1,,,1,247.55660161780446,Y,d,go,d,1,0.33075394315898166,,,,,,,,,,,,,,,,7,001,2022-12-16_11h12.49.002,00_bat_bachelor,2022.2.4,59.947639601082656,
,,,,,,,,,,,,0,0,0,0,2,0,2,0,,,,,,,2,,,1,248.99143959325556,X,l,go,l,1,0.31080892570054175,,,,,,,,,,,,,,,,7,001,2022-12-16_11h12.49.002,00_bat_bachelor,2022.2.4,59.947639601082656,
,,,,,,,,,,,,0,0,0,0,3,0,3,0,,,,,,,3,,,1,250.40954731916008,Y,d,go,d,1,0.3730050027483003,,,,,,,,,,,,,,,,7,001,2022-12-16_11h12.49.002,00_bat_bachelor,2022.2.4,59.947639601082656,
,,,,,,,,,,,,0,0,0,0,4,0,4,0,,,,,,,4,,,1,251.89419163315216,Y,None,nogo,None,1,,,,,,,,,,,,,,,,,7,001,2022-12-16_11h12.49.002,00_bat_bachelor,2022.2.4,59.947639601082656,
,,,,,,,,,,,,0,0,0,0,5,0,5,0,,,,,,,5,,,1,253.69602638111735,Y,None,nogo,d,0,0.5988633716269192,,,,,,,,,,,,,,,,7,001,2022-12-16_11h12.49.002,00_bat_bachelor,2022.2.4,59.947639601082656,
,,,,,,,,,,,,0,0,0,0,6,0,6,0,,,,,,,6,,,1,255.3978853752265,X,l,go,l,1,0.49688392628519296,,,,,,,,,,,,,,,,7,001,2022-12-16_11h12.49.002,00_bat_bachelor,2022.2.4,59.947639601082656,
,,,,,,,,,,,,0,0,0,0,7,0,7,0,,,,,,,7,,,1,256.9998465641655,Y,d,go,d,1,0.4958049523688146,,,,,,,,,,,,,,,,7,001,2022-12-16_11h12.49.002,00_bat_bachelor,2022.2.4,59.947639601082656,
,,,,,,,,,,,,0,0,0,0,8,0,8,0,,,,,,,8,,,1,258.60108036878756,Y,None,nogo,None,1,,,,,,,,,,,,,,,,,7,001,2022-12-16_11h12.49.002,00_bat_bachelor,2022.2.4,59.947639601082656,
,,,,,,,,,,,,0,0,0,0,9,0,9,0,,,,,,,9,,,1,260.40268332197604,X,l,go,l,1,0.40322119548011415,,,,,,,,,,,,,,,,7,001,2022-12-16_11h12.49.002,00_bat_bachelor,2022.2.4,59.947639601082656,
,,,,,,,,,,,,0,0,0,0,10,0,10,0,,,,,,,10,,,1,261.9210424939313,Y,d,go,None,0,,,,,,,,,,,,,,,,,7,001,2022-12-16_11h12.49.002,00_bat_bachelor,2022.2.4,59.947639601082656,
,,,,,,,,,,,,0,0,0,0,11,0,11,0,,,,,,,11,,,1,263.7231558058848,X,l,go,l,1,0.3482140385600019,,,,,,,,,,,,,,,,7,001,2022-12-16_11h12.49.002,00_bat_bachelor,2022.2.4,59.947639601082656,
,,,,,,,,,,,,0,0,0,0,12,0,12,0,,,,,,,12,,,1,265.17430310797823,X,None,nogo,None,1,,,,,,,,,,,,,,,,,7,001,2022-12-16_11h12.49.002,00_bat_bachelor,2022.2.4,59.947639601082656,
,,,,,,,,,,,,0,0,0,0,13,0,13,0,,,,,,,13,,,1,266.9759524201221,Y,d,go,d,1,0.3745184380248361,,,,,,,,,,,,,,,,7,001,2022-12-16_11h12.49.002,00_bat_bachelor,2022.2.4,59.947639601082656,
,,,,,,,,,,,,0,0,0,0,14,0,14,0,,,,,,,14,,,1,268.46093970833243,X,l,go,l,1,0.40935083399102723,,,,,,,,,,,,,,,,7,001,2022-12-16_11h12.49.002,00_bat_bachelor,2022.2.4,59.947639601082656,
,,,,,,,,,,,,0,0,0,0,15,0,15,0,,,,,,,15,,,1,269.97903385475536,X,None,nogo,None,1,,,,,,,,,,,,,,,,,7,001,2022-12-16_11h12.49.002,00_bat_bachelor,2022.2.4,59.947639601082656,
,,,,,,,,,,,,0,0,0,0,16,0,16,0,,,,,,,16,,,1,271.78100439753666,Y,d,go,d,1,0.3773533086567227,,,,,,,,,,,,,,,,7,001,2022-12-16_11h12.49.002,00_bat_bachelor,2022.2.4,59.947639601082656,
,,,,,,,,,,,,0,0,0,0,17,0,17,0,,,,,,,17,,,1,273.26557855771136,X,l,go,l,1,0.4524334829827694,,,,,,,,,,,,,,,,7,001,2022-12-16_11h12.49.002,00_bat_bachelor,2022.2.4,59.947639601082656,
,,,,,,,,,,,,0,0,0,0,18,0,18,0,,,,,,,18,,,1,274.8340291962957,Y,d,go,d,1,0.5003665915230044,,,,,,,,,,,,,,,,7,001,2022-12-16_11h12.49.002,00_bat_bachelor,2022.2.4,59.947639601082656,
,,,,,,,,,,,,0,0,0,0,19,0,19,0,,,,,,,19,,,1,276.43551735978775,X,l,go,l,1,0.3784782312721404,,,,,,,,,,,,,,,,7,001,2022-12-16_11h12.49.002,00_bat_bachelor,2022.2.4,59.947639601082656,
,,,,,,,,,,,,0,0,0,0,20,0,20,0,,,,,,,20,,,1,277.9203376737076,Y,d,go,d,1,0.49398423516709045,,,,,,,,,,,,,,,,7,001,2022-12-16_11h12.49.002,00_bat_bachelor,2022.2.4,59.947639601082656,
,,,,,,,,,,,,0,0,0,0,21,0,21,0,,,,,,,21,,,1,279.5222024524298,Y,None,nogo,d,0,0.4047366820378784,,,,,,,,,,,,,,,,7,001,2022-12-16_11h12.49.002,00_bat_bachelor,2022.2.4,59.947639601082656,
,,,,,,,,,,,,0,0,0,0,22,0,22,0,,,,,,,22,,,1,281.0402354706726,X,l,go,l,1,0.4459904087029827,,,,,,,,,,,,,,,,7,001,2022-12-16_11h12.49.002,00_bat_bachelor,2022.2.4,59.947639601082656,
,,,,,,,,,,,,0,0,0,0,23,0,23,0,,,,,,,23,,,1,282.5916013983174,Y,d,go,d,1,0.3988798639278457,,,,,,,,,,,,,,,,7,001,2022-12-16_11h12.49.002,00_bat_bachelor,2022.2.4,59.947639601082656,
,,,,,,,,,,,,0,0,0,0,24,0,24,0,,,,,,,24,,,1,284.09323606431343,X,l,go,l,1,0.377121513880013,,,,,,,,,,,,,,,,7,001,2022-12-16_11h12.49.002,00_bat_bachelor,2022.2.4,59.947639601082656,
,,,,,,,,,,,,0,0,0,0,25,0,25,0,,,,,,,25,,,1,285.5780481731084,Y,d,go,d,1,0.5004264889343517,,,,,,,,,,,,,,,,7,001,2022-12-16_11h12.49.002,00_bat_bachelor,2022.2.4,59.947639601082656,
,,,,,,,,,,,,0,0,0,0,26,0,26,0,,,,,,,26,,,1,287.17970331089094,Y,None,nogo,None,1,,,,,,,,,,,,,,,,,7,001,2022-12-16_11h12.49.002,00_bat_bachelor,2022.2.4,59.947639601082656,
,,,,,,,,,,,,0,0,0,0,27,0,27,0,,,,,,,27,,,1,288.98151426399414,X,l,go,l,1,0.28922903711793424,,,,,,,,,,,,,,,,7,001,2022-12-16_11h12.49.002,00_bat_bachelor,2022.2.4,59.947639601082656,
,,,,,,,,,,,,0,0,0,0,28,0,28,0,,,,,,,28,,,1,290.3828018942351,Y,d,go,d,1,0.39128355935201853,,,,,,,,,,,,,,,,7,001,2022-12-16_11h12.49.002,00_bat_bachelor,2022.2.4,59.947639601082656,
,,,,,,,,,,,,0,0,0,0,29,0,29,0,,,,,,,29,,,1,291.8842256885228,X,l,go,l,1,0.3472606030537122,,,,,,,,,,,,,,,,7,001,2022-12-16_11h12.49.002,00_bat_bachelor,2022.2.4,59.947639601082656,
,,,,,,,,,,,,0,0,0,0,30,0,30,0,,,,,,,30,,,1,293.3358382211946,X,None,nogo,d,0,0.24732628507803156,,,,,,,,,,,,,,,,7,001,2022-12-16_11h12.49.002,00_bat_bachelor,2022.2.4,59.947639601082656,
,,,,,,,,,,,,0,0,0,0,31,0,31,0,,,,,,,31,,,1,294.6876444358382,Y,d,go,d,1,0.5035534620104727,,,,,,,,,,,,,,,,7,001,2022-12-16_11h12.49.002,00_bat_bachelor,2022.2.4,59.947639601082656,
,,,,,,,,,,,,0,0,0,0,32,0,32,0,,,,,,,32,,,1,296.3054973105652,X,l,go,l,1,0.4134747297350714,,,,,,,,,,,,,,,,7,001,2022-12-16_11h12.49.002,00_bat_bachelor,2022.2.4,59.947639601082656,
,,,,,,,,,,,,0,0,0,0,33,0,33,0,,,,,,,33,,,1,297.82344171345983,X,None,nogo,None,1,,,,,,,,,,,,,,,,,7,001,2022-12-16_11h12.49.002,00_bat_bachelor,2022.2.4,59.947639601082656,
,,,,,,,,,,,,0,0,0,0,34,0,34,0,,,,,,,34,,,1,299.6252264101635,Y,d,go,d,1,0.40458652825333274,,,,,,,,,,,,,,,,7,001,2022-12-16_11h12.49.002,00_bat_bachelor,2022.2.4,59.947639601082656,
,,,,,,,,,,,,0,0,0,0,35,0,35,0,,,,,,,35,,,1,301.1441279408706,X,l,go,l,1,0.23081880467088922,,,,,,,,,,,,,,,,7,001,2022-12-16_11h12.49.002,00_bat_bachelor,2022.2.4,59.947639601082656,
,,,,,,,,,,,,0,0,0,0,36,0,36,0,,,,,,,36,,,1,302.47839447040224,Y,d,go,d,1,0.4000216070492115,,,,,,,,,,,,,,,,7,001,2022-12-16_11h12.49.002,00_bat_bachelor,2022.2.4,59.947639601082656,
,,,,,,,,,,,,0,0,0,0,37,0,37,0,,,,,,,37,,,1,303.9797965211091,X,l,go,l,1,0.3064757992731302,,,,,,,,,,,,,,,,7,001,2022-12-16_11h12.49.002,00_bat_bachelor,2022.2.4,59.947639601082656,
,,,,,,,,,,,,0,0,0,0,38,0,38,0,,,,,,,38,,,1,305.3979054777824,X,None,nogo,d,0,0.3210969214798638,,,,,,,,,,,,,,,,7,001,2022-12-16_11h12.49.002,00_bat_bachelor,2022.2.4,59.947639601082656,
,,,,,,,,,,,,0,0,0,0,39,0,39,0,,,,,,,39,,,1,306.8325375046,Y,d,go,d,1,0.45394527723436795,,,,,,,,,,,,,,,,7,001,2022-12-16_11h12.49.002,00_bat_bachelor,2022.2.4,59.947639601082656,
,,,,,,,,,,,,0,0,0,0,40,0,40,0,,,,,,,40,,,1,308.4008970662986,X,l,go,l,1,0.5013565398348305,,,,,,,,,,,,,,,,7,001,2022-12-16_11h12.49.002,00_bat_bachelor,2022.2.4,59.947639601082656,
,,,,,,,,,,,,0,0,0,0,41,0,41,0,,,,,,,41,,,1,310.0191023511375,Y,d,go,d,1,0.4593151211852273,,,,,,,,,,,,,,,,7,001,2022-12-16_11h12.49.002,00_bat_bachelor,2022.2.4,59.947639601082656,
,,,,,,,,,,,,0,0,0,0,42,0,42,0,,,,,,,42,,,1,311.587570220484,X,l,go,l,1,0.3628220325669531,,,,,,,,,,,,,,,,7,001,2022-12-16_11h12.49.002,00_bat_bachelor,2022.2.4,59.947639601082656,
,,,,,,,,,,,,0,0,0,0,43,0,43,0,,,,,,,43,,,1,313.05542807982437,Y,d,go,d,1,0.32656604744124706,,,,,,,,,,,,,,,,7,001,2022-12-16_11h12.49.002,00_bat_bachelor,2022.2.4,59.947639601082656,
,,,,,,,,,,,,0,0,0,0,44,0,44,0,,,,,,,44,,,1,314.4903686193359,X,l,go,l,1,0.3162809234556221,,,,,,,,,,,,,,,,7,001,2022-12-16_11h12.49.002,00_bat_bachelor,2022.2.4,59.947639601082656,
,,,,,,,,,,,,0,0,0,0,45,0,45,0,,,,,,,45,,,1,315.90844352474113,Y,d,go,d,1,0.4266328781830566,,,,,,,,,,,,,,,,7,001,2022-12-16_11h12.49.002,00_bat_bachelor,2022.2.4,59.947639601082656,
,,,,,,,,,,,,0,0,0,0,46,0,46,0,,,,,,,46,,,1,317.44340248475794,Y,None,nogo,None,1,,,,,,,,,,,,,,,,,7,001,2022-12-16_11h12.49.002,00_bat_bachelor,2022.2.4,59.947639601082656,
,,,,,,,,,,,,0,0,0,0,47,0,47,0,,,,,,,47,,,1,319.244991078978,X,l,go,l,1,0.29753426447990705,,,,,,,,,,,,,,,,7,001,2022-12-16_11h12.49.002,00_bat_bachelor,2022.2.4,59.947639601082656,
,,,,,,,,,,,,0,0,0,0,48,0,48,0,,,,,,,48,,,1,320.6465055809208,Y,d,go,d,1,0.4558316354348335,,,,,,,,,,,,,,,,7,001,2022-12-16_11h12.49.002,00_bat_bachelor,2022.2.4,59.947639601082656,
,,,,,,,,,,,,0,0,0,0,49,0,49,0,,,,,,,49,,,1,322.21478145034604,Y,None,nogo,None,1,,323.01587076271966,,,,,,,,,,,,,,,7,001,2022-12-16_11h12.49.002,00_bat_bachelor,2022.2.4,59.947639601082656,
,,,,,,,,,,,,0,0,0,0,50,0,50,0,,,,,,,50,,,1,324.01661742908004,X,l,go,l,1,0.33430676221422573,,,,,,,,,,,,,,,,7,001,2022-12-16_11h12.49.002,00_bat_bachelor,2022.2.4,59.947639601082656,
,,,,,,,,,,,,0,0,0,0,51,0,51,0,,,,,,,51,,,1,325.4679128336768,Y,d,go,d,1,0.4024281701644554,,,,,,,,,,,,,,,,7,001,2022-12-16_11h12.49.002,00_bat_bachelor,2022.2.4,59.947639601082656,
,,,,,,,,,,,,0,0,0,0,52,0,52,0,,,,,,,52,,,1,326.98614851850317,Y,None,nogo,d,0,0.4365799510252373,,,,,,,,,,,,,,,,7,001,2022-12-16_11h12.49.002,00_bat_bachelor,2022.2.4,59.947639601082656,
,,,,,,,,,,,,0,0,0,0,53,0,53,0,,,,,,,53,,,1,328.5376527025015,X,l,go,l,1,0.3252409197797306,,,,,,,,,,,,,,,,7,001,2022-12-16_11h12.49.002,00_bat_bachelor,2022.2.4,59.947639601082656,
,,,,,,,,,,,,0,0,0,0,54,0,54,0,,,,,,,54,,,1,329.9725825753507,Y,d,go,d,1,0.3777537187488065,,,,,,,,,,,,,,,,7,001,2022-12-16_11h12.49.002,00_bat_bachelor,2022.2.4,59.947639601082656,
,,,,,,,,,,,,0,0,0,0,55,0,55,0,,,,,,,55,,,1,331.45750709435606,Y,None,nogo,None,1,,,,,,,,,,,,,,,,,7,001,2022-12-16_11h12.49.002,00_bat_bachelor,2022.2.4,59.947639601082656,
,,,,,,,,,,,,0,0,0,0,56,0,56,0,,,,,,,56,,,1,333.25926430389154,Y,None,nogo,None,1,,,,,,,,,,,,,,,,,7,001,2022-12-16_11h12.49.002,00_bat_bachelor,2022.2.4,59.947639601082656,
,,,,,,,,,,,,0,0,0,0,57,0,57,0,,,,,,,57,,,1,335.0608028468501,X,l,go,l,1,0.2096963517980157,,,,,,,,,,,,,,,,7,001,2022-12-16_11h12.49.002,00_bat_bachelor,2022.2.4,59.947639601082656,
,,,,,,,,,,,,0,0,0,0,58,0,58,0,,,,,,,58,,,1,336.378720254884,Y,d,go,d,1,0.3794788462462293,,,,,,,,,,,,,,,,7,001,2022-12-16_11h12.49.002,00_bat_bachelor,2022.2.4,59.947639601082656,
,,,,,,,,,,,,0,0,0,0,59,0,59,0,,,,,,,59,,,1,337.8636484661955,Y,None,nogo,None,1,,,,,,,,,,,,,,,,,7,001,2022-12-16_11h12.49.002,00_bat_bachelor,2022.2.4,59.947639601082656,
,,,,,,,,,,,,0,0,0,0,60,0,60,0,,,,,,,60,,,1,339.6654438295615,Y,None,nogo,None,1,,,,,,,,,,,,,,,,,7,001,2022-12-16_11h12.49.002,00_bat_bachelor,2022.2.4,59.947639601082656,
,,,,,,,,,,,,0,0,0,0,61,0,61,0,,,,,,,61,,,1,341.46760432098284,X,l,go,l,1,0.27508586343310526,,,,,,,,,,,,,,,,7,001,2022-12-16_11h12.49.002,00_bat_bachelor,2022.2.4,59.947639601082656,
,,,,,,,,,,,,0,0,0,0,62,0,62,0,,,,,,,62,,,1,342.8520058043053,Y,d,go,d,1,0.37061690116394175,,,,,,,,,,,,,,,,7,001,2022-12-16_11h12.49.002,00_bat_bachelor,2022.2.4,59.947639601082656,
,,,,,,,,,,,,0,0,0,0,63,0,63,0,,,,,,,63,,,1,344.33673586185193,Y,None,nogo,d,0,0.40577380981750366,,,,,,,,,,,,,,,,7,001,2022-12-16_11h12.49.002,00_bat_bachelor,2022.2.4,59.947639601082656,
,,,,,,,,,,,,0,0,0,0,64,0,64,0,,,,,,,64,,,1,345.8547171878083,X,l,go,l,1,0.3754973094181082,,,,,,,,,,,,,,,,7,001,2022-12-16_11h12.49.002,00_bat_bachelor,2022.2.4,59.947639601082656,
,,,,,,,,,,,,0,0,0,0,65,0,65,0,,,,,,,65,,,1,347.33958098888985,Y,d,go,d,1,0.3383268631290548,,,,,,,,,,,,,,,,7,001,2022-12-16_11h12.49.002,00_bat_bachelor,2022.2.4,59.947639601082656,
,,,,,,,,,,,,0,0,0,0,66,0,66,0,,,,,,,66,,,1,348.7911955728428,X,l,go,l,1,0.35126060141271864,,,,,,,,,,,,,,,,7,001,2022-12-16_11h12.49.002,00_bat_bachelor,2022.2.4,59.947639601082656,
,,,,,,,,,,,,0,0,0,0,67,0,67,0,,,,,,,67,,,1,350.2594468679192,Y,d,go,d,1,0.4669286565232369,,,,,,,,,,,,,,,,7,001,2022-12-16_11h12.49.002,00_bat_bachelor,2022.2.4,59.947639601082656,
,,,,,,,,,,,,0,0,0,0,68,0,68,0,,,,,,,68,,,1,351.8275418143418,X,l,go,l,1,0.3312930198609365,,,,,,,,,,,,,,,,7,001,2022-12-16_11h12.49.002,00_bat_bachelor,2022.2.4,59.947639601082656,
,,,,,,,,,,,,0,0,0,0,69,0,69,0,,,,,,,69,,,1,353.2626009179073,X,None,nogo,l,0,0.28103334817257064,,,,,,,,,,,,,,,,7,001,2022-12-16_11h12.49.002,00_bat_bachelor,2022.2.4,59.947639601082656,
,,,,,,,,,,,,0,0,0,0,70,0,70,0,,,,,,,70,,,1,354.64708691401563,Y,d,go,d,1,0.3032827749420335,,,,,,,,,,,,,,,,7,001,2022-12-16_11h12.49.002,00_bat_bachelor,2022.2.4,59.947639601082656,
,,,,,,,,,,,,0,0,0,0,71,0,71,0,,,,,,,71,,,1,356.06513105020264,X,l,go,l,1,0.35763147059384437,,,,,,,,,,,,,,,,7,001,2022-12-16_11h12.49.002,00_bat_bachelor,2022.2.4,59.947639601082656,
,,,,,,,,,,,,0,0,0,0,72,0,72,0,,,,,,,72,,,1,357.5333946529663,Y,d,go,d,1,0.3207137421498487,,,,,,,,,,,,,,,,7,001,2022-12-16_11h12.49.002,00_bat_bachelor,2022.2.4,59.947639601082656,
,,,,,,,,,,,,0,0,0,0,73,0,73,0,,,,,,,73,,,1,358.96907447422586,X,l,go,l,1,0.37348007947650785,,,,,,,,,,,,,,,,7,001,2022-12-16_11h12.49.002,00_bat_bachelor,2022.2.4,59.947639601082656,
,,,,,,,,,,,,0,0,0,0,74,0,74,0,,,,,,,74,,,1,360.4703132429484,X,None,nogo,None,1,,361.2704601967343,,,,,,,,,,,,,,,7,001,2022-12-16_11h12.49.002,00_bat_bachelor,2022.2.4,59.947639601082656,
,,,,,,,,,,,,0,0,0,0,75,0,75,0,,,,,,,75,,,1,362.27246881129486,Y,d,go,d,1,0.45458609748430945,,,,,,,,,,,,,,,,7,001,2022-12-16_11h12.49.002,00_bat_bachelor,2022.2.4,59.947639601082656,
,,,,,,,,,,,,0,0,0,0,76,0,76,0,,,,,,,76,,,1,363.8395729888931,X,l,go,l,1,0.44787102331611095,,,,,,,,,,,,,,,,7,001,2022-12-16_11h12.49.002,00_bat_bachelor,2022.2.4,59.947639601082656,
,,,,,,,,,,,,0,0,0,0,77,0,77,0,,,,,,,77,,,1,365.39137953174173,Y,d,go,d,1,0.4071715528338018,,,,,,,,,,,,,,,,7,001,2022-12-16_11h12.49.002,00_bat_bachelor,2022.2.4,59.947639601082656,
,,,,,,,,,,,,0,0,0,0,78,0,78,0,,,,,,,78,,,1,366.9095331653197,X,l,go,l,1,0.36186982782942323,,,,,,,,,,,,,,,,7,001,2022-12-16_11h12.49.002,00_bat_bachelor,2022.2.4,59.947639601082656,
,,,,,,,,,,,,0,0,0,0,79,0,79,0,,,,,,,79,,,1,368.3774665118086,Y,d,go,d,1,0.39721586461052993,,,,,,,,,,,,,,,,7,001,2022-12-16_11h12.49.002,00_bat_bachelor,2022.2.4,59.947639601082656,
,,,,,,,,,,,,0,0,0,0,80,0,80,0,,,,,,,80,,,1,369.879159434191,X,l,go,l,1,0.4399629239963474,,,,,,,,,,,,,,,,7,001,2022-12-16_11h12.49.002,00_bat_bachelor,2022.2.4,59.947639601082656,
,,,,,,,,,,,,0,0,0,0,81,0,81,0,,,,,,,81,,,1,371.43069643868864,Y,d,go,d,1,0.4724818850142469,,,,,,,,,,,,,,,,7,001,2022-12-16_11h12.49.002,00_bat_bachelor,2022.2.4,59.947639601082656,
,,,,,,,,,,,,0,0,0,0,82,0,82,0,,,,,,,82,,,1,373.01532594243037,Y,None,nogo,None,1,,,,,,,,,,,,,,,,,7,001,2022-12-16_11h12.49.002,00_bat_bachelor,2022.2.4,59.947639601082656,
,,,,,,,,,,,,0,0,0,0,83,0,83,0,,,,,,,83,,,1,374.817268177531,X,l,go,l,1,0.325869022086124,,,,,,,,,,,,,,,,7,001,2022-12-16_11h12.49.002,00_bat_bachelor,2022.2.4,59.947639601082656,
,,,,,,,,,,,,0,0,0,0,84,0,84,0,,,,,,,84,,,1,376.25207374273896,Y,d,go,d,1,0.3543974206386338,,,,,,,,,,,,,,,,7,001,2022-12-16_11h12.49.002,00_bat_bachelor,2022.2.4,59.947639601082656,
,,,,,,,,,,,,0,0,0,0,85,0,85,0,,,,,,,85,,,1,377.7201527301938,Y,None,nogo,None,1,,,,,,,,,,,,,,,,,7,001,2022-12-16_11h12.49.002,00_bat_bachelor,2022.2.4,59.947639601082656,
,,,,,,,,,,,,0,0,0,0,86,0,86,0,,,,,,,86,,,1,379.52200183712745,X,l,go,l,1,0.2767900678621231,,,,,,,,,,,,,,,,7,001,2022-12-16_11h12.49.002,00_bat_bachelor,2022.2.4,59.947639601082656,
,,,,,,,,,,,,0,0,0,0,87,0,87,0,,,,,,,87,,,1,380.9067828074737,Y,d,go,d,1,0.34066122114575137,,,,,,,,,,,,,,,,7,001,2022-12-16_11h12.49.002,00_bat_bachelor,2022.2.4,59.947639601082656,
,,,,,,,,,,,,0,0,0,0,88,0,88,0,,,,,,,88,,,1,382.35821400688656,X,l,go,l,1,0.35201219084791546,,,,,,,,,,,,,,,,7,001,2022-12-16_11h12.49.002,00_bat_bachelor,2022.2.4,59.947639601082656,
,,,,,,,,,,,,0,0,0,0,89,0,89,0,,,,,,,89,,,1,383.82626304563564,Y,d,go,d,1,0.2763830936701197,,,,,,,,,,,,,,,,7,001,2022-12-16_11h12.49.002,00_bat_bachelor,2022.2.4,59.947639601082656,
,,,,,,,,,,,,0,0,0,0,90,0,90,0,,,,,,,90,,,1,385.2113426825261,X,l,go,l,1,0.33177384017648137,,,,,,,,,,,,,,,,7,001,2022-12-16_11h12.49.002,00_bat_bachelor,2022.2.4,59.947639601082656,
,,,,,,,,,,,,0,0,0,0,91,0,91,0,,,,,,,91,,,1,386.6458643504146,Y,d,go,d,1,0.24844218205612378,,,,,,,,,,,,,,,,7,001,2022-12-16_11h12.49.002,00_bat_bachelor,2022.2.4,59.947639601082656,
,,,,,,,,,,,,0,0,0,0,92,0,92,0,,,,,,,92,,,1,387.997288616497,X,l,go,l,1,0.321023895868791,,,,,,,,,,,,,,,,7,001,2022-12-16_11h12.49.002,00_bat_bachelor,2022.2.4,59.947639601082656,
,,,,,,,,,,,,0,0,0,0,93,0,93,0,,,,,,,93,,,1,389.43187715615295,Y,d,go,d,1,0.22260014137594908,,,,,,,,,,,,,,,,7,001,2022-12-16_11h12.49.002,00_bat_bachelor,2022.2.4,59.947639601082656,
,,,,,,,,,,,,0,0,0,0,94,0,94,0,,,,,,,94,,,1,390.76641691634177,Y,None,nogo,None,1,,391.5672814082948,,,,,,,,,,,,,,,7,001,2022-12-16_11h12.49.002,00_bat_bachelor,2022.2.4,59.947639601082656,
,,,,,,,,,,,,0,0,0,0,95,0,95,0,,,,,,,95,,,1,392.5683193565869,X,l,go,l,1,0.5258373503042435,,,,,,,,,,,,,,,,7,001,2022-12-16_11h12.49.002,00_bat_bachelor,2022.2.4,59.947639601082656,
,,,,,,,,,,,,0,0,0,0,96,0,96,0,,,,,,,96,,,1,394.20330289095267,Y,d,go,d,1,0.3956765831907205,,,,,,,,,,,,,,,,7,001,2022-12-16_11h12.49.002,00_bat_bachelor,2022.2.4,59.947639601082656,
,,,,,,,,,,,,0,0,0,0,97,0,97,0,,,,,,,97,,,1,395.7047381724151,X,l,go,l,1,0.23698454573104755,,,,,,,,,,,,,,,,7,001,2022-12-16_11h12.49.002,00_bat_bachelor,2022.2.4,59.947639601082656,
,,,,,,,,,,,,0,0,0,0,98,0,98,0,,,,,,,98,,,1,397.05642048967366,Y,d,go,d,1,0.25418166688098154,,,,,,,,,,,,,,,,7,001,2022-12-16_11h12.49.002,00_bat_bachelor,2022.2.4,59.947639601082656,
,,,,,,,,,,,,0,0,0,0,99,0,99,0,,,,,,,99,,,1,398.4242566464588,X,l,go,l,1,0.17448036624557517,,,,,,,,,,,,,,,,7,001,2022-12-16_11h12.49.002,00_bat_bachelor,2022.2.4,59.947639601082656,
,,,,,,,,,,,,0,0,0,0,100,0,100,0,,,,,,,100,,,1,399.70900770912505,X,None,nogo,d,0,0.23339275233274748,,,,,,,,,,,,,,,,7,001,2022-12-16_11h12.49.002,00_bat_bachelor,2022.2.4,59.947639601082656,
,,,,,,,,,,,,0,0,0,0,101,0,101,0,,,,,,,101,,,1,401.043478136009,X,None,nogo,None,1,,,,,,,,,,,,,,,,,7,001,2022-12-16_11h12.49.002,00_bat_bachelor,2022.2.4,59.947639601082656,
,,,,,,,,,,,,0,0,0,0,102,0,102,0,,,,,,,102,,,1,402.84515903788343,Y,d,go,d,1,0.5697548707483975,,,,,,,,,,,,,,,,7,001,2022-12-16_11h12.49.002,00_bat_bachelor,2022.2.4,59.947639601082656,
,,,,,,,,,,,,0,0,0,0,103,0,103,0,,,,,,,103,,,1,404.5309068591151,X,l,go,l,1,0.2120163508461701,,,,,,,,,,,,,,,,7,001,2022-12-16_11h12.49.002,00_bat_bachelor,2022.2.4,59.947639601082656,
,,,,,,,,,,,,0,0,0,0,104,0,104,0,,,,,,,104,,,1,405.848213805861,Y,d,go,d,1,0.39050161095474323,,,,,,,,,,,,,,,,7,001,2022-12-16_11h12.49.002,00_bat_bachelor,2022.2.4,59.947639601082656,
,,,,,,,,,,,,0,0,0,0,105,0,105,0,,,,,,,105,,,1,407.34983042058235,X,l,go,l,1,0.23991582657970412,,,,,,,,,,,,,,,,7,001,2022-12-16_11h12.49.002,00_bat_bachelor,2022.2.4,59.947639601082656,
,,,,,,,,,,,,0,0,0,0,106,0,106,0,,,,,,,106,,,1,408.7011960200221,Y,d,go,d,1,0.3054813381426129,,,,,,,,,,,,,,,,7,001,2022-12-16_11h12.49.002,00_bat_bachelor,2022.2.4,59.947639601082656,
,,,,,,,,,,,,0,0,0,0,107,0,107,0,,,,,,,107,,,1,410.11917820751665,X,l,go,l,1,0.21492137529548927,,,,,,,,,,,,,,,,7,001,2022-12-16_11h12.49.002,00_bat_bachelor,2022.2.4,59.947639601082656,
,,,,,,,,,,,,0,0,0,0,108,0,108,0,,,,,,,108,,,1,411.4373286410959,Y,d,go,d,1,0.5537323132191432,,,,,,,,,,,,,,,,7,001,2022-12-16_11h12.49.002,00_bat_bachelor,2022.2.4,59.947639601082656,
,,,,,,,,,,,,0,0,0,0,109,0,109,0,,,,,,,109,,,1,413.105508469535,Y,None,nogo,None,1,,,,,,,,,,,,,,,,,7,001,2022-12-16_11h12.49.002,00_bat_bachelor,2022.2.4,59.947639601082656,
,,,,,,,,,,,,0,0,0,0,110,0,110,0,,,,,,,110,,,1,414.90747860206005,X,l,go,l,1,0.17128652140206668,,,,,,,,,,,,,,,,7,001,2022-12-16_11h12.49.002,00_bat_bachelor,2022.2.4,59.947639601082656,
,,,,,,,,,,,,0,0,0,0,111,0,111,0,,,,,,,111,,,1,416.1920573571047,Y,d,go,d,1,0.24647459311972852,,,,,,,,,,,,,,,,7,001,2022-12-16_11h12.49.002,00_bat_bachelor,2022.2.4,59.947639601082656,
,,,,,,,,,,,,0,0,0,0,112,0,112,0,,,,,,,112,,,1,417.543369623233,Y,None,nogo,d,0,0.3352072746653221,,,,,,,,,,,,,,,,7,001,2022-12-16_11h12.49.002,00_bat_bachelor,2022.2.4,59.947639601082656,
,,,,,,,,,,,,0,0,0,0,113,0,113,0,,,,,,,113,,,1,418.9946912842292,X,l,go,l,1,0.26025304900554147,,,,,,,,,,,,,,,,7,001,2022-12-16_11h12.49.002,00_bat_bachelor,2022.2.4,59.947639601082656,
,,,,,,,,,,,,0,0,0,0,114,0,114,0,,,,,,,114,,,1,420.36283554345204,Y,d,go,d,1,0.3959896087034167,,,,,,,,,,,,,,,,7,001,2022-12-16_11h12.49.002,00_bat_bachelor,2022.2.4,59.947639601082656,
,,,,,,,,,,,,0,0,0,0,115,0,115,0,,,,,,,115,,,1,421.8643385171944,X,l,go,l,1,0.33378655729950424,,,,,,,,,,,,,,,,7,001,2022-12-16_11h12.49.002,00_bat_bachelor,2022.2.4,59.947639601082656,
,,,,,,,,,,,,0,0,0,0,116,0,116,0,,,,,,,116,,,1,423.29908541575986,X,None,nogo,None,1,,,,,,,,,,,,,,,,,7,001,2022-12-16_11h12.49.002,00_bat_bachelor,2022.2.4,59.947639601082656,
,,,,,,,,,,,,0,0,0,0,117,0,117,0,,,,,,,117,,,1,425.1008340099142,Y,d,go,d,1,0.45710178875981455,,,,,,,,,,,,,,,,7,001,2022-12-16_11h12.49.002,00_bat_bachelor,2022.2.4,59.947639601082656,
,,,,,,,,,,,,0,0,0,0,118,0,118,0,,,,,,,118,,,1,426.6693088536169,X,l,go,l,1,0.31399743721294726,,,,,,,,,,,,,,,,7,001,2022-12-16_11h12.49.002,00_bat_bachelor,2022.2.4,59.947639601082656,
,,,,,,,,,,,,0,0,0,0,119,0,119,0,,,,,,,119,,,1,428.08729596418624,Y,d,go,d,1,0.3672220307619227,,,,,,,,,,,,,,,,7,001,2022-12-16_11h12.49.002,00_bat_bachelor,2022.2.4,59.947639601082656,
,,,,,,,,,,,,0,0,0,0,120,0,120,0,,,,,,,120,,,1,429.5556543361418,Y,None,nogo,None,1,,,,,,,,,,,,,,,,,7,001,2022-12-16_11h12.49.002,00_bat_bachelor,2022.2.4,59.947639601082656,
,,,,,,,,,,,,0,0,0,0,121,0,121,0,,,,,,,121,,,1,431.3571116483644,X,l,go,l,1,0.3783510518371713,,,,,,,,,,,,,,,,7,001,2022-12-16_11h12.49.002,00_bat_bachelor,2022.2.4,59.947639601082656,
,,,,,,,,,,,,0,0,0,0,122,0,122,0,,,,,,,122,,,1,432.8419615007337,Y,d,go,d,1,0.34855701277831486,,,,,,,,,,,,,,,,7,001,2022-12-16_11h12.49.002,00_bat_bachelor,2022.2.4,59.947639601082656,
,,,,,,,,,,,,0,0,0,0,123,0,123,0,,,,,,,123,,,1,434.2934107514213,Y,None,nogo,None,1,,,,,,,,,,,,,,,,,7,001,2022-12-16_11h12.49.002,00_bat_bachelor,2022.2.4,59.947639601082656,
,,,,,,,,,,,,0,0,0,0,124,0,124,0,,,,,,,124,,,1,436.09519052505,X,l,go,l,1,0.2549956152649884,,,,,,,,,,,,,,,,7,001,2022-12-16_11h12.49.002,00_bat_bachelor,2022.2.4,59.947639601082656,
,,,,,,,,,,,,0,0,0,0,125,0,125,0,,,,,,,125,,,1,437.4631932458694,Y,d,go,d,1,0.45576435341115484,,,,,,,,,,,,,,,,7,001,2022-12-16_11h12.49.002,00_bat_bachelor,2022.2.4,59.947639601082656,
,,,,,,,,,,,,0,0,0,0,126,0,126,0,,,,,,,126,,,1,439.03153147424354,X,l,go,l,1,0.32660214999043546,,,,,,,,,,,,,,,,7,001,2022-12-16_11h12.49.002,00_bat_bachelor,2022.2.4,59.947639601082656,
,,,,,,,,,,,,0,0,0,0,127,0,127,0,,,,,,,127,,,1,440.46630380869584,Y,d,go,d,1,0.1960011779293609,,,,,,,,,,,,,,,,7,001,2022-12-16_11h12.49.002,00_bat_bachelor,2022.2.4,59.947639601082656,
,,,,,,,,,,,,0,0,0,0,128,0,128,0,,,,,,,128,,,1,441.7678089157707,X,l,go,l,1,0.2791551950969051,,,,,,,,,,,,,,,,7,001,2022-12-16_11h12.49.002,00_bat_bachelor,2022.2.4,59.947639601082656,
,,,,,,,,,,,,0,0,0,0,129,0,129,0,,,,,,,129,,,1,443.1522940913665,Y,d,go,d,1,0.2297984973971552,,,,,,,,,,,,,,,,7,001,2022-12-16_11h12.49.002,00_bat_bachelor,2022.2.4,59.947639601082656,
,,,,,,,,,,,,0,0,0,0,130,0,130,0,,,,,,,130,,,1,444.4868744669233,Y,None,nogo,None,1,,,,,,,,,,,,,,,,,7,001,2022-12-16_11h12.49.002,00_bat_bachelor,2022.2.4,59.947639601082656,
,,,,,,,,,,,,0,0,0,0,131,0,131,0,,,,,,,131,,,1,446.28876952255604,X,l,go,l,1,0.1897706163829298,,,,,,,,,,,,,,,,7,001,2022-12-16_11h12.49.002,00_bat_bachelor,2022.2.4,59.947639601082656,
,,,,,,,,,,,,0,0,0,0,132,0,132,0,,,,,,,132,,,1,447.58980160418395,Y,d,go,d,1,0.3204860499355391,,,,,,,,,,,,,,,,7,001,2022-12-16_11h12.49.002,00_bat_bachelor,2022.2.4,59.947639601082656,
,,,,,,,,,,,,0,0,0,0,133,0,133,0,,,,,,,133,,,1,449.02483937442486,Y,None,nogo,l,0,0.19750025423741135,,,,,,,,,,,,,,,,7,001,2022-12-16_11h12.49.002,00_bat_bachelor,2022.2.4,59.947639601082656,
,,,,,,,,,,,,0,0,0,0,134,0,134,0,,,,,,,134,,,1,450.32584437914073,X,l,go,l,1,0.2563170506202823,,,,,,,,,,,,,,,,7,001,2022-12-16_11h12.49.002,00_bat_bachelor,2022.2.4,59.947639601082656,
,,,,,,,,,,,,0,0,0,0,135,0,135,0,,,,,,,135,,,1,451.69405345884985,Y,d,go,d,1,0.3288466618902248,,,,,,,,,,,,,,,,7,001,2022-12-16_11h12.49.002,00_bat_bachelor,2022.2.4,59.947639601082656,
,,,,,,,,,,,,0,0,0,0,136,0,136,0,,,,,,,136,,,1,453.128657588243,X,l,go,d,0,0.33419681354132535,,,,,,,,,,,,,,,,7,001,2022-12-16_11h12.49.002,00_bat_bachelor,2022.2.4,59.947639601082656,
,,,,,,,,,,,,0,0,0,0,137,0,137,0,,,,,,,137,,,1,454.5803140183327,X,None,nogo,l,0,0.3216290238256079,,,,,,,,,,,,,,,,7,001,2022-12-16_11h12.49.002,00_bat_bachelor,2022.2.4,59.947639601082656,
,,,,,,,,,,,,0,0,0,0,138,0,138,0,,,,,,,138,,,1,456.0150531220294,Y,d,go,d,1,0.36729546662911616,,,,,,,,,,,,,,,,7,001,2022-12-16_11h12.49.002,00_bat_bachelor,2022.2.4,59.947639601082656,
,,,,,,,,,,,,0,0,0,0,139,0,139,0,,,,,,,139,,,1,457.4831353915342,X,l,go,l,1,0.29116093376126173,,,,,,,,,,,,,,,,7,001,2022-12-16_11h12.49.002,00_bat_bachelor,2022.2.4,59.947639601082656,
,,,,,,,,,,,,0,0,0,0,140,0,140,0,,,,,,,140,,,1,458.8847077396071,X,None,nogo,l,0,0.3781024365545136,,,,,,,,,,,,,,,,7,001,2022-12-16_11h12.49.002,00_bat_bachelor,2022.2.4,59.947639601082656,
,,,,,,,,,,,,0,0,0,0,141,0,141,0,,,,,,,141,,,1,460.3695690791512,Y,d,go,l,0,0.2532532570055537,,,,,,,,,,,,,,,,7,001,2022-12-16_11h12.49.002,00_bat_bachelor,2022.2.4,59.947639601082656,
,,,,,,,,,,,,0,0,0,0,142,0,142,0,,,,,,,142,,,1,461.73751354358416,X,l,go,l,1,0.44470343487205355,,,,,,,,,,,,,,,,7,001,2022-12-16_11h12.49.002,00_bat_bachelor,2022.2.4,59.947639601082656,
,,,,,,,,,,,,0,0,0,0,143,0,143,0,,,,,,,143,,,1,463.2889307532592,Y,d,go,d,1,0.4214956495213755,,,,,,,,,,,,,,,,7,001,2022-12-16_11h12.49.002,00_bat_bachelor,2022.2.4,59.947639601082656,
,,,,,,,,,,,,0,0,0,0,144,0,144,0,,,,,,,144,,,1,464.8238614055953,X,l,go,l,1,0.35907926487175246,,,,,,,,,,,,,,,,7,001,2022-12-16_11h12.49.002,00_bat_bachelor,2022.2.4,59.947639601082656,
,,,,,,,,,,,,0,0,0,0,145,0,145,0,,,,,,,145,,,1,466.2919986494365,X,None,nogo,None,1,,,,,,,,,,,,,,,,,7,001,2022-12-16_11h12.49.002,00_bat_bachelor,2022.2.4,59.947639601082656,
,,,,,,,,,,,,0,0,0,0,146,0,146,0,,,,,,,146,,,1,468.0935605770008,Y,d,go,d,1,0.5766520986879868,,,,,,,,,,,,,,,,7,001,2022-12-16_11h12.49.002,00_bat_bachelor,2022.2.4,59.947639601082656,
,,,,,,,,,,,,0,0,0,0,147,0,147,0,,,,,,,147,,,1,469.7788780394347,X,l,go,l,1,0.3160204107419986,,,,,,,,,,,,,,,,7,001,2022-12-16_11h12.49.002,00_bat_bachelor,2022.2.4,59.947639601082656,
,,,,,,,,,,,,0,0,0,0,148,0,148,0,,,,,,,148,,,1,471.19695950893964,X,None,nogo,None,1,,,,,,,,,,,,,,,,,7,001,2022-12-16_11h12.49.002,00_bat_bachelor,2022.2.4,59.947639601082656,
,,,,,,,,,,,,0,0,0,0,149,0,149,0,,,,,,,149,,,1,472.9986592826013,Y,d,go,d,1,0.24842987436886688,,,,,,,,,,,,,,,,7,001,2022-12-16_11h12.49.002,00_bat_bachelor,2022.2.4,59.947639601082656,
,,,,,,,,,,,,0,0,0,0,150,0,150,0,,,,,,,150,,,1,474.35008395893993,X,l,go,l,1,0.3925787383077477,,,,,,,,,,,,,,,,7,001,2022-12-16_11h12.49.002,00_bat_bachelor,2022.2.4,59.947639601082656,
,,,,,,,,,,,,0,0,0,0,151,0,151,0,,,,,,,151,,,1,475.8513797532801,Y,d,go,d,1,0.49079982621719864,,,,,,,,,,,,,,,,7,001,2022-12-16_11h12.49.002,00_bat_bachelor,2022.2.4,59.947639601082656,
,,,,,,,,,,,,0,0,0,0,152,0,152,0,,,,,,,152,,,1,477.4533015576199,X,l,go,l,1,0.37817176985936385,,,,,,,,,,,,,,,,7,001,2022-12-16_11h12.49.002,00_bat_bachelor,2022.2.4,59.947639601082656,
,,,,,,,,,,,,0,0,0,0,153,0,153,0,,,,,,,153,,,1,478.9378991024003,X,None,nogo,None,1,,,,,,,,,,,,,,,,,7,001,2022-12-16_11h12.49.002,00_bat_bachelor,2022.2.4,59.947639601082656,
,,,,,,,,,,,,0,0,0,0,154,0,154,0,,,,,,,154,,,1,480.7398401067323,Y,d,go,d,1,0.46705665647073147,,,,,,,,,,,,,,,,7,001,2022-12-16_11h12.49.002,00_bat_bachelor,2022.2.4,59.947639601082656,
,,,,,,,,,,,,0,0,0,0,155,0,155,0,,,,,,,155,,,1,482.30804951464637,X,l,go,l,1,0.5622594892079178,,,,,,,,,,,,,,,,7,001,2022-12-16_11h12.49.002,00_bat_bachelor,2022.2.4,59.947639601082656,
,,,,,,,,,,,,0,0,0,0,156,0,156,0,,,,,,,156,,,1,483.9763335481709,X,None,nogo,None,1,,484.77731619392154,,,,,,,,,,,,,,,7,001,2022-12-16_11h12.49.002,00_bat_bachelor,2022.2.4,59.947639601082656,
,,,,,,,,,,,,0,0,0,0,157,0,157,0,,,,,,,157,,,1,485.77794388597175,Y,d,go,d,1,0.19633061369165716,,,,,,,,,,,,,,,,7,001,2022-12-16_11h12.49.002,00_bat_bachelor,2022.2.4,59.947639601082656,
,,,,,,,,,,,,0,0,0,0,158,0,158,0,,,,,,,158,,,1,487.0793874546103,X,l,go,l,1,0.6476264285446405,,,,,,,,,,,,,,,,7,001,2022-12-16_11h12.49.002,00_bat_bachelor,2022.2.4,59.947639601082656,
,,,,,,,,,,,,0,0,0,0,159,0,159,0,,,,,,,159,,,1,488.83106673597257,X,None,nogo,None,1,,,,,,,,,,,,,,,,,7,001,2022-12-16_11h12.49.002,00_bat_bachelor,2022.2.4,59.947639601082656,
,,,,,,,,,,,,0,0,0,0,160,0,160,0,,,,,,,160,,,1,490.63310907359624,X,None,nogo,None,1,,,,,,,,,,,,,,,,,7,001,2022-12-16_11h12.49.002,00_bat_bachelor,2022.2.4,59.947639601082656,
,,,,,,,,,,,,0,0,0,0,161,0,161,0,,,,,,,161,,,1,492.4353618726721,Y,d,go,d,1,0.33219476308067897,,,,,,,,,,,,,,,,7,001,2022-12-16_11h12.49.002,00_bat_bachelor,2022.2.4,59.947639601082656,
,,,,,,,,,,,,0,0,0,0,162,0,162,0,,,,,,,162,,,1,493.86960046375367,X,l,go,l,1,0.36088070003017947,,,,,,,,,,,,,,,,7,001,2022-12-16_11h12.49.002,00_bat_bachelor,2022.2.4,59.947639601082656,
,,,,,,,,,,,,0,0,0,0,163,0,163,0,,,,,,,163,,,1,495.33766591275247,Y,d,go,d,1,0.33227681432913414,,,,,,,,,,,,,,,,7,001,2022-12-16_11h12.49.002,00_bat_bachelor,2022.2.4,59.947639601082656,
,,,,,,,,,,,,0,0,0,0,164,0,164,0,,,,,,,164,,,1,496.77256009330864,X,l,go,l,1,0.28958842158579046,,,,,,,,,,,,,,,,7,001,2022-12-16_11h12.49.002,00_bat_bachelor,2022.2.4,59.947639601082656,
,,,,,,,,,,,,0,0,0,0,165,0,165,0,,,,,,,165,,,1,498.1740282362961,Y,d,go,d,1,0.34443968113407664,,,,,,,,,,,,,,,,7,001,2022-12-16_11h12.49.002,00_bat_bachelor,2022.2.4,59.947639601082656,
,,,,,,,,,,,,0,0,0,0,166,0,166,0,,,,,,,166,,,1,499.6253486665236,Y,None,nogo,None,1,,,,,,,,,,,,,,,,,7,001,2022-12-16_11h12.49.002,00_bat_bachelor,2022.2.4,59.947639601082656,
,,,,,,,,,,,,0,0,0,0,167,0,167,0,,,,,,,167,,,1,501.4272757221433,X,l,go,l,1,0.25907561359122155,,,,,,,,,,,,,,,,7,001,2022-12-16_11h12.49.002,00_bat_bachelor,2022.2.4,59.947639601082656,
,,,,,,,,,,,,0,0,0,0,168,0,168,0,,,,,,,168,,,1,502.7952624429692,Y,d,go,d,1,0.36425628838878765,,,,,,,,,,,,,,,,7,001,2022-12-16_11h12.49.002,00_bat_bachelor,2022.2.4,59.947639601082656,
,,,,,,,,,,,,0,0,0,0,169,0,169,0,,,,,,,169,,,1,504.26356337905094,X,l,go,l,1,0.39889135110263396,,,,,,,,,,,,,,,,7,001,2022-12-16_11h12.49.002,00_bat_bachelor,2022.2.4,59.947639601082656,
,,,,,,,,,,,,0,0,0,0,170,0,170,0,,,,,,,170,,,1,505.76482101956066,Y,d,go,d,1,0.4818812657734952,,,,,,,,,,,,,,,,7,001,2022-12-16_11h12.49.002,00_bat_bachelor,2022.2.4,59.947639601082656,
,,,,,,,,,,,,0,0,0,0,171,0,171,0,,,,,,,171,,,1,507.3501253948204,Y,None,nogo,None,1,,,,,,,,,,,,,,,,,7,001,2022-12-16_11h12.49.002,00_bat_bachelor,2022.2.4,59.947639601082656,
,,,,,,,,,,,,0,0,0,0,172,0,172,0,,,,,,,172,,,1,509.1515416814188,Y,None,nogo,None,1,,,,,,,,,,,,,,,,,7,001,2022-12-16_11h12.49.002,00_bat_bachelor,2022.2.4,59.947639601082656,
,,,,,,,,,,,,0,0,0,0,173,0,173,0,,,,,,,173,,,1,510.9533879165588,X,l,go,l,1,0.3014694423526407,,,,,,,,,,,,,,,,7,001,2022-12-16_11h12.49.002,00_bat_bachelor,2022.2.4,59.947639601082656,
,,,,,,,,,,,,0,0,0,0,174,0,174,0,,,,,,,174,,,1,512.371646206504,Y,d,go,d,1,0.3713442854808022,,,,,,,,,,,,,,,,7,001,2022-12-16_11h12.49.002,00_bat_bachelor,2022.2.4,59.947639601082656,
,,,,,,,,,,,,0,0,0,0,175,0,175,0,,,,,,,175,,,1,513.856576879353,Y,None,nogo,None,1,,,,,,,,,,,,,,,,,7,001,2022-12-16_11h12.49.002,00_bat_bachelor,2022.2.4,59.947639601082656,
,,,,,,,,,,,,0,0,0,0,176,0,176,0,,,,,,,176,,,1,515.6579771659581,X,l,go,l,1,0.34877403833019116,,,,,,,,,,,,,,,,7,001,2022-12-16_11h12.49.002,00_bat_bachelor,2022.2.4,59.947639601082656,
,,,,,,,,,,,,0,0,0,0,177,0,177,0,,,,,,,177,,,1,517.1094432371515,Y,d,go,d,1,0.4332913369899529,,,,,,,,,,,,,,,,7,001,2022-12-16_11h12.49.002,00_bat_bachelor,2022.2.4,59.947639601082656,
,,,,,,,,,,,,0,0,0,0,178,0,178,0,,,,,,,178,,,1,518.6444657868858,X,l,go,l,1,0.4258849810539118,,,,,,,,,,,,,,,,7,001,2022-12-16_11h12.49.002,00_bat_bachelor,2022.2.4,59.947639601082656,
,,,,,,,,,,,,0,0,0,0,179,0,179,0,,,,,,,179,,,1,520.1795326442943,Y,d,go,d,1,0.40277606745763705,,,,,,,,,,,,,,,,7,001,2022-12-16_11h12.49.002,00_bat_bachelor,2022.2.4,59.947639601082656,
,,,,,,,,,,,,0,0,0,0,180,0,180,0,,,,,,,180,,,1,521.697629662511,Y,None,nogo,None,1,,,,,,,,,,,,,,,,,7,001,2022-12-16_11h12.49.002,00_bat_bachelor,2022.2.4,59.947639601082656,
,,,,,,,,,,,,0,0,0,0,181,0,181,0,,,,,,,181,,,1,523.4993926156337,Y,None,nogo,None,1,,,,,,,,,,,,,,,,,7,001,2022-12-16_11h12.49.002,00_bat_bachelor,2022.2.4,59.947639601082656,
,,,,,,,,,,,,0,0,0,0,182,0,182,0,,,,,,,182,,,1,525.3009926970287,X,l,go,l,1,0.273412428222116,,,,,,,,,,,,,,,,7,001,2022-12-16_11h12.49.002,00_bat_bachelor,2022.2.4,59.947639601082656,
,,,,,,,,,,,,0,0,0,0,183,0,183,0,,,,,,,183,,,1,526.6861022826247,Y,d,go,None,0,,,,,,,,,,,,,,,,,7,001,2022-12-16_11h12.49.002,00_bat_bachelor,2022.2.4,59.947639601082656,
,,,,,,,,,,,,0,0,0,0,184,0,184,0,,,,,,,184,,,1,528.4881183638488,X,l,go,l,1,0.3260101502333441,,,,,,,,,,,,,,,,7,001,2022-12-16_11h12.49.002,00_bat_bachelor,2022.2.4,59.947639601082656,
,,,,,,,,,,,,0,0,0,0,185,0,185,0,,,,,,,185,,,1,529.9389801275979,Y,d,go,d,1,0.40296806737882207,,,,,,,,,,,,,,,,7,001,2022-12-16_11h12.49.002,00_bat_bachelor,2022.2.4,59.947639601082656,
,,,,,,,,,,,,0,0,0,0,186,0,186,0,,,,,,,186,,,1,531.4573228893034,Y,None,nogo,None,1,,,,,,,,,,,,,,,,,7,001,2022-12-16_11h12.49.002,00_bat_bachelor,2022.2.4,59.947639601082656,
,,,,,,,,,,,,0,0,0,0,187,0,187,0,,,,,,,187,,,1,533.2596335345092,X,l,go,l,1,0.23404095719507723,,,,,,,,,,,,,,,,7,001,2022-12-16_11h12.49.002,00_bat_bachelor,2022.2.4,59.947639601082656,
,,,,,,,,,,,,0,0,0,0,188,0,188,0,,,,,,,188,,,1,534.6270746145335,Y,d,go,d,1,0.41937831705678263,,,,,,,,,,,,,,,,7,001,2022-12-16_11h12.49.002,00_bat_bachelor,2022.2.4,59.947639601082656,
,,,,,,,,,,,,0,0,0,0,189,0,189,0,,,,,,,189,,,1,536.1618013695174,X,l,go,l,1,0.2928146766724353,,,,,,,,,,,,,,,,7,001,2022-12-16_11h12.49.002,00_bat_bachelor,2022.2.4,59.947639601082656,
,,,,,,,,,,,,0,0,0,0,190,0,190,0,,,,,,,190,,,1,537.5632293073932,X,None,nogo,None,1,,,,,,,,,,,,,,,,,7,001,2022-12-16_11h12.49.002,00_bat_bachelor,2022.2.4,59.947639601082656,
,,,,,,,,,,,,0,0,0,0,191,0,191,0,,,,,,,191,,,1,539.3651202604635,Y,d,go,d,1,0.321620818700751,,,,,,,,,,,,,,,,7,001,2022-12-16_11h12.49.002,00_bat_bachelor,2022.2.4,59.947639601082656,
,,,,,,,,,,,,0,0,0,0,192,0,192,0,,,,,,,192,,,1,540.7999520820708,X,l,go,l,1,0.2862288332206049,,,,,,,,,,,,,,,,7,001,2022-12-16_11h12.49.002,00_bat_bachelor,2022.2.4,59.947639601082656,
,,,,,,,,,,,,0,0,0,0,193,0,193,0,,,,,,,193,,,1,542.2015576608994,X,None,nogo,None,1,,,,,,,,,,,,,,,,,7,001,2022-12-16_11h12.49.002,00_bat_bachelor,2022.2.4,59.947639601082656,
,,,,,,,,,,,,0,0,0,0,194,0,194,0,,,,,,,194,,,1,544.0040898444759,Y,d,go,d,1,0.21840650207064982,,,,,,,,,,,,,,,,7,001,2022-12-16_11h12.49.002,00_bat_bachelor,2022.2.4,59.947639601082656,
,,,,,,,,,,,,0,0,0,0,195,0,195,0,,,,,,,195,,,1,545.3543432392437,X,l,go,l,1,0.4276183136761915,,,,,,,,,,,,,,,,7,001,2022-12-16_11h12.49.002,00_bat_bachelor,2022.2.4,59.947639601082656,
,,,,,,,,,,,,0,0,0,0,196,0,196,0,,,,,,,196,,,1,546.8893543018035,Y,d,go,d,1,0.317315179441664,,,,,,,,,,,,,,,,7,001,2022-12-16_11h12.49.002,00_bat_bachelor,2022.2.4,59.947639601082656,
,,,,,,,,,,,,0,0,0,0,197,0,197,0,,,,,,,197,,,1,548.3073057200797,X,l,go,l,1,0.3153463597363384,,,,,,,,,,,,,,,,7,001,2022-12-16_11h12.49.002,00_bat_bachelor,2022.2.4,59.947639601082656,
,,,,,,,,,,,,0,0,0,0,198,0,198,0,,,,,,,198,,,1,549.725445445971,X,None,nogo,None,1,,,,,,,,,,,,,,,,,7,001,2022-12-16_11h12.49.002,00_bat_bachelor,2022.2.4,59.947639601082656,
,,,,,,,,,,,,0,0,0,0,199,0,199,0,,,,,,,199,,,1,551.5272420401059,Y,d,go,d,1,0.22273634644813,,,,,,,,,,,,,,,,7,001,2022-12-16_11h12.49.002,00_bat_bachelor,2022.2.4,59.947639601082656,
,,,,,,,,,,,,0,0,0,0,200,0,200,0,,,,,,,200,,,1,552.8620656976141,X,l,go,l,1,0.5771033805540924,,,,,,,,,,,,,,,,7,001,2022-12-16_11h12.49.002,00_bat_bachelor,2022.2.4,59.947639601082656,
,,,,,,,,,,,,0,0,0,0,201,0,201,0,,,,,,,201,,,1,554.546988083287,Y,d,go,d,1,0.3955190447938435,,,,,,,,,,,,,,,,7,001,2022-12-16_11h12.49.002,00_bat_bachelor,2022.2.4,59.947639601082656,
,,,,,,,,,,,,0,0,0,0,202,0,202,0,,,,,,,202,,,1,556.048551774953,X,l,go,l,1,0.41409216537914517,,,,,,,,,,,,,,,,7,001,2022-12-16_11h12.49.002,00_bat_bachelor,2022.2.4,59.947639601082656,
,,,,,,,,,,,,0,0,0,0,203,0,203,0,,,,,,,203,,,1,557.5666291008702,Y,d,go,d,1,0.3116893355958723,,,,,,,,,,,,,,,,7,001,2022-12-16_11h12.49.002,00_bat_bachelor,2022.2.4,59.947639601082656,
,,,,,,,,,,,,0,0,0,0,204,0,204,0,,,,,,,204,,,1,558.9849181600337,Y,None,nogo,None,1,,,,,,,,,,,,,,,,,7,001,2022-12-16_11h12.49.002,00_bat_bachelor,2022.2.4,59.947639601082656,
,,,,,,,,,,,,0,0,0,0,205,0,205,0,,,,,,,205,,,1,560.7863861389185,X,l,go,l,1,0.24353920970867193,,,,,,,,,,,,,,,,7,001,2022-12-16_11h12.49.002,00_bat_bachelor,2022.2.4,59.947639601082656,
,,,,,,,,,,,,0,0,0,0,206,0,206,0,,,,,,,206,,,1,562.1378292767879,Y,d,go,d,1,0.35674982992992454,,,,,,,,,,,,,,,,7,001,2022-12-16_11h12.49.002,00_bat_bachelor,2022.2.4,59.947639601082656,
,,,,,,,,,,,,0,0,0,0,207,0,207,0,,,,,,,207,,,1,563.6059094950115,Y,None,nogo,None,1,,,,,,,,,,,,,,,,,7,001,2022-12-16_11h12.49.002,00_bat_bachelor,2022.2.4,59.947639601082656,
,,,,,,,,,,,,0,0,0,0,208,0,208,0,,,,,,,208,,,1,565.4076798327467,X,l,go,l,1,0.27910104127300883,,,,,,,,,,,,,,,,7,001,2022-12-16_11h12.49.002,00_bat_bachelor,2022.2.4,59.947639601082656,
,,,,,,,,,,,,0,0,0,0,209,0,209,0,,,,,,,209,,,1,566.7932185463719,Y,d,go,d,1,0.4141565756092973,,,,,,,,,,,,,,,,7,001,2022-12-16_11h12.49.002,00_bat_bachelor,2022.2.4,59.947639601082656,
,,,,,,,,,,,,0,0,0,0,210,0,210,0,,,,,,,210,,,1,568.3113024363888,Y,None,nogo,None,1,,,,,,,,,,,,,,,,,7,001,2022-12-16_11h12.49.002,00_bat_bachelor,2022.2.4,59.947639601082656,
,,,,,,,,,,,,0,0,0,0,211,0,211,0,,,,,,,211,,,1,570.1124947230792,X,l,go,l,1,0.2696503784835045,,,,,,,,,,,,,,,,7,001,2022-12-16_11h12.49.002,00_bat_bachelor,2022.2.4,59.947639601082656,
,,,,,,,,,,,,0,0,0,0,212,0,212,0,,,,,,,212,,,1,571.4972194883203,Y,d,go,d,1,0.6212133111757225,,,,,,,,,,,,,,,,7,001,2022-12-16_11h12.49.002,00_bat_bachelor,2022.2.4,59.947639601082656,
,,,,,,,,,,,,0,0,0,0,213,0,213,0,,,,,,,213,,,1,573.2322103662727,X,l,go,l,1,0.3423305537942838,,,,,,,,,,,,,,,,7,001,2022-12-16_11h12.49.002,00_bat_bachelor,2022.2.4,59.947639601082656,
,,,,,,,,,,,,0,0,0,0,214,0,214,0,,,,,,,214,,,1,574.6837285400088,X,None,nogo,None,1,,,,,,,,,,,,,,,,,7,001,2022-12-16_11h12.49.002,00_bat_bachelor,2022.2.4,59.947639601082656,
,,,,,,,,,,,,0,0,0,0,215,0,215,0,,,,,,,215,,,1,576.4854484162263,Y,d,go,d,1,0.4653573751166391,,,,,,,,,,,,,,,,7,001,2022-12-16_11h12.49.002,00_bat_bachelor,2022.2.4,59.947639601082656,
,,,,,,,,,,,,0,0,0,0,216,0,216,0,,,,,,,216,,,1,578.0537349523138,X,l,go,l,1,0.2401012624010832,,,,,,,,,,,,,,,,7,001,2022-12-16_11h12.49.002,00_bat_bachelor,2022.2.4,59.947639601082656,
,,,,,,,,,,,,0,0,0,0,217,0,217,0,,,,,,,217,,,1,579.4051965517142,Y,d,go,d,1,0.2084011728422297,,,,,,,,,,,,,,,,7,001,2022-12-16_11h12.49.002,00_bat_bachelor,2022.2.4,59.947639601082656,
,,,,,,,,,,,,0,0,0,0,218,0,218,0,,,,,,,218,,,1,580.7398753887692,Y,None,nogo,l,0,0.2093111211867722,,,,,,,,,,,,,,,,7,001,2022-12-16_11h12.49.002,00_bat_bachelor,2022.2.4,59.947639601082656,
,,,,,,,,,,,,0,0,0,0,219,0,219,0,,,,,,,219,,,1,582.0580028479988,X,l,go,l,1,0.3241726125258424,,,,,,,,,,,,,,,,7,001,2022-12-16_11h12.49.002,00_bat_bachelor,2022.2.4,59.947639601082656,
,,,,,,,,,,,,0,0,0,0,220,0,220,0,,,,,,,220,,,1,583.4929413362293,Y,d,go,d,1,0.489541980579304,,,,,,,,,,,,,,,,7,001,2022-12-16_11h12.49.002,00_bat_bachelor,2022.2.4,59.947639601082656,
,,,,,,,,,,,,0,0,0,0,221,0,221,0,,,,,,,221,,,1,585.0947105252469,X,l,go,l,1,0.3922771999700103,,,,,,,,,,,,,,,,7,001,2022-12-16_11h12.49.002,00_bat_bachelor,2022.2.4,59.947639601082656,
,,,,,,,,,,,,0,0,0,0,222,0,222,0,,,,,,,222,,,1,586.5957138068866,X,None,nogo,None,1,,,,,,,,,,,,,,,,,7,001,2022-12-16_11h12.49.002,00_bat_bachelor,2022.2.4,59.947639601082656,
,,,,,,,,,,,,0,0,0,0,223,0,223,0,,,,,,,223,,,1,588.3981758366458,Y,d,go,d,1,0.42446098163821944,,,,,,,,,,,,,,,,7,001,2022-12-16_11h12.49.002,00_bat_bachelor,2022.2.4,59.947639601082656,
,,,,,,,,,,,,0,0,0,0,224,0,224,0,,,,,,,224,,,1,589.9328632070306,X,l,go,l,1,0.34523803978100887,,,,,,,,,,,,,,,,7,001,2022-12-16_11h12.49.002,00_bat_bachelor,2022.2.4,59.947639601082656,
,,,,,,,,,,,,0,0,0,0,225,0,225,0,,,,,,,225,,,1,591.4009676303722,X,None,nogo,None,1,,592.2016831993094,,,,,,,,,,,,,,,7,001,2022-12-16_11h12.49.002,00_bat_bachelor,2022.2.4,59.947639601082656,
,,,,,,,,,,,,0,0,0,0,226,0,226,0,,,,,,,226,,,1,593.202771198863,Y,d,go,d,1,0.25930002375542927,,,,,,,,,,,,,,,,7,001,2022-12-16_11h12.49.002,00_bat_bachelor,2022.2.4,59.947639601082656,
,,,,,,,,,,,,0,0,0,0,227,0,227,0,,,,,,,227,,,1,594.5706734069033,X,l,go,l,1,0.40379801575630836,,,,,,,,,,,,,,,,7,001,2022-12-16_11h12.49.002,00_bat_bachelor,2022.2.4,59.947639601082656,
,,,,,,,,,,,,0,0,0,0,228,0,228,0,,,,,,,228,,,1,596.0888327840687,Y,d,go,d,1,0.27706699082540354,,,,,,,,,,,,,,,,7,001,2022-12-16_11h12.49.002,00_bat_bachelor,2022.2.4,59.947639601082656,
,,,,,,,,,,,,0,0,0,0,229,0,229,0,,,,,,,229,,,1,597.473496831386,X,l,go,l,1,0.4688740916224674,,,,,,,,,,,,,,,,7,001,2022-12-16_11h12.49.002,00_bat_bachelor,2022.2.4,59.947639601082656,
,,,,,,,,,,,,0,0,0,0,230,0,230,0,,,,,,,230,,,1,599.0581008992406,X,None,nogo,d,0,0.23633264856249525,,,,,,,,,,,,,,,,7,001,2022-12-16_11h12.49.002,00_bat_bachelor,2022.2.4,59.947639601082656,
,,,,,,,,,,,,0,0,0,0,231,0,231,0,,,,,,,231,,,1,600.4095842422219,Y,d,go,d,1,0.4370882585089362,,,,,,,,,,,,,,,,7,001,2022-12-16_11h12.49.002,00_bat_bachelor,2022.2.4,59.947639601082656,
,,,,,,,,,,,,0,0,0,0,232,0,232,0,,,,,,,232,,,1,601.9610231954778,X,l,go,l,1,0.42113380351605656,,,,,,,,,,,,,,,,7,001,2022-12-16_11h12.49.002,00_bat_bachelor,2022.2.4,59.947639601082656,
,,,,,,,,,,,,0,0,0,0,233,0,233,0,,,,,,,233,,,1,603.4960637964866,X,None,nogo,None,1,,604.2964749552923,,,,,,,,,,,,,,,7,001,2022-12-16_11h12.49.002,00_bat_bachelor,2022.2.4,59.947639601082656,
,,,,,,,,,,,,0,0,0,0,234,0,234,0,,,,,,,234,,,1,605.297761518867,Y,d,go,d,1,0.236763827872835,,,,,,,,,,,,,,,,7,001,2022-12-16_11h12.49.002,00_bat_bachelor,2022.2.4,59.947639601082656,
,,,,,,,,,,,,0,0,0,0,235,0,235,0,,,,,,,235,,,1,606.6489240414671,X,l,go,l,1,0.44547184481319846,,,,,,,,,,,,,,,,7,001,2022-12-16_11h12.49.002,00_bat_bachelor,2022.2.4,59.947639601082656,
,,,,,,,,,,,,0,0,0,0,236,0,236,0,,,,,,,236,,,1,608.2005340715757,Y,d,go,d,1,0.4538394311238676,,,,,,,,,,,,,,,,7,001,2022-12-16_11h12.49.002,00_bat_bachelor,2022.2.4,59.947639601082656,
,,,,,,,,,,,,0,0,0,0,237,0,237,0,,,,,,,237,,,1,609.768818556382,X,l,go,l,1,0.2769541703588061,,,,,,,,,,,,,,,,7,001,2022-12-16_11h12.49.002,00_bat_bachelor,2022.2.4,59.947639601082656,
,,,,,,,,,,,,0,0,0,0,238,0,238,0,,,,,,,238,,,1,611.1543535777012,X,None,nogo,None,1,,,,,,,,,,,,,,,,,7,001,2022-12-16_11h12.49.002,00_bat_bachelor,2022.2.4,59.947639601082656,
,,,,,,,,,,,,0,0,0,0,239,0,239,0,,,,,,,239,,,1,612.9552738645029,Y,d,go,d,1,0.20260835470588745,,,,,,,,,,,,,,,,7,001,2022-12-16_11h12.49.002,00_bat_bachelor,2022.2.4,59.947639601082656,
,,,,,,,,,,,,0,0,0,0,240,0,240,0,,,,,,,240,,,1,614.2734718878064,X,l,go,l,1,0.23727295586917307,,,,,,,,,,,,,,,,7,001,2022-12-16_11h12.49.002,00_bat_bachelor,2022.2.4,59.947639601082656,
,,,,,,,,,,,,0,0,0,0,241,0,241,0,,,,,,,241,,,1,615.624703333455,Y,d,go,d,1,0.3097196953781918,,,,,,,,,,,,,,,,7,001,2022-12-16_11h12.49.002,00_bat_bachelor,2022.2.4,59.947639601082656,
,,,,,,,,,,,,0,0,0,0,242,0,242,0,,,,,,,242,,,1,617.0429017259889,X,l,go,l,1,0.5794586616391939,,,,,,,,,,,,,,,,7,001,2022-12-16_11h12.49.002,00_bat_bachelor,2022.2.4,59.947639601082656,
,,,,,,,,,,,,0,0,0,0,243,0,243,0,,,,,,,243,,,1,618.7279004193229,X,None,nogo,None,1,,,,,,,,,,,,,,,,,7,001,2022-12-16_11h12.49.002,00_bat_bachelor,2022.2.4,59.947639601082656,
,,,,,,,,,,,,0,0,0,0,244,0,244,0,,,,,,,244,,,1,620.5295796801724,Y,d,go,d,1,0.34081506723651955,,,,,,,,,,,,,,,,7,001,2022-12-16_11h12.49.002,00_bat_bachelor,2022.2.4,59.947639601082656,
,,,,,,,,,,,,0,0,0,0,245,0,245,0,,,,,,,245,,,1,621.9810043154855,X,l,go,l,1,0.30519456902953834,,,,,,,,,,,,,,,,7,001,2022-12-16_11h12.49.002,00_bat_bachelor,2022.2.4,59.947639601082656,
,,,,,,,,,,,,0,0,0,0,246,0,246,0,,,,,,,246,,,1,623.3993356310418,Y,d,go,d,1,0.43955143698559596,,,,,,,,,,,,,,,,7,001,2022-12-16_11h12.49.002,00_bat_bachelor,2022.2.4,59.947639601082656,
,,,,,,,,,,,,0,0,0,0,247,0,247,0,,,,,,,247,,,1,624.9507885330099,Y,None,nogo,None,1,,,,,,,,,,,,,,,,,7,001,2022-12-16_11h12.49.002,00_bat_bachelor,2022.2.4,59.947639601082656,
,,,,,,,,,,,,0,0,0,0,248,0,248,0,,,,,,,248,,,1,626.7523639990302,X,l,go,l,1,0.24564382422971676,,,,,,,,,,,,,,,,7,001,2022-12-16_11h12.49.002,00_bat_bachelor,2022.2.4,59.947639601082656,
,,,,,,,,,,,,0,0,0,0,249,0,249,0,,,,,,,249,,,1,628.1043958546068,Y,d,go,d,1,0.35049424275263164,,,,,,,,,,,,,,,,7,001,2022-12-16_11h12.49.002,00_bat_bachelor,2022.2.4,59.947639601082656,
,,,,,,,,,,,,1,0,1,0,0,0,0,0,,,,,,,0,,,0.2,651.3603740060005,X,l,go,None,0,,652.1623285487883,,,,,,,,628.5878680665157,space,22.54173847198598,,,,,7,001,2022-12-16_11h12.49.002,00_bat_bachelor,2022.2.4,59.947639601082656,
,,,,,,,,,,,,1,0,1,0,1,0,1,0,,,,,,,1,,,0.2,652.3781992294566,Y,d,go,None,0,,653.1786432087617,,,,,,,,,,,,,,,7,001,2022-12-16_11h12.49.002,00_bat_bachelor,2022.2.4,59.947639601082656,
,,,,,,,,,,,,1,0,1,0,2,0,2,0,,,,,,,2,,,0.2,653.3790488701338,X,l,go,None,0,,654.1799400287425,,,,,,,,,,,,,,,7,001,2022-12-16_11h12.49.002,00_bat_bachelor,2022.2.4,59.947639601082656,
,,,,,,,,,,,,1,0,1,0,3,0,3,0,,,,,,,3,,,0.2,654.3800371774207,Y,d,go,l,0,0.20264199571778363,,,,,,,,,,,,,,,,7,001,2022-12-16_11h12.49.002,00_bat_bachelor,2022.2.4,59.947639601082656,
,,,,,,,,,,,,1,0,1,0,4,0,4,0,,,,,,,4,,,0.2,654.8972816831665,X,l,go,l,1,0.4777167546614578,,,,,,,,,,,,,,,,7,001,2022-12-16_11h12.49.002,00_bat_bachelor,2022.2.4,59.947639601082656,
,,,,,,,,,,,,1,0,1,0,5,0,5,0,,,,,,,5,,,0.2,655.6813281307373,Y,d,go,None,0,,,,,,,,,,,,,,,,,7,001,2022-12-16_11h12.49.002,00_bat_bachelor,2022.2.4,59.947639601082656,
,,,,,,,,,,,,1,0,1,0,6,0,6,0,,,,,,,6,,,0.2,656.6826598224986,Y,None,nogo,None,1,,657.4832178530389,,,,,,,,,,,,,,,7,001,2022-12-16_11h12.49.002,00_bat_bachelor,2022.2.4,59.947639601082656,
,,,,,,,,,,,,1,0,1,0,7,0,7,0,,,,,,,7,,,0.2,657.6832099761191,X,l,go,l,1,0.3149201035011515,,,,,,,,,,,,,,,,7,001,2022-12-16_11h12.49.002,00_bat_bachelor,2022.2.4,59.947639601082656,
,,,,,,,,,,,,1,0,1,0,8,0,8,0,,,,,,,8,,,0.2,658.3007502355897,Y,d,go,d,1,0.41765072802189707,,,,,,,,,,,,,,,,7,001,2022-12-16_11h12.49.002,00_bat_bachelor,2022.2.4,59.947639601082656,
,,,,,,,,,,,,1,0,1,0,9,0,9,0,,,,,,,9,,,0.2,659.0184143514198,Y,None,nogo,l,0,0.44438179397837985,,,,,,,,,,,,,,,,7,001,2022-12-16_11h12.49.002,00_bat_bachelor,2022.2.4,59.947639601082656,
,,,,,,,,,,,,1,0,1,0,10,0,10,0,,,,,,,10,,,0.2,659.7688960948119,X,l,go,None,0,,,,,,,,,,,,,,,,,7,001,2022-12-16_11h12.49.002,00_bat_bachelor,2022.2.4,59.947639601082656,
,,,,,,,,,,,,1,0,1,0,11,0,11,0,,,,,,,11,,,0.2,660.7699828635969,Y,d,go,None,0,,,,,,,,,,,,,,,,,7,001,2022-12-16_11h12.49.002,00_bat_bachelor,2022.2.4,59.947639601082656,
,,,,,,,,,,,,1,0,1,0,12,0,12,0,,,,,,,12,,,0.2,661.7711110682621,Y,None,nogo,None,1,,,,,,,,,,,,,,,,,7,001,2022-12-16_11h12.49.002,00_bat_bachelor,2022.2.4,59.947639601082656,
,,,,,,,,,,,,1,0,1,0,13,0,13,0,,,,,,,13,,,0.2,662.7717276833937,X,l,go,l,1,0.2584540753846909,,,,,,,,,,,,,,,,7,001,2022-12-16_11h12.49.002,00_bat_bachelor,2022.2.4,59.947639601082656,
,,,,,,,,,,,,1,0,1,0,14,0,14,0,,,,,,,14,,,0.2,663.3391957582787,Y,d,go,d,1,0.1793320565629415,,,,,,,,,,,,,,,,7,001,2022-12-16_11h12.49.002,00_bat_bachelor,2022.2.4,59.947639601082656,
,,,,,,,,,,,,1,0,1,0,15,0,15,0,,,,,,,15,,,0.2,663.8229194572639,Y,None,nogo,l,0,0.3112950793471896,,,,,,,,,,,,,,,,7,001,2022-12-16_11h12.49.002,00_bat_bachelor,2022.2.4,59.947639601082656,
,,,,,,,,,,,,1,0,1,0,16,0,16,0,,,,,,,16,,,0.2,664.4400913066293,X,l,go,d,0,0.4695633221090816,,,,,,,,,,,,,,,,7,001,2022-12-16_11h12.49.002,00_bat_bachelor,2022.2.4,59.947639601082656,
,,,,,,,,,,,,1,0,1,0,17,0,17,0,,,,,,,17,,,0.2,665.2412659523011,Y,d,go,None,0,,,,,,,,,,,,,,,,,7,001,2022-12-16_11h12.49.002,00_bat_bachelor,2022.2.4,59.947639601082656,
,,,,,,,,,,,,1,0,1,0,18,0,18,0,,,,,,,18,,,0.2,666.2418226700215,X,l,go,l,1,0.41220580717885014,,,,,,,,,,,,,,,,7,001,2022-12-16_11h12.49.002,00_bat_bachelor,2022.2.4,59.947639601082656,
,,,,,,,,,,,,1,0,1,0,19,0,19,0,,,,,,,19,,,0.2,666.9594908884139,Y,d,go,d,1,0.4224888798832467,,,,,,,,,,,,,,,,7,001,2022-12-16_11h12.49.002,00_bat_bachelor,2022.2.4,59.947639601082656,
,,,,,,,,,,,,1,0,1,0,20,0,20,0,,,,,,,20,,,0.2,667.7098831959454,X,l,go,l,1,0.4244064175579183,,,,,,,,,,,,,,,,7,001,2022-12-16_11h12.49.002,00_bat_bachelor,2022.2.4,59.947639601082656,
,,,,,,,,,,,,1,0,1,0,21,0,21,0,,,,,,,21,,,0.2,668.4440822793508,X,None,nogo,d,0,0.3948618142943019,,,,,,,,,,,,,,,,7,001,2022-12-16_11h12.49.002,00_bat_bachelor,2022.2.4,59.947639601082656,
,,,,,,,,,,,,1,0,1,0,22,0,22,0,,,,,,,22,,,0.2,669.1447502995895,Y,d,go,None,0,,,,,,,,,,,,,,,,,7,001,2022-12-16_11h12.49.002,00_bat_bachelor,2022.2.4,59.947639601082656,
,,,,,,,,,,,,1,0,1,0,23,0,23,0,,,,,,,23,,,0.2,670.1457820940382,X,l,go,l,1,0.3241168176767246,,,,,,,,,,,,,,,,7,001,2022-12-16_11h12.49.002,00_bat_bachelor,2022.2.4,59.947639601082656,
,,,,,,,,,,,,1,0,1,0,24,0,24,0,,,,,,,24,,,0.2,670.7966056219054,Y,d,go,None,0,,671.5972063190948,,,,,,,,,,,,,,,7,001,2022-12-16_11h12.49.002,00_bat_bachelor,2022.2.4,59.947639601082656,
,,,,,,,,,,,,1,0,1,0,25,0,25,0,,,,,,,25,,,0.2,671.7973777241527,X,l,go,None,0,,,,,,,,,,,,,,,,,7,001,2022-12-16_11h12.49.002,00_bat_bachelor,2022.2.4,59.947639601082656,
,,,,,,,,,,,,1,0,1,0,26,0,26,0,,,,,,,26,,,0.2,672.7985584416169,Y,d,go,d,1,0.4481163565488373,,,,,,,,,,,,,,,,7,001,2022-12-16_11h12.49.002,00_bat_bachelor,2022.2.4,59.947639601082656,
,,,,,,,,,,,,1,0,1,0,27,0,27,0,,,,,,,27,,,0.2,673.5491017234453,X,l,go,l,1,0.5933569123475877,,,,,,,,,,,,,,,,7,001,2022-12-16_11h12.49.002,00_bat_bachelor,2022.2.4,59.947639601082656,
,,,,,,,,,,,,1,0,1,0,28,0,28,0,,,,,,,28,,,0.2,674.4499768410351,Y,d,go,d,1,0.34059106732826194,,,,,,,,,,,,,,,,7,001,2022-12-16_11h12.49.002,00_bat_bachelor,2022.2.4,59.947639601082656,
,,,,,,,,,,,,1,0,1,0,29,0,29,0,,,,,,,29,,,0.2,675.1007683689156,X,l,go,l,1,0.31376769371746605,,,,,,,,,,,,,,,,7,001,2022-12-16_11h12.49.002,00_bat_bachelor,2022.2.4,59.947639601082656,
,,,,,,,,,,,,1,0,1,0,30,0,30,0,,,,,,,30,,,0.2,675.7180645259223,Y,d,go,d,1,0.4087576034651761,,,,,,,,,,,,,,,,7,001,2022-12-16_11h12.49.002,00_bat_bachelor,2022.2.4,59.947639601082656,
,,,,,,,,,,,,1,0,1,0,31,0,31,0,,,,,,,31,,,0.2,676.435550180287,Y,None,nogo,None,1,,,,,,,,,,,,,,,,,7,001,2022-12-16_11h12.49.002,00_bat_bachelor,2022.2.4,59.947639601082656,
,,,,,,,,,,,,1,0,1,0,32,0,32,0,,,,,,,32,,,0.2,677.4364560260692,Y,None,nogo,l,0,0.25765612699393614,,,,,,,,,,,,,,,,7,001,2022-12-16_11h12.49.002,00_bat_bachelor,2022.2.4,59.947639601082656,
,,,,,,,,,,,,1,0,1,0,33,0,33,0,,,,,,,33,,,0.2,678.0037210241144,X,l,go,None,0,,,,,,,,,,,,,,,,,7,001,2022-12-16_11h12.49.002,00_bat_bachelor,2022.2.4,59.947639601082656,
,,,,,,,,,,,,1,0,1,0,34,0,34,0,,,,,,,34,,,0.2,679.0048812287666,Y,d,go,d,1,0.08921229866319891,,,,,,,,,,,,,,,,7,001,2022-12-16_11h12.49.002,00_bat_bachelor,2022.2.4,59.947639601082656,
,,,,,,,,,,,,1,0,1,0,35,0,35,0,,,,,,,35,,,0.2,679.4053122439745,Y,None,nogo,l,0,0.34500214244184235,,,,,,,,,,,,,,,,7,001,2022-12-16_11h12.49.002,00_bat_bachelor,2022.2.4,59.947639601082656,
,,,,,,,,,,,,1,0,1,0,36,0,36,0,,,,,,,36,,,0.2,680.0557755668613,X,l,go,l,1,0.6225359772997194,,,,,,,,,,,,,,,,7,001,2022-12-16_11h12.49.002,00_bat_bachelor,2022.2.4,59.947639601082656,
,,,,,,,,,,,,1,0,1,0,37,0,37,0,,,,,,,37,,,0.2,680.9900266707582,Y,d,go,d,1,0.3764548474867411,,,,,,,,,,,,,,,,7,001,2022-12-16_11h12.49.002,00_bat_bachelor,2022.2.4,59.947639601082656,
,,,,,,,,,,,,1,0,1,0,38,0,38,0,,,,,,,38,,,0.2,681.6740075183559,X,l,go,None,0,,682.4747222667806,,,,,,,,,,,,,,,7,001,2022-12-16_11h12.49.002,00_bat_bachelor,2022.2.4,59.947639601082656,
,,,,,,,,,,,,1,0,1,0,39,0,39,0,,,,,,,39,,,0.2,682.6752120306821,Y,d,go,None,0,,683.4758283176088,,,,,,,,,,,,,,,7,001,2022-12-16_11h12.49.002,00_bat_bachelor,2022.2.4,59.947639601082656,
,,,,,,,,,,,,1,0,1,0,40,0,40,0,,,,,,,40,,,0.2,683.6760522354657,Y,None,nogo,None,1,,,,,,,,,,,,,,,,,7,001,2022-12-16_11h12.49.002,00_bat_bachelor,2022.2.4,59.947639601082656,
,,,,,,,,,,,,1,0,1,0,41,0,41,0,,,,,,,41,,,0.2,684.6771554145002,X,l,go,l,1,0.5129032017643453,,,,,,,,,,,,,,,,7,001,2022-12-16_11h12.49.002,00_bat_bachelor,2022.2.4,59.947639601082656,
,,,,,,,,,,,,1,0,1,0,42,0,42,0,,,,,,,42,,,0.2,685.494524925323,Y,d,go,d,1,0.35951208520697264,,,,,,,,,,,,,,,,7,001,2022-12-16_11h12.49.002,00_bat_bachelor,2022.2.4,59.947639601082656,
,,,,,,,,,,,,1,0,1,0,43,0,43,0,,,,,,,43,,,0.2,686.1619646515016,Y,None,nogo,None,1,,686.9627967332117,,,,,,,,,,,,,,,7,001,2022-12-16_11h12.49.002,00_bat_bachelor,2022.2.4,59.947639601082656,
,,,,,,,,,,,,1,0,1,0,44,0,44,0,,,,,,,44,,,0.2,687.1628380870409,X,l,go,l,1,0.25970002359127875,,,,,,,,,,,,,,,,7,001,2022-12-16_11h12.49.002,00_bat_bachelor,2022.2.4,59.947639601082656,
,,,,,,,,,,,,1,0,1,0,45,0,45,0,,,,,,,45,,,0.2,687.730080931249,Y,d,go,d,1,0.5167370463453267,,,,,,,,,,,,,,,,7,001,2022-12-16_11h12.49.002,00_bat_bachelor,2022.2.4,59.947639601082656,
,,,,,,,,,,,,1,0,1,0,46,0,46,0,,,,,,,46,,,0.2,688.5474590574527,X,l,go,l,1,0.5869519918981609,,,,,,,,,,,,,,,,7,001,2022-12-16_11h12.49.002,00_bat_bachelor,2022.2.4,59.947639601082656,
,,,,,,,,,,,,1,0,1,0,47,0,47,0,,,,,,,47,,,0.2,689.4484338673092,X,None,nogo,None,1,,,,,,,,,,,,,,,,,7,001,2022-12-16_11h12.49.002,00_bat_bachelor,2022.2.4,59.947639601082656,
,,,,,,,,,,,,1,0,1,0,48,0,48,0,,,,,,,48,,,0.2,690.4494406361268,Y,d,go,l,0,0.42082488056581724,,,,,,,,,,,,,,,,7,001,2022-12-16_11h12.49.002,00_bat_bachelor,2022.2.4,59.947639601082656,
,,,,,,,,,,,,1,0,1,0,49,0,49,0,,,,,,,49,,,0.2,691.1837168477059,X,l,go,l,1,0.5587550803892896,,,,,,,,,,,,,,,,7,001,2022-12-16_11h12.49.002,00_bat_bachelor,2022.2.4,59.947639601082656,
,,,,,,,,,,,,1,0,1,0,50,0,50,0,,,,,,,50,,,0.2,692.051078132891,X,None,nogo,None,1,,,,,,,,,,,,,,,,,7,001,2022-12-16_11h12.49.002,00_bat_bachelor,2022.2.4,59.947639601082656,
,,,,,,,,,,,,1,0,1,0,51,0,51,0,,,,,,,51,,,0.2,693.0522034657627,X,None,nogo,None,1,,,,,,,,,,,,,,,,,7,001,2022-12-16_11h12.49.002,00_bat_bachelor,2022.2.4,59.947639601082656,
,,,,,,,,,,,,1,0,1,0,52,0,52,0,,,,,,,52,,,0.2,694.0838276579168,Y,d,go,d,1,0.3521931138505465,,,,,,,,,,,,,,,,7,001,2022-12-16_11h12.49.002,00_bat_bachelor,2022.2.4,59.947639601082656,
,,,,,,,,,,,,1,0,1,0,53,0,53,0,,,,,,,53,,,0.2,694.7540140496353,X,l,go,None,0,,,,,,,,,,,,,,,,,7,001,2022-12-16_11h12.49.002,00_bat_bachelor,2022.2.4,59.947639601082656,
,,,,,,,,,,,,1,0,1,0,54,0,54,0,,,,,,,54,,,0.2,695.7547180493464,Y,d,go,l,0,0.4676293741844688,,,,,,,,,,,,,,,,7,001,2022-12-16_11h12.49.002,00_bat_bachelor,2022.2.4,59.947639601082656,
,,,,,,,,,,,,1,0,1,0,55,0,55,0,,,,,,,55,,,0.2,696.5390602916675,Y,None,nogo,None,1,,,,,,,,,,,,,,,,,7,001,2022-12-16_11h12.49.002,00_bat_bachelor,2022.2.4,59.947639601082656,
,,,,,,,,,,,,1,0,1,0,56,0,56,0,,,,,,,56,,,0.2,697.5397983426469,X,l,go,l,1,0.25079746314116846,,,,,,,,,,,,,,,,7,001,2022-12-16_11h12.49.002,00_bat_bachelor,2022.2.4,59.947639601082656,
,,,,,,,,,,,,1,0,1,0,57,0,57,0,,,,,,,57,,,0.2,698.1071486739902,Y,d,go,d,1,0.3476023465031517,,,,,,,,,,,,,,,,7,001,2022-12-16_11h12.49.002,00_bat_bachelor,2022.2.4,59.947639601082656,
,,,,,,,,,,,,1,0,1,0,58,0,58,0,,,,,,,58,,,0.2,698.757764612199,Y,None,nogo,d,0,0.5202184808146626,,,,,,,,,,,,,,,,7,001,2022-12-16_11h12.49.002,00_bat_bachelor,2022.2.4,59.947639601082656,
,,,,,,,,,,,,1,0,1,0,59,0,59,0,,,,,,,59,,,0.2,699.5918491930875,X,l,go,l,1,0.35106983226017974,,,,,,,,,,,,,,,,7,001,2022-12-16_11h12.49.002,00_bat_bachelor,2022.2.4,59.947639601082656,
,,,,,,,,,,,,1,0,1,0,60,0,60,0,,,,,,,60,,,0.2,700.2594054320389,Y,d,go,None,0,,,,,,,,,,,,,,,,,7,001,2022-12-16_11h12.49.002,00_bat_bachelor,2022.2.4,59.947639601082656,
,,,,,,,,,,,,1,0,1,0,61,0,61,0,,,,,,,61,,,0.2,701.2603190726895,Y,None,nogo,None,1,,,,,,,,,,,,,,,,,7,001,2022-12-16_11h12.49.002,00_bat_bachelor,2022.2.4,59.947639601082656,
,,,,,,,,,,,,1,0,1,0,62,0,62,0,,,,,,,62,,,0.2,702.2620048155877,X,l,go,l,1,0.473356551321956,,,,,,,,,,,,,,,,7,001,2022-12-16_11h12.49.002,00_bat_bachelor,2022.2.4,59.947639601082656,
,,,,,,,,,,,,1,0,1,0,63,0,63,0,,,,,,,63,,,0.2,703.0455035710754,Y,d,go,None,0,,,,,,,,,,,,,,,,,7,001,2022-12-16_11h12.49.002,00_bat_bachelor,2022.2.4,59.947639601082656,
,,,,,,,,,,,,1,0,1,0,64,0,64,0,,,,,,,64,,,0.2,704.0464828527249,X,l,go,l,1,0.5281339647468144,,,,,,,,,,,,,,,,7,001,2022-12-16_11h12.49.002,00_bat_bachelor,2022.2.4,59.947639601082656,
,,,,,,,,,,,,1,0,1,0,65,0,65,0,,,,,,,65,,,0.2,704.8806445617868,Y,d,go,d,1,0.5980182437685357,,,,,,,,,,,,,,,,7,001,2022-12-16_11h12.49.002,00_bat_bachelor,2022.2.4,59.947639601082656,
,,,,,,,,,,,,1,0,1,0,66,0,66,0,,,,,,,66,,,0.2,705.7819701407302,Y,None,nogo,None,1,,706.5822081714018,,,,,,,,,,,,,,,7,001,2022-12-16_11h12.49.002,00_bat_bachelor,2022.2.4,59.947639601082656,
,,,,,,,,,,,,1,0,1,0,67,0,67,0,,,,,,,67,,,0.2,706.7825256276817,X,l,go,l,1,0.36757074856740246,,,,,,,,,,,,,,,,7,001,2022-12-16_11h12.49.002,00_bat_bachelor,2022.2.4,59.947639601082656,
,,,,,,,,,,,,1,0,1,0,68,0,68,0,,,,,,,68,,,0.2,707.4666053470337,Y,d,go,None,0,,,,,,,,,,,,,,,,,7,001,2022-12-16_11h12.49.002,00_bat_bachelor,2022.2.4,59.947639601082656,
,,,,,,,,,,,,1,0,1,0,69,0,69,0,,,,,,,69,,,0.2,708.4678447311405,X,l,go,None,0,,,,,,,,,,,,,,,,,7,001,2022-12-16_11h12.49.002,00_bat_bachelor,2022.2.4,59.947639601082656,
,,,,,,,,,,,,1,0,1,0,70,0,70,0,,,,,,,70,,,0.2,709.4689803204183,X,None,nogo,l,0,0.6093884955142244,,,,,,,,,,,,,,,,7,001,2022-12-16_11h12.49.002,00_bat_bachelor,2022.2.4,59.947639601082656,
,,,,,,,,,,,,1,0,1,0,71,0,71,0,,,,,,,71,,,0.2,710.386149174913,Y,d,go,None,0,,,,,,,,,,,,,,,,,7,001,2022-12-16_11h12.49.002,00_bat_bachelor,2022.2.4,59.947639601082656,
,,,,,,,,,,,,1,0,1,0,72,0,72,0,,,,,,,72,,,0.2,711.3871608668057,X,l,go,l,1,0.5473019568829045,,,,,,,,,,,,,,,,7,001,2022-12-16_11h12.49.002,00_bat_bachelor,2022.2.4,59.947639601082656,
,,,,,,,,,,,,1,0,1,0,73,0,73,0,,,,,,,73,,,0.2,712.2378263639687,X,None,nogo,None,1,,,,,,,,,,,,,,,,,7,001,2022-12-16_11h12.49.002,00_bat_bachelor,2022.2.4,59.947639601082656,
,,,,,,,,,,,,1,0,1,0,74,0,74,0,,,,,,,74,,,0.2,713.2389566199151,X,None,nogo,None,1,,,,,,,,,,,,,,,,,7,001,2022-12-16_11h12.49.002,00_bat_bachelor,2022.2.4,59.947639601082656,
,,,,,,,,,,,,1,0,1,0,75,0,75,0,,,,,,,75,,,0.2,714.239934670796,Y,d,go,d,1,0.4706468088440374,,,,,,,,,,,,,,,,7,001,2022-12-16_11h12.49.002,00_bat_bachelor,2022.2.4,59.947639601082656,
,,,,,,,,,,,,1,0,1,0,76,0,76,0,,,,,,,76,,,0.2,715.0241041952393,X,l,go,None,0,,,,,,,,,,,,,,,,,7,001,2022-12-16_11h12.49.002,00_bat_bachelor,2022.2.4,59.947639601082656,
,,,,,,,,,,,,1,0,1,0,77,0,77,0,,,,,,,77,,,0.2,716.0252127076051,Y,d,go,None,0,,,,,,,,,,,,,,,,,7,001,2022-12-16_11h12.49.002,00_bat_bachelor,2022.2.4,59.947639601082656,
,,,,,,,,,,,,1,0,1,0,78,0,78,0,,,,,,,78,,,0.2,717.026007784202,Y,None,nogo,None,1,,717.8269863273902,,,,,,,,,,,,,,,7,001,2022-12-16_11h12.49.002,00_bat_bachelor,2022.2.4,59.947639601082656,
,,,,,,,,,,,,1,0,1,0,79,0,79,0,,,,,,,79,,,0.2,718.0272098349908,X,l,go,l,1,0.30743087580441397,,,,,,,,,,,,,,,,7,001,2022-12-16_11h12.49.002,00_bat_bachelor,2022.2.4,59.947639601082656,
,,,,,,,,,,,,1,0,1,0,80,0,80,0,,,,,,,80,,,0.2,718.6444071202432,Y,d,go,d,1,0.5216794032921257,,,,,,,,,,,,,,,,7,001,2022-12-16_11h12.49.002,00_bat_bachelor,2022.2.4,59.947639601082656,
,,,,,,,,,,,,1,0,1,0,81,0,81,0,,,,,,,81,,,0.2,719.4784482139701,X,l,go,l,1,0.567297435859075,,,,,,,,,,,,,,,,7,001,2022-12-16_11h12.49.002,00_bat_bachelor,2022.2.4,59.947639601082656,
,,,,,,,,,,,,1,0,1,0,82,0,82,0,,,,,,,82,,,0.2,720.3462140118097,X,None,nogo,None,1,,,,,,,,,,,,,,,,,7,001,2022-12-16_11h12.49.002,00_bat_bachelor,2022.2.4,59.947639601082656,
,,,,,,,,,,,,1,0,1,0,83,0,83,0,,,,,,,83,,,0.2,721.3470919601673,X,None,nogo,None,1,,,,,,,,,,,,,,,,,7,001,2022-12-16_11h12.49.002,00_bat_bachelor,2022.2.4,59.947639601082656,
,,,,,,,,,,,,1,0,1,0,84,0,84,0,,,,,,,84,,,0.2,722.3481163700035,Y,d,go,d,1,0.3937647891032725,,,,,,,,,,,,,,,,7,001,2022-12-16_11h12.49.002,00_bat_bachelor,2022.2.4,59.947639601082656,
,,,,,,,,,,,,1,0,1,0,85,0,85,0,,,,,,,85,,,0.2,723.0487154671937,X,l,go,None,0,,,,,,,,,,,,,,,,,7,001,2022-12-16_11h12.49.002,00_bat_bachelor,2022.2.4,59.947639601082656,
,,,,,,,,,,,,1,0,1,0,86,0,86,0,,,,,,,86,,,0.2,724.0498379282717,Y,d,go,l,0,0.41969093231301713,,,,,,,,,,,,,,,,7,001,2022-12-16_11h12.49.002,00_bat_bachelor,2022.2.4,59.947639601082656,
,,,,,,,,,,,,1,0,1,0,87,0,87,0,,,,,,,87,,,0.2,724.7838642937993,X,l,go,None,0,,,,,,,,,,,,,,,,,7,001,2022-12-16_11h12.49.002,00_bat_bachelor,2022.2.4,59.947639601082656,
,,,,,,,,,,,,1,0,1,0,88,0,88,0,,,,,,,88,,,0.2,725.7847061396078,X,None,nogo,None,1,,,,,,,,,,,,,,,,,7,001,2022-12-16_11h12.49.002,00_bat_bachelor,2022.2.4,59.947639601082656,
,,,,,,,,,,,,1,0,1,0,89,0,89,0,,,,,,,89,,,0.2,726.7856128059025,Y,d,go,d,1,0.46794568174692586,,,,,,,,,,,,,,,,7,001,2022-12-16_11h12.49.002,00_bat_bachelor,2022.2.4,59.947639601082656,
,,,,,,,,,,,,1,0,1,0,90,0,90,0,,,,,,,90,,,0.2,727.570245509643,X,l,go,l,1,0.3486173204457259,,,,,,,,,,,,,,,,7,001,2022-12-16_11h12.49.002,00_bat_bachelor,2022.2.4,59.947639601082656,
,,,,,,,,,,,,1,0,1,0,91,0,91,0,,,,,,,91,,,0.2,728.2205393967017,Y,d,go,d,1,0.36173772531952864,,,,,,,,,,,,,,,,7,001,2022-12-16_11h12.49.002,00_bat_bachelor,2022.2.4,59.947639601082656,
,,,,,,,,,,,,1,0,1,0,92,0,92,0,,,,,,,92,,,0.2,728.8879606613496,X,l,go,l,1,0.46997727065712525,,,,,,,,,,,,,,,,7,001,2022-12-16_11h12.49.002,00_bat_bachelor,2022.2.4,59.947639601082656,
,,,,,,,,,,,,1,0,1,0,93,0,93,0,,,,,,,93,,,0.2,729.6719291602342,Y,d,go,d,1,0.3820577169831836,,,,,,,,,,,,,,,,7,001,2022-12-16_11h12.49.002,00_bat_bachelor,2022.2.4,59.947639601082656,
,,,,,,,,,,,,1,0,1,0,94,0,94,0,,,,,,,94,,,0.2,730.3560150334297,Y,None,nogo,l,0,0.4028351443565157,,,,,,,,,,,,,,,,7,001,2022-12-16_11h12.49.002,00_bat_bachelor,2022.2.4,59.947639601082656,
,,,,,,,,,,,,1,0,1,0,95,0,95,0,,,,,,,95,,,0.2,731.0734059186027,X,l,go,None,0,,731.874432051515,,,,,,,,,,,,,,,7,001,2022-12-16_11h12.49.002,00_bat_bachelor,2022.2.4,59.947639601082656,
,,,,,,,,,,,,1,0,1,0,96,0,96,0,,,,,,,96,,,0.2,732.0743417130905,Y,d,go,d,1,0.4044051949943537,,,,,,,,,,,,,,,,7,001,2022-12-16_11h12.49.002,00_bat_bachelor,2022.2.4,59.947639601082656,
,,,,,,,,,,,,1,0,1,0,97,0,97,0,,,,,,,97,,,0.2,732.7917514700507,Y,None,nogo,None,1,,,,,,,,,,,,,,,,,7,001,2022-12-16_11h12.49.002,00_bat_bachelor,2022.2.4,59.947639601082656,
,,,,,,,,,,,,1,0,1,0,98,0,98,0,,,,,,,98,,,0.2,733.7926138286712,X,l,go,l,1,0.32552563761163356,,,,,,,,,,,,,,,,7,001,2022-12-16_11h12.49.002,00_bat_bachelor,2022.2.4,59.947639601082656,
,,,,,,,,,,,,1,0,1,0,99,0,99,0,,,,,,,99,,,0.2,734.4263592096988,Y,d,go,d,1,0.43622384860719876,,,,,,,,,,,,,,,,7,001,2022-12-16_11h12.49.002,00_bat_bachelor,2022.2.4,59.947639601082656,
,,,,,,,,,,,,1,0,1,0,100,0,100,0,,,,,,,100,,,0.2,735.1773390041685,X,l,go,l,1,0.4932654662310938,,,,,,,,,,,,,,,,7,001,2022-12-16_11h12.49.002,00_bat_bachelor,2022.2.4,59.947639601082656,
,,,,,,,,,,,,1,0,1,0,101,0,101,0,,,,,,,101,,,0.2,735.9783130345381,Y,d,go,d,1,0.4443436401477925,,,,,,,,,,,,,,,,7,001,2022-12-16_11h12.49.002,00_bat_bachelor,2022.2.4,59.947639601082656,
,,,,,,,,,,,,1,0,1,0,102,0,102,0,,,,,,,102,,,0.2,736.7292091367347,Y,None,nogo,None,1,,737.5299206031095,,,,,,,,,,,,,,,7,001,2022-12-16_11h12.49.002,00_bat_bachelor,2022.2.4,59.947639601082656,
,,,,,,,,,,,,1,0,1,0,103,0,103,0,,,,,,,103,,,0.2,737.7302134440149,X,l,go,l,1,0.4917417745487569,,,,,,,,,,,,,,,,7,001,2022-12-16_11h12.49.002,00_bat_bachelor,2022.2.4,59.947639601082656,
,,,,,,,,,,,,1,0,1,0,104,0,104,0,,,,,,,104,,,0.2,738.5313023461324,Y,d,go,d,1,0.44389112751292714,,,,,,,,,,,,,,,,7,001,2022-12-16_11h12.49.002,00_bat_bachelor,2022.2.4,59.947639601082656,
,,,,,,,,,,,,1,0,1,0,105,0,105,0,,,,,,,105,,,0.2,739.2815379357794,Y,None,nogo,None,1,,,,,,,,,,,,,,,,,7,001,2022-12-16_11h12.49.002,00_bat_bachelor,2022.2.4,59.947639601082656,
,,,,,,,,,,,,1,0,1,0,106,0,106,0,,,,,,,106,,,0.2,740.282670243007,X,l,go,l,1,0.3399420419537478,,,,,,,,,,,,,,,,7,001,2022-12-16_11h12.49.002,00_bat_bachelor,2022.2.4,59.947639601082656,
,,,,,,,,,,,,1,0,1,0,107,0,107,0,,,,,,,107,,,0.2,740.9334662837061,Y,d,go,d,1,0.3368503509142897,,,,,,,,,,,,,,,,7,001,2022-12-16_11h12.49.002,00_bat_bachelor,2022.2.4,59.947639601082656,
,,,,,,,,,,,,1,0,1,0,108,0,108,0,,,,,,,108,,,0.2,741.5838463245759,X,l,go,l,1,0.590803887753907,,,,,,,,,,,,,,,,7,001,2022-12-16_11h12.49.002,00_bat_bachelor,2022.2.4,59.947639601082656,
,,,,,,,,,,,,1,0,1,0,109,0,109,0,,,,,,,109,,,0.2,742.4847591857399,Y,d,go,d,1,0.36946120933026805,,,,,,,,,,,,,,,,7,001,2022-12-16_11h12.49.002,00_bat_bachelor,2022.2.4,59.947639601082656,
,,,,,,,,,,,,1,0,1,0,110,0,110,0,,,,,,,110,,,0.2,743.1687465974373,X,l,go,None,0,,743.9695388842918,,,,,,,,,,,,,,,7,001,2022-12-16_11h12.49.002,00_bat_bachelor,2022.2.4,59.947639601082656,
,,,,,,,,,,,,1,0,1,0,111,0,111,0,,,,,,,111,,,0.2,744.1698436226282,X,None,nogo,None,1,,,,,,,,,,,,,,,,,7,001,2022-12-16_11h12.49.002,00_bat_bachelor,2022.2.4,59.947639601082656,
,,,,,,,,,,,,1,0,1,0,112,0,112,0,,,,,,,112,,,0.2,745.1710066990743,Y,d,go,d,1,0.6198783373644687,,,,,,,,,,,,,,,,7,001,2022-12-16_11h12.49.002,00_bat_bachelor,2022.2.4,59.947639601082656,
,,,,,,,,,,,,1,0,1,0,113,0,113,0,,,,,,,113,,,0.2,746.1051019055992,X,l,go,l,1,0.21373983731876933,,,,,,,,,,,,,,,,7,001,2022-12-16_11h12.49.002,00_bat_bachelor,2022.2.4,59.947639601082656,
,,,,,,,,,,,,1,0,1,0,114,0,114,0,,,,,,,114,,,0.2,746.6222926677774,Y,d,go,d,1,0.4168162668256059,,,,,,,,,,,,,,,,7,001,2022-12-16_11h12.49.002,00_bat_bachelor,2022.2.4,59.947639601082656,
,,,,,,,,,,,,1,0,1,0,115,0,115,0,,,,,,,115,,,0.2,747.3398751426153,X,l,go,l,1,0.44262220495676274,,,,,,,,,,,,,,,,7,001,2022-12-16_11h12.49.002,00_bat_bachelor,2022.2.4,59.947639601082656,
,,,,,,,,,,,,1,0,1,0,116,0,116,0,,,,,,,116,,,0.2,748.0904192449561,X,None,nogo,d,0,0.3963649931648092,,,,,,,,,,,,,,,,7,001,2022-12-16_11h12.49.002,00_bat_bachelor,2022.2.4,59.947639601082656,
,,,,,,,,,,,,1,0,1,0,117,0,117,0,,,,,,,117,,,0.2,748.7911976241242,Y,d,go,None,0,,,,,,,,,,,,,,,,,7,001,2022-12-16_11h12.49.002,00_bat_bachelor,2022.2.4,59.947639601082656,
,,,,,,,,,,,,1,0,1,0,118,0,118,0,,,,,,,118,,,0.2,749.7920845981191,X,l,go,l,1,0.5027280264517344,,,,,,,,,,,,,,,,7,001,2022-12-16_11h12.49.002,00_bat_bachelor,2022.2.4,59.947639601082656,
,,,,,,,,,,,,1,0,1,0,119,0,119,0,,,,,,,119,,,0.2,750.6096231345136,Y,d,go,d,1,0.31706410262148665,,,,,,,,,,,,,,,,7,001,2022-12-16_11h12.49.002,00_bat_bachelor,2022.2.4,59.947639601082656,
,,,,,,,,,,,,1,0,1,0,120,0,120,0,,,,,,,120,,,0.2,751.2268503684716,X,l,go,None,0,,,,,,,,,,,,,,,,,7,001,2022-12-16_11h12.49.002,00_bat_bachelor,2022.2.4,59.947639601082656,
,,,,,,,,,,,,1,0,1,0,121,0,121,0,,,,,,,121,,,0.2,752.2278792911263,Y,d,go,d,1,0.5946504502783796,,,,,,,,,,,,,,,,7,001,2022-12-16_11h12.49.002,00_bat_bachelor,2022.2.4,59.947639601082656,
,,,,,,,,,,,,1,0,1,0,122,0,122,0,,,,,,,122,,,0.2,753.1288007676715,X,l,go,l,1,0.3901602777615949,,,,,,,,,,,,,,,,7,001,2022-12-16_11h12.49.002,00_bat_bachelor,2022.2.4,59.947639601082656,
,,,,,,,,,,,,1,0,1,0,123,0,123,0,,,,,,,123,,,0.2,753.8293354546315,Y,d,go,d,1,0.4489807664505747,,,,,,,,,,,,,,,,7,001,2022-12-16_11h12.49.002,00_bat_bachelor,2022.2.4,59.947639601082656,
,,,,,,,,,,,,1,0,1,0,124,0,124,0,,,,,,,124,,,0.2,754.5807193514997,Y,None,nogo,None,1,,,,,,,,,,,,,,,,,7,001,2022-12-16_11h12.49.002,00_bat_bachelor,2022.2.4,59.947639601082656,
,,,,,,,,,,,,1,0,1,0,125,0,125,0,,,,,,,125,,,0.2,755.5812091974526,X,l,go,l,1,0.3772445907526958,,,,,,,,,,,,,,,,7,001,2022-12-16_11h12.49.002,00_bat_bachelor,2022.2.4,59.947639601082656,
,,,,,,,,,,,,1,0,1,0,126,0,126,0,,,,,,,126,,,0.2,756.2658632755433,Y,d,go,None,0,,,,,,,,,,,,,,,,,7,001,2022-12-16_11h12.49.002,00_bat_bachelor,2022.2.4,59.947639601082656,
,,,,,,,,,,,,1,0,1,0,127,0,127,0,,,,,,,127,,,0.2,757.2661754805433,X,l,go,l,1,0.6362606896178136,,,,,,,,,,,,,,,,7,001,2022-12-16_11h12.49.002,00_bat_bachelor,2022.2.4,59.947639601082656,
,,,,,,,,,,,,1,0,1,0,128,0,128,0,,,,,,,128,,,0.2,758.2171855519239,X,None,nogo,None,1,,,,,,,,,,,,,,,,,7,001,2022-12-16_11h12.49.002,00_bat_bachelor,2022.2.4,59.947639601082656,
,,,,,,,,,,,,1,0,1,0,129,0,129,0,,,,,,,129,,,0.2,759.2180971412936,Y,d,go,None,0,,,,,,,,,,,,,,,,,7,001,2022-12-16_11h12.49.002,00_bat_bachelor,2022.2.4,59.947639601082656,
,,,,,,,,,,,,1,0,1,0,130,0,130,0,,,,,,,130,,,0.2,760.2190973460113,X,l,go,l,1,0.5712346650130371,,,,,,,,,,,,,,,,7,001,2022-12-16_11h12.49.002,00_bat_bachelor,2022.2.4,59.947639601082656,
,,,,,,,,,,,,1,0,1,0,131,0,131,0,,,,,,,131,,,0.2,761.10372303437,X,None,nogo,d,0,0.22267973108699834,,,,,,,,,,,,,,,,7,001,2022-12-16_11h12.49.002,00_bat_bachelor,2022.2.4,59.947639601082656,
,,,,,,,,,,,,1,0,1,0,132,0,132,0,,,,,,,132,,,0.2,761.6373966615809,Y,d,go,None,0,,762.4380055638951,,,,,,,,,,,,,,,7,001,2022-12-16_11h12.49.002,00_bat_bachelor,2022.2.4,59.947639601082656,
,,,,,,,,,,,,1,0,1,0,133,0,133,0,,,,,,,133,,,0.2,762.6387258918048,X,l,go,l,1,0.5115989971712338,,,,,,,,,,,,,,,,7,001,2022-12-16_11h12.49.002,00_bat_bachelor,2022.2.4,59.947639601082656,
,,,,,,,,,,,,1,0,1,0,134,0,134,0,,,,,,,134,,,0.2,763.4559743770362,X,None,nogo,None,1,,,,,,,,,,,,,,,,,7,001,2022-12-16_11h12.49.002,00_bat_bachelor,2022.2.4,59.947639601082656,
,,,,,,,,,,,,1,0,1,0,135,0,135,0,,,,,,,135,,,0.2,764.4568683253874,Y,d,go,d,1,0.42163800843724175,,,,,,,,,,,,,,,,7,001,2022-12-16_11h12.49.002,00_bat_bachelor,2022.2.4,59.947639601082656,
,,,,,,,,,,,,1,0,1,0,136,0,136,0,,,,,,,136,,,0.2,765.1909147934709,X,l,go,l,1,0.5592687212042051,,,,,,,,,,,,,,,,7,001,2022-12-16_11h12.49.002,00_bat_bachelor,2022.2.4,59.947639601082656,
,,,,,,,,,,,,1,0,1,0,137,0,137,0,,,,,,,137,,,0.2,766.0581985402262,Y,d,go,d,1,0.32464440720394805,,,,,,,,,,,,,,,,7,001,2022-12-16_11h12.49.002,00_bat_bachelor,2022.2.4,59.947639601082656,
,,,,,,,,,,,,1,0,1,0,138,0,138,0,,,,,,,138,,,0.2,766.6925666902291,Y,None,nogo,l,0,0.5057027944621382,,,,,,,,,,,,,,,,7,001,2022-12-16_11h12.49.002,00_bat_bachelor,2022.2.4,59.947639601082656,
,,,,,,,,,,,,1,0,1,0,139,0,139,0,,,,,,,139,,,0.2,767.5097778421425,X,l,go,None,0,,,,,,,,,,,,,,,,,7,001,2022-12-16_11h12.49.002,00_bat_bachelor,2022.2.4,59.947639601082656,
,,,,,,,,,,,,1,0,1,0,140,0,140,0,,,,,,,140,,,0.2,768.5109056365516,Y,d,go,d,1,0.48704310980957644,,,,,,,,,,,,,,,,7,001,2022-12-16_11h12.49.002,00_bat_bachelor,2022.2.4,59.947639601082656,
,,,,,,,,,,,,1,0,1,0,141,0,141,0,,,,,,,141,,,0.2,769.3118008977226,Y,None,nogo,None,1,,,,,,,,,,,,,,,,,7,001,2022-12-16_11h12.49.002,00_bat_bachelor,2022.2.4,59.947639601082656,
,,,,,,,,,,,,1,0,1,0,142,0,142,0,,,,,,,142,,,0.2,770.3125385384458,X,l,go,l,1,0.3015494423197538,,,,,,,,,,,,,,,,7,001,2022-12-16_11h12.49.002,00_bat_bachelor,2022.2.4,59.947639601082656,
,,,,,,,,,,,,1,0,1,0,143,0,143,0,,,,,,,143,,,0.2,770.9299245415693,Y,d,go,None,0,,,,,,,,,,,,,,,,,7,001,2022-12-16_11h12.49.002,00_bat_bachelor,2022.2.4,59.947639601082656,
,,,,,,,,,,,,1,0,1,0,144,0,144,0,,,,,,,144,,,0.2,771.931017464198,X,l,go,l,1,0.5792728155615237,,,,,,,,,,,,,,,,7,001,2022-12-16_11h12.49.002,00_bat_bachelor,2022.2.4,59.947639601082656,
,,,,,,,,,,,,1,0,1,0,145,0,145,0,,,,,,,145,,,0.2,772.8155221269653,Y,d,go,d,1,0.43959984722215495,,,,,,,,,,,,,,,,7,001,2022-12-16_11h12.49.002,00_bat_bachelor,2022.2.4,59.947639601082656,
,,,,,,,,,,,,1,0,1,0,146,0,146,0,,,,,,,146,,,0.2,773.5656009987279,Y,None,nogo,None,1,,,,,,,,,,,,,,,,,7,001,2022-12-16_11h12.49.002,00_bat_bachelor,2022.2.4,59.947639601082656,
,,,,,,,,,,,,1,0,1,0,147,0,147,0,,,,,,,147,,,0.2,774.5671493057848,X,l,go,l,1,0.5117807406864472,,,,,,,,,,,,,,,,7,001,2022-12-16_11h12.49.002,00_bat_bachelor,2022.2.4,59.947639601082656,
,,,,,,,,,,,,1,0,1,0,148,0,148,0,,,,,,,148,,,0.2,775.3844548166339,Y,d,go,d,1,0.3656737237047878,,,,,,,,,,,,,,,,7,001,2022-12-16_11h12.49.002,00_bat_bachelor,2022.2.4,59.947639601082656,
,,,,,,,,,,,,1,0,1,0,149,0,149,0,,,,,,,149,,,0.2,776.0518137223328,X,l,go,l,1,0.458731326552936,,,,,,,,,,,,,,,,7,001,2022-12-16_11h12.49.002,00_bat_bachelor,2022.2.4,59.947639601082656,
,,,,,,,,,,,,1,0,1,0,150,0,150,0,,,,,,,150,,,0.2,776.8191147408761,X,None,nogo,d,0,0.3717254135297594,,,,,,,,,,,,,,,,7,001,2022-12-16_11h12.49.002,00_bat_bachelor,2022.2.4,59.947639601082656,
,,,,,,,,,,,,1,0,1,0,151,0,151,0,,,,,,,151,,,0.2,777.5033052294132,Y,d,go,None,0,,,,,,,,,,,,,,,,,7,001,2022-12-16_11h12.49.002,00_bat_bachelor,2022.2.4,59.947639601082656,
,,,,,,,,,,,,1,0,1,0,152,0,152,0,,,,,,,152,,,0.2,778.5046918955111,X,l,go,l,1,0.5023235137970801,,,,,,,,,,,,,,,,7,001,2022-12-16_11h12.49.002,00_bat_bachelor,2022.2.4,59.947639601082656,
,,,,,,,,,,,,1,0,1,0,153,0,153,0,,,,,,,153,,,0.2,779.3219773038043,X,None,nogo,None,1,,,,,,,,,,,,,,,,,7,001,2022-12-16_11h12.49.002,00_bat_bachelor,2022.2.4,59.947639601082656,
,,,,,,,,,,,,1,0,1,0,154,0,154,0,,,,,,,154,,,0.2,780.322739970158,X,None,nogo,d,0,0.30762697828794217,,,,,,,,,,,,,,,,7,001,2022-12-16_11h12.49.002,00_bat_bachelor,2022.2.4,59.947639601082656,
,,,,,,,,,,,,1,0,1,0,155,0,155,0,,,,,,,155,,,0.2,780.9398580759557,Y,d,go,None,0,,,,,,,,,,,,,,,,,7,001,2022-12-16_11h12.49.002,00_bat_bachelor,2022.2.4,59.947639601082656,
,,,,,,,,,,,,1,0,1,0,156,0,156,0,,,,,,,156,,,0.2,781.9408746909232,X,l,go,l,1,0.4899009547909259,,,,,,,,,,,,,,,,7,001,2022-12-16_11h12.49.002,00_bat_bachelor,2022.2.4,59.947639601082656,
,,,,,,,,,,,,1,0,1,0,157,0,157,0,,,,,,,157,,,0.2,782.7418766187172,X,None,nogo,None,1,,783.5425491107492,,,,,,,,,,,,,,,7,001,2022-12-16_11h12.49.002,00_bat_bachelor,2022.2.4,59.947639601082656,
,,,,,,,,,,,,1,0,1,0,158,0,158,0,,,,,,,158,,,0.2,783.7428694388227,X,None,nogo,None,1,,784.5434709565247,,,,,,,,,,,,,,,7,001,2022-12-16_11h12.49.002,00_bat_bachelor,2022.2.4,59.947639601082656,
,,,,,,,,,,,,1,0,1,0,159,0,159,0,,,,,,,159,,,0.2,784.7436821564381,Y,d,go,d,1,0.4314944146499897,,,,,,,,,,,,,,,,7,001,2022-12-16_11h12.49.002,00_bat_bachelor,2022.2.4,59.947639601082656,
,,,,,,,,,,,,1,0,1,0,160,0,160,0,,,,,,,160,,,0.2,785.4778578552377,X,l,go,l,1,0.5609483102588797,,,,,,,,,,,,,,,,7,001,2022-12-16_11h12.49.002,00_bat_bachelor,2022.2.4,59.947639601082656,
,,,,,,,,,,,,1,0,1,0,161,0,161,0,,,,,,,161,,,0.2,786.3454800633929,Y,d,go,d,1,0.5091739725252751,,,,,,,,,,,,,,,,7,001,2022-12-16_11h12.49.002,00_bat_bachelor,2022.2.4,59.947639601082656,
,,,,,,,,,,,,1,0,1,0,162,0,162,0,,,,,,,162,,,0.2,787.1629989074877,X,l,go,l,1,0.5559837994748591,,,,,,,,,,,,,,,,7,001,2022-12-16_11h12.49.002,00_bat_bachelor,2022.2.4,59.947639601082656,
,,,,,,,,,,,,1,0,1,0,163,0,163,0,,,,,,,163,,,0.2,788.0303696285664,Y,d,go,d,1,0.551709749946383,,,,,,,,,,,,,,,,7,001,2022-12-16_11h12.49.002,00_bat_bachelor,2022.2.4,59.947639601082656,
,,,,,,,,,,,,1,0,1,0,164,0,164,0,,,,,,,164,,,0.2,788.8980648623324,X,l,go,None,0,,,,,,,,,,,,,,,,,7,001,2022-12-16_11h12.49.002,00_bat_bachelor,2022.2.4,59.947639601082656,
,,,,,,,,,,,,1,0,1,0,165,0,165,0,,,,,,,165,,,0.2,789.8989218876218,X,None,nogo,None,1,,,,,,,,,,,,,,,,,7,001,2022-12-16_11h12.49.002,00_bat_bachelor,2022.2.4,59.947639601082656,
,,,,,,,,,,,,1,0,1,0,166,0,166,0,,,,,,,166,,,0.2,790.8999622974513,Y,d,go,d,1,0.3864076639164864,,,,,,,,,,,,,,,,7,001,2022-12-16_11h12.49.002,00_bat_bachelor,2022.2.4,59.947639601082656,
,,,,,,,,,,,,1,0,1,0,167,0,167,0,,,,,,,167,,,0.2,791.6008941124537,X,l,go,l,1,0.43000231269803635,,,,,,,,,,,,,,,,7,001,2022-12-16_11h12.49.002,00_bat_bachelor,2022.2.4,59.947639601082656,
,,,,,,,,,,,,1,0,1,0,168,0,168,0,,,,,,,168,,,0.2,792.3346566832179,Y,d,go,d,1,0.4002374018323849,,,,,,,,,,,,,,,,7,001,2022-12-16_11h12.49.002,00_bat_bachelor,2022.2.4,59.947639601082656,
,,,,,,,,,,,,1,0,1,0,169,0,169,0,,,,,,,169,,,0.2,793.0353386521688,X,l,go,l,1,0.5390853448690791,,,,,,,,,,,,,,,,7,001,2022-12-16_11h12.49.002,00_bat_bachelor,2022.2.4,59.947639601082656,
,,,,,,,,,,,,1,0,1,0,170,0,170,0,,,,,,,170,,,0.2,793.8862187133461,Y,d,go,d,1,0.3598218286696806,,,,,,,,,,,,,,,,7,001,2022-12-16_11h12.49.002,00_bat_bachelor,2022.2.4,59.947639601082656,
,,,,,,,,,,,,1,0,1,0,171,0,171,0,,,,,,,171,,,0.2,794.5534795678032,Y,None,nogo,l,0,0.35632767625708084,,,,,,,,,,,,,,,,7,001,2022-12-16_11h12.49.002,00_bat_bachelor,2022.2.4,59.947639601082656,
,,,,,,,,,,,,1,0,1,0,172,0,172,0,,,,,,,172,,,0.2,795.2208643196454,X,l,go,None,0,,796.0216627603436,,,,,,,,,,,,,,,7,001,2022-12-16_11h12.49.002,00_bat_bachelor,2022.2.4,59.947639601082656,
,,,,,,,,,,,,1,0,1,0,173,0,173,0,,,,,,,173,,,0.2,796.2220011396919,Y,d,go,d,1,0.35281547256971635,,,,,,,,,,,,,,,,7,001,2022-12-16_11h12.49.002,00_bat_bachelor,2022.2.4,59.947639601082656,
,,,,,,,,,,,,1,0,1,0,174,0,174,0,,,,,,,174,,,0.2,796.8892074300688,X,l,go,l,1,0.5018299755381008,,,,,,,,,,,,,,,,7,001,2022-12-16_11h12.49.002,00_bat_bachelor,2022.2.4,59.947639601082656,
,,,,,,,,,,,,1,0,1,0,175,0,175,0,,,,,,,175,,,0.2,797.7066581716274,Y,d,go,d,1,0.39591863437345864,,,,,,,,,,,,,,,,7,001,2022-12-16_11h12.49.002,00_bat_bachelor,2022.2.4,59.947639601082656,
,,,,,,,,,,,,1,0,1,0,176,0,176,0,,,,,,,176,,,0.2,798.4074164482395,Y,None,nogo,None,1,,,,,,,,,,,,,,,,,7,001,2022-12-16_11h12.49.002,00_bat_bachelor,2022.2.4,59.947639601082656,
,,,,,,,,,,,,1,0,1,0,177,0,177,0,,,,,,,177,,,0.2,799.4084617811438,Y,None,nogo,l,0,0.013764124488204743,,,,,,,,,,,,,,,,7,001,2022-12-16_11h12.49.002,00_bat_bachelor,2022.2.4,59.947639601082656,
,,,,,,,,,,,,1,0,1,0,178,0,178,0,,,,,,,178,,,0.2,799.7255135485073,X,l,go,None,0,,,,,,,,,,,,,,,,,7,001,2022-12-16_11h12.49.002,00_bat_bachelor,2022.2.4,59.947639601082656,
,,,,,,,,,,,,1,0,1,0,179,0,179,0,,,,,,,179,,,0.2,800.7267114967337,Y,d,go,d,1,0.41566180576086253,,,,,,,,,,,,,,,,7,001,2022-12-16_11h12.49.002,00_bat_bachelor,2022.2.4,59.947639601082656,
,,,,,,,,,,,,1,0,1,0,180,0,180,0,,,,,,,180,,,0.2,801.4438541768802,X,l,go,None,0,,,,,,,,,,,,,,,,,7,001,2022-12-16_11h12.49.002,00_bat_bachelor,2022.2.4,59.947639601082656,
,,,,,,,,,,,,1,0,1,0,181,0,181,0,,,,,,,181,,,0.2,802.4448154072552,Y,d,go,l,0,0.2256713196031228,,,,,,,,,,,,,,,,7,001,2022-12-16_11h12.49.002,00_bat_bachelor,2022.2.4,59.947639601082656,
,,,,,,,,,,,,1,0,1,0,182,0,182,0,,,,,,,182,,,0.2,802.9785969318577,X,l,go,None,0,,,,,,,,,,,,,,,,,7,001,2022-12-16_11h12.49.002,00_bat_bachelor,2022.2.4,59.947639601082656,
,,,,,,,,,,,,1,0,1,0,183,0,183,0,,,,,,,183,,,0.2,803.9795413417266,Y,d,go,d,1,0.4026964777467015,,,,,,,,,,,,,,,,7,001,2022-12-16_11h12.49.002,00_bat_bachelor,2022.2.4,59.947639601082656,
,,,,,,,,,,,,1,0,1,0,184,0,184,0,,,,,,,184,,,0.2,804.6967726372216,X,l,go,None,0,,,,,,,,,,,,,,,,,7,001,2022-12-16_11h12.49.002,00_bat_bachelor,2022.2.4,59.947639601082656,
,,,,,,,,,,,,1,0,1,0,185,0,185,0,,,,,,,185,,,0.2,805.6979373546924,Y,d,go,d,1,0.6047415230614774,,,,,,,,,,,,,,,,7,001,2022-12-16_11h12.49.002,00_bat_bachelor,2022.2.4,59.947639601082656,
,,,,,,,,,,,,1,0,1,0,186,0,186,0,,,,,,,186,,,0.2,806.6157991319799,X,l,go,l,1,0.5820834810750171,,,,,,,,,,,,,,,,7,001,2022-12-16_11h12.49.002,00_bat_bachelor,2022.2.4,59.947639601082656,
,,,,,,,,,,,,1,0,1,0,187,0,187,0,,,,,,,187,,,0.2,807.499765948814,Y,d,go,d,1,0.40306981092686556,,,,,,,,,,,,,,,,7,001,2022-12-16_11h12.49.002,00_bat_bachelor,2022.2.4,59.947639601082656,
,,,,,,,,,,,,1,0,1,0,188,0,188,0,,,,,,,188,,,0.2,808.2172097570422,X,l,go,l,1,0.6134631605089567,,,,,,,,,,,,,,,,7,001,2022-12-16_11h12.49.002,00_bat_bachelor,2022.2.4,59.947639601082656,
,,,,,,,,,,,,1,0,1,0,189,0,189,0,,,,,,,189,,,0.2,809.1345176884031,X,None,nogo,None,1,,,,,,,,,,,,,,,,,7,001,2022-12-16_11h12.49.002,00_bat_bachelor,2022.2.4,59.947639601082656,
,,,,,,,,,,,,1,0,1,0,190,0,190,0,,,,,,,190,,,0.2,810.1355823033509,Y,d,go,None,0,,,,,,,,,,,,,,,,,7,001,2022-12-16_11h12.49.002,00_bat_bachelor,2022.2.4,59.947639601082656,
,,,,,,,,,,,,1,0,1,0,191,0,191,0,,,,,,,191,,,0.2,811.1367478413342,X,l,go,l,1,0.48571593086688836,,,,,,,,,,,,,,,,7,001,2022-12-16_11h12.49.002,00_bat_bachelor,2022.2.4,59.947639601082656,
,,,,,,,,,,,,1,0,1,0,192,0,192,0,,,,,,,192,,,0.2,811.937561051257,X,None,nogo,None,1,,,,,,,,,,,,,,,,,7,001,2022-12-16_11h12.49.002,00_bat_bachelor,2022.2.4,59.947639601082656,
,,,,,,,,,,,,1,0,1,0,193,0,193,0,,,,,,,193,,,0.2,812.9386539738855,Y,d,go,d,1,0.2679026868927963,,,,,,,,,,,,,,,,7,001,2022-12-16_11h12.49.002,00_bat_bachelor,2022.2.4,59.947639601082656,
,,,,,,,,,,,,1,0,1,0,194,0,194,0,,,,,,,194,,,0.2,813.5225146574298,X,l,go,l,1,0.3558706508034106,,,,,,,,,,,,,,,,7,001,2022-12-16_11h12.49.002,00_bat_bachelor,2022.2.4,59.947639601082656,
,,,,,,,,,,,,1,0,1,0,195,0,195,0,,,,,,,195,,,0.2,814.1897480247187,Y,d,go,d,1,0.39225627690160536,,,,,,,,,,,,,,,,7,001,2022-12-16_11h12.49.002,00_bat_bachelor,2022.2.4,59.947639601082656,
,,,,,,,,,,,,1,0,1,0,196,0,196,0,,,,,,,196,,,0.2,814.8904533782754,Y,None,nogo,None,1,,,,,,,,,,,,,,,,,7,001,2022-12-16_11h12.49.002,00_bat_bachelor,2022.2.4,59.947639601082656,
,,,,,,,,,,,,1,0,1,0,197,0,197,0,,,,,,,197,,,0.2,815.891618916259,X,l,go,l,1,0.6512145296367748,,,,,,,,,,,,,,,,7,001,2022-12-16_11h12.49.002,00_bat_bachelor,2022.2.4,59.947639601082656,
,,,,,,,,,,,,1,0,1,0,198,0,198,0,,,,,,,198,,,0.2,816.8592718526065,Y,d,go,d,1,0.34673506480777405,,,,,,,,,,,,,,,,7,001,2022-12-16_11h12.49.002,00_bat_bachelor,2022.2.4,59.947639601082656,
,,,,,,,,,,,,1,0,1,0,199,0,199,0,,,,,,,199,,,0.2,817.5098525087785,X,l,go,l,1,0.32830512365097775,,,,,,,,,,,,,,,,7,001,2022-12-16_11h12.49.002,00_bat_bachelor,2022.2.4,59.947639601082656,
,,,,,,,,,,,,1,0,1,0,200,0,200,0,,,,,,,200,,,0.2,818.1437513256406,X,None,nogo,d,0,0.37401300233483425,,,,,,,,,,,,,,,,7,001,2022-12-16_11h12.49.002,00_bat_bachelor,2022.2.4,59.947639601082656,
,,,,,,,,,,,,1,0,1,0,201,0,201,0,,,,,,,201,,,0.2,818.8279139167532,Y,d,go,None,0,,,,,,,,,,,,,,,,,7,001,2022-12-16_11h12.49.002,00_bat_bachelor,2022.2.4,59.947639601082656,
,,,,,,,,,,,,1,0,1,0,202,0,202,0,,,,,,,202,,,0.2,819.8286786343883,X,l,go,None,0,,,,,,,,,,,,,,,,,7,001,2022-12-16_11h12.49.002,00_bat_bachelor,2022.2.4,59.947639601082656,
,,,,,,,,,,,,1,0,1,0,203,0,203,0,,,,,,,203,,,0.2,820.8297576083046,X,None,nogo,None,1,,,,,,,,,,,,,,,,,7,001,2022-12-16_11h12.49.002,00_bat_bachelor,2022.2.4,59.947639601082656,
,,,,,,,,,,,,1,0,1,0,204,0,204,0,,,,,,,204,,,0.2,821.8316144280557,Y,d,go,d,1,0.34324460470139684,,,,,,,,,,,,,,,,7,001,2022-12-16_11h12.49.002,00_bat_bachelor,2022.2.4,59.947639601082656,
,,,,,,,,,,,,1,0,1,0,205,0,205,0,,,,,,,205,,,0.2,822.4813995973745,X,l,go,l,1,0.4289844669618219,,,,,,,,,,,,,,,,7,001,2022-12-16_11h12.49.002,00_bat_bachelor,2022.2.4,59.947639601082656,
,,,,,,,,,,,,1,0,1,0,206,0,206,0,,,,,,,206,,,0.2,823.2156417576855,X,None,nogo,None,1,,824.0162851215241,,,,,,,,,,,,,,,7,001,2022-12-16_11h12.49.002,00_bat_bachelor,2022.2.4,59.947639601082656,
,,,,,,,,,,,,1,0,1,0,207,0,207,0,,,,,,,207,,,0.2,824.2164663727317,Y,d,go,d,1,0.3102370284992162,,,,,,,,,,,,,,,,7,001,2022-12-16_11h12.49.002,00_bat_bachelor,2022.2.4,59.947639601082656,
,,,,,,,,,,,,1,0,1,0,208,0,208,0,,,,,,,208,,,0.2,824.8339044783982,X,l,go,None,0,,,,,,,,,,,,,,,,,7,001,2022-12-16_11h12.49.002,00_bat_bachelor,2022.2.4,59.947639601082656,
,,,,,,,,,,,,1,0,1,0,209,0,209,0,,,,,,,209,,,0.2,825.8346466319399,X,None,nogo,d,0,0.3643461345058654,,,,,,,,,,,,,,,,7,001,2022-12-16_11h12.49.002,00_bat_bachelor,2022.2.4,59.947639601082656,
,,,,,,,,,,,,1,0,1,0,210,0,210,0,,,,,,,210,,,0.2,826.5021979478163,Y,d,go,None,0,,827.3028593629294,,,,,,,,,,,,,,,7,001,2022-12-16_11h12.49.002,00_bat_bachelor,2022.2.4,59.947639601082656,
,,,,,,,,,,,,1,0,1,0,211,0,211,0,,,,,,,211,,,0.2,827.5030086141503,X,l,go,l,1,0.19126353884752234,,,,,,,,,,,,,,,,7,001,2022-12-16_11h12.49.002,00_bat_bachelor,2022.2.4,59.947639601082656,
,,,,,,,,,,,,1,0,1,0,212,0,212,0,,,,,,,212,,,0.2,828.0038888189174,X,None,nogo,None,1,,,,,,,,,,,,,,,,,7,001,2022-12-16_11h12.49.002,00_bat_bachelor,2022.2.4,59.947639601082656,
,,,,,,,,,,,,1,0,1,0,213,0,213,0,,,,,,,213,,,0.2,829.0044882032869,Y,d,go,None,0,,,,,,,,,,,,,,,,,7,001,2022-12-16_11h12.49.002,00_bat_bachelor,2022.2.4,59.947639601082656,
,,,,,,,,,,,,1,0,1,0,214,0,214,0,,,,,,,214,,,0.2,830.0055790746342,X,l,go,l,1,0.5287276055287862,,,,,,,,,,,,,,,,7,001,2022-12-16_11h12.49.002,00_bat_bachelor,2022.2.4,59.947639601082656,
,,,,,,,,,,,,1,0,1,0,215,0,215,0,,,,,,,215,,,0.2,830.839964373348,X,None,nogo,None,1,,831.6405511218252,,,,,,,,,,,,,,,7,001,2022-12-16_11h12.49.002,00_bat_bachelor,2022.2.4,59.947639601082656,
,,,,,,,,,,,,1,0,1,0,216,0,216,0,,,,,,,216,,,0.2,831.8408677575926,Y,d,go,d,1,0.38955966262329866,,,,,,,,,,,,,,,,7,001,2022-12-16_11h12.49.002,00_bat_bachelor,2022.2.4,59.947639601082656,
,,,,,,,,,,,,1,0,1,0,217,0,217,0,,,,,,,217,,,0.2,832.5413987522466,X,l,go,None,0,,,,,,,,,,,,,,,,,7,001,2022-12-16_11h12.49.002,00_bat_bachelor,2022.2.4,59.947639601082656,
,,,,,,,,,,,,1,0,1,0,218,0,218,0,,,,,,,218,,,0.2,833.5424752646256,X,None,nogo,None,1,,,,,,,,,,,,,,,,,7,001,2022-12-16_11h12.49.002,00_bat_bachelor,2022.2.4,59.947639601082656,
,,,,,,,,,,,,1,0,1,0,219,0,219,0,,,,,,,219,,,0.2,834.5435743410976,Y,d,go,d,1,0.447075126206812,,,,,,,,,,,,,,,,7,001,2022-12-16_11h12.49.002,00_bat_bachelor,2022.2.4,59.947639601082656,
,,,,,,,,,,,,1,0,1,0,220,0,220,0,,,,,,,220,,,0.2,835.2941159819011,X,l,go,l,1,0.25619274297906713,,,,,,,,,,,,,,,,7,001,2022-12-16_11h12.49.002,00_bat_bachelor,2022.2.4,59.947639601082656,
,,,,,,,,,,,,1,0,1,0,221,0,221,0,,,,,,,221,,,0.2,835.8614860055443,Y,d,go,d,1,0.09636101367908623,,,,,,,,,,,,,,,,7,001,2022-12-16_11h12.49.002,00_bat_bachelor,2022.2.4,59.947639601082656,
,,,,,,,,,,,,1,0,1,0,222,0,222,0,,,,,,,222,,,0.2,836.2618567130844,Y,None,nogo,l,0,0.36886018393596487,,,,,,,,,,,,,,,,7,001,2022-12-16_11h12.49.002,00_bat_bachelor,2022.2.4,59.947639601082656,
,,,,,,,,,,,,1,0,1,0,223,0,223,0,,,,,,,223,,,0.2,836.9459897657478,X,l,go,d,0,0.5810906609695508,,,,,,,,,,,,,,,,7,001,2022-12-16_11h12.49.002,00_bat_bachelor,2022.2.4,59.947639601082656,
,,,,,,,,,,,,1,0,1,0,224,0,224,0,,,,,,,224,,,0.2,837.8301998645334,Y,d,go,l,0,0.4806435226915369,,,,,,,,,,,,,,,,7,001,2022-12-16_11h12.49.002,00_bat_bachelor,2022.2.4,59.947639601082656,
,,,,,,,,,,,,1,0,1,0,225,0,225,0,,,,,,,225,,,0.2,838.6142446710792,X,l,go,None,0,,,,,,,,,,,,,,,,,7,001,2022-12-16_11h12.49.002,00_bat_bachelor,2022.2.4,59.947639601082656,
,,,,,,,,,,,,1,0,1,0,226,0,226,0,,,,,,,226,,,0.2,839.6151755424921,X,None,nogo,l,0,0.6068379324578359,,,,,,,,,,,,,,,,7,001,2022-12-16_11h12.49.002,00_bat_bachelor,2022.2.4,59.947639601082656,
,,,,,,,,,,,,1,0,1,0,227,0,227,0,,,,,,,227,,,0.2,840.5329884992868,Y,d,go,d,1,0.5220166339231014,,,,,,,,,,,,,,,,7,001,2022-12-16_11h12.49.002,00_bat_bachelor,2022.2.4,59.947639601082656,
,,,,,,,,,,,,1,0,1,0,228,0,228,0,,,,,,,228,,,0.2,841.3668847725601,X,l,go,l,1,0.11971895281436673,,,,,,,,,,,,,,,,7,001,2022-12-16_11h12.49.002,00_bat_bachelor,2022.2.4,59.947639601082656,
,,,,,,,,,,,,1,0,1,0,229,0,229,0,,,,,,,229,,,0.2,841.8006720817755,Y,d,go,d,1,0.34896070492033004,,,,,,,,,,,,,,,,7,001,2022-12-16_11h12.49.002,00_bat_bachelor,2022.2.4,59.947639601082656,
,,,,,,,,,,,,1,0,1,0,230,0,230,0,,,,,,,230,,,0.2,842.4512588917912,Y,None,nogo,l,0,0.5873794789023918,,,,,,,,,,,,,,,,7,001,2022-12-16_11h12.49.002,00_bat_bachelor,2022.2.4,59.947639601082656,
,,,,,,,,,,,,1,0,1,0,231,0,231,0,,,,,,,231,,,0.2,843.3524769835992,X,l,go,l,1,0.6226147464980727,,,,,,,,,,,,,,,,7,001,2022-12-16_11h12.49.002,00_bat_bachelor,2022.2.4,59.947639601082656,
,,,,,,,,,,,,1,0,1,0,232,0,232,0,,,,,,,232,,,0.2,844.2866616259851,Y,d,go,d,1,0.15998519270516454,,,,,,,,,,,,,,,,7,001,2022-12-16_11h12.49.002,00_bat_bachelor,2022.2.4,59.947639601082656,
,,,,,,,,,,,,1,0,1,0,233,0,233,0,,,,,,,233,,,0.2,844.7536292292803,Y,None,nogo,l,0,0.18043564585371996,,,,,,,,,,,,,,,,7,001,2022-12-16_11h12.49.002,00_bat_bachelor,2022.2.4,59.947639601082656,
,,,,,,,,,,,,1,0,1,0,234,0,234,0,,,,,,,234,,,0.2,845.2374222615704,X,l,go,None,0,,,,,,,,,,,,,,,,,7,001,2022-12-16_11h12.49.002,00_bat_bachelor,2022.2.4,59.947639601082656,
,,,,,,,,,,,,1,0,1,0,235,0,235,0,,,,,,,235,,,0.2,846.2386628764459,Y,d,go,d,1,0.3998981199203513,,,,,,,,,,,,,,,,7,001,2022-12-16_11h12.49.002,00_bat_bachelor,2022.2.4,59.947639601082656,
,,,,,,,,,,,,1,0,1,0,236,0,236,0,,,,,,,236,,,0.2,846.9392205377558,X,l,go,l,1,0.4034378107759835,,,,,,,,,,,,,,,,7,001,2022-12-16_11h12.49.002,00_bat_bachelor,2022.2.4,59.947639601082656,
,,,,,,,,,,,,1,0,1,0,237,0,237,0,,,,,,,237,,,0.2,847.656713576733,X,None,nogo,None,1,,,,,,,,,,,,,,,,,7,001,2022-12-16_11h12.49.002,00_bat_bachelor,2022.2.4,59.947639601082656,
,,,,,,,,,,,,1,0,1,0,238,0,238,0,,,,,,,238,,,0.2,848.6575189097359,Y,d,go,d,1,0.4049857075768273,,,,,,,,,,,,,,,,7,001,2022-12-16_11h12.49.002,00_bat_bachelor,2022.2.4,59.947639601082656,
,,,,,,,,,,,,1,0,1,0,239,0,239,0,,,,,,,239,,,0.2,849.3749450769456,X,l,go,l,1,0.25505920498238766,,,,,,,,,,,,,,,,7,001,2022-12-16_11h12.49.002,00_bat_bachelor,2022.2.4,59.947639601082656,
,,,,,,,,,,,,1,0,1,0,240,0,240,0,,,,,,,240,,,0.2,849.9421842288475,Y,d,go,d,1,0.3605615206739117,,,,,,,,,,,,,,,,7,001,2022-12-16_11h12.49.002,00_bat_bachelor,2022.2.4,59.947639601082656,
,,,,,,,,,,,,1,0,1,0,241,0,241,0,,,,,,,241,,,0.2,850.6095037499472,Y,None,nogo,l,0,0.4440137941292619,,,,,,,,,,,,,,,,7,001,2022-12-16_11h12.49.002,00_bat_bachelor,2022.2.4,59.947639601082656,
,,,,,,,,,,,,1,0,1,0,242,0,242,0,,,,,,,242,,,0.2,851.3603764675379,Y,None,nogo,None,1,,,,,,,,,,,,,,,,,7,001,2022-12-16_11h12.49.002,00_bat_bachelor,2022.2.4,59.947639601082656,
,,,,,,,,,,,,1,0,1,0,243,0,243,0,,,,,,,243,,,0.2,852.3616458003505,X,l,go,l,1,0.23663336638793453,,,,,,,,,,,,,,,,7,001,2022-12-16_11h12.49.002,00_bat_bachelor,2022.2.4,59.947639601082656,
,,,,,,,,,,,,1,0,1,0,244,0,244,0,,,,,,,244,,,0.2,852.9119331643351,Y,d,go,d,1,0.35801423966762513,,,,,,,,,,,,,,,,7,001,2022-12-16_11h12.49.002,00_bat_bachelor,2022.2.4,59.947639601082656,
,,,,,,,,,,,,1,0,1,0,245,0,245,0,,,,,,,245,,,0.2,853.579471762268,X,l,go,d,0,0.5071981784639661,,,,,,,,,,,,,,,,7,001,2022-12-16_11h12.49.002,00_bat_bachelor,2022.2.4,59.947639601082656,
,,,,,,,,,,,,1,0,1,0,246,0,246,0,,,,,,,246,,,0.2,854.3965947090894,X,None,nogo,l,0,0.6342939211937733,,,,,,,,,,,,,,,,7,001,2022-12-16_11h12.49.002,00_bat_bachelor,2022.2.4,59.947639601082656,
,,,,,,,,,,,,1,0,1,0,247,0,247,0,,,,,,,247,,,0.2,855.3310341206013,Y,d,go,d,1,0.5234496589761761,,,,,,,,,,,,,,,,7,001,2022-12-16_11h12.49.002,00_bat_bachelor,2022.2.4,59.947639601082656,
,,,,,,,,,,,,1,0,1,0,248,0,248,0,,,,,,,248,,,0.2,856.1650194194792,X,l,go,None,0,,,,,,,,,,,,,,,,,7,001,2022-12-16_11h12.49.002,00_bat_bachelor,2022.2.4,59.947639601082656,
,,,,,,,,,,,,1,0,1,0,249,0,249,0,,,,,,,249,,,0.2,857.1661504959382,X,None,nogo,None,1,,,,,,,,,,,,,,,,,7,001,2022-12-16_11h12.49.002,00_bat_bachelor,2022.2.4,59.947639601082656,
,,,,,,,,,,,,2,0,2,0,0,0,0,0,,,,,,,0,,,1,864.990468516731,X,l,go,None,0,,,,,,,,,,857.967872423437,space,6.0020467959620305,,,,,7,001,2022-12-16_11h12.49.002,00_bat_bachelor,2022.2.4,59.947639601082656,
,,,,,,,,,,,,2,0,2,0,1,0,1,0,,,,,,,1,,,1,866.7922429570285,Y,d,go,d,1,0.3177209228649076,,,,,,,,,,,,,,,,7,001,2022-12-16_11h12.49.002,00_bat_bachelor,2022.2.4,59.947639601082656,
,,,,,,,,,,,,2,0,2,0,2,0,2,0,,,,,,,2,,,1,868.2270743683798,X,l,go,l,1,0.26701858469147055,,,,,,,,,,,,,,,,7,001,2022-12-16_11h12.49.002,00_bat_bachelor,2022.2.4,59.947639601082656,
,,,,,,,,,,,,2,0,2,0,3,0,3,0,,,,,,,3,,,1,869.5952592429705,Y,d,go,d,1,0.3315469684748109,,,,,,,,,,,,,,,,7,001,2022-12-16_11h12.49.002,00_bat_bachelor,2022.2.4,59.947639601082656,
,,,,,,,,,,,,2,0,2,0,4,0,4,0,,,,,,,4,,,1,871.0302834747554,X,l,go,l,1,0.296601341785788,,,,,,,,,,,,,,,,7,001,2022-12-16_11h12.49.002,00_bat_bachelor,2022.2.4,59.947639601082656,
,,,,,,,,,,,,2,0,2,0,5,0,5,0,,,,,,,5,,,1,872.4313315153511,X,None,nogo,l,0,0.29492995785602716,,,,,,,,,,,,,,,,7,001,2022-12-16_11h12.49.002,00_bat_bachelor,2022.2.4,59.947639601082656,
