loop_instruction.thisRepN,loop_instruction.thisTrialN,loop_instruction.thisN,loop_instruction.thisIndex,loop_rsi_practice.thisRepN,loop_rsi_practice.thisTrialN,loop_rsi_practice.thisN,loop_rsi_practice.thisIndex,loop_practice.thisRepN,loop_practice.thisTrialN,loop_practice.thisN,loop_practice.thisIndex,loop_exp.thisRepN,loop_exp.thisTrialN,loop_exp.thisN,loop_exp.thisIndex,loop_trials.thisRepN,loop_trials.thisTrialN,loop_trials.thisN,loop_trials.thisIndex,map_condition,map_x_key,map_y_key,key_resp_welcome.started,key_resp_welcome.keys,key_resp_welcome.rt,index,text_empty_rsi_practice.started,text_empty_rsi_practice.stopped,rsi,stimulus.started,stimulus,correct,trial_type,key_resp_trial.keys,key_resp_trial.corr,stimulus.stopped,key_resp_trial.rt,key_resp_instruction_rsi.started,key_resp_instruction_rsi.keys,key_resp_instruction_rsi.rt,key_resp_instruction_rsi.stopped,key_resp_instruction_final.started,key_resp_instruction_final.keys,key_resp_instruction_final.rt,key_resp_break.started,key_resp_break.keys,key_resp_break.rt,key_resp_break.stopped,key_resp_end_screen.started,image_end_screen.started,key_resp_end_screen.stopped,image_end_screen.stopped,key_resp_end_screen.keys,participant,session,Alter,Geschlecht (w/m/d/andere),Studiengang,date,expName,psychopyVersion,frameRate,
,,,,0,0,0,0,0,0,0,0,,,,,,,,,1,l,d,10323.176604321376,j,15.242642926097687,0,10338.456319830573,10339.483102479913,1,10339.483102479913,X,l,go,None,0,,,,,,,,,,,,,,,,,,,81,001,22,w,"Bildungswissenschaften, Psychologie ",2023-01-30_13h52.07.004,00_bat_bachelor,2022.2.4,60.13341652405371,
,,,,0,0,0,0,1,0,1,0,,,,,,,,,,,,,,,1,10340.868833915476,10341.869683858167,1,10341.869683858167,Y,d,go,None,0,10342.66996575017,,,,,,,,,,,,,,,,,,81,001,22,w,"Bildungswissenschaften, Psychologie ",2023-01-30_13h52.07.004,00_bat_bachelor,2022.2.4,60.13341652405371,
,,,,0,0,0,0,2,0,2,0,,,,,,,,,,,,,,,2,10343.270769535106,10344.27159717468,1,10344.27159717468,X,l,go,None,0,10345.072172886004,,,,,,,,,,,,,,,,,,81,001,22,w,"Bildungswissenschaften, Psychologie ",2023-01-30_13h52.07.004,00_bat_bachelor,2022.2.4,60.13341652405371,
,,,,0,0,0,0,3,0,3,0,,,,,,,,,,,,,,,3,10345.672647942392,10346.673438248486,1,10346.673438248486,Y,d,go,d,1,,0.44635765566090413,,,,,,,,,,,,,,,,,81,001,22,w,"Bildungswissenschaften, Psychologie ",2023-01-30_13h52.07.004,00_bat_bachelor,2022.2.4,60.13341652405371,
,,,,0,0,0,0,4,0,4,0,,,,,,,,,,,,,,,4,10347.824279560842,10348.824935078537,1,10348.824935078537,Y,None,nogo,None,1,10349.625070060876,,,,,,,,,,,,,,,,,,81,001,22,w,"Bildungswissenschaften, Psychologie ",2023-01-30_13h52.07.004,00_bat_bachelor,2022.2.4,60.13341652405371,
,,,,0,0,0,0,5,0,5,0,,,,,,,,,,,,,,,5,10350.225525238402,10351.226654939754,1,10351.226654939754,X,l,go,l,1,,0.3272914968565601,,,,,,,,,,,,,,,,,81,001,22,w,"Bildungswissenschaften, Psychologie ",2023-01-30_13h52.07.004,00_bat_bachelor,2022.2.4,60.13341652405371,
,,,,0,0,0,0,6,0,6,0,,,,,,,,,,,,,,,6,10352.26053143479,10353.261657257339,1,10353.261657257339,Y,d,go,d,1,,0.25982068970006367,,,,,,,,,,,,,,,,,81,001,22,w,"Bildungswissenschaften, Psychologie ",2023-01-30_13h52.07.004,00_bat_bachelor,2022.2.4,60.13341652405371,
,,,,0,0,0,0,7,0,7,0,,,,,,,,,,,,,,,7,10354.229043312655,10355.22968816364,1,10355.22968816364,X,l,go,l,1,,0.2913592362692725,,,,,,,,,,,,,,,,,81,001,22,w,"Bildungswissenschaften, Psychologie ",2023-01-30_13h52.07.004,00_bat_bachelor,2022.2.4,60.13341652405371,
,,,,0,0,0,0,8,0,8,0,,,,,,,,,,,,,,,8,10356.230125498667,10357.230901744104,1,10357.230901744104,X,None,nogo,None,1,10358.031499758545,,,,,,,,,,,,,,,,,,81,001,22,w,"Bildungswissenschaften, Psychologie ",2023-01-30_13h52.07.004,00_bat_bachelor,2022.2.4,60.13341652405371,
,,,,0,0,0,0,9,0,9,0,,,,,,,,,,,,,,,9,10358.632332149653,10359.632897000327,1,10359.632897000327,Y,d,go,d,1,,0.2557736436956475,,,,,,,,,,,,,,,,,81,001,22,w,"Bildungswissenschaften, Psychologie ",2023-01-30_13h52.07.004,00_bat_bachelor,2022.2.4,60.13341652405371,
,,,,0,0,0,0,10,0,10,0,,,,,,,,,,,,,,,10,10360.600514329268,10361.601246938171,1,10361.601246938171,X,l,go,l,1,,0.2403204928505147,,,,,,,,,,,,,,,,,81,001,22,w,"Bildungswissenschaften, Psychologie ",2023-01-30_13h52.07.004,00_bat_bachelor,2022.2.4,60.13341652405371,
,,,,0,0,0,0,11,0,11,0,,,,,,,,,,,,,,,11,10362.55191098923,10363.552782750186,1,10363.552782750186,X,None,nogo,d,0,,0.28743631196448405,,,,,,,,,,,,,,,,,81,001,22,w,"Bildungswissenschaften, Psychologie ",2023-01-30_13h52.07.004,00_bat_bachelor,2022.2.4,60.13341652405371,
,,,,0,0,0,0,12,0,12,0,,,,,,,,,,,,,,,12,10364.953488789291,10365.954554975244,1,10365.954554975244,Y,d,go,l,0,,0.5895698475123936,,,,,,,,,,,,,,,,,81,001,22,w,"Bildungswissenschaften, Psychologie ",2023-01-30_13h52.07.004,00_bat_bachelor,2022.2.4,60.13341652405371,
,,,,0,0,0,0,13,0,13,0,,,,,,,,,,,,,,,13,10367.25571832521,10368.256219175637,1,10368.256219175637,X,l,go,l,1,,0.24134740592307935,,,,,,,,,,,,,,,,,81,001,22,w,"Bildungswissenschaften, Psychologie ",2023-01-30_13h52.07.004,00_bat_bachelor,2022.2.4,60.13341652405371,
,,,,0,0,0,0,14,0,14,0,,,,,,,,,,,,,,,14,10369.20693656024,10370.207539229243,1,10370.207539229243,X,None,nogo,d,0,,0.19237364020409586,,,,,,,,,,,,,,,,,81,001,22,w,"Bildungswissenschaften, Psychologie ",2023-01-30_13h52.07.004,00_bat_bachelor,2022.2.4,60.13341652405371,
,,,,1,0,1,0,0,0,0,0,,,,,,,,,,,,,,,0,10395.443866448935,10395.643677648204,0.2,10395.643677648204,X,l,go,l,1,,0.5817661808814591,10371.52694313481,j,23.885374631239756,,,,,,,,,,,,,,81,001,22,w,"Bildungswissenschaften, Psychologie ",2023-01-30_13h52.07.004,00_bat_bachelor,2022.2.4,60.13341652405371,
,,,,1,0,1,0,1,0,1,0,,,,,,,,,,,,,,,1,10396.92833329778,10397.128355406956,0.2,10397.128355406956,Y,d,go,d,1,,0.4251527249234641,,,,,,,,,,,,,,,,,81,001,22,w,"Bildungswissenschaften, Psychologie ",2023-01-30_13h52.07.004,00_bat_bachelor,2022.2.4,60.13341652405371,
,,,,1,0,1,0,2,0,2,0,,,,,,,,,,,,,,,2,10398.262714715984,10398.462859007454,0.2,10398.462859007454,X,l,go,l,1,,0.4019885138641257,,,,,,,,,,,,,,,,,81,001,22,w,"Bildungswissenschaften, Psychologie ",2023-01-30_13h52.07.004,00_bat_bachelor,2022.2.4,60.13341652405371,
,,,,1,0,1,0,3,0,3,0,,,,,,,,,,,,,,,3,10399.580345523766,10399.780446178702,0.2,10399.780446178702,X,None,nogo,None,1,,,,,,,,,,,,,,,,,,,81,001,22,w,"Bildungswissenschaften, Psychologie ",2023-01-30_13h52.07.004,00_bat_bachelor,2022.2.4,60.13341652405371,
,,,,1,0,1,0,4,0,4,0,,,,,,,,,,,,,,,4,10401.181380097474,10401.381734329152,0.2,10401.381734329152,Y,d,go,d,1,,0.31543835997035785,,,,,,,,,,,,,,,,,81,001,22,w,"Bildungswissenschaften, Psychologie ",2023-01-30_13h52.07.004,00_bat_bachelor,2022.2.4,60.13341652405371,
,,,,1,0,1,0,5,0,5,0,,,,,,,,,,,,,,,5,10402.399141426973,10402.59898074756,0.2,10402.59898074756,X,l,go,l,1,,0.3936990271668037,,,,,,,,,,,,,,,,,81,001,22,w,"Bildungswissenschaften, Psychologie ",2023-01-30_13h52.07.004,00_bat_bachelor,2022.2.4,60.13341652405371,
,,,,1,0,1,0,6,0,6,0,,,,,,,,,,,,,,,6,10403.70019859471,10403.900316704257,0.2,10403.900316704257,Y,d,go,d,1,,0.4524648308633914,,,,,,,,,,,,,,,,,81,001,22,w,"Bildungswissenschaften, Psychologie ",2023-01-30_13h52.07.004,00_bat_bachelor,2022.2.4,60.13341652405371,
,,,,1,0,1,0,7,0,7,0,,,,,,,,,,,,,,,7,10405.067560019626,10405.268064070067,0.2,10405.268064070067,X,l,go,l,1,,0.3653687354581052,,,,,,,,,,,,,,,,,81,001,22,w,"Bildungswissenschaften, Psychologie ",2023-01-30_13h52.07.004,00_bat_bachelor,2022.2.4,60.13341652405371,
,,,,1,0,1,0,8,0,8,0,,,,,,,,,,,,,,,8,10406.336341183385,10406.536224140506,0.2,10406.536224140506,Y,d,go,d,1,,0.40795653701025003,,,,,,,,,,,,,,,,,81,001,22,w,"Bildungswissenschaften, Psychologie ",2023-01-30_13h52.07.004,00_bat_bachelor,2022.2.4,60.13341652405371,
,,,,1,0,1,0,9,0,9,0,,,,,,,,,,,,,,,9,10407.653734414485,10407.853858342238,0.2,10407.853858342238,X,l,go,l,1,,0.45003379112858966,,,,,,,,,,,,,,,,,81,001,22,w,"Bildungswissenschaften, Psychologie ",2023-01-30_13h52.07.004,00_bat_bachelor,2022.2.4,60.13341652405371,
,,,,1,0,1,0,10,0,10,0,,,,,,,,,,,,,,,10,10409.021624326302,10409.221577586726,0.2,10409.221577586726,X,None,nogo,None,1,10410.022215843746,,,,,,,,,,,,,,,,,,81,001,22,w,"Bildungswissenschaften, Psychologie ",2023-01-30_13h52.07.004,00_bat_bachelor,2022.2.4,60.13341652405371,
,,,,1,0,1,0,11,0,11,0,,,,,,,,,,,,,,,11,10410.622831506742,10410.823008283183,0.2,10410.823008283183,Y,d,go,d,1,,0.2500461063300463,,,,,,,,,,,,,,,,,81,001,22,w,"Bildungswissenschaften, Psychologie ",2023-01-30_13h52.07.004,00_bat_bachelor,2022.2.4,60.13341652405371,
,,,,1,0,1,0,12,0,12,0,,,,,,,,,,,,,,,12,10411.773732940539,10411.973623170416,0.2,10411.973623170416,X,l,go,l,1,,0.44192030511294433,,,,,,,,,,,,,,,,,81,001,22,w,"Bildungswissenschaften, Psychologie ",2023-01-30_13h52.07.004,00_bat_bachelor,2022.2.4,60.13341652405371,
,,,,1,0,1,0,13,0,13,0,,,,,,,,,,,,,,,13,10413.141441518317,10413.341467021448,0.2,10413.341467021448,Y,d,go,d,1,,0.4184714868879382,,,,,,,,,,,,,,,,,81,001,22,w,"Bildungswissenschaften, Psychologie ",2023-01-30_13h52.07.004,00_bat_bachelor,2022.2.4,60.13341652405371,
,,,,1,0,1,0,14,0,14,0,,,,,,,,,,,,,,,14,10414.49227730338,10414.692460867725,0.2,10414.692460867725,X,l,go,l,1,,0.4122915841307986,,,,,,,,,,,,,,,,,81,001,22,w,"Bildungswissenschaften, Psychologie ",2023-01-30_13h52.07.004,00_bat_bachelor,2022.2.4,60.13341652405371,
,,,,,,,,,,,,,,,,,,,,,,,,,,,,,,,,,,,,,,10415.874507634453,None,,10415.874507634453,10415.874507634453,space,11.9375202880492,,,,,,,,,,81,001,22,w,"Bildungswissenschaften, Psychologie ",2023-01-30_13h52.07.004,00_bat_bachelor,2022.2.4,60.13341652405371,
,,,,,,,,,,,,0,0,0,0,0,0,0,0,,,,,,,0,,,1,10428.836255849721,X,l,go,l,1,,0.34861085227566946,,,,,,,,,,,,,,,,,81,001,22,w,"Bildungswissenschaften, Psychologie ",2023-01-30_13h52.07.004,00_bat_bachelor,2022.2.4,60.13341652405371,
,,,,,,,,,,,,0,0,0,0,1,0,1,0,,,,,,,1,,,1,10430.287362569165,Y,d,go,d,1,,0.5138944024674856,,,,,,,,,,,,,,,,,81,001,22,w,"Bildungswissenschaften, Psychologie ",2023-01-30_13h52.07.004,00_bat_bachelor,2022.2.4,60.13341652405371,
,,,,,,,,,,,,0,0,0,0,2,0,2,0,,,,,,,2,,,1,10431.905019752805,X,l,go,l,1,,0.44800081354878785,,,,,,,,,,,,,,,,,81,001,22,w,"Bildungswissenschaften, Psychologie ",2023-01-30_13h52.07.004,00_bat_bachelor,2022.2.4,60.13341652405371,
,,,,,,,,,,,,0,0,0,0,3,0,3,0,,,,,,,3,,,1,10433.456386739923,Y,d,go,d,1,,0.3841455355632206,,,,,,,,,,,,,,,,,81,001,22,w,"Bildungswissenschaften, Psychologie ",2023-01-30_13h52.07.004,00_bat_bachelor,2022.2.4,60.13341652405371,
,,,,,,,,,,,,0,0,0,0,4,0,4,0,,,,,,,4,,,1,10434.95747959265,Y,None,nogo,None,1,10435.758085849546,,,,,,,,,,,,,,,,,,81,001,22,w,"Bildungswissenschaften, Psychologie ",2023-01-30_13h52.07.004,00_bat_bachelor,2022.2.4,60.13341652405371,
,,,,,,,,,,,,0,0,0,0,5,0,5,0,,,,,,,5,,,1,10436.758958580202,X,l,go,l,1,,0.2495433165004215,,,,,,,,,,,,,,,,,81,001,22,w,"Bildungswissenschaften, Psychologie ",2023-01-30_13h52.07.004,00_bat_bachelor,2022.2.4,60.13341652405371,
,,,,,,,,,,,,0,0,0,0,6,0,6,0,,,,,,,6,,,1,10438.109517515702,Y,d,go,d,1,,0.46675143173160905,,,,,,,,,,,,,,,,,81,001,22,w,"Bildungswissenschaften, Psychologie ",2023-01-30_13h52.07.004,00_bat_bachelor,2022.2.4,60.13341652405371,
,,,,,,,,,,,,0,0,0,0,7,0,7,0,,,,,,,7,,,1,10439.67775535614,Y,None,nogo,None,1,,,,,,,,,,,,,,,,,,,81,001,22,w,"Bildungswissenschaften, Psychologie ",2023-01-30_13h52.07.004,00_bat_bachelor,2022.2.4,60.13341652405371,
,,,,,,,,,,,,0,0,0,0,8,0,8,0,,,,,,,8,,,1,10441.478783917708,X,l,go,l,1,,0.28142950078654394,,,,,,,,,,,,,,,,,81,001,22,w,"Bildungswissenschaften, Psychologie ",2023-01-30_13h52.07.004,00_bat_bachelor,2022.2.4,60.13341652405371,
,,,,,,,,,,,,0,0,0,0,9,0,9,0,,,,,,,9,,,1,10442.863493773551,Y,d,go,d,1,,0.5299802830431872,,,,,,,,,,,,,,,,,81,001,22,w,"Bildungswissenschaften, Psychologie ",2023-01-30_13h52.07.004,00_bat_bachelor,2022.2.4,60.13341652405371,
,,,,,,,,,,,,0,0,0,0,10,0,10,0,,,,,,,10,,,1,10444.497758051912,Y,None,nogo,None,1,,,,,,,,,,,,,,,,,,,81,001,22,w,"Bildungswissenschaften, Psychologie ",2023-01-30_13h52.07.004,00_bat_bachelor,2022.2.4,60.13341652405371,
,,,,,,,,,,,,0,0,0,0,11,0,11,0,,,,,,,11,,,1,10446.29949740411,X,l,go,l,1,,0.2142646342053922,,,,,,,,,,,,,,,,,81,001,22,w,"Bildungswissenschaften, Psychologie ",2023-01-30_13h52.07.004,00_bat_bachelor,2022.2.4,60.13341652405371,
,,,,,,,,,,,,0,0,0,0,12,0,12,0,,,,,,,12,,,1,10447.617157302913,Y,d,go,d,1,,0.5436966998840944,,,,,,,,,,,,,,,,,81,001,22,w,"Bildungswissenschaften, Psychologie ",2023-01-30_13h52.07.004,00_bat_bachelor,2022.2.4,60.13341652405371,
,,,,,,,,,,,,0,0,0,0,13,0,13,0,,,,,,,13,,,1,10449.268371465198,Y,None,nogo,None,1,,,,,,,,,,,,,,,,,,,81,001,22,w,"Bildungswissenschaften, Psychologie ",2023-01-30_13h52.07.004,00_bat_bachelor,2022.2.4,60.13341652405371,
,,,,,,,,,,,,0,0,0,0,14,0,14,0,,,,,,,14,,,1,10451.06975348268,X,l,go,l,1,,0.22817499119446438,,,,,,,,,,,,,,,,,81,001,22,w,"Bildungswissenschaften, Psychologie ",2023-01-30_13h52.07.004,00_bat_bachelor,2022.2.4,60.13341652405371,
,,,,,,,,,,,,0,0,0,0,15,0,15,0,,,,,,,15,,,1,10452.403812960245,Y,d,go,d,1,,0.4450131655921723,,,,,,,,,,,,,,,,,81,001,22,w,"Bildungswissenschaften, Psychologie ",2023-01-30_13h52.07.004,00_bat_bachelor,2022.2.4,60.13341652405371,
,,,,,,,,,,,,0,0,0,0,16,0,16,0,,,,,,,16,,,1,10453.955368554158,X,l,go,l,1,,0.36547685709047073,,,,,,,,,,,,,,,,,81,001,22,w,"Bildungswissenschaften, Psychologie ",2023-01-30_13h52.07.004,00_bat_bachelor,2022.2.4,60.13341652405371,
,,,,,,,,,,,,0,0,0,0,17,0,17,0,,,,,,,17,,,1,10455.423130368505,X,None,nogo,None,1,10456.223660988744,,,,,,,,,,,,,,,,,,81,001,22,w,"Bildungswissenschaften, Psychologie ",2023-01-30_13h52.07.004,00_bat_bachelor,2022.2.4,60.13341652405371,
,,,,,,,,,,,,0,0,0,0,18,0,18,0,,,,,,,18,,,1,10457.224379052135,X,None,nogo,l,0,,0.3458670840573177,,,,,,,,,,,,,,,,,81,001,22,w,"Bildungswissenschaften, Psychologie ",2023-01-30_13h52.07.004,00_bat_bachelor,2022.2.4,60.13341652405371,
,,,,,,,,,,,,0,0,0,0,19,0,19,0,,,,,,,19,,,1,10458.67540334702,Y,d,go,d,1,,0.44641632255479635,,,,,,,,,,,,,,,,,81,001,22,w,"Bildungswissenschaften, Psychologie ",2023-01-30_13h52.07.004,00_bat_bachelor,2022.2.4,60.13341652405371,
,,,,,,,,,,,,0,0,0,0,20,0,20,0,,,,,,,20,,,1,10460.226675303467,X,l,go,l,1,,0.3819283148422983,,,,,,,,,,,,,,,,,81,001,22,w,"Bildungswissenschaften, Psychologie ",2023-01-30_13h52.07.004,00_bat_bachelor,2022.2.4,60.13341652405371,
,,,,,,,,,,,,0,0,0,0,21,0,21,0,,,,,,,21,,,1,10461.711253667894,Y,d,go,d,1,,0.4816183984894451,,,,,,,,,,,,,,,,,81,001,22,w,"Bildungswissenschaften, Psychologie ",2023-01-30_13h52.07.004,00_bat_bachelor,2022.2.4,60.13341652405371,
,,,,,,,,,,,,0,0,0,0,22,0,22,0,,,,,,,22,,,1,10463.295516782611,Y,None,nogo,None,1,,,,,,,,,,,,,,,,,,,81,001,22,w,"Bildungswissenschaften, Psychologie ",2023-01-30_13h52.07.004,00_bat_bachelor,2022.2.4,60.13341652405371,
,,,,,,,,,,,,0,0,0,0,23,0,23,0,,,,,,,23,,,1,10465.097313832004,X,l,go,l,1,,0.26493828530328756,,,,,,,,,,,,,,,,,81,001,22,w,"Bildungswissenschaften, Psychologie ",2023-01-30_13h52.07.004,00_bat_bachelor,2022.2.4,60.13341652405371,
,,,,,,,,,,,,0,0,0,0,24,0,24,0,,,,,,,24,,,1,10466.46521828933,Y,d,go,d,1,,0.39952450430246245,,,,,,,,,,,,,,,,,81,001,22,w,"Bildungswissenschaften, Psychologie ",2023-01-30_13h52.07.004,00_bat_bachelor,2022.2.4,60.13341652405371,
,,,,,,,,,,,,0,0,0,0,25,0,25,0,,,,,,,25,,,1,10467.96634314218,X,l,go,l,1,,0.4350771270565019,,,,,,,,,,,,,,,,,81,001,22,w,"Bildungswissenschaften, Psychologie ",2023-01-30_13h52.07.004,00_bat_bachelor,2022.2.4,60.13341652405371,
,,,,,,,,,,,,0,0,0,0,26,0,26,0,,,,,,,26,,,1,10469.517139460419,Y,d,go,None,0,,,,,,,,,,,,,,,,,,,81,001,22,w,"Bildungswissenschaften, Psychologie ",2023-01-30_13h52.07.004,00_bat_bachelor,2022.2.4,60.13341652405371,
,,,,,,,,,,,,0,0,0,0,27,0,27,0,,,,,,,27,,,1,10471.318616508572,X,l,go,l,1,,0.36290715015093156,,,,,,,,,,,,,,,,,81,001,22,w,"Bildungswissenschaften, Psychologie ",2023-01-30_13h52.07.004,00_bat_bachelor,2022.2.4,60.13341652405371,
,,,,,,,,,,,,0,0,0,0,28,0,28,0,,,,,,,28,,,1,10472.786120382527,Y,d,go,d,1,,0.4157868704114662,,,,,,,,,,,,,,,,,81,001,22,w,"Bildungswissenschaften, Psychologie ",2023-01-30_13h52.07.004,00_bat_bachelor,2022.2.4,60.13341652405371,
,,,,,,,,,,,,0,0,0,0,29,0,29,0,,,,,,,29,,,1,10474.304365301781,X,l,go,l,1,,0.35193983488898084,,,,,,,,,,,,,,,,,81,001,22,w,"Bildungswissenschaften, Psychologie ",2023-01-30_13h52.07.004,00_bat_bachelor,2022.2.4,60.13341652405371,
,,,,,,,,,,,,0,0,0,0,30,0,30,0,,,,,,,30,,,1,10475.771719841821,Y,d,go,d,1,,0.3727869460508373,,,,,,,,,,,,,,,,,81,001,22,w,"Bildungswissenschaften, Psychologie ",2023-01-30_13h52.07.004,00_bat_bachelor,2022.2.4,60.13341652405371,
,,,,,,,,,,,,0,0,0,0,31,0,31,0,,,,,,,31,,,1,10477.256852390215,X,l,go,l,1,,0.37703132615024515,,,,,,,,,,,,,,,,,81,001,22,w,"Bildungswissenschaften, Psychologie ",2023-01-30_13h52.07.004,00_bat_bachelor,2022.2.4,60.13341652405371,
,,,,,,,,,,,,0,0,0,0,32,0,32,0,,,,,,,32,,,1,10478.741213056826,X,None,nogo,None,1,10479.541739798264,,,,,,,,,,,,,,,,,,81,001,22,w,"Bildungswissenschaften, Psychologie ",2023-01-30_13h52.07.004,00_bat_bachelor,2022.2.4,60.13341652405371,
,,,,,,,,,,,,0,0,0,0,33,0,33,0,,,,,,,33,,,1,10480.54259992281,Y,d,go,d,1,,0.32274069132654404,,,,,,,,,,,,,,,,,81,001,22,w,"Bildungswissenschaften, Psychologie ",2023-01-30_13h52.07.004,00_bat_bachelor,2022.2.4,60.13341652405371,
,,,,,,,,,,,,0,0,0,0,34,0,34,0,,,,,,,34,,,1,10481.976996759258,X,l,go,l,1,,0.32806628773869306,,,,,,,,,,,,,,,,,81,001,22,w,"Bildungswissenschaften, Psychologie ",2023-01-30_13h52.07.004,00_bat_bachelor,2022.2.4,60.13341652405371,
,,,,,,,,,,,,0,0,0,0,35,0,35,0,,,,,,,35,,,1,10483.41123601934,X,None,nogo,l,0,,0.3176575200941443,,,,,,,,,,,,,,,,,81,001,22,w,"Bildungswissenschaften, Psychologie ",2023-01-30_13h52.07.004,00_bat_bachelor,2022.2.4,60.13341652405371,
,,,,,,,,,,,,0,0,0,0,36,0,36,0,,,,,,,36,,,1,10484.845653704353,Y,d,go,d,1,,0.4355008862748946,,,,,,,,,,,,,,,,,81,001,22,w,"Bildungswissenschaften, Psychologie ",2023-01-30_13h52.07.004,00_bat_bachelor,2022.2.4,60.13341652405371,
,,,,,,,,,,,,0,0,0,0,37,0,37,0,,,,,,,37,,,1,10486.39689463038,X,l,go,l,1,,0.48368289134486986,,,,,,,,,,,,,,,,,81,001,22,w,"Bildungswissenschaften, Psychologie ",2023-01-30_13h52.07.004,00_bat_bachelor,2022.2.4,60.13341652405371,
,,,,,,,,,,,,0,0,0,0,38,0,38,0,,,,,,,38,,,1,10487.981432170403,X,None,nogo,None,1,,,,,,,,,,,,,,,,,,,81,001,22,w,"Bildungswissenschaften, Psychologie ",2023-01-30_13h52.07.004,00_bat_bachelor,2022.2.4,60.13341652405371,
,,,,,,,,,,,,0,0,0,0,39,0,39,0,,,,,,,39,,,1,10489.782981946111,Y,d,go,d,1,,0.2817936234114313,,,,,,,,,,,,,,,,,81,001,22,w,"Bildungswissenschaften, Psychologie ",2023-01-30_13h52.07.004,00_bat_bachelor,2022.2.4,60.13341652405371,
,,,,,,,,,,,,0,0,0,0,40,0,40,0,,,,,,,40,,,1,10491.166933495984,X,l,go,l,1,,0.35389329700956296,,,,,,,,,,,,,,,,,81,001,22,w,"Bildungswissenschaften, Psychologie ",2023-01-30_13h52.07.004,00_bat_bachelor,2022.2.4,60.13341652405371,
,,,,,,,,,,,,0,0,0,0,41,0,41,0,,,,,,,41,,,1,10492.634989614504,Y,d,go,d,1,,0.47014053578641324,,,,,,,,,,,,,,,,,81,001,22,w,"Bildungswissenschaften, Psychologie ",2023-01-30_13h52.07.004,00_bat_bachelor,2022.2.4,60.13341652405371,
,,,,,,,,,,,,0,0,0,0,42,0,42,0,,,,,,,42,,,1,10494.219548972796,Y,None,nogo,None,1,,,,,,,,,,,,,,,,,,,81,001,22,w,"Bildungswissenschaften, Psychologie ",2023-01-30_13h52.07.004,00_bat_bachelor,2022.2.4,60.13341652405371,
,,,,,,,,,,,,0,0,0,0,43,0,43,0,,,,,,,43,,,1,10496.020580443463,X,l,go,l,1,,0.33174921111822187,,,,,,,,,,,,,,,,,81,001,22,w,"Bildungswissenschaften, Psychologie ",2023-01-30_13h52.07.004,00_bat_bachelor,2022.2.4,60.13341652405371,
,,,,,,,,,,,,0,0,0,0,44,0,44,0,,,,,,,44,,,1,10497.455312796366,Y,d,go,d,1,,0.43351881798116665,,,,,,,,,,,,,,,,,81,001,22,w,"Bildungswissenschaften, Psychologie ",2023-01-30_13h52.07.004,00_bat_bachelor,2022.2.4,60.13341652405371,
,,,,,,,,,,,,0,0,0,0,45,0,45,0,,,,,,,45,,,1,10498.989581050497,Y,None,nogo,None,1,,,,,,,,,,,,,,,,,,,81,001,22,w,"Bildungswissenschaften, Psychologie ",2023-01-30_13h52.07.004,00_bat_bachelor,2022.2.4,60.13341652405371,
,,,,,,,,,,,,0,0,0,0,46,0,46,0,,,,,,,46,,,1,10500.791253008498,X,l,go,l,1,,0.2980860502411815,,,,,,,,,,,,,,,,,81,001,22,w,"Bildungswissenschaften, Psychologie ",2023-01-30_13h52.07.004,00_bat_bachelor,2022.2.4,60.13341652405371,
,,,,,,,,,,,,0,0,0,0,47,0,47,0,,,,,,,47,,,1,10502.192298927705,Y,d,go,d,1,,0.43340875694957504,,,,,,,,,,,,,,,,,81,001,22,w,"Bildungswissenschaften, Psychologie ",2023-01-30_13h52.07.004,00_bat_bachelor,2022.2.4,60.13341652405371,
,,,,,,,,,,,,0,0,0,0,48,0,48,0,,,,,,,48,,,1,10503.726839182891,Y,None,nogo,None,1,,,,,,,,,,,,,,,,,,,81,001,22,w,"Bildungswissenschaften, Psychologie ",2023-01-30_13h52.07.004,00_bat_bachelor,2022.2.4,60.13341652405371,
,,,,,,,,,,,,0,0,0,0,49,0,49,0,,,,,,,49,,,1,10505.52785998685,X,l,go,l,1,,0.29752022986394877,,,,,,,,,,,,,,,,,81,001,22,w,"Bildungswissenschaften, Psychologie ",2023-01-30_13h52.07.004,00_bat_bachelor,2022.2.4,60.13341652405371,
,,,,,,,,,,,,0,0,0,0,50,0,50,0,,,,,,,50,,,1,10506.929328695576,Y,d,go,d,1,,0.46429954343147983,,,,,,,,,,,,,,,,,81,001,22,w,"Bildungswissenschaften, Psychologie ",2023-01-30_13h52.07.004,00_bat_bachelor,2022.2.4,60.13341652405371,
,,,,,,,,,,,,0,0,0,0,51,0,51,0,,,,,,,51,,,1,10508.497194655785,X,l,go,l,1,,0.41652675207114953,,,,,,,,,,,,,,,,,81,001,22,w,"Bildungswissenschaften, Psychologie ",2023-01-30_13h52.07.004,00_bat_bachelor,2022.2.4,60.13341652405371,
,,,,,,,,,,,,0,0,0,0,52,0,52,0,,,,,,,52,,,1,10510.014976542938,X,None,nogo,None,1,,,,,,,,,,,,,,,,,,,81,001,22,w,"Bildungswissenschaften, Psychologie ",2023-01-30_13h52.07.004,00_bat_bachelor,2022.2.4,60.13341652405371,
,,,,,,,,,,,,0,0,0,0,53,0,53,0,,,,,,,53,,,1,10511.816126801947,Y,d,go,d,1,,0.4092598147926765,,,,,,,,,,,,,,,,,81,001,22,w,"Bildungswissenschaften, Psychologie ",2023-01-30_13h52.07.004,00_bat_bachelor,2022.2.4,60.13341652405371,
,,,,,,,,,,,,0,0,0,0,54,0,54,0,,,,,,,54,,,1,10513.334184568957,X,l,go,l,1,,0.5227686187081417,,,,,,,,,,,,,,,,,81,001,22,w,"Bildungswissenschaften, Psychologie ",2023-01-30_13h52.07.004,00_bat_bachelor,2022.2.4,60.13341652405371,
,,,,,,,,,,,,0,0,0,0,55,0,55,0,,,,,,,55,,,1,10514.96878339407,Y,d,go,d,1,,0.45636593690323934,,,,,,,,,,,,,,,,,81,001,22,w,"Bildungswissenschaften, Psychologie ",2023-01-30_13h52.07.004,00_bat_bachelor,2022.2.4,60.13341652405371,
,,,,,,,,,,,,0,0,0,0,56,0,56,0,,,,,,,56,,,1,10516.53630850447,X,l,go,l,1,,0.3614249625879893,,,,,,,,,,,,,,,,,81,001,22,w,"Bildungswissenschaften, Psychologie ",2023-01-30_13h52.07.004,00_bat_bachelor,2022.2.4,60.13341652405371,
,,,,,,,,,,,,0,0,0,0,57,0,57,0,,,,,,,57,,,1,10518.004431047491,Y,d,go,d,1,,0.4454655309837108,,,,,,,,,,,,,,,,,81,001,22,w,"Bildungswissenschaften, Psychologie ",2023-01-30_13h52.07.004,00_bat_bachelor,2022.2.4,60.13341652405371,
,,,,,,,,,,,,0,0,0,0,58,0,58,0,,,,,,,58,,,1,10519.555884337977,Y,None,nogo,None,1,10520.356296169877,,,,,,,,,,,,,,,,,,81,001,22,w,"Bildungswissenschaften, Psychologie ",2023-01-30_13h52.07.004,00_bat_bachelor,2022.2.4,60.13341652405371,
,,,,,,,,,,,,0,0,0,0,59,0,59,0,,,,,,,59,,,1,10521.35728187067,X,l,go,l,1,,0.29250736193898774,,,,,,,,,,,,,,,,,81,001,22,w,"Bildungswissenschaften, Psychologie ",2023-01-30_13h52.07.004,00_bat_bachelor,2022.2.4,60.13341652405371,
,,,,,,,,,,,,0,0,0,0,60,0,60,0,,,,,,,60,,,1,10522.758214819743,Y,d,go,d,1,,0.5226905578001606,,,,,,,,,,,,,,,,,81,001,22,w,"Bildungswissenschaften, Psychologie ",2023-01-30_13h52.07.004,00_bat_bachelor,2022.2.4,60.13341652405371,
,,,,,,,,,,,,0,0,0,0,61,0,61,0,,,,,,,61,,,1,10524.392913524029,X,l,go,l,1,,0.3760281707454851,,,,,,,,,,,,,,,,,81,001,22,w,"Bildungswissenschaften, Psychologie ",2023-01-30_13h52.07.004,00_bat_bachelor,2022.2.4,60.13341652405371,
,,,,,,,,,,,,0,0,0,0,62,0,62,0,,,,,,,62,,,1,10525.877223766201,X,None,nogo,None,1,,,,,,,,,,,,,,,,,,,81,001,22,w,"Bildungswissenschaften, Psychologie ",2023-01-30_13h52.07.004,00_bat_bachelor,2022.2.4,60.13341652405371,
,,,,,,,,,,,,0,0,0,0,63,0,63,0,,,,,,,63,,,1,10527.678412813239,Y,d,go,d,1,,0.33851869192039885,,,,,,,,,,,,,,,,,81,001,22,w,"Bildungswissenschaften, Psychologie ",2023-01-30_13h52.07.004,00_bat_bachelor,2022.2.4,60.13341652405371,
,,,,,,,,,,,,0,0,0,0,64,0,64,0,,,,,,,64,,,1,10529.129739169897,X,l,go,l,1,,0.3916282312511612,,,,,,,,,,,,,,,,,81,001,22,w,"Bildungswissenschaften, Psychologie ",2023-01-30_13h52.07.004,00_bat_bachelor,2022.2.4,60.13341652405371,
,,,,,,,,,,,,0,0,0,0,65,0,65,0,,,,,,,65,,,1,10530.630703052422,X,None,nogo,l,0,,0.47429327916870534,,,,,,,,,,,,,,,,,81,001,22,w,"Bildungswissenschaften, Psychologie ",2023-01-30_13h52.07.004,00_bat_bachelor,2022.2.4,60.13341652405371,
,,,,,,,,,,,,0,0,0,0,66,0,66,0,,,,,,,66,,,1,10532.21541271433,Y,d,go,d,1,,0.4424260040450463,,,,,,,,,,,,,,,,,81,001,22,w,"Bildungswissenschaften, Psychologie ",2023-01-30_13h52.07.004,00_bat_bachelor,2022.2.4,60.13341652405371,
,,,,,,,,,,,,0,0,0,0,67,0,67,0,,,,,,,67,,,1,10533.76642236673,X,l,go,None,0,10534.567155654422,,,,,,,,,,,,,,,,,,81,001,22,w,"Bildungswissenschaften, Psychologie ",2023-01-30_13h52.07.004,00_bat_bachelor,2022.2.4,60.13341652405371,
,,,,,,,,,,,,0,0,0,0,68,0,68,0,,,,,,,68,,,1,10535.567754929474,X,None,nogo,None,1,,,,,,,,,,,,,,,,,,,81,001,22,w,"Bildungswissenschaften, Psychologie ",2023-01-30_13h52.07.004,00_bat_bachelor,2022.2.4,60.13341652405371,
,,,,,,,,,,,,0,0,0,0,69,0,69,0,,,,,,,69,,,1,10537.369446766337,Y,d,go,d,1,,0.31210937736068445,,,,,,,,,,,,,,,,,81,001,22,w,"Bildungswissenschaften, Psychologie ",2023-01-30_13h52.07.004,00_bat_bachelor,2022.2.4,60.13341652405371,
,,,,,,,,,,,,0,0,0,0,70,0,70,0,,,,,,,70,,,1,10538.78690729467,X,l,go,l,1,,0.28632988342906174,,,,,,,,,,,,,,,,,81,001,22,w,"Bildungswissenschaften, Psychologie ",2023-01-30_13h52.07.004,00_bat_bachelor,2022.2.4,60.13341652405371,
,,,,,,,,,,,,0,0,0,0,71,0,71,0,,,,,,,71,,,1,10540.188026426284,X,None,nogo,None,1,10540.98874710787,,,,,,,,,,,,,,,,,,81,001,22,w,"Bildungswissenschaften, Psychologie ",2023-01-30_13h52.07.004,00_bat_bachelor,2022.2.4,60.13341652405371,
,,,,,,,,,,,,0,0,0,0,72,0,72,0,,,,,,,72,,,1,10541.989475353115,Y,d,go,d,1,,0.41265910070615064,,,,,,,,,,,,,,,,,81,001,22,w,"Bildungswissenschaften, Psychologie ",2023-01-30_13h52.07.004,00_bat_bachelor,2022.2.4,60.13341652405371,
,,,,,,,,,,,,0,0,0,0,73,0,73,0,,,,,,,73,,,1,10543.507379422561,X,l,go,l,1,,0.49418426540978544,,,,,,,,,,,,,,,,,81,001,22,w,"Bildungswissenschaften, Psychologie ",2023-01-30_13h52.07.004,00_bat_bachelor,2022.2.4,60.13341652405371,
,,,,,,,,,,,,0,0,0,0,74,0,74,0,,,,,,,74,,,1,10545.108547814973,Y,d,go,d,1,,0.5253960228383221,,,,,,,,,,,,,,,,,81,001,22,w,"Bildungswissenschaften, Psychologie ",2023-01-30_13h52.07.004,00_bat_bachelor,2022.2.4,60.13341652405371,
,,,,,,,,,,,,0,0,0,0,75,0,75,0,,,,,,,75,,,1,10546.743216458537,X,l,go,l,1,,0.5865036537998094,,,,,,,,,,,,,,,,,81,001,22,w,"Bildungswissenschaften, Psychologie ",2023-01-30_13h52.07.004,00_bat_bachelor,2022.2.4,60.13341652405371,
,,,,,,,,,,,,0,0,0,0,76,0,76,0,,,,,,,76,,,1,10548.444353723553,Y,d,go,d,1,,0.46880865183447895,,,,,,,,,,,,,,,,,81,001,22,w,"Bildungswissenschaften, Psychologie ",2023-01-30_13h52.07.004,00_bat_bachelor,2022.2.4,60.13341652405371,
,,,,,,,,,,,,0,0,0,0,77,0,77,0,,,,,,,77,,,1,10550.02902605198,Y,None,nogo,None,1,,,,,,,,,,,,,,,,,,,81,001,22,w,"Bildungswissenschaften, Psychologie ",2023-01-30_13h52.07.004,00_bat_bachelor,2022.2.4,60.13341652405371,
,,,,,,,,,,,,0,0,0,0,78,0,78,0,,,,,,,78,,,1,10551.830422130122,X,l,go,l,1,,0.5387841959800426,,,,,,,,,,,,,,,,,81,001,22,w,"Bildungswissenschaften, Psychologie ",2023-01-30_13h52.07.004,00_bat_bachelor,2022.2.4,60.13341652405371,
,,,,,,,,,,,,0,0,0,0,79,0,79,0,,,,,,,79,,,1,10553.481618352944,Y,d,go,d,1,,0.44013557091784605,,,,,,,,,,,,,,,,,81,001,22,w,"Bildungswissenschaften, Psychologie ",2023-01-30_13h52.07.004,00_bat_bachelor,2022.2.4,60.13341652405371,
,,,,,,,,,,,,0,0,0,0,80,0,80,0,,,,,,,80,,,1,10555.032751157338,X,l,go,l,1,,0.6321251640893024,,,,,,,,,,,,,,,,,81,001,22,w,"Bildungswissenschaften, Psychologie ",2023-01-30_13h52.07.004,00_bat_bachelor,2022.2.4,60.13341652405371,
,,,,,,,,,,,,0,0,0,0,81,0,81,0,,,,,,,81,,,1,10556.767264551814,Y,d,go,d,1,,0.4174402101616579,,,,,,,,,,,,,,,,,81,001,22,w,"Bildungswissenschaften, Psychologie ",2023-01-30_13h52.07.004,00_bat_bachelor,2022.2.4,60.13341652405371,
,,,,,,,,,,,,0,0,0,0,82,0,82,0,,,,,,,82,,,1,10558.302021050262,Y,None,nogo,None,1,,,,,,,,,,,,,,,,,,,81,001,22,w,"Bildungswissenschaften, Psychologie ",2023-01-30_13h52.07.004,00_bat_bachelor,2022.2.4,60.13341652405371,
,,,,,,,,,,,,0,0,0,0,83,0,83,0,,,,,,,83,,,1,10560.103154339507,X,l,go,l,1,,0.36127708322419494,,,,,,,,,,,,,,,,,81,001,22,w,"Bildungswissenschaften, Psychologie ",2023-01-30_13h52.07.004,00_bat_bachelor,2022.2.4,60.13341652405371,
,,,,,,,,,,,,0,0,0,0,84,0,84,0,,,,,,,84,,,1,10561.571187670062,Y,d,go,d,1,,0.5418760867596575,,,,,,,,,,,,,,,,,81,001,22,w,"Bildungswissenschaften, Psychologie ",2023-01-30_13h52.07.004,00_bat_bachelor,2022.2.4,60.13341652405371,
,,,,,,,,,,,,0,0,0,0,85,0,85,0,,,,,,,85,,,1,10563.222446923432,X,l,go,l,1,,0.47511897934055014,,,,,,,,,,,,,,,,,81,001,22,w,"Bildungswissenschaften, Psychologie ",2023-01-30_13h52.07.004,00_bat_bachelor,2022.2.4,60.13341652405371,
,,,,,,,,,,,,0,0,0,0,86,0,86,0,,,,,,,86,,,1,10564.807037312145,Y,d,go,d,1,,0.5075477111840883,,,,,,,,,,,,,,,,,81,001,22,w,"Bildungswissenschaften, Psychologie ",2023-01-30_13h52.07.004,00_bat_bachelor,2022.2.4,60.13341652405371,
,,,,,,,,,,,,0,0,0,0,87,0,87,0,,,,,,,87,,,1,10566.424963587739,X,l,go,l,1,,0.4890346696756751,,,,,,,,,,,,,,,,,81,001,22,w,"Bildungswissenschaften, Psychologie ",2023-01-30_13h52.07.004,00_bat_bachelor,2022.2.4,60.13341652405371,
,,,,,,,,,,,,0,0,0,0,88,0,88,0,,,,,,,88,,,1,10568.026205677405,X,None,nogo,None,1,,,,,,,,,,,,,,,,,,,81,001,22,w,"Bildungswissenschaften, Psychologie ",2023-01-30_13h52.07.004,00_bat_bachelor,2022.2.4,60.13341652405371,
,,,,,,,,,,,,0,0,0,0,89,0,89,0,,,,,,,89,,,1,10569.827348663654,Y,d,go,d,1,,0.3987647437843407,,,,,,,,,,,,,,,,,81,001,22,w,"Bildungswissenschaften, Psychologie ",2023-01-30_13h52.07.004,00_bat_bachelor,2022.2.4,60.13341652405371,
,,,,,,,,,,,,0,0,0,0,90,0,90,0,,,,,,,90,,,1,10571.328502122677,X,l,go,l,1,,0.4484182697106007,,,,,,,,,,,,,,,,,81,001,22,w,"Bildungswissenschaften, Psychologie ",2023-01-30_13h52.07.004,00_bat_bachelor,2022.2.4,60.13341652405371,
,,,,,,,,,,,,0,0,0,0,91,0,91,0,,,,,,,91,,,1,10572.87987638255,Y,d,go,d,1,,0.418153909899047,,,,,,,,,,,,,,,,,81,001,22,w,"Bildungswissenschaften, Psychologie ",2023-01-30_13h52.07.004,00_bat_bachelor,2022.2.4,60.13341652405371,
,,,,,,,,,,,,0,0,0,0,92,0,92,0,,,,,,,92,,,1,10574.414423425642,X,l,go,l,1,,0.4827456755865569,,,,,,,,,,,,,,,,,81,001,22,w,"Bildungswissenschaften, Psychologie ",2023-01-30_13h52.07.004,00_bat_bachelor,2022.2.4,60.13341652405371,
,,,,,,,,,,,,0,0,0,0,93,0,93,0,,,,,,,93,,,1,10575.998774783126,Y,d,go,d,1,,0.5323836863044562,,,,,,,,,,,,,,,,,81,001,22,w,"Bildungswissenschaften, Psychologie ",2023-01-30_13h52.07.004,00_bat_bachelor,2022.2.4,60.13341652405371,
,,,,,,,,,,,,0,0,0,0,94,0,94,0,,,,,,,94,,,1,10577.633619912223,X,l,go,l,1,,0.33596353049324534,,,,,,,,,,,,,,,,,81,001,22,w,"Bildungswissenschaften, Psychologie ",2023-01-30_13h52.07.004,00_bat_bachelor,2022.2.4,60.13341652405371,
,,,,,,,,,,,,0,0,0,0,95,0,95,0,,,,,,,95,,,1,10579.084630146444,Y,d,go,d,1,,0.38889803884558205,,,,,,,,,,,,,,,,,81,001,22,w,"Bildungswissenschaften, Psychologie ",2023-01-30_13h52.07.004,00_bat_bachelor,2022.2.4,60.13341652405371,
,,,,,,,,,,,,0,0,0,0,96,0,96,0,,,,,,,96,,,1,10580.585818999542,X,l,go,l,1,,0.29604337565433525,,,,,,,,,,,,,,,,,81,001,22,w,"Bildungswissenschaften, Psychologie ",2023-01-30_13h52.07.004,00_bat_bachelor,2022.2.4,60.13341652405371,
,,,,,,,,,,,,0,0,0,0,97,0,97,0,,,,,,,97,,,1,10581.986819342816,Y,d,go,d,1,,0.3186180086686363,,,,,,,,,,,,,,,,,81,001,22,w,"Bildungswissenschaften, Psychologie ",2023-01-30_13h52.07.004,00_bat_bachelor,2022.2.4,60.13341652405371,
,,,,,,,,,,,,0,0,0,0,98,0,98,0,,,,,,,98,,,1,10583.421103693978,Y,None,nogo,None,1,,,,,,,,,,,,,,,,,,,81,001,22,w,"Bildungswissenschaften, Psychologie ",2023-01-30_13h52.07.004,00_bat_bachelor,2022.2.4,60.13341652405371,
,,,,,,,,,,,,0,0,0,0,99,0,99,0,,,,,,,99,,,1,10585.222530317693,X,l,go,l,1,,0.3630632719705318,,,,,,,,,,,,,,,,,81,001,22,w,"Bildungswissenschaften, Psychologie ",2023-01-30_13h52.07.004,00_bat_bachelor,2022.2.4,60.13341652405371,
,,,,,,,,,,,,0,0,0,0,100,0,100,0,,,,,,,100,,,1,10586.690285828987,Y,d,go,d,1,,0.3985669248340855,,,,,,,,,,,,,,,,,81,001,22,w,"Bildungswissenschaften, Psychologie ",2023-01-30_13h52.07.004,00_bat_bachelor,2022.2.4,60.13341652405371,
,,,,,,,,,,,,0,0,0,0,101,0,101,0,,,,,,,101,,,1,10588.191433954653,X,l,go,l,1,,0.30672850800510787,,,,,,,,,,,,,,,,,81,001,22,w,"Bildungswissenschaften, Psychologie ",2023-01-30_13h52.07.004,00_bat_bachelor,2022.2.4,60.13341652405371,
,,,,,,,,,,,,0,0,0,0,102,0,102,0,,,,,,,102,,,1,10589.609376424247,Y,d,go,d,1,,0.36135708353504015,,,,,,,,,,,,,,,,,81,001,22,w,"Bildungswissenschaften, Psychologie ",2023-01-30_13h52.07.004,00_bat_bachelor,2022.2.4,60.13341652405371,
,,,,,,,,,,,,0,0,0,0,103,0,103,0,,,,,,,103,,,1,10591.076919571082,X,l,go,l,1,,0.30087297014506476,,,,,,,,,,,,,,,,,81,001,22,w,"Bildungswissenschaften, Psychologie ",2023-01-30_13h52.07.004,00_bat_bachelor,2022.2.4,60.13341652405371,
,,,,,,,,,,,,0,0,0,0,104,0,104,0,,,,,,,104,,,1,10592.494930404577,Y,d,go,d,1,,0.2749237785810692,,,,,,,,,,,,,,,,,81,001,22,w,"Bildungswissenschaften, Psychologie ",2023-01-30_13h52.07.004,00_bat_bachelor,2022.2.4,60.13341652405371,
,,,,,,,,,,,,0,0,0,0,105,0,105,0,,,,,,,105,,,1,10593.879308137923,X,l,go,l,1,,0.2987202345193509,,,,,,,,,,,,,,,,,81,001,22,w,"Bildungswissenschaften, Psychologie ",2023-01-30_13h52.07.004,00_bat_bachelor,2022.2.4,60.13341652405371,
,,,,,,,,,,,,0,0,0,0,106,0,106,0,,,,,,,106,,,1,10595.280204238366,Y,d,go,d,1,,0.25738771056239784,,,,,,,,,,,,,,,,,81,001,22,w,"Bildungswissenschaften, Psychologie ",2023-01-30_13h52.07.004,00_bat_bachelor,2022.2.4,60.13341652405371,
,,,,,,,,,,,,0,0,0,0,107,0,107,0,,,,,,,107,,,1,10596.647911846445,X,l,go,l,1,,0.2820709578172682,,,,,,,,,,,,,,,,,81,001,22,w,"Bildungswissenschaften, Psychologie ",2023-01-30_13h52.07.004,00_bat_bachelor,2022.2.4,60.13341652405371,
,,,,,,,,,,,,0,0,0,0,108,0,108,0,,,,,,,108,,,1,10598.032314307158,Y,d,go,d,1,,0.3370495953113277,,,,,,,,,,,,,,,,,81,001,22,w,"Bildungswissenschaften, Psychologie ",2023-01-30_13h52.07.004,00_bat_bachelor,2022.2.4,60.13341652405371,
,,,,,,,,,,,,0,0,0,0,109,0,109,0,,,,,,,109,,,1,10599.483768664315,Y,None,nogo,None,1,10600.28416158705,,,,,,,,,,,,,,,,,,81,001,22,w,"Bildungswissenschaften, Psychologie ",2023-01-30_13h52.07.004,00_bat_bachelor,2022.2.4,60.13341652405371,
,,,,,,,,,,,,0,0,0,0,110,0,110,0,,,,,,,110,,,1,10601.284806922886,X,l,go,l,1,,0.3643054586082144,,,,,,,,,,,,,,,,,81,001,22,w,"Bildungswissenschaften, Psychologie ",2023-01-30_13h52.07.004,00_bat_bachelor,2022.2.4,60.13341652405371,
,,,,,,,,,,,,0,0,0,0,111,0,111,0,,,,,,,111,,,1,10602.752882920275,Y,d,go,d,1,,0.352191472227787,,,,,,,,,,,,,,,,,81,001,22,w,"Bildungswissenschaften, Psychologie ",2023-01-30_13h52.07.004,00_bat_bachelor,2022.2.4,60.13341652405371,
,,,,,,,,,,,,0,0,0,0,112,0,112,0,,,,,,,112,,,1,10604.220733947088,Y,None,nogo,None,1,10605.021117657667,,,,,,,,,,,,,,,,,,81,001,22,w,"Bildungswissenschaften, Psychologie ",2023-01-30_13h52.07.004,00_bat_bachelor,2022.2.4,60.13341652405371,
,,,,,,,,,,,,0,0,0,0,113,0,113,0,,,,,,,113,,,1,10606.021746508592,X,l,go,l,1,,0.2669814447453973,,,,,,,,,,,,,,,,,81,001,22,w,"Bildungswissenschaften, Psychologie ",2023-01-30_13h52.07.004,00_bat_bachelor,2022.2.4,60.13341652405371,
,,,,,,,,,,,,0,0,0,0,114,0,114,0,,,,,,,114,,,1,10607.389471571285,Y,d,go,d,1,,0.38784639840559976,,,,,,,,,,,,,,,,,81,001,22,w,"Bildungswissenschaften, Psychologie ",2023-01-30_13h52.07.004,00_bat_bachelor,2022.2.4,60.13341652405371,
,,,,,,,,,,,,0,0,0,0,115,0,115,0,,,,,,,115,,,1,10608.89063424246,Y,None,nogo,None,1,10609.691426197049,,,,,,,,,,,,,,,,,,81,001,22,w,"Bildungswissenschaften, Psychologie ",2023-01-30_13h52.07.004,00_bat_bachelor,2022.2.4,60.13341652405371,
,,,,,,,,,,,,0,0,0,0,116,0,116,0,,,,,,,116,,,1,10610.692191290924,X,l,go,l,1,,0.25340854361456877,,,,,,,,,,,,,,,,,81,001,22,w,"Bildungswissenschaften, Psychologie ",2023-01-30_13h52.07.004,00_bat_bachelor,2022.2.4,60.13341652405371,
,,,,,,,,,,,,0,0,0,0,117,0,117,0,,,,,,,117,,,1,10612.059954171942,Y,d,go,d,1,,0.3744044068716903,,,,,,,,,,,,,,,,,81,001,22,w,"Bildungswissenschaften, Psychologie ",2023-01-30_13h52.07.004,00_bat_bachelor,2022.2.4,60.13341652405371,
,,,,,,,,,,,,0,0,0,0,118,0,118,0,,,,,,,118,,,1,10613.544183444104,Y,None,nogo,None,1,,,,,,,,,,,,,,,,,,,81,001,22,w,"Bildungswissenschaften, Psychologie ",2023-01-30_13h52.07.004,00_bat_bachelor,2022.2.4,60.13341652405371,
,,,,,,,,,,,,0,0,0,0,119,0,119,0,,,,,,,119,,,1,10615.345560613085,X,l,go,l,1,,0.27203164615457354,,,,,,,,,,,,,,,,,81,001,22,w,"Bildungswissenschaften, Psychologie ",2023-01-30_13h52.07.004,00_bat_bachelor,2022.2.4,60.13341652405371,
,,,,,,,,,,,,0,0,0,0,120,0,120,0,,,,,,,120,,,1,10616.730171074603,Y,d,go,d,1,,0.3438442883325479,,,,,,,,,,,,,,,,,81,001,22,w,"Bildungswissenschaften, Psychologie ",2023-01-30_13h52.07.004,00_bat_bachelor,2022.2.4,60.13341652405371,
,,,,,,,,,,,,0,0,0,0,121,0,121,0,,,,,,,121,,,1,10618.181223975658,X,l,go,l,1,,0.3486297614417708,,,,,,,,,,,,,,,,,81,001,22,w,"Bildungswissenschaften, Psychologie ",2023-01-30_13h52.07.004,00_bat_bachelor,2022.2.4,60.13341652405371,
,,,,,,,,,,,,0,0,0,0,122,0,122,0,,,,,,,122,,,1,10619.63235687702,X,None,nogo,None,1,10620.432746405804,,,,,,,,,,,,,,,,,,81,001,22,w,"Bildungswissenschaften, Psychologie ",2023-01-30_13h52.07.004,00_bat_bachelor,2022.2.4,60.13341652405371,
,,,,,,,,,,,,0,0,0,0,123,0,123,0,,,,,,,123,,,1,10621.433724833842,Y,d,go,d,1,,0.2650338008261315,,,,,,,,,,,,,,,,,81,001,22,w,"Bildungswissenschaften, Psychologie ",2023-01-30_13h52.07.004,00_bat_bachelor,2022.2.4,60.13341652405371,
,,,,,,,,,,,,0,0,0,0,124,0,124,0,,,,,,,124,,,1,10622.801639473026,X,l,go,l,1,,0.38355692721779633,,,,,,,,,,,,,,,,,81,001,22,w,"Bildungswissenschaften, Psychologie ",2023-01-30_13h52.07.004,00_bat_bachelor,2022.2.4,60.13341652405371,
,,,,,,,,,,,,0,0,0,0,125,0,125,0,,,,,,,125,,,1,10624.285959412206,Y,d,go,d,1,,0.35551609118010674,,,,,,,,,,,,,,,,,81,001,22,w,"Bildungswissenschaften, Psychologie ",2023-01-30_13h52.07.004,00_bat_bachelor,2022.2.4,60.13341652405371,
,,,,,,,,,,,,0,0,0,0,126,0,126,0,,,,,,,126,,,1,10625.753711529549,Y,None,nogo,None,1,,,,,,,,,,,,,,,,,,,81,001,22,w,"Bildungswissenschaften, Psychologie ",2023-01-30_13h52.07.004,00_bat_bachelor,2022.2.4,60.13341652405371,
,,,,,,,,,,,,0,0,0,0,127,0,127,0,,,,,,,127,,,1,10627.555078516667,X,l,go,l,1,,0.23957673238510324,,,,,,,,,,,,,,,,,81,001,22,w,"Bildungswissenschaften, Psychologie ",2023-01-30_13h52.07.004,00_bat_bachelor,2022.2.4,60.13341652405371,
,,,,,,,,,,,,0,0,0,0,128,0,128,0,,,,,,,128,,,1,10628.906273575849,Y,d,go,d,1,,0.6324252864669688,,,,,,,,,,,,,,,,,81,001,22,w,"Bildungswissenschaften, Psychologie ",2023-01-30_13h52.07.004,00_bat_bachelor,2022.2.4,60.13341652405371,
,,,,,,,,,,,,0,0,0,0,129,0,129,0,,,,,,,129,,,1,10630.640791818827,X,l,go,l,1,,0.40042584113507473,,,,,,,,,,,,,,,,,81,001,22,w,"Bildungswissenschaften, Psychologie ",2023-01-30_13h52.07.004,00_bat_bachelor,2022.2.4,60.13341652405371,
,,,,,,,,,,,,0,0,0,0,130,0,130,0,,,,,,,130,,,1,10632.141788671179,Y,d,go,d,1,,0.5318411387470405,,,,,,,,,,,,,,,,,81,001,22,w,"Bildungswissenschaften, Psychologie ",2023-01-30_13h52.07.004,00_bat_bachelor,2022.2.4,60.13341652405371,
,,,,,,,,,,,,0,0,0,0,131,0,131,0,,,,,,,131,,,1,10633.776518405888,Y,None,nogo,None,1,,,,,,,,,,,,,,,,,,,81,001,22,w,"Bildungswissenschaften, Psychologie ",2023-01-30_13h52.07.004,00_bat_bachelor,2022.2.4,60.13341652405371,
,,,,,,,,,,,,0,0,0,0,132,0,132,0,,,,,,,132,,,1,10635.577958605416,Y,None,nogo,None,1,10636.378464983136,,,,,,,,,,,,,,,,,,81,001,22,w,"Bildungswissenschaften, Psychologie ",2023-01-30_13h52.07.004,00_bat_bachelor,2022.2.4,60.13341652405371,
,,,,,,,,,,,,0,0,0,0,133,0,133,0,,,,,,,133,,,1,10637.378863045287,X,l,go,l,1,,0.2071174549691932,,,,,,,,,,,,,,,,,81,001,22,w,"Bildungswissenschaften, Psychologie ",2023-01-30_13h52.07.004,00_bat_bachelor,2022.2.4,60.13341652405371,
,,,,,,,,,,,,0,0,0,0,134,0,134,0,,,,,,,134,,,1,10638.696920036538,Y,d,go,d,1,,0.36150835684929916,,,,,,,,,,,,,,,,,81,001,22,w,"Bildungswissenschaften, Psychologie ",2023-01-30_13h52.07.004,00_bat_bachelor,2022.2.4,60.13341652405371,
,,,,,,,,,,,,0,0,0,0,135,0,135,0,,,,,,,135,,,1,10640.164721608617,X,l,go,l,1,,0.39780910371155187,,,,,,,,,,,,,,,,,81,001,22,w,"Bildungswissenschaften, Psychologie ",2023-01-30_13h52.07.004,00_bat_bachelor,2022.2.4,60.13341652405371,
,,,,,,,,,,,,0,0,0,0,136,0,136,0,,,,,,,136,,,1,10641.665534217831,X,None,nogo,None,1,,,,,,,,,,,,,,,,,,,81,001,22,w,"Bildungswissenschaften, Psychologie ",2023-01-30_13h52.07.004,00_bat_bachelor,2022.2.4,60.13341652405371,
,,,,,,,,,,,,0,0,0,0,137,0,137,0,,,,,,,137,,,1,10643.467179509058,Y,d,go,d,1,,0.3267785251719033,,,,,,,,,,,,,,,,,81,001,22,w,"Bildungswissenschaften, Psychologie ",2023-01-30_13h52.07.004,00_bat_bachelor,2022.2.4,60.13341652405371,
,,,,,,,,,,,,0,0,0,0,138,0,138,0,,,,,,,138,,,1,10644.90148470879,X,l,go,l,1,,0.42862231414073904,,,,,,,,,,,,,,,,,81,001,22,w,"Bildungswissenschaften, Psychologie ",2023-01-30_13h52.07.004,00_bat_bachelor,2022.2.4,60.13341652405371,
,,,,,,,,,,,,0,0,0,0,139,0,139,0,,,,,,,139,,,1,10646.436195146453,Y,d,go,d,1,,0.3976563758460543,,,,,,,,,,,,,,,,,81,001,22,w,"Bildungswissenschaften, Psychologie ",2023-01-30_13h52.07.004,00_bat_bachelor,2022.2.4,60.13341652405371,
,,,,,,,,,,,,0,0,0,0,140,0,140,0,,,,,,,140,,,1,10647.936988361653,Y,None,nogo,None,1,10648.737885528768,,,,,,,,,,,,,,,,,,81,001,22,w,"Bildungswissenschaften, Psychologie ",2023-01-30_13h52.07.004,00_bat_bachelor,2022.2.4,60.13341652405371,
,,,,,,,,,,,,0,0,0,0,141,0,141,0,,,,,,,141,,,1,10649.738702986484,X,l,go,l,1,,0.2953500396306481,,,,,,,,,,,,,,,,,81,001,22,w,"Bildungswissenschaften, Psychologie ",2023-01-30_13h52.07.004,00_bat_bachelor,2022.2.4,60.13341652405371,
,,,,,,,,,,,,0,0,0,0,142,0,142,0,,,,,,,142,,,1,10651.139774602761,Y,d,go,d,1,,0.4142149855269963,,,,,,,,,,,,,,,,,81,001,22,w,"Bildungswissenschaften, Psychologie ",2023-01-30_13h52.07.004,00_bat_bachelor,2022.2.4,60.13341652405371,
,,,,,,,,,,,,0,0,0,0,143,0,143,0,,,,,,,143,,,1,10652.6575361262,Y,None,nogo,None,1,,,,,,,,,,,,,,,,,,,81,001,22,w,"Bildungswissenschaften, Psychologie ",2023-01-30_13h52.07.004,00_bat_bachelor,2022.2.4,60.13341652405371,
,,,,,,,,,,,,0,0,0,0,144,0,144,0,,,,,,,144,,,1,10654.459010265251,X,l,go,l,1,,0.3104356739004288,,,,,,,,,,,,,,,,,81,001,22,w,"Bildungswissenschaften, Psychologie ",2023-01-30_13h52.07.004,00_bat_bachelor,2022.2.4,60.13341652405371,
,,,,,,,,,,,,0,0,0,0,145,0,145,0,,,,,,,145,,,1,10655.876868855732,Y,d,go,d,1,,0.46041686170610774,,,,,,,,,,,,,,,,,81,001,22,w,"Bildungswissenschaften, Psychologie ",2023-01-30_13h52.07.004,00_bat_bachelor,2022.2.4,60.13341652405371,
,,,,,,,,,,,,0,0,0,0,146,0,146,0,,,,,,,146,,,1,10657.444608269994,X,l,go,l,1,,0.365795403778975,,,,,,,,,,,,,,,,,81,001,22,w,"Bildungswissenschaften, Psychologie ",2023-01-30_13h52.07.004,00_bat_bachelor,2022.2.4,60.13341652405371,
,,,,,,,,,,,,0,0,0,0,147,0,147,0,,,,,,,147,,,1,10658.91240450872,Y,d,go,d,1,,0.3534394770667859,,,,,,,,,,,,,,,,,81,001,22,w,"Bildungswissenschaften, Psychologie ",2023-01-30_13h52.07.004,00_bat_bachelor,2022.2.4,60.13341652405371,
,,,,,,,,,,,,0,0,0,0,148,0,148,0,,,,,,,148,,,1,10660.380127535042,X,l,go,l,1,,0.34148597615967446,,,,,,,,,,,,,,,,,81,001,22,w,"Bildungswissenschaften, Psychologie ",2023-01-30_13h52.07.004,00_bat_bachelor,2022.2.4,60.13341652405371,
,,,,,,,,,,,,0,0,0,0,149,0,149,0,,,,,,,149,,,1,10661.83129340623,X,None,nogo,None,1,,,,,,,,,,,,,,,,,,,81,001,22,w,"Bildungswissenschaften, Psychologie ",2023-01-30_13h52.07.004,00_bat_bachelor,2022.2.4,60.13341652405371,
,,,,,,,,,,,,0,0,0,0,150,0,150,0,,,,,,,150,,,1,10663.632643423585,Y,d,go,d,1,,0.3054397757350671,,,,,,,,,,,,,,,,,81,001,22,w,"Bildungswissenschaften, Psychologie ",2023-01-30_13h52.07.004,00_bat_bachelor,2022.2.4,60.13341652405371,
,,,,,,,,,,,,0,0,0,0,151,0,151,0,,,,,,,151,,,1,10665.050084557904,X,l,go,l,1,,0.42404338728920266,,,,,,,,,,,,,,,,,81,001,22,w,"Bildungswissenschaften, Psychologie ",2023-01-30_13h52.07.004,00_bat_bachelor,2022.2.4,60.13341652405371,
,,,,,,,,,,,,0,0,0,0,152,0,152,0,,,,,,,152,,,1,10666.58490651115,Y,d,go,d,1,,0.2651516194691794,,,,,,,,,,,,,,,,,81,001,22,w,"Bildungswissenschaften, Psychologie ",2023-01-30_13h52.07.004,00_bat_bachelor,2022.2.4,60.13341652405371,
,,,,,,,,,,,,0,0,0,0,153,0,153,0,,,,,,,153,,,1,10667.952659210314,X,l,go,l,1,,0.3859574213765882,,,,,,,,,,,,,,,,,81,001,22,w,"Bildungswissenschaften, Psychologie ",2023-01-30_13h52.07.004,00_bat_bachelor,2022.2.4,60.13341652405371,
,,,,,,,,,,,,0,0,0,0,154,0,154,0,,,,,,,154,,,1,10669.454318368265,X,None,nogo,None,1,10670.254416501979,,,,,,,,,,,,,,,,,,81,001,22,w,"Bildungswissenschaften, Psychologie ",2023-01-30_13h52.07.004,00_bat_bachelor,2022.2.4,60.13341652405371,
,,,,,,,,,,,,0,0,0,0,155,0,155,0,,,,,,,155,,,1,10671.255183535257,Y,d,go,d,1,,0.4116302482307219,,,,,,,,,,,,,,,,,81,001,22,w,"Bildungswissenschaften, Psychologie ",2023-01-30_13h52.07.004,00_bat_bachelor,2022.2.4,60.13341652405371,
,,,,,,,,,,,,0,0,0,0,156,0,156,0,,,,,,,156,,,1,10672.772718148724,X,l,go,l,1,,0.3481119412481348,,,,,,,,,,,,,,,,,81,001,22,w,"Bildungswissenschaften, Psychologie ",2023-01-30_13h52.07.004,00_bat_bachelor,2022.2.4,60.13341652405371,
,,,,,,,,,,,,0,0,0,0,157,0,157,0,,,,,,,157,,,1,10674.224136142104,X,None,nogo,None,1,10675.024766156668,,,,,,,,,,,,,,,,,,81,001,22,w,"Bildungswissenschaften, Psychologie ",2023-01-30_13h52.07.004,00_bat_bachelor,2022.2.4,60.13341652405371,
,,,,,,,,,,,,0,0,0,0,158,0,158,0,,,,,,,158,,,1,10676.025760099918,X,None,nogo,l,0,,0.2965287108654593,,,,,,,,,,,,,,,,,81,001,22,w,"Bildungswissenschaften, Psychologie ",2023-01-30_13h52.07.004,00_bat_bachelor,2022.2.4,60.13341652405371,
,,,,,,,,,,,,0,0,0,0,159,0,159,0,,,,,,,159,,,1,10677.426609654729,Y,d,go,d,1,,0.31898067674228514,,,,,,,,,,,,,,,,,81,001,22,w,"Bildungswissenschaften, Psychologie ",2023-01-30_13h52.07.004,00_bat_bachelor,2022.2.4,60.13341652405371,
,,,,,,,,,,,,0,0,0,0,160,0,160,0,,,,,,,160,,,1,10678.860977400156,X,l,go,l,1,,0.325434519958435,,,,,,,,,,,,,,,,,81,001,22,w,"Bildungswissenschaften, Psychologie ",2023-01-30_13h52.07.004,00_bat_bachelor,2022.2.4,60.13341652405371,
,,,,,,,,,,,,0,0,0,0,161,0,161,0,,,,,,,161,,,1,10680.295453752064,Y,d,go,d,1,,0.45788642765000986,,,,,,,,,,,,,,,,,81,001,22,w,"Bildungswissenschaften, Psychologie ",2023-01-30_13h52.07.004,00_bat_bachelor,2022.2.4,60.13341652405371,
,,,,,,,,,,,,0,0,0,0,162,0,162,0,,,,,,,162,,,1,10681.863328439576,Y,None,nogo,None,1,,,,,,,,,,,,,,,,,,,81,001,22,w,"Bildungswissenschaften, Psychologie ",2023-01-30_13h52.07.004,00_bat_bachelor,2022.2.4,60.13341652405371,
,,,,,,,,,,,,0,0,0,0,163,0,163,0,,,,,,,163,,,1,10683.664673123581,X,l,go,l,1,,0.2575011655480921,,,,,,,,,,,,,,,,,81,001,22,w,"Bildungswissenschaften, Psychologie ",2023-01-30_13h52.07.004,00_bat_bachelor,2022.2.4,60.13341652405371,
,,,,,,,,,,,,0,0,0,0,164,0,164,0,,,,,,,164,,,1,10685.032057336466,Y,d,go,d,1,,0.3618433884530532,,,,,,,,,,,,,,,,,81,001,22,w,"Bildungswissenschaften, Psychologie ",2023-01-30_13h52.07.004,00_bat_bachelor,2022.2.4,60.13341652405371,
,,,,,,,,,,,,0,0,0,0,165,0,165,0,,,,,,,165,,,1,10686.499886545014,X,l,go,l,1,,0.31784030868038826,,,,,,,,,,,,,,,,,81,001,22,w,"Bildungswissenschaften, Psychologie ",2023-01-30_13h52.07.004,00_bat_bachelor,2022.2.4,60.13341652405371,
,,,,,,,,,,,,0,0,0,0,166,0,166,0,,,,,,,166,,,1,10687.934565079526,X,None,nogo,None,1,10688.735297397518,,,,,,,,,,,,,,,,,,81,001,22,w,"Bildungswissenschaften, Psychologie ",2023-01-30_13h52.07.004,00_bat_bachelor,2022.2.4,60.13341652405371,
,,,,,,,,,,,,0,0,0,0,167,0,167,0,,,,,,,167,,,1,10689.735675580803,Y,d,go,d,1,,0.37881266639487876,,,,,,,,,,,,,,,,,81,001,22,w,"Bildungswissenschaften, Psychologie ",2023-01-30_13h52.07.004,00_bat_bachelor,2022.2.4,60.13341652405371,
,,,,,,,,,,,,0,0,0,0,168,0,168,0,,,,,,,168,,,1,10691.220354794103,X,l,go,l,1,,0.3173758220345917,,,,,,,,,,,,,,,,,81,001,22,w,"Bildungswissenschaften, Psychologie ",2023-01-30_13h52.07.004,00_bat_bachelor,2022.2.4,60.13341652405371,
,,,,,,,,,,,,0,0,0,0,169,0,169,0,,,,,,,169,,,1,10692.654946540399,X,None,nogo,l,0,,0.4187386394423811,,,,,,,,,,,,,,,,,81,001,22,w,"Bildungswissenschaften, Psychologie ",2023-01-30_13h52.07.004,00_bat_bachelor,2022.2.4,60.13341652405371,
,,,,,,,,,,,,0,0,0,0,170,0,170,0,,,,,,,170,,,1,10694.189436855999,Y,d,go,d,1,,0.27674681595635775,,,,,,,,,,,,,,,,,81,001,22,w,"Bildungswissenschaften, Psychologie ",2023-01-30_13h52.07.004,00_bat_bachelor,2022.2.4,60.13341652405371,
,,,,,,,,,,,,0,0,0,0,171,0,171,0,,,,,,,171,,,1,10695.573815074193,X,l,go,l,1,,0.3648504304164817,,,,,,,,,,,,,,,,,81,001,22,w,"Bildungswissenschaften, Psychologie ",2023-01-30_13h52.07.004,00_bat_bachelor,2022.2.4,60.13341652405371,
,,,,,,,,,,,,0,0,0,0,172,0,172,0,,,,,,,172,,,1,10697.0412568873,Y,d,go,d,1,,0.49750258131280134,,,,,,,,,,,,,,,,,81,001,22,w,"Bildungswissenschaften, Psychologie ",2023-01-30_13h52.07.004,00_bat_bachelor,2022.2.4,60.13341652405371,
,,,,,,,,,,,,0,0,0,0,173,0,173,0,,,,,,,173,,,1,10698.64290576642,X,l,go,l,1,,0.47995099808213126,,,,,,,,,,,,,,,,,81,001,22,w,"Bildungswissenschaften, Psychologie ",2023-01-30_13h52.07.004,00_bat_bachelor,2022.2.4,60.13341652405371,
,,,,,,,,,,,,0,0,0,0,174,0,174,0,,,,,,,174,,,1,10700.227344881823,Y,d,go,d,1,,0.3819588604146702,,,,,,,,,,,,,,,,,81,001,22,w,"Bildungswissenschaften, Psychologie ",2023-01-30_13h52.07.004,00_bat_bachelor,2022.2.4,60.13341652405371,
,,,,,,,,,,,,0,0,0,0,175,0,175,0,,,,,,,175,,,1,10701.711783609342,X,l,go,l,1,,0.46600088336526824,,,,,,,,,,,,,,,,,81,001,22,w,"Bildungswissenschaften, Psychologie ",2023-01-30_13h52.07.004,00_bat_bachelor,2022.2.4,60.13341652405371,
,,,,,,,,,,,,0,0,0,0,176,0,176,0,,,,,,,176,,,1,10703.279741206268,Y,d,go,d,1,,0.35438881408299494,,,,,,,,,,,,,,,,,81,001,22,w,"Bildungswissenschaften, Psychologie ",2023-01-30_13h52.07.004,00_bat_bachelor,2022.2.4,60.13341652405371,
,,,,,,,,,,,,0,0,0,0,177,0,177,0,,,,,,,177,,,1,10704.747197564888,Y,None,nogo,None,1,,,,,,,,,,,,,,,,,,,81,001,22,w,"Bildungswissenschaften, Psychologie ",2023-01-30_13h52.07.004,00_bat_bachelor,2022.2.4,60.13341652405371,
,,,,,,,,,,,,0,0,0,0,178,0,178,0,,,,,,,178,,,1,10706.548909765468,Y,None,nogo,l,0,,0.28494563563617703,,,,,,,,,,,,,,,,,81,001,22,w,"Bildungswissenschaften, Psychologie ",2023-01-30_13h52.07.004,00_bat_bachelor,2022.2.4,60.13341652405371,
,,,,,,,,,,,,0,0,0,0,179,0,179,0,,,,,,,179,,,1,10707.949689016976,X,l,go,l,1,,0.3246325774507568,,,,,,,,,,,,,,,,,81,001,22,w,"Bildungswissenschaften, Psychologie ",2023-01-30_13h52.07.004,00_bat_bachelor,2022.2.4,60.13341652405371,
,,,,,,,,,,,,0,0,0,0,180,0,180,0,,,,,,,180,,,1,10709.384408278918,Y,d,go,d,1,,0.2823298679122672,,,,,,,,,,,,,,,,,81,001,22,w,"Bildungswissenschaften, Psychologie ",2023-01-30_13h52.07.004,00_bat_bachelor,2022.2.4,60.13341652405371,
,,,,,,,,,,,,0,0,0,0,181,0,181,0,,,,,,,181,,,1,10710.768634738946,X,l,go,l,1,,0.43287348214107624,,,,,,,,,,,,,,,,,81,001,22,w,"Bildungswissenschaften, Psychologie ",2023-01-30_13h52.07.004,00_bat_bachelor,2022.2.4,60.13341652405371,
,,,,,,,,,,,,0,0,0,0,182,0,182,0,,,,,,,182,,,1,10712.303297661274,Y,d,go,d,1,,0.4986589494346845,,,,,,,,,,,,,,,,,81,001,22,w,"Bildungswissenschaften, Psychologie ",2023-01-30_13h52.07.004,00_bat_bachelor,2022.2.4,60.13341652405371,
,,,,,,,,,,,,0,0,0,0,183,0,183,0,,,,,,,183,,,1,10713.90457466017,Y,None,nogo,None,1,,,,,,,,,,,,,,,,,,,81,001,22,w,"Bildungswissenschaften, Psychologie ",2023-01-30_13h52.07.004,00_bat_bachelor,2022.2.4,60.13341652405371,
,,,,,,,,,,,,0,0,0,0,184,0,184,0,,,,,,,184,,,1,10715.705560554903,X,l,go,l,1,,0.44062139098787156,,,,,,,,,,,,,,,,,81,001,22,w,"Bildungswissenschaften, Psychologie ",2023-01-30_13h52.07.004,00_bat_bachelor,2022.2.4,60.13341652405371,
,,,,,,,,,,,,0,0,0,0,185,0,185,0,,,,,,,185,,,1,10717.256745723134,Y,d,go,d,1,,0.457814184943345,,,,,,,,,,,,,,,,,81,001,22,w,"Bildungswissenschaften, Psychologie ",2023-01-30_13h52.07.004,00_bat_bachelor,2022.2.4,60.13341652405371,
,,,,,,,,,,,,0,0,0,0,186,0,186,0,,,,,,,186,,,1,10718.824635441011,Y,None,nogo,None,1,10719.625596608374,,,,,,,,,,,,,,,,,,81,001,22,w,"Bildungswissenschaften, Psychologie ",2023-01-30_13h52.07.004,00_bat_bachelor,2022.2.4,60.13341652405371,
,,,,,,,,,,,,0,0,0,0,187,0,187,0,,,,,,,187,,,1,10720.62626861098,X,l,go,l,1,,0.303734072147563,,,,,,,,,,,,,,,,,81,001,22,w,"Bildungswissenschaften, Psychologie ",2023-01-30_13h52.07.004,00_bat_bachelor,2022.2.4,60.13341652405371,
,,,,,,,,,,,,0,0,0,0,188,0,188,0,,,,,,,188,,,1,10722.044059322412,Y,d,go,d,1,,0.5985570338871185,,,,,,,,,,,,,,,,,81,001,22,w,"Bildungswissenschaften, Psychologie ",2023-01-30_13h52.07.004,00_bat_bachelor,2022.2.4,60.13341652405371,
,,,,,,,,,,,,0,0,0,0,189,0,189,0,,,,,,,189,,,1,10723.745389073025,X,l,go,l,1,,0.43326233213701926,,,,,,,,,,,,,,,,,81,001,22,w,"Bildungswissenschaften, Psychologie ",2023-01-30_13h52.07.004,00_bat_bachelor,2022.2.4,60.13341652405371,
,,,,,,,,,,,,0,0,0,0,190,0,190,0,,,,,,,190,,,1,10725.279583629901,X,None,nogo,None,1,,,,,,,,,,,,,,,,,,,81,001,22,w,"Bildungswissenschaften, Psychologie ",2023-01-30_13h52.07.004,00_bat_bachelor,2022.2.4,60.13341652405371,
,,,,,,,,,,,,0,0,0,0,191,0,191,0,,,,,,,191,,,1,10727.081122738899,Y,d,go,d,1,,0.42550278689122933,,,,,,,,,,,,,,,,,81,001,22,w,"Bildungswissenschaften, Psychologie ",2023-01-30_13h52.07.004,00_bat_bachelor,2022.2.4,60.13341652405371,
,,,,,,,,,,,,0,0,0,0,192,0,192,0,,,,,,,192,,,1,10728.615853055431,X,l,go,l,1,,0.4271406114221463,,,,,,,,,,,,,,,,,81,001,22,w,"Bildungswissenschaften, Psychologie ",2023-01-30_13h52.07.004,00_bat_bachelor,2022.2.4,60.13341652405371,
,,,,,,,,,,,,0,0,0,0,193,0,193,0,,,,,,,193,,,1,10730.150331734621,Y,d,go,d,1,,0.4913595271809754,,,,,,,,,,,,,,,,,81,001,22,w,"Bildungswissenschaften, Psychologie ",2023-01-30_13h52.07.004,00_bat_bachelor,2022.2.4,60.13341652405371,
,,,,,,,,,,,,0,0,0,0,194,0,194,0,,,,,,,194,,,1,10731.751178186387,X,l,go,l,1,,0.31506938884376723,,,,,,,,,,,,,,,,,81,001,22,w,"Bildungswissenschaften, Psychologie ",2023-01-30_13h52.07.004,00_bat_bachelor,2022.2.4,60.13341652405371,
,,,,,,,,,,,,0,0,0,0,195,0,195,0,,,,,,,195,,,1,10733.169330596193,X,None,nogo,None,1,10733.969905822665,,,,,,,,,,,,,,,,,,81,001,22,w,"Bildungswissenschaften, Psychologie ",2023-01-30_13h52.07.004,00_bat_bachelor,2022.2.4,60.13341652405371,
,,,,,,,,,,,,0,0,0,0,196,0,196,0,,,,,,,196,,,1,10734.970320854576,Y,d,go,d,1,,0.37603495865005243,,,,,,,,,,,,,,,,,81,001,22,w,"Bildungswissenschaften, Psychologie ",2023-01-30_13h52.07.004,00_bat_bachelor,2022.2.4,60.13341652405371,
,,,,,,,,,,,,0,0,0,0,197,0,197,0,,,,,,,197,,,1,10736.455153280593,X,l,go,l,1,,0.44388443394382193,,,,,,,,,,,,,,,,,81,001,22,w,"Bildungswissenschaften, Psychologie ",2023-01-30_13h52.07.004,00_bat_bachelor,2022.2.4,60.13341652405371,
,,,,,,,,,,,,0,0,0,0,198,0,198,0,,,,,,,198,,,1,10738.006309357806,Y,d,go,d,1,,0.42875661769176077,,,,,,,,,,,,,,,,,81,001,22,w,"Bildungswissenschaften, Psychologie ",2023-01-30_13h52.07.004,00_bat_bachelor,2022.2.4,60.13341652405371,
,,,,,,,,,,,,0,0,0,0,199,0,199,0,,,,,,,199,,,1,10739.540757491424,Y,None,nogo,None,1,,,,,,,,,,,,,,,,,,,81,001,22,w,"Bildungswissenschaften, Psychologie ",2023-01-30_13h52.07.004,00_bat_bachelor,2022.2.4,60.13341652405371,
,,,,,,,,,,,,0,0,0,0,200,0,200,0,,,,,,,200,,,1,10741.342021690267,X,l,go,l,1,,0.3876742765260133,,,,,,,,,,,,,,,,,81,001,22,w,"Bildungswissenschaften, Psychologie ",2023-01-30_13h52.07.004,00_bat_bachelor,2022.2.4,60.13341652405371,
,,,,,,,,,,,,0,0,0,0,201,0,201,0,,,,,,,201,,,1,10742.843331755954,Y,d,go,d,1,,0.39098531966919836,,,,,,,,,,,,,,,,,81,001,22,w,"Bildungswissenschaften, Psychologie ",2023-01-30_13h52.07.004,00_bat_bachelor,2022.2.4,60.13341652405371,
,,,,,,,,,,,,0,0,0,0,202,0,202,0,,,,,,,202,,,1,10744.344481336171,X,l,go,l,1,,0.44227424588279973,,,,,,,,,,,,,,,,,81,001,22,w,"Bildungswissenschaften, Psychologie ",2023-01-30_13h52.07.004,00_bat_bachelor,2022.2.4,60.13341652405371,
,,,,,,,,,,,,0,0,0,0,203,0,203,0,,,,,,,203,,,1,10745.895680565063,X,None,nogo,l,0,,0.5059787354020955,,,,,,,,,,,,,,,,,81,001,22,w,"Bildungswissenschaften, Psychologie ",2023-01-30_13h52.07.004,00_bat_bachelor,2022.2.4,60.13341652405371,
,,,,,,,,,,,,0,0,0,0,204,0,204,0,,,,,,,204,,,1,10747.513536537354,Y,d,go,d,1,,0.3455087796373846,,,,,,,,,,,,,,,,,81,001,22,w,"Bildungswissenschaften, Psychologie ",2023-01-30_13h52.07.004,00_bat_bachelor,2022.2.4,60.13341652405371,
,,,,,,,,,,,,0,0,0,0,205,0,205,0,,,,,,,205,,,1,10748.964378528497,X,l,go,l,1,,0.5104388739146088,,,,,,,,,,,,,,,,,81,001,22,w,"Bildungswissenschaften, Psychologie ",2023-01-30_13h52.07.004,00_bat_bachelor,2022.2.4,60.13341652405371,
,,,,,,,,,,,,0,0,0,0,206,0,206,0,,,,,,,206,,,1,10750.582337289066,Y,d,go,d,1,,0.38054746099987824,,,,,,,,,,,,,,,,,81,001,22,w,"Bildungswissenschaften, Psychologie ",2023-01-30_13h52.07.004,00_bat_bachelor,2022.2.4,60.13341652405371,
,,,,,,,,,,,,0,0,0,0,207,0,207,0,,,,,,,207,,,1,10752.067080017765,X,l,go,l,1,,0.5117906367322576,,,,,,,,,,,,,,,,,81,001,22,w,"Bildungswissenschaften, Psychologie ",2023-01-30_13h52.07.004,00_bat_bachelor,2022.2.4,60.13341652405371,
,,,,,,,,,,,,0,0,0,0,208,0,208,0,,,,,,,208,,,1,10753.685110051334,X,None,nogo,None,1,,,,,,,,,,,,,,,,,,,81,001,22,w,"Bildungswissenschaften, Psychologie ",2023-01-30_13h52.07.004,00_bat_bachelor,2022.2.4,60.13341652405371,
,,,,,,,,,,,,0,0,0,0,209,0,209,0,,,,,,,209,,,1,10755.486388795689,Y,d,go,d,1,,0.3244231220942311,,,,,,,,,,,,,,,,,81,001,22,w,"Bildungswissenschaften, Psychologie ",2023-01-30_13h52.07.004,00_bat_bachelor,2022.2.4,60.13341652405371,
,,,,,,,,,,,,0,0,0,0,210,0,210,0,,,,,,,210,,,1,10756.920510721982,X,l,go,l,1,,0.37746235812483064,,,,,,,,,,,,,,,,,81,001,22,w,"Bildungswissenschaften, Psychologie ",2023-01-30_13h52.07.004,00_bat_bachelor,2022.2.4,60.13341652405371,
,,,,,,,,,,,,0,0,0,0,211,0,211,0,,,,,,,211,,,1,10758.405204480794,Y,d,go,d,1,,0.41328698193137825,,,,,,,,,,,,,,,,,81,001,22,w,"Bildungswissenschaften, Psychologie ",2023-01-30_13h52.07.004,00_bat_bachelor,2022.2.4,60.13341652405371,
,,,,,,,,,,,,0,0,0,0,212,0,212,0,,,,,,,212,,,1,10759.922966004233,X,l,go,l,1,,0.38309001631751016,,,,,,,,,,,,,,,,,81,001,22,w,"Bildungswissenschaften, Psychologie ",2023-01-30_13h52.07.004,00_bat_bachelor,2022.2.4,60.13341652405371,
,,,,,,,,,,,,0,0,0,0,213,0,213,0,,,,,,,213,,,1,10761.407597702197,X,None,nogo,None,1,10762.207876200246,,,,,,,,,,,,,,,,,,81,001,22,w,"Bildungswissenschaften, Psychologie ",2023-01-30_13h52.07.004,00_bat_bachelor,2022.2.4,60.13341652405371,
,,,,,,,,,,,,0,0,0,0,214,0,214,0,,,,,,,214,,,1,10763.209020931961,Y,d,go,d,1,,0.3305273881942412,,,,,,,,,,,,,,,,,81,001,22,w,"Bildungswissenschaften, Psychologie ",2023-01-30_13h52.07.004,00_bat_bachelor,2022.2.4,60.13341652405371,
,,,,,,,,,,,,0,0,0,0,215,0,215,0,,,,,,,215,,,1,10764.643413889604,X,l,go,l,1,,0.41457571420141903,,,,,,,,,,,,,,,,,81,001,22,w,"Bildungswissenschaften, Psychologie ",2023-01-30_13h52.07.004,00_bat_bachelor,2022.2.4,60.13341652405371,
,,,,,,,,,,,,0,0,0,0,216,0,216,0,,,,,,,216,,,1,10766.160887896778,X,None,nogo,None,1,,,,,,,,,,,,,,,,,,,81,001,22,w,"Bildungswissenschaften, Psychologie ",2023-01-30_13h52.07.004,00_bat_bachelor,2022.2.4,60.13341652405371,
,,,,,,,,,,,,0,0,0,0,217,0,217,0,,,,,,,217,,,1,10767.962584582147,Y,d,go,d,1,,0.39104786536518077,,,,,,,,,,,,,,,,,81,001,22,w,"Bildungswissenschaften, Psychologie ",2023-01-30_13h52.07.004,00_bat_bachelor,2022.2.4,60.13341652405371,
,,,,,,,,,,,,0,0,0,0,218,0,218,0,,,,,,,218,,,1,10769.463780707996,X,l,go,l,1,,0.2829102338018856,,,,,,,,,,,,,,,,,81,001,22,w,"Bildungswissenschaften, Psychologie ",2023-01-30_13h52.07.004,00_bat_bachelor,2022.2.4,60.13341652405371,
,,,,,,,,,,,,0,0,0,0,219,0,219,0,,,,,,,219,,,1,10770.848079895582,Y,d,go,d,1,,0.49880052574189904,,,,,,,,,,,,,,,,,81,001,22,w,"Bildungswissenschaften, Psychologie ",2023-01-30_13h52.07.004,00_bat_bachelor,2022.2.4,60.13341652405371,
,,,,,,,,,,,,0,0,0,0,220,0,220,0,,,,,,,220,,,1,10772.449319560998,Y,None,nogo,None,1,,,,,,,,,,,,,,,,,,,81,001,22,w,"Bildungswissenschaften, Psychologie ",2023-01-30_13h52.07.004,00_bat_bachelor,2022.2.4,60.13341652405371,
,,,,,,,,,,,,0,0,0,0,221,0,221,0,,,,,,,221,,,1,10774.250764124175,Y,None,nogo,l,0,,0.2640403424284159,,,,,,,,,,,,,,,,,81,001,22,w,"Bildungswissenschaften, Psychologie ",2023-01-30_13h52.07.004,00_bat_bachelor,2022.2.4,60.13341652405371,
,,,,,,,,,,,,0,0,0,0,222,0,222,0,,,,,,,222,,,1,10775.618153185565,X,l,go,l,1,,0.43221941900446836,,,,,,,,,,,,,,,,,81,001,22,w,"Bildungswissenschaften, Psychologie ",2023-01-30_13h52.07.004,00_bat_bachelor,2022.2.4,60.13341652405371,
,,,,,,,,,,,,0,0,0,0,223,0,223,0,,,,,,,223,,,1,10777.152848108017,Y,d,go,d,1,,0.3219309912146855,,,,,,,,,,,,,,,,,81,001,22,w,"Bildungswissenschaften, Psychologie ",2023-01-30_13h52.07.004,00_bat_bachelor,2022.2.4,60.13341652405371,
,,,,,,,,,,,,0,0,0,0,224,0,224,0,,,,,,,224,,,1,10778.587373914663,X,l,go,l,1,,0.4073868378309271,,,,,,,,,,,,,,,,,81,001,22,w,"Bildungswissenschaften, Psychologie ",2023-01-30_13h52.07.004,00_bat_bachelor,2022.2.4,60.13341652405371,
,,,,,,,,,,,,0,0,0,0,225,0,225,0,,,,,,,225,,,1,10780.105153862416,Y,d,go,d,1,,0.3936355117675703,,,,,,,,,,,,,,,,,81,001,22,w,"Bildungswissenschaften, Psychologie ",2023-01-30_13h52.07.004,00_bat_bachelor,2022.2.4,60.13341652405371,
,,,,,,,,,,,,0,0,0,0,226,0,226,0,,,,,,,226,,,1,10781.60643192798,Y,None,nogo,None,1,,,,,,,,,,,,,,,,,,,81,001,22,w,"Bildungswissenschaften, Psychologie ",2023-01-30_13h52.07.004,00_bat_bachelor,2022.2.4,60.13341652405371,
,,,,,,,,,,,,0,0,0,0,227,0,227,0,,,,,,,227,,,1,10783.407785339288,X,l,go,l,1,,0.43486621714509965,,,,,,,,,,,,,,,,,81,001,22,w,"Bildungswissenschaften, Psychologie ",2023-01-30_13h52.07.004,00_bat_bachelor,2022.2.4,60.13341652405371,
,,,,,,,,,,,,0,0,0,0,228,0,228,0,,,,,,,228,,,1,10784.958979719679,Y,d,go,d,1,,0.3878173073808284,,,,,,,,,,,,,,,,,81,001,22,w,"Bildungswissenschaften, Psychologie ",2023-01-30_13h52.07.004,00_bat_bachelor,2022.2.4,60.13341652405371,
,,,,,,,,,,,,0,0,0,0,229,0,229,0,,,,,,,229,,,1,10786.459778268232,X,l,go,l,1,,0.34221179715495964,,,,,,,,,,,,,,,,,81,001,22,w,"Bildungswissenschaften, Psychologie ",2023-01-30_13h52.07.004,00_bat_bachelor,2022.2.4,60.13341652405371,
,,,,,,,,,,,,0,0,0,0,230,0,230,0,,,,,,,230,,,1,10787.91088013917,Y,d,go,d,1,,0.4425860046667367,,,,,,,,,,,,,,,,,81,001,22,w,"Bildungswissenschaften, Psychologie ",2023-01-30_13h52.07.004,00_bat_bachelor,2022.2.4,60.13341652405371,
,,,,,,,,,,,,0,0,0,0,231,0,231,0,,,,,,,231,,,1,10789.462470157461,Y,None,nogo,None,1,,,,,,,,,,,,,,,,,,,81,001,22,w,"Bildungswissenschaften, Psychologie ",2023-01-30_13h52.07.004,00_bat_bachelor,2022.2.4,60.13341652405371,
,,,,,,,,,,,,0,0,0,0,232,0,232,0,,,,,,,232,,,1,10791.263812902063,X,l,go,l,1,,0.3708708174071944,,,,,,,,,,,,,,,,,81,001,22,w,"Bildungswissenschaften, Psychologie ",2023-01-30_13h52.07.004,00_bat_bachelor,2022.2.4,60.13341652405371,
,,,,,,,,,,,,0,0,0,0,233,0,233,0,,,,,,,233,,,1,10792.747954901159,Y,d,go,d,1,,0.3427281627937191,,,,,,,,,,,,,,,,,81,001,22,w,"Bildungswissenschaften, Psychologie ",2023-01-30_13h52.07.004,00_bat_bachelor,2022.2.4,60.13341652405371,
,,,,,,,,,,,,0,0,0,0,234,0,234,0,,,,,,,234,,,1,10794.199339439863,Y,None,nogo,None,1,10794.999690180615,,,,,,,,,,,,,,,,,,81,001,22,w,"Bildungswissenschaften, Psychologie ",2023-01-30_13h52.07.004,00_bat_bachelor,2022.2.4,60.13341652405371,
,,,,,,,,,,,,0,0,0,0,235,0,235,0,,,,,,,235,,,1,10796.000422304667,X,l,go,l,1,,0.2736646221837873,,,,,,,,,,,,,,,,,81,001,22,w,"Bildungswissenschaften, Psychologie ",2023-01-30_13h52.07.004,00_bat_bachelor,2022.2.4,60.13341652405371,
,,,,,,,,,,,,0,0,0,0,236,0,236,0,,,,,,,236,,,1,10797.385197130461,Y,d,go,d,1,,0.29722883479735174,,,,,,,,,,,,,,,,,81,001,22,w,"Bildungswissenschaften, Psychologie ",2023-01-30_13h52.07.004,00_bat_bachelor,2022.2.4,60.13341652405371,
,,,,,,,,,,,,0,0,0,0,237,0,237,0,,,,,,,237,,,1,10798.785904624114,X,l,go,l,1,,0.4320453577183798,,,,,,,,,,,,,,,,,81,001,22,w,"Bildungswissenschaften, Psychologie ",2023-01-30_13h52.07.004,00_bat_bachelor,2022.2.4,60.13341652405371,
,,,,,,,,,,,,0,0,0,0,238,0,238,0,,,,,,,238,,,1,10800.320726577364,X,None,nogo,None,1,,,,,,,,,,,,,,,,,,,81,001,22,w,"Bildungswissenschaften, Psychologie ",2023-01-30_13h52.07.004,00_bat_bachelor,2022.2.4,60.13341652405371,
,,,,,,,,,,,,0,0,0,0,239,0,239,0,,,,,,,239,,,1,10802.121749320726,Y,d,go,d,1,,0.2483622210111207,,,,,,,,,,,,,,,,,81,001,22,w,"Bildungswissenschaften, Psychologie ",2023-01-30_13h52.07.004,00_bat_bachelor,2022.2.4,60.13341652405371,
,,,,,,,,,,,,0,0,0,0,240,0,240,0,,,,,,,240,,,1,10803.47317468383,X,l,go,l,1,,0.3691675380741799,,,,,,,,,,,,,,,,,81,001,22,w,"Bildungswissenschaften, Psychologie ",2023-01-30_13h52.07.004,00_bat_bachelor,2022.2.4,60.13341652405371,
,,,,,,,,,,,,0,0,0,0,241,0,241,0,,,,,,,241,,,1,10804.957247349324,X,None,nogo,None,1,,,,,,,,,,,,,,,,,,,81,001,22,w,"Bildungswissenschaften, Psychologie ",2023-01-30_13h52.07.004,00_bat_bachelor,2022.2.4,60.13341652405371,
,,,,,,,,,,,,0,0,0,0,242,0,242,0,,,,,,,242,,,1,10806.758838822163,Y,d,go,d,1,,0.2675652045818424,,,,,,,,,,,,,,,,,81,001,22,w,"Bildungswissenschaften, Psychologie ",2023-01-30_13h52.07.004,00_bat_bachelor,2022.2.4,60.13341652405371,
,,,,,,,,,,,,0,0,0,0,243,0,243,0,,,,,,,243,,,1,10808.143452677636,X,l,go,l,1,,0.4033334887772071,,,,,,,,,,,,,,,,,81,001,22,w,"Bildungswissenschaften, Psychologie ",2023-01-30_13h52.07.004,00_bat_bachelor,2022.2.4,60.13341652405371,
,,,,,,,,,,,,0,0,0,0,244,0,244,0,,,,,,,244,,,1,10809.660991169905,X,None,nogo,None,1,10810.461841791388,,,,,,,,,,,,,,,,,,81,001,22,w,"Bildungswissenschaften, Psychologie ",2023-01-30_13h52.07.004,00_bat_bachelor,2022.2.4,60.13341652405371,
,,,,,,,,,,,,0,0,0,0,245,0,245,0,,,,,,,245,,,1,10811.462590400351,Y,d,go,d,1,,0.23620265869431023,,,,,,,,,,,,,,,,,81,001,22,w,"Bildungswissenschaften, Psychologie ",2023-01-30_13h52.07.004,00_bat_bachelor,2022.2.4,60.13341652405371,
,,,,,,,,,,,,0,0,0,0,246,0,246,0,,,,,,,246,,,1,10812.813314669827,X,l,go,l,1,,0.40493397983118484,,,,,,,,,,,,,,,,,81,001,22,w,"Bildungswissenschaften, Psychologie ",2023-01-30_13h52.07.004,00_bat_bachelor,2022.2.4,60.13341652405371,
,,,,,,,,,,,,0,0,0,0,247,0,247,0,,,,,,,247,,,1,10814.331217284722,X,None,nogo,None,1,10815.132031057576,,,,,,,,,,,,,,,,,,81,001,22,w,"Bildungswissenschaften, Psychologie ",2023-01-30_13h52.07.004,00_bat_bachelor,2022.2.4,60.13341652405371,
,,,,,,,,,,,,0,0,0,0,248,0,248,0,,,,,,,248,,,1,10816.13250136243,Y,d,go,d,1,,0.3010523647808441,,,,,,,,,,,,,,,,,81,001,22,w,"Bildungswissenschaften, Psychologie ",2023-01-30_13h52.07.004,00_bat_bachelor,2022.2.4,60.13341652405371,
,,,,,,,,,,,,0,0,0,0,249,0,249,0,,,,,,,249,,,1,10817.550608681147,X,l,go,l,1,,0.4677448901329626,,,,,,,,,,,,,,,,,81,001,22,w,"Bildungswissenschaften, Psychologie ",2023-01-30_13h52.07.004,00_bat_bachelor,2022.2.4,60.13341652405371,
,,,,,,,,,,,,1,0,1,0,0,0,0,0,,,,,,,0,,,0.2,10887.087659006676,X,l,go,None,0,10887.88788659544,,,,,,,,,10818.14150842767,space,68.72815705172798,,,,,,,81,001,22,w,"Bildungswissenschaften, Psychologie ",2023-01-30_13h52.07.004,00_bat_bachelor,2022.2.4,60.13341652405371,
,,,,,,,,,,,,1,0,1,0,1,0,1,0,,,,,,,1,,,0.2,10888.088111372068,Y,d,go,None,0,10888.88860465883,,,,,,,,,,,,,,,,,,81,001,22,w,"Bildungswissenschaften, Psychologie ",2023-01-30_13h52.07.004,00_bat_bachelor,2022.2.4,60.13341652405371,
,,,,,,,,,,,,1,0,1,0,2,0,2,0,,,,,,,2,,,0.2,10889.088679616696,X,l,go,None,0,10889.889292661497,,,,,,,,,,,,,,,,,,81,001,22,w,"Bildungswissenschaften, Psychologie ",2023-01-30_13h52.07.004,00_bat_bachelor,2022.2.4,60.13341652405371,
,,,,,,,,,,,,1,0,1,0,3,0,3,0,,,,,,,3,,,0.2,10890.089629923412,X,None,nogo,l,0,,0.3140914456544124,,,,,,,,,,,,,,,,,81,001,22,w,"Bildungswissenschaften, Psychologie ",2023-01-30_13h52.07.004,00_bat_bachelor,2022.2.4,60.13341652405371,
,,,,,,,,,,,,1,0,1,0,4,0,4,0,,,,,,,4,,,0.2,10890.706608801393,Y,d,go,d,1,,0.3993562612286041,,,,,,,,,,,,,,,,,81,001,22,w,"Bildungswissenschaften, Psychologie ",2023-01-30_13h52.07.004,00_bat_bachelor,2022.2.4,60.13341652405371,
,,,,,,,,,,,,1,0,1,0,5,0,5,0,,,,,,,5,,,0.2,10891.407295155568,X,l,go,l,1,,0.4514994937871961,,,,,,,,,,,,,,,,,81,001,22,w,"Bildungswissenschaften, Psychologie ",2023-01-30_13h52.07.004,00_bat_bachelor,2022.2.4,60.13341652405371,
,,,,,,,,,,,,1,0,1,0,6,0,6,0,,,,,,,6,,,0.2,10892.17462370763,Y,d,go,d,1,,0.38815427838744654,,,,,,,,,,,,,,,,,81,001,22,w,"Bildungswissenschaften, Psychologie ",2023-01-30_13h52.07.004,00_bat_bachelor,2022.2.4,60.13341652405371,
,,,,,,,,,,,,1,0,1,0,7,0,7,0,,,,,,,7,,,0.2,10892.875104000403,X,l,go,l,1,,0.3754288956934033,,,,,,,,,,,,,,,,,81,001,22,w,"Bildungswissenschaften, Psychologie ",2023-01-30_13h52.07.004,00_bat_bachelor,2022.2.4,60.13341652405371,
,,,,,,,,,,,,1,0,1,0,8,0,8,0,,,,,,,8,,,0.2,10893.558923380067,Y,d,go,d,1,,0.33128084566669713,,,,,,,,,,,,,,,,,81,001,22,w,"Bildungswissenschaften, Psychologie ",2023-01-30_13h52.07.004,00_bat_bachelor,2022.2.4,60.13341652405371,
,,,,,,,,,,,,1,0,1,0,9,0,9,0,,,,,,,9,,,0.2,10894.192739656686,Y,None,nogo,d,0,,0.33746850602801715,,,,,,,,,,,,,,,,,81,001,22,w,"Bildungswissenschaften, Psychologie ",2023-01-30_13h52.07.004,00_bat_bachelor,2022.2.4,60.13341652405371,
,,,,,,,,,,,,1,0,1,0,10,0,10,0,,,,,,,10,,,0.2,10894.843094179276,Y,None,nogo,d,0,,0.37632441431742336,,,,,,,,,,,,,,,,,81,001,22,w,"Bildungswissenschaften, Psychologie ",2023-01-30_13h52.07.004,00_bat_bachelor,2022.2.4,60.13341652405371,
,,,,,,,,,,,,1,0,1,0,11,0,11,0,,,,,,,11,,,0.2,10895.526973680382,X,l,go,l,1,,0.38025024772832694,,,,,,,,,,,,,,,,,81,001,22,w,"Bildungswissenschaften, Psychologie ",2023-01-30_13h52.07.004,00_bat_bachelor,2022.2.4,60.13341652405371,
,,,,,,,,,,,,1,0,1,0,12,0,12,0,,,,,,,12,,,0.2,10896.210962272824,Y,d,go,d,1,,0.38297753103142895,,,,,,,,,,,,,,,,,81,001,22,w,"Bildungswissenschaften, Psychologie ",2023-01-30_13h52.07.004,00_bat_bachelor,2022.2.4,60.13341652405371,
,,,,,,,,,,,,1,0,1,0,13,0,13,0,,,,,,,13,,,0.2,10896.894625045818,X,l,go,l,1,,0.6445378182961576,,,,,,,,,,,,,,,,,81,001,22,w,"Bildungswissenschaften, Psychologie ",2023-01-30_13h52.07.004,00_bat_bachelor,2022.2.4,60.13341652405371,
,,,,,,,,,,,,1,0,1,0,14,0,14,0,,,,,,,14,,,0.2,10897.845592613208,Y,d,go,d,1,,0.3649483701938152,,,,,,,,,,,,,,,,,81,001,22,w,"Bildungswissenschaften, Psychologie ",2023-01-30_13h52.07.004,00_bat_bachelor,2022.2.4,60.13341652405371,
,,,,,,,,,,,,1,0,1,0,15,0,15,0,,,,,,,15,,,0.2,10898.512756413114,X,l,go,l,1,,0.43368706105866295,,,,,,,,,,,,,,,,,81,001,22,w,"Bildungswissenschaften, Psychologie ",2023-01-30_13h52.07.004,00_bat_bachelor,2022.2.4,60.13341652405371,
,,,,,,,,,,,,1,0,1,0,16,0,16,0,,,,,,,16,,,0.2,10899.246468834786,Y,d,go,d,1,,0.3083091201970092,,,,,,,,,,,,,,,,,81,001,22,w,"Bildungswissenschaften, Psychologie ",2023-01-30_13h52.07.004,00_bat_bachelor,2022.2.4,60.13341652405371,
,,,,,,,,,,,,1,0,1,0,17,0,17,0,,,,,,,17,,,0.2,10899.863774986763,X,l,go,l,1,,0.3786667264339485,,,,,,,,,,,,,,,,,81,001,22,w,"Bildungswissenschaften, Psychologie ",2023-01-30_13h52.07.004,00_bat_bachelor,2022.2.4,60.13341652405371,
,,,,,,,,,,,,1,0,1,0,18,0,18,0,,,,,,,18,,,0.2,10900.547775215611,Y,d,go,d,1,,0.287726737335106,,,,,,,,,,,,,,,,,81,001,22,w,"Bildungswissenschaften, Psychologie ",2023-01-30_13h52.07.004,00_bat_bachelor,2022.2.4,60.13341652405371,
,,,,,,,,,,,,1,0,1,0,19,0,19,0,,,,,,,19,,,0.2,10901.14787645237,X,l,go,l,1,,0.2788025815043511,,,,,,,,,,,,,,,,,81,001,22,w,"Bildungswissenschaften, Psychologie ",2023-01-30_13h52.07.004,00_bat_bachelor,2022.2.4,60.13341652405371,
,,,,,,,,,,,,1,0,1,0,20,0,20,0,,,,,,,20,,,0.2,10901.731885990346,Y,d,go,d,1,,0.2865742480116751,,,,,,,,,,,,,,,,,81,001,22,w,"Bildungswissenschaften, Psychologie ",2023-01-30_13h52.07.004,00_bat_bachelor,2022.2.4,60.13341652405371,
,,,,,,,,,,,,1,0,1,0,21,0,21,0,,,,,,,21,,,0.2,10902.3323183799,X,l,go,l,1,,0.23149815559554554,,,,,,,,,,,,,,,,,81,001,22,w,"Bildungswissenschaften, Psychologie ",2023-01-30_13h52.07.004,00_bat_bachelor,2022.2.4,60.13341652405371,
,,,,,,,,,,,,1,0,1,0,22,0,22,0,,,,,,,22,,,0.2,10902.866008692396,Y,d,go,d,1,,0.2410293440825626,,,,,,,,,,,,,,,,,81,001,22,w,"Bildungswissenschaften, Psychologie ",2023-01-30_13h52.07.004,00_bat_bachelor,2022.2.4,60.13341652405371,
,,,,,,,,,,,,1,0,1,0,23,0,23,0,,,,,,,23,,,0.2,10903.416436039508,X,l,go,l,1,,0.21760331382574805,,,,,,,,,,,,,,,,,81,001,22,w,"Bildungswissenschaften, Psychologie ",2023-01-30_13h52.07.004,00_bat_bachelor,2022.2.4,60.13341652405371,
,,,,,,,,,,,,1,0,1,0,24,0,24,0,,,,,,,24,,,0.2,10903.949808775014,Y,d,go,d,1,,0.21390778433669766,,,,,,,,,,,,,,,,,81,001,22,w,"Bildungswissenschaften, Psychologie ",2023-01-30_13h52.07.004,00_bat_bachelor,2022.2.4,60.13341652405371,
,,,,,,,,,,,,1,0,1,0,25,0,25,0,,,,,,,25,,,0.2,10904.467104842104,X,l,go,l,1,,0.3199993473626819,,,,,,,,,,,,,,,,,81,001,22,w,"Bildungswissenschaften, Psychologie ",2023-01-30_13h52.07.004,00_bat_bachelor,2022.2.4,60.13341652405371,
,,,,,,,,,,,,1,0,1,0,26,0,26,0,,,,,,,26,,,0.2,10905.100697602706,Y,d,go,d,1,,0.26277003447285097,,,,,,,,,,,,,,,,,81,001,22,w,"Bildungswissenschaften, Psychologie ",2023-01-30_13h52.07.004,00_bat_bachelor,2022.2.4,60.13341652405371,
,,,,,,,,,,,,1,0,1,0,27,0,27,0,,,,,,,27,,,0.2,10905.668129621838,X,l,go,l,1,,0.31822140106851293,,,,,,,,,,,,,,,,,81,001,22,w,"Bildungswissenschaften, Psychologie ",2023-01-30_13h52.07.004,00_bat_bachelor,2022.2.4,60.13341652405371,
,,,,,,,,,,,,1,0,1,0,28,0,28,0,,,,,,,28,,,0.2,10906.301811110054,Y,d,go,d,1,,0.29373209395816957,,,,,,,,,,,,,,,,,81,001,22,w,"Bildungswissenschaften, Psychologie ",2023-01-30_13h52.07.004,00_bat_bachelor,2022.2.4,60.13341652405371,
,,,,,,,,,,,,1,0,1,0,29,0,29,0,,,,,,,29,,,0.2,10906.90240059113,X,l,go,l,1,,0.20429805009371194,,,,,,,,,,,,,,,,,81,001,22,w,"Bildungswissenschaften, Psychologie ",2023-01-30_13h52.07.004,00_bat_bachelor,2022.2.4,60.13341652405371,
,,,,,,,,,,,,1,0,1,0,30,0,30,0,,,,,,,30,,,0.2,10907.419129383288,Y,d,go,d,1,,0.2321682188030536,,,,,,,,,,,,,,,,,81,001,22,w,"Bildungswissenschaften, Psychologie ",2023-01-30_13h52.07.004,00_bat_bachelor,2022.2.4,60.13341652405371,
,,,,,,,,,,,,1,0,1,0,31,0,31,0,,,,,,,31,,,0.2,10907.952847332257,Y,None,nogo,l,0,,0.17806037256559648,,,,,,,,,,,,,,,,,81,001,22,w,"Bildungswissenschaften, Psychologie ",2023-01-30_13h52.07.004,00_bat_bachelor,2022.2.4,60.13341652405371,
,,,,,,,,,,,,1,0,1,0,32,0,32,0,,,,,,,32,,,0.2,10908.436698421134,X,l,go,l,1,,0.6219762762430037,,,,,,,,,,,,,,,,,81,001,22,w,"Bildungswissenschaften, Psychologie ",2023-01-30_13h52.07.004,00_bat_bachelor,2022.2.4,60.13341652405371,
,,,,,,,,,,,,1,0,1,0,33,0,33,0,,,,,,,33,,,0.2,10909.370993923854,Y,d,go,d,1,,0.3758061092757998,,,,,,,,,,,,,,,,,81,001,22,w,"Bildungswissenschaften, Psychologie ",2023-01-30_13h52.07.004,00_bat_bachelor,2022.2.4,60.13341652405371,
,,,,,,,,,,,,1,0,1,0,34,0,34,0,,,,,,,34,,,0.2,10910.054813303519,X,l,go,l,1,,0.41272067670252,,,,,,,,,,,,,,,,,81,001,22,w,"Bildungswissenschaften, Psychologie ",2023-01-30_13h52.07.004,00_bat_bachelor,2022.2.4,60.13341652405371,
,,,,,,,,,,,,1,0,1,0,35,0,35,0,,,,,,,35,,,0.2,10910.772023843001,Y,d,go,d,1,,0.30259127983845246,,,,,,,,,,,,,,,,,81,001,22,w,"Bildungswissenschaften, Psychologie ",2023-01-30_13h52.07.004,00_bat_bachelor,2022.2.4,60.13341652405371,
,,,,,,,,,,,,1,0,1,0,36,0,36,0,,,,,,,36,,,0.2,10911.38912102447,X,l,go,l,1,,0.2942823991234036,,,,,,,,,,,,,,,,,81,001,22,w,"Bildungswissenschaften, Psychologie ",2023-01-30_13h52.07.004,00_bat_bachelor,2022.2.4,60.13341652405371,
,,,,,,,,,,,,1,0,1,0,37,0,37,0,,,,,,,37,,,0.2,10911.989617899122,Y,d,go,d,1,,0.39674825111251266,,,,,,,,,,,,,,,,,81,001,22,w,"Bildungswissenschaften, Psychologie ",2023-01-30_13h52.07.004,00_bat_bachelor,2022.2.4,60.13341652405371,
,,,,,,,,,,,,1,0,1,0,38,0,38,0,,,,,,,38,,,0.2,10912.689831524196,Y,None,nogo,l,0,,0.36813383709340997,,,,,,,,,,,,,,,,,81,001,22,w,"Bildungswissenschaften, Psychologie ",2023-01-30_13h52.07.004,00_bat_bachelor,2022.2.4,60.13341652405371,
,,,,,,,,,,,,1,0,1,0,39,0,39,0,,,,,,,39,,,0.2,10913.374053329662,X,l,go,None,0,,,,,,,,,,,,,,,,,,,81,001,22,w,"Bildungswissenschaften, Psychologie ",2023-01-30_13h52.07.004,00_bat_bachelor,2022.2.4,60.13341652405371,
,,,,,,,,,,,,1,0,1,0,40,0,40,0,,,,,,,40,,,0.2,10914.375447274462,Y,d,go,d,1,,0.5078618942188768,,,,,,,,,,,,,,,,,81,001,22,w,"Bildungswissenschaften, Psychologie ",2023-01-30_13h52.07.004,00_bat_bachelor,2022.2.4,60.13341652405371,
,,,,,,,,,,,,1,0,1,0,41,0,41,0,,,,,,,41,,,0.2,10915.209162023417,X,l,go,l,1,,0.44118478710697673,,,,,,,,,,,,,,,,,81,001,22,w,"Bildungswissenschaften, Psychologie ",2023-01-30_13h52.07.004,00_bat_bachelor,2022.2.4,60.13341652405371,
,,,,,,,,,,,,1,0,1,0,42,0,42,0,,,,,,,42,,,0.2,10915.993226155544,X,None,nogo,None,1,10916.794060776963,,,,,,,,,,,,,,,,,,81,001,22,w,"Bildungswissenschaften, Psychologie ",2023-01-30_13h52.07.004,00_bat_bachelor,2022.2.4,60.13341652405371,
,,,,,,,,,,,,1,0,1,0,43,0,43,0,,,,,,,43,,,0.2,10916.993989794868,Y,d,go,d,1,,0.32036880333726003,,,,,,,,,,,,,,,,,81,001,22,w,"Bildungswissenschaften, Psychologie ",2023-01-30_13h52.07.004,00_bat_bachelor,2022.2.4,60.13341652405371,
,,,,,,,,,,,,1,0,1,0,44,0,44,0,,,,,,,44,,,0.2,10917.644393772192,X,l,go,l,1,,0.3890284635945136,,,,,,,,,,,,,,,,,81,001,22,w,"Bildungswissenschaften, Psychologie ",2023-01-30_13h52.07.004,00_bat_bachelor,2022.2.4,60.13341652405371,
,,,,,,,,,,,,1,0,1,0,45,0,45,0,,,,,,,45,,,0.2,10918.378497468111,Y,d,go,d,1,,0.31136561690254894,,,,,,,,,,,,,,,,,81,001,22,w,"Bildungswissenschaften, Psychologie ",2023-01-30_13h52.07.004,00_bat_bachelor,2022.2.4,60.13341652405371,
,,,,,,,,,,,,1,0,1,0,46,0,46,0,,,,,,,46,,,0.2,10919.029139991817,X,l,go,l,1,,0.380919341232584,,,,,,,,,,,,,,,,,81,001,22,w,"Bildungswissenschaften, Psychologie ",2023-01-30_13h52.07.004,00_bat_bachelor,2022.2.4,60.13341652405371,
,,,,,,,,,,,,1,0,1,0,47,0,47,0,,,,,,,47,,,0.2,10919.745979135918,Y,d,go,d,1,,0.2719220699673315,,,,,,,,,,,,,,,,,81,001,22,w,"Bildungswissenschaften, Psychologie ",2023-01-30_13h52.07.004,00_bat_bachelor,2022.2.4,60.13341652405371,
,,,,,,,,,,,,1,0,1,0,48,0,48,0,,,,,,,48,,,0.2,10920.34649782884,Y,None,nogo,l,0,,0.3273666486620641,,,,,,,,,,,,,,,,,81,001,22,w,"Bildungswissenschaften, Psychologie ",2023-01-30_13h52.07.004,00_bat_bachelor,2022.2.4,60.13341652405371,
,,,,,,,,,,,,1,0,1,0,49,0,49,0,,,,,,,49,,,0.2,10921.013832296077,X,l,go,None,0,10921.814652856836,,,,,,,,,,,,,,,,,,81,001,22,w,"Bildungswissenschaften, Psychologie ",2023-01-30_13h52.07.004,00_bat_bachelor,2022.2.4,60.13341652405371,
,,,,,,,,,,,,1,0,1,0,50,0,50,0,,,,,,,50,,,0.2,10922.0143956922,Y,d,go,None,0,10922.815435405326,,,,,,,,,,,,,,,,,,81,001,22,w,"Bildungswissenschaften, Psychologie ",2023-01-30_13h52.07.004,00_bat_bachelor,2022.2.4,60.13341652405371,
,,,,,,,,,,,,1,0,1,0,51,0,51,0,,,,,,,51,,,0.2,10923.015462847856,Y,None,nogo,None,1,10923.815961467972,,,,,,,,,,,,,,,,,,81,001,22,w,"Bildungswissenschaften, Psychologie ",2023-01-30_13h52.07.004,00_bat_bachelor,2022.2.4,60.13341652405371,
,,,,,,,,,,,,1,0,1,0,52,0,52,0,,,,,,,52,,,0.2,10924.01614551717,X,l,go,l,1,,0.5149940430983406,,,,,,,,,,,,,,,,,81,001,22,w,"Bildungswissenschaften, Psychologie ",2023-01-30_13h52.07.004,00_bat_bachelor,2022.2.4,60.13341652405371,
,,,,,,,,,,,,1,0,1,0,53,0,53,0,,,,,,,53,,,0.2,10924.84988111469,Y,d,go,d,1,,0.22483631157410855,,,,,,,,,,,,,,,,,81,001,22,w,"Bildungswissenschaften, Psychologie ",2023-01-30_13h52.07.004,00_bat_bachelor,2022.2.4,60.13341652405371,
,,,,,,,,,,,,1,0,1,0,54,0,54,0,,,,,,,54,,,0.2,10925.417144890744,Y,None,nogo,None,1,10926.21808084589,,,,,,,,,,,,,,,,,,81,001,22,w,"Bildungswissenschaften, Psychologie ",2023-01-30_13h52.07.004,00_bat_bachelor,2022.2.4,60.13341652405371,
,,,,,,,,,,,,1,0,1,0,55,0,55,0,,,,,,,55,,,0.2,10926.418063197336,Y,None,nogo,None,1,10927.218781454667,,,,,,,,,,,,,,,,,,81,001,22,w,"Bildungswissenschaften, Psychologie ",2023-01-30_13h52.07.004,00_bat_bachelor,2022.2.4,60.13341652405371,
,,,,,,,,,,,,1,0,1,0,56,0,56,0,,,,,,,56,,,0.2,10927.41885350343,X,l,go,l,1,,0.2791157948431646,,,,,,,,,,,,,,,,,81,001,22,w,"Bildungswissenschaften, Psychologie ",2023-01-30_13h52.07.004,00_bat_bachelor,2022.2.4,60.13341652405371,
,,,,,,,,,,,,1,0,1,0,57,0,57,0,,,,,,,57,,,0.2,10928.035909957467,Y,d,go,None,0,10928.83657342671,,,,,,,,,,,,,,,,,,81,001,22,w,"Bildungswissenschaften, Psychologie ",2023-01-30_13h52.07.004,00_bat_bachelor,2022.2.4,60.13341652405371,
,,,,,,,,,,,,1,0,1,0,58,0,58,0,,,,,,,58,,,0.2,10929.03666923314,X,l,go,l,1,,0.5336666003731807,,,,,,,,,,,,,,,,,81,001,22,w,"Bildungswissenschaften, Psychologie ",2023-01-30_13h52.07.004,00_bat_bachelor,2022.2.4,60.13341652405371,
,,,,,,,,,,,,1,0,1,0,59,0,59,0,,,,,,,59,,,0.2,10929.887106956052,Y,d,go,d,1,,0.3078291183355759,,,,,,,,,,,,,,,,,81,001,22,w,"Bildungswissenschaften, Psychologie ",2023-01-30_13h52.07.004,00_bat_bachelor,2022.2.4,60.13341652405371,
,,,,,,,,,,,,1,0,1,0,60,0,60,0,,,,,,,60,,,0.2,10930.537862449892,Y,None,nogo,None,1,10931.338567616262,,,,,,,,,,,,,,,,,,81,001,22,w,"Bildungswissenschaften, Psychologie ",2023-01-30_13h52.07.004,00_bat_bachelor,2022.2.4,60.13341652405371,
,,,,,,,,,,,,1,0,1,0,61,0,61,0,,,,,,,61,,,0.2,10931.538353603311,X,l,go,l,1,,0.3834294115713419,,,,,,,,,,,,,,,,,81,001,22,w,"Bildungswissenschaften, Psychologie ",2023-01-30_13h52.07.004,00_bat_bachelor,2022.2.4,60.13341652405371,
,,,,,,,,,,,,1,0,1,0,62,0,62,0,,,,,,,62,,,0.2,10932.255583536808,Y,d,go,d,1,,0.33797953831344785,,,,,,,,,,,,,,,,,81,001,22,w,"Bildungswissenschaften, Psychologie ",2023-01-30_13h52.07.004,00_bat_bachelor,2022.2.4,60.13341652405371,
,,,,,,,,,,,,1,0,1,0,63,0,63,0,,,,,,,63,,,0.2,10932.939547401882,X,l,go,l,1,,0.2945301576601196,,,,,,,,,,,,,,,,,81,001,22,w,"Bildungswissenschaften, Psychologie ",2023-01-30_13h52.07.004,00_bat_bachelor,2022.2.4,60.13341652405371,
,,,,,,,,,,,,1,0,1,0,64,0,64,0,,,,,,,64,,,0.2,10933.573539679182,X,None,nogo,l,0,,0.4445496486459888,,,,,,,,,,,,,,,,,81,001,22,w,"Bildungswissenschaften, Psychologie ",2023-01-30_13h52.07.004,00_bat_bachelor,2022.2.4,60.13341652405371,
,,,,,,,,,,,,1,0,1,0,65,0,65,0,,,,,,,65,,,0.2,10934.357463204706,X,None,nogo,None,1,10935.157922551942,,,,,,,,,,,,,,,,,,81,001,22,w,"Bildungswissenschaften, Psychologie ",2023-01-30_13h52.07.004,00_bat_bachelor,2022.2.4,60.13341652405371,
,,,,,,,,,,,,1,0,1,0,66,0,66,0,,,,,,,66,,,0.2,10935.358178358994,Y,d,go,d,1,,0.2603923282786127,,,,,,,,,,,,,,,,,81,001,22,w,"Bildungswissenschaften, Psychologie ",2023-01-30_13h52.07.004,00_bat_bachelor,2022.2.4,60.13341652405371,
,,,,,,,,,,,,1,0,1,0,67,0,67,0,,,,,,,67,,,0.2,10935.958413414453,X,l,go,l,1,,0.44369728170386225,,,,,,,,,,,,,,,,,81,001,22,w,"Bildungswissenschaften, Psychologie ",2023-01-30_13h52.07.004,00_bat_bachelor,2022.2.4,60.13341652405371,
,,,,,,,,,,,,1,0,1,0,68,0,68,0,,,,,,,68,,,0.2,10936.725906815638,X,None,nogo,None,1,10937.526335617302,,,,,,,,,,,,,,,,,,81,001,22,w,"Bildungswissenschaften, Psychologie ",2023-01-30_13h52.07.004,00_bat_bachelor,2022.2.4,60.13341652405371,
,,,,,,,,,,,,1,0,1,0,69,0,69,0,,,,,,,69,,,0.2,10937.7264493632,Y,d,go,d,1,,0.33947578654442623,,,,,,,,,,,,,,,,,81,001,22,w,"Bildungswissenschaften, Psychologie ",2023-01-30_13h52.07.004,00_bat_bachelor,2022.2.4,60.13341652405371,
,,,,,,,,,,,,1,0,1,0,70,0,70,0,,,,,,,70,,,0.2,10938.393410495653,X,l,go,l,1,,0.4737255193886085,,,,,,,,,,,,,,,,,81,001,22,w,"Bildungswissenschaften, Psychologie ",2023-01-30_13h52.07.004,00_bat_bachelor,2022.2.4,60.13341652405371,
,,,,,,,,,,,,1,0,1,0,71,0,71,0,,,,,,,71,,,0.2,10939.177166747799,Y,d,go,d,1,,0.33057635808472696,,,,,,,,,,,,,,,,,81,001,22,w,"Bildungswissenschaften, Psychologie ",2023-01-30_13h52.07.004,00_bat_bachelor,2022.2.4,60.13341652405371,
,,,,,,,,,,,,1,0,1,0,72,0,72,0,,,,,,,72,,,0.2,10939.811096964255,Y,None,nogo,None,1,,,,,,,,,,,,,,,,,,,81,001,22,w,"Bildungswissenschaften, Psychologie ",2023-01-30_13h52.07.004,00_bat_bachelor,2022.2.4,60.13341652405371,
,,,,,,,,,,,,1,0,1,0,73,0,73,0,,,,,,,73,,,0.2,10940.81173842129,X,l,go,l,1,,0.3761959289713559,,,,,,,,,,,,,,,,,81,001,22,w,"Bildungswissenschaften, Psychologie ",2023-01-30_13h52.07.004,00_bat_bachelor,2022.2.4,60.13341652405371,
,,,,,,,,,,,,1,0,1,0,74,0,74,0,,,,,,,74,,,0.2,10941.495582528321,Y,d,go,d,1,,0.6516854823839822,,,,,,,,,,,,,,,,,81,001,22,w,"Bildungswissenschaften, Psychologie ",2023-01-30_13h52.07.004,00_bat_bachelor,2022.2.4,60.13341652405371,
,,,,,,,,,,,,1,0,1,0,75,0,75,0,,,,,,,75,,,0.2,10942.462704825037,Y,None,nogo,d,0,,0.38793415631698736,,,,,,,,,,,,,,,,,81,001,22,w,"Bildungswissenschaften, Psychologie ",2023-01-30_13h52.07.004,00_bat_bachelor,2022.2.4,60.13341652405371,
,,,,,,,,,,,,1,0,1,0,76,0,76,0,,,,,,,76,,,0.2,10943.163374209453,Y,None,nogo,None,1,,,,,,,,,,,,,,,,,,,81,001,22,w,"Bildungswissenschaften, Psychologie ",2023-01-30_13h52.07.004,00_bat_bachelor,2022.2.4,60.13341652405371,
,,,,,,,,,,,,1,0,1,0,77,0,77,0,,,,,,,77,,,0.2,10944.16418051561,X,l,go,l,1,,0.286077761242268,,,,,,,,,,,,,,,,,81,001,22,w,"Bildungswissenschaften, Psychologie ",2023-01-30_13h52.07.004,00_bat_bachelor,2022.2.4,60.13341652405371,
,,,,,,,,,,,,1,0,1,0,78,0,78,0,,,,,,,78,,,0.2,10944.764422843822,Y,d,go,d,1,,0.5989696415472281,,,,,,,,,,,,,,,,,81,001,22,w,"Bildungswissenschaften, Psychologie ",2023-01-30_13h52.07.004,00_bat_bachelor,2022.2.4,60.13341652405371,
,,,,,,,,,,,,1,0,1,0,79,0,79,0,,,,,,,79,,,0.2,10945.665365974754,X,l,go,l,1,,0.5146274962189636,,,,,,,,,,,,,,,,,81,001,22,w,"Bildungswissenschaften, Psychologie ",2023-01-30_13h52.07.004,00_bat_bachelor,2022.2.4,60.13341652405371,
,,,,,,,,,,,,1,0,1,0,80,0,80,0,,,,,,,80,,,0.2,10946.48264720542,Y,d,go,d,1,,0.3522801998460636,,,,,,,,,,,,,,,,,81,001,22,w,"Bildungswissenschaften, Psychologie ",2023-01-30_13h52.07.004,00_bat_bachelor,2022.2.4,60.13341652405371,
,,,,,,,,,,,,1,0,1,0,81,0,81,0,,,,,,,81,,,0.2,10947.15002385464,X,l,go,l,1,,0.4848790171981818,,,,,,,,,,,,,,,,,81,001,22,w,"Bildungswissenschaften, Psychologie ",2023-01-30_13h52.07.004,00_bat_bachelor,2022.2.4,60.13341652405371,
,,,,,,,,,,,,1,0,1,0,82,0,82,0,,,,,,,82,,,0.2,10947.950441504741,X,None,nogo,None,1,,,,,,,,,,,,,,,,,,,81,001,22,w,"Bildungswissenschaften, Psychologie ",2023-01-30_13h52.07.004,00_bat_bachelor,2022.2.4,60.13341652405371,
,,,,,,,,,,,,1,0,1,0,83,0,83,0,,,,,,,83,,,0.2,10948.95119399251,Y,d,go,d,1,,0.39559236784225504,,,,,,,,,,,,,,,,,81,001,22,w,"Bildungswissenschaften, Psychologie ",2023-01-30_13h52.07.004,00_bat_bachelor,2022.2.4,60.13341652405371,
,,,,,,,,,,,,1,0,1,0,84,0,84,0,,,,,,,84,,,0.2,10949.651487617892,X,l,go,l,1,,0.46417978539284377,,,,,,,,,,,,,,,,,81,001,22,w,"Bildungswissenschaften, Psychologie ",2023-01-30_13h52.07.004,00_bat_bachelor,2022.2.4,60.13341652405371,
,,,,,,,,,,,,1,0,1,0,85,0,85,0,,,,,,,85,,,0.2,10950.418722108981,Y,d,go,d,1,,0.5118299096120609,,,,,,,,,,,,,,,,,81,001,22,w,"Bildungswissenschaften, Psychologie ",2023-01-30_13h52.07.004,00_bat_bachelor,2022.2.4,60.13341652405371,
,,,,,,,,,,,,1,0,1,0,86,0,86,0,,,,,,,86,,,0.2,10951.236332068198,X,l,go,l,1,,0.47867632646921265,,,,,,,,,,,,,,,,,81,001,22,w,"Bildungswissenschaften, Psychologie ",2023-01-30_13h52.07.004,00_bat_bachelor,2022.2.4,60.13341652405371,
,,,,,,,,,,,,1,0,1,0,87,0,87,0,,,,,,,87,,,0.2,10952.020306018156,X,None,nogo,None,1,,,,,,,,,,,,,,,,,,,81,001,22,w,"Bildungswissenschaften, Psychologie ",2023-01-30_13h52.07.004,00_bat_bachelor,2022.2.4,60.13341652405371,
,,,,,,,,,,,,1,0,1,0,88,0,88,0,,,,,,,88,,,0.2,10953.02104008161,Y,d,go,d,1,,0.37491834825596015,,,,,,,,,,,,,,,,,81,001,22,w,"Bildungswissenschaften, Psychologie ",2023-01-30_13h52.07.004,00_bat_bachelor,2022.2.4,60.13341652405371,
,,,,,,,,,,,,1,0,1,0,89,0,89,0,,,,,,,89,,,0.2,10953.704951097992,X,l,go,l,1,,0.4420924269961688,,,,,,,,,,,,,,,,,81,001,22,w,"Bildungswissenschaften, Psychologie ",2023-01-30_13h52.07.004,00_bat_bachelor,2022.2.4,60.13341652405371,
,,,,,,,,,,,,1,0,1,0,90,0,90,0,,,,,,,90,,,0.2,10954.455419463444,X,None,nogo,None,1,,,,,,,,,,,,,,,,,,,81,001,22,w,"Bildungswissenschaften, Psychologie ",2023-01-30_13h52.07.004,00_bat_bachelor,2022.2.4,60.13341652405371,
,,,,,,,,,,,,1,0,1,0,91,0,91,0,,,,,,,91,,,0.2,10955.456311103266,X,None,nogo,None,1,10956.257120997318,,,,,,,,,,,,,,,,,,81,001,22,w,"Bildungswissenschaften, Psychologie ",2023-01-30_13h52.07.004,00_bat_bachelor,2022.2.4,60.13341652405371,
,,,,,,,,,,,,1,0,1,0,92,0,92,0,,,,,,,92,,,0.2,10956.45715231865,Y,d,go,d,1,,0.26508713436669495,,,,,,,,,,,,,,,,,81,001,22,w,"Bildungswissenschaften, Psychologie ",2023-01-30_13h52.07.004,00_bat_bachelor,2022.2.4,60.13341652405371,
,,,,,,,,,,,,1,0,1,0,93,0,93,0,,,,,,,93,,,0.2,10957.024621671259,X,l,go,l,1,,0.3861615433834231,,,,,,,,,,,,,,,,,81,001,22,w,"Bildungswissenschaften, Psychologie ",2023-01-30_13h52.07.004,00_bat_bachelor,2022.2.4,60.13341652405371,
,,,,,,,,,,,,1,0,1,0,94,0,94,0,,,,,,,94,,,0.2,10957.741465663868,Y,d,go,d,1,,0.373201493113811,,,,,,,,,,,,,,,,,81,001,22,w,"Bildungswissenschaften, Psychologie ",2023-01-30_13h52.07.004,00_bat_bachelor,2022.2.4,60.13341652405371,
,,,,,,,,,,,,1,0,1,0,95,0,95,0,,,,,,,95,,,0.2,10958.425493529186,X,l,go,l,1,,0.47395242935999704,,,,,,,,,,,,,,,,,81,001,22,w,"Bildungswissenschaften, Psychologie ",2023-01-30_13h52.07.004,00_bat_bachelor,2022.2.4,60.13341652405371,
,,,,,,,,,,,,1,0,1,0,96,0,96,0,,,,,,,96,,,0.2,10959.2092725693,Y,d,go,d,1,,0.4098750899083825,,,,,,,,,,,,,,,,,81,001,22,w,"Bildungswissenschaften, Psychologie ",2023-01-30_13h52.07.004,00_bat_bachelor,2022.2.4,60.13341652405371,
,,,,,,,,,,,,1,0,1,0,97,0,97,0,,,,,,,97,,,0.2,10959.92645159351,X,l,go,l,1,,0.4135963164644636,,,,,,,,,,,,,,,,,81,001,22,w,"Bildungswissenschaften, Psychologie ",2023-01-30_13h52.07.004,00_bat_bachelor,2022.2.4,60.13341652405371,
,,,,,,,,,,,,1,0,1,0,98,0,98,0,,,,,,,98,,,0.2,10960.643247101081,Y,d,go,d,1,,0.33580013592109026,,,,,,,,,,,,,,,,,81,001,22,w,"Bildungswissenschaften, Psychologie ",2023-01-30_13h52.07.004,00_bat_bachelor,2022.2.4,60.13341652405371,
,,,,,,,,,,,,1,0,1,0,99,0,99,0,,,,,,,99,,,0.2,10961.293730593865,X,l,go,l,1,,0.34100403489173914,,,,,,,,,,,,,,,,,81,001,22,w,"Bildungswissenschaften, Psychologie ",2023-01-30_13h52.07.004,00_bat_bachelor,2022.2.4,60.13341652405371,
,,,,,,,,,,,,1,0,1,0,100,0,100,0,,,,,,,100,,,0.2,10961.944367784214,Y,d,go,d,1,,0.26593853160920844,,,,,,,,,,,,,,,,,81,001,22,w,"Bildungswissenschaften, Psychologie ",2023-01-30_13h52.07.004,00_bat_bachelor,2022.2.4,60.13341652405371,
,,,,,,,,,,,,1,0,1,0,101,0,101,0,,,,,,,101,,,0.2,10962.511678590752,X,l,go,l,1,,0.2922426336353965,,,,,,,,,,,,,,,,,81,001,22,w,"Bildungswissenschaften, Psychologie ",2023-01-30_13h52.07.004,00_bat_bachelor,2022.2.4,60.13341652405371,
,,,,,,,,,,,,1,0,1,0,102,0,102,0,,,,,,,102,,,0.2,10963.111928676572,Y,d,go,d,1,,0.2830028402222524,,,,,,,,,,,,,,,,,81,001,22,w,"Bildungswissenschaften, Psychologie ",2023-01-30_13h52.07.004,00_bat_bachelor,2022.2.4,60.13341652405371,
,,,,,,,,,,,,1,0,1,0,103,0,103,0,,,,,,,103,,,0.2,10963.695588152583,Y,None,nogo,None,1,10964.49620847014,,,,,,,,,,,,,,,,,,81,001,22,w,"Bildungswissenschaften, Psychologie ",2023-01-30_13h52.07.004,00_bat_bachelor,2022.2.4,60.13341652405371,
,,,,,,,,,,,,1,0,1,0,104,0,104,0,,,,,,,104,,,0.2,10964.696667914348,X,l,go,l,1,,0.28189301773636544,,,,,,,,,,,,,,,,,81,001,22,w,"Bildungswissenschaften, Psychologie ",2023-01-30_13h52.07.004,00_bat_bachelor,2022.2.4,60.13341652405371,
,,,,,,,,,,,,1,0,1,0,105,0,105,0,,,,,,,105,,,0.2,10965.280369572341,Y,d,go,d,1,,0.4822889465449407,,,,,,,,,,,,,,,,,81,001,22,w,"Bildungswissenschaften, Psychologie ",2023-01-30_13h52.07.004,00_bat_bachelor,2022.2.4,60.13341652405371,
,,,,,,,,,,,,1,0,1,0,106,0,106,0,,,,,,,106,,,0.2,10966.064225703663,X,l,go,l,1,,0.40185566486434254,,,,,,,,,,,,,,,,,81,001,22,w,"Bildungswissenschaften, Psychologie ",2023-01-30_13h52.07.004,00_bat_bachelor,2022.2.4,60.13341652405371,
,,,,,,,,,,,,1,0,1,0,107,0,107,0,,,,,,,107,,,0.2,10966.781537092022,Y,d,go,d,1,,0.31025094591132074,,,,,,,,,,,,,,,,,81,001,22,w,"Bildungswissenschaften, Psychologie ",2023-01-30_13h52.07.004,00_bat_bachelor,2022.2.4,60.13341652405371,
,,,,,,,,,,,,1,0,1,0,108,0,108,0,,,,,,,108,,,0.2,10967.398754031532,Y,None,nogo,None,1,,,,,,,,,,,,,,,,,,,81,001,22,w,"Bildungswissenschaften, Psychologie ",2023-01-30_13h52.07.004,00_bat_bachelor,2022.2.4,60.13341652405371,
,,,,,,,,,,,,1,0,1,0,109,0,109,0,,,,,,,109,,,0.2,10968.399527852715,X,l,go,l,1,,0.32413366642322217,,,,,,,,,,,,,,,,,81,001,22,w,"Bildungswissenschaften, Psychologie ",2023-01-30_13h52.07.004,00_bat_bachelor,2022.2.4,60.13341652405371,
,,,,,,,,,,,,1,0,1,0,110,0,110,0,,,,,,,110,,,0.2,10969.033363523351,Y,d,go,d,1,,0.3625163607594004,,,,,,,,,,,,,,,,,81,001,22,w,"Bildungswissenschaften, Psychologie ",2023-01-30_13h52.07.004,00_bat_bachelor,2022.2.4,60.13341652405371,
,,,,,,,,,,,,1,0,1,0,111,0,111,0,,,,,,,111,,,0.2,10969.70017095824,X,l,go,l,1,,0.3987021980847203,,,,,,,,,,,,,,,,,81,001,22,w,"Bildungswissenschaften, Psychologie ",2023-01-30_13h52.07.004,00_bat_bachelor,2022.2.4,60.13341652405371,
,,,,,,,,,,,,1,0,1,0,112,0,112,0,,,,,,,112,,,0.2,10970.400739493776,X,None,nogo,d,0,,0.48223221905391256,,,,,,,,,,,,,,,,,81,001,22,w,"Bildungswissenschaften, Psychologie ",2023-01-30_13h52.07.004,00_bat_bachelor,2022.2.4,60.13341652405371,
,,,,,,,,,,,,1,0,1,0,113,0,113,0,,,,,,,113,,,0.2,10971.184988353893,Y,d,go,d,1,,0.5951582328216318,,,,,,,,,,,,,,,,,81,001,22,w,"Bildungswissenschaften, Psychologie ",2023-01-30_13h52.07.004,00_bat_bachelor,2022.2.4,60.13341652405371,
,,,,,,,,,,,,1,0,1,0,114,0,114,0,,,,,,,114,,,0.2,10972.085612938135,X,l,go,l,1,,0.3976117696165602,,,,,,,,,,,,,,,,,81,001,22,w,"Bildungswissenschaften, Psychologie ",2023-01-30_13h52.07.004,00_bat_bachelor,2022.2.4,60.13341652405371,
,,,,,,,,,,,,1,0,1,0,115,0,115,0,,,,,,,115,,,0.2,10972.785995775983,Y,d,go,d,1,,0.6244320433379471,,,,,,,,,,,,,,,,,81,001,22,w,"Bildungswissenschaften, Psychologie ",2023-01-30_13h52.07.004,00_bat_bachelor,2022.2.4,60.13341652405371,
,,,,,,,,,,,,1,0,1,0,116,0,116,0,,,,,,,116,,,0.2,10973.720295642357,X,l,go,l,1,,0.5713147463993664,,,,,,,,,,,,,,,,,81,001,22,w,"Bildungswissenschaften, Psychologie ",2023-01-30_13h52.07.004,00_bat_bachelor,2022.2.4,60.13341652405371,
,,,,,,,,,,,,1,0,1,0,117,0,117,0,,,,,,,117,,,0.2,10974.604032888368,Y,d,go,d,1,,0.48692120693704055,,,,,,,,,,,,,,,,,81,001,22,w,"Bildungswissenschaften, Psychologie ",2023-01-30_13h52.07.004,00_bat_bachelor,2022.2.4,60.13341652405371,
,,,,,,,,,,,,1,0,1,0,118,0,118,0,,,,,,,118,,,0.2,10975.404591629933,X,l,go,l,1,,0.3746550745108834,,,,,,,,,,,,,,,,,81,001,22,w,"Bildungswissenschaften, Psychologie ",2023-01-30_13h52.07.004,00_bat_bachelor,2022.2.4,60.13341652405371,
,,,,,,,,,,,,1,0,1,0,119,0,119,0,,,,,,,119,,,0.2,10976.088750404851,X,None,nogo,d,0,,0.3617997519195342,,,,,,,,,,,,,,,,,81,001,22,w,"Bildungswissenschaften, Psychologie ",2023-01-30_13h52.07.004,00_bat_bachelor,2022.2.4,60.13341652405371,
,,,,,,,,,,,,1,0,1,0,120,0,120,0,,,,,,,120,,,0.2,10976.756068872026,Y,d,go,d,1,,0.4963888800248242,,,,,,,,,,,,,,,,,81,001,22,w,"Bildungswissenschaften, Psychologie ",2023-01-30_13h52.07.004,00_bat_bachelor,2022.2.4,60.13341652405371,
,,,,,,,,,,,,1,0,1,0,121,0,121,0,,,,,,,121,,,0.2,10977.556608219573,X,l,go,l,1,,0.4144389863995457,,,,,,,,,,,,,,,,,81,001,22,w,"Bildungswissenschaften, Psychologie ",2023-01-30_13h52.07.004,00_bat_bachelor,2022.2.4,60.13341652405371,
,,,,,,,,,,,,1,0,1,0,122,0,122,0,,,,,,,122,,,0.2,10978.273711607122,Y,d,go,d,1,,0.4173005732536694,,,,,,,,,,,,,,,,,81,001,22,w,"Bildungswissenschaften, Psychologie ",2023-01-30_13h52.07.004,00_bat_bachelor,2022.2.4,60.13341652405371,
,,,,,,,,,,,,1,0,1,0,123,0,123,0,,,,,,,123,,,0.2,10978.990714145799,X,l,go,None,0,,,,,,,,,,,,,,,,,,,81,001,22,w,"Bildungswissenschaften, Psychologie ",2023-01-30_13h52.07.004,00_bat_bachelor,2022.2.4,60.13341652405371,
,,,,,,,,,,,,1,0,1,0,124,0,124,0,,,,,,,124,,,0.2,10979.991525300462,Y,d,go,None,0,,,,,,,,,,,,,,,,,,,81,001,22,w,"Bildungswissenschaften, Psychologie ",2023-01-30_13h52.07.004,00_bat_bachelor,2022.2.4,60.13341652405371,
,,,,,,,,,,,,1,0,1,0,125,0,125,0,,,,,,,125,,,0.2,10980.992568213598,X,l,go,l,1,,0.466243793400281,,,,,,,,,,,,,,,,,81,001,22,w,"Bildungswissenschaften, Psychologie ",2023-01-30_13h52.07.004,00_bat_bachelor,2022.2.4,60.13341652405371,
,,,,,,,,,,,,1,0,1,0,126,0,126,0,,,,,,,126,,,0.2,10981.759847310921,X,None,nogo,l,0,,0.5476302908991784,,,,,,,,,,,,,,,,,81,001,22,w,"Bildungswissenschaften, Psychologie ",2023-01-30_13h52.07.004,00_bat_bachelor,2022.2.4,60.13341652405371,
,,,,,,,,,,,,1,0,1,0,127,0,127,0,,,,,,,127,,,0.2,10982.610077517875,Y,d,go,d,1,,0.4653225777019543,,,,,,,,,,,,,,,,,81,001,22,w,"Bildungswissenschaften, Psychologie ",2023-01-30_13h52.07.004,00_bat_bachelor,2022.2.4,60.13341652405371,
,,,,,,,,,,,,1,0,1,0,128,0,128,0,,,,,,,128,,,0.2,10983.377668858837,X,l,go,l,1,,0.41663244944902544,,,,,,,,,,,,,,,,,81,001,22,w,"Bildungswissenschaften, Psychologie ",2023-01-30_13h52.07.004,00_bat_bachelor,2022.2.4,60.13341652405371,
,,,,,,,,,,,,1,0,1,0,129,0,129,0,,,,,,,129,,,0.2,10984.094909943891,Y,d,go,d,1,,0.40357639880858187,,,,,,,,,,,,,,,,,81,001,22,w,"Bildungswissenschaften, Psychologie ",2023-01-30_13h52.07.004,00_bat_bachelor,2022.2.4,60.13341652405371,
,,,,,,,,,,,,1,0,1,0,130,0,130,0,,,,,,,130,,,0.2,10984.812132604635,X,l,go,l,1,,0.3121733776115434,,,,,,,,,,,,,,,,,81,001,22,w,"Bildungswissenschaften, Psychologie ",2023-01-30_13h52.07.004,00_bat_bachelor,2022.2.4,60.13341652405371,
,,,,,,,,,,,,1,0,1,0,131,0,131,0,,,,,,,131,,,0.2,10985.428891360549,X,None,nogo,None,1,,,,,,,,,,,,,,,,,,,81,001,22,w,"Bildungswissenschaften, Psychologie ",2023-01-30_13h52.07.004,00_bat_bachelor,2022.2.4,60.13341652405371,
,,,,,,,,,,,,1,0,1,0,132,0,132,0,,,,,,,132,,,0.2,10986.42966275748,Y,d,go,d,1,,0.38971937536734913,,,,,,,,,,,,,,,,,81,001,22,w,"Bildungswissenschaften, Psychologie ",2023-01-30_13h52.07.004,00_bat_bachelor,2022.2.4,60.13341652405371,
,,,,,,,,,,,,1,0,1,0,133,0,133,0,,,,,,,133,,,0.2,10987.130662809843,X,l,go,l,1,,0.44097484690246347,,,,,,,,,,,,,,,,,81,001,22,w,"Bildungswissenschaften, Psychologie ",2023-01-30_13h52.07.004,00_bat_bachelor,2022.2.4,60.13341652405371,
,,,,,,,,,,,,1,0,1,0,134,0,134,0,,,,,,,134,,,0.2,10987.880808264952,X,None,nogo,l,0,,0.5857923783169099,,,,,,,,,,,,,,,,,81,001,22,w,"Bildungswissenschaften, Psychologie ",2023-01-30_13h52.07.004,00_bat_bachelor,2022.2.4,60.13341652405371,
,,,,,,,,,,,,1,0,1,0,135,0,135,0,,,,,,,135,,,0.2,10988.781516243456,Y,d,go,d,1,,0.501118595338994,,,,,,,,,,,,,,,,,81,001,22,w,"Bildungswissenschaften, Psychologie ",2023-01-30_13h52.07.004,00_bat_bachelor,2022.2.4,60.13341652405371,
,,,,,,,,,,,,1,0,1,0,136,0,136,0,,,,,,,136,,,0.2,10989.59889977755,X,l,go,l,1,,0.48492216888007533,,,,,,,,,,,,,,,,,81,001,22,w,"Bildungswissenschaften, Psychologie ",2023-01-30_13h52.07.004,00_bat_bachelor,2022.2.4,60.13341652405371,
,,,,,,,,,,,,1,0,1,0,137,0,137,0,,,,,,,137,,,0.2,10990.399691732138,Y,d,go,d,1,,0.49921507280487276,,,,,,,,,,,,,,,,,81,001,22,w,"Bildungswissenschaften, Psychologie ",2023-01-30_13h52.07.004,00_bat_bachelor,2022.2.4,60.13341652405371,
,,,,,,,,,,,,1,0,1,0,138,0,138,0,,,,,,,138,,,0.2,10991.199984290848,X,l,go,l,1,,0.6592724209021981,,,,,,,,,,,,,,,,,81,001,22,w,"Bildungswissenschaften, Psychologie ",2023-01-30_13h52.07.004,00_bat_bachelor,2022.2.4,60.13341652405371,
,,,,,,,,,,,,1,0,1,0,139,0,139,0,,,,,,,139,,,0.2,10992.167744650647,Y,d,go,d,1,,0.5389577724108676,,,,,,,,,,,,,,,,,81,001,22,w,"Bildungswissenschaften, Psychologie ",2023-01-30_13h52.07.004,00_bat_bachelor,2022.2.4,60.13341652405371,
,,,,,,,,,,,,1,0,1,0,140,0,140,0,,,,,,,140,,,0.2,10993.018273040576,Y,None,nogo,None,1,,,,,,,,,,,,,,,,,,,81,001,22,w,"Bildungswissenschaften, Psychologie ",2023-01-30_13h52.07.004,00_bat_bachelor,2022.2.4,60.13341652405371,
,,,,,,,,,,,,1,0,1,0,141,0,141,0,,,,,,,141,,,0.2,10994.019178741059,X,l,go,l,1,,0.399784868952338,,,,,,,,,,,,,,,,,81,001,22,w,"Bildungswissenschaften, Psychologie ",2023-01-30_13h52.07.004,00_bat_bachelor,2022.2.4,60.13341652405371,
,,,,,,,,,,,,1,0,1,0,142,0,142,0,,,,,,,142,,,0.2,10994.719454911825,Y,d,go,d,1,,0.4196758551970561,,,,,,,,,,,,,,,,,81,001,22,w,"Bildungswissenschaften, Psychologie ",2023-01-30_13h52.07.004,00_bat_bachelor,2022.2.4,60.13341652405371,
