loop_instruction.thisRepN,loop_instruction.thisTrialN,loop_instruction.thisN,loop_instruction.thisIndex,loop_rsi_practice.thisRepN,loop_rsi_practice.thisTrialN,loop_rsi_practice.thisN,loop_rsi_practice.thisIndex,loop_practice.thisRepN,loop_practice.thisTrialN,loop_practice.thisN,loop_practice.thisIndex,loop_exp.thisRepN,loop_exp.thisTrialN,loop_exp.thisN,loop_exp.thisIndex,loop_trials.thisRepN,loop_trials.thisTrialN,loop_trials.thisN,loop_trials.thisIndex,map_condition,map_x_key,map_y_key,key_resp_welcome.started,key_resp_welcome.keys,key_resp_welcome.rt,index,text_empty_rsi_practice.started,text_empty_rsi_practice.stopped,rsi,stimulus.started,stimulus,correct,trial_type,key_resp_trial.keys,key_resp_trial.corr,key_resp_trial.rt,stimulus.stopped,key_resp_instruction_rsi.started,key_resp_instruction_rsi.keys,key_resp_instruction_rsi.rt,key_resp_instruction_rsi.stopped,key_resp_instruction_final.started,key_resp_instruction_final.keys,key_resp_instruction_final.rt,key_resp_break.started,key_resp_break.keys,key_resp_break.rt,key_resp_break.stopped,key_resp_end_screen.started,image_end_screen.started,key_resp_end_screen.stopped,image_end_screen.stopped,key_resp_end_screen.keys,participant,session,Alter,Geschlecht (w/m/d/andere),Studiengang,date,expName,psychopyVersion,frameRate,
,,,,0,0,0,0,0,0,0,0,,,,,,,,,1,l,d,1521.7128767452668,j,16.587251951918006,0,1538.3350393525325,1539.3495319515932,1,1539.3495319515932,X,l,go,None,0,,,,,,,,,,,,,,,,,,,83,001,23,w,Psychologie,2023-01-30_15h29.45.955,00_bat_bachelor,2022.2.4,59.95171894277215,
,,,,0,0,0,0,1,0,1,0,,,,,,,,,,,,,,,1,1540.7505819390062,1541.7513213325292,1,1541.7513213325292,Y,d,go,None,0,,,,,,,,,,,,,,,,,,,83,001,23,w,Psychologie,2023-01-30_15h29.45.955,00_bat_bachelor,2022.2.4,59.95171894277215,
,,,,0,0,0,0,2,0,2,0,,,,,,,,,,,,,,,2,1543.1523553200532,1544.1531242893543,1,1544.1531242893543,X,l,go,l,1,0.44822801905684173,,,,,,,,,,,,,,,,,,83,001,23,w,Psychologie,2023-01-30_15h29.45.955,00_bat_bachelor,2022.2.4,59.95171894277215,
,,,,0,0,0,0,3,0,3,0,,,,,,,,,,,,,,,3,1545.3038228829391,1546.3048643369693,1,1546.3048643369693,Y,d,go,d,1,0.5847928014118224,,,,,,,,,,,,,,,,,,83,001,23,w,Psychologie,2023-01-30_15h29.45.955,00_bat_bachelor,2022.2.4,59.95171894277215,
,,,,0,0,0,0,4,0,4,0,,,,,,,,,,,,,,,4,1547.6059231001418,1548.6063075847924,1,1548.6063075847924,Y,None,nogo,None,1,,,,,,,,,,,,,,,,,,,83,001,23,w,Psychologie,2023-01-30_15h29.45.955,00_bat_bachelor,2022.2.4,59.95171894277215,
,,,,0,0,0,0,5,0,5,0,,,,,,,,,,,,,,,5,1550.0076664204244,1551.0080722384155,1,1551.0080722384155,X,l,go,l,1,0.4898953929077834,,,,,,,,,,,,,,,,,,83,001,23,w,Psychologie,2023-01-30_15h29.45.955,00_bat_bachelor,2022.2.4,59.95171894277215,
,,,,0,0,0,0,6,0,6,0,,,,,,,,,,,,,,,6,1552.209275049856,1553.2097075346392,1,1553.2097075346392,Y,d,go,None,0,,,,,,,,,,,,,,,,,,,83,001,23,w,Psychologie,2023-01-30_15h29.45.955,00_bat_bachelor,2022.2.4,59.95171894277215,
,,,,0,0,0,0,7,0,7,0,,,,,,,,,,,,,,,7,1554.6111342490185,1555.6116903699003,1,1555.6116903699003,Y,None,nogo,None,1,,1556.4126611331012,,,,,,,,,,,,,,,,,83,001,23,w,Psychologie,2023-01-30_15h29.45.955,00_bat_bachelor,2022.2.4,59.95171894277215,
,,,,0,0,0,0,8,0,8,0,,,,,,,,,,,,,,,8,1557.0128770845477,1558.0136489630677,1,1558.0136489630677,X,l,go,l,1,0.4596311650238931,,,,,,,,,,,,,,,,,,83,001,23,w,Psychologie,2023-01-30_15h29.45.955,00_bat_bachelor,2022.2.4,59.95171894277215,
,,,,0,0,0,0,9,0,9,0,,,,,,,,,,,,,,,9,1559.180922094034,1560.1820207601413,1,1560.1820207601413,Y,d,go,d,1,0.4508932300377637,,,,,,,,,,,,,,,,,,83,001,23,w,Psychologie,2023-01-30_15h29.45.955,00_bat_bachelor,2022.2.4,59.95171894277215,
,,,,0,0,0,0,10,0,10,0,,,,,,,,,,,,,,,10,1561.3494466184638,1562.3500264969189,1,1562.3500264969189,X,l,go,l,1,0.3954459843225777,,,,,,,,,,,,,,,,,,83,001,23,w,Psychologie,2023-01-30_15h29.45.955,00_bat_bachelor,2022.2.4,59.95171894277215,
,,,,0,0,0,0,11,0,11,0,,,,,,,,,,,,,,,11,1563.451148872031,1564.4517195385415,1,1564.4517195385415,Y,d,go,d,1,0.46905806963332,,,,,,,,,,,,,,,,,,83,001,23,w,Psychologie,2023-01-30_15h29.45.955,00_bat_bachelor,2022.2.4,59.95171894277215,
,,,,0,0,0,0,12,0,12,0,,,,,,,,,,,,,,,12,1565.6362556915265,1566.6369044184685,1,1566.6369044184685,Y,None,nogo,None,1,,,,,,,,,,,,,,,,,,,83,001,23,w,Psychologie,2023-01-30_15h29.45.955,00_bat_bachelor,2022.2.4,59.95171894277215,
,,,,0,0,0,0,13,0,13,0,,,,,,,,,,,,,,,13,1568.0376867696177,1569.0387505264953,1,1569.0387505264953,Y,None,nogo,None,1,,,,,,,,,,,,,,,,,,,83,001,23,w,Psychologie,2023-01-30_15h29.45.955,00_bat_bachelor,2022.2.4,59.95171894277215,
,,,,0,0,0,0,14,0,14,0,,,,,,,,,,,,,,,14,1570.4395866957493,1571.4403561500367,1,1571.4403561500367,X,l,go,l,1,0.44083020463585854,,,,,,,,,,,,,,,,,,83,001,23,w,Psychologie,2023-01-30_15h29.45.955,00_bat_bachelor,2022.2.4,59.95171894277215,
,,,,1,0,1,0,0,0,0,0,,,,,,,,,,,,,,,0,1591.25568569405,1591.455887778895,0.2,1591.455887778895,X,l,go,None,0,,,1572.601899344474,j,18.62731641717255,,,,,,,,,,,,,,83,001,23,w,Psychologie,2023-01-30_15h29.45.955,00_bat_bachelor,2022.2.4,59.95171894277215,
,,,,1,0,1,0,1,0,1,0,,,,,,,,,,,,,,,1,1592.8566017663106,1593.0568266389892,0.2,1593.0568266389892,Y,d,go,d,1,0.5047346586361527,,,,,,,,,,,,,,,,,,83,001,23,w,Psychologie,2023-01-30_15h29.45.955,00_bat_bachelor,2022.2.4,59.95171894277215,
,,,,1,0,1,0,2,0,2,0,,,,,,,,,,,,,,,2,1594.2744391395245,1594.4748419513926,0.2,1594.4748419513926,X,l,go,l,1,0.49471817864105105,,,,,,,,,,,,,,,,,,83,001,23,w,Psychologie,2023-01-30_15h29.45.955,00_bat_bachelor,2022.2.4,59.95171894277215,
,,,,1,0,1,0,3,0,3,0,,,,,,,,,,,,,,,3,1595.6754338543396,1595.8758812721353,0.2,1595.8758812721353,Y,d,go,d,1,0.5008447209838778,,,,,,,,,,,,,,,,,,83,001,23,w,Psychologie,2023-01-30_15h29.45.955,00_bat_bachelor,2022.2.4,59.95171894277215,
,,,,1,0,1,0,4,0,4,0,,,,,,,,,,,,,,,4,1597.0934385000728,1597.2936095544137,0.2,1597.2936095544137,Y,None,nogo,None,1,,,,,,,,,,,,,,,,,,,83,001,23,w,Psychologie,2023-01-30_15h29.45.955,00_bat_bachelor,2022.2.4,59.95171894277215,
,,,,1,0,1,0,5,0,5,0,,,,,,,,,,,,,,,5,1598.6943647542503,1598.8949168992694,0.2,1598.8949168992694,X,l,go,l,1,0.5230784069281071,,,,,,,,,,,,,,,,,,83,001,23,w,Psychologie,2023-01-30_15h29.45.955,00_bat_bachelor,2022.2.4,59.95171894277215,
,,,,1,0,1,0,6,0,6,0,,,,,,,,,,,,,,,6,1600.12909036153,1600.3293273553718,0.2,1600.3293273553718,Y,d,go,d,1,0.4797509128693491,,,,,,,,,,,,,,,,,,83,001,23,w,Psychologie,2023-01-30_15h29.45.955,00_bat_bachelor,2022.2.4,59.95171894277215,
,,,,1,0,1,0,7,0,7,0,,,,,,,,,,,,,,,7,1601.5135565993842,1601.713746562833,0.2,1601.713746562833,X,l,go,l,1,0.48795793927274644,,,,,,,,,,,,,,,,,,83,001,23,w,Psychologie,2023-01-30_15h29.45.955,00_bat_bachelor,2022.2.4,59.95171894277215,
,,,,1,0,1,0,8,0,8,0,,,,,,,,,,,,,,,8,1602.9145484049805,1603.1149376411922,0.2,1603.1149376411922,Y,d,go,d,1,0.5101605951786041,,,,,,,,,,,,,,,,,,83,001,23,w,Psychologie,2023-01-30_15h29.45.955,00_bat_bachelor,2022.2.4,59.95171894277215,
,,,,1,0,1,0,9,0,9,0,,,,,,,,,,,,,,,9,1604.3323043235578,1604.5321864085272,0.2,1604.5321864085272,Y,None,nogo,d,0,0.5808330457657576,,,,,,,,,,,,,,,,,,83,001,23,w,Psychologie,2023-01-30_15h29.45.955,00_bat_bachelor,2022.2.4,59.95171894277215,
,,,,1,0,1,0,10,0,10,0,,,,,,,,,,,,,,,10,1606.2170617128722,1606.417178464355,0.2,1606.417178464355,X,l,go,None,0,,,,,,,,,,,,,,,,,,,83,001,23,w,Psychologie,2023-01-30_15h29.45.955,00_bat_bachelor,2022.2.4,59.95171894277215,
,,,,1,0,1,0,11,0,11,0,,,,,,,,,,,,,,,11,1607.8182880880777,1608.0184630211443,0.2,1608.0184630211443,Y,d,go,None,0,,,,,,,,,,,,,,,,,,,83,001,23,w,Psychologie,2023-01-30_15h29.45.955,00_bat_bachelor,2022.2.4,59.95171894277215,
,,,,1,0,1,0,12,0,12,0,,,,,,,,,,,,,,,12,1609.4196259782184,1609.6196573963389,0.2,1609.6196573963389,X,l,go,l,1,0.48513078899122775,,,,,,,,,,,,,,,,,,83,001,23,w,Psychologie,2023-01-30_15h29.45.955,00_bat_bachelor,2022.2.4,59.95171894277215,
,,,,1,0,1,0,13,0,13,0,,,,,,,,,,,,,,,13,1610.8202352386434,1611.0207422929816,0.2,1611.0207422929816,Y,d,go,d,1,0.4283666955307126,,,,,,,,,,,,,,,,,,83,001,23,w,Psychologie,2023-01-30_15h29.45.955,00_bat_bachelor,2022.2.4,59.95171894277215,
,,,,1,0,1,0,14,0,14,0,,,,,,,,,,,,,,,14,1612.1547650157008,1612.3550970398355,0.2,1612.3550970398355,X,l,go,l,1,0.5349217953626066,,,,,,,,,,,,,,,,,,83,001,23,w,Psychologie,2023-01-30_15h29.45.955,00_bat_bachelor,2022.2.4,59.95171894277215,
,,,,,,,,,,,,,,,,,,,,,,,,,,,,,,,,,,,,,,1613.6343240560964,None,,1613.6343240560964,1613.6343240560964,space,17.210609225090593,,,,,,,,,,83,001,23,w,Psychologie,2023-01-30_15h29.45.955,00_bat_bachelor,2022.2.4,59.95171894277215,
,,,,,,,,,,,,0,0,0,0,0,0,0,0,,,,,,,0,,,1,1631.870061638765,X,l,go,l,1,0.3794028405100107,,,,,,,,,,,,,,,,,,83,001,23,w,Psychologie,2023-01-30_15h29.45.955,00_bat_bachelor,2022.2.4,59.95171894277215,
,,,,,,,,,,,,0,0,0,0,1,0,1,0,,,,,,,1,,,1,1633.3541627372615,Y,d,go,d,1,0.39869204303249717,,,,,,,,,,,,,,,,,,83,001,23,w,Psychologie,2023-01-30_15h29.45.955,00_bat_bachelor,2022.2.4,59.95171894277215,
,,,,,,,,,,,,0,0,0,0,2,0,2,0,,,,,,,2,,,1,1634.8555050396826,X,l,go,l,1,0.40176404151134193,,,,,,,,,,,,,,,,,,83,001,23,w,Psychologie,2023-01-30_15h29.45.955,00_bat_bachelor,2022.2.4,59.95171894277215,
,,,,,,,,,,,,0,0,0,0,3,0,3,0,,,,,,,3,,,1,1636.3731789705344,X,None,nogo,None,1,,,,,,,,,,,,,,,,,,,83,001,23,w,Psychologie,2023-01-30_15h29.45.955,00_bat_bachelor,2022.2.4,59.95171894277215,
,,,,,,,,,,,,0,0,0,0,4,0,4,0,,,,,,,4,,,1,1638.174761612201,Y,d,go,d,1,0.5548262705560774,,,,,,,,,,,,,,,,,,83,001,23,w,Psychologie,2023-01-30_15h29.45.955,00_bat_bachelor,2022.2.4,59.95171894277215,
,,,,,,,,,,,,0,0,0,0,5,0,5,0,,,,,,,5,,,1,1639.8426827427465,X,l,go,l,1,0.48659551586024463,,,,,,,,,,,,,,,,,,83,001,23,w,Psychologie,2023-01-30_15h29.45.955,00_bat_bachelor,2022.2.4,59.95171894277215,
,,,,,,,,,,,,0,0,0,0,6,0,6,0,,,,,,,6,,,1,1641.4437035424635,Y,d,go,d,1,0.5170667737256736,,,,,,,,,,,,,,,,,,83,001,23,w,Psychologie,2023-01-30_15h29.45.955,00_bat_bachelor,2022.2.4,59.95171894277215,
,,,,,,,,,,,,0,0,0,0,7,0,7,0,,,,,,,7,,,1,1643.0617977881338,Y,None,nogo,None,1,,1643.8624403090216,,,,,,,,,,,,,,,,,83,001,23,w,Psychologie,2023-01-30_15h29.45.955,00_bat_bachelor,2022.2.4,59.95171894277215,
,,,,,,,,,,,,0,0,0,0,8,0,8,0,,,,,,,8,,,1,1644.8629847937264,X,l,go,l,1,0.39439628762193024,,,,,,,,,,,,,,,,,,83,001,23,w,Psychologie,2023-01-30_15h29.45.955,00_bat_bachelor,2022.2.4,59.95171894277215,
,,,,,,,,,,,,0,0,0,0,9,0,9,0,,,,,,,9,,,1,1646.3643333991058,Y,d,go,d,1,0.3967288925778121,,,,,,,,,,,,,,,,,,83,001,23,w,Psychologie,2023-01-30_15h29.45.955,00_bat_bachelor,2022.2.4,59.95171894277215,
,,,,,,,,,,,,0,0,0,0,10,0,10,0,,,,,,,10,,,1,1647.865470610559,X,l,go,l,1,0.39941349742002785,,,,,,,,,,,,,,,,,,83,001,23,w,Psychologie,2023-01-30_15h29.45.955,00_bat_bachelor,2022.2.4,59.95171894277215,
,,,,,,,,,,,,0,0,0,0,11,0,11,0,,,,,,,11,,,1,1649.3664177616592,X,None,nogo,None,1,,1650.1672382217366,,,,,,,,,,,,,,,,,83,001,23,w,Psychologie,2023-01-30_15h29.45.955,00_bat_bachelor,2022.2.4,59.95171894277215,
,,,,,,,,,,,,0,0,0,0,12,0,12,0,,,,,,,12,,,1,1651.1680173729546,X,None,nogo,l,0,0.5856684371829033,,,,,,,,,,,,,,,,,,83,001,23,w,Psychologie,2023-01-30_15h29.45.955,00_bat_bachelor,2022.2.4,59.95171894277215,
,,,,,,,,,,,,0,0,0,0,13,0,13,0,,,,,,,13,,,1,1652.8690133967903,Y,d,go,d,1,0.5321688270196319,,,,,,,,,,,,,,,,,,83,001,23,w,Psychologie,2023-01-30_15h29.45.955,00_bat_bachelor,2022.2.4,59.95171894277215,
,,,,,,,,,,,,0,0,0,0,14,0,14,0,,,,,,,14,,,1,1654.503671998158,X,l,go,l,1,0.4493727458175272,,,,,,,,,,,,,,,,,,83,001,23,w,Psychologie,2023-01-30_15h29.45.955,00_bat_bachelor,2022.2.4,59.95171894277215,
,,,,,,,,,,,,0,0,0,0,15,0,15,0,,,,,,,15,,,1,1656.0550002157688,Y,d,go,d,1,0.4343739652540535,,,,,,,,,,,,,,,,,,83,001,23,w,Psychologie,2023-01-30_15h29.45.955,00_bat_bachelor,2022.2.4,59.95171894277215,
,,,,,,,,,,,,0,0,0,0,16,0,16,0,,,,,,,16,,,1,1657.6059953423683,X,l,go,None,0,,1658.4066213786136,,,,,,,,,,,,,,,,,83,001,23,w,Psychologie,2023-01-30_15h29.45.955,00_bat_bachelor,2022.2.4,59.95171894277215,
,,,,,,,,,,,,0,0,0,0,17,0,17,0,,,,,,,17,,,1,1659.4077593174297,X,None,nogo,None,1,,1660.208444989752,,,,,,,,,,,,,,,,,83,001,23,w,Psychologie,2023-01-30_15h29.45.955,00_bat_bachelor,2022.2.4,59.95171894277215,
,,,,,,,,,,,,0,0,0,0,18,0,18,0,,,,,,,18,,,1,1661.209313353058,Y,d,go,d,1,0.46393419336527586,,,,,,,,,,,,,,,,,,83,001,23,w,Psychologie,2023-01-30_15h29.45.955,00_bat_bachelor,2022.2.4,59.95171894277215,
,,,,,,,,,,,,0,0,0,0,19,0,19,0,,,,,,,19,,,1,1662.8109625158831,X,l,go,l,1,0.47715939907357097,,,,,,,,,,,,,,,,,,83,001,23,w,Psychologie,2023-01-30_15h29.45.955,00_bat_bachelor,2022.2.4,59.95171894277215,
,,,,,,,,,,,,0,0,0,0,20,0,20,0,,,,,,,20,,,1,1664.4288017314393,Y,d,go,d,1,0.4599012255202979,,,,,,,,,,,,,,,,,,83,001,23,w,Psychologie,2023-01-30_15h29.45.955,00_bat_bachelor,2022.2.4,59.95171894277215,
,,,,,,,,,,,,0,0,0,0,21,0,21,0,,,,,,,21,,,1,1666.013355144998,X,l,go,l,1,0.6667825798504055,,,,,,,,,,,,,,,,,,83,001,23,w,Psychologie,2023-01-30_15h29.45.955,00_bat_bachelor,2022.2.4,59.95171894277215,
,,,,,,,,,,,,0,0,0,0,22,0,22,0,,,,,,,22,,,1,1667.7981484613847,X,None,nogo,None,1,,1668.5987875883002,,,,,,,,,,,,,,,,,83,001,23,w,Psychologie,2023-01-30_15h29.45.955,00_bat_bachelor,2022.2.4,59.95171894277215,
,,,,,,,,,,,,0,0,0,0,23,0,23,0,,,,,,,23,,,1,1669.5994760729373,X,None,nogo,None,1,,1670.3996832000557,,,,,,,,,,,,,,,,,83,001,23,w,Psychologie,2023-01-30_15h29.45.955,00_bat_bachelor,2022.2.4,59.95171894277215,
,,,,,,,,,,,,0,0,0,0,24,0,24,0,,,,,,,24,,,1,1671.4005098664202,Y,d,go,d,1,0.44896401884034276,,,,,,,,,,,,,,,,,,83,001,23,w,Psychologie,2023-01-30_15h29.45.955,00_bat_bachelor,2022.2.4,59.95171894277215,
,,,,,,,,,,,,0,0,0,0,25,0,25,0,,,,,,,25,,,1,1672.9518182051834,X,l,go,d,0,0.5458759719040245,,,,,,,,,,,,,,,,,,83,001,23,w,Psychologie,2023-01-30_15h29.45.955,00_bat_bachelor,2022.2.4,59.95171894277215,
,,,,,,,,,,,,0,0,0,0,26,0,26,0,,,,,,,26,,,1,1674.6192966692615,X,None,nogo,None,1,,,,,,,,,,,,,,,,,,,83,001,23,w,Psychologie,2023-01-30_15h29.45.955,00_bat_bachelor,2022.2.4,59.95171894277215,
,,,,,,,,,,,,0,0,0,0,27,0,27,0,,,,,,,27,,,1,1676.4209054927342,Y,d,go,d,1,0.41992985107935965,,,,,,,,,,,,,,,,,,83,001,23,w,Psychologie,2023-01-30_15h29.45.955,00_bat_bachelor,2022.2.4,59.95171894277215,
,,,,,,,,,,,,0,0,0,0,28,0,28,0,,,,,,,28,,,1,1677.9555680213962,X,l,go,l,1,0.4064268274232745,,,,,,,,,,,,,,,,,,83,001,23,w,Psychologie,2023-01-30_15h29.45.955,00_bat_bachelor,2022.2.4,59.95171894277215,
,,,,,,,,,,,,0,0,0,0,29,0,29,0,,,,,,,29,,,1,1679.4730528614018,Y,d,go,d,1,0.5997125518042594,,,,,,,,,,,,,,,,,,83,001,23,w,Psychologie,2023-01-30_15h29.45.955,00_bat_bachelor,2022.2.4,59.95171894277215,
,,,,,,,,,,,,0,0,0,0,30,0,30,0,,,,,,,30,,,1,1681.1741487639956,X,l,go,l,1,0.29067367129027843,,,,,,,,,,,,,,,,,,83,001,23,w,Psychologie,2023-01-30_15h29.45.955,00_bat_bachelor,2022.2.4,59.95171894277215,
,,,,,,,,,,,,0,0,0,0,31,0,31,0,,,,,,,31,,,1,1682.575493538985,Y,d,go,d,1,0.5531428775284439,,,,,,,,,,,,,,,,,,83,001,23,w,Psychologie,2023-01-30_15h29.45.955,00_bat_bachelor,2022.2.4,59.95171894277215,
,,,,,,,,,,,,0,0,0,0,32,0,32,0,,,,,,,32,,,1,1684.2433370940853,Y,None,nogo,None,1,,1685.0439645845909,,,,,,,,,,,,,,,,,83,001,23,w,Psychologie,2023-01-30_15h29.45.955,00_bat_bachelor,2022.2.4,59.95171894277215,
,,,,,,,,,,,,0,0,0,0,33,0,33,0,,,,,,,33,,,1,1686.0446933116764,X,l,go,l,1,0.33231583307497203,,,,,,,,,,,,,,,,,,83,001,23,w,Psychologie,2023-01-30_15h29.45.955,00_bat_bachelor,2022.2.4,59.95171894277215,
,,,,,,,,,,,,0,0,0,0,34,0,34,0,,,,,,,34,,,1,1687.4791585553903,Y,d,go,d,1,0.4986585401929915,,,,,,,,,,,,,,,,,,83,001,23,w,Psychologie,2023-01-30_15h29.45.955,00_bat_bachelor,2022.2.4,59.95171894277215,
,,,,,,,,,,,,0,0,0,0,35,0,35,0,,,,,,,35,,,1,1689.0801541428082,X,l,go,l,1,0.41730148857459426,,,,,,,,,,,,,,,,,,83,001,23,w,Psychologie,2023-01-30_15h29.45.955,00_bat_bachelor,2022.2.4,59.95171894277215,
,,,,,,,,,,,,0,0,0,0,36,0,36,0,,,,,,,36,,,1,1690.6148447927553,X,None,nogo,None,1,,1691.415460646851,,,,,,,,,,,,,,,,,83,001,23,w,Psychologie,2023-01-30_15h29.45.955,00_bat_bachelor,2022.2.4,59.95171894277215,
,,,,,,,,,,,,0,0,0,0,37,0,37,0,,,,,,,37,,,1,1692.416106464807,Y,d,go,d,1,0.5367050671484321,,,,,,,,,,,,,,,,,,83,001,23,w,Psychologie,2023-01-30_15h29.45.955,00_bat_bachelor,2022.2.4,59.95171894277215,
,,,,,,,,,,,,0,0,0,0,38,0,38,0,,,,,,,38,,,1,1694.0672562096734,X,l,go,None,0,,1694.8681867304258,,,,,,,,,,,,,,,,,83,001,23,w,Psychologie,2023-01-30_15h29.45.955,00_bat_bachelor,2022.2.4,59.95171894277215,
,,,,,,,,,,,,0,0,0,0,39,0,39,0,,,,,,,39,,,1,1695.868670124095,Y,d,go,l,0,0.3319381361361593,,,,,,,,,,,,,,,,,,83,001,23,w,Psychologie,2023-01-30_15h29.45.955,00_bat_bachelor,2022.2.4,59.95171894277215,
,,,,,,,,,,,,0,0,0,0,40,0,40,0,,,,,,,40,,,1,1697.3033942771144,X,l,go,None,0,,,,,,,,,,,,,,,,,,,83,001,23,w,Psychologie,2023-01-30_15h29.45.955,00_bat_bachelor,2022.2.4,59.95171894277215,
,,,,,,,,,,,,0,0,0,0,41,0,41,0,,,,,,,41,,,1,1699.1046932823956,Y,d,go,None,0,,,,,,,,,,,,,,,,,,,83,001,23,w,Psychologie,2023-01-30_15h29.45.955,00_bat_bachelor,2022.2.4,59.95171894277215,
,,,,,,,,,,,,0,0,0,0,42,0,42,0,,,,,,,42,,,1,1700.9061634393875,Y,None,nogo,None,1,,1701.7067933541257,,,,,,,,,,,,,,,,,83,001,23,w,Psychologie,2023-01-30_15h29.45.955,00_bat_bachelor,2022.2.4,59.95171894277215,
,,,,,,,,,,,,0,0,0,0,43,0,43,0,,,,,,,43,,,1,1702.707161353901,X,l,go,l,1,0.47001806925982237,,,,,,,,,,,,,,,,,,83,001,23,w,Psychologie,2023-01-30_15h29.45.955,00_bat_bachelor,2022.2.4,59.95171894277215,
,,,,,,,,,,,,0,0,0,0,44,0,44,0,,,,,,,44,,,1,1704.2919688280672,Y,d,go,d,1,0.35665279091335833,,,,,,,,,,,,,,,,,,83,001,23,w,Psychologie,2023-01-30_15h29.45.955,00_bat_bachelor,2022.2.4,59.95171894277215,
,,,,,,,,,,,,0,0,0,0,45,0,45,0,,,,,,,45,,,1,1705.7594687226228,X,l,go,l,1,0.36171218240633607,,,,,,,,,,,,,,,,,,83,001,23,w,Psychologie,2023-01-30_15h29.45.955,00_bat_bachelor,2022.2.4,59.95171894277215,
,,,,,,,,,,,,0,0,0,0,46,0,46,0,,,,,,,46,,,1,1707.2275732229464,X,None,nogo,None,1,,,,,,,,,,,,,,,,,,,83,001,23,w,Psychologie,2023-01-30_15h29.45.955,00_bat_bachelor,2022.2.4,59.95171894277215,
,,,,,,,,,,,,0,0,0,0,47,0,47,0,,,,,,,47,,,1,1709.0287621677853,Y,d,go,d,1,0.5010289633646607,,,,,,,,,,,,,,,,,,83,001,23,w,Psychologie,2023-01-30_15h29.45.955,00_bat_bachelor,2022.2.4,59.95171894277215,
,,,,,,,,,,,,0,0,0,0,48,0,48,0,,,,,,,48,,,1,1710.6467584741767,X,l,go,None,0,,1711.4472521466669,,,,,,,,,,,,,,,,,83,001,23,w,Psychologie,2023-01-30_15h29.45.955,00_bat_bachelor,2022.2.4,59.95171894277215,
,,,,,,,,,,,,0,0,0,0,49,0,49,0,,,,,,,49,,,1,1712.4481956614181,Y,d,go,d,1,0.4895753930322826,,,,,,,,,,,,,,,,,,83,001,23,w,Psychologie,2023-01-30_15h29.45.955,00_bat_bachelor,2022.2.4,59.95171894277215,
,,,,,,,,,,,,0,0,0,0,50,0,50,0,,,,,,,50,,,1,1714.0491713699885,X,l,go,l,1,0.3601044255774468,,,,,,,,,,,,,,,,,,83,001,23,w,Psychologie,2023-01-30_15h29.45.955,00_bat_bachelor,2022.2.4,59.95171894277215,
,,,,,,,,,,,,0,0,0,0,51,0,51,0,,,,,,,51,,,1,1715.5171822945122,X,None,nogo,None,1,,1716.31780008832,,,,,,,,,,,,,,,,,83,001,23,w,Psychologie,2023-01-30_15h29.45.955,00_bat_bachelor,2022.2.4,59.95171894277215,
,,,,,,,,,,,,0,0,0,0,52,0,52,0,,,,,,,52,,,1,1717.3185404515825,Y,d,go,d,1,0.2907536714337766,,,,,,,,,,,,,,,,,,83,001,23,w,Psychologie,2023-01-30_15h29.45.955,00_bat_bachelor,2022.2.4,59.95171894277215,
,,,,,,,,,,,,0,0,0,0,53,0,53,0,,,,,,,53,,,1,1718.7194735903759,X,l,go,l,1,0.4415007496718317,,,,,,,,,,,,,,,,,,83,001,23,w,Psychologie,2023-01-30_15h29.45.955,00_bat_bachelor,2022.2.4,59.95171894277215,
,,,,,,,,,,,,0,0,0,0,54,0,54,0,,,,,,,54,,,1,1720.2708197473548,X,None,nogo,None,1,,1721.0713963289745,,,,,,,,,,,,,,,,,83,001,23,w,Psychologie,2023-01-30_15h29.45.955,00_bat_bachelor,2022.2.4,59.95171894277215,
,,,,,,,,,,,,0,0,0,0,55,0,55,0,,,,,,,55,,,1,1722.0719941467978,Y,d,go,l,0,0.3693979966919869,,,,,,,,,,,,,,,,,,83,001,23,w,Psychologie,2023-01-30_15h29.45.955,00_bat_bachelor,2022.2.4,59.95171894277215,
,,,,,,,,,,,,0,0,0,0,56,0,56,0,,,,,,,56,,,1,1723.5564283360727,X,l,go,l,1,0.5002653272822499,,,,,,,,,,,,,,,,,,83,001,23,w,Psychologie,2023-01-30_15h29.45.955,00_bat_bachelor,2022.2.4,59.95171894277215,
,,,,,,,,,,,,0,0,0,0,57,0,57,0,,,,,,,57,,,1,1725.1577444083523,X,None,nogo,None,1,,1725.9584611109458,,,,,,,,,,,,,,,,,83,001,23,w,Psychologie,2023-01-30_15h29.45.955,00_bat_bachelor,2022.2.4,59.95171894277215,
,,,,,,,,,,,,0,0,0,0,58,0,58,0,,,,,,,58,,,1,1726.9593391711824,Y,d,go,d,1,0.39373398502357304,,,,,,,,,,,,,,,,,,83,001,23,w,Psychologie,2023-01-30_15h29.45.955,00_bat_bachelor,2022.2.4,59.95171894277215,
,,,,,,,,,,,,0,0,0,0,59,0,59,0,,,,,,,59,,,1,1728.4602615949698,X,l,go,l,1,0.4926498157437891,,,,,,,,,,,,,,,,,,83,001,23,w,Psychologie,2023-01-30_15h29.45.955,00_bat_bachelor,2022.2.4,59.95171894277215,
,,,,,,,,,,,,0,0,0,0,60,0,60,0,,,,,,,60,,,1,1730.0616213034373,X,None,nogo,None,1,,1730.862215339439,,,,,,,,,,,,,,,,,83,001,23,w,Psychologie,2023-01-30_15h29.45.955,00_bat_bachelor,2022.2.4,59.95171894277215,
,,,,,,,,,,,,0,0,0,0,61,0,61,0,,,,,,,61,,,1,1731.8629702480976,Y,d,go,d,1,0.4018513143528253,,,,,,,,,,,,,,,,,,83,001,23,w,Psychologie,2023-01-30_15h29.45.955,00_bat_bachelor,2022.2.4,59.95171894277215,
,,,,,,,,,,,,0,0,0,0,62,0,62,0,,,,,,,62,,,1,1733.3807615123224,X,l,go,l,1,0.5646255384199321,,,,,,,,,,,,,,,,,,83,001,23,w,Psychologie,2023-01-30_15h29.45.955,00_bat_bachelor,2022.2.4,59.95171894277215,
,,,,,,,,,,,,0,0,0,0,63,0,63,0,,,,,,,63,,,1,1735.048776703421,Y,d,go,d,1,0.35276042902842164,,,,,,,,,,,,,,,,,,83,001,23,w,Psychologie,2023-01-30_15h29.45.955,00_bat_bachelor,2022.2.4,59.95171894277215,
,,,,,,,,,,,,0,0,0,0,64,0,64,0,,,,,,,64,,,1,1736.5163119919598,X,l,go,l,1,0.30854129884392023,,,,,,,,,,,,,,,,,,83,001,23,w,Psychologie,2023-01-30_15h29.45.955,00_bat_bachelor,2022.2.4,59.95171894277215,
,,,,,,,,,,,,0,0,0,0,65,0,65,0,,,,,,,65,,,1,1737.9340538501274,Y,d,go,d,1,0.3316428635735065,,,,,,,,,,,,,,,,,,83,001,23,w,Psychologie,2023-01-30_15h29.45.955,00_bat_bachelor,2022.2.4,59.95171894277215,
,,,,,,,,,,,,0,0,0,0,66,0,66,0,,,,,,,66,,,1,1739.3686529120896,Y,None,nogo,l,0,0.32079147500917315,,,,,,,,,,,,,,,,,,83,001,23,w,Psychologie,2023-01-30_15h29.45.955,00_bat_bachelor,2022.2.4,59.95171894277215,
,,,,,,,,,,,,0,0,0,0,67,0,67,0,,,,,,,67,,,1,1740.8029600954615,X,l,go,l,1,0.5978022497147322,,,,,,,,,,,,,,,,,,83,001,23,w,Psychologie,2023-01-30_15h29.45.955,00_bat_bachelor,2022.2.4,59.95171894277215,
,,,,,,,,,,,,0,0,0,0,68,0,68,0,,,,,,,68,,,1,1742.5044036342297,Y,d,go,d,1,0.40079046646133065,,,,,,,,,,,,,,,,,,83,001,23,w,Psychologie,2023-01-30_15h29.45.955,00_bat_bachelor,2022.2.4,59.95171894277215,
,,,,,,,,,,,,0,0,0,0,69,0,69,0,,,,,,,69,,,1,1744.0055539365858,Y,None,nogo,None,1,,1744.8060253059957,,,,,,,,,,,,,,,,,83,001,23,w,Psychologie,2023-01-30_15h29.45.955,00_bat_bachelor,2022.2.4,59.95171894277215,
,,,,,,,,,,,,0,0,0,0,70,0,70,0,,,,,,,70,,,1,1745.8067322147544,X,l,go,l,1,0.42587990895844996,,,,,,,,,,,,,,,,,,83,001,23,w,Psychologie,2023-01-30_15h29.45.955,00_bat_bachelor,2022.2.4,59.95171894277215,
,,,,,,,,,,,,0,0,0,0,71,0,71,0,,,,,,,71,,,1,1747.341466016136,Y,d,go,d,1,0.6359568978659809,,,,,,,,,,,,,,,,,,83,001,23,w,Psychologie,2023-01-30_15h29.45.955,00_bat_bachelor,2022.2.4,59.95171894277215,
,,,,,,,,,,,,0,0,0,0,72,0,72,0,,,,,,,72,,,1,1749.092601167038,X,l,go,l,1,0.4047371312044561,,,,,,,,,,,,,,,,,,83,001,23,w,Psychologie,2023-01-30_15h29.45.955,00_bat_bachelor,2022.2.4,59.95171894277215,
,,,,,,,,,,,,0,0,0,0,73,0,73,0,,,,,,,73,,,1,1750.6106489158701,X,None,nogo,None,1,,1751.411160042975,,,,,,,,,,,,,,,,,83,001,23,w,Psychologie,2023-01-30_15h29.45.955,00_bat_bachelor,2022.2.4,59.95171894277215,
,,,,,,,,,,,,0,0,0,0,74,0,74,0,,,,,,,74,,,1,1752.4121214970946,Y,d,go,d,1,0.42962293745949864,,,,,,,,,,,,,,,,,,83,001,23,w,Psychologie,2023-01-30_15h29.45.955,00_bat_bachelor,2022.2.4,59.95171894277215,
,,,,,,,,,,,,0,0,0,0,75,0,75,0,,,,,,,75,,,1,1753.9464950561523,X,l,go,l,1,0.3027328171301633,,,,,,,,,,,,,,,,,,83,001,23,w,Psychologie,2023-01-30_15h29.45.955,00_bat_bachelor,2022.2.4,59.95171894277215,
,,,,,,,,,,,,0,0,0,0,76,0,76,0,,,,,,,76,,,1,1755.3642572779208,Y,d,go,d,1,0.4209218507166952,,,,,,,,,,,,,,,,,,83,001,23,w,Psychologie,2023-01-30_15h29.45.955,00_bat_bachelor,2022.2.4,59.95171894277215,
,,,,,,,,,,,,0,0,0,0,77,0,77,0,,,,,,,77,,,1,1756.898665261222,X,l,go,l,1,0.31034105573780835,,,,,,,,,,,,,,,,,,83,001,23,w,Psychologie,2023-01-30_15h29.45.955,00_bat_bachelor,2022.2.4,59.95171894277215,
,,,,,,,,,,,,0,0,0,0,78,0,78,0,,,,,,,78,,,1,1758.316574391909,Y,d,go,d,1,0.4286217256449163,,,,,,,,,,,,,,,,,,83,001,23,w,Psychologie,2023-01-30_15h29.45.955,00_bat_bachelor,2022.2.4,59.95171894277215,
,,,,,,,,,,,,0,0,0,0,79,0,79,0,,,,,,,79,,,1,1759.85084176925,X,l,go,l,1,0.33424213505350053,,,,,,,,,,,,,,,,,,83,001,23,w,Psychologie,2023-01-30_15h29.45.955,00_bat_bachelor,2022.2.4,59.95171894277215,
,,,,,,,,,,,,0,0,0,0,80,0,80,0,,,,,,,80,,,1,1761.301835489925,Y,d,go,d,1,0.27567779971286654,,,,,,,,,,,,,,,,,,83,001,23,w,Psychologie,2023-01-30_15h29.45.955,00_bat_bachelor,2022.2.4,59.95171894277215,
,,,,,,,,,,,,0,0,0,0,81,0,81,0,,,,,,,81,,,1,1762.686256152112,Y,None,nogo,None,1,,1763.4870368547272,,,,,,,,,,,,,,,,,83,001,23,w,Psychologie,2023-01-30_15h29.45.955,00_bat_bachelor,2022.2.4,59.95171894277215,
,,,,,,,,,,,,0,0,0,0,82,0,82,0,,,,,,,82,,,1,1764.4877927331254,X,l,go,l,1,0.30592554272152483,,,,,,,,,,,,,,,,,,83,001,23,w,Psychologie,2023-01-30_15h29.45.955,00_bat_bachelor,2022.2.4,59.95171894277215,
,,,,,,,,,,,,0,0,0,0,83,0,83,0,,,,,,,83,,,1,1765.9055539851543,Y,d,go,d,1,0.4714086139574647,,,,,,,,,,,,,,,,,,83,001,23,w,Psychologie,2023-01-30_15h29.45.955,00_bat_bachelor,2022.2.4,59.95171894277215,
,,,,,,,,,,,,0,0,0,0,84,0,84,0,,,,,,,84,,,1,1767.490133580519,X,l,go,l,1,0.2954886993393302,,,,,,,,,,,,,,,,,,83,001,23,w,Psychologie,2023-01-30_15h29.45.955,00_bat_bachelor,2022.2.4,59.95171894277215,
,,,,,,,,,,,,0,0,0,0,85,0,85,0,,,,,,,85,,,1,1768.8911438102368,Y,d,go,d,1,0.36621787725016475,,,,,,,,,,,,,,,,,,83,001,23,w,Psychologie,2023-01-30_15h29.45.955,00_bat_bachelor,2022.2.4,59.95171894277215,
,,,,,,,,,,,,0,0,0,0,86,0,86,0,,,,,,,86,,,1,1770.3587828562595,X,l,go,l,1,0.35431776149198413,,,,,,,,,,,,,,,,,,83,001,23,w,Psychologie,2023-01-30_15h29.45.955,00_bat_bachelor,2022.2.4,59.95171894277215,
,,,,,,,,,,,,0,0,0,0,87,0,87,0,,,,,,,87,,,1,1771.826821417315,Y,d,go,d,1,0.3429839489981532,,,,,,,,,,,,,,,,,,83,001,23,w,Psychologie,2023-01-30_15h29.45.955,00_bat_bachelor,2022.2.4,59.95171894277215,
,,,,,,,,,,,,0,0,0,0,88,0,88,0,,,,,,,88,,,1,1773.2776444712654,X,l,go,l,1,0.6032548532821238,,,,,,,,,,,,,,,,,,83,001,23,w,Psychologie,2023-01-30_15h29.45.955,00_bat_bachelor,2022.2.4,59.95171894277215,
,,,,,,,,,,,,0,0,0,0,89,0,89,0,,,,,,,89,,,1,1774.9958128505386,X,None,nogo,None,1,,1775.7963850682136,,,,,,,,,,,,,,,,,83,001,23,w,Psychologie,2023-01-30_15h29.45.955,00_bat_bachelor,2022.2.4,59.95171894277215,
,,,,,,,,,,,,0,0,0,0,90,0,90,0,,,,,,,90,,,1,1776.7970386438537,Y,d,go,d,1,0.3485902491956949,,,,,,,,,,,,,,,,,,83,001,23,w,Psychologie,2023-01-30_15h29.45.955,00_bat_bachelor,2022.2.4,59.95171894277215,
,,,,,,,,,,,,0,0,0,0,91,0,91,0,,,,,,,91,,,1,1778.2482941825874,X,l,go,l,1,0.41638221638277173,,,,,,,,,,,,,,,,,,83,001,23,w,Psychologie,2023-01-30_15h29.45.955,00_bat_bachelor,2022.2.4,59.95171894277215,
,,,,,,,,,,,,0,0,0,0,92,0,92,0,,,,,,,92,,,1,1779.766005931655,X,None,nogo,None,1,,,,,,,,,,,,,,,,,,,83,001,23,w,Psychologie,2023-01-30_15h29.45.955,00_bat_bachelor,2022.2.4,59.95171894277215,
,,,,,,,,,,,,0,0,0,0,93,0,93,0,,,,,,,93,,,1,1781.5674741489347,Y,d,go,d,1,0.3134867511689663,,,,,,,,,,,,,,,,,,83,001,23,w,Psychologie,2023-01-30_15h29.45.955,00_bat_bachelor,2022.2.4,59.95171894277215,
,,,,,,,,,,,,0,0,0,0,94,0,94,0,,,,,,,94,,,1,1782.9853415826801,X,l,go,l,1,0.49595551122911274,,,,,,,,,,,,,,,,,,83,001,23,w,Psychologie,2023-01-30_15h29.45.955,00_bat_bachelor,2022.2.4,59.95171894277215,
,,,,,,,,,,,,0,0,0,0,95,0,95,0,,,,,,,95,,,1,1784.5864889277145,Y,d,go,d,1,0.43099942128174007,,,,,,,,,,,,,,,,,,83,001,23,w,Psychologie,2023-01-30_15h29.45.955,00_bat_bachelor,2022.2.4,59.95171894277215,
,,,,,,,,,,,,0,0,0,0,96,0,96,0,,,,,,,96,,,1,1786.120977880666,X,l,go,l,1,0.3523672171868384,,,,,,,,,,,,,,,,,,83,001,23,w,Psychologie,2023-01-30_15h29.45.955,00_bat_bachelor,2022.2.4,59.95171894277215,
,,,,,,,,,,,,0,0,0,0,97,0,97,0,,,,,,,97,,,1,1787.5886043205392,Y,d,go,d,1,0.4848772136028856,,,,,,,,,,,,,,,,,,83,001,23,w,Psychologie,2023-01-30_15h29.45.955,00_bat_bachelor,2022.2.4,59.95171894277215,
,,,,,,,,,,,,0,0,0,0,98,0,98,0,,,,,,,98,,,1,1789.189952877583,Y,None,nogo,None,1,,1789.9906608529855,,,,,,,,,,,,,,,,,83,001,23,w,Psychologie,2023-01-30_15h29.45.955,00_bat_bachelor,2022.2.4,59.95171894277215,
,,,,,,,,,,,,0,0,0,0,99,0,99,0,,,,,,,99,,,1,1790.9913270343095,X,l,go,l,1,0.47426146105863154,,,,,,,,,,,,,,,,,,83,001,23,w,Psychologie,2023-01-30_15h29.45.955,00_bat_bachelor,2022.2.4,59.95171894277215,
,,,,,,,,,,,,0,0,0,0,100,0,100,0,,,,,,,100,,,1,1792.5758945085108,Y,d,go,d,1,0.34594831103459,,,,,,,,,,,,,,,,,,83,001,23,w,Psychologie,2023-01-30_15h29.45.955,00_bat_bachelor,2022.2.4,59.95171894277215,
,,,,,,,,,,,,0,0,0,0,101,0,101,0,,,,,,,101,,,1,1794.0268620473798,Y,None,nogo,None,1,,1794.8277169319335,,,,,,,,,,,,,,,,,83,001,23,w,Psychologie,2023-01-30_15h29.45.955,00_bat_bachelor,2022.2.4,59.95171894277215,
,,,,,,,,,,,,0,0,0,0,102,0,102,0,,,,,,,102,,,1,1795.8281872346997,X,l,go,l,1,0.2929253065958619,,,,,,,,,,,,,,,,,,83,001,23,w,Psychologie,2023-01-30_15h29.45.955,00_bat_bachelor,2022.2.4,59.95171894277215,
,,,,,,,,,,,,0,0,0,0,103,0,103,0,,,,,,,103,,,1,1797.2292163735256,Y,d,go,d,1,0.49241127050481737,,,,,,,,,,,,,,,,,,83,001,23,w,Psychologie,2023-01-30_15h29.45.955,00_bat_bachelor,2022.2.4,59.95171894277215,
,,,,,,,,,,,,0,0,0,0,104,0,104,0,,,,,,,104,,,1,1798.8306119607296,Y,None,nogo,None,1,,1799.631100300001,,,,,,,,,,,,,,,,,83,001,23,w,Psychologie,2023-01-30_15h29.45.955,00_bat_bachelor,2022.2.4,59.95171894277215,
,,,,,,,,,,,,0,0,0,0,105,0,105,0,,,,,,,105,,,1,1800.6318130269647,X,l,go,l,1,0.4329872992821038,,,,,,,,,,,,,,,,,,83,001,23,w,Psychologie,2023-01-30_15h29.45.955,00_bat_bachelor,2022.2.4,59.95171894277215,
,,,,,,,,,,,,0,0,0,0,106,0,106,0,,,,,,,106,,,1,1802.1664648889564,Y,d,go,d,1,0.46632788935676217,,,,,,,,,,,,,,,,,,83,001,23,w,Psychologie,2023-01-30_15h29.45.955,00_bat_bachelor,2022.2.4,59.95171894277215,
,,,,,,,,,,,,0,0,0,0,107,0,107,0,,,,,,,107,,,1,1803.7344767346513,X,l,go,l,1,0.45128256315365434,,,,,,,,,,,,,,,,,,83,001,23,w,Psychologie,2023-01-30_15h29.45.955,00_bat_bachelor,2022.2.4,59.95171894277215,
,,,,,,,,,,,,0,0,0,0,108,0,108,0,,,,,,,108,,,1,1805.3022350049578,X,None,nogo,None,1,,,,,,,,,,,,,,,,,,,83,001,23,w,Psychologie,2023-01-30_15h29.45.955,00_bat_bachelor,2022.2.4,59.95171894277215,
,,,,,,,,,,,,0,0,0,0,109,0,109,0,,,,,,,109,,,1,1807.1033740104176,Y,d,go,d,1,0.5380728242453188,,,,,,,,,,,,,,,,,,83,001,23,w,Psychologie,2023-01-30_15h29.45.955,00_bat_bachelor,2022.2.4,59.95171894277215,
,,,,,,,,,,,,0,0,0,0,110,0,110,0,,,,,,,110,,,1,1808.7546246037818,X,l,go,l,1,0.3577771538402885,,,,,,,,,,,,,,,,,,83,001,23,w,Psychologie,2023-01-30_15h29.45.955,00_bat_bachelor,2022.2.4,59.95171894277215,
,,,,,,,,,,,,0,0,0,0,111,0,111,0,,,,,,,111,,,1,1810.2227063162718,Y,d,go,None,0,,1811.0230133221485,,,,,,,,,,,,,,,,,83,001,23,w,Psychologie,2023-01-30_15h29.45.955,00_bat_bachelor,2022.2.4,59.95171894277215,
,,,,,,,,,,,,0,0,0,0,112,0,112,0,,,,,,,112,,,1,1812.0240048367996,X,l,go,l,1,0.4811482457444072,,,,,,,,,,,,,,,,,,83,001,23,w,Psychologie,2023-01-30_15h29.45.955,00_bat_bachelor,2022.2.4,59.95171894277215,
,,,,,,,,,,,,0,0,0,0,113,0,113,0,,,,,,,113,,,1,1813.6085630988237,X,None,nogo,None,1,,,,,,,,,,,,,,,,,,,83,001,23,w,Psychologie,2023-01-30_15h29.45.955,00_bat_bachelor,2022.2.4,59.95171894277215,
,,,,,,,,,,,,0,0,0,0,114,0,114,0,,,,,,,114,,,1,1815.4099493769463,Y,d,go,d,1,0.4713674020022154,,,,,,,,,,,,,,,,,,83,001,23,w,Psychologie,2023-01-30_15h29.45.955,00_bat_bachelor,2022.2.4,59.95171894277215,
,,,,,,,,,,,,0,0,0,0,115,0,115,0,,,,,,,115,,,1,1816.9945309115574,X,l,go,l,1,0.3593175169080496,,,,,,,,,,,,,,,,,,83,001,23,w,Psychologie,2023-01-30_15h29.45.955,00_bat_bachelor,2022.2.4,59.95171894277215,
,,,,,,,,,,,,0,0,0,0,116,0,116,0,,,,,,,116,,,1,1818.4623503212351,X,None,nogo,None,1,,,,,,,,,,,,,,,,,,,83,001,23,w,Psychologie,2023-01-30_15h29.45.955,00_bat_bachelor,2022.2.4,59.95171894277215,
,,,,,,,,,,,,0,0,0,0,117,0,117,0,,,,,,,117,,,1,1820.263648841763,Y,d,go,d,1,0.609813395421952,,,,,,,,,,,,,,,,,,83,001,23,w,Psychologie,2023-01-30_15h29.45.955,00_bat_bachelor,2022.2.4,59.95171894277215,
,,,,,,,,,,,,0,0,0,0,118,0,118,0,,,,,,,118,,,1,1821.9816034028772,X,l,go,l,1,0.2993272428866476,,,,,,,,,,,,,,,,,,83,001,23,w,Psychologie,2023-01-30_15h29.45.955,00_bat_bachelor,2022.2.4,59.95171894277215,
,,,,,,,,,,,,0,0,0,0,119,0,119,0,,,,,,,119,,,1,1823.3827653899789,Y,d,go,d,1,0.3387235873378813,,,,,,,,,,,,,,,,,,83,001,23,w,Psychologie,2023-01-30_15h29.45.955,00_bat_bachelor,2022.2.4,59.95171894277215,
,,,,,,,,,,,,0,0,0,0,120,0,120,0,,,,,,,120,,,1,1824.8337605653796,X,l,go,l,1,0.34324382757768035,,,,,,,,,,,,,,,,,,83,001,23,w,Psychologie,2023-01-30_15h29.45.955,00_bat_bachelor,2022.2.4,59.95171894277215,
,,,,,,,,,,,,0,0,0,0,121,0,121,0,,,,,,,121,,,1,1826.2848948920146,Y,d,go,d,1,0.3010227573104203,,,,,,,,,,,,,,,,,,83,001,23,w,Psychologie,2023-01-30_15h29.45.955,00_bat_bachelor,2022.2.4,59.95171894277215,
,,,,,,,,,,,,0,0,0,0,122,0,122,0,,,,,,,122,,,1,1827.7024175988045,X,l,go,l,1,0.2740981641691178,,,,,,,,,,,,,,,,,,83,001,23,w,Psychologie,2023-01-30_15h29.45.955,00_bat_bachelor,2022.2.4,59.95171894277215,
,,,,,,,,,,,,0,0,0,0,123,0,123,0,,,,,,,123,,,1,1829.086856200127,Y,d,go,d,1,0.4099589469842613,,,,,,,,,,,,,,,,,,83,001,23,w,Psychologie,2023-01-30_15h29.45.955,00_bat_bachelor,2022.2.4,59.95171894277215,
,,,,,,,,,,,,0,0,0,0,124,0,124,0,,,,,,,124,,,1,1830.604813282378,X,l,go,l,1,0.2841325835324824,,,,,,,,,,,,,,,,,,83,001,23,w,Psychologie,2023-01-30_15h29.45.955,00_bat_bachelor,2022.2.4,59.95171894277215,
,,,,,,,,,,,,0,0,0,0,125,0,125,0,,,,,,,125,,,1,1832.0059180576354,X,None,nogo,None,1,,,,,,,,,,,,,,,,,,,83,001,23,w,Psychologie,2023-01-30_15h29.45.955,00_bat_bachelor,2022.2.4,59.95171894277215,
,,,,,,,,,,,,0,0,0,0,126,0,126,0,,,,,,,126,,,1,1833.8070410632063,Y,d,go,d,1,0.47383624920621514,,,,,,,,,,,,,,,,,,83,001,23,w,Psychologie,2023-01-30_15h29.45.955,00_bat_bachelor,2022.2.4,59.95171894277215,
,,,,,,,,,,,,0,0,0,0,127,0,127,0,,,,,,,127,,,1,1835.3917001737282,X,l,go,l,1,0.26522592594847083,,,,,,,,,,,,,,,,,,83,001,23,w,Psychologie,2023-01-30_15h29.45.955,00_bat_bachelor,2022.2.4,59.95171894277215,
,,,,,,,,,,,,0,0,0,0,128,0,128,0,,,,,,,128,,,1,1836.7595467830542,X,None,nogo,d,0,0.369269996881485,,,,,,,,,,,,,,,,,,83,001,23,w,Psychologie,2023-01-30_15h29.45.955,00_bat_bachelor,2022.2.4,59.95171894277215,
,,,,,,,,,,,,0,0,0,0,129,0,129,0,,,,,,,129,,,1,1838.2439892149996,Y,d,go,None,0,,1839.0444193722215,,,,,,,,,,,,,,,,,83,001,23,w,Psychologie,2023-01-30_15h29.45.955,00_bat_bachelor,2022.2.4,59.95171894277215,
,,,,,,,,,,,,0,0,0,0,130,0,130,0,,,,,,,130,,,1,1840.045212584082,X,l,go,l,1,0.3959114383906126,,,,,,,,,,,,,,,,,,83,001,23,w,Psychologie,2023-01-30_15h29.45.955,00_bat_bachelor,2022.2.4,59.95171894277215,
,,,,,,,,,,,,0,0,0,0,131,0,131,0,,,,,,,131,,,1,1841.5464676136617,X,None,nogo,None,1,,1842.347135831602,,,,,,,,,,,,,,,,,83,001,23,w,Psychologie,2023-01-30_15h29.45.955,00_bat_bachelor,2022.2.4,59.95171894277215,
,,,,,,,,,,,,0,0,0,0,132,0,132,0,,,,,,,132,,,1,1843.347906255396,Y,d,go,d,1,0.4370692365337163,,,,,,,,,,,,,,,,,,83,001,23,w,Psychologie,2023-01-30_15h29.45.955,00_bat_bachelor,2022.2.4,59.95171894277215,
,,,,,,,,,,,,0,0,0,0,133,0,133,0,,,,,,,133,,,1,1844.8989013822284,X,l,go,l,1,0.3259972904343158,,,,,,,,,,,,,,,,,,83,001,23,w,Psychologie,2023-01-30_15h29.45.955,00_bat_bachelor,2022.2.4,59.95171894277215,
,,,,,,,,,,,,0,0,0,0,134,0,134,0,,,,,,,134,,,1,1846.3335615352262,X,None,nogo,None,1,,1847.133829268394,,,,,,,,,,,,,,,,,83,001,23,w,Psychologie,2023-01-30_15h29.45.955,00_bat_bachelor,2022.2.4,59.95171894277215,
,,,,,,,,,,,,0,0,0,0,135,0,135,0,,,,,,,135,,,1,1848.1347582375165,Y,d,go,d,1,0.41855191229842603,,,,,,,,,,,,,,,,,,83,001,23,w,Psychologie,2023-01-30_15h29.45.955,00_bat_bachelor,2022.2.4,59.95171894277215,
,,,,,,,,,,,,0,0,0,0,136,0,136,0,,,,,,,136,,,1,1849.6691807664465,X,l,go,l,1,0.32348335231654346,,,,,,,,,,,,,,,,,,83,001,23,w,Psychologie,2023-01-30_15h29.45.955,00_bat_bachelor,2022.2.4,59.95171894277215,
,,,,,,,,,,,,0,0,0,0,137,0,137,0,,,,,,,137,,,1,1851.1037754646968,X,None,nogo,None,1,,,,,,,,,,,,,,,,,,,83,001,23,w,Psychologie,2023-01-30_15h29.45.955,00_bat_bachelor,2022.2.4,59.95171894277215,
,,,,,,,,,,,,0,0,0,0,138,0,138,0,,,,,,,138,,,1,1852.904900409747,Y,d,go,d,1,0.5114085946697742,,,,,,,,,,,,,,,,,,83,001,23,w,Psychologie,2023-01-30_15h29.45.955,00_bat_bachelor,2022.2.4,59.95171894277215,
,,,,,,,,,,,,0,0,0,0,139,0,139,0,,,,,,,139,,,1,1854.5232172007672,X,l,go,l,1,0.3663017558865249,,,,,,,,,,,,,,,,,,83,001,23,w,Psychologie,2023-01-30_15h29.45.955,00_bat_bachelor,2022.2.4,59.95171894277215,
,,,,,,,,,,,,0,0,0,0,140,0,140,0,,,,,,,140,,,1,1855.9909086104017,X,None,nogo,None,1,,1856.7914871312678,,,,,,,,,,,,,,,,,83,001,23,w,Psychologie,2023-01-30_15h29.45.955,00_bat_bachelor,2022.2.4,59.95171894277215,
,,,,,,,,,,,,0,0,0,0,141,0,141,0,,,,,,,141,,,1,1857.7920902825426,Y,d,go,d,1,0.4727143105119467,,,,,,,,,,,,,,,,,,83,001,23,w,Psychologie,2023-01-30_15h29.45.955,00_bat_bachelor,2022.2.4,59.95171894277215,
,,,,,,,,,,,,0,0,0,0,142,0,142,0,,,,,,,142,,,1,1859.3766325446777,X,l,go,l,1,0.6164737557992339,,,,,,,,,,,,,,,,,,83,001,23,w,Psychologie,2023-01-30_15h29.45.955,00_bat_bachelor,2022.2.4,59.95171894277215,
,,,,,,,,,,,,0,0,0,0,143,0,143,0,,,,,,,143,,,1,1861.094791711541,X,None,nogo,None,1,,1861.895370232407,,,,,,,,,,,,,,,,,83,001,23,w,Psychologie,2023-01-30_15h29.45.955,00_bat_bachelor,2022.2.4,59.95171894277215,
,,,,,,,,,,,,0,0,0,0,144,0,144,0,,,,,,,144,,,1,1862.8959719291888,Y,d,go,d,1,0.3772816292475909,,,,,,,,,,,,,,,,,,83,001,23,w,Psychologie,2023-01-30_15h29.45.955,00_bat_bachelor,2022.2.4,59.95171894277215,
,,,,,,,,,,,,0,0,0,0,145,0,145,0,,,,,,,145,,,1,1864.3806286638137,X,l,go,l,1,0.3162566893734038,,,,,,,,,,,,,,,,,,83,001,23,w,Psychologie,2023-01-30_15h29.45.955,00_bat_bachelor,2022.2.4,59.95171894277215,
,,,,,,,,,,,,0,0,0,0,146,0,146,0,,,,,,,146,,,1,1865.7982187643647,X,None,nogo,None,1,,,,,,,,,,,,,,,,,,,83,001,23,w,Psychologie,2023-01-30_15h29.45.955,00_bat_bachelor,2022.2.4,59.95171894277215,
,,,,,,,,,,,,0,0,0,0,147,0,147,0,,,,,,,147,,,1,1867.5997674667742,Y,d,go,d,1,0.37763168988749385,,,,,,,,,,,,,,,,,,83,001,23,w,Psychologie,2023-01-30_15h29.45.955,00_bat_bachelor,2022.2.4,59.95171894277215,
,,,,,,,,,,,,0,0,0,0,148,0,148,0,,,,,,,148,,,1,1869.0840823834296,X,l,go,l,1,0.3813238092698157,,,,,,,,,,,,,,,,,,83,001,23,w,Psychologie,2023-01-30_15h29.45.955,00_bat_bachelor,2022.2.4,59.95171894277215,
,,,,,,,,,,,,0,0,0,0,149,0,149,0,,,,,,,149,,,1,1870.568675603019,X,None,nogo,None,1,,1871.3692405482288,,,,,,,,,,,,,,,,,83,001,23,w,Psychologie,2023-01-30_15h29.45.955,00_bat_bachelor,2022.2.4,59.95171894277215,
,,,,,,,,,,,,0,0,0,0,150,0,150,0,,,,,,,150,,,1,1872.3699969113804,Y,d,go,d,1,0.4718503106851131,,,,,,,,,,,,,,,,,,83,001,23,w,Psychologie,2023-01-30_15h29.45.955,00_bat_bachelor,2022.2.4,59.95171894277215,
,,,,,,,,,,,,0,0,0,0,151,0,151,0,,,,,,,151,,,1,1873.9544276583474,X,l,go,None,0,,1874.7552621790674,,,,,,,,,,,,,,,,,83,001,23,w,Psychologie,2023-01-30_15h29.45.955,00_bat_bachelor,2022.2.4,59.95171894277215,
,,,,,,,,,,,,0,0,0,0,152,0,152,0,,,,,,,152,,,1,1875.7559438757598,Y,d,go,d,1,0.42944742226973176,,,,,,,,,,,,,,,,,,83,001,23,w,Psychologie,2023-01-30_15h29.45.955,00_bat_bachelor,2022.2.4,59.95171894277215,
,,,,,,,,,,,,0,0,0,0,153,0,153,0,,,,,,,153,,,1,1877.2902573137544,X,l,go,None,0,,,,,,,,,,,,,,,,,,,83,001,23,w,Psychologie,2023-01-30_15h29.45.955,00_bat_bachelor,2022.2.4,59.95171894277215,
,,,,,,,,,,,,0,0,0,0,154,0,154,0,,,,,,,154,,,1,1879.091655228287,Y,d,go,d,1,0.308867601910606,,,,,,,,,,,,,,,,,,83,001,23,w,Psychologie,2023-01-30_15h29.45.955,00_bat_bachelor,2022.2.4,59.95171894277215,
,,,,,,,,,,,,0,0,0,0,155,0,155,0,,,,,,,155,,,1,1880.5095260560047,Y,None,nogo,None,1,,,,,,,,,,,,,,,,,,,83,001,23,w,Psychologie,2023-01-30_15h29.45.955,00_bat_bachelor,2022.2.4,59.95171894277215,
,,,,,,,,,,,,0,0,0,0,156,0,156,0,,,,,,,156,,,1,1882.3108565765433,X,l,go,l,1,0.2904050655197352,,,,,,,,,,,,,,,,,,83,001,23,w,Psychologie,2023-01-30_15h29.45.955,00_bat_bachelor,2022.2.4,59.95171894277215,
,,,,,,,,,,,,0,0,0,0,157,0,157,0,,,,,,,157,,,1,1883.7120006242767,Y,d,go,d,1,0.3928336217068136,,,,,,,,,,,,,,,,,,83,001,23,w,Psychologie,2023-01-30_15h29.45.955,00_bat_bachelor,2022.2.4,59.95171894277215,
,,,,,,,,,,,,0,0,0,0,158,0,158,0,,,,,,,158,,,1,1885.213151411619,X,l,go,l,1,0.3478750982321799,,,,,,,,,,,,,,,,,,83,001,23,w,Psychologie,2023-01-30_15h29.45.955,00_bat_bachelor,2022.2.4,59.95171894277215,
,,,,,,,,,,,,0,0,0,0,159,0,159,0,,,,,,,159,,,1,1886.664231920382,X,None,nogo,None,1,,1887.464615532197,,,,,,,,,,,,,,,,,83,001,23,w,Psychologie,2023-01-30_15h29.45.955,00_bat_bachelor,2022.2.4,59.95171894277215,
,,,,,,,,,,,,0,0,0,0,160,0,160,0,,,,,,,160,,,1,1888.4654693498742,Y,d,go,None,0,,,,,,,,,,,,,,,,,,,83,001,23,w,Psychologie,2023-01-30_15h29.45.955,00_bat_bachelor,2022.2.4,59.95171894277215,
,,,,,,,,,,,,0,0,0,0,161,0,161,0,,,,,,,161,,,1,1890.266988961259,X,l,go,None,0,,1891.067307118792,,,,,,,,,,,,,,,,,83,001,23,w,Psychologie,2023-01-30_15h29.45.955,00_bat_bachelor,2022.2.4,59.95171894277215,
,,,,,,,,,,,,0,0,0,0,162,0,162,0,,,,,,,162,,,1,1892.0683529365342,Y,d,go,d,1,0.26098253414966166,,,,,,,,,,,,,,,,,,83,001,23,w,Psychologie,2023-01-30_15h29.45.955,00_bat_bachelor,2022.2.4,59.95171894277215,
,,,,,,,,,,,,0,0,0,0,163,0,163,0,,,,,,,163,,,1,1893.4360429400112,Y,None,nogo,None,1,,1894.2366592790931,,,,,,,,,,,,,,,,,83,001,23,w,Psychologie,2023-01-30_15h29.45.955,00_bat_bachelor,2022.2.4,59.95171894277215,
,,,,,,,,,,,,0,0,0,0,164,0,164,0,,,,,,,164,,,1,1895.2374330968596,X,l,go,l,1,0.3395420112647116,,,,,,,,,,,,,,,,,,83,001,23,w,Psychologie,2023-01-30_15h29.45.955,00_bat_bachelor,2022.2.4,59.95171894277215,
,,,,,,,,,,,,0,0,0,0,165,0,165,0,,,,,,,165,,,1,1896.6885834236164,Y,d,go,d,1,0.34433425148017704,,,,,,,,,,,,,,,,,,83,001,23,w,Psychologie,2023-01-30_15h29.45.955,00_bat_bachelor,2022.2.4,59.95171894277215,
,,,,,,,,,,,,0,0,0,0,166,0,166,0,,,,,,,166,,,1,1898.1396804170217,Y,None,nogo,None,1,,1898.9404039075598,,,,,,,,,,,,,,,,,83,001,23,w,Psychologie,2023-01-30_15h29.45.955,00_bat_bachelor,2022.2.4,59.95171894277215,
,,,,,,,,,,,,0,0,0,0,167,0,167,0,,,,,,,167,,,1,1899.9410182102583,X,l,go,l,1,0.324114624876529,,,,,,,,,,,,,,,,,,83,001,23,w,Psychologie,2023-01-30_15h29.45.955,00_bat_bachelor,2022.2.4,59.95171894277215,
,,,,,,,,,,,,0,0,0,0,168,0,168,0,,,,,,,168,,,1,1901.3752133937087,Y,d,go,d,1,0.48959769611246884,,,,,,,,,,,,,,,,,,83,001,23,w,Psychologie,2023-01-30_15h29.45.955,00_bat_bachelor,2022.2.4,59.95171894277215,
,,,,,,,,,,,,0,0,0,0,169,0,169,0,,,,,,,169,,,1,1902.9764591627754,X,l,go,l,1,0.552507241256535,,,,,,,,,,,,,,,,,,83,001,23,w,Psychologie,2023-01-30_15h29.45.955,00_bat_bachelor,2022.2.4,59.95171894277215,
,,,,,,,,,,,,0,0,0,0,170,0,170,0,,,,,,,170,,,1,1904.6446450205985,Y,d,go,d,1,0.22851273184642196,,,,,,,,,,,,,,,,,,83,001,23,w,Psychologie,2023-01-30_15h29.45.955,00_bat_bachelor,2022.2.4,59.95171894277215,
,,,,,,,,,,,,0,0,0,0,171,0,171,0,,,,,,,171,,,1,1905.97892461624,Y,None,nogo,None,1,,,,,,,,,,,,,,,,,,,83,001,23,w,Psychologie,2023-01-30_15h29.45.955,00_bat_bachelor,2022.2.4,59.95171894277215,
,,,,,,,,,,,,0,0,0,0,172,0,172,0,,,,,,,172,,,1,1907.7801702884026,X,l,go,l,1,0.22850885288789868,,,,,,,,,,,,,,,,,,83,001,23,w,Psychologie,2023-01-30_15h29.45.955,00_bat_bachelor,2022.2.4,59.95171894277215,
,,,,,,,,,,,,0,0,0,0,173,0,173,0,,,,,,,173,,,1,1909.1145807928406,Y,d,go,d,1,0.27058495371602476,,,,,,,,,,,,,,,,,,83,001,23,w,Psychologie,2023-01-30_15h29.45.955,00_bat_bachelor,2022.2.4,59.95171894277215,
,,,,,,,,,,,,0,0,0,0,174,0,174,0,,,,,,,174,,,1,1910.4990557578858,X,l,go,l,1,0.3415129194036126,,,,,,,,,,,,,,,,,,83,001,23,w,Psychologie,2023-01-30_15h29.45.955,00_bat_bachelor,2022.2.4,59.95171894277215,
,,,,,,,,,,,,0,0,0,0,175,0,175,0,,,,,,,175,,,1,1911.9500378423836,Y,d,go,d,1,0.3469490378629416,,,,,,,,,,,,,,,,,,83,001,23,w,Psychologie,2023-01-30_15h29.45.955,00_bat_bachelor,2022.2.4,59.95171894277215,
,,,,,,,,,,,,0,0,0,0,176,0,176,0,,,,,,,176,,,1,1913.4011488964316,X,l,go,l,1,0.335807709954679,,,,,,,,,,,,,,,,,,83,001,23,w,Psychologie,2023-01-30_15h29.45.955,00_bat_bachelor,2022.2.4,59.95171894277215,
,,,,,,,,,,,,0,0,0,0,177,0,177,0,,,,,,,177,,,1,1914.8523496473208,X,None,nogo,None,1,,1915.6528137440328,,,,,,,,,,,,,,,,,83,001,23,w,Psychologie,2023-01-30_15h29.45.955,00_bat_bachelor,2022.2.4,59.95171894277215,
,,,,,,,,,,,,0,0,0,0,178,0,178,0,,,,,,,178,,,1,1916.6537722889334,Y,d,go,d,1,0.33140043960884213,,,,,,,,,,,,,,,,,,83,001,23,w,Psychologie,2023-01-30_15h29.45.955,00_bat_bachelor,2022.2.4,59.95171894277215,
,,,,,,,,,,,,0,0,0,0,179,0,179,0,,,,,,,179,,,1,1918.0882307449356,X,l,go,l,1,0.2726542861200869,,,,,,,,,,,,,,,,,,83,001,23,w,Psychologie,2023-01-30_15h29.45.955,00_bat_bachelor,2022.2.4,59.95171894277215,
,,,,,,,,,,,,0,0,0,0,180,0,180,0,,,,,,,180,,,1,1919.4725568615831,X,None,nogo,d,0,0.40923506836406887,,,,,,,,,,,,,,,,,,83,001,23,w,Psychologie,2023-01-30_15h29.45.955,00_bat_bachelor,2022.2.4,59.95171894277215,
,,,,,,,,,,,,0,0,0,0,181,0,181,0,,,,,,,181,,,1,1920.9902128530666,Y,d,go,None,0,,1921.7908228891902,,,,,,,,,,,,,,,,,83,001,23,w,Psychologie,2023-01-30_15h29.45.955,00_bat_bachelor,2022.2.4,59.95171894277215,
,,,,,,,,,,,,0,0,0,0,182,0,182,0,,,,,,,182,,,1,1922.7918367069215,X,l,go,l,1,0.30584990652278066,,,,,,,,,,,,,,,,,,83,001,23,w,Psychologie,2023-01-30_15h29.45.955,00_bat_bachelor,2022.2.4,59.95171894277215,
,,,,,,,,,,,,0,0,0,0,183,0,183,0,,,,,,,183,,,1,1924.2095339589287,X,None,nogo,None,1,,1925.0101279949304,,,,,,,,,,,,,,,,,83,001,23,w,Psychologie,2023-01-30_15h29.45.955,00_bat_bachelor,2022.2.4,59.95171894277215,
,,,,,,,,,,,,0,0,0,0,184,0,184,0,,,,,,,184,,,1,1926.0109624187462,Y,d,go,d,1,0.3337854081764817,,,,,,,,,,,,,,,,,,83,001,23,w,Psychologie,2023-01-30_15h29.45.955,00_bat_bachelor,2022.2.4,59.95171894277215,
,,,,,,,,,,,,0,0,0,0,185,0,185,0,,,,,,,185,,,1,1927.4454121475574,X,l,go,l,1,0.33972140518017113,,,,,,,,,,,,,,,,,,83,001,23,w,Psychologie,2023-01-30_15h29.45.955,00_bat_bachelor,2022.2.4,59.95171894277215,
,,,,,,,,,,,,0,0,0,0,186,0,186,0,,,,,,,186,,,1,1928.8964548381045,X,None,nogo,None,1,,1929.6970721466932,,,,,,,,,,,,,,,,,83,001,23,w,Psychologie,2023-01-30_15h29.45.955,00_bat_bachelor,2022.2.4,59.95171894277215,
,,,,,,,,,,,,0,0,0,0,187,0,187,0,,,,,,,187,,,1,1930.6976432979573,Y,d,go,d,1,0.4313485121820122,,,,,,,,,,,,,,,,,,83,001,23,w,Psychologie,2023-01-30_15h29.45.955,00_bat_bachelor,2022.2.4,59.95171894277215,
,,,,,,,,,,,,0,0,0,0,188,0,188,0,,,,,,,188,,,1,1932.2322888569906,X,l,go,l,1,0.4807366095483303,,,,,,,,,,,,,,,,,,83,001,23,w,Psychologie,2023-01-30_15h29.45.955,00_bat_bachelor,2022.2.4,59.95171894277215,
,,,,,,,,,,,,0,0,0,0,189,0,189,0,,,,,,,189,,,1,1933.8165886949282,X,None,nogo,None,1,,1934.617455215659,,,,,,,,,,,,,,,,,83,001,23,w,Psychologie,2023-01-30_15h29.45.955,00_bat_bachelor,2022.2.4,59.95171894277215,
,,,,,,,,,,,,0,0,0,0,190,0,190,0,,,,,,,190,,,1,1935.6181921849493,Y,d,go,d,1,0.4710129778832197,,,,,,,,,,,,,,,,,,83,001,23,w,Psychologie,2023-01-30_15h29.45.955,00_bat_bachelor,2022.2.4,59.95171894277215,
,,,,,,,,,,,,0,0,0,0,191,0,191,0,,,,,,,191,,,1,1937.2025356593076,X,l,go,l,1,0.3420952220913023,,,,,,,,,,,,,,,,,,83,001,23,w,Psychologie,2023-01-30_15h29.45.955,00_bat_bachelor,2022.2.4,59.95171894277215,
,,,,,,,,,,,,0,0,0,0,192,0,192,0,,,,,,,192,,,1,1938.6539250162896,X,None,nogo,d,0,0.28285403875634074,,,,,,,,,,,,,,,,,,83,001,23,w,Psychologie,2023-01-30_15h29.45.955,00_bat_bachelor,2022.2.4,59.95171894277215,
,,,,,,,,,,,,0,0,0,0,193,0,193,0,,,,,,,193,,,1,1940.038075132994,Y,d,go,d,1,0.5634177816100419,,,,,,,,,,,,,,,,,,83,001,23,w,Psychologie,2023-01-30_15h29.45.955,00_bat_bachelor,2022.2.4,59.95171894277215,
,,,,,,,,,,,,0,0,0,0,194,0,194,0,,,,,,,194,,,1,1941.7061727484688,X,l,go,l,1,0.5751098969485611,,,,,,,,,,,,,,,,,,83,001,23,w,Psychologie,2023-01-30_15h29.45.955,00_bat_bachelor,2022.2.4,59.95171894277215,
,,,,,,,,,,,,0,0,0,0,195,0,195,0,,,,,,,195,,,1,1943.3907585982233,Y,d,go,d,1,0.4258197876624763,,,,,,,,,,,,,,,,,,83,001,23,w,Psychologie,2023-01-30_15h29.45.955,00_bat_bachelor,2022.2.4,59.95171894277215,
,,,,,,,,,,,,0,0,0,0,196,0,196,0,,,,,,,196,,,1,1944.9252751877066,Y,None,nogo,None,1,,,,,,,,,,,,,,,,,,,83,001,23,w,Psychologie,2023-01-30_15h29.45.955,00_bat_bachelor,2022.2.4,59.95171894277215,
,,,,,,,,,,,,0,0,0,0,197,0,197,0,,,,,,,197,,,1,1946.7266314050648,X,l,go,l,1,0.2902571866288781,,,,,,,,,,,,,,,,,,83,001,23,w,Psychologie,2023-01-30_15h29.45.955,00_bat_bachelor,2022.2.4,59.95171894277215,
,,,,,,,,,,,,0,0,0,0,198,0,198,0,,,,,,,198,,,1,1948.1276867259294,Y,d,go,d,1,0.4092282806523144,,,,,,,,,,,,,,,,,,83,001,23,w,Psychologie,2023-01-30_15h29.45.955,00_bat_bachelor,2022.2.4,59.95171894277215,
,,,,,,,,,,,,0,0,0,0,199,0,199,0,,,,,,,199,,,1,1949.6455783536658,Y,None,nogo,None,1,,1950.4461573592853,,,,,,,,,,,,,,,,,83,001,23,w,Psychologie,2023-01-30_15h29.45.955,00_bat_bachelor,2022.2.4,59.95171894277215,
,,,,,,,,,,,,0,0,0,0,200,0,200,0,,,,,,,200,,,1,1951.4469428134616,X,l,go,l,1,0.41770294308662415,,,,,,,,,,,,,,,,,,83,001,23,w,Psychologie,2023-01-30_15h29.45.955,00_bat_bachelor,2022.2.4,59.95171894277215,
,,,,,,,,,,,,0,0,0,0,201,0,201,0,,,,,,,201,,,1,1952.9814739483409,Y,d,go,d,1,0.35502660972997546,,,,,,,,,,,,,,,,,,83,001,23,w,Psychologie,2023-01-30_15h29.45.955,00_bat_bachelor,2022.2.4,59.95171894277215,
,,,,,,,,,,,,0,0,0,0,202,0,202,0,,,,,,,202,,,1,1954.4492220850661,X,l,go,l,1,0.3274406837299466,,,,,,,,,,,,,,,,,,83,001,23,w,Psychologie,2023-01-30_15h29.45.955,00_bat_bachelor,2022.2.4,59.95171894277215,
,,,,,,,,,,,,0,0,0,0,203,0,203,0,,,,,,,203,,,1,1955.8836722986307,X,None,nogo,None,1,,1956.684229486389,,,,,,,,,,,,,,,,,83,001,23,w,Psychologie,2023-01-30_15h29.45.955,00_bat_bachelor,2022.2.4,59.95171894277215,
,,,,,,,,,,,,0,0,0,0,204,0,204,0,,,,,,,204,,,1,1957.684749243781,Y,d,go,d,1,0.34050540486350656,,,,,,,,,,,,,,,,,,83,001,23,w,Psychologie,2023-01-30_15h29.45.955,00_bat_bachelor,2022.2.4,59.95171894277215,
,,,,,,,,,,,,0,0,0,0,205,0,205,0,,,,,,,205,,,1,1959.136153145926,X,l,go,l,1,0.36112551600672305,,,,,,,,,,,,,,,,,,83,001,23,w,Psychologie,2023-01-30_15h29.45.955,00_bat_bachelor,2022.2.4,59.95171894277215,
,,,,,,,,,,,,0,0,0,0,206,0,206,0,,,,,,,206,,,1,1960.6037839495111,Y,d,go,d,1,0.4933848457876593,,,,,,,,,,,,,,,,,,83,001,23,w,Psychologie,2023-01-30_15h29.45.955,00_bat_bachelor,2022.2.4,59.95171894277215,
,,,,,,,,,,,,0,0,0,0,207,0,207,0,,,,,,,207,,,1,1962.2049254763406,X,l,go,l,1,0.33180868183262646,,,,,,,,,,,,,,,,,,83,001,23,w,Psychologie,2023-01-30_15h29.45.955,00_bat_bachelor,2022.2.4,59.95171894277215,
,,,,,,,,,,,,0,0,0,0,208,0,208,0,,,,,,,208,,,1,1963.6395090231672,Y,d,go,d,1,0.4336675414815545,,,,,,,,,,,,,,,,,,83,001,23,w,Psychologie,2023-01-30_15h29.45.955,00_bat_bachelor,2022.2.4,59.95171894277215,
,,,,,,,,,,,,0,0,0,0,209,0,209,0,,,,,,,209,,,1,1965.1740265821572,X,l,go,l,1,0.25874592922627926,,,,,,,,,,,,,,,,,,83,001,23,w,Psychologie,2023-01-30_15h29.45.955,00_bat_bachelor,2022.2.4,59.95171894277215,
,,,,,,,,,,,,0,0,0,0,210,0,210,0,,,,,,,210,,,1,1966.5415968282614,Y,d,go,d,1,0.39474489353597164,,,,,,,,,,,,,,,,,,83,001,23,w,Psychologie,2023-01-30_15h29.45.955,00_bat_bachelor,2022.2.4,59.95171894277215,
,,,,,,,,,,,,0,0,0,0,211,0,211,0,,,,,,,211,,,1,1968.0428882215638,X,l,go,l,1,0.3820646572858095,,,,,,,,,,,,,,,,,,83,001,23,w,Psychologie,2023-01-30_15h29.45.955,00_bat_bachelor,2022.2.4,59.95171894277215,
,,,,,,,,,,,,0,0,0,0,212,0,212,0,,,,,,,212,,,1,1969.5274242290761,X,None,nogo,None,1,,1970.3279295379762,,,,,,,,,,,,,,,,,83,001,23,w,Psychologie,2023-01-30_15h29.45.955,00_bat_bachelor,2022.2.4,59.95171894277215,
,,,,,,,,,,,,0,0,0,0,213,0,213,0,,,,,,,213,,,1,1971.3287562041078,Y,d,go,d,1,0.4241586974821985,,,,,,,,,,,,,,,,,,83,001,23,w,Psychologie,2023-01-30_15h29.45.955,00_bat_bachelor,2022.2.4,59.95171894277215,
,,,,,,,,,,,,0,0,0,0,214,0,214,0,,,,,,,214,,,1,1972.8633023691364,X,l,go,l,1,0.3297214100603014,,,,,,,,,,,,,,,,,,83,001,23,w,Psychologie,2023-01-30_15h29.45.955,00_bat_bachelor,2022.2.4,59.95171894277215,
,,,,,,,,,,,,0,0,0,0,215,0,215,0,,,,,,,215,,,1,1974.2976289466023,X,None,nogo,None,1,,,,,,,,,,,,,,,,,,,83,001,23,w,Psychologie,2023-01-30_15h29.45.955,00_bat_bachelor,2022.2.4,59.95171894277215,
,,,,,,,,,,,,0,0,0,0,216,0,216,0,,,,,,,216,,,1,1976.0990874669515,Y,d,go,d,1,0.3736457524355501,,,,,,,,,,,,,,,,,,83,001,23,w,Psychologie,2023-01-30_15h29.45.955,00_bat_bachelor,2022.2.4,59.95171894277215,
,,,,,,,,,,,,0,0,0,0,217,0,217,0,,,,,,,217,,,1,1977.583522625966,X,l,go,l,1,0.39327143994159997,,,,,,,,,,,,,,,,,,83,001,23,w,Psychologie,2023-01-30_15h29.45.955,00_bat_bachelor,2022.2.4,59.95171894277215,
,,,,,,,,,,,,0,0,0,0,218,0,218,0,,,,,,,218,,,1,1979.0846326861065,X,None,nogo,None,1,,1979.8852892676368,,,,,,,,,,,,,,,,,83,001,23,w,Psychologie,2023-01-30_15h29.45.955,00_bat_bachelor,2022.2.4,59.95171894277215,
,,,,,,,,,,,,0,0,0,0,219,0,219,0,,,,,,,219,,,1,1980.886056782445,Y,d,go,d,1,0.4187453668564558,,,,,,,,,,,,,,,,,,83,001,23,w,Psychologie,2023-01-30_15h29.45.955,00_bat_bachelor,2022.2.4,59.95171894277215,
,,,,,,,,,,,,0,0,0,0,220,0,220,0,,,,,,,220,,,1,1982.420643189922,X,l,go,l,1,0.34033861686475575,,,,,,,,,,,,,,,,,,83,001,23,w,Psychologie,2023-01-30_15h29.45.955,00_bat_bachelor,2022.2.4,59.95171894277215,
,,,,,,,,,,,,0,0,0,0,221,0,221,0,,,,,,,221,,,1,1983.8716412743088,Y,d,go,d,1,0.3620316975284368,,,,,,,,,,,,,,,,,,83,001,23,w,Psychologie,2023-01-30_15h29.45.955,00_bat_bachelor,2022.2.4,59.95171894277215,
,,,,,,,,,,,,0,0,0,0,222,0,222,0,,,,,,,222,,,1,1985.339260441484,X,l,go,l,1,0.301420817617327,,,,,,,,,,,,,,,,,,83,001,23,w,Psychologie,2023-01-30_15h29.45.955,00_bat_bachelor,2022.2.4,59.95171894277215,
,,,,,,,,,,,,0,0,0,0,223,0,223,0,,,,,,,223,,,1,1986.756976602599,Y,d,go,d,1,0.3884200481697917,,,,,,,,,,,,,,,,,,83,001,23,w,Psychologie,2023-01-30_15h29.45.955,00_bat_bachelor,2022.2.4,59.95171894277215,
,,,,,,,,,,,,0,0,0,0,224,0,224,0,,,,,,,224,,,1,1988.2583591474686,Y,None,nogo,None,1,,1989.0589876077138,,,,,,,,,,,,,,,,,83,001,23,w,Psychologie,2023-01-30_15h29.45.955,00_bat_bachelor,2022.2.4,59.95171894277215,
,,,,,,,,,,,,0,0,0,0,225,0,225,0,,,,,,,225,,,1,1990.059731849702,X,l,go,l,1,0.3500947335269302,,,,,,,,,,,,,,,,,,83,001,23,w,Psychologie,2023-01-30_15h29.45.955,00_bat_bachelor,2022.2.4,59.95171894277215,
,,,,,,,,,,,,0,0,0,0,226,0,226,0,,,,,,,226,,,1,1991.5108128432184,Y,d,go,d,1,0.3866193217691034,,,,,,,,,,,,,,,,,,83,001,23,w,Psychologie,2023-01-30_15h29.45.955,00_bat_bachelor,2022.2.4,59.95171894277215,
,,,,,,,,,,,,0,0,0,0,227,0,227,0,,,,,,,227,,,1,1993.0119296910707,Y,None,nogo,None,1,,1993.812307969667,,,,,,,,,,,,,,,,,83,001,23,w,Psychologie,2023-01-30_15h29.45.955,00_bat_bachelor,2022.2.4,59.95171894277215,
,,,,,,,,,,,,0,0,0,0,228,0,228,0,,,,,,,228,,,1,1994.8130303935613,X,l,go,l,1,0.38006756734102964,,,,,,,,,,,,,,,,,,83,001,23,w,Psychologie,2023-01-30_15h29.45.955,00_bat_bachelor,2022.2.4,59.95171894277215,
,,,,,,,,,,,,0,0,0,0,229,0,229,0,,,,,,,229,,,1,1996.2977700373158,Y,d,go,d,1,0.41585615603253245,,,,,,,,,,,,,,,,,,83,001,23,w,Psychologie,2023-01-30_15h29.45.955,00_bat_bachelor,2022.2.4,59.95171894277215,
,,,,,,,,,,,,0,0,0,0,230,0,230,0,,,,,,,230,,,1,1997.8156345135067,Y,None,nogo,None,1,,1998.6161761858966,,,,,,,,,,,,,,,,,83,001,23,w,Psychologie,2023-01-30_15h29.45.955,00_bat_bachelor,2022.2.4,59.95171894277215,
,,,,,,,,,,,,0,0,0,0,231,0,231,0,,,,,,,231,,,1,1999.61681957962,X,l,go,l,1,0.3607638191897422,,,,,,,,,,,,,,,,,,83,001,23,w,Psychologie,2023-01-30_15h29.45.955,00_bat_bachelor,2022.2.4,59.95171894277215,
,,,,,,,,,,,,0,0,0,0,232,0,232,0,,,,,,,232,,,1,2001.0846491709817,Y,d,go,d,1,0.3811099911108613,,,,,,,,,,,,,,,,,,83,001,23,w,Psychologie,2023-01-30_15h29.45.955,00_bat_bachelor,2022.2.4,59.95171894277215,
,,,,,,,,,,,,0,0,0,0,233,0,233,0,,,,,,,233,,,1,2002.5690877239686,X,l,go,l,1,0.38440550467930734,,,,,,,,,,,,,,,,,,83,001,23,w,Psychologie,2023-01-30_15h29.45.955,00_bat_bachelor,2022.2.4,59.95171894277215,
,,,,,,,,,,,,0,0,0,0,234,0,234,0,,,,,,,234,,,1,2004.0704780262895,Y,d,go,d,1,0.3069146331399679,,,,,,,,,,,,,,,,,,83,001,23,w,Psychologie,2023-01-30_15h29.45.955,00_bat_bachelor,2022.2.4,59.95171894277215,
,,,,,,,,,,,,0,0,0,0,235,0,235,0,,,,,,,235,,,1,2005.4879852179438,X,l,go,l,1,0.3287866225000471,,,,,,,,,,,,,,,,,,83,001,23,w,Psychologie,2023-01-30_15h29.45.955,00_bat_bachelor,2022.2.4,59.95171894277215,
,,,,,,,,,,,,0,0,0,0,236,0,236,0,,,,,,,236,,,1,2006.9225134919398,Y,d,go,d,1,0.25482156756334007,,,,,,,,,,,,,,,,,,83,001,23,w,Psychologie,2023-01-30_15h29.45.955,00_bat_bachelor,2022.2.4,59.95171894277215,
,,,,,,,,,,,,0,0,0,0,237,0,237,0,,,,,,,237,,,1,2008.2902442228515,Y,None,nogo,None,1,,2009.090735471109,,,,,,,,,,,,,,,,,83,001,23,w,Psychologie,2023-01-30_15h29.45.955,00_bat_bachelor,2022.2.4,59.95171894277215,
,,,,,,,,,,,,0,0,0,0,238,0,238,0,,,,,,,238,,,1,2010.091442864621,Y,None,nogo,None,1,,2010.8923404158559,,,,,,,,,,,,,,,,,83,001,23,w,Psychologie,2023-01-30_15h29.45.955,00_bat_bachelor,2022.2.4,59.95171894277215,
,,,,,,,,,,,,0,0,0,0,239,0,239,0,,,,,,,239,,,1,2011.8929809003603,X,l,go,l,1,0.5001058122143149,,,,,,,,,,,,,,,,,,83,001,23,w,Psychologie,2023-01-30_15h29.45.955,00_bat_bachelor,2022.2.4,59.95171894277215,
,,,,,,,,,,,,0,0,0,0,240,0,240,0,,,,,,,240,,,1,2013.4941878814716,Y,d,go,d,1,0.5945784936193377,,,,,,,,,,,,,,,,,,83,001,23,w,Psychologie,2023-01-30_15h29.45.955,00_bat_bachelor,2022.2.4,59.95171894277215,
,,,,,,,,,,,,0,0,0,0,241,0,241,0,,,,,,,241,,,1,2015.1954796626233,X,l,go,l,1,0.5252306486945599,,,,,,,,,,,,,,,,,,83,001,23,w,Psychologie,2023-01-30_15h29.45.955,00_bat_bachelor,2022.2.4,59.95171894277215,
,,,,,,,,,,,,0,0,0,0,242,0,242,0,,,,,,,242,,,1,2016.8300907488447,X,None,nogo,None,1,,2017.6306954517495,,,,,,,,,,,,,,,,,83,001,23,w,Psychologie,2023-01-30_15h29.45.955,00_bat_bachelor,2022.2.4,59.95171894277215,
,,,,,,,,,,,,0,0,0,0,243,0,243,0,,,,,,,243,,,1,2018.6315138754435,Y,d,go,d,1,0.4506183210760355,,,,,,,,,,,,,,,,,,83,001,23,w,Psychologie,2023-01-30_15h29.45.955,00_bat_bachelor,2022.2.4,59.95171894277215,
,,,,,,,,,,,,0,0,0,0,244,0,244,0,,,,,,,244,,,1,2020.1821570023894,X,l,go,l,1,0.4181843972764909,,,,,,,,,,,,,,,,,,83,001,23,w,Psychologie,2023-01-30_15h29.45.955,00_bat_bachelor,2022.2.4,59.95171894277215,
,,,,,,,,,,,,0,0,0,0,245,0,245,0,,,,,,,245,,,1,2021.7169489855878,X,None,nogo,None,1,,,,,,,,,,,,,,,,,,,83,001,23,w,Psychologie,2023-01-30_15h29.45.955,00_bat_bachelor,2022.2.4,59.95171894277215,
,,,,,,,,,,,,0,0,0,0,246,0,246,0,,,,,,,246,,,1,2023.5185340514872,Y,d,go,d,1,0.586010740371421,,,,,,,,,,,,,,,,,,83,001,23,w,Psychologie,2023-01-30_15h29.45.955,00_bat_bachelor,2022.2.4,59.95171894277215,
,,,,,,,,,,,,0,0,0,0,247,0,247,0,,,,,,,247,,,1,2025.219582923688,X,l,go,l,1,0.34093352570198476,,,,,,,,,,,,,,,,,,83,001,23,w,Psychologie,2023-01-30_15h29.45.955,00_bat_bachelor,2022.2.4,59.95171894277215,
,,,,,,,,,,,,0,0,0,0,248,0,248,0,,,,,,,248,,,1,2026.6705218565185,X,None,nogo,d,0,0.3303769249469042,,,,,,,,,,,,,,,,,,83,001,23,w,Psychologie,2023-01-30_15h29.45.955,00_bat_bachelor,2022.2.4,59.95171894277215,
,,,,,,,,,,,,0,0,0,0,249,0,249,0,,,,,,,249,,,1,2028.1051500095055,Y,d,go,d,1,0.6243670852854848,,,,,,,,,,,,,,,,,,83,001,23,w,Psychologie,2023-01-30_15h29.45.955,00_bat_bachelor,2022.2.4,59.95171894277215,
,,,,,,,,,,,,1,0,1,0,0,0,0,0,,,,,,,0,,,0.2,2046.235841824906,X,l,go,l,1,0.5897256473544985,,,,,,,,,2028.8445969237946,space,17.16735979169607,,,,,,,83,001,23,w,Psychologie,2023-01-30_15h29.45.955,00_bat_bachelor,2022.2.4,59.95171894277215,
,,,,,,,,,,,,1,0,1,0,1,0,1,0,,,,,,,1,,,0.2,2047.1367194487248,Y,d,go,d,1,0.5038391437847167,,,,,,,,,,,,,,,,,,83,001,23,w,Psychologie,2023-01-30_15h29.45.955,00_bat_bachelor,2022.2.4,59.95171894277215,
,,,,,,,,,,,,1,0,1,0,2,0,2,0,,,,,,,2,,,0.2,2047.9539302040357,X,l,go,l,1,0.3916918041650206,,,,,,,,,,,,,,,,,,83,001,23,w,Psychologie,2023-01-30_15h29.45.955,00_bat_bachelor,2022.2.4,59.95171894277215,
,,,,,,,,,,,,1,0,1,0,3,0,3,0,,,,,,,3,,,0.2,2048.654129137285,Y,d,go,d,1,0.45837443857453763,,,,,,,,,,,,,,,,,,83,001,23,w,Psychologie,2023-01-30_15h29.45.955,00_bat_bachelor,2022.2.4,59.95171894277215,
,,,,,,,,,,,,1,0,1,0,4,0,4,0,,,,,,,4,,,0.2,2049.4210790684447,X,l,go,l,1,0.37997544603422284,,,,,,,,,,,,,,,,,,83,001,23,w,Psychologie,2023-01-30_15h29.45.955,00_bat_bachelor,2022.2.4,59.95171894277215,
,,,,,,,,,,,,1,0,1,0,5,0,5,0,,,,,,,5,,,0.2,2050.105085039977,Y,d,go,d,1,0.40008646668866277,,,,,,,,,,,,,,,,,,83,001,23,w,Psychologie,2023-01-30_15h29.45.955,00_bat_bachelor,2022.2.4,59.95171894277215,
,,,,,,,,,,,,1,0,1,0,6,0,6,0,,,,,,,6,,,0.2,2050.8059239727445,Y,None,nogo,None,1,,,,,,,,,,,,,,,,,,,83,001,23,w,Psychologie,2023-01-30_15h29.45.955,00_bat_bachelor,2022.2.4,59.95171894277215,
,,,,,,,,,,,,1,0,1,0,7,0,7,0,,,,,,,7,,,0.2,2051.8065009422135,Y,None,nogo,None,1,,2052.607157523744,,,,,,,,,,,,,,,,,83,001,23,w,Psychologie,2023-01-30_15h29.45.955,00_bat_bachelor,2022.2.4,59.95171894277215,
,,,,,,,,,,,,1,0,1,0,8,0,8,0,,,,,,,8,,,0.2,2052.8072873661295,X,l,go,l,1,0.5305445853155106,,,,,,,,,,,,,,,,,,83,001,23,w,Psychologie,2023-01-30_15h29.45.955,00_bat_bachelor,2022.2.4,59.95171894277215,
,,,,,,,,,,,,1,0,1,0,9,0,9,0,,,,,,,9,,,0.2,2053.641168173868,Y,d,go,d,1,0.4320607543922961,,,,,,,,,,,,,,,,,,83,001,23,w,Psychologie,2023-01-30_15h29.45.955,00_bat_bachelor,2022.2.4,59.95171894277215,
,,,,,,,,,,,,1,0,1,0,10,0,10,0,,,,,,,10,,,0.2,2054.374856545357,X,l,go,l,1,0.6101707285270095,,,,,,,,,,,,,,,,,,83,001,23,w,Psychologie,2023-01-30_15h29.45.955,00_bat_bachelor,2022.2.4,59.95171894277215,
,,,,,,,,,,,,1,0,1,0,11,0,11,0,,,,,,,11,,,0.2,2055.2922194947023,X,None,nogo,None,1,,,,,,,,,,,,,,,,,,,83,001,23,w,Psychologie,2023-01-30_15h29.45.955,00_bat_bachelor,2022.2.4,59.95171894277215,
,,,,,,,,,,,,1,0,1,0,12,0,12,0,,,,,,,12,,,0.2,2056.2933254335076,Y,d,go,d,1,0.46841516089625657,,,,,,,,,,,,,,,,,,83,001,23,w,Psychologie,2023-01-30_15h29.45.955,00_bat_bachelor,2022.2.4,59.95171894277215,
,,,,,,,,,,,,1,0,1,0,13,0,13,0,,,,,,,13,,,0.2,2057.077016205061,X,l,go,None,0,,,,,,,,,,,,,,,,,,,83,001,23,w,Psychologie,2023-01-30_15h29.45.955,00_bat_bachelor,2022.2.4,59.95171894277215,
,,,,,,,,,,,,1,0,1,0,14,0,14,0,,,,,,,14,,,0.2,2058.077931113541,Y,d,go,d,1,0.587378497235477,,,,,,,,,,,,,,,,,,83,001,23,w,Psychologie,2023-01-30_15h29.45.955,00_bat_bachelor,2022.2.4,59.95171894277215,
,,,,,,,,,,,,1,0,1,0,15,0,15,0,,,,,,,15,,,0.2,2058.9786681314,X,l,go,l,1,0.5023792656138539,,,,,,,,,,,,,,,,,,83,001,23,w,Psychologie,2023-01-30_15h29.45.955,00_bat_bachelor,2022.2.4,59.95171894277215,
,,,,,,,,,,,,1,0,1,0,16,0,16,0,,,,,,,16,,,0.2,2059.795836705016,Y,d,go,d,1,0.37343290401622653,,,,,,,,,,,,,,,,,,83,001,23,w,Psychologie,2023-01-30_15h29.45.955,00_bat_bachelor,2022.2.4,59.95171894277215,
,,,,,,,,,,,,1,0,1,0,17,0,17,0,,,,,,,17,,,0.2,2060.479878555052,X,l,go,l,1,0.31314299372024834,,,,,,,,,,,,,,,,,,83,001,23,w,Psychologie,2023-01-30_15h29.45.955,00_bat_bachelor,2022.2.4,59.95171894277215,
,,,,,,,,,,,,1,0,1,0,18,0,18,0,,,,,,,18,,,0.2,2061.0969875892624,Y,d,go,d,1,0.3367158309556544,,,,,,,,,,,,,,,,,,83,001,23,w,Psychologie,2023-01-30_15h29.45.955,00_bat_bachelor,2022.2.4,59.95171894277215,
,,,,,,,,,,,,1,0,1,0,19,0,19,0,,,,,,,19,,,0.2,2061.7476156374905,X,l,go,l,1,0.39028283511288464,,,,,,,,,,,,,,,,,,83,001,23,w,Psychologie,2023-01-30_15h29.45.955,00_bat_bachelor,2022.2.4,59.95171894277215,
,,,,,,,,,,,,1,0,1,0,20,0,20,0,,,,,,,20,,,0.2,2062.4479871767107,X,None,nogo,d,0,0.296867607627064,,,,,,,,,,,,,,,,,,83,001,23,w,Psychologie,2023-01-30_15h29.45.955,00_bat_bachelor,2022.2.4,59.95171894277215,
,,,,,,,,,,,,1,0,1,0,21,0,21,0,,,,,,,21,,,0.2,2063.0484436128754,Y,d,go,None,0,,,,,,,,,,,,,,,,,,,83,001,23,w,Psychologie,2023-01-30_15h29.45.955,00_bat_bachelor,2022.2.4,59.95171894277215,
,,,,,,,,,,,,1,0,1,0,22,0,22,0,,,,,,,22,,,0.2,2064.0492581578437,X,l,go,l,1,0.3283085620496422,,,,,,,,,,,,,,,,,,83,001,23,w,Psychologie,2023-01-30_15h29.45.955,00_bat_bachelor,2022.2.4,59.95171894277215,
,,,,,,,,,,,,1,0,1,0,23,0,23,0,,,,,,,23,,,0.2,2064.682850093115,X,None,nogo,l,0,0.6065833363682032,,,,,,,,,,,,,,,,,,83,001,23,w,Psychologie,2023-01-30_15h29.45.955,00_bat_bachelor,2022.2.4,59.95171894277215,
,,,,,,,,,,,,1,0,1,0,24,0,24,0,,,,,,,24,,,0.2,2065.600417163456,Y,d,go,d,1,0.6648974900599569,,,,,,,,,,,,,,,,,,83,001,23,w,Psychologie,2023-01-30_15h29.45.955,00_bat_bachelor,2022.2.4,59.95171894277215,
,,,,,,,,,,,,1,0,1,0,25,0,25,0,,,,,,,25,,,0.2,2066.56760651269,X,l,go,l,1,0.4010697389021516,,,,,,,,,,,,,,,,,,83,001,23,w,Psychologie,2023-01-30_15h29.45.955,00_bat_bachelor,2022.2.4,59.95171894277215,
,,,,,,,,,,,,1,0,1,0,26,0,26,0,,,,,,,26,,,0.2,2067.2848187708296,X,None,nogo,None,1,,,,,,,,,,,,,,,,,,,83,001,23,w,Psychologie,2023-01-30_15h29.45.955,00_bat_bachelor,2022.2.4,59.95171894277215,
,,,,,,,,,,,,1,0,1,0,27,0,27,0,,,,,,,27,,,0.2,2068.2858316188212,Y,d,go,None,0,,,,,,,,,,,,,,,,,,,83,001,23,w,Psychologie,2023-01-30_15h29.45.955,00_bat_bachelor,2022.2.4,59.95171894277215,
,,,,,,,,,,,,1,0,1,0,28,0,28,0,,,,,,,28,,,0.2,2069.2865273761563,X,l,go,l,1,0.19478280865587294,,,,,,,,,,,,,,,,,,83,001,23,w,Psychologie,2023-01-30_15h29.45.955,00_bat_bachelor,2022.2.4,59.95171894277215,
,,,,,,,,,,,,1,0,1,0,29,0,29,0,,,,,,,29,,,0.2,2069.7869164668955,X,None,nogo,None,1,,,,,,,,,,,,,,,,,,,83,001,23,w,Psychologie,2023-01-30_15h29.45.955,00_bat_bachelor,2022.2.4,59.95171894277215,
,,,,,,,,,,,,1,0,1,0,30,0,30,0,,,,,,,30,,,0.2,2070.787573436275,Y,d,go,None,0,,2071.588277532952,,,,,,,,,,,,,,,,,83,001,23,w,Psychologie,2023-01-30_15h29.45.955,00_bat_bachelor,2022.2.4,59.95171894277215,
,,,,,,,,,,,,1,0,1,0,31,0,31,0,,,,,,,31,,,0.2,2071.7884514965117,X,l,go,l,1,0.3323778936173767,,,,,,,,,,,,,,,,,,83,001,23,w,Psychologie,2023-01-30_15h29.45.955,00_bat_bachelor,2022.2.4,59.95171894277215,
,,,,,,,,,,,,1,0,1,0,32,0,32,0,,,,,,,32,,,0.2,2072.4223382193595,X,None,nogo,None,1,,,,,,,,,,,,,,,,,,,83,001,23,w,Psychologie,2023-01-30_15h29.45.955,00_bat_bachelor,2022.2.4,59.95171894277215,
,,,,,,,,,,,,1,0,1,0,33,0,33,0,,,,,,,33,,,0.2,2073.4228991887067,Y,d,go,d,1,0.18677408550865948,,,,,,,,,,,,,,,,,,83,001,23,w,Psychologie,2023-01-30_15h29.45.955,00_bat_bachelor,2022.2.4,59.95171894277215,
,,,,,,,,,,,,1,0,1,0,34,0,34,0,,,,,,,34,,,0.2,2073.9233580976725,X,l,go,l,1,0.37349787377752364,,,,,,,,,,,,,,,,,,83,001,23,w,Psychologie,2023-01-30_15h29.45.955,00_bat_bachelor,2022.2.4,59.95171894277215,
,,,,,,,,,,,,1,0,1,0,35,0,35,0,,,,,,,35,,,0.2,2074.607058129739,Y,d,go,None,0,,2075.4076376203448,,,,,,,,,,,,,,,,,83,001,23,w,Psychologie,2023-01-30_15h29.45.955,00_bat_bachelor,2022.2.4,59.95171894277215,
,,,,,,,,,,,,1,0,1,0,36,0,36,0,,,,,,,36,,,0.2,2075.6080254020635,Y,None,nogo,None,1,,,,,,,,,,,,,,,,,,,83,001,23,w,Psychologie,2023-01-30_15h29.45.955,00_bat_bachelor,2022.2.4,59.95171894277215,
,,,,,,,,,,,,1,0,1,0,37,0,37,0,,,,,,,37,,,0.2,2076.608566492796,X,l,go,None,0,,2077.4094330135267,,,,,,,,,,,,,,,,,83,001,23,w,Psychologie,2023-01-30_15h29.45.955,00_bat_bachelor,2022.2.4,59.95171894277215,
,,,,,,,,,,,,1,0,1,0,38,0,38,0,,,,,,,38,,,0.2,2077.609551704256,Y,d,go,d,1,0.3030193622689694,,,,,,,,,,,,,,,,,,83,001,23,w,Psychologie,2023-01-30_15h29.45.955,00_bat_bachelor,2022.2.4,59.95171894277215,
,,,,,,,,,,,,1,0,1,0,39,0,39,0,,,,,,,39,,,0.2,2078.2266554052476,X,l,go,None,0,,,,,,,,,,,,,,,,,,,83,001,23,w,Psychologie,2023-01-30_15h29.45.955,00_bat_bachelor,2022.2.4,59.95171894277215,
,,,,,,,,,,,,1,0,1,0,40,0,40,0,,,,,,,40,,,0.2,2079.227423404809,Y,d,go,l,0,0.07804250158369541,,,,,,,,,,,,,,,,,,83,001,23,w,Psychologie,2023-01-30_15h29.45.955,00_bat_bachelor,2022.2.4,59.95171894277215,
,,,,,,,,,,,,1,0,1,0,41,0,41,0,,,,,,,41,,,0.2,2079.610822976567,Y,None,nogo,None,1,,,,,,,,,,,,,,,,,,,83,001,23,w,Psychologie,2023-01-30_15h29.45.955,00_bat_bachelor,2022.2.4,59.95171894277215,
,,,,,,,,,,,,1,0,1,0,42,0,42,0,,,,,,,42,,,0.2,2080.611851339694,X,l,go,None,0,,,,,,,,,,,,,,,,,,,83,001,23,w,Psychologie,2023-01-30_15h29.45.955,00_bat_bachelor,2022.2.4,59.95171894277215,
,,,,,,,,,,,,1,0,1,0,43,0,43,0,,,,,,,43,,,0.2,2081.6125941271894,Y,d,go,None,0,,2082.4132987086195,,,,,,,,,,,,,,,,,83,001,23,w,Psychologie,2023-01-30_15h29.45.955,00_bat_bachelor,2022.2.4,59.95171894277215,
,,,,,,,,,,,,1,0,1,0,44,0,44,0,,,,,,,44,,,0.2,2082.613218611572,X,l,go,None,0,,2083.413977496093,,,,,,,,,,,,,,,,,83,001,23,w,Psychologie,2023-01-30_15h29.45.955,00_bat_bachelor,2022.2.4,59.95171894277215,
,,,,,,,,,,,,1,0,1,0,45,0,45,0,,,,,,,45,,,0.2,2083.6139153386466,Y,d,go,None,0,,,,,,,,,,,,,,,,,,,83,001,23,w,Psychologie,2023-01-30_15h29.45.955,00_bat_bachelor,2022.2.4,59.95171894277215,
,,,,,,,,,,,,1,0,1,0,46,0,46,0,,,,,,,46,,,0.2,2084.6149354593363,Y,None,nogo,d,0,0.5623646911699325,,,,,,,,,,,,,,,,,,83,001,23,w,Psychologie,2023-01-30_15h29.45.955,00_bat_bachelor,2022.2.4,59.95171894277215,
,,,,,,,,,,,,1,0,1,0,47,0,47,0,,,,,,,47,,,0.2,2085.4821917661466,X,l,go,None,0,,,,,,,,,,,,,,,,,,,83,001,23,w,Psychologie,2023-01-30_15h29.45.955,00_bat_bachelor,2022.2.4,59.95171894277215,
,,,,,,,,,,,,1,0,1,0,48,0,48,0,,,,,,,48,,,0.2,2086.482972856611,Y,d,go,d,1,0.5020558719988912,,,,,,,,,,,,,,,,,,83,001,23,w,Psychologie,2023-01-30_15h29.45.955,00_bat_bachelor,2022.2.4,59.95171894277215,
,,,,,,,,,,,,1,0,1,0,49,0,49,0,,,,,,,49,,,0.2,2087.299922763603,X,l,go,None,0,,,,,,,,,,,,,,,,,,,83,001,23,w,Psychologie,2023-01-30_15h29.45.955,00_bat_bachelor,2022.2.4,59.95171894277215,
,,,,,,,,,,,,1,0,1,0,50,0,50,0,,,,,,,50,,,0.2,2088.3009734298103,Y,d,go,l,0,0.37965156766586006,,,,,,,,,,,,,,,,,,83,001,23,w,Psychologie,2023-01-30_15h29.45.955,00_bat_bachelor,2022.2.4,59.95171894277215,
,,,,,,,,,,,,1,0,1,0,51,0,51,0,,,,,,,51,,,0.2,2088.9846332194284,Y,None,nogo,None,1,,2089.785502649378,,,,,,,,,,,,,,,,,83,001,23,w,Psychologie,2023-01-30_15h29.45.955,00_bat_bachelor,2022.2.4,59.95171894277215,
,,,,,,,,,,,,1,0,1,0,52,0,52,0,,,,,,,52,,,0.2,2089.985437097959,X,l,go,None,0,,,,,,,,,,,,,,,,,,,83,001,23,w,Psychologie,2023-01-30_15h29.45.955,00_bat_bachelor,2022.2.4,59.95171894277215,
,,,,,,,,,,,,1,0,1,0,53,0,53,0,,,,,,,53,,,0.2,2090.986373824766,Y,d,go,d,1,0.3665655131917447,,,,,,,,,,,,,,,,,,83,001,23,w,Psychologie,2023-01-30_15h29.45.955,00_bat_bachelor,2022.2.4,59.95171894277215,
,,,,,,,,,,,,1,0,1,0,54,0,54,0,,,,,,,54,,,0.2,2091.6538382284343,Y,None,nogo,None,1,,,,,,,,,,,,,,,,,,,83,001,23,w,Psychologie,2023-01-30_15h29.45.955,00_bat_bachelor,2022.2.4,59.95171894277215,
,,,,,,,,,,,,1,0,1,0,55,0,55,0,,,,,,,55,,,0.2,2092.654326955322,X,l,go,l,1,0.02696616272442043,,,,,,,,,,,,,,,,,,83,001,23,w,Psychologie,2023-01-30_15h29.45.955,00_bat_bachelor,2022.2.4,59.95171894277215,
,,,,,,,,,,,,1,0,1,0,56,0,56,0,,,,,,,56,,,0.2,2092.9878623087425,Y,d,go,None,0,,,,,,,,,,,,,,,,,,,83,001,23,w,Psychologie,2023-01-30_15h29.45.955,00_bat_bachelor,2022.2.4,59.95171894277215,
,,,,,,,,,,,,1,0,1,0,57,0,57,0,,,,,,,57,,,0.2,2093.9886812174227,X,l,go,None,0,,,,,,,,,,,,,,,,,,,83,001,23,w,Psychologie,2023-01-30_15h29.45.955,00_bat_bachelor,2022.2.4,59.95171894277215,
,,,,,,,,,,,,1,0,1,0,58,0,58,0,,,,,,,58,,,0.2,2094.989523883676,Y,d,go,None,0,,,,,,,,,,,,,,,,,,,83,001,23,w,Psychologie,2023-01-30_15h29.45.955,00_bat_bachelor,2022.2.4,59.95171894277215,
,,,,,,,,,,,,1,0,1,0,59,0,59,0,,,,,,,59,,,0.2,2095.989930671407,X,l,go,l,1,0.4828893356025219,,,,,,,,,,,,,,,,,,83,001,23,w,Psychologie,2023-01-30_15h29.45.955,00_bat_bachelor,2022.2.4,59.95171894277215,
,,,,,,,,,,,,1,0,1,0,60,0,60,0,,,,,,,60,,,0.2,2096.7740519882645,Y,d,go,d,1,0.5156999866012484,,,,,,,,,,,,,,,,,,83,001,23,w,Psychologie,2023-01-30_15h29.45.955,00_bat_bachelor,2022.2.4,59.95171894277215,
,,,,,,,,,,,,1,0,1,0,61,0,61,0,,,,,,,61,,,0.2,2097.5913311070763,X,l,go,l,1,0.5933998276013881,,,,,,,,,,,,,,,,,,83,001,23,w,Psychologie,2023-01-30_15h29.45.955,00_bat_bachelor,2022.2.4,59.95171894277215,
,,,,,,,,,,,,1,0,1,0,62,0,62,0,,,,,,,62,,,0.2,2098.492116609821,Y,d,go,d,1,0.5408437319565564,,,,,,,,,,,,,,,,,,83,001,23,w,Psychologie,2023-01-30_15h29.45.955,00_bat_bachelor,2022.2.4,59.95171894277215,
,,,,,,,,,,,,1,0,1,0,63,0,63,0,,,,,,,63,,,0.2,2099.342432318721,X,l,go,l,1,0.4581761355511844,,,,,,,,,,,,,,,,,,83,001,23,w,Psychologie,2023-01-30_15h29.45.955,00_bat_bachelor,2022.2.4,59.95171894277215,
,,,,,,,,,,,,1,0,1,0,64,0,64,0,,,,,,,64,,,0.2,2100.109716795152,X,None,nogo,None,1,,2100.9104567705654,,,,,,,,,,,,,,,,,83,001,23,w,Psychologie,2023-01-30_15h29.45.955,00_bat_bachelor,2022.2.4,59.95171894277215,
,,,,,,,,,,,,1,0,1,0,65,0,65,0,,,,,,,65,,,0.2,2101.110767946113,Y,d,go,d,1,0.5620456608012319,,,,,,,,,,,,,,,,,,83,001,23,w,Psychologie,2023-01-30_15h29.45.955,00_bat_bachelor,2022.2.4,59.95171894277215,
,,,,,,,,,,,,1,0,1,0,66,0,66,0,,,,,,,66,,,0.2,2101.9780392833054,X,l,go,None,0,,,,,,,,,,,,,,,,,,,83,001,23,w,Psychologie,2023-01-30_15h29.45.955,00_bat_bachelor,2022.2.4,59.95171894277215,
,,,,,,,,,,,,1,0,1,0,67,0,67,0,,,,,,,67,,,0.2,2102.97886497993,X,None,nogo,None,1,,,,,,,,,,,,,,,,,,,83,001,23,w,Psychologie,2023-01-30_15h29.45.955,00_bat_bachelor,2022.2.4,59.95171894277215,
,,,,,,,,,,,,1,0,1,0,68,0,68,0,,,,,,,68,,,0.2,2103.979457949288,Y,d,go,d,1,0.5889464963693172,,,,,,,,,,,,,,,,,,83,001,23,w,Psychologie,2023-01-30_15h29.45.955,00_bat_bachelor,2022.2.4,59.95171894277215,
,,,,,,,,,,,,1,0,1,0,69,0,69,0,,,,,,,69,,,0.2,2104.880364663899,X,l,go,l,1,0.4723991588689387,,,,,,,,,,,,,,,,,,83,001,23,w,Psychologie,2023-01-30_15h29.45.955,00_bat_bachelor,2022.2.4,59.95171894277215,
,,,,,,,,,,,,1,0,1,0,70,0,70,0,,,,,,,70,,,0.2,2105.6642076778226,X,None,nogo,d,0,0.5686619002372026,,,,,,,,,,,,,,,,,,83,001,23,w,Psychologie,2023-01-30_15h29.45.955,00_bat_bachelor,2022.2.4,59.95171894277215,
,,,,,,,,,,,,1,0,1,0,71,0,71,0,,,,,,,71,,,0.2,2106.548254764406,Y,d,go,None,0,,,,,,,,,,,,,,,,,,,83,001,23,w,Psychologie,2023-01-30_15h29.45.955,00_bat_bachelor,2022.2.4,59.95171894277215,
,,,,,,,,,,,,1,0,1,0,72,0,72,0,,,,,,,72,,,0.2,2107.548972339835,X,l,go,None,0,,,,,,,,,,,,,,,,,,,83,001,23,w,Psychologie,2023-01-30_15h29.45.955,00_bat_bachelor,2022.2.4,59.95171894277215,
,,,,,,,,,,,,1,0,1,0,73,0,73,0,,,,,,,73,,,0.2,2108.549490642501,Y,d,go,None,0,,,,,,,,,,,,,,,,,,,83,001,23,w,Psychologie,2023-01-30_15h29.45.955,00_bat_bachelor,2022.2.4,59.95171894277215,
,,,,,,,,,,,,1,0,1,0,74,0,74,0,,,,,,,74,,,0.2,2109.5504026422277,X,l,go,None,0,,2110.3510335267056,,,,,,,,,,,,,,,,,83,001,23,w,Psychologie,2023-01-30_15h29.45.955,00_bat_bachelor,2022.2.4,59.95171894277215,
,,,,,,,,,,,,1,0,1,0,75,0,75,0,,,,,,,75,,,0.2,2110.551307853777,X,None,nogo,None,1,,,,,,,,,,,,,,,,,,,83,001,23,w,Psychologie,2023-01-30_15h29.45.955,00_bat_bachelor,2022.2.4,59.95171894277215,
,,,,,,,,,,,,1,0,1,0,76,0,76,0,,,,,,,76,,,0.2,2111.5520714898594,X,None,nogo,None,1,,,,,,,,,,,,,,,,,,,83,001,23,w,Psychologie,2023-01-30_15h29.45.955,00_bat_bachelor,2022.2.4,59.95171894277215,
,,,,,,,,,,,,1,0,1,0,77,0,77,0,,,,,,,77,,,0.2,2112.5527890652884,Y,d,go,d,1,0.5117630185559392,,,,,,,,,,,,,,,,,,83,001,23,w,Psychologie,2023-01-30_15h29.45.955,00_bat_bachelor,2022.2.4,59.95171894277215,
,,,,,,,,,,,,1,0,1,0,78,0,78,0,,,,,,,78,,,0.2,2113.3700468507595,X,l,go,l,1,0.590340435039252,,,,,,,,,,,,,,,,,,83,001,23,w,Psychologie,2023-01-30_15h29.45.955,00_bat_bachelor,2022.2.4,59.95171894277215,
,,,,,,,,,,,,1,0,1,0,79,0,79,0,,,,,,,79,,,0.2,2114.2709041109774,X,None,nogo,None,1,,,,,,,,,,,,,,,,,,,83,001,23,w,Psychologie,2023-01-30_15h29.45.955,00_bat_bachelor,2022.2.4,59.95171894277215,
,,,,,,,,,,,,1,0,1,0,80,0,80,0,,,,,,,80,,,0.2,2115.271679868223,Y,d,go,d,1,0.44967141235247254,,,,,,,,,,,,,,,,,,83,001,23,w,Psychologie,2023-01-30_15h29.45.955,00_bat_bachelor,2022.2.4,59.95171894277215,
,,,,,,,,,,,,1,0,1,0,81,0,81,0,,,,,,,81,,,0.2,2116.022127989214,X,l,go,l,1,0.49900472187437117,,,,,,,,,,,,,,,,,,83,001,23,w,Psychologie,2023-01-30_15h29.45.955,00_bat_bachelor,2022.2.4,59.95171894277215,
,,,,,,,,,,,,1,0,1,0,82,0,82,0,,,,,,,82,,,0.2,2116.8226982676424,Y,d,go,d,1,0.6262531450483948,,,,,,,,,,,,,,,,,,83,001,23,w,Psychologie,2023-01-30_15h29.45.955,00_bat_bachelor,2022.2.4,59.95171894277215,
,,,,,,,,,,,,1,0,1,0,83,0,83,0,,,,,,,83,,,0.2,2117.756878178334,Y,None,nogo,None,1,,2118.55724579026,,,,,,,,,,,,,,,,,83,001,23,w,Psychologie,2023-01-30_15h29.45.955,00_bat_bachelor,2022.2.4,59.95171894277215,
,,,,,,,,,,,,1,0,1,0,84,0,84,0,,,,,,,84,,,0.2,2118.757228723727,X,l,go,l,1,0.2753156181424856,,,,,,,,,,,,,,,,,,83,001,23,w,Psychologie,2023-01-30_15h29.45.955,00_bat_bachelor,2022.2.4,59.95171894277215,
,,,,,,,,,,,,1,0,1,0,85,0,85,0,,,,,,,85,,,0.2,2119.3413365615997,Y,d,go,None,0,,,,,,,,,,,,,,,,,,,83,001,23,w,Psychologie,2023-01-30_15h29.45.955,00_bat_bachelor,2022.2.4,59.95171894277215,
,,,,,,,,,,,,1,0,1,0,86,0,86,0,,,,,,,86,,,0.2,2120.3421399551444,X,l,go,l,1,0.4989009643904865,,,,,,,,,,,,,,,,,,83,001,23,w,Psychologie,2023-01-30_15h29.45.955,00_bat_bachelor,2022.2.4,59.95171894277215,
,,,,,,,,,,,,1,0,1,0,87,0,87,0,,,,,,,87,,,0.2,2121.1427170215175,X,None,nogo,d,0,0.5144059264566749,,,,,,,,,,,,,,,,,,83,001,23,w,Psychologie,2023-01-30_15h29.45.955,00_bat_bachelor,2022.2.4,59.95171894277215,
,,,,,,,,,,,,1,0,1,0,88,0,88,0,,,,,,,88,,,0.2,2121.9597784436774,X,None,nogo,l,0,0.40129325399175286,,,,,,,,,,,,,,,,,,83,001,23,w,Psychologie,2023-01-30_15h29.45.955,00_bat_bachelor,2022.2.4,59.95171894277215,
,,,,,,,,,,,,1,0,1,0,89,0,89,0,,,,,,,89,,,0.2,2122.677021732321,Y,d,go,None,0,,2123.477769950172,,,,,,,,,,,,,,,,,83,001,23,w,Psychologie,2023-01-30_15h29.45.955,00_bat_bachelor,2022.2.4,59.95171894277215,
,,,,,,,,,,,,1,0,1,0,90,0,90,0,,,,,,,90,,,0.2,2123.677974944003,X,l,go,None,0,,,,,,,,,,,,,,,,,,,83,001,23,w,Psychologie,2023-01-30_15h29.45.955,00_bat_bachelor,2022.2.4,59.95171894277215,
,,,,,,,,,,,,1,0,1,0,91,0,91,0,,,,,,,91,,,0.2,2124.678741973825,Y,d,go,None,0,,,,,,,,,,,,,,,,,,,83,001,23,w,Psychologie,2023-01-30_15h29.45.955,00_bat_bachelor,2022.2.4,59.95171894277215,
,,,,,,,,,,,,1,0,1,0,92,0,92,0,,,,,,,92,,,0.2,2125.679584155325,Y,None,nogo,l,0,0.23302424466237426,,,,,,,,,,,,,,,,,,83,001,23,w,Psychologie,2023-01-30_15h29.45.955,00_bat_bachelor,2022.2.4,59.95171894277215,
,,,,,,,,,,,,1,0,1,0,93,0,93,0,,,,,,,93,,,0.2,2126.2132280177902,X,l,go,None,0,,,,,,,,,,,,,,,,,,,83,001,23,w,Psychologie,2023-01-30_15h29.45.955,00_bat_bachelor,2022.2.4,59.95171894277215,
,,,,,,,,,,,,1,0,1,0,94,0,94,0,,,,,,,94,,,0.2,2127.213892259868,Y,d,go,None,0,,,,,,,,,,,,,,,,,,,83,001,23,w,Psychologie,2023-01-30_15h29.45.955,00_bat_bachelor,2022.2.4,59.95171894277215,
,,,,,,,,,,,,1,0,1,0,95,0,95,0,,,,,,,95,,,0.2,2128.2148217139766,Y,None,nogo,None,1,,,,,,,,,,,,,,,,,,,83,001,23,w,Psychologie,2023-01-30_15h29.45.955,00_bat_bachelor,2022.2.4,59.95171894277215,
,,,,,,,,,,,,1,0,1,0,96,0,96,0,,,,,,,96,,,0.2,2129.21544183488,X,l,go,l,1,0.44207917363382876,,,,,,,,,,,,,,,,,,83,001,23,w,Psychologie,2023-01-30_15h29.45.955,00_bat_bachelor,2022.2.4,59.95171894277215,
,,,,,,,,,,,,1,0,1,0,97,0,97,0,,,,,,,97,,,0.2,2129.966065955814,Y,d,go,d,1,0.45903334743343294,,,,,,,,,,,,,,,,,,83,001,23,w,Psychologie,2023-01-30_15h29.45.955,00_bat_bachelor,2022.2.4,59.95171894277215,
,,,,,,,,,,,,1,0,1,0,98,0,98,0,,,,,,,98,,,0.2,2130.733143886784,X,l,go,None,0,,,,,,,,,,,,,,,,,,,83,001,23,w,Psychologie,2023-01-30_15h29.45.955,00_bat_bachelor,2022.2.4,59.95171894277215,
,,,,,,,,,,,,1,0,1,0,99,0,99,0,,,,,,,99,,,0.2,2131.734136856161,X,None,nogo,None,1,,,,,,,,,,,,,,,,,,,83,001,23,w,Psychologie,2023-01-30_15h29.45.955,00_bat_bachelor,2022.2.4,59.95171894277215,
,,,,,,,,,,,,1,0,1,0,100,0,100,0,,,,,,,100,,,0.2,2132.735040128464,Y,d,go,d,1,0.4737780673895031,,,,,,,,,,,,,,,,,,83,001,23,w,Psychologie,2023-01-30_15h29.45.955,00_bat_bachelor,2022.2.4,59.95171894277215,
,,,,,,,,,,,,1,0,1,0,101,0,101,0,,,,,,,101,,,0.2,2133.5186121121515,X,l,go,l,1,0.6346754438709468,,,,,,,,,,,,,,,,,,83,001,23,w,Psychologie,2023-01-30_15h29.45.955,00_bat_bachelor,2022.2.4,59.95171894277215,
,,,,,,,,,,,,1,0,1,0,102,0,102,0,,,,,,,102,,,0.2,2134.469245833112,X,None,nogo,None,1,,,,,,,,,,,,,,,,,,,83,001,23,w,Psychologie,2023-01-30_15h29.45.955,00_bat_bachelor,2022.2.4,59.95171894277215,
,,,,,,,,,,,,1,0,1,0,103,0,103,0,,,,,,,103,,,0.2,2135.470266438555,Y,d,go,None,0,,2136.27082556556,,,,,,,,,,,,,,,,,83,001,23,w,Psychologie,2023-01-30_15h29.45.955,00_bat_bachelor,2022.2.4,59.95171894277215,
,,,,,,,,,,,,1,0,1,0,104,0,104,0,,,,,,,104,,,0.2,2136.470993226161,X,l,go,l,1,0.561841539805755,,,,,,,,,,,,,,,,,,83,001,23,w,Psychologie,2023-01-30_15h29.45.955,00_bat_bachelor,2022.2.4,59.95171894277215,
,,,,,,,,,,,,1,0,1,0,105,0,105,0,,,,,,,105,,,0.2,2137.3383397145662,X,None,nogo,None,1,,,,,,,,,,,,,,,,,,,83,001,23,w,Psychologie,2023-01-30_15h29.45.955,00_bat_bachelor,2022.2.4,59.95171894277215,
,,,,,,,,,,,,1,0,1,0,106,0,106,0,,,,,,,106,,,0.2,2138.3392100173514,Y,d,go,d,1,0.46959867561236024,,,,,,,,,,,,,,,,,,83,001,23,w,Psychologie,2023-01-30_15h29.45.955,00_bat_bachelor,2022.2.4,59.95171894277215,
,,,,,,,,,,,,1,0,1,0,107,0,107,0,,,,,,,107,,,0.2,2139.1230244250037,X,l,go,l,1,0.6132674543187022,,,,,,,,,,,,,,,,,,83,001,23,w,Psychologie,2023-01-30_15h29.45.955,00_bat_bachelor,2022.2.4,59.95171894277215,
,,,,,,,,,,,,1,0,1,0,108,0,108,0,,,,,,,108,,,0.2,2140.0402259198017,Y,d,go,None,0,,,,,,,,,,,,,,,,,,,83,001,23,w,Psychologie,2023-01-30_15h29.45.955,00_bat_bachelor,2022.2.4,59.95171894277215,
,,,,,,,,,,,,1,0,1,0,109,0,109,0,,,,,,,109,,,0.2,2141.041128222365,X,l,go,None,0,,,,,,,,,,,,,,,,,,,83,001,23,w,Psychologie,2023-01-30_15h29.45.955,00_bat_bachelor,2022.2.4,59.95171894277215,
,,,,,,,,,,,,1,0,1,0,110,0,110,0,,,,,,,110,,,0.2,2142.041709555546,X,None,nogo,None,1,,,,,,,,,,,,,,,,,,,83,001,23,w,Psychologie,2023-01-30_15h29.45.955,00_bat_bachelor,2022.2.4,59.95171894277215,
,,,,,,,,,,,,1,0,1,0,111,0,111,0,,,,,,,111,,,0.2,2143.0427224035375,Y,d,go,d,1,0.45444183447398245,,,,,,,,,,,,,,,,,,83,001,23,w,Psychologie,2023-01-30_15h29.45.955,00_bat_bachelor,2022.2.4,59.95171894277215,
,,,,,,,,,,,,1,0,1,0,112,0,112,0,,,,,,,112,,,0.2,2143.809939001221,X,l,go,l,1,0.5348670075181872,,,,,,,,,,,,,,,,,,83,001,23,w,Psychologie,2023-01-30_15h29.45.955,00_bat_bachelor,2022.2.4,59.95171894277215,
,,,,,,,,,,,,1,0,1,0,113,0,113,0,,,,,,,113,,,0.2,2144.66064549773,X,None,nogo,None,1,,,,,,,,,,,,,,,,,,,83,001,23,w,Psychologie,2023-01-30_15h29.45.955,00_bat_bachelor,2022.2.4,59.95171894277215,
,,,,,,,,,,,,1,0,1,0,114,0,114,0,,,,,,,114,,,0.2,2145.661269497359,Y,d,go,d,1,0.5070478694979101,,,,,,,,,,,,,,,,,,83,001,23,w,Psychologie,2023-01-30_15h29.45.955,00_bat_bachelor,2022.2.4,59.95171894277215,
,,,,,,,,,,,,1,0,1,0,115,0,115,0,,,,,,,115,,,0.2,2146.4786756467074,X,l,go,l,1,0.5545149978715926,,,,,,,,,,,,,,,,,,83,001,23,w,Psychologie,2023-01-30_15h29.45.955,00_bat_bachelor,2022.2.4,59.95171894277215,
,,,,,,,,,,,,1,0,1,0,116,0,116,0,,,,,,,116,,,0.2,2147.3460454079323,Y,d,go,d,1,0.5356800979934633,,,,,,,,,,,,,,,,,,83,001,23,w,Psychologie,2023-01-30_15h29.45.955,00_bat_bachelor,2022.2.4,59.95171894277215,
,,,,,,,,,,,,1,0,1,0,117,0,117,0,,,,,,,117,,,0.2,2148.1967087530065,Y,None,nogo,None,1,,,,,,,,,,,,,,,,,,,83,001,23,w,Psychologie,2023-01-30_15h29.45.955,00_bat_bachelor,2022.2.4,59.95171894277215,
,,,,,,,,,,,,1,0,1,0,118,0,118,0,,,,,,,118,,,0.2,2149.1970951771364,X,l,go,l,1,0.5397295504808426,,,,,,,,,,,,,,,,,,83,001,23,w,Psychologie,2023-01-30_15h29.45.955,00_bat_bachelor,2022.2.4,59.95171894277215,
,,,,,,,,,,,,1,0,1,0,119,0,119,0,,,,,,,119,,,0.2,2150.047946643317,Y,d,go,d,1,0.6492194368038327,,,,,,,,,,,,,,,,,,83,001,23,w,Psychologie,2023-01-30_15h29.45.955,00_bat_bachelor,2022.2.4,59.95171894277215,
,,,,,,,,,,,,1,0,1,0,120,0,120,0,,,,,,,120,,,0.2,2150.9987810913008,X,l,go,None,0,,,,,,,,,,,,,,,,,,,83,001,23,w,Psychologie,2023-01-30_15h29.45.955,00_bat_bachelor,2022.2.4,59.95171894277215,
,,,,,,,,,,,,1,0,1,0,121,0,121,0,,,,,,,121,,,0.2,2151.99946230324,X,None,nogo,None,1,,,,,,,,,,,,,,,,,,,83,001,23,w,Psychologie,2023-01-30_15h29.45.955,00_bat_bachelor,2022.2.4,59.95171894277215,
,,,,,,,,,,,,1,0,1,0,122,0,122,0,,,,,,,122,,,0.2,2153.0002923633438,X,None,nogo,None,1,,,,,,,,,,,,,,,,,,,83,001,23,w,Psychologie,2023-01-30_15h29.45.955,00_bat_bachelor,2022.2.4,59.95171894277215,
,,,,,,,,,,,,1,0,1,0,123,0,123,0,,,,,,,123,,,0.2,2154.0012072720565,Y,d,go,None,0,,2154.8018337930553,,,,,,,,,,,,,,,,,83,001,23,w,Psychologie,2023-01-30_15h29.45.955,00_bat_bachelor,2022.2.4,59.95171894277215,
,,,,,,,,,,,,1,0,1,0,124,0,124,0,,,,,,,124,,,0.2,2155.002151271561,X,l,go,l,1,0.3188666272908449,,,,,,,,,,,,,,,,,,83,001,23,w,Psychologie,2023-01-30_15h29.45.955,00_bat_bachelor,2022.2.4,59.95171894277215,
,,,,,,,,,,,,1,0,1,0,125,0,125,0,,,,,,,125,,,0.2,2155.635956055252,X,None,nogo,None,1,,2156.4364046368282,,,,,,,,,,,,,,,,,83,001,23,w,Psychologie,2023-01-30_15h29.45.955,00_bat_bachelor,2022.2.4,59.95171894277215,
,,,,,,,,,,,,1,0,1,0,126,0,126,0,,,,,,,126,,,0.2,2156.636413267115,Y,d,go,d,1,0.46076667960733175,,,,,,,,,,,,,,,,,,83,001,23,w,Psychologie,2023-01-30_15h29.45.955,00_bat_bachelor,2022.2.4,59.95171894277215,
,,,,,,,,,,,,1,0,1,0,127,0,127,0,,,,,,,127,,,0.2,2157.4036143496633,X,l,go,None,0,,,,,,,,,,,,,,,,,,,83,001,23,w,Psychologie,2023-01-30_15h29.45.955,00_bat_bachelor,2022.2.4,59.95171894277215,
,,,,,,,,,,,,1,0,1,0,128,0,128,0,,,,,,,128,,,0.2,2158.404425500892,Y,d,go,None,0,,,,,,,,,,,,,,,,,,,83,001,23,w,Psychologie,2023-01-30_15h29.45.955,00_bat_bachelor,2022.2.4,59.95171894277215,
,,,,,,,,,,,,1,0,1,0,129,0,129,0,,,,,,,129,,,0.2,2159.4051930154674,X,l,go,None,0,,2160.2057119002566,,,,,,,,,,,,,,,,,83,001,23,w,Psychologie,2023-01-30_15h29.45.955,00_bat_bachelor,2022.2.4,59.95171894277215,
,,,,,,,,,,,,1,0,1,0,130,0,130,0,,,,,,,130,,,0.2,2160.405725863762,Y,d,go,None,0,,,,,,,,,,,,,,,,,,,83,001,23,w,Psychologie,2023-01-30_15h29.45.955,00_bat_bachelor,2022.2.4,59.95171894277215,
,,,,,,,,,,,,1,0,1,0,131,0,131,0,,,,,,,131,,,0.2,2161.4066941058263,X,l,go,None,0,,,,,,,,,,,,,,,,,,,83,001,23,w,Psychologie,2023-01-30_15h29.45.955,00_bat_bachelor,2022.2.4,59.95171894277215,
,,,,,,,,,,,,1,0,1,0,132,0,132,0,,,,,,,132,,,0.2,2162.407259923639,X,None,nogo,None,1,,,,,,,,,,,,,,,,,,,83,001,23,w,Psychologie,2023-01-30_15h29.45.955,00_bat_bachelor,2022.2.4,59.95171894277215,
,,,,,,,,,,,,1,0,1,0,133,0,133,0,,,,,,,133,,,0.2,2163.408233014168,Y,d,go,d,1,0.5368514913134277,,,,,,,,,,,,,,,,,,83,001,23,w,Psychologie,2023-01-30_15h29.45.955,00_bat_bachelor,2022.2.4,59.95171894277215,
,,,,,,,,,,,,1,0,1,0,134,0,134,0,,,,,,,134,,,0.2,2164.258819268318,X,l,go,l,1,0.6300999308004975,,,,,,,,,,,,,,,,,,83,001,23,w,Psychologie,2023-01-30_15h29.45.955,00_bat_bachelor,2022.2.4,59.95171894277215,
,,,,,,,,,,,,1,0,1,0,135,0,135,0,,,,,,,135,,,0.2,2165.1927359064575,X,None,nogo,None,1,,,,,,,,,,,,,,,,,,,83,001,23,w,Psychologie,2023-01-30_15h29.45.955,00_bat_bachelor,2022.2.4,59.95171894277215,
,,,,,,,,,,,,1,0,1,0,136,0,136,0,,,,,,,136,,,0.2,2166.1937022090424,Y,d,go,None,0,,2166.9942972147837,,,,,,,,,,,,,,,,,83,001,23,w,Psychologie,2023-01-30_15h29.45.955,00_bat_bachelor,2022.2.4,59.95171894277215,
,,,,,,,,,,,,1,0,1,0,137,0,137,0,,,,,,,137,,,0.2,2167.194481845014,X,l,go,None,0,,,,,,,,,,,,,,,,,,,83,001,23,w,Psychologie,2023-01-30_15h29.45.955,00_bat_bachelor,2022.2.4,59.95171894277215,
,,,,,,,,,,,,1,0,1,0,138,0,138,0,,,,,,,138,,,0.2,2168.194912875071,Y,d,go,None,0,,,,,,,,,,,,,,,,,,,83,001,23,w,Psychologie,2023-01-30_15h29.45.955,00_bat_bachelor,2022.2.4,59.95171894277215,
,,,,,,,,,,,,1,0,1,0,139,0,139,0,,,,,,,139,,,0.2,2169.1959722684696,X,l,go,l,1,0.4930900582112372,,,,,,,,,,,,,,,,,,83,001,23,w,Psychologie,2023-01-30_15h29.45.955,00_bat_bachelor,2022.2.4,59.95171894277215,
,,,,,,,,,,,,1,0,1,0,140,0,140,0,,,,,,,140,,,0.2,2169.9965406076517,Y,d,go,d,1,0.6368058670777828,,,,,,,,,,,,,,,,,,83,001,23,w,Psychologie,2023-01-30_15h29.45.955,00_bat_bachelor,2022.2.4,59.95171894277215,
,,,,,,,,,,,,1,0,1,0,141,0,141,0,,,,,,,141,,,0.2,2170.9470308134332,X,l,go,None,0,,,,,,,,,,,,,,,,,,,83,001,23,w,Psychologie,2023-01-30_15h29.45.955,00_bat_bachelor,2022.2.4,59.95171894277215,
,,,,,,,,,,,,1,0,1,0,142,0,142,0,,,,,,,142,,,0.2,2171.9480562675744,Y,d,go,None,0,,,,,,,,,,,,,,,,,,,83,001,23,w,Psychologie,2023-01-30_15h29.45.955,00_bat_bachelor,2022.2.4,59.95171894277215,
,,,,,,,,,,,,1,0,1,0,143,0,143,0,,,,,,,143,,,0.2,2172.948667661054,Y,None,nogo,l,0,0.32418104889802635,,,,,,,,,,,,,,,,,,83,001,23,w,Psychologie,2023-01-30_15h29.45.955,00_bat_bachelor,2022.2.4,59.95171894277215,
,,,,,,,,,,,,1,0,1,0,144,0,144,0,,,,,,,144,,,0.2,2173.5823362024967,X,l,go,None,0,,,,,,,,,,,,,,,,,,,83,001,23,w,Psychologie,2023-01-30_15h29.45.955,00_bat_bachelor,2022.2.4,59.95171894277215,
,,,,,,,,,,,,1,0,1,0,145,0,145,0,,,,,,,145,,,0.2,2174.58339074743,Y,d,go,None,0,,,,,,,,,,,,,,,,,,,83,001,23,w,Psychologie,2023-01-30_15h29.45.955,00_bat_bachelor,2022.2.4,59.95171894277215,
,,,,,,,,,,,,1,0,1,0,146,0,146,0,,,,,,,146,,,0.2,2175.583967716666,Y,None,nogo,None,1,,2176.384792055702,,,,,,,,,,,,,,,,,83,001,23,w,Psychologie,2023-01-30_15h29.45.955,00_bat_bachelor,2022.2.4,59.95171894277215,
,,,,,,,,,,,,1,0,1,0,147,0,147,0,,,,,,,147,,,0.2,2176.584931595018,X,l,go,None,0,,,,,,,,,,,,,,,,,,,83,001,23,w,Psychologie,2023-01-30_15h29.45.955,00_bat_bachelor,2022.2.4,59.95171894277215,
,,,,,,,,,,,,1,0,1,0,148,0,148,0,,,,,,,148,,,0.2,2177.585735473549,Y,d,go,None,0,,,,,,,,,,,,,,,,,,,83,001,23,w,Psychologie,2023-01-30_15h29.45.955,00_bat_bachelor,2022.2.4,59.95171894277215,
,,,,,,,,,,,,1,0,1,0,149,0,149,0,,,,,,,149,,,0.2,2178.586164564127,X,l,go,None,0,,,,,,,,,,,,,,,,,,,83,001,23,w,Psychologie,2023-01-30_15h29.45.955,00_bat_bachelor,2022.2.4,59.95171894277215,
,,,,,,,,,,,,1,0,1,0,150,0,150,0,,,,,,,150,,,0.2,2179.5872515940573,X,None,nogo,None,1,,2180.387532418128,,,,,,,,,,,,,,,,,83,001,23,w,Psychologie,2023-01-30_15h29.45.955,00_bat_bachelor,2022.2.4,59.95171894277215,
,,,,,,,,,,,,1,0,1,0,151,0,151,0,,,,,,,151,,,0.2,2180.587783957366,Y,d,go,None,0,,2181.3886034479365,,,,,,,,,,,,,,,,,83,001,23,w,Psychologie,2023-01-30_15h29.45.955,00_bat_bachelor,2022.2.4,59.95171894277215,
,,,,,,,,,,,,1,0,1,0,152,0,152,0,,,,,,,152,,,0.2,2181.5887560781557,X,l,go,l,1,0.49986241827718914,,,,,,,,,,,,,,,,,,83,001,23,w,Psychologie,2023-01-30_15h29.45.955,00_bat_bachelor,2022.2.4,59.95171894277215,
,,,,,,,,,,,,1,0,1,0,153,0,153,0,,,,,,,153,,,0.2,2182.3893573868554,X,None,nogo,None,1,,,,,,,,,,,,,,,,,,,83,001,23,w,Psychologie,2023-01-30_15h29.45.955,00_bat_bachelor,2022.2.4,59.95171894277215,
,,,,,,,,,,,,1,0,1,0,154,0,154,0,,,,,,,154,,,0.2,2183.390138962306,Y,d,go,None,0,,,,,,,,,,,,,,,,,,,83,001,23,w,Psychologie,2023-01-30_15h29.45.955,00_bat_bachelor,2022.2.4,59.95171894277215,
,,,,,,,,,,,,1,0,1,0,155,0,155,0,,,,,,,155,,,0.2,2184.3909889012575,X,l,go,None,0,,,,,,,,,,,,,,,,,,,83,001,23,w,Psychologie,2023-01-30_15h29.45.955,00_bat_bachelor,2022.2.4,59.95171894277215,
,,,,,,,,,,,,1,0,1,0,156,0,156,0,,,,,,,156,,,0.2,2185.391809264431,X,None,nogo,None,1,,,,,,,,,,,,,,,,,,,83,001,23,w,Psychologie,2023-01-30_15h29.45.955,00_bat_bachelor,2022.2.4,59.95171894277215,
,,,,,,,,,,,,1,0,1,0,157,0,157,0,,,,,,,157,,,0.2,2186.3924327793065,Y,d,go,d,1,0.4810895789414644,,,,,,,,,,,,,,,,,,83,001,23,w,Psychologie,2023-01-30_15h29.45.955,00_bat_bachelor,2022.2.4,59.95171894277215,
,,,,,,,,,,,,1,0,1,0,158,0,158,0,,,,,,,158,,,0.2,2187.1763014902826,X,l,go,None,0,,,,,,,,,,,,,,,,,,,83,001,23,w,Psychologie,2023-01-30_15h29.45.955,00_bat_bachelor,2022.2.4,59.95171894277215,
,,,,,,,,,,,,1,0,1,0,159,0,159,0,,,,,,,159,,,0.2,2188.1768440352753,Y,d,go,None,0,,,,,,,,,,,,,,,,,,,83,001,23,w,Psychologie,2023-01-30_15h29.45.955,00_bat_bachelor,2022.2.4,59.95171894277215,
,,,,,,,,,,,,1,0,1,0,160,0,160,0,,,,,,,160,,,0.2,2189.1780847620685,Y,None,nogo,None,1,,2189.978851404041,,,,,,,,,,,,,,,,,83,001,23,w,Psychologie,2023-01-30_15h29.45.955,00_bat_bachelor,2022.2.4,59.95171894277215,
,,,,,,,,,,,,1,0,1,0,161,0,161,0,,,,,,,161,,,0.2,2190.178808640456,X,l,go,None,0,,2190.979599524988,,,,,,,,,,,,,,,,,83,001,23,w,Psychologie,2023-01-30_15h29.45.955,00_bat_bachelor,2022.2.4,59.95171894277215,
,,,,,,,,,,,,1,0,1,0,162,0,162,0,,,,,,,162,,,0.2,2191.179871912813,Y,d,go,d,1,0.3337776504922658,,,,,,,,,,,,,,,,,,83,001,23,w,Psychologie,2023-01-30_15h29.45.955,00_bat_bachelor,2022.2.4,59.95171894277215,
,,,,,,,,,,,,1,0,1,0,163,0,163,0,,,,,,,163,,,0.2,2191.8132228783797,Y,None,nogo,None,1,,2192.6138304902706,,,,,,,,,,,,,,,,,83,001,23,w,Psychologie,2023-01-30_15h29.45.955,00_bat_bachelor,2022.2.4,59.95171894277215,
,,,,,,,,,,,,1,0,1,0,164,0,164,0,,,,,,,164,,,0.2,2192.8139031203464,X,l,go,None,0,,,,,,,,,,,,,,,,,,,83,001,23,w,Psychologie,2023-01-30_15h29.45.955,00_bat_bachelor,2022.2.4,59.95171894277215,
,,,,,,,,,,,,1,0,1,0,165,0,165,0,,,,,,,165,,,0.2,2193.8143942716997,Y,d,go,d,1,0.3710338748060167,,,,,,,,,,,,,,,,,,83,001,23,w,Psychologie,2023-01-30_15h29.45.955,00_bat_bachelor,2022.2.4,59.95171894277215,
,,,,,,,,,,,,1,0,1,0,166,0,166,0,,,,,,,166,,,0.2,2194.4986509096343,X,l,go,l,1,0.4863298188429326,,,,,,,,,,,,,,,,,,83,001,23,w,Psychologie,2023-01-30_15h29.45.955,00_bat_bachelor,2022.2.4,59.95171894277215,
,,,,,,,,,,,,1,0,1,0,167,0,167,0,,,,,,,167,,,0.2,2195.298931733705,Y,d,go,None,0,,,,,,,,,,,,,,,,,,,83,001,23,w,Psychologie,2023-01-30_15h29.45.955,00_bat_bachelor,2022.2.4,59.95171894277215,
,,,,,,,,,,,,1,0,1,0,168,0,168,0,,,,,,,168,,,0.2,2196.299923248356,X,l,go,d,0,0.0771896536462009,,,,,,,,,,,,,,,,,,83,001,23,w,Psychologie,2023-01-30_15h29.45.955,00_bat_bachelor,2022.2.4,59.95171894277215,
,,,,,,,,,,,,1,0,1,0,169,0,169,0,,,,,,,169,,,0.2,2196.6835962745827,Y,d,go,None,0,,,,,,,,,,,,,,,,,,,83,001,23,w,Psychologie,2023-01-30_15h29.45.955,00_bat_bachelor,2022.2.4,59.95171894277215,
,,,,,,,,,,,,1,0,1,0,170,0,170,0,,,,,,,170,,,0.2,2197.6842226984445,X,l,go,None,0,,,,,,,,,,,,,,,,,,,83,001,23,w,Psychologie,2023-01-30_15h29.45.955,00_bat_bachelor,2022.2.4,59.95171894277215,
,,,,,,,,,,,,1,0,1,0,171,0,171,0,,,,,,,171,,,0.2,2198.6848156678025,X,None,nogo,None,1,,,,,,,,,,,,,,,,,,,83,001,23,w,Psychologie,2023-01-30_15h29.45.955,00_bat_bachelor,2022.2.4,59.95171894277215,
,,,,,,,,,,,,1,0,1,0,172,0,172,0,,,,,,,172,,,0.2,2199.6855565160513,Y,d,go,d,1,0.3232482010498643,,,,,,,,,,,,,,,,,,83,001,23,w,Psychologie,2023-01-30_15h29.45.955,00_bat_bachelor,2022.2.4,59.95171894277215,
,,,,,,,,,,,,1,0,1,0,173,0,173,0,,,,,,,173,,,0.2,2200.3202374204993,X,l,go,l,1,0.4238396673463285,,,,,,,,,,,,,,,,,,83,001,23,w,Psychologie,2023-01-30_15h29.45.955,00_bat_bachelor,2022.2.4,59.95171894277215,
,,,,,,,,,,,,1,0,1,0,174,0,174,0,,,,,,,174,,,0.2,2201.0706288141664,X,None,nogo,None,1,,2201.8713639411144,,,,,,,,,,,,,,,,,83,001,23,w,Psychologie,2023-01-30_15h29.45.955,00_bat_bachelor,2022.2.4,59.95171894277215,
,,,,,,,,,,,,1,0,1,0,175,0,175,0,,,,,,,175,,,0.2,2202.07141184411,Y,d,go,None,0,,2202.8718696378637,,,,,,,,,,,,,,,,,83,001,23,w,Psychologie,2023-01-30_15h29.45.955,00_bat_bachelor,2022.2.4,59.95171894277215,
,,,,,,,,,,,,1,0,1,0,176,0,176,0,,,,,,,176,,,0.2,2203.071880207397,X,l,go,None,0,,,,,,,,,,,,,,,,,,,83,001,23,w,Psychologie,2023-01-30_15h29.45.955,00_bat_bachelor,2022.2.4,59.95171894277215,
,,,,,,,,,,,,1,0,1,0,177,0,177,0,,,,,,,177,,,0.2,2204.0726234798785,Y,d,go,d,1,0.448331292020157,,,,,,,,,,,,,,,,,,83,001,23,w,Psychologie,2023-01-30_15h29.45.955,00_bat_bachelor,2022.2.4,59.95171894277215,
,,,,,,,,,,,,1,0,1,0,178,0,178,0,,,,,,,178,,,0.2,2204.8228054190986,X,l,go,l,1,0.4816403666045517,,,,,,,,,,,,,,,,,,83,001,23,w,Psychologie,2023-01-30_15h29.45.955,00_bat_bachelor,2022.2.4,59.95171894277215,
,,,,,,,,,,,,1,0,1,0,179,0,179,0,,,,,,,179,,,0.2,2205.6068287966773,X,None,nogo,d,0,0.466388980159536,,,,,,,,,,,,,,,,,,83,001,23,w,Psychologie,2023-01-30_15h29.45.955,00_bat_bachelor,2022.2.4,59.95171894277215,
,,,,,,,,,,,,1,0,1,0,180,0,180,0,,,,,,,180,,,0.2,2206.374304788187,Y,d,go,None,0,,,,,,,,,,,,,,,,,,,83,001,23,w,Psychologie,2023-01-30_15h29.45.955,00_bat_bachelor,2022.2.4,59.95171894277215,
,,,,,,,,,,,,1,0,1,0,181,0,181,0,,,,,,,181,,,0.2,2207.37490357575,X,l,go,None,0,,,,,,,,,,,,,,,,,,,83,001,23,w,Psychologie,2023-01-30_15h29.45.955,00_bat_bachelor,2022.2.4,59.95171894277215,
,,,,,,,,,,,,1,0,1,0,182,0,182,0,,,,,,,182,,,0.2,2208.3755013935734,Y,d,go,None,0,,,,,,,,,,,,,,,,,,,83,001,23,w,Psychologie,2023-01-30_15h29.45.955,00_bat_bachelor,2022.2.4,59.95171894277215,
,,,,,,,,,,,,1,0,1,0,183,0,183,0,,,,,,,183,,,0.2,2209.3765690294094,X,l,go,l,1,0.361085758311674,,,,,,,,,,,,,,,,,,83,001,23,w,Psychologie,2023-01-30_15h29.45.955,00_bat_bachelor,2022.2.4,59.95171894277215,
,,,,,,,,,,,,1,0,1,0,184,0,184,0,,,,,,,184,,,0.2,2210.0437944028527,Y,d,go,d,1,0.6373585942201316,,,,,,,,,,,,,,,,,,83,001,23,w,Psychologie,2023-01-30_15h29.45.955,00_bat_bachelor,2022.2.4,59.95171894277215,
,,,,,,,,,,,,1,0,1,0,185,0,185,0,,,,,,,185,,,0.2,2210.994489699602,X,l,go,None,0,,,,,,,,,,,,,,,,,,,83,001,23,w,Psychologie,2023-01-30_15h29.45.955,00_bat_bachelor,2022.2.4,59.95171894277215,
,,,,,,,,,,,,1,0,1,0,186,0,186,0,,,,,,,186,,,0.2,2211.9952373355627,X,None,nogo,None,1,,,,,,,,,,,,,,,,,,,83,001,23,w,Psychologie,2023-01-30_15h29.45.955,00_bat_bachelor,2022.2.4,59.95171894277215,
,,,,,,,,,,,,1,0,1,0,187,0,187,0,,,,,,,187,,,0.2,2212.9958050928544,Y,d,go,None,0,,,,,,,,,,,,,,,,,,,83,001,23,w,Psychologie,2023-01-30_15h29.45.955,00_bat_bachelor,2022.2.4,59.95171894277215,
,,,,,,,,,,,,1,0,1,0,188,0,188,0,,,,,,,188,,,0.2,2213.996915880125,X,l,go,l,1,0.3478595830965787,,,,,,,,,,,,,,,,,,83,001,23,w,Psychologie,2023-01-30_15h29.45.955,00_bat_bachelor,2022.2.4,59.95171894277215,
,,,,,,,,,,,,1,0,1,0,189,0,189,0,,,,,,,189,,,0.2,2214.6470745953266,X,None,nogo,None,1,,,,,,,,,,,,,,,,,,,83,001,23,w,Psychologie,2023-01-30_15h29.45.955,00_bat_bachelor,2022.2.4,59.95171894277215,
,,,,,,,,,,,,1,0,1,0,190,0,190,0,,,,,,,190,,,0.2,2215.647959443275,Y,d,go,d,1,0.44091893173754215,,,,,,,,,,,,,,,,,,83,001,23,w,Psychologie,2023-01-30_15h29.45.955,00_bat_bachelor,2022.2.4,59.95171894277215,
,,,,,,,,,,,,1,0,1,0,191,0,191,0,,,,,,,191,,,0.2,2216.3985263521317,X,l,go,l,1,0.4581494687590748,,,,,,,,,,,,,,,,,,83,001,23,w,Psychologie,2023-01-30_15h29.45.955,00_bat_bachelor,2022.2.4,59.95171894277215,
,,,,,,,,,,,,1,0,1,0,192,0,192,0,,,,,,,192,,,0.2,2217.1657705861144,Y,d,go,d,1,0.4276782108936459,,,,,,,,,,,,,,,,,,83,001,23,w,Psychologie,2023-01-30_15h29.45.955,00_bat_bachelor,2022.2.4,59.95171894277215,
,,,,,,,,,,,,1,0,1,0,193,0,193,0,,,,,,,193,,,0.2,2217.8997697455343,Y,None,nogo,l,0,0.3652040595188737,,,,,,,,,,,,,,,,,,83,001,23,w,Psychologie,2023-01-30_15h29.45.955,00_bat_bachelor,2022.2.4,59.95171894277215,
,,,,,,,,,,,,1,0,1,0,194,0,194,0,,,,,,,194,,,0.2,2218.5669088158756,X,l,go,None,0,,,,,,,,,,,,,,,,,,,83,001,23,w,Psychologie,2023-01-30_15h29.45.955,00_bat_bachelor,2022.2.4,59.95171894277215,
,,,,,,,,,,,,1,0,1,0,195,0,195,0,,,,,,,195,,,0.2,2219.567486270331,Y,d,go,None,0,,2220.3679484275635,,,,,,,,,,,,,,,,,83,001,23,w,Psychologie,2023-01-30_15h29.45.955,00_bat_bachelor,2022.2.4,59.95171894277215,
,,,,,,,,,,,,1,0,1,0,196,0,196,0,,,,,,,196,,,0.2,2220.5681781487074,X,l,go,l,1,0.3851269588340074,,,,,,,,,,,,,,,,,,83,001,23,w,Psychologie,2023-01-30_15h29.45.955,00_bat_bachelor,2022.2.4,59.95171894277215,
,,,,,,,,,,,,1,0,1,0,197,0,197,0,,,,,,,197,,,0.2,2221.268990899902,X,None,nogo,None,1,,,,,,,,,,,,,,,,,,,83,001,23,w,Psychologie,2023-01-30_15h29.45.955,00_bat_bachelor,2022.2.4,59.95171894277215,
,,,,,,,,,,,,1,0,1,0,198,0,198,0,,,,,,,198,,,0.2,2222.2697007176466,Y,d,go,d,1,0.554626998025924,,,,,,,,,,,,,,,,,,83,001,23,w,Psychologie,2023-01-30_15h29.45.955,00_bat_bachelor,2022.2.4,59.95171894277215,
,,,,,,,,,,,,1,0,1,0,199,0,199,0,,,,,,,199,,,0.2,2223.136988054728,X,l,go,None,0,,,,,,,,,,,,,,,,,,,83,001,23,w,Psychologie,2023-01-30_15h29.45.955,00_bat_bachelor,2022.2.4,59.95171894277215,
,,,,,,,,,,,,1,0,1,0,200,0,200,0,,,,,,,200,,,0.2,2224.1379824783653,Y,d,go,d,1,0.5590381473302841,,,,,,,,,,,,,,,,,,83,001,23,w,Psychologie,2023-01-30_15h29.45.955,00_bat_bachelor,2022.2.4,59.95171894277215,
,,,,,,,,,,,,1,0,1,0,201,0,201,0,,,,,,,201,,,0.2,2225.0053178155795,X,l,go,l,1,0.4430115367285907,,,,,,,,,,,,,,,,,,83,001,23,w,Psychologie,2023-01-30_15h29.45.955,00_bat_bachelor,2022.2.4,59.95171894277215,
,,,,,,,,,,,,1,0,1,0,202,0,202,0,,,,,,,202,,,0.2,2225.7558905424085,X,None,nogo,None,1,,2226.5563546393532,,,,,,,,,,,,,,,,,83,001,23,w,Psychologie,2023-01-30_15h29.45.955,00_bat_bachelor,2022.2.4,59.95171894277215,
