loop_instruction.thisRepN,loop_instruction.thisTrialN,loop_instruction.thisN,loop_instruction.thisIndex,loop_rsi_practice.thisRepN,loop_rsi_practice.thisTrialN,loop_rsi_practice.thisN,loop_rsi_practice.thisIndex,loop_practice.thisRepN,loop_practice.thisTrialN,loop_practice.thisN,loop_practice.thisIndex,loop_exp.thisRepN,loop_exp.thisTrialN,loop_exp.thisN,loop_exp.thisIndex,loop_trials.thisRepN,loop_trials.thisTrialN,loop_trials.thisN,loop_trials.thisIndex,map_condition,map_x_key,map_y_key,key_resp_welcome.started,key_resp_welcome.keys,key_resp_welcome.rt,index,text_empty_rsi_practice.started,text_empty_rsi_practice.stopped,rsi,stimulus.started,stimulus,correct,trial_type,key_resp_trial.keys,key_resp_trial.corr,key_resp_trial.rt,stimulus.stopped,key_resp_instruction_rsi.started,key_resp_instruction_rsi.keys,key_resp_instruction_rsi.rt,key_resp_instruction_rsi.stopped,key_resp_instruction_final.started,key_resp_instruction_final.keys,key_resp_instruction_final.rt,key_resp_break.started,key_resp_break.keys,key_resp_break.rt,key_resp_break.stopped,key_resp_end_screen.started,image_end_screen.started,key_resp_end_screen.stopped,image_end_screen.stopped,key_resp_end_screen.keys,participant,session,Alter,Geschlecht (w/m/d/andere),Studiengang,date,expName,psychopyVersion,frameRate,
,,,,0,0,0,0,0,0,0,0,,,,,,,,,1,l,d,8833.699060024694,j,36.623050056165084,0,8870.345729286782,8871.378479816485,1,8871.378479816485,X,l,go,None,0,,,,,,,,,,,,,,,,,,,85,001,24,männlich,Psychologie,2023-01-31_12h08.02.636,00_bat_bachelor,2022.2.4,59.9536358741257,
,,,,0,0,0,0,1,0,1,0,,,,,,,,,,,,,,,1,8872.778532955796,8873.781031863764,1,8873.781031863764,Y,d,go,l,0,0.6028047325089574,,,,,,,,,,,,,,,,,,85,001,24,männlich,Psychologie,2023-01-31_12h08.02.636,00_bat_bachelor,2022.2.4,59.9536358741257,
,,,,0,0,0,0,2,0,2,0,,,,,,,,,,,,,,,2,8875.113685762975,8876.114282611292,1,8876.114282611292,X,l,go,l,1,0.34844364365562797,,,,,,,,,,,,,,,,,,85,001,24,männlich,Psychologie,2023-01-31_12h08.02.636,00_bat_bachelor,2022.2.4,59.9536358741257,
,,,,0,0,0,0,3,0,3,0,,,,,,,,,,,,,,,3,8877.198371782666,8878.199359418359,1,8878.199359418359,X,None,nogo,l,0,0.5665220832452178,,,,,,,,,,,,,,,,,,85,001,24,männlich,Psychologie,2023-01-31_12h08.02.636,00_bat_bachelor,2022.2.4,59.9536358741257,
,,,,0,0,0,0,4,0,4,0,,,,,,,,,,,,,,,4,8879.900380169507,8880.901023078244,1,8880.901023078244,Y,d,go,d,1,0.6665511259343475,,,,,,,,,,,,,,,,,,85,001,24,männlich,Psychologie,2023-01-31_12h08.02.636,00_bat_bachelor,2022.2.4,59.9536358741257,
,,,,0,0,0,0,5,0,5,0,,,,,,,,,,,,,,,5,8882.268954536179,8883.269589687465,1,8883.269589687465,X,l,go,None,0,,8884.070990995737,,,,,,,,,,,,,,,,,85,001,24,männlich,Psychologie,2023-01-31_12h08.02.636,00_bat_bachelor,2022.2.4,59.9536358741257,
,,,,0,0,0,0,6,0,6,0,,,,,,,,,,,,,,,6,8884.671045977622,8885.671544401674,1,8885.671544401674,X,None,nogo,l,0,0.4702869786415249,,,,,,,,,,,,,,,,,,85,001,24,männlich,Psychologie,2023-01-31_12h08.02.636,00_bat_bachelor,2022.2.4,59.9536358741257,
,,,,0,0,0,0,7,0,7,0,,,,,,,,,,,,,,,7,8887.289099011337,8888.289988707751,1,8888.289988707751,Y,d,go,d,1,0.5407039141282439,,,,,,,,,,,,,,,,,,85,001,24,männlich,Psychologie,2023-01-31_12h08.02.636,00_bat_bachelor,2022.2.4,59.9536358741257,
,,,,0,0,0,0,8,0,8,0,,,,,,,,,,,,,,,8,8889.541021313285,8890.5417190101,1,8890.5417190101,X,l,go,l,1,0.4651320718694478,,,,,,,,,,,,,,,,,,85,001,24,männlich,Psychologie,2023-01-31_12h08.02.636,00_bat_bachelor,2022.2.4,59.9536358741257,
,,,,0,0,0,0,9,0,9,0,,,,,,,,,,,,,,,9,8891.709268019767,8892.710121352691,1,8892.710121352691,Y,d,go,d,1,0.48868599999696016,,,,,,,,,,,,,,,,,,85,001,24,männlich,Psychologie,2023-01-31_12h08.02.636,00_bat_bachelor,2022.2.4,59.9536358741257,
,,,,0,0,0,0,10,0,10,0,,,,,,,,,,,,,,,10,8893.911020649131,8894.911748406477,1,8894.911748406477,Y,None,nogo,d,0,0.3994918614625931,,,,,,,,,,,,,,,,,,85,001,24,männlich,Psychologie,2023-01-31_12h08.02.636,00_bat_bachelor,2022.2.4,59.9536358741257,
,,,,0,0,0,0,11,0,11,0,,,,,,,,,,,,,,,11,8896.429510579677,8897.430193245877,1,8897.430193245877,X,l,go,l,1,0.6654587625525892,,,,,,,,,,,,,,,,,,85,001,24,männlich,Psychologie,2023-01-31_12h08.02.636,00_bat_bachelor,2022.2.4,59.9536358741257,
,,,,0,0,0,0,12,0,12,0,,,,,,,,,,,,,,,12,8898.798055370571,8899.798915976193,1,8899.798915976193,Y,d,go,d,1,0.48815703042782843,,,,,,,,,,,,,,,,,,85,001,24,männlich,Psychologie,2023-01-31_12h08.02.636,00_bat_bachelor,2022.2.4,59.9536358741257,
,,,,0,0,0,0,13,0,13,0,,,,,,,,,,,,,,,13,8900.99952096981,8902.000415999675,1,8902.000415999675,X,l,go,l,1,0.5262757998425514,,,,,,,,,,,,,,,,,,85,001,24,männlich,Psychologie,2023-01-31_12h08.02.636,00_bat_bachelor,2022.2.4,59.9536358741257,
,,,,0,0,0,0,14,0,14,0,,,,,,,,,,,,,,,14,8903.234755764948,8904.235564006958,1,8904.235564006958,X,None,nogo,None,1,,8905.035912225023,,,,,,,,,,,,,,,,,85,001,24,männlich,Psychologie,2023-01-31_12h08.02.636,00_bat_bachelor,2022.2.4,59.9536358741257,
,,,,1,0,1,0,0,0,0,0,,,,,,,,,,,,,,,0,8939.812433060491,8940.012779630022,0.2,8940.012779630022,X,l,go,None,0,,8940.813431363087,8905.674167430727,j,34.1197416940704,,,,,,,,,,,,,,85,001,24,männlich,Psychologie,2023-01-31_12h08.02.636,00_bat_bachelor,2022.2.4,59.9536358741257,
,,,,1,0,1,0,1,0,1,0,,,,,,,,,,,,,,,1,8941.413836890133,8941.614040914457,0.2,8941.614040914457,Y,d,go,None,0,,8942.414541859645,,,,,,,,,,,,,,,,,85,001,24,männlich,Psychologie,2023-01-31_12h08.02.636,00_bat_bachelor,2022.2.4,59.9536358741257,
,,,,1,0,1,0,2,0,2,0,,,,,,,,,,,,,,,2,8943.01490472001,8943.21520765312,0.2,8943.21520765312,X,l,go,l,1,0.4150676114950329,,,,,,,,,,,,,,,,,,85,001,24,männlich,Psychologie,2023-01-31_12h08.02.636,00_bat_bachelor,2022.2.4,59.9536358741257,
,,,,1,0,1,0,3,0,3,0,,,,,,,,,,,,,,,3,8944.332769293105,8944.532714408357,0.2,8944.532714408357,X,None,nogo,l,0,0.47367994650267065,,,,,,,,,,,,,,,,,,85,001,24,männlich,Psychologie,2023-01-31_12h08.02.636,00_bat_bachelor,2022.2.4,59.9536358741257,
,,,,1,0,1,0,4,0,4,0,,,,,,,,,,,,,,,4,8946.13427823782,8946.334383837879,0.2,8946.334383837879,Y,d,go,d,1,0.49629666307009757,,,,,,,,,,,,,,,,,,85,001,24,männlich,Psychologie,2023-01-31_12h08.02.636,00_bat_bachelor,2022.2.4,59.9536358741257,
,,,,1,0,1,0,5,0,5,0,,,,,,,,,,,,,,,5,8947.551822762704,8947.752183392877,0.2,8947.752183392877,X,l,go,l,1,0.5512154242023826,,,,,,,,,,,,,,,,,,85,001,24,männlich,Psychologie,2023-01-31_12h08.02.636,00_bat_bachelor,2022.2.4,59.9536358741257,
,,,,1,0,1,0,6,0,6,0,,,,,,,,,,,,,,,6,8949.019259142224,8949.219488378381,0.2,8949.219488378381,Y,d,go,d,1,0.42758105997927487,,,,,,,,,,,,,,,,,,85,001,24,männlich,Psychologie,2023-01-31_12h08.02.636,00_bat_bachelor,2022.2.4,59.9536358741257,
,,,,1,0,1,0,7,0,7,0,,,,,,,,,,,,,,,7,8950.35358528304,8950.553484337637,0.2,8950.553484337637,Y,None,nogo,None,1,,,,,,,,,,,,,,,,,,,85,001,24,männlich,Psychologie,2023-01-31_12h08.02.636,00_bat_bachelor,2022.2.4,59.9536358741257,
,,,,1,0,1,0,8,0,8,0,,,,,,,,,,,,,,,8,8951.954805355286,8952.154970106669,0.2,8952.154970106669,X,l,go,l,1,0.403963616816327,,,,,,,,,,,,,,,,,,85,001,24,männlich,Psychologie,2023-01-31_12h08.02.636,00_bat_bachelor,2022.2.4,59.9536358741257,
,,,,1,0,1,0,9,0,9,0,,,,,,,,,,,,,,,9,8953.27253659512,8953.47262231633,0.2,8953.47262231633,Y,d,go,d,1,0.38258277880959213,,,,,,,,,,,,,,,,,,85,001,24,männlich,Psychologie,2023-01-31_12h08.02.636,00_bat_bachelor,2022.2.4,59.9536358741257,
,,,,1,0,1,0,10,0,10,0,,,,,,,,,,,,,,,10,8954.556857426884,8954.756677936064,0.2,8954.756677936064,X,l,go,l,1,0.4576188635546714,,,,,,,,,,,,,,,,,,85,001,24,männlich,Psychologie,2023-01-31_12h08.02.636,00_bat_bachelor,2022.2.4,59.9536358741257,
,,,,1,0,1,0,11,0,11,0,,,,,,,,,,,,,,,11,8955.924558582017,8956.124441636493,0.2,8956.124441636493,X,None,nogo,None,1,,,,,,,,,,,,,,,,,,,85,001,24,männlich,Psychologie,2023-01-31_12h08.02.636,00_bat_bachelor,2022.2.4,59.9536358741257,
,,,,1,0,1,0,12,0,12,0,,,,,,,,,,,,,,,12,8957.52573356335,8957.725604011677,0.2,8957.725604011677,Y,d,go,d,1,0.401273678522557,,,,,,,,,,,,,,,,,,85,001,24,männlich,Psychologie,2023-01-31_12h08.02.636,00_bat_bachelor,2022.2.4,59.9536358741257,
,,,,1,0,1,0,13,0,13,0,,,,,,,,,,,,,,,13,8958.843095833668,8959.043537433492,0.2,8959.043537433492,X,l,go,l,1,0.44340117322281003,,,,,,,,,,,,,,,,,,85,001,24,männlich,Psychologie,2023-01-31_12h08.02.636,00_bat_bachelor,2022.2.4,59.9536358741257,
,,,,1,0,1,0,14,0,14,0,,,,,,,,,,,,,,,14,8960.19430972403,8960.394486111822,0.2,8960.394486111822,Y,d,go,d,1,0.5645695994608104,,,,,,,,,,,,,,,,,,85,001,24,männlich,Psychologie,2023-01-31_12h08.02.636,00_bat_bachelor,2022.2.4,59.9536358741257,
,,,,,,,,,,,,,,,,,,,,,,,,,,,,,,,,,,,,,,8961.695772268577,None,,8961.695772268577,8961.695772268577,space,24.689946023514494,,,,,,,,,,85,001,24,männlich,Psychologie,2023-01-31_12h08.02.636,00_bat_bachelor,2022.2.4,59.9536358741257,
,,,,,,,,,,,,0,0,0,0,0,0,0,0,,,,,,,0,,,1,8987.41510040476,X,l,go,l,1,0.5513012423180044,,,,,,,,,,,,,,,,,,85,001,24,männlich,Psychologie,2023-01-31_12h08.02.636,00_bat_bachelor,2022.2.4,59.9536358741257,
,,,,,,,,,,,,0,0,0,0,1,0,1,0,,,,,,,1,,,1,8989.083105414174,Y,d,go,None,0,,,,,,,,,,,,,,,,,,,85,001,24,männlich,Psychologie,2023-01-31_12h08.02.636,00_bat_bachelor,2022.2.4,59.9536358741257,
,,,,,,,,,,,,0,0,0,0,2,0,2,0,,,,,,,2,,,1,8990.884432055987,X,l,go,l,1,0.6024255810771137,,,,,,,,,,,,,,,,,,85,001,24,männlich,Psychologie,2023-01-31_12h08.02.636,00_bat_bachelor,2022.2.4,59.9536358741257,
,,,,,,,,,,,,0,0,0,0,3,0,3,0,,,,,,,3,,,1,8992.602527707815,X,None,nogo,None,1,,8993.402832774445,,,,,,,,,,,,,,,,,85,001,24,männlich,Psychologie,2023-01-31_12h08.02.636,00_bat_bachelor,2022.2.4,59.9536358741257,
,,,,,,,,,,,,0,0,0,0,4,0,4,0,,,,,,,4,,,1,8994.404011440463,Y,d,go,d,1,0.4907567868940532,,,,,,,,,,,,,,,,,,85,001,24,männlich,Psychologie,2023-01-31_12h08.02.636,00_bat_bachelor,2022.2.4,59.9536358741257,
,,,,,,,,,,,,0,0,0,0,5,0,5,0,,,,,,,5,,,1,8996.004899391439,X,l,go,l,1,0.5213928930461407,,,,,,,,,,,,,,,,,,85,001,24,männlich,Psychologie,2023-01-31_12h08.02.636,00_bat_bachelor,2022.2.4,59.9536358741257,
,,,,,,,,,,,,0,0,0,0,6,0,6,0,,,,,,,6,,,1,8997.639371326426,X,None,nogo,None,1,,,,,,,,,,,,,,,,,,,85,001,24,männlich,Psychologie,2023-01-31_12h08.02.636,00_bat_bachelor,2022.2.4,59.9536358741257,
,,,,,,,,,,,,0,0,0,0,7,0,7,0,,,,,,,7,,,1,8999.440969967982,X,None,nogo,l,0,0.4455674751661718,,,,,,,,,,,,,,,,,,85,001,24,männlich,Psychologie,2023-01-31_12h08.02.636,00_bat_bachelor,2022.2.4,59.9536358741257,
,,,,,,,,,,,,0,0,0,0,8,0,8,0,,,,,,,8,,,1,9000.992290427908,Y,d,go,d,1,0.46331001236103475,,,,,,,,,,,,,,,,,,85,001,24,männlich,Psychologie,2023-01-31_12h08.02.636,00_bat_bachelor,2022.2.4,59.9536358741257,
,,,,,,,,,,,,0,0,0,0,9,0,9,0,,,,,,,9,,,1,9002.559853789164,X,l,go,l,1,0.4630768003407866,,,,,,,,,,,,,,,,,,85,001,24,männlich,Psychologie,2023-01-31_12h08.02.636,00_bat_bachelor,2022.2.4,59.9536358741257,
,,,,,,,,,,,,0,0,0,0,10,0,10,0,,,,,,,10,,,1,9004.127947089495,X,None,nogo,None,1,,,,,,,,,,,,,,,,,,,85,001,24,männlich,Psychologie,2023-01-31_12h08.02.636,00_bat_bachelor,2022.2.4,59.9536358741257,
,,,,,,,,,,,,0,0,0,0,11,0,11,0,,,,,,,11,,,1,9005.928987185936,Y,d,go,d,1,0.35838545695878565,,,,,,,,,,,,,,,,,,85,001,24,männlich,Psychologie,2023-01-31_12h08.02.636,00_bat_bachelor,2022.2.4,59.9536358741257,
,,,,,,,,,,,,0,0,0,0,12,0,12,0,,,,,,,12,,,1,9007.397167807445,X,l,go,l,1,0.4412164471577853,,,,,,,,,,,,,,,,,,85,001,24,männlich,Psychologie,2023-01-31_12h08.02.636,00_bat_bachelor,2022.2.4,59.9536358741257,
,,,,,,,,,,,,0,0,0,0,13,0,13,0,,,,,,,13,,,1,9008.948242449202,Y,d,go,d,1,0.4107965831644833,,,,,,,,,,,,,,,,,,85,001,24,männlich,Psychologie,2023-01-31_12h08.02.636,00_bat_bachelor,2022.2.4,59.9536358741257,
,,,,,,,,,,,,0,0,0,0,14,0,14,0,,,,,,,14,,,1,9010.465705955867,Y,None,nogo,None,1,,,,,,,,,,,,,,,,,,,85,001,24,männlich,Psychologie,2023-01-31_12h08.02.636,00_bat_bachelor,2022.2.4,59.9536358741257,
,,,,,,,,,,,,0,0,0,0,15,0,15,0,,,,,,,15,,,1,9012.267265324946,X,l,go,l,1,0.435691601363942,,,,,,,,,,,,,,,,,,85,001,24,männlich,Psychologie,2023-01-31_12h08.02.636,00_bat_bachelor,2022.2.4,59.9536358741257,
,,,,,,,,,,,,0,0,0,0,16,0,16,0,,,,,,,16,,,1,9013.81834045169,Y,d,go,d,1,0.6286616898141801,,,,,,,,,,,,,,,,,,85,001,24,männlich,Psychologie,2023-01-31_12h08.02.636,00_bat_bachelor,2022.2.4,59.9536358741257,
,,,,,,,,,,,,0,0,0,0,17,0,17,0,,,,,,,17,,,1,9015.553271489218,Y,None,nogo,None,1,,,,,,,,,,,,,,,,,,,85,001,24,männlich,Psychologie,2023-01-31_12h08.02.636,00_bat_bachelor,2022.2.4,59.9536358741257,
,,,,,,,,,,,,0,0,0,0,18,0,18,0,,,,,,,18,,,1,9017.35538406996,X,l,go,l,1,0.33902546647004783,,,,,,,,,,,,,,,,,,85,001,24,männlich,Psychologie,2023-01-31_12h08.02.636,00_bat_bachelor,2022.2.4,59.9536358741257,
,,,,,,,,,,,,0,0,0,0,19,0,19,0,,,,,,,19,,,1,9018.823170509888,Y,d,go,d,1,0.45537159172818065,,,,,,,,,,,,,,,,,,85,001,24,männlich,Psychologie,2023-01-31_12h08.02.636,00_bat_bachelor,2022.2.4,59.9536358741257,
,,,,,,,,,,,,0,0,0,0,20,0,20,0,,,,,,,20,,,1,9020.407680287026,Y,None,nogo,None,1,,9021.20841492922,,,,,,,,,,,,,,,,,85,001,24,männlich,Psychologie,2023-01-31_12h08.02.636,00_bat_bachelor,2022.2.4,59.9536358741257,
,,,,,,,,,,,,0,0,0,0,21,0,21,0,,,,,,,21,,,1,9022.209062686423,X,l,go,l,1,0.38087077951058745,,,,,,,,,,,,,,,,,,85,001,24,männlich,Psychologie,2023-01-31_12h08.02.636,00_bat_bachelor,2022.2.4,59.9536358741257,
,,,,,,,,,,,,0,0,0,0,22,0,22,0,,,,,,,22,,,1,9023.710306079825,Y,d,go,d,1,0.41660021687857807,,,,,,,,,,,,,,,,,,85,001,24,männlich,Psychologie,2023-01-31_12h08.02.636,00_bat_bachelor,2022.2.4,59.9536358741257,
,,,,,,,,,,,,0,0,0,0,23,0,23,0,,,,,,,23,,,1,9025.244737335946,X,l,go,l,1,0.6588885842356831,,,,,,,,,,,,,,,,,,85,001,24,männlich,Psychologie,2023-01-31_12h08.02.636,00_bat_bachelor,2022.2.4,59.9536358741257,
,,,,,,,,,,,,0,0,0,0,24,0,24,0,,,,,,,24,,,1,9027.012523145415,X,None,nogo,None,1,,9027.813435726799,,,,,,,,,,,,,,,,,85,001,24,männlich,Psychologie,2023-01-31_12h08.02.636,00_bat_bachelor,2022.2.4,59.9536358741257,
,,,,,,,,,,,,0,0,0,0,25,0,25,0,,,,,,,25,,,1,9028.814061180921,Y,d,go,d,1,0.3528572174254805,,,,,,,,,,,,,,,,,,85,001,24,männlich,Psychologie,2023-01-31_12h08.02.636,00_bat_bachelor,2022.2.4,59.9536358741257,
,,,,,,,,,,,,0,0,0,0,26,0,26,0,,,,,,,26,,,1,9030.281678893603,X,l,go,l,1,0.42022542702034116,,,,,,,,,,,,,,,,,,85,001,24,männlich,Psychologie,2023-01-31_12h08.02.636,00_bat_bachelor,2022.2.4,59.9536358741257,
,,,,,,,,,,,,0,0,0,0,27,0,27,0,,,,,,,27,,,1,9031.832902868744,Y,d,go,d,1,0.38991756294853985,,,,,,,,,,,,,,,,,,85,001,24,männlich,Psychologie,2023-01-31_12h08.02.636,00_bat_bachelor,2022.2.4,59.9536358741257,
,,,,,,,,,,,,0,0,0,0,28,0,28,0,,,,,,,28,,,1,9033.350360557437,Y,None,nogo,None,1,,9034.151009381283,,,,,,,,,,,,,,,,,85,001,24,männlich,Psychologie,2023-01-31_12h08.02.636,00_bat_bachelor,2022.2.4,59.9536358741257,
,,,,,,,,,,,,0,0,0,0,29,0,29,0,,,,,,,29,,,1,9035.151910714107,X,l,go,l,1,0.27099204482510686,,,,,,,,,,,,,,,,,,85,001,24,männlich,Psychologie,2023-01-31_12h08.02.636,00_bat_bachelor,2022.2.4,59.9536358741257,
,,,,,,,,,,,,0,0,0,0,30,0,30,0,,,,,,,30,,,1,9036.53613404301,Y,d,go,d,1,0.3584470327477902,,,,,,,,,,,,,,,,,,85,001,24,männlich,Psychologie,2023-01-31_12h08.02.636,00_bat_bachelor,2022.2.4,59.9536358741257,
,,,,,,,,,,,,0,0,0,0,31,0,31,0,,,,,,,31,,,1,9038.004082422238,X,l,go,l,1,0.49015993857756257,,,,,,,,,,,,,,,,,,85,001,24,männlich,Psychologie,2023-01-31_12h08.02.636,00_bat_bachelor,2022.2.4,59.9536358741257,
,,,,,,,,,,,,0,0,0,0,32,0,32,0,,,,,,,32,,,1,9039.60522540356,X,None,nogo,None,1,,,,,,,,,,,,,,,,,,,85,001,24,männlich,Psychologie,2023-01-31_12h08.02.636,00_bat_bachelor,2022.2.4,59.9536358741257,
,,,,,,,,,,,,0,0,0,0,33,0,33,0,,,,,,,33,,,1,9041.406732408796,Y,d,go,d,1,0.43168384581804276,,,,,,,,,,,,,,,,,,85,001,24,männlich,Psychologie,2023-01-31_12h08.02.636,00_bat_bachelor,2022.2.4,59.9536358741257,
,,,,,,,,,,,,0,0,0,0,34,0,34,0,,,,,,,34,,,1,9042.941176270833,X,l,go,l,1,0.4015902846585959,,,,,,,,,,,,,,,,,,85,001,24,männlich,Psychologie,2023-01-31_12h08.02.636,00_bat_bachelor,2022.2.4,59.9536358741257,
,,,,,,,,,,,,0,0,0,0,35,0,35,0,,,,,,,35,,,1,9044.45883371681,Y,d,go,d,1,0.43478978355415165,,,,,,,,,,,,,,,,,,85,001,24,männlich,Psychologie,2023-01-31_12h08.02.636,00_bat_bachelor,2022.2.4,59.9536358741257,
,,,,,,,,,,,,0,0,0,0,36,0,36,0,,,,,,,36,,,1,9046.026608956745,X,l,go,l,1,0.5643853573128581,,,,,,,,,,,,,,,,,,85,001,24,männlich,Psychologie,2023-01-31_12h08.02.636,00_bat_bachelor,2022.2.4,59.9536358741257,
,,,,,,,,,,,,0,0,0,0,37,0,37,0,,,,,,,37,,,1,9047.69441469363,X,None,nogo,None,1,,9048.495231274981,,,,,,,,,,,,,,,,,85,001,24,männlich,Psychologie,2023-01-31_12h08.02.636,00_bat_bachelor,2022.2.4,59.9536358741257,
,,,,,,,,,,,,0,0,0,0,38,0,38,0,,,,,,,38,,,1,9049.495687032351,Y,d,go,d,1,0.34277916164137423,,,,,,,,,,,,,,,,,,85,001,24,männlich,Psychologie,2023-01-31_12h08.02.636,00_bat_bachelor,2022.2.4,59.9536358741257,
,,,,,,,,,,,,0,0,0,0,39,0,39,0,,,,,,,39,,,1,9050.947189358994,X,l,go,l,1,0.3950826514046639,,,,,,,,,,,,,,,,,,85,001,24,männlich,Psychologie,2023-01-31_12h08.02.636,00_bat_bachelor,2022.2.4,59.9536358741257,
,,,,,,,,,,,,0,0,0,0,40,0,40,0,,,,,,,40,,,1,9052.448425964452,Y,d,go,d,1,0.44586274796165526,,,,,,,,,,,,,,,,,,85,001,24,männlich,Psychologie,2023-01-31_12h08.02.636,00_bat_bachelor,2022.2.4,59.9536358741257,
,,,,,,,,,,,,0,0,0,0,41,0,41,0,,,,,,,41,,,1,9053.999334303197,X,l,go,l,1,0.5118549584876746,,,,,,,,,,,,,,,,,,85,001,24,männlich,Psychologie,2023-01-31_12h08.02.636,00_bat_bachelor,2022.2.4,59.9536358741257,
,,,,,,,,,,,,0,0,0,0,42,0,42,0,,,,,,,42,,,1,9055.617382003693,X,None,nogo,None,1,,9056.418080766918,,,,,,,,,,,,,,,,,85,001,24,männlich,Psychologie,2023-01-31_12h08.02.636,00_bat_bachelor,2022.2.4,59.9536358741257,
,,,,,,,,,,,,0,0,0,0,43,0,43,0,,,,,,,43,,,1,9057.418782827212,Y,d,go,d,1,0.35650376114062965,,,,,,,,,,,,,,,,,,85,001,24,männlich,Psychologie,2023-01-31_12h08.02.636,00_bat_bachelor,2022.2.4,59.9536358741257,
,,,,,,,,,,,,0,0,0,0,44,0,44,0,,,,,,,44,,,1,9058.886339933844,X,l,go,l,1,0.37668556929565966,,,,,,,,,,,,,,,,,,85,001,24,männlich,Psychologie,2023-01-31_12h08.02.636,00_bat_bachelor,2022.2.4,59.9536358741257,
,,,,,,,,,,,,0,0,0,0,45,0,45,0,,,,,,,45,,,1,9060.370499214157,X,None,nogo,None,1,,,,,,,,,,,,,,,,,,,85,001,24,männlich,Psychologie,2023-01-31_12h08.02.636,00_bat_bachelor,2022.2.4,59.9536358741257,
,,,,,,,,,,,,0,0,0,0,46,0,46,0,,,,,,,46,,,1,9062.171748765279,Y,d,go,d,1,0.2428950888570398,,,,,,,,,,,,,,,,,,85,001,24,männlich,Psychologie,2023-01-31_12h08.02.636,00_bat_bachelor,2022.2.4,59.9536358741257,
,,,,,,,,,,,,0,0,0,0,47,0,47,0,,,,,,,47,,,1,9063.523105685832,X,l,go,l,1,0.3633420607075095,,,,,,,,,,,,,,,,,,85,001,24,männlich,Psychologie,2023-01-31_12h08.02.636,00_bat_bachelor,2022.2.4,59.9536358741257,
,,,,,,,,,,,,0,0,0,0,48,0,48,0,,,,,,,48,,,1,9064.990803398425,Y,d,go,d,1,0.400081921601668,,,,,,,,,,,,,,,,,,85,001,24,männlich,Psychologie,2023-01-31_12h08.02.636,00_bat_bachelor,2022.2.4,59.9536358741257,
,,,,,,,,,,,,0,0,0,0,49,0,49,0,,,,,,,49,,,1,9066.491867397912,X,l,go,l,1,0.3223709291778505,,,,,,,,,,,,,,,,,,85,001,24,männlich,Psychologie,2023-01-31_12h08.02.636,00_bat_bachelor,2022.2.4,59.9536358741257,
,,,,,,,,,,,,0,0,0,0,50,0,50,0,,,,,,,50,,,1,9067.9262148235,X,None,nogo,None,1,,9068.727027526358,,,,,,,,,,,,,,,,,85,001,24,männlich,Psychologie,2023-01-31_12h08.02.636,00_bat_bachelor,2022.2.4,59.9536358741257,
,,,,,,,,,,,,0,0,0,0,51,0,51,0,,,,,,,51,,,1,9069.727716495516,Y,d,go,d,1,0.31919032451696694,,,,,,,,,,,,,,,,,,85,001,24,männlich,Psychologie,2023-01-31_12h08.02.636,00_bat_bachelor,2022.2.4,59.9536358741257,
,,,,,,,,,,,,0,0,0,0,52,0,52,0,,,,,,,52,,,1,9071.162274830276,X,l,go,l,1,0.42003488168120384,,,,,,,,,,,,,,,,,,85,001,24,männlich,Psychologie,2023-01-31_12h08.02.636,00_bat_bachelor,2022.2.4,59.9536358741257,
,,,,,,,,,,,,0,0,0,0,53,0,53,0,,,,,,,53,,,1,9072.69680111669,Y,d,go,d,1,0.3742700554430485,,,,,,,,,,,,,,,,,,85,001,24,männlich,Psychologie,2023-01-31_12h08.02.636,00_bat_bachelor,2022.2.4,59.9536358741257,
,,,,,,,,,,,,0,0,0,0,54,0,54,0,,,,,,,54,,,1,9074.181801608764,Y,None,nogo,None,1,,9074.98202667525,,,,,,,,,,,,,,,,,85,001,24,männlich,Psychologie,2023-01-31_12h08.02.636,00_bat_bachelor,2022.2.4,59.9536358741257,
,,,,,,,,,,,,0,0,0,0,55,0,55,0,,,,,,,55,,,1,9075.982625462813,X,l,go,l,1,0.31999226356856525,,,,,,,,,,,,,,,,,,85,001,24,männlich,Psychologie,2023-01-31_12h08.02.636,00_bat_bachelor,2022.2.4,59.9536358741257,
,,,,,,,,,,,,0,0,0,0,56,0,56,0,,,,,,,56,,,1,9077.417036403902,Y,d,go,d,1,0.47003582725301385,,,,,,,,,,,,,,,,,,85,001,24,männlich,Psychologie,2023-01-31_12h08.02.636,00_bat_bachelor,2022.2.4,59.9536358741257,
,,,,,,,,,,,,0,0,0,0,57,0,57,0,,,,,,,57,,,1,9079.001507393084,X,l,go,l,1,0.4214191234204918,,,,,,,,,,,,,,,,,,85,001,24,männlich,Psychologie,2023-01-31_12h08.02.636,00_bat_bachelor,2022.2.4,59.9536358741257,
,,,,,,,,,,,,0,0,0,0,58,0,58,0,,,,,,,58,,,1,9080.536091861315,Y,d,go,d,1,0.3903801082633436,,,,,,,,,,,,,,,,,,85,001,24,männlich,Psychologie,2023-01-31_12h08.02.636,00_bat_bachelor,2022.2.4,59.9536358741257,
,,,,,,,,,,,,0,0,0,0,59,0,59,0,,,,,,,59,,,1,9082.037215012126,Y,None,nogo,None,1,,,,,,,,,,,,,,,,,,,85,001,24,männlich,Psychologie,2023-01-31_12h08.02.636,00_bat_bachelor,2022.2.4,59.9536358741257,
,,,,,,,,,,,,0,0,0,0,60,0,60,0,,,,,,,60,,,1,9083.83841607836,X,l,go,l,1,0.2243312189821154,,,,,,,,,,,,,,,,,,85,001,24,männlich,Psychologie,2023-01-31_12h08.02.636,00_bat_bachelor,2022.2.4,59.9536358741257,
,,,,,,,,,,,,0,0,0,0,61,0,61,0,,,,,,,61,,,1,9085.172922097845,Y,d,go,d,1,0.33031371305696666,,,,,,,,,,,,,,,,,,85,001,24,männlich,Psychologie,2023-01-31_12h08.02.636,00_bat_bachelor,2022.2.4,59.9536358741257,
,,,,,,,,,,,,0,0,0,0,62,0,62,0,,,,,,,62,,,1,9086.6075201903,Y,None,nogo,None,1,,,,,,,,,,,,,,,,,,,85,001,24,männlich,Psychologie,2023-01-31_12h08.02.636,00_bat_bachelor,2022.2.4,59.9536358741257,
,,,,,,,,,,,,0,0,0,0,63,0,63,0,,,,,,,63,,,1,9088.40865822602,X,l,go,l,1,0.2457421177532524,,,,,,,,,,,,,,,,,,85,001,24,männlich,Psychologie,2023-01-31_12h08.02.636,00_bat_bachelor,2022.2.4,59.9536358741257,
,,,,,,,,,,,,0,0,0,0,64,0,64,0,,,,,,,64,,,1,9089.759778055828,Y,d,go,d,1,0.4144305207300931,,,,,,,,,,,,,,,,,,85,001,24,männlich,Psychologie,2023-01-31_12h08.02.636,00_bat_bachelor,2022.2.4,59.9536358741257,
,,,,,,,,,,,,0,0,0,0,65,0,65,0,,,,,,,65,,,1,9091.277645925991,X,l,go,l,1,0.4178045797161758,,,,,,,,,,,,,,,,,,85,001,24,männlich,Psychologie,2023-01-31_12h08.02.636,00_bat_bachelor,2022.2.4,59.9536358741257,
,,,,,,,,,,,,0,0,0,0,66,0,66,0,,,,,,,66,,,1,9092.811875000363,X,None,nogo,None,1,,,,,,,,,,,,,,,,,,,85,001,24,männlich,Psychologie,2023-01-31_12h08.02.636,00_bat_bachelor,2022.2.4,59.9536358741257,
,,,,,,,,,,,,0,0,0,0,67,0,67,0,,,,,,,67,,,1,9094.613528429763,Y,d,go,d,1,0.3452208572998643,,,,,,,,,,,,,,,,,,85,001,24,männlich,Psychologie,2023-01-31_12h08.02.636,00_bat_bachelor,2022.2.4,59.9536358741257,
,,,,,,,,,,,,0,0,0,0,68,0,68,0,,,,,,,68,,,1,9096.064524089918,X,l,go,l,1,0.36619248357601464,,,,,,,,,,,,,,,,,,85,001,24,männlich,Psychologie,2023-01-31_12h08.02.636,00_bat_bachelor,2022.2.4,59.9536358741257,
,,,,,,,,,,,,0,0,0,0,69,0,69,0,,,,,,,69,,,1,9097.532440469135,X,None,nogo,None,1,,,,,,,,,,,,,,,,,,,85,001,24,männlich,Psychologie,2023-01-31_12h08.02.636,00_bat_bachelor,2022.2.4,59.9536358741257,
,,,,,,,,,,,,0,0,0,0,70,0,70,0,,,,,,,70,,,1,9099.333493171493,X,None,nogo,None,1,,,,,,,,,,,,,,,,,,,85,001,24,männlich,Psychologie,2023-01-31_12h08.02.636,00_bat_bachelor,2022.2.4,59.9536358741257,
,,,,,,,,,,,,0,0,0,0,71,0,71,0,,,,,,,71,,,1,9101.135058358777,Y,d,go,d,1,0.20816880255006254,,,,,,,,,,,,,,,,,,85,001,24,männlich,Psychologie,2023-01-31_12h08.02.636,00_bat_bachelor,2022.2.4,59.9536358741257,
,,,,,,,,,,,,0,0,0,0,72,0,72,0,,,,,,,72,,,1,9102.452835174277,X,l,go,l,1,0.24938817648217082,,,,,,,,,,,,,,,,,,85,001,24,männlich,Psychologie,2023-01-31_12h08.02.636,00_bat_bachelor,2022.2.4,59.9536358741257,
,,,,,,,,,,,,0,0,0,0,73,0,73,0,,,,,,,73,,,1,9103.803842034424,X,None,nogo,None,1,,9104.60448116134,,,,,,,,,,,,,,,,,85,001,24,männlich,Psychologie,2023-01-31_12h08.02.636,00_bat_bachelor,2022.2.4,59.9536358741257,
,,,,,,,,,,,,0,0,0,0,74,0,74,0,,,,,,,74,,,1,9105.60517982766,X,None,nogo,None,1,,,,,,,,,,,,,,,,,,,85,001,24,männlich,Psychologie,2023-01-31_12h08.02.636,00_bat_bachelor,2022.2.4,59.9536358741257,
,,,,,,,,,,,,0,0,0,0,75,0,75,0,,,,,,,75,,,1,9107.406442469452,Y,d,go,d,1,0.3841910201590508,,,,,,,,,,,,,,,,,,85,001,24,männlich,Psychologie,2023-01-31_12h08.02.636,00_bat_bachelor,2022.2.4,59.9536358741257,
,,,,,,,,,,,,0,0,0,0,76,0,76,0,,,,,,,76,,,1,9108.90771204466,X,l,go,l,1,0.5465371233876795,,,,,,,,,,,,,,,,,,85,001,24,männlich,Psychologie,2023-01-31_12h08.02.636,00_bat_bachelor,2022.2.4,59.9536358741257,
,,,,,,,,,,,,0,0,0,0,77,0,77,0,,,,,,,77,,,1,9110.559016941115,Y,d,go,d,1,0.4156702777836472,,,,,,,,,,,,,,,,,,85,001,24,männlich,Psychologie,2023-01-31_12h08.02.636,00_bat_bachelor,2022.2.4,59.9536358741257,
,,,,,,,,,,,,0,0,0,0,78,0,78,0,,,,,,,78,,,1,9112.076797538437,X,l,go,l,1,0.32169359596446157,,,,,,,,,,,,,,,,,,85,001,24,männlich,Psychologie,2023-01-31_12h08.02.636,00_bat_bachelor,2022.2.4,59.9536358741257,
,,,,,,,,,,,,0,0,0,0,79,0,79,0,,,,,,,79,,,1,9113.511190055171,X,None,nogo,None,1,,,,,,,,,,,,,,,,,,,85,001,24,männlich,Psychologie,2023-01-31_12h08.02.636,00_bat_bachelor,2022.2.4,59.9536358741257,
,,,,,,,,,,,,0,0,0,0,80,0,80,0,,,,,,,80,,,1,9115.312316454481,Y,d,go,d,1,0.31773820403032005,,,,,,,,,,,,,,,,,,85,001,24,männlich,Psychologie,2023-01-31_12h08.02.636,00_bat_bachelor,2022.2.4,59.9536358741257,
,,,,,,,,,,,,0,0,0,0,81,0,81,0,,,,,,,81,,,1,9116.74700763775,X,l,go,l,1,0.5475499713793397,,,,,,,,,,,,,,,,,,85,001,24,männlich,Psychologie,2023-01-31_12h08.02.636,00_bat_bachelor,2022.2.4,59.9536358741257,
,,,,,,,,,,,,0,0,0,0,82,0,82,0,,,,,,,82,,,1,9118.39834598871,Y,d,go,d,1,0.40083973947912455,,,,,,,,,,,,,,,,,,85,001,24,männlich,Psychologie,2023-01-31_12h08.02.636,00_bat_bachelor,2022.2.4,59.9536358741257,
,,,,,,,,,,,,0,0,0,0,83,0,83,0,,,,,,,83,,,1,9119.916089252802,X,l,go,l,1,0.4026656779460609,,,,,,,,,,,,,,,,,,85,001,24,männlich,Psychologie,2023-01-31_12h08.02.636,00_bat_bachelor,2022.2.4,59.9536358741257,
,,,,,,,,,,,,0,0,0,0,84,0,84,0,,,,,,,84,,,1,9121.434019183507,X,None,nogo,None,1,,,,,,,,,,,,,,,,,,,85,001,24,männlich,Psychologie,2023-01-31_12h08.02.636,00_bat_bachelor,2022.2.4,59.9536358741257,
,,,,,,,,,,,,0,0,0,0,85,0,85,0,,,,,,,85,,,1,9123.235245946562,Y,d,go,d,1,0.2828965240623802,,,,,,,,,,,,,,,,,,85,001,24,männlich,Psychologie,2023-01-31_12h08.02.636,00_bat_bachelor,2022.2.4,59.9536358741257,
,,,,,,,,,,,,0,0,0,0,86,0,86,0,,,,,,,86,,,1,9124.619398972252,X,l,go,l,1,0.38727853377349675,,,,,,,,,,,,,,,,,,85,001,24,männlich,Psychologie,2023-01-31_12h08.02.636,00_bat_bachelor,2022.2.4,59.9536358741257,
,,,,,,,,,,,,0,0,0,0,87,0,87,0,,,,,,,87,,,1,9126.12056818395,X,None,nogo,None,1,,,,,,,,,,,,,,,,,,,85,001,24,männlich,Psychologie,2023-01-31_12h08.02.636,00_bat_bachelor,2022.2.4,59.9536358741257,
,,,,,,,,,,,,0,0,0,0,88,0,88,0,,,,,,,88,,,1,9127.92211397714,Y,d,go,d,1,0.38081259769387543,,,,,,,,,,,,,,,,,,85,001,24,männlich,Psychologie,2023-01-31_12h08.02.636,00_bat_bachelor,2022.2.4,59.9536358741257,
,,,,,,,,,,,,0,0,0,0,89,0,89,0,,,,,,,89,,,1,9129.406372651458,X,l,go,l,1,0.41609161091037095,,,,,,,,,,,,,,,,,,85,001,24,männlich,Psychologie,2023-01-31_12h08.02.636,00_bat_bachelor,2022.2.4,59.9536358741257,
,,,,,,,,,,,,0,0,0,0,90,0,90,0,,,,,,,90,,,1,9130.92460997589,X,None,nogo,l,0,0.5778529869858176,,,,,,,,,,,,,,,,,,85,001,24,männlich,Psychologie,2023-01-31_12h08.02.636,00_bat_bachelor,2022.2.4,59.9536358741257,
,,,,,,,,,,,,0,0,0,0,91,0,91,0,,,,,,,91,,,1,9132.608870007796,Y,d,go,d,1,0.36535563552752137,,,,,,,,,,,,,,,,,,85,001,24,männlich,Psychologie,2023-01-31_12h08.02.636,00_bat_bachelor,2022.2.4,59.9536358741257,
,,,,,,,,,,,,0,0,0,0,92,0,92,0,,,,,,,92,,,1,9134.076614265796,X,l,go,l,1,0.28916609683074057,,,,,,,,,,,,,,,,,,85,001,24,männlich,Psychologie,2023-01-31_12h08.02.636,00_bat_bachelor,2022.2.4,59.9536358741257,
,,,,,,,,,,,,0,0,0,0,93,0,93,0,,,,,,,93,,,1,9135.477596859215,Y,d,go,d,1,0.3610036375466734,,,,,,,,,,,,,,,,,,85,001,24,männlich,Psychologie,2023-01-31_12h08.02.636,00_bat_bachelor,2022.2.4,59.9536358741257,
,,,,,,,,,,,,0,0,0,0,94,0,94,0,,,,,,,94,,,1,9136.945756147383,X,l,go,l,1,0.4924760586582124,,,,,,,,,,,,,,,,,,85,001,24,männlich,Psychologie,2023-01-31_12h08.02.636,00_bat_bachelor,2022.2.4,59.9536358741257,
,,,,,,,,,,,,0,0,0,0,95,0,95,0,,,,,,,95,,,1,9138.546978643863,Y,d,go,d,1,0.42793839308433235,,,,,,,,,,,,,,,,,,85,001,24,männlich,Psychologie,2023-01-31_12h08.02.636,00_bat_bachelor,2022.2.4,59.9536358741257,
,,,,,,,,,,,,0,0,0,0,96,0,96,0,,,,,,,96,,,1,9140.081454505911,X,l,go,l,1,0.2849207653198391,,,,,,,,,,,,,,,,,,85,001,24,männlich,Psychologie,2023-01-31_12h08.02.636,00_bat_bachelor,2022.2.4,59.9536358741257,
,,,,,,,,,,,,0,0,0,0,97,0,97,0,,,,,,,97,,,1,9141.482506917557,Y,d,go,d,1,0.40399270760826766,,,,,,,,,,,,,,,,,,85,001,24,männlich,Psychologie,2023-01-31_12h08.02.636,00_bat_bachelor,2022.2.4,59.9536358741257,
,,,,,,,,,,,,0,0,0,0,98,0,98,0,,,,,,,98,,,1,9143.000334060285,X,l,go,l,1,0.3259685030207038,,,,,,,,,,,,,,,,,,85,001,24,männlich,Psychologie,2023-01-31_12h08.02.636,00_bat_bachelor,2022.2.4,59.9536358741257,
,,,,,,,,,,,,0,0,0,0,99,0,99,0,,,,,,,99,,,1,9144.43453603168,Y,d,go,d,1,0.5086341113783419,,,,,,,,,,,,,,,,,,85,001,24,männlich,Psychologie,2023-01-31_12h08.02.636,00_bat_bachelor,2022.2.4,59.9536358741257,
,,,,,,,,,,,,0,0,0,0,100,0,100,0,,,,,,,100,,,1,9146.052480459446,X,l,go,l,1,0.3778026597574353,,,,,,,,,,,,,,,,,,85,001,24,männlich,Psychologie,2023-01-31_12h08.02.636,00_bat_bachelor,2022.2.4,59.9536358741257,
,,,,,,,,,,,,0,0,0,0,101,0,101,0,,,,,,,101,,,1,9147.537160951644,Y,d,go,d,1,0.3494114007335156,,,,,,,,,,,,,,,,,,85,001,24,männlich,Psychologie,2023-01-31_12h08.02.636,00_bat_bachelor,2022.2.4,59.9536358741257,
,,,,,,,,,,,,0,0,0,0,102,0,102,0,,,,,,,102,,,1,9148.98836024804,X,l,go,l,1,0.3704736935906112,,,,,,,,,,,,,,,,,,85,001,24,männlich,Psychologie,2023-01-31_12h08.02.636,00_bat_bachelor,2022.2.4,59.9536358741257,
,,,,,,,,,,,,0,0,0,0,103,0,103,0,,,,,,,103,,,1,9150.472731407033,X,None,nogo,None,1,,9151.273392352276,,,,,,,,,,,,,,,,,85,001,24,männlich,Psychologie,2023-01-31_12h08.02.636,00_bat_bachelor,2022.2.4,59.9536358741257,
,,,,,,,,,,,,0,0,0,0,104,0,104,0,,,,,,,104,,,1,9152.274100230774,Y,d,go,d,1,0.4132198547013104,,,,,,,,,,,,,,,,,,85,001,24,männlich,Psychologie,2023-01-31_12h08.02.636,00_bat_bachelor,2022.2.4,59.9536358741257,
,,,,,,,,,,,,0,0,0,0,105,0,105,0,,,,,,,105,,,1,9153.791629191954,X,l,go,l,1,0.3827185360714793,,,,,,,,,,,,,,,,,,85,001,24,männlich,Psychologie,2023-01-31_12h08.02.636,00_bat_bachelor,2022.2.4,59.9536358741257,
,,,,,,,,,,,,0,0,0,0,106,0,106,0,,,,,,,106,,,1,9155.27635962353,Y,d,go,d,1,0.4339257839601487,,,,,,,,,,,,,,,,,,85,001,24,männlich,Psychologie,2023-01-31_12h08.02.636,00_bat_bachelor,2022.2.4,59.9536358741257,
,,,,,,,,,,,,0,0,0,0,107,0,107,0,,,,,,,107,,,1,9156.827333901776,Y,None,nogo,None,1,,,,,,,,,,,,,,,,,,,85,001,24,männlich,Psychologie,2023-01-31_12h08.02.636,00_bat_bachelor,2022.2.4,59.9536358741257,
,,,,,,,,,,,,0,0,0,0,108,0,108,0,,,,,,,108,,,1,9158.628831210313,X,l,go,l,1,0.2822584635578096,,,,,,,,,,,,,,,,,,85,001,24,männlich,Psychologie,2023-01-31_12h08.02.636,00_bat_bachelor,2022.2.4,59.9536358741257,
,,,,,,,,,,,,0,0,0,0,109,0,109,0,,,,,,,109,,,1,9160.013351266272,Y,d,go,d,1,0.43281645118258893,,,,,,,,,,,,,,,,,,85,001,24,männlich,Psychologie,2023-01-31_12h08.02.636,00_bat_bachelor,2022.2.4,59.9536358741257,
,,,,,,,,,,,,0,0,0,0,110,0,110,0,,,,,,,110,,,1,9161.54785573436,Y,None,nogo,None,1,,,,,,,,,,,,,,,,,,,85,001,24,männlich,Psychologie,2023-01-31_12h08.02.636,00_bat_bachelor,2022.2.4,59.9536358741257,
,,,,,,,,,,,,0,0,0,0,111,0,111,0,,,,,,,111,,,1,9163.34944855771,X,l,go,l,1,0.39311222825199366,,,,,,,,,,,,,,,,,,85,001,24,männlich,Psychologie,2023-01-31_12h08.02.636,00_bat_bachelor,2022.2.4,59.9536358741257,
,,,,,,,,,,,,0,0,0,0,112,0,112,0,,,,,,,112,,,1,9164.850058254553,Y,d,go,d,1,0.4441066274885088,,,,,,,,,,,,,,,,,,85,001,24,männlich,Psychologie,2023-01-31_12h08.02.636,00_bat_bachelor,2022.2.4,59.9536358741257,
,,,,,,,,,,,,0,0,0,0,113,0,113,0,,,,,,,113,,,1,9166.401730714366,Y,None,nogo,None,1,,9167.202451295685,,,,,,,,,,,,,,,,,85,001,24,männlich,Psychologie,2023-01-31_12h08.02.636,00_bat_bachelor,2022.2.4,59.9536358741257,
,,,,,,,,,,,,0,0,0,0,114,0,114,0,,,,,,,114,,,1,9168.202880386496,X,l,go,l,1,0.2592451414093375,,,,,,,,,,,,,,,,,,85,001,24,männlich,Psychologie,2023-01-31_12h08.02.636,00_bat_bachelor,2022.2.4,59.9536358741257,
,,,,,,,,,,,,0,0,0,0,115,0,115,0,,,,,,,115,,,1,9169.570586389862,Y,d,go,d,1,0.36481502978131175,,,,,,,,,,,,,,,,,,85,001,24,männlich,Psychologie,2023-01-31_12h08.02.636,00_bat_bachelor,2022.2.4,59.9536358741257,
,,,,,,,,,,,,0,0,0,0,116,0,116,0,,,,,,,116,,,1,9171.03811295121,X,l,go,l,1,0.5117972614243627,,,,,,,,,,,,,,,,,,85,001,24,männlich,Psychologie,2023-01-31_12h08.02.636,00_bat_bachelor,2022.2.4,59.9536358741257,
,,,,,,,,,,,,0,0,0,0,117,0,117,0,,,,,,,117,,,1,9172.655933742644,Y,d,go,d,1,0.35032243048772216,,,,,,,,,,,,,,,,,,85,001,24,männlich,Psychologie,2023-01-31_12h08.02.636,00_bat_bachelor,2022.2.4,59.9536358741257,
,,,,,,,,,,,,0,0,0,0,118,0,118,0,,,,,,,118,,,1,9174.123827818781,X,l,go,l,1,0.3229760196991265,,,,,,,,,,,,,,,,,,85,001,24,männlich,Psychologie,2023-01-31_12h08.02.636,00_bat_bachelor,2022.2.4,59.9536358741257,
,,,,,,,,,,,,0,0,0,0,119,0,119,0,,,,,,,119,,,1,9175.559077547165,X,None,nogo,None,1,,9176.359705522424,,,,,,,,,,,,,,,,,85,001,24,männlich,Psychologie,2023-01-31_12h08.02.636,00_bat_bachelor,2022.2.4,59.9536358741257,
,,,,,,,,,,,,0,0,0,0,120,0,120,0,,,,,,,120,,,1,9177.360680067446,Y,d,go,d,1,0.3498506734613329,,,,,,,,,,,,,,,,,,85,001,24,männlich,Psychologie,2023-01-31_12h08.02.636,00_bat_bachelor,2022.2.4,59.9536358741257,
,,,,,,,,,,,,0,0,0,0,121,0,121,0,,,,,,,121,,,1,9178.828183840727,X,l,go,l,1,0.418466882314533,,,,,,,,,,,,,,,,,,85,001,24,männlich,Psychologie,2023-01-31_12h08.02.636,00_bat_bachelor,2022.2.4,59.9536358741257,
,,,,,,,,,,,,0,0,0,0,122,0,122,0,,,,,,,122,,,1,9180.379218240269,Y,d,go,d,1,0.38797332160174847,,,,,,,,,,,,,,,,,,85,001,24,männlich,Psychologie,2023-01-31_12h08.02.636,00_bat_bachelor,2022.2.4,59.9536358741257,
,,,,,,,,,,,,0,0,0,0,123,0,123,0,,,,,,,123,,,1,9181.880339451833,Y,None,nogo,None,1,,9182.680996033363,,,,,,,,,,,,,,,,,85,001,24,männlich,Psychologie,2023-01-31_12h08.02.636,00_bat_bachelor,2022.2.4,59.9536358741257,
,,,,,,,,,,,,0,0,0,0,124,0,124,0,,,,,,,124,,,1,9183.681699063396,X,l,go,l,1,0.3005803939886391,,,,,,,,,,,,,,,,,,85,001,24,männlich,Psychologie,2023-01-31_12h08.02.636,00_bat_bachelor,2022.2.4,59.9536358741257,
,,,,,,,,,,,,0,0,0,0,125,0,125,0,,,,,,,125,,,1,9185.0828261415,Y,d,go,d,1,0.43565329839475453,,,,,,,,,,,,,,,,,,85,001,24,männlich,Psychologie,2023-01-31_12h08.02.636,00_bat_bachelor,2022.2.4,59.9536358741257,
,,,,,,,,,,,,0,0,0,0,126,0,126,0,,,,,,,126,,,1,9186.63383241999,X,l,go,l,1,0.4051689493935555,,,,,,,,,,,,,,,,,,85,001,24,männlich,Psychologie,2023-01-31_12h08.02.636,00_bat_bachelor,2022.2.4,59.9536358741257,
,,,,,,,,,,,,0,0,0,0,127,0,127,0,,,,,,,127,,,1,9188.151650835527,Y,d,go,d,1,0.3756484789773822,,,,,,,,,,,,,,,,,,85,001,24,männlich,Psychologie,2023-01-31_12h08.02.636,00_bat_bachelor,2022.2.4,59.9536358741257,
,,,,,,,,,,,,0,0,0,0,128,0,128,0,,,,,,,128,,,1,9189.63605399453,Y,None,nogo,None,1,,,,,,,,,,,,,,,,,,,85,001,24,männlich,Psychologie,2023-01-31_12h08.02.636,00_bat_bachelor,2022.2.4,59.9536358741257,
,,,,,,,,,,,,0,0,0,0,129,0,129,0,,,,,,,129,,,1,9191.437254091026,X,l,go,l,1,0.2569217486307025,,,,,,,,,,,,,,,,,,85,001,24,männlich,Psychologie,2023-01-31_12h08.02.636,00_bat_bachelor,2022.2.4,59.9536358741257,
,,,,,,,,,,,,0,0,0,0,130,0,130,0,,,,,,,130,,,1,9192.80510651879,Y,d,go,d,1,0.37748605385422707,,,,,,,,,,,,,,,,,,85,001,24,männlich,Psychologie,2023-01-31_12h08.02.636,00_bat_bachelor,2022.2.4,59.9536358741257,
,,,,,,,,,,,,0,0,0,0,131,0,131,0,,,,,,,131,,,1,9194.289486404974,X,l,go,l,1,0.36482763569802046,,,,,,,,,,,,,,,,,,85,001,24,männlich,Psychologie,2023-01-31_12h08.02.636,00_bat_bachelor,2022.2.4,59.9536358741257,
,,,,,,,,,,,,0,0,0,0,132,0,132,0,,,,,,,132,,,1,9195.757183632813,Y,d,go,d,1,0.44886250398121774,,,,,,,,,,,,,,,,,,85,001,24,männlich,Psychologie,2023-01-31_12h08.02.636,00_bat_bachelor,2022.2.4,59.9536358741257,
,,,,,,,,,,,,0,0,0,0,133,0,133,0,,,,,,,133,,,1,9197.308567123022,Y,None,nogo,d,0,0.657447615172714,,,,,,,,,,,,,,,,,,85,001,24,männlich,Psychologie,2023-01-31_12h08.02.636,00_bat_bachelor,2022.2.4,59.9536358741257,
,,,,,,,,,,,,0,0,0,0,134,0,134,0,,,,,,,134,,,1,9199.07661232655,X,l,go,l,1,0.4905129079706967,,,,,,,,,,,,,,,,,,85,001,24,männlich,Psychologie,2023-01-31_12h08.02.636,00_bat_bachelor,2022.2.4,59.9536358741257,
,,,,,,,,,,,,0,0,0,0,135,0,135,0,,,,,,,135,,,1,9200.677807186497,Y,d,go,d,1,0.45639171241782606,,,,,,,,,,,,,,,,,,85,001,24,männlich,Psychologie,2023-01-31_12h08.02.636,00_bat_bachelor,2022.2.4,59.9536358741257,
,,,,,,,,,,,,0,0,0,0,136,0,136,0,,,,,,,136,,,1,9202.245673093013,Y,None,nogo,None,1,,9203.046322401846,,,,,,,,,,,,,,,,,85,001,24,männlich,Psychologie,2023-01-31_12h08.02.636,00_bat_bachelor,2022.2.4,59.9536358741257,
,,,,,,,,,,,,0,0,0,0,137,0,137,0,,,,,,,137,,,1,9204.046888219658,X,l,go,l,1,0.3672984226141125,,,,,,,,,,,,,,,,,,85,001,24,männlich,Psychologie,2023-01-31_12h08.02.636,00_bat_bachelor,2022.2.4,59.9536358741257,
,,,,,,,,,,,,0,0,0,0,138,0,138,0,,,,,,,138,,,1,9205.514676114079,Y,d,go,d,1,0.40380895021371543,,,,,,,,,,,,,,,,,,85,001,24,männlich,Psychologie,2023-01-31_12h08.02.636,00_bat_bachelor,2022.2.4,59.9536358741257,
,,,,,,,,,,,,0,0,0,0,139,0,139,0,,,,,,,139,,,1,9207.032641438767,X,l,go,l,1,0.46968625159934163,,,,,,,,,,,,,,,,,,85,001,24,männlich,Psychologie,2023-01-31_12h08.02.636,00_bat_bachelor,2022.2.4,59.9536358741257,
,,,,,,,,,,,,0,0,0,0,140,0,140,0,,,,,,,140,,,1,9208.61722733709,Y,d,go,d,1,0.43747972161509097,,,,,,,,,,,,,,,,,,85,001,24,männlich,Psychologie,2023-01-31_12h08.02.636,00_bat_bachelor,2022.2.4,59.9536358741257,
,,,,,,,,,,,,0,0,0,0,141,0,141,0,,,,,,,141,,,1,9210.168426100165,X,l,go,l,1,0.5504076671786606,,,,,,,,,,,,,,,,,,85,001,24,männlich,Psychologie,2023-01-31_12h08.02.636,00_bat_bachelor,2022.2.4,59.9536358741257,
,,,,,,,,,,,,0,0,0,0,142,0,142,0,,,,,,,142,,,1,9211.819632572355,X,None,nogo,l,0,0.5790956530254334,,,,,,,,,,,,,,,,,,85,001,24,männlich,Psychologie,2023-01-31_12h08.02.636,00_bat_bachelor,2022.2.4,59.9536358741257,
,,,,,,,,,,,,0,0,0,0,143,0,143,0,,,,,,,143,,,1,9213.504316361388,Y,d,go,d,1,0.4307253009174019,,,,,,,,,,,,,,,,,,85,001,24,männlich,Psychologie,2023-01-31_12h08.02.636,00_bat_bachelor,2022.2.4,59.9536358741257,
,,,,,,,,,,,,0,0,0,0,144,0,144,0,,,,,,,144,,,1,9215.038796102395,X,l,go,None,0,,9215.839085653657,,,,,,,,,,,,,,,,,85,001,24,männlich,Psychologie,2023-01-31_12h08.02.636,00_bat_bachelor,2022.2.4,59.9536358741257,
,,,,,,,,,,,,0,0,0,0,145,0,145,0,,,,,,,145,,,1,9216.84011983499,X,None,nogo,None,1,,9217.64055387117,,,,,,,,,,,,,,,,,85,001,24,männlich,Psychologie,2023-01-31_12h08.02.636,00_bat_bachelor,2022.2.4,59.9536358741257,
,,,,,,,,,,,,0,0,0,0,146,0,146,0,,,,,,,146,,,1,9218.64144502231,Y,d,go,d,1,0.41293621831573546,,,,,,,,,,,,,,,,,,85,001,24,männlich,Psychologie,2023-01-31_12h08.02.636,00_bat_bachelor,2022.2.4,59.9536358741257,
,,,,,,,,,,,,0,0,0,0,147,0,147,0,,,,,,,147,,,1,9220.159186831908,X,l,go,l,1,0.4790341258049011,,,,,,,,,,,,,,,,,,85,001,24,männlich,Psychologie,2023-01-31_12h08.02.636,00_bat_bachelor,2022.2.4,59.9536358741257,
,,,,,,,,,,,,0,0,0,0,148,0,148,0,,,,,,,148,,,1,9221.743864366552,X,None,nogo,None,1,,9222.54448119062,,,,,,,,,,,,,,,,,85,001,24,männlich,Psychologie,2023-01-31_12h08.02.636,00_bat_bachelor,2022.2.4,59.9536358741257,
,,,,,,,,,,,,0,0,0,0,149,0,149,0,,,,,,,149,,,1,9223.545145432698,Y,d,go,d,1,0.29363203374668956,,,,,,,,,,,,,,,,,,85,001,24,männlich,Psychologie,2023-01-31_12h08.02.636,00_bat_bachelor,2022.2.4,59.9536358741257,
,,,,,,,,,,,,0,0,0,0,150,0,150,0,,,,,,,150,,,1,9224.946273965295,X,l,go,l,1,0.4924270890187472,,,,,,,,,,,,,,,,,,85,001,24,männlich,Psychologie,2023-01-31_12h08.02.636,00_bat_bachelor,2022.2.4,59.9536358741257,
,,,,,,,,,,,,0,0,0,0,151,0,151,0,,,,,,,151,,,1,9226.547526522307,X,None,nogo,None,1,,9227.348061891738,,,,,,,,,,,,,,,,,85,001,24,männlich,Psychologie,2023-01-31_12h08.02.636,00_bat_bachelor,2022.2.4,59.9536358741257,
,,,,,,,,,,,,0,0,0,0,152,0,152,0,,,,,,,152,,,1,9228.34892249736,Y,d,go,d,1,0.3223437776323408,,,,,,,,,,,,,,,,,,85,001,24,männlich,Psychologie,2023-01-31_12h08.02.636,00_bat_bachelor,2022.2.4,59.9536358741257,
,,,,,,,,,,,,0,0,0,0,153,0,153,0,,,,,,,153,,,1,9229.783042044612,X,l,go,l,1,0.4080116148106754,,,,,,,,,,,,,,,,,,85,001,24,männlich,Psychologie,2023-01-31_12h08.02.636,00_bat_bachelor,2022.2.4,59.9536358741257,
,,,,,,,,,,,,0,0,0,0,154,0,154,0,,,,,,,154,,,1,9231.300955490442,Y,d,go,d,1,0.4096416747197509,,,,,,,,,,,,,,,,,,85,001,24,männlich,Psychologie,2023-01-31_12h08.02.636,00_bat_bachelor,2022.2.4,59.9536358741257,
,,,,,,,,,,,,0,0,0,0,155,0,155,0,,,,,,,155,,,1,9232.818948936183,Y,None,nogo,None,1,,9233.619528911775,,,,,,,,,,,,,,,,,85,001,24,männlich,Psychologie,2023-01-31_12h08.02.636,00_bat_bachelor,2022.2.4,59.9536358741257,
,,,,,,,,,,,,0,0,0,0,156,0,156,0,,,,,,,156,,,1,9234.620152911404,X,l,go,l,1,0.3865401102229953,,,,,,,,,,,,,,,,,,85,001,24,männlich,Psychologie,2023-01-31_12h08.02.636,00_bat_bachelor,2022.2.4,59.9536358741257,
,,,,,,,,,,,,0,0,0,0,157,0,157,0,,,,,,,157,,,1,9236.121385638136,Y,d,go,d,1,0.3736324799247086,,,,,,,,,,,,,,,,,,85,001,24,männlich,Psychologie,2023-01-31_12h08.02.636,00_bat_bachelor,2022.2.4,59.9536358741257,
,,,,,,,,,,,,0,0,0,0,158,0,158,0,,,,,,,158,,,1,9237.60576552432,X,l,go,l,1,0.42435342515818775,,,,,,,,,,,,,,,,,,85,001,24,männlich,Psychologie,2023-01-31_12h08.02.636,00_bat_bachelor,2022.2.4,59.9536358741257,
,,,,,,,,,,,,0,0,0,0,159,0,159,0,,,,,,,159,,,1,9239.140429022722,X,None,nogo,None,1,,9239.94102548319,,,,,,,,,,,,,,,,,85,001,24,männlich,Psychologie,2023-01-31_12h08.02.636,00_bat_bachelor,2022.2.4,59.9536358741257,
,,,,,,,,,,,,0,0,0,0,160,0,160,0,,,,,,,160,,,1,9240.941795906983,Y,d,go,d,1,0.3367796493694186,,,,,,,,,,,,,,,,,,85,001,24,männlich,Psychologie,2023-01-31_12h08.02.636,00_bat_bachelor,2022.2.4,59.9536358741257,
,,,,,,,,,,,,0,0,0,0,161,0,161,0,,,,,,,161,,,1,9242.39290793077,X,l,go,l,1,0.5176057436037809,,,,,,,,,,,,,,,,,,85,001,24,männlich,Psychologie,2023-01-31_12h08.02.636,00_bat_bachelor,2022.2.4,59.9536358741257,
,,,,,,,,,,,,0,0,0,0,162,0,162,0,,,,,,,162,,,1,9244.027556834975,Y,d,go,d,1,0.4506496547255665,,,,,,,,,,,,,,,,,,85,001,24,männlich,Psychologie,2023-01-31_12h08.02.636,00_bat_bachelor,2022.2.4,59.9536358741257,
,,,,,,,,,,,,0,0,0,0,163,0,163,0,,,,,,,163,,,1,9245.578683355823,X,l,go,l,1,0.5004653881769627,,,,,,,,,,,,,,,,,,85,001,24,männlich,Psychologie,2023-01-31_12h08.02.636,00_bat_bachelor,2022.2.4,59.9536358741257,
,,,,,,,,,,,,0,0,0,0,164,0,164,0,,,,,,,164,,,1,9247.17990779155,Y,d,go,d,1,0.38686059485189617,,,,,,,,,,,,,,,,,,85,001,24,männlich,Psychologie,2023-01-31_12h08.02.636,00_bat_bachelor,2022.2.4,59.9536358741257,
,,,,,,,,,,,,0,0,0,0,165,0,165,0,,,,,,,165,,,1,9248.681035306072,X,l,go,l,1,0.3421585557516664,,,,,,,,,,,,,,,,,,85,001,24,männlich,Psychologie,2023-01-31_12h08.02.636,00_bat_bachelor,2022.2.4,59.9536358741257,
,,,,,,,,,,,,0,0,0,0,166,0,166,0,,,,,,,166,,,1,9250.132132784463,Y,d,go,d,1,0.3153255991637707,,,,,,,,,,,,,,,,,,85,001,24,männlich,Psychologie,2023-01-31_12h08.02.636,00_bat_bachelor,2022.2.4,59.9536358741257,
,,,,,,,,,,,,0,0,0,0,167,0,167,0,,,,,,,167,,,1,9251.549914884847,X,l,go,l,1,0.28931155102327466,,,,,,,,,,,,,,,,,,85,001,24,männlich,Psychologie,2023-01-31_12h08.02.636,00_bat_bachelor,2022.2.4,59.9536358741257,
,,,,,,,,,,,,0,0,0,0,168,0,168,0,,,,,,,168,,,1,9252.95097650867,Y,d,go,d,1,0.32829286553896964,,,,,,,,,,,,,,,,,,85,001,24,männlich,Psychologie,2023-01-31_12h08.02.636,00_bat_bachelor,2022.2.4,59.9536358741257,
,,,,,,,,,,,,0,0,0,0,169,0,169,0,,,,,,,169,,,1,9254.385140661616,X,l,go,l,1,0.3495995218399912,,,,,,,,,,,,,,,,,,85,001,24,männlich,Psychologie,2023-01-31_12h08.02.636,00_bat_bachelor,2022.2.4,59.9536358741257,
,,,,,,,,,,,,0,0,0,0,170,0,170,0,,,,,,,170,,,1,9255.836478624726,Y,d,go,d,1,0.3217236564960331,,,,,,,,,,,,,,,,,,85,001,24,männlich,Psychologie,2023-01-31_12h08.02.636,00_bat_bachelor,2022.2.4,59.9536358741257,
,,,,,,,,,,,,0,0,0,0,171,0,171,0,,,,,,,171,,,1,9257.270817808108,Y,None,nogo,None,1,,9258.071514147101,,,,,,,,,,,,,,,,,85,001,24,männlich,Psychologie,2023-01-31_12h08.02.636,00_bat_bachelor,2022.2.4,59.9536358741257,
,,,,,,,,,,,,0,0,0,0,172,0,172,0,,,,,,,172,,,1,9259.071994631784,X,l,go,l,1,0.2539918106049299,,,,,,,,,,,,,,,,,,85,001,24,männlich,Psychologie,2023-01-31_12h08.02.636,00_bat_bachelor,2022.2.4,59.9536358741257,
,,,,,,,,,,,,0,0,0,0,173,0,173,0,,,,,,,173,,,1,9260.439973604865,Y,d,go,d,1,0.5189768944401294,,,,,,,,,,,,,,,,,,85,001,24,männlich,Psychologie,2023-01-31_12h08.02.636,00_bat_bachelor,2022.2.4,59.9536358741257,
,,,,,,,,,,,,0,0,0,0,174,0,174,0,,,,,,,174,,,1,9262.074457660783,Y,None,nogo,None,1,,9262.87515981798,,,,,,,,,,,,,,,,,85,001,24,männlich,Psychologie,2023-01-31_12h08.02.636,00_bat_bachelor,2022.2.4,59.9536358741257,
,,,,,,,,,,,,0,0,0,0,175,0,175,0,,,,,,,175,,,1,9263.875923454063,X,l,go,l,1,0.282739917980507,,,,,,,,,,,,,,,,,,85,001,24,männlich,Psychologie,2023-01-31_12h08.02.636,00_bat_bachelor,2022.2.4,59.9536358741257,
,,,,,,,,,,,,0,0,0,0,176,0,176,0,,,,,,,176,,,1,9265.260422661668,Y,d,go,d,1,0.6420662892051041,,,,,,,,,,,,,,,,,,85,001,24,männlich,Psychologie,2023-01-31_12h08.02.636,00_bat_bachelor,2022.2.4,59.9536358741257,
,,,,,,,,,,,,0,0,0,0,177,0,177,0,,,,,,,177,,,1,9267.011654297356,Y,None,nogo,None,1,,9267.81229439401,,,,,,,,,,,,,,,,,85,001,24,männlich,Psychologie,2023-01-31_12h08.02.636,00_bat_bachelor,2022.2.4,59.9536358741257,
,,,,,,,,,,,,0,0,0,0,178,0,178,0,,,,,,,178,,,1,9268.812871848233,X,l,go,l,1,0.27400052826851606,,,,,,,,,,,,,,,,,,85,001,24,männlich,Psychologie,2023-01-31_12h08.02.636,00_bat_bachelor,2022.2.4,59.9536358741257,
,,,,,,,,,,,,0,0,0,0,179,0,179,0,,,,,,,179,,,1,9270.197487419471,Y,d,go,d,1,0.5848474076483399,,,,,,,,,,,,,,,,,,85,001,24,männlich,Psychologie,2023-01-31_12h08.02.636,00_bat_bachelor,2022.2.4,59.9536358741257,
,,,,,,,,,,,,0,0,0,0,180,0,180,0,,,,,,,180,,,1,9271.898727806518,Y,None,nogo,None,1,,,,,,,,,,,,,,,,,,,85,001,24,männlich,Psychologie,2023-01-31_12h08.02.636,00_bat_bachelor,2022.2.4,59.9536358741257,
,,,,,,,,,,,,0,0,0,0,181,0,181,0,,,,,,,181,,,1,9273.700228509028,X,l,go,l,1,0.3463345537893474,,,,,,,,,,,,,,,,,,85,001,24,männlich,Psychologie,2023-01-31_12h08.02.636,00_bat_bachelor,2022.2.4,59.9536358741257,
,,,,,,,,,,,,0,0,0,0,182,0,182,0,,,,,,,182,,,1,9275.151269259863,Y,d,go,d,1,0.4150394902098924,,,,,,,,,,,,,,,,,,85,001,24,männlich,Psychologie,2023-01-31_12h08.02.636,00_bat_bachelor,2022.2.4,59.9536358741257,
,,,,,,,,,,,,0,0,0,0,183,0,183,0,,,,,,,183,,,1,9276.669120160397,X,l,go,l,1,0.38519223197363317,,,,,,,,,,,,,,,,,,85,001,24,männlich,Psychologie,2023-01-31_12h08.02.636,00_bat_bachelor,2022.2.4,59.9536358741257,
,,,,,,,,,,,,0,0,0,0,184,0,184,0,,,,,,,184,,,1,9278.170284038642,Y,d,go,None,0,,9278.970910559408,,,,,,,,,,,,,,,,,85,001,24,männlich,Psychologie,2023-01-31_12h08.02.636,00_bat_bachelor,2022.2.4,59.9536358741257,
,,,,,,,,,,,,0,0,0,0,185,0,185,0,,,,,,,185,,,1,9279.971635407535,X,l,go,l,1,0.45872237789444625,,,,,,,,,,,,,,,,,,85,001,24,männlich,Psychologie,2023-01-31_12h08.02.636,00_bat_bachelor,2022.2.4,59.9536358741257,
,,,,,,,,,,,,0,0,0,0,186,0,186,0,,,,,,,186,,,1,9281.539348586928,Y,d,go,d,1,0.4593391050584614,,,,,,,,,,,,,,,,,,85,001,24,männlich,Psychologie,2023-01-31_12h08.02.636,00_bat_bachelor,2022.2.4,59.9536358741257,
,,,,,,,,,,,,0,0,0,0,187,0,187,0,,,,,,,187,,,1,9283.107639220543,X,l,go,l,1,0.4263505151029676,,,,,,,,,,,,,,,,,,85,001,24,männlich,Psychologie,2023-01-31_12h08.02.636,00_bat_bachelor,2022.2.4,59.9536358741257,
,,,,,,,,,,,,0,0,0,0,188,0,188,0,,,,,,,188,,,1,9284.658756044228,X,None,nogo,None,1,,9285.459118807688,,,,,,,,,,,,,,,,,85,001,24,männlich,Psychologie,2023-01-31_12h08.02.636,00_bat_bachelor,2022.2.4,59.9536358741257,
,,,,,,,,,,,,0,0,0,0,189,0,189,0,,,,,,,189,,,1,9286.459832504392,Y,d,go,d,1,0.3708853297866881,,,,,,,,,,,,,,,,,,85,001,24,männlich,Psychologie,2023-01-31_12h08.02.636,00_bat_bachelor,2022.2.4,59.9536358741257,
,,,,,,,,,,,,0,0,0,0,190,0,190,0,,,,,,,190,,,1,9287.944142087596,X,l,go,l,1,0.3904974414035678,,,,,,,,,,,,,,,,,,85,001,24,männlich,Psychologie,2023-01-31_12h08.02.636,00_bat_bachelor,2022.2.4,59.9536358741257,
,,,,,,,,,,,,0,0,0,0,191,0,191,0,,,,,,,191,,,1,9289.445515905274,Y,d,go,d,1,0.2968499716371298,,,,,,,,,,,,,,,,,,85,001,24,männlich,Psychologie,2023-01-31_12h08.02.636,00_bat_bachelor,2022.2.4,59.9536358741257,
,,,,,,,,,,,,0,0,0,0,192,0,192,0,,,,,,,192,,,1,9290.84653534717,Y,None,nogo,None,1,,,,,,,,,,,,,,,,,,,85,001,24,männlich,Psychologie,2023-01-31_12h08.02.636,00_bat_bachelor,2022.2.4,59.9536358741257,
,,,,,,,,,,,,0,0,0,0,193,0,193,0,,,,,,,193,,,1,9292.647921625292,X,l,go,l,1,0.3431621917989105,,,,,,,,,,,,,,,,,,85,001,24,männlich,Psychologie,2023-01-31_12h08.02.636,00_bat_bachelor,2022.2.4,59.9536358741257,
,,,,,,,,,,,,0,0,0,0,194,0,194,0,,,,,,,194,,,1,9294.098968679318,Y,d,go,d,1,0.3644339391030371,,,,,,,,,,,,,,,,,,85,001,24,männlich,Psychologie,2023-01-31_12h08.02.636,00_bat_bachelor,2022.2.4,59.9536358741257,
,,,,,,,,,,,,0,0,0,0,195,0,195,0,,,,,,,195,,,1,9295.566521906992,X,l,go,l,1,0.39962277049198747,,,,,,,,,,,,,,,,,,85,001,24,männlich,Psychologie,2023-01-31_12h08.02.636,00_bat_bachelor,2022.2.4,59.9536358741257,
,,,,,,,,,,,,0,0,0,0,196,0,196,0,,,,,,,196,,,1,9297.067883603508,Y,d,go,d,1,0.38685865537263453,,,,,,,,,,,,,,,,,,85,001,24,männlich,Psychologie,2023-01-31_12h08.02.636,00_bat_bachelor,2022.2.4,59.9536358741257,
,,,,,,,,,,,,0,0,0,0,197,0,197,0,,,,,,,197,,,1,9298.569183239248,X,l,go,l,1,0.4061575550585985,,,,,,,,,,,,,,,,,,85,001,24,männlich,Psychologie,2023-01-31_12h08.02.636,00_bat_bachelor,2022.2.4,59.9536358741257,
,,,,,,,,,,,,0,0,0,0,198,0,198,0,,,,,,,198,,,1,9300.086864442797,Y,d,go,d,1,0.39227683446370065,,,,,,,,,,,,,,,,,,85,001,24,männlich,Psychologie,2023-01-31_12h08.02.636,00_bat_bachelor,2022.2.4,59.9536358741257,
,,,,,,,,,,,,0,0,0,0,199,0,199,0,,,,,,,199,,,1,9301.588043351192,Y,None,nogo,None,1,,,,,,,,,,,,,,,,,,,85,001,24,männlich,Psychologie,2023-01-31_12h08.02.636,00_bat_bachelor,2022.2.4,59.9536358741257,
,,,,,,,,,,,,0,0,0,0,200,0,200,0,,,,,,,200,,,1,9303.389393750578,X,l,go,l,1,0.3372407399583608,,,,,,,,,,,,,,,,,,85,001,24,männlich,Psychologie,2023-01-31_12h08.02.636,00_bat_bachelor,2022.2.4,59.9536358741257,
,,,,,,,,,,,,0,0,0,0,201,0,201,0,,,,,,,201,,,1,9304.840289046988,Y,d,go,d,1,0.5181080461479723,,,,,,,,,,,,,,,,,,85,001,24,männlich,Psychologie,2023-01-31_12h08.02.636,00_bat_bachelor,2022.2.4,59.9536358741257,
,,,,,,,,,,,,0,0,0,0,202,0,202,0,,,,,,,202,,,1,9306.475110557396,Y,None,nogo,None,1,,9307.275569805643,,,,,,,,,,,,,,,,,85,001,24,männlich,Psychologie,2023-01-31_12h08.02.636,00_bat_bachelor,2022.2.4,59.9536358741257,
,,,,,,,,,,,,0,0,0,0,203,0,203,0,,,,,,,203,,,1,9308.276478411397,X,l,go,l,1,0.33055613725446165,,,,,,,,,,,,,,,,,,85,001,24,männlich,Psychologie,2023-01-31_12h08.02.636,00_bat_bachelor,2022.2.4,59.9536358741257,
,,,,,,,,,,,,0,0,0,0,204,0,204,0,,,,,,,204,,,1,9309.710703655379,Y,d,go,d,1,0.6078093361575156,,,,,,,,,,,,,,,,,,85,001,24,männlich,Psychologie,2023-01-31_12h08.02.636,00_bat_bachelor,2022.2.4,59.9536358741257,
,,,,,,,,,,,,0,0,0,0,205,0,205,0,,,,,,,205,,,1,9311.42876245873,Y,None,nogo,None,1,,,,,,,,,,,,,,,,,,,85,001,24,männlich,Psychologie,2023-01-31_12h08.02.636,00_bat_bachelor,2022.2.4,59.9536358741257,
,,,,,,,,,,,,0,0,0,0,206,0,206,0,,,,,,,206,,,1,9313.230190433795,X,l,go,l,1,0.40044749714434147,,,,,,,,,,,,,,,,,,85,001,24,männlich,Psychologie,2023-01-31_12h08.02.636,00_bat_bachelor,2022.2.4,59.9536358741257,
,,,,,,,,,,,,0,0,0,0,207,0,207,0,,,,,,,207,,,1,9314.731360130245,Y,d,go,d,1,0.4352465106640011,,,,,,,,,,,,,,,,,,85,001,24,männlich,Psychologie,2023-01-31_12h08.02.636,00_bat_bachelor,2022.2.4,59.9536358741257,
,,,,,,,,,,,,0,0,0,0,208,0,208,0,,,,,,,208,,,1,9316.28255695384,X,l,go,l,1,0.42052797228097916,,,,,,,,,,,,,,,,,,85,001,24,männlich,Psychologie,2023-01-31_12h08.02.636,00_bat_bachelor,2022.2.4,59.9536358741257,
,,,,,,,,,,,,0,0,0,0,209,0,209,0,,,,,,,209,,,1,9317.817117179511,Y,d,go,d,1,0.4060431309044361,,,,,,,,,,,,,,,,,,85,001,24,männlich,Psychologie,2023-01-31_12h08.02.636,00_bat_bachelor,2022.2.4,59.9536358741257,
,,,,,,,,,,,,0,0,0,0,210,0,210,0,,,,,,,210,,,1,9319.334887110395,Y,None,nogo,None,1,,9320.135486964602,,,,,,,,,,,,,,,,,85,001,24,männlich,Psychologie,2023-01-31_12h08.02.636,00_bat_bachelor,2022.2.4,59.9536358741257,
,,,,,,,,,,,,0,0,0,0,211,0,211,0,,,,,,,211,,,1,9321.136283085449,Y,None,nogo,d,0,0.5263213757425547,,,,,,,,,,,,,,,,,,85,001,24,männlich,Psychologie,2023-01-31_12h08.02.636,00_bat_bachelor,2022.2.4,59.9536358741257,
,,,,,,,,,,,,0,0,0,0,212,0,212,0,,,,,,,212,,,1,9322.770834050374,X,l,go,l,1,0.4761361877899617,,,,,,,,,,,,,,,,,,85,001,24,männlich,Psychologie,2023-01-31_12h08.02.636,00_bat_bachelor,2022.2.4,59.9536358741257,
,,,,,,,,,,,,0,0,0,0,213,0,213,0,,,,,,,213,,,1,9324.355380676221,Y,d,go,d,1,0.3309575915336609,,,,,,,,,,,,,,,,,,85,001,24,männlich,Psychologie,2023-01-31_12h08.02.636,00_bat_bachelor,2022.2.4,59.9536358741257,
,,,,,,,,,,,,0,0,0,0,214,0,214,0,,,,,,,214,,,1,9325.789799374528,X,l,go,l,1,0.4010409517213702,,,,,,,,,,,,,,,,,,85,001,24,männlich,Psychologie,2023-01-31_12h08.02.636,00_bat_bachelor,2022.2.4,59.9536358741257,
,,,,,,,,,,,,0,0,0,0,215,0,215,0,,,,,,,215,,,1,9327.307741426397,Y,d,go,d,1,0.5626180851832032,,,,,,,,,,,,,,,,,,85,001,24,männlich,Psychologie,2023-01-31_12h08.02.636,00_bat_bachelor,2022.2.4,59.9536358741257,
,,,,,,,,,,,,0,0,0,0,216,0,216,0,,,,,,,216,,,1,9328.975432739127,X,l,go,l,1,0.4155034897848964,,,,,,,,,,,,,,,,,,85,001,24,männlich,Psychologie,2023-01-31_12h08.02.636,00_bat_bachelor,2022.2.4,59.9536358741257,
,,,,,,,,,,,,0,0,0,0,217,0,217,0,,,,,,,217,,,1,9330.493204609258,X,None,nogo,None,1,,,,,,,,,,,,,,,,,,,85,001,24,männlich,Psychologie,2023-01-31_12h08.02.636,00_bat_bachelor,2022.2.4,59.9536358741257,
,,,,,,,,,,,,0,0,0,0,218,0,218,0,,,,,,,218,,,1,9332.294843978249,Y,d,go,d,1,0.40794906928204,,,,,,,,,,,,,,,,,,85,001,24,männlich,Psychologie,2023-01-31_12h08.02.636,00_bat_bachelor,2022.2.4,59.9536358741257,
,,,,,,,,,,,,0,0,0,0,219,0,219,0,,,,,,,219,,,1,9333.812604696956,X,l,go,l,1,0.49078005948103964,,,,,,,,,,,,,,,,,,85,001,24,männlich,Psychologie,2023-01-31_12h08.02.636,00_bat_bachelor,2022.2.4,59.9536358741257,
,,,,,,,,,,,,0,0,0,0,220,0,220,0,,,,,,,220,,,1,9335.413816041779,Y,d,go,d,1,0.37715490255504847,,,,,,,,,,,,,,,,,,85,001,24,männlich,Psychologie,2023-01-31_12h08.02.636,00_bat_bachelor,2022.2.4,59.9536358741257,
,,,,,,,,,,,,0,0,0,0,221,0,221,0,,,,,,,221,,,1,9336.898366109934,X,l,go,l,1,0.3330148025415838,,,,,,,,,,,,,,,,,,85,001,24,männlich,Psychologie,2023-01-31_12h08.02.636,00_bat_bachelor,2022.2.4,59.9536358741257,
,,,,,,,,,,,,0,0,0,0,222,0,222,0,,,,,,,222,,,1,9338.33248323272,Y,d,go,d,1,0.46558395051397383,,,,,,,,,,,,,,,,,,85,001,24,männlich,Psychologie,2023-01-31_12h08.02.636,00_bat_bachelor,2022.2.4,59.9536358741257,
,,,,,,,,,,,,0,0,0,0,223,0,223,0,,,,,,,223,,,1,9339.900569745107,X,l,go,l,1,0.3386181939858943,,,,,,,,,,,,,,,,,,85,001,24,männlich,Psychologie,2023-01-31_12h08.02.636,00_bat_bachelor,2022.2.4,59.9536358741257,
,,,,,,,,,,,,0,0,0,0,224,0,224,0,,,,,,,224,,,1,9341.35166334454,X,None,nogo,d,0,0.4229570620227605,,,,,,,,,,,,,,,,,,85,001,24,männlich,Psychologie,2023-01-31_12h08.02.636,00_bat_bachelor,2022.2.4,59.9536358741257,
,,,,,,,,,,,,0,0,0,0,225,0,225,0,,,,,,,225,,,1,9342.886024782434,Y,d,go,d,1,0.5203111968003213,,,,,,,,,,,,,,,,,,85,001,24,männlich,Psychologie,2023-01-31_12h08.02.636,00_bat_bachelor,2022.2.4,59.9536358741257,
,,,,,,,,,,,,0,0,0,0,226,0,226,0,,,,,,,226,,,1,9344.520597080933,X,l,go,l,1,0.42223948682658374,,,,,,,,,,,,,,,,,,85,001,24,männlich,Psychologie,2023-01-31_12h08.02.636,00_bat_bachelor,2022.2.4,59.9536358741257,
,,,,,,,,,,,,0,0,0,0,227,0,227,0,,,,,,,227,,,1,9346.055086518638,X,None,nogo,None,1,,9346.855690736556,,,,,,,,,,,,,,,,,85,001,24,männlich,Psychologie,2023-01-31_12h08.02.636,00_bat_bachelor,2022.2.4,59.9536358741257,
,,,,,,,,,,,,0,0,0,0,228,0,228,0,,,,,,,228,,,1,9347.856400554534,Y,d,go,d,1,0.46235631592571735,,,,,,,,,,,,,,,,,,85,001,24,männlich,Psychologie,2023-01-31_12h08.02.636,00_bat_bachelor,2022.2.4,59.9536358741257,
,,,,,,,,,,,,0,0,0,0,229,0,229,0,,,,,,,229,,,1,9349.42450403655,X,l,go,l,1,0.39815368014387786,,,,,,,,,,,,,,,,,,85,001,24,männlich,Psychologie,2023-01-31_12h08.02.636,00_bat_bachelor,2022.2.4,59.9536358741257,
,,,,,,,,,,,,0,0,0,0,230,0,230,0,,,,,,,230,,,1,9350.925392036093,X,None,nogo,None,1,,,,,,,,,,,,,,,,,,,85,001,24,männlich,Psychologie,2023-01-31_12h08.02.636,00_bat_bachelor,2022.2.4,59.9536358741257,
,,,,,,,,,,,,0,0,0,0,231,0,231,0,,,,,,,231,,,1,9352.726807889994,Y,d,go,d,1,0.4395272359251976,,,,,,,,,,,,,,,,,,85,001,24,männlich,Psychologie,2023-01-31_12h08.02.636,00_bat_bachelor,2022.2.4,59.9536358741257,
,,,,,,,,,,,,0,0,0,0,232,0,232,0,,,,,,,232,,,1,9354.278197198408,X,l,go,l,1,0.4726835833862424,,,,,,,,,,,,,,,,,,85,001,24,männlich,Psychologie,2023-01-31_12h08.02.636,00_bat_bachelor,2022.2.4,59.9536358741257,
,,,,,,,,,,,,0,0,0,0,233,0,233,0,,,,,,,233,,,1,9355.862525642384,X,None,nogo,None,1,,,,,,,,,,,,,,,,,,,85,001,24,männlich,Psychologie,2023-01-31_12h08.02.636,00_bat_bachelor,2022.2.4,59.9536358741257,
,,,,,,,,,,,,0,0,0,0,234,0,234,0,,,,,,,234,,,1,9357.663959920406,Y,d,go,d,1,0.33438110491260886,,,,,,,,,,,,,,,,,,85,001,24,männlich,Psychologie,2023-01-31_12h08.02.636,00_bat_bachelor,2022.2.4,59.9536358741257,
,,,,,,,,,,,,0,0,0,0,235,0,235,0,,,,,,,235,,,1,9359.115338125965,X,l,go,l,1,0.5472692442126572,,,,,,,,,,,,,,,,,,85,001,24,männlich,Psychologie,2023-01-31_12h08.02.636,00_bat_bachelor,2022.2.4,59.9536358741257,
,,,,,,,,,,,,0,0,0,0,236,0,236,0,,,,,,,236,,,1,9360.766418052604,X,None,nogo,l,0,0.4002618002705276,,,,,,,,,,,,,,,,,,85,001,24,männlich,Psychologie,2023-01-31_12h08.02.636,00_bat_bachelor,2022.2.4,59.9536358741257,
,,,,,,,,,,,,0,0,0,0,237,0,237,0,,,,,,,237,,,1,9362.26765029435,Y,d,go,d,1,0.3717391474638134,,,,,,,,,,,,,,,,,,85,001,24,männlich,Psychologie,2023-01-31_12h08.02.636,00_bat_bachelor,2022.2.4,59.9536358741257,
,,,,,,,,,,,,0,0,0,0,238,0,238,0,,,,,,,238,,,1,9363.75200593844,X,l,go,l,1,0.47074709949083626,,,,,,,,,,,,,,,,,,85,001,24,männlich,Psychologie,2023-01-31_12h08.02.636,00_bat_bachelor,2022.2.4,59.9536358741257,
,,,,,,,,,,,,0,0,0,0,239,0,239,0,,,,,,,239,,,1,9365.336396927712,Y,d,go,d,1,0.3739936917554587,,,,,,,,,,,,,,,,,,85,001,24,männlich,Psychologie,2023-01-31_12h08.02.636,00_bat_bachelor,2022.2.4,59.9536358741257,
,,,,,,,,,,,,0,0,0,0,240,0,240,0,,,,,,,240,,,1,9366.820952814072,X,l,go,l,1,0.3781978110782802,,,,,,,,,,,,,,,,,,85,001,24,männlich,Psychologie,2023-01-31_12h08.02.636,00_bat_bachelor,2022.2.4,59.9536358741257,
,,,,,,,,,,,,0,0,0,0,241,0,241,0,,,,,,,241,,,1,9368.305349670118,X,None,nogo,None,1,,9369.105890857754,,,,,,,,,,,,,,,,,85,001,24,männlich,Psychologie,2023-01-31_12h08.02.636,00_bat_bachelor,2022.2.4,59.9536358741257,
,,,,,,,,,,,,0,0,0,0,242,0,242,0,,,,,,,242,,,1,9370.106707342202,Y,d,go,d,1,0.40325331408530474,,,,,,,,,,,,,,,,,,85,001,24,männlich,Psychologie,2023-01-31_12h08.02.636,00_bat_bachelor,2022.2.4,59.9536358741257,
,,,,,,,,,,,,0,0,0,0,243,0,243,0,,,,,,,243,,,1,9371.62451315159,X,l,go,l,1,0.534287917194888,,,,,,,,,,,,,,,,,,85,001,24,männlich,Psychologie,2023-01-31_12h08.02.636,00_bat_bachelor,2022.2.4,59.9536358741257,
,,,,,,,,,,,,0,0,0,0,244,0,244,0,,,,,,,244,,,1,9373.275967866182,Y,d,go,d,1,0.38695514015853405,,,,,,,,,,,,,,,,,,85,001,24,männlich,Psychologie,2023-01-31_12h08.02.636,00_bat_bachelor,2022.2.4,59.9536358741257,
,,,,,,,,,,,,0,0,0,0,245,0,245,0,,,,,,,245,,,1,9374.77728641103,Y,None,nogo,None,1,,9375.577741780551,,,,,,,,,,,,,,,,,85,001,24,männlich,Psychologie,2023-01-31_12h08.02.636,00_bat_bachelor,2022.2.4,59.9536358741257,
,,,,,,,,,,,,0,0,0,0,246,0,246,0,,,,,,,246,,,1,9376.57852965896,X,l,go,l,1,0.37960920413024724,,,,,,,,,,,,,,,,,,85,001,24,männlich,Psychologie,2023-01-31_12h08.02.636,00_bat_bachelor,2022.2.4,59.9536358741257,
,,,,,,,,,,,,0,0,0,0,247,0,247,0,,,,,,,247,,,1,9378.063056939049,Y,d,go,d,1,0.4632319516967982,,,,,,,,,,,,,,,,,,85,001,24,männlich,Psychologie,2023-01-31_12h08.02.636,00_bat_bachelor,2022.2.4,59.9536358741257,
,,,,,,,,,,,,0,0,0,0,248,0,248,0,,,,,,,248,,,1,9379.630655694287,X,l,go,l,1,0.463108315365389,,,,,,,,,,,,,,,,,,85,001,24,männlich,Psychologie,2023-01-31_12h08.02.636,00_bat_bachelor,2022.2.4,59.9536358741257,
,,,,,,,,,,,,0,0,0,0,249,0,249,0,,,,,,,249,,,1,9381.198623418808,X,None,nogo,None,1,,,,,,,,,,,,,,,,,,,85,001,24,männlich,Psychologie,2023-01-31_12h08.02.636,00_bat_bachelor,2022.2.4,59.9536358741257,
,,,,,,,,,,,,1,0,1,0,0,0,0,0,,,,,,,0,,,0.2,9428.434830334503,X,l,go,l,1,0.5083776267711073,,,,,,,,,9382.011323146056,space,46.19856250425801,,,,,,,85,001,24,männlich,Psychologie,2023-01-31_12h08.02.636,00_bat_bachelor,2022.2.4,59.9536358741257,
,,,,,,,,,,,,1,0,1,0,1,0,1,0,,,,,,,1,,,0.2,9429.251768120332,Y,d,go,d,1,0.3946715001948178,,,,,,,,,,,,,,,,,,85,001,24,männlich,Psychologie,2023-01-31_12h08.02.636,00_bat_bachelor,2022.2.4,59.9536358741257,
,,,,,,,,,,,,1,0,1,0,2,0,2,0,,,,,,,2,,,0.2,9429.952260386664,X,l,go,None,0,,9430.752657089615,,,,,,,,,,,,,,,,,85,001,24,männlich,Psychologie,2023-01-31_12h08.02.636,00_bat_bachelor,2022.2.4,59.9536358741257,
,,,,,,,,,,,,1,0,1,0,3,0,3,0,,,,,,,3,,,0.2,9430.953052144032,X,None,nogo,None,1,,,,,,,,,,,,,,,,,,,85,001,24,männlich,Psychologie,2023-01-31_12h08.02.636,00_bat_bachelor,2022.2.4,59.9536358741257,
,,,,,,,,,,,,1,0,1,0,4,0,4,0,,,,,,,4,,,0.2,9431.953863295028,Y,d,go,d,1,0.3648790295701474,,,,,,,,,,,,,,,,,,85,001,24,männlich,Psychologie,2023-01-31_12h08.02.636,00_bat_bachelor,2022.2.4,59.9536358741257,
,,,,,,,,,,,,1,0,1,0,5,0,5,0,,,,,,,5,,,0.2,9432.621060547419,X,l,go,l,1,0.5299097376409918,,,,,,,,,,,,,,,,,,85,001,24,männlich,Psychologie,2023-01-31_12h08.02.636,00_bat_bachelor,2022.2.4,59.9536358741257,
,,,,,,,,,,,,1,0,1,0,6,0,6,0,,,,,,,6,,,0.2,9433.454984021839,Y,d,go,d,1,0.41573767154477537,,,,,,,,,,,,,,,,,,85,001,24,männlich,Psychologie,2023-01-31_12h08.02.636,00_bat_bachelor,2022.2.4,59.9536358741257,
,,,,,,,,,,,,1,0,1,0,7,0,7,0,,,,,,,7,,,0.2,9434.172153128544,X,l,go,l,1,0.46642807126045227,,,,,,,,,,,,,,,,,,85,001,24,männlich,Psychologie,2023-01-31_12h08.02.636,00_bat_bachelor,2022.2.4,59.9536358741257,
,,,,,,,,,,,,1,0,1,0,8,0,8,0,,,,,,,8,,,0.2,9434.939424514072,Y,d,go,d,1,0.38682907982729375,,,,,,,,,,,,,,,,,,85,001,24,männlich,Psychologie,2023-01-31_12h08.02.636,00_bat_bachelor,2022.2.4,59.9536358741257,
,,,,,,,,,,,,1,0,1,0,9,0,9,0,,,,,,,9,,,0.2,9435.63987120497,X,l,go,l,1,0.4387912363745272,,,,,,,,,,,,,,,,,,85,001,24,männlich,Psychologie,2023-01-31_12h08.02.636,00_bat_bachelor,2022.2.4,59.9536358741257,
,,,,,,,,,,,,1,0,1,0,10,0,10,0,,,,,,,10,,,0.2,9436.390288780443,X,None,nogo,d,0,0.3917270165402442,,,,,,,,,,,,,,,,,,85,001,24,männlich,Psychologie,2023-01-31_12h08.02.636,00_bat_bachelor,2022.2.4,59.9536358741257,
,,,,,,,,,,,,1,0,1,0,11,0,11,0,,,,,,,11,,,0.2,9437.090790258953,Y,d,go,d,1,0.6513259210623801,,,,,,,,,,,,,,,,,,85,001,24,männlich,Psychologie,2023-01-31_12h08.02.636,00_bat_bachelor,2022.2.4,59.9536358741257,
,,,,,,,,,,,,1,0,1,0,12,0,12,0,,,,,,,12,,,0.2,9438.058542517014,X,l,go,l,1,0.5795005012769252,,,,,,,,,,,,,,,,,,85,001,24,männlich,Psychologie,2023-01-31_12h08.02.636,00_bat_bachelor,2022.2.4,59.9536358741257,
,,,,,,,,,,,,1,0,1,0,13,0,13,0,,,,,,,13,,,0.2,9438.94238451263,X,None,nogo,None,1,,,,,,,,,,,,,,,,,,,85,001,24,männlich,Psychologie,2023-01-31_12h08.02.636,00_bat_bachelor,2022.2.4,59.9536358741257,
,,,,,,,,,,,,1,0,1,0,14,0,14,0,,,,,,,14,,,0.2,9439.943213603226,Y,d,go,d,1,0.4075432512909174,,,,,,,,,,,,,,,,,,85,001,24,männlich,Psychologie,2023-01-31_12h08.02.636,00_bat_bachelor,2022.2.4,59.9536358741257,
,,,,,,,,,,,,1,0,1,0,15,0,15,0,,,,,,,15,,,0.2,9440.660179073922,X,l,go,l,1,0.5232425890862942,,,,,,,,,,,,,,,,,,85,001,24,männlich,Psychologie,2023-01-31_12h08.02.636,00_bat_bachelor,2022.2.4,59.9536358741257,
,,,,,,,,,,,,1,0,1,0,16,0,16,0,,,,,,,16,,,0.2,9441.494176730048,X,None,nogo,None,1,,,,,,,,,,,,,,,,,,,85,001,24,männlich,Psychologie,2023-01-31_12h08.02.636,00_bat_bachelor,2022.2.4,59.9536358741257,
,,,,,,,,,,,,1,0,1,0,17,0,17,0,,,,,,,17,,,0.2,9442.495157093275,Y,d,go,d,1,0.33591855876147747,,,,,,,,,,,,,,,,,,85,001,24,männlich,Psychologie,2023-01-31_12h08.02.636,00_bat_bachelor,2022.2.4,59.9536358741257,
,,,,,,,,,,,,1,0,1,0,18,0,18,0,,,,,,,18,,,0.2,9443.145685747499,X,l,go,l,1,0.5968823111616075,,,,,,,,,,,,,,,,,,85,001,24,männlich,Psychologie,2023-01-31_12h08.02.636,00_bat_bachelor,2022.2.4,59.9536358741257,
,,,,,,,,,,,,1,0,1,0,19,0,19,0,,,,,,,19,,,0.2,9444.046325795585,X,None,nogo,None,1,,,,,,,,,,,,,,,,,,,85,001,24,männlich,Psychologie,2023-01-31_12h08.02.636,00_bat_bachelor,2022.2.4,59.9536358741257,
,,,,,,,,,,,,1,0,1,0,20,0,20,0,,,,,,,20,,,0.2,9445.047138401307,Y,d,go,d,1,0.34368243371136487,,,,,,,,,,,,,,,,,,85,001,24,männlich,Psychologie,2023-01-31_12h08.02.636,00_bat_bachelor,2022.2.4,59.9536358741257,
,,,,,,,,,,,,1,0,1,0,21,0,21,0,,,,,,,21,,,0.2,9445.697692752583,X,l,go,l,1,0.44456044561229646,,,,,,,,,,,,,,,,,,85,001,24,männlich,Psychologie,2023-01-31_12h08.02.636,00_bat_bachelor,2022.2.4,59.9536358741257,
,,,,,,,,,,,,1,0,1,0,22,0,22,0,,,,,,,22,,,0.2,9446.448136994848,X,None,nogo,None,1,,,,,,,,,,,,,,,,,,,85,001,24,männlich,Psychologie,2023-01-31_12h08.02.636,00_bat_bachelor,2022.2.4,59.9536358741257,
,,,,,,,,,,,,1,0,1,0,23,0,23,0,,,,,,,23,,,0.2,9447.44871444907,Y,d,go,d,1,0.34147007134743035,,,,,,,,,,,,,,,,,,85,001,24,männlich,Psychologie,2023-01-31_12h08.02.636,00_bat_bachelor,2022.2.4,59.9536358741257,
,,,,,,,,,,,,1,0,1,0,24,0,24,0,,,,,,,24,,,0.2,9448.099348800257,X,l,go,l,1,0.4749182490631938,,,,,,,,,,,,,,,,,,85,001,24,männlich,Psychologie,2023-01-31_12h08.02.636,00_bat_bachelor,2022.2.4,59.9536358741257,
,,,,,,,,,,,,1,0,1,0,25,0,25,0,,,,,,,25,,,0.2,9448.883346965536,Y,d,go,d,1,0.458706378005445,,,,,,,,,,,,,,,,,,85,001,24,männlich,Psychologie,2023-01-31_12h08.02.636,00_bat_bachelor,2022.2.4,59.9536358741257,
,,,,,,,,,,,,1,0,1,0,26,0,26,0,,,,,,,26,,,0.2,9449.65072647226,X,l,go,l,1,0.3474598864559084,,,,,,,,,,,,,,,,,,85,001,24,männlich,Psychologie,2023-01-31_12h08.02.636,00_bat_bachelor,2022.2.4,59.9536358741257,
,,,,,,,,,,,,1,0,1,0,27,0,27,0,,,,,,,27,,,0.2,9450.300944338785,Y,d,go,d,1,0.36979926959611475,,,,,,,,,,,,,,,,,,85,001,24,männlich,Psychologie,2023-01-31_12h08.02.636,00_bat_bachelor,2022.2.4,59.9536358741257,
,,,,,,,,,,,,1,0,1,0,28,0,28,0,,,,,,,28,,,0.2,9450.984976492124,Y,None,nogo,l,0,0.32531589712016284,,,,,,,,,,,,,,,,,,85,001,24,männlich,Psychologie,2023-01-31_12h08.02.636,00_bat_bachelor,2022.2.4,59.9536358741257,
,,,,,,,,,,,,1,0,1,0,29,0,29,0,,,,,,,29,,,0.2,9451.618822003016,X,l,go,None,0,,,,,,,,,,,,,,,,,,,85,001,24,männlich,Psychologie,2023-01-31_12h08.02.636,00_bat_bachelor,2022.2.4,59.9536358741257,
,,,,,,,,,,,,1,0,1,0,30,0,30,0,,,,,,,30,,,0.2,9452.619614244904,Y,d,go,d,1,0.37119126901961863,,,,,,,,,,,,,,,,,,85,001,24,männlich,Psychologie,2023-01-31_12h08.02.636,00_bat_bachelor,2022.2.4,59.9536358741257,
,,,,,,,,,,,,1,0,1,0,31,0,31,0,,,,,,,31,,,0.2,9453.303480579983,Y,None,nogo,None,1,,,,,,,,,,,,,,,,,,,85,001,24,männlich,Psychologie,2023-01-31_12h08.02.636,00_bat_bachelor,2022.2.4,59.9536358741257,
,,,,,,,,,,,,1,0,1,0,32,0,32,0,,,,,,,32,,,0.2,9454.304208822083,X,l,go,l,1,0.43013330083340406,,,,,,,,,,,,,,,,,,85,001,24,männlich,Psychologie,2023-01-31_12h08.02.636,00_bat_bachelor,2022.2.4,59.9536358741257,
,,,,,,,,,,,,1,0,1,0,33,0,33,0,,,,,,,33,,,0.2,9455.038065436063,Y,d,go,d,1,0.49652211740612984,,,,,,,,,,,,,,,,,,85,001,24,männlich,Psychologie,2023-01-31_12h08.02.636,00_bat_bachelor,2022.2.4,59.9536358741257,
,,,,,,,,,,,,1,0,1,0,34,0,34,0,,,,,,,34,,,0.2,9455.838446138892,Y,None,nogo,d,0,0.4796377618331462,,,,,,,,,,,,,,,,,,85,001,24,männlich,Psychologie,2023-01-31_12h08.02.636,00_bat_bachelor,2022.2.4,59.9536358741257,
,,,,,,,,,,,,1,0,1,0,35,0,35,0,,,,,,,35,,,0.2,9456.622435576981,X,l,go,l,1,0.5274088901933283,,,,,,,,,,,,,,,,,,85,001,24,männlich,Psychologie,2023-01-31_12h08.02.636,00_bat_bachelor,2022.2.4,59.9536358741257,
,,,,,,,,,,,,1,0,1,0,36,0,36,0,,,,,,,36,,,0.2,9457.456585960463,Y,d,go,d,1,0.5581807540729642,,,,,,,,,,,,,,,,,,85,001,24,männlich,Psychologie,2023-01-31_12h08.02.636,00_bat_bachelor,2022.2.4,59.9536358741257,
,,,,,,,,,,,,1,0,1,0,37,0,37,0,,,,,,,37,,,0.2,9458.323784085456,Y,None,nogo,d,0,0.4750976429786533,,,,,,,,,,,,,,,,,,85,001,24,männlich,Psychologie,2023-01-31_12h08.02.636,00_bat_bachelor,2022.2.4,59.9536358741257,
,,,,,,,,,,,,1,0,1,0,38,0,38,0,,,,,,,38,,,0.2,9459.107851583976,X,l,go,l,1,0.47528285486623645,,,,,,,,,,,,,,,,,,85,001,24,männlich,Psychologie,2023-01-31_12h08.02.636,00_bat_bachelor,2022.2.4,59.9536358741257,
,,,,,,,,,,,,1,0,1,0,39,0,39,0,,,,,,,39,,,0.2,9459.891767810099,Y,d,go,None,0,,,,,,,,,,,,,,,,,,,85,001,24,männlich,Psychologie,2023-01-31_12h08.02.636,00_bat_bachelor,2022.2.4,59.9536358741257,
,,,,,,,,,,,,1,0,1,0,40,0,40,0,,,,,,,40,,,0.2,9460.892530476209,X,l,go,l,1,0.6415062895976007,,,,,,,,,,,,,,,,,,85,001,24,männlich,Psychologie,2023-01-31_12h08.02.636,00_bat_bachelor,2022.2.4,59.9536358741257,
,,,,,,,,,,,,1,0,1,0,41,0,41,0,,,,,,,41,,,0.2,9461.843264075927,Y,d,go,d,1,0.5559965127613395,,,,,,,,,,,,,,,,,,85,001,24,männlich,Psychologie,2023-01-31_12h08.02.636,00_bat_bachelor,2022.2.4,59.9536358741257,
,,,,,,,,,,,,1,0,1,0,42,0,42,0,,,,,,,42,,,0.2,9462.710339049576,Y,None,nogo,None,1,,,,,,,,,,,,,,,,,,,85,001,24,männlich,Psychologie,2023-01-31_12h08.02.636,00_bat_bachelor,2022.2.4,59.9536358741257,
,,,,,,,,,,,,1,0,1,0,43,0,43,0,,,,,,,43,,,0.2,9463.711459533777,X,l,go,l,1,0.44668262638151646,,,,,,,,,,,,,,,,,,85,001,24,männlich,Psychologie,2023-01-31_12h08.02.636,00_bat_bachelor,2022.2.4,59.9536358741257,
,,,,,,,,,,,,1,0,1,0,44,0,44,0,,,,,,,44,,,0.2,9464.461647776188,Y,d,go,d,1,0.43263511802069843,,,,,,,,,,,,,,,,,,85,001,24,männlich,Psychologie,2023-01-31_12h08.02.636,00_bat_bachelor,2022.2.4,59.9536358741257,
,,,,,,,,,,,,1,0,1,0,45,0,45,0,,,,,,,45,,,0.2,9465.19556014752,X,l,go,l,1,0.4507068668026477,,,,,,,,,,,,,,,,,,85,001,24,männlich,Psychologie,2023-01-31_12h08.02.636,00_bat_bachelor,2022.2.4,59.9536358741257,
,,,,,,,,,,,,1,0,1,0,46,0,46,0,,,,,,,46,,,0.2,9465.962945472449,X,None,nogo,None,1,,9466.763606902445,,,,,,,,,,,,,,,,,85,001,24,männlich,Psychologie,2023-01-31_12h08.02.636,00_bat_bachelor,2022.2.4,59.9536358741257,
,,,,,,,,,,,,1,0,1,0,47,0,47,0,,,,,,,47,,,0.2,9466.963842441794,Y,d,go,d,1,0.3469352808315307,,,,,,,,,,,,,,,,,,85,001,24,männlich,Psychologie,2023-01-31_12h08.02.636,00_bat_bachelor,2022.2.4,59.9536358741257,
,,,,,,,,,,,,1,0,1,0,48,0,48,0,,,,,,,48,,,0.2,9467.614097641548,X,l,go,l,1,0.41603051987476647,,,,,,,,,,,,,,,,,,85,001,24,männlich,Psychologie,2023-01-31_12h08.02.636,00_bat_bachelor,2022.2.4,59.9536358741257,
,,,,,,,,,,,,1,0,1,0,49,0,49,0,,,,,,,49,,,0.2,9468.331546020927,Y,d,go,d,1,0.38696047361008823,,,,,,,,,,,,,,,,,,85,001,24,männlich,Psychologie,2023-01-31_12h08.02.636,00_bat_bachelor,2022.2.4,59.9536358741257,
,,,,,,,,,,,,1,0,1,0,50,0,50,0,,,,,,,50,,,0.2,9469.031810408691,X,l,go,l,1,0.3102725106291473,,,,,,,,,,,,,,,,,,85,001,24,männlich,Psychologie,2023-01-31_12h08.02.636,00_bat_bachelor,2022.2.4,59.9536358741257,
,,,,,,,,,,,,1,0,1,0,51,0,51,0,,,,,,,51,,,0.2,9469.649205503287,Y,d,go,d,1,0.39716119575314224,,,,,,,,,,,,,,,,,,85,001,24,männlich,Psychologie,2023-01-31_12h08.02.636,00_bat_bachelor,2022.2.4,59.9536358741257,
,,,,,,,,,,,,1,0,1,0,52,0,52,0,,,,,,,52,,,0.2,9470.349737527315,X,l,go,l,1,0.35276121739298105,,,,,,,,,,,,,,,,,,85,001,24,männlich,Psychologie,2023-01-31_12h08.02.636,00_bat_bachelor,2022.2.4,59.9536358741257,
,,,,,,,,,,,,1,0,1,0,53,0,53,0,,,,,,,53,,,0.2,9471.016920234077,Y,d,go,d,1,0.4054205857682973,,,,,,,,,,,,,,,,,,85,001,24,männlich,Psychologie,2023-01-31_12h08.02.636,00_bat_bachelor,2022.2.4,59.9536358741257,
,,,,,,,,,,,,1,0,1,0,54,0,54,0,,,,,,,54,,,0.2,9471.73405588651,Y,None,nogo,l,0,0.328508622944355,,,,,,,,,,,,,,,,,,85,001,24,männlich,Psychologie,2023-01-31_12h08.02.636,00_bat_bachelor,2022.2.4,59.9536358741257,
,,,,,,,,,,,,1,0,1,0,55,0,55,0,,,,,,,55,,,0.2,9472.367944064084,X,l,go,None,0,,,,,,,,,,,,,,,,,,,85,001,24,männlich,Psychologie,2023-01-31_12h08.02.636,00_bat_bachelor,2022.2.4,59.9536358741257,
,,,,,,,,,,,,1,0,1,0,56,0,56,0,,,,,,,56,,,0.2,9473.368410487892,Y,d,go,d,1,0.4224654259160161,,,,,,,,,,,,,,,,,,85,001,24,männlich,Psychologie,2023-01-31_12h08.02.636,00_bat_bachelor,2022.2.4,59.9536358741257,
,,,,,,,,,,,,1,0,1,0,57,0,57,0,,,,,,,57,,,0.2,9474.102526980452,Y,None,nogo,None,1,,,,,,,,,,,,,,,,,,,85,001,24,männlich,Psychologie,2023-01-31_12h08.02.636,00_bat_bachelor,2022.2.4,59.9536358741257,
,,,,,,,,,,,,1,0,1,0,58,0,58,0,,,,,,,58,,,0.2,9475.103138374165,X,l,go,l,1,0.39887561928480864,,,,,,,,,,,,,,,,,,85,001,24,männlich,Psychologie,2023-01-31_12h08.02.636,00_bat_bachelor,2022.2.4,59.9536358741257,
,,,,,,,,,,,,1,0,1,0,59,0,59,0,,,,,,,59,,,0.2,9475.803907004185,Y,d,go,d,1,0.5144455025438219,,,,,,,,,,,,,,,,,,85,001,24,männlich,Psychologie,2023-01-31_12h08.02.636,00_bat_bachelor,2022.2.4,59.9536358741257,
,,,,,,,,,,,,1,0,1,0,60,0,60,0,,,,,,,60,,,0.2,9476.621194850188,X,l,go,l,1,0.36974739097058773,,,,,,,,,,,,,,,,,,85,001,24,männlich,Psychologie,2023-01-31_12h08.02.636,00_bat_bachelor,2022.2.4,59.9536358741257,
,,,,,,,,,,,,1,0,1,0,61,0,61,0,,,,,,,61,,,0.2,9477.304936094442,Y,d,go,d,1,0.40594131289981306,,,,,,,,,,,,,,,,,,85,001,24,männlich,Psychologie,2023-01-31_12h08.02.636,00_bat_bachelor,2022.2.4,59.9536358741257,
,,,,,,,,,,,,1,0,1,0,62,0,62,0,,,,,,,62,,,0.2,9478.022245322587,Y,None,nogo,l,0,0.32794232037849724,,,,,,,,,,,,,,,,,,85,001,24,männlich,Psychologie,2023-01-31_12h08.02.636,00_bat_bachelor,2022.2.4,59.9536358741257,
,,,,,,,,,,,,1,0,1,0,63,0,63,0,,,,,,,63,,,0.2,9478.656108287862,X,l,go,None,0,,,,,,,,,,,,,,,,,,,85,001,24,männlich,Psychologie,2023-01-31_12h08.02.636,00_bat_bachelor,2022.2.4,59.9536358741257,
,,,,,,,,,,,,1,0,1,0,64,0,64,0,,,,,,,64,,,0.2,9479.656822469318,Y,d,go,d,1,0.37351466179825366,,,,,,,,,,,,,,,,,,85,001,24,männlich,Psychologie,2023-01-31_12h08.02.636,00_bat_bachelor,2022.2.4,59.9536358741257,
,,,,,,,,,,,,1,0,1,0,65,0,65,0,,,,,,,65,,,0.2,9480.340651955921,X,l,go,l,1,0.47366346162743866,,,,,,,,,,,,,,,,,,85,001,24,männlich,Psychologie,2023-01-31_12h08.02.636,00_bat_bachelor,2022.2.4,59.9536358741257,
,,,,,,,,,,,,1,0,1,0,66,0,66,0,,,,,,,66,,,0.2,9481.124634121312,Y,d,go,d,1,0.28146331245079637,,,,,,,,,,,,,,,,,,85,001,24,männlich,Psychologie,2023-01-31_12h08.02.636,00_bat_bachelor,2022.2.4,59.9536358741257,
,,,,,,,,,,,,1,0,1,0,67,0,67,0,,,,,,,67,,,0.2,9481.708258565748,Y,None,nogo,None,1,,,,,,,,,,,,,,,,,,,85,001,24,männlich,Psychologie,2023-01-31_12h08.02.636,00_bat_bachelor,2022.2.4,59.9536358741257,
,,,,,,,,,,,,1,0,1,0,68,0,68,0,,,,,,,68,,,0.2,9482.709134686505,Y,None,nogo,None,1,,,,,,,,,,,,,,,,,,,85,001,24,männlich,Psychologie,2023-01-31_12h08.02.636,00_bat_bachelor,2022.2.4,59.9536358741257,
,,,,,,,,,,,,1,0,1,0,69,0,69,0,,,,,,,69,,,0.2,9483.709939534543,X,l,go,l,1,0.4170200952794403,,,,,,,,,,,,,,,,,,85,001,24,männlich,Psychologie,2023-01-31_12h08.02.636,00_bat_bachelor,2022.2.4,59.9536358741257,
,,,,,,,,,,,,1,0,1,0,70,0,70,0,,,,,,,70,,,0.2,9484.42717458075,Y,d,go,d,1,0.4197570637334138,,,,,,,,,,,,,,,,,,85,001,24,männlich,Psychologie,2023-01-31_12h08.02.636,00_bat_bachelor,2022.2.4,59.9536358741257,
,,,,,,,,,,,,1,0,1,0,71,0,71,0,,,,,,,71,,,0.2,9485.161008406663,Y,None,nogo,None,1,,9485.961662563961,,,,,,,,,,,,,,,,,85,001,24,männlich,Psychologie,2023-01-31_12h08.02.636,00_bat_bachelor,2022.2.4,59.9536358741257,
,,,,,,,,,,,,1,0,1,0,72,0,72,0,,,,,,,72,,,0.2,9486.161665376043,Y,None,nogo,None,1,,,,,,,,,,,,,,,,,,,85,001,24,männlich,Psychologie,2023-01-31_12h08.02.636,00_bat_bachelor,2022.2.4,59.9536358741257,
,,,,,,,,,,,,1,0,1,0,73,0,73,0,,,,,,,73,,,0.2,9487.162569618085,X,l,go,l,1,0.3238676555920392,,,,,,,,,,,,,,,,,,85,001,24,männlich,Psychologie,2023-01-31_12h08.02.636,00_bat_bachelor,2022.2.4,59.9536358741257,
,,,,,,,,,,,,1,0,1,0,74,0,74,0,,,,,,,74,,,0.2,9487.796360825887,Y,d,go,d,1,0.3948756211902946,,,,,,,,,,,,,,,,,,85,001,24,männlich,Psychologie,2023-01-31_12h08.02.636,00_bat_bachelor,2022.2.4,59.9536358741257,
,,,,,,,,,,,,1,0,1,0,75,0,75,0,,,,,,,75,,,0.2,9488.496922910446,Y,None,nogo,l,0,0.28496246226131916,,,,,,,,,,,,,,,,,,85,001,24,männlich,Psychologie,2023-01-31_12h08.02.636,00_bat_bachelor,2022.2.4,59.9536358741257,
,,,,,,,,,,,,1,0,1,0,76,0,76,0,,,,,,,76,,,0.2,9489.097404558677,Y,None,nogo,None,1,,,,,,,,,,,,,,,,,,,85,001,24,männlich,Psychologie,2023-01-31_12h08.02.636,00_bat_bachelor,2022.2.4,59.9536358741257,
,,,,,,,,,,,,1,0,1,0,77,0,77,0,,,,,,,77,,,0.2,9490.098133285763,X,l,go,l,1,0.42823415040038526,,,,,,,,,,,,,,,,,,85,001,24,männlich,Psychologie,2023-01-31_12h08.02.636,00_bat_bachelor,2022.2.4,59.9536358741257,
,,,,,,,,,,,,1,0,1,0,78,0,78,0,,,,,,,78,,,0.2,9490.831752324011,Y,d,go,None,0,,9491.632394359913,,,,,,,,,,,,,,,,,85,001,24,männlich,Psychologie,2023-01-31_12h08.02.636,00_bat_bachelor,2022.2.4,59.9536358741257,
,,,,,,,,,,,,1,0,1,0,79,0,79,0,,,,,,,79,,,0.2,9491.832503838697,Y,None,nogo,d,0,0.3262531089130789,,,,,,,,,,,,,,,,,,85,001,24,männlich,Psychologie,2023-01-31_12h08.02.636,00_bat_bachelor,2022.2.4,59.9536358741257,
,,,,,,,,,,,,1,0,1,0,80,0,80,0,,,,,,,80,,,0.2,9492.466486076824,X,l,go,None,0,,,,,,,,,,,,,,,,,,,85,001,24,männlich,Psychologie,2023-01-31_12h08.02.636,00_bat_bachelor,2022.2.4,59.9536358741257,
,,,,,,,,,,,,1,0,1,0,81,0,81,0,,,,,,,81,,,0.2,9493.467327288585,Y,d,go,None,0,,,,,,,,,,,,,,,,,,,85,001,24,männlich,Psychologie,2023-01-31_12h08.02.636,00_bat_bachelor,2022.2.4,59.9536358741257,
,,,,,,,,,,,,1,0,1,0,82,0,82,0,,,,,,,82,,,0.2,9494.467985227704,X,l,go,l,1,0.2503651457373053,,,,,,,,,,,,,,,,,,85,001,24,männlich,Psychologie,2023-01-31_12h08.02.636,00_bat_bachelor,2022.2.4,59.9536358741257,
,,,,,,,,,,,,1,0,1,0,83,0,83,0,,,,,,,83,,,0.2,9495.035073437495,X,None,nogo,l,0,0.4672241921070963,,,,,,,,,,,,,,,,,,85,001,24,männlich,Psychologie,2023-01-31_12h08.02.636,00_bat_bachelor,2022.2.4,59.9536358741257,
,,,,,,,,,,,,1,0,1,0,84,0,84,0,,,,,,,84,,,0.2,9495.819037178531,X,None,nogo,None,1,,,,,,,,,,,,,,,,,,,85,001,24,männlich,Psychologie,2023-01-31_12h08.02.636,00_bat_bachelor,2022.2.4,59.9536358741257,
,,,,,,,,,,,,1,0,1,0,85,0,85,0,,,,,,,85,,,0.2,9496.819932208396,Y,d,go,d,1,0.314218690386042,,,,,,,,,,,,,,,,,,85,001,24,männlich,Psychologie,2023-01-31_12h08.02.636,00_bat_bachelor,2022.2.4,59.9536358741257,
,,,,,,,,,,,,1,0,1,0,86,0,86,0,,,,,,,86,,,0.2,9497.437129000202,X,l,go,l,1,0.4812018822412938,,,,,,,,,,,,,,,,,,85,001,24,männlich,Psychologie,2023-01-31_12h08.02.636,00_bat_bachelor,2022.2.4,59.9536358741257,
,,,,,,,,,,,,1,0,1,0,87,0,87,0,,,,,,,87,,,0.2,9498.22088522627,Y,d,go,d,1,0.3856664134655148,,,,,,,,,,,,,,,,,,85,001,24,männlich,Psychologie,2023-01-31_12h08.02.636,00_bat_bachelor,2022.2.4,59.9536358741257,
,,,,,,,,,,,,1,0,1,0,88,0,88,0,,,,,,,88,,,0.2,9498.921472038142,Y,None,nogo,l,0,0.3253580790478736,,,,,,,,,,,,,,,,,,85,001,24,männlich,Psychologie,2023-01-31_12h08.02.636,00_bat_bachelor,2022.2.4,59.9536358741257,
,,,,,,,,,,,,1,0,1,0,89,0,89,0,,,,,,,89,,,0.2,9499.555063973181,X,l,go,None,0,,,,,,,,,,,,,,,,,,,85,001,24,männlich,Psychologie,2023-01-31_12h08.02.636,00_bat_bachelor,2022.2.4,59.9536358741257,
,,,,,,,,,,,,1,0,1,0,90,0,90,0,,,,,,,90,,,0.2,9500.55609476054,Y,d,go,d,1,0.3706307844258845,,,,,,,,,,,,,,,,,,85,001,24,männlich,Psychologie,2023-01-31_12h08.02.636,00_bat_bachelor,2022.2.4,59.9536358741257,
,,,,,,,,,,,,1,0,1,0,91,0,91,0,,,,,,,91,,,0.2,9501.2399150352,Y,None,nogo,l,0,0.3106104501057416,,,,,,,,,,,,,,,,,,85,001,24,männlich,Psychologie,2023-01-31_12h08.02.636,00_bat_bachelor,2022.2.4,59.9536358741257,
,,,,,,,,,,,,1,0,1,0,92,0,92,0,,,,,,,92,,,0.2,9501.857065281365,X,l,go,None,0,,,,,,,,,,,,,,,,,,,85,001,24,männlich,Psychologie,2023-01-31_12h08.02.636,00_bat_bachelor,2022.2.4,59.9536358741257,
,,,,,,,,,,,,1,0,1,0,93,0,93,0,,,,,,,93,,,0.2,9502.857845887076,Y,d,go,d,1,0.24465217883698642,,,,,,,,,,,,,,,,,,85,001,24,männlich,Psychologie,2023-01-31_12h08.02.636,00_bat_bachelor,2022.2.4,59.9536358741257,
,,,,,,,,,,,,1,0,1,0,94,0,94,0,,,,,,,94,,,0.2,9503.408294589957,Y,None,nogo,None,1,,9504.208879898768,,,,,,,,,,,,,,,,,85,001,24,männlich,Psychologie,2023-01-31_12h08.02.636,00_bat_bachelor,2022.2.4,59.9536358741257,
,,,,,,,,,,,,1,0,1,0,95,0,95,0,,,,,,,95,,,0.2,9504.409045134904,X,l,go,l,1,0.32600195752456784,,,,,,,,,,,,,,,,,,85,001,24,männlich,Psychologie,2023-01-31_12h08.02.636,00_bat_bachelor,2022.2.4,59.9536358741257,
,,,,,,,,,,,,1,0,1,0,96,0,96,0,,,,,,,96,,,0.2,9505.042914888123,Y,d,go,None,0,,,,,,,,,,,,,,,,,,,85,001,24,männlich,Psychologie,2023-01-31_12h08.02.636,00_bat_bachelor,2022.2.4,59.9536358741257,
,,,,,,,,,,,,1,0,1,0,97,0,97,0,,,,,,,97,,,0.2,9506.043588342378,X,l,go,l,1,0.3395684964489192,,,,,,,,,,,,,,,,,,85,001,24,männlich,Psychologie,2023-01-31_12h08.02.636,00_bat_bachelor,2022.2.4,59.9536358741257,
,,,,,,,,,,,,1,0,1,0,98,0,98,0,,,,,,,98,,,0.2,9506.693818815053,X,None,nogo,d,0,0.18482723832130432,,,,,,,,,,,,,,,,,,85,001,24,männlich,Psychologie,2023-01-31_12h08.02.636,00_bat_bachelor,2022.2.4,59.9536358741257,
,,,,,,,,,,,,1,0,1,0,99,0,99,0,,,,,,,99,,,0.2,9507.194190451177,Y,d,go,None,0,,,,,,,,,,,,,,,,,,,85,001,24,männlich,Psychologie,2023-01-31_12h08.02.636,00_bat_bachelor,2022.2.4,59.9536358741257,
,,,,,,,,,,,,1,0,1,0,100,0,100,0,,,,,,,100,,,0.2,9508.19561978383,X,l,go,None,0,,9508.99620800186,,,,,,,,,,,,,,,,,85,001,24,männlich,Psychologie,2023-01-31_12h08.02.636,00_bat_bachelor,2022.2.4,59.9536358741257,
,,,,,,,,,,,,1,0,1,0,101,0,101,0,,,,,,,101,,,0.2,9509.196497844066,X,None,nogo,None,1,,9509.996803880204,,,,,,,,,,,,,,,,,85,001,24,männlich,Psychologie,2023-01-31_12h08.02.636,00_bat_bachelor,2022.2.4,59.9536358741257,
,,,,,,,,,,,,1,0,1,0,102,0,102,0,,,,,,,102,,,0.2,9510.19689638936,X,None,nogo,l,0,0.21708710119128227,,,,,,,,,,,,,,,,,,85,001,24,männlich,Psychologie,2023-01-31_12h08.02.636,00_bat_bachelor,2022.2.4,59.9536358741257,
,,,,,,,,,,,,1,0,1,0,103,0,103,0,,,,,,,103,,,0.2,9510.713842562865,Y,d,go,d,1,0.3412974651437253,,,,,,,,,,,,,,,,,,85,001,24,männlich,Psychologie,2023-01-31_12h08.02.636,00_bat_bachelor,2022.2.4,59.9536358741257,
,,,,,,,,,,,,1,0,1,0,104,0,104,0,,,,,,,104,,,0.2,9511.3643072173,X,l,go,None,0,,9512.1649541019,,,,,,,,,,,,,,,,,85,001,24,männlich,Psychologie,2023-01-31_12h08.02.636,00_bat_bachelor,2022.2.4,59.9536358741257,
,,,,,,,,,,,,1,0,1,0,105,0,105,0,,,,,,,105,,,0.2,9512.364827944199,X,None,nogo,None,1,,,,,,,,,,,,,,,,,,,85,001,24,männlich,Psychologie,2023-01-31_12h08.02.636,00_bat_bachelor,2022.2.4,59.9536358741257,
,,,,,,,,,,,,1,0,1,0,106,0,106,0,,,,,,,106,,,0.2,9513.365563943982,Y,d,go,d,1,0.45698904572054744,,,,,,,,,,,,,,,,,,85,001,24,männlich,Psychologie,2023-01-31_12h08.02.636,00_bat_bachelor,2022.2.4,59.9536358741257,
,,,,,,,,,,,,1,0,1,0,107,0,107,0,,,,,,,107,,,0.2,9514.132973026484,X,l,go,l,1,0.2818914335221052,,,,,,,,,,,,,,,,,,85,001,24,männlich,Psychologie,2023-01-31_12h08.02.636,00_bat_bachelor,2022.2.4,59.9536358741257,
,,,,,,,,,,,,1,0,1,0,108,0,108,0,,,,,,,108,,,0.2,9514.71682341001,Y,d,go,d,1,0.3060950580984354,,,,,,,,,,,,,,,,,,85,001,24,männlich,Psychologie,2023-01-31_12h08.02.636,00_bat_bachelor,2022.2.4,59.9536358741257,
,,,,,,,,,,,,1,0,1,0,109,0,109,0,,,,,,,109,,,0.2,9515.334012444131,Y,None,nogo,l,0,0.2964834263548255,,,,,,,,,,,,,,,,,,85,001,24,männlich,Psychologie,2023-01-31_12h08.02.636,00_bat_bachelor,2022.2.4,59.9536358741257,
,,,,,,,,,,,,1,0,1,0,110,0,110,0,,,,,,,110,,,0.2,9515.934369971277,X,l,go,None,0,,,,,,,,,,,,,,,,,,,85,001,24,männlich,Psychologie,2023-01-31_12h08.02.636,00_bat_bachelor,2022.2.4,59.9536358741257,
,,,,,,,,,,,,1,0,1,0,111,0,111,0,,,,,,,111,,,0.2,9516.934929970885,Y,d,go,d,1,0.3438792822416872,,,,,,,,,,,,,,,,,,85,001,24,männlich,Psychologie,2023-01-31_12h08.02.636,00_bat_bachelor,2022.2.4,59.9536358741257,
,,,,,,,,,,,,1,0,1,0,112,0,112,0,,,,,,,112,,,0.2,9517.585678261472,Y,None,nogo,None,1,,9518.386408539955,,,,,,,,,,,,,,,,,85,001,24,männlich,Psychologie,2023-01-31_12h08.02.636,00_bat_bachelor,2022.2.4,59.9536358741257,
,,,,,,,,,,,,1,0,1,0,113,0,113,0,,,,,,,113,,,0.2,9518.586590260966,X,l,go,l,1,0.46840722183696926,,,,,,,,,,,,,,,,,,85,001,24,männlich,Psychologie,2023-01-31_12h08.02.636,00_bat_bachelor,2022.2.4,59.9536358741257,
,,,,,,,,,,,,1,0,1,0,114,0,114,0,,,,,,,114,,,0.2,9519.370309153805,Y,d,go,None,0,,,,,,,,,,,,,,,,,,,85,001,24,männlich,Psychologie,2023-01-31_12h08.02.636,00_bat_bachelor,2022.2.4,59.9536358741257,
,,,,,,,,,,,,1,0,1,0,115,0,115,0,,,,,,,115,,,0.2,9520.370908911107,X,l,go,l,1,0.3310647429898381,,,,,,,,,,,,,,,,,,85,001,24,männlich,Psychologie,2023-01-31_12h08.02.636,00_bat_bachelor,2022.2.4,59.9536358741257,
,,,,,,,,,,,,1,0,1,0,116,0,116,0,,,,,,,116,,,0.2,9521.005019633798,X,None,nogo,d,0,0.27407519496046007,,,,,,,,,,,,,,,,,,85,001,24,männlich,Psychologie,2023-01-31_12h08.02.636,00_bat_bachelor,2022.2.4,59.9536358741257,
,,,,,,,,,,,,1,0,1,0,117,0,117,0,,,,,,,117,,,0.2,9521.588546623709,Y,d,go,None,0,,,,,,,,,,,,,,,,,,,85,001,24,männlich,Psychologie,2023-01-31_12h08.02.636,00_bat_bachelor,2022.2.4,59.9536358741257,
,,,,,,,,,,,,1,0,1,0,118,0,118,0,,,,,,,118,,,0.2,9522.589540562592,X,l,go,l,1,0.44856674666516483,,,,,,,,,,,,,,,,,,85,001,24,männlich,Psychologie,2023-01-31_12h08.02.636,00_bat_bachelor,2022.2.4,59.9536358741257,
,,,,,,,,,,,,1,0,1,0,119,0,119,0,,,,,,,119,,,0.2,9523.340106016956,Y,d,go,d,1,0.32222353504039347,,,,,,,,,,,,,,,,,,85,001,24,männlich,Psychologie,2023-01-31_12h08.02.636,00_bat_bachelor,2022.2.4,59.9536358741257,
,,,,,,,,,,,,1,0,1,0,120,0,120,0,,,,,,,120,,,0.2,9523.973882679362,Y,None,nogo,d,0,0.5844789231196046,,,,,,,,,,,,,,,,,,85,001,24,männlich,Psychologie,2023-01-31_12h08.02.636,00_bat_bachelor,2022.2.4,59.9536358741257,
,,,,,,,,,,,,1,0,1,0,121,0,121,0,,,,,,,121,,,0.2,9524.874634242617,X,l,go,None,0,,9525.675265127094,,,,,,,,,,,,,,,,,85,001,24,männlich,Psychologie,2023-01-31_12h08.02.636,00_bat_bachelor,2022.2.4,59.9536358741257,
,,,,,,,,,,,,1,0,1,0,122,0,122,0,,,,,,,122,,,0.2,9525.875399817945,Y,d,go,None,0,,,,,,,,,,,,,,,,,,,85,001,24,männlich,Psychologie,2023-01-31_12h08.02.636,00_bat_bachelor,2022.2.4,59.9536358741257,
,,,,,,,,,,,,1,0,1,0,123,0,123,0,,,,,,,123,,,0.2,9526.87616587826,X,l,go,l,1,0.35418667108751833,,,,,,,,,,,,,,,,,,85,001,24,männlich,Psychologie,2023-01-31_12h08.02.636,00_bat_bachelor,2022.2.4,59.9536358741257,
,,,,,,,,,,,,1,0,1,0,124,0,124,0,,,,,,,124,,,0.2,9527.543007251807,X,None,nogo,l,0,0.5356551893055439,,,,,,,,,,,,,,,,,,85,001,24,männlich,Psychologie,2023-01-31_12h08.02.636,00_bat_bachelor,2022.2.4,59.9536358741257,
,,,,,,,,,,,,1,0,1,0,125,0,125,0,,,,,,,125,,,0.2,9528.393717627274,Y,d,go,None,0,,,,,,,,,,,,,,,,,,,85,001,24,männlich,Psychologie,2023-01-31_12h08.02.636,00_bat_bachelor,2022.2.4,59.9536358741257,
,,,,,,,,,,,,1,0,1,0,126,0,126,0,,,,,,,126,,,0.2,9529.394570475211,X,l,go,l,1,0.3485823101364076,,,,,,,,,,,,,,,,,,85,001,24,männlich,Psychologie,2023-01-31_12h08.02.636,00_bat_bachelor,2022.2.4,59.9536358741257,
,,,,,,,,,,,,1,0,1,0,127,0,127,0,,,,,,,127,,,0.2,9530.045237311395,Y,d,go,d,1,0.4815281853079796,,,,,,,,,,,,,,,,,,85,001,24,männlich,Psychologie,2023-01-31_12h08.02.636,00_bat_bachelor,2022.2.4,59.9536358741257,
,,,,,,,,,,,,1,0,1,0,128,0,128,0,,,,,,,128,,,0.2,9530.828804446617,X,l,go,l,1,0.46497061755508184,,,,,,,,,,,,,,,,,,85,001,24,männlich,Psychologie,2023-01-31_12h08.02.636,00_bat_bachelor,2022.2.4,59.9536358741257,
,,,,,,,,,,,,1,0,1,0,129,0,129,0,,,,,,,129,,,0.2,9531.59614031692,X,None,nogo,l,0,0.4503611698746681,,,,,,,,,,,,,,,,,,85,001,24,männlich,Psychologie,2023-01-31_12h08.02.636,00_bat_bachelor,2022.2.4,59.9536358741257,
,,,,,,,,,,,,1,0,1,0,130,0,130,0,,,,,,,130,,,0.2,9532.346987952944,Y,d,go,None,0,,,,,,,,,,,,,,,,,,,85,001,24,männlich,Psychologie,2023-01-31_12h08.02.636,00_bat_bachelor,2022.2.4,59.9536358741257,
,,,,,,,,,,,,1,0,1,0,131,0,131,0,,,,,,,131,,,0.2,9533.34764783131,X,l,go,l,1,0.3944310152437538,,,,,,,,,,,,,,,,,,85,001,24,männlich,Psychologie,2023-01-31_12h08.02.636,00_bat_bachelor,2022.2.4,59.9536358741257,
,,,,,,,,,,,,1,0,1,0,132,0,132,0,,,,,,,132,,,0.2,9534.048245309852,X,None,nogo,None,1,,,,,,,,,,,,,,,,,,,85,001,24,männlich,Psychologie,2023-01-31_12h08.02.636,00_bat_bachelor,2022.2.4,59.9536358741257,
,,,,,,,,,,,,1,0,1,0,133,0,133,0,,,,,,,133,,,0.2,9535.048992945813,Y,d,go,d,1,0.3096485109999776,,,,,,,,,,,,,,,,,,85,001,24,männlich,Psychologie,2023-01-31_12h08.02.636,00_bat_bachelor,2022.2.4,59.9536358741257,
,,,,,,,,,,,,1,0,1,0,134,0,134,0,,,,,,,134,,,0.2,9535.66612185887,X,l,go,l,1,0.5402151870075613,,,,,,,,,,,,,,,,,,85,001,24,männlich,Psychologie,2023-01-31_12h08.02.636,00_bat_bachelor,2022.2.4,59.9536358741257,
,,,,,,,,,,,,1,0,1,0,135,0,135,0,,,,,,,135,,,0.2,9536.516493810108,X,None,nogo,None,1,,,,,,,,,,,,,,,,,,,85,001,24,männlich,Psychologie,2023-01-31_12h08.02.636,00_bat_bachelor,2022.2.4,59.9536358741257,
,,,,,,,,,,,,1,0,1,0,136,0,136,0,,,,,,,136,,,0.2,9537.517433930887,Y,d,go,d,1,0.35331976250745356,,,,,,,,,,,,,,,,,,85,001,24,männlich,Psychologie,2023-01-31_12h08.02.636,00_bat_bachelor,2022.2.4,59.9536358741257,
,,,,,,,,,,,,1,0,1,0,137,0,137,0,,,,,,,137,,,0.2,9538.184780516429,X,l,go,l,1,0.34121601074002683,,,,,,,,,,,,,,,,,,85,001,24,männlich,Psychologie,2023-01-31_12h08.02.636,00_bat_bachelor,2022.2.4,59.9536358741257,
,,,,,,,,,,,,1,0,1,0,138,0,138,0,,,,,,,138,,,0.2,9538.834925170988,Y,d,go,d,1,0.4754404304549098,,,,,,,,,,,,,,,,,,85,001,24,männlich,Psychologie,2023-01-31_12h08.02.636,00_bat_bachelor,2022.2.4,59.9536358741257,
,,,,,,,,,,,,1,0,1,0,139,0,139,0,,,,,,,139,,,0.2,9539.61906830594,Y,None,nogo,d,0,0.4115379161667079,,,,,,,,,,,,,,,,,,85,001,24,männlich,Psychologie,2023-01-31_12h08.02.636,00_bat_bachelor,2022.2.4,59.9536358741257,
,,,,,,,,,,,,1,0,1,0,140,0,140,0,,,,,,,140,,,0.2,9540.336142382352,X,l,go,l,1,0.6223126018885523,,,,,,,,,,,,,,,,,,85,001,24,männlich,Psychologie,2023-01-31_12h08.02.636,00_bat_bachelor,2022.2.4,59.9536358741257,
,,,,,,,,,,,,1,0,1,0,141,0,141,0,,,,,,,141,,,0.2,9541.270445444621,Y,d,go,d,1,0.520091075450182,,,,,,,,,,,,,,,,,,85,001,24,männlich,Psychologie,2023-01-31_12h08.02.636,00_bat_bachelor,2022.2.4,59.9536358741257,
,,,,,,,,,,,,1,0,1,0,142,0,142,0,,,,,,,142,,,0.2,9542.104419343174,X,l,go,l,1,0.4705609178636223,,,,,,,,,,,,,,,,,,85,001,24,männlich,Psychologie,2023-01-31_12h08.02.636,00_bat_bachelor,2022.2.4,59.9536358741257,
,,,,,,,,,,,,1,0,1,0,143,0,143,0,,,,,,,143,,,0.2,9542.88834769046,X,None,nogo,None,1,,,,,,,,,,,,,,,,,,,85,001,24,männlich,Psychologie,2023-01-31_12h08.02.636,00_bat_bachelor,2022.2.4,59.9536358741257,
,,,,,,,,,,,,1,0,1,0,144,0,144,0,,,,,,,144,,,0.2,9543.888828659896,X,None,nogo,None,1,,9544.689711665502,,,,,,,,,,,,,,,,,85,001,24,männlich,Psychologie,2023-01-31_12h08.02.636,00_bat_bachelor,2022.2.4,59.9536358741257,
,,,,,,,,,,,,1,0,1,0,145,0,145,0,,,,,,,145,,,0.2,9544.889874962391,Y,d,go,d,1,0.3402089811861515,,,,,,,,,,,,,,,,,,85,001,24,männlich,Psychologie,2023-01-31_12h08.02.636,00_bat_bachelor,2022.2.4,59.9536358741257,
,,,,,,,,,,,,1,0,1,0,146,0,146,0,,,,,,,146,,,0.2,9545.540428828914,X,l,go,None,0,,,,,,,,,,,,,,,,,,,85,001,24,männlich,Psychologie,2023-01-31_12h08.02.636,00_bat_bachelor,2022.2.4,59.9536358741257,
,,,,,,,,,,,,1,0,1,0,147,0,147,0,,,,,,,147,,,0.2,9546.541131858714,Y,d,go,d,1,0.36921842163428664,,,,,,,,,,,,,,,,,,85,001,24,männlich,Psychologie,2023-01-31_12h08.02.636,00_bat_bachelor,2022.2.4,59.9536358741257,
,,,,,,,,,,,,1,0,1,0,148,0,148,0,,,,,,,148,,,0.2,9547.224694678793,X,l,go,l,1,0.32577553344890475,,,,,,,,,,,,,,,,,,85,001,24,männlich,Psychologie,2023-01-31_12h08.02.636,00_bat_bachelor,2022.2.4,59.9536358741257,
,,,,,,,,,,,,1,0,1,0,149,0,149,0,,,,,,,149,,,0.2,9547.858821401838,Y,d,go,d,1,0.33105407655239105,,,,,,,,,,,,,,,,,,85,001,24,männlich,Psychologie,2023-01-31_12h08.02.636,00_bat_bachelor,2022.2.4,59.9536358741257,
,,,,,,,,,,,,1,0,1,0,150,0,150,0,,,,,,,150,,,0.2,9548.492665942991,Y,None,nogo,l,0,0.3699936936609447,,,,,,,,,,,,,,,,,,85,001,24,männlich,Psychologie,2023-01-31_12h08.02.636,00_bat_bachelor,2022.2.4,59.9536358741257,
,,,,,,,,,,,,1,0,1,0,151,0,151,0,,,,,,,151,,,0.2,9549.176468762802,X,l,go,l,1,0.6146311510819942,,,,,,,,,,,,,,,,,,85,001,24,männlich,Psychologie,2023-01-31_12h08.02.636,00_bat_bachelor,2022.2.4,59.9536358741257,
,,,,,,,,,,,,1,0,1,0,152,0,152,0,,,,,,,152,,,0.2,9550.09378953022,Y,d,go,d,1,0.4169105193577707,,,,,,,,,,,,,,,,,,85,001,24,männlich,Psychologie,2023-01-31_12h08.02.636,00_bat_bachelor,2022.2.4,59.9536358741257,
,,,,,,,,,,,,1,0,1,0,153,0,153,0,,,,,,,153,,,0.2,9550.810987243196,X,l,go,l,1,0.4196237304713577,,,,,,,,,,,,,,,,,,85,001,24,männlich,Psychologie,2023-01-31_12h08.02.636,00_bat_bachelor,2022.2.4,59.9536358741257,
,,,,,,,,,,,,1,0,1,0,154,0,154,0,,,,,,,154,,,0.2,9551.544824947836,Y,d,go,d,1,0.3091563901398331,,,,,,,,,,,,,,,,,,85,001,24,männlich,Psychologie,2023-01-31_12h08.02.636,00_bat_bachelor,2022.2.4,59.9536358741257,
,,,,,,,,,,,,1,0,1,0,155,0,155,0,,,,,,,155,,,0.2,9552.161964042578,X,l,go,l,1,0.5240440433844924,,,,,,,,,,,,,,,,,,85,001,24,männlich,Psychologie,2023-01-31_12h08.02.636,00_bat_bachelor,2022.2.4,59.9536358741257,
,,,,,,,,,,,,1,0,1,0,156,0,156,0,,,,,,,156,,,0.2,9552.996027153451,Y,d,go,d,1,0.3466458262410015,,,,,,,,,,,,,,,,,,85,001,24,männlich,Psychologie,2023-01-31_12h08.02.636,00_bat_bachelor,2022.2.4,59.9536358741257,
,,,,,,,,,,,,1,0,1,0,157,0,157,0,,,,,,,157,,,0.2,9553.64628817141,X,l,go,l,1,0.3841856869403273,,,,,,,,,,,,,,,,,,85,001,24,männlich,Psychologie,2023-01-31_12h08.02.636,00_bat_bachelor,2022.2.4,59.9536358741257,
,,,,,,,,,,,,1,0,1,0,158,0,158,0,,,,,,,158,,,0.2,9554.347038377076,X,None,nogo,None,1,,,,,,,,,,,,,,,,,,,85,001,24,männlich,Psychologie,2023-01-31_12h08.02.636,00_bat_bachelor,2022.2.4,59.9536358741257,
,,,,,,,,,,,,1,0,1,0,159,0,159,0,,,,,,,159,,,0.2,9555.347839346388,X,None,nogo,None,1,,,,,,,,,,,,,,,,,,,85,001,24,männlich,Psychologie,2023-01-31_12h08.02.636,00_bat_bachelor,2022.2.4,59.9536358741257,
,,,,,,,,,,,,1,0,1,0,160,0,160,0,,,,,,,160,,,0.2,9556.348509891657,Y,d,go,d,1,0.38536289846524596,,,,,,,,,,,,,,,,,,85,001,24,männlich,Psychologie,2023-01-31_12h08.02.636,00_bat_bachelor,2022.2.4,59.9536358741257,
,,,,,,,,,,,,1,0,1,0,161,0,161,0,,,,,,,161,,,0.2,9557.048981309636,X,l,go,l,1,0.38911271491087973,,,,,,,,,,,,,,,,,,85,001,24,männlich,Psychologie,2023-01-31_12h08.02.636,00_bat_bachelor,2022.2.4,59.9536358741257,
,,,,,,,,,,,,1,0,1,0,162,0,162,0,,,,,,,162,,,0.2,9557.74967818195,Y,d,go,d,1,0.5846912865526974,,,,,,,,,,,,,,,,,,85,001,24,männlich,Psychologie,2023-01-31_12h08.02.636,00_bat_bachelor,2022.2.4,59.9536358741257,
,,,,,,,,,,,,1,0,1,0,163,0,163,0,,,,,,,163,,,0.2,9558.65035265428,X,l,go,l,1,0.2599835654255003,,,,,,,,,,,,,,,,,,85,001,24,männlich,Psychologie,2023-01-31_12h08.02.636,00_bat_bachelor,2022.2.4,59.9536358741257,
,,,,,,,,,,,,1,0,1,0,164,0,164,0,,,,,,,164,,,0.2,9559.217457833933,X,None,nogo,d,0,0.4131776727735996,,,,,,,,,,,,,,,,,,85,001,24,männlich,Psychologie,2023-01-31_12h08.02.636,00_bat_bachelor,2022.2.4,59.9536358741257,
,,,,,,,,,,,,1,0,1,0,165,0,165,0,,,,,,,165,,,0.2,9559.934541607508,Y,d,go,d,1,0.5605754195712507,,,,,,,,,,,,,,,,,,85,001,24,männlich,Psychologie,2023-01-31_12h08.02.636,00_bat_bachelor,2022.2.4,59.9536358741257,
,,,,,,,,,,,,1,0,1,0,166,0,166,0,,,,,,,166,,,0.2,9560.80188664142,X,l,go,l,1,0.4284896655008197,,,,,,,,,,,,,,,,,,85,001,24,männlich,Psychologie,2023-01-31_12h08.02.636,00_bat_bachelor,2022.2.4,59.9536358741257,
,,,,,,,,,,,,1,0,1,0,167,0,167,0,,,,,,,167,,,0.2,9561.535870770458,Y,d,go,d,1,0.4784741261973977,,,,,,,,,,,,,,,,,,85,001,24,männlich,Psychologie,2023-01-31_12h08.02.636,00_bat_bachelor,2022.2.4,59.9536358741257,
,,,,,,,,,,,,1,0,1,0,168,0,168,0,,,,,,,168,,,0.2,9562.319612935884,X,l,go,l,1,0.4788910956121981,,,,,,,,,,,,,,,,,,85,001,24,männlich,Psychologie,2023-01-31_12h08.02.636,00_bat_bachelor,2022.2.4,59.9536358741257,
,,,,,,,,,,,,1,0,1,0,169,0,169,0,,,,,,,169,,,0.2,9563.103616434615,Y,d,go,d,1,0.31905844574794173,,,,,,,,,,,,,,,,,,85,001,24,männlich,Psychologie,2023-01-31_12h08.02.636,00_bat_bachelor,2022.2.4,59.9536358741257,
,,,,,,,,,,,,1,0,1,0,170,0,170,0,,,,,,,170,,,0.2,9563.737284491071,X,l,go,l,1,0.30883493553847075,,,,,,,,,,,,,,,,,,85,001,24,männlich,Psychologie,2023-01-31_12h08.02.636,00_bat_bachelor,2022.2.4,59.9536358741257,
,,,,,,,,,,,,1,0,1,0,171,0,171,0,,,,,,,171,,,0.2,9564.354998130817,X,None,nogo,d,0,0.34752679569646716,,,,,,,,,,,,,,,,,,85,001,24,männlich,Psychologie,2023-01-31_12h08.02.636,00_bat_bachelor,2022.2.4,59.9536358741257,
,,,,,,,,,,,,1,0,1,0,172,0,172,0,,,,,,,172,,,0.2,9565.004938664148,Y,d,go,None,0,,9565.805736336624,,,,,,,,,,,,,,,,,85,001,24,männlich,Psychologie,2023-01-31_12h08.02.636,00_bat_bachelor,2022.2.4,59.9536358741257,
,,,,,,,,,,,,1,0,1,0,173,0,173,0,,,,,,,173,,,0.2,9566.005667391233,X,l,go,l,1,0.441092326072976,,,,,,,,,,,,,,,,,,85,001,24,männlich,Psychologie,2023-01-31_12h08.02.636,00_bat_bachelor,2022.2.4,59.9536358741257,
,,,,,,,,,,,,1,0,1,0,174,0,174,0,,,,,,,174,,,0.2,9566.756419996731,X,None,nogo,None,1,,,,,,,,,,,,,,,,,,,85,001,24,männlich,Psychologie,2023-01-31_12h08.02.636,00_bat_bachelor,2022.2.4,59.9536358741257,
,,,,,,,,,,,,1,0,1,0,175,0,175,0,,,,,,,175,,,0.2,9567.757262662984,Y,d,go,None,0,,,,,,,,,,,,,,,,,,,85,001,24,männlich,Psychologie,2023-01-31_12h08.02.636,00_bat_bachelor,2022.2.4,59.9536358741257,
,,,,,,,,,,,,1,0,1,0,176,0,176,0,,,,,,,176,,,0.2,9568.758080602158,X,l,go,l,1,0.2961803963407874,,,,,,,,,,,,,,,,,,85,001,24,männlich,Psychologie,2023-01-31_12h08.02.636,00_bat_bachelor,2022.2.4,59.9536358741257,
,,,,,,,,,,,,1,0,1,0,177,0,177,0,,,,,,,177,,,0.2,9569.358257765649,Y,d,go,d,1,0.3201125056948513,,,,,,,,,,,,,,,,,,85,001,24,männlich,Psychologie,2023-01-31_12h08.02.636,00_bat_bachelor,2022.2.4,59.9536358741257,
,,,,,,,,,,,,1,0,1,0,178,0,178,0,,,,,,,178,,,0.2,9569.992344731,Y,None,nogo,d,0,0.5345715533476323,,,,,,,,,,,,,,,,,,85,001,24,männlich,Psychologie,2023-01-31_12h08.02.636,00_bat_bachelor,2022.2.4,59.9536358741257,
,,,,,,,,,,,,1,0,1,0,179,0,179,0,,,,,,,179,,,0.2,9570.842783591244,X,l,go,l,1,0.4998287823982537,,,,,,,,,,,,,,,,,,85,001,24,männlich,Psychologie,2023-01-31_12h08.02.636,00_bat_bachelor,2022.2.4,59.9536358741257,
,,,,,,,,,,,,1,0,1,0,180,0,180,0,,,,,,,180,,,0.2,9571.643566718325,Y,d,go,d,1,0.547489850083366,,,,,,,,,,,,,,,,,,85,001,24,männlich,Psychologie,2023-01-31_12h08.02.636,00_bat_bachelor,2022.2.4,59.9536358741257,
,,,,,,,,,,,,1,0,1,0,181,0,181,0,,,,,,,181,,,0.2,9572.493950305972,X,l,go,l,1,0.38455174723640084,,,,,,,,,,,,,,,,,,85,001,24,männlich,Psychologie,2023-01-31_12h08.02.636,00_bat_bachelor,2022.2.4,59.9536358741257,
,,,,,,,,,,,,1,0,1,0,182,0,182,0,,,,,,,182,,,0.2,9573.194868269144,X,None,nogo,None,1,,9573.99508169922,,,,,,,,,,,,,,,,,85,001,24,männlich,Psychologie,2023-01-31_12h08.02.636,00_bat_bachelor,2022.2.4,59.9536358741257,
,,,,,,,,,,,,1,0,1,0,183,0,183,0,,,,,,,183,,,0.2,9574.195462692995,Y,d,go,d,1,0.3312300762627274,,,,,,,,,,,,,,,,,,85,001,24,männlich,Psychologie,2023-01-31_12h08.02.636,00_bat_bachelor,2022.2.4,59.9536358741257,
,,,,,,,,,,,,1,0,1,0,184,0,184,0,,,,,,,184,,,0.2,9574.829349900829,X,l,go,l,1,0.337380861165002,,,,,,,,,,,,,,,,,,85,001,24,männlich,Psychologie,2023-01-31_12h08.02.636,00_bat_bachelor,2022.2.4,59.9536358741257,
,,,,,,,,,,,,1,0,1,0,185,0,185,0,,,,,,,185,,,0.2,9575.479783524992,Y,d,go,None,0,,,,,,,,,,,,,,,,,,,85,001,24,männlich,Psychologie,2023-01-31_12h08.02.636,00_bat_bachelor,2022.2.4,59.9536358741257,
,,,,,,,,,,,,1,0,1,0,186,0,186,0,,,,,,,186,,,0.2,9576.480615524575,Y,None,nogo,d,0,0.33412655955180526,,,,,,,,,,,,,,,,,,85,001,24,männlich,Psychologie,2023-01-31_12h08.02.636,00_bat_bachelor,2022.2.4,59.9536358741257,
,,,,,,,,,,,,1,0,1,0,187,0,187,0,,,,,,,187,,,0.2,9577.130847936496,X,l,go,l,1,0.21161461900919676,,,,,,,,,,,,,,,,,,85,001,24,männlich,Psychologie,2023-01-31_12h08.02.636,00_bat_bachelor,2022.2.4,59.9536358741257,
,,,,,,,,,,,,1,0,1,0,188,0,188,0,,,,,,,188,,,0.2,9577.647911443375,Y,d,go,d,1,0.31859687017276883,,,,,,,,,,,,,,,,,,85,001,24,männlich,Psychologie,2023-01-31_12h08.02.636,00_bat_bachelor,2022.2.4,59.9536358741257,
