loop_instruction.thisRepN,loop_instruction.thisTrialN,loop_instruction.thisN,loop_instruction.thisIndex,loop_rsi_practice.thisRepN,loop_rsi_practice.thisTrialN,loop_rsi_practice.thisN,loop_rsi_practice.thisIndex,loop_practice.thisRepN,loop_practice.thisTrialN,loop_practice.thisN,loop_practice.thisIndex,loop_exp.thisRepN,loop_exp.thisTrialN,loop_exp.thisN,loop_exp.thisIndex,loop_trials.thisRepN,loop_trials.thisTrialN,loop_trials.thisN,loop_trials.thisIndex,map_condition,map_x_key,map_y_key,key_resp_welcome.started,key_resp_welcome.keys,key_resp_welcome.rt,index,text_empty_rsi_practice.started,text_empty_rsi_practice.stopped,rsi,stimulus.started,stimulus,correct,trial_type,key_resp_trial.keys,key_resp_trial.corr,stimulus.stopped,key_resp_trial.rt,key_resp_instruction_rsi.started,key_resp_instruction_rsi.keys,key_resp_instruction_rsi.rt,key_resp_instruction_rsi.stopped,key_resp_instruction_final.started,key_resp_instruction_final.keys,key_resp_instruction_final.rt,key_resp_break.started,key_resp_break.keys,key_resp_break.rt,key_resp_break.stopped,key_resp_end_screen.started,image_end_screen.started,key_resp_end_screen.stopped,image_end_screen.stopped,key_resp_end_screen.keys,participant,session,Alter,Geschlecht (w/m/d/andere),Studiengang,date,expName,psychopyVersion,frameRate,
,,,,0,0,0,0,0,0,0,0,,,,,,,,,0,d,l,169.95253236363715,j,22.53001142424182,0,192.51210424242527,193.52659296969796,1,193.52659296969796,X,d,go,None,0,,,,,,,,,,,,,,,,,,,86,001,26,w,Bsc Psychologie,2023-01-31_13h06.57.721,00_bat_bachelor,2022.2.4,59.77307965404662,
,,,,0,0,0,0,1,0,1,0,,,,,,,,,,,,,,,1,194.92767757575893,195.92849793939422,1,195.92849793939422,Y,l,go,None,0,196.72927466666806,,,,,,,,,,,,,,,,,,86,001,26,w,Bsc Psychologie,2023-01-31_13h06.57.721,00_bat_bachelor,2022.2.4,59.77307965404662,
,,,,0,0,0,0,2,0,2,0,,,,,,,,,,,,,,,2,197.3295161212136,198.33031806060717,1,198.33031806060717,X,d,go,d,1,,0.6129336060603237,,,,,,,,,,,,,,,,,86,001,26,w,Bsc Psychologie,2023-01-31_13h06.57.721,00_bat_bachelor,2022.2.4,59.77307965404662,
,,,,0,0,0,0,3,0,3,0,,,,,,,,,,,,,,,3,199.64799224242597,200.64893187878806,1,200.64893187878806,X,None,nogo,d,0,,0.6457234242425329,,,,,,,,,,,,,,,,,86,001,26,w,Bsc Psychologie,2023-01-31_13h06.57.721,00_bat_bachelor,2022.2.4,59.77307965404662,
,,,,0,0,0,0,4,0,4,0,,,,,,,,,,,,,,,4,202.41627636363773,203.41717333333509,1,203.41717333333509,Y,l,go,d,0,,0.5983066969693027,,,,,,,,,,,,,,,,,86,001,26,w,Bsc Psychologie,2023-01-31_13h06.57.721,00_bat_bachelor,2022.2.4,59.77307965404662,
,,,,0,0,0,0,5,0,5,0,,,,,,,,,,,,,,,5,204.71826472727298,205.71876509090907,1,205.71876509090907,X,d,go,d,1,,0.4085515454535198,,,,,,,,,,,,,,,,,86,001,26,w,Bsc Psychologie,2023-01-31_13h06.57.721,00_bat_bachelor,2022.2.4,59.77307965404662,
,,,,0,0,0,0,6,0,6,0,,,,,,,,,,,,,,,6,206.83651781818298,207.83734206060763,1,207.83734206060763,Y,l,go,l,1,,0.36959203030346544,,,,,,,,,,,,,,,,,86,001,26,w,Bsc Psychologie,2023-01-31_13h06.57.721,00_bat_bachelor,2022.2.4,59.77307965404662,
,,,,0,0,0,0,7,0,7,0,,,,,,,,,,,,,,,7,208.92143466666676,209.9222652121225,1,209.9222652121225,X,d,go,d,1,,0.3497690000003786,,,,,,,,,,,,,,,,,86,001,26,w,Bsc Psychologie,2023-01-31_13h06.57.721,00_bat_bachelor,2022.2.4,59.77307965404662,
,,,,0,0,0,0,8,0,8,0,,,,,,,,,,,,,,,8,210.97270545454558,211.97349575757653,1,211.97349575757653,X,None,nogo,None,1,,,,,,,,,,,,,,,,,,,86,001,26,w,Bsc Psychologie,2023-01-31_13h06.57.721,00_bat_bachelor,2022.2.4,59.77307965404662,
,,,,0,0,0,0,9,0,9,0,,,,,,,,,,,,,,,9,213.37456630303132,214.3758943030316,1,214.3758943030316,Y,l,go,l,1,,0.5351265757581132,,,,,,,,,,,,,,,,,86,001,26,w,Bsc Psychologie,2023-01-31_13h06.57.721,00_bat_bachelor,2022.2.4,59.77307965404662,
,,,,0,0,0,0,10,0,10,0,,,,,,,,,,,,,,,10,215.62665842424394,216.627440969698,1,216.627440969698,X,d,go,d,1,,0.31458645454586076,,,,,,,,,,,,,,,,,86,001,26,w,Bsc Psychologie,2023-01-31_13h06.57.721,00_bat_bachelor,2022.2.4,59.77307965404662,
,,,,0,0,0,0,11,0,11,0,,,,,,,,,,,,,,,11,217.66152969697032,218.66224242424323,1,218.66224242424323,X,None,nogo,d,0,,0.33009966666577384,,,,,,,,,,,,,,,,,86,001,26,w,Bsc Psychologie,2023-01-31_13h06.57.721,00_bat_bachelor,2022.2.4,59.77307965404662,
,,,,0,0,0,0,12,0,12,0,,,,,,,,,,,,,,,12,220.09665309090997,221.09750157575763,1,221.09750157575763,Y,l,go,l,1,,0.4209743333321967,,,,,,,,,,,,,,,,,86,001,26,w,Bsc Psychologie,2023-01-31_13h06.57.721,00_bat_bachelor,2022.2.4,59.77307965404662,
,,,,0,0,0,0,13,0,13,0,,,,,,,,,,,,,,,13,222.2315713939406,223.2320654545456,1,223.2320654545456,X,d,go,d,1,,0.511050454544602,,,,,,,,,,,,,,,,,86,001,26,w,Bsc Psychologie,2023-01-31_13h06.57.721,00_bat_bachelor,2022.2.4,59.77307965404662,
,,,,0,0,0,0,14,0,14,0,,,,,,,,,,,,,,,14,224.4498952727281,225.4510351515164,1,225.4510351515164,Y,l,go,l,1,,0.46798281818155374,,,,,,,,,,,,,,,,,86,001,26,w,Bsc Psychologie,2023-01-31_13h06.57.721,00_bat_bachelor,2022.2.4,59.77307965404662,
,,,,1,0,1,0,0,0,0,0,,,,,,,,,,,,,,,0,245.31583272727403,245.51574690909183,0.2,245.51574690909183,X,d,go,d,1,,0.46703057575723506,226.66096775757615,j,18.637363181818728,,,,,,,,,,,,,,86,001,26,w,Bsc Psychologie,2023-01-31_13h06.57.721,00_bat_bachelor,2022.2.4,59.77307965404662,
,,,,1,0,1,0,1,0,1,0,,,,,,,,,,,,,,,1,246.6836261818189,246.88373187878824,0.2,246.88373187878824,Y,l,go,l,1,,0.36357845454404014,,,,,,,,,,,,,,,,,86,001,26,w,Bsc Psychologie,2023-01-31_13h06.57.721,00_bat_bachelor,2022.2.4,59.77307965404662,
,,,,1,0,1,0,2,0,2,0,,,,,,,,,,,,,,,2,247.95154569697115,248.15140654545576,0.2,248.15140654545576,X,d,go,d,1,,0.3130557878794207,,,,,,,,,,,,,,,,,86,001,26,w,Bsc Psychologie,2023-01-31_13h06.57.721,00_bat_bachelor,2022.2.4,59.77307965404662,
,,,,1,0,1,0,3,0,3,0,,,,,,,,,,,,,,,3,249.1687122424246,249.36901139394104,0.2,249.36901139394104,Y,l,go,l,1,,0.35853360606051865,,,,,,,,,,,,,,,,,86,001,26,w,Bsc Psychologie,2023-01-31_13h06.57.721,00_bat_bachelor,2022.2.4,59.77307965404662,
,,,,1,0,1,0,4,0,4,0,,,,,,,,,,,,,,,4,250.43651490909178,250.63654448484886,0.2,250.63654448484886,Y,None,nogo,None,1,,,,,,,,,,,,,,,,,,,86,001,26,w,Bsc Psychologie,2023-01-31_13h06.57.721,00_bat_bachelor,2022.2.4,59.77307965404662,
,,,,1,0,1,0,5,0,5,0,,,,,,,,,,,,,,,5,252.0377178181825,252.23773333333338,0.2,252.23773333333338,Y,None,nogo,l,0,,0.41774233333308075,,,,,,,,,,,,,,,,,86,001,26,w,Bsc Psychologie,2023-01-31_13h06.57.721,00_bat_bachelor,2022.2.4,59.77307965404662,
,,,,1,0,1,0,6,0,6,0,,,,,,,,,,,,,,,6,253.7723170909103,253.97244218181913,0.2,253.97244218181913,X,d,go,d,1,,0.6501340909089777,,,,,,,,,,,,,,,,,86,001,26,w,Bsc Psychologie,2023-01-31_13h06.57.721,00_bat_bachelor,2022.2.4,59.77307965404662,
,,,,1,0,1,0,7,0,7,0,,,,,,,,,,,,,,,7,255.32358351515177,255.52339539394052,0.2,255.52339539394052,Y,l,go,l,1,,0.4599668181799643,,,,,,,,,,,,,,,,,86,001,26,w,Bsc Psychologie,2023-01-31_13h06.57.721,00_bat_bachelor,2022.2.4,59.77307965404662,
,,,,1,0,1,0,8,0,8,0,,,,,,,,,,,,,,,8,256.69131151515285,256.89119757575827,0.2,256.89119757575827,Y,None,nogo,None,1,257.69202278788,,,,,,,,,,,,,,,,,,86,001,26,w,Bsc Psychologie,2023-01-31_13h06.57.721,00_bat_bachelor,2022.2.4,59.77307965404662,
,,,,1,0,1,0,9,0,9,0,,,,,,,,,,,,,,,9,258.292416969698,258.49302400000124,0.2,258.49302400000124,X,d,go,d,1,,0.3870620909092395,,,,,,,,,,,,,,,,,86,001,26,w,Bsc Psychologie,2023-01-31_13h06.57.721,00_bat_bachelor,2022.2.4,59.77307965404662,
,,,,1,0,1,0,10,0,10,0,,,,,,,,,,,,,,,10,259.59368775757684,259.7939301818187,0.2,259.7939301818187,Y,l,go,l,1,,0.44472754545313364,,,,,,,,,,,,,,,,,86,001,26,w,Bsc Psychologie,2023-01-31_13h06.57.721,00_bat_bachelor,2022.2.4,59.77307965404662,
,,,,1,0,1,0,11,0,11,0,,,,,,,,,,,,,,,11,260.9446564848495,261.14503369697013,0.2,261.14503369697013,X,d,go,d,1,,0.4226984545439336,,,,,,,,,,,,,,,,,86,001,26,w,Bsc Psychologie,2023-01-31_13h06.57.721,00_bat_bachelor,2022.2.4,59.77307965404662,
,,,,1,0,1,0,12,0,12,0,,,,,,,,,,,,,,,12,262.27925963636517,262.47926884848494,0.2,262.47926884848494,X,None,nogo,None,1,263.2798584242428,,,,,,,,,,,,,,,,,,86,001,26,w,Bsc Psychologie,2023-01-31_13h06.57.721,00_bat_bachelor,2022.2.4,59.77307965404662,
,,,,1,0,1,0,13,0,13,0,,,,,,,,,,,,,,,13,263.88046593939544,264.08032630303205,0.2,264.08032630303205,Y,l,go,l,1,,0.430155424242912,,,,,,,,,,,,,,,,,86,001,26,w,Bsc Psychologie,2023-01-31_13h06.57.721,00_bat_bachelor,2022.2.4,59.77307965404662,
,,,,1,0,1,0,14,0,14,0,,,,,,,,,,,,,,,14,265.23140169697035,265.4315214545459,0.2,265.4315214545459,X,d,go,d,1,,0.3911328787871753,,,,,,,,,,,,,,,,,86,001,26,w,Bsc Psychologie,2023-01-31_13h06.57.721,00_bat_bachelor,2022.2.4,59.77307965404662,
,,,,,,,,,,,,,,,,,,,,,,,,,,,,,,,,,,,,,,266.57779393939563,None,,266.57779393939563,266.57779393939563,space,9.905480030301987,,,,,,,,,,86,001,26,w,Bsc Psychologie,2023-01-31_13h06.57.721,00_bat_bachelor,2022.2.4,59.77307965404662,
,,,,,,,,,,,,0,0,0,0,0,0,0,0,,,,,,,0,,,1,277.5071486060606,X,d,go,d,1,,0.28357651515216276,,,,,,,,,,,,,,,,,86,001,26,w,Bsc Psychologie,2023-01-31_13h06.57.721,00_bat_bachelor,2022.2.4,59.77307965404662,
,,,,,,,,,,,,0,0,0,0,1,0,1,0,,,,,,,1,,,1,278.89118593939565,Y,l,go,l,1,,0.5323828181808494,,,,,,,,,,,,,,,,,86,001,26,w,Bsc Psychologie,2023-01-31_13h06.57.721,00_bat_bachelor,2022.2.4,59.77307965404662,
,,,,,,,,,,,,0,0,0,0,2,0,2,0,,,,,,,2,,,1,280.5258690909104,X,d,go,d,1,,0.28957506060578453,,,,,,,,,,,,,,,,,86,001,26,w,Bsc Psychologie,2023-01-31_13h06.57.721,00_bat_bachelor,2022.2.4,59.77307965404662,
,,,,,,,,,,,,0,0,0,0,3,0,3,0,,,,,,,3,,,1,281.9270511515151,X,None,nogo,d,0,,0.45694912121143716,,,,,,,,,,,,,,,,,86,001,26,w,Bsc Psychologie,2023-01-31_13h06.57.721,00_bat_bachelor,2022.2.4,59.77307965404662,
,,,,,,,,,,,,0,0,0,0,4,0,4,0,,,,,,,4,,,1,283.49470884848597,Y,l,go,l,1,,0.48827760606036463,,,,,,,,,,,,,,,,,86,001,26,w,Bsc Psychologie,2023-01-31_13h06.57.721,00_bat_bachelor,2022.2.4,59.77307965404662,
,,,,,,,,,,,,0,0,0,0,5,0,5,0,,,,,,,5,,,1,285.09618569696977,X,d,go,d,1,,0.40733748484854004,,,,,,,,,,,,,,,,,86,001,26,w,Bsc Psychologie,2023-01-31_13h06.57.721,00_bat_bachelor,2022.2.4,59.77307965404662,
,,,,,,,,,,,,0,0,0,0,6,0,6,0,,,,,,,6,,,1,286.6140591515159,Y,l,go,l,1,,0.4729069393924874,,,,,,,,,,,,,,,,,86,001,26,w,Bsc Psychologie,2023-01-31_13h06.57.721,00_bat_bachelor,2022.2.4,59.77307965404662,
,,,,,,,,,,,,0,0,0,0,7,0,7,0,,,,,,,7,,,1,288.1986424242441,X,d,go,d,1,,0.3604986969694437,,,,,,,,,,,,,,,,,86,001,26,w,Bsc Psychologie,2023-01-31_13h06.57.721,00_bat_bachelor,2022.2.4,59.77307965404662,
,,,,,,,,,,,,0,0,0,0,8,0,8,0,,,,,,,8,,,1,289.66608290909244,X,None,nogo,None,1,,,,,,,,,,,,,,,,,,,86,001,26,w,Bsc Psychologie,2023-01-31_13h06.57.721,00_bat_bachelor,2022.2.4,59.77307965404662,
,,,,,,,,,,,,0,0,0,0,9,0,9,0,,,,,,,9,,,1,291.46766690909135,Y,l,go,l,1,,0.38737190908977936,,,,,,,,,,,,,,,,,86,001,26,w,Bsc Psychologie,2023-01-31_13h06.57.721,00_bat_bachelor,2022.2.4,59.77307965404662,
,,,,,,,,,,,,0,0,0,0,10,0,10,0,,,,,,,10,,,1,292.9688921212128,X,d,go,d,1,,0.422863303030681,,,,,,,,,,,,,,,,,86,001,26,w,Bsc Psychologie,2023-01-31_13h06.57.721,00_bat_bachelor,2022.2.4,59.77307965404662,
,,,,,,,,,,,,0,0,0,0,11,0,11,0,,,,,,,11,,,1,294.5034341818191,X,None,nogo,None,1,,,,,,,,,,,,,,,,,,,86,001,26,w,Bsc Psychologie,2023-01-31_13h06.57.721,00_bat_bachelor,2022.2.4,59.77307965404662,
,,,,,,,,,,,,0,0,0,0,12,0,12,0,,,,,,,12,,,1,296.30474424242493,Y,l,go,l,1,,0.38186984848471184,,,,,,,,,,,,,,,,,86,001,26,w,Bsc Psychologie,2023-01-31_13h06.57.721,00_bat_bachelor,2022.2.4,59.77307965404662,
,,,,,,,,,,,,0,0,0,0,13,0,13,0,,,,,,,13,,,1,297.7893396363652,X,d,go,d,1,,0.32141021212009946,,,,,,,,,,,,,,,,,86,001,26,w,Bsc Psychologie,2023-01-31_13h06.57.721,00_bat_bachelor,2022.2.4,59.77307965404662,
,,,,,,,,,,,,0,0,0,0,14,0,14,0,,,,,,,14,,,1,299.2241241212123,Y,l,go,l,1,,0.3438470606051851,,,,,,,,,,,,,,,,,86,001,26,w,Bsc Psychologie,2023-01-31_13h06.57.721,00_bat_bachelor,2022.2.4,59.77307965404662,
,,,,,,,,,,,,0,0,0,0,15,0,15,0,,,,,,,15,,,1,300.6748528484859,Y,None,nogo,None,1,301.4754496969708,,,,,,,,,,,,,,,,,,86,001,26,w,Bsc Psychologie,2023-01-31_13h06.57.721,00_bat_bachelor,2022.2.4,59.77307965404662,
,,,,,,,,,,,,0,0,0,0,16,0,16,0,,,,,,,16,,,1,302.4764193939409,X,d,go,d,1,,0.4022771212112275,,,,,,,,,,,,,,,,,86,001,26,w,Bsc Psychologie,2023-01-31_13h06.57.721,00_bat_bachelor,2022.2.4,59.77307965404662,
,,,,,,,,,,,,0,0,0,0,17,0,17,0,,,,,,,17,,,1,303.993667878789,Y,l,go,l,1,,0.3727488787881157,,,,,,,,,,,,,,,,,86,001,26,w,Bsc Psychologie,2023-01-31_13h06.57.721,00_bat_bachelor,2022.2.4,59.77307965404662,
,,,,,,,,,,,,0,0,0,0,18,0,18,0,,,,,,,18,,,1,305.49499006060614,X,d,go,d,1,,0.2656579696958943,,,,,,,,,,,,,,,,,86,001,26,w,Bsc Psychologie,2023-01-31_13h06.57.721,00_bat_bachelor,2022.2.4,59.77307965404662,
,,,,,,,,,,,,0,0,0,0,19,0,19,0,,,,,,,19,,,1,306.8628305454549,Y,l,go,l,1,,0.3675677878800343,,,,,,,,,,,,,,,,,86,001,26,w,Bsc Psychologie,2023-01-31_13h06.57.721,00_bat_bachelor,2022.2.4,59.77307965404662,
,,,,,,,,,,,,0,0,0,0,20,0,20,0,,,,,,,20,,,1,308.34729357575816,X,d,go,d,1,,0.3879159090902249,,,,,,,,,,,,,,,,,86,001,26,w,Bsc Psychologie,2023-01-31_13h06.57.721,00_bat_bachelor,2022.2.4,59.77307965404662,
,,,,,,,,,,,,0,0,0,0,21,0,21,0,,,,,,,21,,,1,309.8489289696972,Y,l,go,l,1,,0.3098911818178749,,,,,,,,,,,,,,,,,86,001,26,w,Bsc Psychologie,2023-01-31_13h06.57.721,00_bat_bachelor,2022.2.4,59.77307965404662,
,,,,,,,,,,,,0,0,0,0,22,0,22,0,,,,,,,22,,,1,311.283284363637,X,d,go,d,1,,0.4760065757582197,,,,,,,,,,,,,,,,,86,001,26,w,Bsc Psychologie,2023-01-31_13h06.57.721,00_bat_bachelor,2022.2.4,59.77307965404662,
,,,,,,,,,,,,0,0,0,0,23,0,23,0,,,,,,,23,,,1,312.86778278788006,Y,l,go,l,1,,0.3945617272729578,,,,,,,,,,,,,,,,,86,001,26,w,Bsc Psychologie,2023-01-31_13h06.57.721,00_bat_bachelor,2022.2.4,59.77307965404662,
,,,,,,,,,,,,0,0,0,0,24,0,24,0,,,,,,,24,,,1,314.40249406060684,X,d,go,d,1,,0.25126039393944666,,,,,,,,,,,,,,,,,86,001,26,w,Bsc Psychologie,2023-01-31_13h06.57.721,00_bat_bachelor,2022.2.4,59.77307965404662,
,,,,,,,,,,,,0,0,0,0,25,0,25,0,,,,,,,25,,,1,315.7868227878789,X,None,nogo,None,1,316.5877027878796,,,,,,,,,,,,,,,,,,86,001,26,w,Bsc Psychologie,2023-01-31_13h06.57.721,00_bat_bachelor,2022.2.4,59.77307965404662,
,,,,,,,,,,,,0,0,0,0,26,0,26,0,,,,,,,26,,,1,317.5880761212138,Y,l,go,l,1,,0.3620749393940059,,,,,,,,,,,,,,,,,86,001,26,w,Bsc Psychologie,2023-01-31_13h06.57.721,00_bat_bachelor,2022.2.4,59.77307965404662,
,,,,,,,,,,,,0,0,0,0,27,0,27,0,,,,,,,27,,,1,319.0727001212126,X,d,go,d,1,,0.30176172727260564,,,,,,,,,,,,,,,,,86,001,26,w,Bsc Psychologie,2023-01-31_13h06.57.721,00_bat_bachelor,2022.2.4,59.77307965404662,
,,,,,,,,,,,,0,0,0,0,28,0,28,0,,,,,,,28,,,1,320.5069503030318,Y,l,go,l,1,,0.24388875757540518,,,,,,,,,,,,,,,,,86,001,26,w,Bsc Psychologie,2023-01-31_13h06.57.721,00_bat_bachelor,2022.2.4,59.77307965404662,
,,,,,,,,,,,,0,0,0,0,29,0,29,0,,,,,,,29,,,1,321.87469042424345,X,d,go,d,1,,0.17105966666713357,,,,,,,,,,,,,,,,,86,001,26,w,Bsc Psychologie,2023-01-31_13h06.57.721,00_bat_bachelor,2022.2.4,59.77307965404662,
,,,,,,,,,,,,0,0,0,0,30,0,30,0,,,,,,,30,,,1,323.1759510303036,X,None,nogo,d,0,,0.2941297272718657,,,,,,,,,,,,,,,,,86,001,26,w,Bsc Psychologie,2023-01-31_13h06.57.721,00_bat_bachelor,2022.2.4,59.77307965404662,
,,,,,,,,,,,,0,0,0,0,31,0,31,0,,,,,,,31,,,1,324.60999660606103,Y,l,go,d,0,,0.42998087878731894,,,,,,,,,,,,,,,,,86,001,26,w,Bsc Psychologie,2023-01-31_13h06.57.721,00_bat_bachelor,2022.2.4,59.77307965404662,
,,,,,,,,,,,,0,0,0,0,32,0,32,0,,,,,,,32,,,1,326.1444960000008,X,d,go,d,1,,0.3025074242414121,,,,,,,,,,,,,,,,,86,001,26,w,Bsc Psychologie,2023-01-31_13h06.57.721,00_bat_bachelor,2022.2.4,59.77307965404662,
,,,,,,,,,,,,0,0,0,0,33,0,33,0,,,,,,,33,,,1,327.56221866666783,Y,l,go,l,1,,0.37344851515081245,,,,,,,,,,,,,,,,,86,001,26,w,Bsc Psychologie,2023-01-31_13h06.57.721,00_bat_bachelor,2022.2.4,59.77307965404662,
,,,,,,,,,,,,0,0,0,0,34,0,34,0,,,,,,,34,,,1,329.0466647272733,X,d,go,d,1,,0.19940778787895397,,,,,,,,,,,,,,,,,86,001,26,w,Bsc Psychologie,2023-01-31_13h06.57.721,00_bat_bachelor,2022.2.4,59.77307965404662,
,,,,,,,,,,,,0,0,0,0,35,0,35,0,,,,,,,35,,,1,330.3643592727276,Y,l,go,l,1,,0.35546742424230615,,,,,,,,,,,,,,,,,86,001,26,w,Bsc Psychologie,2023-01-31_13h06.57.721,00_bat_bachelor,2022.2.4,59.77307965404662,
,,,,,,,,,,,,0,0,0,0,36,0,36,0,,,,,,,36,,,1,331.83196703030444,X,d,go,d,1,,0.24789166666778328,,,,,,,,,,,,,,,,,86,001,26,w,Bsc Psychologie,2023-01-31_13h06.57.721,00_bat_bachelor,2022.2.4,59.77307965404662,
,,,,,,,,,,,,0,0,0,0,37,0,37,0,,,,,,,37,,,1,333.18279660606095,X,None,nogo,d,0,,0.22466015151439933,,,,,,,,,,,,,,,,,86,001,26,w,Bsc Psychologie,2023-01-31_13h06.57.721,00_bat_bachelor,2022.2.4,59.77307965404662,
,,,,,,,,,,,,0,0,0,0,38,0,38,0,,,,,,,38,,,1,334.5172683636374,Y,l,go,l,1,,0.45809724242462835,,,,,,,,,,,,,,,,,86,001,26,w,Bsc Psychologie,2023-01-31_13h06.57.721,00_bat_bachelor,2022.2.4,59.77307965404662,
,,,,,,,,,,,,0,0,0,0,39,0,39,0,,,,,,,39,,,1,336.0852237575764,X,d,go,d,1,,0.42690451515227323,,,,,,,,,,,,,,,,,86,001,26,w,Bsc Psychologie,2023-01-31_13h06.57.721,00_bat_bachelor,2022.2.4,59.77307965404662,
,,,,,,,,,,,,0,0,0,0,40,0,40,0,,,,,,,40,,,1,337.61955006060634,Y,l,go,l,1,,0.2679416060600488,,,,,,,,,,,,,,,,,86,001,26,w,Bsc Psychologie,2023-01-31_13h06.57.721,00_bat_bachelor,2022.2.4,59.77307965404662,
,,,,,,,,,,,,0,0,0,0,41,0,41,0,,,,,,,41,,,1,339.0041202424254,X,d,go,d,1,,0.21213457575868233,,,,,,,,,,,,,,,,,86,001,26,w,Bsc Psychologie,2023-01-31_13h06.57.721,00_bat_bachelor,2022.2.4,59.77307965404662,
,,,,,,,,,,,,0,0,0,0,42,0,42,0,,,,,,,42,,,1,340.3217343030319,X,None,nogo,d,0,,0.2687828181806253,,,,,,,,,,,,,,,,,86,001,26,w,Bsc Psychologie,2023-01-31_13h06.57.721,00_bat_bachelor,2022.2.4,59.77307965404662,
,,,,,,,,,,,,0,0,0,0,43,0,43,0,,,,,,,43,,,1,341.7061503030309,X,None,nogo,None,1,342.5067733333344,,,,,,,,,,,,,,,,,,86,001,26,w,Bsc Psychologie,2023-01-31_13h06.57.721,00_bat_bachelor,2022.2.4,59.77307965404662,
,,,,,,,,,,,,0,0,0,0,44,0,44,0,,,,,,,44,,,1,343.5075684848489,Y,l,go,l,1,,0.26759639393822,,,,,,,,,,,,,,,,,86,001,26,w,Bsc Psychologie,2023-01-31_13h06.57.721,00_bat_bachelor,2022.2.4,59.77307965404662,
,,,,,,,,,,,,0,0,0,0,45,0,45,0,,,,,,,45,,,1,344.89192581818315,X,d,go,d,1,,0.48396633333322825,,,,,,,,,,,,,,,,,86,001,26,w,Bsc Psychologie,2023-01-31_13h06.57.721,00_bat_bachelor,2022.2.4,59.77307965404662,
,,,,,,,,,,,,0,0,0,0,46,0,46,0,,,,,,,46,,,1,346.4763107878789,Y,l,go,l,1,,0.3547784545462491,,,,,,,,,,,,,,,,,86,001,26,w,Bsc Psychologie,2023-01-31_13h06.57.721,00_bat_bachelor,2022.2.4,59.77307965404662,
,,,,,,,,,,,,0,0,0,0,47,0,47,0,,,,,,,47,,,1,347.9442341818194,X,d,go,d,1,,0.2629006363622466,,,,,,,,,,,,,,,,,86,001,26,w,Bsc Psychologie,2023-01-31_13h06.57.721,00_bat_bachelor,2022.2.4,59.77307965404662,
,,,,,,,,,,,,0,0,0,0,48,0,48,0,,,,,,,48,,,1,349.31192436363744,Y,l,go,l,1,,0.4154931212124211,,,,,,,,,,,,,,,,,86,001,26,w,Bsc Psychologie,2023-01-31_13h06.57.721,00_bat_bachelor,2022.2.4,59.77307965404662,
,,,,,,,,,,,,0,0,0,0,49,0,49,0,,,,,,,49,,,1,350.82977793939426,X,d,go,d,1,,0.21055154545501864,,,,,,,,,,,,,,,,,86,001,26,w,Bsc Psychologie,2023-01-31_13h06.57.721,00_bat_bachelor,2022.2.4,59.77307965404662,
,,,,,,,,,,,,0,0,0,0,50,0,50,0,,,,,,,50,,,1,352.147429818182,Y,l,go,l,1,,0.34759542424217216,,,,,,,,,,,,,,,,,86,001,26,w,Bsc Psychologie,2023-01-31_13h06.57.721,00_bat_bachelor,2022.2.4,59.77307965404662,
,,,,,,,,,,,,0,0,0,0,51,0,51,0,,,,,,,51,,,1,353.5985129696983,Y,None,nogo,None,1,354.3989575757587,,,,,,,,,,,,,,,,,,86,001,26,w,Bsc Psychologie,2023-01-31_13h06.57.721,00_bat_bachelor,2022.2.4,59.77307965404662,
,,,,,,,,,,,,0,0,0,0,52,0,52,0,,,,,,,52,,,1,355.39974593939405,X,d,go,d,1,,0.32828051515207335,,,,,,,,,,,,,,,,,86,001,26,w,Bsc Psychologie,2023-01-31_13h06.57.721,00_bat_bachelor,2022.2.4,59.77307965404662,
,,,,,,,,,,,,0,0,0,0,53,0,53,0,,,,,,,53,,,1,356.8341415757586,Y,l,go,l,1,,0.44586403030189103,,,,,,,,,,,,,,,,,86,001,26,w,Bsc Psychologie,2023-01-31_13h06.57.721,00_bat_bachelor,2022.2.4,59.77307965404662,
,,,,,,,,,,,,0,0,0,0,54,0,54,0,,,,,,,54,,,1,358.385681939395,X,d,go,d,1,,0.2699120303022937,,,,,,,,,,,,,,,,,86,001,26,w,Bsc Psychologie,2023-01-31_13h06.57.721,00_bat_bachelor,2022.2.4,59.77307965404662,
,,,,,,,,,,,,0,0,0,0,55,0,55,0,,,,,,,55,,,1,359.7699374545464,Y,l,go,l,1,,0.3570640303041728,,,,,,,,,,,,,,,,,86,001,26,w,Bsc Psychologie,2023-01-31_13h06.57.721,00_bat_bachelor,2022.2.4,59.77307965404662,
,,,,,,,,,,,,0,0,0,0,56,0,56,0,,,,,,,56,,,1,361.23749624242555,Y,None,nogo,None,1,362.0381187878793,,,,,,,,,,,,,,,,,,86,001,26,w,Bsc Psychologie,2023-01-31_13h06.57.721,00_bat_bachelor,2022.2.4,59.77307965404662,
,,,,,,,,,,,,0,0,0,0,57,0,57,0,,,,,,,57,,,1,363.0391170909097,X,d,go,d,1,,0.3194203939401632,,,,,,,,,,,,,,,,,86,001,26,w,Bsc Psychologie,2023-01-31_13h06.57.721,00_bat_bachelor,2022.2.4,59.77307965404662,
,,,,,,,,,,,,0,0,0,0,58,0,58,0,,,,,,,58,,,1,364.4735054545472,Y,l,go,l,1,,0.27817724242413533,,,,,,,,,,,,,,,,,86,001,26,w,Bsc Psychologie,2023-01-31_13h06.57.721,00_bat_bachelor,2022.2.4,59.77307965404662,
,,,,,,,,,,,,0,0,0,0,59,0,59,0,,,,,,,59,,,1,365.85791612121284,Y,None,nogo,None,1,366.658322909092,,,,,,,,,,,,,,,,,,86,001,26,w,Bsc Psychologie,2023-01-31_13h06.57.721,00_bat_bachelor,2022.2.4,59.77307965404662,
,,,,,,,,,,,,0,0,0,0,60,0,60,0,,,,,,,60,,,1,367.65927369697056,X,d,go,d,1,,0.2125340909096849,,,,,,,,,,,,,,,,,86,001,26,w,Bsc Psychologie,2023-01-31_13h06.57.721,00_bat_bachelor,2022.2.4,59.77307965404662,
,,,,,,,,,,,,0,0,0,0,61,0,61,0,,,,,,,61,,,1,368.9769454545458,Y,l,go,l,1,,0.2854165151511552,,,,,,,,,,,,,,,,,86,001,26,w,Bsc Psychologie,2023-01-31_13h06.57.721,00_bat_bachelor,2022.2.4,59.77307965404662,
,,,,,,,,,,,,0,0,0,0,62,0,62,0,,,,,,,62,,,1,370.37799854545483,Y,None,nogo,None,1,371.1784334545464,,,,,,,,,,,,,,,,,,86,001,26,w,Bsc Psychologie,2023-01-31_13h06.57.721,00_bat_bachelor,2022.2.4,59.77307965404662,
,,,,,,,,,,,,0,0,0,0,63,0,63,0,,,,,,,63,,,1,372.17940799999997,X,d,go,d,1,,0.39590621212119004,,,,,,,,,,,,,,,,,86,001,26,w,Bsc Psychologie,2023-01-31_13h06.57.721,00_bat_bachelor,2022.2.4,59.77307965404662,
,,,,,,,,,,,,0,0,0,0,64,0,64,0,,,,,,,64,,,1,373.68050957575906,Y,l,go,l,1,,0.35011227272661927,,,,,,,,,,,,,,,,,86,001,26,w,Bsc Psychologie,2023-01-31_13h06.57.721,00_bat_bachelor,2022.2.4,59.77307965404662,
,,,,,,,,,,,,0,0,0,0,65,0,65,0,,,,,,,65,,,1,375.13174545454604,Y,None,nogo,l,0,,0.3076555454535992,,,,,,,,,,,,,,,,,86,001,26,w,Bsc Psychologie,2023-01-31_13h06.57.721,00_bat_bachelor,2022.2.4,59.77307965404662,
,,,,,,,,,,,,0,0,0,0,66,0,66,0,,,,,,,66,,,1,376.54933575757605,X,d,go,d,1,,0.2982179696973617,,,,,,,,,,,,,,,,,86,001,26,w,Bsc Psychologie,2023-01-31_13h06.57.721,00_bat_bachelor,2022.2.4,59.77307965404662,
,,,,,,,,,,,,0,0,0,0,67,0,67,0,,,,,,,67,,,1,377.95026472727295,Y,l,go,l,1,,0.33649336363669136,,,,,,,,,,,,,,,,,86,001,26,w,Bsc Psychologie,2023-01-31_13h06.57.721,00_bat_bachelor,2022.2.4,59.77307965404662,
,,,,,,,,,,,,0,0,0,0,68,0,68,0,,,,,,,68,,,1,379.40149915151596,X,d,go,d,1,,0.38933457575694774,,,,,,,,,,,,,,,,,86,001,26,w,Bsc Psychologie,2023-01-31_13h06.57.721,00_bat_bachelor,2022.2.4,59.77307965404662,
,,,,,,,,,,,,0,0,0,0,69,0,69,0,,,,,,,69,,,1,380.9025566060609,X,None,nogo,None,1,,,,,,,,,,,,,,,,,,,86,001,26,w,Bsc Psychologie,2023-01-31_13h06.57.721,00_bat_bachelor,2022.2.4,59.77307965404662,
,,,,,,,,,,,,0,0,0,0,70,0,70,0,,,,,,,70,,,1,382.7041769696971,Y,l,go,l,1,,0.3989525151500857,,,,,,,,,,,,,,,,,86,001,26,w,Bsc Psychologie,2023-01-31_13h06.57.721,00_bat_bachelor,2022.2.4,59.77307965404662,
,,,,,,,,,,,,0,0,0,0,71,0,71,0,,,,,,,71,,,1,384.22201987878907,X,d,go,d,1,,0.3043910606065765,,,,,,,,,,,,,,,,,86,001,26,w,Bsc Psychologie,2023-01-31_13h06.57.721,00_bat_bachelor,2022.2.4,59.77307965404662,
,,,,,,,,,,,,0,0,0,0,72,0,72,0,,,,,,,72,,,1,385.6395806060609,Y,l,go,l,1,,0.45597506060585147,,,,,,,,,,,,,,,,,86,001,26,w,Bsc Psychologie,2023-01-31_13h06.57.721,00_bat_bachelor,2022.2.4,59.77307965404662,
,,,,,,,,,,,,0,0,0,0,73,0,73,0,,,,,,,73,,,1,387.2075166060622,X,d,go,d,1,,0.27964924242405687,,,,,,,,,,,,,,,,,86,001,26,w,Bsc Psychologie,2023-01-31_13h06.57.721,00_bat_bachelor,2022.2.4,59.77307965404662,
,,,,,,,,,,,,0,0,0,0,74,0,74,0,,,,,,,74,,,1,388.5916955151515,X,None,nogo,d,0,,0.47969093939354934,,,,,,,,,,,,,,,,,86,001,26,w,Bsc Psychologie,2023-01-31_13h06.57.721,00_bat_bachelor,2022.2.4,59.77307965404662,
,,,,,,,,,,,,0,0,0,0,75,0,75,0,,,,,,,75,,,1,390.1764654545459,Y,l,go,l,1,,0.3991794242410833,,,,,,,,,,,,,,,,,86,001,26,w,Bsc Psychologie,2023-01-31_13h06.57.721,00_bat_bachelor,2022.2.4,59.77307965404662,
,,,,,,,,,,,,0,0,0,0,76,0,76,0,,,,,,,76,,,1,391.677591757576,X,d,go,d,1,,0.4504676666656451,,,,,,,,,,,,,,,,,86,001,26,w,Bsc Psychologie,2023-01-31_13h06.57.721,00_bat_bachelor,2022.2.4,59.77307965404662,
,,,,,,,,,,,,0,0,0,0,77,0,77,0,,,,,,,77,,,1,393.2287849696986,Y,l,go,l,1,,0.41788875757629285,,,,,,,,,,,,,,,,,86,001,26,w,Bsc Psychologie,2023-01-31_13h06.57.721,00_bat_bachelor,2022.2.4,59.77307965404662,
,,,,,,,,,,,,0,0,0,0,78,0,78,0,,,,,,,78,,,1,394.76305260606205,X,d,go,d,1,,0.40464948484805063,,,,,,,,,,,,,,,,,86,001,26,w,Bsc Psychologie,2023-01-31_13h06.57.721,00_bat_bachelor,2022.2.4,59.77307965404662,
,,,,,,,,,,,,0,0,0,0,79,0,79,0,,,,,,,79,,,1,396.2809503030312,Y,l,go,l,1,,0.4062591818164947,,,,,,,,,,,,,,,,,86,001,26,w,Bsc Psychologie,2023-01-31_13h06.57.721,00_bat_bachelor,2022.2.4,59.77307965404662,
,,,,,,,,,,,,0,0,0,0,80,0,80,0,,,,,,,80,,,1,397.7987379393944,Y,None,nogo,None,1,398.59932896969804,,,,,,,,,,,,,,,,,,86,001,26,w,Bsc Psychologie,2023-01-31_13h06.57.721,00_bat_bachelor,2022.2.4,59.77307965404662,
,,,,,,,,,,,,0,0,0,0,81,0,81,0,,,,,,,81,,,1,399.6000863030313,X,d,go,d,1,,0.3504041515152494,,,,,,,,,,,,,,,,,86,001,26,w,Bsc Psychologie,2023-01-31_13h06.57.721,00_bat_bachelor,2022.2.4,59.77307965404662,
,,,,,,,,,,,,0,0,0,0,82,0,82,0,,,,,,,82,,,1,401.0512872727286,Y,l,go,l,1,,0.2919474242407887,,,,,,,,,,,,,,,,,86,001,26,w,Bsc Psychologie,2023-01-31_13h06.57.721,00_bat_bachelor,2022.2.4,59.77307965404662,
,,,,,,,,,,,,0,0,0,0,83,0,83,0,,,,,,,83,,,1,402.45245818181866,X,d,go,d,1,,0.29874063636270876,,,,,,,,,,,,,,,,,86,001,26,w,Bsc Psychologie,2023-01-31_13h06.57.721,00_bat_bachelor,2022.2.4,59.77307965404662,
,,,,,,,,,,,,0,0,0,0,84,0,84,0,,,,,,,84,,,1,403.8706210909095,X,None,nogo,None,1,404.6715864242433,,,,,,,,,,,,,,,,,,86,001,26,w,Bsc Psychologie,2023-01-31_13h06.57.721,00_bat_bachelor,2022.2.4,59.77307965404662,
,,,,,,,,,,,,0,0,0,0,85,0,85,0,,,,,,,85,,,1,405.67190787878826,Y,l,go,l,1,,0.3263222121204308,,,,,,,,,,,,,,,,,86,001,26,w,Bsc Psychologie,2023-01-31_13h06.57.721,00_bat_bachelor,2022.2.4,59.77307965404662,
,,,,,,,,,,,,0,0,0,0,86,0,86,0,,,,,,,86,,,1,407.10632193939455,X,d,go,d,1,,0.38010015151485277,,,,,,,,,,,,,,,,,86,001,26,w,Bsc Psychologie,2023-01-31_13h06.57.721,00_bat_bachelor,2022.2.4,59.77307965404662,
,,,,,,,,,,,,0,0,0,0,87,0,87,0,,,,,,,87,,,1,408.6077134545467,Y,l,go,l,1,,0.2706746969706728,,,,,,,,,,,,,,,,,86,001,26,w,Bsc Psychologie,2023-01-31_13h06.57.721,00_bat_bachelor,2022.2.4,59.77307965404662,
,,,,,,,,,,,,0,0,0,0,88,0,88,0,,,,,,,88,,,1,410.0086172121228,Y,None,nogo,None,1,410.80952387878824,,,,,,,,,,,,,,,,,,86,001,26,w,Bsc Psychologie,2023-01-31_13h06.57.721,00_bat_bachelor,2022.2.4,59.77307965404662,
,,,,,,,,,,,,0,0,0,0,89,0,89,0,,,,,,,89,,,1,411.8101658181822,X,d,go,d,1,,0.2677767575751204,,,,,,,,,,,,,,,,,86,001,26,w,Bsc Psychologie,2023-01-31_13h06.57.721,00_bat_bachelor,2022.2.4,59.77307965404662,
,,,,,,,,,,,,0,0,0,0,90,0,90,0,,,,,,,90,,,1,413.21123878787876,Y,l,go,l,1,,0.3234431818182202,,,,,,,,,,,,,,,,,86,001,26,w,Bsc Psychologie,2023-01-31_13h06.57.721,00_bat_bachelor,2022.2.4,59.77307965404662,
,,,,,,,,,,,,0,0,0,0,91,0,91,0,,,,,,,91,,,1,414.6788213333348,X,d,go,d,1,,0.4245496060593723,,,,,,,,,,,,,,,,,86,001,26,w,Bsc Psychologie,2023-01-31_13h06.57.721,00_bat_bachelor,2022.2.4,59.77307965404662,
,,,,,,,,,,,,0,0,0,0,92,0,92,0,,,,,,,92,,,1,416.21351224242426,Y,l,go,l,1,,0.34569045454554725,,,,,,,,,,,,,,,,,86,001,26,w,Bsc Psychologie,2023-01-31_13h06.57.721,00_bat_bachelor,2022.2.4,59.77307965404662,
,,,,,,,,,,,,0,0,0,0,93,0,93,0,,,,,,,93,,,1,417.68114957575926,Y,None,nogo,None,1,418.4815384242429,,,,,,,,,,,,,,,,,,86,001,26,w,Bsc Psychologie,2023-01-31_13h06.57.721,00_bat_bachelor,2022.2.4,59.77307965404662,
,,,,,,,,,,,,0,0,0,0,94,0,94,0,,,,,,,94,,,1,419.48231563636364,X,d,go,d,1,,0.21241481818105967,,,,,,,,,,,,,,,,,86,001,26,w,Bsc Psychologie,2023-01-31_13h06.57.721,00_bat_bachelor,2022.2.4,59.77307965404662,
,,,,,,,,,,,,0,0,0,0,95,0,95,0,,,,,,,95,,,1,420.80031030303144,Y,l,go,None,0,421.6007830303042,,,,,,,,,,,,,,,,,,86,001,26,w,Bsc Psychologie,2023-01-31_13h06.57.721,00_bat_bachelor,2022.2.4,59.77307965404662,
,,,,,,,,,,,,0,0,0,0,96,0,96,0,,,,,,,96,,,1,422.60129551515274,X,d,go,d,1,,0.2774940909093857,,,,,,,,,,,,,,,,,86,001,26,w,Bsc Psychologie,2023-01-31_13h06.57.721,00_bat_bachelor,2022.2.4,59.77307965404662,
,,,,,,,,,,,,0,0,0,0,97,0,97,0,,,,,,,97,,,1,423.9859248484863,X,None,nogo,l,0,,0.15591542424226645,,,,,,,,,,,,,,,,,86,001,26,w,Bsc Psychologie,2023-01-31_13h06.57.721,00_bat_bachelor,2022.2.4,59.77307965404662,
,,,,,,,,,,,,0,0,0,0,98,0,98,0,,,,,,,98,,,1,425.27005381818344,Y,l,go,l,1,,0.48927493939299893,,,,,,,,,,,,,,,,,86,001,26,w,Bsc Psychologie,2023-01-31_13h06.57.721,00_bat_bachelor,2022.2.4,59.77307965404662,
,,,,,,,,,,,,0,0,0,0,99,0,99,0,,,,,,,99,,,1,426.8714676363652,X,d,go,d,1,,0.47195421212200017,,,,,,,,,,,,,,,,,86,001,26,w,Bsc Psychologie,2023-01-31_13h06.57.721,00_bat_bachelor,2022.2.4,59.77307965404662,
,,,,,,,,,,,,0,0,0,0,100,0,100,0,,,,,,,100,,,1,428.45594521212297,Y,l,go,l,1,,0.3748162727260933,,,,,,,,,,,,,,,,,86,001,26,w,Bsc Psychologie,2023-01-31_13h06.57.721,00_bat_bachelor,2022.2.4,59.77307965404662,
,,,,,,,,,,,,0,0,0,0,101,0,101,0,,,,,,,101,,,1,429.9402821818185,Y,None,nogo,None,1,430.74122375757725,,,,,,,,,,,,,,,,,,86,001,26,w,Bsc Psychologie,2023-01-31_13h06.57.721,00_bat_bachelor,2022.2.4,59.77307965404662,
,,,,,,,,,,,,0,0,0,0,102,0,102,0,,,,,,,102,,,1,431.7419670303043,X,d,go,d,1,,0.36907760605936346,,,,,,,,,,,,,,,,,86,001,26,w,Bsc Psychologie,2023-01-31_13h06.57.721,00_bat_bachelor,2022.2.4,59.77307965404662,
,,,,,,,,,,,,0,0,0,0,103,0,103,0,,,,,,,103,,,1,433.22638109090985,Y,l,go,l,1,,0.24443906060514564,,,,,,,,,,,,,,,,,86,001,26,w,Bsc Psychologie,2023-01-31_13h06.57.721,00_bat_bachelor,2022.2.4,59.77307965404662,
,,,,,,,,,,,,0,0,0,0,104,0,104,0,,,,,,,104,,,1,434.5773483636367,X,d,go,d,1,,0.33279493939335225,,,,,,,,,,,,,,,,,86,001,26,w,Bsc Psychologie,2023-01-31_13h06.57.721,00_bat_bachelor,2022.2.4,59.77307965404662,
,,,,,,,,,,,,0,0,0,0,105,0,105,0,,,,,,,105,,,1,436.0284770909093,Y,l,go,l,1,,0.3377214848478616,,,,,,,,,,,,,,,,,86,001,26,w,Bsc Psychologie,2023-01-31_13h06.57.721,00_bat_bachelor,2022.2.4,59.77307965404662,
,,,,,,,,,,,,0,0,0,0,106,0,106,0,,,,,,,106,,,1,437.4962477575773,X,d,go,d,1,,0.24663300000065647,,,,,,,,,,,,,,,,,86,001,26,w,Bsc Psychologie,2023-01-31_13h06.57.721,00_bat_bachelor,2022.2.4,59.77307965404662,
,,,,,,,,,,,,0,0,0,0,107,0,107,0,,,,,,,107,,,1,438.8471573333336,Y,l,go,l,1,,0.20823009090781852,,,,,,,,,,,,,,,,,86,001,26,w,Bsc Psychologie,2023-01-31_13h06.57.721,00_bat_bachelor,2022.2.4,59.77307965404662,
,,,,,,,,,,,,0,0,0,0,108,0,108,0,,,,,,,108,,,1,440.1649585454561,X,d,go,d,1,,0.15343009090793203,,,,,,,,,,,,,,,,,86,001,26,w,Bsc Psychologie,2023-01-31_13h06.57.721,00_bat_bachelor,2022.2.4,59.77307965404662,
,,,,,,,,,,,,0,0,0,0,109,0,109,0,,,,,,,109,,,1,441.44901818181825,Y,l,go,l,1,,0.32585239394029486,,,,,,,,,,,,,,,,,86,001,26,w,Bsc Psychologie,2023-01-31_13h06.57.721,00_bat_bachelor,2022.2.4,59.77307965404662,
,,,,,,,,,,,,0,0,0,0,110,0,110,0,,,,,,,110,,,1,442.8835665454553,X,d,go,d,1,,0.3626645151525736,,,,,,,,,,,,,,,,,86,001,26,w,Bsc Psychologie,2023-01-31_13h06.57.721,00_bat_bachelor,2022.2.4,59.77307965404662,
,,,,,,,,,,,,0,0,0,0,111,0,111,0,,,,,,,111,,,1,444.36792387878813,Y,l,go,l,1,,0.3350286363638588,,,,,,,,,,,,,,,,,86,001,26,w,Bsc Psychologie,2023-01-31_13h06.57.721,00_bat_bachelor,2022.2.4,59.77307965404662,
,,,,,,,,,,,,0,0,0,0,112,0,112,0,,,,,,,112,,,1,445.8192543030309,X,d,go,d,1,,0.24371130303006794,,,,,,,,,,,,,,,,,86,001,26,w,Bsc Psychologie,2023-01-31_13h06.57.721,00_bat_bachelor,2022.2.4,59.77307965404662,
,,,,,,,,,,,,0,0,0,0,113,0,113,0,,,,,,,113,,,1,447.17026181818255,Y,l,go,l,1,,0.2199857272735244,,,,,,,,,,,,,,,,,86,001,26,w,Bsc Psychologie,2023-01-31_13h06.57.721,00_bat_bachelor,2022.2.4,59.77307965404662,
,,,,,,,,,,,,0,0,0,0,114,0,114,0,,,,,,,114,,,1,448.5210884848493,X,d,go,d,1,,0.29389845454534225,,,,,,,,,,,,,,,,,86,001,26,w,Bsc Psychologie,2023-01-31_13h06.57.721,00_bat_bachelor,2022.2.4,59.77307965404662,
,,,,,,,,,,,,0,0,0,0,115,0,115,0,,,,,,,115,,,1,449.92221042424353,X,None,nogo,l,0,,0.2689360303029389,,,,,,,,,,,,,,,,,86,001,26,w,Bsc Psychologie,2023-01-31_13h06.57.721,00_bat_bachelor,2022.2.4,59.77307965404662,
,,,,,,,,,,,,0,0,0,0,116,0,116,0,,,,,,,116,,,1,451.30629478787887,Y,l,go,l,1,,0.29229069696884835,,,,,,,,,,,,,,,,,86,001,26,w,Bsc Psychologie,2023-01-31_13h06.57.721,00_bat_bachelor,2022.2.4,59.77307965404662,
,,,,,,,,,,,,0,0,0,0,117,0,117,0,,,,,,,117,,,1,452.70737793939406,X,d,go,d,1,,0.20360706060455414,,,,,,,,,,,,,,,,,86,001,26,w,Bsc Psychologie,2023-01-31_13h06.57.721,00_bat_bachelor,2022.2.4,59.77307965404662,
,,,,,,,,,,,,0,0,0,0,118,0,118,0,,,,,,,118,,,1,454.0246787878805,Y,l,go,l,1,,0.35816512121164124,,,,,,,,,,,,,,,,,86,001,26,w,Bsc Psychologie,2023-01-31_13h06.57.721,00_bat_bachelor,2022.2.4,59.77307965404662,
,,,,,,,,,,,,0,0,0,0,119,0,119,0,,,,,,,119,,,1,455.49271709091045,Y,None,nogo,d,0,,0.17111881818163965,,,,,,,,,,,,,,,,,86,001,26,w,Bsc Psychologie,2023-01-31_13h06.57.721,00_bat_bachelor,2022.2.4,59.77307965404662,
,,,,,,,,,,,,0,0,0,0,120,0,120,0,,,,,,,120,,,1,456.77705406060704,X,d,go,d,1,,0.2303614848478901,,,,,,,,,,,,,,,,,86,001,26,w,Bsc Psychologie,2023-01-31_13h06.57.721,00_bat_bachelor,2022.2.4,59.77307965404662,
,,,,,,,,,,,,0,0,0,0,121,0,121,0,,,,,,,121,,,1,458.111506909092,Y,l,go,l,1,,0.3673486363622942,,,,,,,,,,,,,,,,,86,001,26,w,Bsc Psychologie,2023-01-31_13h06.57.721,00_bat_bachelor,2022.2.4,59.77307965404662,
,,,,,,,,,,,,0,0,0,0,122,0,122,0,,,,,,,122,,,1,459.5792838787893,X,d,go,d,1,,0.3401786969679961,,,,,,,,,,,,,,,,,86,001,26,w,Bsc Psychologie,2023-01-31_13h06.57.721,00_bat_bachelor,2022.2.4,59.77307965404662,
,,,,,,,,,,,,0,0,0,0,123,0,123,0,,,,,,,123,,,1,461.03038206060774,X,None,nogo,d,0,,0.5690446363641968,,,,,,,,,,,,,,,,,86,001,26,w,Bsc Psychologie,2023-01-31_13h06.57.721,00_bat_bachelor,2022.2.4,59.77307965404662,
,,,,,,,,,,,,0,0,0,0,124,0,124,0,,,,,,,124,,,1,462.71498666666776,Y,l,go,l,1,,0.3565932424244238,,,,,,,,,,,,,,,,,86,001,26,w,Bsc Psychologie,2023-01-31_13h06.57.721,00_bat_bachelor,2022.2.4,59.77307965404662,
,,,,,,,,,,,,0,0,0,0,125,0,125,0,,,,,,,125,,,1,464.18279709091075,X,d,go,d,1,,0.2973728787874279,,,,,,,,,,,,,,,,,86,001,26,w,Bsc Psychologie,2023-01-31_13h06.57.721,00_bat_bachelor,2022.2.4,59.77307965404662,
,,,,,,,,,,,,0,0,0,0,126,0,126,0,,,,,,,126,,,1,465.5835219393939,Y,l,go,l,1,,0.5759668181817688,,,,,,,,,,,,,,,,,86,001,26,w,Bsc Psychologie,2023-01-31_13h06.57.721,00_bat_bachelor,2022.2.4,59.77307965404662,
,,,,,,,,,,,,0,0,0,0,127,0,127,0,,,,,,,127,,,1,467.26845963636515,Y,None,nogo,None,1,,,,,,,,,,,,,,,,,,,86,001,26,w,Bsc Psychologie,2023-01-31_13h06.57.721,00_bat_bachelor,2022.2.4,59.77307965404662,
,,,,,,,,,,,,0,0,0,0,128,0,128,0,,,,,,,128,,,1,469.0698550303041,X,d,go,d,1,,0.2577689999998256,,,,,,,,,,,,,,,,,86,001,26,w,Bsc Psychologie,2023-01-31_13h06.57.721,00_bat_bachelor,2022.2.4,59.77307965404662,
,,,,,,,,,,,,0,0,0,0,129,0,129,0,,,,,,,129,,,1,470.43736387878926,Y,l,go,l,1,,0.37861700000030396,,,,,,,,,,,,,,,,,86,001,26,w,Bsc Psychologie,2023-01-31_13h06.57.721,00_bat_bachelor,2022.2.4,59.77307965404662,
,,,,,,,,,,,,0,0,0,0,130,0,130,0,,,,,,,130,,,1,471.9220271515169,X,d,go,d,1,,0.4145273030298995,,,,,,,,,,,,,,,,,86,001,26,w,Bsc Psychologie,2023-01-31_13h06.57.721,00_bat_bachelor,2022.2.4,59.77307965404662,
,,,,,,,,,,,,0,0,0,0,131,0,131,0,,,,,,,131,,,1,473.4397197575763,X,None,nogo,d,0,,0.5120826969705377,,,,,,,,,,,,,,,,,86,001,26,w,Bsc Psychologie,2023-01-31_13h06.57.721,00_bat_bachelor,2022.2.4,59.77307965404662,
,,,,,,,,,,,,0,0,0,0,132,0,132,0,,,,,,,132,,,1,475.0577522424246,Y,l,go,l,1,,0.23767493939340056,,,,,,,,,,,,,,,,,86,001,26,w,Bsc Psychologie,2023-01-31_13h06.57.721,00_bat_bachelor,2022.2.4,59.77307965404662,
,,,,,,,,,,,,0,0,0,0,133,0,133,0,,,,,,,133,,,1,476.40876024242425,X,d,go,d,1,,0.24699809090816416,,,,,,,,,,,,,,,,,86,001,26,w,Bsc Psychologie,2023-01-31_13h06.57.721,00_bat_bachelor,2022.2.4,59.77307965404662,
,,,,,,,,,,,,0,0,0,0,134,0,134,0,,,,,,,134,,,1,477.75963151515316,Y,l,go,l,1,,0.3355765151518426,,,,,,,,,,,,,,,,,86,001,26,w,Bsc Psychologie,2023-01-31_13h06.57.721,00_bat_bachelor,2022.2.4,59.77307965404662,
,,,,,,,,,,,,0,0,0,0,135,0,135,0,,,,,,,135,,,1,479.2108499393944,Y,None,nogo,None,1,,,,,,,,,,,,,,,,,,,86,001,26,w,Bsc Psychologie,2023-01-31_13h06.57.721,00_bat_bachelor,2022.2.4,59.77307965404662,
,,,,,,,,,,,,0,0,0,0,136,0,136,0,,,,,,,136,,,1,481.0123282424247,X,d,go,d,1,,0.3789854848491814,,,,,,,,,,,,,,,,,86,001,26,w,Bsc Psychologie,2023-01-31_13h06.57.721,00_bat_bachelor,2022.2.4,59.77307965404662,
,,,,,,,,,,,,0,0,0,0,137,0,137,0,,,,,,,137,,,1,482.4963980606062,Y,l,go,l,1,,0.49516827272782393,,,,,,,,,,,,,,,,,86,001,26,w,Bsc Psychologie,2023-01-31_13h06.57.721,00_bat_bachelor,2022.2.4,59.77307965404662,
,,,,,,,,,,,,0,0,0,0,138,0,138,0,,,,,,,138,,,1,484.0979704242436,Y,None,nogo,None,1,,,,,,,,,,,,,,,,,,,86,001,26,w,Bsc Psychologie,2023-01-31_13h06.57.721,00_bat_bachelor,2022.2.4,59.77307965404662,
,,,,,,,,,,,,0,0,0,0,139,0,139,0,,,,,,,139,,,1,485.8992504242433,X,d,go,d,1,,0.22830669696850237,,,,,,,,,,,,,,,,,86,001,26,w,Bsc Psychologie,2023-01-31_13h06.57.721,00_bat_bachelor,2022.2.4,59.77307965404662,
,,,,,,,,,,,,0,0,0,0,140,0,140,0,,,,,,,140,,,1,487.23369018181984,Y,l,go,l,1,,0.4147202727272088,,,,,,,,,,,,,,,,,86,001,26,w,Bsc Psychologie,2023-01-31_13h06.57.721,00_bat_bachelor,2022.2.4,59.77307965404662,
,,,,,,,,,,,,0,0,0,0,141,0,141,0,,,,,,,141,,,1,488.7511650909091,X,d,go,d,1,,0.25605166666537116,,,,,,,,,,,,,,,,,86,001,26,w,Bsc Psychologie,2023-01-31_13h06.57.721,00_bat_bachelor,2022.2.4,59.77307965404662,
,,,,,,,,,,,,0,0,0,0,142,0,142,0,,,,,,,142,,,1,490.11921745454674,X,None,nogo,l,0,,0.2002780909097055,,,,,,,,,,,,,,,,,86,001,26,w,Bsc Psychologie,2023-01-31_13h06.57.721,00_bat_bachelor,2022.2.4,59.77307965404662,
,,,,,,,,,,,,0,0,0,0,143,0,143,0,,,,,,,143,,,1,491.41984921212133,Y,l,go,l,1,,0.19478233333211392,,,,,,,,,,,,,,,,,86,001,26,w,Bsc Psychologie,2023-01-31_13h06.57.721,00_bat_bachelor,2022.2.4,59.77307965404662,
,,,,,,,,,,,,0,0,0,0,144,0,144,0,,,,,,,144,,,1,492.7208790303048,X,d,go,d,1,,0.4313054848480533,,,,,,,,,,,,,,,,,86,001,26,w,Bsc Psychologie,2023-01-31_13h06.57.721,00_bat_bachelor,2022.2.4,59.77307965404662,
,,,,,,,,,,,,0,0,0,0,145,0,145,0,,,,,,,145,,,1,494.2555393939401,Y,l,go,l,1,,0.28802257575807744,,,,,,,,,,,,,,,,,86,001,26,w,Bsc Psychologie,2023-01-31_13h06.57.721,00_bat_bachelor,2022.2.4,59.77307965404662,
,,,,,,,,,,,,0,0,0,0,146,0,146,0,,,,,,,146,,,1,495.65675975757586,X,d,go,d,1,,0.2475367575771088,,,,,,,,,,,,,,,,,86,001,26,w,Bsc Psychologie,2023-01-31_13h06.57.721,00_bat_bachelor,2022.2.4,59.77307965404662,
,,,,,,,,,,,,0,0,0,0,147,0,147,0,,,,,,,147,,,1,497.00775757575866,Y,l,go,l,1,,0.3352182121216174,,,,,,,,,,,,,,,,,86,001,26,w,Bsc Psychologie,2023-01-31_13h06.57.721,00_bat_bachelor,2022.2.4,59.77307965404662,
,,,,,,,,,,,,0,0,0,0,148,0,148,0,,,,,,,148,,,1,498.458848969698,X,d,go,d,1,,0.2771013636356656,,,,,,,,,,,,,,,,,86,001,26,w,Bsc Psychologie,2023-01-31_13h06.57.721,00_bat_bachelor,2022.2.4,59.77307965404662,
,,,,,,,,,,,,0,0,0,0,149,0,149,0,,,,,,,149,,,1,499.84315248484927,X,None,nogo,l,0,,0.23548972727257933,,,,,,,,,,,,,,,,,86,001,26,w,Bsc Psychologie,2023-01-31_13h06.57.721,00_bat_bachelor,2022.2.4,59.77307965404662,
,,,,,,,,,,,,0,0,0,0,150,0,150,0,,,,,,,150,,,1,501.1943078787881,Y,l,go,l,1,,0.325158090909099,,,,,,,,,,,,,,,,,86,001,26,w,Bsc Psychologie,2023-01-31_13h06.57.721,00_bat_bachelor,2022.2.4,59.77307965404662,
,,,,,,,,,,,,0,0,0,0,151,0,151,0,,,,,,,151,,,1,502.62876509091075,X,d,go,d,1,,0.5220429393939412,,,,,,,,,,,,,,,,,86,001,26,w,Bsc Psychologie,2023-01-31_13h06.57.721,00_bat_bachelor,2022.2.4,59.77307965404662,
,,,,,,,,,,,,0,0,0,0,152,0,152,0,,,,,,,152,,,1,504.2630273939394,Y,l,go,l,1,,0.3120633030302997,,,,,,,,,,,,,,,,,86,001,26,w,Bsc Psychologie,2023-01-31_13h06.57.721,00_bat_bachelor,2022.2.4,59.77307965404662,
,,,,,,,,,,,,0,0,0,0,153,0,153,0,,,,,,,153,,,1,505.681112727274,Y,None,nogo,None,1,,,,,,,,,,,,,,,,,,,86,001,26,w,Bsc Psychologie,2023-01-31_13h06.57.721,00_bat_bachelor,2022.2.4,59.77307965404662,
,,,,,,,,,,,,0,0,0,0,154,0,154,0,,,,,,,154,,,1,507.4820984242433,X,d,go,d,1,,0.3258703333340236,,,,,,,,,,,,,,,,,86,001,26,w,Bsc Psychologie,2023-01-31_13h06.57.721,00_bat_bachelor,2022.2.4,59.77307965404662,
,,,,,,,,,,,,0,0,0,0,155,0,155,0,,,,,,,155,,,1,508.91688727272776,Y,l,go,l,1,,0.2818805151509878,,,,,,,,,,,,,,,,,86,001,26,w,Bsc Psychologie,2023-01-31_13h06.57.721,00_bat_bachelor,2022.2.4,59.77307965404662,
,,,,,,,,,,,,0,0,0,0,156,0,156,0,,,,,,,156,,,1,510.3012465454558,Y,None,nogo,None,1,,,,,,,,,,,,,,,,,,,86,001,26,w,Bsc Psychologie,2023-01-31_13h06.57.721,00_bat_bachelor,2022.2.4,59.77307965404662,
,,,,,,,,,,,,0,0,0,0,157,0,157,0,,,,,,,157,,,1,512.1024935757578,X,d,go,d,1,,0.32974330303113675,,,,,,,,,,,,,,,,,86,001,26,w,Bsc Psychologie,2023-01-31_13h06.57.721,00_bat_bachelor,2022.2.4,59.77307965404662,
,,,,,,,,,,,,0,0,0,0,158,0,158,0,,,,,,,158,,,1,513.5369818181825,Y,l,go,l,1,,0.31854136363654106,,,,,,,,,,,,,,,,,86,001,26,w,Bsc Psychologie,2023-01-31_13h06.57.721,00_bat_bachelor,2022.2.4,59.77307965404662,
,,,,,,,,,,,,0,0,0,0,159,0,159,0,,,,,,,159,,,1,514.9711733333334,X,d,go,d,1,,0.29121093939465936,,,,,,,,,,,,,,,,,86,001,26,w,Bsc Psychologie,2023-01-31_13h06.57.721,00_bat_bachelor,2022.2.4,59.77307965404662,
,,,,,,,,,,,,0,0,0,0,160,0,160,0,,,,,,,160,,,1,516.3722400000006,X,None,nogo,l,0,,0.21807106060441583,,,,,,,,,,,,,,,,,86,001,26,w,Bsc Psychologie,2023-01-31_13h06.57.721,00_bat_bachelor,2022.2.4,59.77307965404662,
,,,,,,,,,,,,0,0,0,0,161,0,161,0,,,,,,,161,,,1,517.7067936969706,X,None,nogo,l,0,,0.1966509393932938,,,,,,,,,,,,,,,,,86,001,26,w,Bsc Psychologie,2023-01-31_13h06.57.721,00_bat_bachelor,2022.2.4,59.77307965404662,
,,,,,,,,,,,,0,0,0,0,162,0,162,0,,,,,,,162,,,1,519.0079253333333,Y,l,go,l,1,,0.44679203030318604,,,,,,,,,,,,,,,,,86,001,26,w,Bsc Psychologie,2023-01-31_13h06.57.721,00_bat_bachelor,2022.2.4,59.77307965404662,
,,,,,,,,,,,,0,0,0,0,163,0,163,0,,,,,,,163,,,1,520.5589760000003,X,d,go,d,1,,0.28891857575763424,,,,,,,,,,,,,,,,,86,001,26,w,Bsc Psychologie,2023-01-31_13h06.57.721,00_bat_bachelor,2022.2.4,59.77307965404662,
,,,,,,,,,,,,0,0,0,0,164,0,164,0,,,,,,,164,,,1,521.9600436363653,Y,l,go,l,1,,0.3265762727260153,,,,,,,,,,,,,,,,,86,001,26,w,Bsc Psychologie,2023-01-31_13h06.57.721,00_bat_bachelor,2022.2.4,59.77307965404662,
,,,,,,,,,,,,0,0,0,0,165,0,165,0,,,,,,,165,,,1,523.3942167272744,X,d,go,d,1,,0.4139590606064303,,,,,,,,,,,,,,,,,86,001,26,w,Bsc Psychologie,2023-01-31_13h06.57.721,00_bat_bachelor,2022.2.4,59.77307965404662,
,,,,,,,,,,,,0,0,0,0,166,0,166,0,,,,,,,166,,,1,524.9124024242428,X,None,nogo,None,1,,,,,,,,,,,,,,,,,,,86,001,26,w,Bsc Psychologie,2023-01-31_13h06.57.721,00_bat_bachelor,2022.2.4,59.77307965404662,
,,,,,,,,,,,,0,0,0,0,167,0,167,0,,,,,,,167,,,1,526.7137362424255,X,None,nogo,None,1,,,,,,,,,,,,,,,,,,,86,001,26,w,Bsc Psychologie,2023-01-31_13h06.57.721,00_bat_bachelor,2022.2.4,59.77307965404662,
,,,,,,,,,,,,0,0,0,0,168,0,168,0,,,,,,,168,,,1,528.5151558787893,Y,l,go,l,1,,0.3642562727272889,,,,,,,,,,,,,,,,,86,001,26,w,Bsc Psychologie,2023-01-31_13h06.57.721,00_bat_bachelor,2022.2.4,59.77307965404662,
,,,,,,,,,,,,0,0,0,0,169,0,169,0,,,,,,,169,,,1,529.9829449696972,X,d,go,d,1,,0.3045563939394924,,,,,,,,,,,,,,,,,86,001,26,w,Bsc Psychologie,2023-01-31_13h06.57.721,00_bat_bachelor,2022.2.4,59.77307965404662,
,,,,,,,,,,,,0,0,0,0,170,0,170,0,,,,,,,170,,,1,531.4005410909103,X,None,nogo,None,1,,,,,,,,,,,,,,,,,,,86,001,26,w,Bsc Psychologie,2023-01-31_13h06.57.721,00_bat_bachelor,2022.2.4,59.77307965404662,
,,,,,,,,,,,,0,0,0,0,171,0,171,0,,,,,,,171,,,1,533.2020383030303,Y,l,go,l,1,,0.34908875757537317,,,,,,,,,,,,,,,,,86,001,26,w,Bsc Psychologie,2023-01-31_13h06.57.721,00_bat_bachelor,2022.2.4,59.77307965404662,
,,,,,,,,,,,,0,0,0,0,172,0,172,0,,,,,,,172,,,1,534.6531621818194,X,d,go,d,1,,0.32161578787781764,,,,,,,,,,,,,,,,,86,001,26,w,Bsc Psychologie,2023-01-31_13h06.57.721,00_bat_bachelor,2022.2.4,59.77307965404662,
,,,,,,,,,,,,0,0,0,0,173,0,173,0,,,,,,,173,,,1,536.0875001212135,Y,l,go,l,1,,0.5998262121211155,,,,,,,,,,,,,,,,,86,001,26,w,Bsc Psychologie,2023-01-31_13h06.57.721,00_bat_bachelor,2022.2.4,59.77307965404662,
,,,,,,,,,,,,0,0,0,0,174,0,174,0,,,,,,,174,,,1,537.7887185454547,X,d,go,d,1,,0.5943498484848533,,,,,,,,,,,,,,,,,86,001,26,w,Bsc Psychologie,2023-01-31_13h06.57.721,00_bat_bachelor,2022.2.4,59.77307965404662,
,,,,,,,,,,,,0,0,0,0,175,0,175,0,,,,,,,175,,,1,539.4901886060616,Y,l,go,l,1,,0.41428633333271137,,,,,,,,,,,,,,,,,86,001,26,w,Bsc Psychologie,2023-01-31_13h06.57.721,00_bat_bachelor,2022.2.4,59.77307965404662,
,,,,,,,,,,,,0,0,0,0,176,0,176,0,,,,,,,176,,,1,541.0078152727274,X,d,go,d,1,,0.27082887878714246,,,,,,,,,,,,,,,,,86,001,26,w,Bsc Psychologie,2023-01-31_13h06.57.721,00_bat_bachelor,2022.2.4,59.77307965404662,
,,,,,,,,,,,,0,0,0,0,177,0,177,0,,,,,,,177,,,1,542.3924198787881,Y,l,go,l,1,,0.32699324242457806,,,,,,,,,,,,,,,,,86,001,26,w,Bsc Psychologie,2023-01-31_13h06.57.721,00_bat_bachelor,2022.2.4,59.77307965404662,
,,,,,,,,,,,,0,0,0,0,178,0,178,0,,,,,,,178,,,1,543.8268189090923,X,d,go,d,1,,0.38111057575770246,,,,,,,,,,,,,,,,,86,001,26,w,Bsc Psychologie,2023-01-31_13h06.57.721,00_bat_bachelor,2022.2.4,59.77307965404662,
,,,,,,,,,,,,0,0,0,0,179,0,179,0,,,,,,,179,,,1,545.3112557575769,Y,l,go,l,1,,0.36800318181849434,,,,,,,,,,,,,,,,,86,001,26,w,Bsc Psychologie,2023-01-31_13h06.57.721,00_bat_bachelor,2022.2.4,59.77307965404662,
,,,,,,,,,,,,0,0,0,0,180,0,180,0,,,,,,,180,,,1,546.7956741818198,X,d,go,d,1,,0.29099760606004565,,,,,,,,,,,,,,,,,86,001,26,w,Bsc Psychologie,2023-01-31_13h06.57.721,00_bat_bachelor,2022.2.4,59.77307965404662,
,,,,,,,,,,,,0,0,0,0,181,0,181,0,,,,,,,181,,,1,548.1964911515151,Y,l,go,l,1,,0.3466465757574042,,,,,,,,,,,,,,,,,86,001,26,w,Bsc Psychologie,2023-01-31_13h06.57.721,00_bat_bachelor,2022.2.4,59.77307965404662,
,,,,,,,,,,,,0,0,0,0,182,0,182,0,,,,,,,182,,,1,549.6477595151518,X,d,go,d,1,,0.3509025757575728,,,,,,,,,,,,,,,,,86,001,26,w,Bsc Psychologie,2023-01-31_13h06.57.721,00_bat_bachelor,2022.2.4,59.77307965404662,
,,,,,,,,,,,,0,0,0,0,183,0,183,0,,,,,,,183,,,1,551.1155713939406,X,None,nogo,None,1,,,,,,,,,,,,,,,,,,,86,001,26,w,Bsc Psychologie,2023-01-31_13h06.57.721,00_bat_bachelor,2022.2.4,59.77307965404662,
,,,,,,,,,,,,0,0,0,0,184,0,184,0,,,,,,,184,,,1,552.9170210909106,Y,l,go,l,1,,0.3472860909078008,,,,,,,,,,,,,,,,,86,001,26,w,Bsc Psychologie,2023-01-31_13h06.57.721,00_bat_bachelor,2022.2.4,59.77307965404662,
,,,,,,,,,,,,0,0,0,0,185,0,185,0,,,,,,,185,,,1,554.3680586666669,X,d,go,l,0,,0.38358233333383396,,,,,,,,,,,,,,,,,86,001,26,w,Bsc Psychologie,2023-01-31_13h06.57.721,00_bat_bachelor,2022.2.4,59.77307965404662,
,,,,,,,,,,,,0,0,0,0,186,0,186,0,,,,,,,186,,,1,555.8525105454555,Y,l,go,l,1,,0.2910664545452164,,,,,,,,,,,,,,,,,86,001,26,w,Bsc Psychologie,2023-01-31_13h06.57.721,00_bat_bachelor,2022.2.4,59.77307965404662,
,,,,,,,,,,,,0,0,0,0,187,0,187,0,,,,,,,187,,,1,557.2534991515167,Y,None,nogo,d,0,,0.2330087575755897,,,,,,,,,,,,,,,,,86,001,26,w,Bsc Psychologie,2023-01-31_13h06.57.721,00_bat_bachelor,2022.2.4,59.77307965404662,
,,,,,,,,,,,,0,0,0,0,188,0,188,0,,,,,,,188,,,1,558.5881265454555,X,d,go,d,1,,0.24350621212215628,,,,,,,,,,,,,,,,,86,001,26,w,Bsc Psychologie,2023-01-31_13h06.57.721,00_bat_bachelor,2022.2.4,59.77307965404662,
,,,,,,,,,,,,0,0,0,0,189,0,189,0,,,,,,,189,,,1,559.9390123636367,Y,l,go,l,1,,0.31547324242274044,,,,,,,,,,,,,,,,,86,001,26,w,Bsc Psychologie,2023-01-31_13h06.57.721,00_bat_bachelor,2022.2.4,59.77307965404662,
,,,,,,,,,,,,0,0,0,0,190,0,190,0,,,,,,,190,,,1,561.356827636364,X,d,go,d,1,,0.3700317878774513,,,,,,,,,,,,,,,,,86,001,26,w,Bsc Psychologie,2023-01-31_13h06.57.721,00_bat_bachelor,2022.2.4,59.77307965404662,
,,,,,,,,,,,,0,0,0,0,191,0,191,0,,,,,,,191,,,1,562.8416960000013,Y,l,go,l,1,,0.3567479090907,,,,,,,,,,,,,,,,,86,001,26,w,Bsc Psychologie,2023-01-31_13h06.57.721,00_bat_bachelor,2022.2.4,59.77307965404662,
,,,,,,,,,,,,0,0,0,0,192,0,192,0,,,,,,,192,,,1,564.3264024242435,X,d,go,d,1,,0.2966102121208678,,,,,,,,,,,,,,,,,86,001,26,w,Bsc Psychologie,2023-01-31_13h06.57.721,00_bat_bachelor,2022.2.4,59.77307965404662,
,,,,,,,,,,,,0,0,0,0,193,0,193,0,,,,,,,193,,,1,565.727553939394,X,None,nogo,None,1,566.5281294545457,,,,,,,,,,,,,,,,,,86,001,26,w,Bsc Psychologie,2023-01-31_13h06.57.721,00_bat_bachelor,2022.2.4,59.77307965404662,
,,,,,,,,,,,,0,0,0,0,194,0,194,0,,,,,,,194,,,1,567.5286240000005,Y,l,go,l,1,,0.3578426969688735,,,,,,,,,,,,,,,,,86,001,26,w,Bsc Psychologie,2023-01-31_13h06.57.721,00_bat_bachelor,2022.2.4,59.77307965404662,
,,,,,,,,,,,,0,0,0,0,195,0,195,0,,,,,,,195,,,1,569.0132591515157,X,d,go,d,1,,0.5533088787869929,,,,,,,,,,,,,,,,,86,001,26,w,Bsc Psychologie,2023-01-31_13h06.57.721,00_bat_bachelor,2022.2.4,59.77307965404662,
,,,,,,,,,,,,0,0,0,0,196,0,196,0,,,,,,,196,,,1,570.6977260606072,Y,l,go,l,1,,0.29221845454412687,,,,,,,,,,,,,,,,,86,001,26,w,Bsc Psychologie,2023-01-31_13h06.57.721,00_bat_bachelor,2022.2.4,59.77307965404662,
,,,,,,,,,,,,0,0,0,0,197,0,197,0,,,,,,,197,,,1,572.1156295757592,X,d,go,d,1,,0.20267178787798912,,,,,,,,,,,,,,,,,86,001,26,w,Bsc Psychologie,2023-01-31_13h06.57.721,00_bat_bachelor,2022.2.4,59.77307965404662,
,,,,,,,,,,,,0,0,0,0,198,0,198,0,,,,,,,198,,,1,573.449832727274,Y,l,go,l,1,,0.3076662121220579,,,,,,,,,,,,,,,,,86,001,26,w,Bsc Psychologie,2023-01-31_13h06.57.721,00_bat_bachelor,2022.2.4,59.77307965404662,
,,,,,,,,,,,,0,0,0,0,199,0,199,0,,,,,,,199,,,1,574.8842889696971,Y,None,nogo,d,0,,0.23341021212218038,,,,,,,,,,,,,,,,,86,001,26,w,Bsc Psychologie,2023-01-31_13h06.57.721,00_bat_bachelor,2022.2.4,59.77307965404662,
,,,,,,,,,,,,0,0,0,0,200,0,200,0,,,,,,,200,,,1,576.2352208484863,X,d,go,d,1,,0.22816996969777392,,,,,,,,,,,,,,,,,86,001,26,w,Bsc Psychologie,2023-01-31_13h06.57.721,00_bat_bachelor,2022.2.4,59.77307965404662,
,,,,,,,,,,,,0,0,0,0,201,0,201,0,,,,,,,201,,,1,577.5698128484855,Y,l,go,l,1,,0.3173617272714182,,,,,,,,,,,,,,,,,86,001,26,w,Bsc Psychologie,2023-01-31_13h06.57.721,00_bat_bachelor,2022.2.4,59.77307965404662,
,,,,,,,,,,,,0,0,0,0,202,0,202,0,,,,,,,202,,,1,578.9874332121217,Y,None,nogo,None,1,579.7878627878799,,,,,,,,,,,,,,,,,,86,001,26,w,Bsc Psychologie,2023-01-31_13h06.57.721,00_bat_bachelor,2022.2.4,59.77307965404662,
,,,,,,,,,,,,0,0,0,0,203,0,203,0,,,,,,,203,,,1,580.7884911515157,X,d,go,d,1,,0.2503212424235244,,,,,,,,,,,,,,,,,86,001,26,w,Bsc Psychologie,2023-01-31_13h06.57.721,00_bat_bachelor,2022.2.4,59.77307965404662,
,,,,,,,,,,,,0,0,0,0,204,0,204,0,,,,,,,204,,,1,582.1394831515154,Y,l,go,l,1,,0.3549287575769995,,,,,,,,,,,,,,,,,86,001,26,w,Bsc Psychologie,2023-01-31_13h06.57.721,00_bat_bachelor,2022.2.4,59.77307965404662,
,,,,,,,,,,,,0,0,0,0,205,0,205,0,,,,,,,205,,,1,583.624083878789,Y,None,nogo,None,1,584.4246899393947,,,,,,,,,,,,,,,,,,86,001,26,w,Bsc Psychologie,2023-01-31_13h06.57.721,00_bat_bachelor,2022.2.4,59.77307965404662,
,,,,,,,,,,,,0,0,0,0,206,0,206,0,,,,,,,206,,,1,585.4253124848492,X,d,go,d,1,,0.20515324242478528,,,,,,,,,,,,,,,,,86,001,26,w,Bsc Psychologie,2023-01-31_13h06.57.721,00_bat_bachelor,2022.2.4,59.77307965404662,
,,,,,,,,,,,,0,0,0,0,207,0,207,0,,,,,,,207,,,1,586.7432736969713,Y,l,go,None,0,587.5435888484863,,,,,,,,,,,,,,,,,,86,001,26,w,Bsc Psychologie,2023-01-31_13h06.57.721,00_bat_bachelor,2022.2.4,59.77307965404662,
,,,,,,,,,,,,0,0,0,0,208,0,208,0,,,,,,,208,,,1,588.5443461818195,X,d,go,d,1,,0.4620691212130623,,,,,,,,,,,,,,,,,86,001,26,w,Bsc Psychologie,2023-01-31_13h06.57.721,00_bat_bachelor,2022.2.4,59.77307965404662,
,,,,,,,,,,,,0,0,0,0,209,0,209,0,,,,,,,209,,,1,590.1123001212127,X,None,nogo,l,0,,0.41548778787910123,,,,,,,,,,,,,,,,,86,001,26,w,Bsc Psychologie,2023-01-31_13h06.57.721,00_bat_bachelor,2022.2.4,59.77307965404662,
,,,,,,,,,,,,0,0,0,0,210,0,210,0,,,,,,,210,,,1,591.6468465454545,X,None,nogo,l,0,,0.25664609090927115,,,,,,,,,,,,,,,,,86,001,26,w,Bsc Psychologie,2023-01-31_13h06.57.721,00_bat_bachelor,2022.2.4,59.77307965404662,
,,,,,,,,,,,,0,0,0,0,211,0,211,0,,,,,,,211,,,1,593.0145357575766,Y,l,go,l,1,,0.3450664545453037,,,,,,,,,,,,,,,,,86,001,26,w,Bsc Psychologie,2023-01-31_13h06.57.721,00_bat_bachelor,2022.2.4,59.77307965404662,
,,,,,,,,,,,,0,0,0,0,212,0,212,0,,,,,,,212,,,1,594.4654792727288,X,d,go,d,1,,0.3338829393942433,,,,,,,,,,,,,,,,,86,001,26,w,Bsc Psychologie,2023-01-31_13h06.57.721,00_bat_bachelor,2022.2.4,59.77307965404662,
,,,,,,,,,,,,0,0,0,0,213,0,213,0,,,,,,,213,,,1,595.9164649696977,X,None,nogo,None,1,,,,,,,,,,,,,,,,,,,86,001,26,w,Bsc Psychologie,2023-01-31_13h06.57.721,00_bat_bachelor,2022.2.4,59.77307965404662,
,,,,,,,,,,,,0,0,0,0,214,0,214,0,,,,,,,214,,,1,597.7177769696973,Y,l,go,d,0,,0.37849966666726687,,,,,,,,,,,,,,,,,86,001,26,w,Bsc Psychologie,2023-01-31_13h06.57.721,00_bat_bachelor,2022.2.4,59.77307965404662,
,,,,,,,,,,,,0,0,0,0,215,0,215,0,,,,,,,215,,,1,599.2022254545464,X,d,go,d,1,,0.18898645454464713,,,,,,,,,,,,,,,,,86,001,26,w,Bsc Psychologie,2023-01-31_13h06.57.721,00_bat_bachelor,2022.2.4,59.77307965404662,
,,,,,,,,,,,,0,0,0,0,216,0,216,0,,,,,,,216,,,1,600.5031524848491,Y,l,go,l,1,,0.28127542424226704,,,,,,,,,,,,,,,,,86,001,26,w,Bsc Psychologie,2023-01-31_13h06.57.721,00_bat_bachelor,2022.2.4,59.77307965404662,
,,,,,,,,,,,,0,0,0,0,217,0,217,0,,,,,,,217,,,1,601.8877498181828,Y,None,nogo,d,0,,0.30319736363708216,,,,,,,,,,,,,,,,,86,001,26,w,Bsc Psychologie,2023-01-31_13h06.57.721,00_bat_bachelor,2022.2.4,59.77307965404662,
,,,,,,,,,,,,0,0,0,0,218,0,218,0,,,,,,,218,,,1,603.3051466666675,X,d,go,d,1,,0.5817413636359561,,,,,,,,,,,,,,,,,86,001,26,w,Bsc Psychologie,2023-01-31_13h06.57.721,00_bat_bachelor,2022.2.4,59.77307965404662,
,,,,,,,,,,,,0,0,0,0,219,0,219,0,,,,,,,219,,,1,604.9900455757579,Y,l,go,l,1,,0.4009767575771548,,,,,,,,,,,,,,,,,86,001,26,w,Bsc Psychologie,2023-01-31_13h06.57.721,00_bat_bachelor,2022.2.4,59.77307965404662,
,,,,,,,,,,,,0,0,0,0,220,0,220,0,,,,,,,220,,,1,606.5079481212124,X,d,go,d,1,,0.2756570000001375,,,,,,,,,,,,,,,,,86,001,26,w,Bsc Psychologie,2023-01-31_13h06.57.721,00_bat_bachelor,2022.2.4,59.77307965404662,
,,,,,,,,,,,,0,0,0,0,221,0,221,0,,,,,,,221,,,1,607.892334060607,X,None,nogo,d,0,,0.2835086363629671,,,,,,,,,,,,,,,,,86,001,26,w,Bsc Psychologie,2023-01-31_13h06.57.721,00_bat_bachelor,2022.2.4,59.77307965404662,
,,,,,,,,,,,,0,0,0,0,222,0,222,0,,,,,,,222,,,1,609.2765735757584,Y,l,go,l,1,,0.49865966666766326,,,,,,,,,,,,,,,,,86,001,26,w,Bsc Psychologie,2023-01-31_13h06.57.721,00_bat_bachelor,2022.2.4,59.77307965404662,
,,,,,,,,,,,,0,0,0,0,223,0,223,0,,,,,,,223,,,1,610.8776164848496,X,d,go,d,1,,0.4328439090913889,,,,,,,,,,,,,,,,,86,001,26,w,Bsc Psychologie,2023-01-31_13h06.57.721,00_bat_bachelor,2022.2.4,59.77307965404662,
,,,,,,,,,,,,0,0,0,0,224,0,224,0,,,,,,,224,,,1,612.4123335757577,Y,l,go,l,1,,0.30666500000006636,,,,,,,,,,,,,,,,,86,001,26,w,Bsc Psychologie,2023-01-31_13h06.57.721,00_bat_bachelor,2022.2.4,59.77307965404662,
,,,,,,,,,,,,0,0,0,0,225,0,225,0,,,,,,,225,,,1,613.8301823030306,X,d,go,d,1,,0.5372419696977886,,,,,,,,,,,,,,,,,86,001,26,w,Bsc Psychologie,2023-01-31_13h06.57.721,00_bat_bachelor,2022.2.4,59.77307965404662,
,,,,,,,,,,,,0,0,0,0,226,0,226,0,,,,,,,226,,,1,615.481130181819,X,None,nogo,None,1,616.2818637575765,,,,,,,,,,,,,,,,,,86,001,26,w,Bsc Psychologie,2023-01-31_13h06.57.721,00_bat_bachelor,2022.2.4,59.77307965404662,
,,,,,,,,,,,,0,0,0,0,227,0,227,0,,,,,,,227,,,1,617.2827956363653,Y,l,go,l,1,,0.34792754545560456,,,,,,,,,,,,,,,,,86,001,26,w,Bsc Psychologie,2023-01-31_13h06.57.721,00_bat_bachelor,2022.2.4,59.77307965404662,
,,,,,,,,,,,,0,0,0,0,228,0,228,0,,,,,,,228,,,1,618.7338889696985,X,d,go,d,1,,0.3216264545444574,,,,,,,,,,,,,,,,,86,001,26,w,Bsc Psychologie,2023-01-31_13h06.57.721,00_bat_bachelor,2022.2.4,59.77307965404662,
,,,,,,,,,,,,0,0,0,0,229,0,229,0,,,,,,,229,,,1,620.1683568484859,Y,l,go,l,1,,0.5188938484843675,,,,,,,,,,,,,,,,,86,001,26,w,Bsc Psychologie,2023-01-31_13h06.57.721,00_bat_bachelor,2022.2.4,59.77307965404662,
,,,,,,,,,,,,0,0,0,0,230,0,230,0,,,,,,,230,,,1,621.802951272728,Y,None,nogo,d,0,,0.21263493939295586,,,,,,,,,,,,,,,,,86,001,26,w,Bsc Psychologie,2023-01-31_13h06.57.721,00_bat_bachelor,2022.2.4,59.77307965404662,
,,,,,,,,,,,,0,0,0,0,231,0,231,0,,,,,,,231,,,1,623.1206453333343,X,d,go,d,1,,0.334386212121899,,,,,,,,,,,,,,,,,86,001,26,w,Bsc Psychologie,2023-01-31_13h06.57.721,00_bat_bachelor,2022.2.4,59.77307965404662,
,,,,,,,,,,,,0,0,0,0,232,0,232,0,,,,,,,232,,,1,624.5716969696987,Y,l,go,l,1,,0.6281748181827425,,,,,,,,,,,,,,,,,86,001,26,w,Bsc Psychologie,2023-01-31_13h06.57.721,00_bat_bachelor,2022.2.4,59.77307965404662,
,,,,,,,,,,,,0,0,0,0,233,0,233,0,,,,,,,233,,,1,626.306316606062,X,d,go,d,1,,0.3014829393941909,,,,,,,,,,,,,,,,,86,001,26,w,Bsc Psychologie,2023-01-31_13h06.57.721,00_bat_bachelor,2022.2.4,59.77307965404662,
,,,,,,,,,,,,0,0,0,0,234,0,234,0,,,,,,,234,,,1,627.7239607272732,X,None,nogo,None,1,,,,,,,,,,,,,,,,,,,86,001,26,w,Bsc Psychologie,2023-01-31_13h06.57.721,00_bat_bachelor,2022.2.4,59.77307965404662,
,,,,,,,,,,,,0,0,0,0,235,0,235,0,,,,,,,235,,,1,629.5253716363641,X,None,nogo,d,0,,0.5218989393943048,,,,,,,,,,,,,,,,,86,001,26,w,Bsc Psychologie,2023-01-31_13h06.57.721,00_bat_bachelor,2022.2.4,59.77307965404662,
,,,,,,,,,,,,0,0,0,0,236,0,236,0,,,,,,,236,,,1,631.1600707878788,Y,l,go,l,1,,0.3747076666677458,,,,,,,,,,,,,,,,,86,001,26,w,Bsc Psychologie,2023-01-31_13h06.57.721,00_bat_bachelor,2022.2.4,59.77307965404662,
,,,,,,,,,,,,0,0,0,0,237,0,237,0,,,,,,,237,,,1,632.6444499393947,X,d,go,d,1,,0.3947343333329627,,,,,,,,,,,,,,,,,86,001,26,w,Bsc Psychologie,2023-01-31_13h06.57.721,00_bat_bachelor,2022.2.4,59.77307965404662,
,,,,,,,,,,,,0,0,0,0,238,0,238,0,,,,,,,238,,,1,634.1457192727285,Y,l,go,l,1,,0.3335629393932322,,,,,,,,,,,,,,,,,86,001,26,w,Bsc Psychologie,2023-01-31_13h06.57.721,00_bat_bachelor,2022.2.4,59.77307965404662,
,,,,,,,,,,,,0,0,0,0,239,0,239,0,,,,,,,239,,,1,635.579928727273,Y,None,nogo,None,1,636.3806749090909,,,,,,,,,,,,,,,,,,86,001,26,w,Bsc Psychologie,2023-01-31_13h06.57.721,00_bat_bachelor,2022.2.4,59.77307965404662,
,,,,,,,,,,,,0,0,0,0,240,0,240,0,,,,,,,240,,,1,637.3811573333351,X,d,go,d,1,,0.3146649999998772,,,,,,,,,,,,,,,,,86,001,26,w,Bsc Psychologie,2023-01-31_13h06.57.721,00_bat_bachelor,2022.2.4,59.77307965404662,
,,,,,,,,,,,,0,0,0,0,241,0,241,0,,,,,,,241,,,1,638.7992640000011,Y,l,go,l,1,,0.4314877878787229,,,,,,,,,,,,,,,,,86,001,26,w,Bsc Psychologie,2023-01-31_13h06.57.721,00_bat_bachelor,2022.2.4,59.77307965404662,
,,,,,,,,,,,,0,0,0,0,242,0,242,0,,,,,,,242,,,1,640.3335607272729,X,d,go,d,1,,0.30571081818015955,,,,,,,,,,,,,,,,,86,001,26,w,Bsc Psychologie,2023-01-31_13h06.57.721,00_bat_bachelor,2022.2.4,59.77307965404662,
,,,,,,,,,,,,0,0,0,0,243,0,243,0,,,,,,,243,,,1,641.7514317575769,Y,l,go,l,1,,0.3287033030301245,,,,,,,,,,,,,,,,,86,001,26,w,Bsc Psychologie,2023-01-31_13h06.57.721,00_bat_bachelor,2022.2.4,59.77307965404662,
,,,,,,,,,,,,0,0,0,0,244,0,244,0,,,,,,,244,,,1,643.1857600000003,X,d,go,d,1,,0.28497093939404294,,,,,,,,,,,,,,,,,86,001,26,w,Bsc Psychologie,2023-01-31_13h06.57.721,00_bat_bachelor,2022.2.4,59.77307965404662,
,,,,,,,,,,,,0,0,0,0,245,0,245,0,,,,,,,245,,,1,644.5869929696983,Y,l,go,l,1,,0.30963081818117644,,,,,,,,,,,,,,,,,86,001,26,w,Bsc Psychologie,2023-01-31_13h06.57.721,00_bat_bachelor,2022.2.4,59.77307965404662,
,,,,,,,,,,,,0,0,0,0,246,0,246,0,,,,,,,246,,,1,646.0046860606071,X,d,go,d,1,,0.34744560605940933,,,,,,,,,,,,,,,,,86,001,26,w,Bsc Psychologie,2023-01-31_13h06.57.721,00_bat_bachelor,2022.2.4,59.77307965404662,
,,,,,,,,,,,,0,0,0,0,247,0,247,0,,,,,,,247,,,1,647.4555044848494,Y,l,go,l,1,,0.2399687575743883,,,,,,,,,,,,,,,,,86,001,26,w,Bsc Psychologie,2023-01-31_13h06.57.721,00_bat_bachelor,2022.2.4,59.77307965404662,
,,,,,,,,,,,,0,0,0,0,248,0,248,0,,,,,,,248,,,1,648.8067970909105,X,d,go,d,1,,0.3126519090910733,,,,,,,,,,,,,,,,,86,001,26,w,Bsc Psychologie,2023-01-31_13h06.57.721,00_bat_bachelor,2022.2.4,59.77307965404662,
,,,,,,,,,,,,0,0,0,0,249,0,249,0,,,,,,,249,,,1,650.2242812121222,X,None,nogo,None,1,,,,,,,,,,,,,,,,,,,86,001,26,w,Bsc Psychologie,2023-01-31_13h06.57.721,00_bat_bachelor,2022.2.4,59.77307965404662,
,,,,,,,,,,,,1,0,1,0,0,0,0,0,,,,,,,0,,,0.2,664.2521444848499,X,d,go,None,0,665.0525493333334,,,,,,,,,651.0299209696987,space,13.00469796969628,,,,,,,86,001,26,w,Bsc Psychologie,2023-01-31_13h06.57.721,00_bat_bachelor,2022.2.4,59.77307965404662,
,,,,,,,,,,,,1,0,1,0,1,0,1,0,,,,,,,1,,,0.2,665.2530244848494,Y,l,go,None,0,666.0535219393951,,,,,,,,,,,,,,,,,,86,001,26,w,Bsc Psychologie,2023-01-31_13h06.57.721,00_bat_bachelor,2022.2.4,59.77307965404662,
,,,,,,,,,,,,1,0,1,0,2,0,2,0,,,,,,,2,,,0.2,666.2535272727273,X,d,go,None,0,,,,,,,,,,,,,,,,,,,86,001,26,w,Bsc Psychologie,2023-01-31_13h06.57.721,00_bat_bachelor,2022.2.4,59.77307965404662,
,,,,,,,,,,,,1,0,1,0,3,0,3,0,,,,,,,3,,,0.2,667.2539941818195,X,None,nogo,None,1,668.0548198787892,,,,,,,,,,,,,,,,,,86,001,26,w,Bsc Psychologie,2023-01-31_13h06.57.721,00_bat_bachelor,2022.2.4,59.77307965404662,
,,,,,,,,,,,,1,0,1,0,4,0,4,0,,,,,,,4,,,0.2,668.2549779393939,Y,l,go,d,0,,0.27254960606114764,,,,,,,,,,,,,,,,,86,001,26,w,Bsc Psychologie,2023-01-31_13h06.57.721,00_bat_bachelor,2022.2.4,59.77307965404662,
,,,,,,,,,,,,1,0,1,0,5,0,5,0,,,,,,,5,,,0.2,668.8387059393954,X,d,go,None,0,,,,,,,,,,,,,,,,,,,86,001,26,w,Bsc Psychologie,2023-01-31_13h06.57.721,00_bat_bachelor,2022.2.4,59.77307965404662,
,,,,,,,,,,,,1,0,1,0,6,0,6,0,,,,,,,6,,,0.2,669.8394332121225,Y,l,go,None,0,,,,,,,,,,,,,,,,,,,86,001,26,w,Bsc Psychologie,2023-01-31_13h06.57.721,00_bat_bachelor,2022.2.4,59.77307965404662,
,,,,,,,,,,,,1,0,1,0,7,0,7,0,,,,,,,7,,,0.2,670.8401163636372,Y,None,nogo,None,1,671.6410753939399,,,,,,,,,,,,,,,,,,86,001,26,w,Bsc Psychologie,2023-01-31_13h06.57.721,00_bat_bachelor,2022.2.4,59.77307965404662,
,,,,,,,,,,,,1,0,1,0,8,0,8,0,,,,,,,8,,,0.2,671.8410841212135,X,d,go,d,1,,0.25441481818052125,,,,,,,,,,,,,,,,,86,001,26,w,Bsc Psychologie,2023-01-31_13h06.57.721,00_bat_bachelor,2022.2.4,59.77307965404662,
,,,,,,,,,,,,1,0,1,0,9,0,9,0,,,,,,,9,,,0.2,672.4080092121221,Y,l,go,l,1,,0.48690209091000725,,,,,,,,,,,,,,,,,86,001,26,w,Bsc Psychologie,2023-01-31_13h06.57.721,00_bat_bachelor,2022.2.4,59.77307965404662,
,,,,,,,,,,,,1,0,1,0,10,0,10,0,,,,,,,10,,,0.2,673.2087597575774,X,d,go,d,1,,0.3910388181830058,,,,,,,,,,,,,,,,,86,001,26,w,Bsc Psychologie,2023-01-31_13h06.57.721,00_bat_bachelor,2022.2.4,59.77307965404662,
,,,,,,,,,,,,1,0,1,0,11,0,11,0,,,,,,,11,,,0.2,673.9090812121212,Y,l,go,l,1,,0.2823609999995824,,,,,,,,,,,,,,,,,86,001,26,w,Bsc Psychologie,2023-01-31_13h06.57.721,00_bat_bachelor,2022.2.4,59.77307965404662,
,,,,,,,,,,,,1,0,1,0,12,0,12,0,,,,,,,12,,,0.2,674.4929512727285,Y,None,nogo,d,0,,0.30656609090874554,,,,,,,,,,,,,,,,,86,001,26,w,Bsc Psychologie,2023-01-31_13h06.57.721,00_bat_bachelor,2022.2.4,59.77307965404662,
,,,,,,,,,,,,1,0,1,0,13,0,13,0,,,,,,,13,,,0.2,675.1102889696976,X,d,go,None,0,675.910858666668,,,,,,,,,,,,,,,,,,86,001,26,w,Bsc Psychologie,2023-01-31_13h06.57.721,00_bat_bachelor,2022.2.4,59.77307965404662,
,,,,,,,,,,,,1,0,1,0,14,0,14,0,,,,,,,14,,,0.2,676.1109449696978,Y,l,go,l,1,,0.36859906060453795,,,,,,,,,,,,,,,,,86,001,26,w,Bsc Psychologie,2023-01-31_13h06.57.721,00_bat_bachelor,2022.2.4,59.77307965404662,
,,,,,,,,,,,,1,0,1,0,15,0,15,0,,,,,,,15,,,0.2,676.7947583030309,X,d,go,None,0,,,,,,,,,,,,,,,,,,,86,001,26,w,Bsc Psychologie,2023-01-31_13h06.57.721,00_bat_bachelor,2022.2.4,59.77307965404662,
,,,,,,,,,,,,1,0,1,0,16,0,16,0,,,,,,,16,,,0.2,677.7956320000012,Y,l,go,l,1,,0.5240860909088951,,,,,,,,,,,,,,,,,86,001,26,w,Bsc Psychologie,2023-01-31_13h06.57.721,00_bat_bachelor,2022.2.4,59.77307965404662,
,,,,,,,,,,,,1,0,1,0,17,0,17,0,,,,,,,17,,,0.2,678.6294724848485,X,d,go,d,1,,0.45800609091020306,,,,,,,,,,,,,,,,,86,001,26,w,Bsc Psychologie,2023-01-31_13h06.57.721,00_bat_bachelor,2022.2.4,59.77307965404662,
,,,,,,,,,,,,1,0,1,0,18,0,18,0,,,,,,,18,,,0.2,679.3967680000005,Y,l,go,l,1,,0.4275057272716367,,,,,,,,,,,,,,,,,86,001,26,w,Bsc Psychologie,2023-01-31_13h06.57.721,00_bat_bachelor,2022.2.4,59.77307965404662,
,,,,,,,,,,,,1,0,1,0,19,0,19,0,,,,,,,19,,,0.2,680.1305856969702,Y,None,nogo,None,1,,,,,,,,,,,,,,,,,,,86,001,26,w,Bsc Psychologie,2023-01-31_13h06.57.721,00_bat_bachelor,2022.2.4,59.77307965404662,
,,,,,,,,,,,,1,0,1,0,20,0,20,0,,,,,,,20,,,0.2,681.1315020606071,X,d,go,d,1,,0.22832803030360083,,,,,,,,,,,,,,,,,86,001,26,w,Bsc Psychologie,2023-01-31_13h06.57.721,00_bat_bachelor,2022.2.4,59.77307965404662,
,,,,,,,,,,,,1,0,1,0,21,0,21,0,,,,,,,21,,,0.2,681.6652562424242,Y,l,go,l,1,,0.38217724242531403,,,,,,,,,,,,,,,,,86,001,26,w,Bsc Psychologie,2023-01-31_13h06.57.721,00_bat_bachelor,2022.2.4,59.77307965404662,
,,,,,,,,,,,,1,0,1,0,22,0,22,0,,,,,,,22,,,0.2,682.3491786666673,X,d,go,d,1,,0.4498679090902442,,,,,,,,,,,,,,,,,86,001,26,w,Bsc Psychologie,2023-01-31_13h06.57.721,00_bat_bachelor,2022.2.4,59.77307965404662,
,,,,,,,,,,,,1,0,1,0,23,0,23,0,,,,,,,23,,,0.2,683.0995117575767,Y,l,go,l,1,,0.30820293939359544,,,,,,,,,,,,,,,,,86,001,26,w,Bsc Psychologie,2023-01-31_13h06.57.721,00_bat_bachelor,2022.2.4,59.77307965404662,
,,,,,,,,,,,,1,0,1,0,24,0,24,0,,,,,,,24,,,0.2,683.716746181819,X,d,go,d,1,,0.2988691212121921,,,,,,,,,,,,,,,,,86,001,26,w,Bsc Psychologie,2023-01-31_13h06.57.721,00_bat_bachelor,2022.2.4,59.77307965404662,
,,,,,,,,,,,,1,0,1,0,25,0,25,0,,,,,,,25,,,0.2,684.3171040000016,X,None,nogo,l,0,,0.3540807575755025,,,,,,,,,,,,,,,,,86,001,26,w,Bsc Psychologie,2023-01-31_13h06.57.721,00_bat_bachelor,2022.2.4,59.77307965404662,
,,,,,,,,,,,,1,0,1,0,26,0,26,0,,,,,,,26,,,0.2,684.9844523636366,Y,l,go,None,0,,,,,,,,,,,,,,,,,,,86,001,26,w,Bsc Psychologie,2023-01-31_13h06.57.721,00_bat_bachelor,2022.2.4,59.77307965404662,
,,,,,,,,,,,,1,0,1,0,27,0,27,0,,,,,,,27,,,0.2,685.984956606062,X,d,go,d,1,,0.26974621212139027,,,,,,,,,,,,,,,,,86,001,26,w,Bsc Psychologie,2023-01-31_13h06.57.721,00_bat_bachelor,2022.2.4,59.77307965404662,
,,,,,,,,,,,,1,0,1,0,28,0,28,0,,,,,,,28,,,0.2,686.5689701818192,X,None,nogo,None,1,,,,,,,,,,,,,,,,,,,86,001,26,w,Bsc Psychologie,2023-01-31_13h06.57.721,00_bat_bachelor,2022.2.4,59.77307965404662,
,,,,,,,,,,,,1,0,1,0,29,0,29,0,,,,,,,29,,,0.2,687.5696673939401,Y,l,go,None,0,,,,,,,,,,,,,,,,,,,86,001,26,w,Bsc Psychologie,2023-01-31_13h06.57.721,00_bat_bachelor,2022.2.4,59.77307965404662,
,,,,,,,,,,,,1,0,1,0,30,0,30,0,,,,,,,30,,,0.2,688.5703709090922,X,d,go,l,0,,0.020629121210731682,,,,,,,,,,,,,,,,,86,001,26,w,Bsc Psychologie,2023-01-31_13h06.57.721,00_bat_bachelor,2022.2.4,59.77307965404662,
,,,,,,,,,,,,1,0,1,0,31,0,31,0,,,,,,,31,,,0.2,688.9038632727279,Y,l,go,None,0,,,,,,,,,,,,,,,,,,,86,001,26,w,Bsc Psychologie,2023-01-31_13h06.57.721,00_bat_bachelor,2022.2.4,59.77307965404662,
,,,,,,,,,,,,1,0,1,0,32,0,32,0,,,,,,,32,,,0.2,689.9047883636376,X,d,go,None,0,,,,,,,,,,,,,,,,,,,86,001,26,w,Bsc Psychologie,2023-01-31_13h06.57.721,00_bat_bachelor,2022.2.4,59.77307965404662,
,,,,,,,,,,,,1,0,1,0,33,0,33,0,,,,,,,33,,,0.2,690.90528678788,Y,l,go,None,0,,,,,,,,,,,,,,,,,,,86,001,26,w,Bsc Psychologie,2023-01-31_13h06.57.721,00_bat_bachelor,2022.2.4,59.77307965404662,
,,,,,,,,,,,,1,0,1,0,34,0,34,0,,,,,,,34,,,0.2,691.9065241212138,X,d,go,None,0,,,,,,,,,,,,,,,,,,,86,001,26,w,Bsc Psychologie,2023-01-31_13h06.57.721,00_bat_bachelor,2022.2.4,59.77307965404662,
,,,,,,,,,,,,1,0,1,0,35,0,35,0,,,,,,,35,,,0.2,692.9068227878797,Y,l,go,l,1,,0.19626160606094345,,,,,,,,,,,,,,,,,86,001,26,w,Bsc Psychologie,2023-01-31_13h06.57.721,00_bat_bachelor,2022.2.4,59.77307965404662,
,,,,,,,,,,,,1,0,1,0,36,0,36,0,,,,,,,36,,,0.2,693.4073735757593,X,d,go,None,0,,,,,,,,,,,,,,,,,,,86,001,26,w,Bsc Psychologie,2023-01-31_13h06.57.721,00_bat_bachelor,2022.2.4,59.77307965404662,
,,,,,,,,,,,,1,0,1,0,37,0,37,0,,,,,,,37,,,0.2,694.4083049696983,Y,l,go,None,0,695.2088198787897,,,,,,,,,,,,,,,,,,86,001,26,w,Bsc Psychologie,2023-01-31_13h06.57.721,00_bat_bachelor,2022.2.4,59.77307965404662,
,,,,,,,,,,,,1,0,1,0,38,0,38,0,,,,,,,38,,,0.2,695.4089449696985,X,d,go,None,0,,,,,,,,,,,,,,,,,,,86,001,26,w,Bsc Psychologie,2023-01-31_13h06.57.721,00_bat_bachelor,2022.2.4,59.77307965404662,
,,,,,,,,,,,,1,0,1,0,39,0,39,0,,,,,,,39,,,0.2,696.4097027878797,Y,l,go,l,1,,0.18189457575681445,,,,,,,,,,,,,,,,,86,001,26,w,Bsc Psychologie,2023-01-31_13h06.57.721,00_bat_bachelor,2022.2.4,59.77307965404662,
,,,,,,,,,,,,1,0,1,0,40,0,40,0,,,,,,,40,,,0.2,696.8935107878788,X,d,go,None,0,,,,,,,,,,,,,,,,,,,86,001,26,w,Bsc Psychologie,2023-01-31_13h06.57.721,00_bat_bachelor,2022.2.4,59.77307965404662,
,,,,,,,,,,,,1,0,1,0,41,0,41,0,,,,,,,41,,,0.2,697.8942181818184,Y,l,go,None,0,698.6947762424243,,,,,,,,,,,,,,,,,,86,001,26,w,Bsc Psychologie,2023-01-31_13h06.57.721,00_bat_bachelor,2022.2.4,59.77307965404662,
,,,,,,,,,,,,1,0,1,0,42,0,42,0,,,,,,,42,,,0.2,698.8946133333338,X,d,go,d,1,,0.09752366666543821,,,,,,,,,,,,,,,,,86,001,26,w,Bsc Psychologie,2023-01-31_13h06.57.721,00_bat_bachelor,2022.2.4,59.77307965404662,
,,,,,,,,,,,,1,0,1,0,43,0,43,0,,,,,,,43,,,0.2,699.2953027878793,Y,l,go,None,0,,,,,,,,,,,,,,,,,,,86,001,26,w,Bsc Psychologie,2023-01-31_13h06.57.721,00_bat_bachelor,2022.2.4,59.77307965404662,
,,,,,,,,,,,,1,0,1,0,44,0,44,0,,,,,,,44,,,0.2,700.2961129696978,Y,None,nogo,None,1,,,,,,,,,,,,,,,,,,,86,001,26,w,Bsc Psychologie,2023-01-31_13h06.57.721,00_bat_bachelor,2022.2.4,59.77307965404662,
,,,,,,,,,,,,1,0,1,0,45,0,45,0,,,,,,,45,,,0.2,701.2965527272736,X,d,go,None,0,,,,,,,,,,,,,,,,,,,86,001,26,w,Bsc Psychologie,2023-01-31_13h06.57.721,00_bat_bachelor,2022.2.4,59.77307965404662,
,,,,,,,,,,,,1,0,1,0,46,0,46,0,,,,,,,46,,,0.2,702.2975156363646,Y,l,go,None,0,,,,,,,,,,,,,,,,,,,86,001,26,w,Bsc Psychologie,2023-01-31_13h06.57.721,00_bat_bachelor,2022.2.4,59.77307965404662,
,,,,,,,,,,,,1,0,1,0,47,0,47,0,,,,,,,47,,,0.2,703.2984135757579,Y,None,nogo,d,0,,0.1894310606057843,,,,,,,,,,,,,,,,,86,001,26,w,Bsc Psychologie,2023-01-31_13h06.57.721,00_bat_bachelor,2022.2.4,59.77307965404662,
,,,,,,,,,,,,1,0,1,0,48,0,48,0,,,,,,,48,,,0.2,703.7986744242426,X,d,go,None,0,,,,,,,,,,,,,,,,,,,86,001,26,w,Bsc Psychologie,2023-01-31_13h06.57.721,00_bat_bachelor,2022.2.4,59.77307965404662,
,,,,,,,,,,,,1,0,1,0,49,0,49,0,,,,,,,49,,,0.2,704.7992436363638,Y,l,go,None,0,,,,,,,,,,,,,,,,,,,86,001,26,w,Bsc Psychologie,2023-01-31_13h06.57.721,00_bat_bachelor,2022.2.4,59.77307965404662,
,,,,,,,,,,,,1,0,1,0,50,0,50,0,,,,,,,50,,,0.2,705.800416,X,d,go,l,0,,0.23126427272654837,,,,,,,,,,,,,,,,,86,001,26,w,Bsc Psychologie,2023-01-31_13h06.57.721,00_bat_bachelor,2022.2.4,59.77307965404662,
,,,,,,,,,,,,1,0,1,0,51,0,51,0,,,,,,,51,,,0.2,706.3338535757593,Y,l,go,None,0,,,,,,,,,,,,,,,,,,,86,001,26,w,Bsc Psychologie,2023-01-31_13h06.57.721,00_bat_bachelor,2022.2.4,59.77307965404662,
,,,,,,,,,,,,1,0,1,0,52,0,52,0,,,,,,,52,,,0.2,707.3348247272734,Y,None,nogo,None,1,,,,,,,,,,,,,,,,,,,86,001,26,w,Bsc Psychologie,2023-01-31_13h06.57.721,00_bat_bachelor,2022.2.4,59.77307965404662,
,,,,,,,,,,,,1,0,1,0,53,0,53,0,,,,,,,53,,,0.2,708.3355340606067,X,d,go,None,0,709.1362065454559,,,,,,,,,,,,,,,,,,86,001,26,w,Bsc Psychologie,2023-01-31_13h06.57.721,00_bat_bachelor,2022.2.4,59.77307965404662,
,,,,,,,,,,,,1,0,1,0,54,0,54,0,,,,,,,54,,,0.2,709.3363020606066,Y,l,go,None,0,,,,,,,,,,,,,,,,,,,86,001,26,w,Bsc Psychologie,2023-01-31_13h06.57.721,00_bat_bachelor,2022.2.4,59.77307965404662,
,,,,,,,,,,,,1,0,1,0,55,0,55,0,,,,,,,55,,,0.2,710.3372989090913,X,d,go,None,0,,,,,,,,,,,,,,,,,,,86,001,26,w,Bsc Psychologie,2023-01-31_13h06.57.721,00_bat_bachelor,2022.2.4,59.77307965404662,
,,,,,,,,,,,,1,0,1,0,56,0,56,0,,,,,,,56,,,0.2,711.338224969697,Y,l,go,None,0,712.1386618181823,,,,,,,,,,,,,,,,,,86,001,26,w,Bsc Psychologie,2023-01-31_13h06.57.721,00_bat_bachelor,2022.2.4,59.77307965404662,
,,,,,,,,,,,,1,0,1,0,57,0,57,0,,,,,,,57,,,0.2,712.3388770909096,X,d,go,d,1,,0.47701796969704446,,,,,,,,,,,,,,,,,86,001,26,w,Bsc Psychologie,2023-01-31_13h06.57.721,00_bat_bachelor,2022.2.4,59.77307965404662,
,,,,,,,,,,,,1,0,1,0,58,0,58,0,,,,,,,58,,,0.2,713.1227466666678,Y,l,go,l,1,,0.23616560606023995,,,,,,,,,,,,,,,,,86,001,26,w,Bsc Psychologie,2023-01-31_13h06.57.721,00_bat_bachelor,2022.2.4,59.77307965404662,
,,,,,,,,,,,,1,0,1,0,59,0,59,0,,,,,,,59,,,0.2,713.6731636363638,X,d,go,d,1,,0.5017103333339037,,,,,,,,,,,,,,,,,86,001,26,w,Bsc Psychologie,2023-01-31_13h06.57.721,00_bat_bachelor,2022.2.4,59.77307965404662,
,,,,,,,,,,,,1,0,1,0,60,0,60,0,,,,,,,60,,,0.2,714.49045139394,Y,l,go,l,1,,0.325615303030645,,,,,,,,,,,,,,,,,86,001,26,w,Bsc Psychologie,2023-01-31_13h06.57.721,00_bat_bachelor,2022.2.4,59.77307965404662,
,,,,,,,,,,,,1,0,1,0,61,0,61,0,,,,,,,61,,,0.2,715.1240727272743,X,d,go,d,1,,0.3631328787869279,,,,,,,,,,,,,,,,,86,001,26,w,Bsc Psychologie,2023-01-31_13h06.57.721,00_bat_bachelor,2022.2.4,59.77307965404662,
,,,,,,,,,,,,1,0,1,0,62,0,62,0,,,,,,,62,,,0.2,715.7912610909098,X,None,nogo,l,0,,0.31903396969755704,,,,,,,,,,,,,,,,,86,001,26,w,Bsc Psychologie,2023-01-31_13h06.57.721,00_bat_bachelor,2022.2.4,59.77307965404662,
,,,,,,,,,,,,1,0,1,0,63,0,63,0,,,,,,,63,,,0.2,716.424969212123,Y,l,go,None,0,,,,,,,,,,,,,,,,,,,86,001,26,w,Bsc Psychologie,2023-01-31_13h06.57.721,00_bat_bachelor,2022.2.4,59.77307965404662,
,,,,,,,,,,,,1,0,1,0,64,0,64,0,,,,,,,64,,,0.2,717.4258526060621,X,d,go,d,1,,0.3500594242432271,,,,,,,,,,,,,,,,,86,001,26,w,Bsc Psychologie,2023-01-31_13h06.57.721,00_bat_bachelor,2022.2.4,59.77307965404662,
,,,,,,,,,,,,1,0,1,0,65,0,65,0,,,,,,,65,,,0.2,718.076172121213,Y,l,go,l,1,,0.579898939393388,,,,,,,,,,,,,,,,,86,001,26,w,Bsc Psychologie,2023-01-31_13h06.57.721,00_bat_bachelor,2022.2.4,59.77307965404662,
,,,,,,,,,,,,1,0,1,0,66,0,66,0,,,,,,,66,,,0.2,718.9600150303031,X,d,go,d,1,,0.5741302121223271,,,,,,,,,,,,,,,,,86,001,26,w,Bsc Psychologie,2023-01-31_13h06.57.721,00_bat_bachelor,2022.2.4,59.77307965404662,
,,,,,,,,,,,,1,0,1,0,67,0,67,0,,,,,,,67,,,0.2,719.8440266666676,Y,l,go,l,1,,0.4753859696975269,,,,,,,,,,,,,,,,,86,001,26,w,Bsc Psychologie,2023-01-31_13h06.57.721,00_bat_bachelor,2022.2.4,59.77307965404662,
,,,,,,,,,,,,1,0,1,0,68,0,68,0,,,,,,,68,,,0.2,720.6281551515167,Y,None,nogo,None,1,,,,,,,,,,,,,,,,,,,86,001,26,w,Bsc Psychologie,2023-01-31_13h06.57.721,00_bat_bachelor,2022.2.4,59.77307965404662,
,,,,,,,,,,,,1,0,1,0,69,0,69,0,,,,,,,69,,,0.2,721.6289459393956,X,d,go,l,0,,0.4989835454543936,,,,,,,,,,,,,,,,,86,001,26,w,Bsc Psychologie,2023-01-31_13h06.57.721,00_bat_bachelor,2022.2.4,59.77307965404662,
,,,,,,,,,,,,1,0,1,0,70,0,70,0,,,,,,,70,,,0.2,722.4296067878804,Y,l,go,None,0,,,,,,,,,,,,,,,,,,,86,001,26,w,Bsc Psychologie,2023-01-31_13h06.57.721,00_bat_bachelor,2022.2.4,59.77307965404662,
,,,,,,,,,,,,1,0,1,0,71,0,71,0,,,,,,,71,,,0.2,723.4304499393947,X,d,go,d,1,,0.3302611212111515,,,,,,,,,,,,,,,,,86,001,26,w,Bsc Psychologie,2023-01-31_13h06.57.721,00_bat_bachelor,2022.2.4,59.77307965404662,
,,,,,,,,,,,,1,0,1,0,72,0,72,0,,,,,,,72,,,0.2,724.0638569696985,X,None,nogo,d,0,,0.5119386969690822,,,,,,,,,,,,,,,,,86,001,26,w,Bsc Psychologie,2023-01-31_13h06.57.721,00_bat_bachelor,2022.2.4,59.77307965404662,
,,,,,,,,,,,,1,0,1,0,73,0,73,0,,,,,,,73,,,0.2,724.8811781818185,Y,l,go,l,1,,0.5587372424233763,,,,,,,,,,,,,,,,,86,001,26,w,Bsc Psychologie,2023-01-31_13h06.57.721,00_bat_bachelor,2022.2.4,59.77307965404662,
,,,,,,,,,,,,1,0,1,0,74,0,74,0,,,,,,,74,,,0.2,725.7486050909101,X,d,go,d,1,,0.49083954545494635,,,,,,,,,,,,,,,,,86,001,26,w,Bsc Psychologie,2023-01-31_13h06.57.721,00_bat_bachelor,2022.2.4,59.77307965404662,
,,,,,,,,,,,,1,0,1,0,75,0,75,0,,,,,,,75,,,0.2,726.549444363638,Y,l,go,l,1,,0.39389845454570604,,,,,,,,,,,,,,,,,86,001,26,w,Bsc Psychologie,2023-01-31_13h06.57.721,00_bat_bachelor,2022.2.4,59.77307965404662,
,,,,,,,,,,,,1,0,1,0,76,0,76,0,,,,,,,76,,,0.2,727.2498366060609,Y,None,nogo,None,1,,,,,,,,,,,,,,,,,,,86,001,26,w,Bsc Psychologie,2023-01-31_13h06.57.721,00_bat_bachelor,2022.2.4,59.77307965404662,
,,,,,,,,,,,,1,0,1,0,77,0,77,0,,,,,,,77,,,0.2,728.2507592727288,X,d,go,d,1,,0.27753966666750784,,,,,,,,,,,,,,,,,86,001,26,w,Bsc Psychologie,2023-01-31_13h06.57.721,00_bat_bachelor,2022.2.4,59.77307965404662,
,,,,,,,,,,,,1,0,1,0,78,0,78,0,,,,,,,78,,,0.2,728.8341687272732,Y,l,go,l,1,,0.5886984545450105,,,,,,,,,,,,,,,,,86,001,26,w,Bsc Psychologie,2023-01-31_13h06.57.721,00_bat_bachelor,2022.2.4,59.77307965404662,
,,,,,,,,,,,,1,0,1,0,79,0,79,0,,,,,,,79,,,0.2,729.7352101818196,Y,None,nogo,None,1,,,,,,,,,,,,,,,,,,,86,001,26,w,Bsc Psychologie,2023-01-31_13h06.57.721,00_bat_bachelor,2022.2.4,59.77307965404662,
,,,,,,,,,,,,1,0,1,0,80,0,80,0,,,,,,,80,,,0.2,730.7360271515154,X,d,go,d,1,,0.5596996666663472,,,,,,,,,,,,,,,,,86,001,26,w,Bsc Psychologie,2023-01-31_13h06.57.721,00_bat_bachelor,2022.2.4,59.77307965404662,
,,,,,,,,,,,,1,0,1,0,81,0,81,0,,,,,,,81,,,0.2,731.6032538181826,Y,l,go,l,1,,0.5082233030298084,,,,,,,,,,,,,,,,,86,001,26,w,Bsc Psychologie,2023-01-31_13h06.57.721,00_bat_bachelor,2022.2.4,59.77307965404662,
,,,,,,,,,,,,1,0,1,0,82,0,82,0,,,,,,,82,,,0.2,732.4205536969712,Y,None,nogo,None,1,,,,,,,,,,,,,,,,,,,86,001,26,w,Bsc Psychologie,2023-01-31_13h06.57.721,00_bat_bachelor,2022.2.4,59.77307965404662,
,,,,,,,,,,,,1,0,1,0,83,0,83,0,,,,,,,83,,,0.2,733.4213682424252,X,d,go,d,1,,0.5943100909080385,,,,,,,,,,,,,,,,,86,001,26,w,Bsc Psychologie,2023-01-31_13h06.57.721,00_bat_bachelor,2022.2.4,59.77307965404662,
,,,,,,,,,,,,1,0,1,0,84,0,84,0,,,,,,,84,,,0.2,734.3216819393947,Y,l,go,l,1,,0.31658112121112936,,,,,,,,,,,,,,,,,86,001,26,w,Bsc Psychologie,2023-01-31_13h06.57.721,00_bat_bachelor,2022.2.4,59.77307965404662,
,,,,,,,,,,,,1,0,1,0,85,0,85,0,,,,,,,85,,,0.2,734.9389847272741,Y,None,nogo,None,1,,,,,,,,,,,,,,,,,,,86,001,26,w,Bsc Psychologie,2023-01-31_13h06.57.721,00_bat_bachelor,2022.2.4,59.77307965404662,
,,,,,,,,,,,,1,0,1,0,86,0,86,0,,,,,,,86,,,0.2,735.9396431515161,X,d,go,d,1,,0.331877606060516,,,,,,,,,,,,,,,,,86,001,26,w,Bsc Psychologie,2023-01-31_13h06.57.721,00_bat_bachelor,2022.2.4,59.77307965404662,
,,,,,,,,,,,,1,0,1,0,87,0,87,0,,,,,,,87,,,0.2,736.5737987878802,Y,l,go,None,0,,,,,,,,,,,,,,,,,,,86,001,26,w,Bsc Psychologie,2023-01-31_13h06.57.721,00_bat_bachelor,2022.2.4,59.77307965404662,
,,,,,,,,,,,,1,0,1,0,88,0,88,0,,,,,,,88,,,0.2,737.5745202424259,X,d,go,None,0,,,,,,,,,,,,,,,,,,,86,001,26,w,Bsc Psychologie,2023-01-31_13h06.57.721,00_bat_bachelor,2022.2.4,59.77307965404662,
,,,,,,,,,,,,1,0,1,0,89,0,89,0,,,,,,,89,,,0.2,738.5752373333344,X,None,nogo,d,0,,0.09726427272653382,,,,,,,,,,,,,,,,,86,001,26,w,Bsc Psychologie,2023-01-31_13h06.57.721,00_bat_bachelor,2022.2.4,59.77307965404662,
,,,,,,,,,,,,1,0,1,0,90,0,90,0,,,,,,,90,,,0.2,738.9755432727288,Y,l,go,None,0,,,,,,,,,,,,,,,,,,,86,001,26,w,Bsc Psychologie,2023-01-31_13h06.57.721,00_bat_bachelor,2022.2.4,59.77307965404662,
,,,,,,,,,,,,1,0,1,0,91,0,91,0,,,,,,,91,,,0.2,739.9762424242435,X,d,go,d,1,,0.32710766666605195,,,,,,,,,,,,,,,,,86,001,26,w,Bsc Psychologie,2023-01-31_13h06.57.721,00_bat_bachelor,2022.2.4,59.77307965404662,
,,,,,,,,,,,,1,0,1,0,92,0,92,0,,,,,,,92,,,0.2,740.6100911515168,Y,l,go,l,1,,0.3655740909089218,,,,,,,,,,,,,,,,,86,001,26,w,Bsc Psychologie,2023-01-31_13h06.57.721,00_bat_bachelor,2022.2.4,59.77307965404662,
,,,,,,,,,,,,1,0,1,0,93,0,93,0,,,,,,,93,,,0.2,741.2773570909103,X,d,go,d,1,,0.30612390908936504,,,,,,,,,,,,,,,,,86,001,26,w,Bsc Psychologie,2023-01-31_13h06.57.721,00_bat_bachelor,2022.2.4,59.77307965404662,
,,,,,,,,,,,,1,0,1,0,94,0,94,0,,,,,,,94,,,0.2,741.8941425454559,X,None,nogo,None,1,,,,,,,,,,,,,,,,,,,86,001,26,w,Bsc Psychologie,2023-01-31_13h06.57.721,00_bat_bachelor,2022.2.4,59.77307965404662,
,,,,,,,,,,,,1,0,1,0,95,0,95,0,,,,,,,95,,,0.2,742.8952872727277,Y,l,go,l,1,,0.35235324242421484,,,,,,,,,,,,,,,,,86,001,26,w,Bsc Psychologie,2023-01-31_13h06.57.721,00_bat_bachelor,2022.2.4,59.77307965404662,
,,,,,,,,,,,,1,0,1,0,96,0,96,0,,,,,,,96,,,0.2,743.5622540606073,X,d,go,d,1,,0.5003251212110627,,,,,,,,,,,,,,,,,86,001,26,w,Bsc Psychologie,2023-01-31_13h06.57.721,00_bat_bachelor,2022.2.4,59.77307965404662,
,,,,,,,,,,,,1,0,1,0,97,0,97,0,,,,,,,97,,,0.2,744.3628271515154,Y,l,go,l,1,,0.45213312121268245,,,,,,,,,,,,,,,,,86,001,26,w,Bsc Psychologie,2023-01-31_13h06.57.721,00_bat_bachelor,2022.2.4,59.77307965404662,
,,,,,,,,,,,,1,0,1,0,98,0,98,0,,,,,,,98,,,0.2,745.1299583030304,Y,None,nogo,None,1,,,,,,,,,,,,,,,,,,,86,001,26,w,Bsc Psychologie,2023-01-31_13h06.57.721,00_bat_bachelor,2022.2.4,59.77307965404662,
,,,,,,,,,,,,1,0,1,0,99,0,99,0,,,,,,,99,,,0.2,746.1309953939399,X,d,go,d,1,,0.29958427272686095,,,,,,,,,,,,,,,,,86,001,26,w,Bsc Psychologie,2023-01-31_13h06.57.721,00_bat_bachelor,2022.2.4,59.77307965404662,
,,,,,,,,,,,,1,0,1,0,100,0,100,0,,,,,,,100,,,0.2,746.7314404848494,Y,l,go,l,1,,0.500475424241813,,,,,,,,,,,,,,,,,86,001,26,w,Bsc Psychologie,2023-01-31_13h06.57.721,00_bat_bachelor,2022.2.4,59.77307965404662,
,,,,,,,,,,,,1,0,1,0,101,0,101,0,,,,,,,101,,,0.2,747.5319970909095,Y,None,nogo,l,0,,0.611156151515388,,,,,,,,,,,,,,,,,86,001,26,w,Bsc Psychologie,2023-01-31_13h06.57.721,00_bat_bachelor,2022.2.4,59.77307965404662,
,,,,,,,,,,,,1,0,1,0,102,0,102,0,,,,,,,102,,,0.2,748.4491602424259,X,d,go,d,1,,0.4628409999986616,,,,,,,,,,,,,,,,,86,001,26,w,Bsc Psychologie,2023-01-31_13h06.57.721,00_bat_bachelor,2022.2.4,59.77307965404662,
,,,,,,,,,,,,1,0,1,0,103,0,103,0,,,,,,,103,,,0.2,749.2164145454553,Y,l,go,None,0,750.0173469090914,,,,,,,,,,,,,,,,,,86,001,26,w,Bsc Psychologie,2023-01-31_13h06.57.721,00_bat_bachelor,2022.2.4,59.77307965404662,
,,,,,,,,,,,,1,0,1,0,104,0,104,0,,,,,,,104,,,0.2,750.217372606061,X,d,go,d,1,,0.3743420909104316,,,,,,,,,,,,,,,,,86,001,26,w,Bsc Psychologie,2023-01-31_13h06.57.721,00_bat_bachelor,2022.2.4,59.77307965404662,
,,,,,,,,,,,,1,0,1,0,105,0,105,0,,,,,,,105,,,0.2,750.9012775757583,Y,l,go,l,1,,0.29908148484719277,,,,,,,,,,,,,,,,,86,001,26,w,Bsc Psychologie,2023-01-31_13h06.57.721,00_bat_bachelor,2022.2.4,59.77307965404662,
,,,,,,,,,,,,1,0,1,0,106,0,106,0,,,,,,,106,,,0.2,751.5018850909091,Y,None,nogo,None,1,,,,,,,,,,,,,,,,,,,86,001,26,w,Bsc Psychologie,2023-01-31_13h06.57.721,00_bat_bachelor,2022.2.4,59.77307965404662,
,,,,,,,,,,,,1,0,1,0,107,0,107,0,,,,,,,107,,,0.2,752.5022492121225,X,d,go,d,1,,0.2323144545462128,,,,,,,,,,,,,,,,,86,001,26,w,Bsc Psychologie,2023-01-31_13h06.57.721,00_bat_bachelor,2022.2.4,59.77307965404662,
,,,,,,,,,,,,1,0,1,0,108,0,108,0,,,,,,,108,,,0.2,753.0363103030304,Y,l,go,l,1,,0.5152870606052602,,,,,,,,,,,,,,,,,86,001,26,w,Bsc Psychologie,2023-01-31_13h06.57.721,00_bat_bachelor,2022.2.4,59.77307965404662,
,,,,,,,,,,,,1,0,1,0,109,0,109,0,,,,,,,109,,,0.2,753.8532310303035,Y,None,nogo,l,0,,0.6578703333343583,,,,,,,,,,,,,,,,,86,001,26,w,Bsc Psychologie,2023-01-31_13h06.57.721,00_bat_bachelor,2022.2.4,59.77307965404662,
,,,,,,,,,,,,1,0,1,0,110,0,110,0,,,,,,,110,,,0.2,754.820889212122,X,d,go,d,1,,0.42702766666479874,,,,,,,,,,,,,,,,,86,001,26,w,Bsc Psychologie,2023-01-31_13h06.57.721,00_bat_bachelor,2022.2.4,59.77307965404662,
,,,,,,,,,,,,1,0,1,0,111,0,111,0,,,,,,,111,,,0.2,755.5547689696978,Y,l,go,l,1,,0.30027178787895537,,,,,,,,,,,,,,,,,86,001,26,w,Bsc Psychologie,2023-01-31_13h06.57.721,00_bat_bachelor,2022.2.4,59.77307965404662,
,,,,,,,,,,,,1,0,1,0,112,0,112,0,,,,,,,112,,,0.2,756.155106909091,Y,None,nogo,None,1,,,,,,,,,,,,,,,,,,,86,001,26,w,Bsc Psychologie,2023-01-31_13h06.57.721,00_bat_bachelor,2022.2.4,59.77307965404662,
,,,,,,,,,,,,1,0,1,0,113,0,113,0,,,,,,,113,,,0.2,757.1560998787882,X,d,go,d,1,,0.05985287878684176,,,,,,,,,,,,,,,,,86,001,26,w,Bsc Psychologie,2023-01-31_13h06.57.721,00_bat_bachelor,2022.2.4,59.77307965404662,
,,,,,,,,,,,,1,0,1,0,114,0,114,0,,,,,,,114,,,0.2,757.5230889696977,Y,l,go,None,0,,,,,,,,,,,,,,,,,,,86,001,26,w,Bsc Psychologie,2023-01-31_13h06.57.721,00_bat_bachelor,2022.2.4,59.77307965404662,
,,,,,,,,,,,,1,0,1,0,115,0,115,0,,,,,,,115,,,0.2,758.5234564848488,X,d,go,d,1,,0.5796487575771607,,,,,,,,,,,,,,,,,86,001,26,w,Bsc Psychologie,2023-01-31_13h06.57.721,00_bat_bachelor,2022.2.4,59.77307965404662,
,,,,,,,,,,,,1,0,1,0,116,0,116,0,,,,,,,116,,,0.2,759.407470060607,Y,l,go,l,1,,0.22416803030318988,,,,,,,,,,,,,,,,,86,001,26,w,Bsc Psychologie,2023-01-31_13h06.57.721,00_bat_bachelor,2022.2.4,59.77307965404662,
,,,,,,,,,,,,1,0,1,0,117,0,117,0,,,,,,,117,,,0.2,759.941271272728,Y,None,nogo,None,1,,,,,,,,,,,,,,,,,,,86,001,26,w,Bsc Psychologie,2023-01-31_13h06.57.721,00_bat_bachelor,2022.2.4,59.77307965404662,
,,,,,,,,,,,,1,0,1,0,118,0,118,0,,,,,,,118,,,0.2,760.9422792727273,X,d,go,d,1,,0.08018403030291665,,,,,,,,,,,,,,,,,86,001,26,w,Bsc Psychologie,2023-01-31_13h06.57.721,00_bat_bachelor,2022.2.4,59.77307965404662,
,,,,,,,,,,,,1,0,1,0,119,0,119,0,,,,,,,119,,,0.2,761.3259093333345,Y,l,go,None,0,,,,,,,,,,,,,,,,,,,86,001,26,w,Bsc Psychologie,2023-01-31_13h06.57.721,00_bat_bachelor,2022.2.4,59.77307965404662,
,,,,,,,,,,,,1,0,1,0,120,0,120,0,,,,,,,120,,,0.2,762.3265512727285,Y,None,nogo,l,0,,0.36103590909078775,,,,,,,,,,,,,,,,,86,001,26,w,Bsc Psychologie,2023-01-31_13h06.57.721,00_bat_bachelor,2022.2.4,59.77307965404662,
,,,,,,,,,,,,1,0,1,0,121,0,121,0,,,,,,,121,,,0.2,762.9935398787893,X,d,go,d,1,,0.6044613636368013,,,,,,,,,,,,,,,,,86,001,26,w,Bsc Psychologie,2023-01-31_13h06.57.721,00_bat_bachelor,2022.2.4,59.77307965404662,
,,,,,,,,,,,,1,0,1,0,122,0,122,0,,,,,,,122,,,0.2,763.9112766060607,Y,l,go,l,1,,0.3439774848484376,,,,,,,,,,,,,,,,,86,001,26,w,Bsc Psychologie,2023-01-31_13h06.57.721,00_bat_bachelor,2022.2.4,59.77307965404662,
,,,,,,,,,,,,1,0,1,0,123,0,123,0,,,,,,,123,,,0.2,764.5615927272738,Y,None,nogo,d,0,,0.25307712121320947,,,,,,,,,,,,,,,,,86,001,26,w,Bsc Psychologie,2023-01-31_13h06.57.721,00_bat_bachelor,2022.2.4,59.77307965404662,
,,,,,,,,,,,,1,0,1,0,124,0,124,0,,,,,,,124,,,0.2,765.1288009696982,X,d,go,None,0,,,,,,,,,,,,,,,,,,,86,001,26,w,Bsc Psychologie,2023-01-31_13h06.57.721,00_bat_bachelor,2022.2.4,59.77307965404662,
,,,,,,,,,,,,1,0,1,0,125,0,125,0,,,,,,,125,,,0.2,766.1293124848489,Y,l,go,l,1,,0.20574960606063541,,,,,,,,,,,,,,,,,86,001,26,w,Bsc Psychologie,2023-01-31_13h06.57.721,00_bat_bachelor,2022.2.4,59.77307965404662,
,,,,,,,,,,,,1,0,1,0,126,0,126,0,,,,,,,126,,,0.2,766.6467141818193,Y,None,nogo,None,1,767.4471272727278,,,,,,,,,,,,,,,,,,86,001,26,w,Bsc Psychologie,2023-01-31_13h06.57.721,00_bat_bachelor,2022.2.4,59.77307965404662,
,,,,,,,,,,,,1,0,1,0,127,0,127,0,,,,,,,127,,,0.2,767.6471132121223,X,d,go,None,0,768.4476926060615,,,,,,,,,,,,,,,,,,86,001,26,w,Bsc Psychologie,2023-01-31_13h06.57.721,00_bat_bachelor,2022.2.4,59.77307965404662,
,,,,,,,,,,,,1,0,1,0,128,0,128,0,,,,,,,128,,,0.2,768.6481202424256,Y,l,go,None,0,,,,,,,,,,,,,,,,,,,86,001,26,w,Bsc Psychologie,2023-01-31_13h06.57.721,00_bat_bachelor,2022.2.4,59.77307965404662,
,,,,,,,,,,,,1,0,1,0,129,0,129,0,,,,,,,129,,,0.2,769.6486288484866,X,d,go,None,0,,,,,,,,,,,,,,,,,,,86,001,26,w,Bsc Psychologie,2023-01-31_13h06.57.721,00_bat_bachelor,2022.2.4,59.77307965404662,
,,,,,,,,,,,,1,0,1,0,130,0,130,0,,,,,,,130,,,0.2,770.6496208484859,Y,l,go,None,0,771.4503243636373,,,,,,,,,,,,,,,,,,86,001,26,w,Bsc Psychologie,2023-01-31_13h06.57.721,00_bat_bachelor,2022.2.4,59.77307965404662,
,,,,,,,,,,,,1,0,1,0,131,0,131,0,,,,,,,131,,,0.2,771.6505226666668,X,d,go,d,1,,0.3976080303036724,,,,,,,,,,,,,,,,,86,001,26,w,Bsc Psychologie,2023-01-31_13h06.57.721,00_bat_bachelor,2022.2.4,59.77307965404662,
,,,,,,,,,,,,1,0,1,0,132,0,132,0,,,,,,,132,,,0.2,772.3509755151517,Y,l,go,l,1,,0.27248415151552763,,,,,,,,,,,,,,,,,86,001,26,w,Bsc Psychologie,2023-01-31_13h06.57.721,00_bat_bachelor,2022.2.4,59.77307965404662,
,,,,,,,,,,,,1,0,1,0,133,0,133,0,,,,,,,133,,,0.2,772.93469769697,Y,None,nogo,None,1,773.7354060606067,,,,,,,,,,,,,,,,,,86,001,26,w,Bsc Psychologie,2023-01-31_13h06.57.721,00_bat_bachelor,2022.2.4,59.77307965404662,
,,,,,,,,,,,,1,0,1,0,134,0,134,0,,,,,,,134,,,0.2,773.9355878787883,X,d,go,None,0,,,,,,,,,,,,,,,,,,,86,001,26,w,Bsc Psychologie,2023-01-31_13h06.57.721,00_bat_bachelor,2022.2.4,59.77307965404662,
,,,,,,,,,,,,1,0,1,0,135,0,135,0,,,,,,,135,,,0.2,774.9363161212132,Y,l,go,l,1,,0.295765121212753,,,,,,,,,,,,,,,,,86,001,26,w,Bsc Psychologie,2023-01-31_13h06.57.721,00_bat_bachelor,2022.2.4,59.77307965404662,
,,,,,,,,,,,,1,0,1,0,136,0,136,0,,,,,,,136,,,0.2,775.5367990303039,X,d,go,d,1,,0.3510916666655248,,,,,,,,,,,,,,,,,86,001,26,w,Bsc Psychologie,2023-01-31_13h06.57.721,00_bat_bachelor,2022.2.4,59.77307965404662,
,,,,,,,,,,,,1,0,1,0,137,0,137,0,,,,,,,137,,,0.2,776.2039558787892,Y,l,go,l,1,,0.21167348484777904,,,,,,,,,,,,,,,,,86,001,26,w,Bsc Psychologie,2023-01-31_13h06.57.721,00_bat_bachelor,2022.2.4,59.77307965404662,
,,,,,,,,,,,,1,0,1,0,138,0,138,0,,,,,,,138,,,0.2,776.7209275151527,X,d,go,d,1,,0.2223750606062822,,,,,,,,,,,,,,,,,86,001,26,w,Bsc Psychologie,2023-01-31_13h06.57.721,00_bat_bachelor,2022.2.4,59.77307965404662,
,,,,,,,,,,,,1,0,1,0,139,0,139,0,,,,,,,139,,,0.2,777.254546424243,X,None,nogo,l,0,,0.2323450000003504,,,,,,,,,,,,,,,,,86,001,26,w,Bsc Psychologie,2023-01-31_13h06.57.721,00_bat_bachelor,2022.2.4,59.77307965404662,
,,,,,,,,,,,,1,0,1,0,140,0,140,0,,,,,,,140,,,0.2,777.7881929696978,Y,l,go,None,0,,,,,,,,,,,,,,,,,,,86,001,26,w,Bsc Psychologie,2023-01-31_13h06.57.721,00_bat_bachelor,2022.2.4,59.77307965404662,
,,,,,,,,,,,,1,0,1,0,141,0,141,0,,,,,,,141,,,0.2,778.7892693333342,X,d,go,d,1,,0.23423590909078484,,,,,,,,,,,,,,,,,86,001,26,w,Bsc Psychologie,2023-01-31_13h06.57.721,00_bat_bachelor,2022.2.4,59.77307965404662,
,,,,,,,,,,,,1,0,1,0,142,0,142,0,,,,,,,142,,,0.2,779.3396955151529,Y,l,go,l,1,,0.22754548484772386,,,,,,,,,,,,,,,,,86,001,26,w,Bsc Psychologie,2023-01-31_13h06.57.721,00_bat_bachelor,2022.2.4,59.77307965404662,
,,,,,,,,,,,,1,0,1,0,143,0,143,0,,,,,,,143,,,0.2,779.8733042424246,Y,None,nogo,d,0,,0.3985612424239662,,,,,,,,,,,,,,,,,86,001,26,w,Bsc Psychologie,2023-01-31_13h06.57.721,00_bat_bachelor,2022.2.4,59.77307965404662,
,,,,,,,,,,,,1,0,1,0,144,0,144,0,,,,,,,144,,,0.2,780.5737410909096,X,d,go,None,0,781.3742152727282,,,,,,,,,,,,,,,,,,86,001,26,w,Bsc Psychologie,2023-01-31_13h06.57.721,00_bat_bachelor,2022.2.4,59.77307965404662,
,,,,,,,,,,,,1,0,1,0,145,0,145,0,,,,,,,145,,,0.2,781.5748271515167,Y,l,go,l,1,,0.10421893939383153,,,,,,,,,,,,,,,,,86,001,26,w,Bsc Psychologie,2023-01-31_13h06.57.721,00_bat_bachelor,2022.2.4,59.77307965404662,
,,,,,,,,,,,,1,0,1,0,146,0,146,0,,,,,,,146,,,0.2,781.9916838787885,X,d,go,None,0,782.7921575757591,,,,,,,,,,,,,,,,,,86,001,26,w,Bsc Psychologie,2023-01-31_13h06.57.721,00_bat_bachelor,2022.2.4,59.77307965404662,
,,,,,,,,,,,,1,0,1,0,147,0,147,0,,,,,,,147,,,0.2,782.9925381818193,Y,l,go,l,1,,0.3822460909086658,,,,,,,,,,,,,,,,,86,001,26,w,Bsc Psychologie,2023-01-31_13h06.57.721,00_bat_bachelor,2022.2.4,59.77307965404662,
,,,,,,,,,,,,1,0,1,0,148,0,148,0,,,,,,,148,,,0.2,783.6760266666679,X,d,go,d,1,,0.25907421212104964,,,,,,,,,,,,,,,,,86,001,26,w,Bsc Psychologie,2023-01-31_13h06.57.721,00_bat_bachelor,2022.2.4,59.77307965404662,
,,,,,,,,,,,,1,0,1,0,149,0,149,0,,,,,,,149,,,0.2,784.2431258181823,X,None,nogo,l,0,,0.18794839393922302,,,,,,,,,,,,,,,,,86,001,26,w,Bsc Psychologie,2023-01-31_13h06.57.721,00_bat_bachelor,2022.2.4,59.77307965404662,
,,,,,,,,,,,,1,0,1,0,150,0,150,0,,,,,,,150,,,0.2,784.7434593939397,Y,l,go,None,0,,,,,,,,,,,,,,,,,,,86,001,26,w,Bsc Psychologie,2023-01-31_13h06.57.721,00_bat_bachelor,2022.2.4,59.77307965404662,
,,,,,,,,,,,,1,0,1,0,151,0,151,0,,,,,,,151,,,0.2,785.7445100606074,X,d,go,d,1,,0.22340924242416804,,,,,,,,,,,,,,,,,86,001,26,w,Bsc Psychologie,2023-01-31_13h06.57.721,00_bat_bachelor,2022.2.4,59.77307965404662,
,,,,,,,,,,,,1,0,1,0,152,0,152,0,,,,,,,152,,,0.2,786.2781823030309,Y,l,go,None,0,,,,,,,,,,,,,,,,,,,86,001,26,w,Bsc Psychologie,2023-01-31_13h06.57.721,00_bat_bachelor,2022.2.4,59.77307965404662,
,,,,,,,,,,,,1,0,1,0,153,0,153,0,,,,,,,153,,,0.2,787.2791006060615,X,d,go,l,0,,0.11284536363564257,,,,,,,,,,,,,,,,,86,001,26,w,Bsc Psychologie,2023-01-31_13h06.57.721,00_bat_bachelor,2022.2.4,59.77307965404662,
,,,,,,,,,,,,1,0,1,0,154,0,154,0,,,,,,,154,,,0.2,787.6958463030314,Y,l,go,None,0,,,,,,,,,,,,,,,,,,,86,001,26,w,Bsc Psychologie,2023-01-31_13h06.57.721,00_bat_bachelor,2022.2.4,59.77307965404662,
,,,,,,,,,,,,1,0,1,0,155,0,155,0,,,,,,,155,,,0.2,788.6966026666669,X,d,go,d,1,,0.15016027272758947,,,,,,,,,,,,,,,,,86,001,26,w,Bsc Psychologie,2023-01-31_13h06.57.721,00_bat_bachelor,2022.2.4,59.77307965404662,
,,,,,,,,,,,,1,0,1,0,156,0,156,0,,,,,,,156,,,0.2,789.1471820606075,Y,l,go,None,0,789.9476252121221,,,,,,,,,,,,,,,,,,86,001,26,w,Bsc Psychologie,2023-01-31_13h06.57.721,00_bat_bachelor,2022.2.4,59.77307965404662,
,,,,,,,,,,,,1,0,1,0,157,0,157,0,,,,,,,157,,,0.2,790.1475680000003,X,d,go,l,0,,0.3152773636356869,,,,,,,,,,,,,,,,,86,001,26,w,Bsc Psychologie,2023-01-31_13h06.57.721,00_bat_bachelor,2022.2.4,59.77307965404662,
,,,,,,,,,,,,1,0,1,0,158,0,158,0,,,,,,,158,,,0.2,790.765095272729,Y,l,go,None,0,,,,,,,,,,,,,,,,,,,86,001,26,w,Bsc Psychologie,2023-01-31_13h06.57.721,00_bat_bachelor,2022.2.4,59.77307965404662,
,,,,,,,,,,,,1,0,1,0,159,0,159,0,,,,,,,159,,,0.2,791.7656116363651,Y,None,nogo,d,0,,0.15319542424185784,,,,,,,,,,,,,,,,,86,001,26,w,Bsc Psychologie,2023-01-31_13h06.57.721,00_bat_bachelor,2022.2.4,59.77307965404662,
,,,,,,,,,,,,1,0,1,0,160,0,160,0,,,,,,,160,,,0.2,792.2327044848498,X,d,go,None,0,,,,,,,,,,,,,,,,,,,86,001,26,w,Bsc Psychologie,2023-01-31_13h06.57.721,00_bat_bachelor,2022.2.4,59.77307965404662,
,,,,,,,,,,,,1,0,1,0,161,0,161,0,,,,,,,161,,,0.2,793.2333134545461,Y,l,go,None,0,,,,,,,,,,,,,,,,,,,86,001,26,w,Bsc Psychologie,2023-01-31_13h06.57.721,00_bat_bachelor,2022.2.4,59.77307965404662,
,,,,,,,,,,,,1,0,1,0,162,0,162,0,,,,,,,162,,,0.2,794.2343936969701,X,d,go,None,0,,,,,,,,,,,,,,,,,,,86,001,26,w,Bsc Psychologie,2023-01-31_13h06.57.721,00_bat_bachelor,2022.2.4,59.77307965404662,
,,,,,,,,,,,,1,0,1,0,163,0,163,0,,,,,,,163,,,0.2,795.2351495757594,Y,l,go,None,0,,,,,,,,,,,,,,,,,,,86,001,26,w,Bsc Psychologie,2023-01-31_13h06.57.721,00_bat_bachelor,2022.2.4,59.77307965404662,
,,,,,,,,,,,,1,0,1,0,164,0,164,0,,,,,,,164,,,0.2,796.2357721212138,X,d,go,d,1,,0.24427130303047306,,,,,,,,,,,,,,,,,86,001,26,w,Bsc Psychologie,2023-01-31_13h06.57.721,00_bat_bachelor,2022.2.4,59.77307965404662,
,,,,,,,,,,,,1,0,1,0,165,0,165,0,,,,,,,165,,,0.2,796.7859946666667,X,None,nogo,l,0,,0.14112948484944354,,,,,,,,,,,,,,,,,86,001,26,w,Bsc Psychologie,2023-01-31_13h06.57.721,00_bat_bachelor,2022.2.4,59.77307965404662,
,,,,,,,,,,,,1,0,1,0,166,0,166,0,,,,,,,166,,,0.2,797.2366356363636,Y,l,go,None,0,798.0370850909094,,,,,,,,,,,,,,,,,,86,001,26,w,Bsc Psychologie,2023-01-31_13h06.57.721,00_bat_bachelor,2022.2.4,59.77307965404662,
,,,,,,,,,,,,1,0,1,0,167,0,167,0,,,,,,,167,,,0.2,798.2371340606078,X,d,go,d,1,,0.5301345757579838,,,,,,,,,,,,,,,,,86,001,26,w,Bsc Psychologie,2023-01-31_13h06.57.721,00_bat_bachelor,2022.2.4,59.77307965404662,
,,,,,,,,,,,,1,0,1,0,168,0,168,0,,,,,,,168,,,0.2,799.0711733333337,X,None,nogo,l,0,,0.27121724242351775,,,,,,,,,,,,,,,,,86,001,26,w,Bsc Psychologie,2023-01-31_13h06.57.721,00_bat_bachelor,2022.2.4,59.77307965404662,
,,,,,,,,,,,,1,0,1,0,169,0,169,0,,,,,,,169,,,0.2,799.6550623030307,Y,l,go,None,0,,,,,,,,,,,,,,,,,,,86,001,26,w,Bsc Psychologie,2023-01-31_13h06.57.721,00_bat_bachelor,2022.2.4,59.77307965404662,
,,,,,,,,,,,,1,0,1,0,170,0,170,0,,,,,,,170,,,0.2,800.6557653333348,X,d,go,d,1,,0.1281219696975313,,,,,,,,,,,,,,,,,86,001,26,w,Bsc Psychologie,2023-01-31_13h06.57.721,00_bat_bachelor,2022.2.4,59.77307965404662,
,,,,,,,,,,,,1,0,1,0,171,0,171,0,,,,,,,171,,,0.2,801.0896203636366,Y,l,go,None,0,,,,,,,,,,,,,,,,,,,86,001,26,w,Bsc Psychologie,2023-01-31_13h06.57.721,00_bat_bachelor,2022.2.4,59.77307965404662,
,,,,,,,,,,,,1,0,1,0,172,0,172,0,,,,,,,172,,,0.2,802.0900053333335,X,d,go,d,1,,0.43635712121067627,,,,,,,,,,,,,,,,,86,001,26,w,Bsc Psychologie,2023-01-31_13h06.57.721,00_bat_bachelor,2022.2.4,59.77307965404662,
,,,,,,,,,,,,1,0,1,0,173,0,173,0,,,,,,,173,,,0.2,802.8408465454559,Y,l,go,l,1,,0.37470960605969594,,,,,,,,,,,,,,,,,86,001,26,w,Bsc Psychologie,2023-01-31_13h06.57.721,00_bat_bachelor,2022.2.4,59.77307965404662,
,,,,,,,,,,,,1,0,1,0,174,0,174,0,,,,,,,174,,,0.2,803.5244732121228,Y,None,nogo,None,1,,,,,,,,,,,,,,,,,,,86,001,26,w,Bsc Psychologie,2023-01-31_13h06.57.721,00_bat_bachelor,2022.2.4,59.77307965404662,
,,,,,,,,,,,,1,0,1,0,175,0,175,0,,,,,,,175,,,0.2,804.525253818183,X,d,go,d,1,,0.3850237878777989,,,,,,,,,,,,,,,,,86,001,26,w,Bsc Psychologie,2023-01-31_13h06.57.721,00_bat_bachelor,2022.2.4,59.77307965404662,
,,,,,,,,,,,,1,0,1,0,176,0,176,0,,,,,,,176,,,0.2,805.2260572121213,Y,l,go,None,0,806.0263776969714,,,,,,,,,,,,,,,,,,86,001,26,w,Bsc Psychologie,2023-01-31_13h06.57.721,00_bat_bachelor,2022.2.4,59.77307965404662,
,,,,,,,,,,,,1,0,1,0,177,0,177,0,,,,,,,177,,,0.2,806.2265784242427,X,d,go,d,1,,0.4138145757569873,,,,,,,,,,,,,,,,,86,001,26,w,Bsc Psychologie,2023-01-31_13h06.57.721,00_bat_bachelor,2022.2.4,59.77307965404662,
,,,,,,,,,,,,1,0,1,0,178,0,178,0,,,,,,,178,,,0.2,806.9437144242438,Y,l,go,l,1,,0.2710470606052695,,,,,,,,,,,,,,,,,86,001,26,w,Bsc Psychologie,2023-01-31_13h06.57.721,00_bat_bachelor,2022.2.4,59.77307965404662,
,,,,,,,,,,,,1,0,1,0,179,0,179,0,,,,,,,179,,,0.2,807.5278763636379,Y,None,nogo,d,0,,0.47189554545366263,,,,,,,,,,,,,,,,,86,001,26,w,Bsc Psychologie,2023-01-31_13h06.57.721,00_bat_bachelor,2022.2.4,59.77307965404662,
,,,,,,,,,,,,1,0,1,0,180,0,180,0,,,,,,,180,,,0.2,808.3118361212128,X,d,go,None,0,,,,,,,,,,,,,,,,,,,86,001,26,w,Bsc Psychologie,2023-01-31_13h06.57.721,00_bat_bachelor,2022.2.4,59.77307965404662,
,,,,,,,,,,,,1,0,1,0,181,0,181,0,,,,,,,181,,,0.2,809.3124489696984,Y,l,go,l,1,,0.20683033333261847,,,,,,,,,,,,,,,,,86,001,26,w,Bsc Psychologie,2023-01-31_13h06.57.721,00_bat_bachelor,2022.2.4,59.77307965404662,
,,,,,,,,,,,,1,0,1,0,182,0,182,0,,,,,,,182,,,0.2,809.8294647272742,Y,None,nogo,None,1,,,,,,,,,,,,,,,,,,,86,001,26,w,Bsc Psychologie,2023-01-31_13h06.57.721,00_bat_bachelor,2022.2.4,59.77307965404662,
,,,,,,,,,,,,1,0,1,0,183,0,183,0,,,,,,,183,,,0.2,810.8300732121224,X,d,go,d,1,,0.36872803030200885,,,,,,,,,,,,,,,,,86,001,26,w,Bsc Psychologie,2023-01-31_13h06.57.721,00_bat_bachelor,2022.2.4,59.77307965404662,
,,,,,,,,,,,,1,0,1,0,184,0,184,0,,,,,,,184,,,0.2,811.514071757576,Y,l,go,l,1,,0.19748633333256294,,,,,,,,,,,,,,,,,86,001,26,w,Bsc Psychologie,2023-01-31_13h06.57.721,00_bat_bachelor,2022.2.4,59.77307965404662,
,,,,,,,,,,,,1,0,1,0,185,0,185,0,,,,,,,185,,,0.2,812.0145624242432,X,d,go,d,1,,0.2881365151497448,,,,,,,,,,,,,,,,,86,001,26,w,Bsc Psychologie,2023-01-31_13h06.57.721,00_bat_bachelor,2022.2.4,59.77307965404662,
,,,,,,,,,,,,1,0,1,0,186,0,186,0,,,,,,,186,,,0.2,812.6150584242441,Y,l,go,l,1,,0.2313369999992574,,,,,,,,,,,,,,,,,86,001,26,w,Bsc Psychologie,2023-01-31_13h06.57.721,00_bat_bachelor,2022.2.4,59.77307965404662,
,,,,,,,,,,,,1,0,1,0,187,0,187,0,,,,,,,187,,,0.2,813.1486884848491,Y,None,nogo,d,0,,0.19492293939219962,,,,,,,,,,,,,,,,,86,001,26,w,Bsc Psychologie,2023-01-31_13h06.57.721,00_bat_bachelor,2022.2.4,59.77307965404662,
,,,,,,,,,,,,1,0,1,0,188,0,188,0,,,,,,,188,,,0.2,813.6488523636381,X,d,go,None,0,,,,,,,,,,,,,,,,,,,86,001,26,w,Bsc Psychologie,2023-01-31_13h06.57.721,00_bat_bachelor,2022.2.4,59.77307965404662,
,,,,,,,,,,,,1,0,1,0,189,0,189,0,,,,,,,189,,,0.2,814.6501866666677,Y,l,go,l,1,,0.27759639393843827,,,,,,,,,,,,,,,,,86,001,26,w,Bsc Psychologie,2023-01-31_13h06.57.721,00_bat_bachelor,2022.2.4,59.77307965404662,
,,,,,,,,,,,,1,0,1,0,190,0,190,0,,,,,,,190,,,0.2,815.2339762424253,Y,None,nogo,d,0,,0.2847139696968952,,,,,,,,,,,,,,,,,86,001,26,w,Bsc Psychologie,2023-01-31_13h06.57.721,00_bat_bachelor,2022.2.4,59.77307965404662,
,,,,,,,,,,,,1,0,1,0,191,0,191,0,,,,,,,191,,,0.2,815.8344305454557,X,d,go,None,0,816.6349595151532,,,,,,,,,,,,,,,,,,86,001,26,w,Bsc Psychologie,2023-01-31_13h06.57.721,00_bat_bachelor,2022.2.4,59.77307965404662,
,,,,,,,,,,,,1,0,1,0,192,0,192,0,,,,,,,192,,,0.2,816.8352077575764,Y,l,go,l,1,,0.2996487575746869,,,,,,,,,,,,,,,,,86,001,26,w,Bsc Psychologie,2023-01-31_13h06.57.721,00_bat_bachelor,2022.2.4,59.77307965404662,
