loop_instruction.thisRepN,loop_instruction.thisTrialN,loop_instruction.thisN,loop_instruction.thisIndex,loop_rsi_practice.thisRepN,loop_rsi_practice.thisTrialN,loop_rsi_practice.thisN,loop_rsi_practice.thisIndex,loop_practice.thisRepN,loop_practice.thisTrialN,loop_practice.thisN,loop_practice.thisIndex,loop_exp.thisRepN,loop_exp.thisTrialN,loop_exp.thisN,loop_exp.thisIndex,loop_trials.thisRepN,loop_trials.thisTrialN,loop_trials.thisN,loop_trials.thisIndex,map_condition,map_x_key,map_y_key,key_resp_welcome.started,key_resp_welcome.keys,key_resp_welcome.rt,index,text_empty_rsi_practice.started,text_empty_rsi_practice.stopped,rsi,stimulus.started,stimulus,correct,trial_type,key_resp_trial.keys,key_resp_trial.corr,stimulus.stopped,key_resp_trial.rt,key_resp_instruction_rsi.started,key_resp_instruction_rsi.keys,key_resp_instruction_rsi.rt,key_resp_instruction_rsi.stopped,key_resp_instruction_final.started,key_resp_instruction_final.keys,key_resp_instruction_final.rt,key_resp_break.started,key_resp_break.keys,key_resp_break.rt,key_resp_break.stopped,key_resp_end_screen.started,image_end_screen.started,key_resp_end_screen.stopped,image_end_screen.stopped,key_resp_end_screen.keys,participant,session,Alter,Geschlecht (w/m/d/andere),Studiengang,date,expName,psychopyVersion,frameRate,
,,,,0,0,0,0,0,0,0,0,,,,,,,,,0,d,l,573.4962050909089,j,28.312829090908053,0,601.844194909092,602.8588795151591,1,602.8588795151591,X,d,go,None,0,,,,,,,,,,,,,,,,,,,88,001,20,w,Psychologie,2023-02-01_12h01.20.148,00_bat_bachelor,2022.2.4,59.90415335705001,
,,,,0,0,0,0,1,0,1,0,,,,,,,,,,,,,,,1,604.2600824242545,605.2608872727287,1,605.2608872727287,Y,l,go,None,0,606.0612896969687,,,,,,,,,,,,,,,,,,88,001,20,w,Psychologie,2023-02-01_12h01.20.148,00_bat_bachelor,2022.2.4,59.90415335705001,
,,,,0,0,0,0,2,0,2,0,,,,,,,,,,,,,,,2,606.6619670303044,607.662696727275,1,607.662696727275,X,d,go,d,1,,0.55935127272096,,,,,,,,,,,,,,,,,88,001,20,w,Psychologie,2023-02-01_12h01.20.148,00_bat_bachelor,2022.2.4,59.90415335705001,
,,,,0,0,0,0,3,0,3,0,,,,,,,,,,,,,,,3,608.9301250909193,609.9310598787997,1,609.9310598787997,X,None,nogo,d,0,,0.5148901818029117,,,,,,,,,,,,,,,,,88,001,20,w,Psychologie,2023-02-01_12h01.20.148,00_bat_bachelor,2022.2.4,59.90415335705001,
,,,,0,0,0,0,4,0,4,0,,,,,,,,,,,,,,,4,611.5651360000047,612.5661658181925,1,612.5661658181925,Y,l,go,l,1,,0.662855272719753,,,,,,,,,,,,,,,,,88,001,20,w,Psychologie,2023-02-01_12h01.20.148,00_bat_bachelor,2022.2.4,59.90415335705001,
,,,,0,0,0,0,5,0,5,0,,,,,,,,,,,,,,,5,613.9335248484858,614.9345061818312,1,614.9345061818312,X,d,go,d,1,,0.6158661818190012,,,,,,,,,,,,,,,,,88,001,20,w,Psychologie,2023-02-01_12h01.20.148,00_bat_bachelor,2022.2.4,59.90415335705001,
,,,,0,0,0,0,6,0,6,0,,,,,,,,,,,,,,,6,616.2521323636465,617.2529197575786,1,617.2529197575786,X,None,nogo,d,0,,0.5845789090817561,,,,,,,,,,,,,,,,,88,001,20,w,Psychologie,2023-02-01_12h01.20.148,00_bat_bachelor,2022.2.4,59.90415335705001,
,,,,0,0,0,0,7,0,7,0,,,,,,,,,,,,,,,7,618.954232242424,619.9551340606122,1,619.9551340606122,Y,l,go,None,0,,,,,,,,,,,,,,,,,,,88,001,20,w,Psychologie,2023-02-01_12h01.20.148,00_bat_bachelor,2022.2.4,59.90415335705001,
,,,,0,0,0,0,8,0,8,0,,,,,,,,,,,,,,,8,621.356228363642,622.3569042424351,1,622.3569042424351,X,d,go,d,1,,0.42449163635319564,,,,,,,,,,,,,,,,,88,001,20,w,Psychologie,2023-02-01_12h01.20.148,00_bat_bachelor,2022.2.4,59.90415335705001,
,,,,0,0,0,0,9,0,9,0,,,,,,,,,,,,,,,9,623.4908494545525,624.4919311515259,1,624.4919311515259,Y,l,go,l,1,,0.6104940606019227,,,,,,,,,,,,,,,,,88,001,20,w,Psychologie,2023-02-01_12h01.20.148,00_bat_bachelor,2022.2.4,59.90415335705001,
,,,,0,0,0,0,10,0,10,0,,,,,,,,,,,,,,,10,625.8093008484866,626.8102957575757,1,626.8102957575757,Y,None,nogo,None,1,,,,,,,,,,,,,,,,,,,88,001,20,w,Psychologie,2023-02-01_12h01.20.148,00_bat_bachelor,2022.2.4,59.90415335705001,
,,,,0,0,0,0,11,0,11,0,,,,,,,,,,,,,,,11,628.2113585454645,629.2120649697026,1,629.2120649697026,X,d,go,None,0,,,,,,,,,,,,,,,,,,,88,001,20,w,Psychologie,2023-02-01_12h01.20.148,00_bat_bachelor,2022.2.4,59.90415335705001,
,,,,0,0,0,0,12,0,12,0,,,,,,,,,,,,,,,12,630.6132484848495,631.613891878791,1,631.613891878791,Y,l,go,None,0,,,,,,,,,,,,,,,,,,,88,001,20,w,Psychologie,2023-02-01_12h01.20.148,00_bat_bachelor,2022.2.4,59.90415335705001,
,,,,0,0,0,0,13,0,13,0,,,,,,,,,,,,,,,13,633.0150729697052,634.0157803636394,1,634.0157803636394,Y,None,nogo,None,1,634.8163956363715,,,,,,,,,,,,,,,,,,88,001,20,w,Psychologie,2023-02-01_12h01.20.148,00_bat_bachelor,2022.2.4,59.90415335705001,
,,,,0,0,0,0,14,0,14,0,,,,,,,,,,,,,,,14,635.4173095757578,636.4180790303071,1,636.4180790303071,X,d,go,d,1,,0.6675621818139916,,,,,,,,,,,,,,,,,88,001,20,w,Psychologie,2023-02-01_12h01.20.148,00_bat_bachelor,2022.2.4,59.90415335705001,
,,,,1,0,1,0,0,0,0,0,,,,,,,,,,,,,,,0,687.8737968484929,688.0736334545509,0.2,688.0736334545509,X,d,go,d,1,,0.6126797575707315,637.8196087272809,j,50.02121260605054,,,,,,,,,,,,,,88,001,20,w,Psychologie,2023-02-01_12h01.20.148,00_bat_bachelor,2022.2.4,59.90415335705001,
,,,,1,0,1,0,1,0,1,0,,,,,,,,,,,,,,,1,689.3915224242519,689.5917396363657,0.2,689.5917396363657,Y,l,go,l,1,,0.5813856969616609,,,,,,,,,,,,,,,,,88,001,20,w,Psychologie,2023-02-01_12h01.20.148,00_bat_bachelor,2022.2.4,59.90415335705001,
,,,,1,0,1,0,2,0,2,0,,,,,,,,,,,,,,,2,690.875790545455,691.0761023030354,0.2,691.0761023030354,X,d,go,d,1,,0.4257658181741135,,,,,,,,,,,,,,,,,88,001,20,w,Psychologie,2023-02-01_12h01.20.148,00_bat_bachelor,2022.2.4,59.90415335705001,
,,,,1,0,1,0,3,0,3,0,,,,,,,,,,,,,,,3,692.210142060605,692.4103544242535,0.2,692.4103544242535,Y,l,go,l,1,,0.4827175757527584,,,,,,,,,,,,,,,,,88,001,20,w,Psychologie,2023-02-01_12h01.20.148,00_bat_bachelor,2022.2.4,59.90415335705001,
,,,,1,0,1,0,4,0,4,0,,,,,,,,,,,,,,,4,693.5947098181932,693.7947917575802,0.2,693.7947917575802,Y,None,nogo,d,0,,0.6509818181802984,,,,,,,,,,,,,,,,,88,001,20,w,Psychologie,2023-02-01_12h01.20.148,00_bat_bachelor,2022.2.4,59.90415335705001,
,,,,1,0,1,0,5,0,5,0,,,,,,,,,,,,,,,5,695.5462191515253,695.7461352727405,0.2,695.7461352727405,X,d,go,None,0,696.54689115152,,,,,,,,,,,,,,,,,,88,001,20,w,Psychologie,2023-02-01_12h01.20.148,00_bat_bachelor,2022.2.4,59.90415335705001,
,,,,1,0,1,0,6,0,6,0,,,,,,,,,,,,,,,6,697.1473721212242,697.3474026666663,0.2,697.3474026666663,Y,l,go,None,0,698.1481663030427,,,,,,,,,,,,,,,,,,88,001,20,w,Psychologie,2023-02-01_12h01.20.148,00_bat_bachelor,2022.2.4,59.90415335705001,
,,,,1,0,1,0,7,0,7,0,,,,,,,,,,,,,,,7,698.7484038787952,698.9488058181887,0.2,698.9488058181887,X,d,go,d,1,,0.5690356363629689,,,,,,,,,,,,,,,,,88,001,20,w,Psychologie,2023-02-01_12h01.20.148,00_bat_bachelor,2022.2.4,59.90415335705001,
,,,,1,0,1,0,8,0,8,0,,,,,,,,,,,,,,,8,700.2330564848526,700.4332935757702,0.2,700.4332935757702,X,None,nogo,None,1,701.2338812121307,,,,,,,,,,,,,,,,,,88,001,20,w,Psychologie,2023-02-01_12h01.20.148,00_bat_bachelor,2022.2.4,59.90415335705001,
,,,,1,0,1,0,9,0,9,0,,,,,,,,,,,,,,,9,701.8342783030384,702.0342414545448,0.2,702.0342414545448,Y,l,go,l,1,,0.5869570909126196,,,,,,,,,,,,,,,,,88,001,20,w,Psychologie,2023-02-01_12h01.20.148,00_bat_bachelor,2022.2.4,59.90415335705001,
,,,,1,0,1,0,10,0,10,0,,,,,,,,,,,,,,,10,703.3354220606125,703.5355709090945,0.2,703.5355709090945,X,d,go,d,1,,0.4463839999953052,,,,,,,,,,,,,,,,,88,001,20,w,Psychologie,2023-02-01_12h01.20.148,00_bat_bachelor,2022.2.4,59.90415335705001,
,,,,1,0,1,0,11,0,11,0,,,,,,,,,,,,,,,11,704.6864591515186,704.8864867878874,0.2,704.8864867878874,Y,l,go,l,1,,0.663674181807437,,,,,,,,,,,,,,,,,88,001,20,w,Psychologie,2023-02-01_12h01.20.148,00_bat_bachelor,2022.2.4,59.90415335705001,
,,,,1,0,1,0,12,0,12,0,,,,,,,,,,,,,,,12,706.2543776969687,706.4543136969733,0.2,706.4543136969733,X,d,go,None,0,,,,,,,,,,,,,,,,,,,88,001,20,w,Psychologie,2023-02-01_12h01.20.148,00_bat_bachelor,2022.2.4,59.90415335705001,
,,,,1,0,1,0,13,0,13,0,,,,,,,,,,,,,,,13,707.8553890909097,708.0555258181848,0.2,708.0555258181848,Y,l,go,None,0,708.8562550303031,,,,,,,,,,,,,,,,,,88,001,20,w,Psychologie,2023-02-01_12h01.20.148,00_bat_bachelor,2022.2.4,59.90415335705001,
,,,,1,0,1,0,14,0,14,0,,,,,,,,,,,,,,,14,709.456560969702,709.6567718787992,0.2,709.6567718787992,X,d,go,None,0,710.4575592727342,,,,,,,,,,,,,,,,,,88,001,20,w,Psychologie,2023-02-01_12h01.20.148,00_bat_bachelor,2022.2.4,59.90415335705001,
,,,,,,,,,,,,,,,,,,,,,,,,,,,,,,,,,,,,,,711.089686787891,None,,711.089686787891,711.089686787891,space,15.11961212119786,,,,,,,,,,88,001,20,w,Psychologie,2023-02-01_12h01.20.148,00_bat_bachelor,2022.2.4,59.90415335705001,
,,,,,,,,,,,,0,0,0,0,0,0,0,0,,,,,,,0,,,1,727.2368509091029,X,d,go,d,1,,0.5362084848457016,,,,,,,,,,,,,,,,,88,001,20,w,Psychologie,2023-02-01_12h01.20.148,00_bat_bachelor,2022.2.4,59.90415335705001,
,,,,,,,,,,,,0,0,0,0,1,0,1,0,,,,,,,1,,,1,728.8881900606066,Y,l,go,l,1,,0.5656974545418052,,,,,,,,,,,,,,,,,88,001,20,w,Psychologie,2023-02-01_12h01.20.148,00_bat_bachelor,2022.2.4,59.90415335705001,
,,,,,,,,,,,,0,0,0,0,2,0,2,0,,,,,,,2,,,1,730.5560940606083,X,d,go,None,0,731.3563665454567,,,,,,,,,,,,,,,,,,88,001,20,w,Psychologie,2023-02-01_12h01.20.148,00_bat_bachelor,2022.2.4,59.90415335705001,
,,,,,,,,,,,,0,0,0,0,3,0,3,0,,,,,,,3,,,1,732.3574055757636,X,None,nogo,None,1,,,,,,,,,,,,,,,,,,,88,001,20,w,Psychologie,2023-02-01_12h01.20.148,00_bat_bachelor,2022.2.4,59.90415335705001,
,,,,,,,,,,,,0,0,0,0,4,0,4,0,,,,,,,4,,,1,734.1588072727318,Y,l,go,None,0,734.9594332121342,,,,,,,,,,,,,,,,,,88,001,20,w,Psychologie,2023-02-01_12h01.20.148,00_bat_bachelor,2022.2.4,59.90415335705001,
,,,,,,,,,,,,0,0,0,0,5,0,5,0,,,,,,,5,,,1,735.9601672727294,X,d,go,None,0,,,,,,,,,,,,,,,,,,,88,001,20,w,Psychologie,2023-02-01_12h01.20.148,00_bat_bachelor,2022.2.4,59.90415335705001,
,,,,,,,,,,,,0,0,0,0,6,0,6,0,,,,,,,6,,,1,737.7612669091031,Y,l,go,l,1,,0.5724732121161651,,,,,,,,,,,,,,,,,88,001,20,w,Psychologie,2023-02-01_12h01.20.148,00_bat_bachelor,2022.2.4,59.90415335705001,
,,,,,,,,,,,,0,0,0,0,7,0,7,0,,,,,,,7,,,1,739.4458690909087,X,d,go,None,0,,,,,,,,,,,,,,,,,,,88,001,20,w,Psychologie,2023-02-01_12h01.20.148,00_bat_bachelor,2022.2.4,59.90415335705001,
,,,,,,,,,,,,0,0,0,0,8,0,8,0,,,,,,,8,,,1,741.2476048484968,Y,l,go,l,1,,0.3345279999921331,,,,,,,,,,,,,,,,,88,001,20,w,Psychologie,2023-02-01_12h01.20.148,00_bat_bachelor,2022.2.4,59.90415335705001,
,,,,,,,,,,,,0,0,0,0,9,0,9,0,,,,,,,9,,,1,742.6986972121231,X,d,go,d,1,,0.4344678787747398,,,,,,,,,,,,,,,,,88,001,20,w,Psychologie,2023-02-01_12h01.20.148,00_bat_bachelor,2022.2.4,59.90415335705001,
,,,,,,,,,,,,0,0,0,0,10,0,10,0,,,,,,,10,,,1,744.2498046060646,Y,l,go,l,1,,0.46801890908682253,,,,,,,,,,,,,,,,,88,001,20,w,Psychologie,2023-02-01_12h01.20.148,00_bat_bachelor,2022.2.4,59.90415335705001,
,,,,,,,,,,,,0,0,0,0,11,0,11,0,,,,,,,11,,,1,745.8342598788004,X,d,go,d,1,,0.515164121214184,,,,,,,,,,,,,,,,,88,001,20,w,Psychologie,2023-02-01_12h01.20.148,00_bat_bachelor,2022.2.4,59.90415335705001,
,,,,,,,,,,,,0,0,0,0,12,0,12,0,,,,,,,12,,,1,747.4523141818208,X,None,nogo,None,1,,,,,,,,,,,,,,,,,,,88,001,20,w,Psychologie,2023-02-01_12h01.20.148,00_bat_bachelor,2022.2.4,59.90415335705001,
,,,,,,,,,,,,0,0,0,0,13,0,13,0,,,,,,,13,,,1,749.2536630303075,Y,l,go,l,1,,0.4877216969616711,,,,,,,,,,,,,,,,,88,001,20,w,Psychologie,2023-02-01_12h01.20.148,00_bat_bachelor,2022.2.4,59.90415335705001,
,,,,,,,,,,,,0,0,0,0,14,0,14,0,,,,,,,14,,,1,750.8545624242543,X,d,go,None,0,,,,,,,,,,,,,,,,,,,88,001,20,w,Psychologie,2023-02-01_12h01.20.148,00_bat_bachelor,2022.2.4,59.90415335705001,
,,,,,,,,,,,,0,0,0,0,15,0,15,0,,,,,,,15,,,1,752.6562472727383,X,None,nogo,None,1,,,,,,,,,,,,,,,,,,,88,001,20,w,Psychologie,2023-02-01_12h01.20.148,00_bat_bachelor,2022.2.4,59.90415335705001,
,,,,,,,,,,,,0,0,0,0,16,0,16,0,,,,,,,16,,,1,754.4575306666666,Y,l,go,l,1,,0.5003384242299944,,,,,,,,,,,,,,,,,88,001,20,w,Psychologie,2023-02-01_12h01.20.148,00_bat_bachelor,2022.2.4,59.90415335705001,
,,,,,,,,,,,,0,0,0,0,17,0,17,0,,,,,,,17,,,1,756.0588140606123,X,d,go,d,1,,0.6590686060517328,,,,,,,,,,,,,,,,,88,001,20,w,Psychologie,2023-02-01_12h01.20.148,00_bat_bachelor,2022.2.4,59.90415335705001,
,,,,,,,,,,,,0,0,0,0,18,0,18,0,,,,,,,18,,,1,757.8268014545465,Y,l,go,l,1,,0.5707583030161913,,,,,,,,,,,,,,,,,88,001,20,w,Psychologie,2023-02-01_12h01.20.148,00_bat_bachelor,2022.2.4,59.90415335705001,
,,,,,,,,,,,,0,0,0,0,19,0,19,0,,,,,,,19,,,1,759.5111670303158,X,d,go,d,1,,0.5984392727259547,,,,,,,,,,,,,,,,,88,001,20,w,Psychologie,2023-02-01_12h01.20.148,00_bat_bachelor,2022.2.4,59.90415335705001,
,,,,,,,,,,,,0,0,0,0,20,0,20,0,,,,,,,20,,,1,761.2127204848512,Y,l,go,l,1,,0.5136824242363218,,,,,,,,,,,,,,,,,88,001,20,w,Psychologie,2023-02-01_12h01.20.148,00_bat_bachelor,2022.2.4,59.90415335705001,
,,,,,,,,,,,,0,0,0,0,21,0,21,0,,,,,,,21,,,1,762.8306855757692,X,d,go,d,1,,0.4948470302915666,,,,,,,,,,,,,,,,,88,001,20,w,Psychologie,2023-02-01_12h01.20.148,00_bat_bachelor,2022.2.4,59.90415335705001,
,,,,,,,,,,,,0,0,0,0,22,0,22,0,,,,,,,22,,,1,764.4319675151637,X,None,nogo,None,1,,,,,,,,,,,,,,,,,,,88,001,20,w,Psychologie,2023-02-01_12h01.20.148,00_bat_bachelor,2022.2.4,59.90415335705001,
,,,,,,,,,,,,0,0,0,0,23,0,23,0,,,,,,,23,,,1,766.2333376969764,Y,l,go,None,0,,,,,,,,,,,,,,,,,,,88,001,20,w,Psychologie,2023-02-01_12h01.20.148,00_bat_bachelor,2022.2.4,59.90415335705001,
,,,,,,,,,,,,0,0,0,0,24,0,24,0,,,,,,,24,,,1,768.0343941818282,X,d,go,d,1,,0.37950739392545074,,,,,,,,,,,,,,,,,88,001,20,w,Psychologie,2023-02-01_12h01.20.148,00_bat_bachelor,2022.2.4,59.90415335705001,
,,,,,,,,,,,,0,0,0,0,25,0,25,0,,,,,,,25,,,1,769.5189095757669,X,None,nogo,None,1,,,,,,,,,,,,,,,,,,,88,001,20,w,Psychologie,2023-02-01_12h01.20.148,00_bat_bachelor,2022.2.4,59.90415335705001,
,,,,,,,,,,,,0,0,0,0,26,0,26,0,,,,,,,26,,,1,771.3203922424291,Y,l,go,l,1,,0.630433939397335,,,,,,,,,,,,,,,,,88,001,20,w,Psychologie,2023-02-01_12h01.20.148,00_bat_bachelor,2022.2.4,59.90415335705001,
,,,,,,,,,,,,0,0,0,0,27,0,27,0,,,,,,,27,,,1,773.055235393942,X,d,go,None,0,,,,,,,,,,,,,,,,,,,88,001,20,w,Psychologie,2023-02-01_12h01.20.148,00_bat_bachelor,2022.2.4,59.90415335705001,
,,,,,,,,,,,,0,0,0,0,28,0,28,0,,,,,,,28,,,1,774.8565633939434,Y,l,go,l,1,,0.5652867878670804,,,,,,,,,,,,,,,,,88,001,20,w,Psychologie,2023-02-01_12h01.20.148,00_bat_bachelor,2022.2.4,59.90415335705001,
,,,,,,,,,,,,0,0,0,0,29,0,29,0,,,,,,,29,,,1,776.5243995151541,X,d,go,d,1,,0.656715636345325,,,,,,,,,,,,,,,,,88,001,20,w,Psychologie,2023-02-01_12h01.20.148,00_bat_bachelor,2022.2.4,59.90415335705001,
,,,,,,,,,,,,0,0,0,0,30,0,30,0,,,,,,,30,,,1,778.2923733333446,Y,l,go,l,1,,0.4268179393839091,,,,,,,,,,,,,,,,,88,001,20,w,Psychologie,2023-02-01_12h01.20.148,00_bat_bachelor,2022.2.4,59.90415335705001,
,,,,,,,,,,,,0,0,0,0,31,0,31,0,,,,,,,31,,,1,779.8270113939507,X,d,go,d,1,,0.2989658181613777,,,,,,,,,,,,,,,,,88,001,20,w,Psychologie,2023-02-01_12h01.20.148,00_bat_bachelor,2022.2.4,59.90415335705001,
,,,,,,,,,,,,0,0,0,0,32,0,32,0,,,,,,,32,,,1,781.2279461818252,X,None,nogo,None,1,,,,,,,,,,,,,,,,,,,88,001,20,w,Psychologie,2023-02-01_12h01.20.148,00_bat_bachelor,2022.2.4,59.90415335705001,
,,,,,,,,,,,,0,0,0,0,33,0,33,0,,,,,,,33,,,1,783.0293677575828,Y,l,go,l,1,,0.37665890908101574,,,,,,,,,,,,,,,,,88,001,20,w,Psychologie,2023-02-01_12h01.20.148,00_bat_bachelor,2022.2.4,59.90415335705001,
,,,,,,,,,,,,0,0,0,0,34,0,34,0,,,,,,,34,,,1,784.5139098181826,X,d,go,d,1,,0.5086579393828288,,,,,,,,,,,,,,,,,88,001,20,w,Psychologie,2023-02-01_12h01.20.148,00_bat_bachelor,2022.2.4,59.90415335705001,
,,,,,,,,,,,,0,0,0,0,35,0,35,0,,,,,,,35,,,1,786.1324150303117,Y,l,go,None,0,786.9329241212254,,,,,,,,,,,,,,,,,,88,001,20,w,Psychologie,2023-02-01_12h01.20.148,00_bat_bachelor,2022.2.4,59.90415335705001,
,,,,,,,,,,,,0,0,0,0,36,0,36,0,,,,,,,36,,,1,787.9338598787872,Y,None,nogo,l,0,,0.6393798787757987,,,,,,,,,,,,,,,,,88,001,20,w,Psychologie,2023-02-01_12h01.20.148,00_bat_bachelor,2022.2.4,59.90415335705001,
,,,,,,,,,,,,0,0,0,0,37,0,37,0,,,,,,,37,,,1,789.7019936969737,Y,None,nogo,None,1,790.5025968484842,,,,,,,,,,,,,,,,,,88,001,20,w,Psychologie,2023-02-01_12h01.20.148,00_bat_bachelor,2022.2.4,59.90415335705001,
,,,,,,,,,,,,0,0,0,0,38,0,38,0,,,,,,,38,,,1,791.5029338181921,X,d,go,d,1,,0.5892644848354394,,,,,,,,,,,,,,,,,88,001,20,w,Psychologie,2023-02-01_12h01.20.148,00_bat_bachelor,2022.2.4,59.90415335705001,
,,,,,,,,,,,,0,0,0,0,39,0,39,0,,,,,,,39,,,1,793.2211670303077,Y,l,go,l,1,,0.3929163636203157,,,,,,,,,,,,,,,,,88,001,20,w,Psychologie,2023-02-01_12h01.20.148,00_bat_bachelor,2022.2.4,59.90415335705001,
,,,,,,,,,,,,0,0,0,0,40,0,40,0,,,,,,,40,,,1,794.7223840000079,Y,None,nogo,None,1,795.5230850909138,,,,,,,,,,,,,,,,,,88,001,20,w,Psychologie,2023-02-01_12h01.20.148,00_bat_bachelor,2022.2.4,59.90415335705001,
,,,,,,,,,,,,0,0,0,0,41,0,41,0,,,,,,,41,,,1,796.523472484856,X,d,go,d,1,,0.5290201212046668,,,,,,,,,,,,,,,,,88,001,20,w,Psychologie,2023-02-01_12h01.20.148,00_bat_bachelor,2022.2.4,59.90415335705001,
,,,,,,,,,,,,0,0,0,0,42,0,42,0,,,,,,,42,,,1,798.1749978181906,Y,l,go,l,1,,0.3823127272626152,,,,,,,,,,,,,,,,,88,001,20,w,Psychologie,2023-02-01_12h01.20.148,00_bat_bachelor,2022.2.4,59.90415335705001,
,,,,,,,,,,,,0,0,0,0,43,0,43,0,,,,,,,43,,,1,799.6758681212232,Y,None,nogo,None,1,800.4762336969725,,,,,,,,,,,,,,,,,,88,001,20,w,Psychologie,2023-02-01_12h01.20.148,00_bat_bachelor,2022.2.4,59.90415335705001,
,,,,,,,,,,,,0,0,0,0,44,0,44,0,,,,,,,44,,,1,801.4771946666733,X,d,go,d,1,,0.2798249696934363,,,,,,,,,,,,,,,,,88,001,20,w,Psychologie,2023-02-01_12h01.20.148,00_bat_bachelor,2022.2.4,59.90415335705001,
,,,,,,,,,,,,0,0,0,0,45,0,45,0,,,,,,,45,,,1,802.8613847272791,Y,l,go,l,1,,0.30356654545175843,,,,,,,,,,,,,,,,,88,001,20,w,Psychologie,2023-02-01_12h01.20.148,00_bat_bachelor,2022.2.4,59.90415335705001,
,,,,,,,,,,,,0,0,0,0,46,0,46,0,,,,,,,46,,,1,804.2958860606159,X,d,go,d,1,,0.38900218182243407,,,,,,,,,,,,,,,,,88,001,20,w,Psychologie,2023-02-01_12h01.20.148,00_bat_bachelor,2022.2.4,59.90415335705001,
,,,,,,,,,,,,0,0,0,0,47,0,47,0,,,,,,,47,,,1,805.7971553939424,X,None,nogo,None,1,806.5975835151621,,,,,,,,,,,,,,,,,,88,001,20,w,Psychologie,2023-02-01_12h01.20.148,00_bat_bachelor,2022.2.4,59.90415335705001,
,,,,,,,,,,,,0,0,0,0,48,0,48,0,,,,,,,48,,,1,807.5985207272752,Y,l,go,d,0,,0.33391369695891626,,,,,,,,,,,,,,,,,88,001,20,w,Psychologie,2023-02-01_12h01.20.148,00_bat_bachelor,2022.2.4,59.90415335705001,
,,,,,,,,,,,,0,0,0,0,49,0,49,0,,,,,,,49,,,1,809.049601939405,X,d,go,None,0,809.8500096969801,,,,,,,,,,,,,,,,,,88,001,20,w,Psychologie,2023-02-01_12h01.20.148,00_bat_bachelor,2022.2.4,59.90415335705001,
,,,,,,,,,,,,0,0,0,0,50,0,50,0,,,,,,,50,,,1,810.850785454546,X,None,nogo,None,1,811.6509042424295,,,,,,,,,,,,,,,,,,88,001,20,w,Psychologie,2023-02-01_12h01.20.148,00_bat_bachelor,2022.2.4,59.90415335705001,
,,,,,,,,,,,,0,0,0,0,51,0,51,0,,,,,,,51,,,1,812.6519258181943,Y,l,go,l,1,,0.43382884848688263,,,,,,,,,,,,,,,,,88,001,20,w,Psychologie,2023-02-01_12h01.20.148,00_bat_bachelor,2022.2.4,59.90415335705001,
,,,,,,,,,,,,0,0,0,0,52,0,52,0,,,,,,,52,,,1,814.1861808484973,X,d,go,d,1,,0.5145939393987646,,,,,,,,,,,,,,,,,88,001,20,w,Psychologie,2023-02-01_12h01.20.148,00_bat_bachelor,2022.2.4,59.90415335705001,
,,,,,,,,,,,,0,0,0,0,53,0,53,0,,,,,,,53,,,1,815.8044358787884,X,None,nogo,None,1,,,,,,,,,,,,,,,,,,,88,001,20,w,Psychologie,2023-02-01_12h01.20.148,00_bat_bachelor,2022.2.4,59.90415335705001,
,,,,,,,,,,,,0,0,0,0,54,0,54,0,,,,,,,54,,,1,817.6056552727387,Y,l,go,l,1,,0.3610099393990822,,,,,,,,,,,,,,,,,88,001,20,w,Psychologie,2023-02-01_12h01.20.148,00_bat_bachelor,2022.2.4,59.90415335705001,
,,,,,,,,,,,,0,0,0,0,55,0,55,0,,,,,,,55,,,1,819.0735229090933,X,d,go,d,1,,0.5075350303086452,,,,,,,,,,,,,,,,,88,001,20,w,Psychologie,2023-02-01_12h01.20.148,00_bat_bachelor,2022.2.4,59.90415335705001,
,,,,,,,,,,,,0,0,0,0,56,0,56,0,,,,,,,56,,,1,820.6911878787942,X,None,nogo,None,1,,,,,,,,,,,,,,,,,,,88,001,20,w,Psychologie,2023-02-01_12h01.20.148,00_bat_bachelor,2022.2.4,59.90415335705001,
,,,,,,,,,,,,0,0,0,0,57,0,57,0,,,,,,,57,,,1,822.4927156363701,Y,l,go,l,1,,0.3688547878700774,,,,,,,,,,,,,,,,,88,001,20,w,Psychologie,2023-02-01_12h01.20.148,00_bat_bachelor,2022.2.4,59.90415335705001,
,,,,,,,,,,,,0,0,0,0,58,0,58,0,,,,,,,58,,,1,823.977233454556,X,d,go,None,0,,,,,,,,,,,,,,,,,,,88,001,20,w,Psychologie,2023-02-01_12h01.20.148,00_bat_bachelor,2022.2.4,59.90415335705001,
,,,,,,,,,,,,0,0,0,0,59,0,59,0,,,,,,,59,,,1,825.7783675151586,Y,l,go,l,1,,0.5232819393859245,,,,,,,,,,,,,,,,,88,001,20,w,Psychologie,2023-02-01_12h01.20.148,00_bat_bachelor,2022.2.4,59.90415335705001,
,,,,,,,,,,,,0,0,0,0,60,0,60,0,,,,,,,60,,,1,827.4132940606069,Y,None,nogo,d,0,,0.21675006060104351,,,,,,,,,,,,,,,,,88,001,20,w,Psychologie,2023-02-01_12h01.20.148,00_bat_bachelor,2022.2.4,59.90415335705001,
,,,,,,,,,,,,0,0,0,0,61,0,61,0,,,,,,,61,,,1,828.730587636368,X,d,go,None,0,829.5312266666733,,,,,,,,,,,,,,,,,,88,001,20,w,Psychologie,2023-02-01_12h01.20.148,00_bat_bachelor,2022.2.4,59.90415335705001,
,,,,,,,,,,,,0,0,0,0,62,0,62,0,,,,,,,62,,,1,830.5322269090975,Y,l,go,l,1,,0.5851519999996526,,,,,,,,,,,,,,,,,88,001,20,w,Psychologie,2023-02-01_12h01.20.148,00_bat_bachelor,2022.2.4,59.90415335705001,
,,,,,,,,,,,,0,0,0,0,63,0,63,0,,,,,,,63,,,1,832.2335776969703,X,d,go,d,1,,0.4037721212080214,,,,,,,,,,,,,,,,,88,001,20,w,Psychologie,2023-02-01_12h01.20.148,00_bat_bachelor,2022.2.4,59.90415335705001,
,,,,,,,,,,,,0,0,0,0,64,0,64,0,,,,,,,64,,,1,833.7520906666759,X,None,nogo,None,1,834.5527335757652,,,,,,,,,,,,,,,,,,88,001,20,w,Psychologie,2023-02-01_12h01.20.148,00_bat_bachelor,2022.2.4,59.90415335705001,
,,,,,,,,,,,,0,0,0,0,65,0,65,0,,,,,,,65,,,1,835.5536363636493,Y,l,go,l,1,,0.44309090908791404,,,,,,,,,,,,,,,,,88,001,20,w,Psychologie,2023-02-01_12h01.20.148,00_bat_bachelor,2022.2.4,59.90415335705001,
,,,,,,,,,,,,0,0,0,0,66,0,66,0,,,,,,,66,,,1,837.121084121216,X,d,go,None,0,837.9219646060665,,,,,,,,,,,,,,,,,,88,001,20,w,Psychologie,2023-02-01_12h01.20.148,00_bat_bachelor,2022.2.4,59.90415335705001,
,,,,,,,,,,,,0,0,0,0,67,0,67,0,,,,,,,67,,,1,838.9224276363675,Y,l,go,l,1,,0.562186181821744,,,,,,,,,,,,,,,,,88,001,20,w,Psychologie,2023-02-01_12h01.20.148,00_bat_bachelor,2022.2.4,59.90415335705001,
,,,,,,,,,,,,0,0,0,0,68,0,68,0,,,,,,,68,,,1,840.6072320000094,X,d,go,d,1,,0.4773498181748437,,,,,,,,,,,,,,,,,88,001,20,w,Psychologie,2023-02-01_12h01.20.148,00_bat_bachelor,2022.2.4,59.90415335705001,
,,,,,,,,,,,,0,0,0,0,69,0,69,0,,,,,,,69,,,1,842.2083912727394,X,None,nogo,None,1,843.0093352727272,,,,,,,,,,,,,,,,,,88,001,20,w,Psychologie,2023-02-01_12h01.20.148,00_bat_bachelor,2022.2.4,59.90415335705001,
,,,,,,,,,,,,0,0,0,0,70,0,70,0,,,,,,,70,,,1,844.0099083636451,Y,l,go,l,1,,0.3704310303000966,,,,,,,,,,,,,,,,,88,001,20,w,Psychologie,2023-02-01_12h01.20.148,00_bat_bachelor,2022.2.4,59.90415335705001,
,,,,,,,,,,,,0,0,0,0,71,0,71,0,,,,,,,71,,,1,845.5108101818187,X,d,go,d,1,,0.2613294545299141,,,,,,,,,,,,,,,,,88,001,20,w,Psychologie,2023-02-01_12h01.20.148,00_bat_bachelor,2022.2.4,59.90415335705001,
,,,,,,,,,,,,0,0,0,0,72,0,72,0,,,,,,,72,,,1,846.9118889696983,Y,l,go,l,1,,0.4142715151538141,,,,,,,,,,,,,,,,,88,001,20,w,Psychologie,2023-02-01_12h01.20.148,00_bat_bachelor,2022.2.4,59.90415335705001,
,,,,,,,,,,,,0,0,0,0,73,0,73,0,,,,,,,73,,,1,848.4294875151536,X,d,go,d,1,,0.41491539393609855,,,,,,,,,,,,,,,,,88,001,20,w,Psychologie,2023-02-01_12h01.20.148,00_bat_bachelor,2022.2.4,59.90415335705001,
,,,,,,,,,,,,0,0,0,0,74,0,74,0,,,,,,,74,,,1,849.964272969708,X,None,nogo,None,1,850.7651389090897,,,,,,,,,,,,,,,,,,88,001,20,w,Psychologie,2023-02-01_12h01.20.148,00_bat_bachelor,2022.2.4,59.90415335705001,
,,,,,,,,,,,,0,0,0,0,75,0,75,0,,,,,,,75,,,1,851.765910303031,Y,l,go,l,1,,0.3270671515056165,,,,,,,,,,,,,,,,,88,001,20,w,Psychologie,2023-02-01_12h01.20.148,00_bat_bachelor,2022.2.4,59.90415335705001,
,,,,,,,,,,,,0,0,0,0,76,0,76,0,,,,,,,76,,,1,853.2168993939413,X,d,go,None,0,854.0176785454678,,,,,,,,,,,,,,,,,,88,001,20,w,Psychologie,2023-02-01_12h01.20.148,00_bat_bachelor,2022.2.4,59.90415335705001,
,,,,,,,,,,,,0,0,0,0,77,0,77,0,,,,,,,77,,,1,855.0180416969815,Y,l,go,l,1,,0.4352213333331747,,,,,,,,,,,,,,,,,88,001,20,w,Psychologie,2023-02-01_12h01.20.148,00_bat_bachelor,2022.2.4,59.90415335705001,
,,,,,,,,,,,,0,0,0,0,78,0,78,0,,,,,,,78,,,1,856.5862191515189,X,d,go,d,1,,0.45077430302626453,,,,,,,,,,,,,,,,,88,001,20,w,Psychologie,2023-02-01_12h01.20.148,00_bat_bachelor,2022.2.4,59.90415335705001,
,,,,,,,,,,,,0,0,0,0,79,0,79,0,,,,,,,79,,,1,858.1540024242422,Y,l,go,l,1,,0.41891927272081375,,,,,,,,,,,,,,,,,88,001,20,w,Psychologie,2023-02-01_12h01.20.148,00_bat_bachelor,2022.2.4,59.90415335705001,
,,,,,,,,,,,,0,0,0,0,80,0,80,0,,,,,,,80,,,1,859.7050317575777,X,d,go,d,1,,0.38796557574823964,,,,,,,,,,,,,,,,,88,001,20,w,Psychologie,2023-02-01_12h01.20.148,00_bat_bachelor,2022.2.4,59.90415335705001,
,,,,,,,,,,,,0,0,0,0,81,0,81,0,,,,,,,81,,,1,861.2229076363728,X,None,nogo,None,1,862.0237406060623,,,,,,,,,,,,,,,,,,88,001,20,w,Psychologie,2023-02-01_12h01.20.148,00_bat_bachelor,2022.2.4,59.90415335705001,
,,,,,,,,,,,,0,0,0,0,82,0,82,0,,,,,,,82,,,1,863.024156121217,Y,l,go,l,1,,0.2530855757504469,,,,,,,,,,,,,,,,,88,001,20,w,Psychologie,2023-02-01_12h01.20.148,00_bat_bachelor,2022.2.4,59.90415335705001,
,,,,,,,,,,,,0,0,0,0,83,0,83,0,,,,,,,83,,,1,864.4085808484961,X,d,go,d,1,,0.37237381817249116,,,,,,,,,,,,,,,,,88,001,20,w,Psychologie,2023-02-01_12h01.20.148,00_bat_bachelor,2022.2.4,59.90415335705001,
,,,,,,,,,,,,0,0,0,0,84,0,84,0,,,,,,,84,,,1,865.9099311515165,Y,l,go,l,1,,0.29498230303579476,,,,,,,,,,,,,,,,,88,001,20,w,Psychologie,2023-02-01_12h01.20.148,00_bat_bachelor,2022.2.4,59.90415335705001,
,,,,,,,,,,,,0,0,0,0,85,0,85,0,,,,,,,85,,,1,867.31105503031,X,d,go,d,1,,0.18952484847977757,,,,,,,,,,,,,,,,,88,001,20,w,Psychologie,2023-02-01_12h01.20.148,00_bat_bachelor,2022.2.4,59.90415335705001,
,,,,,,,,,,,,0,0,0,0,86,0,86,0,,,,,,,86,,,1,868.628657454552,Y,l,go,l,1,,0.23230351513484493,,,,,,,,,,,,,,,,,88,001,20,w,Psychologie,2023-02-01_12h01.20.148,00_bat_bachelor,2022.2.4,59.90415335705001,
,,,,,,,,,,,,0,0,0,0,87,0,87,0,,,,,,,87,,,1,869.9793609697081,Y,None,nogo,d,0,,0.2890535757614998,,,,,,,,,,,,,,,,,88,001,20,w,Psychologie,2023-02-01_12h01.20.148,00_bat_bachelor,2022.2.4,59.90415335705001,
,,,,,,,,,,,,0,0,0,0,88,0,88,0,,,,,,,88,,,1,871.396934303033,X,d,go,None,0,872.1977207272721,,,,,,,,,,,,,,,,,,88,001,20,w,Psychologie,2023-02-01_12h01.20.148,00_bat_bachelor,2022.2.4,59.90415335705001,
,,,,,,,,,,,,0,0,0,0,89,0,89,0,,,,,,,89,,,1,873.1980853333371,Y,l,go,l,1,,0.6555335757584544,,,,,,,,,,,,,,,,,88,001,20,w,Psychologie,2023-02-01_12h01.20.148,00_bat_bachelor,2022.2.4,59.90415335705001,
,,,,,,,,,,,,0,0,0,0,90,0,90,0,,,,,,,90,,,1,874.9662370909209,Y,None,nogo,None,1,,,,,,,,,,,,,,,,,,,88,001,20,w,Psychologie,2023-02-01_12h01.20.148,00_bat_bachelor,2022.2.4,59.90415335705001,
,,,,,,,,,,,,0,0,0,0,91,0,91,0,,,,,,,91,,,1,876.7677197575831,Y,None,nogo,None,1,877.5682007272844,,,,,,,,,,,,,,,,,,88,001,20,w,Psychologie,2023-02-01_12h01.20.148,00_bat_bachelor,2022.2.4,59.90415335705001,
,,,,,,,,,,,,0,0,0,0,92,0,92,0,,,,,,,92,,,1,878.5688722424238,X,d,go,d,1,,0.4049823030218249,,,,,,,,,,,,,,,,,88,001,20,w,Psychologie,2023-02-01_12h01.20.148,00_bat_bachelor,2022.2.4,59.90415335705001,
,,,,,,,,,,,,0,0,0,0,93,0,93,0,,,,,,,93,,,1,880.086883878801,Y,l,go,None,0,880.8874099394016,,,,,,,,,,,,,,,,,,88,001,20,w,Psychologie,2023-02-01_12h01.20.148,00_bat_bachelor,2022.2.4,59.90415335705001,
,,,,,,,,,,,,0,0,0,0,94,0,94,0,,,,,,,94,,,1,881.8882569697016,Y,None,nogo,l,0,,0.6534821818058845,,,,,,,,,,,,,,,,,88,001,20,w,Psychologie,2023-02-01_12h01.20.148,00_bat_bachelor,2022.2.4,59.90415335705001,
,,,,,,,,,,,,0,0,0,0,95,0,95,0,,,,,,,95,,,1,883.6562516363629,X,d,go,d,1,,0.6458036363474093,,,,,,,,,,,,,,,,,88,001,20,w,Psychologie,2023-02-01_12h01.20.148,00_bat_bachelor,2022.2.4,59.90415335705001,
,,,,,,,,,,,,0,0,0,0,96,0,96,0,,,,,,,96,,,1,885.4076218181872,Y,l,go,None,0,,,,,,,,,,,,,,,,,,,88,001,20,w,Psychologie,2023-02-01_12h01.20.148,00_bat_bachelor,2022.2.4,59.90415335705001,
,,,,,,,,,,,,0,0,0,0,97,0,97,0,,,,,,,97,,,1,887.2087660606194,Y,None,nogo,None,1,888.0095292121259,,,,,,,,,,,,,,,,,,88,001,20,w,Psychologie,2023-02-01_12h01.20.148,00_bat_bachelor,2022.2.4,59.90415335705001,
,,,,,,,,,,,,0,0,0,0,98,0,98,0,,,,,,,98,,,1,889.0101420606079,X,d,go,d,1,,0.6188261818169849,,,,,,,,,,,,,,,,,88,001,20,w,Psychologie,2023-02-01_12h01.20.148,00_bat_bachelor,2022.2.4,59.90415335705001,
,,,,,,,,,,,,0,0,0,0,99,0,99,0,,,,,,,99,,,1,890.7450055757654,Y,l,go,None,0,891.5454676363734,,,,,,,,,,,,,,,,,,88,001,20,w,Psychologie,2023-02-01_12h01.20.148,00_bat_bachelor,2022.2.4,59.90415335705001,
,,,,,,,,,,,,0,0,0,0,100,0,100,0,,,,,,,100,,,1,892.5463321212155,X,d,go,d,1,,0.6513866666646209,,,,,,,,,,,,,,,,,88,001,20,w,Psychologie,2023-02-01_12h01.20.148,00_bat_bachelor,2022.2.4,59.90415335705001,
,,,,,,,,,,,,0,0,0,0,101,0,101,0,,,,,,,101,,,1,894.3141444848588,X,None,nogo,None,1,,,,,,,,,,,,,,,,,,,88,001,20,w,Psychologie,2023-02-01_12h01.20.148,00_bat_bachelor,2022.2.4,59.90415335705001,
,,,,,,,,,,,,0,0,0,0,102,0,102,0,,,,,,,102,,,1,896.1157551515207,Y,l,go,l,1,,0.393646545446245,,,,,,,,,,,,,,,,,88,001,20,w,Psychologie,2023-02-01_12h01.20.148,00_bat_bachelor,2022.2.4,59.90415335705001,
,,,,,,,,,,,,0,0,0,0,103,0,103,0,,,,,,,103,,,1,897.6169498181844,X,d,go,d,1,,0.5096305454499088,,,,,,,,,,,,,,,,,88,001,20,w,Psychologie,2023-02-01_12h01.20.148,00_bat_bachelor,2022.2.4,59.90415335705001,
,,,,,,,,,,,,0,0,0,0,104,0,104,0,,,,,,,104,,,1,899.234659878799,Y,l,go,l,1,,0.4751830302993767,,,,,,,,,,,,,,,,,88,001,20,w,Psychologie,2023-02-01_12h01.20.148,00_bat_bachelor,2022.2.4,59.90415335705001,
,,,,,,,,,,,,0,0,0,0,105,0,105,0,,,,,,,105,,,1,900.8191641212179,X,d,go,d,1,,0.5379743030207464,,,,,,,,,,,,,,,,,88,001,20,w,Psychologie,2023-02-01_12h01.20.148,00_bat_bachelor,2022.2.4,59.90415335705001,
,,,,,,,,,,,,0,0,0,0,106,0,106,0,,,,,,,106,,,1,902.4706792727375,X,None,nogo,None,1,,,,,,,,,,,,,,,,,,,88,001,20,w,Psychologie,2023-02-01_12h01.20.148,00_bat_bachelor,2022.2.4,59.90415335705001,
,,,,,,,,,,,,0,0,0,0,107,0,107,0,,,,,,,107,,,1,904.2719321212207,Y,l,go,l,1,,0.3013231515069492,,,,,,,,,,,,,,,,,88,001,20,w,Psychologie,2023-02-01_12h01.20.148,00_bat_bachelor,2022.2.4,59.90415335705001,
,,,,,,,,,,,,0,0,0,0,108,0,108,0,,,,,,,108,,,1,905.6895699393936,X,d,go,d,1,,0.45127563635469414,,,,,,,,,,,,,,,,,88,001,20,w,Psychologie,2023-02-01_12h01.20.148,00_bat_bachelor,2022.2.4,59.90415335705001,
,,,,,,,,,,,,0,0,0,0,109,0,109,0,,,,,,,109,,,1,907.257612606074,X,None,nogo,None,1,908.0581847272842,,,,,,,,,,,,,,,,,,88,001,20,w,Psychologie,2023-02-01_12h01.20.148,00_bat_bachelor,2022.2.4,59.90415335705001,
,,,,,,,,,,,,0,0,0,0,110,0,110,0,,,,,,,110,,,1,909.0589929697016,Y,l,go,l,1,,0.23513793938036542,,,,,,,,,,,,,,,,,88,001,20,w,Psychologie,2023-02-01_12h01.20.148,00_bat_bachelor,2022.2.4,59.90415335705001,
,,,,,,,,,,,,0,0,0,0,111,0,111,0,,,,,,,111,,,1,910.4097726060718,X,d,go,d,1,,0.5965488484798698,,,,,,,,,,,,,,,,,88,001,20,w,Psychologie,2023-02-01_12h01.20.148,00_bat_bachelor,2022.2.4,59.90415335705001,
,,,,,,,,,,,,0,0,0,0,112,0,112,0,,,,,,,112,,,1,912.1112998788012,X,None,nogo,l,0,,0.6385478787851753,,,,,,,,,,,,,,,,,88,001,20,w,Psychologie,2023-02-01_12h01.20.148,00_bat_bachelor,2022.2.4,59.90415335705001,
,,,,,,,,,,,,0,0,0,0,113,0,113,0,,,,,,,113,,,1,913.8625968484848,Y,l,go,None,0,914.6632528484915,,,,,,,,,,,,,,,,,,88,001,20,w,Psychologie,2023-02-01_12h01.20.148,00_bat_bachelor,2022.2.4,59.90415335705001,
,,,,,,,,,,,,0,0,0,0,114,0,114,0,,,,,,,114,,,1,915.6639980606124,X,d,go,d,1,,0.5896189090854023,,,,,,,,,,,,,,,,,88,001,20,w,Psychologie,2023-02-01_12h01.20.148,00_bat_bachelor,2022.2.4,59.90415335705001,
,,,,,,,,,,,,0,0,0,0,115,0,115,0,,,,,,,115,,,1,917.3652960000036,X,None,nogo,None,1,918.1659612121293,,,,,,,,,,,,,,,,,,88,001,20,w,Psychologie,2023-02-01_12h01.20.148,00_bat_bachelor,2022.2.4,59.90415335705001,
,,,,,,,,,,,,0,0,0,0,116,0,116,0,,,,,,,116,,,1,919.1666506666661,Y,l,go,l,1,,0.3993115151533857,,,,,,,,,,,,,,,,,88,001,20,w,Psychologie,2023-02-01_12h01.20.148,00_bat_bachelor,2022.2.4,59.90415335705001,
,,,,,,,,,,,,0,0,0,0,117,0,117,0,,,,,,,117,,,1,920.6678443636483,X,d,go,d,1,,0.6101202424179064,,,,,,,,,,,,,,,,,88,001,20,w,Psychologie,2023-02-01_12h01.20.148,00_bat_bachelor,2022.2.4,59.90415335705001,
,,,,,,,,,,,,0,0,0,0,118,0,118,0,,,,,,,118,,,1,922.3857323636475,X,None,nogo,None,1,923.1864363636414,,,,,,,,,,,,,,,,,,88,001,20,w,Psychologie,2023-02-01_12h01.20.148,00_bat_bachelor,2022.2.4,59.90415335705001,
,,,,,,,,,,,,0,0,0,0,119,0,119,0,,,,,,,119,,,1,924.1871495757659,Y,l,go,l,1,,0.3703578181739431,,,,,,,,,,,,,,,,,88,001,20,w,Psychologie,2023-02-01_12h01.20.148,00_bat_bachelor,2022.2.4,59.90415335705001,
,,,,,,,,,,,,0,0,0,0,120,0,120,0,,,,,,,120,,,1,925.671610181831,X,d,go,d,1,,0.6620358787768055,,,,,,,,,,,,,,,,,88,001,20,w,Psychologie,2023-02-01_12h01.20.148,00_bat_bachelor,2022.2.4,59.90415335705001,
,,,,,,,,,,,,0,0,0,0,121,0,121,0,,,,,,,121,,,1,927.4395810909191,Y,l,go,None,0,,,,,,,,,,,,,,,,,,,88,001,20,w,Psychologie,2023-02-01_12h01.20.148,00_bat_bachelor,2022.2.4,59.90415335705001,
,,,,,,,,,,,,0,0,0,0,122,0,122,0,,,,,,,122,,,1,929.2410230303067,X,d,go,d,1,,0.4521716363669839,,,,,,,,,,,,,,,,,88,001,20,w,Psychologie,2023-02-01_12h01.20.148,00_bat_bachelor,2022.2.4,59.90415335705001,
,,,,,,,,,,,,0,0,0,0,123,0,123,0,,,,,,,123,,,1,930.8086875151639,X,None,nogo,None,1,931.609266424246,,,,,,,,,,,,,,,,,,88,001,20,w,Psychologie,2023-02-01_12h01.20.148,00_bat_bachelor,2022.2.4,59.90415335705001,
,,,,,,,,,,,,0,0,0,0,124,0,124,0,,,,,,,124,,,1,932.6097847272758,X,None,nogo,None,1,,,,,,,,,,,,,,,,,,,88,001,20,w,Psychologie,2023-02-01_12h01.20.148,00_bat_bachelor,2022.2.4,59.90415335705001,
,,,,,,,,,,,,0,0,0,0,125,0,125,0,,,,,,,125,,,1,934.4114904242451,Y,l,go,l,1,,0.3698967272648588,,,,,,,,,,,,,,,,,88,001,20,w,Psychologie,2023-02-01_12h01.20.148,00_bat_bachelor,2022.2.4,59.90415335705001,
,,,,,,,,,,,,0,0,0,0,126,0,126,0,,,,,,,126,,,1,935.8956140606169,X,d,go,d,1,,0.48566836363170296,,,,,,,,,,,,,,,,,88,001,20,w,Psychologie,2023-02-01_12h01.20.148,00_bat_bachelor,2022.2.4,59.90415335705001,
,,,,,,,,,,,,0,0,0,0,127,0,127,0,,,,,,,127,,,1,937.4971238787984,X,None,nogo,None,1,,,,,,,,,,,,,,,,,,,88,001,20,w,Psychologie,2023-02-01_12h01.20.148,00_bat_bachelor,2022.2.4,59.90415335705001,
,,,,,,,,,,,,0,0,0,0,128,0,128,0,,,,,,,128,,,1,939.2986080000119,Y,l,go,l,1,,0.427149575742078,,,,,,,,,,,,,,,,,88,001,20,w,Psychologie,2023-02-01_12h01.20.148,00_bat_bachelor,2022.2.4,59.90415335705001,
,,,,,,,,,,,,0,0,0,0,129,0,129,0,,,,,,,129,,,1,940.8329682424373,X,d,go,None,0,,,,,,,,,,,,,,,,,,,88,001,20,w,Psychologie,2023-02-01_12h01.20.148,00_bat_bachelor,2022.2.4,59.90415335705001,
,,,,,,,,,,,,0,0,0,0,130,0,130,0,,,,,,,130,,,1,942.6344392727333,Y,l,go,l,1,,0.6275170909066219,,,,,,,,,,,,,,,,,88,001,20,w,Psychologie,2023-02-01_12h01.20.148,00_bat_bachelor,2022.2.4,59.90415335705001,
,,,,,,,,,,,,0,0,0,0,131,0,131,0,,,,,,,131,,,1,944.368951757584,X,d,go,d,1,,0.3651539393904386,,,,,,,,,,,,,,,,,88,001,20,w,Psychologie,2023-02-01_12h01.20.148,00_bat_bachelor,2022.2.4,59.90415335705001,
,,,,,,,,,,,,0,0,0,0,132,0,132,0,,,,,,,132,,,1,945.8368455757591,X,None,nogo,None,1,,,,,,,,,,,,,,,,,,,88,001,20,w,Psychologie,2023-02-01_12h01.20.148,00_bat_bachelor,2022.2.4,59.90415335705001,
,,,,,,,,,,,,0,0,0,0,133,0,133,0,,,,,,,133,,,1,947.6387190303067,Y,l,go,l,1,,0.2299054545292165,,,,,,,,,,,,,,,,,88,001,20,w,Psychologie,2023-02-01_12h01.20.148,00_bat_bachelor,2022.2.4,59.90415335705001,
,,,,,,,,,,,,0,0,0,0,134,0,134,0,,,,,,,134,,,1,948.9897454545571,X,d,go,d,1,,0.3829231515119318,,,,,,,,,,,,,,,,,88,001,20,w,Psychologie,2023-02-01_12h01.20.148,00_bat_bachelor,2022.2.4,59.90415335705001,
,,,,,,,,,,,,0,0,0,0,135,0,135,0,,,,,,,135,,,1,950.4911975757568,X,None,nogo,None,1,951.2917755151575,,,,,,,,,,,,,,,,,,88,001,20,w,Psychologie,2023-02-01_12h01.20.148,00_bat_bachelor,2022.2.4,59.90415335705001,
,,,,,,,,,,,,0,0,0,0,136,0,136,0,,,,,,,136,,,1,952.2922550303047,Y,l,go,l,1,,0.3449580606102245,,,,,,,,,,,,,,,,,88,001,20,w,Psychologie,2023-02-01_12h01.20.148,00_bat_bachelor,2022.2.4,59.90415335705001,
,,,,,,,,,,,,0,0,0,0,137,0,137,0,,,,,,,137,,,1,953.7602094545582,X,d,go,d,1,,0.4445638787728967,,,,,,,,,,,,,,,,,88,001,20,w,Psychologie,2023-02-01_12h01.20.148,00_bat_bachelor,2022.2.4,59.90415335705001,
,,,,,,,,,,,,0,0,0,0,138,0,138,0,,,,,,,138,,,1,955.3277391515148,Y,l,go,l,1,,0.3980896969587775,,,,,,,,,,,,,,,,,88,001,20,w,Psychologie,2023-02-01_12h01.20.148,00_bat_bachelor,2022.2.4,59.90415335705001,
,,,,,,,,,,,,0,0,0,0,139,0,139,0,,,,,,,139,,,1,956.82900266668,X,d,go,d,1,,0.4484795151365688,,,,,,,,,,,,,,,,,88,001,20,w,Psychologie,2023-02-01_12h01.20.148,00_bat_bachelor,2022.2.4,59.90415335705001,
,,,,,,,,,,,,0,0,0,0,140,0,140,0,,,,,,,140,,,1,958.3967044848541,Y,l,go,l,1,,0.3362104242260102,,,,,,,,,,,,,,,,,88,001,20,w,Psychologie,2023-02-01_12h01.20.148,00_bat_bachelor,2022.2.4,59.90415335705001,
,,,,,,,,,,,,0,0,0,0,141,0,141,0,,,,,,,141,,,1,959.8643873939436,X,d,go,d,1,,0.3079136969608953,,,,,,,,,,,,,,,,,88,001,20,w,Psychologie,2023-02-01_12h01.20.148,00_bat_bachelor,2022.2.4,59.90415335705001,
,,,,,,,,,,,,0,0,0,0,142,0,142,0,,,,,,,142,,,1,961.2989585454634,Y,l,go,l,1,,0.5869721212075092,,,,,,,,,,,,,,,,,88,001,20,w,Psychologie,2023-02-01_12h01.20.148,00_bat_bachelor,2022.2.4,59.90415335705001,
,,,,,,,,,,,,0,0,0,0,143,0,143,0,,,,,,,143,,,1,963.000265212133,X,d,go,d,1,,0.2457706666609738,,,,,,,,,,,,,,,,,88,001,20,w,Psychologie,2023-02-01_12h01.20.148,00_bat_bachelor,2022.2.4,59.90415335705001,
,,,,,,,,,,,,0,0,0,0,144,0,144,0,,,,,,,144,,,1,964.3512669090996,X,None,nogo,l,0,,0.27035636363143567,,,,,,,,,,,,,,,,,88,001,20,w,Psychologie,2023-02-01_12h01.20.148,00_bat_bachelor,2022.2.4,59.90415335705001,
,,,,,,,,,,,,0,0,0,0,145,0,145,0,,,,,,,145,,,1,965.7354918787896,Y,l,go,d,0,,0.24588218181452248,,,,,,,,,,,,,,,,,88,001,20,w,Psychologie,2023-02-01_12h01.20.148,00_bat_bachelor,2022.2.4,59.90415335705001,
,,,,,,,,,,,,0,0,0,0,146,0,146,0,,,,,,,146,,,1,967.086508121225,X,d,go,d,1,,0.654685090892599,,,,,,,,,,,,,,,,,88,001,20,w,Psychologie,2023-02-01_12h01.20.148,00_bat_bachelor,2022.2.4,59.90415335705001,
,,,,,,,,,,,,0,0,0,0,147,0,147,0,,,,,,,147,,,1,968.8540872727317,X,None,nogo,None,1,,,,,,,,,,,,,,,,,,,88,001,20,w,Psychologie,2023-02-01_12h01.20.148,00_bat_bachelor,2022.2.4,59.90415335705001,
,,,,,,,,,,,,0,0,0,0,148,0,148,0,,,,,,,148,,,1,970.6557886060618,Y,l,go,l,1,,0.5261362424207618,,,,,,,,,,,,,,,,,88,001,20,w,Psychologie,2023-02-01_12h01.20.148,00_bat_bachelor,2022.2.4,59.90415335705001,
,,,,,,,,,,,,0,0,0,0,149,0,149,0,,,,,,,149,,,1,972.2903224242473,X,d,go,None,0,,,,,,,,,,,,,,,,,,,88,001,20,w,Psychologie,2023-02-01_12h01.20.148,00_bat_bachelor,2022.2.4,59.90415335705001,
,,,,,,,,,,,,0,0,0,0,150,0,150,0,,,,,,,150,,,1,974.0915515151573,Y,l,go,l,1,,0.5467001211945899,,,,,,,,,,,,,,,,,88,001,20,w,Psychologie,2023-02-01_12h01.20.148,00_bat_bachelor,2022.2.4,59.90415335705001,
,,,,,,,,,,,,0,0,0,0,151,0,151,0,,,,,,,151,,,1,975.7429890909116,Y,None,nogo,l,0,,0.5110860606073402,,,,,,,,,,,,,,,,,88,001,20,w,Psychologie,2023-02-01_12h01.20.148,00_bat_bachelor,2022.2.4,59.90415335705001,
,,,,,,,,,,,,0,0,0,0,152,0,152,0,,,,,,,152,,,1,977.360914424251,X,d,go,None,0,,,,,,,,,,,,,,,,,,,88,001,20,w,Psychologie,2023-02-01_12h01.20.148,00_bat_bachelor,2022.2.4,59.90415335705001,
,,,,,,,,,,,,0,0,0,0,153,0,153,0,,,,,,,153,,,1,979.1621924848587,Y,l,go,None,0,,,,,,,,,,,,,,,,,,,88,001,20,w,Psychologie,2023-02-01_12h01.20.148,00_bat_bachelor,2022.2.4,59.90415335705001,
,,,,,,,,,,,,0,0,0,0,154,0,154,0,,,,,,,154,,,1,980.9633197575749,X,d,go,d,1,,0.5535786666587228,,,,,,,,,,,,,,,,,88,001,20,w,Psychologie,2023-02-01_12h01.20.148,00_bat_bachelor,2022.2.4,59.90415335705001,
,,,,,,,,,,,,0,0,0,0,155,0,155,0,,,,,,,155,,,1,982.6312736969703,X,None,nogo,None,1,,,,,,,,,,,,,,,,,,,88,001,20,w,Psychologie,2023-02-01_12h01.20.148,00_bat_bachelor,2022.2.4,59.90415335705001,
,,,,,,,,,,,,0,0,0,0,156,0,156,0,,,,,,,156,,,1,984.4328867878794,Y,l,go,l,1,,0.5889973333250964,,,,,,,,,,,,,,,,,88,001,20,w,Psychologie,2023-02-01_12h01.20.148,00_bat_bachelor,2022.2.4,59.90415335705001,
,,,,,,,,,,,,0,0,0,0,157,0,157,0,,,,,,,157,,,1,986.1342269090965,X,d,go,None,0,986.9346695757704,,,,,,,,,,,,,,,,,,88,001,20,w,Psychologie,2023-02-01_12h01.20.148,00_bat_bachelor,2022.2.4,59.90415335705001,
,,,,,,,,,,,,0,0,0,0,158,0,158,0,,,,,,,158,,,1,987.9355049697042,Y,l,go,None,0,,,,,,,,,,,,,,,,,,,88,001,20,w,Psychologie,2023-02-01_12h01.20.148,00_bat_bachelor,2022.2.4,59.90415335705001,
,,,,,,,,,,,,0,0,0,0,159,0,159,0,,,,,,,159,,,1,989.7370201212179,Y,None,nogo,l,0,,0.6455442424194189,,,,,,,,,,,,,,,,,88,001,20,w,Psychologie,2023-02-01_12h01.20.148,00_bat_bachelor,2022.2.4,59.90415335705001,
,,,,,,,,,,,,0,0,0,0,160,0,160,0,,,,,,,160,,,1,991.4880096969719,X,d,go,None,0,,,,,,,,,,,,,,,,,,,88,001,20,w,Psychologie,2023-02-01_12h01.20.148,00_bat_bachelor,2022.2.4,59.90415335705001,
,,,,,,,,,,,,0,0,0,0,161,0,161,0,,,,,,,161,,,1,993.2893803636398,Y,l,go,None,0,994.090296727285,,,,,,,,,,,,,,,,,,88,001,20,w,Psychologie,2023-02-01_12h01.20.148,00_bat_bachelor,2022.2.4,59.90415335705001,
,,,,,,,,,,,,0,0,0,0,162,0,162,0,,,,,,,162,,,1,995.091058424252,X,d,go,d,1,,0.4579975757515058,,,,,,,,,,,,,,,,,88,001,20,w,Psychologie,2023-02-01_12h01.20.148,00_bat_bachelor,2022.2.4,59.90415335705001,
,,,,,,,,,,,,0,0,0,0,163,0,163,0,,,,,,,163,,,1,996.6589842424291,X,None,nogo,None,1,,,,,,,,,,,,,,,,,,,88,001,20,w,Psychologie,2023-02-01_12h01.20.148,00_bat_bachelor,2022.2.4,59.90415335705001,
,,,,,,,,,,,,0,0,0,0,164,0,164,0,,,,,,,164,,,1,998.4602613333409,X,None,nogo,None,1,999.2609367272817,,,,,,,,,,,,,,,,,,88,001,20,w,Psychologie,2023-02-01_12h01.20.148,00_bat_bachelor,2022.2.4,59.90415335705001,
,,,,,,,,,,,,0,0,0,0,165,0,165,0,,,,,,,165,,,1,1000.2616121212195,Y,l,go,l,1,,0.487662545448984,,,,,,,,,,,,,,,,,88,001,20,w,Psychologie,2023-02-01_12h01.20.148,00_bat_bachelor,2022.2.4,59.90415335705001,
,,,,,,,,,,,,0,0,0,0,166,0,166,0,,,,,,,166,,,1,1001.8629595151579,X,d,go,d,1,,0.6155030303052627,,,,,,,,,,,,,,,,,88,001,20,w,Psychologie,2023-02-01_12h01.20.148,00_bat_bachelor,2022.2.4,59.90415335705001,
,,,,,,,,,,,,0,0,0,0,167,0,167,0,,,,,,,167,,,1,1003.5809357575781,Y,l,go,l,1,,0.29028412120533176,,,,,,,,,,,,,,,,,88,001,20,w,Psychologie,2023-02-01_12h01.20.148,00_bat_bachelor,2022.2.4,59.90415335705001,
,,,,,,,,,,,,0,0,0,0,168,0,168,0,,,,,,,168,,,1,1004.9816232727317,Y,None,nogo,None,1,,,,,,,,,,,,,,,,,,,88,001,20,w,Psychologie,2023-02-01_12h01.20.148,00_bat_bachelor,2022.2.4,59.90415335705001,
,,,,,,,,,,,,0,0,0,0,169,0,169,0,,,,,,,169,,,1,1006.7829900606157,X,d,go,d,1,,0.25372169696493074,,,,,,,,,,,,,,,,,88,001,20,w,Psychologie,2023-02-01_12h01.20.148,00_bat_bachelor,2022.2.4,59.90415335705001,
,,,,,,,,,,,,0,0,0,0,170,0,170,0,,,,,,,170,,,1,1008.1517081212223,Y,l,go,l,1,,0.5340290909080068,,,,,,,,,,,,,,,,,88,001,20,w,Psychologie,2023-02-01_12h01.20.148,00_bat_bachelor,2022.2.4,59.90415335705001,
,,,,,,,,,,,,0,0,0,0,171,0,171,0,,,,,,,171,,,1,1009.7860562424321,X,d,go,d,1,,0.563658666666015,,,,,,,,,,,,,,,,,88,001,20,w,Psychologie,2023-02-01_12h01.20.148,00_bat_bachelor,2022.2.4,59.90415335705001,
,,,,,,,,,,,,0,0,0,0,172,0,172,0,,,,,,,172,,,1,1011.4537168484967,Y,l,go,l,1,,0.30379781818191987,,,,,,,,,,,,,,,,,88,001,20,w,Psychologie,2023-02-01_12h01.20.148,00_bat_bachelor,2022.2.4,59.90415335705001,
,,,,,,,,,,,,0,0,0,0,173,0,173,0,,,,,,,173,,,1,1012.871693090914,Y,None,nogo,d,0,,0.21290230301383417,,,,,,,,,,,,,,,,,88,001,20,w,Psychologie,2023-02-01_12h01.20.148,00_bat_bachelor,2022.2.4,59.90415335705001,
,,,,,,,,,,,,0,0,0,0,174,0,174,0,,,,,,,174,,,1,1014.205879272733,X,d,go,None,0,1015.0064033939416,,,,,,,,,,,,,,,,,,88,001,20,w,Psychologie,2023-02-01_12h01.20.148,00_bat_bachelor,2022.2.4,59.90415335705001,
,,,,,,,,,,,,0,0,0,0,175,0,175,0,,,,,,,175,,,1,1016.0071927272802,Y,l,go,None,0,1016.8075636363646,,,,,,,,,,,,,,,,,,88,001,20,w,Psychologie,2023-02-01_12h01.20.148,00_bat_bachelor,2022.2.4,59.90415335705001,
,,,,,,,,,,,,0,0,0,0,176,0,176,0,,,,,,,176,,,1,1017.8084955151571,Y,None,nogo,None,1,,,,,,,,,,,,,,,,,,,88,001,20,w,Psychologie,2023-02-01_12h01.20.148,00_bat_bachelor,2022.2.4,59.90415335705001,
,,,,,,,,,,,,0,0,0,0,177,0,177,0,,,,,,,177,,,1,1019.6097023030306,X,d,go,d,1,,0.38695515150902793,,,,,,,,,,,,,,,,,88,001,20,w,Psychologie,2023-02-01_12h01.20.148,00_bat_bachelor,2022.2.4,59.90415335705001,
,,,,,,,,,,,,0,0,0,0,178,0,178,0,,,,,,,178,,,1,1021.1110530909209,Y,l,go,l,1,,0.5664523636369267,,,,,,,,,,,,,,,,,88,001,20,w,Psychologie,2023-02-01_12h01.20.148,00_bat_bachelor,2022.2.4,59.90415335705001,
,,,,,,,,,,,,0,0,0,0,179,0,179,0,,,,,,,179,,,1,1022.7788804848533,X,d,go,d,1,,0.5785823030164465,,,,,,,,,,,,,,,,,88,001,20,w,Psychologie,2023-02-01_12h01.20.148,00_bat_bachelor,2022.2.4,59.90415335705001,
,,,,,,,,,,,,0,0,0,0,180,0,180,0,,,,,,,180,,,1,1024.4636940606142,X,None,nogo,None,1,1025.264244848484,,,,,,,,,,,,,,,,,,88,001,20,w,Psychologie,2023-02-01_12h01.20.148,00_bat_bachelor,2022.2.4,59.90415335705001,
,,,,,,,,,,,,0,0,0,0,181,0,181,0,,,,,,,181,,,1,1026.2649706666707,Y,l,go,None,0,1027.065617939399,,,,,,,,,,,,,,,,,,88,001,20,w,Psychologie,2023-02-01_12h01.20.148,00_bat_bachelor,2022.2.4,59.90415335705001,
,,,,,,,,,,,,0,0,0,0,182,0,182,0,,,,,,,182,,,1,1028.0663757575821,X,d,go,d,1,,0.6349124848493375,,,,,,,,,,,,,,,,,88,001,20,w,Psychologie,2023-02-01_12h01.20.148,00_bat_bachelor,2022.2.4,59.90415335705001,
,,,,,,,,,,,,0,0,0,0,183,0,183,0,,,,,,,183,,,1,1029.8176935757656,Y,l,go,l,1,,0.5160232727212133,,,,,,,,,,,,,,,,,88,001,20,w,Psychologie,2023-02-01_12h01.20.148,00_bat_bachelor,2022.2.4,59.90415335705001,
,,,,,,,,,,,,0,0,0,0,184,0,184,0,,,,,,,184,,,1,1031.435550060618,Y,None,nogo,None,1,1032.2362710303132,,,,,,,,,,,,,,,,,,88,001,20,w,Psychologie,2023-02-01_12h01.20.148,00_bat_bachelor,2022.2.4,59.90415335705001,
,,,,,,,,,,,,0,0,0,0,185,0,185,0,,,,,,,185,,,1,1033.2370084848517,X,d,go,d,1,,0.31209018180379644,,,,,,,,,,,,,,,,,88,001,20,w,Psychologie,2023-02-01_12h01.20.148,00_bat_bachelor,2022.2.4,59.90415335705001,
,,,,,,,,,,,,0,0,0,0,186,0,186,0,,,,,,,186,,,1,1034.6547510303062,Y,l,go,l,1,,0.4788072727242252,,,,,,,,,,,,,,,,,88,001,20,w,Psychologie,2023-02-01_12h01.20.148,00_bat_bachelor,2022.2.4,59.90415335705001,
,,,,,,,,,,,,0,0,0,0,187,0,187,0,,,,,,,187,,,1,1036.2392950303038,Y,None,nogo,None,1,1037.0396698181867,,,,,,,,,,,,,,,,,,88,001,20,w,Psychologie,2023-02-01_12h01.20.148,00_bat_bachelor,2022.2.4,59.90415335705001,
,,,,,,,,,,,,0,0,0,0,188,0,188,0,,,,,,,188,,,1,1038.040703999999,X,d,go,d,1,,0.4046652121032821,,,,,,,,,,,,,,,,,88,001,20,w,Psychologie,2023-02-01_12h01.20.148,00_bat_bachelor,2022.2.4,59.90415335705001,
,,,,,,,,,,,,0,0,0,0,189,0,189,0,,,,,,,189,,,1,1039.5585110303073,Y,l,go,l,1,,0.5986715151520912,,,,,,,,,,,,,,,,,88,001,20,w,Psychologie,2023-02-01_12h01.20.148,00_bat_bachelor,2022.2.4,59.90415335705001,
,,,,,,,,,,,,0,0,0,0,190,0,190,0,,,,,,,190,,,1,1041.2597144242463,Y,None,nogo,None,1,,,,,,,,,,,,,,,,,,,88,001,20,w,Psychologie,2023-02-01_12h01.20.148,00_bat_bachelor,2022.2.4,59.90415335705001,
,,,,,,,,,,,,0,0,0,0,191,0,191,0,,,,,,,191,,,1,1043.061083636363,X,d,go,d,1,,0.34414448484312743,,,,,,,,,,,,,,,,,88,001,20,w,Psychologie,2023-02-01_12h01.20.148,00_bat_bachelor,2022.2.4,59.90415335705001,
,,,,,,,,,,,,0,0,0,0,192,0,192,0,,,,,,,192,,,1,1044.5122370909085,Y,l,go,None,0,1045.312655515154,,,,,,,,,,,,,,,,,,88,001,20,w,Psychologie,2023-02-01_12h01.20.148,00_bat_bachelor,2022.2.4,59.90415335705001,
,,,,,,,,,,,,0,0,0,0,193,0,193,0,,,,,,,193,,,1,1046.313428848487,Y,None,nogo,None,1,1047.1141934545449,,,,,,,,,,,,,,,,,,88,001,20,w,Psychologie,2023-02-01_12h01.20.148,00_bat_bachelor,2022.2.4,59.90415335705001,
,,,,,,,,,,,,0,0,0,0,194,0,194,0,,,,,,,194,,,1,1048.1147961212118,X,d,go,None,0,1048.9154564848577,,,,,,,,,,,,,,,,,,88,001,20,w,Psychologie,2023-02-01_12h01.20.148,00_bat_bachelor,2022.2.4,59.90415335705001,
,,,,,,,,,,,,0,0,0,0,195,0,195,0,,,,,,,195,,,1,1049.916387878795,Y,l,go,l,1,,0.5775655757606728,,,,,,,,,,,,,,,,,88,001,20,w,Psychologie,2023-02-01_12h01.20.148,00_bat_bachelor,2022.2.4,59.90415335705001,
,,,,,,,,,,,,0,0,0,0,196,0,196,0,,,,,,,196,,,1,1051.600715636363,Y,None,nogo,None,1,,,,,,,,,,,,,,,,,,,88,001,20,w,Psychologie,2023-02-01_12h01.20.148,00_bat_bachelor,2022.2.4,59.90415335705001,
,,,,,,,,,,,,0,0,0,0,197,0,197,0,,,,,,,197,,,1,1053.402212848494,X,d,go,d,1,,0.2594792727177264,,,,,,,,,,,,,,,,,88,001,20,w,Psychologie,2023-02-01_12h01.20.148,00_bat_bachelor,2022.2.4,59.90415335705001,
,,,,,,,,,,,,0,0,0,0,198,0,198,0,,,,,,,198,,,1,1054.7695767272817,Y,l,go,l,1,,0.5240029090928147,,,,,,,,,,,,,,,,,88,001,20,w,Psychologie,2023-02-01_12h01.20.148,00_bat_bachelor,2022.2.4,59.90415335705001,
,,,,,,,,,,,,0,0,0,0,199,0,199,0,,,,,,,199,,,1,1056.4044489696971,X,d,go,None,0,1057.2050841212185,,,,,,,,,,,,,,,,,,88,001,20,w,Psychologie,2023-02-01_12h01.20.148,00_bat_bachelor,2022.2.4,59.90415335705001,
,,,,,,,,,,,,0,0,0,0,200,0,200,0,,,,,,,200,,,1,1058.2057876363688,X,None,nogo,d,0,,0.6080159999983152,,,,,,,,,,,,,,,,,88,001,20,w,Psychologie,2023-02-01_12h01.20.148,00_bat_bachelor,2022.2.4,59.90415335705001,
,,,,,,,,,,,,0,0,0,0,201,0,201,0,,,,,,,201,,,1,1059.9238395151624,Y,l,go,None,0,,,,,,,,,,,,,,,,,,,88,001,20,w,Psychologie,2023-02-01_12h01.20.148,00_bat_bachelor,2022.2.4,59.90415335705001,
,,,,,,,,,,,,0,0,0,0,202,0,202,0,,,,,,,202,,,1,1061.7252552727296,X,d,go,None,0,,,,,,,,,,,,,,,,,,,88,001,20,w,Psychologie,2023-02-01_12h01.20.148,00_bat_bachelor,2022.2.4,59.90415335705001,
,,,,,,,,,,,,0,0,0,0,203,0,203,0,,,,,,,203,,,1,1063.5264465454675,Y,l,go,l,1,,0.4705561212031171,,,,,,,,,,,,,,,,,88,001,20,w,Psychologie,2023-02-01_12h01.20.148,00_bat_bachelor,2022.2.4,59.90415335705001,
,,,,,,,,,,,,0,0,0,0,204,0,204,0,,,,,,,204,,,1,1065.1118724848493,X,d,go,None,0,1065.9122128484887,,,,,,,,,,,,,,,,,,88,001,20,w,Psychologie,2023-02-01_12h01.20.148,00_bat_bachelor,2022.2.4,59.90415335705001,
,,,,,,,,,,,,0,0,0,0,205,0,205,0,,,,,,,205,,,1,1066.9131704242463,X,None,nogo,None,1,1067.7137653333339,,,,,,,,,,,,,,,,,,88,001,20,w,Psychologie,2023-02-01_12h01.20.148,00_bat_bachelor,2022.2.4,59.90415335705001,
,,,,,,,,,,,,0,0,0,0,206,0,206,0,,,,,,,206,,,1,1068.714312727272,Y,l,go,l,1,,0.4503776969650062,,,,,,,,,,,,,,,,,88,001,20,w,Psychologie,2023-02-01_12h01.20.148,00_bat_bachelor,2022.2.4,59.90415335705001,
,,,,,,,,,,,,0,0,0,0,207,0,207,0,,,,,,,207,,,1,1070.282401939403,X,d,go,None,0,1071.082957575767,,,,,,,,,,,,,,,,,,88,001,20,w,Psychologie,2023-02-01_12h01.20.148,00_bat_bachelor,2022.2.4,59.90415335705001,
,,,,,,,,,,,,0,0,0,0,208,0,208,0,,,,,,,208,,,1,1072.0835466666758,Y,l,go,l,1,,0.6174729696940631,,,,,,,,,,,,,,,,,88,001,20,w,Psychologie,2023-02-01_12h01.20.148,00_bat_bachelor,2022.2.4,59.90415335705001,
,,,,,,,,,,,,0,0,0,0,209,0,209,0,,,,,,,209,,,1,1073.8184431515256,X,d,go,d,1,,0.6422084848454688,,,,,,,,,,,,,,,,,88,001,20,w,Psychologie,2023-02-01_12h01.20.148,00_bat_bachelor,2022.2.4,59.90415335705001,
,,,,,,,,,,,,0,0,0,0,210,0,210,0,,,,,,,210,,,1,1075.586234666669,Y,l,go,None,0,1076.3868654545513,,,,,,,,,,,,,,,,,,88,001,20,w,Psychologie,2023-02-01_12h01.20.148,00_bat_bachelor,2022.2.4,59.90415335705001,
,,,,,,,,,,,,0,0,0,0,211,0,211,0,,,,,,,211,,,1,1077.3875723636447,Y,None,nogo,None,1,1078.1882036363677,,,,,,,,,,,,,,,,,,88,001,20,w,Psychologie,2023-02-01_12h01.20.148,00_bat_bachelor,2022.2.4,59.90415335705001,
,,,,,,,,,,,,0,0,0,0,212,0,212,0,,,,,,,212,,,1,1079.188964848494,X,d,go,None,0,1079.98958400001,,,,,,,,,,,,,,,,,,88,001,20,w,Psychologie,2023-02-01_12h01.20.148,00_bat_bachelor,2022.2.4,59.90415335705001,
,,,,,,,,,,,,0,0,0,0,213,0,213,0,,,,,,,213,,,1,1080.9903243636363,Y,l,go,l,1,,0.6397910302912351,,,,,,,,,,,,,,,,,88,001,20,w,Psychologie,2023-02-01_12h01.20.148,00_bat_bachelor,2022.2.4,59.90415335705001,
,,,,,,,,,,,,0,0,0,0,214,0,214,0,,,,,,,214,,,1,1082.7418947878905,Y,None,nogo,None,1,1083.5423384242458,,,,,,,,,,,,,,,,,,88,001,20,w,Psychologie,2023-02-01_12h01.20.148,00_bat_bachelor,2022.2.4,59.90415335705001,
,,,,,,,,,,,,0,0,0,0,215,0,215,0,,,,,,,215,,,1,1084.5432703030383,Y,None,nogo,None,1,1085.343968969697,,,,,,,,,,,,,,,,,,88,001,20,w,Psychologie,2023-02-01_12h01.20.148,00_bat_bachelor,2022.2.4,59.90415335705001,
,,,,,,,,,,,,0,0,0,0,216,0,216,0,,,,,,,216,,,1,1086.3444387878844,X,d,go,d,1,,0.34120242424251046,,,,,,,,,,,,,,,,,88,001,20,w,Psychologie,2023-02-01_12h01.20.148,00_bat_bachelor,2022.2.4,59.90415335705001,
,,,,,,,,,,,,0,0,0,0,217,0,217,0,,,,,,,217,,,1,1087.7958220606088,Y,l,go,l,1,,0.41010278786416166,,,,,,,,,,,,,,,,,88,001,20,w,Psychologie,2023-02-01_12h01.20.148,00_bat_bachelor,2022.2.4,59.90415335705001,
,,,,,,,,,,,,0,0,0,0,218,0,218,0,,,,,,,218,,,1,1089.330015515152,Y,None,nogo,None,1,1090.1306972121238,,,,,,,,,,,,,,,,,,88,001,20,w,Psychologie,2023-02-01_12h01.20.148,00_bat_bachelor,2022.2.4,59.90415335705001,
,,,,,,,,,,,,0,0,0,0,219,0,219,0,,,,,,,219,,,1,1091.131462303034,X,d,go,d,1,,0.48100509091455024,,,,,,,,,,,,,,,,,88,001,20,w,Psychologie,2023-02-01_12h01.20.148,00_bat_bachelor,2022.2.4,59.90415335705001,
,,,,,,,,,,,,0,0,0,0,220,0,220,0,,,,,,,220,,,1,1092.7326181818207,Y,l,go,None,0,1093.5332475151517,,,,,,,,,,,,,,,,,,88,001,20,w,Psychologie,2023-02-01_12h01.20.148,00_bat_bachelor,2022.2.4,59.90415335705001,
,,,,,,,,,,,,0,0,0,0,221,0,221,0,,,,,,,221,,,1,1094.5339738181938,X,d,go,d,1,,0.5831505454552826,,,,,,,,,,,,,,,,,88,001,20,w,Psychologie,2023-02-01_12h01.20.148,00_bat_bachelor,2022.2.4,59.90415335705001,
,,,,,,,,,,,,0,0,0,0,222,0,222,0,,,,,,,222,,,1,1096.218826666678,Y,l,go,l,1,,0.5940819393872516,,,,,,,,,,,,,,,,,88,001,20,w,Psychologie,2023-02-01_12h01.20.148,00_bat_bachelor,2022.2.4,59.90415335705001,
,,,,,,,,,,,,0,0,0,0,223,0,223,0,,,,,,,223,,,1,1097.9202094545471,Y,None,nogo,None,1,1098.720830545455,,,,,,,,,,,,,,,,,,88,001,20,w,Psychologie,2023-02-01_12h01.20.148,00_bat_bachelor,2022.2.4,59.90415335705001,
,,,,,,,,,,,,0,0,0,0,224,0,224,0,,,,,,,224,,,1,1099.7212858181883,X,d,go,d,1,,0.3396363636275055,,,,,,,,,,,,,,,,,88,001,20,w,Psychologie,2023-02-01_12h01.20.148,00_bat_bachelor,2022.2.4,59.90415335705001,
,,,,,,,,,,,,0,0,0,0,225,0,225,0,,,,,,,225,,,1,1101.1723762424372,Y,l,go,None,0,1101.9732324848592,,,,,,,,,,,,,,,,,,88,001,20,w,Psychologie,2023-02-01_12h01.20.148,00_bat_bachelor,2022.2.4,59.90415335705001,
,,,,,,,,,,,,0,0,0,0,226,0,226,0,,,,,,,226,,,1,1102.9737144242536,X,d,go,d,1,,0.6395587878796505,,,,,,,,,,,,,,,,,88,001,20,w,Psychologie,2023-02-01_12h01.20.148,00_bat_bachelor,2022.2.4,59.90415335705001,
,,,,,,,,,,,,0,0,0,0,227,0,227,0,,,,,,,227,,,1,1104.741802666671,Y,l,go,l,1,,0.5356751515064389,,,,,,,,,,,,,,,,,88,001,20,w,Psychologie,2023-02-01_12h01.20.148,00_bat_bachelor,2022.2.4,59.90415335705001,
,,,,,,,,,,,,0,0,0,0,228,0,228,0,,,,,,,228,,,1,1106.3930041212152,X,d,go,d,1,,0.6127927272755187,,,,,,,,,,,,,,,,,88,001,20,w,Psychologie,2023-02-01_12h01.20.148,00_bat_bachelor,2022.2.4,59.90415335705001,
,,,,,,,,,,,,0,0,0,0,229,0,229,0,,,,,,,229,,,1,1108.1112649697025,Y,l,go,l,1,,0.4148576969600981,,,,,,,,,,,,,,,,,88,001,20,w,Psychologie,2023-02-01_12h01.20.148,00_bat_bachelor,2022.2.4,59.90415335705001,
,,,,,,,,,,,,0,0,0,0,230,0,230,0,,,,,,,230,,,1,1109.6288111515169,X,d,go,d,1,,0.4804087272641482,,,,,,,,,,,,,,,,,88,001,20,w,Psychologie,2023-02-01_12h01.20.148,00_bat_bachelor,2022.2.4,59.90415335705001,
,,,,,,,,,,,,0,0,0,0,231,0,231,0,,,,,,,231,,,1,1111.2133473939466,X,None,nogo,None,1,1112.0143461818225,,,,,,,,,,,,,,,,,,88,001,20,w,Psychologie,2023-02-01_12h01.20.148,00_bat_bachelor,2022.2.4,59.90415335705001,
,,,,,,,,,,,,0,0,0,0,232,0,232,0,,,,,,,232,,,1,1113.0149459394015,Y,l,go,l,1,,0.5498225454502972,,,,,,,,,,,,,,,,,88,001,20,w,Psychologie,2023-02-01_12h01.20.148,00_bat_bachelor,2022.2.4,59.90415335705001,
,,,,,,,,,,,,0,0,0,0,233,0,233,0,,,,,,,233,,,1,1114.6829187878902,X,d,go,d,1,,0.5457919999898877,,,,,,,,,,,,,,,,,88,001,20,w,Psychologie,2023-02-01_12h01.20.148,00_bat_bachelor,2022.2.4,59.90415335705001,
,,,,,,,,,,,,0,0,0,0,234,0,234,0,,,,,,,234,,,1,1116.3508198787895,Y,l,go,l,1,,0.5424203636357561,,,,,,,,,,,,,,,,,88,001,20,w,Psychologie,2023-02-01_12h01.20.148,00_bat_bachelor,2022.2.4,59.90415335705001,
,,,,,,,,,,,,0,0,0,0,235,0,235,0,,,,,,,235,,,1,1118.0187520000036,X,d,go,d,1,,0.3304916363558732,,,,,,,,,,,,,,,,,88,001,20,w,Psychologie,2023-02-01_12h01.20.148,00_bat_bachelor,2022.2.4,59.90415335705001,
,,,,,,,,,,,,0,0,0,0,236,0,236,0,,,,,,,236,,,1,1119.4863224242436,X,None,nogo,d,0,,0.44765430301777087,,,,,,,,,,,,,,,,,88,001,20,w,Psychologie,2023-02-01_12h01.20.148,00_bat_bachelor,2022.2.4,59.90415335705001,
,,,,,,,,,,,,0,0,0,0,237,0,237,0,,,,,,,237,,,1,1121.0373760000075,Y,l,go,None,0,1121.838117818188,,,,,,,,,,,,,,,,,,88,001,20,w,Psychologie,2023-02-01_12h01.20.148,00_bat_bachelor,2022.2.4,59.90415335705001,
,,,,,,,,,,,,0,0,0,0,238,0,238,0,,,,,,,238,,,1,1122.838570666674,X,d,go,None,0,1123.6394889696967,,,,,,,,,,,,,,,,,,88,001,20,w,Psychologie,2023-02-01_12h01.20.148,00_bat_bachelor,2022.2.4,59.90415335705001,
,,,,,,,,,,,,0,0,0,0,239,0,239,0,,,,,,,239,,,1,1124.6401454545557,Y,l,go,l,1,,0.4449115151510341,,,,,,,,,,,,,,,,,88,001,20,w,Psychologie,2023-02-01_12h01.20.148,00_bat_bachelor,2022.2.4,59.90415335705001,
,,,,,,,,,,,,0,0,0,0,240,0,240,0,,,,,,,240,,,1,1126.1910414545564,X,d,go,d,1,,0.5908625454467256,,,,,,,,,,,,,,,,,88,001,20,w,Psychologie,2023-02-01_12h01.20.148,00_bat_bachelor,2022.2.4,59.90415335705001,
,,,,,,,,,,,,0,0,0,0,241,0,241,0,,,,,,,241,,,1,1127.8929633939406,X,None,nogo,None,1,1128.6935631515225,,,,,,,,,,,,,,,,,,88,001,20,w,Psychologie,2023-02-01_12h01.20.148,00_bat_bachelor,2022.2.4,59.90415335705001,
,,,,,,,,,,,,0,0,0,0,242,0,242,0,,,,,,,242,,,1,1129.6941726060613,Y,l,go,l,1,,0.4786656969663454,,,,,,,,,,,,,,,,,88,001,20,w,Psychologie,2023-02-01_12h01.20.148,00_bat_bachelor,2022.2.4,59.90415335705001,
,,,,,,,,,,,,0,0,0,0,243,0,243,0,,,,,,,243,,,1,1131.2953367272858,X,d,go,d,1,,0.5899616969691124,,,,,,,,,,,,,,,,,88,001,20,w,Psychologie,2023-02-01_12h01.20.148,00_bat_bachelor,2022.2.4,59.90415335705001,
,,,,,,,,,,,,0,0,0,0,244,0,244,0,,,,,,,244,,,1,1133.0135330909106,X,None,nogo,None,1,1133.8139233939437,,,,,,,,,,,,,,,,,,88,001,20,w,Psychologie,2023-02-01_12h01.20.148,00_bat_bachelor,2022.2.4,59.90415335705001,
,,,,,,,,,,,,0,0,0,0,245,0,245,0,,,,,,,245,,,1,1134.814715151515,Y,l,go,l,1,,0.35064242423686665,,,,,,,,,,,,,,,,,88,001,20,w,Psychologie,2023-02-01_12h01.20.148,00_bat_bachelor,2022.2.4,59.90415335705001,
,,,,,,,,,,,,0,0,0,0,246,0,246,0,,,,,,,246,,,1,1136.2660169697047,X,d,go,None,0,1137.0666351515247,,,,,,,,,,,,,,,,,,88,001,20,w,Psychologie,2023-02-01_12h01.20.148,00_bat_bachelor,2022.2.4,59.90415335705001,
,,,,,,,,,,,,0,0,0,0,247,0,247,0,,,,,,,247,,,1,1138.067178666679,Y,l,go,l,1,,0.6650041212124052,,,,,,,,,,,,,,,,,88,001,20,w,Psychologie,2023-02-01_12h01.20.148,00_bat_bachelor,2022.2.4,59.90415335705001,
,,,,,,,,,,,,0,0,0,0,248,0,248,0,,,,,,,248,,,1,1139.851851151514,X,d,go,None,0,1140.6527326060605,,,,,,,,,,,,,,,,,,88,001,20,w,Psychologie,2023-02-01_12h01.20.148,00_bat_bachelor,2022.2.4,59.90415335705001,
,,,,,,,,,,,,0,0,0,0,249,0,249,0,,,,,,,249,,,1,1141.6531238788011,X,None,nogo,None,1,1142.4885003636446,,,,,,,,,,,,,,,,,,88,001,20,w,Psychologie,2023-02-01_12h01.20.148,00_bat_bachelor,2022.2.4,59.90415335705001,
,,,,,,,,,,,,1,0,1,0,0,0,0,0,,,,,,,0,,,0.2,1150.7600717575842,X,d,go,None,0,1151.560669090919,,,,,,,,,1142.4885003636446,space,8.040511999992304,,,,,,,88,001,20,w,Psychologie,2023-02-01_12h01.20.148,00_bat_bachelor,2022.2.4,59.90415335705001,
,,,,,,,,,,,,1,0,1,0,1,0,1,0,,,,,,,1,,,0.2,1151.7606477575755,Y,l,go,None,0,1152.5610792727384,,,,,,,,,,,,,,,,,,88,001,20,w,Psychologie,2023-02-01_12h01.20.148,00_bat_bachelor,2022.2.4,59.90415335705001,
,,,,,,,,,,,,1,0,1,0,2,0,2,0,,,,,,,2,,,0.2,1152.761195636369,X,d,go,None,0,,,,,,,,,,,,,,,,,,,88,001,20,w,Psychologie,2023-02-01_12h01.20.148,00_bat_bachelor,2022.2.4,59.90415335705001,
,,,,,,,,,,,,1,0,1,0,3,0,3,0,,,,,,,3,,,0.2,1153.7621687272767,Y,l,go,None,0,1154.5627704242506,,,,,,,,,,,,,,,,,,88,001,20,w,Psychologie,2023-02-01_12h01.20.148,00_bat_bachelor,2022.2.4,59.90415335705001,
,,,,,,,,,,,,1,0,1,0,4,0,4,0,,,,,,,4,,,0.2,1154.7628678787878,Y,None,nogo,None,1,,,,,,,,,,,,,,,,,,,88,001,20,w,Psychologie,2023-02-01_12h01.20.148,00_bat_bachelor,2022.2.4,59.90415335705001,
,,,,,,,,,,,,1,0,1,0,5,0,5,0,,,,,,,5,,,0.2,1155.763485090909,X,d,go,d,1,,0.12218860605207738,,,,,,,,,,,,,,,,,88,001,20,w,Psychologie,2023-02-01_12h01.20.148,00_bat_bachelor,2022.2.4,59.90415335705001,
,,,,,,,,,,,,1,0,1,0,6,0,6,0,,,,,,,6,,,0.2,1156.1970453333342,Y,l,go,None,0,1156.9978506666666,,,,,,,,,,,,,,,,,,88,001,20,w,Psychologie,2023-02-01_12h01.20.148,00_bat_bachelor,2022.2.4,59.90415335705001,
,,,,,,,,,,,,1,0,1,0,7,0,7,0,,,,,,,7,,,0.2,1157.1979073939438,Y,None,nogo,None,1,,,,,,,,,,,,,,,,,,,88,001,20,w,Psychologie,2023-02-01_12h01.20.148,00_bat_bachelor,2022.2.4,59.90415335705001,
,,,,,,,,,,,,1,0,1,0,8,0,8,0,,,,,,,8,,,0.2,1158.1986492121214,X,d,go,None,0,1158.9994952727284,,,,,,,,,,,,,,,,,,88,001,20,w,Psychologie,2023-02-01_12h01.20.148,00_bat_bachelor,2022.2.4,59.90415335705001,
,,,,,,,,,,,,1,0,1,0,9,0,9,0,,,,,,,9,,,0.2,1159.1995878788002,Y,l,go,None,0,1160.0002070303162,,,,,,,,,,,,,,,,,,88,001,20,w,Psychologie,2023-02-01_12h01.20.148,00_bat_bachelor,2022.2.4,59.90415335705001,
,,,,,,,,,,,,1,0,1,0,10,0,10,0,,,,,,,10,,,0.2,1160.2003456969687,X,d,go,None,0,1161.0010055757593,,,,,,,,,,,,,,,,,,88,001,20,w,Psychologie,2023-02-01_12h01.20.148,00_bat_bachelor,2022.2.4,59.90415335705001,
,,,,,,,,,,,,1,0,1,0,11,0,11,0,,,,,,,11,,,0.2,1161.2011786666699,Y,l,go,None,0,1162.0016916363675,,,,,,,,,,,,,,,,,,88,001,20,w,Psychologie,2023-02-01_12h01.20.148,00_bat_bachelor,2022.2.4,59.90415335705001,
,,,,,,,,,,,,1,0,1,0,12,0,12,0,,,,,,,12,,,0.2,1162.201854545463,Y,None,nogo,None,1,,,,,,,,,,,,,,,,,,,88,001,20,w,Psychologie,2023-02-01_12h01.20.148,00_bat_bachelor,2022.2.4,59.90415335705001,
,,,,,,,,,,,,1,0,1,0,13,0,13,0,,,,,,,13,,,0.2,1163.2025803636352,X,d,go,d,1,,0.6034666666673729,,,,,,,,,,,,,,,,,88,001,20,w,Psychologie,2023-02-01_12h01.20.148,00_bat_bachelor,2022.2.4,59.90415335705001,
,,,,,,,,,,,,1,0,1,0,14,0,14,0,,,,,,,14,,,0.2,1164.1196310303058,Y,l,go,None,0,,,,,,,,,,,,,,,,,,,88,001,20,w,Psychologie,2023-02-01_12h01.20.148,00_bat_bachelor,2022.2.4,59.90415335705001,
,,,,,,,,,,,,1,0,1,0,15,0,15,0,,,,,,,15,,,0.2,1165.1203612121317,X,d,go,None,0,,,,,,,,,,,,,,,,,,,88,001,20,w,Psychologie,2023-02-01_12h01.20.148,00_bat_bachelor,2022.2.4,59.90415335705001,
,,,,,,,,,,,,1,0,1,0,16,0,16,0,,,,,,,16,,,0.2,1166.1215030303138,Y,l,go,None,0,,,,,,,,,,,,,,,,,,,88,001,20,w,Psychologie,2023-02-01_12h01.20.148,00_bat_bachelor,2022.2.4,59.90415335705001,
,,,,,,,,,,,,1,0,1,0,17,0,17,0,,,,,,,17,,,0.2,1167.1222904242459,Y,None,nogo,None,1,,,,,,,,,,,,,,,,,,,88,001,20,w,Psychologie,2023-02-01_12h01.20.148,00_bat_bachelor,2022.2.4,59.90415335705001,
,,,,,,,,,,,,1,0,1,0,18,0,18,0,,,,,,,18,,,0.2,1168.1229246060684,X,d,go,None,0,,,,,,,,,,,,,,,,,,,88,001,20,w,Psychologie,2023-02-01_12h01.20.148,00_bat_bachelor,2022.2.4,59.90415335705001,
,,,,,,,,,,,,1,0,1,0,19,0,19,0,,,,,,,19,,,0.2,1169.123795878797,Y,l,go,None,0,,,,,,,,,,,,,,,,,,,88,001,20,w,Psychologie,2023-02-01_12h01.20.148,00_bat_bachelor,2022.2.4,59.90415335705001,
,,,,,,,,,,,,1,0,1,0,20,0,20,0,,,,,,,20,,,0.2,1170.1245090909215,Y,None,nogo,d,0,,0.25787684848182835,,,,,,,,,,,,,,,,,88,001,20,w,Psychologie,2023-02-01_12h01.20.148,00_bat_bachelor,2022.2.4,59.90415335705001,
,,,,,,,,,,,,1,0,1,0,21,0,21,0,,,,,,,21,,,0.2,1170.691487515156,Y,None,nogo,None,1,,,,,,,,,,,,,,,,,,,88,001,20,w,Psychologie,2023-02-01_12h01.20.148,00_bat_bachelor,2022.2.4,59.90415335705001,
,,,,,,,,,,,,1,0,1,0,22,0,22,0,,,,,,,22,,,0.2,1171.6922753939434,X,d,go,d,1,,0.577161212117062,,,,,,,,,,,,,,,,,88,001,20,w,Psychologie,2023-02-01_12h01.20.148,00_bat_bachelor,2022.2.4,59.90415335705001,
,,,,,,,,,,,,1,0,1,0,23,0,23,0,,,,,,,23,,,0.2,1172.576272484861,Y,l,go,None,0,1173.3770375757595,,,,,,,,,,,,,,,,,,88,001,20,w,Psychologie,2023-02-01_12h01.20.148,00_bat_bachelor,2022.2.4,59.90415335705001,
,,,,,,,,,,,,1,0,1,0,24,0,24,0,,,,,,,24,,,0.2,1173.5771393939503,Y,None,nogo,l,0,,0.08423078787745908,,,,,,,,,,,,,,,,,88,001,20,w,Psychologie,2023-02-01_12h01.20.148,00_bat_bachelor,2022.2.4,59.90415335705001,
,,,,,,,,,,,,1,0,1,0,25,0,25,0,,,,,,,25,,,0.2,1173.9780974545574,X,d,go,None,0,1174.7787427878793,,,,,,,,,,,,,,,,,,88,001,20,w,Psychologie,2023-02-01_12h01.20.148,00_bat_bachelor,2022.2.4,59.90415335705001,
,,,,,,,,,,,,1,0,1,0,26,0,26,0,,,,,,,26,,,0.2,1174.9786400000012,Y,l,go,None,0,1175.7792310303048,,,,,,,,,,,,,,,,,,88,001,20,w,Psychologie,2023-02-01_12h01.20.148,00_bat_bachelor,2022.2.4,59.90415335705001,
,,,,,,,,,,,,1,0,1,0,27,0,27,0,,,,,,,27,,,0.2,1175.979432727283,X,d,go,None,0,1176.7803384242434,,,,,,,,,,,,,,,,,,88,001,20,w,Psychologie,2023-02-01_12h01.20.148,00_bat_bachelor,2022.2.4,59.90415335705001,
,,,,,,,,,,,,1,0,1,0,28,0,28,0,,,,,,,28,,,0.2,1176.9804683636467,Y,l,go,None,0,1177.7808092121268,,,,,,,,,,,,,,,,,,88,001,20,w,Psychologie,2023-02-01_12h01.20.148,00_bat_bachelor,2022.2.4,59.90415335705001,
,,,,,,,,,,,,1,0,1,0,29,0,29,0,,,,,,,29,,,0.2,1177.980962424248,X,d,go,d,1,,0.6557459393807221,,,,,,,,,,,,,,,,,88,001,20,w,Psychologie,2023-02-01_12h01.20.148,00_bat_bachelor,2022.2.4,59.90415335705001,
,,,,,,,,,,,,1,0,1,0,30,0,30,0,,,,,,,30,,,0.2,1178.9485149090906,Y,l,go,l,1,,0.552436363621382,,,,,,,,,,,,,,,,,88,001,20,w,Psychologie,2023-02-01_12h01.20.148,00_bat_bachelor,2022.2.4,59.90415335705001,
,,,,,,,,,,,,1,0,1,0,31,0,31,0,,,,,,,31,,,0.2,1179.8323296969756,Y,None,nogo,None,1,1180.633351757584,,,,,,,,,,,,,,,,,,88,001,20,w,Psychologie,2023-02-01_12h01.20.148,00_bat_bachelor,2022.2.4,59.90415335705001,
,,,,,,,,,,,,1,0,1,0,32,0,32,0,,,,,,,32,,,0.2,1180.8331141818198,X,d,go,None,0,1181.633719272737,,,,,,,,,,,,,,,,,,88,001,20,w,Psychologie,2023-02-01_12h01.20.148,00_bat_bachelor,2022.2.4,59.90415335705001,
,,,,,,,,,,,,1,0,1,0,33,0,33,0,,,,,,,33,,,0.2,1181.8340761212166,Y,l,go,l,1,,0.019507878794684075,,,,,,,,,,,,,,,,,88,001,20,w,Psychologie,2023-02-01_12h01.20.148,00_bat_bachelor,2022.2.4,59.90415335705001,
,,,,,,,,,,,,1,0,1,0,34,0,34,0,,,,,,,34,,,0.2,1182.184188606072,X,d,go,None,0,1182.9847607272823,,,,,,,,,,,,,,,,,,88,001,20,w,Psychologie,2023-02-01_12h01.20.148,00_bat_bachelor,2022.2.4,59.90415335705001,
,,,,,,,,,,,,1,0,1,0,35,0,35,0,,,,,,,35,,,0.2,1183.18519272728,X,None,nogo,None,1,1183.985530181817,,,,,,,,,,,,,,,,,,88,001,20,w,Psychologie,2023-02-01_12h01.20.148,00_bat_bachelor,2022.2.4,59.90415335705001,
,,,,,,,,,,,,1,0,1,0,36,0,36,0,,,,,,,36,,,0.2,1184.1856446060701,Y,l,go,None,0,1184.9866278787958,,,,,,,,,,,,,,,,,,88,001,20,w,Psychologie,2023-02-01_12h01.20.148,00_bat_bachelor,2022.2.4,59.90415335705001,
,,,,,,,,,,,,1,0,1,0,37,0,37,0,,,,,,,37,,,0.2,1185.1866458181903,X,d,go,None,0,1185.987032242425,,,,,,,,,,,,,,,,,,88,001,20,w,Psychologie,2023-02-01_12h01.20.148,00_bat_bachelor,2022.2.4,59.90415335705001,
,,,,,,,,,,,,1,0,1,0,38,0,38,0,,,,,,,38,,,0.2,1186.1871888484893,Y,l,go,None,0,1186.9878637575748,,,,,,,,,,,,,,,,,,88,001,20,w,Psychologie,2023-02-01_12h01.20.148,00_bat_bachelor,2022.2.4,59.90415335705001,
,,,,,,,,,,,,1,0,1,0,39,0,39,0,,,,,,,39,,,0.2,1187.18797527274,X,d,go,None,0,1187.9887903030321,,,,,,,,,,,,,,,,,,88,001,20,w,Psychologie,2023-02-01_12h01.20.148,00_bat_bachelor,2022.2.4,59.90415335705001,
,,,,,,,,,,,,1,0,1,0,40,0,40,0,,,,,,,40,,,0.2,1188.1890555151622,Y,l,go,d,0,,0.32048193938680924,,,,,,,,,,,,,,,,,88,001,20,w,Psychologie,2023-02-01_12h01.20.148,00_bat_bachelor,2022.2.4,59.90415335705001,
,,,,,,,,,,,,1,0,1,0,41,0,41,0,,,,,,,41,,,0.2,1188.8392290909105,X,d,go,None,0,1189.6400271515158,,,,,,,,,,,,,,,,,,88,001,20,w,Psychologie,2023-02-01_12h01.20.148,00_bat_bachelor,2022.2.4,59.90415335705001,
,,,,,,,,,,,,1,0,1,0,42,0,42,0,,,,,,,42,,,0.2,1189.8399573333445,Y,l,go,None,0,1190.640643393941,,,,,,,,,,,,,,,,,,88,001,20,w,Psychologie,2023-02-01_12h01.20.148,00_bat_bachelor,2022.2.4,59.90415335705001,
,,,,,,,,,,,,1,0,1,0,43,0,43,0,,,,,,,43,,,0.2,1190.8407170909195,X,d,go,None,0,1191.6415423030412,,,,,,,,,,,,,,,,,,88,001,20,w,Psychologie,2023-02-01_12h01.20.148,00_bat_bachelor,2022.2.4,59.90415335705001,
,,,,,,,,,,,,1,0,1,0,44,0,44,0,,,,,,,44,,,0.2,1191.8417246060708,X,None,nogo,d,0,,0.0768421818211209,,,,,,,,,,,,,,,,,88,001,20,w,Psychologie,2023-02-01_12h01.20.148,00_bat_bachelor,2022.2.4,59.90415335705001,
,,,,,,,,,,,,1,0,1,0,45,0,45,0,,,,,,,45,,,0.2,1192.2419966060697,Y,l,go,None,0,1193.042490666674,,,,,,,,,,,,,,,,,,88,001,20,w,Psychologie,2023-02-01_12h01.20.148,00_bat_bachelor,2022.2.4,59.90415335705001,
,,,,,,,,,,,,1,0,1,0,46,0,46,0,,,,,,,46,,,0.2,1193.2425629091013,X,d,go,None,0,1194.0432261818205,,,,,,,,,,,,,,,,,,88,001,20,w,Psychologie,2023-02-01_12h01.20.148,00_bat_bachelor,2022.2.4,59.90415335705001,
,,,,,,,,,,,,1,0,1,0,47,0,47,0,,,,,,,47,,,0.2,1194.2433551515278,X,None,nogo,l,0,,0.041531636350555345,,,,,,,,,,,,,,,,,88,001,20,w,Psychologie,2023-02-01_12h01.20.148,00_bat_bachelor,2022.2.4,59.90415335705001,
,,,,,,,,,,,,1,0,1,0,48,0,48,0,,,,,,,48,,,0.2,1194.6104984242556,Y,l,go,None,0,1195.4109818181896,,,,,,,,,,,,,,,,,,88,001,20,w,Psychologie,2023-02-01_12h01.20.148,00_bat_bachelor,2022.2.4,59.90415335705001,
,,,,,,,,,,,,1,0,1,0,49,0,49,0,,,,,,,49,,,0.2,1195.6112557575834,X,d,go,d,1,,0.593819636356784,,,,,,,,,,,,,,,,,88,001,20,w,Psychologie,2023-02-01_12h01.20.148,00_bat_bachelor,2022.2.4,59.90415335705001,
,,,,,,,,,,,,1,0,1,0,50,0,50,0,,,,,,,50,,,0.2,1196.5286555151542,Y,l,go,None,0,1197.329321696976,,,,,,,,,,,,,,,,,,88,001,20,w,Psychologie,2023-02-01_12h01.20.148,00_bat_bachelor,2022.2.4,59.90415335705001,
,,,,,,,,,,,,1,0,1,0,51,0,51,0,,,,,,,51,,,0.2,1197.5291592727299,X,d,go,None,0,1198.3298346666706,,,,,,,,,,,,,,,,,,88,001,20,w,Psychologie,2023-02-01_12h01.20.148,00_bat_bachelor,2022.2.4,59.90415335705001,
,,,,,,,,,,,,1,0,1,0,52,0,52,0,,,,,,,52,,,0.2,1198.5299185454642,X,None,nogo,None,1,1199.3307995151554,,,,,,,,,,,,,,,,,,88,001,20,w,Psychologie,2023-02-01_12h01.20.148,00_bat_bachelor,2022.2.4,59.90415335705001,
,,,,,,,,,,,,1,0,1,0,53,0,53,0,,,,,,,53,,,0.2,1199.5309958787984,X,None,nogo,None,1,1200.3313236363756,,,,,,,,,,,,,,,,,,88,001,20,w,Psychologie,2023-02-01_12h01.20.148,00_bat_bachelor,2022.2.4,59.90415335705001,
,,,,,,,,,,,,1,0,1,0,54,0,54,0,,,,,,,54,,,0.2,1200.531758060606,Y,l,go,d,0,,0.040994909082655795,,,,,,,,,,,,,,,,,88,001,20,w,Psychologie,2023-02-01_12h01.20.148,00_bat_bachelor,2022.2.4,59.90415335705001,
,,,,,,,,,,,,1,0,1,0,55,0,55,0,,,,,,,55,,,0.2,1200.898416000011,X,d,go,None,0,1201.699153939393,,,,,,,,,,,,,,,,,,88,001,20,w,Psychologie,2023-02-01_12h01.20.148,00_bat_bachelor,2022.2.4,59.90415335705001,
,,,,,,,,,,,,1,0,1,0,56,0,56,0,,,,,,,56,,,0.2,1201.8993498181808,Y,l,go,None,0,1202.6997978181898,,,,,,,,,,,,,,,,,,88,001,20,w,Psychologie,2023-02-01_12h01.20.148,00_bat_bachelor,2022.2.4,59.90415335705001,
,,,,,,,,,,,,1,0,1,0,57,0,57,0,,,,,,,57,,,0.2,1202.8999316363625,X,d,go,d,1,,0.6164126060466515,,,,,,,,,,,,,,,,,88,001,20,w,Psychologie,2023-02-01_12h01.20.148,00_bat_bachelor,2022.2.4,59.90415335705001,
,,,,,,,,,,,,1,0,1,0,58,0,58,0,,,,,,,58,,,0.2,1203.8508586666721,X,None,nogo,None,1,1204.6513769697049,,,,,,,,,,,,,,,,,,88,001,20,w,Psychologie,2023-02-01_12h01.20.148,00_bat_bachelor,2022.2.4,59.90415335705001,
,,,,,,,,,,,,1,0,1,0,59,0,59,0,,,,,,,59,,,0.2,1204.8516412121244,Y,l,go,l,1,,0.48924799999804236,,,,,,,,,,,,,,,,,88,001,20,w,Psychologie,2023-02-01_12h01.20.148,00_bat_bachelor,2022.2.4,59.90415335705001,
,,,,,,,,,,,,1,0,1,0,60,0,60,0,,,,,,,60,,,0.2,1205.668911515153,X,d,go,None,0,1206.4694938181929,,,,,,,,,,,,,,,,,,88,001,20,w,Psychologie,2023-02-01_12h01.20.148,00_bat_bachelor,2022.2.4,59.90415335705001,
,,,,,,,,,,,,1,0,1,0,61,0,61,0,,,,,,,61,,,0.2,1206.66966836364,Y,l,go,d,0,,0.3827263030252652,,,,,,,,,,,,,,,,,88,001,20,w,Psychologie,2023-02-01_12h01.20.148,00_bat_bachelor,2022.2.4,59.90415335705001,
,,,,,,,,,,,,1,0,1,0,62,0,62,0,,,,,,,62,,,0.2,1207.3867350303044,X,d,go,None,0,1208.187551030307,,,,,,,,,,,,,,,,,,88,001,20,w,Psychologie,2023-02-01_12h01.20.148,00_bat_bachelor,2022.2.4,59.90415335705001,
,,,,,,,,,,,,1,0,1,0,63,0,63,0,,,,,,,63,,,0.2,1208.3876727272727,Y,l,go,None,0,1209.1883393939497,,,,,,,,,,,,,,,,,,88,001,20,w,Psychologie,2023-02-01_12h01.20.148,00_bat_bachelor,2022.2.4,59.90415335705001,
,,,,,,,,,,,,1,0,1,0,64,0,64,0,,,,,,,64,,,0.2,1209.3882186666742,X,d,go,d,1,,0.4010744242259534,,,,,,,,,,,,,,,,,88,001,20,w,Psychologie,2023-02-01_12h01.20.148,00_bat_bachelor,2022.2.4,59.90415335705001,
,,,,,,,,,,,,1,0,1,0,65,0,65,0,,,,,,,65,,,0.2,1210.1057493333356,X,None,nogo,None,1,1210.9063553939486,,,,,,,,,,,,,,,,,,88,001,20,w,Psychologie,2023-02-01_12h01.20.148,00_bat_bachelor,2022.2.4,59.90415335705001,
,,,,,,,,,,,,1,0,1,0,66,0,66,0,,,,,,,66,,,0.2,1211.106199757589,Y,l,go,l,1,,0.555132121196948,,,,,,,,,,,,,,,,,88,001,20,w,Psychologie,2023-02-01_12h01.20.148,00_bat_bachelor,2022.2.4,59.90415335705001,
,,,,,,,,,,,,1,0,1,0,67,0,67,0,,,,,,,67,,,0.2,1211.9901992727391,X,d,go,None,0,1212.7907786666765,,,,,,,,,,,,,,,,,,88,001,20,w,Psychologie,2023-02-01_12h01.20.148,00_bat_bachelor,2022.2.4,59.90415335705001,
,,,,,,,,,,,,1,0,1,0,68,0,68,0,,,,,,,68,,,0.2,1212.991176727286,Y,l,go,None,0,1213.7918632727378,,,,,,,,,,,,,,,,,,88,001,20,w,Psychologie,2023-02-01_12h01.20.148,00_bat_bachelor,2022.2.4,59.90415335705001,
,,,,,,,,,,,,1,0,1,0,69,0,69,0,,,,,,,69,,,0.2,1213.991953454548,X,d,go,None,0,1214.7923423030297,,,,,,,,,,,,,,,,,,88,001,20,w,Psychologie,2023-02-01_12h01.20.148,00_bat_bachelor,2022.2.4,59.90415335705001,
,,,,,,,,,,,,1,0,1,0,70,0,70,0,,,,,,,70,,,0.2,1214.992775272738,Y,l,go,None,0,1215.7933808484959,,,,,,,,,,,,,,,,,,88,001,20,w,Psychologie,2023-02-01_12h01.20.148,00_bat_bachelor,2022.2.4,59.90415335705001,
,,,,,,,,,,,,1,0,1,0,71,0,71,0,,,,,,,71,,,0.2,1215.9934647272748,X,d,go,d,1,,0.4355374545411905,,,,,,,,,,,,,,,,,88,001,20,w,Psychologie,2023-02-01_12h01.20.148,00_bat_bachelor,2022.2.4,59.90415335705001,
,,,,,,,,,,,,1,0,1,0,72,0,72,0,,,,,,,72,,,0.2,1216.7440077575884,Y,l,go,None,0,1217.5443592727388,,,,,,,,,,,,,,,,,,88,001,20,w,Psychologie,2023-02-01_12h01.20.148,00_bat_bachelor,2022.2.4,59.90415335705001,
,,,,,,,,,,,,1,0,1,0,73,0,73,0,,,,,,,73,,,0.2,1217.744601696977,X,d,go,None,0,1218.545214545462,,,,,,,,,,,,,,,,,,88,001,20,w,Psychologie,2023-02-01_12h01.20.148,00_bat_bachelor,2022.2.4,59.90415335705001,
,,,,,,,,,,,,1,0,1,0,74,0,74,0,,,,,,,74,,,0.2,1218.745568000013,Y,l,go,None,0,1219.5459791515168,,,,,,,,,,,,,,,,,,88,001,20,w,Psychologie,2023-02-01_12h01.20.148,00_bat_bachelor,2022.2.4,59.90415335705001,
,,,,,,,,,,,,1,0,1,0,75,0,75,0,,,,,,,75,,,0.2,1219.7460775757645,X,d,go,None,0,1220.547037090917,,,,,,,,,,,,,,,,,,88,001,20,w,Psychologie,2023-02-01_12h01.20.148,00_bat_bachelor,2022.2.4,59.90415335705001,
,,,,,,,,,,,,1,0,1,0,76,0,76,0,,,,,,,76,,,0.2,1220.7468552727369,Y,l,go,d,0,,0.3532077575655421,,,,,,,,,,,,,,,,,88,001,20,w,Psychologie,2023-02-01_12h01.20.148,00_bat_bachelor,2022.2.4,59.90415335705001,
,,,,,,,,,,,,1,0,1,0,77,0,77,0,,,,,,,77,,,0.2,1221.4307214545552,Y,None,nogo,None,1,1222.231424484853,,,,,,,,,,,,,,,,,,88,001,20,w,Psychologie,2023-02-01_12h01.20.148,00_bat_bachelor,2022.2.4,59.90415335705001,
,,,,,,,,,,,,1,0,1,0,78,0,78,0,,,,,,,78,,,0.2,1222.4317483636405,X,d,go,d,1,,0.6534991515072761,,,,,,,,,,,,,,,,,88,001,20,w,Psychologie,2023-02-01_12h01.20.148,00_bat_bachelor,2022.2.4,59.90415335705001,
,,,,,,,,,,,,1,0,1,0,79,0,79,0,,,,,,,79,,,0.2,1223.432248727273,Y,l,go,None,0,1224.2331510303047,,,,,,,,,,,,,,,,,,88,001,20,w,Psychologie,2023-02-01_12h01.20.148,00_bat_bachelor,2022.2.4,59.90415335705001,
,,,,,,,,,,,,1,0,1,0,80,0,80,0,,,,,,,80,,,0.2,1224.4330269091006,Y,None,nogo,l,0,,0.12323733333323617,,,,,,,,,,,,,,,,,88,001,20,w,Psychologie,2023-02-01_12h01.20.148,00_bat_bachelor,2022.2.4,59.90415335705001,
,,,,,,,,,,,,1,0,1,0,81,0,81,0,,,,,,,81,,,0.2,1224.9000494545471,X,d,go,None,0,1225.7009042424324,,,,,,,,,,,,,,,,,,88,001,20,w,Psychologie,2023-02-01_12h01.20.148,00_bat_bachelor,2022.2.4,59.90415335705001,
,,,,,,,,,,,,1,0,1,0,82,0,82,0,,,,,,,82,,,0.2,1225.9010283636453,Y,l,go,None,0,1226.701656242425,,,,,,,,,,,,,,,,,,88,001,20,w,Psychologie,2023-02-01_12h01.20.148,00_bat_bachelor,2022.2.4,59.90415335705001,
,,,,,,,,,,,,1,0,1,0,83,0,83,0,,,,,,,83,,,0.2,1226.9018225454638,Y,None,nogo,None,1,1227.7024887272855,,,,,,,,,,,,,,,,,,88,001,20,w,Psychologie,2023-02-01_12h01.20.148,00_bat_bachelor,2022.2.4,59.90415335705001,
,,,,,,,,,,,,1,0,1,0,84,0,84,0,,,,,,,84,,,0.2,1227.9025503030425,X,d,go,d,1,,0.6387025454605464,,,,,,,,,,,,,,,,,88,001,20,w,Psychologie,2023-02-01_12h01.20.148,00_bat_bachelor,2022.2.4,59.90415335705001,
,,,,,,,,,,,,1,0,1,0,85,0,85,0,,,,,,,85,,,0.2,1228.8866579393944,Y,l,go,None,0,1229.6872140606138,,,,,,,,,,,,,,,,,,88,001,20,w,Psychologie,2023-02-01_12h01.20.148,00_bat_bachelor,2022.2.4,59.90415335705001,
,,,,,,,,,,,,1,0,1,0,86,0,86,0,,,,,,,86,,,0.2,1229.8872465454624,Y,None,nogo,None,1,1230.6878181818174,,,,,,,,,,,,,,,,,,88,001,20,w,Psychologie,2023-02-01_12h01.20.148,00_bat_bachelor,2022.2.4,59.90415335705001,
,,,,,,,,,,,,1,0,1,0,87,0,87,0,,,,,,,87,,,0.2,1230.8881706666725,X,d,go,d,1,,0.5496392727218335,,,,,,,,,,,,,,,,,88,001,20,w,Psychologie,2023-02-01_12h01.20.148,00_bat_bachelor,2022.2.4,59.90415335705001,
,,,,,,,,,,,,1,0,1,0,88,0,88,0,,,,,,,88,,,0.2,1231.7554792727315,Y,l,go,None,0,1232.5562366060622,,,,,,,,,,,,,,,,,,88,001,20,w,Psychologie,2023-02-01_12h01.20.148,00_bat_bachelor,2022.2.4,59.90415335705001,
,,,,,,,,,,,,1,0,1,0,89,0,89,0,,,,,,,89,,,0.2,1232.7562390303065,Y,None,nogo,None,1,1233.5567185454565,,,,,,,,,,,,,,,,,,88,001,20,w,Psychologie,2023-02-01_12h01.20.148,00_bat_bachelor,2022.2.4,59.90415335705001,
,,,,,,,,,,,,1,0,1,0,90,0,90,0,,,,,,,90,,,0.2,1233.7569692121324,X,d,go,d,1,,0.4803796363557922,,,,,,,,,,,,,,,,,88,001,20,w,Psychologie,2023-02-01_12h01.20.148,00_bat_bachelor,2022.2.4,59.90415335705001,
,,,,,,,,,,,,1,0,1,0,91,0,91,0,,,,,,,91,,,0.2,1234.5743466666754,Y,l,go,None,0,1235.3747932121332,,,,,,,,,,,,,,,,,,88,001,20,w,Psychologie,2023-02-01_12h01.20.148,00_bat_bachelor,2022.2.4,59.90415335705001,
,,,,,,,,,,,,1,0,1,0,92,0,92,0,,,,,,,92,,,0.2,1235.5749018181814,X,d,go,None,0,1236.3755694545544,,,,,,,,,,,,,,,,,,88,001,20,w,Psychologie,2023-02-01_12h01.20.148,00_bat_bachelor,2022.2.4,59.90415335705001,
,,,,,,,,,,,,1,0,1,0,93,0,93,0,,,,,,,93,,,0.2,1236.575838060613,X,None,nogo,d,0,,0.4940058181673521,,,,,,,,,,,,,,,,,88,001,20,w,Psychologie,2023-02-01_12h01.20.148,00_bat_bachelor,2022.2.4,59.90415335705001,
,,,,,,,,,,,,1,0,1,0,94,0,94,0,,,,,,,94,,,0.2,1237.376224000007,Y,l,go,None,0,1238.177079272733,,,,,,,,,,,,,,,,,,88,001,20,w,Psychologie,2023-02-01_12h01.20.148,00_bat_bachelor,2022.2.4,59.90415335705001,
,,,,,,,,,,,,1,0,1,0,95,0,95,0,,,,,,,95,,,0.2,1238.3769968484849,X,d,go,None,0,1239.177865696969,,,,,,,,,,,,,,,,,,88,001,20,w,Psychologie,2023-02-01_12h01.20.148,00_bat_bachelor,2022.2.4,59.90415335705001,
,,,,,,,,,,,,1,0,1,0,96,0,96,0,,,,,,,96,,,0.2,1239.3779476363707,X,None,nogo,None,1,1240.1784000000043,,,,,,,,,,,,,,,,,,88,001,20,w,Psychologie,2023-02-01_12h01.20.148,00_bat_bachelor,2022.2.4,59.90415335705001,
,,,,,,,,,,,,1,0,1,0,97,0,97,0,,,,,,,97,,,0.2,1240.3787718787935,Y,l,go,None,0,1241.1791132121289,,,,,,,,,,,,,,,,,,88,001,20,w,Psychologie,2023-02-01_12h01.20.148,00_bat_bachelor,2022.2.4,59.90415335705001,
,,,,,,,,,,,,1,0,1,0,98,0,98,0,,,,,,,98,,,0.2,1241.3790215757617,X,d,go,None,0,1242.1796276363748,,,,,,,,,,,,,,,,,,88,001,20,w,Psychologie,2023-02-01_12h01.20.148,00_bat_bachelor,2022.2.4,59.90415335705001,
,,,,,,,,,,,,1,0,1,0,99,0,99,0,,,,,,,99,,,0.2,1242.379811393941,Y,l,go,d,0,,0.0336950302880723,,,,,,,,,,,,,,,,,88,001,20,w,Psychologie,2023-02-01_12h01.20.148,00_bat_bachelor,2022.2.4,59.90415335705001,
,,,,,,,,,,,,1,0,1,0,100,0,100,0,,,,,,,100,,,0.2,1242.7300208484958,Y,None,nogo,None,1,1243.530890666676,,,,,,,,,,,,,,,,,,88,001,20,w,Psychologie,2023-02-01_12h01.20.148,00_bat_bachelor,2022.2.4,59.90415335705001,
,,,,,,,,,,,,1,0,1,0,101,0,101,0,,,,,,,101,,,0.2,1243.7312121212162,X,d,go,None,0,1244.5316843636392,,,,,,,,,,,,,,,,,,88,001,20,w,Psychologie,2023-02-01_12h01.20.148,00_bat_bachelor,2022.2.4,59.90415335705001,
,,,,,,,,,,,,1,0,1,0,102,0,102,0,,,,,,,102,,,0.2,1244.7316286060668,Y,l,go,None,0,,,,,,,,,,,,,,,,,,,88,001,20,w,Psychologie,2023-02-01_12h01.20.148,00_bat_bachelor,2022.2.4,59.90415335705001,
,,,,,,,,,,,,1,0,1,0,103,0,103,0,,,,,,,103,,,0.2,1245.732785939399,Y,None,nogo,None,1,1246.5335136969807,,,,,,,,,,,,,,,,,,88,001,20,w,Psychologie,2023-02-01_12h01.20.148,00_bat_bachelor,2022.2.4,59.90415335705001,
,,,,,,,,,,,,1,0,1,0,104,0,104,0,,,,,,,104,,,0.2,1246.7335612121242,X,d,go,None,0,1247.5339980606077,,,,,,,,,,,,,,,,,,88,001,20,w,Psychologie,2023-02-01_12h01.20.148,00_bat_bachelor,2022.2.4,59.90415335705001,
,,,,,,,,,,,,1,0,1,0,105,0,105,0,,,,,,,105,,,0.2,1247.7341110303096,Y,l,go,None,0,1248.5347379393934,,,,,,,,,,,,,,,,,,88,001,20,w,Psychologie,2023-02-01_12h01.20.148,00_bat_bachelor,2022.2.4,59.90415335705001,
,,,,,,,,,,,,1,0,1,0,106,0,106,0,,,,,,,106,,,0.2,1248.7348426666722,X,d,go,d,1,,0.10996606059779879,,,,,,,,,,,,,,,,,88,001,20,w,Psychologie,2023-02-01_12h01.20.148,00_bat_bachelor,2022.2.4,59.90415335705001,
,,,,,,,,,,,,1,0,1,0,107,0,107,0,,,,,,,107,,,0.2,1249.1685309090972,X,None,nogo,None,1,1249.9692373333382,,,,,,,,,,,,,,,,,,88,001,20,w,Psychologie,2023-02-01_12h01.20.148,00_bat_bachelor,2022.2.4,59.90415335705001,
,,,,,,,,,,,,1,0,1,0,108,0,108,0,,,,,,,108,,,0.2,1250.1695684848528,Y,l,go,None,0,1250.9699418181845,,,,,,,,,,,,,,,,,,88,001,20,w,Psychologie,2023-02-01_12h01.20.148,00_bat_bachelor,2022.2.4,59.90415335705001,
,,,,,,,,,,,,1,0,1,0,109,0,109,0,,,,,,,109,,,0.2,1251.1702947878803,X,d,go,None,0,1251.9709376969695,,,,,,,,,,,,,,,,,,88,001,20,w,Psychologie,2023-02-01_12h01.20.148,00_bat_bachelor,2022.2.4,59.90415335705001,
,,,,,,,,,,,,1,0,1,0,110,0,110,0,,,,,,,110,,,0.2,1252.1708538181847,Y,l,go,None,0,1252.9714535757666,,,,,,,,,,,,,,,,,,88,001,20,w,Psychologie,2023-02-01_12h01.20.148,00_bat_bachelor,2022.2.4,59.90415335705001,
,,,,,,,,,,,,1,0,1,0,111,0,111,0,,,,,,,111,,,0.2,1253.1715936969704,X,d,go,None,0,1253.9724640000059,,,,,,,,,,,,,,,,,,88,001,20,w,Psychologie,2023-02-01_12h01.20.148,00_bat_bachelor,2022.2.4,59.90415335705001,
,,,,,,,,,,,,1,0,1,0,112,0,112,0,,,,,,,112,,,0.2,1254.172381090917,X,None,nogo,None,1,1254.9729643636383,,,,,,,,,,,,,,,,,,88,001,20,w,Psychologie,2023-02-01_12h01.20.148,00_bat_bachelor,2022.2.4,59.90415335705001,
,,,,,,,,,,,,1,0,1,0,113,0,113,0,,,,,,,113,,,0.2,1255.1730976969702,Y,l,go,l,1,,0.6480785454477882,,,,,,,,,,,,,,,,,88,001,20,w,Psychologie,2023-02-01_12h01.20.148,00_bat_bachelor,2022.2.4,59.90415335705001,
,,,,,,,,,,,,1,0,1,0,114,0,114,0,,,,,,,114,,,0.2,1256.157236363637,X,d,go,None,0,1256.9578560000082,,,,,,,,,,,,,,,,,,88,001,20,w,Psychologie,2023-02-01_12h01.20.148,00_bat_bachelor,2022.2.4,59.90415335705001,
,,,,,,,,,,,,1,0,1,0,115,0,115,0,,,,,,,115,,,0.2,1257.1581726060685,Y,l,go,None,0,1257.9588528484892,,,,,,,,,,,,,,,,,,88,001,20,w,Psychologie,2023-02-01_12h01.20.148,00_bat_bachelor,2022.2.4,59.90415335705001,
,,,,,,,,,,,,1,0,1,0,116,0,116,0,,,,,,,116,,,0.2,1258.158724363646,X,d,go,None,0,1258.9595743030368,,,,,,,,,,,,,,,,,,88,001,20,w,Psychologie,2023-02-01_12h01.20.148,00_bat_bachelor,2022.2.4,59.90415335705001,
,,,,,,,,,,,,1,0,1,0,117,0,117,0,,,,,,,117,,,0.2,1259.1597420606122,X,None,nogo,None,1,1259.9603631515201,,,,,,,,,,,,,,,,,,88,001,20,w,Psychologie,2023-02-01_12h01.20.148,00_bat_bachelor,2022.2.4,59.90415335705001,
,,,,,,,,,,,,1,0,1,0,118,0,118,0,,,,,,,118,,,0.2,1260.1602656969771,Y,l,go,None,0,1260.9609153939527,,,,,,,,,,,,,,,,,,88,001,20,w,Psychologie,2023-02-01_12h01.20.148,00_bat_bachelor,2022.2.4,59.90415335705001,
,,,,,,,,,,,,1,0,1,0,119,0,119,0,,,,,,,119,,,0.2,1261.1610021818196,X,d,go,l,0,,0.19690521211305168,,,,,,,,,,,,,,,,,88,001,20,w,Psychologie,2023-02-01_12h01.20.148,00_bat_bachelor,2022.2.4,59.90415335705001,
,,,,,,,,,,,,1,0,1,0,120,0,120,0,,,,,,,120,,,0.2,1261.6782516363746,Y,l,go,d,0,,0.4792416969576152,,,,,,,,,,,,,,,,,88,001,20,w,Psychologie,2023-02-01_12h01.20.148,00_bat_bachelor,2022.2.4,59.90415335705001,
,,,,,,,,,,,,1,0,1,0,121,0,121,0,,,,,,,121,,,0.2,1262.4789187878778,Y,None,nogo,None,1,1263.279605333344,,,,,,,,,,,,,,,,,,88,001,20,w,Psychologie,2023-02-01_12h01.20.148,00_bat_bachelor,2022.2.4,59.90415335705001,
,,,,,,,,,,,,1,0,1,0,122,0,122,0,,,,,,,122,,,0.2,1263.479670787885,Y,None,nogo,None,1,1264.2803757575748,,,,,,,,,,,,,,,,,,88,001,20,w,Psychologie,2023-02-01_12h01.20.148,00_bat_bachelor,2022.2.4,59.90415335705001,
,,,,,,,,,,,,1,0,1,0,123,0,123,0,,,,,,,123,,,0.2,1264.4802647272736,X,d,go,None,0,1265.2811224242469,,,,,,,,,,,,,,,,,,88,001,20,w,Psychologie,2023-02-01_12h01.20.148,00_bat_bachelor,2022.2.4,59.90415335705001,
,,,,,,,,,,,,1,0,1,0,124,0,124,0,,,,,,,124,,,0.2,1265.4810812121286,Y,l,go,None,0,1266.2818870303163,,,,,,,,,,,,,,,,,,88,001,20,w,Psychologie,2023-02-01_12h01.20.148,00_bat_bachelor,2022.2.4,59.90415335705001,
,,,,,,,,,,,,1,0,1,0,125,0,125,0,,,,,,,125,,,0.2,1266.4819505454652,X,d,go,d,1,,0.5547728484671097,,,,,,,,,,,,,,,,,88,001,20,w,Psychologie,2023-02-01_12h01.20.148,00_bat_bachelor,2022.2.4,59.90415335705001,
,,,,,,,,,,,,1,0,1,0,126,0,126,0,,,,,,,126,,,0.2,1267.3826375757635,X,None,nogo,None,1,1268.183211151525,,,,,,,,,,,,,,,,,,88,001,20,w,Psychologie,2023-02-01_12h01.20.148,00_bat_bachelor,2022.2.4,59.90415335705001,
,,,,,,,,,,,,1,0,1,0,127,0,127,0,,,,,,,127,,,0.2,1268.3833973333385,Y,l,go,l,1,,0.5570729696773924,,,,,,,,,,,,,,,,,88,001,20,w,Psychologie,2023-02-01_12h01.20.148,00_bat_bachelor,2022.2.4,59.90415335705001,
,,,,,,,,,,,,1,0,1,0,128,0,128,0,,,,,,,128,,,0.2,1269.2838821818295,X,d,go,None,0,1270.0847452121234,,,,,,,,,,,,,,,,,,88,001,20,w,Psychologie,2023-02-01_12h01.20.148,00_bat_bachelor,2022.2.4,59.90415335705001,
,,,,,,,,,,,,1,0,1,0,129,0,129,0,,,,,,,129,,,0.2,1270.284854787882,Y,l,go,l,1,,0.5765493333310587,,,,,,,,,,,,,,,,,88,001,20,w,Psychologie,2023-02-01_12h01.20.148,00_bat_bachelor,2022.2.4,59.90415335705001,
,,,,,,,,,,,,1,0,1,0,130,0,130,0,,,,,,,130,,,0.2,1271.2020470303105,X,d,go,d,1,,0.6662496969656786,,,,,,,,,,,,,,,,,88,001,20,w,Psychologie,2023-02-01_12h01.20.148,00_bat_bachelor,2022.2.4,59.90415335705001,
,,,,,,,,,,,,1,0,1,0,131,0,131,0,,,,,,,131,,,0.2,1272.2027893333434,Y,l,go,None,0,1273.003677090921,,,,,,,,,,,,,,,,,,88,001,20,w,Psychologie,2023-02-01_12h01.20.148,00_bat_bachelor,2022.2.4,59.90415335705001,
,,,,,,,,,,,,1,0,1,0,132,0,132,0,,,,,,,132,,,0.2,1273.2035680000117,X,d,go,None,0,1274.0041764848575,,,,,,,,,,,,,,,,,,88,001,20,w,Psychologie,2023-02-01_12h01.20.148,00_bat_bachelor,2022.2.4,59.90415335705001,
,,,,,,,,,,,,1,0,1,0,133,0,133,0,,,,,,,133,,,0.2,1274.2045246060734,X,None,nogo,d,0,,0.09776678787602577,,,,,,,,,,,,,,,,,88,001,20,w,Psychologie,2023-02-01_12h01.20.148,00_bat_bachelor,2022.2.4,59.90415335705001,
,,,,,,,,,,,,1,0,1,0,134,0,134,0,,,,,,,134,,,0.2,1274.6212989091,Y,l,go,None,0,1275.4218996363634,,,,,,,,,,,,,,,,,,88,001,20,w,Psychologie,2023-02-01_12h01.20.148,00_bat_bachelor,2022.2.4,59.90415335705001,
,,,,,,,,,,,,1,0,1,0,135,0,135,0,,,,,,,135,,,0.2,1275.6222210909182,X,d,go,l,0,,0.02279757574433461,,,,,,,,,,,,,,,,,88,001,20,w,Psychologie,2023-02-01_12h01.20.148,00_bat_bachelor,2022.2.4,59.90415335705001,
,,,,,,,,,,,,1,0,1,0,136,0,136,0,,,,,,,136,,,0.2,1275.9891709091025,Y,l,go,None,0,1276.7896276363754,,,,,,,,,,,,,,,,,,88,001,20,w,Psychologie,2023-02-01_12h01.20.148,00_bat_bachelor,2022.2.4,59.90415335705001,
,,,,,,,,,,,,1,0,1,0,137,0,137,0,,,,,,,137,,,0.2,1276.9897842424252,X,d,go,None,0,1277.7903505454597,,,,,,,,,,,,,,,,,,88,001,20,w,Psychologie,2023-02-01_12h01.20.148,00_bat_bachelor,2022.2.4,59.90415335705001,
,,,,,,,,,,,,1,0,1,0,138,0,138,0,,,,,,,138,,,0.2,1277.9906176969816,X,None,nogo,d,0,,0.5506947878748178,,,,,,,,,,,,,,,,,88,001,20,w,Psychologie,2023-02-01_12h01.20.148,00_bat_bachelor,2022.2.4,59.90415335705001,
,,,,,,,,,,,,1,0,1,0,139,0,139,0,,,,,,,139,,,0.2,1278.8745226666797,Y,l,go,None,0,1279.6752000000124,,,,,,,,,,,,,,,,,,88,001,20,w,Psychologie,2023-02-01_12h01.20.148,00_bat_bachelor,2022.2.4,59.90415335705001,
,,,,,,,,,,,,1,0,1,0,140,0,140,0,,,,,,,140,,,0.2,1279.8755282424245,X,d,go,None,0,1280.6760669091018,,,,,,,,,,,,,,,,,,88,001,20,w,Psychologie,2023-02-01_12h01.20.148,00_bat_bachelor,2022.2.4,59.90415335705001,
,,,,,,,,,,,,1,0,1,0,141,0,141,0,,,,,,,141,,,0.2,1280.876014545458,Y,l,go,d,0,,0.22398060605337378,,,,,,,,,,,,,,,,,88,001,20,w,Psychologie,2023-02-01_12h01.20.148,00_bat_bachelor,2022.2.4,59.90415335705001,
,,,,,,,,,,,,1,0,1,0,142,0,142,0,,,,,,,142,,,0.2,1281.426469333339,X,d,go,None,0,1282.2273983030318,,,,,,,,,,,,,,,,,,88,001,20,w,Psychologie,2023-02-01_12h01.20.148,00_bat_bachelor,2022.2.4,59.90415335705001,
,,,,,,,,,,,,1,0,1,0,143,0,143,0,,,,,,,143,,,0.2,1282.4272004848608,X,None,nogo,None,1,1283.2278821818181,,,,,,,,,,,,,,,,,,88,001,20,w,Psychologie,2023-02-01_12h01.20.148,00_bat_bachelor,2022.2.4,59.90415335705001,
,,,,,,,,,,,,1,0,1,0,144,0,144,0,,,,,,,144,,,0.2,1283.4276572121307,Y,l,go,l,1,,0.6172198787826346,,,,,,,,,,,,,,,,,88,001,20,w,Psychologie,2023-02-01_12h01.20.148,00_bat_bachelor,2022.2.4,59.90415335705001,
,,,,,,,,,,,,1,0,1,0,145,0,145,0,,,,,,,145,,,0.2,1284.3450438787986,X,d,go,None,0,1285.1456319999998,,,,,,,,,,,,,,,,,,88,001,20,w,Psychologie,2023-02-01_12h01.20.148,00_bat_bachelor,2022.2.4,59.90415335705001,
,,,,,,,,,,,,1,0,1,0,146,0,146,0,,,,,,,146,,,0.2,1285.3457624242437,X,None,nogo,d,0,,0.2515568484814139,,,,,,,,,,,,,,,,,88,001,20,w,Psychologie,2023-02-01_12h01.20.148,00_bat_bachelor,2022.2.4,59.90415335705001,
,,,,,,,,,,,,1,0,1,0,147,0,147,0,,,,,,,147,,,0.2,1285.9129299393971,Y,l,go,None,0,1286.71332509091,,,,,,,,,,,,,,,,,,88,001,20,w,Psychologie,2023-02-01_12h01.20.148,00_bat_bachelor,2022.2.4,59.90415335705001,
,,,,,,,,,,,,1,0,1,0,148,0,148,0,,,,,,,148,,,0.2,1286.9134846060624,X,d,go,None,0,,,,,,,,,,,,,,,,,,,88,001,20,w,Psychologie,2023-02-01_12h01.20.148,00_bat_bachelor,2022.2.4,59.90415335705001,
,,,,,,,,,,,,1,0,1,0,149,0,149,0,,,,,,,149,,,0.2,1287.9142269090953,X,None,nogo,None,1,,,,,,,,,,,,,,,,,,,88,001,20,w,Psychologie,2023-02-01_12h01.20.148,00_bat_bachelor,2022.2.4,59.90415335705001,
,,,,,,,,,,,,1,0,1,0,150,0,150,0,,,,,,,150,,,0.2,1288.9152184242557,Y,l,go,l,1,,0.5541730909026228,,,,,,,,,,,,,,,,,88,001,20,w,Psychologie,2023-02-01_12h01.20.148,00_bat_bachelor,2022.2.4,59.90415335705001,
,,,,,,,,,,,,1,0,1,0,151,0,151,0,,,,,,,151,,,0.2,1289.7825163636444,X,d,go,None,0,,,,,,,,,,,,,,,,,,,88,001,20,w,Psychologie,2023-02-01_12h01.20.148,00_bat_bachelor,2022.2.4,59.90415335705001,
,,,,,,,,,,,,1,0,1,0,152,0,152,0,,,,,,,152,,,0.2,1290.7832130909082,Y,l,go,None,0,1291.5839650909184,,,,,,,,,,,,,,,,,,88,001,20,w,Psychologie,2023-02-01_12h01.20.148,00_bat_bachelor,2022.2.4,59.90415335705001,
,,,,,,,,,,,,1,0,1,0,153,0,153,0,,,,,,,153,,,0.2,1291.7840829091,Y,None,nogo,l,0,,0.14934545454161707,,,,,,,,,,,,,,,,,88,001,20,w,Psychologie,2023-02-01_12h01.20.148,00_bat_bachelor,2022.2.4,59.90415335705001,
,,,,,,,,,,,,1,0,1,0,154,0,154,0,,,,,,,154,,,0.2,1292.2344387878838,X,d,go,None,0,1293.0350303030427,,,,,,,,,,,,,,,,,,88,001,20,w,Psychologie,2023-02-01_12h01.20.148,00_bat_bachelor,2022.2.4,59.90415335705001,
,,,,,,,,,,,,1,0,1,0,155,0,155,0,,,,,,,155,,,0.2,1293.2351684848545,Y,l,go,None,0,1294.0357575757662,,,,,,,,,,,,,,,,,,88,001,20,w,Psychologie,2023-02-01_12h01.20.148,00_bat_bachelor,2022.2.4,59.90415335705001,
,,,,,,,,,,,,1,0,1,0,156,0,156,0,,,,,,,156,,,0.2,1294.2357212121278,X,d,go,d,1,,0.5948378181783482,,,,,,,,,,,,,,,,,88,001,20,w,Psychologie,2023-02-01_12h01.20.148,00_bat_bachelor,2022.2.4,59.90415335705001,
,,,,,,,,,,,,1,0,1,0,157,0,157,0,,,,,,,157,,,0.2,1295.1365682424366,X,None,nogo,None,1,1295.9372402424342,,,,,,,,,,,,,,,,,,88,001,20,w,Psychologie,2023-02-01_12h01.20.148,00_bat_bachelor,2022.2.4,59.90415335705001,
,,,,,,,,,,,,1,0,1,0,158,0,158,0,,,,,,,158,,,0.2,1296.1373726060701,Y,l,go,None,0,1296.938007757577,,,,,,,,,,,,,,,,,,88,001,20,w,Psychologie,2023-02-01_12h01.20.148,00_bat_bachelor,2022.2.4,59.90415335705001,
,,,,,,,,,,,,1,0,1,0,159,0,159,0,,,,,,,159,,,0.2,1297.1379447272775,X,d,go,None,0,1297.9386026666762,,,,,,,,,,,,,,,,,,88,001,20,w,Psychologie,2023-02-01_12h01.20.148,00_bat_bachelor,2022.2.4,59.90415335705001,
,,,,,,,,,,,,1,0,1,0,160,0,160,0,,,,,,,160,,,0.2,1298.138955636372,X,None,nogo,None,1,1298.939496727282,,,,,,,,,,,,,,,,,,88,001,20,w,Psychologie,2023-02-01_12h01.20.148,00_bat_bachelor,2022.2.4,59.90415335705001,
,,,,,,,,,,,,1,0,1,0,161,0,161,0,,,,,,,161,,,0.2,1299.1396441212128,Y,l,go,d,0,,0.4105919999856269,,,,,,,,,,,,,,,,,88,001,20,w,Psychologie,2023-02-01_12h01.20.148,00_bat_bachelor,2022.2.4,59.90415335705001,
,,,,,,,,,,,,1,0,1,0,162,0,162,0,,,,,,,162,,,0.2,1299.8568256969738,X,d,go,None,0,,,,,,,,,,,,,,,,,,,88,001,20,w,Psychologie,2023-02-01_12h01.20.148,00_bat_bachelor,2022.2.4,59.90415335705001,
,,,,,,,,,,,,1,0,1,0,163,0,163,0,,,,,,,163,,,0.2,1300.8574555151572,X,None,nogo,None,1,1301.6582589090976,,,,,,,,,,,,,,,,,,88,001,20,w,Psychologie,2023-02-01_12h01.20.148,00_bat_bachelor,2022.2.4,59.90415335705001,
,,,,,,,,,,,,1,0,1,0,164,0,164,0,,,,,,,164,,,0.2,1301.8582196363714,Y,l,go,None,0,,,,,,,,,,,,,,,,,,,88,001,20,w,Psychologie,2023-02-01_12h01.20.148,00_bat_bachelor,2022.2.4,59.90415335705001,
,,,,,,,,,,,,1,0,1,0,165,0,165,0,,,,,,,165,,,0.2,1302.8591461818287,X,d,go,None,0,1303.6597672727366,,,,,,,,,,,,,,,,,,88,001,20,w,Psychologie,2023-02-01_12h01.20.148,00_bat_bachelor,2022.2.4,59.90415335705001,
,,,,,,,,,,,,1,0,1,0,166,0,166,0,,,,,,,166,,,0.2,1303.8598821818305,X,None,nogo,None,1,1304.6603456969751,,,,,,,,,,,,,,,,,,88,001,20,w,Psychologie,2023-02-01_12h01.20.148,00_bat_bachelor,2022.2.4,59.90415335705001,
,,,,,,,,,,,,1,0,1,0,167,0,167,0,,,,,,,167,,,0.2,1304.8606172121217,Y,l,go,None,0,1305.661234909101,,,,,,,,,,,,,,,,,,88,001,20,w,Psychologie,2023-02-01_12h01.20.148,00_bat_bachelor,2022.2.4,59.90415335705001,
,,,,,,,,,,,,1,0,1,0,168,0,168,0,,,,,,,168,,,0.2,1305.861448242431,X,d,go,None,0,,,,,,,,,,,,,,,,,,,88,001,20,w,Psychologie,2023-02-01_12h01.20.148,00_bat_bachelor,2022.2.4,59.90415335705001,
,,,,,,,,,,,,1,0,1,0,169,0,169,0,,,,,,,169,,,0.2,1306.8621595151635,Y,l,go,l,1,,0.6230312727129785,,,,,,,,,,,,,,,,,88,001,20,w,Psychologie,2023-02-01_12h01.20.148,00_bat_bachelor,2022.2.4,59.90415335705001,
,,,,,,,,,,,,1,0,1,0,170,0,170,0,,,,,,,170,,,0.2,1307.7962007272727,Y,None,nogo,d,0,,0.6654443636216456,,,,,,,,,,,,,,,,,88,001,20,w,Psychologie,2023-02-01_12h01.20.148,00_bat_bachelor,2022.2.4,59.90415335705001,
,,,,,,,,,,,,1,0,1,0,171,0,171,0,,,,,,,171,,,0.2,1308.763620848491,X,d,go,None,0,,,,,,,,,,,,,,,,,,,88,001,20,w,Psychologie,2023-02-01_12h01.20.148,00_bat_bachelor,2022.2.4,59.90415335705001,
,,,,,,,,,,,,1,0,1,0,172,0,172,0,,,,,,,172,,,0.2,1309.7642322424363,Y,l,go,None,0,1310.5650152727321,,,,,,,,,,,,,,,,,,88,001,20,w,Psychologie,2023-02-01_12h01.20.148,00_bat_bachelor,2022.2.4,59.90415335705001,
,,,,,,,,,,,,1,0,1,0,173,0,173,0,,,,,,,173,,,0.2,1310.7649745454546,X,d,go,d,1,,0.5768601212039357,,,,,,,,,,,,,,,,,88,001,20,w,Psychologie,2023-02-01_12h01.20.148,00_bat_bachelor,2022.2.4,59.90415335705001,
,,,,,,,,,,,,1,0,1,0,174,0,174,0,,,,,,,174,,,0.2,1311.6490458181943,X,None,nogo,l,0,,0.6365968484751647,,,,,,,,,,,,,,,,,88,001,20,w,Psychologie,2023-02-01_12h01.20.148,00_bat_bachelor,2022.2.4,59.90415335705001,
,,,,,,,,,,,,1,0,1,0,175,0,175,0,,,,,,,175,,,0.2,1312.599706666675,Y,l,go,None,0,,,,,,,,,,,,,,,,,,,88,001,20,w,Psychologie,2023-02-01_12h01.20.148,00_bat_bachelor,2022.2.4,59.90415335705001,
,,,,,,,,,,,,1,0,1,0,176,0,176,0,,,,,,,176,,,0.2,1313.600537212129,X,d,go,None,0,1314.4011539393978,,,,,,,,,,,,,,,,,,88,001,20,w,Psychologie,2023-02-01_12h01.20.148,00_bat_bachelor,2022.2.4,59.90415335705001,
,,,,,,,,,,,,1,0,1,0,177,0,177,0,,,,,,,177,,,0.2,1314.6014303030388,X,None,nogo,None,1,1315.4020790303039,,,,,,,,,,,,,,,,,,88,001,20,w,Psychologie,2023-02-01_12h01.20.148,00_bat_bachelor,2022.2.4,59.90415335705001,
,,,,,,,,,,,,1,0,1,0,178,0,178,0,,,,,,,178,,,0.2,1315.6021774545516,Y,l,go,None,0,1316.4027912727324,,,,,,,,,,,,,,,,,,88,001,20,w,Psychologie,2023-02-01_12h01.20.148,00_bat_bachelor,2022.2.4,59.90415335705001,
,,,,,,,,,,,,1,0,1,0,179,0,179,0,,,,,,,179,,,0.2,1316.6027941818174,X,d,go,None,0,,,,,,,,,,,,,,,,,,,88,001,20,w,Psychologie,2023-02-01_12h01.20.148,00_bat_bachelor,2022.2.4,59.90415335705001,
,,,,,,,,,,,,1,0,1,0,180,0,180,0,,,,,,,180,,,0.2,1317.6035088484932,Y,l,go,None,0,,,,,,,,,,,,,,,,,,,88,001,20,w,Psychologie,2023-02-01_12h01.20.148,00_bat_bachelor,2022.2.4,59.90415335705001,
,,,,,,,,,,,,1,0,1,0,181,0,181,0,,,,,,,181,,,0.2,1318.604501333335,X,d,go,None,0,1319.4050783030398,,,,,,,,,,,,,,,,,,88,001,20,w,Psychologie,2023-02-01_12h01.20.148,00_bat_bachelor,2022.2.4,59.90415335705001,
,,,,,,,,,,,,1,0,1,0,182,0,182,0,,,,,,,182,,,0.2,1319.6050540606084,Y,l,go,l,1,,0.4878113939339528,,,,,,,,,,,,,,,,,88,001,20,w,Psychologie,2023-02-01_12h01.20.148,00_bat_bachelor,2022.2.4,59.90415335705001,
,,,,,,,,,,,,1,0,1,0,183,0,183,0,,,,,,,183,,,0.2,1320.4059170909168,Y,None,nogo,None,1,1321.2065081212204,,,,,,,,,,,,,,,,,,88,001,20,w,Psychologie,2023-02-01_12h01.20.148,00_bat_bachelor,2022.2.4,59.90415335705001,
,,,,,,,,,,,,1,0,1,0,184,0,184,0,,,,,,,184,,,0.2,1321.4066356363764,X,d,go,None,0,1322.2070530909114,,,,,,,,,,,,,,,,,,88,001,20,w,Psychologie,2023-02-01_12h01.20.148,00_bat_bachelor,2022.2.4,59.90415335705001,
,,,,,,,,,,,,1,0,1,0,185,0,185,0,,,,,,,185,,,0.2,1322.4074186666694,Y,l,go,None,0,1323.2080305454583,,,,,,,,,,,,,,,,,,88,001,20,w,Psychologie,2023-02-01_12h01.20.148,00_bat_bachelor,2022.2.4,59.90415335705001,
,,,,,,,,,,,,1,0,1,0,186,0,186,0,,,,,,,186,,,0.2,1323.408152242424,X,d,go,l,0,,0.029722181818215176,,,,,,,,,,,,,,,,,88,001,20,w,Psychologie,2023-02-01_12h01.20.148,00_bat_bachelor,2022.2.4,59.90415335705001,
,,,,,,,,,,,,1,0,1,0,187,0,187,0,,,,,,,187,,,0.2,1323.741720727281,X,None,nogo,d,0,,0.6403146666561952,,,,,,,,,,,,,,,,,88,001,20,w,Psychologie,2023-02-01_12h01.20.148,00_bat_bachelor,2022.2.4,59.90415335705001,
,,,,,,,,,,,,1,0,1,0,188,0,188,0,,,,,,,188,,,0.2,1324.6924930909154,Y,l,go,None,0,1325.4931107878801,,,,,,,,,,,,,,,,,,88,001,20,w,Psychologie,2023-02-01_12h01.20.148,00_bat_bachelor,2022.2.4,59.90415335705001,
,,,,,,,,,,,,1,0,1,0,189,0,189,0,,,,,,,189,,,0.2,1325.6930104242492,X,d,go,d,1,,0.6412096969579579,,,,,,,,,,,,,,,,,88,001,20,w,Psychologie,2023-02-01_12h01.20.148,00_bat_bachelor,2022.2.4,59.90415335705001,
,,,,,,,,,,,,1,0,1,0,190,0,190,0,,,,,,,190,,,0.2,1326.6439534545498,Y,l,go,None,0,,,,,,,,,,,,,,,,,,,88,001,20,w,Psychologie,2023-02-01_12h01.20.148,00_bat_bachelor,2022.2.4,59.90415335705001,
,,,,,,,,,,,,1,0,1,0,191,0,191,0,,,,,,,191,,,0.2,1327.6445318787883,X,d,go,None,0,1328.445099636374,,,,,,,,,,,,,,,,,,88,001,20,w,Psychologie,2023-02-01_12h01.20.148,00_bat_bachelor,2022.2.4,59.90415335705001,
,,,,,,,,,,,,1,0,1,0,192,0,192,0,,,,,,,192,,,0.2,1328.6454516363738,Y,l,go,None,0,1329.446186666668,,,,,,,,,,,,,,,,,,88,001,20,w,Psychologie,2023-02-01_12h01.20.148,00_bat_bachelor,2022.2.4,59.90415335705001,
,,,,,,,,,,,,1,0,1,0,193,0,193,0,,,,,,,193,,,0.2,1329.646243393945,X,d,go,l,0,,0.014905696953064762,,,,,,,,,,,,,,,,,88,001,20,w,Psychologie,2023-02-01_12h01.20.148,00_bat_bachelor,2022.2.4,59.90415335705001,
,,,,,,,,,,,,1,0,1,0,194,0,194,0,,,,,,,194,,,0.2,1329.9630943030352,Y,l,go,None,0,1330.7637284848606,,,,,,,,,,,,,,,,,,88,001,20,w,Psychologie,2023-02-01_12h01.20.148,00_bat_bachelor,2022.2.4,59.90415335705001,
,,,,,,,,,,,,1,0,1,0,195,0,195,0,,,,,,,195,,,0.2,1330.9638783030387,Y,None,nogo,None,1,1331.764522666679,,,,,,,,,,,,,,,,,,88,001,20,w,Psychologie,2023-02-01_12h01.20.148,00_bat_bachelor,2022.2.4,59.90415335705001,
,,,,,,,,,,,,1,0,1,0,196,0,196,0,,,,,,,196,,,0.2,1331.9644683636434,X,d,go,d,1,,0.6253444848407526,,,,,,,,,,,,,,,,,88,001,20,w,Psychologie,2023-02-01_12h01.20.148,00_bat_bachelor,2022.2.4,59.90415335705001,
,,,,,,,,,,,,1,0,1,0,197,0,197,0,,,,,,,197,,,0.2,1332.898496000009,Y,l,go,l,1,,0.47503660606162157,,,,,,,,,,,,,,,,,88,001,20,w,Psychologie,2023-02-01_12h01.20.148,00_bat_bachelor,2022.2.4,59.90415335705001,
,,,,,,,,,,,,1,0,1,0,198,0,198,0,,,,,,,198,,,0.2,1333.682680242433,X,d,go,d,1,,0.5075995151419193,,,,,,,,,,,,,,,,,88,001,20,w,Psychologie,2023-02-01_12h01.20.148,00_bat_bachelor,2022.2.4,59.90415335705001,
,,,,,,,,,,,,1,0,1,0,199,0,199,0,,,,,,,199,,,0.2,1334.499889454557,Y,l,go,None,0,,,,,,,,,,,,,,,,,,,88,001,20,w,Psychologie,2023-02-01_12h01.20.148,00_bat_bachelor,2022.2.4,59.90415335705001,
