loop_instruction.thisRepN,loop_instruction.thisTrialN,loop_instruction.thisN,loop_instruction.thisIndex,loop_rsi_practice.thisRepN,loop_rsi_practice.thisTrialN,loop_rsi_practice.thisN,loop_rsi_practice.thisIndex,loop_practice.thisRepN,loop_practice.thisTrialN,loop_practice.thisN,loop_practice.thisIndex,loop_exp.thisRepN,loop_exp.thisTrialN,loop_exp.thisN,loop_exp.thisIndex,loop_trials.thisRepN,loop_trials.thisTrialN,loop_trials.thisN,loop_trials.thisIndex,map_condition,map_x_key,map_y_key,key_resp_welcome.started,key_resp_welcome.keys,key_resp_welcome.rt,index,text_empty_rsi_practice.started,text_empty_rsi_practice.stopped,rsi,stimulus.started,stimulus,correct,trial_type,key_resp_trial.keys,key_resp_trial.corr,stimulus.stopped,key_resp_trial.rt,key_resp_instruction_rsi.started,key_resp_instruction_rsi.keys,key_resp_instruction_rsi.rt,key_resp_instruction_rsi.stopped,key_resp_instruction_final.started,key_resp_instruction_final.keys,key_resp_instruction_final.rt,key_resp_break.started,key_resp_break.keys,key_resp_break.rt,key_resp_break.stopped,key_resp_end_screen.started,image_end_screen.started,key_resp_end_screen.keys,participant,session,Alter,Geschlecht (w/m/d/andere),Studiengang,date,expName,psychopyVersion,frameRate,
,,,,0,0,0,0,0,0,0,0,,,,,,,,,1,l,d,2439.511974303052,space,51.013278666650876,0,2490.5644867878873,2491.57760145457,1,2491.57760145457,X,l,go,None,0,,,,,,,,,,,,,,,,,91,001,23,w,Bildungswissenschaften und Psychologie,2023-02-06_09h25.06.787,00_bat_bachelor,2022.2.4,60.08564934582312,
,,,,0,0,0,0,1,0,1,0,,,,,,,,,,,,,,,1,2492.9931321212207,2493.993756606069,1,2493.993756606069,Y,d,go,None,0,2494.79449987883,,,,,,,,,,,,,,,,91,001,23,w,Bildungswissenschaften und Psychologie,2023-02-06_09h25.06.787,00_bat_bachelor,2022.2.4,60.08564934582312,
,,,,0,0,0,0,2,0,2,0,,,,,,,,,,,,,,,2,2495.3950089697028,2496.3955844848533,1,2496.3955844848533,X,l,go,None,0,2497.1961561212083,,,,,,,,,,,,,,,,91,001,23,w,Bildungswissenschaften und Psychologie,2023-02-06_09h25.06.787,00_bat_bachelor,2022.2.4,60.08564934582312,
,,,,0,0,0,0,3,0,3,0,,,,,,,,,,,,,,,3,2497.79663466668,2498.797627636406,1,2498.797627636406,X,None,nogo,None,1,2499.5980586666847,,,,,,,,,,,,,,,,91,001,23,w,Bildungswissenschaften und Psychologie,2023-02-06_09h25.06.787,00_bat_bachelor,2022.2.4,60.08564934582312,
,,,,0,0,0,0,4,0,4,0,,,,,,,,,,,,,,,4,2500.1986889697146,2501.199406545493,1,2501.199406545493,Y,d,go,None,0,2502.0000620606006,,,,,,,,,,,,,,,,91,001,23,w,Bildungswissenschaften und Psychologie,2023-02-06_09h25.06.787,00_bat_bachelor,2022.2.4,60.08564934582312,
,,,,0,0,0,0,5,0,5,0,,,,,,,,,,,,,,,5,2502.600438303023,2503.601314424246,1,2503.601314424246,X,l,go,l,1,,0.5836263030068949,,,,,,,,,,,,,,,91,001,23,w,Bildungswissenschaften und Psychologie,2023-02-06_09h25.06.787,00_bat_bachelor,2022.2.4,60.08564934582312,
,,,,0,0,0,0,6,0,6,0,,,,,,,,,,,,,,,6,2504.8855578181683,2505.8863495757687,1,2505.8863495757687,X,None,nogo,None,1,2506.6870075151674,,,,,,,,,,,,,,,,91,001,23,w,Bildungswissenschaften und Psychologie,2023-02-06_09h25.06.787,00_bat_bachelor,2022.2.4,60.08564934582312,
,,,,0,0,0,0,7,0,7,0,,,,,,,,,,,,,,,7,2507.2868242424447,2508.2875912727322,1,2508.2875912727322,Y,d,go,None,0,,,,,,,,,,,,,,,,,91,001,23,w,Bildungswissenschaften und Psychologie,2023-02-06_09h25.06.787,00_bat_bachelor,2022.2.4,60.08564934582312,
,,,,0,0,0,0,8,0,8,0,,,,,,,,,,,,,,,8,2509.6889730909024,2510.689693575783,1,2510.689693575783,X,l,go,l,1,,0.5043259394005872,,,,,,,,,,,,,,,91,001,23,w,Bildungswissenschaften und Psychologie,2023-02-06_09h25.06.787,00_bat_bachelor,2022.2.4,60.08564934582312,
,,,,0,0,0,0,9,0,9,0,,,,,,,,,,,,,,,9,2511.9072974545415,2512.9081027879147,1,2512.9081027879147,Y,d,go,d,1,,0.44589151517720893,,,,,,,,,,,,,,,91,001,23,w,Bildungswissenschaften und Psychologie,2023-02-06_09h25.06.787,00_bat_bachelor,2022.2.4,60.08564934582312,
,,,,0,0,0,0,10,0,10,0,,,,,,,,,,,,,,,10,2514.058623515186,2515.0597721212544,1,2515.0597721212544,X,l,go,l,1,,0.42172278789803386,,,,,,,,,,,,,,,91,001,23,w,Bildungswissenschaften und Psychologie,2023-02-06_09h25.06.787,00_bat_bachelor,2022.2.4,60.08564934582312,
,,,,0,0,0,0,11,0,11,0,,,,,,,,,,,,,,,11,2516.193914181844,2517.1946938182227,1,2517.1946938182227,X,None,nogo,l,0,,0.6229950303095393,,,,,,,,,,,,,,,91,001,23,w,Bildungswissenschaften und Psychologie,2023-02-06_09h25.06.787,00_bat_bachelor,2022.2.4,60.08564934582312,
,,,,0,0,0,0,12,0,12,0,,,,,,,,,,,,,,,12,2518.9292310303426,2519.9297609697096,1,2519.9297609697096,X,None,nogo,l,0,,0.43257127271499485,,,,,,,,,,,,,,,91,001,23,w,Bildungswissenschaften und Psychologie,2023-02-06_09h25.06.787,00_bat_bachelor,2022.2.4,60.08564934582312,
,,,,0,0,0,0,13,0,13,0,,,,,,,,,,,,,,,13,2521.4646002424415,2522.4652751515387,1,2522.4652751515387,Y,d,go,d,1,,0.6001780606457032,,,,,,,,,,,,,,,91,001,23,w,Bildungswissenschaften und Psychologie,2023-02-06_09h25.06.787,00_bat_bachelor,2022.2.4,60.08564934582312,
,,,,0,0,0,0,14,0,14,0,,,,,,,,,,,,,,,14,2523.765999030322,2524.7667752727284,1,2524.7667752727284,X,l,go,l,1,,0.49076084850821644,,,,,,,,,,,,,,,91,001,23,w,Bildungswissenschaften und Psychologie,2023-02-06_09h25.06.787,00_bat_bachelor,2022.2.4,60.08564934582312,
,,,,1,0,1,0,0,0,0,0,,,,,,,,,,,,,,,0,2543.0810870302957,2543.280882909079,0.2,2543.280882909079,X,l,go,None,0,2544.081754666695,,2525.9782812121557,space,17.075344121200033,,,,,,,,,,,,91,001,23,w,Bildungswissenschaften und Psychologie,2023-02-06_09h25.06.787,00_bat_bachelor,2022.2.4,60.08564934582312,
,,,,1,0,1,0,1,0,1,0,,,,,,,,,,,,,,,1,2544.6819277575705,2544.88224387879,0.2,2544.88224387879,Y,d,go,d,1,,0.4711424242705107,,,,,,,,,,,,,,,91,001,23,w,Bildungswissenschaften und Psychologie,2023-02-06_09h25.06.787,00_bat_bachelor,2022.2.4,60.08564934582312,
,,,,1,0,1,0,2,0,2,0,,,,,,,,,,,,,,,2,2546.0666327272775,2546.266852848523,0.2,2546.266852848523,X,l,go,l,1,,0.3670260605867952,,,,,,,,,,,,,,,91,001,23,w,Bildungswissenschaften und Psychologie,2023-02-06_09h25.06.787,00_bat_bachelor,2022.2.4,60.08564934582312,
,,,,1,0,1,0,3,0,3,0,,,,,,,,,,,,,,,3,2547.334270545456,2547.5345216969727,0.2,2547.5345216969727,X,None,nogo,None,1,2548.3349987879046,,,,,,,,,,,,,,,,91,001,23,w,Bildungswissenschaften und Psychologie,2023-02-06_09h25.06.787,00_bat_bachelor,2022.2.4,60.08564934582312,
,,,,1,0,1,0,4,0,4,0,,,,,,,,,,,,,,,4,2548.935546181805,2549.1356174545363,0.2,2549.1356174545363,Y,d,go,d,1,,0.3778449697420001,,,,,,,,,,,,,,,91,001,23,w,Bildungswissenschaften und Psychologie,2023-02-06_09h25.06.787,00_bat_bachelor,2022.2.4,60.08564934582312,
,,,,1,0,1,0,5,0,5,0,,,,,,,,,,,,,,,5,2550.219868606073,2550.420049939421,0.2,2550.420049939421,X,l,go,None,0,2551.2206240000087,,,,,,,,,,,,,,,,91,001,23,w,Bildungswissenschaften und Psychologie,2023-02-06_09h25.06.787,00_bat_bachelor,2022.2.4,60.08564934582312,
,,,,1,0,1,0,6,0,6,0,,,,,,,,,,,,,,,6,2551.820755393943,2552.021192727261,0.2,2552.021192727261,Y,d,go,None,0,2552.8218967273133,,,,,,,,,,,,,,,,91,001,23,w,Bildungswissenschaften und Psychologie,2023-02-06_09h25.06.787,00_bat_bachelor,2022.2.4,60.08564934582312,
,,,,1,0,1,0,7,0,7,0,,,,,,,,,,,,,,,7,2553.422322909115,2553.6224363636575,0.2,2553.6224363636575,X,l,go,l,1,,0.43496254546334967,,,,,,,,,,,,,,,91,001,23,w,Bildungswissenschaften und Psychologie,2023-02-06_09h25.06.787,00_bat_bachelor,2022.2.4,60.08564934582312,
,,,,1,0,1,0,8,0,8,0,,,,,,,,,,,,,,,8,2554.7733328485047,2554.973472484853,0.2,2554.973472484853,Y,d,go,d,1,,0.34856690908782184,,,,,,,,,,,,,,,91,001,23,w,Bildungswissenschaften und Psychologie,2023-02-06_09h25.06.787,00_bat_bachelor,2022.2.4,60.08564934582312,
,,,,1,0,1,0,9,0,9,0,,,,,,,,,,,,,,,9,2556.0240896969917,2556.2243723636493,0.2,2556.2243723636493,Y,None,nogo,None,1,,,,,,,,,,,,,,,,,91,001,23,w,Bildungswissenschaften und Psychologie,2023-02-06_09h25.06.787,00_bat_bachelor,2022.2.4,60.08564934582312,
,,,,1,0,1,0,10,0,10,0,,,,,,,,,,,,,,,10,2557.625459878822,2557.8253313939786,0.2,2557.8253313939786,Y,None,nogo,d,0,,0.424182424263563,,,,,,,,,,,,,,,91,001,23,w,Bildungswissenschaften und Psychologie,2023-02-06_09h25.06.787,00_bat_bachelor,2022.2.4,60.08564934582312,
,,,,1,0,1,0,11,0,11,0,,,,,,,,,,,,,,,11,2559.3600955151487,2559.5601008484955,0.2,2559.5601008484955,X,l,go,l,1,,0.5617659394047223,,,,,,,,,,,,,,,91,001,23,w,Bildungswissenschaften und Psychologie,2023-02-06_09h25.06.787,00_bat_bachelor,2022.2.4,60.08564934582312,
,,,,1,0,1,0,12,0,12,0,,,,,,,,,,,,,,,12,2560.845350303047,2561.04522860609,0.2,2561.04522860609,Y,d,go,d,1,,0.32379406061954796,,,,,,,,,,,,,,,91,001,23,w,Bildungswissenschaften und Psychologie,2023-02-06_09h25.06.787,00_bat_bachelor,2022.2.4,60.08564934582312,
,,,,1,0,1,0,13,0,13,0,,,,,,,,,,,,,,,13,2562.0962715151836,2562.2965590303065,0.2,2562.2965590303065,X,l,go,l,1,,0.35277636360842735,,,,,,,,,,,,,,,91,001,23,w,Bildungswissenschaften und Psychologie,2023-02-06_09h25.06.787,00_bat_bachelor,2022.2.4,60.08564934582312,
,,,,1,0,1,0,14,0,14,0,,,,,,,,,,,,,,,14,2563.380456727289,2563.5804853333393,0.2,2563.5804853333393,X,None,nogo,None,1,2564.3811345454887,,,,,,,,,,,,,,,,91,001,23,w,Bildungswissenschaften und Psychologie,2023-02-06_09h25.06.787,00_bat_bachelor,2022.2.4,60.08564934582312,
,,,,,,,,,,,,,,,,,,,,,,,,,,,,,,,,,,,,,,2565.0367311515147,None,,2565.0367311515147,2565.0367311515147,space,10.608491757593583,,,,,,,,91,001,23,w,Bildungswissenschaften und Psychologie,2023-02-06_09h25.06.787,00_bat_bachelor,2022.2.4,60.08564934582312,
,,,,,,,,,,,,0,0,0,0,0,0,0,0,,,,,,,0,,,1,2576.673296969733,X,l,go,l,1,,0.6008660605875775,,,,,,,,,,,,,,,91,001,23,w,Bildungswissenschaften und Psychologie,2023-02-06_09h25.06.787,00_bat_bachelor,2022.2.4,60.08564934582312,
,,,,,,,,,,,,0,0,0,0,1,0,1,0,,,,,,,1,,,1,2578.3746627878863,Y,d,go,d,1,,0.46686993940966204,,,,,,,,,,,,,,,91,001,23,w,Bildungswissenschaften und Psychologie,2023-02-06_09h25.06.787,00_bat_bachelor,2022.2.4,60.08564934582312,
,,,,,,,,,,,,0,0,0,0,2,0,2,0,,,,,,,2,,,1,2579.9421779394033,X,l,go,l,1,,0.3714852121192962,,,,,,,,,,,,,,,91,001,23,w,Bildungswissenschaften und Psychologie,2023-02-06_09h25.06.787,00_bat_bachelor,2022.2.4,60.08564934582312,
,,,,,,,,,,,,0,0,0,0,3,0,3,0,,,,,,,3,,,1,2581.4269842424546,Y,d,go,d,1,,0.37443406059173867,,,,,,,,,,,,,,,91,001,23,w,Bildungswissenschaften und Psychologie,2023-02-06_09h25.06.787,00_bat_bachelor,2022.2.4,60.08564934582312,
,,,,,,,,,,,,0,0,0,0,4,0,4,0,,,,,,,4,,,1,2582.911381333368,X,l,go,l,1,,0.4106929696863517,,,,,,,,,,,,,,,91,001,23,w,Bildungswissenschaften und Psychologie,2023-02-06_09h25.06.787,00_bat_bachelor,2022.2.4,60.08564934582312,
,,,,,,,,,,,,0,0,0,0,5,0,5,0,,,,,,,5,,,1,2584.4290957576013,Y,d,go,d,1,,0.5727264242595993,,,,,,,,,,,,,,,91,001,23,w,Bildungswissenschaften und Psychologie,2023-02-06_09h25.06.787,00_bat_bachelor,2022.2.4,60.08564934582312,
,,,,,,,,,,,,0,0,0,0,6,0,6,0,,,,,,,6,,,1,2586.1138865454705,X,l,go,l,1,,0.4719884848454967,,,,,,,,,,,,,,,91,001,23,w,Bildungswissenschaften und Psychologie,2023-02-06_09h25.06.787,00_bat_bachelor,2022.2.4,60.08564934582312,
,,,,,,,,,,,,0,0,0,0,7,0,7,0,,,,,,,7,,,1,2587.698135272716,Y,d,go,d,1,,0.48735963634680957,,,,,,,,,,,,,,,91,001,23,w,Bildungswissenschaften und Psychologie,2023-02-06_09h25.06.787,00_bat_bachelor,2022.2.4,60.08564934582312,
,,,,,,,,,,,,0,0,0,0,8,0,8,0,,,,,,,8,,,1,2589.299262545479,X,l,go,l,1,,0.4061843636445701,,,,,,,,,,,,,,,91,001,23,w,Bildungswissenschaften und Psychologie,2023-02-06_09h25.06.787,00_bat_bachelor,2022.2.4,60.08564934582312,
,,,,,,,,,,,,0,0,0,0,9,0,9,0,,,,,,,9,,,1,2590.8174366060994,X,None,nogo,None,1,,,,,,,,,,,,,,,,,91,001,23,w,Bildungswissenschaften und Psychologie,2023-02-06_09h25.06.787,00_bat_bachelor,2022.2.4,60.08564934582312,
,,,,,,,,,,,,0,0,0,0,10,0,10,0,,,,,,,10,,,1,2592.6186293333303,Y,d,go,d,1,,0.4152200000244193,,,,,,,,,,,,,,,91,001,23,w,Bildungswissenschaften und Psychologie,2023-02-06_09h25.06.787,00_bat_bachelor,2022.2.4,60.08564934582312,
,,,,,,,,,,,,0,0,0,0,11,0,11,0,,,,,,,11,,,1,2594.1367287272587,X,l,go,l,1,,0.36864303034963086,,,,,,,,,,,,,,,91,001,23,w,Bildungswissenschaften und Psychologie,2023-02-06_09h25.06.787,00_bat_bachelor,2022.2.4,60.08564934582312,
,,,,,,,,,,,,0,0,0,0,12,0,12,0,,,,,,,12,,,1,2595.62080630305,X,None,nogo,None,1,,,,,,,,,,,,,,,,,91,001,23,w,Bildungswissenschaften und Psychologie,2023-02-06_09h25.06.787,00_bat_bachelor,2022.2.4,60.08564934582312,
,,,,,,,,,,,,0,0,0,0,13,0,13,0,,,,,,,13,,,1,2597.422159030335,Y,d,go,d,1,,0.3148166061146185,,,,,,,,,,,,,,,91,001,23,w,Bildungswissenschaften und Psychologie,2023-02-06_09h25.06.787,00_bat_bachelor,2022.2.4,60.08564934582312,
,,,,,,,,,,,,0,0,0,0,14,0,14,0,,,,,,,14,,,1,2598.839960242447,X,l,go,l,1,,0.35340424242895097,,,,,,,,,,,,,,,91,001,23,w,Bildungswissenschaften und Psychologie,2023-02-06_09h25.06.787,00_bat_bachelor,2022.2.4,60.08564934582312,
,,,,,,,,,,,,0,0,0,0,15,0,15,0,,,,,,,15,,,1,2600.3080610909383,Y,d,go,d,1,,0.3257043636403978,,,,,,,,,,,,,,,91,001,23,w,Bildungswissenschaften und Psychologie,2023-02-06_09h25.06.787,00_bat_bachelor,2022.2.4,60.08564934582312,
,,,,,,,,,,,,0,0,0,0,16,0,16,0,,,,,,,16,,,1,2601.7424334545503,X,l,go,l,1,,0.36310460610548034,,,,,,,,,,,,,,,91,001,23,w,Bildungswissenschaften und Psychologie,2023-02-06_09h25.06.787,00_bat_bachelor,2022.2.4,60.08564934582312,
,,,,,,,,,,,,0,0,0,0,17,0,17,0,,,,,,,17,,,1,2603.2103956363862,X,None,nogo,None,1,,,,,,,,,,,,,,,,,91,001,23,w,Bildungswissenschaften und Psychologie,2023-02-06_09h25.06.787,00_bat_bachelor,2022.2.4,60.08564934582312,
,,,,,,,,,,,,0,0,0,0,18,0,18,0,,,,,,,18,,,1,2605.011542787892,Y,d,go,d,1,,0.40539793943753466,,,,,,,,,,,,,,,91,001,23,w,Bildungswissenschaften und Psychologie,2023-02-06_09h25.06.787,00_bat_bachelor,2022.2.4,60.08564934582312,
,,,,,,,,,,,,0,0,0,0,19,0,19,0,,,,,,,19,,,1,2606.529501575744,X,l,go,l,1,,0.36017369700130075,,,,,,,,,,,,,,,91,001,23,w,Bildungswissenschaften und Psychologie,2023-02-06_09h25.06.787,00_bat_bachelor,2022.2.4,60.08564934582312,
,,,,,,,,,,,,0,0,0,0,20,0,20,0,,,,,,,20,,,1,2607.9972276363987,Y,d,go,d,1,,0.4286871515214443,,,,,,,,,,,,,,,91,001,23,w,Bildungswissenschaften und Psychologie,2023-02-06_09h25.06.787,00_bat_bachelor,2022.2.4,60.08564934582312,
,,,,,,,,,,,,0,0,0,0,21,0,21,0,,,,,,,21,,,1,2609.5317493333714,X,l,go,l,1,,0.4142236363841221,,,,,,,,,,,,,,,91,001,23,w,Bildungswissenschaften und Psychologie,2023-02-06_09h25.06.787,00_bat_bachelor,2022.2.4,60.08564934582312,
,,,,,,,,,,,,0,0,0,0,22,0,22,0,,,,,,,22,,,1,2611.0495980606065,Y,d,go,d,1,,0.4478745454689488,,,,,,,,,,,,,,,91,001,23,w,Bildungswissenschaften und Psychologie,2023-02-06_09h25.06.787,00_bat_bachelor,2022.2.4,60.08564934582312,
,,,,,,,,,,,,0,0,0,0,23,0,23,0,,,,,,,23,,,1,2612.6003951515304,X,l,go,l,1,,0.337271393975243,,,,,,,,,,,,,,,91,001,23,w,Bildungswissenschaften und Psychologie,2023-02-06_09h25.06.787,00_bat_bachelor,2022.2.4,60.08564934582312,
,,,,,,,,,,,,0,0,0,0,24,0,24,0,,,,,,,24,,,1,2614.0518414545804,Y,d,go,d,1,,0.501072121260222,,,,,,,,,,,,,,,91,001,23,w,Bildungswissenschaften und Psychologie,2023-02-06_09h25.06.787,00_bat_bachelor,2022.2.4,60.08564934582312,
,,,,,,,,,,,,0,0,0,0,25,0,25,0,,,,,,,25,,,1,2615.669796363625,Y,None,nogo,None,1,,,,,,,,,,,,,,,,,91,001,23,w,Bildungswissenschaften und Psychologie,2023-02-06_09h25.06.787,00_bat_bachelor,2022.2.4,60.08564934582312,
,,,,,,,,,,,,0,0,0,0,26,0,26,0,,,,,,,26,,,1,2617.47119030304,X,l,go,l,1,,0.37894896970828995,,,,,,,,,,,,,,,91,001,23,w,Bildungswissenschaften und Psychologie,2023-02-06_09h25.06.787,00_bat_bachelor,2022.2.4,60.08564934582312,
,,,,,,,,,,,,0,0,0,0,27,0,27,0,,,,,,,27,,,1,2618.9555505454773,Y,d,go,d,1,,0.3658236363553442,,,,,,,,,,,,,,,91,001,23,w,Bildungswissenschaften und Psychologie,2023-02-06_09h25.06.787,00_bat_bachelor,2022.2.4,60.08564934582312,
,,,,,,,,,,,,0,0,0,0,28,0,28,0,,,,,,,28,,,1,2620.4234230302973,X,l,go,l,1,,0.32198315154528245,,,,,,,,,,,,,,,91,001,23,w,Bildungswissenschaften und Psychologie,2023-02-06_09h25.06.787,00_bat_bachelor,2022.2.4,60.08564934582312,
,,,,,,,,,,,,0,0,0,0,29,0,29,0,,,,,,,29,,,1,2621.8577042424586,X,None,nogo,None,1,,,,,,,,,,,,,,,,,91,001,23,w,Bildungswissenschaften und Psychologie,2023-02-06_09h25.06.787,00_bat_bachelor,2022.2.4,60.08564934582312,
,,,,,,,,,,,,0,0,0,0,30,0,30,0,,,,,,,30,,,1,2623.658829090942,X,None,nogo,None,1,,,,,,,,,,,,,,,,,91,001,23,w,Bildungswissenschaften und Psychologie,2023-02-06_09h25.06.787,00_bat_bachelor,2022.2.4,60.08564934582312,
,,,,,,,,,,,,0,0,0,0,31,0,31,0,,,,,,,31,,,1,2625.4605648485012,Y,d,go,d,1,,0.3243870303267613,,,,,,,,,,,,,,,91,001,23,w,Bildungswissenschaften und Psychologie,2023-02-06_09h25.06.787,00_bat_bachelor,2022.2.4,60.08564934582312,
,,,,,,,,,,,,0,0,0,0,32,0,32,0,,,,,,,32,,,1,2626.8950118788052,X,l,go,l,1,,0.4272757575963624,,,,,,,,,,,,,,,91,001,23,w,Bildungswissenschaften und Psychologie,2023-02-06_09h25.06.787,00_bat_bachelor,2022.2.4,60.08564934582312,
,,,,,,,,,,,,0,0,0,0,33,0,33,0,,,,,,,33,,,1,2628.4292140605976,X,None,nogo,None,1,,,,,,,,,,,,,,,,,91,001,23,w,Bildungswissenschaften und Psychologie,2023-02-06_09h25.06.787,00_bat_bachelor,2022.2.4,60.08564934582312,
,,,,,,,,,,,,0,0,0,0,34,0,34,0,,,,,,,34,,,1,2630.230898909096,Y,d,go,d,1,,0.3229465454351157,,,,,,,,,,,,,,,91,001,23,w,Bildungswissenschaften und Psychologie,2023-02-06_09h25.06.787,00_bat_bachelor,2022.2.4,60.08564934582312,
,,,,,,,,,,,,0,0,0,0,35,0,35,0,,,,,,,35,,,1,2631.665290181816,X,l,go,l,1,,0.3281203637016006,,,,,,,,,,,,,,,91,001,23,w,Bildungswissenschaften und Psychologie,2023-02-06_09h25.06.787,00_bat_bachelor,2022.2.4,60.08564934582312,
,,,,,,,,,,,,0,0,0,0,36,0,36,0,,,,,,,36,,,1,2633.099382303073,X,None,nogo,None,1,2633.900283151539,,,,,,,,,,,,,,,,91,001,23,w,Bildungswissenschaften und Psychologie,2023-02-06_09h25.06.787,00_bat_bachelor,2022.2.4,60.08564934582312,
,,,,,,,,,,,,0,0,0,0,37,0,37,0,,,,,,,37,,,1,2634.9010836363886,Y,d,go,d,1,,0.2759598788106814,,,,,,,,,,,,,,,91,001,23,w,Bildungswissenschaften und Psychologie,2023-02-06_09h25.06.787,00_bat_bachelor,2022.2.4,60.08564934582312,
,,,,,,,,,,,,0,0,0,0,38,0,38,0,,,,,,,38,,,1,2636.2854089697357,X,l,go,l,1,,0.3320776969776489,,,,,,,,,,,,,,,91,001,23,w,Bildungswissenschaften und Psychologie,2023-02-06_09h25.06.787,00_bat_bachelor,2022.2.4,60.08564934582312,
,,,,,,,,,,,,0,0,0,0,39,0,39,0,,,,,,,39,,,1,2637.7198317575967,Y,d,go,d,1,,0.35384351515676826,,,,,,,,,,,,,,,91,001,23,w,Bildungswissenschaften und Psychologie,2023-02-06_09h25.06.787,00_bat_bachelor,2022.2.4,60.08564934582312,
,,,,,,,,,,,,0,0,0,0,40,0,40,0,,,,,,,40,,,1,2639.1877066667075,X,l,go,l,1,,0.2944233939051628,,,,,,,,,,,,,,,91,001,23,w,Bildungswissenschaften und Psychologie,2023-02-06_09h25.06.787,00_bat_bachelor,2022.2.4,60.08564934582312,
,,,,,,,,,,,,0,0,0,0,41,0,41,0,,,,,,,41,,,1,2640.588718060637,Y,d,go,d,1,,0.364562060625758,,,,,,,,,,,,,,,91,001,23,w,Bildungswissenschaften und Psychologie,2023-02-06_09h25.06.787,00_bat_bachelor,2022.2.4,60.08564934582312,
,,,,,,,,,,,,0,0,0,0,42,0,42,0,,,,,,,42,,,1,2642.056145939394,Y,None,nogo,None,1,,,,,,,,,,,,,,,,,91,001,23,w,Bildungswissenschaften und Psychologie,2023-02-06_09h25.06.787,00_bat_bachelor,2022.2.4,60.08564934582312,
,,,,,,,,,,,,0,0,0,0,43,0,43,0,,,,,,,43,,,1,2643.857949090947,X,l,go,l,1,,0.4393770908936858,,,,,,,,,,,,,,,91,001,23,w,Bildungswissenschaften und Psychologie,2023-02-06_09h25.06.787,00_bat_bachelor,2022.2.4,60.08564934582312,
,,,,,,,,,,,,0,0,0,0,44,0,44,0,,,,,,,44,,,1,2645.40913454548,Y,d,go,d,1,,0.34420424239942804,,,,,,,,,,,,,,,91,001,23,w,Bildungswissenschaften und Psychologie,2023-02-06_09h25.06.787,00_bat_bachelor,2022.2.4,60.08564934582312,
,,,,,,,,,,,,0,0,0,0,45,0,45,0,,,,,,,45,,,1,2646.8598671515356,X,l,go,l,1,,0.3170313939335756,,,,,,,,,,,,,,,91,001,23,w,Bildungswissenschaften und Psychologie,2023-02-06_09h25.06.787,00_bat_bachelor,2022.2.4,60.08564934582312,
,,,,,,,,,,,,0,0,0,0,46,0,46,0,,,,,,,46,,,1,2648.2946768485126,Y,d,go,d,1,,0.3387133333599195,,,,,,,,,,,,,,,91,001,23,w,Bildungswissenschaften und Psychologie,2023-02-06_09h25.06.787,00_bat_bachelor,2022.2.4,60.08564934582312,
,,,,,,,,,,,,0,0,0,0,47,0,47,0,,,,,,,47,,,1,2649.745673696976,X,l,go,l,1,,0.4077019394026138,,,,,,,,,,,,,,,91,001,23,w,Bildungswissenschaften und Psychologie,2023-02-06_09h25.06.787,00_bat_bachelor,2022.2.4,60.08564934582312,
,,,,,,,,,,,,0,0,0,0,48,0,48,0,,,,,,,48,,,1,2651.263595636352,X,None,nogo,None,1,2652.064117333328,,,,,,,,,,,,,,,,91,001,23,w,Bildungswissenschaften und Psychologie,2023-02-06_09h25.06.787,00_bat_bachelor,2022.2.4,60.08564934582312,
,,,,,,,,,,,,0,0,0,0,49,0,49,0,,,,,,,49,,,1,2653.06496193941,X,None,nogo,None,1,,,,,,,,,,,,,,,,,91,001,23,w,Bildungswissenschaften und Psychologie,2023-02-06_09h25.06.787,00_bat_bachelor,2022.2.4,60.08564934582312,
,,,,,,,,,,,,0,0,0,0,50,0,50,0,,,,,,,50,,,1,2654.866160000034,Y,d,go,d,1,,0.37546096969163045,,,,,,,,,,,,,,,91,001,23,w,Bildungswissenschaften und Psychologie,2023-02-06_09h25.06.787,00_bat_bachelor,2022.2.4,60.08564934582312,
,,,,,,,,,,,,0,0,0,0,51,0,51,0,,,,,,,51,,,1,2656.351372121251,X,l,go,l,1,,0.47320448484970257,,,,,,,,,,,,,,,91,001,23,w,Bildungswissenschaften und Psychologie,2023-02-06_09h25.06.787,00_bat_bachelor,2022.2.4,60.08564934582312,
,,,,,,,,,,,,0,0,0,0,52,0,52,0,,,,,,,52,,,1,2657.9524761212524,X,None,nogo,None,1,2658.752762181859,,,,,,,,,,,,,,,,91,001,23,w,Bildungswissenschaften und Psychologie,2023-02-06_09h25.06.787,00_bat_bachelor,2022.2.4,60.08564934582312,
,,,,,,,,,,,,0,0,0,0,53,0,53,0,,,,,,,53,,,1,2659.7536887272727,Y,d,go,d,1,,0.3040267878677696,,,,,,,,,,,,,,,91,001,23,w,Bildungswissenschaften und Psychologie,2023-02-06_09h25.06.787,00_bat_bachelor,2022.2.4,60.08564934582312,
,,,,,,,,,,,,0,0,0,0,54,0,54,0,,,,,,,54,,,1,2661.1881362424465,X,l,go,l,1,,0.34072933334391564,,,,,,,,,,,,,,,91,001,23,w,Bildungswissenschaften und Psychologie,2023-02-06_09h25.06.787,00_bat_bachelor,2022.2.4,60.08564934582312,
,,,,,,,,,,,,0,0,0,0,55,0,55,0,,,,,,,55,,,1,2662.6556421818095,Y,d,go,d,1,,0.3455501818098128,,,,,,,,,,,,,,,91,001,23,w,Bildungswissenschaften und Psychologie,2023-02-06_09h25.06.787,00_bat_bachelor,2022.2.4,60.08564934582312,
,,,,,,,,,,,,0,0,0,0,56,0,56,0,,,,,,,56,,,1,2664.123484606098,X,l,go,l,1,,0.31832545454381034,,,,,,,,,,,,,,,91,001,23,w,Bildungswissenschaften und Psychologie,2023-02-06_09h25.06.787,00_bat_bachelor,2022.2.4,60.08564934582312,
,,,,,,,,,,,,0,0,0,0,57,0,57,0,,,,,,,57,,,1,2665.5578952727374,Y,d,go,d,1,,0.35581587883643806,,,,,,,,,,,,,,,91,001,23,w,Bildungswissenschaften und Psychologie,2023-02-06_09h25.06.787,00_bat_bachelor,2022.2.4,60.08564934582312,
,,,,,,,,,,,,0,0,0,0,58,0,58,0,,,,,,,58,,,1,2667.0254909091163,X,l,go,l,1,,0.4074338182108477,,,,,,,,,,,,,,,91,001,23,w,Bildungswissenschaften und Psychologie,2023-02-06_09h25.06.787,00_bat_bachelor,2022.2.4,60.08564934582312,
,,,,,,,,,,,,0,0,0,0,59,0,59,0,,,,,,,59,,,1,2668.543530666677,Y,d,go,d,1,,0.37800496973795816,,,,,,,,,,,,,,,91,001,23,w,Bildungswissenschaften und Psychologie,2023-02-06_09h25.06.787,00_bat_bachelor,2022.2.4,60.08564934582312,
,,,,,,,,,,,,0,0,0,0,60,0,60,0,,,,,,,60,,,1,2670.027762909129,Y,None,nogo,None,1,2670.8284596363665,,,,,,,,,,,,,,,,91,001,23,w,Bildungswissenschaften und Psychologie,2023-02-06_09h25.06.787,00_bat_bachelor,2022.2.4,60.08564934582312,
,,,,,,,,,,,,0,0,0,0,61,0,61,0,,,,,,,61,,,1,2671.8291815757984,X,l,go,l,1,,0.37231381819583476,,,,,,,,,,,,,,,91,001,23,w,Bildungswissenschaften und Psychologie,2023-02-06_09h25.06.787,00_bat_bachelor,2022.2.4,60.08564934582312,
,,,,,,,,,,,,0,0,0,0,62,0,62,0,,,,,,,62,,,1,2673.3136305454536,Y,d,go,d,1,,0.31113175762584433,,,,,,,,,,,,,,,91,001,23,w,Bildungswissenschaften und Psychologie,2023-02-06_09h25.06.787,00_bat_bachelor,2022.2.4,60.08564934582312,
,,,,,,,,,,,,0,0,0,0,63,0,63,0,,,,,,,63,,,1,2674.731496242457,X,l,go,l,1,,0.3506037576007657,,,,,,,,,,,,,,,91,001,23,w,Bildungswissenschaften und Psychologie,2023-02-06_09h25.06.787,00_bat_bachelor,2022.2.4,60.08564934582312,
,,,,,,,,,,,,0,0,0,0,64,0,64,0,,,,,,,64,,,1,2676.1992838787846,Y,d,go,d,1,,0.4021916363853961,,,,,,,,,,,,,,,91,001,23,w,Bildungswissenschaften und Psychologie,2023-02-06_09h25.06.787,00_bat_bachelor,2022.2.4,60.08564934582312,
,,,,,,,,,,,,0,0,0,0,65,0,65,0,,,,,,,65,,,1,2677.717102545488,X,l,go,l,1,,0.43651357578346506,,,,,,,,,,,,,,,91,001,23,w,Bildungswissenschaften und Psychologie,2023-02-06_09h25.06.787,00_bat_bachelor,2022.2.4,60.08564934582312,
,,,,,,,,,,,,0,0,0,0,66,0,66,0,,,,,,,66,,,1,2679.268288000021,Y,d,go,d,1,,0.3254944242653437,,,,,,,,,,,,,,,91,001,23,w,Bildungswissenschaften und Psychologie,2023-02-06_09h25.06.787,00_bat_bachelor,2022.2.4,60.08564934582312,
,,,,,,,,,,,,0,0,0,0,67,0,67,0,,,,,,,67,,,1,2680.7027161212172,X,l,go,l,1,,0.2671400000108406,,,,,,,,,,,,,,,91,001,23,w,Bildungswissenschaften und Psychologie,2023-02-06_09h25.06.787,00_bat_bachelor,2022.2.4,60.08564934582312,
,,,,,,,,,,,,0,0,0,0,68,0,68,0,,,,,,,68,,,1,2682.070357333345,Y,d,go,d,1,,0.25879818183602765,,,,,,,,,,,,,,,91,001,23,w,Bildungswissenschaften und Psychologie,2023-02-06_09h25.06.787,00_bat_bachelor,2022.2.4,60.08564934582312,
,,,,,,,,,,,,0,0,0,0,69,0,69,0,,,,,,,69,,,1,2683.438136727258,X,l,go,l,1,,0.2833809697185643,,,,,,,,,,,,,,,91,001,23,w,Bildungswissenschaften und Psychologie,2023-02-06_09h25.06.787,00_bat_bachelor,2022.2.4,60.08564934582312,
,,,,,,,,,,,,0,0,0,0,70,0,70,0,,,,,,,70,,,1,2684.8225095757516,Y,d,go,d,1,,0.3866042424342595,,,,,,,,,,,,,,,91,001,23,w,Bildungswissenschaften und Psychologie,2023-02-06_09h25.06.787,00_bat_bachelor,2022.2.4,60.08564934582312,
,,,,,,,,,,,,0,0,0,0,71,0,71,0,,,,,,,71,,,1,2686.3233120000223,X,l,go,l,1,,0.3734532121452503,,,,,,,,,,,,,,,91,001,23,w,Bildungswissenschaften und Psychologie,2023-02-06_09h25.06.787,00_bat_bachelor,2022.2.4,60.08564934582312,
,,,,,,,,,,,,0,0,0,0,72,0,72,0,,,,,,,72,,,1,2687.8076863030437,X,None,nogo,None,1,,,,,,,,,,,,,,,,,91,001,23,w,Bildungswissenschaften und Psychologie,2023-02-06_09h25.06.787,00_bat_bachelor,2022.2.4,60.08564934582312,
,,,,,,,,,,,,0,0,0,0,73,0,73,0,,,,,,,73,,,1,2689.6096780606313,Y,d,go,d,1,,0.2713421818334609,,,,,,,,,,,,,,,91,001,23,w,Bildungswissenschaften und Psychologie,2023-02-06_09h25.06.787,00_bat_bachelor,2022.2.4,60.08564934582312,
,,,,,,,,,,,,0,0,0,0,74,0,74,0,,,,,,,74,,,1,2690.9941013333737,X,l,go,l,1,,0.3274362424854189,,,,,,,,,,,,,,,91,001,23,w,Bildungswissenschaften und Psychologie,2023-02-06_09h25.06.787,00_bat_bachelor,2022.2.4,60.08564934582312,
,,,,,,,,,,,,0,0,0,0,75,0,75,0,,,,,,,75,,,1,2692.428490181861,Y,d,go,d,1,,0.36482242424972355,,,,,,,,,,,,,,,91,001,23,w,Bildungswissenschaften und Psychologie,2023-02-06_09h25.06.787,00_bat_bachelor,2022.2.4,60.08564934582312,
,,,,,,,,,,,,0,0,0,0,76,0,76,0,,,,,,,76,,,1,2693.896013090911,X,l,go,l,1,,0.3697770909056999,,,,,,,,,,,,,,,91,001,23,w,Bildungswissenschaften und Psychologie,2023-02-06_09h25.06.787,00_bat_bachelor,2022.2.4,60.08564934582312,
,,,,,,,,,,,,0,0,0,0,77,0,77,0,,,,,,,77,,,1,2695.38052896969,X,None,nogo,None,1,,,,,,,,,,,,,,,,,91,001,23,w,Bildungswissenschaften und Psychologie,2023-02-06_09h25.06.787,00_bat_bachelor,2022.2.4,60.08564934582312,
,,,,,,,,,,,,0,0,0,0,78,0,78,0,,,,,,,78,,,1,2697.1818254545797,Y,d,go,d,1,,0.2993446060572751,,,,,,,,,,,,,,,91,001,23,w,Bildungswissenschaften und Psychologie,2023-02-06_09h25.06.787,00_bat_bachelor,2022.2.4,60.08564934582312,
,,,,,,,,,,,,0,0,0,0,79,0,79,0,,,,,,,79,,,1,2698.5826220606104,X,l,go,l,1,,0.37126218184130266,,,,,,,,,,,,,,,91,001,23,w,Bildungswissenschaften und Psychologie,2023-02-06_09h25.06.787,00_bat_bachelor,2022.2.4,60.08564934582312,
,,,,,,,,,,,,0,0,0,0,80,0,80,0,,,,,,,80,,,1,2700.067327515164,Y,d,go,d,1,,0.31086169701302424,,,,,,,,,,,,,,,91,001,23,w,Bildungswissenschaften und Psychologie,2023-02-06_09h25.06.787,00_bat_bachelor,2022.2.4,60.08564934582312,
,,,,,,,,,,,,0,0,0,0,81,0,81,0,,,,,,,81,,,1,2701.4851204848383,X,l,go,l,1,,0.4284476363682188,,,,,,,,,,,,,,,91,001,23,w,Bildungswissenschaften und Psychologie,2023-02-06_09h25.06.787,00_bat_bachelor,2022.2.4,60.08564934582312,
,,,,,,,,,,,,0,0,0,0,82,0,82,0,,,,,,,82,,,1,2703.0193027878995,X,None,nogo,None,1,2703.8202889697277,,,,,,,,,,,,,,,,91,001,23,w,Bildungswissenschaften und Psychologie,2023-02-06_09h25.06.787,00_bat_bachelor,2022.2.4,60.08564934582312,
,,,,,,,,,,,,0,0,0,0,83,0,83,0,,,,,,,83,,,1,2704.8208993939334,X,None,nogo,None,1,,,,,,,,,,,,,,,,,91,001,23,w,Bildungswissenschaften und Psychologie,2023-02-06_09h25.06.787,00_bat_bachelor,2022.2.4,60.08564934582312,
,,,,,,,,,,,,0,0,0,0,84,0,84,0,,,,,,,84,,,1,2706.6221008484717,Y,d,go,d,1,,0.3627608484821394,,,,,,,,,,,,,,,91,001,23,w,Bildungswissenschaften und Psychologie,2023-02-06_09h25.06.787,00_bat_bachelor,2022.2.4,60.08564934582312,
,,,,,,,,,,,,0,0,0,0,85,0,85,0,,,,,,,85,,,1,2708.089872969722,X,l,go,l,1,,0.5592020606272854,,,,,,,,,,,,,,,91,001,23,w,Bildungswissenschaften und Psychologie,2023-02-06_09h25.06.787,00_bat_bachelor,2022.2.4,60.08564934582312,
,,,,,,,,,,,,0,0,0,0,86,0,86,0,,,,,,,86,,,1,2709.758046060626,Y,d,go,d,1,,0.3789465454756282,,,,,,,,,,,,,,,91,001,23,w,Bildungswissenschaften und Psychologie,2023-02-06_09h25.06.787,00_bat_bachelor,2022.2.4,60.08564934582312,
,,,,,,,,,,,,0,0,0,0,87,0,87,0,,,,,,,87,,,1,2711.242520242464,X,l,go,l,1,,0.39871042425511405,,,,,,,,,,,,,,,91,001,23,w,Bildungswissenschaften und Psychologie,2023-02-06_09h25.06.787,00_bat_bachelor,2022.2.4,60.08564934582312,
,,,,,,,,,,,,0,0,0,0,88,0,88,0,,,,,,,88,,,1,2712.7437798788305,Y,d,go,d,1,,0.3211860606097616,,,,,,,,,,,,,,,91,001,23,w,Bildungswissenschaften und Psychologie,2023-02-06_09h25.06.787,00_bat_bachelor,2022.2.4,60.08564934582312,
,,,,,,,,,,,,0,0,0,0,89,0,89,0,,,,,,,89,,,1,2714.1781876363675,X,l,go,l,1,,0.26324036362348124,,,,,,,,,,,,,,,91,001,23,w,Bildungswissenschaften und Psychologie,2023-02-06_09h25.06.787,00_bat_bachelor,2022.2.4,60.08564934582312,
,,,,,,,,,,,,0,0,0,0,90,0,90,0,,,,,,,90,,,1,2715.545981575793,X,None,nogo,d,0,,0.2716296969447285,,,,,,,,,,,,,,,91,001,23,w,Bildungswissenschaften und Psychologie,2023-02-06_09h25.06.787,00_bat_bachelor,2022.2.4,60.08564934582312,
,,,,,,,,,,,,0,0,0,0,91,0,91,0,,,,,,,91,,,1,2716.9301924848696,Y,d,go,d,1,,0.5352951515233144,,,,,,,,,,,,,,,91,001,23,w,Bildungswissenschaften und Psychologie,2023-02-06_09h25.06.787,00_bat_bachelor,2022.2.4,60.08564934582312,
,,,,,,,,,,,,0,0,0,0,92,0,92,0,,,,,,,92,,,1,2718.581520484877,X,l,go,l,1,,0.4999656970030628,,,,,,,,,,,,,,,91,001,23,w,Bildungswissenschaften und Psychologie,2023-02-06_09h25.06.787,00_bat_bachelor,2022.2.4,60.08564934582312,
,,,,,,,,,,,,0,0,0,0,93,0,93,0,,,,,,,93,,,1,2720.1827389090904,Y,d,go,d,1,,0.4027317576110363,,,,,,,,,,,,,,,91,001,23,w,Bildungswissenschaften und Psychologie,2023-02-06_09h25.06.787,00_bat_bachelor,2022.2.4,60.08564934582312,
,,,,,,,,,,,,0,0,0,0,94,0,94,0,,,,,,,94,,,1,2721.700566303043,X,l,go,l,1,,0.628982424212154,,,,,,,,,,,,,,,91,001,23,w,Bildungswissenschaften und Psychologie,2023-02-06_09h25.06.787,00_bat_bachelor,2022.2.4,60.08564934582312,
,,,,,,,,,,,,0,0,0,0,95,0,95,0,,,,,,,95,,,1,2723.4352290909155,Y,d,go,d,1,,0.366952363634482,,,,,,,,,,,,,,,91,001,23,w,Bildungswissenschaften und Psychologie,2023-02-06_09h25.06.787,00_bat_bachelor,2022.2.4,60.08564934582312,
,,,,,,,,,,,,0,0,0,0,96,0,96,0,,,,,,,96,,,1,2724.902944969712,Y,None,nogo,None,1,,,,,,,,,,,,,,,,,91,001,23,w,Bildungswissenschaften und Psychologie,2023-02-06_09h25.06.787,00_bat_bachelor,2022.2.4,60.08564934582312,
,,,,,,,,,,,,0,0,0,0,97,0,97,0,,,,,,,97,,,1,2726.704202666704,Y,None,nogo,None,1,,,,,,,,,,,,,,,,,91,001,23,w,Bildungswissenschaften und Psychologie,2023-02-06_09h25.06.787,00_bat_bachelor,2022.2.4,60.08564934582312,
,,,,,,,,,,,,0,0,0,0,98,0,98,0,,,,,,,98,,,1,2728.5057760000345,X,l,go,l,1,,0.44751721213106066,,,,,,,,,,,,,,,91,001,23,w,Bildungswissenschaften und Psychologie,2023-02-06_09h25.06.787,00_bat_bachelor,2022.2.4,60.08564934582312,
,,,,,,,,,,,,0,0,0,0,99,0,99,0,,,,,,,99,,,1,2730.056947393925,Y,d,go,d,1,,0.36852084851125255,,,,,,,,,,,,,,,91,001,23,w,Bildungswissenschaften und Psychologie,2023-02-06_09h25.06.787,00_bat_bachelor,2022.2.4,60.08564934582312,
,,,,,,,,,,,,0,0,0,0,100,0,100,0,,,,,,,100,,,1,2731.5410860606353,Y,None,nogo,None,1,,,,,,,,,,,,,,,,,91,001,23,w,Bildungswissenschaften und Psychologie,2023-02-06_09h25.06.787,00_bat_bachelor,2022.2.4,60.08564934582312,
,,,,,,,,,,,,0,0,0,0,101,0,101,0,,,,,,,101,,,1,2733.3427156363614,X,l,go,l,1,,0.37867599999299273,,,,,,,,,,,,,,,91,001,23,w,Bildungswissenschaften und Psychologie,2023-02-06_09h25.06.787,00_bat_bachelor,2022.2.4,60.08564934582312,
,,,,,,,,,,,,0,0,0,0,102,0,102,0,,,,,,,102,,,1,2734.8272242424428,Y,d,go,d,1,,0.2866372120915912,,,,,,,,,,,,,,,91,001,23,w,Bildungswissenschaften und Psychologie,2023-02-06_09h25.06.787,00_bat_bachelor,2022.2.4,60.08564934582312,
,,,,,,,,,,,,0,0,0,0,103,0,103,0,,,,,,,103,,,1,2736.2280227878946,Y,None,nogo,None,1,,,,,,,,,,,,,,,,,91,001,23,w,Bildungswissenschaften und Psychologie,2023-02-06_09h25.06.787,00_bat_bachelor,2022.2.4,60.08564934582312,
,,,,,,,,,,,,0,0,0,0,104,0,104,0,,,,,,,104,,,1,2738.0293847272987,Y,None,nogo,None,1,,,,,,,,,,,,,,,,,91,001,23,w,Bildungswissenschaften und Psychologie,2023-02-06_09h25.06.787,00_bat_bachelor,2022.2.4,60.08564934582312,
,,,,,,,,,,,,0,0,0,0,105,0,105,0,,,,,,,105,,,1,2739.8307393939467,X,l,go,l,1,,0.2899278788245283,,,,,,,,,,,,,,,91,001,23,w,Bildungswissenschaften und Psychologie,2023-02-06_09h25.06.787,00_bat_bachelor,2022.2.4,60.08564934582312,
,,,,,,,,,,,,0,0,0,0,106,0,106,0,,,,,,,106,,,1,2741.2321570909116,Y,d,go,d,1,,0.3608015757636167,,,,,,,,,,,,,,,91,001,23,w,Bildungswissenschaften und Psychologie,2023-02-06_09h25.06.787,00_bat_bachelor,2022.2.4,60.08564934582312,
,,,,,,,,,,,,0,0,0,0,107,0,107,0,,,,,,,107,,,1,2742.6995204848354,Y,None,nogo,None,1,,,,,,,,,,,,,,,,,91,001,23,w,Bildungswissenschaften und Psychologie,2023-02-06_09h25.06.787,00_bat_bachelor,2022.2.4,60.08564934582312,
,,,,,,,,,,,,0,0,0,0,108,0,108,0,,,,,,,108,,,1,2744.500844606082,X,l,go,l,1,,0.3889349091332406,,,,,,,,,,,,,,,91,001,23,w,Bildungswissenschaften und Psychologie,2023-02-06_09h25.06.787,00_bat_bachelor,2022.2.4,60.08564934582312,
,,,,,,,,,,,,0,0,0,0,109,0,109,0,,,,,,,109,,,1,2746.0023738181917,Y,d,go,d,1,,0.29586193937575445,,,,,,,,,,,,,,,91,001,23,w,Bildungswissenschaften und Psychologie,2023-02-06_09h25.06.787,00_bat_bachelor,2022.2.4,60.08564934582312,
,,,,,,,,,,,,0,0,0,0,110,0,110,0,,,,,,,110,,,1,2747.403536484868,Y,None,nogo,None,1,2748.2041381818126,,,,,,,,,,,,,,,,91,001,23,w,Bildungswissenschaften und Psychologie,2023-02-06_09h25.06.787,00_bat_bachelor,2022.2.4,60.08564934582312,
,,,,,,,,,,,,0,0,0,0,111,0,111,0,,,,,,,111,,,1,2749.204953696986,X,l,go,l,1,,0.34146193938795477,,,,,,,,,,,,,,,91,001,23,w,Bildungswissenschaften und Psychologie,2023-02-06_09h25.06.787,00_bat_bachelor,2022.2.4,60.08564934582312,
,,,,,,,,,,,,0,0,0,0,112,0,112,0,,,,,,,112,,,1,2750.655835151556,Y,d,go,d,1,,0.23354969697538763,,,,,,,,,,,,,,,91,001,23,w,Bildungswissenschaften und Psychologie,2023-02-06_09h25.06.787,00_bat_bachelor,2022.2.4,60.08564934582312,
,,,,,,,,,,,,0,0,0,0,113,0,113,0,,,,,,,113,,,1,2751.9903612121125,X,l,go,l,1,,0.2587046060943976,,,,,,,,,,,,,,,91,001,23,w,Bildungswissenschaften und Psychologie,2023-02-06_09h25.06.787,00_bat_bachelor,2022.2.4,60.08564934582312,
,,,,,,,,,,,,0,0,0,0,114,0,114,0,,,,,,,114,,,1,2753.358060606057,X,None,nogo,None,1,,,,,,,,,,,,,,,,,91,001,23,w,Bildungswissenschaften und Psychologie,2023-02-06_09h25.06.787,00_bat_bachelor,2022.2.4,60.08564934582312,
,,,,,,,,,,,,0,0,0,0,115,0,115,0,,,,,,,115,,,1,2755.1591893333243,Y,d,go,d,1,,0.22579987876815721,,,,,,,,,,,,,,,91,001,23,w,Bildungswissenschaften und Psychologie,2023-02-06_09h25.06.787,00_bat_bachelor,2022.2.4,60.08564934582312,
,,,,,,,,,,,,0,0,0,0,116,0,116,0,,,,,,,116,,,1,2756.4937905454426,X,l,go,l,1,,0.2515409697080031,,,,,,,,,,,,,,,91,001,23,w,Bildungswissenschaften und Psychologie,2023-02-06_09h25.06.787,00_bat_bachelor,2022.2.4,60.08564934582312,
,,,,,,,,,,,,0,0,0,0,117,0,117,0,,,,,,,117,,,1,2757.861475393933,Y,d,go,d,1,,0.24408884852891788,,,,,,,,,,,,,,,91,001,23,w,Bildungswissenschaften und Psychologie,2023-02-06_09h25.06.787,00_bat_bachelor,2022.2.4,60.08564934582312,
,,,,,,,,,,,,0,0,0,0,118,0,118,0,,,,,,,118,,,1,2759.212538666674,X,l,go,l,1,,0.22058193944394588,,,,,,,,,,,,,,,91,001,23,w,Bildungswissenschaften und Psychologie,2023-02-06_09h25.06.787,00_bat_bachelor,2022.2.4,60.08564934582312,
,,,,,,,,,,,,0,0,0,0,119,0,119,0,,,,,,,119,,,1,2760.5468586666975,X,None,nogo,d,0,,0.24733490910148248,,,,,,,,,,,,,,,91,001,23,w,Bildungswissenschaften und Psychologie,2023-02-06_09h25.06.787,00_bat_bachelor,2022.2.4,60.08564934582312,
,,,,,,,,,,,,0,0,0,0,120,0,120,0,,,,,,,120,,,1,2761.89791175758,Y,d,go,d,1,,0.415562303038314,,,,,,,,,,,,,,,91,001,23,w,Bildungswissenschaften und Psychologie,2023-02-06_09h25.06.787,00_bat_bachelor,2022.2.4,60.08564934582312,
,,,,,,,,,,,,0,0,0,0,121,0,121,0,,,,,,,121,,,1,2763.4158603636315,X,l,go,l,1,,0.40167430305154994,,,,,,,,,,,,,,,91,001,23,w,Bildungswissenschaften und Psychologie,2023-02-06_09h25.06.787,00_bat_bachelor,2022.2.4,60.08564934582312,
,,,,,,,,,,,,0,0,0,0,122,0,122,0,,,,,,,122,,,1,2764.9335296970094,Y,d,go,d,1,,0.37229296972509474,,,,,,,,,,,,,,,91,001,23,w,Bildungswissenschaften und Psychologie,2023-02-06_09h25.06.787,00_bat_bachelor,2022.2.4,60.08564934582312,
,,,,,,,,,,,,0,0,0,0,123,0,123,0,,,,,,,123,,,1,2766.4180053333403,X,l,go,l,1,,0.5035564848803915,,,,,,,,,,,,,,,91,001,23,w,Bildungswissenschaften und Psychologie,2023-02-06_09h25.06.787,00_bat_bachelor,2022.2.4,60.08564934582312,
,,,,,,,,,,,,0,0,0,0,124,0,124,0,,,,,,,124,,,1,2768.035880242416,Y,d,go,d,1,,0.29362193937413394,,,,,,,,,,,,,,,91,001,23,w,Bildungswissenschaften und Psychologie,2023-02-06_09h25.06.787,00_bat_bachelor,2022.2.4,60.08564934582312,
,,,,,,,,,,,,0,0,0,0,125,0,125,0,,,,,,,125,,,1,2769.436817939393,X,l,go,l,1,,0.26860375760588795,,,,,,,,,,,,,,,91,001,23,w,Bildungswissenschaften und Psychologie,2023-02-06_09h25.06.787,00_bat_bachelor,2022.2.4,60.08564934582312,
,,,,,,,,,,,,0,0,0,0,126,0,126,0,,,,,,,126,,,1,2770.8210463030264,Y,d,go,d,1,,0.2759206061018631,,,,,,,,,,,,,,,91,001,23,w,Bildungswissenschaften und Psychologie,2023-02-06_09h25.06.787,00_bat_bachelor,2022.2.4,60.08564934582312,
,,,,,,,,,,,,0,0,0,0,127,0,127,0,,,,,,,127,,,1,2772.205658666673,X,l,go,l,1,,0.236253212147858,,,,,,,,,,,,,,,91,001,23,w,Bildungswissenschaften und Psychologie,2023-02-06_09h25.06.787,00_bat_bachelor,2022.2.4,60.08564934582312,
,,,,,,,,,,,,0,0,0,0,128,0,128,0,,,,,,,128,,,1,2773.5565953939804,X,None,nogo,d,0,,0.2124980606022291,,,,,,,,,,,,,,,91,001,23,w,Bildungswissenschaften und Psychologie,2023-02-06_09h25.06.787,00_bat_bachelor,2022.2.4,60.08564934582312,
,,,,,,,,,,,,0,0,0,0,129,0,129,0,,,,,,,129,,,1,2774.8744019393926,Y,d,go,d,1,,0.2873877575621009,,,,,,,,,,,,,,,91,001,23,w,Bildungswissenschaften und Psychologie,2023-02-06_09h25.06.787,00_bat_bachelor,2022.2.4,60.08564934582312,
,,,,,,,,,,,,0,0,0,0,130,0,130,0,,,,,,,130,,,1,2776.2751980606117,X,l,go,l,1,,0.34221830300521106,,,,,,,,,,,,,,,91,001,23,w,Bildungswissenschaften und Psychologie,2023-02-06_09h25.06.787,00_bat_bachelor,2022.2.4,60.08564934582312,
,,,,,,,,,,,,0,0,0,0,131,0,131,0,,,,,,,131,,,1,2777.7262972121243,Y,d,go,d,1,,0.3467884848359972,,,,,,,,,,,,,,,91,001,23,w,Bildungswissenschaften und Psychologie,2023-02-06_09h25.06.787,00_bat_bachelor,2022.2.4,60.08564934582312,
,,,,,,,,,,,,0,0,0,0,132,0,132,0,,,,,,,132,,,1,2779.1777876364067,Y,None,nogo,None,1,,,,,,,,,,,,,,,,,91,001,23,w,Bildungswissenschaften und Psychologie,2023-02-06_09h25.06.787,00_bat_bachelor,2022.2.4,60.08564934582312,
,,,,,,,,,,,,0,0,0,0,133,0,133,0,,,,,,,133,,,1,2780.979139878822,X,l,go,l,1,,0.502498060639482,,,,,,,,,,,,,,,91,001,23,w,Bildungswissenschaften und Psychologie,2023-02-06_09h25.06.787,00_bat_bachelor,2022.2.4,60.08564934582312,
,,,,,,,,,,,,0,0,0,0,134,0,134,0,,,,,,,134,,,1,2782.596951757616,Y,d,go,None,0,2783.3975946666906,,,,,,,,,,,,,,,,91,001,23,w,Bildungswissenschaften und Psychologie,2023-02-06_09h25.06.787,00_bat_bachelor,2022.2.4,60.08564934582312,
,,,,,,,,,,,,0,0,0,0,135,0,135,0,,,,,,,135,,,1,2784.3981692121597,Y,None,nogo,None,1,,,,,,,,,,,,,,,,,91,001,23,w,Bildungswissenschaften und Psychologie,2023-02-06_09h25.06.787,00_bat_bachelor,2022.2.4,60.08564934582312,
,,,,,,,,,,,,0,0,0,0,136,0,136,0,,,,,,,136,,,1,2786.1998288484756,X,l,go,l,1,,0.43389733333606273,,,,,,,,,,,,,,,91,001,23,w,Bildungswissenschaften und Psychologie,2023-02-06_09h25.06.787,00_bat_bachelor,2022.2.4,60.08564934582312,
,,,,,,,,,,,,0,0,0,0,137,0,137,0,,,,,,,137,,,1,2787.750961939397,Y,d,go,d,1,,0.2908161212108098,,,,,,,,,,,,,,,91,001,23,w,Bildungswissenschaften und Psychologie,2023-02-06_09h25.06.787,00_bat_bachelor,2022.2.4,60.08564934582312,
,,,,,,,,,,,,0,0,0,0,138,0,138,0,,,,,,,138,,,1,2789.1516640000045,X,l,go,l,1,,0.3609024242614396,,,,,,,,,,,,,,,91,001,23,w,Bildungswissenschaften und Psychologie,2023-02-06_09h25.06.787,00_bat_bachelor,2022.2.4,60.08564934582312,
,,,,,,,,,,,,0,0,0,0,139,0,139,0,,,,,,,139,,,1,2790.6194550303044,X,None,nogo,l,0,,0.6377135757356882,,,,,,,,,,,,,,,91,001,23,w,Bildungswissenschaften und Psychologie,2023-02-06_09h25.06.787,00_bat_bachelor,2022.2.4,60.08564934582312,
,,,,,,,,,,,,0,0,0,0,140,0,140,0,,,,,,,140,,,1,2792.3708232727367,Y,d,go,d,1,,0.26283503032755107,,,,,,,,,,,,,,,91,001,23,w,Bildungswissenschaften und Psychologie,2023-02-06_09h25.06.787,00_bat_bachelor,2022.2.4,60.08564934582312,
,,,,,,,,,,,,0,0,0,0,141,0,141,0,,,,,,,141,,,1,2793.7387136970065,X,l,go,l,1,,0.43089612119365484,,,,,,,,,,,,,,,91,001,23,w,Bildungswissenschaften und Psychologie,2023-02-06_09h25.06.787,00_bat_bachelor,2022.2.4,60.08564934582312,
,,,,,,,,,,,,0,0,0,0,142,0,142,0,,,,,,,142,,,1,2795.273292606056,Y,d,go,d,1,,0.384231393923983,,,,,,,,,,,,,,,91,001,23,w,Bildungswissenschaften und Psychologie,2023-02-06_09h25.06.787,00_bat_bachelor,2022.2.4,60.08564934582312,
,,,,,,,,,,,,0,0,0,0,143,0,143,0,,,,,,,143,,,1,2796.774461090914,Y,None,nogo,None,1,2797.5750453333603,,,,,,,,,,,,,,,,91,001,23,w,Bildungswissenschaften und Psychologie,2023-02-06_09h25.06.787,00_bat_bachelor,2022.2.4,60.08564934582312,
,,,,,,,,,,,,0,0,0,0,144,0,144,0,,,,,,,144,,,1,2798.575520484883,X,l,go,l,1,,0.32938533334527165,,,,,,,,,,,,,,,91,001,23,w,Bildungswissenschaften und Psychologie,2023-02-06_09h25.06.787,00_bat_bachelor,2022.2.4,60.08564934582312,
,,,,,,,,,,,,0,0,0,0,145,0,145,0,,,,,,,145,,,1,2800.010134303069,Y,d,go,d,1,,0.4309387878747657,,,,,,,,,,,,,,,91,001,23,w,Bildungswissenschaften und Psychologie,2023-02-06_09h25.06.787,00_bat_bachelor,2022.2.4,60.08564934582312,
,,,,,,,,,,,,0,0,0,0,146,0,146,0,,,,,,,146,,,1,2801.5446938181994,X,l,go,l,1,,0.3687424242962152,,,,,,,,,,,,,,,91,001,23,w,Bildungswissenschaften und Psychologie,2023-02-06_09h25.06.787,00_bat_bachelor,2022.2.4,60.08564934582312,
,,,,,,,,,,,,0,0,0,0,147,0,147,0,,,,,,,147,,,1,2803.0292276364053,Y,d,go,d,1,,0.2448684848495759,,,,,,,,,,,,,,,91,001,23,w,Bildungswissenschaften und Psychologie,2023-02-06_09h25.06.787,00_bat_bachelor,2022.2.4,60.08564934582312,
,,,,,,,,,,,,0,0,0,0,148,0,148,0,,,,,,,148,,,1,2804.380222545471,Y,None,nogo,l,0,,0.2212520000175573,,,,,,,,,,,,,,,91,001,23,w,Bildungswissenschaften und Psychologie,2023-02-06_09h25.06.787,00_bat_bachelor,2022.2.4,60.08564934582312,
,,,,,,,,,,,,0,0,0,0,149,0,149,0,,,,,,,149,,,1,2805.71464000002,X,l,go,l,1,,0.45464690908556804,,,,,,,,,,,,,,,91,001,23,w,Bildungswissenschaften und Psychologie,2023-02-06_09h25.06.787,00_bat_bachelor,2022.2.4,60.08564934582312,
,,,,,,,,,,,,0,0,0,0,150,0,150,0,,,,,,,150,,,1,2807.282510545454,Y,d,go,d,1,,0.3268229091190733,,,,,,,,,,,,,,,91,001,23,w,Bildungswissenschaften und Psychologie,2023-02-06_09h25.06.787,00_bat_bachelor,2022.2.4,60.08564934582312,
,,,,,,,,,,,,0,0,0,0,151,0,151,0,,,,,,,151,,,1,2808.7165527272737,X,l,go,l,1,,0.23719769692979753,,,,,,,,,,,,,,,91,001,23,w,Bildungswissenschaften und Psychologie,2023-02-06_09h25.06.787,00_bat_bachelor,2022.2.4,60.08564934582312,
,,,,,,,,,,,,0,0,0,0,152,0,152,0,,,,,,,152,,,1,2810.0677149090916,Y,d,go,d,1,,0.26167381822597235,,,,,,,,,,,,,,,91,001,23,w,Bildungswissenschaften und Psychologie,2023-02-06_09h25.06.787,00_bat_bachelor,2022.2.4,60.08564934582312,
,,,,,,,,,,,,0,0,0,0,153,0,153,0,,,,,,,153,,,1,2811.4357216969947,Y,None,nogo,l,0,,0.17409515153849497,,,,,,,,,,,,,,,91,001,23,w,Bildungswissenschaften und Psychologie,2023-02-06_09h25.06.787,00_bat_bachelor,2022.2.4,60.08564934582312,
,,,,,,,,,,,,0,0,0,0,154,0,154,0,,,,,,,154,,,1,2812.7199306666735,X,l,go,l,1,,0.42534266668371856,,,,,,,,,,,,,,,91,001,23,w,Bildungswissenschaften und Psychologie,2023-02-06_09h25.06.787,00_bat_bachelor,2022.2.4,60.08564934582312,
,,,,,,,,,,,,0,0,0,0,155,0,155,0,,,,,,,155,,,1,2814.254443151527,Y,d,go,d,1,,0.36307648482033983,,,,,,,,,,,,,,,91,001,23,w,Bildungswissenschaften und Psychologie,2023-02-06_09h25.06.787,00_bat_bachelor,2022.2.4,60.08564934582312,
,,,,,,,,,,,,0,0,0,0,156,0,156,0,,,,,,,156,,,1,2815.7219335757545,X,l,go,l,1,,0.47874630306614563,,,,,,,,,,,,,,,91,001,23,w,Bildungswissenschaften und Psychologie,2023-02-06_09h25.06.787,00_bat_bachelor,2022.2.4,60.08564934582312,
,,,,,,,,,,,,0,0,0,0,157,0,157,0,,,,,,,157,,,1,2817.3067592727602,X,None,nogo,None,1,,,,,,,,,,,,,,,,,91,001,23,w,Bildungswissenschaften und Psychologie,2023-02-06_09h25.06.787,00_bat_bachelor,2022.2.4,60.08564934582312,
,,,,,,,,,,,,0,0,0,0,158,0,158,0,,,,,,,158,,,1,2819.1078715151525,Y,d,go,d,1,,0.24578290909994394,,,,,,,,,,,,,,,91,001,23,w,Bildungswissenschaften und Psychologie,2023-02-06_09h25.06.787,00_bat_bachelor,2022.2.4,60.08564934582312,
,,,,,,,,,,,,0,0,0,0,159,0,159,0,,,,,,,159,,,1,2820.459136969701,X,l,go,l,1,,0.3819943030248396,,,,,,,,,,,,,,,91,001,23,w,Bildungswissenschaften und Psychologie,2023-02-06_09h25.06.787,00_bat_bachelor,2022.2.4,60.08564934582312,
,,,,,,,,,,,,0,0,0,0,160,0,160,0,,,,,,,160,,,1,2821.9433585454826,X,None,nogo,None,1,,,,,,,,,,,,,,,,,91,001,23,w,Bildungswissenschaften und Psychologie,2023-02-06_09h25.06.787,00_bat_bachelor,2022.2.4,60.08564934582312,
,,,,,,,,,,,,0,0,0,0,161,0,161,0,,,,,,,161,,,1,2823.744831515185,Y,d,go,d,1,,0.28015333332587034,,,,,,,,,,,,,,,91,001,23,w,Bildungswissenschaften und Psychologie,2023-02-06_09h25.06.787,00_bat_bachelor,2022.2.4,60.08564934582312,
,,,,,,,,,,,,0,0,0,0,162,0,162,0,,,,,,,162,,,1,2825.1294399999897,X,l,go,l,1,,0.22470509092090651,,,,,,,,,,,,,,,91,001,23,w,Bildungswissenschaften und Psychologie,2023-02-06_09h25.06.787,00_bat_bachelor,2022.2.4,60.08564934582312,
,,,,,,,,,,,,0,0,0,0,163,0,163,0,,,,,,,163,,,1,2826.4638438788243,Y,d,go,d,1,,0.39378727274015546,,,,,,,,,,,,,,,91,001,23,w,Bildungswissenschaften und Psychologie,2023-02-06_09h25.06.787,00_bat_bachelor,2022.2.4,60.08564934582312,
,,,,,,,,,,,,0,0,0,0,164,0,164,0,,,,,,,164,,,1,2827.9649498182116,X,l,go,l,1,,0.3334347878699191,,,,,,,,,,,,,,,91,001,23,w,Bildungswissenschaften und Psychologie,2023-02-06_09h25.06.787,00_bat_bachelor,2022.2.4,60.08564934582312,
,,,,,,,,,,,,0,0,0,0,165,0,165,0,,,,,,,165,,,1,2829.399364363635,Y,d,go,d,1,,0.4507240000530146,,,,,,,,,,,,,,,91,001,23,w,Bildungswissenschaften und Psychologie,2023-02-06_09h25.06.787,00_bat_bachelor,2022.2.4,60.08564934582312,
,,,,,,,,,,,,0,0,0,0,166,0,166,0,,,,,,,166,,,1,2830.9504465454957,X,l,go,None,0,,,,,,,,,,,,,,,,,91,001,23,w,Bildungswissenschaften und Psychologie,2023-02-06_09h25.06.787,00_bat_bachelor,2022.2.4,60.08564934582312,
,,,,,,,,,,,,0,0,0,0,167,0,167,0,,,,,,,167,,,1,2832.752884363639,Y,d,go,d,1,,0.34393757581710815,,,,,,,,,,,,,,,91,001,23,w,Bildungswissenschaften und Psychologie,2023-02-06_09h25.06.787,00_bat_bachelor,2022.2.4,60.08564934582312,
,,,,,,,,,,,,0,0,0,0,168,0,168,0,,,,,,,168,,,1,2834.219881696976,X,l,go,l,1,,0.2692849697195925,,,,,,,,,,,,,,,91,001,23,w,Bildungswissenschaften und Psychologie,2023-02-06_09h25.06.787,00_bat_bachelor,2022.2.4,60.08564934582312,
,,,,,,,,,,,,0,0,0,0,169,0,169,0,,,,,,,169,,,1,2835.604247272713,Y,d,go,d,1,,0.3415720000048168,,,,,,,,,,,,,,,91,001,23,w,Bildungswissenschaften und Psychologie,2023-02-06_09h25.06.787,00_bat_bachelor,2022.2.4,60.08564934582312,
,,,,,,,,,,,,0,0,0,0,170,0,170,0,,,,,,,170,,,1,2837.0553362424253,X,l,go,l,1,,0.3141901818453334,,,,,,,,,,,,,,,91,001,23,w,Bildungswissenschaften und Psychologie,2023-02-06_09h25.06.787,00_bat_bachelor,2022.2.4,60.08564934582312,
,,,,,,,,,,,,0,0,0,0,171,0,171,0,,,,,,,171,,,1,2838.489957333368,Y,d,go,d,1,,0.2704447273281403,,,,,,,,,,,,,,,91,001,23,w,Bildungswissenschaften und Psychologie,2023-02-06_09h25.06.787,00_bat_bachelor,2022.2.4,60.08564934582312,
,,,,,,,,,,,,0,0,0,0,172,0,172,0,,,,,,,172,,,1,2839.891129212163,X,l,go,l,1,,0.2632132121361792,,,,,,,,,,,,,,,91,001,23,w,Bildungswissenschaften und Psychologie,2023-02-06_09h25.06.787,00_bat_bachelor,2022.2.4,60.08564934582312,
,,,,,,,,,,,,0,0,0,0,173,0,173,0,,,,,,,173,,,1,2841.2587456969777,Y,d,go,d,1,,0.2547550303279422,,,,,,,,,,,,,,,91,001,23,w,Bildungswissenschaften und Psychologie,2023-02-06_09h25.06.787,00_bat_bachelor,2022.2.4,60.08564934582312,
,,,,,,,,,,,,0,0,0,0,174,0,174,0,,,,,,,174,,,1,2842.626480484847,X,l,go,l,1,,0.31146824243478477,,,,,,,,,,,,,,,91,001,23,w,Bildungswissenschaften und Psychologie,2023-02-06_09h25.06.787,00_bat_bachelor,2022.2.4,60.08564934582312,
,,,,,,,,,,,,0,0,0,0,175,0,175,0,,,,,,,175,,,1,2844.0437541818246,X,None,nogo,l,0,,0.44653248484246433,,,,,,,,,,,,,,,91,001,23,w,Bildungswissenschaften und Psychologie,2023-02-06_09h25.06.787,00_bat_bachelor,2022.2.4,60.08564934582312,
,,,,,,,,,,,,0,0,0,0,176,0,176,0,,,,,,,176,,,1,2845.5946720000356,Y,d,go,d,1,,0.3188869090517983,,,,,,,,,,,,,,,91,001,23,w,Bildungswissenschaften und Psychologie,2023-02-06_09h25.06.787,00_bat_bachelor,2022.2.4,60.08564934582312,
,,,,,,,,,,,,0,0,0,0,177,0,177,0,,,,,,,177,,,1,2847.0291486060596,X,l,go,l,1,,0.37217418185900897,,,,,,,,,,,,,,,91,001,23,w,Bildungswissenschaften und Psychologie,2023-02-06_09h25.06.787,00_bat_bachelor,2022.2.4,60.08564934582312,
,,,,,,,,,,,,0,0,0,0,178,0,178,0,,,,,,,178,,,1,2848.5138332121423,Y,d,go,d,1,,0.40775818179827183,,,,,,,,,,,,,,,91,001,23,w,Bildungswissenschaften und Psychologie,2023-02-06_09h25.06.787,00_bat_bachelor,2022.2.4,60.08564934582312,
,,,,,,,,,,,,0,0,0,0,179,0,179,0,,,,,,,179,,,1,2850.031679515145,X,l,go,l,1,,0.2656553939450532,,,,,,,,,,,,,,,91,001,23,w,Bildungswissenschaften und Psychologie,2023-02-06_09h25.06.787,00_bat_bachelor,2022.2.4,60.08564934582312,
,,,,,,,,,,,,0,0,0,0,180,0,180,0,,,,,,,180,,,1,2851.399429818208,Y,d,go,d,1,,0.32263284851796925,,,,,,,,,,,,,,,91,001,23,w,Bildungswissenschaften und Psychologie,2023-02-06_09h25.06.787,00_bat_bachelor,2022.2.4,60.08564934582312,
,,,,,,,,,,,,0,0,0,0,181,0,181,0,,,,,,,181,,,1,2852.833822545479,X,l,go,l,1,,0.279230666696094,,,,,,,,,,,,,,,91,001,23,w,Bildungswissenschaften und Psychologie,2023-02-06_09h25.06.787,00_bat_bachelor,2022.2.4,60.08564934582312,
,,,,,,,,,,,,0,0,0,0,182,0,182,0,,,,,,,182,,,1,2854.218219151546,Y,d,go,d,1,,0.23914581816643476,,,,,,,,,,,,,,,91,001,23,w,Bildungswissenschaften und Psychologie,2023-02-06_09h25.06.787,00_bat_bachelor,2022.2.4,60.08564934582312,
,,,,,,,,,,,,0,0,0,0,183,0,183,0,,,,,,,183,,,1,2855.5692135758,X,l,go,l,1,,0.23266387882176787,,,,,,,,,,,,,,,91,001,23,w,Bildungswissenschaften und Psychologie,2023-02-06_09h25.06.787,00_bat_bachelor,2022.2.4,60.08564934582312,
,,,,,,,,,,,,0,0,0,0,184,0,184,0,,,,,,,184,,,1,2856.903660121199,Y,d,go,d,1,,0.3700849697343074,,,,,,,,,,,,,,,91,001,23,w,Bildungswissenschaften und Psychologie,2023-02-06_09h25.06.787,00_bat_bachelor,2022.2.4,60.08564934582312,
,,,,,,,,,,,,0,0,0,0,185,0,185,0,,,,,,,185,,,1,2858.388192484854,X,l,go,l,1,,0.45380957575980574,,,,,,,,,,,,,,,91,001,23,w,Bildungswissenschaften und Psychologie,2023-02-06_09h25.06.787,00_bat_bachelor,2022.2.4,60.08564934582312,
,,,,,,,,,,,,0,0,0,0,186,0,186,0,,,,,,,186,,,1,2859.955764848506,Y,d,go,d,1,,0.24547793943202123,,,,,,,,,,,,,,,91,001,23,w,Bildungswissenschaften und Psychologie,2023-02-06_09h25.06.787,00_bat_bachelor,2022.2.4,60.08564934582312,
,,,,,,,,,,,,0,0,0,0,187,0,187,0,,,,,,,187,,,1,2861.3066710302955,Y,None,nogo,l,0,,0.27115745458286256,,,,,,,,,,,,,,,91,001,23,w,Bildungswissenschaften und Psychologie,2023-02-06_09h25.06.787,00_bat_bachelor,2022.2.4,60.08564934582312,
,,,,,,,,,,,,0,0,0,0,188,0,188,0,,,,,,,188,,,1,2862.6914244848886,X,l,go,l,1,,0.357973454578314,,,,,,,,,,,,,,,91,001,23,w,Bildungswissenschaften und Psychologie,2023-02-06_09h25.06.787,00_bat_bachelor,2022.2.4,60.08564934582312,
,,,,,,,,,,,,0,0,0,0,189,0,189,0,,,,,,,189,,,1,2864.1588635151857,Y,d,go,d,1,,0.37853684852598235,,,,,,,,,,,,,,,91,001,23,w,Bildungswissenschaften und Psychologie,2023-02-06_09h25.06.787,00_bat_bachelor,2022.2.4,60.08564934582312,
,,,,,,,,,,,,0,0,0,0,190,0,190,0,,,,,,,190,,,1,2865.6436480000266,X,l,go,l,1,,0.33394921210128814,,,,,,,,,,,,,,,91,001,23,w,Bildungswissenschaften und Psychologie,2023-02-06_09h25.06.787,00_bat_bachelor,2022.2.4,60.08564934582312,
,,,,,,,,,,,,0,0,0,0,191,0,191,0,,,,,,,191,,,1,2867.0947578182095,Y,d,go,d,1,,0.25809757580282167,,,,,,,,,,,,,,,91,001,23,w,Bildungswissenschaften und Psychologie,2023-02-06_09h25.06.787,00_bat_bachelor,2022.2.4,60.08564934582312,
,,,,,,,,,,,,0,0,0,0,192,0,192,0,,,,,,,192,,,1,2868.4620800000266,X,l,go,l,1,,0.33076569699915126,,,,,,,,,,,,,,,91,001,23,w,Bildungswissenschaften und Psychologie,2023-02-06_09h25.06.787,00_bat_bachelor,2022.2.4,60.08564934582312,
,,,,,,,,,,,,0,0,0,0,193,0,193,0,,,,,,,193,,,1,2869.8968654545606,Y,d,go,d,1,,0.4166056969552301,,,,,,,,,,,,,,,91,001,23,w,Bildungswissenschaften und Psychologie,2023-02-06_09h25.06.787,00_bat_bachelor,2022.2.4,60.08564934582312,
,,,,,,,,,,,,0,0,0,0,194,0,194,0,,,,,,,194,,,1,2871.4145081212046,X,l,go,l,1,,0.35472254548221827,,,,,,,,,,,,,,,91,001,23,w,Bildungswissenschaften und Psychologie,2023-02-06_09h25.06.787,00_bat_bachelor,2022.2.4,60.08564934582312,
,,,,,,,,,,,,0,0,0,0,195,0,195,0,,,,,,,195,,,1,2872.882381575764,Y,d,go,d,1,,0.32778921216959134,,,,,,,,,,,,,,,91,001,23,w,Bildungswissenschaften und Psychologie,2023-02-06_09h25.06.787,00_bat_bachelor,2022.2.4,60.08564934582312,
,,,,,,,,,,,,0,0,0,0,196,0,196,0,,,,,,,196,,,1,2874.316830545489,X,l,go,l,1,,0.5085383030236699,,,,,,,,,,,,,,,91,001,23,w,Bildungswissenschaften und Psychologie,2023-02-06_09h25.06.787,00_bat_bachelor,2022.2.4,60.08564934582312,
,,,,,,,,,,,,0,0,0,0,197,0,197,0,,,,,,,197,,,1,2875.934530424245,X,None,nogo,l,0,,0.39454751514131203,,,,,,,,,,,,,,,91,001,23,w,Bildungswissenschaften und Psychologie,2023-02-06_09h25.06.787,00_bat_bachelor,2022.2.4,60.08564934582312,
,,,,,,,,,,,,0,0,0,0,198,0,198,0,,,,,,,198,,,1,2877.4359936969704,Y,d,go,d,1,,0.30170581821585074,,,,,,,,,,,,,,,91,001,23,w,Bildungswissenschaften und Psychologie,2023-02-06_09h25.06.787,00_bat_bachelor,2022.2.4,60.08564934582312,
,,,,,,,,,,,,0,0,0,0,199,0,199,0,,,,,,,199,,,1,2878.8537333333516,X,l,go,l,1,,0.27617612126050517,,,,,,,,,,,,,,,91,001,23,w,Bildungswissenschaften und Psychologie,2023-02-06_09h25.06.787,00_bat_bachelor,2022.2.4,60.08564934582312,
,,,,,,,,,,,,0,0,0,0,200,0,200,0,,,,,,,200,,,1,2880.2384126060642,X,None,nogo,None,1,2881.0389226666884,,,,,,,,,,,,,,,,91,001,23,w,Bildungswissenschaften und Psychologie,2023-02-06_09h25.06.787,00_bat_bachelor,2022.2.4,60.08564934582312,
,,,,,,,,,,,,0,0,0,0,201,0,201,0,,,,,,,201,,,1,2882.039555878786,Y,d,go,d,1,,0.273104606079869,,,,,,,,,,,,,,,91,001,23,w,Bildungswissenschaften und Psychologie,2023-02-06_09h25.06.787,00_bat_bachelor,2022.2.4,60.08564934582312,
,,,,,,,,,,,,0,0,0,0,202,0,202,0,,,,,,,202,,,1,2883.4239922424313,X,l,go,l,1,,0.3929654545499943,,,,,,,,,,,,,,,91,001,23,w,Bildungswissenschaften und Psychologie,2023-02-06_09h25.06.787,00_bat_bachelor,2022.2.4,60.08564934582312,
,,,,,,,,,,,,0,0,0,0,203,0,203,0,,,,,,,203,,,1,2884.9252552727703,Y,d,go,d,1,,0.5403021818492562,,,,,,,,,,,,,,,91,001,23,w,Bildungswissenschaften und Psychologie,2023-02-06_09h25.06.787,00_bat_bachelor,2022.2.4,60.08564934582312,
,,,,,,,,,,,,0,0,0,0,204,0,204,0,,,,,,,204,,,1,2886.576556121232,X,l,go,l,1,,0.45783575758105144,,,,,,,,,,,,,,,91,001,23,w,Bildungswissenschaften und Psychologie,2023-02-06_09h25.06.787,00_bat_bachelor,2022.2.4,60.08564934582312,
,,,,,,,,,,,,0,0,0,0,205,0,205,0,,,,,,,205,,,1,2888.144363151514,Y,d,go,d,1,,0.4407487272983417,,,,,,,,,,,,,,,91,001,23,w,Bildungswissenschaften und Psychologie,2023-02-06_09h25.06.787,00_bat_bachelor,2022.2.4,60.08564934582312,
,,,,,,,,,,,,0,0,0,0,206,0,206,0,,,,,,,206,,,1,2889.6953968484886,X,l,go,l,1,,0.21794436359778047,,,,,,,,,,,,,,,91,001,23,w,Bildungswissenschaften und Psychologie,2023-02-06_09h25.06.787,00_bat_bachelor,2022.2.4,60.08564934582312,
,,,,,,,,,,,,0,0,0,0,207,0,207,0,,,,,,,207,,,1,2891.029960727261,X,None,nogo,d,0,,0.21232690912438557,,,,,,,,,,,,,,,91,001,23,w,Bildungswissenschaften und Psychologie,2023-02-06_09h25.06.787,00_bat_bachelor,2022.2.4,60.08564934582312,
,,,,,,,,,,,,0,0,0,0,208,0,208,0,,,,,,,208,,,1,2892.3472829090897,Y,d,go,d,1,,0.2379880000371486,,,,,,,,,,,,,,,91,001,23,w,Bildungswissenschaften und Psychologie,2023-02-06_09h25.06.787,00_bat_bachelor,2022.2.4,60.08564934582312,
,,,,,,,,,,,,0,0,0,0,209,0,209,0,,,,,,,209,,,1,2893.6982613333385,X,l,go,l,1,,0.2794536969740875,,,,,,,,,,,,,,,91,001,23,w,Bildungswissenschaften und Psychologie,2023-02-06_09h25.06.787,00_bat_bachelor,2022.2.4,60.08564934582312,
,,,,,,,,,,,,0,0,0,0,210,0,210,0,,,,,,,210,,,1,2895.082640000037,Y,d,go,d,1,,0.41506193939130753,,,,,,,,,,,,,,,91,001,23,w,Bildungswissenschaften und Psychologie,2023-02-06_09h25.06.787,00_bat_bachelor,2022.2.4,60.08564934582312,
,,,,,,,,,,,,0,0,0,0,211,0,211,0,,,,,,,211,,,1,2896.600708363636,X,l,go,l,1,,0.5132752727367915,,,,,,,,,,,,,,,91,001,23,w,Bildungswissenschaften und Psychologie,2023-02-06_09h25.06.787,00_bat_bachelor,2022.2.4,60.08564934582312,
,,,,,,,,,,,,0,0,0,0,212,0,212,0,,,,,,,212,,,1,2898.218458666699,Y,d,go,d,1,,0.47852763638366014,,,,,,,,,,,,,,,91,001,23,w,Bildungswissenschaften und Psychologie,2023-02-06_09h25.06.787,00_bat_bachelor,2022.2.4,60.08564934582312,
,,,,,,,,,,,,0,0,0,0,213,0,213,0,,,,,,,213,,,1,2899.80284654547,Y,None,nogo,d,0,,0.5424423030926846,,,,,,,,,,,,,,,91,001,23,w,Bildungswissenschaften und Psychologie,2023-02-06_09h25.06.787,00_bat_bachelor,2022.2.4,60.08564934582312,
,,,,,,,,,,,,0,0,0,0,214,0,214,0,,,,,,,214,,,1,2901.454303030332,X,l,go,l,1,,0.2992859394289553,,,,,,,,,,,,,,,91,001,23,w,Bildungswissenschaften und Psychologie,2023-02-06_09h25.06.787,00_bat_bachelor,2022.2.4,60.08564934582312,
,,,,,,,,,,,,0,0,0,0,215,0,215,0,,,,,,,215,,,1,2902.855400727305,Y,d,go,d,1,,0.4342270303168334,,,,,,,,,,,,,,,91,001,23,w,Bildungswissenschaften und Psychologie,2023-02-06_09h25.06.787,00_bat_bachelor,2022.2.4,60.08564934582312,
,,,,,,,,,,,,0,0,0,0,216,0,216,0,,,,,,,216,,,1,2904.406553212146,X,l,go,l,1,,0.4986629090853967,,,,,,,,,,,,,,,91,001,23,w,Bildungswissenschaften und Psychologie,2023-02-06_09h25.06.787,00_bat_bachelor,2022.2.4,60.08564934582312,
,,,,,,,,,,,,0,0,0,0,217,0,217,0,,,,,,,217,,,1,2906.0077042424236,X,None,nogo,l,0,,0.5937770909513347,,,,,,,,,,,,,,,91,001,23,w,Bildungswissenschaften und Psychologie,2023-02-06_09h25.06.787,00_bat_bachelor,2022.2.4,60.08564934582312,
,,,,,,,,,,,,0,0,0,0,218,0,218,0,,,,,,,218,,,1,2907.7089386666776,Y,d,go,d,1,,0.2848927273298614,,,,,,,,,,,,,,,91,001,23,w,Bildungswissenschaften und Psychologie,2023-02-06_09h25.06.787,00_bat_bachelor,2022.2.4,60.08564934582312,
,,,,,,,,,,,,0,0,0,0,219,0,219,0,,,,,,,219,,,1,2909.1101648485055,X,l,go,l,1,,0.49907066667219624,,,,,,,,,,,,,,,91,001,23,w,Bildungswissenschaften und Psychologie,2023-02-06_09h25.06.787,00_bat_bachelor,2022.2.4,60.08564934582312,
,,,,,,,,,,,,0,0,0,0,220,0,220,0,,,,,,,220,,,1,2910.711156848527,X,None,nogo,None,1,2911.5117406061036,,,,,,,,,,,,,,,,91,001,23,w,Bildungswissenschaften und Psychologie,2023-02-06_09h25.06.787,00_bat_bachelor,2022.2.4,60.08564934582312,
,,,,,,,,,,,,0,0,0,0,221,0,221,0,,,,,,,221,,,1,2912.5125275151804,Y,d,go,d,1,,0.28198751516174525,,,,,,,,,,,,,,,91,001,23,w,Bildungswissenschaften und Psychologie,2023-02-06_09h25.06.787,00_bat_bachelor,2022.2.4,60.08564934582312,
,,,,,,,,,,,,0,0,0,0,222,0,222,0,,,,,,,222,,,1,2913.8971151515143,X,l,go,l,1,,0.46440545457880944,,,,,,,,,,,,,,,91,001,23,w,Bildungswissenschaften und Psychologie,2023-02-06_09h25.06.787,00_bat_bachelor,2022.2.4,60.08564934582312,
,,,,,,,,,,,,0,0,0,0,223,0,223,0,,,,,,,223,,,1,2915.4646007273113,Y,d,go,d,1,,0.3046808484941721,,,,,,,,,,,,,,,91,001,23,w,Bildungswissenschaften und Psychologie,2023-02-06_09h25.06.787,00_bat_bachelor,2022.2.4,60.08564934582312,
,,,,,,,,,,,,0,0,0,0,224,0,224,0,,,,,,,224,,,1,2916.8827587878914,X,l,go,l,1,,0.2955210909130983,,,,,,,,,,,,,,,91,001,23,w,Bildungswissenschaften und Psychologie,2023-02-06_09h25.06.787,00_bat_bachelor,2022.2.4,60.08564934582312,
,,,,,,,,,,,,0,0,0,0,225,0,225,0,,,,,,,225,,,1,2918.283812363632,X,None,nogo,None,1,,,,,,,,,,,,,,,,,91,001,23,w,Bildungswissenschaften und Psychologie,2023-02-06_09h25.06.787,00_bat_bachelor,2022.2.4,60.08564934582312,
,,,,,,,,,,,,0,0,0,0,226,0,226,0,,,,,,,226,,,1,2920.0847883636598,Y,d,go,d,1,,0.37173830304527655,,,,,,,,,,,,,,,91,001,23,w,Bildungswissenschaften und Psychologie,2023-02-06_09h25.06.787,00_bat_bachelor,2022.2.4,60.08564934582312,
,,,,,,,,,,,,0,0,0,0,227,0,227,0,,,,,,,227,,,1,2921.569319272763,X,l,go,l,1,,0.2956258181948215,,,,,,,,,,,,,,,91,001,23,w,Bildungswissenschaften und Psychologie,2023-02-06_09h25.06.787,00_bat_bachelor,2022.2.4,60.08564934582312,
,,,,,,,,,,,,0,0,0,0,228,0,228,0,,,,,,,228,,,1,2922.9707151515177,Y,d,go,d,1,,0.2553974545444362,,,,,,,,,,,,,,,91,001,23,w,Bildungswissenschaften und Psychologie,2023-02-06_09h25.06.787,00_bat_bachelor,2022.2.4,60.08564934582312,
,,,,,,,,,,,,0,0,0,0,229,0,229,0,,,,,,,229,,,1,2924.3384402424563,Y,None,nogo,None,1,,,,,,,,,,,,,,,,,91,001,23,w,Bildungswissenschaften und Psychologie,2023-02-06_09h25.06.787,00_bat_bachelor,2022.2.4,60.08564934582312,
,,,,,,,,,,,,0,0,0,0,230,0,230,0,,,,,,,230,,,1,2926.1397866666666,X,l,go,l,1,,0.31756084848893806,,,,,,,,,,,,,,,91,001,23,w,Bildungswissenschaften und Psychologie,2023-02-06_09h25.06.787,00_bat_bachelor,2022.2.4,60.08564934582312,
,,,,,,,,,,,,0,0,0,0,231,0,231,0,,,,,,,231,,,1,2927.5740959999966,Y,d,go,None,0,,,,,,,,,,,,,,,,,91,001,23,w,Bildungswissenschaften und Psychologie,2023-02-06_09h25.06.787,00_bat_bachelor,2022.2.4,60.08564934582312,
,,,,,,,,,,,,0,0,0,0,232,0,232,0,,,,,,,232,,,1,2929.375502060633,X,l,go,l,1,,0.2655749091063626,,,,,,,,,,,,,,,91,001,23,w,Bildungswissenschaften und Psychologie,2023-02-06_09h25.06.787,00_bat_bachelor,2022.2.4,60.08564934582312,
,,,,,,,,,,,,0,0,0,0,233,0,233,0,,,,,,,233,,,1,2930.7432664242806,X,None,nogo,None,1,,,,,,,,,,,,,,,,,91,001,23,w,Bildungswissenschaften und Psychologie,2023-02-06_09h25.06.787,00_bat_bachelor,2022.2.4,60.08564934582312,
,,,,,,,,,,,,0,0,0,0,234,0,234,0,,,,,,,234,,,1,2932.5448926060926,Y,d,go,d,1,,0.24904399999650195,,,,,,,,,,,,,,,91,001,23,w,Bildungswissenschaften und Psychologie,2023-02-06_09h25.06.787,00_bat_bachelor,2022.2.4,60.08564934582312,
,,,,,,,,,,,,0,0,0,0,235,0,235,0,,,,,,,235,,,1,2933.8953609697055,X,l,go,l,1,,0.35325006063794717,,,,,,,,,,,,,,,91,001,23,w,Bildungswissenschaften und Psychologie,2023-02-06_09h25.06.787,00_bat_bachelor,2022.2.4,60.08564934582312,
,,,,,,,,,,,,0,0,0,0,236,0,236,0,,,,,,,236,,,1,2935.3635030303267,X,None,nogo,None,1,2936.16410375759,,,,,,,,,,,,,,,,91,001,23,w,Bildungswissenschaften und Psychologie,2023-02-06_09h25.06.787,00_bat_bachelor,2022.2.4,60.08564934582312,
,,,,,,,,,,,,0,0,0,0,237,0,237,0,,,,,,,237,,,1,2937.164845575753,Y,d,go,d,1,,0.3327162424684502,,,,,,,,,,,,,,,91,001,23,w,Bildungswissenschaften und Psychologie,2023-02-06_09h25.06.787,00_bat_bachelor,2022.2.4,60.08564934582312,
,,,,,,,,,,,,0,0,0,0,238,0,238,0,,,,,,,238,,,1,2938.5992193939746,X,l,go,l,1,,0.4980461818049662,,,,,,,,,,,,,,,91,001,23,w,Bildungswissenschaften und Psychologie,2023-02-06_09h25.06.787,00_bat_bachelor,2022.2.4,60.08564934582312,
,,,,,,,,,,,,0,0,0,0,239,0,239,0,,,,,,,239,,,1,2940.200410666701,Y,d,go,d,1,,0.3377053333679214,,,,,,,,,,,,,,,91,001,23,w,Bildungswissenschaften und Psychologie,2023-02-06_09h25.06.787,00_bat_bachelor,2022.2.4,60.08564934582312,
,,,,,,,,,,,,0,0,0,0,240,0,240,0,,,,,,,240,,,1,2941.6515447272686,Y,None,nogo,l,0,,0.2303855757927522,,,,,,,,,,,,,,,91,001,23,w,Bildungswissenschaften und Psychologie,2023-02-06_09h25.06.787,00_bat_bachelor,2022.2.4,60.08564934582312,
,,,,,,,,,,,,0,0,0,0,241,0,241,0,,,,,,,241,,,1,2942.985870545497,X,l,go,l,1,,0.2721470302785747,,,,,,,,,,,,,,,91,001,23,w,Bildungswissenschaften und Psychologie,2023-02-06_09h25.06.787,00_bat_bachelor,2022.2.4,60.08564934582312,
,,,,,,,,,,,,0,0,0,0,242,0,242,0,,,,,,,242,,,1,2944.370246303035,Y,d,go,d,1,,0.4066275151562877,,,,,,,,,,,,,,,91,001,23,w,Bildungswissenschaften und Psychologie,2023-02-06_09h25.06.787,00_bat_bachelor,2022.2.4,60.08564934582312,
,,,,,,,,,,,,0,0,0,0,243,0,243,0,,,,,,,243,,,1,2945.8881856969674,Y,None,nogo,None,1,,,,,,,,,,,,,,,,,91,001,23,w,Bildungswissenschaften und Psychologie,2023-02-06_09h25.06.787,00_bat_bachelor,2022.2.4,60.08564934582312,
,,,,,,,,,,,,0,0,0,0,244,0,244,0,,,,,,,244,,,1,2947.689489454555,X,l,go,l,1,,0.1593567273230292,,,,,,,,,,,,,,,91,001,23,w,Bildungswissenschaften und Psychologie,2023-02-06_09h25.06.787,00_bat_bachelor,2022.2.4,60.08564934582312,
,,,,,,,,,,,,0,0,0,0,245,0,245,0,,,,,,,245,,,1,2948.957210181805,Y,d,go,d,1,,0.507738787913695,,,,,,,,,,,,,,,91,001,23,w,Bildungswissenschaften und Psychologie,2023-02-06_09h25.06.787,00_bat_bachelor,2022.2.4,60.08564934582312,
,,,,,,,,,,,,0,0,0,0,246,0,246,0,,,,,,,246,,,1,2950.574755878828,Y,None,nogo,l,0,,0.1549756363965571,,,,,,,,,,,,,,,91,001,23,w,Bildungswissenschaften und Psychologie,2023-02-06_09h25.06.787,00_bat_bachelor,2022.2.4,60.08564934582312,
,,,,,,,,,,,,0,0,0,0,247,0,247,0,,,,,,,247,,,1,2951.842640484858,X,l,go,l,1,,0.23085393942892551,,,,,,,,,,,,,,,91,001,23,w,Bildungswissenschaften und Psychologie,2023-02-06_09h25.06.787,00_bat_bachelor,2022.2.4,60.08564934582312,
,,,,,,,,,,,,0,0,0,0,248,0,248,0,,,,,,,248,,,1,2953.1770288484986,Y,d,go,d,1,,0.19309006060939282,,,,,,,,,,,,,,,91,001,23,w,Bildungswissenschaften und Psychologie,2023-02-06_09h25.06.787,00_bat_bachelor,2022.2.4,60.08564934582312,
,,,,,,,,,,,,0,0,0,0,249,0,249,0,,,,,,,249,,,1,2954.4779282424133,Y,None,nogo,None,1,,,,,,,,,,,,,,,,,91,001,23,w,Bildungswissenschaften und Psychologie,2023-02-06_09h25.06.787,00_bat_bachelor,2022.2.4,60.08564934582312,
,,,,,,,,,,,,1,0,1,0,0,0,0,0,,,,,,,0,,,0.2,2989.1709376969957,X,l,go,None,0,,,,,,,,,,2955.2830530909123,space,33.65795696969144,,,,,91,001,23,w,Bildungswissenschaften und Psychologie,2023-02-06_09h25.06.787,00_bat_bachelor,2022.2.4,60.08564934582312,
,,,,,,,,,,,,1,0,1,0,1,0,1,0,,,,,,,1,,,0.2,2990.171868606063,Y,d,go,d,1,,0.38169418182224035,,,,,,,,,,,,,,,91,001,23,w,Bildungswissenschaften und Psychologie,2023-02-06_09h25.06.787,00_bat_bachelor,2022.2.4,60.08564934582312,
,,,,,,,,,,,,1,0,1,0,2,0,2,0,,,,,,,2,,,0.2,2990.856122181809,X,l,go,l,1,,0.04925103031564504,,,,,,,,,,,,,,,91,001,23,w,Bildungswissenschaften und Psychologie,2023-02-06_09h25.06.787,00_bat_bachelor,2022.2.4,60.08564934582312,
,,,,,,,,,,,,1,0,1,0,3,0,3,0,,,,,,,3,,,0.2,2991.205977212114,Y,d,go,d,1,,0.32331454544328153,,,,,,,,,,,,,,,91,001,23,w,Bildungswissenschaften und Psychologie,2023-02-06_09h25.06.787,00_bat_bachelor,2022.2.4,60.08564934582312,
,,,,,,,,,,,,1,0,1,0,4,0,4,0,,,,,,,4,,,0.2,2991.8397619394236,X,l,go,l,1,,0.2655603636521846,,,,,,,,,,,,,,,91,001,23,w,Bildungswissenschaften und Psychologie,2023-02-06_09h25.06.787,00_bat_bachelor,2022.2.4,60.08564934582312,
,,,,,,,,,,,,1,0,1,0,5,0,5,0,,,,,,,5,,,0.2,2992.4068974545808,Y,d,go,d,1,,0.2741814545588568,,,,,,,,,,,,,,,91,001,23,w,Bildungswissenschaften und Psychologie,2023-02-06_09h25.06.787,00_bat_bachelor,2022.2.4,60.08564934582312,
,,,,,,,,,,,,1,0,1,0,6,0,6,0,,,,,,,6,,,0.2,2992.9907524848823,X,l,go,l,1,,0.42693054547999054,,,,,,,,,,,,,,,91,001,23,w,Bildungswissenschaften und Psychologie,2023-02-06_09h25.06.787,00_bat_bachelor,2022.2.4,60.08564934582312,
,,,,,,,,,,,,1,0,1,0,7,0,7,0,,,,,,,7,,,0.2,2993.724558545451,X,None,nogo,None,1,,,,,,,,,,,,,,,,,91,001,23,w,Bildungswissenschaften und Psychologie,2023-02-06_09h25.06.787,00_bat_bachelor,2022.2.4,60.08564934582312,
,,,,,,,,,,,,1,0,1,0,8,0,8,0,,,,,,,8,,,0.2,2994.7254055757658,Y,d,go,d,1,,0.3074609697214328,,,,,,,,,,,,,,,91,001,23,w,Bildungswissenschaften und Psychologie,2023-02-06_09h25.06.787,00_bat_bachelor,2022.2.4,60.08564934582312,
,,,,,,,,,,,,1,0,1,0,9,0,9,0,,,,,,,9,,,0.2,2995.342473212164,X,l,go,l,1,,0.44360690913163126,,,,,,,,,,,,,,,91,001,23,w,Bildungswissenschaften und Psychologie,2023-02-06_09h25.06.787,00_bat_bachelor,2022.2.4,60.08564934582312,
,,,,,,,,,,,,1,0,1,0,10,0,10,0,,,,,,,10,,,0.2,2996.093047272763,Y,d,go,d,1,,0.3163487272686325,,,,,,,,,,,,,,,91,001,23,w,Bildungswissenschaften und Psychologie,2023-02-06_09h25.06.787,00_bat_bachelor,2022.2.4,60.08564934582312,
,,,,,,,,,,,,1,0,1,0,11,0,11,0,,,,,,,11,,,0.2,2996.7102317576064,X,l,go,l,1,,0.3074095757910982,,,,,,,,,,,,,,,91,001,23,w,Bildungswissenschaften und Psychologie,2023-02-06_09h25.06.787,00_bat_bachelor,2022.2.4,60.08564934582312,
,,,,,,,,,,,,1,0,1,0,12,0,12,0,,,,,,,12,,,0.2,2997.3272974545835,X,None,nogo,None,1,,,,,,,,,,,,,,,,,91,001,23,w,Bildungswissenschaften und Psychologie,2023-02-06_09h25.06.787,00_bat_bachelor,2022.2.4,60.08564934582312,
,,,,,,,,,,,,1,0,1,0,13,0,13,0,,,,,,,13,,,0.2,2998.328088727314,X,None,nogo,d,0,,0.27403454546583816,,,,,,,,,,,,,,,91,001,23,w,Bildungswissenschaften und Psychologie,2023-02-06_09h25.06.787,00_bat_bachelor,2022.2.4,60.08564934582312,
,,,,,,,,,,,,1,0,1,0,14,0,14,0,,,,,,,14,,,0.2,2998.9119200000423,Y,d,go,d,1,,0.4896335757803172,,,,,,,,,,,,,,,91,001,23,w,Bildungswissenschaften und Psychologie,2023-02-06_09h25.06.787,00_bat_bachelor,2022.2.4,60.08564934582312,
,,,,,,,,,,,,1,0,1,0,15,0,15,0,,,,,,,15,,,0.2,2999.712425697013,X,l,go,l,1,,0.29762775759445503,,,,,,,,,,,,,,,91,001,23,w,Bildungswissenschaften und Psychologie,2023-02-06_09h25.06.787,00_bat_bachelor,2022.2.4,60.08564934582312,
,,,,,,,,,,,,1,0,1,0,16,0,16,0,,,,,,,16,,,0.2,3000.3126152727637,X,None,nogo,None,1,,,,,,,,,,,,,,,,,91,001,23,w,Bildungswissenschaften und Psychologie,2023-02-06_09h25.06.787,00_bat_bachelor,2022.2.4,60.08564934582312,
,,,,,,,,,,,,1,0,1,0,17,0,17,0,,,,,,,17,,,0.2,3001.3137687272974,Y,d,go,d,1,,0.31156569701852277,,,,,,,,,,,,,,,91,001,23,w,Bildungswissenschaften und Psychologie,2023-02-06_09h25.06.787,00_bat_bachelor,2022.2.4,60.08564934582312,
,,,,,,,,,,,,1,0,1,0,18,0,18,0,,,,,,,18,,,0.2,3001.9309090909082,X,l,go,l,1,,0.3507438788074069,,,,,,,,,,,,,,,91,001,23,w,Bildungswissenschaften und Psychologie,2023-02-06_09h25.06.787,00_bat_bachelor,2022.2.4,60.08564934582312,
,,,,,,,,,,,,1,0,1,0,19,0,19,0,,,,,,,19,,,0.2,3002.5978783030296,Y,d,go,d,1,,0.3880296970019117,,,,,,,,,,,,,,,91,001,23,w,Bildungswissenschaften und Psychologie,2023-02-06_09h25.06.787,00_bat_bachelor,2022.2.4,60.08564934582312,
,,,,,,,,,,,,1,0,1,0,20,0,20,0,,,,,,,20,,,0.2,3003.298509090906,X,l,go,l,1,,0.23081854544579983,,,,,,,,,,,,,,,91,001,23,w,Bildungswissenschaften und Psychologie,2023-02-06_09h25.06.787,00_bat_bachelor,2022.2.4,60.08564934582312,
,,,,,,,,,,,,1,0,1,0,21,0,21,0,,,,,,,21,,,0.2,3003.8320009697345,Y,d,go,d,1,,0.2728709091315977,,,,,,,,,,,,,,,91,001,23,w,Bildungswissenschaften und Psychologie,2023-02-06_09h25.06.787,00_bat_bachelor,2022.2.4,60.08564934582312,
,,,,,,,,,,,,1,0,1,0,22,0,22,0,,,,,,,22,,,0.2,3004.416138181812,X,l,go,l,1,,0.1851758788106963,,,,,,,,,,,,,,,91,001,23,w,Bildungswissenschaften und Psychologie,2023-02-06_09h25.06.787,00_bat_bachelor,2022.2.4,60.08564934582312,
,,,,,,,,,,,,1,0,1,0,23,0,23,0,,,,,,,23,,,0.2,3004.9163549091318,X,None,nogo,None,1,,,,,,,,,,,,,,,,,91,001,23,w,Bildungswissenschaften und Psychologie,2023-02-06_09h25.06.787,00_bat_bachelor,2022.2.4,60.08564934582312,
,,,,,,,,,,,,1,0,1,0,24,0,24,0,,,,,,,24,,,0.2,3005.917271272745,Y,d,go,d,1,,0.2841872727731243,,,,,,,,,,,,,,,91,001,23,w,Bildungswissenschaften und Psychologie,2023-02-06_09h25.06.787,00_bat_bachelor,2022.2.4,60.08564934582312,
,,,,,,,,,,,,1,0,1,0,25,0,25,0,,,,,,,25,,,0.2,3006.5176572121563,X,l,go,l,1,,0.2600694545544684,,,,,,,,,,,,,,,91,001,23,w,Bildungswissenschaften und Psychologie,2023-02-06_09h25.06.787,00_bat_bachelor,2022.2.4,60.08564934582312,
,,,,,,,,,,,,1,0,1,0,26,0,26,0,,,,,,,26,,,0.2,3007.0844964848366,X,None,nogo,None,1,,,,,,,,,,,,,,,,,91,001,23,w,Bildungswissenschaften und Psychologie,2023-02-06_09h25.06.787,00_bat_bachelor,2022.2.4,60.08564934582312,
,,,,,,,,,,,,1,0,1,0,27,0,27,0,,,,,,,27,,,0.2,3008.085496242449,Y,d,go,d,1,,0.22835842426866293,,,,,,,,,,,,,,,91,001,23,w,Bildungswissenschaften und Psychologie,2023-02-06_09h25.06.787,00_bat_bachelor,2022.2.4,60.08564934582312,
,,,,,,,,,,,,1,0,1,0,28,0,28,0,,,,,,,28,,,0.2,3008.6191253333236,X,l,go,l,1,,0.5102638787939213,,,,,,,,,,,,,,,91,001,23,w,Bildungswissenschaften und Psychologie,2023-02-06_09h25.06.787,00_bat_bachelor,2022.2.4,60.08564934582312,
,,,,,,,,,,,,1,0,1,0,29,0,29,0,,,,,,,29,,,0.2,3009.436519272742,X,None,nogo,None,1,,,,,,,,,,,,,,,,,91,001,23,w,Bildungswissenschaften und Psychologie,2023-02-06_09h25.06.787,00_bat_bachelor,2022.2.4,60.08564934582312,
,,,,,,,,,,,,1,0,1,0,30,0,30,0,,,,,,,30,,,0.2,3010.437355636386,Y,d,go,d,1,,0.259795515157748,,,,,,,,,,,,,,,91,001,23,w,Bildungswissenschaften und Psychologie,2023-02-06_09h25.06.787,00_bat_bachelor,2022.2.4,60.08564934582312,
,,,,,,,,,,,,1,0,1,0,31,0,31,0,,,,,,,31,,,0.2,3011.0041464242386,X,l,go,l,1,,0.28490824246546254,,,,,,,,,,,,,,,91,001,23,w,Bildungswissenschaften und Psychologie,2023-02-06_09h25.06.787,00_bat_bachelor,2022.2.4,60.08564934582312,
,,,,,,,,,,,,1,0,1,0,32,0,32,0,,,,,,,32,,,0.2,3011.60461430304,Y,d,go,d,1,,0.4369615757605061,,,,,,,,,,,,,,,91,001,23,w,Bildungswissenschaften und Psychologie,2023-02-06_09h25.06.787,00_bat_bachelor,2022.2.4,60.08564934582312,
,,,,,,,,,,,,1,0,1,0,33,0,33,0,,,,,,,33,,,0.2,3012.3553071515053,Y,None,nogo,None,1,,,,,,,,,,,,,,,,,91,001,23,w,Bildungswissenschaften und Psychologie,2023-02-06_09h25.06.787,00_bat_bachelor,2022.2.4,60.08564934582312,
,,,,,,,,,,,,1,0,1,0,34,0,34,0,,,,,,,34,,,0.2,3013.356306424248,X,l,go,l,1,,0.33304836362367496,,,,,,,,,,,,,,,91,001,23,w,Bildungswissenschaften und Psychologie,2023-02-06_09h25.06.787,00_bat_bachelor,2022.2.4,60.08564934582312,
,,,,,,,,,,,,1,0,1,0,35,0,35,0,,,,,,,35,,,0.2,3013.9900242424337,Y,d,go,d,1,,0.4352893333416432,,,,,,,,,,,,,,,91,001,23,w,Bildungswissenschaften und Psychologie,2023-02-06_09h25.06.787,00_bat_bachelor,2022.2.4,60.08564934582312,
,,,,,,,,,,,,1,0,1,0,36,0,36,0,,,,,,,36,,,0.2,3014.7406734545366,X,l,go,l,1,,0.4210115151363425,,,,,,,,,,,,,,,91,001,23,w,Bildungswissenschaften und Psychologie,2023-02-06_09h25.06.787,00_bat_bachelor,2022.2.4,60.08564934582312,
,,,,,,,,,,,,1,0,1,0,37,0,37,0,,,,,,,37,,,0.2,3015.4742046060856,X,None,nogo,None,1,,,,,,,,,,,,,,,,,91,001,23,w,Bildungswissenschaften und Psychologie,2023-02-06_09h25.06.787,00_bat_bachelor,2022.2.4,60.08564934582312,
,,,,,,,,,,,,1,0,1,0,38,0,38,0,,,,,,,38,,,0.2,3016.475202424277,Y,d,go,d,1,,0.2704825454275124,,,,,,,,,,,,,,,91,001,23,w,Bildungswissenschaften und Psychologie,2023-02-06_09h25.06.787,00_bat_bachelor,2022.2.4,60.08564934582312,
,,,,,,,,,,,,1,0,1,0,39,0,39,0,,,,,,,39,,,0.2,3017.0590797576006,X,l,go,l,1,,0.3428612121497281,,,,,,,,,,,,,,,91,001,23,w,Bildungswissenschaften und Psychologie,2023-02-06_09h25.06.787,00_bat_bachelor,2022.2.4,60.08564934582312,
,,,,,,,,,,,,1,0,1,0,40,0,40,0,,,,,,,40,,,0.2,3017.70957818185,Y,d,go,d,1,,0.3955104242195375,,,,,,,,,,,,,,,91,001,23,w,Bildungswissenschaften und Psychologie,2023-02-06_09h25.06.787,00_bat_bachelor,2022.2.4,60.08564934582312,
,,,,,,,,,,,,1,0,1,0,41,0,41,0,,,,,,,41,,,0.2,3018.4101750302943,X,l,go,l,1,,0.2072529696743004,,,,,,,,,,,,,,,91,001,23,w,Bildungswissenschaften und Psychologie,2023-02-06_09h25.06.787,00_bat_bachelor,2022.2.4,60.08564934582312,
,,,,,,,,,,,,1,0,1,0,42,0,42,0,,,,,,,42,,,0.2,3018.9270981818554,Y,d,go,d,1,,0.4581426666700281,,,,,,,,,,,,,,,91,001,23,w,Bildungswissenschaften und Psychologie,2023-02-06_09h25.06.787,00_bat_bachelor,2022.2.4,60.08564934582312,
,,,,,,,,,,,,1,0,1,0,43,0,43,0,,,,,,,43,,,0.2,3019.6944562424324,Y,None,nogo,None,1,,,,,,,,,,,,,,,,,91,001,23,w,Bildungswissenschaften und Psychologie,2023-02-06_09h25.06.787,00_bat_bachelor,2022.2.4,60.08564934582312,
,,,,,,,,,,,,1,0,1,0,44,0,44,0,,,,,,,44,,,0.2,3020.6952281212434,X,l,go,l,1,,0.4021189091145061,,,,,,,,,,,,,,,91,001,23,w,Bildungswissenschaften und Psychologie,2023-02-06_09h25.06.787,00_bat_bachelor,2022.2.4,60.08564934582312,
,,,,,,,,,,,,1,0,1,0,45,0,45,0,,,,,,,45,,,0.2,3021.4123956363765,Y,d,go,d,1,,0.35726848483318463,,,,,,,,,,,,,,,91,001,23,w,Bildungswissenschaften und Psychologie,2023-02-06_09h25.06.787,00_bat_bachelor,2022.2.4,60.08564934582312,
,,,,,,,,,,,,1,0,1,0,46,0,46,0,,,,,,,46,,,0.2,3022.0791815757984,X,l,go,l,1,,0.24931163637666032,,,,,,,,,,,,,,,91,001,23,w,Bildungswissenschaften und Psychologie,2023-02-06_09h25.06.787,00_bat_bachelor,2022.2.4,60.08564934582312,
,,,,,,,,,,,,1,0,1,0,47,0,47,0,,,,,,,47,,,0.2,3022.629651393974,X,None,nogo,None,1,,,,,,,,,,,,,,,,,91,001,23,w,Bildungswissenschaften und Psychologie,2023-02-06_09h25.06.787,00_bat_bachelor,2022.2.4,60.08564934582312,
,,,,,,,,,,,,1,0,1,0,48,0,48,0,,,,,,,48,,,0.2,3023.6307612121454,Y,d,go,d,1,,0.28259600000455976,,,,,,,,,,,,,,,91,001,23,w,Bildungswissenschaften und Psychologie,2023-02-06_09h25.06.787,00_bat_bachelor,2022.2.4,60.08564934582312,
,,,,,,,,,,,,1,0,1,0,49,0,49,0,,,,,,,49,,,0.2,3024.214580848522,X,l,go,l,1,,0.290682787890546,,,,,,,,,,,,,,,91,001,23,w,Bildungswissenschaften und Psychologie,2023-02-06_09h25.06.787,00_bat_bachelor,2022.2.4,60.08564934582312,
,,,,,,,,,,,,1,0,1,0,50,0,50,0,,,,,,,50,,,0.2,3024.8150409696973,Y,d,go,d,1,,0.42700084851821885,,,,,,,,,,,,,,,91,001,23,w,Bildungswissenschaften und Psychologie,2023-02-06_09h25.06.787,00_bat_bachelor,2022.2.4,60.08564934582312,
,,,,,,,,,,,,1,0,1,0,51,0,51,0,,,,,,,51,,,0.2,3025.548899878806,X,l,go,l,1,,0.4447312727570534,,,,,,,,,,,,,,,91,001,23,w,Bildungswissenschaften und Psychologie,2023-02-06_09h25.06.787,00_bat_bachelor,2022.2.4,60.08564934582312,
,,,,,,,,,,,,1,0,1,0,52,0,52,0,,,,,,,52,,,0.2,3026.2991355151753,X,None,nogo,None,1,,,,,,,,,,,,,,,,,91,001,23,w,Bildungswissenschaften und Psychologie,2023-02-06_09h25.06.787,00_bat_bachelor,2022.2.4,60.08564934582312,
,,,,,,,,,,,,1,0,1,0,53,0,53,0,,,,,,,53,,,0.2,3027.299893333344,X,None,nogo,None,1,3028.1006962424144,,,,,,,,,,,,,,,,91,001,23,w,Bildungswissenschaften und Psychologie,2023-02-06_09h25.06.787,00_bat_bachelor,2022.2.4,60.08564934582312,
,,,,,,,,,,,,1,0,1,0,54,0,54,0,,,,,,,54,,,0.2,3028.3009391515516,Y,d,go,d,1,,0.3320990303182043,,,,,,,,,,,,,,,91,001,23,w,Bildungswissenschaften und Psychologie,2023-02-06_09h25.06.787,00_bat_bachelor,2022.2.4,60.08564934582312,
,,,,,,,,,,,,1,0,1,0,55,0,55,0,,,,,,,55,,,0.2,3028.934850424237,X,l,go,l,1,,0.41890969703672454,,,,,,,,,,,,,,,91,001,23,w,Bildungswissenschaften und Psychologie,2023-02-06_09h25.06.787,00_bat_bachelor,2022.2.4,60.08564934582312,
,,,,,,,,,,,,1,0,1,0,56,0,56,0,,,,,,,56,,,0.2,3029.668361212127,X,None,nogo,None,1,,,,,,,,,,,,,,,,,91,001,23,w,Bildungswissenschaften und Psychologie,2023-02-06_09h25.06.787,00_bat_bachelor,2022.2.4,60.08564934582312,
,,,,,,,,,,,,1,0,1,0,57,0,57,0,,,,,,,57,,,0.2,3030.6694036363624,Y,d,go,d,1,,0.267818303022068,,,,,,,,,,,,,,,91,001,23,w,Bildungswissenschaften und Psychologie,2023-02-06_09h25.06.787,00_bat_bachelor,2022.2.4,60.08564934582312,
,,,,,,,,,,,,1,0,1,0,58,0,58,0,,,,,,,58,,,0.2,3031.2532814545557,X,l,go,l,1,,0.4198202424449846,,,,,,,,,,,,,,,91,001,23,w,Bildungswissenschaften und Psychologie,2023-02-06_09h25.06.787,00_bat_bachelor,2022.2.4,60.08564934582312,
,,,,,,,,,,,,1,0,1,0,59,0,59,0,,,,,,,59,,,0.2,3031.9868087272625,Y,d,go,d,1,,0.2464573333854787,,,,,,,,,,,,,,,91,001,23,w,Bildungswissenschaften und Psychologie,2023-02-06_09h25.06.787,00_bat_bachelor,2022.2.4,60.08564934582312,
,,,,,,,,,,,,1,0,1,0,60,0,60,0,,,,,,,60,,,0.2,3032.537196121237,Y,None,nogo,None,1,,,,,,,,,,,,,,,,,91,001,23,w,Bildungswissenschaften und Psychologie,2023-02-06_09h25.06.787,00_bat_bachelor,2022.2.4,60.08564934582312,
,,,,,,,,,,,,1,0,1,0,61,0,61,0,,,,,,,61,,,0.2,3033.538236606051,X,l,go,l,1,,0.23110169696155936,,,,,,,,,,,,,,,91,001,23,w,Bildungswissenschaften und Psychologie,2023-02-06_09h25.06.787,00_bat_bachelor,2022.2.4,60.08564934582312,
,,,,,,,,,,,,1,0,1,0,62,0,62,0,,,,,,,62,,,0.2,3034.0718346666545,Y,d,go,d,1,,0.545236969657708,,,,,,,,,,,,,,,91,001,23,w,Bildungswissenschaften und Psychologie,2023-02-06_09h25.06.787,00_bat_bachelor,2022.2.4,60.08564934582312,
,,,,,,,,,,,,1,0,1,0,63,0,63,0,,,,,,,63,,,0.2,3034.9226938181673,X,l,go,l,1,,0.3348631515400484,,,,,,,,,,,,,,,91,001,23,w,Bildungswissenschaften und Psychologie,2023-02-06_09h25.06.787,00_bat_bachelor,2022.2.4,60.08564934582312,
,,,,,,,,,,,,1,0,1,0,64,0,64,0,,,,,,,64,,,0.2,3035.5731854545884,Y,d,go,d,1,,0.5797164848772809,,,,,,,,,,,,,,,91,001,23,w,Bildungswissenschaften und Psychologie,2023-02-06_09h25.06.787,00_bat_bachelor,2022.2.4,60.08564934582312,
,,,,,,,,,,,,1,0,1,0,65,0,65,0,,,,,,,65,,,0.2,3036.4572349091177,Y,None,nogo,None,1,3037.2574986667023,,,,,,,,,,,,,,,,91,001,23,w,Bildungswissenschaften und Psychologie,2023-02-06_09h25.06.787,00_bat_bachelor,2022.2.4,60.08564934582312,
,,,,,,,,,,,,1,0,1,0,66,0,66,0,,,,,,,66,,,0.2,3037.4576363636297,X,l,go,l,1,,0.10375284851761535,,,,,,,,,,,,,,,91,001,23,w,Bildungswissenschaften und Psychologie,2023-02-06_09h25.06.787,00_bat_bachelor,2022.2.4,60.08564934582312,
,,,,,,,,,,,,1,0,1,0,67,0,67,0,,,,,,,67,,,0.2,3037.874875636364,Y,d,go,d,1,,0.5028747878968716,,,,,,,,,,,,,,,91,001,23,w,Bildungswissenschaften und Psychologie,2023-02-06_09h25.06.787,00_bat_bachelor,2022.2.4,60.08564934582312,
,,,,,,,,,,,,1,0,1,0,68,0,68,0,,,,,,,68,,,0.2,3038.691868121212,X,l,go,l,1,,0.2937552727526054,,,,,,,,,,,,,,,91,001,23,w,Bildungswissenschaften und Psychologie,2023-02-06_09h25.06.787,00_bat_bachelor,2022.2.4,60.08564934582312,
,,,,,,,,,,,,1,0,1,0,69,0,69,0,,,,,,,69,,,0.2,3039.2925008484744,X,None,nogo,None,1,,,,,,,,,,,,,,,,,91,001,23,w,Bildungswissenschaften und Psychologie,2023-02-06_09h25.06.787,00_bat_bachelor,2022.2.4,60.08564934582312,
,,,,,,,,,,,,1,0,1,0,70,0,70,0,,,,,,,70,,,0.2,3040.293408000027,Y,d,go,d,1,,0.21280739398207515,,,,,,,,,,,,,,,91,001,23,w,Bildungswissenschaften und Psychologie,2023-02-06_09h25.06.787,00_bat_bachelor,2022.2.4,60.08564934582312,
,,,,,,,,,,,,1,0,1,0,71,0,71,0,,,,,,,71,,,0.2,3040.810510545445,X,l,go,l,1,,0.447283030312974,,,,,,,,,,,,,,,91,001,23,w,Bildungswissenschaften und Psychologie,2023-02-06_09h25.06.787,00_bat_bachelor,2022.2.4,60.08564934582312,
,,,,,,,,,,,,1,0,1,0,72,0,72,0,,,,,,,72,,,0.2,3041.5609192727134,Y,d,go,d,1,,0.4170226666610688,,,,,,,,,,,,,,,91,001,23,w,Bildungswissenschaften und Psychologie,2023-02-06_09h25.06.787,00_bat_bachelor,2022.2.4,60.08564934582312,
,,,,,,,,,,,,1,0,1,0,73,0,73,0,,,,,,,73,,,0.2,3042.2782560000196,X,l,go,l,1,,0.338959151529707,,,,,,,,,,,,,,,91,001,23,w,Bildungswissenschaften und Psychologie,2023-02-06_09h25.06.787,00_bat_bachelor,2022.2.4,60.08564934582312,
,,,,,,,,,,,,1,0,1,0,74,0,74,0,,,,,,,74,,,0.2,3042.9287490909337,Y,d,go,d,1,,0.44049854547483847,,,,,,,,,,,,,,,91,001,23,w,Bildungswissenschaften und Psychologie,2023-02-06_09h25.06.787,00_bat_bachelor,2022.2.4,60.08564934582312,
,,,,,,,,,,,,1,0,1,0,75,0,75,0,,,,,,,75,,,0.2,3043.679058909125,X,l,go,l,1,,0.3945193939143792,,,,,,,,,,,,,,,91,001,23,w,Bildungswissenschaften und Psychologie,2023-02-06_09h25.06.787,00_bat_bachelor,2022.2.4,60.08564934582312,
,,,,,,,,,,,,1,0,1,0,76,0,76,0,,,,,,,76,,,0.2,3044.379960727296,Y,d,go,d,1,,0.4781863030511886,,,,,,,,,,,,,,,91,001,23,w,Bildungswissenschaften und Psychologie,2023-02-06_09h25.06.787,00_bat_bachelor,2022.2.4,60.08564934582312,
,,,,,,,,,,,,1,0,1,0,77,0,77,0,,,,,,,77,,,0.2,3045.163759515155,Y,None,nogo,None,1,,,,,,,,,,,,,,,,,91,001,23,w,Bildungswissenschaften und Psychologie,2023-02-06_09h25.06.787,00_bat_bachelor,2022.2.4,60.08564934582312,
,,,,,,,,,,,,1,0,1,0,78,0,78,0,,,,,,,78,,,0.2,3046.164619151503,X,l,go,l,1,,0.1974837576271966,,,,,,,,,,,,,,,91,001,23,w,Bildungswissenschaften und Psychologie,2023-02-06_09h25.06.787,00_bat_bachelor,2022.2.4,60.08564934582312,
,,,,,,,,,,,,1,0,1,0,79,0,79,0,,,,,,,79,,,0.2,3046.6645692121238,Y,d,go,d,1,,0.3050110303447582,,,,,,,,,,,,,,,91,001,23,w,Bildungswissenschaften und Psychologie,2023-02-06_09h25.06.787,00_bat_bachelor,2022.2.4,60.08564934582312,
,,,,,,,,,,,,1,0,1,0,80,0,80,0,,,,,,,80,,,0.2,3047.2821381818503,X,l,go,l,1,,0.42427648487500846,,,,,,,,,,,,,,,91,001,23,w,Bildungswissenschaften und Psychologie,2023-02-06_09h25.06.787,00_bat_bachelor,2022.2.4,60.08564934582312,
,,,,,,,,,,,,1,0,1,0,81,0,81,0,,,,,,,81,,,0.2,3048.016054787906,Y,d,go,d,1,,0.3298134545329958,,,,,,,,,,,,,,,91,001,23,w,Bildungswissenschaften und Psychologie,2023-02-06_09h25.06.787,00_bat_bachelor,2022.2.4,60.08564934582312,
,,,,,,,,,,,,1,0,1,0,82,0,82,0,,,,,,,82,,,0.2,3048.6498152727145,X,l,go,l,1,,0.4477863030624576,,,,,,,,,,,,,,,91,001,23,w,Bildungswissenschaften und Psychologie,2023-02-06_09h25.06.787,00_bat_bachelor,2022.2.4,60.08564934582312,
,,,,,,,,,,,,1,0,1,0,83,0,83,0,,,,,,,83,,,0.2,3049.4003161212313,Y,d,go,d,1,,0.3844340606010519,,,,,,,,,,,,,,,91,001,23,w,Bildungswissenschaften und Psychologie,2023-02-06_09h25.06.787,00_bat_bachelor,2022.2.4,60.08564934582312,
,,,,,,,,,,,,1,0,1,0,84,0,84,0,,,,,,,84,,,0.2,3050.100895999989,X,l,go,l,1,,0.4207123636151664,,,,,,,,,,,,,,,91,001,23,w,Bildungswissenschaften und Psychologie,2023-02-06_09h25.06.787,00_bat_bachelor,2022.2.4,60.08564934582312,
,,,,,,,,,,,,1,0,1,0,85,0,85,0,,,,,,,85,,,0.2,3050.83452024241,X,None,nogo,None,1,3051.635356121231,,,,,,,,,,,,,,,,91,001,23,w,Bildungswissenschaften und Psychologie,2023-02-06_09h25.06.787,00_bat_bachelor,2022.2.4,60.08564934582312,
,,,,,,,,,,,,1,0,1,0,86,0,86,0,,,,,,,86,,,0.2,3051.8355776969693,Y,d,go,d,1,,0.2375254545477219,,,,,,,,,,,,,,,91,001,23,w,Bildungswissenschaften und Psychologie,2023-02-06_09h25.06.787,00_bat_bachelor,2022.2.4,60.08564934582312,
,,,,,,,,,,,,1,0,1,0,87,0,87,0,,,,,,,87,,,0.2,3052.386008242436,X,l,go,l,1,,0.4239366060355678,,,,,,,,,,,,,,,91,001,23,w,Bildungswissenschaften und Psychologie,2023-02-06_09h25.06.787,00_bat_bachelor,2022.2.4,60.08564934582312,
,,,,,,,,,,,,1,0,1,0,88,0,88,0,,,,,,,88,,,0.2,3053.119848727307,Y,d,go,d,1,,0.3130585454637185,,,,,,,,,,,,,,,91,001,23,w,Bildungswissenschaften und Psychologie,2023-02-06_09h25.06.787,00_bat_bachelor,2022.2.4,60.08564934582312,
,,,,,,,,,,,,1,0,1,0,89,0,89,0,,,,,,,89,,,0.2,3053.737044363632,Y,None,nogo,None,1,3054.5376072727377,,,,,,,,,,,,,,,,91,001,23,w,Bildungswissenschaften und Psychologie,2023-02-06_09h25.06.787,00_bat_bachelor,2022.2.4,60.08564934582312,
,,,,,,,,,,,,1,0,1,0,90,0,90,0,,,,,,,90,,,0.2,3054.737738181837,X,l,go,l,1,,0.27907696971669793,,,,,,,,,,,,,,,91,001,23,w,Bildungswissenschaften und Psychologie,2023-02-06_09h25.06.787,00_bat_bachelor,2022.2.4,60.08564934582312,
,,,,,,,,,,,,1,0,1,0,91,0,91,0,,,,,,,91,,,0.2,3055.3214370909263,Y,d,go,d,1,,0.3200030302978121,,,,,,,,,,,,,,,91,001,23,w,Bildungswissenschaften und Psychologie,2023-02-06_09h25.06.787,00_bat_bachelor,2022.2.4,60.08564934582312,
,,,,,,,,,,,,1,0,1,0,92,0,92,0,,,,,,,92,,,0.2,3055.955376484839,X,l,go,l,1,,0.40625515149440616,,,,,,,,,,,,,,,91,001,23,w,Bildungswissenschaften und Psychologie,2023-02-06_09h25.06.787,00_bat_bachelor,2022.2.4,60.08564934582312,
,,,,,,,,,,,,1,0,1,0,93,0,93,0,,,,,,,93,,,0.2,3056.6725129697006,Y,d,go,d,1,,0.34540666663087904,,,,,,,,,,,,,,,91,001,23,w,Bildungswissenschaften und Psychologie,2023-02-06_09h25.06.787,00_bat_bachelor,2022.2.4,60.08564934582312,
,,,,,,,,,,,,1,0,1,0,94,0,94,0,,,,,,,94,,,0.2,3057.323136000021,X,l,go,l,1,,0.317823636403773,,,,,,,,,,,,,,,91,001,23,w,Bildungswissenschaften und Psychologie,2023-02-06_09h25.06.787,00_bat_bachelor,2022.2.4,60.08564934582312,
,,,,,,,,,,,,1,0,1,0,95,0,95,0,,,,,,,95,,,0.2,3057.9568368485197,X,None,nogo,None,1,,,,,,,,,,,,,,,,,91,001,23,w,Bildungswissenschaften und Psychologie,2023-02-06_09h25.06.787,00_bat_bachelor,2022.2.4,60.08564934582312,
,,,,,,,,,,,,1,0,1,0,96,0,96,0,,,,,,,96,,,0.2,3058.957725575776,Y,d,go,d,1,,0.18821151519659907,,,,,,,,,,,,,,,91,001,23,w,Bildungswissenschaften und Psychologie,2023-02-06_09h25.06.787,00_bat_bachelor,2022.2.4,60.08564934582312,
,,,,,,,,,,,,1,0,1,0,97,0,97,0,,,,,,,97,,,0.2,3059.458028606081,X,l,go,l,1,,0.31090824241982773,,,,,,,,,,,,,,,91,001,23,w,Bildungswissenschaften und Psychologie,2023-02-06_09h25.06.787,00_bat_bachelor,2022.2.4,60.08564934582312,
,,,,,,,,,,,,1,0,1,0,98,0,98,0,,,,,,,98,,,0.2,3060.075205818168,Y,d,go,d,1,,0.5259249697555788,,,,,,,,,,,,,,,91,001,23,w,Bildungswissenschaften und Psychologie,2023-02-06_09h25.06.787,00_bat_bachelor,2022.2.4,60.08564934582312,
,,,,,,,,,,,,1,0,1,0,99,0,99,0,,,,,,,99,,,0.2,3060.9094681212446,X,l,go,l,1,,0.23671187879517674,,,,,,,,,,,,,,,91,001,23,w,Bildungswissenschaften und Psychologie,2023-02-06_09h25.06.787,00_bat_bachelor,2022.2.4,60.08564934582312,
,,,,,,,,,,,,1,0,1,0,100,0,100,0,,,,,,,100,,,0.2,3061.4598540606094,Y,d,go,d,1,,0.37441175762796775,,,,,,,,,,,,,,,91,001,23,w,Bildungswissenschaften und Psychologie,2023-02-06_09h25.06.787,00_bat_bachelor,2022.2.4,60.08564934582312,
,,,,,,,,,,,,1,0,1,0,101,0,101,0,,,,,,,101,,,0.2,3062.143476363679,X,l,go,l,1,,0.37790169700747356,,,,,,,,,,,,,,,91,001,23,w,Bildungswissenschaften und Psychologie,2023-02-06_09h25.06.787,00_bat_bachelor,2022.2.4,60.08564934582312,
,,,,,,,,,,,,1,0,1,0,102,0,102,0,,,,,,,102,,,0.2,3062.8441212121397,Y,d,go,d,1,,0.3655346666928381,,,,,,,,,,,,,,,91,001,23,w,Bildungswissenschaften und Psychologie,2023-02-06_09h25.06.787,00_bat_bachelor,2022.2.4,60.08564934582312,
,,,,,,,,,,,,1,0,1,0,103,0,103,0,,,,,,,103,,,0.2,3063.5111844848725,X,l,go,l,1,,0.49851793941343203,,,,,,,,,,,,,,,91,001,23,w,Bildungswissenschaften und Psychologie,2023-02-06_09h25.06.787,00_bat_bachelor,2022.2.4,60.08564934582312,
,,,,,,,,,,,,1,0,1,0,104,0,104,0,,,,,,,104,,,0.2,3064.3118923636503,X,None,nogo,None,1,3065.1127781818504,,,,,,,,,,,,,,,,91,001,23,w,Bildungswissenschaften und Psychologie,2023-02-06_09h25.06.787,00_bat_bachelor,2022.2.4,60.08564934582312,
,,,,,,,,,,,,1,0,1,0,105,0,105,0,,,,,,,105,,,0.2,3065.3126526060514,Y,d,go,d,1,,0.15187066671205685,,,,,,,,,,,,,,,91,001,23,w,Bildungswissenschaften und Psychologie,2023-02-06_09h25.06.787,00_bat_bachelor,2022.2.4,60.08564934582312,
,,,,,,,,,,,,1,0,1,0,106,0,106,0,,,,,,,106,,,0.2,3065.7966113939765,X,l,go,l,1,,0.24476278788642958,,,,,,,,,,,,,,,91,001,23,w,Bildungswissenschaften und Psychologie,2023-02-06_09h25.06.787,00_bat_bachelor,2022.2.4,60.08564934582312,
,,,,,,,,,,,,1,0,1,0,107,0,107,0,,,,,,,107,,,0.2,3066.3469376969733,Y,d,go,d,1,,0.36641999997664243,,,,,,,,,,,,,,,91,001,23,w,Bildungswissenschaften und Psychologie,2023-02-06_09h25.06.787,00_bat_bachelor,2022.2.4,60.08564934582312,
,,,,,,,,,,,,1,0,1,0,108,0,108,0,,,,,,,108,,,0.2,3067.0308809697162,Y,None,nogo,l,0,,0.17780763638438657,,,,,,,,,,,,,,,91,001,23,w,Bildungswissenschaften und Psychologie,2023-02-06_09h25.06.787,00_bat_bachelor,2022.2.4,60.08564934582312,
,,,,,,,,,,,,1,0,1,0,109,0,109,0,,,,,,,109,,,0.2,3067.531020606053,X,l,go,None,0,3068.3318259394146,,,,,,,,,,,,,,,,91,001,23,w,Bildungswissenschaften und Psychologie,2023-02-06_09h25.06.787,00_bat_bachelor,2022.2.4,60.08564934582312,
,,,,,,,,,,,,1,0,1,0,110,0,110,0,,,,,,,110,,,0.2,3068.5319631515304,Y,d,go,d,1,,0.3574105454608798,,,,,,,,,,,,,,,91,001,23,w,Bildungswissenschaften und Psychologie,2023-02-06_09h25.06.787,00_bat_bachelor,2022.2.4,60.08564934582312,
,,,,,,,,,,,,1,0,1,0,111,0,111,0,,,,,,,111,,,0.2,3069.199264969735,X,l,go,l,1,,0.3297513939323835,,,,,,,,,,,,,,,91,001,23,w,Bildungswissenschaften und Psychologie,2023-02-06_09h25.06.787,00_bat_bachelor,2022.2.4,60.08564934582312,
,,,,,,,,,,,,1,0,1,0,112,0,112,0,,,,,,,112,,,0.2,3069.849471030291,X,None,nogo,None,1,3070.650048969721,,,,,,,,,,,,,,,,91,001,23,w,Bildungswissenschaften und Psychologie,2023-02-06_09h25.06.787,00_bat_bachelor,2022.2.4,60.08564934582312,
,,,,,,,,,,,,1,0,1,0,113,0,113,0,,,,,,,113,,,0.2,3070.8501585454796,X,None,nogo,d,0,,0.24683066667057574,,,,,,,,,,,,,,,91,001,23,w,Bildungswissenschaften und Psychologie,2023-02-06_09h25.06.787,00_bat_bachelor,2022.2.4,60.08564934582312,
,,,,,,,,,,,,1,0,1,0,114,0,114,0,,,,,,,114,,,0.2,3071.4007263030508,Y,d,go,d,1,,0.5767695757676847,,,,,,,,,,,,,,,91,001,23,w,Bildungswissenschaften und Psychologie,2023-02-06_09h25.06.787,00_bat_bachelor,2022.2.4,60.08564934582312,
,,,,,,,,,,,,1,0,1,0,115,0,115,0,,,,,,,115,,,0.2,3072.284592000011,X,l,go,l,1,,0.26877151511143893,,,,,,,,,,,,,,,91,001,23,w,Bildungswissenschaften und Psychologie,2023-02-06_09h25.06.787,00_bat_bachelor,2022.2.4,60.08564934582312,
,,,,,,,,,,,,1,0,1,0,116,0,116,0,,,,,,,116,,,0.2,3072.8682327272836,Y,d,go,d,1,,0.3572961211903021,,,,,,,,,,,,,,,91,001,23,w,Bildungswissenschaften und Psychologie,2023-02-06_09h25.06.787,00_bat_bachelor,2022.2.4,60.08564934582312,
,,,,,,,,,,,,1,0,1,0,117,0,117,0,,,,,,,117,,,0.2,3073.5356193939806,X,l,go,l,1,,0.2818687272956595,,,,,,,,,,,,,,,91,001,23,w,Bildungswissenschaften und Psychologie,2023-02-06_09h25.06.787,00_bat_bachelor,2022.2.4,60.08564934582312,
,,,,,,,,,,,,1,0,1,0,118,0,118,0,,,,,,,118,,,0.2,3074.119182545459,Y,d,go,d,1,,0.37028860609279945,,,,,,,,,,,,,,,91,001,23,w,Bildungswissenschaften und Psychologie,2023-02-06_09h25.06.787,00_bat_bachelor,2022.2.4,60.08564934582312,
,,,,,,,,,,,,1,0,1,0,119,0,119,0,,,,,,,119,,,0.2,3074.8027432727395,X,l,go,l,1,,0.2620229091262445,,,,,,,,,,,,,,,91,001,23,w,Bildungswissenschaften und Psychologie,2023-02-06_09h25.06.787,00_bat_bachelor,2022.2.4,60.08564934582312,
,,,,,,,,,,,,1,0,1,0,120,0,120,0,,,,,,,120,,,0.2,3075.370155151526,Y,d,go,d,1,,0.4635254545719363,,,,,,,,,,,,,,,91,001,23,w,Bildungswissenschaften und Psychologie,2023-02-06_09h25.06.787,00_bat_bachelor,2022.2.4,60.08564934582312,
,,,,,,,,,,,,1,0,1,0,121,0,121,0,,,,,,,121,,,0.2,3076.1371044848347,X,l,go,l,1,,0.49657951516564935,,,,,,,,,,,,,,,91,001,23,w,Bildungswissenschaften und Psychologie,2023-02-06_09h25.06.787,00_bat_bachelor,2022.2.4,60.08564934582312,
,,,,,,,,,,,,1,0,1,0,122,0,122,0,,,,,,,122,,,0.2,3076.9379093333264,Y,d,go,d,1,,0.3674076363677159,,,,,,,,,,,,,,,91,001,23,w,Bildungswissenschaften und Psychologie,2023-02-06_09h25.06.787,00_bat_bachelor,2022.2.4,60.08564934582312,
,,,,,,,,,,,,1,0,1,0,123,0,123,0,,,,,,,123,,,0.2,3077.6218768485123,X,l,go,l,1,,0.2758769696811214,,,,,,,,,,,,,,,91,001,23,w,Bildungswissenschaften und Psychologie,2023-02-06_09h25.06.787,00_bat_bachelor,2022.2.4,60.08564934582312,
,,,,,,,,,,,,1,0,1,0,124,0,124,0,,,,,,,124,,,0.2,3078.20564557577,Y,d,go,d,1,,0.2359686060808599,,,,,,,,,,,,,,,91,001,23,w,Bildungswissenschaften und Psychologie,2023-02-06_09h25.06.787,00_bat_bachelor,2022.2.4,60.08564934582312,
,,,,,,,,,,,,1,0,1,0,125,0,125,0,,,,,,,125,,,0.2,3078.756139636389,X,l,go,l,1,,0.021233090898022056,,,,,,,,,,,,,,,91,001,23,w,Bildungswissenschaften und Psychologie,2023-02-06_09h25.06.787,00_bat_bachelor,2022.2.4,60.08564934582312,
,,,,,,,,,,,,1,0,1,0,126,0,126,0,,,,,,,126,,,0.2,3079.089680969715,Y,d,go,d,1,,0.47213636367814615,,,,,,,,,,,,,,,91,001,23,w,Bildungswissenschaften und Psychologie,2023-02-06_09h25.06.787,00_bat_bachelor,2022.2.4,60.08564934582312,
,,,,,,,,,,,,1,0,1,0,127,0,127,0,,,,,,,127,,,0.2,3079.8732993939775,X,l,go,l,1,,0.48808739392552525,,,,,,,,,,,,,,,91,001,23,w,Bildungswissenschaften und Psychologie,2023-02-06_09h25.06.787,00_bat_bachelor,2022.2.4,60.08564934582312,
,,,,,,,,,,,,1,0,1,0,128,0,128,0,,,,,,,128,,,0.2,3080.6742744242656,Y,d,go,d,1,,0.37556424242211506,,,,,,,,,,,,,,,91,001,23,w,Bildungswissenschaften und Psychologie,2023-02-06_09h25.06.787,00_bat_bachelor,2022.2.4,60.08564934582312,
,,,,,,,,,,,,1,0,1,0,129,0,129,0,,,,,,,129,,,0.2,3081.357984484872,X,l,go,l,1,,0.23512157576624304,,,,,,,,,,,,,,,91,001,23,w,Bildungswissenschaften und Psychologie,2023-02-06_09h25.06.787,00_bat_bachelor,2022.2.4,60.08564934582312,
,,,,,,,,,,,,1,0,1,0,130,0,130,0,,,,,,,130,,,0.2,3081.9082012121216,Y,d,go,d,1,,0.42128351517021656,,,,,,,,,,,,,,,91,001,23,w,Bildungswissenschaften und Psychologie,2023-02-06_09h25.06.787,00_bat_bachelor,2022.2.4,60.08564934582312,
,,,,,,,,,,,,1,0,1,0,131,0,131,0,,,,,,,131,,,0.2,3082.642462545482,Y,None,nogo,None,1,,,,,,,,,,,,,,,,,91,001,23,w,Bildungswissenschaften und Psychologie,2023-02-06_09h25.06.787,00_bat_bachelor,2022.2.4,60.08564934582312,
,,,,,,,,,,,,1,0,1,0,132,0,132,0,,,,,,,132,,,0.2,3083.6431718788226,X,l,go,l,1,,0.39856400003191084,,,,,,,,,,,,,,,91,001,23,w,Bildungswissenschaften und Psychologie,2023-02-06_09h25.06.787,00_bat_bachelor,2022.2.4,60.08564934582312,
,,,,,,,,,,,,1,0,1,0,133,0,133,0,,,,,,,133,,,0.2,3084.343716848525,Y,d,go,d,1,,0.497493454546202,,,,,,,,,,,,,,,91,001,23,w,Bildungswissenschaften und Psychologie,2023-02-06_09h25.06.787,00_bat_bachelor,2022.2.4,60.08564934582312,
,,,,,,,,,,,,1,0,1,0,134,0,134,0,,,,,,,134,,,0.2,3085.1439233939745,Y,None,nogo,None,1,,,,,,,,,,,,,,,,,91,001,23,w,Bildungswissenschaften und Psychologie,2023-02-06_09h25.06.787,00_bat_bachelor,2022.2.4,60.08564934582312,
,,,,,,,,,,,,1,0,1,0,135,0,135,0,,,,,,,135,,,0.2,3086.1450206060545,Y,None,nogo,None,1,,,,,,,,,,,,,,,,,91,001,23,w,Bildungswissenschaften und Psychologie,2023-02-06_09h25.06.787,00_bat_bachelor,2022.2.4,60.08564934582312,
,,,,,,,,,,,,1,0,1,0,136,0,136,0,,,,,,,136,,,0.2,3087.1457381818327,X,l,go,l,1,,0.3198435151716694,,,,,,,,,,,,,,,91,001,23,w,Bildungswissenschaften und Psychologie,2023-02-06_09h25.06.787,00_bat_bachelor,2022.2.4,60.08564934582312,
,,,,,,,,,,,,1,0,1,0,137,0,137,0,,,,,,,137,,,0.2,3087.779272242449,Y,d,go,d,1,,0.3896878787782043,,,,,,,,,,,,,,,91,001,23,w,Bildungswissenschaften und Psychologie,2023-02-06_09h25.06.787,00_bat_bachelor,2022.2.4,60.08564934582312,
,,,,,,,,,,,,1,0,1,0,138,0,138,0,,,,,,,138,,,0.2,3088.4800518787815,X,l,go,l,1,,0.2331860606209375,,,,,,,,,,,,,,,91,001,23,w,Bildungswissenschaften und Psychologie,2023-02-06_09h25.06.787,00_bat_bachelor,2022.2.4,60.08564934582312,
,,,,,,,,,,,,1,0,1,0,139,0,139,0,,,,,,,139,,,0.2,3089.0139849697007,Y,d,go,d,1,,0.2919957575504668,,,,,,,,,,,,,,,91,001,23,w,Bildungswissenschaften und Psychologie,2023-02-06_09h25.06.787,00_bat_bachelor,2022.2.4,60.08564934582312,
,,,,,,,,,,,,1,0,1,0,140,0,140,0,,,,,,,140,,,0.2,3089.61405090912,X,l,go,l,1,,0.09097709093475714,,,,,,,,,,,,,,,91,001,23,w,Bildungswissenschaften und Psychologie,2023-02-06_09h25.06.787,00_bat_bachelor,2022.2.4,60.08564934582312,
,,,,,,,,,,,,1,0,1,0,141,0,141,0,,,,,,,141,,,0.2,3090.0147277576034,X,None,nogo,l,0,,0.6192776969983242,,,,,,,,,,,,,,,91,001,23,w,Bildungswissenschaften und Psychologie,2023-02-06_09h25.06.787,00_bat_bachelor,2022.2.4,60.08564934582312,
,,,,,,,,,,,,1,0,1,0,142,0,142,0,,,,,,,142,,,0.2,3090.9487878787913,Y,d,go,d,1,,0.40524909092346206,,,,,,,,,,,,,,,91,001,23,w,Bildungswissenschaften und Psychologie,2023-02-06_09h25.06.787,00_bat_bachelor,2022.2.4,60.08564934582312,
,,,,,,,,,,,,1,0,1,0,143,0,143,0,,,,,,,143,,,0.2,3091.666010181827,X,l,go,l,1,,0.2956864242441952,,,,,,,,,,,,,,,91,001,23,w,Bildungswissenschaften und Psychologie,2023-02-06_09h25.06.787,00_bat_bachelor,2022.2.4,60.08564934582312,
,,,,,,,,,,,,1,0,1,0,144,0,144,0,,,,,,,144,,,0.2,3092.2661056969664,X,None,nogo,d,0,,0.23955842421855778,,,,,,,,,,,,,,,91,001,23,w,Bildungswissenschaften und Psychologie,2023-02-06_09h25.06.787,00_bat_bachelor,2022.2.4,60.08564934582312,
,,,,,,,,,,,,1,0,1,0,145,0,145,0,,,,,,,145,,,0.2,3092.8167781818192,Y,d,go,None,0,3093.617225696973,,,,,,,,,,,,,,,,91,001,23,w,Bildungswissenschaften und Psychologie,2023-02-06_09h25.06.787,00_bat_bachelor,2022.2.4,60.08564934582312,
,,,,,,,,,,,,1,0,1,0,146,0,146,0,,,,,,,146,,,0.2,3093.817541333323,X,l,go,l,1,,0.04759236361132935,,,,,,,,,,,,,,,91,001,23,w,Bildungswissenschaften und Psychologie,2023-02-06_09h25.06.787,00_bat_bachelor,2022.2.4,60.08564934582312,
,,,,,,,,,,,,1,0,1,0,147,0,147,0,,,,,,,147,,,0.2,3094.1678298182087,X,None,nogo,None,1,,,,,,,,,,,,,,,,,91,001,23,w,Bildungswissenschaften und Psychologie,2023-02-06_09h25.06.787,00_bat_bachelor,2022.2.4,60.08564934582312,
