loop_instruction.thisRepN,loop_instruction.thisTrialN,loop_instruction.thisN,loop_instruction.thisIndex,loop_rsi_practice.thisRepN,loop_rsi_practice.thisTrialN,loop_rsi_practice.thisN,loop_rsi_practice.thisIndex,loop_practice.thisRepN,loop_practice.thisTrialN,loop_practice.thisN,loop_practice.thisIndex,loop_exp.thisRepN,loop_exp.thisTrialN,loop_exp.thisN,loop_exp.thisIndex,loop_trials.thisRepN,loop_trials.thisTrialN,loop_trials.thisN,loop_trials.thisIndex,map_condition,map_x_key,map_y_key,key_resp_welcome.started,key_resp_welcome.keys,key_resp_welcome.rt,index,text_empty_rsi_practice.started,text_empty_rsi_practice.stopped,rsi,stimulus.started,stimulus,correct,trial_type,key_resp_trial.keys,key_resp_trial.corr,stimulus.stopped,key_resp_trial.rt,key_resp_instruction_rsi.started,key_resp_instruction_rsi.keys,key_resp_instruction_rsi.rt,key_resp_instruction_rsi.stopped,key_resp_instruction_final.started,key_resp_instruction_final.keys,key_resp_instruction_final.rt,key_resp_break.started,key_resp_break.keys,key_resp_break.rt,key_resp_break.stopped,key_resp_end_screen.started,image_end_screen.started,key_resp_end_screen.stopped,image_end_screen.stopped,key_resp_end_screen.keys,participant,session,Alter,Geschlecht (w/m/d/andere),Studiengang,date,expName,psychopyVersion,frameRate,
,,,,0,0,0,0,0,0,0,0,,,,,,,,,1,l,d,8905.803705792408,j,15.5975625757128,0,8921.441189119592,8922.456595657393,1,8922.456595657393,X,l,go,None,0,,,,,,,,,,,,,,,,,,,93,001,19,weiblich,psychologie,2023-02-07_09h17.55.805,00_bat_bachelor,2022.2.4,60.050864798040294,
,,,,0,0,0,0,1,0,1,0,,,,,,,,,,,,,,,1,8923.867791094817,8924.868507215288,1,8924.868507215288,Y,d,go,None,0,8925.669119675644,,,,,,,,,,,,,,,,,,93,001,19,weiblich,psychologie,2023-02-07_09h17.55.805,00_bat_bachelor,2022.2.4,60.050864798040294,
,,,,0,0,0,0,2,0,2,0,,,,,,,,,,,,,,,2,8926.269401566591,8927.270342172123,1,8927.270342172123,X,l,go,None,0,,,,,,,,,,,,,,,,,,,93,001,19,weiblich,psychologie,2023-02-07_09h17.55.805,00_bat_bachelor,2022.2.4,60.050864798040294,
,,,,0,0,0,0,3,0,3,0,,,,,,,,,,,,,,,3,8928.671345613897,8929.672226098366,1,8929.672226098366,Y,d,go,None,0,8930.47272849828,,,,,,,,,,,,,,,,,,93,001,19,weiblich,psychologie,2023-02-07_09h17.55.805,00_bat_bachelor,2022.2.4,60.050864798040294,
,,,,0,0,0,0,4,0,4,0,,,,,,,,,,,,,,,4,8931.073216934223,8932.074264206458,1,8932.074264206458,X,l,go,None,0,8932.87491642451,,,,,,,,,,,,,,,,,,93,001,19,weiblich,psychologie,2023-02-07_09h17.55.805,00_bat_bachelor,2022.2.4,60.050864798040294,
,,,,0,0,0,0,5,0,5,0,,,,,,,,,,,,,,,5,8933.475377224386,8934.475956133101,1,8934.475956133101,Y,d,go,d,1,,0.505892317276448,,,,,,,,,,,,,,,,,93,001,19,weiblich,psychologie,2023-02-07_09h17.55.805,00_bat_bachelor,2022.2.4,60.050864798040294,
,,,,0,0,0,0,6,0,6,0,,,,,,,,,,,,,,,6,8935.71036038315,8936.711155534256,1,8936.711155534256,Y,None,nogo,None,1,8937.511906661093,,,,,,,,,,,,,,,,,,93,001,19,weiblich,psychologie,2023-02-07_09h17.55.805,00_bat_bachelor,2022.2.4,60.050864798040294,
,,,,0,0,0,0,7,0,7,0,,,,,,,,,,,,,,,7,8938.111999945715,8939.113011339214,1,8939.113011339214,X,l,go,l,1,,0.5411645425483584,,,,,,,,,,,,,,,,,93,001,19,weiblich,psychologie,2023-02-07_09h17.55.805,00_bat_bachelor,2022.2.4,60.050864798040294,
,,,,0,0,0,0,8,0,8,0,,,,,,,,,,,,,,,8,8940.363749641925,8941.36481194431,1,8941.36481194431,Y,d,go,d,1,,0.6107824482023716,,,,,,,,,,,,,,,,,93,001,19,weiblich,psychologie,2023-02-07_09h17.55.805,00_bat_bachelor,2022.2.4,60.050864798040294,
,,,,0,0,0,0,9,0,9,0,,,,,,,,,,,,,,,9,8942.681902700104,8943.682669245172,1,8943.682669245172,Y,None,nogo,d,0,,0.4997711079195142,,,,,,,,,,,,,,,,,93,001,19,weiblich,psychologie,2023-02-07_09h17.55.805,00_bat_bachelor,2022.2.4,60.050864798040294,
,,,,0,0,0,0,10,0,10,0,,,,,,,,,,,,,,,10,8945.300723248161,8946.30131282378,1,8946.30131282378,X,l,go,l,1,,0.5689526502974331,,,,,,,,,,,,,,,,,93,001,19,weiblich,psychologie,2023-02-07_09h17.55.805,00_bat_bachelor,2022.2.4,60.050864798040294,
,,,,0,0,0,0,11,0,11,0,,,,,,,,,,,,,,,11,8947.58542468585,8948.586313897744,1,8948.586313897744,Y,d,go,d,1,,0.38084219628944993,,,,,,,,,,,,,,,,,93,001,19,weiblich,psychologie,2023-02-07_09h17.55.805,00_bat_bachelor,2022.2.4,60.050864798040294,
,,,,0,0,0,0,12,0,12,0,,,,,,,,,,,,,,,12,8949.670494705439,8950.671237977687,1,8950.671237977687,X,l,go,l,1,,0.39178716018795967,,,,,,,,,,,,,,,,,93,001,19,weiblich,psychologie,2023-02-07_09h17.55.805,00_bat_bachelor,2022.2.4,60.050864798040294,
,,,,0,0,0,0,13,0,13,0,,,,,,,,,,,,,,,13,8951.77201611083,8952.772796716541,1,8952.772796716541,Y,d,go,d,1,,0.4334482313133776,,,,,,,,,,,,,,,,,93,001,19,weiblich,psychologie,2023-02-07_09h17.55.805,00_bat_bachelor,2022.2.4,60.050864798040294,
,,,,0,0,0,0,14,0,14,0,,,,,,,,,,,,,,,14,8953.907030832954,8954.907812408637,1,8954.907812408637,X,l,go,None,0,,,,,,,,,,,,,,,,,,,93,001,19,weiblich,psychologie,2023-02-07_09h17.55.805,00_bat_bachelor,2022.2.4,60.050864798040294,
,,,,1,0,1,0,0,0,0,0,,,,,,,,,,,,,,,0,8969.469317106064,8969.66929664556,0.2,8969.66929664556,X,l,go,None,0,8970.470137469005,,8956.318881300278,j,13.130907771643251,,,,,,,,,,,,,,93,001,19,weiblich,psychologie,2023-02-07_09h17.55.805,00_bat_bachelor,2022.2.4,60.050864798040294,
,,,,1,0,1,0,1,0,1,0,,,,,,,,,,,,,,,1,8971.07054396579,8971.270534172188,0.2,8971.270534172188,Y,d,go,d,1,,0.5919136088341475,,,,,,,,,,,,,,,,,93,001,19,weiblich,psychologie,2023-02-07_09h17.55.805,00_bat_bachelor,2022.2.4,60.050864798040294,
,,,,1,0,1,0,2,0,2,0,,,,,,,,,,,,,,,2,8972.571492571384,8972.771673323121,0.2,8972.771673323121,X,l,go,l,1,,0.3703238982707262,,,,,,,,,,,,,,,,,93,001,19,weiblich,psychologie,2023-02-07_09h17.55.805,00_bat_bachelor,2022.2.4,60.050864798040294,
,,,,1,0,1,0,3,0,3,0,,,,,,,,,,,,,,,3,8973.87247909233,8974.072889661882,0.2,8974.072889661882,X,None,nogo,d,0,,0.4778365730307996,,,,,,,,,,,,,,,,,93,001,19,weiblich,psychologie,2023-02-07_09h17.55.805,00_bat_bachelor,2022.2.4,60.050864798040294,
,,,,1,0,1,0,4,0,4,0,,,,,,,,,,,,,,,4,8975.673881855328,8975.874227455352,0.2,8975.874227455352,Y,d,go,None,0,8976.674813248683,,,,,,,,,,,,,,,,,,93,001,19,weiblich,psychologie,2023-02-07_09h17.55.805,00_bat_bachelor,2022.2.4,60.050864798040294,
,,,,1,0,1,0,5,0,5,0,,,,,,,,,,,,,,,5,8977.275079624262,8977.475450436119,0.2,8977.475450436119,X,l,go,d,0,,0.27440152037888765,,,,,,,,,,,,,,,,,93,001,19,weiblich,psychologie,2023-02-07_09h17.55.805,00_bat_bachelor,2022.2.4,60.050864798040294,
,,,,1,0,1,0,6,0,6,0,,,,,,,,,,,,,,,6,8978.475777224172,8978.675907066558,0.2,8978.675907066558,X,None,nogo,d,0,,0.4982928056269884,,,,,,,,,,,,,,,,,93,001,19,weiblich,psychologie,2023-02-07_09h17.55.805,00_bat_bachelor,2022.2.4,60.050864798040294,
,,,,1,0,1,0,7,0,7,0,,,,,,,,,,,,,,,7,8980.277106290217,8980.476996617392,0.2,8980.476996617392,Y,d,go,d,1,,0.5217904914170504,,,,,,,,,,,,,,,,,93,001,19,weiblich,psychologie,2023-02-07_09h17.55.805,00_bat_bachelor,2022.2.4,60.050864798040294,
,,,,1,0,1,0,8,0,8,0,,,,,,,,,,,,,,,8,8981.71150510991,8981.911465255078,0.2,8981.911465255078,X,l,go,l,1,,0.46304433792829514,,,,,,,,,,,,,,,,,93,001,19,weiblich,psychologie,2023-02-07_09h17.55.805,00_bat_bachelor,2022.2.4,60.050864798040294,
,,,,1,0,1,0,9,0,9,0,,,,,,,,,,,,,,,9,8983.07941911323,8983.279755501077,0.2,8983.279755501077,Y,d,go,d,1,,0.3738618358038366,,,,,,,,,,,,,,,,,93,001,19,weiblich,psychologie,2023-02-07_09h17.55.805,00_bat_bachelor,2022.2.4,60.050864798040294,
,,,,1,0,1,0,10,0,10,0,,,,,,,,,,,,,,,10,8984.363912551198,8984.564070514403,0.2,8984.564070514403,X,l,go,l,1,,0.5789657365530729,,,,,,,,,,,,,,,,,93,001,19,weiblich,psychologie,2023-02-07_09h17.55.805,00_bat_bachelor,2022.2.4,60.050864798040294,
,,,,1,0,1,0,11,0,11,0,,,,,,,,,,,,,,,11,8985.848306013271,8986.048533794936,0.2,8986.048533794936,X,None,nogo,None,1,8986.848929528147,,,,,,,,,,,,,,,,,,93,001,19,weiblich,psychologie,2023-02-07_09h17.55.805,00_bat_bachelor,2022.2.4,60.050864798040294,
,,,,1,0,1,0,12,0,12,0,,,,,,,,,,,,,,,12,8987.449407782406,8987.649531806353,0.2,8987.649531806353,Y,d,go,d,1,,0.373271775431931,,,,,,,,,,,,,,,,,93,001,19,weiblich,psychologie,2023-02-07_09h17.55.805,00_bat_bachelor,2022.2.4,60.050864798040294,
,,,,1,0,1,0,13,0,13,0,,,,,,,,,,,,,,,13,8988.733475523535,8988.933461850509,0.2,8988.933461850509,X,l,go,l,1,,0.4326685951091349,,,,,,,,,,,,,,,,,93,001,19,weiblich,psychologie,2023-02-07_09h17.55.805,00_bat_bachelor,2022.2.4,60.050864798040294,
,,,,1,0,1,0,14,0,14,0,,,,,,,,,,,,,,,14,8990.067667846102,8990.268080355134,0.2,8990.268080355134,Y,d,go,d,1,,0.4590836130082607,,,,,,,,,,,,,,,,,93,001,19,weiblich,psychologie,2023-02-07_09h17.55.805,00_bat_bachelor,2022.2.4,60.050864798040294,
,,,,,,,,,,,,,,,,,,,,,,,,,,,,,,,,,,,,,,8991.494403639343,None,,8991.494403639343,8991.494403639343,j,6.594447910785675,,,,,,,,,,93,001,19,weiblich,psychologie,2023-02-07_09h17.55.805,00_bat_bachelor,2022.2.4,60.050864798040294,
,,,,,,,,,,,,0,0,0,0,0,0,0,0,,,,,,,0,,,1,8999.108418371994,X,l,go,l,1,,0.5465196911245584,,,,,,,,,,,,,,,,,93,001,19,weiblich,psychologie,2023-02-07_09h17.55.805,00_bat_bachelor,2022.2.4,60.050864798040294,
,,,,,,,,,,,,0,0,0,0,1,0,1,0,,,,,,,1,,,1,9000.759634540882,Y,d,go,d,1,,0.41439514933153987,,,,,,,,,,,,,,,,,93,001,19,weiblich,psychologie,2023-02-07_09h17.55.805,00_bat_bachelor,2022.2.4,60.050864798040294,
,,,,,,,,,,,,0,0,0,0,2,0,2,0,,,,,,,2,,,1,9002.277375380974,X,l,go,l,1,,0.4485250720754266,,,,,,,,,,,,,,,,,93,001,19,weiblich,psychologie,2023-02-07_09h17.55.805,00_bat_bachelor,2022.2.4,60.050864798040294,
,,,,,,,,,,,,0,0,0,0,3,0,3,0,,,,,,,3,,,1,9003.828691962175,X,None,nogo,None,1,9004.629253028426,,,,,,,,,,,,,,,,,,93,001,19,weiblich,psychologie,2023-02-07_09h17.55.805,00_bat_bachelor,2022.2.4,60.050864798040294,
,,,,,,,,,,,,0,0,0,0,4,0,4,0,,,,,,,4,,,1,9005.630066119134,Y,d,go,d,1,,0.40778230410069227,,,,,,,,,,,,,,,,,93,001,19,weiblich,psychologie,2023-02-07_09h17.55.805,00_bat_bachelor,2022.2.4,60.050864798040294,
,,,,,,,,,,,,0,0,0,0,5,0,5,0,,,,,,,5,,,1,9007.147863686085,X,l,go,l,1,,0.6026549367234111,,,,,,,,,,,,,,,,,93,001,19,weiblich,psychologie,2023-02-07_09h17.55.805,00_bat_bachelor,2022.2.4,60.050864798040294,
,,,,,,,,,,,,0,0,0,0,6,0,6,0,,,,,,,6,,,1,9008.865676671267,Y,d,go,d,1,,0.4526118584908545,,,,,,,,,,,,,,,,,93,001,19,weiblich,psychologie,2023-02-07_09h17.55.805,00_bat_bachelor,2022.2.4,60.050864798040294,
,,,,,,,,,,,,0,0,0,0,7,0,7,0,,,,,,,7,,,1,9010.434039547108,Y,None,nogo,None,1,9011.234984128736,,,,,,,,,,,,,,,,,,93,001,19,weiblich,psychologie,2023-02-07_09h17.55.805,00_bat_bachelor,2022.2.4,60.050864798040294,
,,,,,,,,,,,,0,0,0,0,8,0,8,0,,,,,,,8,,,1,9012.235433583148,X,l,go,l,1,,0.4578089462593198,,,,,,,,,,,,,,,,,93,001,19,weiblich,psychologie,2023-02-07_09h17.55.805,00_bat_bachelor,2022.2.4,60.050864798040294,
,,,,,,,,,,,,0,0,0,0,9,0,9,0,,,,,,,9,,,1,9013.836600806564,Y,d,go,d,1,,0.48942784033715725,,,,,,,,,,,,,,,,,93,001,19,weiblich,psychologie,2023-02-07_09h17.55.805,00_bat_bachelor,2022.2.4,60.050864798040294,
,,,,,,,,,,,,0,0,0,0,10,0,10,0,,,,,,,10,,,1,9015.454287779983,X,l,go,l,1,,0.3764494708739221,,,,,,,,,,,,,,,,,93,001,19,weiblich,psychologie,2023-02-07_09h17.55.805,00_bat_bachelor,2022.2.4,60.050864798040294,
,,,,,,,,,,,,0,0,0,0,11,0,11,0,,,,,,,11,,,1,9016.938783545047,Y,d,go,d,1,,0.47487754467874765,,,,,,,,,,,,,,,,,93,001,19,weiblich,psychologie,2023-02-07_09h17.55.805,00_bat_bachelor,2022.2.4,60.050864798040294,
,,,,,,,,,,,,0,0,0,0,12,0,12,0,,,,,,,12,,,1,9018.523456715979,X,l,go,l,1,,0.4753599683754146,,,,,,,,,,,,,,,,,93,001,19,weiblich,psychologie,2023-02-07_09h17.55.805,00_bat_bachelor,2022.2.4,60.050864798040294,
,,,,,,,,,,,,0,0,0,0,13,0,13,0,,,,,,,13,,,1,9020.107818129938,X,None,nogo,None,1,9020.908472287003,,,,,,,,,,,,,,,,,,93,001,19,weiblich,psychologie,2023-02-07_09h17.55.805,00_bat_bachelor,2022.2.4,60.050864798040294,
,,,,,,,,,,,,0,0,0,0,14,0,14,0,,,,,,,14,,,1,9021.90937362006,Y,d,go,d,1,,0.4001183076761663,,,,,,,,,,,,,,,,,93,001,19,weiblich,psychologie,2023-02-07_09h17.55.805,00_bat_bachelor,2022.2.4,60.050864798040294,
,,,,,,,,,,,,0,0,0,0,15,0,15,0,,,,,,,15,,,1,9023.42729676282,X,l,go,l,1,,0.3872960112057626,,,,,,,,,,,,,,,,,93,001,19,weiblich,psychologie,2023-02-07_09h17.55.805,00_bat_bachelor,2022.2.4,60.050864798040294,
,,,,,,,,,,,,0,0,0,0,16,0,16,0,,,,,,,16,,,1,9024.927608762402,X,None,nogo,l,0,,0.40701236529275775,,,,,,,,,,,,,,,,,93,001,19,weiblich,psychologie,2023-02-07_09h17.55.805,00_bat_bachelor,2022.2.4,60.050864798040294,
,,,,,,,,,,,,0,0,0,0,17,0,17,0,,,,,,,17,,,1,9026.44572632946,Y,d,go,d,1,,0.44209162099286914,,,,,,,,,,,,,,,,,93,001,19,weiblich,psychologie,2023-02-07_09h17.55.805,00_bat_bachelor,2022.2.4,60.050864798040294,
,,,,,,,,,,,,0,0,0,0,18,0,18,0,,,,,,,18,,,1,9027.996576971374,X,l,go,l,1,,0.6174549297429621,,,,,,,,,,,,,,,,,93,001,19,weiblich,psychologie,2023-02-07_09h17.55.805,00_bat_bachelor,2022.2.4,60.050864798040294,
,,,,,,,,,,,,0,0,0,0,19,0,19,0,,,,,,,19,,,1,9029.731464857701,X,None,nogo,None,1,,,,,,,,,,,,,,,,,,,93,001,19,weiblich,psychologie,2023-02-07_09h17.55.805,00_bat_bachelor,2022.2.4,60.050864798040294,
,,,,,,,,,,,,0,0,0,0,20,0,20,0,,,,,,,20,,,1,9031.532833196223,Y,d,go,d,1,,0.34505651658400893,,,,,,,,,,,,,,,,,93,001,19,weiblich,psychologie,2023-02-07_09h17.55.805,00_bat_bachelor,2022.2.4,60.050864798040294,
,,,,,,,,,,,,0,0,0,0,21,0,21,0,,,,,,,21,,,1,9032.983998068608,X,l,go,l,1,,0.4630327015183866,,,,,,,,,,,,,,,,,93,001,19,weiblich,psychologie,2023-02-07_09h17.55.805,00_bat_bachelor,2022.2.4,60.050864798040294,
,,,,,,,,,,,,0,0,0,0,22,0,22,0,,,,,,,22,,,1,9034.551780096255,X,None,nogo,None,1,,,,,,,,,,,,,,,,,,,93,001,19,weiblich,psychologie,2023-02-07_09h17.55.805,00_bat_bachelor,2022.2.4,60.050864798040294,
,,,,,,,,,,,,0,0,0,0,23,0,23,0,,,,,,,23,,,1,9036.353094616905,Y,d,go,d,1,,0.2778163063339889,,,,,,,,,,,,,,,,,93,001,19,weiblich,psychologie,2023-02-07_09h17.55.805,00_bat_bachelor,2022.2.4,60.050864798040294,
,,,,,,,,,,,,0,0,0,0,24,0,24,0,,,,,,,24,,,1,9037.737376127392,X,l,go,l,1,,0.44574592215940356,,,,,,,,,,,,,,,,,93,001,19,weiblich,psychologie,2023-02-07_09h17.55.805,00_bat_bachelor,2022.2.4,60.050864798040294,
,,,,,,,,,,,,0,0,0,0,25,0,25,0,,,,,,,25,,,1,9039.288712587673,Y,d,go,d,1,,0.46185015700757504,,,,,,,,,,,,,,,,,93,001,19,weiblich,psychologie,2023-02-07_09h17.55.805,00_bat_bachelor,2022.2.4,60.050864798040294,
,,,,,,,,,,,,0,0,0,0,26,0,26,0,,,,,,,26,,,1,9040.856307948474,X,l,go,l,1,,0.41398884635418653,,,,,,,,,,,,,,,,,93,001,19,weiblich,psychologie,2023-02-07_09h17.55.805,00_bat_bachelor,2022.2.4,60.050864798040294,
,,,,,,,,,,,,0,0,0,0,27,0,27,0,,,,,,,27,,,1,9042.374148182571,Y,d,go,d,1,,0.6401075245812535,,,,,,,,,,,,,,,,,93,001,19,weiblich,psychologie,2023-02-07_09h17.55.805,00_bat_bachelor,2022.2.4,60.050864798040294,
,,,,,,,,,,,,0,0,0,0,28,0,28,0,,,,,,,28,,,1,9044.126052302774,X,l,go,l,1,,0.488663234282285,,,,,,,,,,,,,,,,,93,001,19,weiblich,psychologie,2023-02-07_09h17.55.805,00_bat_bachelor,2022.2.4,60.050864798040294,
,,,,,,,,,,,,0,0,0,0,29,0,29,0,,,,,,,29,,,1,9045.72742801113,Y,d,go,d,1,,0.503084076102823,,,,,,,,,,,,,,,,,93,001,19,weiblich,psychologie,2023-02-07_09h17.55.805,00_bat_bachelor,2022.2.4,60.050864798040294,
,,,,,,,,,,,,0,0,0,0,30,0,30,0,,,,,,,30,,,1,9047.344829408918,X,l,go,l,1,,0.469231971539557,,,,,,,,,,,,,,,,,93,001,19,weiblich,psychologie,2023-02-07_09h17.55.805,00_bat_bachelor,2022.2.4,60.050864798040294,
,,,,,,,,,,,,0,0,0,0,31,0,31,0,,,,,,,31,,,1,9048.929190822411,X,None,nogo,None,1,,,,,,,,,,,,,,,,,,,93,001,19,weiblich,psychologie,2023-02-07_09h17.55.805,00_bat_bachelor,2022.2.4,60.050864798040294,
,,,,,,,,,,,,0,0,0,0,32,0,32,0,,,,,,,32,,,1,9050.730795767158,Y,d,go,d,1,,0.3800063175149262,,,,,,,,,,,,,,,,,93,001,19,weiblich,psychologie,2023-02-07_09h17.55.805,00_bat_bachelor,2022.2.4,60.050864798040294,
,,,,,,,,,,,,0,0,0,0,33,0,33,0,,,,,,,33,,,1,9052.215008380823,X,l,go,l,1,,0.36725917225703597,,,,,,,,,,,,,,,,,93,001,19,weiblich,psychologie,2023-02-07_09h17.55.805,00_bat_bachelor,2022.2.4,60.050864798040294,
,,,,,,,,,,,,0,0,0,0,34,0,34,0,,,,,,,34,,,1,9053.683016396128,X,None,nogo,None,1,,,,,,,,,,,,,,,,,,,93,001,19,weiblich,psychologie,2023-02-07_09h17.55.805,00_bat_bachelor,2022.2.4,60.050864798040294,
,,,,,,,,,,,,0,0,0,0,35,0,35,0,,,,,,,35,,,1,9055.484409462195,Y,d,go,d,1,,0.5057420139200985,,,,,,,,,,,,,,,,,93,001,19,weiblich,psychologie,2023-02-07_09h17.55.805,00_bat_bachelor,2022.2.4,60.050864798040294,
,,,,,,,,,,,,0,0,0,0,36,0,36,0,,,,,,,36,,,1,9057.10225982964,X,l,go,l,1,,0.4412421667948365,,,,,,,,,,,,,,,,,93,001,19,weiblich,psychologie,2023-02-07_09h17.55.805,00_bat_bachelor,2022.2.4,60.050864798040294,
,,,,,,,,,,,,0,0,0,0,37,0,37,0,,,,,,,37,,,1,9058.653580774087,Y,d,go,d,1,,0.3930089781060815,,,,,,,,,,,,,,,,,93,001,19,weiblich,psychologie,2023-02-07_09h17.55.805,00_bat_bachelor,2022.2.4,60.050864798040294,
,,,,,,,,,,,,0,0,0,0,38,0,38,0,,,,,,,38,,,1,9060.154626349453,X,l,go,l,1,,0.5245308536104858,,,,,,,,,,,,,,,,,93,001,19,weiblich,psychologie,2023-02-07_09h17.55.805,00_bat_bachelor,2022.2.4,60.050864798040294,
,,,,,,,,,,,,0,0,0,0,39,0,39,0,,,,,,,39,,,1,9061.78915840527,X,None,nogo,None,1,,,,,,,,,,,,,,,,,,,93,001,19,weiblich,psychologie,2023-02-07_09h17.55.805,00_bat_bachelor,2022.2.4,60.050864798040294,
,,,,,,,,,,,,0,0,0,0,40,0,40,0,,,,,,,40,,,1,9063.590458380524,Y,d,go,d,1,,0.2565872259438038,,,,,,,,,,,,,,,,,93,001,19,weiblich,psychologie,2023-02-07_09h17.55.805,00_bat_bachelor,2022.2.4,60.050864798040294,
,,,,,,,,,,,,0,0,0,0,41,0,41,0,,,,,,,41,,,1,9064.95823323261,X,l,go,l,1,,0.43998301587998867,,,,,,,,,,,,,,,,,93,001,19,weiblich,psychologie,2023-02-07_09h17.55.805,00_bat_bachelor,2022.2.4,60.050864798040294,
,,,,,,,,,,,,0,0,0,0,42,0,42,0,,,,,,,42,,,1,9066.509604116902,X,None,nogo,None,1,,,,,,,,,,,,,,,,,,,93,001,19,weiblich,psychologie,2023-02-07_09h17.55.805,00_bat_bachelor,2022.2.4,60.050864798040294,
,,,,,,,,,,,,0,0,0,0,43,0,43,0,,,,,,,43,,,1,9068.310591849498,Y,d,go,d,1,,0.32024780102074146,,,,,,,,,,,,,,,,,93,001,19,weiblich,psychologie,2023-02-07_09h17.55.805,00_bat_bachelor,2022.2.4,60.050864798040294,
,,,,,,,,,,,,0,0,0,0,44,0,44,0,,,,,,,44,,,1,9069.745276729576,X,l,go,l,1,,0.45311028230935335,,,,,,,,,,,,,,,,,93,001,19,weiblich,psychologie,2023-02-07_09h17.55.805,00_bat_bachelor,2022.2.4,60.050864798040294,
,,,,,,,,,,,,0,0,0,0,45,0,45,0,,,,,,,45,,,1,9071.31285657594,X,None,nogo,None,1,9072.113657157402,,,,,,,,,,,,,,,,,,93,001,19,weiblich,psychologie,2023-02-07_09h17.55.805,00_bat_bachelor,2022.2.4,60.050864798040294,
,,,,,,,,,,,,0,0,0,0,46,0,46,0,,,,,,,46,,,1,9073.114254975226,Y,d,go,d,1,,0.29966502357274294,,,,,,,,,,,,,,,,,93,001,19,weiblich,psychologie,2023-02-07_09h17.55.805,00_bat_bachelor,2022.2.4,60.050864798040294,
,,,,,,,,,,,,0,0,0,0,47,0,47,0,,,,,,,47,,,1,9074.515644356143,X,l,go,l,1,,0.45055658649653196,,,,,,,,,,,,,,,,,93,001,19,weiblich,psychologie,2023-02-07_09h17.55.805,00_bat_bachelor,2022.2.4,60.050864798040294,
,,,,,,,,,,,,0,0,0,0,48,0,48,0,,,,,,,48,,,1,9076.083168929443,Y,d,go,d,1,,0.5156789789907634,,,,,,,,,,,,,,,,,93,001,19,weiblich,psychologie,2023-02-07_09h17.55.805,00_bat_bachelor,2022.2.4,60.050864798040294,
,,,,,,,,,,,,0,0,0,0,49,0,49,0,,,,,,,49,,,1,9077.70144547848,X,l,go,l,1,,0.4656998519785702,,,,,,,,,,,,,,,,,93,001,19,weiblich,psychologie,2023-02-07_09h17.55.805,00_bat_bachelor,2022.2.4,60.050864798040294,
,,,,,,,,,,,,0,0,0,0,50,0,50,0,,,,,,,50,,,1,9079.269135869574,Y,d,go,d,1,,0.4487151326611638,,,,,,,,,,,,,,,,,93,001,19,weiblich,psychologie,2023-02-07_09h17.55.805,00_bat_bachelor,2022.2.4,60.050864798040294,
,,,,,,,,,,,,0,0,0,0,51,0,51,0,,,,,,,51,,,1,9080.820333662909,X,l,go,l,1,,0.417772117536515,,,,,,,,,,,,,,,,,93,001,19,weiblich,psychologie,2023-02-07_09h17.55.805,00_bat_bachelor,2022.2.4,60.050864798040294,
,,,,,,,,,,,,0,0,0,0,52,0,52,0,,,,,,,52,,,1,9082.35485461587,Y,d,go,d,1,,0.5640207738615572,,,,,,,,,,,,,,,,,93,001,19,weiblich,psychologie,2023-02-07_09h17.55.805,00_bat_bachelor,2022.2.4,60.050864798040294,
,,,,,,,,,,,,0,0,0,0,53,0,53,0,,,,,,,53,,,1,9084.022818898316,X,l,go,l,1,,0.639838919043541,,,,,,,,,,,,,,,,,93,001,19,weiblich,psychologie,2023-02-07_09h17.55.805,00_bat_bachelor,2022.2.4,60.050864798040294,
,,,,,,,,,,,,0,0,0,0,54,0,54,0,,,,,,,54,,,1,9085.77386580687,Y,d,go,d,1,,0.3769978345371783,,,,,,,,,,,,,,,,,93,001,19,weiblich,psychologie,2023-02-07_09h17.55.805,00_bat_bachelor,2022.2.4,60.050864798040294,
,,,,,,,,,,,,0,0,0,0,55,0,55,0,,,,,,,55,,,1,9087.258599147666,X,l,go,l,1,,0.47658130107447505,,,,,,,,,,,,,,,,,93,001,19,weiblich,psychologie,2023-02-07_09h17.55.805,00_bat_bachelor,2022.2.4,60.050864798040294,
,,,,,,,,,,,,0,0,0,0,56,0,56,0,,,,,,,56,,,1,9088.842884439975,Y,d,go,d,1,,0.4438724685460329,,,,,,,,,,,,,,,,,93,001,19,weiblich,psychologie,2023-02-07_09h17.55.805,00_bat_bachelor,2022.2.4,60.050864798040294,
,,,,,,,,,,,,0,0,0,0,57,0,57,0,,,,,,,57,,,1,9090.394296536222,X,l,go,l,1,,0.41255175648257136,,,,,,,,,,,,,,,,,93,001,19,weiblich,psychologie,2023-02-07_09h17.55.805,00_bat_bachelor,2022.2.4,60.050864798040294,
,,,,,,,,,,,,0,0,0,0,58,0,58,0,,,,,,,58,,,1,9091.911915194243,Y,d,go,d,1,,0.5102176484651864,,,,,,,,,,,,,,,,,93,001,19,weiblich,psychologie,2023-02-07_09h17.55.805,00_bat_bachelor,2022.2.4,60.050864798040294,
,,,,,,,,,,,,0,0,0,0,59,0,59,0,,,,,,,59,,,1,9093.53061356116,X,l,go,l,1,,0.4424693174660206,,,,,,,,,,,,,,,,,93,001,19,weiblich,psychologie,2023-02-07_09h17.55.805,00_bat_bachelor,2022.2.4,60.050864798040294,
,,,,,,,,,,,,0,0,0,0,60,0,60,0,,,,,,,60,,,1,9095.098429528065,Y,d,go,d,1,,0.4269502949900925,,,,,,,,,,,,,,,,,93,001,19,weiblich,psychologie,2023-02-07_09h17.55.805,00_bat_bachelor,2022.2.4,60.050864798040294,
,,,,,,,,,,,,0,0,0,0,61,0,61,0,,,,,,,61,,,1,9096.649724775925,Y,None,nogo,None,1,9097.450300872792,,,,,,,,,,,,,,,,,,93,001,19,weiblich,psychologie,2023-02-07_09h17.55.805,00_bat_bachelor,2022.2.4,60.050864798040294,
,,,,,,,,,,,,0,0,0,0,62,0,62,0,,,,,,,62,,,1,9098.451213842258,X,l,go,l,1,,0.40260994294658303,,,,,,,,,,,,,,,,,93,001,19,weiblich,psychologie,2023-02-07_09h17.55.805,00_bat_bachelor,2022.2.4,60.050864798040294,
,,,,,,,,,,,,0,0,0,0,63,0,63,0,,,,,,,63,,,1,9099.985804613214,Y,d,go,d,1,,0.41964896488934755,,,,,,,,,,,,,,,,,93,001,19,weiblich,psychologie,2023-02-07_09h17.55.805,00_bat_bachelor,2022.2.4,60.050864798040294,
,,,,,,,,,,,,0,0,0,0,64,0,64,0,,,,,,,64,,,1,9101.536930164322,X,l,go,l,1,,0.4371485929004848,,,,,,,,,,,,,,,,,93,001,19,weiblich,psychologie,2023-02-07_09h17.55.805,00_bat_bachelor,2022.2.4,60.050864798040294,
,,,,,,,,,,,,0,0,0,0,65,0,65,0,,,,,,,65,,,1,9103.104721404146,X,None,nogo,None,1,9103.905409500469,,,,,,,,,,,,,,,,,,93,001,19,weiblich,psychologie,2023-02-07_09h17.55.805,00_bat_bachelor,2022.2.4,60.050864798040294,
,,,,,,,,,,,,0,0,0,0,66,0,66,0,,,,,,,66,,,1,9104.906212409493,X,None,nogo,l,0,,0.6674582995474339,,,,,,,,,,,,,,,,,93,001,19,weiblich,psychologie,2023-02-07_09h17.55.805,00_bat_bachelor,2022.2.4,60.050864798040294,
,,,,,,,,,,,,0,0,0,0,67,0,67,0,,,,,,,67,,,1,9106.690624149982,Y,d,go,d,1,,0.30706138303503394,,,,,,,,,,,,,,,,,93,001,19,weiblich,psychologie,2023-02-07_09h17.55.805,00_bat_bachelor,2022.2.4,60.050864798040294,
,,,,,,,,,,,,0,0,0,0,68,0,68,0,,,,,,,68,,,1,9108.1416954468,X,l,go,l,1,,0.5036823791451752,,,,,,,,,,,,,,,,,93,001,19,weiblich,psychologie,2023-02-07_09h17.55.805,00_bat_bachelor,2022.2.4,60.050864798040294,
,,,,,,,,,,,,0,0,0,0,69,0,69,0,,,,,,,69,,,1,9109.776197441854,X,None,nogo,None,1,9110.57662129635,,,,,,,,,,,,,,,,,,93,001,19,weiblich,psychologie,2023-02-07_09h17.55.805,00_bat_bachelor,2022.2.4,60.050864798040294,
,,,,,,,,,,,,0,0,0,0,70,0,70,0,,,,,,,70,,,1,9111.577588083688,X,None,nogo,d,0,,0.2036020397208631,,,,,,,,,,,,,,,,,93,001,19,weiblich,psychologie,2023-02-07_09h17.55.805,00_bat_bachelor,2022.2.4,60.050864798040294,
,,,,,,,,,,,,0,0,0,0,71,0,71,0,,,,,,,71,,,1,9112.911927315407,Y,d,go,d,1,,0.4858666299842298,,,,,,,,,,,,,,,,,93,001,19,weiblich,psychologie,2023-02-07_09h17.55.805,00_bat_bachelor,2022.2.4,60.050864798040294,
,,,,,,,,,,,,0,0,0,0,72,0,72,0,,,,,,,72,,,1,9114.529630288947,X,l,go,l,1,,0.46831269888207316,,,,,,,,,,,,,,,,,93,001,19,weiblich,psychologie,2023-02-07_09h17.55.805,00_bat_bachelor,2022.2.4,60.050864798040294,
,,,,,,,,,,,,0,0,0,0,73,0,73,0,,,,,,,73,,,1,9116.114446005318,Y,d,go,d,1,,0.38707879930734634,,,,,,,,,,,,,,,,,93,001,19,weiblich,psychologie,2023-02-07_09h17.55.805,00_bat_bachelor,2022.2.4,60.050864798040294,
,,,,,,,,,,,,0,0,0,0,74,0,74,0,,,,,,,74,,,1,9117.648947079666,X,l,go,l,1,,0.48400917649269104,,,,,,,,,,,,,,,,,93,001,19,weiblich,psychologie,2023-02-07_09h17.55.805,00_bat_bachelor,2022.2.4,60.050864798040294,
,,,,,,,,,,,,0,0,0,0,75,0,75,0,,,,,,,75,,,1,9119.250373212155,Y,d,go,d,1,,0.4037153967656195,,,,,,,,,,,,,,,,,93,001,19,weiblich,psychologie,2023-02-07_09h17.55.805,00_bat_bachelor,2022.2.4,60.050864798040294,
,,,,,,,,,,,,0,0,0,0,76,0,76,0,,,,,,,76,,,1,9120.78469634708,X,l,go,l,1,,0.5481929029338062,,,,,,,,,,,,,,,,,93,001,19,weiblich,psychologie,2023-02-07_09h17.55.805,00_bat_bachelor,2022.2.4,60.050864798040294,
,,,,,,,,,,,,0,0,0,0,77,0,77,0,,,,,,,77,,,1,9122.452914689668,X,None,nogo,None,1,9123.253474301659,,,,,,,,,,,,,,,,,,93,001,19,weiblich,psychologie,2023-02-07_09h17.55.805,00_bat_bachelor,2022.2.4,60.050864798040294,
,,,,,,,,,,,,0,0,0,0,78,0,78,0,,,,,,,78,,,1,9124.253898543771,Y,d,go,d,1,,0.4078007284551859,,,,,,,,,,,,,,,,,93,001,19,weiblich,psychologie,2023-02-07_09h17.55.805,00_bat_bachelor,2022.2.4,60.050864798040294,
,,,,,,,,,,,,0,0,0,0,79,0,79,0,,,,,,,79,,,1,9125.771518656518,X,l,go,l,1,,0.395221340470016,,,,,,,,,,,,,,,,,93,001,19,weiblich,psychologie,2023-02-07_09h17.55.805,00_bat_bachelor,2022.2.4,60.050864798040294,
,,,,,,,,,,,,0,0,0,0,80,0,80,0,,,,,,,80,,,1,9127.272866777144,Y,d,go,d,1,,0.46207221737131476,,,,,,,,,,,,,,,,,93,001,19,weiblich,psychologie,2023-02-07_09h17.55.805,00_bat_bachelor,2022.2.4,60.050864798040294,
,,,,,,,,,,,,0,0,0,0,81,0,81,0,,,,,,,81,,,1,9128.840647834819,X,l,go,l,1,,0.3502351804636419,,,,,,,,,,,,,,,,,93,001,19,weiblich,psychologie,2023-02-07_09h17.55.805,00_bat_bachelor,2022.2.4,60.050864798040294,
,,,,,,,,,,,,0,0,0,0,82,0,82,0,,,,,,,82,,,1,9130.291556707118,X,None,nogo,None,1,,,,,,,,,,,,,,,,,,,93,001,19,weiblich,psychologie,2023-02-07_09h17.55.805,00_bat_bachelor,2022.2.4,60.050864798040294,
,,,,,,,,,,,,0,0,0,0,83,0,83,0,,,,,,,83,,,1,9132.092971106526,Y,d,go,d,1,,0.48922032536938787,,,,,,,,,,,,,,,,,93,001,19,weiblich,psychologie,2023-02-07_09h17.55.805,00_bat_bachelor,2022.2.4,60.050864798040294,
,,,,,,,,,,,,0,0,0,0,84,0,84,0,,,,,,,84,,,1,9133.694323542528,X,l,go,l,1,,0.5036736517213285,,,,,,,,,,,,,,,,,93,001,19,weiblich,psychologie,2023-02-07_09h17.55.805,00_bat_bachelor,2022.2.4,60.050864798040294,
,,,,,,,,,,,,0,0,0,0,85,0,85,0,,,,,,,85,,,1,9135.312407606281,Y,d,go,d,1,,0.5016591073945165,,,,,,,,,,,,,,,,,93,001,19,weiblich,psychologie,2023-02-07_09h17.55.805,00_bat_bachelor,2022.2.4,60.050864798040294,
,,,,,,,,,,,,0,0,0,0,86,0,86,0,,,,,,,86,,,1,9136.930172155146,Y,None,nogo,l,0,,0.4525255551561713,,,,,,,,,,,,,,,,,93,001,19,weiblich,psychologie,2023-02-07_09h17.55.805,00_bat_bachelor,2022.2.4,60.050864798040294,
,,,,,,,,,,,,0,0,0,0,87,0,87,0,,,,,,,87,,,1,9138.497775759082,X,l,go,l,1,,0.6132222046144307,,,,,,,,,,,,,,,,,93,001,19,weiblich,psychologie,2023-02-07_09h17.55.805,00_bat_bachelor,2022.2.4,60.050864798040294,
,,,,,,,,,,,,0,0,0,0,88,0,88,0,,,,,,,88,,,1,9140.215376865584,Y,d,go,d,1,,0.47976578399538994,,,,,,,,,,,,,,,,,93,001,19,weiblich,psychologie,2023-02-07_09h17.55.805,00_bat_bachelor,2022.2.4,60.050864798040294,
,,,,,,,,,,,,0,0,0,0,89,0,89,0,,,,,,,89,,,1,9141.800294884946,Y,None,nogo,None,1,9142.600674133282,,,,,,,,,,,,,,,,,,93,001,19,weiblich,psychologie,2023-02-07_09h17.55.805,00_bat_bachelor,2022.2.4,60.050864798040294,
,,,,,,,,,,,,0,0,0,0,90,0,90,0,,,,,,,90,,,1,9143.601490132976,X,l,go,l,1,,0.356550813652575,,,,,,,,,,,,,,,,,93,001,19,weiblich,psychologie,2023-02-07_09h17.55.805,00_bat_bachelor,2022.2.4,60.050864798040294,
,,,,,,,,,,,,0,0,0,0,91,0,91,0,,,,,,,91,,,1,9145.069424451329,Y,d,go,d,1,,0.5688450136221945,,,,,,,,,,,,,,,,,93,001,19,weiblich,psychologie,2023-02-07_09h17.55.805,00_bat_bachelor,2022.2.4,60.050864798040294,
,,,,,,,,,,,,0,0,0,0,92,0,92,0,,,,,,,92,,,1,9146.754096604418,Y,None,nogo,None,1,9147.554706640542,,,,,,,,,,,,,,,,,,93,001,19,weiblich,psychologie,2023-02-07_09h17.55.805,00_bat_bachelor,2022.2.4,60.050864798040294,
,,,,,,,,,,,,0,0,0,0,93,0,93,0,,,,,,,93,,,1,9148.555187124759,X,l,go,l,1,,0.2991787204518914,,,,,,,,,,,,,,,,,93,001,19,weiblich,psychologie,2023-02-07_09h17.55.805,00_bat_bachelor,2022.2.4,60.050864798040294,
,,,,,,,,,,,,0,0,0,0,94,0,94,0,,,,,,,94,,,1,9149.9560921425,Y,d,go,d,1,,0.45029282942414284,,,,,,,,,,,,,,,,,93,001,19,weiblich,psychologie,2023-02-07_09h17.55.805,00_bat_bachelor,2022.2.4,60.050864798040294,
,,,,,,,,,,,,0,0,0,0,95,0,95,0,,,,,,,95,,,1,9151.507477087434,Y,None,nogo,None,1,,,,,,,,,,,,,,,,,,,93,001,19,weiblich,psychologie,2023-02-07_09h17.55.805,00_bat_bachelor,2022.2.4,60.050864798040294,
,,,,,,,,,,,,0,0,0,0,96,0,96,0,,,,,,,96,,,1,9153.308918638155,X,l,go,l,1,,0.297402236610651,,,,,,,,,,,,,,,,,93,001,19,weiblich,psychologie,2023-02-07_09h17.55.805,00_bat_bachelor,2022.2.4,60.050864798040294,
,,,,,,,,,,,,0,0,0,0,97,0,97,0,,,,,,,97,,,1,9154.709929353092,Y,d,go,d,1,,0.41711805760860443,,,,,,,,,,,,,,,,,93,001,19,weiblich,psychologie,2023-02-07_09h17.55.805,00_bat_bachelor,2022.2.4,60.050864798040294,
,,,,,,,,,,,,0,0,0,0,98,0,98,0,,,,,,,98,,,1,9156.227769586723,X,l,go,l,1,,0.3708208673633635,,,,,,,,,,,,,,,,,93,001,19,weiblich,psychologie,2023-02-07_09h17.55.805,00_bat_bachelor,2022.2.4,60.050864798040294,
,,,,,,,,,,,,0,0,0,0,99,0,99,0,,,,,,,99,,,1,9157.712016139645,X,None,nogo,l,0,,0.40550642646849155,,,,,,,,,,,,,,,,,93,001,19,weiblich,psychologie,2023-02-07_09h17.55.805,00_bat_bachelor,2022.2.4,60.050864798040294,
,,,,,,,,,,,,0,0,0,0,100,0,100,0,,,,,,,100,,,1,9159.2300522523,Y,d,go,d,1,,0.4403068944811821,,,,,,,,,,,,,,,,,93,001,19,weiblich,psychologie,2023-02-07_09h17.55.805,00_bat_bachelor,2022.2.4,60.050864798040294,
,,,,,,,,,,,,0,0,0,0,101,0,101,0,,,,,,,101,,,1,9160.781227742787,X,l,go,l,1,,0.4730996056459844,,,,,,,,,,,,,,,,,93,001,19,weiblich,psychologie,2023-02-07_09h17.55.805,00_bat_bachelor,2022.2.4,60.050864798040294,
,,,,,,,,,,,,0,0,0,0,102,0,102,0,,,,,,,102,,,1,9162.36555473227,Y,d,go,d,1,,0.3926172209903598,,,,,,,,,,,,,,,,,93,001,19,weiblich,psychologie,2023-02-07_09h17.55.805,00_bat_bachelor,2022.2.4,60.050864798040294,
,,,,,,,,,,,,0,0,0,0,103,0,103,0,,,,,,,103,,,1,9163.866960549727,X,l,go,l,1,,0.4281226578168571,,,,,,,,,,,,,,,,,93,001,19,weiblich,psychologie,2023-02-07_09h17.55.805,00_bat_bachelor,2022.2.4,60.050864798040294,
,,,,,,,,,,,,0,0,0,0,104,0,104,0,,,,,,,104,,,1,9165.40119980555,Y,d,go,d,1,,0.49382832320407033,,,,,,,,,,,,,,,,,93,001,19,weiblich,psychologie,2023-02-07_09h17.55.805,00_bat_bachelor,2022.2.4,60.050864798040294,
,,,,,,,,,,,,0,0,0,0,105,0,105,0,,,,,,,105,,,1,9167.002706908155,Y,None,nogo,None,1,,,,,,,,,,,,,,,,,,,93,001,19,weiblich,psychologie,2023-02-07_09h17.55.805,00_bat_bachelor,2022.2.4,60.050864798040294,
,,,,,,,,,,,,0,0,0,0,106,0,106,0,,,,,,,106,,,1,9168.804049064871,Y,None,nogo,l,0,,0.2595069818198681,,,,,,,,,,,,,,,,,93,001,19,weiblich,psychologie,2023-02-07_09h17.55.805,00_bat_bachelor,2022.2.4,60.050864798040294,
,,,,,,,,,,,,0,0,0,0,107,0,107,0,,,,,,,107,,,1,9170.171773492824,X,l,go,l,1,,0.5381192108616233,,,,,,,,,,,,,,,,,93,001,19,weiblich,psychologie,2023-02-07_09h17.55.805,00_bat_bachelor,2022.2.4,60.050864798040294,
,,,,,,,,,,,,0,0,0,0,108,0,108,0,,,,,,,108,,,1,9171.823036692105,Y,d,go,d,1,,0.45493137231096625,,,,,,,,,,,,,,,,,93,001,19,weiblich,psychologie,2023-02-07_09h17.55.805,00_bat_bachelor,2022.2.4,60.050864798040294,
,,,,,,,,,,,,0,0,0,0,109,0,109,0,,,,,,,109,,,1,9173.39094332559,X,l,go,l,1,,0.5033589848317206,,,,,,,,,,,,,,,,,93,001,19,weiblich,psychologie,2023-02-07_09h17.55.805,00_bat_bachelor,2022.2.4,60.050864798040294,
,,,,,,,,,,,,0,0,0,0,110,0,110,0,,,,,,,110,,,1,9175.008716117125,Y,d,go,d,1,,0.6624944228678942,,,,,,,,,,,,,,,,,93,001,19,weiblich,psychologie,2023-02-07_09h17.55.805,00_bat_bachelor,2022.2.4,60.050864798040294,
,,,,,,,,,,,,0,0,0,0,111,0,111,0,,,,,,,111,,,1,9176.77688689623,Y,None,nogo,None,1,,,,,,,,,,,,,,,,,,,93,001,19,weiblich,psychologie,2023-02-07_09h17.55.805,00_bat_bachelor,2022.2.4,60.050864798040294,
,,,,,,,,,,,,0,0,0,0,112,0,112,0,,,,,,,112,,,1,9178.578124810942,X,l,go,l,1,,0.4199980557896197,,,,,,,,,,,,,,,,,93,001,19,weiblich,psychologie,2023-02-07_09h17.55.805,00_bat_bachelor,2022.2.4,60.050864798040294,
,,,,,,,,,,,,0,0,0,0,113,0,113,0,,,,,,,113,,,1,9180.112443097401,Y,d,go,d,1,,0.47068748576566577,,,,,,,,,,,,,,,,,93,001,19,weiblich,psychologie,2023-02-07_09h17.55.805,00_bat_bachelor,2022.2.4,60.050864798040294,
,,,,,,,,,,,,0,0,0,0,114,0,114,0,,,,,,,114,,,1,9181.697221965063,X,l,go,l,1,,0.5325987283140421,,,,,,,,,,,,,,,,,93,001,19,weiblich,psychologie,2023-02-07_09h17.55.805,00_bat_bachelor,2022.2.4,60.050864798040294,
,,,,,,,,,,,,0,0,0,0,115,0,115,0,,,,,,,115,,,1,9183.331832566764,X,None,nogo,l,0,,0.6428556446917355,,,,,,,,,,,,,,,,,93,001,19,weiblich,psychologie,2023-02-07_09h17.55.805,00_bat_bachelor,2022.2.4,60.050864798040294,
,,,,,,,,,,,,0,0,0,0,116,0,116,0,,,,,,,116,,,1,9185.083119960036,Y,d,go,d,1,,0.4437129534780979,,,,,,,,,,,,,,,,,93,001,19,weiblich,psychologie,2023-02-07_09h17.55.805,00_bat_bachelor,2022.2.4,60.050864798040294,
,,,,,,,,,,,,0,0,0,0,117,0,117,0,,,,,,,117,,,1,9186.63407484442,X,l,go,l,1,,0.460224945563823,,,,,,,,,,,,,,,,,93,001,19,weiblich,psychologie,2023-02-07_09h17.55.805,00_bat_bachelor,2022.2.4,60.050864798040294,
,,,,,,,,,,,,0,0,0,0,118,0,118,0,,,,,,,118,,,1,9188.20234075049,Y,d,go,d,1,,0.5089982552453876,,,,,,,,,,,,,,,,,93,001,19,weiblich,psychologie,2023-02-07_09h17.55.805,00_bat_bachelor,2022.2.4,60.050864798040294,
,,,,,,,,,,,,0,0,0,0,119,0,119,0,,,,,,,119,,,1,9189.819860936143,X,l,go,None,0,,,,,,,,,,,,,,,,,,,93,001,19,weiblich,psychologie,2023-02-07_09h17.55.805,00_bat_bachelor,2022.2.4,60.050864798040294,
,,,,,,,,,,,,0,0,0,0,120,0,120,0,,,,,,,120,,,1,9191.62202830473,X,None,nogo,l,0,,0.46391657972708344,,,,,,,,,,,,,,,,,93,001,19,weiblich,psychologie,2023-02-07_09h17.55.805,00_bat_bachelor,2022.2.4,60.050864798040294,
,,,,,,,,,,,,0,0,0,0,121,0,121,0,,,,,,,121,,,1,9193.206517233513,Y,d,go,d,1,,0.3833178314380348,,,,,,,,,,,,,,,,,93,001,19,weiblich,psychologie,2023-02-07_09h17.55.805,00_bat_bachelor,2022.2.4,60.050864798040294,
,,,,,,,,,,,,0,0,0,0,122,0,122,0,,,,,,,122,,,1,9194.707664141897,X,l,go,l,1,,0.5451902374625206,,,,,,,,,,,,,,,,,93,001,19,weiblich,psychologie,2023-02-07_09h17.55.805,00_bat_bachelor,2022.2.4,60.050864798040294,
,,,,,,,,,,,,0,0,0,0,123,0,123,0,,,,,,,123,,,1,9196.375628909096,Y,d,go,d,1,,0.2381974165327847,,,,,,,,,,,,,,,,,93,001,19,weiblich,psychologie,2023-02-07_09h17.55.805,00_bat_bachelor,2022.2.4,60.050864798040294,
,,,,,,,,,,,,0,0,0,0,124,0,124,0,,,,,,,124,,,1,9197.74344545789,Y,None,nogo,None,1,9198.54408167582,,,,,,,,,,,,,,,,,,93,001,19,weiblich,psychologie,2023-02-07_09h17.55.805,00_bat_bachelor,2022.2.4,60.050864798040294,
,,,,,,,,,,,,0,0,0,0,125,0,125,0,,,,,,,125,,,1,9199.544905432966,X,l,go,l,1,,0.31824586261063814,,,,,,,,,,,,,,,,,93,001,19,weiblich,psychologie,2023-02-07_09h17.55.805,00_bat_bachelor,2022.2.4,60.050864798040294,
,,,,,,,,,,,,0,0,0,0,126,0,126,0,,,,,,,126,,,1,9200.979261585977,Y,d,go,d,1,,0.4826729344204068,,,,,,,,,,,,,,,,,93,001,19,weiblich,psychologie,2023-02-07_09h17.55.805,00_bat_bachelor,2022.2.4,60.050864798040294,
,,,,,,,,,,,,0,0,0,0,127,0,127,0,,,,,,,127,,,1,9202.580557294656,X,l,go,l,1,,0.6107058422639966,,,,,,,,,,,,,,,,,93,001,19,weiblich,psychologie,2023-02-07_09h17.55.805,00_bat_bachelor,2022.2.4,60.050864798040294,
,,,,,,,,,,,,0,0,0,0,128,0,128,0,,,,,,,128,,,1,9204.298473067582,X,None,nogo,None,1,9205.098890618887,,,,,,,,,,,,,,,,,,93,001,19,weiblich,psychologie,2023-02-07_09h17.55.805,00_bat_bachelor,2022.2.4,60.050864798040294,
,,,,,,,,,,,,0,0,0,0,129,0,129,0,,,,,,,129,,,1,9206.099939830601,Y,d,go,d,1,,0.3699510497972369,,,,,,,,,,,,,,,,,93,001,19,weiblich,psychologie,2023-02-07_09h17.55.805,00_bat_bachelor,2022.2.4,60.050864798040294,
,,,,,,,,,,,,0,0,0,0,130,0,130,0,,,,,,,130,,,1,9207.600832678378,X,l,go,l,1,,0.46835778979584575,,,,,,,,,,,,,,,,,93,001,19,weiblich,psychologie,2023-02-07_09h17.55.805,00_bat_bachelor,2022.2.4,60.050864798040294,
,,,,,,,,,,,,0,0,0,0,131,0,131,0,,,,,,,131,,,1,9209.202403781004,Y,d,go,d,1,,0.49952722946181893,,,,,,,,,,,,,,,,,93,001,19,weiblich,psychologie,2023-02-07_09h17.55.805,00_bat_bachelor,2022.2.4,60.050864798040294,
,,,,,,,,,,,,0,0,0,0,132,0,132,0,,,,,,,132,,,1,9210.820111602545,X,l,go,l,1,,0.48118154145777225,,,,,,,,,,,,,,,,,93,001,19,weiblich,psychologie,2023-02-07_09h17.55.805,00_bat_bachelor,2022.2.4,60.050864798040294,
,,,,,,,,,,,,0,0,0,0,133,0,133,0,,,,,,,133,,,1,9212.420800281223,X,None,nogo,None,1,9213.221563529223,,,,,,,,,,,,,,,,,,93,001,19,weiblich,psychologie,2023-02-07_09h17.55.805,00_bat_bachelor,2022.2.4,60.050864798040294,
,,,,,,,,,,,,0,0,0,0,134,0,134,0,,,,,,,134,,,1,9214.221735650208,Y,d,go,d,1,,0.42378181125968695,,,,,,,,,,,,,,,,,93,001,19,weiblich,psychologie,2023-02-07_09h17.55.805,00_bat_bachelor,2022.2.4,60.050864798040294,
,,,,,,,,,,,,0,0,0,0,135,0,135,0,,,,,,,135,,,1,9215.756477209274,X,l,go,l,1,,0.47507148375734687,,,,,,,,,,,,,,,,,93,001,19,weiblich,psychologie,2023-02-07_09h17.55.805,00_bat_bachelor,2022.2.4,60.050864798040294,
,,,,,,,,,,,,0,0,0,0,136,0,136,0,,,,,,,136,,,1,9217.340775592718,X,None,nogo,None,1,,,,,,,,,,,,,,,,,,,93,001,19,weiblich,psychologie,2023-02-07_09h17.55.805,00_bat_bachelor,2022.2.4,60.050864798040294,
,,,,,,,,,,,,0,0,0,0,137,0,137,0,,,,,,,137,,,1,9219.142443082761,Y,d,go,d,1,,0.36808777786791325,,,,,,,,,,,,,,,,,93,001,19,weiblich,psychologie,2023-02-07_09h17.55.805,00_bat_bachelor,2022.2.4,60.050864798040294,
,,,,,,,,,,,,0,0,0,0,138,0,138,0,,,,,,,138,,,1,9220.62659315113,X,l,go,l,1,,0.49990832014009356,,,,,,,,,,,,,,,,,93,001,19,weiblich,psychologie,2023-02-07_09h17.55.805,00_bat_bachelor,2022.2.4,60.050864798040294,
,,,,,,,,,,,,0,0,0,0,139,0,139,0,,,,,,,139,,,1,9222.228068738244,Y,d,go,d,1,,0.4342031399719417,,,,,,,,,,,,,,,,,93,001,19,weiblich,psychologie,2023-02-07_09h17.55.805,00_bat_bachelor,2022.2.4,60.050864798040294,
,,,,,,,,,,,,0,0,0,0,140,0,140,0,,,,,,,140,,,1,9223.779267016333,X,l,go,l,1,,0.563298350200057,,,,,,,,,,,,,,,,,93,001,19,weiblich,psychologie,2023-02-07_09h17.55.805,00_bat_bachelor,2022.2.4,60.050864798040294,
,,,,,,,,,,,,0,0,0,0,141,0,141,0,,,,,,,141,,,1,9225.44697723817,X,None,nogo,None,1,,,,,,,,,,,,,,,,,,,93,001,19,weiblich,psychologie,2023-02-07_09h17.55.805,00_bat_bachelor,2022.2.4,60.050864798040294,
,,,,,,,,,,,,0,0,0,0,142,0,142,0,,,,,,,142,,,1,9227.248604970518,X,None,nogo,None,1,,,,,,,,,,,,,,,,,,,93,001,19,weiblich,psychologie,2023-02-07_09h17.55.805,00_bat_bachelor,2022.2.4,60.050864798040294,
,,,,,,,,,,,,0,0,0,0,143,0,143,0,,,,,,,143,,,1,9229.050701066386,Y,d,go,d,1,,0.3783825607970357,,,,,,,,,,,,,,,,,93,001,19,weiblich,psychologie,2023-02-07_09h17.55.805,00_bat_bachelor,2022.2.4,60.050864798040294,
,,,,,,,,,,,,0,0,0,0,144,0,144,0,,,,,,,144,,,1,9230.551820338704,X,l,go,l,1,,0.5417885421775281,,,,,,,,,,,,,,,,,93,001,19,weiblich,psychologie,2023-02-07_09h17.55.805,00_bat_bachelor,2022.2.4,60.050864798040294,
,,,,,,,,,,,,0,0,0,0,145,0,145,0,,,,,,,145,,,1,9232.219514075667,Y,d,go,d,1,,0.4103345451876521,,,,,,,,,,,,,,,,,93,001,19,weiblich,psychologie,2023-02-07_09h17.55.805,00_bat_bachelor,2022.2.4,60.050864798040294,
,,,,,,,,,,,,0,0,0,0,146,0,146,0,,,,,,,146,,,1,9233.754089816473,X,l,go,l,1,,0.4429881051182747,,,,,,,,,,,,,,,,,93,001,19,weiblich,psychologie,2023-02-07_09h17.55.805,00_bat_bachelor,2022.2.4,60.050864798040294,
,,,,,,,,,,,,0,0,0,0,147,0,147,0,,,,,,,147,,,1,9235.32199111674,X,None,nogo,None,1,9236.122761152685,,,,,,,,,,,,,,,,,,93,001,19,weiblich,psychologie,2023-02-07_09h17.55.805,00_bat_bachelor,2022.2.4,60.050864798040294,
,,,,,,,,,,,,0,0,0,0,148,0,148,0,,,,,,,148,,,1,9237.123558243271,Y,d,go,d,1,,0.4352441090159118,,,,,,,,,,,,,,,,,93,001,19,weiblich,psychologie,2023-02-07_09h17.55.805,00_bat_bachelor,2022.2.4,60.050864798040294,
,,,,,,,,,,,,0,0,0,0,149,0,149,0,,,,,,,149,,,1,9238.691474574152,X,l,go,l,1,,0.38652752665802836,,,,,,,,,,,,,,,,,93,001,19,weiblich,psychologie,2023-02-07_09h17.55.805,00_bat_bachelor,2022.2.4,60.050864798040294,
,,,,,,,,,,,,0,0,0,0,150,0,150,0,,,,,,,150,,,1,9240.208996747155,Y,d,go,d,1,,0.38897552574053407,,,,,,,,,,,,,,,,,93,001,19,weiblich,psychologie,2023-02-07_09h17.55.805,00_bat_bachelor,2022.2.4,60.050864798040294,
,,,,,,,,,,,,0,0,0,0,151,0,151,0,,,,,,,151,,,1,9241.710335655604,Y,None,nogo,None,1,9242.510769691784,,,,,,,,,,,,,,,,,,93,001,19,weiblich,psychologie,2023-02-07_09h17.55.805,00_bat_bachelor,2022.2.4,60.050864798040294,
,,,,,,,,,,,,0,0,0,0,152,0,152,0,,,,,,,152,,,1,9243.511724357959,Y,None,nogo,d,0,,0.31856683222576976,,,,,,,,,,,,,,,,,93,001,19,weiblich,psychologie,2023-02-07_09h17.55.805,00_bat_bachelor,2022.2.4,60.050864798040294,
,,,,,,,,,,,,0,0,0,0,153,0,153,0,,,,,,,153,,,1,9244.962612382136,X,l,go,l,1,,0.3545033000409603,,,,,,,,,,,,,,,,,93,001,19,weiblich,psychologie,2023-02-07_09h17.55.805,00_bat_bachelor,2022.2.4,60.050864798040294,
,,,,,,,,,,,,0,0,0,0,154,0,154,0,,,,,,,154,,,1,9246.463995411526,Y,d,go,d,1,,0.3748261989094317,,,,,,,,,,,,,,,,,93,001,19,weiblich,psychologie,2023-02-07_09h17.55.805,00_bat_bachelor,2022.2.4,60.050864798040294,
,,,,,,,,,,,,0,0,0,0,155,0,155,0,,,,,,,155,,,1,9247.94851105567,X,l,go,l,1,,0.5061652869917452,,,,,,,,,,,,,,,,,93,001,19,weiblich,psychologie,2023-02-07_09h17.55.805,00_bat_bachelor,2022.2.4,60.050864798040294,
,,,,,,,,,,,,0,0,0,0,156,0,156,0,,,,,,,156,,,1,9249.566126271151,Y,d,go,d,1,,0.6627707863226533,,,,,,,,,,,,,,,,,93,001,19,weiblich,psychologie,2023-02-07_09h17.55.805,00_bat_bachelor,2022.2.4,60.050864798040294,
,,,,,,,,,,,,0,0,0,0,157,0,157,0,,,,,,,157,,,1,9251.367772912607,Y,None,nogo,l,0,,0.2535467427223921,,,,,,,,,,,,,,,,,93,001,19,weiblich,psychologie,2023-02-07_09h17.55.805,00_bat_bachelor,2022.2.4,60.050864798040294,
,,,,,,,,,,,,0,0,0,0,158,0,158,0,,,,,,,158,,,1,9252.752111150883,X,l,go,l,1,,0.4856654182076454,,,,,,,,,,,,,,,,,93,001,19,weiblich,psychologie,2023-02-07_09h17.55.805,00_bat_bachelor,2022.2.4,60.050864798040294,
,,,,,,,,,,,,0,0,0,0,159,0,159,0,,,,,,,159,,,1,9254.369783093687,Y,d,go,d,1,,0.4035723665729165,,,,,,,,,,,,,,,,,93,001,19,weiblich,psychologie,2023-02-07_09h17.55.805,00_bat_bachelor,2022.2.4,60.050864798040294,
,,,,,,,,,,,,0,0,0,0,160,0,160,0,,,,,,,160,,,1,9255.904377743602,Y,None,nogo,None,1,9256.705134203658,,,,,,,,,,,,,,,,,,93,001,19,weiblich,psychologie,2023-02-07_09h17.55.805,00_bat_bachelor,2022.2.4,60.050864798040294,
,,,,,,,,,,,,0,0,0,0,161,0,161,0,,,,,,,161,,,1,9257.705902203452,X,l,go,l,1,,0.3475195453502238,,,,,,,,,,,,,,,,,93,001,19,weiblich,psychologie,2023-02-07_09h17.55.805,00_bat_bachelor,2022.2.4,60.050864798040294,
,,,,,,,,,,,,0,0,0,0,162,0,162,0,,,,,,,162,,,1,9259.173731309827,Y,d,go,d,1,,0.6558132143691182,,,,,,,,,,,,,,,,,93,001,19,weiblich,psychologie,2023-02-07_09h17.55.805,00_bat_bachelor,2022.2.4,60.050864798040294,
,,,,,,,,,,,,0,0,0,0,163,0,163,0,,,,,,,163,,,1,9260.97504631523,X,l,go,l,1,,0.5350724244490266,,,,,,,,,,,,,,,,,93,001,19,weiblich,psychologie,2023-02-07_09h17.55.805,00_bat_bachelor,2022.2.4,60.050864798040294,
,,,,,,,,,,,,0,0,0,0,164,0,164,0,,,,,,,164,,,1,9262.64303580951,Y,d,go,d,1,,0.5151742519810796,,,,,,,,,,,,,,,,,93,001,19,weiblich,psychologie,2023-02-07_09h17.55.805,00_bat_bachelor,2022.2.4,60.050864798040294,
,,,,,,,,,,,,0,0,0,0,165,0,165,0,,,,,,,165,,,1,9264.294197191019,Y,None,nogo,None,1,9265.094884317834,,,,,,,,,,,,,,,,,,93,001,19,weiblich,psychologie,2023-02-07_09h17.55.805,00_bat_bachelor,2022.2.4,60.050864798040294,
,,,,,,,,,,,,0,0,0,0,166,0,166,0,,,,,,,166,,,1,9266.09537352994,X,l,go,l,1,,0.24624638259410858,,,,,,,,,,,,,,,,,93,001,19,weiblich,psychologie,2023-02-07_09h17.55.805,00_bat_bachelor,2022.2.4,60.050864798040294,
,,,,,,,,,,,,0,0,0,0,167,0,167,0,,,,,,,167,,,1,9267.446190814022,Y,d,go,d,1,,0.3996625505387783,,,,,,,,,,,,,,,,,93,001,19,weiblich,psychologie,2023-02-07_09h17.55.805,00_bat_bachelor,2022.2.4,60.050864798040294,
,,,,,,,,,,,,0,0,0,0,168,0,168,0,,,,,,,168,,,1,9268.947371177375,X,l,go,l,1,,0.40339539758861065,,,,,,,,,,,,,,,,,93,001,19,weiblich,psychologie,2023-02-07_09h17.55.805,00_bat_bachelor,2022.2.4,60.050864798040294,
,,,,,,,,,,,,0,0,0,0,169,0,169,0,,,,,,,169,,,1,9270.46485941112,Y,d,go,d,1,,0.5334772733040154,,,,,,,,,,,,,,,,,93,001,19,weiblich,psychologie,2023-02-07_09h17.55.805,00_bat_bachelor,2022.2.4,60.050864798040294,
,,,,,,,,,,,,0,0,0,0,170,0,170,0,,,,,,,170,,,1,9272.0993808005,Y,None,nogo,None,1,,,,,,,,,,,,,,,,,,,93,001,19,weiblich,psychologie,2023-02-07_09h17.55.805,00_bat_bachelor,2022.2.4,60.050864798040294,
,,,,,,,,,,,,0,0,0,0,171,0,171,0,,,,,,,171,,,1,9273.900591563433,X,l,go,l,1,,0.42603538651019335,,,,,,,,,,,,,,,,,93,001,19,weiblich,psychologie,2023-02-07_09h17.55.805,00_bat_bachelor,2022.2.4,60.050864798040294,
,,,,,,,,,,,,0,0,0,0,172,0,172,0,,,,,,,172,,,1,9275.435016031843,Y,d,go,d,1,,0.6023039068095386,,,,,,,,,,,,,,,,,93,001,19,weiblich,psychologie,2023-02-07_09h17.55.805,00_bat_bachelor,2022.2.4,60.050864798040294,
,,,,,,,,,,,,0,0,0,0,173,0,173,0,,,,,,,173,,,1,9277.15327895619,X,l,go,l,1,,0.37289795745164156,,,,,,,,,,,,,,,,,93,001,19,weiblich,psychologie,2023-02-07_09h17.55.805,00_bat_bachelor,2022.2.4,60.050864798040294,
,,,,,,,,,,,,0,0,0,0,174,0,174,0,,,,,,,174,,,1,9278.637496903073,Y,d,go,d,1,,0.40880484925583005,,,,,,,,,,,,,,,,,93,001,19,weiblich,psychologie,2023-02-07_09h17.55.805,00_bat_bachelor,2022.2.4,60.050864798040294,
,,,,,,,,,,,,0,0,0,0,175,0,175,0,,,,,,,175,,,1,9280.155615924858,Y,None,nogo,None,1,,,,,,,,,,,,,,,,,,,93,001,19,weiblich,psychologie,2023-02-07_09h17.55.805,00_bat_bachelor,2022.2.4,60.050864798040294,
,,,,,,,,,,,,0,0,0,0,176,0,176,0,,,,,,,176,,,1,9281.956895536277,X,l,go,l,1,,0.44919707207009196,,,,,,,,,,,,,,,,,93,001,19,weiblich,psychologie,2023-02-07_09h17.55.805,00_bat_bachelor,2022.2.4,60.050864798040294,
,,,,,,,,,,,,0,0,0,0,177,0,177,0,,,,,,,177,,,1,9283.507931875065,Y,d,go,d,1,,0.4656712459400296,,,,,,,,,,,,,,,,,93,001,19,weiblich,psychologie,2023-02-07_09h17.55.805,00_bat_bachelor,2022.2.4,60.050864798040294,
,,,,,,,,,,,,0,0,0,0,178,0,178,0,,,,,,,178,,,1,9285.076024690643,Y,None,nogo,None,1,,,,,,,,,,,,,,,,,,,93,001,19,weiblich,psychologie,2023-02-07_09h17.55.805,00_bat_bachelor,2022.2.4,60.050864798040294,
,,,,,,,,,,,,0,0,0,0,179,0,179,0,,,,,,,179,,,1,9286.877379453741,X,l,go,l,1,,0.42496920470148325,,,,,,,,,,,,,,,,,93,001,19,weiblich,psychologie,2023-02-07_09h17.55.805,00_bat_bachelor,2022.2.4,60.050864798040294,
,,,,,,,,,,,,0,0,0,0,180,0,180,0,,,,,,,180,,,1,9288.41186646698,Y,d,go,d,1,,0.3789590452797711,,,,,,,,,,,,,,,,,93,001,19,weiblich,psychologie,2023-02-07_09h17.55.805,00_bat_bachelor,2022.2.4,60.050864798040294,
,,,,,,,,,,,,0,0,0,0,181,0,181,0,,,,,,,181,,,1,9289.896335565485,X,l,go,l,1,,0.5746573749929667,,,,,,,,,,,,,,,,,93,001,19,weiblich,psychologie,2023-02-07_09h17.55.805,00_bat_bachelor,2022.2.4,60.050864798040294,
,,,,,,,,,,,,0,0,0,0,182,0,182,0,,,,,,,182,,,1,9291.580936930608,X,None,nogo,None,1,9292.38156054262,,,,,,,,,,,,,,,,,,93,001,19,weiblich,psychologie,2023-02-07_09h17.55.805,00_bat_bachelor,2022.2.4,60.050864798040294,
,,,,,,,,,,,,0,0,0,0,183,0,183,0,,,,,,,183,,,1,9293.382355208974,Y,d,go,d,1,,0.4004019442945719,,,,,,,,,,,,,,,,,93,001,19,weiblich,psychologie,2023-02-07_09h17.55.805,00_bat_bachelor,2022.2.4,60.050864798040294,
,,,,,,,,,,,,0,0,0,0,184,0,184,0,,,,,,,184,,,1,9294.883188420441,X,l,go,l,1,,0.46716942684724927,,,,,,,,,,,,,,,,,93,001,19,weiblich,psychologie,2023-02-07_09h17.55.805,00_bat_bachelor,2022.2.4,60.050864798040294,
,,,,,,,,,,,,0,0,0,0,185,0,185,0,,,,,,,185,,,1,9296.45124293305,X,None,nogo,None,1,,,,,,,,,,,,,,,,,,,93,001,19,weiblich,psychologie,2023-02-07_09h17.55.805,00_bat_bachelor,2022.2.4,60.050864798040294,
,,,,,,,,,,,,0,0,0,0,186,0,186,0,,,,,,,186,,,1,9298.252829453442,Y,d,go,d,1,,0.37757189478725195,,,,,,,,,,,,,,,,,93,001,19,weiblich,psychologie,2023-02-07_09h17.55.805,00_bat_bachelor,2022.2.4,60.050864798040294,
,,,,,,,,,,,,0,0,0,0,187,0,187,0,,,,,,,187,,,1,9299.737570066936,X,l,go,l,1,,0.4773061494342983,,,,,,,,,,,,,,,,,93,001,19,weiblich,psychologie,2023-02-07_09h17.55.805,00_bat_bachelor,2022.2.4,60.050864798040294,
,,,,,,,,,,,,0,0,0,0,188,0,188,0,,,,,,,188,,,1,9301.321787965484,X,None,nogo,d,0,,0.5413429667241871,,,,,,,,,,,,,,,,,93,001,19,weiblich,psychologie,2023-02-07_09h17.55.805,00_bat_bachelor,2022.2.4,60.050864798040294,
,,,,,,,,,,,,0,0,0,0,189,0,189,0,,,,,,,189,,,1,9302.972970195115,Y,d,go,d,1,,0.2817746074870229,,,,,,,,,,,,,,,,,93,001,19,weiblich,psychologie,2023-02-07_09h17.55.805,00_bat_bachelor,2022.2.4,60.050864798040294,
,,,,,,,,,,,,0,0,0,0,190,0,190,0,,,,,,,190,,,1,9304.357451463118,X,l,go,l,1,,0.46519609447568655,,,,,,,,,,,,,,,,,93,001,19,weiblich,psychologie,2023-02-07_09h17.55.805,00_bat_bachelor,2022.2.4,60.050864798040294,
,,,,,,,,,,,,0,0,0,0,191,0,191,0,,,,,,,191,,,1,9305.925187430345,Y,d,go,d,1,,0.5294040632434189,,,,,,,,,,,,,,,,,93,001,19,weiblich,psychologie,2023-02-07_09h17.55.805,00_bat_bachelor,2022.2.4,60.050864798040294,
,,,,,,,,,,,,0,0,0,0,192,0,192,0,,,,,,,192,,,1,9307.559757304378,X,l,go,l,1,,0.47939584543928504,,,,,,,,,,,,,,,,,93,001,19,weiblich,psychologie,2023-02-07_09h17.55.805,00_bat_bachelor,2022.2.4,60.050864798040294,
,,,,,,,,,,,,0,0,0,0,193,0,193,0,,,,,,,193,,,1,9309.144318475854,Y,d,go,d,1,,0.36573238484561443,,,,,,,,,,,,,,,,,93,001,19,weiblich,psychologie,2023-02-07_09h17.55.805,00_bat_bachelor,2022.2.4,60.050864798040294,
,,,,,,,,,,,,0,0,0,0,194,0,194,0,,,,,,,194,,,1,9310.611862976104,X,l,go,l,1,,0.4658147608861327,,,,,,,,,,,,,,,,,93,001,19,weiblich,psychologie,2023-02-07_09h17.55.805,00_bat_bachelor,2022.2.4,60.050864798040294,
,,,,,,,,,,,,0,0,0,0,195,0,195,0,,,,,,,195,,,1,9312.179894700646,Y,d,go,d,1,,0.3536053607240319,,,,,,,,,,,,,,,,,93,001,19,weiblich,psychologie,2023-02-07_09h17.55.805,00_bat_bachelor,2022.2.4,60.050864798040294,
,,,,,,,,,,,,0,0,0,0,196,0,196,0,,,,,,,196,,,1,9313.648476291914,X,l,go,l,1,,0.32437773840501904,,,,,,,,,,,,,,,,,93,001,19,weiblich,psychologie,2023-02-07_09h17.55.805,00_bat_bachelor,2022.2.4,60.050864798040294,
,,,,,,,,,,,,0,0,0,0,197,0,197,0,,,,,,,197,,,1,9315.09958928544,Y,d,go,d,1,,0.3147011371329427,,,,,,,,,,,,,,,,,93,001,19,weiblich,psychologie,2023-02-07_09h17.55.805,00_bat_bachelor,2022.2.4,60.050864798040294,
,,,,,,,,,,,,0,0,0,0,198,0,198,0,,,,,,,198,,,1,9316.550951490644,X,l,go,l,1,,0.4948290497995913,,,,,,,,,,,,,,,,,93,001,19,weiblich,psychologie,2023-02-07_09h17.55.805,00_bat_bachelor,2022.2.4,60.050864798040294,
,,,,,,,,,,,,0,0,0,0,199,0,199,0,,,,,,,199,,,1,9318.168554584961,X,None,nogo,None,1,9318.969185954425,,,,,,,,,,,,,,,,,,93,001,19,weiblich,psychologie,2023-02-07_09h17.55.805,00_bat_bachelor,2022.2.4,60.050864798040294,
,,,,,,,,,,,,0,0,0,0,200,0,200,0,,,,,,,200,,,1,9319.969967530109,Y,d,go,d,1,,0.452478040009737,,,,,,,,,,,,,,,,,93,001,19,weiblich,psychologie,2023-02-07_09h17.55.805,00_bat_bachelor,2022.2.4,60.050864798040294,
,,,,,,,,,,,,0,0,0,0,201,0,201,0,,,,,,,201,,,1,9321.537617678754,X,l,go,l,1,,0.5000426229089499,,,,,,,,,,,,,,,,,93,001,19,weiblich,psychologie,2023-02-07_09h17.55.805,00_bat_bachelor,2022.2.4,60.050864798040294,
,,,,,,,,,,,,0,0,0,0,202,0,202,0,,,,,,,202,,,1,9323.13892405387,X,None,nogo,None,1,9323.939693120308,,,,,,,,,,,,,,,,,,93,001,19,weiblich,psychologie,2023-02-07_09h17.55.805,00_bat_bachelor,2022.2.4,60.050864798040294,
,,,,,,,,,,,,0,0,0,0,203,0,203,0,,,,,,,203,,,1,9324.94021724118,Y,d,go,d,1,,0.361545720603317,,,,,,,,,,,,,,,,,93,001,19,weiblich,psychologie,2023-02-07_09h17.55.805,00_bat_bachelor,2022.2.4,60.050864798040294,
,,,,,,,,,,,,0,0,0,0,204,0,204,0,,,,,,,204,,,1,9326.424881733488,X,l,go,l,1,,0.47646348271518946,,,,,,,,,,,,,,,,,93,001,19,weiblich,psychologie,2023-02-07_09h17.55.805,00_bat_bachelor,2022.2.4,60.050864798040294,
,,,,,,,,,,,,0,0,0,0,205,0,205,0,,,,,,,205,,,1,9328.025924836285,Y,d,go,d,1,,0.4607122181914747,,,,,,,,,,,,,,,,,93,001,19,weiblich,psychologie,2023-02-07_09h17.55.805,00_bat_bachelor,2022.2.4,60.050864798040294,
,,,,,,,,,,,,0,0,0,0,206,0,206,0,,,,,,,206,,,1,9329.594123348594,X,l,go,l,1,,0.4275490823201835,,,,,,,,,,,,,,,,,93,001,19,weiblich,psychologie,2023-02-07_09h17.55.805,00_bat_bachelor,2022.2.4,60.050864798040294,
,,,,,,,,,,,,0,0,0,0,207,0,207,0,,,,,,,207,,,1,9331.161840891466,Y,d,go,d,1,,0.4756877259351313,,,,,,,,,,,,,,,,,93,001,19,weiblich,psychologie,2023-02-07_09h17.55.805,00_bat_bachelor,2022.2.4,60.050864798040294,
,,,,,,,,,,,,0,0,0,0,208,0,208,0,,,,,,,208,,,1,9332.763135145418,Y,None,nogo,l,0,,0.33128876565024257,,,,,,,,,,,,,,,,,93,001,19,weiblich,psychologie,2023-02-07_09h17.55.805,00_bat_bachelor,2022.2.4,60.050864798040294,
,,,,,,,,,,,,0,0,0,0,209,0,209,0,,,,,,,209,,,1,9334.230817342643,X,l,go,l,1,,0.30210041627287865,,,,,,,,,,,,,,,,,93,001,19,weiblich,psychologie,2023-02-07_09h17.55.805,00_bat_bachelor,2022.2.4,60.050864798040294,
,,,,,,,,,,,,0,0,0,0,210,0,210,0,,,,,,,210,,,1,9335.665045496076,Y,d,go,d,1,,0.4683878505602479,,,,,,,,,,,,,,,,,93,001,19,weiblich,psychologie,2023-02-07_09h17.55.805,00_bat_bachelor,2022.2.4,60.050864798040294,
,,,,,,,,,,,,0,0,0,0,211,0,211,0,,,,,,,211,,,1,9337.26633781055,Y,None,nogo,None,1,9338.066942028236,,,,,,,,,,,,,,,,,,93,001,19,weiblich,psychologie,2023-02-07_09h17.55.805,00_bat_bachelor,2022.2.4,60.050864798040294,
,,,,,,,,,,,,0,0,0,0,212,0,212,0,,,,,,,212,,,1,9339.067912209779,X,l,go,l,1,,0.33025409933179617,,,,,,,,,,,,,,,,,93,001,19,weiblich,psychologie,2023-02-07_09h17.55.805,00_bat_bachelor,2022.2.4,60.050864798040294,
,,,,,,,,,,,,0,0,0,0,213,0,213,0,,,,,,,213,,,1,9340.518957324326,Y,d,go,d,1,,0.367105960380286,,,,,,,,,,,,,,,,,93,001,19,weiblich,psychologie,2023-02-07_09h17.55.805,00_bat_bachelor,2022.2.4,60.050864798040294,
,,,,,,,,,,,,0,0,0,0,214,0,214,0,,,,,,,214,,,1,9342.003235877492,Y,None,nogo,None,1,9342.80407233769,,,,,,,,,,,,,,,,,,93,001,19,weiblich,psychologie,2023-02-07_09h17.55.805,00_bat_bachelor,2022.2.4,60.050864798040294,
,,,,,,,,,,,,0,0,0,0,215,0,215,0,,,,,,,215,,,1,9343.80463476153,X,l,go,l,1,,0.42466278094798326,,,,,,,,,,,,,,,,,93,001,19,weiblich,psychologie,2023-02-07_09h17.55.805,00_bat_bachelor,2022.2.4,60.050864798040294,
,,,,,,,,,,,,0,0,0,0,216,0,216,0,,,,,,,216,,,1,9345.355971221346,Y,d,go,d,1,,0.346130455378443,,,,,,,,,,,,,,,,,93,001,19,weiblich,psychologie,2023-02-07_09h17.55.805,00_bat_bachelor,2022.2.4,60.050864798040294,
,,,,,,,,,,,,0,0,0,0,217,0,217,0,,,,,,,217,,,1,9346.823628206737,Y,None,nogo,None,1,9347.624491333961,,,,,,,,,,,,,,,,,,93,001,19,weiblich,psychologie,2023-02-07_09h17.55.805,00_bat_bachelor,2022.2.4,60.050864798040294,
,,,,,,,,,,,,0,0,0,0,218,0,218,0,,,,,,,218,,,1,9348.625280181877,X,l,go,l,1,,0.3243021024391055,,,,,,,,,,,,,,,,,93,001,19,weiblich,psychologie,2023-02-07_09h17.55.805,00_bat_bachelor,2022.2.4,60.050864798040294,
,,,,,,,,,,,,0,0,0,0,219,0,219,0,,,,,,,219,,,1,9350.076021781657,Y,d,go,d,1,,0.2973775095306337,,,,,,,,,,,,,,,,,93,001,19,weiblich,psychologie,2023-02-07_09h17.55.805,00_bat_bachelor,2022.2.4,60.050864798040294,
,,,,,,,,,,,,0,0,0,0,220,0,220,0,,,,,,,220,,,1,9351.47723710211,X,l,go,l,1,,0.2558289235457778,,,,,,,,,,,,,,,,,93,001,19,weiblich,psychologie,2023-02-07_09h17.55.805,00_bat_bachelor,2022.2.4,60.050864798040294,
,,,,,,,,,,,,0,0,0,0,221,0,221,0,,,,,,,221,,,1,9352.861435218714,X,None,nogo,None,1,9353.662277497351,,,,,,,,,,,,,,,,,,93,001,19,weiblich,psychologie,2023-02-07_09h17.55.805,00_bat_bachelor,2022.2.4,60.050864798040294,
,,,,,,,,,,,,0,0,0,0,222,0,222,0,,,,,,,222,,,1,9354.662861739285,Y,d,go,d,1,,0.20658385660499334,,,,,,,,,,,,,,,,,93,001,19,weiblich,psychologie,2023-02-07_09h17.55.805,00_bat_bachelor,2022.2.4,60.050864798040294,
,,,,,,,,,,,,0,0,0,0,223,0,223,0,,,,,,,223,,,1,9356.01385987224,X,l,go,l,1,,0.3590249945409596,,,,,,,,,,,,,,,,,93,001,19,weiblich,psychologie,2023-02-07_09h17.55.805,00_bat_bachelor,2022.2.4,60.050864798040294,
,,,,,,,,,,,,0,0,0,0,224,0,224,0,,,,,,,224,,,1,9357.498563637491,Y,d,go,d,1,,0.26709146331995726,,,,,,,,,,,,,,,,,93,001,19,weiblich,psychologie,2023-02-07_09h17.55.805,00_bat_bachelor,2022.2.4,60.050864798040294,
,,,,,,,,,,,,0,0,0,0,225,0,225,0,,,,,,,225,,,1,9358.882987208664,X,l,go,l,1,,0.38607322378084064,,,,,,,,,,,,,,,,,93,001,19,weiblich,psychologie,2023-02-07_09h17.55.805,00_bat_bachelor,2022.2.4,60.050864798040294,
,,,,,,,,,,,,0,0,0,0,226,0,226,0,,,,,,,226,,,1,9360.400626230054,X,None,nogo,d,0,,0.2298589963465929,,,,,,,,,,,,,,,,,93,001,19,weiblich,psychologie,2023-02-07_09h17.55.805,00_bat_bachelor,2022.2.4,60.050864798040294,
,,,,,,,,,,,,0,0,0,0,227,0,227,0,,,,,,,227,,,1,9361.735102673993,Y,d,go,d,1,,0.43108895933255553,,,,,,,,,,,,,,,,,93,001,19,weiblich,psychologie,2023-02-07_09h17.55.805,00_bat_bachelor,2022.2.4,60.050864798040294,
,,,,,,,,,,,,0,0,0,0,228,0,228,0,,,,,,,228,,,1,9363.286095376592,X,l,go,l,1,,0.41483781579881907,,,,,,,,,,,,,,,,,93,001,19,weiblich,psychologie,2023-02-07_09h17.55.805,00_bat_bachelor,2022.2.4,60.050864798040294,
,,,,,,,,,,,,0,0,0,0,229,0,229,0,,,,,,,229,,,1,9364.820820450783,Y,d,go,d,1,,0.41703854221850634,,,,,,,,,,,,,,,,,93,001,19,weiblich,psychologie,2023-02-07_09h17.55.805,00_bat_bachelor,2022.2.4,60.050864798040294,
,,,,,,,,,,,,0,0,0,0,230,0,230,0,,,,,,,230,,,1,9366.371843213681,Y,None,nogo,l,0,,0.27327812695875764,,,,,,,,,,,,,,,,,93,001,19,weiblich,psychologie,2023-02-07_09h17.55.805,00_bat_bachelor,2022.2.4,60.050864798040294,
,,,,,,,,,,,,0,0,0,0,231,0,231,0,,,,,,,231,,,1,9367.772866534535,X,l,go,l,1,,0.39191516023129225,,,,,,,,,,,,,,,,,93,001,19,weiblich,psychologie,2023-02-07_09h17.55.805,00_bat_bachelor,2022.2.4,60.050864798040294,
,,,,,,,,,,,,0,0,0,0,232,0,232,0,,,,,,,232,,,1,9369.290878889617,Y,d,go,d,1,,0.394682674203068,,,,,,,,,,,,,,,,,93,001,19,weiblich,psychologie,2023-02-07_09h17.55.805,00_bat_bachelor,2022.2.4,60.050864798040294,
,,,,,,,,,,,,0,0,0,0,233,0,233,0,,,,,,,233,,,1,9370.82533632731,Y,None,nogo,None,1,9371.626083090436,,,,,,,,,,,,,,,,,,93,001,19,weiblich,psychologie,2023-02-07_09h17.55.805,00_bat_bachelor,2022.2.4,60.050864798040294,
,,,,,,,,,,,,0,0,0,0,234,0,234,0,,,,,,,234,,,1,9372.626572787296,X,l,go,l,1,,0.3556630564853549,,,,,,,,,,,,,,,,,93,001,19,weiblich,psychologie,2023-02-07_09h17.55.805,00_bat_bachelor,2022.2.4,60.050864798040294,
,,,,,,,,,,,,0,0,0,0,235,0,235,0,,,,,,,235,,,1,9374.11099582538,Y,d,go,d,1,,0.4234676295891404,,,,,,,,,,,,,,,,,93,001,19,weiblich,psychologie,2023-02-07_09h17.55.805,00_bat_bachelor,2022.2.4,60.050864798040294,
,,,,,,,,,,,,0,0,0,0,236,0,236,0,,,,,,,236,,,1,9375.64582368685,X,l,go,l,1,,0.24718941235914826,,,,,,,,,,,,,,,,,93,001,19,weiblich,psychologie,2023-02-07_09h17.55.805,00_bat_bachelor,2022.2.4,60.050864798040294,
,,,,,,,,,,,,0,0,0,0,237,0,237,0,,,,,,,237,,,1,9377.013362417929,X,None,nogo,None,1,9377.814261423424,,,,,,,,,,,,,,,,,,93,001,19,weiblich,psychologie,2023-02-07_09h17.55.805,00_bat_bachelor,2022.2.4,60.050864798040294,
,,,,,,,,,,,,0,0,0,0,238,0,238,0,,,,,,,238,,,1,9378.814771968871,Y,d,go,d,1,,0.24650141270831227,,,,,,,,,,,,,,,,,93,001,19,weiblich,psychologie,2023-02-07_09h17.55.805,00_bat_bachelor,2022.2.4,60.050864798040294,
,,,,,,,,,,,,0,0,0,0,239,0,239,0,,,,,,,239,,,1,9380.182556517888,X,l,go,l,1,,0.5916580939665437,,,,,,,,,,,,,,,,,93,001,19,weiblich,psychologie,2023-02-07_09h17.55.805,00_bat_bachelor,2022.2.4,60.050864798040294,
,,,,,,,,,,,,0,0,0,0,240,0,240,0,,,,,,,240,,,1,9381.900479563512,Y,d,go,d,1,,0.41023175744339824,,,,,,,,,,,,,,,,,93,001,19,weiblich,psychologie,2023-02-07_09h17.55.805,00_bat_bachelor,2022.2.4,60.050864798040294,
,,,,,,,,,,,,0,0,0,0,241,0,241,0,,,,,,,241,,,1,9383.434818213806,X,l,go,l,1,,0.6348992851562798,,,,,,,,,,,,,,,,,93,001,19,weiblich,psychologie,2023-02-07_09h17.55.805,00_bat_bachelor,2022.2.4,60.050864798040294,
,,,,,,,,,,,,0,0,0,0,242,0,242,0,,,,,,,242,,,1,9385.202821235172,Y,d,go,d,1,,0.594198698643595,,,,,,,,,,,,,,,,,93,001,19,weiblich,psychologie,2023-02-07_09h17.55.805,00_bat_bachelor,2022.2.4,60.050864798040294,
,,,,,,,,,,,,0,0,0,0,243,0,243,0,,,,,,,243,,,1,9386.937686333433,X,l,go,l,1,,0.4756596046499908,,,,,,,,,,,,,,,,,93,001,19,weiblich,psychologie,2023-02-07_09h17.55.805,00_bat_bachelor,2022.2.4,60.050864798040294,
,,,,,,,,,,,,0,0,0,0,244,0,244,0,,,,,,,244,,,1,9388.5387677392,X,None,nogo,None,1,9389.3395537748,,,,,,,,,,,,,,,,,,93,001,19,weiblich,psychologie,2023-02-07_09h17.55.805,00_bat_bachelor,2022.2.4,60.050864798040294,
,,,,,,,,,,,,0,0,0,0,245,0,245,0,,,,,,,245,,,1,9390.340038623195,Y,d,go,d,1,,0.4019840038381517,,,,,,,,,,,,,,,,,93,001,19,weiblich,psychologie,2023-02-07_09h17.55.805,00_bat_bachelor,2022.2.4,60.050864798040294,
,,,,,,,,,,,,0,0,0,0,246,0,246,0,,,,,,,246,,,1,9391.857815342024,X,l,go,l,1,,0.5952745769172907,,,,,,,,,,,,,,,,,93,001,19,weiblich,psychologie,2023-02-07_09h17.55.805,00_bat_bachelor,2022.2.4,60.050864798040294,
,,,,,,,,,,,,0,0,0,0,247,0,247,0,,,,,,,247,,,1,9393.576034630183,Y,d,go,d,1,,0.3816392864100635,,,,,,,,,,,,,,,,,93,001,19,weiblich,psychologie,2023-02-07_09h17.55.805,00_bat_bachelor,2022.2.4,60.050864798040294,
,,,,,,,,,,,,0,0,0,0,248,0,248,0,,,,,,,248,,,1,9395.077142265625,X,l,go,l,1,,0.6405322519131005,,,,,,,,,,,,,,,,,93,001,19,weiblich,psychologie,2023-02-07_09h17.55.805,00_bat_bachelor,2022.2.4,60.050864798040294,
,,,,,,,,,,,,0,0,0,0,249,0,249,0,,,,,,,249,,,1,9396.845005651005,X,None,nogo,None,1,9397.677703914233,,,,,,,,,,,,,,,,,,93,001,19,weiblich,psychologie,2023-02-07_09h17.55.805,00_bat_bachelor,2022.2.4,60.050864798040294,
,,,,,,,,,,,,1,0,1,0,0,0,0,0,,,,,,,0,,,0.2,9412.85709000891,X,l,go,None,0,9413.657732529566,,,,,,,,,9397.677703914233,space,14.956080219708383,,,,,,,93,001,19,weiblich,psychologie,2023-02-07_09h17.55.805,00_bat_bachelor,2022.2.4,60.050864798040294,
,,,,,,,,,,,,1,0,1,0,1,0,1,0,,,,,,,1,,,0.2,9413.857709160075,Y,d,go,d,1,,0.5956658492796123,,,,,,,,,,,,,,,,,93,001,19,weiblich,psychologie,2023-02-07_09h17.55.805,00_bat_bachelor,2022.2.4,60.050864798040294,
,,,,,,,,,,,,1,0,1,0,2,0,2,0,,,,,,,2,,,0.2,9414.77506192727,X,l,go,l,1,,0.44657695200294256,,,,,,,,,,,,,,,,,93,001,19,weiblich,psychologie,2023-02-07_09h17.55.805,00_bat_bachelor,2022.2.4,60.050864798040294,
,,,,,,,,,,,,1,0,1,0,3,0,3,0,,,,,,,3,,,0.2,9415.525899866596,X,None,nogo,None,1,9416.32622820558,,,,,,,,,,,,,,,,,,93,001,19,weiblich,psychologie,2023-02-07_09h17.55.805,00_bat_bachelor,2022.2.4,60.050864798040294,
,,,,,,,,,,,,1,0,1,0,4,0,4,0,,,,,,,4,,,0.2,9416.526635381393,Y,d,go,d,1,,0.37532413797453046,,,,,,,,,,,,,,,,,93,001,19,weiblich,psychologie,2023-02-07_09h17.55.805,00_bat_bachelor,2022.2.4,60.050864798040294,
,,,,,,,,,,,,1,0,1,0,5,0,5,0,,,,,,,5,,,0.2,9417.210294686258,X,l,go,l,1,,0.44268119614571333,,,,,,,,,,,,,,,,,93,001,19,weiblich,psychologie,2023-02-07_09h17.55.805,00_bat_bachelor,2022.2.4,60.050864798040294,
,,,,,,,,,,,,1,0,1,0,6,0,6,0,,,,,,,6,,,0.2,9417.97766885953,Y,d,go,d,1,,0.45991076389327645,,,,,,,,,,,,,,,,,93,001,19,weiblich,psychologie,2023-02-07_09h17.55.805,00_bat_bachelor,2022.2.4,60.050864798040294,
,,,,,,,,,,,,1,0,1,0,7,0,7,0,,,,,,,7,,,0.2,9418.744735639077,X,l,go,l,1,,0.636204011272639,,,,,,,,,,,,,,,,,93,001,19,weiblich,psychologie,2023-02-07_09h17.55.805,00_bat_bachelor,2022.2.4,60.050864798040294,
,,,,,,,,,,,,1,0,1,0,8,0,8,0,,,,,,,8,,,0.2,9419.71233904874,X,None,nogo,None,1,9420.51275950903,,,,,,,,,,,,,,,,,,93,001,19,weiblich,psychologie,2023-02-07_09h17.55.805,00_bat_bachelor,2022.2.4,60.050864798040294,
,,,,,,,,,,,,1,0,1,0,9,0,9,0,,,,,,,9,,,0.2,9420.713019775692,Y,d,go,d,1,,0.34797821193933487,,,,,,,,,,,,,,,,,93,001,19,weiblich,psychologie,2023-02-07_09h17.55.805,00_bat_bachelor,2022.2.4,60.050864798040294,
,,,,,,,,,,,,1,0,1,0,10,0,10,0,,,,,,,10,,,0.2,9421.379756907001,X,l,go,l,1,,0.562817380297929,,,,,,,,,,,,,,,,,93,001,19,weiblich,psychologie,2023-02-07_09h17.55.805,00_bat_bachelor,2022.2.4,60.050864798040294,
,,,,,,,,,,,,1,0,1,0,11,0,11,0,,,,,,,11,,,0.2,9422.246900728904,Y,d,go,None,0,9423.047765795141,,,,,,,,,,,,,,,,,,93,001,19,weiblich,psychologie,2023-02-07_09h17.55.805,00_bat_bachelor,2022.2.4,60.050864798040294,
,,,,,,,,,,,,1,0,1,0,12,0,12,0,,,,,,,12,,,0.2,9423.247816607356,Y,None,nogo,None,1,,,,,,,,,,,,,,,,,,,93,001,19,weiblich,psychologie,2023-02-07_09h17.55.805,00_bat_bachelor,2022.2.4,60.050864798040294,
,,,,,,,,,,,,1,0,1,0,13,0,13,0,,,,,,,13,,,0.2,9424.24868060695,X,l,go,l,1,,0.31776489363983274,,,,,,,,,,,,,,,,,93,001,19,weiblich,psychologie,2023-02-07_09h17.55.805,00_bat_bachelor,2022.2.4,60.050864798040294,
,,,,,,,,,,,,1,0,1,0,14,0,14,0,,,,,,,14,,,0.2,9424.882519329898,Y,d,go,d,1,,0.45175125263631344,,,,,,,,,,,,,,,,,93,001,19,weiblich,psychologie,2023-02-07_09h17.55.805,00_bat_bachelor,2022.2.4,60.050864798040294,
,,,,,,,,,,,,1,0,1,0,15,0,15,0,,,,,,,15,,,0.2,9425.64985713968,X,l,go,l,1,,0.4999267444945872,,,,,,,,,,,,,,,,,93,001,19,weiblich,psychologie,2023-02-07_09h17.55.805,00_bat_bachelor,2022.2.4,60.050864798040294,
,,,,,,,,,,,,1,0,1,0,16,0,16,0,,,,,,,16,,,0.2,9426.450113721192,Y,d,go,d,1,,0.48375705536454916,,,,,,,,,,,,,,,,,93,001,19,weiblich,psychologie,2023-02-07_09h17.55.805,00_bat_bachelor,2022.2.4,60.050864798040294,
,,,,,,,,,,,,1,0,1,0,17,0,17,0,,,,,,,17,,,0.2,9427.234298068564,X,l,go,l,1,,0.5644600461237133,,,,,,,,,,,,,,,,,93,001,19,weiblich,psychologie,2023-02-07_09h17.55.805,00_bat_bachelor,2022.2.4,60.050864798040294,
,,,,,,,,,,,,1,0,1,0,18,0,18,0,,,,,,,18,,,0.2,9428.101393405814,X,None,nogo,None,1,9428.902193502057,,,,,,,,,,,,,,,,,,93,001,19,weiblich,psychologie,2023-02-07_09h17.55.805,00_bat_bachelor,2022.2.4,60.050864798040294,
,,,,,,,,,,,,1,0,1,0,19,0,19,0,,,,,,,19,,,0.2,9429.102387829218,Y,d,go,l,0,,0.3915888573974371,,,,,,,,,,,,,,,,,93,001,19,weiblich,psychologie,2023-02-07_09h17.55.805,00_bat_bachelor,2022.2.4,60.050864798040294,
,,,,,,,,,,,,1,0,1,0,20,0,20,0,,,,,,,20,,,0.2,9429.80281173205,X,l,go,l,1,,0.6028212402015924,,,,,,,,,,,,,,,,,93,001,19,weiblich,psychologie,2023-02-07_09h17.55.805,00_bat_bachelor,2022.2.4,60.050864798040294,
,,,,,,,,,,,,1,0,1,0,21,0,21,0,,,,,,,21,,,0.2,9430.72007722687,Y,d,go,d,1,,0.40622254740446806,,,,,,,,,,,,,,,,,93,001,19,weiblich,psychologie,2023-02-07_09h17.55.805,00_bat_bachelor,2022.2.4,60.050864798040294,
,,,,,,,,,,,,1,0,1,0,22,0,22,0,,,,,,,22,,,0.2,9431.43752027303,Y,None,nogo,l,0,,0.3923432817682624,,,,,,,,,,,,,,,,,93,001,19,weiblich,psychologie,2023-02-07_09h17.55.805,00_bat_bachelor,2022.2.4,60.050864798040294,
,,,,,,,,,,,,1,0,1,0,23,0,23,0,,,,,,,23,,,0.2,9432.137868054677,X,l,go,None,0,,,,,,,,,,,,,,,,,,,93,001,19,weiblich,psychologie,2023-02-07_09h17.55.805,00_bat_bachelor,2022.2.4,60.050864798040294,
,,,,,,,,,,,,1,0,1,0,24,0,24,0,,,,,,,24,,,0.2,9433.13871072093,Y,d,go,d,1,,0.5642806524410844,,,,,,,,,,,,,,,,,93,001,19,weiblich,psychologie,2023-02-07_09h17.55.805,00_bat_bachelor,2022.2.4,60.050864798040294,
,,,,,,,,,,,,1,0,1,0,25,0,25,0,,,,,,,25,,,0.2,9434.006125088315,X,l,go,l,1,,0.5434612683020532,,,,,,,,,,,,,,,,,93,001,19,weiblich,psychologie,2023-02-07_09h17.55.805,00_bat_bachelor,2022.2.4,60.050864798040294,
,,,,,,,,,,,,1,0,1,0,26,0,26,0,,,,,,,26,,,0.2,9434.856481039431,Y,d,go,d,1,,0.49388456530869007,,,,,,,,,,,,,,,,,93,001,19,weiblich,psychologie,2023-02-07_09h17.55.805,00_bat_bachelor,2022.2.4,60.050864798040294,
,,,,,,,,,,,,1,0,1,0,27,0,27,0,,,,,,,27,,,0.2,9435.657219560351,X,l,go,None,0,,,,,,,,,,,,,,,,,,,93,001,19,weiblich,psychologie,2023-02-07_09h17.55.805,00_bat_bachelor,2022.2.4,60.050864798040294,
,,,,,,,,,,,,1,0,1,0,28,0,28,0,,,,,,,28,,,0.2,9436.658149014227,Y,d,go,d,1,,0.3885027985088527,,,,,,,,,,,,,,,,,93,001,19,weiblich,psychologie,2023-02-07_09h17.55.805,00_bat_bachelor,2022.2.4,60.050864798040294,
,,,,,,,,,,,,1,0,1,0,29,0,29,0,,,,,,,29,,,0.2,9437.358595705125,X,l,go,l,1,,0.40743030421435833,,,,,,,,,,,,,,,,,93,001,19,weiblich,psychologie,2023-02-07_09h17.55.805,00_bat_bachelor,2022.2.4,60.050864798040294,
,,,,,,,,,,,,1,0,1,0,30,0,30,0,,,,,,,30,,,0.2,9438.075881175697,X,None,nogo,None,1,,,,,,,,,,,,,,,,,,,93,001,19,weiblich,psychologie,2023-02-07_09h17.55.805,00_bat_bachelor,2022.2.4,60.050864798040294,
,,,,,,,,,,,,1,0,1,0,31,0,31,0,,,,,,,31,,,0.2,9439.07645232696,Y,d,go,d,1,,0.43376580672338605,,,,,,,,,,,,,,,,,93,001,19,weiblich,psychologie,2023-02-07_09h17.55.805,00_bat_bachelor,2022.2.4,60.050864798040294,
,,,,,,,,,,,,1,0,1,0,32,0,32,0,,,,,,,32,,,0.2,9439.810297789052,X,l,go,l,1,,0.29124030005186796,,,,,,,,,,,,,,,,,93,001,19,weiblich,psychologie,2023-02-07_09h17.55.805,00_bat_bachelor,2022.2.4,60.050864798040294,
,,,,,,,,,,,,1,0,1,0,33,0,33,0,,,,,,,33,,,0.2,9440.411078588571,Y,d,go,d,1,,0.5551737477071583,,,,,,,,,,,,,,,,,93,001,19,weiblich,psychologie,2023-02-07_09h17.55.805,00_bat_bachelor,2022.2.4,60.050864798040294,
,,,,,,,,,,,,1,0,1,0,34,0,34,0,,,,,,,34,,,0.2,9441.278128834907,X,l,go,l,1,,0.42350738728418946,,,,,,,,,,,,,,,,,93,001,19,weiblich,psychologie,2023-02-07_09h17.55.805,00_bat_bachelor,2022.2.4,60.050864798040294,
,,,,,,,,,,,,1,0,1,0,35,0,35,0,,,,,,,35,,,0.2,9442.01196750952,Y,d,go,d,1,,0.4750613020732999,,,,,,,,,,,,,,,,,93,001,19,weiblich,psychologie,2023-02-07_09h17.55.805,00_bat_bachelor,2022.2.4,60.050864798040294,
,,,,,,,,,,,,1,0,1,0,36,0,36,0,,,,,,,36,,,0.2,9442.79608931113,Y,None,nogo,None,1,,,,,,,,,,,,,,,,,,,93,001,19,weiblich,psychologie,2023-02-07_09h17.55.805,00_bat_bachelor,2022.2.4,60.050864798040294,
,,,,,,,,,,,,1,0,1,0,37,0,37,0,,,,,,,37,,,0.2,9443.796874765307,X,l,go,l,1,,0.4977231090888381,,,,,,,,,,,,,,,,,93,001,19,weiblich,psychologie,2023-02-07_09h17.55.805,00_bat_bachelor,2022.2.4,60.050864798040294,
,,,,,,,,,,,,1,0,1,0,38,0,38,0,,,,,,,38,,,0.2,9444.597564316355,Y,d,go,d,1,,0.30487035401165485,,,,,,,,,,,,,,,,,93,001,19,weiblich,psychologie,2023-02-07_09h17.55.805,00_bat_bachelor,2022.2.4,60.050864798040294,
,,,,,,,,,,,,1,0,1,0,39,0,39,0,,,,,,,39,,,0.2,9445.214642320294,Y,None,nogo,d,0,,0.6647087247110903,,,,,,,,,,,,,,,,,93,001,19,weiblich,psychologie,2023-02-07_09h17.55.805,00_bat_bachelor,2022.2.4,60.050864798040294,
,,,,,,,,,,,,1,0,1,0,40,0,40,0,,,,,,,40,,,0.2,9446.182219063397,X,l,go,None,0,,,,,,,,,,,,,,,,,,,93,001,19,weiblich,psychologie,2023-02-07_09h17.55.805,00_bat_bachelor,2022.2.4,60.050864798040294,
,,,,,,,,,,,,1,0,1,0,41,0,41,0,,,,,,,41,,,0.2,9447.18283191137,Y,d,go,d,1,,0.5679645296186209,,,,,,,,,,,,,,,,,93,001,19,weiblich,psychologie,2023-02-07_09h17.55.805,00_bat_bachelor,2022.2.4,60.050864798040294,
,,,,,,,,,,,,1,0,1,0,42,0,42,0,,,,,,,42,,,0.2,9448.06684457371,X,l,go,l,1,,0.6119562657549977,,,,,,,,,,,,,,,,,93,001,19,weiblich,psychologie,2023-02-07_09h17.55.805,00_bat_bachelor,2022.2.4,60.050864798040294,
,,,,,,,,,,,,1,0,1,0,43,0,43,0,,,,,,,43,,,0.2,9448.984153219964,Y,d,go,d,1,,0.3979398845694959,,,,,,,,,,,,,,,,,93,001,19,weiblich,psychologie,2023-02-07_09h17.55.805,00_bat_bachelor,2022.2.4,60.050864798040294,
,,,,,,,,,,,,1,0,1,0,44,0,44,0,,,,,,,44,,,0.2,9449.684733244125,X,l,go,None,0,,,,,,,,,,,,,,,,,,,93,001,19,weiblich,psychologie,2023-02-07_09h17.55.805,00_bat_bachelor,2022.2.4,60.050864798040294,
,,,,,,,,,,,,1,0,1,0,45,0,45,0,,,,,,,45,,,0.2,9450.685272395145,X,None,nogo,d,0,,0.44128871196880937,,,,,,,,,,,,,,,,,93,001,19,weiblich,psychologie,2023-02-07_09h17.55.805,00_bat_bachelor,2022.2.4,60.050864798040294,
,,,,,,,,,,,,1,0,1,0,46,0,46,0,,,,,,,46,,,0.2,9451.435809728224,Y,d,go,None,0,,,,,,,,,,,,,,,,,,,93,001,19,weiblich,psychologie,2023-02-07_09h17.55.805,00_bat_bachelor,2022.2.4,60.050864798040294,
,,,,,,,,,,,,1,0,1,0,47,0,47,0,,,,,,,47,,,0.2,9452.436789606698,X,l,go,l,1,,0.40152970096096396,,,,,,,,,,,,,,,,,93,001,19,weiblich,psychologie,2023-02-07_09h17.55.805,00_bat_bachelor,2022.2.4,60.050864798040294,
,,,,,,,,,,,,1,0,1,0,48,0,48,0,,,,,,,48,,,0.2,9453.154070228338,Y,d,go,d,1,,0.3717638971284032,,,,,,,,,,,,,,,,,93,001,19,weiblich,psychologie,2023-02-07_09h17.55.805,00_bat_bachelor,2022.2.4,60.050864798040294,
,,,,,,,,,,,,1,0,1,0,49,0,49,0,,,,,,,49,,,0.2,9453.837824563496,X,l,go,None,0,,,,,,,,,,,,,,,,,,,93,001,19,weiblich,psychologie,2023-02-07_09h17.55.805,00_bat_bachelor,2022.2.4,60.050864798040294,
,,,,,,,,,,,,1,0,1,0,50,0,50,0,,,,,,,50,,,0.2,9454.838786017615,X,None,nogo,d,0,,0.4147195126861334,,,,,,,,,,,,,,,,,93,001,19,weiblich,psychologie,2023-02-07_09h17.55.805,00_bat_bachelor,2022.2.4,60.050864798040294,
,,,,,,,,,,,,1,0,1,0,51,0,51,0,,,,,,,51,,,0.2,9455.555853791535,Y,d,go,l,0,,0.6428449777886271,,,,,,,,,,,,,,,,,93,001,19,weiblich,psychologie,2023-02-07_09h17.55.805,00_bat_bachelor,2022.2.4,60.050864798040294,
,,,,,,,,,,,,1,0,1,0,52,0,52,0,,,,,,,52,,,0.2,9456.506645088084,X,l,go,None,0,9457.306943366304,,,,,,,,,,,,,,,,,,93,001,19,weiblich,psychologie,2023-02-07_09h17.55.805,00_bat_bachelor,2022.2.4,60.050864798040294,
,,,,,,,,,,,,1,0,1,0,53,0,53,0,,,,,,,53,,,0.2,9457.507312723901,X,None,nogo,d,0,,0.09873760584741831,,,,,,,,,,,,,,,,,93,001,19,weiblich,psychologie,2023-02-07_09h17.55.805,00_bat_bachelor,2022.2.4,60.050864798040294,
,,,,,,,,,,,,1,0,1,0,54,0,54,0,,,,,,,54,,,0.2,9457.907611681148,Y,d,go,None,0,,,,,,,,,,,,,,,,,,,93,001,19,weiblich,psychologie,2023-02-07_09h17.55.805,00_bat_bachelor,2022.2.4,60.050864798040294,
,,,,,,,,,,,,1,0,1,0,55,0,55,0,,,,,,,55,,,0.2,9458.90835398389,X,l,go,l,1,,0.32971591781824827,,,,,,,,,,,,,,,,,93,001,19,weiblich,psychologie,2023-02-07_09h17.55.805,00_bat_bachelor,2022.2.4,60.050864798040294,
,,,,,,,,,,,,1,0,1,0,56,0,56,0,,,,,,,56,,,0.2,9459.54217428295,Y,d,go,d,1,,0.43221283750608563,,,,,,,,,,,,,,,,,93,001,19,weiblich,psychologie,2023-02-07_09h17.55.805,00_bat_bachelor,2022.2.4,60.050864798040294,
,,,,,,,,,,,,1,0,1,0,57,0,57,0,,,,,,,57,,,0.2,9460.276132230181,X,l,go,l,1,,0.3701323829591274,,,,,,,,,,,,,,,,,93,001,19,weiblich,psychologie,2023-02-07_09h17.55.805,00_bat_bachelor,2022.2.4,60.050864798040294,
,,,,,,,,,,,,1,0,1,0,58,0,58,0,,,,,,,58,,,0.2,9460.9600198986,X,None,nogo,d,0,,0.40658327424898744,,,,,,,,,,,,,,,,,93,001,19,weiblich,psychologie,2023-02-07_09h17.55.805,00_bat_bachelor,2022.2.4,60.050864798040294,
,,,,,,,,,,,,1,0,1,0,59,0,59,0,,,,,,,59,,,0.2,9461.67718852032,Y,d,go,None,0,,,,,,,,,,,,,,,,,,,93,001,19,weiblich,psychologie,2023-02-07_09h17.55.805,00_bat_bachelor,2022.2.4,60.050864798040294,
,,,,,,,,,,,,1,0,1,0,60,0,60,0,,,,,,,60,,,0.2,9462.67768791411,X,l,go,l,1,,0.40094109531491995,,,,,,,,,,,,,,,,,93,001,19,weiblich,psychologie,2023-02-07_09h17.55.805,00_bat_bachelor,2022.2.4,60.050864798040294,
,,,,,,,,,,,,1,0,1,0,61,0,61,0,,,,,,,61,,,0.2,9463.395103808492,X,None,nogo,l,0,,0.6591179398819804,,,,,,,,,,,,,,,,,93,001,19,weiblich,psychologie,2023-02-07_09h17.55.805,00_bat_bachelor,2022.2.4,60.050864798040294,
,,,,,,,,,,,,1,0,1,0,62,0,62,0,,,,,,,62,,,0.2,9464.362580672838,Y,d,go,d,1,,0.6357623147778213,,,,,,,,,,,,,,,,,93,001,19,weiblich,psychologie,2023-02-07_09h17.55.805,00_bat_bachelor,2022.2.4,60.050864798040294,
,,,,,,,,,,,,1,0,1,0,63,0,63,0,,,,,,,63,,,0.2,9465.313011242542,X,l,go,None,0,,,,,,,,,,,,,,,,,,,93,001,19,weiblich,psychologie,2023-02-07_09h17.55.805,00_bat_bachelor,2022.2.4,60.050864798040294,
,,,,,,,,,,,,1,0,1,0,64,0,64,0,,,,,,,64,,,0.2,9466.313865059987,X,None,nogo,l,0,,0.5080697708763182,,,,,,,,,,,,,,,,,93,001,19,weiblich,psychologie,2023-02-07_09h17.55.805,00_bat_bachelor,2022.2.4,60.050864798040294,
,,,,,,,,,,,,1,0,1,0,65,0,65,0,,,,,,,65,,,0.2,9467.13129836088,Y,d,go,d,1,,0.6503673987463117,,,,,,,,,,,,,,,,,93,001,19,weiblich,psychologie,2023-02-07_09h17.55.805,00_bat_bachelor,2022.2.4,60.050864798040294,
,,,,,,,,,,,,1,0,1,0,66,0,66,0,,,,,,,66,,,0.2,9468.081827354617,X,l,go,l,1,,0.5660270759835839,,,,,,,,,,,,,,,,,93,001,19,weiblich,psychologie,2023-02-07_09h17.55.805,00_bat_bachelor,2022.2.4,60.050864798040294,
,,,,,,,,,,,,1,0,1,0,67,0,67,0,,,,,,,67,,,0.2,9468.949421115685,X,None,nogo,None,1,,,,,,,,,,,,,,,,,,,93,001,19,weiblich,psychologie,2023-02-07_09h17.55.805,00_bat_bachelor,2022.2.4,60.050864798040294,
,,,,,,,,,,,,1,0,1,0,68,0,68,0,,,,,,,68,,,0.2,9469.95014256984,Y,d,go,d,1,,0.45618567476049066,,,,,,,,,,,,,,,,,93,001,19,weiblich,psychologie,2023-02-07_09h17.55.805,00_bat_bachelor,2022.2.4,60.050864798040294,
,,,,,,,,,,,,1,0,1,0,69,0,69,0,,,,,,,69,,,0.2,9470.717445955612,X,l,go,l,1,,0.4246244775131345,,,,,,,,,,,,,,,,,93,001,19,weiblich,psychologie,2023-02-07_09h17.55.805,00_bat_bachelor,2022.2.4,60.050864798040294,
,,,,,,,,,,,,1,0,1,0,70,0,70,0,,,,,,,70,,,0.2,9471.451060145162,Y,d,go,d,1,,0.47487075673416257,,,,,,,,,,,,,,,,,93,001,19,weiblich,psychologie,2023-02-07_09h17.55.805,00_bat_bachelor,2022.2.4,60.050864798040294,
,,,,,,,,,,,,1,0,1,0,71,0,71,0,,,,,,,71,,,0.2,9472.235053461976,Y,None,nogo,None,1,,,,,,,,,,,,,,,,,,,93,001,19,weiblich,psychologie,2023-02-07_09h17.55.805,00_bat_bachelor,2022.2.4,60.050864798040294,
,,,,,,,,,,,,1,0,1,0,72,0,72,0,,,,,,,72,,,0.2,9473.235900007188,X,l,go,l,1,,0.2897498765960336,,,,,,,,,,,,,,,,,93,001,19,weiblich,psychologie,2023-02-07_09h17.55.805,00_bat_bachelor,2022.2.4,60.050864798040294,
,,,,,,,,,,,,1,0,1,0,73,0,73,0,,,,,,,73,,,0.2,9473.836294867564,Y,d,go,d,1,,0.44203101471066475,,,,,,,,,,,,,,,,,93,001,19,weiblich,psychologie,2023-02-07_09h17.55.805,00_bat_bachelor,2022.2.4,60.050864798040294,
,,,,,,,,,,,,1,0,1,0,74,0,74,0,,,,,,,74,,,0.2,9474.58699316997,Y,None,nogo,None,1,,,,,,,,,,,,,,,,,,,93,001,19,weiblich,psychologie,2023-02-07_09h17.55.805,00_bat_bachelor,2022.2.4,60.050864798040294,
,,,,,,,,,,,,1,0,1,0,75,0,75,0,,,,,,,75,,,0.2,9475.587530866731,X,l,go,l,1,,0.24202286917716265,,,,,,,,,,,,,,,,,93,001,19,weiblich,psychologie,2023-02-07_09h17.55.805,00_bat_bachelor,2022.2.4,60.050864798040294,
,,,,,,,,,,,,1,0,1,0,76,0,76,0,,,,,,,76,,,0.2,9476.138343205675,Y,d,go,d,1,,0.5394123010337353,,,,,,,,,,,,,,,,,93,001,19,weiblich,psychologie,2023-02-07_09h17.55.805,00_bat_bachelor,2022.2.4,60.050864798040294,
,,,,,,,,,,,,1,0,1,0,77,0,77,0,,,,,,,77,,,0.2,9477.006052845623,X,l,go,None,0,9477.80672494229,,,,,,,,,,,,,,,,,,93,001,19,weiblich,psychologie,2023-02-07_09h17.55.805,00_bat_bachelor,2022.2.4,60.050864798040294,
,,,,,,,,,,,,1,0,1,0,78,0,78,0,,,,,,,78,,,0.2,9478.007034178823,Y,d,go,d,1,,0.4788280879147351,,,,,,,,,,,,,,,,,93,001,19,weiblich,psychologie,2023-02-07_09h17.55.805,00_bat_bachelor,2022.2.4,60.050864798040294,
,,,,,,,,,,,,1,0,1,0,79,0,79,0,,,,,,,79,,,0.2,9478.824383600615,Y,None,nogo,None,1,9479.624991212506,,,,,,,,,,,,,,,,,,93,001,19,weiblich,psychologie,2023-02-07_09h17.55.805,00_bat_bachelor,2022.2.4,60.050864798040294,
,,,,,,,,,,,,1,0,1,0,80,0,80,0,,,,,,,80,,,0.2,9479.825159842614,X,l,go,l,1,,0.356789359357208,,,,,,,,,,,,,,,,,93,001,19,weiblich,psychologie,2023-02-07_09h17.55.805,00_bat_bachelor,2022.2.4,60.050864798040294,
,,,,,,,,,,,,1,0,1,0,81,0,81,0,,,,,,,81,,,0.2,9480.525705442298,Y,d,go,d,1,,0.3611195385456085,,,,,,,,,,,,,,,,,93,001,19,weiblich,psychologie,2023-02-07_09h17.55.805,00_bat_bachelor,2022.2.4,60.050864798040294,
,,,,,,,,,,,,1,0,1,0,82,0,82,0,,,,,,,82,,,0.2,9481.209516989533,Y,None,nogo,None,1,9482.009943753015,,,,,,,,,,,,,,,,,,93,001,19,weiblich,psychologie,2023-02-07_09h17.55.805,00_bat_bachelor,2022.2.4,60.050864798040294,
,,,,,,,,,,,,1,0,1,0,83,0,83,0,,,,,,,83,,,0.2,9482.210233110469,X,l,go,l,1,,0.24257947504520416,,,,,,,,,,,,,,,,,93,001,19,weiblich,psychologie,2023-02-07_09h17.55.805,00_bat_bachelor,2022.2.4,60.050864798040294,
,,,,,,,,,,,,1,0,1,0,84,0,84,0,,,,,,,84,,,0.2,9482.794042281806,Y,d,go,d,1,,0.3973740669898689,,,,,,,,,,,,,,,,,93,001,19,weiblich,psychologie,2023-02-07_09h17.55.805,00_bat_bachelor,2022.2.4,60.050864798040294,
,,,,,,,,,,,,1,0,1,0,85,0,85,0,,,,,,,85,,,0.2,9483.510983509943,Y,None,nogo,None,1,9484.311692940071,,,,,,,,,,,,,,,,,,93,001,19,weiblich,psychologie,2023-02-07_09h17.55.805,00_bat_bachelor,2022.2.4,60.050864798040294,
,,,,,,,,,,,,1,0,1,0,86,0,86,0,,,,,,,86,,,0.2,9484.5119987824,X,l,go,l,1,,0.14986776234582067,,,,,,,,,,,,,,,,,93,001,19,weiblich,psychologie,2023-02-07_09h17.55.805,00_bat_bachelor,2022.2.4,60.050864798040294,
,,,,,,,,,,,,1,0,1,0,87,0,87,0,,,,,,,87,,,0.2,9484.979003162123,Y,d,go,d,1,,0.5483170235529542,,,,,,,,,,,,,,,,,93,001,19,weiblich,psychologie,2023-02-07_09h17.55.805,00_bat_bachelor,2022.2.4,60.050864798040294,
,,,,,,,,,,,,1,0,1,0,88,0,88,0,,,,,,,88,,,0.2,9485.846352559514,Y,None,nogo,None,1,9486.646780292504,,,,,,,,,,,,,,,,,,93,001,19,weiblich,psychologie,2023-02-07_09h17.55.805,00_bat_bachelor,2022.2.4,60.050864798040294,
,,,,,,,,,,,,1,0,1,0,89,0,89,0,,,,,,,89,,,0.2,9486.846863104962,X,l,go,l,1,,0.32686791894957423,,,,,,,,,,,,,,,,,93,001,19,weiblich,psychologie,2023-02-07_09h17.55.805,00_bat_bachelor,2022.2.4,60.050864798040294,
,,,,,,,,,,,,1,0,1,0,90,0,90,0,,,,,,,90,,,0.2,9487.48072316125,Y,d,go,d,1,,0.34869578713551164,,,,,,,,,,,,,,,,,93,001,19,weiblich,psychologie,2023-02-07_09h17.55.805,00_bat_bachelor,2022.2.4,60.050864798040294,
,,,,,,,,,,,,1,0,1,0,91,0,91,0,,,,,,,91,,,0.2,9488.148081382737,X,l,go,None,0,9488.948660388589,,,,,,,,,,,,,,,,,,93,001,19,weiblich,psychologie,2023-02-07_09h17.55.805,00_bat_bachelor,2022.2.4,60.050864798040294,
,,,,,,,,,,,,1,0,1,0,92,0,92,0,,,,,,,92,,,0.2,9489.148856655229,Y,d,go,l,0,,0.20066482853144407,,,,,,,,,,,,,,,,,93,001,19,weiblich,psychologie,2023-02-07_09h17.55.805,00_bat_bachelor,2022.2.4,60.050864798040294,
,,,,,,,,,,,,1,0,1,0,93,0,93,0,,,,,,,93,,,0.2,9489.665962828789,X,l,go,None,0,9490.466544258874,,,,,,,,,,,,,,,,,,93,001,19,weiblich,psychologie,2023-02-07_09h17.55.805,00_bat_bachelor,2022.2.4,60.050864798040294,
,,,,,,,,,,,,1,0,1,0,94,0,94,0,,,,,,,94,,,0.2,9490.666461252607,Y,d,go,None,0,9491.467427167576,,,,,,,,,,,,,,,,,,93,001,19,weiblich,psychologie,2023-02-07_09h17.55.805,00_bat_bachelor,2022.2.4,60.050864798040294,
,,,,,,,,,,,,1,0,1,0,95,0,95,0,,,,,,,95,,,0.2,9491.667494464666,X,l,go,l,1,,0.6104668118059635,,,,,,,,,,,,,,,,,93,001,19,weiblich,psychologie,2023-02-07_09h17.55.805,00_bat_bachelor,2022.2.4,60.050864798040294,
,,,,,,,,,,,,1,0,1,0,96,0,96,0,,,,,,,96,,,0.2,9492.618126246147,X,None,nogo,None,1,9493.418740160763,,,,,,,,,,,,,,,,,,93,001,19,weiblich,psychologie,2023-02-07_09h17.55.805,00_bat_bachelor,2022.2.4,60.050864798040294,
,,,,,,,,,,,,1,0,1,0,97,0,97,0,,,,,,,97,,,0.2,9493.618708548602,X,None,nogo,d,0,,0.3547588149085641,,,,,,,,,,,,,,,,,93,001,19,weiblich,psychologie,2023-02-07_09h17.55.805,00_bat_bachelor,2022.2.4,60.050864798040294,
,,,,,,,,,,,,1,0,1,0,98,0,98,0,,,,,,,98,,,0.2,9494.319491724018,Y,d,go,None,0,9495.120076547842,,,,,,,,,,,,,,,,,,93,001,19,weiblich,psychologie,2023-02-07_09h17.55.805,00_bat_bachelor,2022.2.4,60.050864798040294,
,,,,,,,,,,,,1,0,1,0,99,0,99,0,,,,,,,99,,,0.2,9495.320292208344,X,l,go,None,0,9496.120696184225,,,,,,,,,,,,,,,,,,93,001,19,weiblich,psychologie,2023-02-07_09h17.55.805,00_bat_bachelor,2022.2.4,60.050864798040294,
,,,,,,,,,,,,1,0,1,0,100,0,100,0,,,,,,,100,,,0.2,9496.321036935318,X,None,nogo,l,0,,0.6437278864905238,,,,,,,,,,,,,,,,,93,001,19,weiblich,psychologie,2023-02-07_09h17.55.805,00_bat_bachelor,2022.2.4,60.050864798040294,
,,,,,,,,,,,,1,0,1,0,101,0,101,0,,,,,,,101,,,0.2,9497.305063609965,X,None,nogo,None,1,9498.10573134292,,,,,,,,,,,,,,,,,,93,001,19,weiblich,psychologie,2023-02-07_09h17.55.805,00_bat_bachelor,2022.2.4,60.050864798040294,
,,,,,,,,,,,,1,0,1,0,102,0,102,0,,,,,,,102,,,0.2,9498.305865063798,Y,d,go,d,1,,0.35598887456580997,,,,,,,,,,,,,,,,,93,001,19,weiblich,psychologie,2023-02-07_09h17.55.805,00_bat_bachelor,2022.2.4,60.050864798040294,
,,,,,,,,,,,,1,0,1,0,103,0,103,0,,,,,,,103,,,0.2,9499.00614836067,X,l,go,l,1,,0.5998311811126769,,,,,,,,,,,,,,,,,93,001,19,weiblich,psychologie,2023-02-07_09h17.55.805,00_bat_bachelor,2022.2.4,60.050864798040294,
,,,,,,,,,,,,1,0,1,0,104,0,104,0,,,,,,,104,,,0.2,9499.907208772376,Y,d,go,None,0,9500.70782511169,,,,,,,,,,,,,,,,,,93,001,19,weiblich,psychologie,2023-02-07_09h17.55.805,00_bat_bachelor,2022.2.4,60.050864798040294,
,,,,,,,,,,,,1,0,1,0,105,0,105,0,,,,,,,105,,,0.2,9500.908042226452,X,l,go,None,0,9501.708260990214,,,,,,,,,,,,,,,,,,93,001,19,weiblich,psychologie,2023-02-07_09h17.55.805,00_bat_bachelor,2022.2.4,60.050864798040294,
,,,,,,,,,,,,1,0,1,0,106,0,106,0,,,,,,,106,,,0.2,9501.908712771721,Y,d,go,l,0,,0.3528383309021592,,,,,,,,,,,,,,,,,93,001,19,weiblich,psychologie,2023-02-07_09h17.55.805,00_bat_bachelor,2022.2.4,60.050864798040294,
,,,,,,,,,,,,1,0,1,0,107,0,107,0,,,,,,,107,,,0.2,9502.60934952274,Y,None,nogo,None,1,9503.409789862111,,,,,,,,,,,,,,,,,,93,001,19,weiblich,psychologie,2023-02-07_09h17.55.805,00_bat_bachelor,2022.2.4,60.050864798040294,
,,,,,,,,,,,,1,0,1,0,108,0,108,0,,,,,,,108,,,0.2,9503.609930370934,X,l,go,l,1,,0.37948849936947227,,,,,,,,,,,,,,,,,93,001,19,weiblich,psychologie,2023-02-07_09h17.55.805,00_bat_bachelor,2022.2.4,60.050864798040294,
,,,,,,,,,,,,1,0,1,0,109,0,109,0,,,,,,,109,,,0.2,9504.327051962726,Y,d,go,d,1,,0.3343660971149802,,,,,,,,,,,,,,,,,93,001,19,weiblich,psychologie,2023-02-07_09h17.55.805,00_bat_bachelor,2022.2.4,60.050864798040294,
,,,,,,,,,,,,1,0,1,0,110,0,110,0,,,,,,,110,,,0.2,9504.994291396812,X,l,go,l,1,,0.3237270722165704,,,,,,,,,,,,,,,,,93,001,19,weiblich,psychologie,2023-02-07_09h17.55.805,00_bat_bachelor,2022.2.4,60.050864798040294,
,,,,,,,,,,,,1,0,1,0,111,0,111,0,,,,,,,111,,,0.2,9505.661224406678,Y,d,go,None,0,9506.462199048605,,,,,,,,,,,,,,,,,,93,001,19,weiblich,psychologie,2023-02-07_09h17.55.805,00_bat_bachelor,2022.2.4,60.050864798040294,
,,,,,,,,,,,,1,0,1,0,112,0,112,0,,,,,,,112,,,0.2,9506.662238709629,X,l,go,l,1,,0.5599558060057461,,,,,,,,,,,,,,,,,93,001,19,weiblich,psychologie,2023-02-07_09h17.55.805,00_bat_bachelor,2022.2.4,60.050864798040294,
,,,,,,,,,,,,1,0,1,0,113,0,113,0,,,,,,,113,,,0.2,9507.54621112952,Y,d,go,d,1,,0.37907783314585686,,,,,,,,,,,,,,,,,93,001,19,weiblich,psychologie,2023-02-07_09h17.55.805,00_bat_bachelor,2022.2.4,60.050864798040294,
,,,,,,,,,,,,1,0,1,0,114,0,114,0,,,,,,,114,,,0.2,9508.263462175615,Y,None,nogo,None,1,9509.064076090232,,,,,,,,,,,,,,,,,,93,001,19,weiblich,psychologie,2023-02-07_09h17.55.805,00_bat_bachelor,2022.2.4,60.050864798040294,
,,,,,,,,,,,,1,0,1,0,115,0,115,0,,,,,,,115,,,0.2,9509.264178781305,X,l,go,l,1,,0.27704394329339266,,,,,,,,,,,,,,,,,93,001,19,weiblich,psychologie,2023-02-07_09h17.55.805,00_bat_bachelor,2022.2.4,60.050864798040294,
,,,,,,,,,,,,1,0,1,0,116,0,116,0,,,,,,,116,,,0.2,9509.881315451581,Y,d,go,d,1,,0.30003447737544775,,,,,,,,,,,,,,,,,93,001,19,weiblich,psychologie,2023-02-07_09h17.55.805,00_bat_bachelor,2022.2.4,60.050864798040294,
,,,,,,,,,,,,1,0,1,0,117,0,117,0,,,,,,,117,,,0.2,9510.515125083737,X,l,go,l,1,,0.38629285991191864,,,,,,,,,,,,,,,,,93,001,19,weiblich,psychologie,2023-02-07_09h17.55.805,00_bat_bachelor,2022.2.4,60.050864798040294,
,,,,,,,,,,,,1,0,1,0,118,0,118,0,,,,,,,118,,,0.2,9511.232349463273,Y,d,go,d,1,,0.43704192666336894,,,,,,,,,,,,,,,,,93,001,19,weiblich,psychologie,2023-02-07_09h17.55.805,00_bat_bachelor,2022.2.4,60.050864798040294,
,,,,,,,,,,,,1,0,1,0,119,0,119,0,,,,,,,119,,,0.2,9512.016111507546,X,l,go,l,1,,0.6297763781622052,,,,,,,,,,,,,,,,,93,001,19,weiblich,psychologie,2023-02-07_09h17.55.805,00_bat_bachelor,2022.2.4,60.050864798040294,
,,,,,,,,,,,,1,0,1,0,120,0,120,0,,,,,,,120,,,0.2,9512.96675541019,X,None,nogo,None,1,9513.767563749105,,,,,,,,,,,,,,,,,,93,001,19,weiblich,psychologie,2023-02-07_09h17.55.805,00_bat_bachelor,2022.2.4,60.050864798040294,
,,,,,,,,,,,,1,0,1,0,121,0,121,0,,,,,,,121,,,0.2,9513.96792874299,Y,d,go,l,0,,0.3735457146540284,,,,,,,,,,,,,,,,,93,001,19,weiblich,psychologie,2023-02-07_09h17.55.805,00_bat_bachelor,2022.2.4,60.050864798040294,
,,,,,,,,,,,,1,0,1,0,122,0,122,0,,,,,,,122,,,0.2,9514.668097130954,X,l,go,l,1,,0.6016910588368773,,,,,,,,,,,,,,,,,93,001,19,weiblich,psychologie,2023-02-07_09h17.55.805,00_bat_bachelor,2022.2.4,60.050864798040294,
,,,,,,,,,,,,1,0,1,0,123,0,123,0,,,,,,,123,,,0.2,9515.585706867743,Y,d,go,d,1,,0.40412509348243475,,,,,,,,,,,,,,,,,93,001,19,weiblich,psychologie,2023-02-07_09h17.55.805,00_bat_bachelor,2022.2.4,60.050864798040294,
,,,,,,,,,,,,1,0,1,0,124,0,124,0,,,,,,,124,,,0.2,9516.33621317055,Y,None,nogo,l,0,,0.37314280588179827,,,,,,,,,,,,,,,,,93,001,19,weiblich,psychologie,2023-02-07_09h17.55.805,00_bat_bachelor,2022.2.4,60.050864798040294,
,,,,,,,,,,,,1,0,1,0,125,0,125,0,,,,,,,125,,,0.2,9517.053251853213,X,l,go,None,0,9517.85425122222,,,,,,,,,,,,,,,,,,93,001,19,weiblich,psychologie,2023-02-07_09h17.55.805,00_bat_bachelor,2022.2.4,60.050864798040294,
,,,,,,,,,,,,1,0,1,0,126,0,126,0,,,,,,,126,,,0.2,9518.054186640773,Y,d,go,d,1,,0.5121667385101318,,,,,,,,,,,,,,,,,93,001,19,weiblich,psychologie,2023-02-07_09h17.55.805,00_bat_bachelor,2022.2.4,60.050864798040294,
,,,,,,,,,,,,1,0,1,0,127,0,127,0,,,,,,,127,,,0.2,9518.887980660424,Y,None,nogo,d,0,,0.5895703369751573,,,,,,,,,,,,,,,,,93,001,19,weiblich,psychologie,2023-02-07_09h17.55.805,00_bat_bachelor,2022.2.4,60.050864798040294,
,,,,,,,,,,,,1,0,1,0,128,0,128,0,,,,,,,128,,,0.2,9519.805578276515,X,l,go,None,0,9520.606261039618,,,,,,,,,,,,,,,,,,93,001,19,weiblich,psychologie,2023-02-07_09h17.55.805,00_bat_bachelor,2022.2.4,60.050864798040294,
,,,,,,,,,,,,1,0,1,0,129,0,129,0,,,,,,,129,,,0.2,9520.806112094317,Y,d,go,d,1,,0.4147321190685034,,,,,,,,,,,,,,,,,93,001,19,weiblich,psychologie,2023-02-07_09h17.55.805,00_bat_bachelor,2022.2.4,60.050864798040294,
,,,,,,,,,,,,1,0,1,0,130,0,130,0,,,,,,,130,,,0.2,9521.556874881499,Y,None,nogo,None,1,9522.357463099528,,,,,,,,,,,,,,,,,,93,001,19,weiblich,psychologie,2023-02-07_09h17.55.805,00_bat_bachelor,2022.2.4,60.050864798040294,
,,,,,,,,,,,,1,0,1,0,131,0,131,0,,,,,,,131,,,0.2,9522.557678275276,X,l,go,l,1,,0.39280970534309745,,,,,,,,,,,,,,,,,93,001,19,weiblich,psychologie,2023-02-07_09h17.55.805,00_bat_bachelor,2022.2.4,60.050864798040294,
,,,,,,,,,,,,1,0,1,0,132,0,132,0,,,,,,,132,,,0.2,9523.27483671531,Y,d,go,d,1,,0.36192632652819157,,,,,,,,,,,,,,,,,93,001,19,weiblich,psychologie,2023-02-07_09h17.55.805,00_bat_bachelor,2022.2.4,60.050864798040294,
,,,,,,,,,,,,1,0,1,0,133,0,133,0,,,,,,,133,,,0.2,9523.958477596287,Y,None,nogo,None,1,9524.759450298734,,,,,,,,,,,,,,,,,,93,001,19,weiblich,psychologie,2023-02-07_09h17.55.805,00_bat_bachelor,2022.2.4,60.050864798040294,
,,,,,,,,,,,,1,0,1,0,134,0,134,0,,,,,,,134,,,0.2,9524.959454565309,X,l,go,l,1,,0.3424160326831043,,,,,,,,,,,,,,,,,93,001,19,weiblich,psychologie,2023-02-07_09h17.55.805,00_bat_bachelor,2022.2.4,60.050864798040294,
,,,,,,,,,,,,1,0,1,0,135,0,135,0,,,,,,,135,,,0.2,9525.643134234007,Y,d,go,d,1,,0.44319271109998226,,,,,,,,,,,,,,,,,93,001,19,weiblich,psychologie,2023-02-07_09h17.55.805,00_bat_bachelor,2022.2.4,60.050864798040294,
,,,,,,,,,,,,1,0,1,0,136,0,136,0,,,,,,,136,,,0.2,9526.41057774052,X,l,go,l,1,,0.4903025063686073,,,,,,,,,,,,,,,,,93,001,19,weiblich,psychologie,2023-02-07_09h17.55.805,00_bat_bachelor,2022.2.4,60.050864798040294,
,,,,,,,,,,,,1,0,1,0,137,0,137,0,,,,,,,137,,,0.2,9527.227864617016,Y,d,go,d,1,,0.40985260577872396,,,,,,,,,,,,,,,,,93,001,19,weiblich,psychologie,2023-02-07_09h17.55.805,00_bat_bachelor,2022.2.4,60.050864798040294,
,,,,,,,,,,,,1,0,1,0,138,0,138,0,,,,,,,138,,,0.2,9527.961715412792,Y,None,nogo,None,1,9528.762415630743,,,,,,,,,,,,,,,,,,93,001,19,weiblich,psychologie,2023-02-07_09h17.55.805,00_bat_bachelor,2022.2.4,60.050864798040294,
,,,,,,,,,,,,1,0,1,0,139,0,139,0,,,,,,,139,,,0.2,9528.962347169872,X,l,go,l,1,,0.3391292467713356,,,,,,,,,,,,,,,,,93,001,19,weiblich,psychologie,2023-02-07_09h17.55.805,00_bat_bachelor,2022.2.4,60.050864798040294,
,,,,,,,,,,,,1,0,1,0,140,0,140,0,,,,,,,140,,,0.2,9529.646455444396,Y,d,go,d,1,,0.343624759465456,,,,,,,,,,,,,,,,,93,001,19,weiblich,psychologie,2023-02-07_09h17.55.805,00_bat_bachelor,2022.2.4,60.050864798040294,
,,,,,,,,,,,,1,0,1,0,141,0,141,0,,,,,,,141,,,0.2,9530.330007597804,X,l,go,l,1,,0.5545662329532206,,,,,,,,,,,,,,,,,93,001,19,weiblich,psychologie,2023-02-07_09h17.55.805,00_bat_bachelor,2022.2.4,60.050864798040294,
,,,,,,,,,,,,1,0,1,0,142,0,142,0,,,,,,,142,,,0.2,9531.214234563056,Y,d,go,d,1,,0.3433037898503244,,,,,,,,,,,,,,,,,93,001,19,weiblich,psychologie,2023-02-07_09h17.55.805,00_bat_bachelor,2022.2.4,60.050864798040294,
,,,,,,,,,,,,1,0,1,0,143,0,143,0,,,,,,,143,,,0.2,9531.897871079855,X,l,go,l,1,,0.5548217478208244,,,,,,,,,,,,,,,,,93,001,19,weiblich,psychologie,2023-02-07_09h17.55.805,00_bat_bachelor,2022.2.4,60.050864798040294,
,,,,,,,,,,,,1,0,1,0,144,0,144,0,,,,,,,144,,,0.2,9532.798651734367,X,None,nogo,None,1,9533.599429527763,,,,,,,,,,,,,,,,,,93,001,19,weiblich,psychologie,2023-02-07_09h17.55.805,00_bat_bachelor,2022.2.4,60.050864798040294,
,,,,,,,,,,,,1,0,1,0,145,0,145,0,,,,,,,145,,,0.2,9533.799539491534,Y,d,go,d,1,,0.4316654442809522,,,,,,,,,,,,,,,,,93,001,19,weiblich,psychologie,2023-02-07_09h17.55.805,00_bat_bachelor,2022.2.4,60.050864798040294,
,,,,,,,,,,,,1,0,1,0,146,0,146,0,,,,,,,146,,,0.2,9534.550101551693,X,l,go,l,1,,0.36785892955958843,,,,,,,,,,,,,,,,,93,001,19,weiblich,psychologie,2023-02-07_09h17.55.805,00_bat_bachelor,2022.2.4,60.050864798040294,
,,,,,,,,,,,,1,0,1,0,147,0,147,0,,,,,,,147,,,0.2,9535.250419757795,Y,d,go,d,1,,0.48287947988137603,,,,,,,,,,,,,,,,,93,001,19,weiblich,psychologie,2023-02-07_09h17.55.805,00_bat_bachelor,2022.2.4,60.050864798040294,
,,,,,,,,,,,,1,0,1,0,148,0,148,0,,,,,,,148,,,0.2,9536.067931118887,Y,None,nogo,None,1,9536.868696306366,,,,,,,,,,,,,,,,,,93,001,19,weiblich,psychologie,2023-02-07_09h17.55.805,00_bat_bachelor,2022.2.4,60.050864798040294,
,,,,,,,,,,,,1,0,1,0,149,0,149,0,,,,,,,149,,,0.2,9537.068700572941,X,l,go,l,1,,0.39430837146937847,,,,,,,,,,,,,,,,,93,001,19,weiblich,psychologie,2023-02-07_09h17.55.805,00_bat_bachelor,2022.2.4,60.050864798040294,
,,,,,,,,,,,,1,0,1,0,150,0,150,0,,,,,,,150,,,0.2,9537.785911861807,Y,d,go,d,1,,0.37929165130481124,,,,,,,,,,,,,,,,,93,001,19,weiblich,psychologie,2023-02-07_09h17.55.805,00_bat_bachelor,2022.2.4,60.050864798040294,
,,,,,,,,,,,,1,0,1,0,151,0,151,0,,,,,,,151,,,0.2,9538.486452127807,X,l,go,l,1,,0.4316033832728863,,,,,,,,,,,,,,,,,93,001,19,weiblich,psychologie,2023-02-07_09h17.55.805,00_bat_bachelor,2022.2.4,60.050864798040294,
,,,,,,,,,,,,1,0,1,0,152,0,152,0,,,,,,,152,,,0.2,9539.220137105789,Y,d,go,d,1,,0.464732579421252,,,,,,,,,,,,,,,,,93,001,19,weiblich,psychologie,2023-02-07_09h17.55.805,00_bat_bachelor,2022.2.4,60.050864798040294,
,,,,,,,,,,,,1,0,1,0,153,0,153,0,,,,,,,153,,,0.2,9540.020909565967,Y,None,nogo,l,0,,0.41603248193860054,,,,,,,,,,,,,,,,,93,001,19,weiblich,psychologie,2023-02-07_09h17.55.805,00_bat_bachelor,2022.2.4,60.050864798040294,
,,,,,,,,,,,,1,0,1,0,154,0,154,0,,,,,,,154,,,0.2,9540.771299020387,X,l,go,None,0,9541.572236813605,,,,,,,,,,,,,,,,,,93,001,19,weiblich,psychologie,2023-02-07_09h17.55.805,00_bat_bachelor,2022.2.4,60.050864798040294,
,,,,,,,,,,,,1,0,1,0,155,0,155,0,,,,,,,155,,,0.2,9541.772296837997,Y,d,go,d,1,,0.456815492361784,,,,,,,,,,,,,,,,,93,001,19,weiblich,psychologie,2023-02-07_09h17.55.805,00_bat_bachelor,2022.2.4,60.050864798040294,
,,,,,,,,,,,,1,0,1,0,156,0,156,0,,,,,,,156,,,0.2,9542.556293063797,X,l,go,l,1,,0.4413856817409396,,,,,,,,,,,,,,,,,93,001,19,weiblich,psychologie,2023-02-07_09h17.55.805,00_bat_bachelor,2022.2.4,60.050864798040294,
,,,,,,,,,,,,1,0,1,0,157,0,157,0,,,,,,,157,,,0.2,9543.340237411205,X,None,nogo,None,1,9544.140573022887,,,,,,,,,,,,,,,,,,93,001,19,weiblich,psychologie,2023-02-07_09h17.55.805,00_bat_bachelor,2022.2.4,60.050864798040294,
,,,,,,,,,,,,1,0,1,0,158,0,158,0,,,,,,,158,,,0.2,9544.340909410734,Y,d,go,d,1,,0.48152529867365956,,,,,,,,,,,,,,,,,93,001,19,weiblich,psychologie,2023-02-07_09h17.55.805,00_bat_bachelor,2022.2.4,60.050864798040294,
,,,,,,,,,,,,1,0,1,0,159,0,159,0,,,,,,,159,,,0.2,9545.141355083324,X,l,go,l,1,,0.5922806388698518,,,,,,,,,,,,,,,,,93,001,19,weiblich,psychologie,2023-02-07_09h17.55.805,00_bat_bachelor,2022.2.4,60.050864798040294,
,,,,,,,,,,,,1,0,1,0,160,0,160,0,,,,,,,160,,,0.2,9546.07535705436,X,None,nogo,None,1,9546.875965636224,,,,,,,,,,,,,,,,,,93,001,19,weiblich,psychologie,2023-02-07_09h17.55.805,00_bat_bachelor,2022.2.4,60.050864798040294,
,,,,,,,,,,,,1,0,1,0,161,0,161,0,,,,,,,161,,,0.2,9547.076365538873,Y,d,go,d,1,,0.4492014357820153,,,,,,,,,,,,,,,,,93,001,19,weiblich,psychologie,2023-02-07_09h17.55.805,00_bat_bachelor,2022.2.4,60.050864798040294,
,,,,,,,,,,,,1,0,1,0,162,0,162,0,,,,,,,162,,,0.2,9547.860223582946,X,l,go,l,1,,0.3849120121449232,,,,,,,,,,,,,,,,,93,001,19,weiblich,psychologie,2023-02-07_09h17.55.805,00_bat_bachelor,2022.2.4,60.050864798040294,
,,,,,,,,,,,,1,0,1,0,163,0,163,0,,,,,,,163,,,0.2,9548.577460083645,Y,d,go,d,1,,0.4042157605290413,,,,,,,,,,,,,,,,,93,001,19,weiblich,psychologie,2023-02-07_09h17.55.805,00_bat_bachelor,2022.2.4,60.050864798040294,
,,,,,,,,,,,,1,0,1,0,164,0,164,0,,,,,,,164,,,0.2,9549.327868447173,X,l,go,l,1,,0.5493783568963408,,,,,,,,,,,,,,,,,93,001,19,weiblich,psychologie,2023-02-07_09h17.55.805,00_bat_bachelor,2022.2.4,60.050864798040294,
,,,,,,,,,,,,1,0,1,0,165,0,165,0,,,,,,,165,,,0.2,9550.195367178414,X,None,nogo,None,1,9550.995745941531,,,,,,,,,,,,,,,,,,93,001,19,weiblich,psychologie,2023-02-07_09h17.55.805,00_bat_bachelor,2022.2.4,60.050864798040294,
,,,,,,,,,,,,1,0,1,0,166,0,166,0,,,,,,,166,,,0.2,9551.195933480747,Y,d,go,l,0,,0.4569667652249336,,,,,,,,,,,,,,,,,93,001,19,weiblich,psychologie,2023-02-07_09h17.55.805,00_bat_bachelor,2022.2.4,60.050864798040294,
,,,,,,,,,,,,1,0,1,0,167,0,167,0,,,,,,,167,,,0.2,9551.98003297951,X,l,go,None,0,9552.78062119754,,,,,,,,,,,,,,,,,,93,001,19,weiblich,psychologie,2023-02-07_09h17.55.805,00_bat_bachelor,2022.2.4,60.050864798040294,
,,,,,,,,,,,,1,0,1,0,168,0,168,0,,,,,,,168,,,0.2,9552.980825706385,X,None,nogo,None,1,9553.781397924293,,,,,,,,,,,,,,,,,,93,001,19,weiblich,psychologie,2023-02-07_09h17.55.805,00_bat_bachelor,2022.2.4,60.050864798040294,
,,,,,,,,,,,,1,0,1,0,169,0,169,0,,,,,,,169,,,0.2,9553.981378433295,Y,d,go,d,1,,0.34442572854459286,,,,,,,,,,,,,,,,,93,001,19,weiblich,psychologie,2023-02-07_09h17.55.805,00_bat_bachelor,2022.2.4,60.050864798040294,
,,,,,,,,,,,,1,0,1,0,170,0,170,0,,,,,,,170,,,0.2,9554.632106845267,X,l,go,l,1,,0.38149092299863696,,,,,,,,,,,,,,,,,93,001,19,weiblich,psychologie,2023-02-07_09h17.55.805,00_bat_bachelor,2022.2.4,60.050864798040294,
,,,,,,,,,,,,1,0,1,0,171,0,171,0,,,,,,,171,,,0.2,9555.34907037625,X,None,nogo,None,1,9556.1496639275,,,,,,,,,,,,,,,,,,93,001,19,weiblich,psychologie,2023-02-07_09h17.55.805,00_bat_bachelor,2022.2.4,60.050864798040294,
,,,,,,,,,,,,1,0,1,0,172,0,172,0,,,,,,,172,,,0.2,9556.349850497209,Y,d,go,d,1,,0.4880154775455594,,,,,,,,,,,,,,,,,93,001,19,weiblich,psychologie,2023-02-07_09h17.55.805,00_bat_bachelor,2022.2.4,60.050864798040294,
,,,,,,,,,,,,1,0,1,0,173,0,173,0,,,,,,,173,,,0.2,9557.167359919287,X,l,go,l,1,,0.342484881170094,,,,,,,,,,,,,,,,,93,001,19,weiblich,psychologie,2023-02-07_09h17.55.805,00_bat_bachelor,2022.2.4,60.050864798040294,
,,,,,,,,,,,,1,0,1,0,174,0,174,0,,,,,,,174,,,0.2,9557.834288080689,Y,d,go,d,1,,0.34726209100335836,,,,,,,,,,,,,,,,,93,001,19,weiblich,psychologie,2023-02-07_09h17.55.805,00_bat_bachelor,2022.2.4,60.050864798040294,
,,,,,,,,,,,,1,0,1,0,175,0,175,0,,,,,,,175,,,0.2,9558.518398778979,Y,None,nogo,l,0,,0.6075276616029441,,,,,,,,,,,,,,,,,93,001,19,weiblich,psychologie,2023-02-07_09h17.55.805,00_bat_bachelor,2022.2.4,60.050864798040294,
,,,,,,,,,,,,1,0,1,0,176,0,176,0,,,,,,,176,,,0.2,9559.45239105355,X,l,go,None,0,9560.252833331935,,,,,,,,,,,,,,,,,,93,001,19,weiblich,psychologie,2023-02-07_09h17.55.805,00_bat_bachelor,2022.2.4,60.050864798040294,
,,,,,,,,,,,,1,0,1,0,177,0,177,0,,,,,,,177,,,0.2,9560.453011174686,Y,d,go,None,0,9561.253606664948,,,,,,,,,,,,,,,,,,93,001,19,weiblich,psychologie,2023-02-07_09h17.55.805,00_bat_bachelor,2022.2.4,60.050864798040294,
,,,,,,,,,,,,1,0,1,0,178,0,178,0,,,,,,,178,,,0.2,9561.453762204386,X,l,go,l,1,,0.5202001887373626,,,,,,,,,,,,,,,,,93,001,19,weiblich,psychologie,2023-02-07_09h17.55.805,00_bat_bachelor,2022.2.4,60.050864798040294,
,,,,,,,,,,,,1,0,1,0,179,0,179,0,,,,,,,179,,,0.2,9562.287897557486,Y,d,go,d,1,,0.3573289951309562,,,,,,,,,,,,,,,,,93,001,19,weiblich,psychologie,2023-02-07_09h17.55.805,00_bat_bachelor,2022.2.4,60.050864798040294,
,,,,,,,,,,,,1,0,1,0,180,0,180,0,,,,,,,180,,,0.2,9562.971520014107,X,l,go,None,0,9563.772151383571,,,,,,,,,,,,,,,,,,93,001,19,weiblich,psychologie,2023-02-07_09h17.55.805,00_bat_bachelor,2022.2.4,60.050864798040294,
,,,,,,,,,,,,1,0,1,0,181,0,181,0,,,,,,,181,,,0.2,9563.97253819555,X,None,nogo,d,0,,0.3688630503602326,,,,,,,,,,,,,,,,,93,001,19,weiblich,psychologie,2023-02-07_09h17.55.805,00_bat_bachelor,2022.2.4,60.050864798040294,
