loop_instruction.thisRepN,loop_instruction.thisTrialN,loop_instruction.thisN,loop_instruction.thisIndex,loop_rsi_practice.thisRepN,loop_rsi_practice.thisTrialN,loop_rsi_practice.thisN,loop_rsi_practice.thisIndex,loop_practice.thisRepN,loop_practice.thisTrialN,loop_practice.thisN,loop_practice.thisIndex,loop_exp.thisRepN,loop_exp.thisTrialN,loop_exp.thisN,loop_exp.thisIndex,loop_trials.thisRepN,loop_trials.thisTrialN,loop_trials.thisN,loop_trials.thisIndex,map_condition,map_x_key,map_y_key,key_resp_welcome.started,key_resp_welcome.keys,key_resp_welcome.rt,index,text_empty_rsi_practice.started,text_empty_rsi_practice.stopped,rsi,stimulus.started,stimulus,correct,trial_type,key_resp_trial.keys,key_resp_trial.corr,stimulus.stopped,key_resp_trial.rt,key_resp_instruction_rsi.started,key_resp_instruction_rsi.keys,key_resp_instruction_rsi.rt,key_resp_instruction_rsi.stopped,key_resp_instruction_final.started,key_resp_instruction_final.keys,key_resp_instruction_final.rt,key_resp_break.started,key_resp_break.keys,key_resp_break.rt,key_resp_break.stopped,key_resp_end_screen.started,image_end_screen.started,key_resp_end_screen.stopped,image_end_screen.stopped,key_resp_end_screen.keys,participant,session,Alter,Geschlecht (w/m/d/andere),Studiengang,date,expName,psychopyVersion,frameRate,
,,,,0,0,0,0,0,0,0,0,,,,,,,,,1,l,d,603.537374581676,j,21.51694166334346,0,625.1055302843451,626.1241460596211,1,626.1241460596211,X,l,go,None,0,,,,,,,,,,,,,,,,,,,9,001,19,w,Psychologie,2023-01-09_09h03.20.881,00_bat_bachelor,2022.2.4,59.860456033276634,
,,,,0,0,0,0,1,0,1,0,,,,,,,,,,,,,,,1,627.5215035360307,628.5226177191362,1,628.5226177191362,Y,d,go,None,0,629.3229748588055,,,,,,,,,,,,,,,,,,9,001,19,w,Psychologie,2023-01-09_09h03.20.881,00_bat_bachelor,2022.2.4,59.860456033276634,
,,,,0,0,0,0,2,0,2,0,,,,,,,,,,,,,,,2,629.9233773802407,630.9243015022948,1,630.9243015022948,X,l,go,l,1,,0.3184440159238875,,,,,,,,,,,,,,,,,9,001,19,w,Psychologie,2023-01-09_09h03.20.881,00_bat_bachelor,2022.2.4,59.860456033276634,
,,,,0,0,0,0,3,0,3,0,,,,,,,,,,,,,,,3,631.9749885820784,632.9759810678661,1,632.9759810678661,Y,d,go,d,1,,0.5705266846343875,,,,,,,,,,,,,,,,,9,001,19,w,Psychologie,2023-01-09_09h03.20.881,00_bat_bachelor,2022.2.4,59.860456033276634,
,,,,0,0,0,0,4,0,4,0,,,,,,,,,,,,,,,4,634.2602009796537,635.2608865560032,1,635.2608865560032,X,l,go,l,1,,0.36476503033190966,,,,,,,,,,,,,,,,,9,001,19,w,Psychologie,2023-01-09_09h03.20.881,00_bat_bachelor,2022.2.4,59.860456033276634,
,,,,0,0,0,0,5,0,5,0,,,,,,,,,,,,,,,5,636.3450461528264,637.3456628806889,1,637.3456628806889,X,None,nogo,None,1,638.1464292327873,,,,,,,,,,,,,,,,,,9,001,19,w,Psychologie,2023-01-09_09h03.20.881,00_bat_bachelor,2022.2.4,59.860456033276634,
,,,,0,0,0,0,6,0,6,0,,,,,,,,,,,,,,,6,638.7467275122181,639.747765573673,1,639.747765573673,Y,d,go,d,1,,0.45503614842891693,,,,,,,,,,,,,,,,,9,001,19,w,Psychologie,2023-01-09_09h03.20.881,00_bat_bachelor,2022.2.4,59.860456033276634,
,,,,0,0,0,0,7,0,7,0,,,,,,,,,,,,,,,7,640.9152610087767,641.9160774946213,1,641.9160774946213,X,l,go,l,1,,0.46249894332140684,,,,,,,,,,,,,,,,,9,001,19,w,Psychologie,2023-01-09_09h03.20.881,00_bat_bachelor,2022.2.4,59.860456033276634,
,,,,0,0,0,0,8,0,8,0,,,,,,,,,,,,,,,8,643.0998842180707,644.1007021581754,1,644.1007021581754,X,None,nogo,None,1,644.901250328403,,,,,,,,,,,,,,,,,,9,001,19,w,Psychologie,2023-01-09_09h03.20.881,00_bat_bachelor,2022.2.4,59.860456033276634,
,,,,0,0,0,0,9,0,9,0,,,,,,,,,,,,,,,9,645.5014938195236,646.5024518813007,1,646.5024518813007,Y,d,go,d,1,,0.5002347379922867,,,,,,,,,,,,,,,,,9,001,19,w,Psychologie,2023-01-09_09h03.20.881,00_bat_bachelor,2022.2.4,59.860456033276634,
,,,,0,0,0,0,10,0,10,0,,,,,,,,,,,,,,,10,647.7033446822315,648.7042324403301,1,648.7042324403301,X,l,go,l,1,,0.5864510638639331,,,,,,,,,,,,,,,,,9,001,19,w,Psychologie,2023-01-09_09h03.20.881,00_bat_bachelor,2022.2.4,59.860456033276634,
,,,,0,0,0,0,11,0,11,0,,,,,,,,,,,,,,,11,650.0049561262131,651.0059020663612,1,651.0059020663612,Y,d,go,d,1,,0.4132169564254582,,,,,,,,,,,,,,,,,9,001,19,w,Psychologie,2023-01-09_09h03.20.881,00_bat_bachelor,2022.2.4,59.860456033276634,
,,,,0,0,0,0,12,0,12,0,,,,,,,,,,,,,,,12,652.1232345439494,653.124154787045,1,653.124154787045,X,l,go,l,1,,0.631614743731916,,,,,,,,,,,,,,,,,9,001,19,w,Psychologie,2023-01-09_09h03.20.881,00_bat_bachelor,2022.2.4,59.860456033276634,
,,,,0,0,0,0,13,0,13,0,,,,,,,,,,,,,,,13,654.4585163234733,655.4592920816503,1,655.4592920816503,Y,d,go,d,1,,0.4233289659023285,,,,,,,,,,,,,,,,,9,001,19,w,Psychologie,2023-01-09_09h03.20.881,00_bat_bachelor,2022.2.4,59.860456033276634,
,,,,0,0,0,0,14,0,14,0,,,,,,,,,,,,,,,14,656.5934968180954,657.5943840914406,1,657.5943840914406,X,l,go,l,1,,0.36869812523946166,,,,,,,,,,,,,,,,,9,001,19,w,Psychologie,2023-01-09_09h03.20.881,00_bat_bachelor,2022.2.4,59.860456033276634,
,,,,1,0,1,0,0,0,0,0,,,,,,,,,,,,,,,0,673.0224615978077,673.2225616704673,0.2,673.2225616704673,X,l,go,l,1,,0.4842487829737365,658.7012011646293,j,14.30418315390125,,,,,,,,,,,,,,9,001,19,w,Psychologie,2023-01-09_09h03.20.881,00_bat_bachelor,2022.2.4,59.860456033276634,
,,,,1,0,1,0,1,0,1,0,,,,,,,,,,,,,,,1,674.4235911988653,674.623675271403,0.2,674.623675271403,Y,d,go,d,1,,0.34748986223712564,,,,,,,,,,,,,,,,,9,001,19,w,Psychologie,2023-01-09_09h03.20.881,00_bat_bachelor,2022.2.4,59.860456033276634,
,,,,1,0,1,0,2,0,2,0,,,,,,,,,,,,,,,2,675.6744486540556,675.8745012115687,0.2,675.8745012115687,X,l,go,l,1,,0.26451960019767284,,,,,,,,,,,,,,,,,9,001,19,w,Psychologie,2023-01-09_09h03.20.881,00_bat_bachelor,2022.2.4,59.860456033276634,
,,,,1,0,1,0,3,0,3,0,,,,,,,,,,,,,,,3,676.8420085739344,677.0419791922905,0.2,677.0419791922905,X,None,nogo,l,0,,0.34512331476435065,,,,,,,,,,,,,,,,,9,001,19,w,Psychologie,2023-01-09_09h03.20.881,00_bat_bachelor,2022.2.4,59.860456033276634,
,,,,1,0,1,0,4,0,4,0,,,,,,,,,,,,,,,4,678.4932882357389,678.6935677030124,0.2,678.6935677030124,Y,d,go,d,1,,0.5173663906753063,,,,,,,,,,,,,,,,,9,001,19,w,Psychologie,2023-01-09_09h03.20.881,00_bat_bachelor,2022.2.4,59.860456033276634,
,,,,1,0,1,0,5,0,5,0,,,,,,,,,,,,,,,5,679.9109812472016,680.1109523498453,0.2,680.1109523498453,X,l,go,l,1,,0.36371193872764707,,,,,,,,,,,,,,,,,9,001,19,w,Psychologie,2023-01-09_09h03.20.881,00_bat_bachelor,2022.2.4,59.860456033276634,
,,,,1,0,1,0,6,0,6,0,,,,,,,,,,,,,,,6,681.1786770219915,681.3788527310826,0.2,681.3788527310826,X,None,nogo,None,1,,,,,,,,,,,,,,,,,,,9,001,19,w,Psychologie,2023-01-09_09h03.20.881,00_bat_bachelor,2022.2.4,59.860456033276634,
,,,,1,0,1,0,7,0,7,0,,,,,,,,,,,,,,,7,682.7799319080077,682.9798695561476,0.2,682.9798695561476,Y,d,go,d,1,,0.3439107071608305,,,,,,,,,,,,,,,,,9,001,19,w,Psychologie,2023-01-09_09h03.20.881,00_bat_bachelor,2022.2.4,59.860456033276634,
,,,,1,0,1,0,8,0,8,0,,,,,,,,,,,,,,,8,684.0308223329484,684.2310421634465,0.2,684.2310421634465,X,l,go,l,1,,0.37186855264008045,,,,,,,,,,,,,,,,,9,001,19,w,Psychologie,2023-01-09_09h03.20.881,00_bat_bachelor,2022.2.4,59.860456033276634,
,,,,1,0,1,0,9,0,9,0,,,,,,,,,,,,,,,9,685.315329760313,685.5154414693825,0.2,685.5154414693825,Y,d,go,d,1,,0.3996620341204107,,,,,,,,,,,,,,,,,9,001,19,w,Psychologie,2023-01-09_09h03.20.881,00_bat_bachelor,2022.2.4,59.860456033276634,
,,,,1,0,1,0,10,0,10,0,,,,,,,,,,,,,,,10,686.616060233675,686.816368306987,0.2,686.816368306987,X,l,go,l,1,,0.5543433963321149,,,,,,,,,,,,,,,,,9,001,19,w,Psychologie,2023-01-09_09h03.20.881,00_bat_bachelor,2022.2.4,59.860456033276634,
,,,,1,0,1,0,11,0,11,0,,,,,,,,,,,,,,,11,688.0839132936671,688.2838916694745,0.2,688.2838916694745,X,None,nogo,None,1,,,,,,,,,,,,,,,,,,,9,001,19,w,Psychologie,2023-01-09_09h03.20.881,00_bat_bachelor,2022.2.4,59.860456033276634,
,,,,1,0,1,0,12,0,12,0,,,,,,,,,,,,,,,12,689.6851400583982,689.8852963736281,0.2,689.8852963736281,Y,d,go,d,1,,0.3176958938129246,,,,,,,,,,,,,,,,,9,001,19,w,Psychologie,2023-01-09_09h03.20.881,00_bat_bachelor,2022.2.4,59.860456033276634,
,,,,1,0,1,0,13,0,13,0,,,,,,,,,,,,,,,13,690.919206709601,691.1195894493721,0.2,691.1195894493721,X,l,go,l,1,,0.37972213607281446,,,,,,,,,,,,,,,,,9,001,19,w,Psychologie,2023-01-09_09h03.20.881,00_bat_bachelor,2022.2.4,59.860456033276634,
,,,,1,0,1,0,14,0,14,0,,,,,,,,,,,,,,,14,692.2037737732753,692.4040406341664,0.2,692.4040406341664,Y,d,go,d,1,,0.3437584647908807,,,,,,,,,,,,,,,,,9,001,19,w,Psychologie,2023-01-09_09h03.20.881,00_bat_bachelor,2022.2.4,59.860456033276634,
,,,,,,,,,,,,,,,,,,,,,,,,,,,,,,,,,,,,,,693.4930894477293,None,,693.4930894477293,693.4930894477293,space,10.26487644854933,,,,,,,,,,9,001,19,w,Psychologie,2023-01-09_09h03.20.881,00_bat_bachelor,2022.2.4,59.860456033276634,
,,,,,,,,,,,,0,0,0,0,0,0,0,0,,,,,,,0,,,1,704.7799799079075,X,l,go,l,1,,0.41576871648430824,,,,,,,,,,,,,,,,,9,001,19,w,Psychologie,2023-01-09_09h03.20.881,00_bat_bachelor,2022.2.4,59.860456033276634,
,,,,,,,,,,,,0,0,0,0,1,0,1,0,,,,,,,1,,,1,706.2978271977045,Y,d,go,d,1,,0.57702656975016,,,,,,,,,,,,,,,,,9,001,19,w,Psychologie,2023-01-09_09h03.20.881,00_bat_bachelor,2022.2.4,59.860456033276634,
,,,,,,,,,,,,0,0,0,0,2,0,2,0,,,,,,,2,,,1,707.9822104070336,X,l,go,l,1,,0.6363187483511865,,,,,,,,,,,,,,,,,9,001,19,w,Psychologie,2023-01-09_09h03.20.881,00_bat_bachelor,2022.2.4,59.860456033276634,
,,,,,,,,,,,,0,0,0,0,3,0,3,0,,,,,,,3,,,1,709.7335847113281,X,None,nogo,None,1,710.5341343362816,,,,,,,,,,,,,,,,,,9,001,19,w,Psychologie,2023-01-09_09h03.20.881,00_bat_bachelor,2022.2.4,59.860456033276634,
,,,,,,,,,,,,0,0,0,0,4,0,4,0,,,,,,,4,,,1,711.5348504581489,Y,d,go,d,1,,0.5718876561149955,,,,,,,,,,,,,,,,,9,001,19,w,Psychologie,2023-01-09_09h03.20.881,00_bat_bachelor,2022.2.4,59.860456033276634,
,,,,,,,,,,,,0,0,0,0,5,0,5,0,,,,,,,5,,,1,713.2197558493353,X,l,go,l,1,,0.5026580127887428,,,,,,,,,,,,,,,,,9,001,19,w,Psychologie,2023-01-09_09h03.20.881,00_bat_bachelor,2022.2.4,59.860456033276634,
,,,,,,,,,,,,0,0,0,0,6,0,6,0,,,,,,,6,,,1,714.837480569724,X,None,nogo,None,1,,,,,,,,,,,,,,,,,,,9,001,19,w,Psychologie,2023-01-09_09h03.20.881,00_bat_bachelor,2022.2.4,59.860456033276634,
,,,,,,,,,,,,0,0,0,0,7,0,7,0,,,,,,,7,,,1,716.6390910441987,Y,d,go,d,1,,0.44419638020917773,,,,,,,,,,,,,,,,,9,001,19,w,Psychologie,2023-01-09_09h03.20.881,00_bat_bachelor,2022.2.4,59.860456033276634,
,,,,,,,,,,,,0,0,0,0,8,0,8,0,,,,,,,8,,,1,718.1902324268594,X,l,go,l,1,,0.5093862619251013,,,,,,,,,,,,,,,,,9,001,19,w,Psychologie,2023-01-09_09h03.20.881,00_bat_bachelor,2022.2.4,59.860456033276634,
,,,,,,,,,,,,0,0,0,0,9,0,9,0,,,,,,,9,,,1,719.8079566624947,Y,d,go,d,1,,0.41141865169629455,,,,,,,,,,,,,,,,,9,001,19,w,Psychologie,2023-01-09_09h03.20.881,00_bat_bachelor,2022.2.4,59.860456033276634,
,,,,,,,,,,,,0,0,0,0,10,0,10,0,,,,,,,10,,,1,721.3258669828065,X,l,go,l,1,,0.3482767720706761,,,,,,,,,,,,,,,,,9,001,19,w,Psychologie,2023-01-09_09h03.20.881,00_bat_bachelor,2022.2.4,59.860456033276634,
,,,,,,,,,,,,0,0,0,0,11,0,11,0,,,,,,,11,,,1,722.7770931171253,Y,d,go,d,1,,0.41763441544026136,,,,,,,,,,,,,,,,,9,001,19,w,Psychologie,2023-01-09_09h03.20.881,00_bat_bachelor,2022.2.4,59.860456033276634,
,,,,,,,,,,,,0,0,0,0,12,0,12,0,,,,,,,12,,,1,724.3116749688052,Y,None,nogo,None,1,,,,,,,,,,,,,,,,,,,9,001,19,w,Psychologie,2023-01-09_09h03.20.881,00_bat_bachelor,2022.2.4,59.860456033276634,
,,,,,,,,,,,,0,0,0,0,13,0,13,0,,,,,,,13,,,1,726.1129727158695,X,l,go,l,1,,0.2978888447396457,,,,,,,,,,,,,,,,,9,001,19,w,Psychologie,2023-01-09_09h03.20.881,00_bat_bachelor,2022.2.4,59.860456033276634,
,,,,,,,,,,,,0,0,0,0,14,0,14,0,,,,,,,14,,,1,727.5138075286523,Y,d,go,d,1,,0.33698076102882624,,,,,,,,,,,,,,,,,9,001,19,w,Psychologie,2023-01-09_09h03.20.881,00_bat_bachelor,2022.2.4,59.860456033276634,
,,,,,,,,,,,,0,0,0,0,15,0,15,0,,,,,,,15,,,1,728.9651282085106,Y,None,nogo,None,1,,,,,,,,,,,,,,,,,,,9,001,19,w,Psychologie,2023-01-09_09h03.20.881,00_bat_bachelor,2022.2.4,59.860456033276634,
,,,,,,,,,,,,0,0,0,0,16,0,16,0,,,,,,,16,,,1,730.7665209858678,X,l,go,l,1,,0.3162369835190475,,,,,,,,,,,,,,,,,9,001,19,w,Psychologie,2023-01-09_09h03.20.881,00_bat_bachelor,2022.2.4,59.860456033276634,
,,,,,,,,,,,,0,0,0,0,17,0,17,0,,,,,,,17,,,1,732.1840021177195,Y,d,go,d,1,,0.259118867572397,,,,,,,,,,,,,,,,,9,001,19,w,Psychologie,2023-01-09_09h03.20.881,00_bat_bachelor,2022.2.4,59.860456033276634,
,,,,,,,,,,,,0,0,0,0,18,0,18,0,,,,,,,18,,,1,733.5518502322957,X,l,go,l,1,,0.2502664951607585,,,,,,,,,,,,,,,,,9,001,19,w,Psychologie,2023-01-09_09h03.20.881,00_bat_bachelor,2022.2.4,59.860456033276634,
,,,,,,,,,,,,0,0,0,0,19,0,19,0,,,,,,,19,,,1,734.9030413604341,Y,d,go,d,1,,0.2607242022641003,,,,,,,,,,,,,,,,,9,001,19,w,Psychologie,2023-01-09_09h03.20.881,00_bat_bachelor,2022.2.4,59.860456033276634,
,,,,,,,,,,,,0,0,0,0,20,0,20,0,,,,,,,20,,,1,736.2709302022122,X,l,go,l,1,,0.34710731683298945,,,,,,,,,,,,,,,,,9,001,19,w,Psychologie,2023-01-09_09h03.20.881,00_bat_bachelor,2022.2.4,59.860456033276634,
,,,,,,,,,,,,0,0,0,0,21,0,21,0,,,,,,,21,,,1,737.7222019126639,Y,d,go,d,1,,0.28859962336719036,,,,,,,,,,,,,,,,,9,001,19,w,Psychologie,2023-01-09_09h03.20.881,00_bat_bachelor,2022.2.4,59.860456033276634,
,,,,,,,,,,,,0,0,0,0,22,0,22,0,,,,,,,22,,,1,739.1233494528569,X,l,go,l,1,,0.27976325154304504,,,,,,,,,,,,,,,,,9,001,19,w,Psychologie,2023-01-09_09h03.20.881,00_bat_bachelor,2022.2.4,59.860456033276634,
,,,,,,,,,,,,0,0,0,0,23,0,23,0,,,,,,,23,,,1,740.5074642496184,X,None,nogo,d,0,,0.35156889678910375,,,,,,,,,,,,,,,,,9,001,19,w,Psychologie,2023-01-09_09h03.20.881,00_bat_bachelor,2022.2.4,59.860456033276634,
,,,,,,,,,,,,0,0,0,0,24,0,24,0,,,,,,,24,,,1,741.9754341579974,Y,d,go,d,1,,0.5472427834756672,,,,,,,,,,,,,,,,,9,001,19,w,Psychologie,2023-01-09_09h03.20.881,00_bat_bachelor,2022.2.4,59.860456033276634,
,,,,,,,,,,,,0,0,0,0,25,0,25,0,,,,,,,25,,,1,743.6265135770664,X,l,go,l,1,,0.41599756525829434,,,,,,,,,,,,,,,,,9,001,19,w,Psychologie,2023-01-09_09h03.20.881,00_bat_bachelor,2022.2.4,59.860456033276634,
,,,,,,,,,,,,0,0,0,0,26,0,26,0,,,,,,,26,,,1,745.1444917763583,Y,d,go,d,1,,0.3543567778542638,,,,,,,,,,,,,,,,,9,001,19,w,Psychologie,2023-01-09_09h03.20.881,00_bat_bachelor,2022.2.4,59.860456033276634,
,,,,,,,,,,,,0,0,0,0,27,0,27,0,,,,,,,27,,,1,746.6120985331945,X,l,go,l,1,,0.4701590724289417,,,,,,,,,,,,,,,,,9,001,19,w,Psychologie,2023-01-09_09h03.20.881,00_bat_bachelor,2022.2.4,59.860456033276634,
,,,,,,,,,,,,0,0,0,0,28,0,28,0,,,,,,,28,,,1,748.1966304937378,X,None,nogo,None,1,748.9973008460365,,,,,,,,,,,,,,,,,,9,001,19,w,Psychologie,2023-01-09_09h03.20.881,00_bat_bachelor,2022.2.4,59.860456033276634,
,,,,,,,,,,,,0,0,0,0,29,0,29,0,,,,,,,29,,,1,749.9982259375975,Y,d,go,d,1,,0.45994766848161817,,,,,,,,,,,,,,,,,9,001,19,w,Psychologie,2023-01-09_09h03.20.881,00_bat_bachelor,2022.2.4,59.860456033276634,
,,,,,,,,,,,,0,0,0,0,30,0,30,0,,,,,,,30,,,1,751.5657581244595,X,l,go,l,1,,0.42991563910618424,,,,,,,,,,,,,,,,,9,001,19,w,Psychologie,2023-01-09_09h03.20.881,00_bat_bachelor,2022.2.4,59.860456033276634,
,,,,,,,,,,,,0,0,0,0,31,0,31,0,,,,,,,31,,,1,753.1002493095584,Y,d,go,d,1,,0.38247413886711,,,,,,,,,,,,,,,,,9,001,19,w,Psychologie,2023-01-09_09h03.20.881,00_bat_bachelor,2022.2.4,59.860456033276634,
,,,,,,,,,,,,0,0,0,0,32,0,32,0,,,,,,,32,,,1,754.5845416579396,X,l,go,l,1,,0.45022741658613086,,,,,,,,,,,,,,,,,9,001,19,w,Psychologie,2023-01-09_09h03.20.881,00_bat_bachelor,2022.2.4,59.860456033276634,
,,,,,,,,,,,,0,0,0,0,33,0,33,0,,,,,,,33,,,1,756.1359720109031,X,None,nogo,None,1,,,,,,,,,,,,,,,,,,,9,001,19,w,Psychologie,2023-01-09_09h03.20.881,00_bat_bachelor,2022.2.4,59.860456033276634,
,,,,,,,,,,,,0,0,0,0,34,0,34,0,,,,,,,34,,,1,757.9372634543106,Y,d,go,d,1,,0.3307179673574865,,,,,,,,,,,,,,,,,9,001,19,w,Psychologie,2023-01-09_09h03.20.881,00_bat_bachelor,2022.2.4,59.860456033276634,
,,,,,,,,,,,,0,0,0,0,35,0,35,0,,,,,,,35,,,1,759.3716793907806,X,l,go,l,1,,0.4626788222230971,,,,,,,,,,,,,,,,,9,001,19,w,Psychologie,2023-01-09_09h03.20.881,00_bat_bachelor,2022.2.4,59.860456033276634,
,,,,,,,,,,,,0,0,0,0,36,0,36,0,,,,,,,36,,,1,760.9395524263382,X,None,nogo,l,0,,0.6080714482814074,,,,,,,,,,,,,,,,,9,001,19,w,Psychologie,2023-01-09_09h03.20.881,00_bat_bachelor,2022.2.4,59.860456033276634,
,,,,,,,,,,,,0,0,0,0,37,0,37,0,,,,,,,37,,,1,762.6572636677884,Y,d,go,d,1,,0.5373911373317242,,,,,,,,,,,,,,,,,9,001,19,w,Psychologie,2023-01-09_09h03.20.881,00_bat_bachelor,2022.2.4,59.860456033276634,
,,,,,,,,,,,,0,0,0,0,38,0,38,0,,,,,,,38,,,1,764.3085830872878,X,l,go,l,1,,0.29500447819009423,,,,,,,,,,,,,,,,,9,001,19,w,Psychologie,2023-01-09_09h03.20.881,00_bat_bachelor,2022.2.4,59.860456033276634,
,,,,,,,,,,,,0,0,0,0,39,0,39,0,,,,,,,39,,,1,765.7097025061958,Y,d,go,d,1,,0.3656159406527877,,,,,,,,,,,,,,,,,9,001,19,w,Psychologie,2023-01-09_09h03.20.881,00_bat_bachelor,2022.2.4,59.860456033276634,
,,,,,,,,,,,,0,0,0,0,40,0,40,0,,,,,,,40,,,1,767.1776476874948,X,l,go,l,1,,0.5446900534443557,,,,,,,,,,,,,,,,,9,001,19,w,Psychologie,2023-01-09_09h03.20.881,00_bat_bachelor,2022.2.4,59.860456033276634,
,,,,,,,,,,,,0,0,0,0,41,0,41,0,,,,,,,41,,,1,768.8287086822093,Y,d,go,d,1,,0.38197328988462687,,,,,,,,,,,,,,,,,9,001,19,w,Psychologie,2023-01-09_09h03.20.881,00_bat_bachelor,2022.2.4,59.860456033276634,
,,,,,,,,,,,,0,0,0,0,42,0,42,0,,,,,,,42,,,1,770.3131624856032,Y,None,nogo,None,1,,,,,,,,,,,,,,,,,,,9,001,19,w,Psychologie,2023-01-09_09h03.20.881,00_bat_bachelor,2022.2.4,59.860456033276634,
,,,,,,,,,,,,0,0,0,0,43,0,43,0,,,,,,,43,,,1,772.1147186565213,X,l,go,l,1,,0.45637869508937,,,,,,,,,,,,,,,,,9,001,19,w,Psychologie,2023-01-09_09h03.20.881,00_bat_bachelor,2022.2.4,59.860456033276634,
,,,,,,,,,,,,0,0,0,0,44,0,44,0,,,,,,,44,,,1,773.6826047832146,Y,d,go,d,1,,0.40787004213780165,,,,,,,,,,,,,,,,,9,001,19,w,Psychologie,2023-01-09_09h03.20.881,00_bat_bachelor,2022.2.4,59.860456033276634,
,,,,,,,,,,,,0,0,0,0,45,0,45,0,,,,,,,45,,,1,775.2003759518266,X,l,go,l,1,,0.45908318273723125,,,,,,,,,,,,,,,,,9,001,19,w,Psychologie,2023-01-09_09h03.20.881,00_bat_bachelor,2022.2.4,59.860456033276634,
,,,,,,,,,,,,0,0,0,0,46,0,46,0,,,,,,,46,,,1,776.7682785633951,Y,d,go,d,1,,0.42606399906799197,,,,,,,,,,,,,,,,,9,001,19,w,Psychologie,2023-01-09_09h03.20.881,00_bat_bachelor,2022.2.4,59.860456033276634,
,,,,,,,,,,,,0,0,0,0,47,0,47,0,,,,,,,47,,,1,778.3025607783347,X,l,go,l,1,,0.284203982912004,,,,,,,,,,,,,,,,,9,001,19,w,Psychologie,2023-01-09_09h03.20.881,00_bat_bachelor,2022.2.4,59.860456033276634,
,,,,,,,,,,,,0,0,0,0,48,0,48,0,,,,,,,48,,,1,779.703877530992,Y,d,go,d,1,,0.3230224447324872,,,,,,,,,,,,,,,,,9,001,19,w,Psychologie,2023-01-09_09h03.20.881,00_bat_bachelor,2022.2.4,59.860456033276634,
,,,,,,,,,,,,0,0,0,0,49,0,49,0,,,,,,,49,,,1,781.1380990431644,X,l,go,l,1,,0.34554901206865907,,,,,,,,,,,,,,,,,9,001,19,w,Psychologie,2023-01-09_09h03.20.881,00_bat_bachelor,2022.2.4,59.860456033276634,
,,,,,,,,,,,,0,0,0,0,50,0,50,0,,,,,,,50,,,1,782.5894764503464,Y,d,go,d,1,,0.44538474548608065,,,,,,,,,,,,,,,,,9,001,19,w,Psychologie,2023-01-09_09h03.20.881,00_bat_bachelor,2022.2.4,59.860456033276634,
,,,,,,,,,,,,0,0,0,0,51,0,51,0,,,,,,,51,,,1,784.1407021968625,X,l,go,l,1,,0.2864003488793969,,,,,,,,,,,,,,,,,9,001,19,w,Psychologie,2023-01-09_09h03.20.881,00_bat_bachelor,2022.2.4,59.860456033276634,
,,,,,,,,,,,,0,0,0,0,52,0,52,0,,,,,,,52,,,1,785.54179398017,X,None,nogo,d,0,,0.24544176319614053,,,,,,,,,,,,,,,,,9,001,19,w,Psychologie,2023-01-09_09h03.20.881,00_bat_bachelor,2022.2.4,59.860456033276634,
,,,,,,,,,,,,0,0,0,0,53,0,53,0,,,,,,,53,,,1,786.8926781988703,Y,d,go,d,1,,0.44734402000904083,,,,,,,,,,,,,,,,,9,001,19,w,Psychologie,2023-01-09_09h03.20.881,00_bat_bachelor,2022.2.4,59.860456033276634,
,,,,,,,,,,,,0,0,0,0,54,0,54,0,,,,,,,54,,,1,788.4437963091768,X,l,go,l,1,,0.3029458192177117,,,,,,,,,,,,,,,,,9,001,19,w,Psychologie,2023-01-09_09h03.20.881,00_bat_bachelor,2022.2.4,59.860456033276634,
,,,,,,,,,,,,0,0,0,0,55,0,55,0,,,,,,,55,,,1,789.8615814414807,Y,d,go,d,1,,0.32465153746306896,,,,,,,,,,,,,,,,,9,001,19,w,Psychologie,2023-01-09_09h03.20.881,00_bat_bachelor,2022.2.4,59.860456033276634,
,,,,,,,,,,,,0,0,0,0,56,0,56,0,,,,,,,56,,,1,791.2960191960447,X,l,go,l,1,,0.4272368485108018,,,,,,,,,,,,,,,,,9,001,19,w,Psychologie,2023-01-09_09h03.20.881,00_bat_bachelor,2022.2.4,59.860456033276634,
,,,,,,,,,,,,0,0,0,0,57,0,57,0,,,,,,,57,,,1,792.8302989872172,Y,d,go,d,1,,0.3654123041778803,,,,,,,,,,,,,,,,,9,001,19,w,Psychologie,2023-01-09_09h03.20.881,00_bat_bachelor,2022.2.4,59.860456033276634,
,,,,,,,,,,,,0,0,0,0,58,0,58,0,,,,,,,58,,,1,794.2983804107644,X,l,go,l,1,,0.3366883974522352,,,,,,,,,,,,,,,,,9,001,19,w,Psychologie,2023-01-09_09h03.20.881,00_bat_bachelor,2022.2.4,59.860456033276634,
,,,,,,,,,,,,0,0,0,0,59,0,59,0,,,,,,,59,,,1,795.7491386658512,X,None,nogo,None,1,,,,,,,,,,,,,,,,,,,9,001,19,w,Psychologie,2023-01-09_09h03.20.881,00_bat_bachelor,2022.2.4,59.860456033276634,
,,,,,,,,,,,,0,0,0,0,60,0,60,0,,,,,,,60,,,1,797.5505508370697,Y,d,go,d,1,,0.39548069704324007,,,,,,,,,,,,,,,,,9,001,19,w,Psychologie,2023-01-09_09h03.20.881,00_bat_bachelor,2022.2.4,59.860456033276634,
,,,,,,,,,,,,0,0,0,0,61,0,61,0,,,,,,,61,,,1,799.0516630802304,X,l,go,l,1,,0.38283486664295197,,,,,,,,,,,,,,,,,9,001,19,w,Psychologie,2023-01-09_09h03.20.881,00_bat_bachelor,2022.2.4,59.860456033276634,
,,,,,,,,,,,,0,0,0,0,62,0,62,0,,,,,,,62,,,1,800.5362002775073,Y,d,go,d,1,,0.35477471770718694,,,,,,,,,,,,,,,,,9,001,19,w,Psychologie,2023-01-09_09h03.20.881,00_bat_bachelor,2022.2.4,59.860456033276634,
,,,,,,,,,,,,0,0,0,0,63,0,63,0,,,,,,,63,,,1,802.0042492160574,Y,None,nogo,d,0,,0.5179520882666111,,,,,,,,,,,,,,,,,9,001,19,w,Psychologie,2023-01-09_09h03.20.881,00_bat_bachelor,2022.2.4,59.860456033276634,
,,,,,,,,,,,,0,0,0,0,64,0,64,0,,,,,,,64,,,1,803.6386459525675,X,l,go,l,1,,0.4362414637580514,,,,,,,,,,,,,,,,,9,001,19,w,Psychologie,2023-01-09_09h03.20.881,00_bat_bachelor,2022.2.4,59.860456033276634,
,,,,,,,,,,,,0,0,0,0,65,0,65,0,,,,,,,65,,,1,805.1898140022531,Y,d,go,d,1,,0.48427641950547695,,,,,,,,,,,,,,,,,9,001,19,w,Psychologie,2023-01-09_09h03.20.881,00_bat_bachelor,2022.2.4,59.860456033276634,
,,,,,,,,,,,,0,0,0,0,66,0,66,0,,,,,,,66,,,1,806.7911653732881,X,l,go,l,1,,0.48296975158154964,,,,,,,,,,,,,,,,,9,001,19,w,Psychologie,2023-01-09_09h03.20.881,00_bat_bachelor,2022.2.4,59.860456033276634,
,,,,,,,,,,,,0,0,0,0,67,0,67,0,,,,,,,67,,,1,808.3757749097422,X,None,nogo,None,1,,,,,,,,,,,,,,,,,,,9,001,19,w,Psychologie,2023-01-09_09h03.20.881,00_bat_bachelor,2022.2.4,59.860456033276634,
,,,,,,,,,,,,0,0,0,0,68,0,68,0,,,,,,,68,,,1,810.1769010201097,Y,d,go,d,1,,0.4105362268164754,,,,,,,,,,,,,,,,,9,001,19,w,Psychologie,2023-01-09_09h03.20.881,00_bat_bachelor,2022.2.4,59.860456033276634,
,,,,,,,,,,,,0,0,0,0,69,0,69,0,,,,,,,69,,,1,811.6948176436126,X,l,go,l,1,,0.4446424413472414,,,,,,,,,,,,,,,,,9,001,19,w,Psychologie,2023-01-09_09h03.20.881,00_bat_bachelor,2022.2.4,59.860456033276634,
,,,,,,,,,,,,0,0,0,0,70,0,70,0,,,,,,,70,,,1,813.2462082388811,X,None,nogo,None,1,,,,,,,,,,,,,,,,,,,9,001,19,w,Psychologie,2023-01-09_09h03.20.881,00_bat_bachelor,2022.2.4,59.860456033276634,
,,,,,,,,,,,,0,0,0,0,71,0,71,0,,,,,,,71,,,1,815.0475258640945,Y,d,go,d,1,,0.3079790361225605,,,,,,,,,,,,,,,,,9,001,19,w,Psychologie,2023-01-09_09h03.20.881,00_bat_bachelor,2022.2.4,59.860456033276634,
,,,,,,,,,,,,0,0,0,0,72,0,72,0,,,,,,,72,,,1,816.4652149965987,X,l,go,l,1,,0.39472433226183057,,,,,,,,,,,,,,,,,9,001,19,w,Psychologie,2023-01-09_09h03.20.881,00_bat_bachelor,2022.2.4,59.860456033276634,
,,,,,,,,,,,,0,0,0,0,73,0,73,0,,,,,,,73,,,1,817.9665783918463,Y,d,go,d,1,,0.4932572762481868,,,,,,,,,,,,,,,,,9,001,19,w,Psychologie,2023-01-09_09h03.20.881,00_bat_bachelor,2022.2.4,59.860456033276634,
,,,,,,,,,,,,0,0,0,0,74,0,74,0,,,,,,,74,,,1,819.5674318228848,X,l,go,l,1,,0.28369634598493576,,,,,,,,,,,,,,,,,9,001,19,w,Psychologie,2023-01-09_09h03.20.881,00_bat_bachelor,2022.2.4,59.860456033276634,
,,,,,,,,,,,,0,0,0,0,75,0,75,0,,,,,,,75,,,1,820.9518161956221,Y,d,go,d,1,,0.3069395199418068,,,,,,,,,,,,,,,,,9,001,19,w,Psychologie,2023-01-09_09h03.20.881,00_bat_bachelor,2022.2.4,59.860456033276634,
,,,,,,,,,,,,0,0,0,0,76,0,76,0,,,,,,,76,,,1,822.369739510119,Y,None,nogo,None,1,823.1701330132782,,,,,,,,,,,,,,,,,,9,001,19,w,Psychologie,2023-01-09_09h03.20.881,00_bat_bachelor,2022.2.4,59.860456033276634,
,,,,,,,,,,,,0,0,0,0,77,0,77,0,,,,,,,77,,,1,824.1711264690384,X,l,go,l,1,,0.4480548081919551,,,,,,,,,,,,,,,,,9,001,19,w,Psychologie,2023-01-09_09h03.20.881,00_bat_bachelor,2022.2.4,59.860456033276634,
,,,,,,,,,,,,0,0,0,0,78,0,78,0,,,,,,,78,,,1,825.7224608217366,Y,d,go,d,1,,0.28881974518299103,,,,,,,,,,,,,,,,,9,001,19,w,Psychologie,2023-01-09_09h03.20.881,00_bat_bachelor,2022.2.4,59.860456033276634,
,,,,,,,,,,,,0,0,0,0,79,0,79,0,,,,,,,79,,,1,827.1233926047571,X,l,go,l,1,,0.519105059094727,,,,,,,,,,,,,,,,,9,001,19,w,Psychologie,2023-01-09_09h03.20.881,00_bat_bachelor,2022.2.4,59.860456033276634,
,,,,,,,,,,,,0,0,0,0,80,0,80,0,,,,,,,80,,,1,828.7576836440712,Y,d,go,d,1,,0.373367705848068,,,,,,,,,,,,,,,,,9,001,19,w,Psychologie,2023-01-09_09h03.20.881,00_bat_bachelor,2022.2.4,59.860456033276634,
,,,,,,,,,,,,0,0,0,0,81,0,81,0,,,,,,,81,,,1,830.2424041139893,X,l,go,l,1,,0.4409958920441568,,,,,,,,,,,,,,,,,9,001,19,w,Psychologie,2023-01-09_09h03.20.881,00_bat_bachelor,2022.2.4,59.860456033276634,
,,,,,,,,,,,,0,0,0,0,82,0,82,0,,,,,,,82,,,1,831.7936230725609,Y,d,go,d,1,,0.4091597399674356,,,,,,,,,,,,,,,,,9,001,19,w,Psychologie,2023-01-09_09h03.20.881,00_bat_bachelor,2022.2.4,59.860456033276634,
,,,,,,,,,,,,0,0,0,0,83,0,83,0,,,,,,,83,,,1,833.3116163020022,X,l,go,l,1,,0.31520764948800206,,,,,,,,,,,,,,,,,9,001,19,w,Psychologie,2023-01-09_09h03.20.881,00_bat_bachelor,2022.2.4,59.860456033276634,
,,,,,,,,,,,,0,0,0,0,84,0,84,0,,,,,,,84,,,1,834.7293834951706,X,None,nogo,None,1,835.5301726353355,,,,,,,,,,,,,,,,,,9,001,19,w,Psychologie,2023-01-09_09h03.20.881,00_bat_bachelor,2022.2.4,59.860456033276634,
,,,,,,,,,,,,0,0,0,0,85,0,85,0,,,,,,,85,,,1,836.5309702120721,Y,d,go,d,1,,0.4239224214106798,,,,,,,,,,,,,,,,,9,001,19,w,Psychologie,2023-01-09_09h03.20.881,00_bat_bachelor,2022.2.4,59.860456033276634,
,,,,,,,,,,,,0,0,0,0,86,0,86,0,,,,,,,86,,,1,838.0654429728165,X,l,go,l,1,,0.457117120269686,,,,,,,,,,,,,,,,,9,001,19,w,Psychologie,2023-01-09_09h03.20.881,00_bat_bachelor,2022.2.4,59.860456033276634,
,,,,,,,,,,,,0,0,0,0,87,0,87,0,,,,,,,87,,,1,839.6331370989792,Y,d,go,d,1,,0.4578419695608318,,,,,,,,,,,,,,,,,9,001,19,w,Psychologie,2023-01-09_09h03.20.881,00_bat_bachelor,2022.2.4,59.860456033276634,
,,,,,,,,,,,,0,0,0,0,88,0,88,0,,,,,,,88,,,1,841.2011284376495,Y,None,nogo,None,1,842.0017760018818,,,,,,,,,,,,,,,,,,9,001,19,w,Psychologie,2023-01-09_09h03.20.881,00_bat_bachelor,2022.2.4,59.860456033276634,
,,,,,,,,,,,,0,0,0,0,89,0,89,0,,,,,,,89,,,1,843.0023675174452,X,l,go,l,1,,0.48064780980348587,,,,,,,,,,,,,,,,,9,001,19,w,Psychologie,2023-01-09_09h03.20.881,00_bat_bachelor,2022.2.4,59.860456033276634,
,,,,,,,,,,,,0,0,0,0,90,0,90,0,,,,,,,90,,,1,844.5871370541863,Y,d,go,d,1,,0.415207261685282,,,,,,,,,,,,,,,,,9,001,19,w,Psychologie,2023-01-09_09h03.20.881,00_bat_bachelor,2022.2.4,59.860456033276634,
,,,,,,,,,,,,0,0,0,0,91,0,91,0,,,,,,,91,,,1,846.1049135564826,X,l,go,l,1,,0.49720540130510926,,,,,,,,,,,,,,,,,9,001,19,w,Psychologie,2023-01-09_09h03.20.881,00_bat_bachelor,2022.2.4,59.860456033276634,
,,,,,,,,,,,,0,0,0,0,92,0,92,0,,,,,,,92,,,1,847.7228167010471,X,None,nogo,None,1,848.5228339615278,,,,,,,,,,,,,,,,,,9,001,19,w,Psychologie,2023-01-09_09h03.20.881,00_bat_bachelor,2022.2.4,59.860456033276634,
,,,,,,,,,,,,0,0,0,0,93,0,93,0,,,,,,,93,,,1,849.5238220836036,Y,d,go,d,1,,0.45522330049425364,,,,,,,,,,,,,,,,,9,001,19,w,Psychologie,2023-01-09_09h03.20.881,00_bat_bachelor,2022.2.4,59.860456033276634,
,,,,,,,,,,,,0,0,0,0,94,0,94,0,,,,,,,94,,,1,851.0916665131226,X,l,go,l,1,,0.5354822869412601,,,,,,,,,,,,,,,,,9,001,19,w,Psychologie,2023-01-09_09h03.20.881,00_bat_bachelor,2022.2.4,59.860456033276634,
,,,,,,,,,,,,0,0,0,0,95,0,95,0,,,,,,,95,,,1,852.7429805994034,Y,d,go,d,1,,0.5157023891806602,,,,,,,,,,,,,,,,,9,001,19,w,Psychologie,2023-01-09_09h03.20.881,00_bat_bachelor,2022.2.4,59.860456033276634,
,,,,,,,,,,,,0,0,0,0,96,0,96,0,,,,,,,96,,,1,854.3607033803128,X,l,go,l,1,,0.24132394092157483,,,,,,,,,,,,,,,,,9,001,19,w,Psychologie,2023-01-09_09h03.20.881,00_bat_bachelor,2022.2.4,59.860456033276634,
,,,,,,,,,,,,0,0,0,0,97,0,97,0,,,,,,,97,,,1,855.7118537812494,Y,d,go,d,1,,0.26616663206368685,,,,,,,,,,,,,,,,,9,001,19,w,Psychologie,2023-01-09_09h03.20.881,00_bat_bachelor,2022.2.4,59.860456033276634,
,,,,,,,,,,,,0,0,0,0,98,0,98,0,,,,,,,98,,,1,857.079618501477,X,l,go,l,1,,0.3406224618665874,,,,,,,,,,,,,,,,,9,001,19,w,Psychologie,2023-01-09_09h03.20.881,00_bat_bachelor,2022.2.4,59.860456033276634,
,,,,,,,,,,,,0,0,0,0,99,0,99,0,,,,,,,99,,,1,858.5306797875091,Y,d,go,d,1,,0.5197503929957747,,,,,,,,,,,,,,,,,9,001,19,w,Psychologie,2023-01-09_09h03.20.881,00_bat_bachelor,2022.2.4,59.860456033276634,
,,,,,,,,,,,,0,0,0,0,100,0,100,0,,,,,,,100,,,1,860.1652917969041,Y,None,nogo,d,0,,0.54908133065328,,,,,,,,,,,,,,,,,9,001,19,w,Psychologie,2023-01-09_09h03.20.881,00_bat_bachelor,2022.2.4,59.860456033276634,
,,,,,,,,,,,,0,0,0,0,101,0,101,0,,,,,,,101,,,1,861.8165753372014,X,l,go,l,1,,0.5944816167466342,,,,,,,,,,,,,,,,,9,001,19,w,Psychologie,2023-01-09_09h03.20.881,00_bat_bachelor,2022.2.4,59.860456033276634,
,,,,,,,,,,,,0,0,0,0,102,0,102,0,,,,,,,102,,,1,863.5176208657213,Y,d,go,d,1,,0.3820319566875696,,,,,,,,,,,,,,,,,9,001,19,w,Psychologie,2023-01-09_09h03.20.881,00_bat_bachelor,2022.2.4,59.860456033276634,
,,,,,,,,,,,,0,0,0,0,103,0,103,0,,,,,,,103,,,1,865.002274911385,X,l,go,l,1,,0.4805290214717388,,,,,,,,,,,,,,,,,9,001,19,w,Psychologie,2023-01-09_09h03.20.881,00_bat_bachelor,2022.2.4,59.860456033276634,
,,,,,,,,,,,,0,0,0,0,104,0,104,0,,,,,,,104,,,1,866.5867365691811,X,None,nogo,None,1,,,,,,,,,,,,,,,,,,,9,001,19,w,Psychologie,2023-01-09_09h03.20.881,00_bat_bachelor,2022.2.4,59.860456033276634,
,,,,,,,,,,,,0,0,0,0,105,0,105,0,,,,,,,105,,,1,868.3882534676231,Y,d,go,d,1,,0.3419708264991641,,,,,,,,,,,,,,,,,9,001,19,w,Psychologie,2023-01-09_09h03.20.881,00_bat_bachelor,2022.2.4,59.860456033276634,
,,,,,,,,,,,,0,0,0,0,106,0,106,0,,,,,,,106,,,1,869.8392032380216,X,l,go,l,1,,0.4281483646482229,,,,,,,,,,,,,,,,,9,001,19,w,Psychologie,2023-01-09_09h03.20.881,00_bat_bachelor,2022.2.4,59.860456033276634,
,,,,,,,,,,,,0,0,0,0,107,0,107,0,,,,,,,107,,,1,871.3738374533132,X,None,nogo,None,1,872.1742251385003,,,,,,,,,,,,,,,,,,9,001,19,w,Psychologie,2023-01-09_09h03.20.881,00_bat_bachelor,2022.2.4,59.860456033276634,
,,,,,,,,,,,,0,0,0,0,108,0,108,0,,,,,,,108,,,1,873.1749761695974,Y,d,go,d,1,,0.37229521991685033,,,,,,,,,,,,,,,,,9,001,19,w,Psychologie,2023-01-09_09h03.20.881,00_bat_bachelor,2022.2.4,59.860456033276634,
,,,,,,,,,,,,0,0,0,0,109,0,109,0,,,,,,,109,,,1,874.6596879125573,X,l,go,l,1,,0.4711530124768615,,,,,,,,,,,,,,,,,9,001,19,w,Psychologie,2023-01-09_09h03.20.881,00_bat_bachelor,2022.2.4,59.860456033276634,
,,,,,,,,,,,,0,0,0,0,110,0,110,0,,,,,,,110,,,1,876.2440293277614,X,None,nogo,None,1,877.0448402860202,,,,,,,,,,,,,,,,,,9,001,19,w,Psychologie,2023-01-09_09h03.20.881,00_bat_bachelor,2022.2.4,59.860456033276634,
,,,,,,,,,,,,0,0,0,0,111,0,111,0,,,,,,,111,,,1,878.0456102262251,Y,d,go,d,1,,0.42862788075581193,,,,,,,,,,,,,,,,,9,001,19,w,Psychologie,2023-01-09_09h03.20.881,00_bat_bachelor,2022.2.4,59.860456033276634,
,,,,,,,,,,,,0,0,0,0,112,0,112,0,,,,,,,112,,,1,879.5797765622847,X,l,go,l,1,,0.4154812013730407,,,,,,,,,,,,,,,,,9,001,19,w,Psychologie,2023-01-09_09h03.20.881,00_bat_bachelor,2022.2.4,59.860456033276634,
,,,,,,,,,,,,0,0,0,0,113,0,113,0,,,,,,,113,,,1,881.0978725799359,Y,d,go,d,1,,0.6249761921353638,,,,,,,,,,,,,,,,,9,001,19,w,Psychologie,2023-01-09_09h03.20.881,00_bat_bachelor,2022.2.4,59.860456033276634,
,,,,,,,,,,,,0,0,0,0,114,0,114,0,,,,,,,114,,,1,882.8326170500368,Y,None,nogo,None,1,,,,,,,,,,,,,,,,,,,9,001,19,w,Psychologie,2023-01-09_09h03.20.881,00_bat_bachelor,2022.2.4,59.860456033276634,
,,,,,,,,,,,,0,0,0,0,115,0,115,0,,,,,,,115,,,1,884.6339438874274,X,l,go,l,1,,0.4489803849719465,,,,,,,,,,,,,,,,,9,001,19,w,Psychologie,2023-01-09_09h03.20.881,00_bat_bachelor,2022.2.4,59.860456033276634,
,,,,,,,,,,,,0,0,0,0,116,0,116,0,,,,,,,116,,,1,886.184978603851,Y,d,go,d,1,,0.2579731699079275,,,,,,,,,,,,,,,,,9,001,19,w,Psychologie,2023-01-09_09h03.20.881,00_bat_bachelor,2022.2.4,59.860456033276634,
,,,,,,,,,,,,0,0,0,0,117,0,117,0,,,,,,,117,,,1,887.5528102330863,X,l,go,None,0,,,,,,,,,,,,,,,,,,,9,001,19,w,Psychologie,2023-01-09_09h03.20.881,00_bat_bachelor,2022.2.4,59.860456033276634,
,,,,,,,,,,,,0,0,0,0,118,0,118,0,,,,,,,118,,,1,889.3542335554957,Y,d,go,d,1,,0.4975923113524914,,,,,,,,,,,,,,,,,9,001,19,w,Psychologie,2023-01-09_09h03.20.881,00_bat_bachelor,2022.2.4,59.860456033276634,
,,,,,,,,,,,,0,0,0,0,119,0,119,0,,,,,,,119,,,1,890.9554671081714,Y,None,nogo,d,0,,0.4155597467906773,,,,,,,,,,,,,,,,,9,001,19,w,Psychologie,2023-01-09_09h03.20.881,00_bat_bachelor,2022.2.4,59.860456033276634,
,,,,,,,,,,,,0,0,0,0,120,0,120,0,,,,,,,120,,,1,892.4730714890175,X,l,go,l,1,,0.6573820416815579,,,,,,,,,,,,,,,,,9,001,19,w,Psychologie,2023-01-09_09h03.20.881,00_bat_bachelor,2022.2.4,59.860456033276634,
,,,,,,,,,,,,0,0,0,0,121,0,121,0,,,,,,,121,,,1,894.2412429004908,Y,d,go,d,1,,0.3464566492475569,,,,,,,,,,,,,,,,,9,001,19,w,Psychologie,2023-01-09_09h03.20.881,00_bat_bachelor,2022.2.4,59.860456033276634,
,,,,,,,,,,,,0,0,0,0,122,0,122,0,,,,,,,122,,,1,895.6923967925832,Y,None,nogo,None,1,,,,,,,,,,,,,,,,,,,9,001,19,w,Psychologie,2023-01-09_09h03.20.881,00_bat_bachelor,2022.2.4,59.860456033276634,
,,,,,,,,,,,,0,0,0,0,123,0,123,0,,,,,,,123,,,1,897.4935345393606,X,l,go,l,1,,0.3891010540537536,,,,,,,,,,,,,,,,,9,001,19,w,Psychologie,2023-01-09_09h03.20.881,00_bat_bachelor,2022.2.4,59.860456033276634,
,,,,,,,,,,,,0,0,0,0,124,0,124,0,,,,,,,124,,,1,898.9948707828298,Y,d,go,d,1,,0.5035142558626831,,,,,,,,,,,,,,,,,9,001,19,w,Psychologie,2023-01-09_09h03.20.881,00_bat_bachelor,2022.2.4,59.860456033276634,
,,,,,,,,,,,,0,0,0,0,125,0,125,0,,,,,,,125,,,1,900.6129242307507,Y,None,nogo,d,0,,0.5022211638279259,,,,,,,,,,,,,,,,,9,001,19,w,Psychologie,2023-01-09_09h03.20.881,00_bat_bachelor,2022.2.4,59.860456033276634,
,,,,,,,,,,,,0,0,0,0,126,0,126,0,,,,,,,126,,,1,902.2308370722458,X,l,go,l,1,,0.5002386164851487,,,,,,,,,,,,,,,,,9,001,19,w,Psychologie,2023-01-09_09h03.20.881,00_bat_bachelor,2022.2.4,59.860456033276634,
,,,,,,,,,,,,0,0,0,0,127,0,127,0,,,,,,,127,,,1,903.8317452915944,Y,d,go,d,1,,0.3552265972830355,,,,,,,,,,,,,,,,,9,001,19,w,Psychologie,2023-01-09_09h03.20.881,00_bat_bachelor,2022.2.4,59.860456033276634,
,,,,,,,,,,,,0,0,0,0,128,0,128,0,,,,,,,128,,,1,905.2997486544773,Y,None,nogo,None,1,,,,,,,,,,,,,,,,,,,9,001,19,w,Psychologie,2023-01-09_09h03.20.881,00_bat_bachelor,2022.2.4,59.860456033276634,
,,,,,,,,,,,,0,0,0,0,129,0,129,0,,,,,,,129,,,1,907.1011457950808,X,l,go,l,1,,0.4941004286520183,,,,,,,,,,,,,,,,,9,001,19,w,Psychologie,2023-01-09_09h03.20.881,00_bat_bachelor,2022.2.4,59.860456033276634,
,,,,,,,,,,,,0,0,0,0,130,0,130,0,,,,,,,130,,,1,908.7024283176288,Y,d,go,d,1,,0.34844259079545736,,,,,,,,,,,,,,,,,9,001,19,w,Psychologie,2023-01-09_09h03.20.881,00_bat_bachelor,2022.2.4,59.860456033276634,
,,,,,,,,,,,,0,0,0,0,131,0,131,0,,,,,,,131,,,1,910.1531676636077,X,l,go,l,1,,0.45022790133953094,,,,,,,,,,,,,,,,,9,001,19,w,Psychologie,2023-01-09_09h03.20.881,00_bat_bachelor,2022.2.4,59.860456033276634,
,,,,,,,,,,,,0,0,0,0,132,0,132,0,,,,,,,132,,,1,911.7046343800612,Y,d,go,d,1,,0.46680779615417123,,,,,,,,,,,,,,,,,9,001,19,w,Psychologie,2023-01-09_09h03.20.881,00_bat_bachelor,2022.2.4,59.860456033276634,
,,,,,,,,,,,,0,0,0,0,133,0,133,0,,,,,,,133,,,1,913.2724870522507,X,l,go,l,1,,0.49889703933149576,,,,,,,,,,,,,,,,,9,001,19,w,Psychologie,2023-01-09_09h03.20.881,00_bat_bachelor,2022.2.4,59.860456033276634,
,,,,,,,,,,,,0,0,0,0,134,0,134,0,,,,,,,134,,,1,914.8733831499703,Y,d,go,d,1,,0.5613101907074451,,,,,,,,,,,,,,,,,9,001,19,w,Psychologie,2023-01-09_09h03.20.881,00_bat_bachelor,2022.2.4,59.860456033276634,
,,,,,,,,,,,,0,0,0,0,135,0,135,0,,,,,,,135,,,1,916.5416364041157,X,l,go,l,1,,0.30086775636300445,,,,,,,,,,,,,,,,,9,001,19,w,Psychologie,2023-01-09_09h03.20.881,00_bat_bachelor,2022.2.4,59.860456033276634,
,,,,,,,,,,,,0,0,0,0,136,0,136,0,,,,,,,136,,,1,917.959424930159,Y,d,go,d,1,,0.27554942900314927,,,,,,,,,,,,,,,,,9,001,19,w,Psychologie,2023-01-09_09h03.20.881,00_bat_bachelor,2022.2.4,59.860456033276634,
,,,,,,,,,,,,0,0,0,0,137,0,137,0,,,,,,,137,,,1,919.3437511213124,Y,None,nogo,None,1,920.1443802611902,,,,,,,,,,,,,,,,,,9,001,19,w,Psychologie,2023-01-09_09h03.20.881,00_bat_bachelor,2022.2.4,59.860456033276634,
,,,,,,,,,,,,0,0,0,0,138,0,138,0,,,,,,,138,,,1,921.14509735303,X,l,go,l,1,,0.22716586710885167,,,,,,,,,,,,,,,,,9,001,19,w,Psychologie,2023-01-09_09h03.20.881,00_bat_bachelor,2022.2.4,59.860456033276634,
,,,,,,,,,,,,0,0,0,0,139,0,139,0,,,,,,,139,,,1,922.4794433740899,Y,d,go,d,1,,0.34733325615525246,,,,,,,,,,,,,,,,,9,001,19,w,Psychologie,2023-01-09_09h03.20.881,00_bat_bachelor,2022.2.4,59.860456033276634,
,,,,,,,,,,,,0,0,0,0,140,0,140,0,,,,,,,140,,,1,923.9306602962315,Y,None,nogo,None,1,,,,,,,,,,,,,,,,,,,9,001,19,w,Psychologie,2023-01-09_09h03.20.881,00_bat_bachelor,2022.2.4,59.860456033276634,
,,,,,,,,,,,,0,0,0,0,141,0,141,0,,,,,,,141,,,1,925.7319764671847,X,l,go,l,1,,0.4396853456273675,,,,,,,,,,,,,,,,,9,001,19,w,Psychologie,2023-01-09_09h03.20.881,00_bat_bachelor,2022.2.4,59.860456033276634,
,,,,,,,,,,,,0,0,0,0,142,0,142,0,,,,,,,142,,,1,927.2831847593188,Y,d,go,d,1,,0.5356325902976096,,,,,,,,,,,,,,,,,9,001,19,w,Psychologie,2023-01-09_09h03.20.881,00_bat_bachelor,2022.2.4,59.860456033276634,
,,,,,,,,,,,,0,0,0,0,143,0,143,0,,,,,,,143,,,1,928.934460057877,X,l,go,l,1,,0.4680267064832151,,,,,,,,,,,,,,,,,9,001,19,w,Psychologie,2023-01-09_09h03.20.881,00_bat_bachelor,2022.2.4,59.860456033276634,
,,,,,,,,,,,,0,0,0,0,144,0,144,0,,,,,,,144,,,1,930.5189910489134,X,None,nogo,None,1,931.31939376425,,,,,,,,,,,,,,,,,,9,001,19,w,Psychologie,2023-01-09_09h03.20.881,00_bat_bachelor,2022.2.4,59.860456033276634,
,,,,,,,,,,,,0,0,0,0,145,0,145,0,,,,,,,145,,,1,932.3203256442212,Y,d,go,d,1,,0.36249108891934156,,,,,,,,,,,,,,,,,9,001,19,w,Psychologie,2023-01-09_09h03.20.881,00_bat_bachelor,2022.2.4,59.860456033276634,
,,,,,,,,,,,,0,0,0,0,146,0,146,0,,,,,,,146,,,1,933.787947430741,X,l,go,l,1,,0.5909911897033453,,,,,,,,,,,,,,,,,9,001,19,w,Psychologie,2023-01-09_09h03.20.881,00_bat_bachelor,2022.2.4,59.860456033276634,
,,,,,,,,,,,,0,0,0,0,147,0,147,0,,,,,,,147,,,1,935.4892736864276,Y,d,go,d,1,,0.23320611519739032,,,,,,,,,,,,,,,,,9,001,19,w,Psychologie,2023-01-09_09h03.20.881,00_bat_bachelor,2022.2.4,59.860456033276634,
,,,,,,,,,,,,0,0,0,0,148,0,148,0,,,,,,,148,,,1,936.823798132129,Y,None,nogo,d,0,,0.40328821912407875,,,,,,,,,,,,,,,,,9,001,19,w,Psychologie,2023-01-09_09h03.20.881,00_bat_bachelor,2022.2.4,59.860456033276634,
,,,,,,,,,,,,0,0,0,0,149,0,149,0,,,,,,,149,,,1,938.3414088161662,X,l,go,l,1,,0.37375752395018935,,,,,,,,,,,,,,,,,9,001,19,w,Psychologie,2023-01-09_09h03.20.881,00_bat_bachelor,2022.2.4,59.860456033276634,
,,,,,,,,,,,,0,0,0,0,150,0,150,0,,,,,,,150,,,1,939.8260507406667,Y,d,go,d,1,,0.24911449430510402,,,,,,,,,,,,,,,,,9,001,19,w,Psychologie,2023-01-09_09h03.20.881,00_bat_bachelor,2022.2.4,59.860456033276634,
,,,,,,,,,,,,0,0,0,0,151,0,151,0,,,,,,,151,,,1,941.1772244144231,X,l,go,l,1,,0.401821066159755,,,,,,,,,,,,,,,,,9,001,19,w,Psychologie,2023-01-09_09h03.20.881,00_bat_bachelor,2022.2.4,59.860456033276634,
,,,,,,,,,,,,0,0,0,0,152,0,152,0,,,,,,,152,,,1,942.6947255223058,Y,d,go,d,1,,0.5325775570236146,,,,,,,,,,,,,,,,,9,001,19,w,Psychologie,2023-01-09_09h03.20.881,00_bat_bachelor,2022.2.4,59.860456033276634,
,,,,,,,,,,,,0,0,0,0,153,0,153,0,,,,,,,153,,,1,944.3294791076332,X,l,go,l,1,,0.369828793220222,,,,,,,,,,,,,,,,,9,001,19,w,Psychologie,2023-01-09_09h03.20.881,00_bat_bachelor,2022.2.4,59.860456033276634,
,,,,,,,,,,,,0,0,0,0,154,0,154,0,,,,,,,154,,,1,945.8139653955586,X,None,nogo,None,1,,,,,,,,,,,,,,,,,,,9,001,19,w,Psychologie,2023-01-09_09h03.20.881,00_bat_bachelor,2022.2.4,59.860456033276634,
,,,,,,,,,,,,0,0,0,0,155,0,155,0,,,,,,,155,,,1,947.6153281116858,Y,d,go,d,1,,0.3155974680557847,,,,,,,,,,,,,,,,,9,001,19,w,Psychologie,2023-01-09_09h03.20.881,00_bat_bachelor,2022.2.4,59.860456033276634,
,,,,,,,,,,,,0,0,0,0,156,0,156,0,,,,,,,156,,,1,949.0331292441115,X,l,go,l,1,,0.25810844264924526,,,,,,,,,,,,,,,,,9,001,19,w,Psychologie,2023-01-09_09h03.20.881,00_bat_bachelor,2022.2.4,59.860456033276634,
,,,,,,,,,,,,0,0,0,0,157,0,157,0,,,,,,,157,,,1,950.4007649947889,X,None,nogo,None,1,951.201349043753,,,,,,,,,,,,,,,,,,9,001,19,w,Psychologie,2023-01-09_09h03.20.881,00_bat_bachelor,2022.2.4,59.860456033276634,
,,,,,,,,,,,,0,0,0,0,158,0,158,0,,,,,,,158,,,1,952.2022309838794,Y,d,go,d,1,,0.36792527604848146,,,,,,,,,,,,,,,,,9,001,19,w,Psychologie,2023-01-09_09h03.20.881,00_bat_bachelor,2022.2.4,59.860456033276634,
,,,,,,,,,,,,0,0,0,0,159,0,159,0,,,,,,,159,,,1,953.6865155748092,X,l,go,l,1,,0.4202923574484885,,,,,,,,,,,,,,,,,9,001,19,w,Psychologie,2023-01-09_09h03.20.881,00_bat_bachelor,2022.2.4,59.860456033276634,
,,,,,,,,,,,,0,0,0,0,160,0,160,0,,,,,,,160,,,1,955.2211827598512,Y,d,go,d,1,,0.42126932786777616,,,,,,,,,,,,,,,,,9,001,19,w,Psychologie,2023-01-09_09h03.20.881,00_bat_bachelor,2022.2.4,59.860456033276634,
,,,,,,,,,,,,0,0,0,0,161,0,161,0,,,,,,,161,,,1,956.7555391569622,X,l,go,l,1,,0.37638976937159896,,,,,,,,,,,,,,,,,9,001,19,w,Psychologie,2023-01-09_09h03.20.881,00_bat_bachelor,2022.2.4,59.860456033276634,
,,,,,,,,,,,,0,0,0,0,162,0,162,0,,,,,,,162,,,1,958.2401738087647,X,None,nogo,None,1,959.0407971306704,,,,,,,,,,,,,,,,,,9,001,19,w,Psychologie,2023-01-09_09h03.20.881,00_bat_bachelor,2022.2.4,59.860456033276634,
,,,,,,,,,,,,0,0,0,0,163,0,163,0,,,,,,,163,,,1,960.0415079188533,Y,d,go,d,1,,0.41812168853357434,,,,,,,,,,,,,,,,,9,001,19,w,Psychologie,2023-01-09_09h03.20.881,00_bat_bachelor,2022.2.4,59.860456033276634,
,,,,,,,,,,,,0,0,0,0,164,0,164,0,,,,,,,164,,,1,961.5759923160076,X,l,go,l,1,,0.27541948948055506,,,,,,,,,,,,,,,,,9,001,19,w,Psychologie,2023-01-09_09h03.20.881,00_bat_bachelor,2022.2.4,59.860456033276634,
,,,,,,,,,,,,0,0,0,0,165,0,165,0,,,,,,,165,,,1,962.9605415374972,X,None,nogo,None,1,963.7610606169328,,,,,,,,,,,,,,,,,,9,001,19,w,Psychologie,2023-01-09_09h03.20.881,00_bat_bachelor,2022.2.4,59.860456033276634,
,,,,,,,,,,,,0,0,0,0,166,0,166,0,,,,,,,166,,,1,964.7615440110676,Y,d,go,d,1,,0.3371344581246376,,,,,,,,,,,,,,,,,9,001,19,w,Psychologie,2023-01-09_09h03.20.881,00_bat_bachelor,2022.2.4,59.860456033276634,
,,,,,,,,,,,,0,0,0,0,167,0,167,0,,,,,,,167,,,1,966.2128928126767,X,l,go,l,1,,0.3595383591018617,,,,,,,,,,,,,,,,,9,001,19,w,Psychologie,2023-01-09_09h03.20.881,00_bat_bachelor,2022.2.4,59.860456033276634,
,,,,,,,,,,,,0,0,0,0,168,0,168,0,,,,,,,168,,,1,967.6806833269075,X,None,nogo,None,1,,,,,,,,,,,,,,,,,,,9,001,19,w,Psychologie,2023-01-09_09h03.20.881,00_bat_bachelor,2022.2.4,59.860456033276634,
,,,,,,,,,,,,0,0,0,0,169,0,169,0,,,,,,,169,,,1,969.4818433765322,Y,d,go,d,1,,0.4002918526530266,,,,,,,,,,,,,,,,,9,001,19,w,Psychologie,2023-01-09_09h03.20.881,00_bat_bachelor,2022.2.4,59.860456033276634,
,,,,,,,,,,,,0,0,0,0,170,0,170,0,,,,,,,170,,,1,970.9832416805439,X,l,go,l,1,,0.3563689012080431,,,,,,,,,,,,,,,,,9,001,19,w,Psychologie,2023-01-09_09h03.20.881,00_bat_bachelor,2022.2.4,59.860456033276634,
,,,,,,,,,,,,0,0,0,0,171,0,171,0,,,,,,,171,,,1,972.4508998310193,X,None,nogo,None,1,,,,,,,,,,,,,,,,,,,9,001,19,w,Psychologie,2023-01-09_09h03.20.881,00_bat_bachelor,2022.2.4,59.860456033276634,
,,,,,,,,,,,,0,0,0,0,172,0,172,0,,,,,,,172,,,1,974.2524065477774,Y,d,go,d,1,,0.30225103069096804,,,,,,,,,,,,,,,,,9,001,19,w,Psychologie,2023-01-09_09h03.20.881,00_bat_bachelor,2022.2.4,59.860456033276634,
,,,,,,,,,,,,0,0,0,0,173,0,173,0,,,,,,,173,,,1,975.6700995587744,X,l,go,l,1,,0.3412614925764501,,,,,,,,,,,,,,,,,9,001,19,w,Psychologie,2023-01-09_09h03.20.881,00_bat_bachelor,2022.2.4,59.860456033276634,
,,,,,,,,,,,,0,0,0,0,174,0,174,0,,,,,,,174,,,1,977.1212733299471,Y,d,go,d,1,,0.29805029928684235,,,,,,,,,,,,,,,,,9,001,19,w,Psychologie,2023-01-09_09h03.20.881,00_bat_bachelor,2022.2.4,59.860456033276634,
,,,,,,,,,,,,0,0,0,0,175,0,175,0,,,,,,,175,,,1,978.5223253550939,Y,None,nogo,None,1,979.3226267369464,,,,,,,,,,,,,,,,,,9,001,19,w,Psychologie,2023-01-09_09h03.20.881,00_bat_bachelor,2022.2.4,59.860456033276634,
,,,,,,,,,,,,0,0,0,0,176,0,176,0,,,,,,,176,,,1,980.3236769200303,X,l,go,l,1,,0.45481893606483936,,,,,,,,,,,,,,,,,9,001,19,w,Psychologie,2023-01-09_09h03.20.881,00_bat_bachelor,2022.2.4,59.860456033276634,
,,,,,,,,,,,,0,0,0,0,177,0,177,0,,,,,,,177,,,1,981.8917123801075,Y,d,go,d,1,,0.3434433131478727,,,,,,,,,,,,,,,,,9,001,19,w,Psychologie,2023-01-09_09h03.20.881,00_bat_bachelor,2022.2.4,59.860456033276634,
,,,,,,,,,,,,0,0,0,0,178,0,178,0,,,,,,,178,,,1,983.3428216655739,X,l,go,l,1,,0.4595544561743736,,,,,,,,,,,,,,,,,9,001,19,w,Psychologie,2023-01-09_09h03.20.881,00_bat_bachelor,2022.2.4,59.860456033276634,
,,,,,,,,,,,,0,0,0,0,179,0,179,0,,,,,,,179,,,1,984.9109972468577,Y,d,go,d,1,,0.39635924343019724,,,,,,,,,,,,,,,,,9,001,19,w,Psychologie,2023-01-09_09h03.20.881,00_bat_bachelor,2022.2.4,59.860456033276634,
,,,,,,,,,,,,0,0,0,0,180,0,180,0,,,,,,,180,,,1,986.4120139754377,X,l,go,l,1,,0.3513856236822903,,,,,,,,,,,,,,,,,9,001,19,w,Psychologie,2023-01-09_09h03.20.881,00_bat_bachelor,2022.2.4,59.860456033276634,
,,,,,,,,,,,,0,0,0,0,181,0,181,0,,,,,,,181,,,1,987.8795916410163,X,None,nogo,None,1,988.6804399327375,,,,,,,,,,,,,,,,,,9,001,19,w,Psychologie,2023-01-09_09h03.20.881,00_bat_bachelor,2022.2.4,59.860456033276634,
,,,,,,,,,,,,0,0,0,0,182,0,182,0,,,,,,,182,,,1,989.6812879336067,Y,d,go,d,1,,0.26510141883045435,,,,,,,,,,,,,,,,,9,001,19,w,Psychologie,2023-01-09_09h03.20.881,00_bat_bachelor,2022.2.4,59.860456033276634,
,,,,,,,,,,,,0,0,0,0,183,0,183,0,,,,,,,183,,,1,991.065232063178,X,l,go,l,1,,0.4988378877751529,,,,,,,,,,,,,,,,,9,001,19,w,Psychologie,2023-01-09_09h03.20.881,00_bat_bachelor,2022.2.4,59.860456033276634,
,,,,,,,,,,,,0,0,0,0,184,0,184,0,,,,,,,184,,,1,992.6664554341696,Y,d,go,d,1,,0.44897553650662303,,,,,,,,,,,,,,,,,9,001,19,w,Psychologie,2023-01-09_09h03.20.881,00_bat_bachelor,2022.2.4,59.860456033276634,
,,,,,,,,,,,,0,0,0,0,185,0,185,0,,,,,,,185,,,1,994.2174023925327,X,l,go,l,1,,0.40073645953089,,,,,,,,,,,,,,,,,9,001,19,w,Psychologie,2023-01-09_09h03.20.881,00_bat_bachelor,2022.2.4,59.860456033276634,
,,,,,,,,,,,,0,0,0,0,186,0,186,0,,,,,,,186,,,1,995.735378167592,Y,d,go,d,1,,0.4830739935860038,,,,,,,,,,,,,,,,,9,001,19,w,Psychologie,2023-01-09_09h03.20.881,00_bat_bachelor,2022.2.4,59.860456033276634,
,,,,,,,,,,,,0,0,0,0,187,0,187,0,,,,,,,187,,,1,997.3199721891433,Y,None,nogo,None,1,,,,,,,,,,,,,,,,,,,9,001,19,w,Psychologie,2023-01-09_09h03.20.881,00_bat_bachelor,2022.2.4,59.860456033276634,
,,,,,,,,,,,,0,0,0,0,188,0,188,0,,,,,,,188,,,1,999.1213717539795,Y,None,nogo,d,0,,0.5533189103007317,,,,,,,,,,,,,,,,,9,001,19,w,Psychologie,2023-01-09_09h03.20.881,00_bat_bachelor,2022.2.4,59.860456033276634,
,,,,,,,,,,,,0,0,0,0,189,0,189,0,,,,,,,189,,,1,1000.7892036745325,X,l,go,l,1,,0.5658415891230106,,,,,,,,,,,,,,,,,9,001,19,w,Psychologie,2023-01-09_09h03.20.881,00_bat_bachelor,2022.2.4,59.860456033276634,
,,,,,,,,,,,,0,0,0,0,190,0,190,0,,,,,,,190,,,1,1002.4572334131226,Y,d,go,d,1,,0.28934677597135305,,,,,,,,,,,,,,,,,9,001,19,w,Psychologie,2023-01-09_09h03.20.881,00_bat_bachelor,2022.2.4,59.860456033276634,
,,,,,,,,,,,,0,0,0,0,191,0,191,0,,,,,,,191,,,1,1003.8584076203406,X,l,go,l,1,,0.4887942420318723,,,,,,,,,,,,,,,,,9,001,19,w,Psychologie,2023-01-09_09h03.20.881,00_bat_bachelor,2022.2.4,59.860456033276634,
,,,,,,,,,,,,0,0,0,0,192,0,192,0,,,,,,,192,,,1,1005.459331354592,X,None,nogo,None,1,,,,,,,,,,,,,,,,,,,9,001,19,w,Psychologie,2023-01-09_09h03.20.881,00_bat_bachelor,2022.2.4,59.860456033276634,
,,,,,,,,,,,,0,0,0,0,193,0,193,0,,,,,,,193,,,1,1007.2610029196367,Y,d,go,d,1,,0.3019150304608047,,,,,,,,,,,,,,,,,9,001,19,w,Psychologie,2023-01-09_09h03.20.881,00_bat_bachelor,2022.2.4,59.860456033276634,
,,,,,,,,,,,,0,0,0,0,194,0,194,0,,,,,,,194,,,1,1008.6785441730171,X,l,go,l,1,,0.453034691978246,,,,,,,,,,,,,,,,,9,001,19,w,Psychologie,2023-01-09_09h03.20.881,00_bat_bachelor,2022.2.4,59.860456033276634,
,,,,,,,,,,,,0,0,0,0,195,0,195,0,,,,,,,195,,,1,1010.2465364816599,X,None,nogo,None,1,1011.046916894149,,,,,,,,,,,,,,,,,,9,001,19,w,Psychologie,2023-01-09_09h03.20.881,00_bat_bachelor,2022.2.4,59.860456033276634,
,,,,,,,,,,,,0,0,0,0,196,0,196,0,,,,,,,196,,,1,1012.0479316827841,Y,d,go,d,1,,0.3797429841943085,,,,,,,,,,,,,,,,,9,001,19,w,Psychologie,2023-01-09_09h03.20.881,00_bat_bachelor,2022.2.4,59.860456033276634,
,,,,,,,,,,,,0,0,0,0,197,0,197,0,,,,,,,197,,,1,1013.5322817284614,X,l,go,l,1,,0.3667863658629358,,,,,,,,,,,,,,,,,9,001,19,w,Psychologie,2023-01-09_09h03.20.881,00_bat_bachelor,2022.2.4,59.860456033276634,
,,,,,,,,,,,,0,0,0,0,198,0,198,0,,,,,,,198,,,1,1014.9998637572862,Y,d,go,d,1,,0.48251156928017735,,,,,,,,,,,,,,,,,9,001,19,w,Psychologie,2023-01-09_09h03.20.881,00_bat_bachelor,2022.2.4,59.860456033276634,
,,,,,,,,,,,,0,0,0,0,199,0,199,0,,,,,,,199,,,1,1016.5845014154911,X,l,go,l,1,,0.24367206450551748,,,,,,,,,,,,,,,,,9,001,19,w,Psychologie,2023-01-09_09h03.20.881,00_bat_bachelor,2022.2.4,59.860456033276634,
,,,,,,,,,,,,0,0,0,0,200,0,200,0,,,,,,,200,,,1,1017.9354564221576,X,None,nogo,None,1,,,,,,,,,,,,,,,,,,,9,001,19,w,Psychologie,2023-01-09_09h03.20.881,00_bat_bachelor,2022.2.4,59.860456033276634,
,,,,,,,,,,,,0,0,0,0,201,0,201,0,,,,,,,201,,,1,1019.7368705328554,Y,d,go,d,1,,0.32139044301584363,,,,,,,,,,,,,,,,,9,001,19,w,Psychologie,2023-01-09_09h03.20.881,00_bat_bachelor,2022.2.4,59.860456033276634,
,,,,,,,,,,,,0,0,0,0,202,0,202,0,,,,,,,202,,,1,1021.1715327724814,X,l,go,l,1,,0.4239641181193292,,,,,,,,,,,,,,,,,9,001,19,w,Psychologie,2023-01-09_09h03.20.881,00_bat_bachelor,2022.2.4,59.860456033276634,
,,,,,,,,,,,,0,0,0,0,203,0,203,0,,,,,,,203,,,1,1022.7060525636189,Y,d,go,d,1,,0.5050478330813348,,,,,,,,,,,,,,,,,9,001,19,w,Psychologie,2023-01-09_09h03.20.881,00_bat_bachelor,2022.2.4,59.860456033276634,
,,,,,,,,,,,,0,0,0,0,204,0,204,0,,,,,,,204,,,1,1024.3239523139782,X,l,go,l,1,,0.4241997553035617,,,,,,,,,,,,,,,,,9,001,19,w,Psychologie,2023-01-09_09h03.20.881,00_bat_bachelor,2022.2.4,59.860456033276634,
,,,,,,,,,,,,0,0,0,0,205,0,205,0,,,,,,,205,,,1,1025.8584425295703,Y,d,go,d,1,,0.4089788915589452,,,,,,,,,,,,,,,,,9,001,19,w,Psychologie,2023-01-09_09h03.20.881,00_bat_bachelor,2022.2.4,59.860456033276634,
,,,,,,,,,,,,0,0,0,0,206,0,206,0,,,,,,,206,,,1,1027.3762505468912,Y,None,nogo,None,1,,,,,,,,,,,,,,,,,,,9,001,19,w,Psychologie,2023-01-09_09h03.20.881,00_bat_bachelor,2022.2.4,59.860456033276634,
,,,,,,,,,,,,0,0,0,0,207,0,207,0,,,,,,,207,,,1,1029.1774421115406,X,l,go,l,1,,0.24221121519804,,,,,,,,,,,,,,,,,9,001,19,w,Psychologie,2023-01-09_09h03.20.881,00_bat_bachelor,2022.2.4,59.860456033276634,
,,,,,,,,,,,,0,0,0,0,208,0,208,0,,,,,,,208,,,1,1030.5287636644207,Y,d,go,d,1,,0.362761149648577,,,,,,,,,,,,,,,,,9,001,19,w,Psychologie,2023-01-09_09h03.20.881,00_bat_bachelor,2022.2.4,59.860456033276634,
,,,,,,,,,,,,0,0,0,0,209,0,209,0,,,,,,,209,,,1,1031.996216238942,X,l,go,l,1,,0.4781091404147446,,,,,,,,,,,,,,,,,9,001,19,w,Psychologie,2023-01-09_09h03.20.881,00_bat_bachelor,2022.2.4,59.860456033276634,
,,,,,,,,,,,,0,0,0,0,210,0,210,0,,,,,,,210,,,1,1033.5810526846908,X,None,nogo,None,1,,,,,,,,,,,,,,,,,,,9,001,19,w,Psychologie,2023-01-09_09h03.20.881,00_bat_bachelor,2022.2.4,59.860456033276634,
,,,,,,,,,,,,0,0,0,0,211,0,211,0,,,,,,,211,,,1,1035.382208855357,Y,d,go,d,1,,0.2768929451704025,,,,,,,,,,,,,,,,,9,001,19,w,Psychologie,2023-01-09_09h03.20.881,00_bat_bachelor,2022.2.4,59.860456033276634,
,,,,,,,,,,,,0,0,0,0,212,0,212,0,,,,,,,212,,,1,1036.7667095921934,X,l,go,l,1,,0.3965798495337367,,,,,,,,,,,,,,,,,9,001,19,w,Psychologie,2023-01-09_09h03.20.881,00_bat_bachelor,2022.2.4,59.860456033276634,
,,,,,,,,,,,,0,0,0,0,213,0,213,0,,,,,,,213,,,1,1038.267734077759,Y,d,go,d,1,,0.3827868662774563,,,,,,,,,,,,,,,,,9,001,19,w,Psychologie,2023-01-09_09h03.20.881,00_bat_bachelor,2022.2.4,59.860456033276634,
,,,,,,,,,,,,0,0,0,0,214,0,214,0,,,,,,,214,,,1,1039.7523721237667,X,l,go,l,1,,0.4178298097103834,,,,,,,,,,,,,,,,,9,001,19,w,Psychologie,2023-01-09_09h03.20.881,00_bat_bachelor,2022.2.4,59.860456033276634,
,,,,,,,,,,,,0,0,0,0,215,0,215,0,,,,,,,215,,,1,1041.2869820967317,Y,d,go,d,1,,0.3882205686531961,,,,,,,,,,,,,,,,,9,001,19,w,Psychologie,2023-01-09_09h03.20.881,00_bat_bachelor,2022.2.4,59.860456033276634,
,,,,,,,,,,,,0,0,0,0,216,0,216,0,,,,,,,216,,,1,1042.7879585823976,X,l,go,l,1,,0.4391093449667096,,,,,,,,,,,,,,,,,9,001,19,w,Psychologie,2023-01-09_09h03.20.881,00_bat_bachelor,2022.2.4,59.860456033276634,
,,,,,,,,,,,,0,0,0,0,217,0,217,0,,,,,,,217,,,1,1044.3391387532465,Y,d,go,d,1,,0.42442957358434796,,,,,,,,,,,,,,,,,9,001,19,w,Psychologie,2023-01-09_09h03.20.881,00_bat_bachelor,2022.2.4,59.860456033276634,
,,,,,,,,,,,,0,0,0,0,218,0,218,0,,,,,,,218,,,1,1045.873733210843,Y,None,nogo,None,1,1046.674336654134,,,,,,,,,,,,,,,,,,9,001,19,w,Psychologie,2023-01-09_09h03.20.881,00_bat_bachelor,2022.2.4,59.860456033276634,
,,,,,,,,,,,,0,0,0,0,219,0,219,0,,,,,,,219,,,1,1047.6750459880568,X,l,go,l,1,,0.41546374652534723,,,,,,,,,,,,,,,,,9,001,19,w,Psychologie,2023-01-09_09h03.20.881,00_bat_bachelor,2022.2.4,59.860456033276634,
,,,,,,,,,,,,0,0,0,0,220,0,220,0,,,,,,,220,,,1,1049.1929742479697,Y,d,go,d,1,,0.38580505130812526,,,,,,,,,,,,,,,,,9,001,19,w,Psychologie,2023-01-09_09h03.20.881,00_bat_bachelor,2022.2.4,59.860456033276634,
,,,,,,,,,,,,0,0,0,0,221,0,221,0,,,,,,,221,,,1,1050.6938440669328,X,l,go,l,1,,0.34156549302861094,,,,,,,,,,,,,,,,,9,001,19,w,Psychologie,2023-01-09_09h03.20.881,00_bat_bachelor,2022.2.4,59.860456033276634,
,,,,,,,,,,,,0,0,0,0,222,0,222,0,,,,,,,222,,,1,1052.1450876560993,Y,d,go,d,1,,0.41094204504042864,,,,,,,,,,,,,,,,,9,001,19,w,Psychologie,2023-01-09_09h03.20.881,00_bat_bachelor,2022.2.4,59.860456033276634,
,,,,,,,,,,,,0,0,0,0,223,0,223,0,,,,,,,223,,,1,1053.6629877942614,Y,None,nogo,l,0,,0.3656217586249113,,,,,,,,,,,,,,,,,9,001,19,w,Psychologie,2023-01-09_09h03.20.881,00_bat_bachelor,2022.2.4,59.860456033276634,
,,,,,,,,,,,,0,0,0,0,224,0,224,0,,,,,,,224,,,1,1055.1307337027974,X,l,go,l,1,,0.48093774914741516,,,,,,,,,,,,,,,,,9,001,19,w,Psychologie,2023-01-09_09h03.20.881,00_bat_bachelor,2022.2.4,59.860456033276634,
,,,,,,,,,,,,0,0,0,0,225,0,225,0,,,,,,,225,,,1,1056.7153039663099,Y,d,go,d,1,,0.400398519821465,,,,,,,,,,,,,,,,,9,001,19,w,Psychologie,2023-01-09_09h03.20.881,00_bat_bachelor,2022.2.4,59.860456033276634,
,,,,,,,,,,,,0,0,0,0,226,0,226,0,,,,,,,226,,,1,1058.2165175434202,Y,None,nogo,l,0,,0.4508232958614826,,,,,,,,,,,,,,,,,9,001,19,w,Psychologie,2023-01-09_09h03.20.881,00_bat_bachelor,2022.2.4,59.860456033276634,
,,,,,,,,,,,,0,0,0,0,227,0,227,0,,,,,,,227,,,1,1059.7843033061363,X,l,go,d,0,,0.4503622045740485,,,,,,,,,,,,,,,,,9,001,19,w,Psychologie,2023-01-09_09h03.20.881,00_bat_bachelor,2022.2.4,59.860456033276634,
,,,,,,,,,,,,0,0,0,0,228,0,228,0,,,,,,,228,,,1,1061.3355028708465,Y,d,go,None,0,,,,,,,,,,,,,,,,,,,9,001,19,w,Psychologie,2023-01-09_09h03.20.881,00_bat_bachelor,2022.2.4,59.860456033276634,
,,,,,,,,,,,,0,0,0,0,229,0,229,0,,,,,,,229,,,1,1063.136825344991,Y,None,nogo,d,0,,0.47483544051647186,,,,,,,,,,,,,,,,,9,001,19,w,Psychologie,2023-01-09_09h03.20.881,00_bat_bachelor,2022.2.4,59.860456033276634,
,,,,,,,,,,,,0,0,0,0,230,0,230,0,,,,,,,230,,,1,1064.7214518510737,X,l,go,l,1,,0.6339269885793328,,,,,,,,,,,,,,,,,9,001,19,w,Psychologie,2023-01-09_09h03.20.881,00_bat_bachelor,2022.2.4,59.860456033276634,
,,,,,,,,,,,,0,0,0,0,231,0,231,0,,,,,,,231,,,1,1066.4558467450552,Y,d,go,d,1,,0.45076850801706314,,,,,,,,,,,,,,,,,9,001,19,w,Psychologie,2023-01-09_09h03.20.881,00_bat_bachelor,2022.2.4,59.860456033276634,
,,,,,,,,,,,,0,0,0,0,232,0,232,0,,,,,,,232,,,1,1068.0238725082017,X,l,go,l,1,,0.5315424045547843,,,,,,,,,,,,,,,,,9,001,19,w,Psychologie,2023-01-09_09h03.20.881,00_bat_bachelor,2022.2.4,59.860456033276634,
,,,,,,,,,,,,0,0,0,0,233,0,233,0,,,,,,,233,,,1,1069.6585043962114,X,None,nogo,None,1,,,,,,,,,,,,,,,,,,,9,001,19,w,Psychologie,2023-01-09_09h03.20.881,00_bat_bachelor,2022.2.4,59.860456033276634,
,,,,,,,,,,,,0,0,0,0,234,0,234,0,,,,,,,234,,,1,1071.4596993550658,Y,d,go,d,1,,0.4064683439210057,,,,,,,,,,,,,,,,,9,001,19,w,Psychologie,2023-01-09_09h03.20.881,00_bat_bachelor,2022.2.4,59.860456033276634,
,,,,,,,,,,,,0,0,0,0,235,0,235,0,,,,,,,235,,,1,1072.977773069404,X,l,go,l,1,,0.5054871067404747,,,,,,,,,,,,,,,,,9,001,19,w,Psychologie,2023-01-09_09h03.20.881,00_bat_bachelor,2022.2.4,59.860456033276634,
,,,,,,,,,,,,0,0,0,0,236,0,236,0,,,,,,,236,,,1,1074.595487607643,X,None,nogo,None,1,,,,,,,,,,,,,,,,,,,9,001,19,w,Psychologie,2023-01-09_09h03.20.881,00_bat_bachelor,2022.2.4,59.860456033276634,
,,,,,,,,,,,,0,0,0,0,237,0,237,0,,,,,,,237,,,1,1076.3968115365133,Y,d,go,d,1,,0.30177345406264067,,,,,,,,,,,,,,,,,9,001,19,w,Psychologie,2023-01-09_09h03.20.881,00_bat_bachelor,2022.2.4,59.860456033276634,
,,,,,,,,,,,,0,0,0,0,238,0,238,0,,,,,,,238,,,1,1077.8147484264337,X,l,go,l,1,,0.4040882205590606,,,,,,,,,,,,,,,,,9,001,19,w,Psychologie,2023-01-09_09h03.20.881,00_bat_bachelor,2022.2.4,59.860456033276634,
,,,,,,,,,,,,0,0,0,0,239,0,239,0,,,,,,,239,,,1,1079.3325802013278,X,None,nogo,None,1,,,,,,,,,,,,,,,,,,,9,001,19,w,Psychologie,2023-01-09_09h03.20.881,00_bat_bachelor,2022.2.4,59.860456033276634,
,,,,,,,,,,,,0,0,0,0,240,0,240,0,,,,,,,240,,,1,1081.1339589180425,Y,d,go,d,1,,0.3008881201967597,,,,,,,,,,,,,,,,,9,001,19,w,Psychologie,2023-01-09_09h03.20.881,00_bat_bachelor,2022.2.4,59.860456033276634,
,,,,,,,,,,,,0,0,0,0,241,0,241,0,,,,,,,241,,,1,1082.5517149590887,X,l,go,l,1,,0.45133772073313594,,,,,,,,,,,,,,,,,9,001,19,w,Psychologie,2023-01-09_09h03.20.881,00_bat_bachelor,2022.2.4,59.860456033276634,
,,,,,,,,,,,,0,0,0,0,242,0,242,0,,,,,,,242,,,1,1084.1198435099795,Y,d,go,d,1,,0.3083664304576814,,,,,,,,,,,,,,,,,9,001,19,w,Psychologie,2023-01-09_09h03.20.881,00_bat_bachelor,2022.2.4,59.860456033276634,
,,,,,,,,,,,,0,0,0,0,243,0,243,0,,,,,,,243,,,1,1085.5375612485223,X,l,go,l,1,,0.31360570807009935,,,,,,,,,,,,,,,,,9,001,19,w,Psychologie,2023-01-09_09h03.20.881,00_bat_bachelor,2022.2.4,59.860456033276634,
,,,,,,,,,,,,0,0,0,0,244,0,244,0,,,,,,,244,,,1,1086.9551466233097,X,None,nogo,None,1,,,,,,,,,,,,,,,,,,,9,001,19,w,Psychologie,2023-01-09_09h03.20.881,00_bat_bachelor,2022.2.4,59.860456033276634,
,,,,,,,,,,,,0,0,0,0,245,0,245,0,,,,,,,245,,,1,1088.7565287337638,Y,d,go,d,1,,0.4389566178433597,,,,,,,,,,,,,,,,,9,001,19,w,Psychologie,2023-01-09_09h03.20.881,00_bat_bachelor,2022.2.4,59.860456033276634,
,,,,,,,,,,,,0,0,0,0,246,0,246,0,,,,,,,246,,,1,1090.3077743588947,X,l,go,l,1,,0.31107819033786654,,,,,,,,,,,,,,,,,9,001,19,w,Psychologie,2023-01-09_09h03.20.881,00_bat_bachelor,2022.2.4,59.860456033276634,
,,,,,,,,,,,,0,0,0,0,247,0,247,0,,,,,,,247,,,1,1091.7255434915423,X,None,nogo,l,0,,0.6215017642825842,,,,,,,,,,,,,,,,,9,001,19,w,Psychologie,2023-01-09_09h03.20.881,00_bat_bachelor,2022.2.4,59.860456033276634,
,,,,,,,,,,,,0,0,0,0,248,0,248,0,,,,,,,248,,,1,1093.4601211734116,Y,d,go,d,1,,0.31158388825133443,,,,,,,,,,,,,,,,,9,001,19,w,Psychologie,2023-01-09_09h03.20.881,00_bat_bachelor,2022.2.4,59.860456033276634,
,,,,,,,,,,,,0,0,0,0,249,0,249,0,,,,,,,249,,,1,1094.8779378212057,X,l,go,l,1,,0.3335955459624529,,,,,,,,,,,,,,,,,9,001,19,w,Psychologie,2023-01-09_09h03.20.881,00_bat_bachelor,2022.2.4,59.860456033276634,
,,,,,,,,,,,,1,0,1,0,0,0,0,0,,,,,,,0,,,0.2,1120.114089322742,X,l,go,l,1,,0.5844748197123408,,,,,,,,1095.316792064812,space,24.569790198933333,,,,,,,9,001,19,w,Psychologie,2023-01-09_09h03.20.881,00_bat_bachelor,2022.2.4,59.860456033276634,
,,,,,,,,,,,,1,0,1,0,1,0,1,0,,,,,,,1,,,0.2,1121.014414559584,Y,d,go,d,1,,0.5008917083032429,,,,,,,,,,,,,,,,,9,001,19,w,Psychologie,2023-01-09_09h03.20.881,00_bat_bachelor,2022.2.4,59.860456033276634,
,,,,,,,,,,,,1,0,1,0,2,0,2,0,,,,,,,2,,,0.2,1121.8314669881947,X,l,go,l,1,,0.5157183888368309,,,,,,,,,,,,,,,,,9,001,19,w,Psychologie,2023-01-09_09h03.20.881,00_bat_bachelor,2022.2.4,59.860456033276634,
,,,,,,,,,,,,1,0,1,0,3,0,3,0,,,,,,,3,,,0.2,1122.6488743261434,Y,d,go,d,1,,0.4506337195634842,,,,,,,,,,,,,,,,,9,001,19,w,Psychologie,2023-01-09_09h03.20.881,00_bat_bachelor,2022.2.4,59.860456033276634,
,,,,,,,,,,,,1,0,1,0,4,0,4,0,,,,,,,4,,,0.2,1123.3993293568492,Y,None,nogo,None,1,,,,,,,,,,,,,,,,,,,9,001,19,w,Psychologie,2023-01-09_09h03.20.881,00_bat_bachelor,2022.2.4,59.860456033276634,
,,,,,,,,,,,,1,0,1,0,5,0,5,0,,,,,,,5,,,0.2,1124.400317964144,X,l,go,l,1,,0.4107524692080915,,,,,,,,,,,,,,,,,9,001,19,w,Psychologie,2023-01-09_09h03.20.881,00_bat_bachelor,2022.2.4,59.860456033276634,
,,,,,,,,,,,,1,0,1,0,6,0,6,0,,,,,,,6,,,0.2,1125.117264598608,Y,d,go,d,1,,0.5892229452729225,,,,,,,,,,,,,,,,,9,001,19,w,Psychologie,2023-01-09_09h03.20.881,00_bat_bachelor,2022.2.4,59.860456033276634,
,,,,,,,,,,,,1,0,1,0,7,0,7,0,,,,,,,7,,,0.2,1126.0180087448098,Y,None,nogo,None,1,1126.8186727939174,,,,,,,,,,,,,,,,,,9,001,19,w,Psychologie,2023-01-09_09h03.20.881,00_bat_bachelor,2022.2.4,59.860456033276634,
,,,,,,,,,,,,1,0,1,0,8,0,8,0,,,,,,,8,,,0.2,1127.0187602606602,X,l,go,l,1,,0.39994615595787764,,,,,,,,,,,,,,,,,9,001,19,w,Psychologie,2023-01-09_09h03.20.881,00_bat_bachelor,2022.2.4,59.860456033276634,
,,,,,,,,,,,,1,0,1,0,9,0,9,0,,,,,,,9,,,0.2,1127.7196356067434,Y,d,go,None,0,1128.52012947388,,,,,,,,,,,,,,,,,,9,001,19,w,Psychologie,2023-01-09_09h03.20.881,00_bat_bachelor,2022.2.4,59.860456033276634,
,,,,,,,,,,,,1,0,1,0,10,0,10,0,,,,,,,10,,,0.2,1128.7202542740852,X,l,go,l,1,,0.5548927299678326,,,,,,,,,,,,,,,,,9,001,19,w,Psychologie,2023-01-09_09h03.20.881,00_bat_bachelor,2022.2.4,59.860456033276634,
,,,,,,,,,,,,1,0,1,0,11,0,11,0,,,,,,,11,,,0.2,1129.5875452971086,X,None,nogo,None,1,,,,,,,,,,,,,,,,,,,9,001,19,w,Psychologie,2023-01-09_09h03.20.881,00_bat_bachelor,2022.2.4,59.860456033276634,
,,,,,,,,,,,,1,0,1,0,12,0,12,0,,,,,,,12,,,0.2,1130.5883433585986,Y,d,go,d,1,,0.33453809190541506,,,,,,,,,,,,,,,,,9,001,19,w,Psychologie,2023-01-09_09h03.20.881,00_bat_bachelor,2022.2.4,59.860456033276634,
,,,,,,,,,,,,1,0,1,0,13,0,13,0,,,,,,,13,,,0.2,1131.2386601101607,X,l,go,l,1,,0.5324805872514844,,,,,,,,,,,,,,,,,9,001,19,w,Psychologie,2023-01-09_09h03.20.881,00_bat_bachelor,2022.2.4,59.860456033276634,
,,,,,,,,,,,,1,0,1,0,14,0,14,0,,,,,,,14,,,0.2,1132.0728364344686,Y,d,go,d,1,,0.6586571941152215,,,,,,,,,,,,,,,,,9,001,19,w,Psychologie,2023-01-09_09h03.20.881,00_bat_bachelor,2022.2.4,59.860456033276634,
,,,,,,,,,,,,1,0,1,0,15,0,15,0,,,,,,,15,,,0.2,1133.040357857477,X,l,go,l,1,,0.5710173519328237,,,,,,,,,,,,,,,,,9,001,19,w,Psychologie,2023-01-09_09h03.20.881,00_bat_bachelor,2022.2.4,59.860456033276634,
,,,,,,,,,,,,1,0,1,0,16,0,16,0,,,,,,,16,,,0.2,1133.9242627145723,X,None,nogo,None,1,,,,,,,,,,,,,,,,,,,9,001,19,w,Psychologie,2023-01-09_09h03.20.881,00_bat_bachelor,2022.2.4,59.860456033276634,
,,,,,,,,,,,,1,0,1,0,17,0,17,0,,,,,,,17,,,0.2,1134.9250200483948,Y,d,go,d,1,,0.3668149719014764,,,,,,,,,,,,,,,,,9,001,19,w,Psychologie,2023-01-09_09h03.20.881,00_bat_bachelor,2022.2.4,59.860456033276634,
,,,,,,,,,,,,1,0,1,0,18,0,18,0,,,,,,,18,,,0.2,1135.591994271148,X,l,go,l,1,,0.5321431322954595,,,,,,,,,,,,,,,,,9,001,19,w,Psychologie,2023-01-09_09h03.20.881,00_bat_bachelor,2022.2.4,59.860456033276634,
,,,,,,,,,,,,1,0,1,0,19,0,19,0,,,,,,,19,,,0.2,1136.4261696254835,X,None,nogo,None,1,,,,,,,,,,,,,,,,,,,9,001,19,w,Psychologie,2023-01-09_09h03.20.881,00_bat_bachelor,2022.2.4,59.860456033276634,
,,,,,,,,,,,,1,0,1,0,20,0,20,0,,,,,,,20,,,0.2,1137.4269211413339,Y,d,go,d,1,,0.503559831995517,,,,,,,,,,,,,,,,,9,001,19,w,Psychologie,2023-01-09_09h03.20.881,00_bat_bachelor,2022.2.4,59.860456033276634,
,,,,,,,,,,,,1,0,1,0,21,0,21,0,,,,,,,21,,,0.2,1138.2440060549416,X,l,go,l,1,,0.5190284526906908,,,,,,,,,,,,,,,,,9,001,19,w,Psychologie,2023-01-09_09h03.20.881,00_bat_bachelor,2022.2.4,59.860456033276634,
,,,,,,,,,,,,1,0,1,0,22,0,22,0,,,,,,,22,,,0.2,1139.078116439283,Y,d,go,d,1,,0.4521726304665208,,,,,,,,,,,,,,,,,9,001,19,w,Psychologie,2023-01-09_09h03.20.881,00_bat_bachelor,2022.2.4,59.860456033276634,
,,,,,,,,,,,,1,0,1,0,23,0,23,0,,,,,,,23,,,0.2,1139.8456027596258,X,l,go,l,1,,0.6132767866365612,,,,,,,,,,,,,,,,,9,001,19,w,Psychologie,2023-01-09_09h03.20.881,00_bat_bachelor,2022.2.4,59.860456033276634,
,,,,,,,,,,,,1,0,1,0,24,0,24,0,,,,,,,24,,,0.2,1140.7627997701056,X,None,nogo,None,1,,,,,,,,,,,,,,,,,,,9,001,19,w,Psychologie,2023-01-09_09h03.20.881,00_bat_bachelor,2022.2.4,59.860456033276634,
,,,,,,,,,,,,1,0,1,0,25,0,25,0,,,,,,,25,,,0.2,1141.7637268011458,Y,d,go,d,1,,0.3110505542717874,,,,,,,,,,,,,,,,,9,001,19,w,Psychologie,2023-01-09_09h03.20.881,00_bat_bachelor,2022.2.4,59.860456033276634,
,,,,,,,,,,,,1,0,1,0,26,0,26,0,,,,,,,26,,,0.2,1142.3807664299384,X,l,go,l,1,,0.5418978086672723,,,,,,,,,,,,,,,,,9,001,19,w,Psychologie,2023-01-09_09h03.20.881,00_bat_bachelor,2022.2.4,59.860456033276634,
,,,,,,,,,,,,1,0,1,0,27,0,27,0,,,,,,,27,,,0.2,1143.2313641030341,Y,d,go,d,1,,0.5242764577269554,,,,,,,,,,,,,,,,,9,001,19,w,Psychologie,2023-01-09_09h03.20.881,00_bat_bachelor,2022.2.4,59.860456033276634,
,,,,,,,,,,,,1,0,1,0,28,0,28,0,,,,,,,28,,,0.2,1144.0651297601871,Y,None,nogo,None,1,,,,,,,,,,,,,,,,,,,9,001,19,w,Psychologie,2023-01-09_09h03.20.881,00_bat_bachelor,2022.2.4,59.860456033276634,
,,,,,,,,,,,,1,0,1,0,29,0,29,0,,,,,,,29,,,0.2,1145.0660902457312,X,l,go,l,1,,0.44910159707069397,,,,,,,,,,,,,,,,,9,001,19,w,Psychologie,2023-01-09_09h03.20.881,00_bat_bachelor,2022.2.4,59.860456033276634,
,,,,,,,,,,,,1,0,1,0,30,0,30,0,,,,,,,30,,,0.2,1145.816447337158,Y,d,go,d,1,,0.4670953117311001,,,,,,,,,,,,,,,,,9,001,19,w,Psychologie,2023-01-09_09h03.20.881,00_bat_bachelor,2022.2.4,59.860456033276634,
,,,,,,,,,,,,1,0,1,0,31,0,31,0,,,,,,,31,,,0.2,1146.5839065057226,X,l,go,l,1,,0.45112050836905837,,,,,,,,,,,,,,,,,9,001,19,w,Psychologie,2023-01-09_09h03.20.881,00_bat_bachelor,2022.2.4,59.860456033276634,
,,,,,,,,,,,,1,0,1,0,32,0,32,0,,,,,,,32,,,0.2,1147.351097067818,Y,d,go,d,1,,0.42020702362060547,,,,,,,,,,,,,,,,,9,001,19,w,Psychologie,2023-01-09_09h03.20.881,00_bat_bachelor,2022.2.4,59.860456033276634,
,,,,,,,,,,,,1,0,1,0,33,0,33,0,,,,,,,33,,,0.2,1148.0850914763287,Y,None,nogo,d,0,,0.6146329096518457,,,,,,,,,,,,,,,,,9,001,19,w,Psychologie,2023-01-09_09h03.20.881,00_bat_bachelor,2022.2.4,59.860456033276634,
,,,,,,,,,,,,1,0,1,0,34,0,34,0,,,,,,,34,,,0.2,1149.0023476388305,X,l,go,l,1,,0.5287433713674545,,,,,,,,,,,,,,,,,9,001,19,w,Psychologie,2023-01-09_09h03.20.881,00_bat_bachelor,2022.2.4,59.860456033276634,
,,,,,,,,,,,,1,0,1,0,35,0,35,0,,,,,,,35,,,0.2,1149.8364046900533,Y,d,go,None,0,,,,,,,,,,,,,,,,,,,9,001,19,w,Psychologie,2023-01-09_09h03.20.881,00_bat_bachelor,2022.2.4,59.860456033276634,
,,,,,,,,,,,,1,0,1,0,36,0,36,0,,,,,,,36,,,0.2,1150.837277902756,X,l,go,l,1,,0.5823531206697226,,,,,,,,,,,,,,,,,9,001,19,w,Psychologie,2023-01-09_09h03.20.881,00_bat_bachelor,2022.2.4,59.860456033276634,
,,,,,,,,,,,,1,0,1,0,37,0,37,0,,,,,,,37,,,0.2,1151.7209587595426,X,None,nogo,None,1,,,,,,,,,,,,,,,,,,,9,001,19,w,Psychologie,2023-01-09_09h03.20.881,00_bat_bachelor,2022.2.4,59.860456033276634,
,,,,,,,,,,,,1,0,1,0,38,0,38,0,,,,,,,38,,,0.2,1152.721946882084,Y,d,go,d,1,,0.26538117649033666,,,,,,,,,,,,,,,,,9,001,19,w,Psychologie,2023-01-09_09h03.20.881,00_bat_bachelor,2022.2.4,59.860456033276634,
,,,,,,,,,,,,1,0,1,0,39,0,39,0,,,,,,,39,,,0.2,1153.289029613603,X,l,go,l,1,,0.5789557839743793,,,,,,,,,,,,,,,,,9,001,19,w,Psychologie,2023-01-09_09h03.20.881,00_bat_bachelor,2022.2.4,59.860456033276634,
,,,,,,,,,,,,1,0,1,0,40,0,40,0,,,,,,,40,,,0.2,1154.172806470655,Y,d,go,d,1,,0.4629382165148854,,,,,,,,,,,,,,,,,9,001,19,w,Psychologie,2023-01-09_09h03.20.881,00_bat_bachelor,2022.2.4,59.860456033276634,
,,,,,,,,,,,,1,0,1,0,41,0,41,0,,,,,,,41,,,0.2,1154.9402893967927,X,l,go,l,1,,0.5269639757461846,,,,,,,,,,,,,,,,,9,001,19,w,Psychologie,2023-01-09_09h03.20.881,00_bat_bachelor,2022.2.4,59.860456033276634,
,,,,,,,,,,,,1,0,1,0,42,0,42,0,,,,,,,42,,,0.2,1155.7740574777126,X,None,nogo,None,1,,,,,,,,,,,,,,,,,,,9,001,19,w,Psychologie,2023-01-09_09h03.20.881,00_bat_bachelor,2022.2.4,59.860456033276634,
,,,,,,,,,,,,1,0,1,0,43,0,43,0,,,,,,,43,,,0.2,1156.7749331151135,Y,d,go,d,1,,0.3564697499386966,,,,,,,,,,,,,,,,,9,001,19,w,Psychologie,2023-01-09_09h03.20.881,00_bat_bachelor,2022.2.4,59.860456033276634,
,,,,,,,,,,,,1,0,1,0,44,0,44,0,,,,,,,44,,,0.2,1157.4422923075035,X,l,go,l,1,,0.5527816978283226,,,,,,,,,,,,,,,,,9,001,19,w,Psychologie,2023-01-09_09h03.20.881,00_bat_bachelor,2022.2.4,59.860456033276634,
,,,,,,,,,,,,1,0,1,0,45,0,45,0,,,,,,,45,,,0.2,1158.3094199365005,Y,d,go,d,1,,0.46983373863622546,,,,,,,,,,,,,,,,,9,001,19,w,Psychologie,2023-01-09_09h03.20.881,00_bat_bachelor,2022.2.4,59.860456033276634,
,,,,,,,,,,,,1,0,1,0,46,0,46,0,,,,,,,46,,,0.2,1159.093569545541,X,l,go,l,1,,0.4857338750734925,,,,,,,,,,,,,,,,,9,001,19,w,Psychologie,2023-01-09_09h03.20.881,00_bat_bachelor,2022.2.4,59.860456033276634,
,,,,,,,,,,,,1,0,1,0,47,0,47,0,,,,,,,47,,,0.2,1159.89402268501,Y,d,go,d,1,,0.4211311456747353,,,,,,,,,,,,,,,,,9,001,19,w,Psychologie,2023-01-09_09h03.20.881,00_bat_bachelor,2022.2.4,59.860456033276634,
,,,,,,,,,,,,1,0,1,0,48,0,48,0,,,,,,,48,,,0.2,1160.6280820635147,X,l,go,l,1,,0.5034517105668783,,,,,,,,,,,,,,,,,9,001,19,w,Psychologie,2023-01-09_09h03.20.881,00_bat_bachelor,2022.2.4,59.860456033276634,
,,,,,,,,,,,,1,0,1,0,49,0,49,0,,,,,,,49,,,0.2,1161.4452634621412,Y,d,go,d,1,,0.4697629506699741,,,,,,,,,,,,,,,,,9,001,19,w,Psychologie,2023-01-09_09h03.20.881,00_bat_bachelor,2022.2.4,59.860456033276634,
,,,,,,,,,,,,1,0,1,0,50,0,50,0,,,,,,,50,,,0.2,1162.229181312956,X,l,go,l,1,,0.5656859525479376,,,,,,,,,,,,,,,,,9,001,19,w,Psychologie,2023-01-09_09h03.20.881,00_bat_bachelor,2022.2.4,59.860456033276634,
,,,,,,,,,,,,1,0,1,0,51,0,51,0,,,,,,,51,,,0.2,1163.0962396087125,X,None,nogo,None,1,,,,,,,,,,,,,,,,,,,9,001,19,w,Psychologie,2023-01-09_09h03.20.881,00_bat_bachelor,2022.2.4,59.860456033276634,
,,,,,,,,,,,,1,0,1,0,52,0,52,0,,,,,,,52,,,0.2,1164.0972553668544,Y,d,go,d,1,,0.37912819627672434,,,,,,,,,,,,,,,,,9,001,19,w,Psychologie,2023-01-09_09h03.20.881,00_bat_bachelor,2022.2.4,59.860456033276634,
,,,,,,,,,,,,1,0,1,0,53,0,53,0,,,,,,,53,,,0.2,1164.7811513030902,X,l,go,l,1,,0.6534479772672057,,,,,,,,,,,,,,,,,9,001,19,w,Psychologie,2023-01-09_09h03.20.881,00_bat_bachelor,2022.2.4,59.860456033276634,
,,,,,,,,,,,,1,0,1,0,54,0,54,0,,,,,,,54,,,0.2,1165.7485689683817,X,None,nogo,None,1,1166.548876168672,,,,,,,,,,,,,,,,,,9,001,19,w,Psychologie,2023-01-09_09h03.20.881,00_bat_bachelor,2022.2.4,59.860456033276634,
,,,,,,,,,,,,1,0,1,0,55,0,55,0,,,,,,,55,,,0.2,1166.7491279994138,Y,d,go,d,1,,0.5427574454806745,,,,,,,,,,,,,,,,,9,001,19,w,Psychologie,2023-01-09_09h03.20.881,00_bat_bachelor,2022.2.4,59.860456033276634,
,,,,,,,,,,,,1,0,1,0,56,0,56,0,,,,,,,56,,,0.2,1167.5999588849954,X,l,go,l,1,,0.5400253217667341,,,,,,,,,,,,,,,,,9,001,19,w,Psychologie,2023-01-09_09h03.20.881,00_bat_bachelor,2022.2.4,59.860456033276634,
,,,,,,,,,,,,1,0,1,0,57,0,57,0,,,,,,,57,,,0.2,1168.4504135278985,Y,d,go,d,1,,0.5370308947749436,,,,,,,,,,,,,,,,,9,001,19,w,Psychologie,2023-01-09_09h03.20.881,00_bat_bachelor,2022.2.4,59.860456033276634,
,,,,,,,,,,,,1,0,1,0,58,0,58,0,,,,,,,58,,,0.2,1169.3013598076068,Y,None,nogo,d,0,,0.533961315639317,,,,,,,,,,,,,,,,,9,001,19,w,Psychologie,2023-01-09_09h03.20.881,00_bat_bachelor,2022.2.4,59.860456033276634,
,,,,,,,,,,,,1,0,1,0,59,0,59,0,,,,,,,59,,,0.2,1170.1350042521954,X,l,go,l,1,,0.5152655402198434,,,,,,,,,,,,,,,,,9,001,19,w,Psychologie,2023-01-09_09h03.20.881,00_bat_bachelor,2022.2.4,59.860456033276634,
,,,,,,,,,,,,1,0,1,0,60,0,60,0,,,,,,,60,,,0.2,1170.9525192268193,Y,d,go,d,1,,0.595417860429734,,,,,,,,,,,,,,,,,9,001,19,w,Psychologie,2023-01-09_09h03.20.881,00_bat_bachelor,2022.2.4,59.860456033276634,
,,,,,,,,,,,,1,0,1,0,61,0,61,0,,,,,,,61,,,0.2,1171.8532182821073,X,l,go,l,1,,0.6053965371102095,,,,,,,,,,,,,,,,,9,001,19,w,Psychologie,2023-01-09_09h03.20.881,00_bat_bachelor,2022.2.4,59.860456033276634,
,,,,,,,,,,,,1,0,1,0,62,0,62,0,,,,,,,62,,,0.2,1172.7705437773839,X,None,nogo,None,1,,,,,,,,,,,,,,,,,,,9,001,19,w,Psychologie,2023-01-09_09h03.20.881,00_bat_bachelor,2022.2.4,59.860456033276634,
,,,,,,,,,,,,1,0,1,0,63,0,63,0,,,,,,,63,,,0.2,1173.771133838687,Y,d,go,d,1,,0.36834273068234324,,,,,,,,,,,,,,,,,9,001,19,w,Psychologie,2023-01-09_09h03.20.881,00_bat_bachelor,2022.2.4,59.860456033276634,
,,,,,,,,,,,,1,0,1,0,64,0,64,0,,,,,,,64,,,0.2,1174.4551989869215,X,l,go,l,1,,0.5802677851170301,,,,,,,,,,,,,,,,,9,001,19,w,Psychologie,2023-01-09_09h03.20.881,00_bat_bachelor,2022.2.4,59.860456033276634,
,,,,,,,,,,,,1,0,1,0,65,0,65,0,,,,,,,65,,,0.2,1175.3391474802047,X,None,nogo,None,1,,,,,,,,,,,,,,,,,,,9,001,19,w,Psychologie,2023-01-09_09h03.20.881,00_bat_bachelor,2022.2.4,59.860456033276634,
,,,,,,,,,,,,1,0,1,0,66,0,66,0,,,,,,,66,,,0.2,1176.3399731782265,Y,d,go,d,1,,0.32682123640552163,,,,,,,,,,,,,,,,,9,001,19,w,Psychologie,2023-01-09_09h03.20.881,00_bat_bachelor,2022.2.4,59.860456033276634,
,,,,,,,,,,,,1,0,1,0,67,0,67,0,,,,,,,67,,,0.2,1176.9735160954297,X,l,go,None,0,,,,,,,,,,,,,,,,,,,9,001,19,w,Psychologie,2023-01-09_09h03.20.881,00_bat_bachelor,2022.2.4,59.860456033276634,
,,,,,,,,,,,,1,0,1,0,68,0,68,0,,,,,,,68,,,0.2,1177.9743282175623,Y,d,go,d,1,,0.6454077269881964,,,,,,,,,,,,,,,,,9,001,19,w,Psychologie,2023-01-09_09h03.20.881,00_bat_bachelor,2022.2.4,59.860456033276634,
,,,,,,,,,,,,1,0,1,0,69,0,69,0,,,,,,,69,,,0.2,1178.9252585940994,Y,None,nogo,d,0,,0.5260660354979336,,,,,,,,,,,,,,,,,9,001,19,w,Psychologie,2023-01-09_09h03.20.881,00_bat_bachelor,2022.2.4,59.860456033276634,
,,,,,,,,,,,,1,0,1,0,70,0,70,0,,,,,,,70,,,0.2,1179.7592138270847,X,l,go,None,0,,,,,,,,,,,,,,,,,,,9,001,19,w,Psychologie,2023-01-09_09h03.20.881,00_bat_bachelor,2022.2.4,59.860456033276634,
,,,,,,,,,,,,1,0,1,0,71,0,71,0,,,,,,,71,,,0.2,1180.7599512822926,Y,d,go,d,1,,0.4504935988225043,,,,,,,,,,,,,,,,,9,001,19,w,Psychologie,2023-01-09_09h03.20.881,00_bat_bachelor,2022.2.4,59.860456033276634,
,,,,,,,,,,,,1,0,1,0,72,0,72,0,,,,,,,72,,,0.2,1181.5105522526428,Y,None,nogo,None,1,,,,,,,,,,,,,,,,,,,9,001,19,w,Psychologie,2023-01-09_09h03.20.881,00_bat_bachelor,2022.2.4,59.860456033276634,
,,,,,,,,,,,,1,0,1,0,73,0,73,0,,,,,,,73,,,0.2,1182.5111355260015,X,l,go,l,1,,0.5566444895230234,,,,,,,,,,,,,,,,,9,001,19,w,Psychologie,2023-01-09_09h03.20.881,00_bat_bachelor,2022.2.4,59.860456033276634,
,,,,,,,,,,,,1,0,1,0,74,0,74,0,,,,,,,74,,,0.2,1183.3787160036154,Y,d,go,d,1,,0.5680830460041761,,,,,,,,,,,,,,,,,9,001,19,w,Psychologie,2023-01-09_09h03.20.881,00_bat_bachelor,2022.2.4,59.860456033276634,
,,,,,,,,,,,,1,0,1,0,75,0,75,0,,,,,,,75,,,0.2,1184.2626732243225,X,l,go,l,1,,0.5968694980256259,,,,,,,,,,,,,,,,,9,001,19,w,Psychologie,2023-01-09_09h03.20.881,00_bat_bachelor,2022.2.4,59.860456033276634,
,,,,,,,,,,,,1,0,1,0,76,0,76,0,,,,,,,76,,,0.2,1185.1631696126424,Y,d,go,d,1,,0.5452679935842752,,,,,,,,,,,,,,,,,9,001,19,w,Psychologie,2023-01-09_09h03.20.881,00_bat_bachelor,2022.2.4,59.860456033276634,
,,,,,,,,,,,,1,0,1,0,77,0,77,0,,,,,,,77,,,0.2,1186.013997589238,X,l,go,l,1,,0.6054459912702441,,,,,,,,,,,,,,,,,9,001,19,w,Psychologie,2023-01-09_09h03.20.881,00_bat_bachelor,2022.2.4,59.860456033276634,
,,,,,,,,,,,,1,0,1,0,78,0,78,0,,,,,,,78,,,0.2,1186.9313647821546,X,None,nogo,None,1,,,,,,,,,,,,,,,,,,,9,001,19,w,Psychologie,2023-01-09_09h03.20.881,00_bat_bachelor,2022.2.4,59.860456033276634,
,,,,,,,,,,,,1,0,1,0,79,0,79,0,,,,,,,79,,,0.2,1187.9324392070994,Y,d,go,d,1,,0.2873739255592227,,,,,,,,,,,,,,,,,9,001,19,w,Psychologie,2023-01-09_09h03.20.881,00_bat_bachelor,2022.2.4,59.860456033276634,
,,,,,,,,,,,,1,0,1,0,80,0,80,0,,,,,,,80,,,0.2,1188.5327985771,X,l,go,None,0,1189.3336269902065,,,,,,,,,,,,,,,,,,9,001,19,w,Psychologie,2023-01-09_09h03.20.881,00_bat_bachelor,2022.2.4,59.860456033276634,
,,,,,,,,,,,,1,0,1,0,81,0,81,0,,,,,,,81,,,0.2,1189.5337377297692,X,None,nogo,l,0,,0.3811931675300002,,,,,,,,,,,,,,,,,9,001,19,w,Psychologie,2023-01-09_09h03.20.881,00_bat_bachelor,2022.2.4,59.860456033276634,
,,,,,,,,,,,,1,0,1,0,82,0,82,0,,,,,,,82,,,0.2,1190.2174140289426,Y,d,go,None,0,,,,,,,,,,,,,,,,,,,9,001,19,w,Psychologie,2023-01-09_09h03.20.881,00_bat_bachelor,2022.2.4,59.860456033276634,
,,,,,,,,,,,,1,0,1,0,83,0,83,0,,,,,,,83,,,0.2,1191.2179211811163,X,l,go,None,0,,,,,,,,,,,,,,,,,,,9,001,19,w,Psychologie,2023-01-09_09h03.20.881,00_bat_bachelor,2022.2.4,59.860456033276634,
,,,,,,,,,,,,1,0,1,0,84,0,84,0,,,,,,,84,,,0.2,1192.2187604545616,Y,d,go,d,1,,0.35237665474414825,,,,,,,,,,,,,,,,,9,001,19,w,Psychologie,2023-01-09_09h03.20.881,00_bat_bachelor,2022.2.4,59.860456033276634,
,,,,,,,,,,,,1,0,1,0,85,0,85,0,,,,,,,85,,,0.2,1192.8857870409265,Y,None,nogo,None,1,1193.6863090293482,,,,,,,,,,,,,,,,,,9,001,19,w,Psychologie,2023-01-09_09h03.20.881,00_bat_bachelor,2022.2.4,59.860456033276634,
,,,,,,,,,,,,1,0,1,0,86,0,86,0,,,,,,,86,,,0.2,1193.886682556942,X,l,go,d,0,,0.46054015401750803,,,,,,,,,,,,,,,,,9,001,19,w,Psychologie,2023-01-09_09h03.20.881,00_bat_bachelor,2022.2.4,59.860456033276634,
,,,,,,,,,,,,1,0,1,0,87,0,87,0,,,,,,,87,,,0.2,1194.6538891191594,Y,d,go,None,0,1195.4545541377738,,,,,,,,,,,,,,,,,,9,001,19,w,Psychologie,2023-01-09_09h03.20.881,00_bat_bachelor,2022.2.4,59.860456033276634,
,,,,,,,,,,,,1,0,1,0,88,0,88,0,,,,,,,88,,,0.2,1195.654388513416,Y,None,nogo,d,0,,0.38940553925931454,,,,,,,,,,,,,,,,,9,001,19,w,Psychologie,2023-01-09_09h03.20.881,00_bat_bachelor,2022.2.4,59.860456033276634,
,,,,,,,,,,,,1,0,1,0,89,0,89,0,,,,,,,89,,,0.2,1196.3549889503047,X,l,go,l,1,,0.5035530440509319,,,,,,,,,,,,,,,,,9,001,19,w,Psychologie,2023-01-09_09h03.20.881,00_bat_bachelor,2022.2.4,59.860456033276634,
,,,,,,,,,,,,1,0,1,0,90,0,90,0,,,,,,,90,,,0.2,1197.1723967734724,Y,d,go,d,1,,0.4709901032038033,,,,,,,,,,,,,,,,,9,001,19,w,Psychologie,2023-01-09_09h03.20.881,00_bat_bachelor,2022.2.4,59.860456033276634,
,,,,,,,,,,,,1,0,1,0,91,0,91,0,,,,,,,91,,,0.2,1197.956239957828,Y,None,nogo,None,1,,,,,,,,,,,,,,,,,,,9,001,19,w,Psychologie,2023-01-09_09h03.20.881,00_bat_bachelor,2022.2.4,59.860456033276634,
,,,,,,,,,,,,1,0,1,0,92,0,92,0,,,,,,,92,,,0.2,1198.9571640798822,X,l,go,l,1,,0.39895948814228177,,,,,,,,,,,,,,,,,9,001,19,w,Psychologie,2023-01-09_09h03.20.881,00_bat_bachelor,2022.2.4,59.860456033276634,
,,,,,,,,,,,,1,0,1,0,93,0,93,0,,,,,,,93,,,0.2,1199.6576171224006,Y,d,go,d,1,,0.6096278135664761,,,,,,,,,,,,,,,,,9,001,19,w,Psychologie,2023-01-09_09h03.20.881,00_bat_bachelor,2022.2.4,59.860456033276634,
,,,,,,,,,,,,1,0,1,0,94,0,94,0,,,,,,,94,,,0.2,1200.5754992249422,Y,None,nogo,None,1,1201.3759446069598,,,,,,,,,,,,,,,,,,9,001,19,w,Psychologie,2023-01-09_09h03.20.881,00_bat_bachelor,2022.2.4,59.860456033276634,
,,,,,,,,,,,,1,0,1,0,95,0,95,0,,,,,,,95,,,0.2,1201.576210013125,X,l,go,l,1,,0.4346986743621528,,,,,,,,,,,,,,,,,9,001,19,w,Psychologie,2023-01-09_09h03.20.881,00_bat_bachelor,2022.2.4,59.860456033276634,
,,,,,,,,,,,,1,0,1,0,96,0,96,0,,,,,,,96,,,0.2,1202.3266335288063,Y,d,go,d,1,,0.5161566925235093,,,,,,,,,,,,,,,,,9,001,19,w,Psychologie,2023-01-09_09h03.20.881,00_bat_bachelor,2022.2.4,59.860456033276634,
,,,,,,,,,,,,1,0,1,0,97,0,97,0,,,,,,,97,,,0.2,1203.1440966245718,X,l,go,l,1,,0.5299026453867555,,,,,,,,,,,,,,,,,9,001,19,w,Psychologie,2023-01-09_09h03.20.881,00_bat_bachelor,2022.2.4,59.860456033276634,
,,,,,,,,,,,,1,0,1,0,98,0,98,0,,,,,,,98,,,0.2,1203.9947408433072,X,None,nogo,None,1,,,,,,,,,,,,,,,,,,,9,001,19,w,Psychologie,2023-01-09_09h03.20.881,00_bat_bachelor,2022.2.4,59.860456033276634,
,,,,,,,,,,,,1,0,1,0,99,0,99,0,,,,,,,99,,,0.2,1204.9955752682872,Y,d,go,d,1,,0.42329211765900254,,,,,,,,,,,,,,,,,9,001,19,w,Psychologie,2023-01-09_09h03.20.881,00_bat_bachelor,2022.2.4,59.860456033276634,
,,,,,,,,,,,,1,0,1,0,100,0,100,0,,,,,,,100,,,0.2,1205.7291497979313,X,l,go,l,1,,0.5377028952352703,,,,,,,,,,,,,,,,,9,001,19,w,Psychologie,2023-01-09_09h03.20.881,00_bat_bachelor,2022.2.4,59.860456033276634,
,,,,,,,,,,,,1,0,1,0,101,0,101,0,,,,,,,101,,,0.2,1206.5797348651104,Y,d,go,d,1,,0.534594043623656,,,,,,,,,,,,,,,,,9,001,19,w,Psychologie,2023-01-09_09h03.20.881,00_bat_bachelor,2022.2.4,59.860456033276634,
,,,,,,,,,,,,1,0,1,0,102,0,102,0,,,,,,,102,,,0.2,1207.4301841747947,X,l,go,l,1,,0.5980093777179718,,,,,,,,,,,,,,,,,9,001,19,w,Psychologie,2023-01-09_09h03.20.881,00_bat_bachelor,2022.2.4,59.860456033276634,
,,,,,,,,,,,,1,0,1,0,103,0,103,0,,,,,,,103,,,0.2,1208.331048078835,Y,d,go,d,1,,0.5449407203122973,,,,,,,,,,,,,,,,,9,001,19,w,Psychologie,2023-01-09_09h03.20.881,00_bat_bachelor,2022.2.4,59.860456033276634,
,,,,,,,,,,,,1,0,1,0,104,0,104,0,,,,,,,104,,,0.2,1209.181792661082,X,l,go,l,1,,0.5737232938408852,,,,,,,,,,,,,,,,,9,001,19,w,Psychologie,2023-01-09_09h03.20.881,00_bat_bachelor,2022.2.4,59.860456033276634,
,,,,,,,,,,,,1,0,1,0,105,0,105,0,,,,,,,105,,,0.2,1210.0655030938797,Y,d,go,d,1,,0.5700883814133704,,,,,,,,,,,,,,,,,9,001,19,w,Psychologie,2023-01-09_09h03.20.881,00_bat_bachelor,2022.2.4,59.860456033276634,
,,,,,,,,,,,,1,0,1,0,106,0,106,0,,,,,,,106,,,0.2,1210.9498544968665,Y,None,nogo,None,1,1211.7504021823406,,,,,,,,,,,,,,,,,,9,001,19,w,Psychologie,2023-01-09_09h03.20.881,00_bat_bachelor,2022.2.4,59.860456033276634,
,,,,,,,,,,,,1,0,1,0,107,0,107,0,,,,,,,107,,,0.2,1211.9502549823374,X,l,go,l,1,,0.3010408477857709,,,,,,,,,,,,,,,,,9,001,19,w,Psychologie,2023-01-09_09h03.20.881,00_bat_bachelor,2022.2.4,59.860456033276634,
,,,,,,,,,,,,1,0,1,0,108,0,108,0,,,,,,,108,,,0.2,1212.5676180049777,Y,d,go,d,1,,0.6117126643657684,,,,,,,,,,,,,,,,,9,001,19,w,Psychologie,2023-01-09_09h03.20.881,00_bat_bachelor,2022.2.4,59.860456033276634,
,,,,,,,,,,,,1,0,1,0,109,0,109,0,,,,,,,109,,,0.2,1213.4849338037893,X,l,go,l,1,,0.5425087180919945,,,,,,,,,,,,,,,,,9,001,19,w,Psychologie,2023-01-09_09h03.20.881,00_bat_bachelor,2022.2.4,59.860456033276634,
,,,,,,,,,,,,1,0,1,0,110,0,110,0,,,,,,,110,,,0.2,1214.335554749705,X,None,nogo,None,1,,,,,,,,,,,,,,,,,,,9,001,19,w,Psychologie,2023-01-09_09h03.20.881,00_bat_bachelor,2022.2.4,59.860456033276634,
,,,,,,,,,,,,1,0,1,0,111,0,111,0,,,,,,,111,,,0.2,1215.3363348715939,Y,d,go,d,1,,0.3388062175363302,,,,,,,,,,,,,,,,,9,001,19,w,Psychologie,2023-01-09_09h03.20.881,00_bat_bachelor,2022.2.4,59.860456033276634,
,,,,,,,,,,,,1,0,1,0,112,0,112,0,,,,,,,112,,,0.2,1215.986848472152,X,l,go,l,1,,0.6492666397243738,,,,,,,,,,,,,,,,,9,001,19,w,Psychologie,2023-01-09_09h03.20.881,00_bat_bachelor,2022.2.4,59.860456033276634,
,,,,,,,,,,,,1,0,1,0,113,0,113,0,,,,,,,113,,,0.2,1216.9376198183745,Y,d,go,d,1,,0.4980694022960961,,,,,,,,,,,,,,,,,9,001,19,w,Psychologie,2023-01-09_09h03.20.881,00_bat_bachelor,2022.2.4,59.860456033276634,
,,,,,,,,,,,,1,0,1,0,114,0,114,0,,,,,,,114,,,0.2,1217.7382450797595,Y,None,nogo,None,1,,,,,,,,,,,,,,,,,,,9,001,19,w,Psychologie,2023-01-09_09h03.20.881,00_bat_bachelor,2022.2.4,59.860456033276634,
,,,,,,,,,,,,1,0,1,0,115,0,115,0,,,,,,,115,,,0.2,1218.7389767165296,X,l,go,l,1,,0.42343466309830546,,,,,,,,,,,,,,,,,9,001,19,w,Psychologie,2023-01-09_09h03.20.881,00_bat_bachelor,2022.2.4,59.860456033276634,
,,,,,,,,,,,,1,0,1,0,116,0,116,0,,,,,,,116,,,0.2,1219.472925549373,Y,d,go,d,1,,0.5381218050606549,,,,,,,,,,,,,,,,,9,001,19,w,Psychologie,2023-01-09_09h03.20.881,00_bat_bachelor,2022.2.4,59.860456033276634,
,,,,,,,,,,,,1,0,1,0,117,0,117,0,,,,,,,117,,,0.2,1220.3234999501146,X,l,go,l,1,,0.5512970900163054,,,,,,,,,,,,,,,,,9,001,19,w,Psychologie,2023-01-09_09h03.20.881,00_bat_bachelor,2022.2.4,59.860456033276634,
,,,,,,,,,,,,1,0,1,0,118,0,118,0,,,,,,,118,,,0.2,1221.1908724275418,X,None,nogo,None,1,,,,,,,,,,,,,,,,,,,9,001,19,w,Psychologie,2023-01-09_09h03.20.881,00_bat_bachelor,2022.2.4,59.860456033276634,
,,,,,,,,,,,,1,0,1,0,119,0,119,0,,,,,,,119,,,0.2,1222.1914392160252,Y,d,go,d,1,,0.3967383950948715,,,,,,,,,,,,,,,,,9,001,19,w,Psychologie,2023-01-09_09h03.20.881,00_bat_bachelor,2022.2.4,59.860456033276634,
,,,,,,,,,,,,1,0,1,0,120,0,120,0,,,,,,,120,,,0.2,1222.8921671682037,X,l,go,l,1,,0.5280762193724513,,,,,,,,,,,,,,,,,9,001,19,w,Psychologie,2023-01-09_09h03.20.881,00_bat_bachelor,2022.2.4,59.860456033276634,
,,,,,,,,,,,,1,0,1,0,121,0,121,0,,,,,,,121,,,0.2,1223.7260777950287,X,None,nogo,None,1,,,,,,,,,,,,,,,,,,,9,001,19,w,Psychologie,2023-01-09_09h03.20.881,00_bat_bachelor,2022.2.4,59.860456033276634,
,,,,,,,,,,,,1,0,1,0,122,0,122,0,,,,,,,122,,,0.2,1224.726722159423,X,None,nogo,None,1,,,,,,,,,,,,,,,,,,,9,001,19,w,Psychologie,2023-01-09_09h03.20.881,00_bat_bachelor,2022.2.4,59.860456033276634,
,,,,,,,,,,,,1,0,1,0,123,0,123,0,,,,,,,123,,,0.2,1225.7276404630393,Y,d,go,d,1,,0.3949706358835101,,,,,,,,,,,,,,,,,9,001,19,w,Psychologie,2023-01-09_09h03.20.881,00_bat_bachelor,2022.2.4,59.860456033276634,
,,,,,,,,,,,,1,0,1,0,124,0,124,0,,,,,,,124,,,0.2,1226.4282496273518,X,l,go,l,1,,0.5274236127734184,,,,,,,,,,,,,,,,,9,001,19,w,Psychologie,2023-01-09_09h03.20.881,00_bat_bachelor,2022.2.4,59.860456033276634,
,,,,,,,,,,,,1,0,1,0,125,0,125,0,,,,,,,125,,,0.2,1227.2618994056247,Y,d,go,d,1,,0.6204127939417958,,,,,,,,,,,,,,,,,9,001,19,w,Psychologie,2023-01-09_09h03.20.881,00_bat_bachelor,2022.2.4,59.860456033276634,
,,,,,,,,,,,,1,0,1,0,126,0,126,0,,,,,,,126,,,0.2,1228.1962557053193,X,l,go,l,1,,0.5835933643393219,,,,,,,,,,,,,,,,,9,001,19,w,Psychologie,2023-01-09_09h03.20.881,00_bat_bachelor,2022.2.4,59.860456033276634,
,,,,,,,,,,,,1,0,1,0,127,0,127,0,,,,,,,127,,,0.2,1229.0802221386693,Y,d,go,d,1,,0.5952544664032757,,,,,,,,,,,,,,,,,9,001,19,w,Psychologie,2023-01-09_09h03.20.881,00_bat_bachelor,2022.2.4,59.860456033276634,
,,,,,,,,,,,,1,0,1,0,128,0,128,0,,,,,,,128,,,0.2,1229.9809570726939,X,l,go,l,1,,0.6546712513081729,,,,,,,,,,,,,,,,,9,001,19,w,Psychologie,2023-01-09_09h03.20.881,00_bat_bachelor,2022.2.4,59.860456033276634,
,,,,,,,,,,,,1,0,1,0,129,0,129,0,,,,,,,129,,,0.2,1230.9483141317032,Y,d,go,d,1,,0.6310818949714303,,,,,,,,,,,,,,,,,9,001,19,w,Psychologie,2023-01-09_09h03.20.881,00_bat_bachelor,2022.2.4,59.860456033276634,
,,,,,,,,,,,,1,0,1,0,130,0,130,0,,,,,,,130,,,0.2,1231.8821346736513,X,l,go,l,1,,0.5778896007686853,,,,,,,,,,,,,,,,,9,001,19,w,Psychologie,2023-01-09_09h03.20.881,00_bat_bachelor,2022.2.4,59.860456033276634,
,,,,,,,,,,,,1,0,1,0,131,0,131,0,,,,,,,131,,,0.2,1232.7665103189647,Y,d,go,d,1,,0.5741199003532529,,,,,,,,,,,,,,,,,9,001,19,w,Psychologie,2023-01-09_09h03.20.881,00_bat_bachelor,2022.2.4,59.860456033276634,
,,,,,,,,,,,,1,0,1,0,132,0,132,0,,,,,,,132,,,0.2,1233.6503312974237,Y,None,nogo,None,1,,,,,,,,,,,,,,,,,,,9,001,19,w,Psychologie,2023-01-09_09h03.20.881,00_bat_bachelor,2022.2.4,59.860456033276634,
,,,,,,,,,,,,1,0,1,0,133,0,133,0,,,,,,,133,,,0.2,1234.6512505710125,X,l,go,l,1,,0.41578762559220195,,,,,,,,,,,,,,,,,9,001,19,w,Psychologie,2023-01-09_09h03.20.881,00_bat_bachelor,2022.2.4,59.860456033276634,
,,,,,,,,,,,,1,0,1,0,134,0,134,0,,,,,,,134,,,0.2,1235.368366902694,Y,d,go,d,1,,0.5154822673648596,,,,,,,,,,,,,,,,,9,001,19,w,Psychologie,2023-01-09_09h03.20.881,00_bat_bachelor,2022.2.4,59.860456033276634,
,,,,,,,,,,,,1,0,1,0,135,0,135,0,,,,,,,135,,,0.2,1236.1854110891,X,l,go,l,1,,0.6419502692297101,,,,,,,,,,,,,,,,,9,001,19,w,Psychologie,2023-01-09_09h03.20.881,00_bat_bachelor,2022.2.4,59.860456033276634,
,,,,,,,,,,,,1,0,1,0,136,0,136,0,,,,,,,136,,,0.2,1237.1360859503038,X,None,nogo,None,1,1237.9367800601758,,,,,,,,,,,,,,,,,,9,001,19,w,Psychologie,2023-01-09_09h03.20.881,00_bat_bachelor,2022.2.4,59.860456033276634,
,,,,,,,,,,,,1,0,1,0,137,0,137,0,,,,,,,137,,,0.2,1238.1369058298878,Y,d,go,d,1,,0.43468170426785946,,,,,,,,,,,,,,,,,9,001,19,w,Psychologie,2023-01-09_09h03.20.881,00_bat_bachelor,2022.2.4,59.860456033276634,
,,,,,,,,,,,,1,0,1,0,138,0,138,0,,,,,,,138,,,0.2,1238.8876852244139,X,l,go,l,1,,0.5317242229357362,,,,,,,,,,,,,,,,,9,001,19,w,Psychologie,2023-01-09_09h03.20.881,00_bat_bachelor,2022.2.4,59.860456033276634,
,,,,,,,,,,,,1,0,1,0,139,0,139,0,,,,,,,139,,,0.2,1239.721757791005,Y,d,go,d,1,,0.5623773434199393,,,,,,,,,,,,,,,,,9,001,19,w,Psychologie,2023-01-09_09h03.20.881,00_bat_bachelor,2022.2.4,59.860456033276634,
,,,,,,,,,,,,1,0,1,0,140,0,140,0,,,,,,,140,,,0.2,1240.5890492983162,X,l,go,l,1,,0.6383614172227681,,,,,,,,,,,,,,,,,9,001,19,w,Psychologie,2023-01-09_09h03.20.881,00_bat_bachelor,2022.2.4,59.860456033276634,
,,,,,,,,,,,,1,0,1,0,141,0,141,0,,,,,,,141,,,0.2,1241.5394730078988,Y,d,go,d,1,,0.5192466350272298,,,,,,,,,,,,,,,,,9,001,19,w,Psychologie,2023-01-09_09h03.20.881,00_bat_bachelor,2022.2.4,59.860456033276634,
,,,,,,,,,,,,1,0,1,0,142,0,142,0,,,,,,,142,,,0.2,1242.3736692108214,X,l,go,l,1,,0.5989131364040077,,,,,,,,,,,,,,,,,9,001,19,w,Psychologie,2023-01-09_09h03.20.881,00_bat_bachelor,2022.2.4,59.860456033276634,
,,,,,,,,,,,,1,0,1,0,143,0,143,0,,,,,,,143,,,0.2,1243.2743799025193,X,None,nogo,None,1,,,,,,,,,,,,,,,,,,,9,001,19,w,Psychologie,2023-01-09_09h03.20.881,00_bat_bachelor,2022.2.4,59.860456033276634,
,,,,,,,,,,,,1,0,1,0,144,0,144,0,,,,,,,144,,,0.2,1244.2751585696824,Y,d,go,d,1,,0.4720834377221763,,,,,,,,,,,,,,,,,9,001,19,w,Psychologie,2023-01-09_09h03.20.881,00_bat_bachelor,2022.2.4,59.860456033276634,
,,,,,,,,,,,,1,0,1,0,145,0,145,0,,,,,,,145,,,0.2,1245.0590788451955,X,l,go,None,0,,,,,,,,,,,,,,,,,,,9,001,19,w,Psychologie,2023-01-09_09h03.20.881,00_bat_bachelor,2022.2.4,59.860456033276634,
,,,,,,,,,,,,1,0,1,0,146,0,146,0,,,,,,,146,,,0.2,1246.059851209633,Y,d,go,None,0,1246.8602951373905,,,,,,,,,,,,,,,,,,9,001,19,w,Psychologie,2023-01-09_09h03.20.881,00_bat_bachelor,2022.2.4,59.860456033276634,
,,,,,,,,,,,,1,0,1,0,147,0,147,0,,,,,,,147,,,0.2,1247.0605779984035,Y,None,nogo,None,1,1247.860951137729,,,,,,,,,,,,,,,,,,9,001,19,w,Psychologie,2023-01-09_09h03.20.881,00_bat_bachelor,2022.2.4,59.860456033276634,
,,,,,,,,,,,,1,0,1,0,148,0,148,0,,,,,,,148,,,0.2,1248.0611564228311,X,l,go,l,1,,0.3988785184919834,,,,,,,,,,,,,,,,,9,001,19,w,Psychologie,2023-01-09_09h03.20.881,00_bat_bachelor,2022.2.4,59.860456033276634,
,,,,,,,,,,,,1,0,1,0,149,0,149,0,,,,,,,149,,,0.2,1248.761911526788,Y,d,go,d,1,,0.4988989788107574,,,,,,,,,,,,,,,,,9,001,19,w,Psychologie,2023-01-09_09h03.20.881,00_bat_bachelor,2022.2.4,59.860456033276634,
,,,,,,,,,,,,1,0,1,0,150,0,150,0,,,,,,,150,,,0.2,1249.5623030909337,Y,None,nogo,None,1,,,,,,,,,,,,,,,,,,,9,001,19,w,Psychologie,2023-01-09_09h03.20.881,00_bat_bachelor,2022.2.4,59.860456033276634,
,,,,,,,,,,,,1,0,1,0,151,0,151,0,,,,,,,151,,,0.2,1250.5630371519364,X,l,go,l,1,,0.43992195185273886,,,,,,,,,,,,,,,,,9,001,19,w,Psychologie,2023-01-09_09h03.20.881,00_bat_bachelor,2022.2.4,59.860456033276634,
,,,,,,,,,,,,1,0,1,0,152,0,152,0,,,,,,,152,,,0.2,1251.3139300015755,Y,d,go,d,1,,0.5050017726607621,,,,,,,,,,,,,,,,,9,001,19,w,Psychologie,2023-01-09_09h03.20.881,00_bat_bachelor,2022.2.4,59.860456033276634,
,,,,,,,,,,,,1,0,1,0,153,0,153,0,,,,,,,153,,,0.2,1252.1309838844463,Y,None,nogo,None,1,1252.9317628429271,,,,,,,,,,,,,,,,,,9,001,19,w,Psychologie,2023-01-09_09h03.20.881,00_bat_bachelor,2022.2.4,59.860456033276634,
,,,,,,,,,,,,1,0,1,0,154,0,154,0,,,,,,,154,,,0.2,1253.131693703588,X,l,go,l,1,,0.4796325359493494,,,,,,,,,,,,,,,,,9,001,19,w,Psychologie,2023-01-09_09h03.20.881,00_bat_bachelor,2022.2.4,59.860456033276634,
,,,,,,,,,,,,1,0,1,0,155,0,155,0,,,,,,,155,,,0.2,1253.9158811303787,Y,d,go,d,1,,0.4798400513827801,,,,,,,,,,,,,,,,,9,001,19,w,Psychologie,2023-01-09_09h03.20.881,00_bat_bachelor,2022.2.4,59.860456033276634,
,,,,,,,,,,,,1,0,1,0,156,0,156,0,,,,,,,156,,,0.2,1254.6997858905233,X,l,go,None,0,,,,,,,,,,,,,,,,,,,9,001,19,w,Psychologie,2023-01-09_09h03.20.881,00_bat_bachelor,2022.2.4,59.860456033276634,
,,,,,,,,,,,,1,0,1,0,157,0,157,0,,,,,,,157,,,0.2,1255.7005917099304,X,None,nogo,None,1,,,,,,,,,,,,,,,,,,,9,001,19,w,Psychologie,2023-01-09_09h03.20.881,00_bat_bachelor,2022.2.4,59.860456033276634,
,,,,,,,,,,,,1,0,1,0,158,0,158,0,,,,,,,158,,,0.2,1256.7012486802414,Y,d,go,None,0,,,,,,,,,,,,,,,,,,,9,001,19,w,Psychologie,2023-01-09_09h03.20.881,00_bat_bachelor,2022.2.4,59.860456033276634,
,,,,,,,,,,,,1,0,1,0,159,0,159,0,,,,,,,159,,,0.2,1257.7018838319927,X,l,go,None,0,,,,,,,,,,,,,,,,,,,9,001,19,w,Psychologie,2023-01-09_09h03.20.881,00_bat_bachelor,2022.2.4,59.860456033276634,
,,,,,,,,,,,,1,0,1,0,160,0,160,0,,,,,,,160,,,0.2,1258.702560681384,X,None,nogo,None,1,,,,,,,,,,,,,,,,,,,9,001,19,w,Psychologie,2023-01-09_09h03.20.881,00_bat_bachelor,2022.2.4,59.860456033276634,
,,,,,,,,,,,,1,0,1,0,161,0,161,0,,,,,,,161,,,0.2,1259.7035997128114,Y,d,go,d,1,,0.34094537142664194,,,,,,,,,,,,,,,,,9,001,19,w,Psychologie,2023-01-09_09h03.20.881,00_bat_bachelor,2022.2.4,59.860456033276634,
,,,,,,,,,,,,1,0,1,0,162,0,162,0,,,,,,,162,,,0.2,1260.3538936767727,X,l,go,l,1,,0.4573833020403981,,,,,,,,,,,,,,,,,9,001,19,w,Psychologie,2023-01-09_09h03.20.881,00_bat_bachelor,2022.2.4,59.860456033276634,
,,,,,,,,,,,,1,0,1,0,163,0,163,0,,,,,,,163,,,0.2,1261.1210890873335,Y,d,go,d,1,,0.3945706351660192,,,,,,,,,,,,,,,,,9,001,19,w,Psychologie,2023-01-09_09h03.20.881,00_bat_bachelor,2022.2.4,59.860456033276634,
,,,,,,,,,,,,1,0,1,0,164,0,164,0,,,,,,,164,,,0.2,1261.8219062513672,X,l,go,l,1,,0.5256466413848102,,,,,,,,,,,,,,,,,9,001,19,w,Psychologie,2023-01-09_09h03.20.881,00_bat_bachelor,2022.2.4,59.860456033276634,
,,,,,,,,,,,,1,0,1,0,165,0,165,0,,,,,,,165,,,0.2,1262.655975424219,Y,d,go,d,1,,0.5394653212279081,,,,,,,,,,,,,,,,,9,001,19,w,Psychologie,2023-01-09_09h03.20.881,00_bat_bachelor,2022.2.4,59.860456033276634,
,,,,,,,,,,,,1,0,1,0,166,0,166,0,,,,,,,166,,,0.2,1263.5062264301814,X,l,go,l,1,,0.5047903787344694,,,,,,,,,,,,,,,,,9,001,19,w,Psychologie,2023-01-09_09h03.20.881,00_bat_bachelor,2022.2.4,59.860456033276634,
,,,,,,,,,,,,1,0,1,0,167,0,167,0,,,,,,,167,,,0.2,1264.3238267381676,Y,d,go,d,1,,0.4555369974114001,,,,,,,,,,,,,,,,,9,001,19,w,Psychologie,2023-01-09_09h03.20.881,00_bat_bachelor,2022.2.4,59.860456033276634,
,,,,,,,,,,,,1,0,1,0,168,0,168,0,,,,,,,168,,,0.2,1265.091856088955,X,l,go,l,1,,0.502894134260714,,,,,,,,,,,,,,,,,9,001,19,w,Psychologie,2023-01-09_09h03.20.881,00_bat_bachelor,2022.2.4,59.860456033276634,
,,,,,,,,,,,,1,0,1,0,169,0,169,0,,,,,,,169,,,0.2,1265.9090389423072,X,None,nogo,None,1,1266.7095948699862,,,,,,,,,,,,,,,,,,9,001,19,w,Psychologie,2023-01-09_09h03.20.881,00_bat_bachelor,2022.2.4,59.860456033276634,
,,,,,,,,,,,,1,0,1,0,170,0,170,0,,,,,,,170,,,0.2,1266.909526700154,Y,d,go,d,1,,0.2207547090947628,,,,,,,,,,,,,,,,,9,001,19,w,Psychologie,2023-01-09_09h03.20.881,00_bat_bachelor,2022.2.4,59.860456033276634,
,,,,,,,,,,,,1,0,1,0,171,0,171,0,,,,,,,171,,,0.2,1267.4600974158384,X,l,go,None,0,1268.2608914044686,,,,,,,,,,,,,,,,,,9,001,19,w,Psychologie,2023-01-09_09h03.20.881,00_bat_bachelor,2022.2.4,59.860456033276634,
,,,,,,,,,,,,1,0,1,0,172,0,172,0,,,,,,,172,,,0.2,1268.4610520834103,X,None,nogo,l,0,,0.28563671140000224,,,,,,,,,,,,,,,,,9,001,19,w,Psychologie,2023-01-09_09h03.20.881,00_bat_bachelor,2022.2.4,59.860456033276634,
,,,,,,,,,,,,1,0,1,0,173,0,173,0,,,,,,,173,,,0.2,1269.0778822572902,Y,d,go,None,0,1269.8788265492767,,,,,,,,,,,,,,,,,,9,001,19,w,Psychologie,2023-01-09_09h03.20.881,00_bat_bachelor,2022.2.4,59.860456033276634,
,,,,,,,,,,,,1,0,1,0,174,0,174,0,,,,,,,174,,,0.2,1270.0786192277446,X,l,go,d,0,,0.2832745276391506,,,,,,,,,,,,,,,,,9,001,19,w,Psychologie,2023-01-09_09h03.20.881,00_bat_bachelor,2022.2.4,59.860456033276634,
,,,,,,,,,,,,1,0,1,0,175,0,175,0,,,,,,,175,,,0.2,1270.6791298706084,Y,d,go,None,0,1271.4800319806673,,,,,,,,,,,,,,,,,,9,001,19,w,Psychologie,2023-01-09_09h03.20.881,00_bat_bachelor,2022.2.4,59.860456033276634,
,,,,,,,,,,,,1,0,1,0,176,0,176,0,,,,,,,176,,,0.2,1271.6802009022795,X,l,go,l,1,,0.3313569985330105,,,,,,,,,,,,,,,,,9,001,19,w,Psychologie,2023-01-09_09h03.20.881,00_bat_bachelor,2022.2.4,59.860456033276634,
,,,,,,,,,,,,1,0,1,0,177,0,177,0,,,,,,,177,,,0.2,1272.330630138982,Y,d,go,d,1,,0.47940902039408684,,,,,,,,,,,,,,,,,9,001,19,w,Psychologie,2023-01-09_09h03.20.881,00_bat_bachelor,2022.2.4,59.860456033276634,
,,,,,,,,,,,,1,0,1,0,178,0,178,0,,,,,,,178,,,0.2,1273.1312364907935,X,l,go,l,1,,0.38357620034366846,,,,,,,,,,,,,,,,,9,001,19,w,Psychologie,2023-01-09_09h03.20.881,00_bat_bachelor,2022.2.4,59.860456033276634,
,,,,,,,,,,,,1,0,1,0,179,0,179,0,,,,,,,179,,,0.2,1273.8316012914293,X,None,nogo,None,1,1274.6323545528576,,,,,,,,,,,,,,,,,,9,001,19,w,Psychologie,2023-01-09_09h03.20.881,00_bat_bachelor,2022.2.4,59.860456033276634,
,,,,,,,,,,,,1,0,1,0,180,0,180,0,,,,,,,180,,,0.2,1274.8325462620705,Y,d,go,d,1,,0.20162790268659592,,,,,,,,,,,,,,,,,9,001,19,w,Psychologie,2023-01-09_09h03.20.881,00_bat_bachelor,2022.2.4,59.860456033276634,
,,,,,,,,,,,,1,0,1,0,181,0,181,0,,,,,,,181,,,0.2,1275.3661317490041,X,l,go,None,0,1276.1669286466204,,,,,,,,,,,,,,,,,,9,001,19,w,Psychologie,2023-01-09_09h03.20.881,00_bat_bachelor,2022.2.4,59.860456033276634,
,,,,,,,,,,,,1,0,1,0,182,0,182,0,,,,,,,182,,,0.2,1276.3667969619855,Y,d,go,l,0,,0.15564822172746062,,,,,,,,,,,,,,,,,9,001,19,w,Psychologie,2023-01-09_09h03.20.881,00_bat_bachelor,2022.2.4,59.860456033276634,
,,,,,,,,,,,,1,0,1,0,183,0,183,0,,,,,,,183,,,0.2,1276.8506868854165,X,l,go,None,0,1277.651403783355,,,,,,,,,,,,,,,,,,9,001,19,w,Psychologie,2023-01-09_09h03.20.881,00_bat_bachelor,2022.2.4,59.860456033276634,
,,,,,,,,,,,,1,0,1,0,184,0,184,0,,,,,,,184,,,0.2,1277.8514393712394,X,None,nogo,None,1,1278.652037480846,,,,,,,,,,,,,,,,,,9,001,19,w,Psychologie,2023-01-09_09h03.20.881,00_bat_bachelor,2022.2.4,59.860456033276634,
,,,,,,,,,,,,1,0,1,0,185,0,185,0,,,,,,,185,,,0.2,1278.8520333110355,Y,d,go,d,1,,0.4068644652143121,,,,,,,,,,,,,,,,,9,001,19,w,Psychologie,2023-01-09_09h03.20.881,00_bat_bachelor,2022.2.4,59.860456033276634,
,,,,,,,,,,,,1,0,1,0,186,0,186,0,,,,,,,186,,,0.2,1279.5859612952918,X,l,go,l,1,,0.4088261644355953,,,,,,,,,,,,,,,,,9,001,19,w,Psychologie,2023-01-09_09h03.20.881,00_bat_bachelor,2022.2.4,59.860456033276634,
,,,,,,,,,,,,1,0,1,0,187,0,187,0,,,,,,,187,,,0.2,1280.3031406574883,Y,d,go,d,1,,0.41113549983128905,,,,,,,,,,,,,,,,,9,001,19,w,Psychologie,2023-01-09_09h03.20.881,00_bat_bachelor,2022.2.4,59.860456033276634,
,,,,,,,,,,,,1,0,1,0,188,0,188,0,,,,,,,188,,,0.2,1281.0370162781328,Y,None,nogo,None,1,1281.8376827519387,,,,,,,,,,,,,,,,,,9,001,19,w,Psychologie,2023-01-09_09h03.20.881,00_bat_bachelor,2022.2.4,59.860456033276634,
,,,,,,,,,,,,1,0,1,0,189,0,189,0,,,,,,,189,,,0.2,1282.0377871883102,X,l,go,l,1,,0.26000759564340115,,,,,,,,,,,,,,,,,9,001,19,w,Psychologie,2023-01-09_09h03.20.881,00_bat_bachelor,2022.2.4,59.860456033276634,
,,,,,,,,,,,,1,0,1,0,190,0,190,0,,,,,,,190,,,0.2,1282.6218449668959,Y,d,go,d,1,,0.4767520483583212,,,,,,,,,,,,,,,,,9,001,19,w,Psychologie,2023-01-09_09h03.20.881,00_bat_bachelor,2022.2.4,59.860456033276634,
,,,,,,,,,,,,1,0,1,0,191,0,191,0,,,,,,,191,,,0.2,1283.4221395608038,X,l,go,l,1,,0.5565155195072293,,,,,,,,,,,,,,,,,9,001,19,w,Psychologie,2023-01-09_09h03.20.881,00_bat_bachelor,2022.2.4,59.860456033276634,
,,,,,,,,,,,,1,0,1,0,192,0,192,0,,,,,,,192,,,0.2,1284.2895629475825,Y,d,go,d,1,,0.520835000090301,,,,,,,,,,,,,,,,,9,001,19,w,Psychologie,2023-01-09_09h03.20.881,00_bat_bachelor,2022.2.4,59.860456033276634,
,,,,,,,,,,,,1,0,1,0,193,0,193,0,,,,,,,193,,,0.2,1285.1401480147615,X,l,go,l,1,,0.581603059079498,,,,,,,,,,,,,,,,,9,001,19,w,Psychologie,2023-01-09_09h03.20.881,00_bat_bachelor,2022.2.4,59.860456033276634,
,,,,,,,,,,,,1,0,1,0,194,0,194,0,,,,,,,194,,,0.2,1286.040850463789,X,None,nogo,None,1,1286.8417210588232,,,,,,,,,,,,,,,,,,9,001,19,w,Psychologie,2023-01-09_09h03.20.881,00_bat_bachelor,2022.2.4,59.860456033276634,
,,,,,,,,,,,,1,0,1,0,195,0,195,0,,,,,,,195,,,0.2,1287.0416393131018,Y,d,go,d,1,,0.2804076154716313,,,,,,,,,,,,,,,,,9,001,19,w,Psychologie,2023-01-09_09h03.20.881,00_bat_bachelor,2022.2.4,59.860456033276634,
,,,,,,,,,,,,1,0,1,0,196,0,196,0,,,,,,,196,,,0.2,1287.6422881381586,X,l,go,l,1,,0.5758406296372414,,,,,,,,,,,,,,,,,9,001,19,w,Psychologie,2023-01-09_09h03.20.881,00_bat_bachelor,2022.2.4,59.860456033276634,
,,,,,,,,,,,,1,0,1,0,197,0,197,0,,,,,,,197,,,0.2,1288.542821859941,Y,d,go,d,1,,0.5394667759537697,,,,,,,,,,,,,,,,,9,001,19,w,Psychologie,2023-01-09_09h03.20.881,00_bat_bachelor,2022.2.4,59.860456033276634,
,,,,,,,,,,,,1,0,1,0,198,0,198,0,,,,,,,198,,,0.2,1289.4101560339332,X,l,go,l,1,,0.5517911515198648,,,,,,,,,,,,,,,,,9,001,19,w,Psychologie,2023-01-09_09h03.20.881,00_bat_bachelor,2022.2.4,59.860456033276634,
,,,,,,,,,,,,1,0,1,0,199,0,199,0,,,,,,,199,,,0.2,1290.2942805276252,X,None,nogo,None,1,1291.094937789254,,,,,,,,,,,,,,,,,,9,001,19,w,Psychologie,2023-01-09_09h03.20.881,00_bat_bachelor,2022.2.4,59.860456033276634,
,,,,,,,,,,,,1,0,1,0,200,0,200,0,,,,,,,200,,,0.2,1291.2948914375156,Y,d,go,d,1,,0.28358870930969715,,,,,,,,,,,,,,,,,9,001,19,w,Psychologie,2023-01-09_09h03.20.881,00_bat_bachelor,2022.2.4,59.860456033276634,
