loop_instruction.thisRepN,loop_instruction.thisTrialN,loop_instruction.thisN,loop_instruction.thisIndex,loop_rsi_practice.thisRepN,loop_rsi_practice.thisTrialN,loop_rsi_practice.thisN,loop_rsi_practice.thisIndex,loop_practice.thisRepN,loop_practice.thisTrialN,loop_practice.thisN,loop_practice.thisIndex,loop_exp.thisRepN,loop_exp.thisTrialN,loop_exp.thisN,loop_exp.thisIndex,loop_trials.thisRepN,loop_trials.thisTrialN,loop_trials.thisN,loop_trials.thisIndex,map_condition,map_x_key,map_y_key,key_resp_welcome.started,key_resp_welcome.keys,key_resp_welcome.rt,index,text_empty_rsi_practice.started,text_empty_rsi_practice.stopped,rsi,stimulus.started,stimulus,correct,trial_type,key_resp_trial.keys,key_resp_trial.corr,key_resp_trial.rt,stimulus.stopped,key_resp_instruction_rsi.started,key_resp_instruction_rsi.keys,key_resp_instruction_rsi.rt,key_resp_instruction_rsi.stopped,key_resp_instruction_final.started,key_resp_instruction_final.keys,key_resp_instruction_final.rt,key_resp_break.started,key_resp_break.keys,key_resp_break.rt,key_resp_break.stopped,key_resp_end_screen.started,image_end_screen.started,key_resp_end_screen.stopped,image_end_screen.stopped,key_resp_end_screen.keys,participant,session,Alter,Geschlecht (w/m/d/andere),Studiengang,date,expName,psychopyVersion,frameRate,
,,,,0,0,0,0,0,0,0,0,,,,,,,,,0,d,l,144.76092970790341,j,16.211920071858913,0,160.99955636356026,162.01274183066562,1,162.01274183066562,X,d,go,d,1,0.5740590896457434,,,,,,,,,,,,,,,,,,12,001,21,w,Psychologie,2023-01-10_10h31.59.632,00_bat_bachelor,2022.2.4,59.99522945592579,
,,,,0,0,0,0,1,0,1,0,,,,,,,,,,,,,,,1,163.29538501380011,164.29592998418957,1,164.29592998418957,Y,l,go,l,1,0.383758298587054,,,,,,,,,,,,,,,,,,12,001,21,w,Psychologie,2023-01-10_10h31.59.632,00_bat_bachelor,2022.2.4,59.99522945592579,
,,,,0,0,0,0,2,0,2,0,,,,,,,,,,,,,,,2,165.38008085358888,166.38105976348743,1,166.38105976348743,X,d,go,d,1,0.3478615367785096,,,,,,,,,,,,,,,,,,12,001,21,w,Psychologie,2023-01-10_10h31.59.632,00_bat_bachelor,2022.2.4,59.99522945592579,
,,,,0,0,0,0,3,0,3,0,,,,,,,,,,,,,,,3,167.43268890446052,168.43319120816886,1,168.43319120816886,Y,l,go,l,1,0.3267327891662717,,,,,,,,,,,,,,,,,,12,001,21,w,Psychologie,2023-01-10_10h31.59.632,00_bat_bachelor,2022.2.4,59.99522945592579,
,,,,0,0,0,0,4,0,4,0,,,,,,,,,,,,,,,4,169.48426131810993,170.48503659153357,1,170.48503659153357,Y,None,nogo,None,1,,171.2855547014624,,,,,,,,,,,,,,,,,12,001,21,w,Psychologie,2023-01-10_10h31.59.632,00_bat_bachelor,2022.2.4,59.99522945592579,
,,,,0,0,0,0,5,0,5,0,,,,,,,,,,,,,,,5,171.8859237683937,172.8865720112808,1,172.8865720112808,X,d,go,d,1,0.36946398206055164,,,,,,,,,,,,,,,,,,12,001,21,w,Psychologie,2023-01-10_10h31.59.632,00_bat_bachelor,2022.2.4,59.99522945592579,
,,,,0,0,0,0,6,0,6,0,,,,,,,,,,,,,,,6,173.9877856853418,174.98821380687878,1,174.98821380687878,Y,l,go,l,1,0.34711923310533166,,,,,,,,,,,,,,,,,,12,001,21,w,Psychologie,2023-01-10_10h31.59.632,00_bat_bachelor,2022.2.4,59.99522945592579,
,,,,0,0,0,0,7,0,7,0,,,,,,,,,,,,,,,7,176.05568587221205,177.05664829770103,1,177.05664829770103,X,d,go,d,1,0.43904417054727674,,,,,,,,,,,,,,,,,,12,001,21,w,Psychologie,2023-01-10_10h31.59.632,00_bat_bachelor,2022.2.4,59.99522945592579,
,,,,0,0,0,0,8,0,8,0,,,,,,,,,,,,,,,8,178.22425961168483,179.22497573355213,1,179.22497573355213,Y,l,go,l,1,0.38285647984594107,,,,,,,,,,,,,,,,,,12,001,21,w,Psychologie,2023-01-10_10h31.59.632,00_bat_bachelor,2022.2.4,59.99522945592579,
,,,,0,0,0,0,9,0,9,0,,,,,,,,,,,,,,,9,180.3259445587173,181.3265768014826,1,181.3265768014826,X,d,go,d,1,0.36213355092331767,,,,,,,,,,,,,,,,,,12,001,21,w,Psychologie,2023-01-10_10h31.59.632,00_bat_bachelor,2022.2.4,59.99522945592579,
,,,,0,0,0,0,10,0,10,0,,,,,,,,,,,,,,,10,182.39409638242796,183.39459771616384,1,183.39459771616384,Y,l,go,l,1,0.35669693956151605,,,,,,,,,,,,,,,,,,12,001,21,w,Psychologie,2023-01-10_10h31.59.632,00_bat_bachelor,2022.2.4,59.99522945592579,
,,,,0,0,0,0,11,0,11,0,,,,,,,,,,,,,,,11,184.4787708884105,185.47974398033693,1,185.47974398033693,Y,None,nogo,None,1,,186.28045409033075,,,,,,,,,,,,,,,,,12,001,21,w,Psychologie,2023-01-10_10h31.59.632,00_bat_bachelor,2022.2.4,59.99522945592579,
,,,,0,0,0,0,12,0,12,0,,,,,,,,,,,,,,,12,186.88082509674132,187.88135406700894,1,187.88135406700894,X,d,go,d,1,0.3339061294682324,,,,,,,,,,,,,,,,,,12,001,21,w,Psychologie,2023-01-10_10h31.59.632,00_bat_bachelor,2022.2.4,59.99522945592579,
,,,,0,0,0,0,13,0,13,0,,,,,,,,,,,,,,,13,188.9324430860579,189.93299338966608,1,189.93299338966608,Y,l,go,l,1,0.3317087939940393,,,,,,,,,,,,,,,,,,12,001,21,w,Psychologie,2023-01-10_10h31.59.632,00_bat_bachelor,2022.2.4,59.99522945592579,
,,,,0,0,0,0,14,0,14,0,,,,,,,,,,,,,,,14,190.98385501466691,191.98450034856796,1,191.98450034856796,X,d,go,d,1,0.35980336647480726,,,,,,,,,,,,,,,,,,12,001,21,w,Psychologie,2023-01-10_10h31.59.632,00_bat_bachelor,2022.2.4,59.99522945592579,
,,,,1,0,1,0,0,0,0,0,,,,,,,,,,,,,,,0,207.19584649289027,207.39584668679163,0.2,207.39584668679163,X,d,go,None,0,,208.19656309997663,193.11882435763255,j,14.044912395067513,,,,,,,,,,,,,,12,001,21,w,Psychologie,2023-01-10_10h31.59.632,00_bat_bachelor,2022.2.4,59.99522945592579,
,,,,1,0,1,0,1,0,1,0,,,,,,,,,,,,,,,1,208.7970567732118,208.99696581531316,0.2,208.99696581531316,Y,l,go,None,0,,209.79779713740572,,,,,,,,,,,,,,,,,12,001,21,w,Psychologie,2023-01-10_10h31.59.632,00_bat_bachelor,2022.2.4,59.99522945592579,
,,,,1,0,1,0,2,0,2,0,,,,,,,,,,,,,,,2,210.39824959822,210.5984427621588,0.2,210.5984427621588,X,d,go,None,0,,211.39904620544985,,,,,,,,,,,,,,,,,12,001,21,w,Psychologie,2023-01-10_10h31.59.632,00_bat_bachelor,2022.2.4,59.99522945592579,
,,,,1,0,1,0,3,0,3,0,,,,,,,,,,,,,,,3,211.99949818151072,212.19963655713946,0.2,212.19963655713946,Y,l,go,d,0,0.3370726783759892,,,,,,,,,,,,,,,,,,12,001,21,w,Psychologie,2023-01-10_10h31.59.632,00_bat_bachelor,2022.2.4,59.99522945592579,
,,,,1,0,1,0,4,0,4,0,,,,,,,,,,,,,,,4,213.2503789095208,213.45043970970437,0.2,213.45043970970437,X,d,go,d,1,0.33460140274837613,,,,,,,,,,,,,,,,,,12,001,21,w,Psychologie,2023-01-10_10h31.59.632,00_bat_bachelor,2022.2.4,59.99522945592579,
,,,,1,0,1,0,5,0,5,0,,,,,,,,,,,,,,,5,214.50137600162998,214.70156189240515,0.2,214.70156189240515,Y,l,go,l,1,0.2985848831012845,,,,,,,,,,,,,,,,,,12,001,21,w,Psychologie,2023-01-10_10h31.59.632,00_bat_bachelor,2022.2.4,59.99522945592579,
,,,,1,0,1,0,6,0,6,0,,,,,,,,,,,,,,,6,215.70246419636533,215.90252645127475,0.2,215.90252645127475,Y,None,nogo,l,0,0.6186099206097424,,,,,,,,,,,,,,,,,,12,001,21,w,Psychologie,2023-01-10_10h31.59.632,00_bat_bachelor,2022.2.4,59.99522945592579,
,,,,1,0,1,0,7,0,7,0,,,,,,,,,,,,,,,7,217.6539342100732,217.85380591917783,0.2,217.85380591917783,X,d,go,None,0,,218.65439481660724,,,,,,,,,,,,,,,,,12,001,21,w,Psychologie,2023-01-10_10h31.59.632,00_bat_bachelor,2022.2.4,59.99522945592579,
,,,,1,0,1,0,8,0,8,0,,,,,,,,,,,,,,,8,219.25506061129272,219.4551892899908,0.2,219.4551892899908,Y,l,go,l,1,0.32976067112758756,,,,,,,,,,,,,,,,,,12,001,21,w,Psychologie,2023-01-10_10h31.59.632,00_bat_bachelor,2022.2.4,59.99522945592579,
,,,,1,0,1,0,9,0,9,0,,,,,,,,,,,,,,,9,220.48930083820596,220.68927339557558,0.2,220.68927339557558,Y,None,nogo,l,0,0.3120074416510761,,,,,,,,,,,,,,,,,,12,001,21,w,Psychologie,2023-01-10_10h31.59.632,00_bat_bachelor,2022.2.4,59.99522945592579,
,,,,1,0,1,0,10,0,10,0,,,,,,,,,,,,,,,10,222.1070342855528,222.30734381312504,0.2,222.30734381312504,X,d,go,None,0,,,,,,,,,,,,,,,,,,,12,001,21,w,Psychologie,2023-01-10_10h31.59.632,00_bat_bachelor,2022.2.4,59.99522945592579,
,,,,1,0,1,0,11,0,11,0,,,,,,,,,,,,,,,11,223.70827414141968,223.90859482064843,0.2,223.90859482064843,Y,l,go,l,1,0.34030807530507445,,,,,,,,,,,,,,,,,,12,001,21,w,Psychologie,2023-01-10_10h31.59.632,00_bat_bachelor,2022.2.4,59.99522945592579,
,,,,1,0,1,0,12,0,12,0,,,,,,,,,,,,,,,12,224.95934105152264,225.1593228210695,0.2,225.1593228210695,Y,None,nogo,None,1,,225.96015365840867,,,,,,,,,,,,,,,,,12,001,21,w,Psychologie,2023-01-10_10h31.59.632,00_bat_bachelor,2022.2.4,59.99522945592579,
,,,,1,0,1,0,13,0,13,0,,,,,,,,,,,,,,,13,226.5607064832002,226.7605660711415,0.2,226.7605660711415,X,d,go,d,1,0.3037048880942166,,,,,,,,,,,,,,,,,,12,001,21,w,Psychologie,2023-01-10_10h31.59.632,00_bat_bachelor,2022.2.4,59.99522945592579,
,,,,1,0,1,0,14,0,14,0,,,,,,,,,,,,,,,14,227.77820972446352,227.97831658506766,0.2,227.97831658506766,Y,l,go,l,1,0.3506028731353581,,,,,,,,,,,,,,,,,,12,001,21,w,Psychologie,2023-01-10_10h31.59.632,00_bat_bachelor,2022.2.4,59.99522945592579,
,,,,,,,,,,,,,,,,,,,,,,,,,,,,,,,,,,,,,,229.07271522236988,None,,229.07271522236988,229.07271522236988,space,8.250936351716518,,,,,,,,,,12,001,21,w,Psychologie,2023-01-10_10h31.59.632,00_bat_bachelor,2022.2.4,59.99522945592579,
,,,,,,,,,,,,0,0,0,0,0,0,0,0,,,,,,,0,,,1,238.35249682702124,X,d,go,d,1,0.37701308028772473,,,,,,,,,,,,,,,,,,12,001,21,w,Psychologie,2023-01-10_10h31.59.632,00_bat_bachelor,2022.2.4,59.99522945592579,
,,,,,,,,,,,,0,0,0,0,1,0,1,0,,,,,,,1,,,1,239.83713196357712,Y,l,go,l,1,0.3471371722407639,,,,,,,,,,,,,,,,,,12,001,21,w,Psychologie,2023-01-10_10h31.59.632,00_bat_bachelor,2022.2.4,59.99522945592579,
,,,,,,,,,,,,0,0,0,0,2,0,2,0,,,,,,,2,,,1,241.28832658287138,X,d,go,d,1,0.3195453882217407,,,,,,,,,,,,,,,,,,12,001,21,w,Psychologie,2023-01-10_10h31.59.632,00_bat_bachelor,2022.2.4,59.99522945592579,
,,,,,,,,,,,,0,0,0,0,3,0,3,0,,,,,,,3,,,1,242.72251754906029,X,None,nogo,d,0,0.48546167043969035,,,,,,,,,,,,,,,,,,12,001,21,w,Psychologie,2023-01-10_10h31.59.632,00_bat_bachelor,2022.2.4,59.99522945592579,
,,,,,,,,,,,,0,0,0,0,4,0,4,0,,,,,,,4,,,1,244.32412152644247,X,None,nogo,None,1,,245.124706545379,,,,,,,,,,,,,,,,,12,001,21,w,Psychologie,2023-01-10_10h31.59.632,00_bat_bachelor,2022.2.4,59.99522945592579,
,,,,,,,,,,,,0,0,0,0,5,0,5,0,,,,,,,5,,,1,246.12568787951022,Y,l,go,l,1,0.31517592957243323,,,,,,,,,,,,,,,,,,12,001,21,w,Psychologie,2023-01-10_10h31.59.632,00_bat_bachelor,2022.2.4,59.99522945592579,
,,,,,,,,,,,,0,0,0,0,6,0,6,0,,,,,,,6,,,1,247.5430444055237,X,d,go,d,1,0.35337378503754735,,,,,,,,,,,,,,,,,,12,001,21,w,Psychologie,2023-01-10_10h31.59.632,00_bat_bachelor,2022.2.4,59.99522945592579,
,,,,,,,,,,,,0,0,0,0,7,0,7,0,,,,,,,7,,,1,249.01057261647657,Y,l,go,l,1,0.34128456097096205,,,,,,,,,,,,,,,,,,12,001,21,w,Psychologie,2023-01-10_10h31.59.632,00_bat_bachelor,2022.2.4,59.99522945592579,
,,,,,,,,,,,,0,0,0,0,8,0,8,0,,,,,,,8,,,1,250.46195632684976,X,d,go,d,1,0.33129715733230114,,,,,,,,,,,,,,,,,,12,001,21,w,Psychologie,2023-01-10_10h31.59.632,00_bat_bachelor,2022.2.4,59.99522945592579,
,,,,,,,,,,,,0,0,0,0,9,0,9,0,,,,,,,9,,,1,251.89632086921483,X,None,nogo,None,1,,252.69675606954843,,,,,,,,,,,,,,,,,12,001,21,w,Psychologie,2023-01-10_10h31.59.632,00_bat_bachelor,2022.2.4,59.99522945592579,
,,,,,,,,,,,,0,0,0,0,10,0,10,0,,,,,,,10,,,1,253.69774855533615,Y,l,go,l,1,0.31205350207164884,,,,,,,,,,,,,,,,,,12,001,21,w,Psychologie,2023-01-10_10h31.59.632,00_bat_bachelor,2022.2.4,59.99522945592579,
,,,,,,,,,,,,0,0,0,0,11,0,11,0,,,,,,,11,,,1,255.1163525977172,X,d,go,d,1,0.3158954451791942,,,,,,,,,,,,,,,,,,12,001,21,w,Psychologie,2023-01-10_10h31.59.632,00_bat_bachelor,2022.2.4,59.99522945592579,
,,,,,,,,,,,,0,0,0,0,12,0,12,0,,,,,,,12,,,1,256.55041653383523,Y,l,go,l,1,0.3375371634028852,,,,,,,,,,,,,,,,,,12,001,21,w,Psychologie,2023-01-10_10h31.59.632,00_bat_bachelor,2022.2.4,59.99522945592579,
,,,,,,,,,,,,0,0,0,0,13,0,13,0,,,,,,,13,,,1,258.0182739570737,X,d,go,d,1,0.4059023200534284,,,,,,,,,,,,,,,,,,12,001,21,w,Psychologie,2023-01-10_10h31.59.632,00_bat_bachelor,2022.2.4,59.99522945592579,
,,,,,,,,,,,,0,0,0,0,14,0,14,0,,,,,,,14,,,1,259.552965384908,X,None,nogo,None,1,,260.35309028206393,,,,,,,,,,,,,,,,,12,001,21,w,Psychologie,2023-01-10_10h31.59.632,00_bat_bachelor,2022.2.4,59.99522945592579,
,,,,,,,,,,,,0,0,0,0,15,0,15,0,,,,,,,15,,,1,261.3541288282722,X,None,nogo,None,1,,262.15451893769205,,,,,,,,,,,,,,,,,12,001,21,w,Psychologie,2023-01-10_10h31.59.632,00_bat_bachelor,2022.2.4,59.99522945592579,
,,,,,,,,,,,,0,0,0,0,16,0,16,0,,,,,,,16,,,1,263.1553853629157,Y,l,go,l,1,0.2609169678762555,,,,,,,,,,,,,,,,,,12,001,21,w,Psychologie,2023-01-10_10h31.59.632,00_bat_bachelor,2022.2.4,59.99522945592579,
,,,,,,,,,,,,0,0,0,0,17,0,17,0,,,,,,,17,,,1,264.5230308105238,X,d,go,d,1,0.3488283255137503,,,,,,,,,,,,,,,,,,12,001,21,w,Psychologie,2023-01-10_10h31.59.632,00_bat_bachelor,2022.2.4,59.99522945592579,
,,,,,,,,,,,,0,0,0,0,18,0,18,0,,,,,,,18,,,1,265.99090132443234,X,None,nogo,None,1,,266.7913787071593,,,,,,,,,,,,,,,,,12,001,21,w,Psychologie,2023-01-10_10h31.59.632,00_bat_bachelor,2022.2.4,59.99522945592579,
,,,,,,,,,,,,0,0,0,0,19,0,19,0,,,,,,,19,,,1,267.7922931322828,Y,l,go,l,1,0.29643118381500244,,,,,,,,,,,,,,,,,,12,001,21,w,Psychologie,2023-01-10_10h31.59.632,00_bat_bachelor,2022.2.4,59.99522945592579,
,,,,,,,,,,,,0,0,0,0,20,0,20,0,,,,,,,20,,,1,269.1933810361661,X,d,go,d,1,0.4150034203194082,,,,,,,,,,,,,,,,,,12,001,21,w,Psychologie,2023-01-10_10h31.59.632,00_bat_bachelor,2022.2.4,59.99522945592579,
,,,,,,,,,,,,0,0,0,0,21,0,21,0,,,,,,,21,,,1,270.7280186456628,Y,l,go,l,1,0.3368341322056949,,,,,,,,,,,,,,,,,,12,001,21,w,Psychologie,2023-01-10_10h31.59.632,00_bat_bachelor,2022.2.4,59.99522945592579,
,,,,,,,,,,,,0,0,0,0,22,0,22,0,,,,,,,22,,,1,272.1791492649354,X,d,go,d,1,0.3405417720787227,,,,,,,,,,,,,,,,,,12,001,21,w,Psychologie,2023-01-10_10h31.59.632,00_bat_bachelor,2022.2.4,59.99522945592579,
,,,,,,,,,,,,0,0,0,0,23,0,23,0,,,,,,,23,,,1,273.64682196080685,Y,l,go,l,1,0.3779895664192736,,,,,,,,,,,,,,,,,,12,001,21,w,Psychologie,2023-01-10_10h31.59.632,00_bat_bachelor,2022.2.4,59.99522945592579,
,,,,,,,,,,,,0,0,0,0,24,0,24,0,,,,,,,24,,,1,275.1312364912592,Y,None,nogo,None,1,,275.93184090359136,,,,,,,,,,,,,,,,,12,001,21,w,Psychologie,2023-01-10_10h31.59.632,00_bat_bachelor,2022.2.4,59.99522945592579,
,,,,,,,,,,,,0,0,0,0,25,0,25,0,,,,,,,25,,,1,276.9324489044957,X,d,go,d,1,0.34042346896603703,,,,,,,,,,,,,,,,,,12,001,21,w,Psychologie,2023-01-10_10h31.59.632,00_bat_bachelor,2022.2.4,59.99522945592579,
,,,,,,,,,,,,0,0,0,0,26,0,26,0,,,,,,,26,,,1,278.3836847357452,Y,l,go,None,0,,279.1844152091071,,,,,,,,,,,,,,,,,12,001,21,w,Psychologie,2023-01-10_10h31.59.632,00_bat_bachelor,2022.2.4,59.99522945592579,
,,,,,,,,,,,,0,0,0,0,27,0,27,0,,,,,,,27,,,1,280.18517011916265,X,d,go,d,1,0.2878188118338585,,,,,,,,,,,,,,,,,,12,001,21,w,Psychologie,2023-01-10_10h31.59.632,00_bat_bachelor,2022.2.4,59.99522945592579,
,,,,,,,,,,,,0,0,0,0,28,0,28,0,,,,,,,28,,,1,281.5859797196463,X,None,nogo,None,1,,282.3865724960342,,,,,,,,,,,,,,,,,12,001,21,w,Psychologie,2023-01-10_10h31.59.632,00_bat_bachelor,2022.2.4,59.99522945592579,
,,,,,,,,,,,,0,0,0,0,29,0,29,0,,,,,,,29,,,1,283.3873715274967,Y,l,go,d,0,0.30136888567358255,,,,,,,,,,,,,,,,,,12,001,21,w,Psychologie,2023-01-10_10h31.59.632,00_bat_bachelor,2022.2.4,59.99522945592579,
,,,,,,,,,,,,0,0,0,0,30,0,30,0,,,,,,,30,,,1,284.805327326525,X,d,go,d,1,0.5633880491368473,,,,,,,,,,,,,,,,,,12,001,21,w,Psychologie,2023-01-10_10h31.59.632,00_bat_bachelor,2022.2.4,59.99522945592579,
,,,,,,,,,,,,0,0,0,0,31,0,31,0,,,,,,,31,,,1,286.47333621652797,Y,l,go,l,1,0.4470543605275452,,,,,,,,,,,,,,,,,,12,001,21,w,Psychologie,2023-01-10_10h31.59.632,00_bat_bachelor,2022.2.4,59.99522945592579,
,,,,,,,,,,,,0,0,0,0,32,0,32,0,,,,,,,32,,,1,288.0244315387681,X,d,go,d,1,0.3201970253139734,,,,,,,,,,,,,,,,,,12,001,21,w,Psychologie,2023-01-10_10h31.59.632,00_bat_bachelor,2022.2.4,59.99522945592579,
,,,,,,,,,,,,0,0,0,0,33,0,33,0,,,,,,,33,,,1,289.45885474793613,Y,l,go,l,1,0.38971612276509404,,,,,,,,,,,,,,,,,,12,001,21,w,Psychologie,2023-01-10_10h31.59.632,00_bat_bachelor,2022.2.4,59.99522945592579,
,,,,,,,,,,,,0,0,0,0,34,0,34,0,,,,,,,34,,,1,290.95980408228934,X,d,go,d,1,0.3451279583387077,,,,,,,,,,,,,,,,,,12,001,21,w,Psychologie,2023-01-10_10h31.59.632,00_bat_bachelor,2022.2.4,59.99522945592579,
,,,,,,,,,,,,0,0,0,0,35,0,35,0,,,,,,,35,,,1,292.4111024593003,Y,l,go,l,1,0.36504700826480985,,,,,,,,,,,,,,,,,,12,001,21,w,Psychologie,2023-01-10_10h31.59.632,00_bat_bachelor,2022.2.4,59.99522945592579,
,,,,,,,,,,,,0,0,0,0,36,0,36,0,,,,,,,36,,,1,293.87898945854977,Y,None,nogo,None,1,,294.6792985983193,,,,,,,,,,,,,,,,,12,001,21,w,Psychologie,2023-01-10_10h31.59.632,00_bat_bachelor,2022.2.4,59.99522945592579,
,,,,,,,,,,,,0,0,0,0,37,0,37,0,,,,,,,37,,,1,295.6802930235863,X,d,go,d,1,0.3131827153265476,,,,,,,,,,,,,,,,,,12,001,21,w,Psychologie,2023-01-10_10h31.59.632,00_bat_bachelor,2022.2.4,59.99522945592579,
,,,,,,,,,,,,0,0,0,0,38,0,38,0,,,,,,,38,,,1,297.0979899135418,Y,l,go,l,1,0.543229968752712,,,,,,,,,,,,,,,,,,12,001,21,w,Psychologie,2023-01-10_10h31.59.632,00_bat_bachelor,2022.2.4,59.99522945592579,
,,,,,,,,,,,,0,0,0,0,39,0,39,0,,,,,,,39,,,1,298.74926472688094,Y,None,nogo,None,1,,299.54987689713016,,,,,,,,,,,,,,,,,12,001,21,w,Psychologie,2023-01-10_10h31.59.632,00_bat_bachelor,2022.2.4,59.99522945592579,
,,,,,,,,,,,,0,0,0,0,40,0,40,0,,,,,,,40,,,1,300.5504495035857,X,d,go,d,1,0.2898096018470824,,,,,,,,,,,,,,,,,,12,001,21,w,Psychologie,2023-01-10_10h31.59.632,00_bat_bachelor,2022.2.4,59.99522945592579,
,,,,,,,,,,,,0,0,0,0,41,0,41,0,,,,,,,41,,,1,301.96820069663227,Y,l,go,l,1,0.37670083763077855,,,,,,,,,,,,,,,,,,12,001,21,w,Psychologie,2023-01-10_10h31.59.632,00_bat_bachelor,2022.2.4,59.99522945592579,
,,,,,,,,,,,,0,0,0,0,42,0,42,0,,,,,,,42,,,1,303.45289789373055,X,d,go,d,1,0.29948282334953547,,,,,,,,,,,,,,,,,,12,001,21,w,Psychologie,2023-01-10_10h31.59.632,00_bat_bachelor,2022.2.4,59.99522945592579,
,,,,,,,,,,,,0,0,0,0,43,0,43,0,,,,,,,43,,,1,304.85372446430847,Y,l,go,l,1,0.3216001782566309,,,,,,,,,,,,,,,,,,12,001,21,w,Psychologie,2023-01-10_10h31.59.632,00_bat_bachelor,2022.2.4,59.99522945592579,
,,,,,,,,,,,,0,0,0,0,44,0,44,0,,,,,,,44,,,1,306.30508975032717,Y,None,nogo,None,1,,307.1056776782498,,,,,,,,,,,,,,,,,12,001,21,w,Psychologie,2023-01-10_10h31.59.632,00_bat_bachelor,2022.2.4,59.99522945592579,
,,,,,,,,,,,,0,0,0,0,45,0,45,0,,,,,,,45,,,1,308.1063831336796,Y,None,nogo,l,0,0.28615674935281277,,,,,,,,,,,,,,,,,,12,001,21,w,Psychologie,2023-01-10_10h31.59.632,00_bat_bachelor,2022.2.4,59.99522945592579,
,,,,,,,,,,,,0,0,0,0,46,0,46,0,,,,,,,46,,,1,309.50748946191743,X,d,go,d,1,0.4056070474907756,,,,,,,,,,,,,,,,,,12,001,21,w,Psychologie,2023-01-10_10h31.59.632,00_bat_bachelor,2022.2.4,59.99522945592579,
,,,,,,,,,,,,0,0,0,0,47,0,47,0,,,,,,,47,,,1,311.0251049939543,Y,l,go,None,0,,311.82597268000245,,,,,,,,,,,,,,,,,12,001,21,w,Psychologie,2023-01-10_10h31.59.632,00_bat_bachelor,2022.2.4,59.99522945592579,
,,,,,,,,,,,,0,0,0,0,48,0,48,0,,,,,,,48,,,1,312.8266679532826,X,d,go,d,1,0.26911043003201485,,,,,,,,,,,,,,,,,,12,001,21,w,Psychologie,2023-01-10_10h31.59.632,00_bat_bachelor,2022.2.4,59.99522945592579,
,,,,,,,,,,,,0,0,0,0,49,0,49,0,,,,,,,49,,,1,314.22758519044146,Y,l,go,l,1,0.4219149420969188,,,,,,,,,,,,,,,,,,12,001,21,w,Psychologie,2023-01-10_10h31.59.632,00_bat_bachelor,2022.2.4,59.99522945592579,
,,,,,,,,,,,,0,0,0,0,50,0,50,0,,,,,,,50,,,1,315.762529224623,X,d,go,d,1,0.3411468635313213,,,,,,,,,,,,,,,,,,12,001,21,w,Psychologie,2023-01-10_10h31.59.632,00_bat_bachelor,2022.2.4,59.99522945592579,
,,,,,,,,,,,,0,0,0,0,51,0,51,0,,,,,,,51,,,1,317.230070526246,Y,l,go,l,1,0.37761089904233813,,,,,,,,,,,,,,,,,,12,001,21,w,Psychologie,2023-01-10_10h31.59.632,00_bat_bachelor,2022.2.4,59.99522945592579,
,,,,,,,,,,,,0,0,0,0,52,0,52,0,,,,,,,52,,,1,318.7312477394007,X,d,go,d,1,0.364998038392514,,,,,,,,,,,,,,,,,,12,001,21,w,Psychologie,2023-01-10_10h31.59.632,00_bat_bachelor,2022.2.4,59.99522945592579,
,,,,,,,,,,,,0,0,0,0,53,0,53,0,,,,,,,53,,,1,320.19924722379074,Y,l,go,l,1,0.3534067547880113,,,,,,,,,,,,,,,,,,12,001,21,w,Psychologie,2023-01-10_10h31.59.632,00_bat_bachelor,2022.2.4,59.99522945592579,
,,,,,,,,,,,,0,0,0,0,54,0,54,0,,,,,,,54,,,1,321.6668578591198,Y,None,nogo,None,1,,322.46772069623694,,,,,,,,,,,,,,,,,12,001,21,w,Psychologie,2023-01-10_10h31.59.632,00_bat_bachelor,2022.2.4,59.99522945592579,
,,,,,,,,,,,,0,0,0,0,55,0,55,0,,,,,,,55,,,1,323.4684334238991,X,d,go,d,1,0.3162576272152364,,,,,,,,,,,,,,,,,,12,001,21,w,Psychologie,2023-01-10_10h31.59.632,00_bat_bachelor,2022.2.4,59.99522945592579,
,,,,,,,,,,,,0,0,0,0,56,0,56,0,,,,,,,56,,,1,324.8859397685155,Y,l,go,l,1,0.38688557455316186,,,,,,,,,,,,,,,,,,12,001,21,w,Psychologie,2023-01-10_10h31.59.632,00_bat_bachelor,2022.2.4,59.99522945592579,
,,,,,,,,,,,,0,0,0,0,57,0,57,0,,,,,,,57,,,1,326.38726679980755,Y,None,nogo,None,1,,327.18770054588094,,,,,,,,,,,,,,,,,12,001,21,w,Psychologie,2023-01-10_10h31.59.632,00_bat_bachelor,2022.2.4,59.99522945592579,
,,,,,,,,,,,,0,0,0,0,58,0,58,0,,,,,,,58,,,1,328.188697880134,X,d,go,d,1,0.3316157031804323,,,,,,,,,,,,,,,,,,12,001,21,w,Psychologie,2023-01-10_10h31.59.632,00_bat_bachelor,2022.2.4,59.99522945592579,
,,,,,,,,,,,,0,0,0,0,59,0,59,0,,,,,,,59,,,1,329.62287721037865,Y,l,go,l,1,0.33725207205861807,,,,,,,,,,,,,,,,,,12,001,21,w,Psychologie,2023-01-10_10h31.59.632,00_bat_bachelor,2022.2.4,59.99522945592579,
,,,,,,,,,,,,0,0,0,0,60,0,60,0,,,,,,,60,,,1,331.09069536067545,X,d,go,d,1,0.3743711384013295,,,,,,,,,,,,,,,,,,12,001,21,w,Psychologie,2023-01-10_10h31.59.632,00_bat_bachelor,2022.2.4,59.99522945592579,
,,,,,,,,,,,,0,0,0,0,61,0,61,0,,,,,,,61,,,1,332.57534019462764,Y,l,go,l,1,0.36018154863268137,,,,,,,,,,,,,,,,,,12,001,21,w,Psychologie,2023-01-10_10h31.59.632,00_bat_bachelor,2022.2.4,59.99522945592579,
,,,,,,,,,,,,0,0,0,0,62,0,62,0,,,,,,,62,,,1,334.05986236128956,X,d,go,d,1,0.39570594672113657,,,,,,,,,,,,,,,,,,12,001,21,w,Psychologie,2023-01-10_10h31.59.632,00_bat_bachelor,2022.2.4,59.99522945592579,
,,,,,,,,,,,,0,0,0,0,63,0,63,0,,,,,,,63,,,1,335.5776461358182,Y,l,go,l,1,0.3185596903786063,,,,,,,,,,,,,,,,,,12,001,21,w,Psychologie,2023-01-10_10h31.59.632,00_bat_bachelor,2022.2.4,59.99522945592579,
,,,,,,,,,,,,0,0,0,0,64,0,64,0,,,,,,,64,,,1,337.0287447553128,X,d,go,d,1,0.3401504992507398,,,,,,,,,,,,,,,,,,12,001,21,w,Psychologie,2023-01-10_10h31.59.632,00_bat_bachelor,2022.2.4,59.99522945592579,
,,,,,,,,,,,,0,0,0,0,65,0,65,0,,,,,,,65,,,1,338.4796402226202,X,None,nogo,None,1,,339.2806092421524,,,,,,,,,,,,,,,,,12,001,21,w,Psychologie,2023-01-10_10h31.59.632,00_bat_bachelor,2022.2.4,59.99522945592579,
,,,,,,,,,,,,0,0,0,0,66,0,66,0,,,,,,,66,,,1,340.281253606081,X,None,nogo,None,1,,341.0819249278866,,,,,,,,,,,,,,,,,12,001,21,w,Psychologie,2023-01-10_10h31.59.632,00_bat_bachelor,2022.2.4,59.99522945592579,
,,,,,,,,,,,,0,0,0,0,67,0,67,0,,,,,,,67,,,1,342.0826570498757,Y,l,go,l,1,0.2145469835959375,,,,,,,,,,,,,,,,,,12,001,21,w,Psychologie,2023-01-10_10h31.59.632,00_bat_bachelor,2022.2.4,59.99522945592579,
,,,,,,,,,,,,0,0,0,0,68,0,68,0,,,,,,,68,,,1,343.41675094980747,X,d,go,d,1,0.2714769779704511,,,,,,,,,,,,,,,,,,12,001,21,w,Psychologie,2023-01-10_10h31.59.632,00_bat_bachelor,2022.2.4,59.99522945592579,
,,,,,,,,,,,,0,0,0,0,69,0,69,0,,,,,,,69,,,1,344.80113435257226,X,None,nogo,None,1,,345.6017765835859,,,,,,,,,,,,,,,,,12,001,21,w,Psychologie,2023-01-10_10h31.59.632,00_bat_bachelor,2022.2.4,59.99522945592579,
,,,,,,,,,,,,0,0,0,0,70,0,70,0,,,,,,,70,,,1,346.60253294790164,Y,l,go,l,1,0.30145131004974246,,,,,,,,,,,,,,,,,,12,001,21,w,Psychologie,2023-01-10_10h31.59.632,00_bat_bachelor,2022.2.4,59.99522945592579,
,,,,,,,,,,,,0,0,0,0,71,0,71,0,,,,,,,71,,,1,348.02028850466013,X,d,go,d,1,0.2599516334012151,,,,,,,,,,,,,,,,,,12,001,21,w,Psychologie,2023-01-10_10h31.59.632,00_bat_bachelor,2022.2.4,59.99522945592579,
,,,,,,,,,,,,0,0,0,0,72,0,72,0,,,,,,,72,,,1,349.4049128778279,Y,l,go,l,1,0.3793791434727609,,,,,,,,,,,,,,,,,,12,001,21,w,Psychologie,2023-01-10_10h31.59.632,00_bat_bachelor,2022.2.4,59.99522945592579,
,,,,,,,,,,,,0,0,0,0,73,0,73,0,,,,,,,73,,,1,350.90617639385164,X,d,go,d,1,0.36581694800406694,,,,,,,,,,,,,,,,,,12,001,21,w,Psychologie,2023-01-10_10h31.59.632,00_bat_bachelor,2022.2.4,59.99522945592579,
,,,,,,,,,,,,0,0,0,0,74,0,74,0,,,,,,,74,,,1,352.39049443928525,X,None,nogo,None,1,,353.1912375190295,,,,,,,,,,,,,,,,,12,001,21,w,Psychologie,2023-01-10_10h31.59.632,00_bat_bachelor,2022.2.4,59.99522945592579,
,,,,,,,,,,,,0,0,0,0,75,0,75,0,,,,,,,75,,,1,354.19165012519807,X,None,nogo,None,1,,354.99229381093755,,,,,,,,,,,,,,,,,12,001,21,w,Psychologie,2023-01-10_10h31.59.632,00_bat_bachelor,2022.2.4,59.99522945592579,
,,,,,,,,,,,,0,0,0,0,76,0,76,0,,,,,,,76,,,1,355.9932722360827,Y,l,go,l,1,0.2719220696017146,,,,,,,,,,,,,,,,,,12,001,21,w,Psychologie,2023-01-10_10h31.59.632,00_bat_bachelor,2022.2.4,59.99522945592579,
,,,,,,,,,,,,0,0,0,0,77,0,77,0,,,,,,,77,,,1,357.37761442689225,X,d,go,d,1,0.3430503807030618,,,,,,,,,,,,,,,,,,12,001,21,w,Psychologie,2023-01-10_10h31.59.632,00_bat_bachelor,2022.2.4,59.99522945592579,
,,,,,,,,,,,,0,0,0,0,78,0,78,0,,,,,,,78,,,1,358.845451971516,Y,l,go,l,1,0.3463109899312258,,,,,,,,,,,,,,,,,,12,001,21,w,Psychologie,2023-01-10_10h31.59.632,00_bat_bachelor,2022.2.4,59.99522945592579,
,,,,,,,,,,,,0,0,0,0,79,0,79,0,,,,,,,79,,,1,360.31323521304876,Y,None,nogo,None,1,,361.1135991406627,,,,,,,,,,,,,,,,,12,001,21,w,Psychologie,2023-01-10_10h31.59.632,00_bat_bachelor,2022.2.4,59.99522945592579,
,,,,,,,,,,,,0,0,0,0,80,0,80,0,,,,,,,80,,,1,362.1143453232944,Y,None,nogo,None,1,,362.9150893725455,,,,,,,,,,,,,,,,,12,001,21,w,Psychologie,2023-01-10_10h31.59.632,00_bat_bachelor,2022.2.4,59.99522945592579,
,,,,,,,,,,,,0,0,0,0,81,0,81,0,,,,,,,81,,,1,363.9159829490818,X,d,go,d,1,0.2359564588405192,,,,,,,,,,,,,,,,,,12,001,21,w,Psychologie,2023-01-10_10h31.59.632,00_bat_bachelor,2022.2.4,59.99522945592579,
,,,,,,,,,,,,0,0,0,0,82,0,82,0,,,,,,,82,,,1,365.28368221456185,Y,l,go,l,1,0.3248312114737928,,,,,,,,,,,,,,,,,,12,001,21,w,Psychologie,2023-01-10_10h31.59.632,00_bat_bachelor,2022.2.4,59.99522945592579,
,,,,,,,,,,,,0,0,0,0,83,0,83,0,,,,,,,83,,,1,366.71809427207336,X,d,go,d,1,0.2985034282319248,,,,,,,,,,,,,,,,,,12,001,21,w,Psychologie,2023-01-10_10h31.59.632,00_bat_bachelor,2022.2.4,59.99522945592579,
,,,,,,,,,,,,0,0,0,0,84,0,84,0,,,,,,,84,,,1,368.11911866115406,X,None,nogo,None,1,,368.9196925284341,,,,,,,,,,,,,,,,,12,001,21,w,Psychologie,2023-01-10_10h31.59.632,00_bat_bachelor,2022.2.4,59.99522945592579,
,,,,,,,,,,,,0,0,0,0,85,0,85,0,,,,,,,85,,,1,369.9205274381675,Y,l,go,l,1,0.32810151763260365,,,,,,,,,,,,,,,,,,12,001,21,w,Psychologie,2023-01-10_10h31.59.632,00_bat_bachelor,2022.2.4,59.99522945592579,
,,,,,,,,,,,,0,0,0,0,86,0,86,0,,,,,,,86,,,1,371.3717050878331,X,d,go,d,1,0.3179119322448969,,,,,,,,,,,,,,,,,,12,001,21,w,Psychologie,2023-01-10_10h31.59.632,00_bat_bachelor,2022.2.4,59.99522945592579,
,,,,,,,,,,,,0,0,0,0,87,0,87,0,,,,,,,87,,,1,372.806038599927,X,None,nogo,None,1,,373.60646167909727,,,,,,,,,,,,,,,,,12,001,21,w,Psychologie,2023-01-10_10h31.59.632,00_bat_bachelor,2022.2.4,59.99522945592579,
,,,,,,,,,,,,0,0,0,0,88,0,88,0,,,,,,,88,,,1,374.60744398320094,Y,l,go,l,1,0.3283832152374089,,,,,,,,,,,,,,,,,,12,001,21,w,Psychologie,2023-01-10_10h31.59.632,00_bat_bachelor,2022.2.4,59.99522945592579,
,,,,,,,,,,,,0,0,0,0,89,0,89,0,,,,,,,89,,,1,376.0585823599249,X,d,go,d,1,0.3661990095861256,,,,,,,,,,,,,,,,,,12,001,21,w,Psychologie,2023-01-10_10h31.59.632,00_bat_bachelor,2022.2.4,59.99522945592579,
,,,,,,,,,,,,0,0,0,0,90,0,90,0,,,,,,,90,,,1,377.54302695114166,X,None,nogo,None,1,,378.3434907575138,,,,,,,,,,,,,,,,,12,001,21,w,Psychologie,2023-01-10_10h31.59.632,00_bat_bachelor,2022.2.4,59.99522945592579,
,,,,,,,,,,,,0,0,0,0,91,0,91,0,,,,,,,91,,,1,379.34419087925926,Y,l,go,l,1,0.3605243372730911,,,,,,,,,,,,,,,,,,12,001,21,w,Psychologie,2023-01-10_10h31.59.632,00_bat_bachelor,2022.2.4,59.99522945592579,
,,,,,,,,,,,,0,0,0,0,92,0,92,0,,,,,,,92,,,1,380.8286800766364,X,d,go,d,1,0.3958218260668218,,,,,,,,,,,,,,,,,,12,001,21,w,Psychologie,2023-01-10_10h31.59.632,00_bat_bachelor,2022.2.4,59.99522945592579,
,,,,,,,,,,,,0,0,0,0,93,0,93,0,,,,,,,93,,,1,382.3467537909746,Y,l,go,l,1,0.3338649170473218,,,,,,,,,,,,,,,,,,12,001,21,w,Psychologie,2023-01-10_10h31.59.632,00_bat_bachelor,2022.2.4,59.99522945592579,
,,,,,,,,,,,,0,0,0,0,94,0,94,0,,,,,,,94,,,1,383.8142824866809,X,d,go,d,1,0.30534949572756886,,,,,,,,,,,,,,,,,,12,001,21,w,Psychologie,2023-01-10_10h31.59.632,00_bat_bachelor,2022.2.4,59.99522945592579,
,,,,,,,,,,,,0,0,0,0,95,0,95,0,,,,,,,95,,,1,385.2486809687689,Y,l,go,l,1,0.42364439833909273,,,,,,,,,,,,,,,,,,12,001,21,w,Psychologie,2023-01-10_10h31.59.632,00_bat_bachelor,2022.2.4,59.99522945592579,
,,,,,,,,,,,,0,0,0,0,96,0,96,0,,,,,,,96,,,1,386.79986210912466,Y,None,nogo,None,1,,387.60049658222124,,,,,,,,,,,,,,,,,12,001,21,w,Psychologie,2023-01-10_10h31.59.632,00_bat_bachelor,2022.2.4,59.99522945592579,
,,,,,,,,,,,,0,0,0,0,97,0,97,0,,,,,,,97,,,1,388.6012369468808,Y,None,nogo,None,1,,389.40184960188344,,,,,,,,,,,,,,,,,12,001,21,w,Psychologie,2023-01-10_10h31.59.632,00_bat_bachelor,2022.2.4,59.99522945592579,
,,,,,,,,,,,,0,0,0,0,98,0,98,0,,,,,,,98,,,1,390.40283675445244,X,d,go,d,1,0.3091201661154628,,,,,,,,,,,,,,,,,,12,001,21,w,Psychologie,2023-01-10_10h31.59.632,00_bat_bachelor,2022.2.4,59.99522945592579,
,,,,,,,,,,,,0,0,0,0,99,0,99,0,,,,,,,99,,,1,391.853974646423,Y,l,go,l,1,0.4104332341812551,,,,,,,,,,,,,,,,,,12,001,21,w,Psychologie,2023-01-10_10h31.59.632,00_bat_bachelor,2022.2.4,59.99522945592579,
,,,,,,,,,,,,0,0,0,0,100,0,100,0,,,,,,,100,,,1,393.4048997866921,X,d,go,d,1,0.3470663847401738,,,,,,,,,,,,,,,,,,12,001,21,w,Psychologie,2023-01-10_10h31.59.632,00_bat_bachelor,2022.2.4,59.99522945592579,
,,,,,,,,,,,,0,0,0,0,101,0,101,0,,,,,,,101,,,1,394.8728081192821,X,None,nogo,None,1,,395.6736888960004,,,,,,,,,,,,,,,,,12,001,21,w,Psychologie,2023-01-10_10h31.59.632,00_bat_bachelor,2022.2.4,59.99522945592579,
,,,,,,,,,,,,0,0,0,0,102,0,102,0,,,,,,,102,,,1,396.67406319919974,Y,l,go,l,1,0.39030327508226037,,,,,,,,,,,,,,,,,,12,001,21,w,Psychologie,2023-01-10_10h31.59.632,00_bat_bachelor,2022.2.4,59.99522945592579,
,,,,,,,,,,,,0,0,0,0,103,0,103,0,,,,,,,103,,,1,398.2085888083093,X,d,go,d,1,0.3750116238370538,,,,,,,,,,,,,,,,,,12,001,21,w,Psychologie,2023-01-10_10h31.59.632,00_bat_bachelor,2022.2.4,59.99522945592579,
,,,,,,,,,,,,0,0,0,0,104,0,104,0,,,,,,,104,,,1,399.7097175368108,Y,l,go,l,1,0.2984995497390628,,,,,,,,,,,,,,,,,,12,001,21,w,Psychologie,2023-01-10_10h31.59.632,00_bat_bachelor,2022.2.4,59.99522945592579,
,,,,,,,,,,,,0,0,0,0,105,0,105,0,,,,,,,105,,,1,401.1274541844614,X,d,go,d,1,0.3045950708910823,,,,,,,,,,,,,,,,,,12,001,21,w,Psychologie,2023-01-10_10h31.59.632,00_bat_bachelor,2022.2.4,59.99522945592579,
,,,,,,,,,,,,0,0,0,0,106,0,106,0,,,,,,,106,,,1,402.5448878011666,Y,l,go,l,1,0.34402541210874915,,,,,,,,,,,,,,,,,,12,001,21,w,Psychologie,2023-01-10_10h31.59.632,00_bat_bachelor,2022.2.4,59.99522945592579,
,,,,,,,,,,,,0,0,0,0,107,0,107,0,,,,,,,107,,,1,403.99588120821863,Y,None,nogo,None,1,,,,,,,,,,,,,,,,,,,12,001,21,w,Psychologie,2023-01-10_10h31.59.632,00_bat_bachelor,2022.2.4,59.99522945592579,
,,,,,,,,,,,,0,0,0,0,108,0,108,0,,,,,,,108,,,1,405.7974364096299,X,d,go,l,0,0.2916064518503845,,,,,,,,,,,,,,,,,,12,001,21,w,Psychologie,2023-01-10_10h31.59.632,00_bat_bachelor,2022.2.4,59.99522945592579,
,,,,,,,,,,,,0,0,0,0,109,0,109,0,,,,,,,109,,,1,407.19839582871646,Y,l,go,l,1,0.36170785361900926,,,,,,,,,,,,,,,,,,12,001,21,w,Psychologie,2023-01-10_10h31.59.632,00_bat_bachelor,2022.2.4,59.99522945592579,
,,,,,,,,,,,,0,0,0,0,110,0,110,0,,,,,,,110,,,1,408.6661359188147,Y,None,nogo,None,1,,,,,,,,,,,,,,,,,,,12,001,21,w,Psychologie,2023-01-10_10h31.59.632,00_bat_bachelor,2022.2.4,59.99522945592579,
,,,,,,,,,,,,0,0,0,0,111,0,111,0,,,,,,,111,,,1,410.4675063928589,X,d,go,d,1,0.3093262268230319,,,,,,,,,,,,,,,,,,12,001,21,w,Psychologie,2023-01-10_10h31.59.632,00_bat_bachelor,2022.2.4,59.99522945592579,
,,,,,,,,,,,,0,0,0,0,112,0,112,0,,,,,,,112,,,1,411.88551940442994,Y,l,go,l,1,0.37911732494831085,,,,,,,,,,,,,,,,,,12,001,21,w,Psychologie,2023-01-10_10h31.59.632,00_bat_bachelor,2022.2.4,59.99522945592579,
,,,,,,,,,,,,0,0,0,0,113,0,113,0,,,,,,,113,,,1,413.3694413281046,Y,None,nogo,None,1,,,,,,,,,,,,,,,,,,,12,001,21,w,Psychologie,2023-01-10_10h31.59.632,00_bat_bachelor,2022.2.4,59.99522945592579,
,,,,,,,,,,,,0,0,0,0,114,0,114,0,,,,,,,114,,,1,415.17110125673935,X,d,go,d,1,0.29413784807547927,,,,,,,,,,,,,,,,,,12,001,21,w,Psychologie,2023-01-10_10h31.59.632,00_bat_bachelor,2022.2.4,59.99522945592579,
,,,,,,,,,,,,0,0,0,0,115,0,115,0,,,,,,,115,,,1,416.5720349792391,Y,l,go,l,1,0.3484598407521844,,,,,,,,,,,,,,,,,,12,001,21,w,Psychologie,2023-01-10_10h31.59.632,00_bat_bachelor,2022.2.4,59.99522945592579,
,,,,,,,,,,,,0,0,0,0,116,0,116,0,,,,,,,116,,,1,418.0230182041414,X,d,go,d,1,0.3053388288244605,,,,,,,,,,,,,,,,,,12,001,21,w,Psychologie,2023-01-10_10h31.59.632,00_bat_bachelor,2022.2.4,59.99522945592579,
,,,,,,,,,,,,0,0,0,0,117,0,117,0,,,,,,,117,,,1,419.44070297293365,Y,l,go,l,1,0.4088778388686478,,,,,,,,,,,,,,,,,,12,001,21,w,Psychologie,2023-01-10_10h31.59.632,00_bat_bachelor,2022.2.4,59.99522945592579,
,,,,,,,,,,,,0,0,0,0,118,0,118,0,,,,,,,118,,,1,420.9586215359159,X,d,go,d,1,0.3305601868778467,,,,,,,,,,,,,,,,,,12,001,21,w,Psychologie,2023-01-10_10h31.59.632,00_bat_bachelor,2022.2.4,59.99522945592579,
,,,,,,,,,,,,0,0,0,0,119,0,119,0,,,,,,,119,,,1,422.3930655932054,X,None,nogo,None,1,,,,,,,,,,,,,,,,,,,12,001,21,w,Psychologie,2023-01-10_10h31.59.632,00_bat_bachelor,2022.2.4,59.99522945592579,
,,,,,,,,,,,,0,0,0,0,120,0,120,0,,,,,,,120,,,1,424.1952200680971,Y,l,go,l,1,0.3569616670720279,,,,,,,,,,,,,,,,,,12,001,21,w,Psychologie,2023-01-10_10h31.59.632,00_bat_bachelor,2022.2.4,59.99522945592579,
,,,,,,,,,,,,0,0,0,0,121,0,121,0,,,,,,,121,,,1,425.67952938657254,X,d,go,d,1,0.2647744263522327,,,,,,,,,,,,,,,,,,12,001,21,w,Psychologie,2023-01-10_10h31.59.632,00_bat_bachelor,2022.2.4,59.99522945592579,
,,,,,,,,,,,,0,0,0,0,122,0,122,0,,,,,,,122,,,1,427.08063716907054,X,None,nogo,d,0,0.4330703467130661,,,,,,,,,,,,,,,,,,12,001,21,w,Psychologie,2023-01-10_10h31.59.632,00_bat_bachelor,2022.2.4,59.99522945592579,
,,,,,,,,,,,,0,0,0,0,123,0,123,0,,,,,,,123,,,1,428.61524423304945,Y,l,go,l,1,0.38614181615412235,,,,,,,,,,,,,,,,,,12,001,21,w,Psychologie,2023-01-10_10h31.59.632,00_bat_bachelor,2022.2.4,59.99522945592579,
,,,,,,,,,,,,0,0,0,0,124,0,124,0,,,,,,,124,,,1,430.1161169609986,X,d,go,d,1,0.3729854398407042,,,,,,,,,,,,,,,,,,12,001,21,w,Psychologie,2023-01-10_10h31.59.632,00_bat_bachelor,2022.2.4,59.99522945592579,
,,,,,,,,,,,,0,0,0,0,125,0,125,0,,,,,,,125,,,1,431.60070943133906,Y,l,go,l,1,0.35993088176473975,,,,,,,,,,,,,,,,,,12,001,21,w,Psychologie,2023-01-10_10h31.59.632,00_bat_bachelor,2022.2.4,59.99522945592579,
,,,,,,,,,,,,0,0,0,0,126,0,126,0,,,,,,,126,,,1,433.06840346055105,X,d,go,d,1,0.3806193866766989,,,,,,,,,,,,,,,,,,12,001,21,w,Psychologie,2023-01-10_10h31.59.632,00_bat_bachelor,2022.2.4,59.99522945592579,
,,,,,,,,,,,,0,0,0,0,127,0,127,0,,,,,,,127,,,1,434.5526715661399,Y,l,go,l,1,0.3524118443019688,,,,,,,,,,,,,,,,,,12,001,21,w,Psychologie,2023-01-10_10h31.59.632,00_bat_bachelor,2022.2.4,59.99522945592579,
,,,,,,,,,,,,0,0,0,0,128,0,128,0,,,,,,,128,,,1,436.0204494744539,Y,None,nogo,None,1,,436.8212250387296,,,,,,,,,,,,,,,,,12,001,21,w,Psychologie,2023-01-10_10h31.59.632,00_bat_bachelor,2022.2.4,59.99522945592579,
,,,,,,,,,,,,0,0,0,0,129,0,129,0,,,,,,,129,,,1,437.8218369181268,X,d,go,d,1,0.2496893205679953,,,,,,,,,,,,,,,,,,12,001,21,w,Psychologie,2023-01-10_10h31.59.632,00_bat_bachelor,2022.2.4,59.99522945592579,
,,,,,,,,,,,,0,0,0,0,130,0,130,0,,,,,,,130,,,1,439.18972575990483,Y,l,go,l,1,0.3710111347027123,,,,,,,,,,,,,,,,,,12,001,21,w,Psychologie,2023-01-10_10h31.59.632,00_bat_bachelor,2022.2.4,59.99522945592579,
,,,,,,,,,,,,0,0,0,0,131,0,131,0,,,,,,,131,,,1,440.67417471436784,Y,None,nogo,None,1,,441.4747956120409,,,,,,,,,,,,,,,,,12,001,21,w,Psychologie,2023-01-10_10h31.59.632,00_bat_bachelor,2022.2.4,59.99522945592579,
,,,,,,,,,,,,0,0,0,0,132,0,132,0,,,,,,,132,,,1,442.4756057946943,Y,None,nogo,None,1,,443.27615784388036,,,,,,,,,,,,,,,,,12,001,21,w,Psychologie,2023-01-10_10h31.59.632,00_bat_bachelor,2022.2.4,59.99522945592579,
,,,,,,,,,,,,0,0,0,0,133,0,133,0,,,,,,,133,,,1,444.2767498441972,X,d,go,d,1,0.3082198016345501,,,,,,,,,,,,,,,,,,12,001,21,w,Psychologie,2023-01-10_10h31.59.632,00_bat_bachelor,2022.2.4,59.99522945592579,
,,,,,,,,,,,,0,0,0,0,134,0,134,0,,,,,,,134,,,1,445.69488406786695,Y,l,go,l,1,0.330941763240844,,,,,,,,,,,,,,,,,,12,001,21,w,Psychologie,2023-01-10_10h31.59.632,00_bat_bachelor,2022.2.4,59.99522945592579,
,,,,,,,,,,,,0,0,0,0,135,0,135,0,,,,,,,135,,,1,447.1291201254353,X,d,go,d,1,0.4161500879563391,,,,,,,,,,,,,,,,,,12,001,21,w,Psychologie,2023-01-10_10h31.59.632,00_bat_bachelor,2022.2.4,59.99522945592579,
,,,,,,,,,,,,0,0,0,0,136,0,136,0,,,,,,,136,,,1,448.6467788089067,Y,l,go,l,1,0.401861104182899,,,,,,,,,,,,,,,,,,12,001,21,w,Psychologie,2023-01-10_10h31.59.632,00_bat_bachelor,2022.2.4,59.99522945592579,
,,,,,,,,,,,,0,0,0,0,137,0,137,0,,,,,,,137,,,1,450.1645747050643,X,d,go,d,1,0.30833277106285095,,,,,,,,,,,,,,,,,,12,001,21,w,Psychologie,2023-01-10_10h31.59.632,00_bat_bachelor,2022.2.4,59.99522945592579,
,,,,,,,,,,,,0,0,0,0,138,0,138,0,,,,,,,138,,,1,451.5824888073839,Y,l,go,l,1,0.3786989003419876,,,,,,,,,,,,,,,,,,12,001,21,w,Psychologie,2023-01-10_10h31.59.632,00_bat_bachelor,2022.2.4,59.99522945592579,
,,,,,,,,,,,,0,0,0,0,139,0,139,0,,,,,,,139,,,1,453.0669750953093,Y,None,nogo,None,1,,453.8675576900132,,,,,,,,,,,,,,,,,12,001,21,w,Psychologie,2023-01-10_10h31.59.632,00_bat_bachelor,2022.2.4,59.99522945592579,
,,,,,,,,,,,,0,0,0,0,140,0,140,0,,,,,,,140,,,1,454.86819623596966,Y,None,nogo,None,1,,455.66879919404164,,,,,,,,,,,,,,,,,12,001,21,w,Psychologie,2023-01-10_10h31.59.632,00_bat_bachelor,2022.2.4,59.99522945592579,
,,,,,,,,,,,,0,0,0,0,141,0,141,0,,,,,,,141,,,1,456.66973058879375,X,d,go,d,1,0.26698339777067304,,,,,,,,,,,,,,,,,,12,001,21,w,Psychologie,2023-01-10_10h31.59.632,00_bat_bachelor,2022.2.4,59.99522945592579,
,,,,,,,,,,,,0,0,0,0,142,0,142,0,,,,,,,142,,,1,458.03726549074054,Y,l,go,l,1,0.3870848473161459,,,,,,,,,,,,,,,,,,12,001,21,w,Psychologie,2023-01-10_10h31.59.632,00_bat_bachelor,2022.2.4,59.99522945592579,
,,,,,,,,,,,,0,0,0,0,143,0,143,0,,,,,,,143,,,1,459.5386060983874,X,d,go,d,1,0.37520023016259074,,,,,,,,,,,,,,,,,,12,001,21,w,Psychologie,2023-01-10_10h31.59.632,00_bat_bachelor,2022.2.4,59.99522945592579,
,,,,,,,,,,,,0,0,0,0,144,0,144,0,,,,,,,144,,,1,461.02288050716743,Y,l,go,l,1,0.39479346107691526,,,,,,,,,,,,,,,,,,12,001,21,w,Psychologie,2023-01-10_10h31.59.632,00_bat_bachelor,2022.2.4,59.99522945592579,
,,,,,,,,,,,,0,0,0,0,145,0,145,0,,,,,,,145,,,1,462.52400681143627,Y,None,nogo,None,1,,,,,,,,,,,,,,,,,,,12,001,21,w,Psychologie,2023-01-10_10h31.59.632,00_bat_bachelor,2022.2.4,59.99522945592579,
,,,,,,,,,,,,0,0,0,0,146,0,146,0,,,,,,,146,,,1,464.325395709835,X,d,go,d,1,0.30852961959317327,,,,,,,,,,,,,,,,,,12,001,21,w,Psychologie,2023-01-10_10h31.59.632,00_bat_bachelor,2022.2.4,59.99522945592579,
,,,,,,,,,,,,0,0,0,0,147,0,147,0,,,,,,,147,,,1,465.74312847852707,Y,l,go,l,1,0.31409083772450686,,,,,,,,,,,,,,,,,,12,001,21,w,Psychologie,2023-01-10_10h31.59.632,00_bat_bachelor,2022.2.4,59.99522945592579,
,,,,,,,,,,,,0,0,0,0,148,0,148,0,,,,,,,148,,,1,467.1608830653131,X,d,go,d,1,0.3033237964846194,,,,,,,,,,,,,,,,,,12,001,21,w,Psychologie,2023-01-10_10h31.59.632,00_bat_bachelor,2022.2.4,59.99522945592579,
,,,,,,,,,,,,0,0,0,0,149,0,149,0,,,,,,,149,,,1,468.578624561429,Y,l,go,l,1,0.3418135312385857,,,,,,,,,,,,,,,,,,12,001,21,w,Psychologie,2023-01-10_10h31.59.632,00_bat_bachelor,2022.2.4,59.99522945592579,
,,,,,,,,,,,,0,0,0,0,150,0,150,0,,,,,,,150,,,1,470.0298511805013,X,d,go,d,1,0.26679576141759753,,,,,,,,,,,,,,,,,,12,001,21,w,Psychologie,2023-01-10_10h31.59.632,00_bat_bachelor,2022.2.4,59.99522945592579,
,,,,,,,,,,,,0,0,0,0,151,0,151,0,,,,,,,151,,,1,471.3972668098286,Y,l,go,l,1,0.371281195897609,,,,,,,,,,,,,,,,,,12,001,21,w,Psychologie,2023-01-10_10h31.59.632,00_bat_bachelor,2022.2.4,59.99522945592579,
,,,,,,,,,,,,0,0,0,0,152,0,152,0,,,,,,,152,,,1,472.8817511582747,X,d,go,d,1,0.34434007899835706,,,,,,,,,,,,,,,,,,12,001,21,w,Psychologie,2023-01-10_10h31.59.632,00_bat_bachelor,2022.2.4,59.99522945592579,
,,,,,,,,,,,,0,0,0,0,153,0,153,0,,,,,,,153,,,1,474.33303935360163,X,None,nogo,None,1,,475.13366752350703,,,,,,,,,,,,,,,,,12,001,21,w,Psychologie,2023-01-10_10h31.59.632,00_bat_bachelor,2022.2.4,59.99522945592579,
,,,,,,,,,,,,0,0,0,0,154,0,154,0,,,,,,,154,,,1,476.13434873661026,Y,l,go,l,1,0.3226726637221873,,,,,,,,,,,,,,,,,,12,001,21,w,Psychologie,2023-01-10_10h31.59.632,00_bat_bachelor,2022.2.4,59.99522945592579,
,,,,,,,,,,,,0,0,0,0,155,0,155,0,,,,,,,155,,,1,477.5688223699108,X,d,go,d,1,0.2964360327459872,,,,,,,,,,,,,,,,,,12,001,21,w,Psychologie,2023-01-10_10h31.59.632,00_bat_bachelor,2022.2.4,59.99522945592579,
,,,,,,,,,,,,0,0,0,0,156,0,156,0,,,,,,,156,,,1,478.96991124376655,Y,l,go,l,1,0.3671066462993622,,,,,,,,,,,,,,,,,,12,001,21,w,Psychologie,2023-01-10_10h31.59.632,00_bat_bachelor,2022.2.4,59.99522945592579,
,,,,,,,,,,,,0,0,0,0,157,0,157,0,,,,,,,157,,,1,480.4376988490112,Y,None,nogo,None,1,,,,,,,,,,,,,,,,,,,12,001,21,w,Psychologie,2023-01-10_10h31.59.632,00_bat_bachelor,2022.2.4,59.99522945592579,
,,,,,,,,,,,,0,0,0,0,158,0,158,0,,,,,,,158,,,1,482.23906350461766,X,d,go,d,1,0.2817742000333965,,,,,,,,,,,,,,,,,,12,001,21,w,Psychologie,2023-01-10_10h31.59.632,00_bat_bachelor,2022.2.4,59.99522945592579,
,,,,,,,,,,,,0,0,0,0,159,0,159,0,,,,,,,159,,,1,483.62344157416373,Y,l,go,l,1,0.41693166457116604,,,,,,,,,,,,,,,,,,12,001,21,w,Psychologie,2023-01-10_10h31.59.632,00_bat_bachelor,2022.2.4,59.99522945592579,
,,,,,,,,,,,,0,0,0,0,160,0,160,0,,,,,,,160,,,1,485.1412772280164,Y,None,nogo,None,1,,485.9418346104212,,,,,,,,,,,,,,,,,12,001,21,w,Psychologie,2023-01-10_10h31.59.632,00_bat_bachelor,2022.2.4,59.99522945592579,
,,,,,,,,,,,,0,0,0,0,161,0,161,0,,,,,,,161,,,1,486.9424639442004,X,d,go,d,1,0.25094701861962676,,,,,,,,,,,,,,,,,,12,001,21,w,Psychologie,2023-01-10_10h31.59.632,00_bat_bachelor,2022.2.4,59.99522945592579,
,,,,,,,,,,,,0,0,0,0,162,0,162,0,,,,,,,162,,,1,488.3101889071986,Y,l,go,l,1,0.2909310576505959,,,,,,,,,,,,,,,,,,12,001,21,w,Psychologie,2023-01-10_10h31.59.632,00_bat_bachelor,2022.2.4,59.99522945592579,
,,,,,,,,,,,,0,0,0,0,163,0,163,0,,,,,,,163,,,1,489.71120650786906,X,d,go,d,1,0.3448418974876404,,,,,,,,,,,,,,,,,,12,001,21,w,Psychologie,2023-01-10_10h31.59.632,00_bat_bachelor,2022.2.4,59.99522945592579,
,,,,,,,,,,,,0,0,0,0,164,0,164,0,,,,,,,164,,,1,491.1624830667861,Y,l,go,l,1,0.2537950216792524,,,,,,,,,,,,,,,,,,12,001,21,w,Psychologie,2023-01-10_10h31.59.632,00_bat_bachelor,2022.2.4,59.99522945592579,
,,,,,,,,,,,,0,0,0,0,165,0,165,0,,,,,,,165,,,1,492.53025845391676,Y,None,nogo,l,0,0.407437352463603,,,,,,,,,,,,,,,,,,12,001,21,w,Psychologie,2023-01-10_10h31.59.632,00_bat_bachelor,2022.2.4,59.99522945592579,
,,,,,,,,,,,,0,0,0,0,166,0,166,0,,,,,,,166,,,1,494.0481091379188,X,d,go,d,1,0.3135017459280789,,,,,,,,,,,,,,,,,,12,001,21,w,Psychologie,2023-01-10_10h31.59.632,00_bat_bachelor,2022.2.4,59.99522945592579,
,,,,,,,,,,,,0,0,0,0,167,0,167,0,,,,,,,167,,,1,495.4658399671316,Y,l,go,l,1,0.30318464525043964,,,,,,,,,,,,,,,,,,12,001,21,w,Psychologie,2023-01-10_10h31.59.632,00_bat_bachelor,2022.2.4,59.99522945592579,
,,,,,,,,,,,,0,0,0,0,168,0,168,0,,,,,,,168,,,1,496.8835897054523,Y,None,nogo,None,1,,497.68413351196796,,,,,,,,,,,,,,,,,12,001,21,w,Psychologie,2023-01-10_10h31.59.632,00_bat_bachelor,2022.2.4,59.99522945592579,
,,,,,,,,,,,,0,0,0,0,169,0,169,0,,,,,,,169,,,1,498.6849155733362,X,d,go,d,1,0.3162745973095298,,,,,,,,,,,,,,,,,,12,001,21,w,Psychologie,2023-01-10_10h31.59.632,00_bat_bachelor,2022.2.4,59.99522945592579,
,,,,,,,,,,,,0,0,0,0,170,0,170,0,,,,,,,170,,,1,500.1026580389589,Y,l,go,l,1,0.27572134602814913,,,,,,,,,,,,,,,,,,12,001,21,w,Psychologie,2023-01-10_10h31.59.632,00_bat_bachelor,2022.2.4,59.99522945592579,
,,,,,,,,,,,,0,0,0,0,171,0,171,0,,,,,,,171,,,1,501.4871582905762,Y,None,nogo,None,1,,502.287622097414,,,,,,,,,,,,,,,,,12,001,21,w,Psychologie,2023-01-10_10h31.59.632,00_bat_bachelor,2022.2.4,59.99522945592579,
,,,,,,,,,,,,0,0,0,0,172,0,172,0,,,,,,,172,,,1,503.2883823402226,X,d,go,d,1,0.30473034363240004,,,,,,,,,,,,,,,,,,12,001,21,w,Psychologie,2023-01-10_10h31.59.632,00_bat_bachelor,2022.2.4,59.99522945592579,
,,,,,,,,,,,,0,0,0,0,173,0,173,0,,,,,,,173,,,1,504.7062048059888,Y,l,go,l,1,0.2955768802203238,,,,,,,,,,,,,,,,,,12,001,21,w,Psychologie,2023-01-10_10h31.59.632,00_bat_bachelor,2022.2.4,59.99522945592579,
,,,,,,,,,,,,0,0,0,0,174,0,174,0,,,,,,,174,,,1,506.1072864071466,Y,None,nogo,None,1,,,,,,,,,,,,,,,,,,,12,001,21,w,Psychologie,2023-01-10_10h31.59.632,00_bat_bachelor,2022.2.4,59.99522945592579,
,,,,,,,,,,,,0,0,0,0,175,0,175,0,,,,,,,175,,,1,507.9086466995068,X,d,go,d,1,0.3085601655766368,,,,,,,,,,,,,,,,,,12,001,21,w,Psychologie,2023-01-10_10h31.59.632,00_bat_bachelor,2022.2.4,59.99522945592579,
,,,,,,,,,,,,0,0,0,0,176,0,176,0,,,,,,,176,,,1,509.326432316564,Y,l,go,l,1,0.29851651936769485,,,,,,,,,,,,,,,,,,12,001,21,w,Psychologie,2023-01-10_10h31.59.632,00_bat_bachelor,2022.2.4,59.99522945592579,
,,,,,,,,,,,,0,0,0,0,177,0,177,0,,,,,,,177,,,1,510.7274654326029,X,d,go,d,1,0.3850169666111469,,,,,,,,,,,,,,,,,,12,001,21,w,Psychologie,2023-01-10_10h31.59.632,00_bat_bachelor,2022.2.4,59.99522945592579,
,,,,,,,,,,,,0,0,0,0,178,0,178,0,,,,,,,178,,,1,512.2283890699036,Y,l,go,l,1,0.29338730219751596,,,,,,,,,,,,,,,,,,12,001,21,w,Psychologie,2023-01-10_10h31.59.632,00_bat_bachelor,2022.2.4,59.99522945592579,
,,,,,,,,,,,,0,0,0,0,179,0,179,0,,,,,,,179,,,1,513.629539034795,X,d,go,d,1,0.3802518714219332,,,,,,,,,,,,,,,,,,12,001,21,w,Psychologie,2023-01-10_10h31.59.632,00_bat_bachelor,2022.2.4,59.99522945592579,
,,,,,,,,,,,,0,0,0,0,180,0,180,0,,,,,,,180,,,1,515.114017565269,Y,l,go,l,1,0.3190779937431216,,,,,,,,,,,,,,,,,,12,001,21,w,Psychologie,2023-01-10_10h31.59.632,00_bat_bachelor,2022.2.4,59.99522945592579,
,,,,,,,,,,,,0,0,0,0,181,0,181,0,,,,,,,181,,,1,516.5485968957655,X,d,go,d,1,0.30820525577291846,,,,,,,,,,,,,,,,,,12,001,21,w,Psychologie,2023-01-10_10h31.59.632,00_bat_bachelor,2022.2.4,59.99522945592579,
,,,,,,,,,,,,0,0,0,0,182,0,182,0,,,,,,,182,,,1,517.9661856642924,X,None,nogo,None,1,,,,,,,,,,,,,,,,,,,12,001,21,w,Psychologie,2023-01-10_10h31.59.632,00_bat_bachelor,2022.2.4,59.99522945592579,
,,,,,,,,,,,,0,0,0,0,183,0,183,0,,,,,,,183,,,1,519.7677045022137,Y,l,go,l,1,0.3845786633901298,,,,,,,,,,,,,,,,,,12,001,21,w,Psychologie,2023-01-10_10h31.59.632,00_bat_bachelor,2022.2.4,59.99522945592579,
,,,,,,,,,,,,0,0,0,0,184,0,184,0,,,,,,,184,,,1,521.2687692302279,X,d,go,d,1,0.26104060420766473,,,,,,,,,,,,,,,,,,12,001,21,w,Psychologie,2023-01-10_10h31.59.632,00_bat_bachelor,2022.2.4,59.99522945592579,
,,,,,,,,,,,,0,0,0,0,185,0,185,0,,,,,,,185,,,1,522.6365261930041,Y,l,go,l,1,0.28495529387146235,,,,,,,,,,,,,,,,,,12,001,21,w,Psychologie,2023-01-10_10h31.59.632,00_bat_bachelor,2022.2.4,59.99522945592579,
,,,,,,,,,,,,0,0,0,0,186,0,186,0,,,,,,,186,,,1,524.0374429454096,Y,None,nogo,None,1,,524.8382403282449,,,,,,,,,,,,,,,,,12,001,21,w,Psychologie,2023-01-10_10h31.59.632,00_bat_bachelor,2022.2.4,59.99522945592579,
,,,,,,,,,,,,0,0,0,0,187,0,187,0,,,,,,,187,,,1,525.8389627533033,X,d,go,d,1,0.2974251243285835,,,,,,,,,,,,,,,,,,12,001,21,w,Psychologie,2023-01-10_10h31.59.632,00_bat_bachelor,2022.2.4,59.99522945592579,
,,,,,,,,,,,,0,0,0,0,188,0,188,0,,,,,,,188,,,1,527.2400690815412,Y,l,go,l,1,0.25708375219255686,,,,,,,,,,,,,,,,,,12,001,21,w,Psychologie,2023-01-10_10h31.59.632,00_bat_bachelor,2022.2.4,59.99522945592579,
,,,,,,,,,,,,0,0,0,0,189,0,189,0,,,,,,,189,,,1,528.607816346921,Y,None,nogo,d,0,0.3610969437286258,,,,,,,,,,,,,,,,,,12,001,21,w,Psychologie,2023-01-10_10h31.59.632,00_bat_bachelor,2022.2.4,59.99522945592579,
,,,,,,,,,,,,0,0,0,0,190,0,190,0,,,,,,,190,,,1,530.0753760733642,X,d,go,None,0,,530.8761947890744,,,,,,,,,,,,,,,,,12,001,21,w,Psychologie,2023-01-10_10h31.59.632,00_bat_bachelor,2022.2.4,59.99522945592579,
,,,,,,,,,,,,0,0,0,0,191,0,191,0,,,,,,,191,,,1,531.8769652140327,Y,l,go,l,1,0.38714012037962675,,,,,,,,,,,,,,,,,,12,001,21,w,Psychologie,2023-01-10_10h31.59.632,00_bat_bachelor,2022.2.4,59.99522945592579,
,,,,,,,,,,,,0,0,0,0,192,0,192,0,,,,,,,192,,,1,533.3780750334263,X,d,go,d,1,0.27915892470628023,,,,,,,,,,,,,,,,,,12,001,21,w,Psychologie,2023-01-10_10h31.59.632,00_bat_bachelor,2022.2.4,59.99522945592579,
,,,,,,,,,,,,0,0,0,0,193,0,193,0,,,,,,,193,,,1,534.7623440120369,Y,l,go,l,1,0.35097281262278557,,,,,,,,,,,,,,,,,,12,001,21,w,Psychologie,2023-01-10_10h31.59.632,00_bat_bachelor,2022.2.4,59.99522945592579,
,,,,,,,,,,,,0,0,0,0,194,0,194,0,,,,,,,194,,,1,536.2302499203943,X,d,go,d,1,0.29043651139363647,,,,,,,,,,,,,,,,,,12,001,21,w,Psychologie,2023-01-10_10h31.59.632,00_bat_bachelor,2022.2.4,59.99522945592579,
,,,,,,,,,,,,0,0,0,0,195,0,195,0,,,,,,,195,,,1,537.6313630365767,X,None,nogo,None,1,,538.4319470855407,,,,,,,,,,,,,,,,,12,001,21,w,Psychologie,2023-01-10_10h31.59.632,00_bat_bachelor,2022.2.4,59.99522945592579,
,,,,,,,,,,,,0,0,0,0,196,0,196,0,,,,,,,196,,,1,539.4326772680506,Y,l,go,l,1,0.3678591321222484,,,,,,,,,,,,,,,,,,12,001,21,w,Psychologie,2023-01-10_10h31.59.632,00_bat_bachelor,2022.2.4,59.99522945592579,
,,,,,,,,,,,,0,0,0,0,197,0,197,0,,,,,,,197,,,1,540.9171528895386,X,d,go,d,1,0.3879556362517178,,,,,,,,,,,,,,,,,,12,001,21,w,Psychologie,2023-01-10_10h31.59.632,00_bat_bachelor,2022.2.4,59.99522945592579,
,,,,,,,,,,,,0,0,0,0,198,0,198,0,,,,,,,198,,,1,542.4183082845993,Y,l,go,l,1,0.29522245563566685,,,,,,,,,,,,,,,,,,12,001,21,w,Psychologie,2023-01-10_10h31.59.632,00_bat_bachelor,2022.2.4,59.99522945592579,
,,,,,,,,,,,,0,0,0,0,199,0,199,0,,,,,,,199,,,1,543.8195426128805,X,d,go,d,1,0.3329626130871475,,,,,,,,,,,,,,,,,,12,001,21,w,Psychologie,2023-01-10_10h31.59.632,00_bat_bachelor,2022.2.4,59.99522945592579,
,,,,,,,,,,,,0,0,0,0,200,0,200,0,,,,,,,200,,,1,545.2538324887864,Y,l,go,l,1,0.3074430734850466,,,,,,,,,,,,,,,,,,12,001,21,w,Psychologie,2023-01-10_10h31.59.632,00_bat_bachelor,2022.2.4,59.99522945592579,
,,,,,,,,,,,,0,0,0,0,201,0,201,0,,,,,,,201,,,1,546.6713751964271,X,d,go,d,1,0.31437156489118934,,,,,,,,,,,,,,,,,,12,001,21,w,Psychologie,2023-01-10_10h31.59.632,00_bat_bachelor,2022.2.4,59.99522945592579,
,,,,,,,,,,,,0,0,0,0,202,0,202,0,,,,,,,202,,,1,548.0890987534076,X,None,nogo,None,1,,,,,,,,,,,,,,,,,,,12,001,21,w,Psychologie,2023-01-10_10h31.59.632,00_bat_bachelor,2022.2.4,59.99522945592579,
,,,,,,,,,,,,0,0,0,0,203,0,203,0,,,,,,,203,,,1,549.8906607427634,Y,l,go,l,1,0.29426197009161115,,,,,,,,,,,,,,,,,,12,001,21,w,Psychologie,2023-01-10_10h31.59.632,00_bat_bachelor,2022.2.4,59.99522945592579,
,,,,,,,,,,,,0,0,0,0,204,0,204,0,,,,,,,204,,,1,551.2917859801091,X,d,go,d,1,0.46239934489130974,,,,,,,,,,,,,,,,,,12,001,21,w,Psychologie,2023-01-10_10h31.59.632,00_bat_bachelor,2022.2.4,59.99522945592579,
,,,,,,,,,,,,0,0,0,0,205,0,205,0,,,,,,,205,,,1,552.859424833674,Y,l,go,l,1,0.4143352983519435,,,,,,,,,,,,,,,,,,12,001,21,w,Psychologie,2023-01-10_10h31.59.632,00_bat_bachelor,2022.2.4,59.99522945592579,
,,,,,,,,,,,,0,0,0,0,206,0,206,0,,,,,,,206,,,1,554.3774704267271,X,d,go,d,1,0.3994761323556304,,,,,,,,,,,,,,,,,,12,001,21,w,Psychologie,2023-01-10_10h31.59.632,00_bat_bachelor,2022.2.4,59.99522945592579,
,,,,,,,,,,,,0,0,0,0,207,0,207,0,,,,,,,207,,,1,555.878762549255,Y,l,go,l,1,0.3548923316411674,,,,,,,,,,,,,,,,,,12,001,21,w,Psychologie,2023-01-10_10h31.59.632,00_bat_bachelor,2022.2.4,59.99522945592579,
,,,,,,,,,,,,0,0,0,0,208,0,208,0,,,,,,,208,,,1,557.3463237299584,X,d,go,d,1,0.31079337978735566,,,,,,,,,,,,,,,,,,12,001,21,w,Psychologie,2023-01-10_10h31.59.632,00_bat_bachelor,2022.2.4,59.99522945592579,
,,,,,,,,,,,,0,0,0,0,209,0,209,0,,,,,,,209,,,1,558.7641534684226,X,None,nogo,None,1,,559.5647559417412,,,,,,,,,,,,,,,,,12,001,21,w,Psychologie,2023-01-10_10h31.59.632,00_bat_bachelor,2022.2.4,59.99522945592579,
,,,,,,,,,,,,0,0,0,0,210,0,210,0,,,,,,,210,,,1,560.5656291549094,Y,l,go,l,1,0.38737575663253665,,,,,,,,,,,,,,,,,,12,001,21,w,Psychologie,2023-01-10_10h31.59.632,00_bat_bachelor,2022.2.4,59.99522945592579,
,,,,,,,,,,,,0,0,0,0,211,0,211,0,,,,,,,211,,,1,562.0666458830237,X,d,go,d,1,0.2786163790151477,,,,,,,,,,,,,,,,,,12,001,21,w,Psychologie,2023-01-10_10h31.59.632,00_bat_bachelor,2022.2.4,59.99522945592579,
,,,,,,,,,,,,0,0,0,0,212,0,212,0,,,,,,,212,,,1,563.4510452859104,Y,l,go,l,1,0.28535480983555317,,,,,,,,,,,,,,,,,,12,001,21,w,Psychologie,2023-01-10_10h31.59.632,00_bat_bachelor,2022.2.4,59.99522945592579,
,,,,,,,,,,,,0,0,0,0,213,0,213,0,,,,,,,213,,,1,564.8519174321555,X,d,go,d,1,0.3404748630709946,,,,,,,,,,,,,,,,,,12,001,21,w,Psychologie,2023-01-10_10h31.59.632,00_bat_bachelor,2022.2.4,59.99522945592579,
,,,,,,,,,,,,0,0,0,0,214,0,214,0,,,,,,,214,,,1,566.3033229610883,X,None,nogo,None,1,,,,,,,,,,,,,,,,,,,12,001,21,w,Psychologie,2023-01-10_10h31.59.632,00_bat_bachelor,2022.2.4,59.99522945592579,
,,,,,,,,,,,,0,0,0,0,215,0,215,0,,,,,,,215,,,1,568.1045945258811,Y,l,go,l,1,0.32056890428066254,,,,,,,,,,,,,,,,,,12,001,21,w,Psychologie,2023-01-10_10h31.59.632,00_bat_bachelor,2022.2.4,59.99522945592579,
,,,,,,,,,,,,0,0,0,0,216,0,216,0,,,,,,,216,,,1,569.5390371289104,X,d,go,d,1,0.45380345778539777,,,,,,,,,,,,,,,,,,12,001,21,w,Psychologie,2023-01-10_10h31.59.632,00_bat_bachelor,2022.2.4,59.99522945592579,
,,,,,,,,,,,,0,0,0,0,217,0,217,0,,,,,,,217,,,1,571.106706042774,Y,l,go,l,1,0.35842300206422806,,,,,,,,,,,,,,,,,,12,001,21,w,Psychologie,2023-01-10_10h31.59.632,00_bat_bachelor,2022.2.4,59.99522945592579,
,,,,,,,,,,,,0,0,0,0,218,0,218,0,,,,,,,218,,,1,572.5746618905105,X,d,go,d,1,0.2986891255713999,,,,,,,,,,,,,,,,,,12,001,21,w,Psychologie,2023-01-10_10h31.59.632,00_bat_bachelor,2022.2.4,59.99522945592579,
,,,,,,,,,,,,0,0,0,0,219,0,219,0,,,,,,,219,,,1,573.9752247035503,Y,l,go,l,1,0.38605890702456236,,,,,,,,,,,,,,,,,,12,001,21,w,Psychologie,2023-01-10_10h31.59.632,00_bat_bachelor,2022.2.4,59.99522945592579,
,,,,,,,,,,,,0,0,0,0,220,0,220,0,,,,,,,220,,,1,575.4767107656226,X,d,go,d,1,0.3246910902671516,,,,,,,,,,,,,,,,,,12,001,21,w,Psychologie,2023-01-10_10h31.59.632,00_bat_bachelor,2022.2.4,59.99522945592579,
,,,,,,,,,,,,0,0,0,0,221,0,221,0,,,,,,,221,,,1,576.9109540954232,X,None,nogo,None,1,,,,,,,,,,,,,,,,,,,12,001,21,w,Psychologie,2023-01-10_10h31.59.632,00_bat_bachelor,2022.2.4,59.99522945592579,
,,,,,,,,,,,,0,0,0,0,222,0,222,0,,,,,,,222,,,1,578.7130523277447,Y,l,go,l,1,0.30258440179750323,,,,,,,,,,,,,,,,,,12,001,21,w,Psychologie,2023-01-10_10h31.59.632,00_bat_bachelor,2022.2.4,59.99522945592579,
,,,,,,,,,,,,0,0,0,0,223,0,223,0,,,,,,,223,,,1,580.1471812338568,X,d,go,d,1,0.27860522735863924,,,,,,,,,,,,,,,,,,12,001,21,w,Psychologie,2023-01-10_10h31.59.632,00_bat_bachelor,2022.2.4,59.99522945592579,
,,,,,,,,,,,,0,0,0,0,224,0,224,0,,,,,,,224,,,1,581.5315980915911,X,None,nogo,None,1,,582.3322427463718,,,,,,,,,,,,,,,,,12,001,21,w,Psychologie,2023-01-10_10h31.59.632,00_bat_bachelor,2022.2.4,59.99522945592579,
,,,,,,,,,,,,0,0,0,0,225,0,225,0,,,,,,,225,,,1,583.3326689288951,Y,l,go,l,1,0.2767501953057945,,,,,,,,,,,,,,,,,,12,001,21,w,Psychologie,2023-01-10_10h31.59.632,00_bat_bachelor,2022.2.4,59.99522945592579,
,,,,,,,,,,,,0,0,0,0,226,0,226,0,,,,,,,226,,,1,584.7172942715697,X,d,go,d,1,0.3162678093649447,,,,,,,,,,,,,,,,,,12,001,21,w,Psychologie,2023-01-10_10h31.59.632,00_bat_bachelor,2022.2.4,59.99522945592579,
,,,,,,,,,,,,0,0,0,0,227,0,227,0,,,,,,,227,,,1,586.1350444946438,Y,l,go,l,1,0.36936458805575967,,,,,,,,,,,,,,,,,,12,001,21,w,Psychologie,2023-01-10_10h31.59.632,00_bat_bachelor,2022.2.4,59.99522945592579,
,,,,,,,,,,,,0,0,0,0,228,0,228,0,,,,,,,228,,,1,587.6194701767527,X,d,go,d,1,0.2296980284154415,,,,,,,,,,,,,,,,,,12,001,21,w,Psychologie,2023-01-10_10h31.59.632,00_bat_bachelor,2022.2.4,59.99522945592579,
,,,,,,,,,,,,0,0,0,0,229,0,229,0,,,,,,,229,,,1,588.9537817733362,Y,l,go,l,1,0.3032496147789061,,,,,,,,,,,,,,,,,,12,001,21,w,Psychologie,2023-01-10_10h31.59.632,00_bat_bachelor,2022.2.4,59.99522945592579,
,,,,,,,,,,,,0,0,0,0,230,0,230,0,,,,,,,230,,,1,590.3714267844334,Y,None,nogo,d,0,0.2785625606775284,,,,,,,,,,,,,,,,,,12,001,21,w,Psychologie,2023-01-10_10h31.59.632,00_bat_bachelor,2022.2.4,59.99522945592579,
,,,,,,,,,,,,0,0,0,0,231,0,231,0,,,,,,,231,,,1,591.7557849753648,X,d,go,d,1,0.36545379646122456,,,,,,,,,,,,,,,,,,12,001,21,w,Psychologie,2023-01-10_10h31.59.632,00_bat_bachelor,2022.2.4,59.99522945592579,
,,,,,,,,,,,,0,0,0,0,232,0,232,0,,,,,,,232,,,1,593.2237927019596,Y,l,go,None,0,,594.0244024479762,,,,,,,,,,,,,,,,,12,001,21,w,Psychologie,2023-01-10_10h31.59.632,00_bat_bachelor,2022.2.4,59.99522945592579,
,,,,,,,,,,,,0,0,0,0,233,0,233,0,,,,,,,233,,,1,595.0251408731565,X,d,go,d,1,0.3289243062026799,,,,,,,,,,,,,,,,,,12,001,21,w,Psychologie,2023-01-10_10h31.59.632,00_bat_bachelor,2022.2.4,59.99522945592579,
,,,,,,,,,,,,0,0,0,0,234,0,234,0,,,,,,,234,,,1,596.459636324551,X,None,nogo,l,0,0.269325218629092,,,,,,,,,,,,,,,,,,12,001,21,w,Psychologie,2023-01-10_10h31.59.632,00_bat_bachelor,2022.2.4,59.99522945592579,
,,,,,,,,,,,,0,0,0,0,235,0,235,0,,,,,,,235,,,1,597.8438034849241,Y,l,go,l,1,0.373654046561569,,,,,,,,,,,,,,,,,,12,001,21,w,Psychologie,2023-01-10_10h31.59.632,00_bat_bachelor,2022.2.4,59.99522945592579,
,,,,,,,,,,,,0,0,0,0,236,0,236,0,,,,,,,236,,,1,599.328229167033,X,d,go,d,1,0.361697671469301,,,,,,,,,,,,,,,,,,12,001,21,w,Psychologie,2023-01-10_10h31.59.632,00_bat_bachelor,2022.2.4,59.99522945592579,
,,,,,,,,,,,,0,0,0,0,237,0,237,0,,,,,,,237,,,1,600.7962213782594,X,None,nogo,None,1,,601.5968253063038,,,,,,,,,,,,,,,,,12,001,21,w,Psychologie,2023-01-10_10h31.59.632,00_bat_bachelor,2022.2.4,59.99522945592579,
,,,,,,,,,,,,0,0,0,0,238,0,238,0,,,,,,,238,,,1,602.5976175493561,Y,l,go,l,1,0.33898880099877715,,,,,,,,,,,,,,,,,,12,001,21,w,Psychologie,2023-01-10_10h31.59.632,00_bat_bachelor,2022.2.4,59.99522945592579,
,,,,,,,,,,,,0,0,0,0,239,0,239,0,,,,,,,239,,,1,604.0485382289626,X,d,go,d,1,0.3610605797730386,,,,,,,,,,,,,,,,,,12,001,21,w,Psychologie,2023-01-10_10h31.59.632,00_bat_bachelor,2022.2.4,59.99522945592579,
,,,,,,,,,,,,0,0,0,0,240,0,240,0,,,,,,,240,,,1,605.5164388041012,Y,l,go,l,1,0.3009703396819532,,,,,,,,,,,,,,,,,,12,001,21,w,Psychologie,2023-01-10_10h31.59.632,00_bat_bachelor,2022.2.4,59.99522945592579,
,,,,,,,,,,,,0,0,0,0,241,0,241,0,,,,,,,241,,,1,606.934248663485,X,d,go,d,1,0.3707818016409874,,,,,,,,,,,,,,,,,,12,001,21,w,Psychologie,2023-01-10_10h31.59.632,00_bat_bachelor,2022.2.4,59.99522945592579,
,,,,,,,,,,,,0,0,0,0,242,0,242,0,,,,,,,242,,,1,608.4186777393334,Y,l,go,l,1,0.37396241072565317,,,,,,,,,,,,,,,,,,12,001,21,w,Psychologie,2023-01-10_10h31.59.632,00_bat_bachelor,2022.2.4,59.99522945592579,
,,,,,,,,,,,,0,0,0,0,243,0,243,0,,,,,,,243,,,1,609.9029676634818,X,d,go,d,1,0.4260424613021314,,,,,,,,,,,,,,,,,,12,001,21,w,Psychologie,2023-01-10_10h31.59.632,00_bat_bachelor,2022.2.4,59.99522945592579,
,,,,,,,,,,,,0,0,0,0,244,0,244,0,,,,,,,244,,,1,611.4376658792607,X,None,nogo,None,1,,612.238255746197,,,,,,,,,,,,,,,,,12,001,21,w,Psychologie,2023-01-10_10h31.59.632,00_bat_bachelor,2022.2.4,59.99522945592579,
,,,,,,,,,,,,0,0,0,0,245,0,245,0,,,,,,,245,,,1,613.2388700498268,Y,l,go,l,1,0.3545592403970659,,,,,,,,,,,,,,,,,,12,001,21,w,Psychologie,2023-01-10_10h31.59.632,00_bat_bachelor,2022.2.4,59.99522945592579,
,,,,,,,,,,,,0,0,0,0,246,0,246,0,,,,,,,246,,,1,614.7069461401552,X,d,go,d,1,0.31060622818768024,,,,,,,,,,,,,,,,,,12,001,21,w,Psychologie,2023-01-10_10h31.59.632,00_bat_bachelor,2022.2.4,59.99522945592579,
,,,,,,,,,,,,0,0,0,0,247,0,247,0,,,,,,,247,,,1,616.1243923632428,Y,l,go,l,1,0.22036953456699848,,,,,,,,,,,,,,,,,,12,001,21,w,Psychologie,2023-01-10_10h31.59.632,00_bat_bachelor,2022.2.4,59.99522945592579,
,,,,,,,,,,,,0,0,0,0,248,0,248,0,,,,,,,248,,,1,617.4589449302293,X,d,go,d,1,0.26191478688269854,,,,,,,,,,,,,,,,,,12,001,21,w,Psychologie,2023-01-10_10h31.59.632,00_bat_bachelor,2022.2.4,59.99522945592579,
,,,,,,,,,,,,0,0,0,0,249,0,249,0,,,,,,,249,,,1,618.826628680341,X,None,nogo,None,1,,619.6417688648216,,,,,,,,,,,,,,,,,12,001,21,w,Psychologie,2023-01-10_10h31.59.632,00_bat_bachelor,2022.2.4,59.99522945592579,
,,,,,,,,,,,,1,0,1,0,0,0,0,0,,,,,,,0,,,0.2,624.9150408874266,X,d,go,None,0,,625.7159977853298,,,,,,,,619.6417688648216,space,5.042944877408445,,,,,,,12,001,21,w,Psychologie,2023-01-10_10h31.59.632,00_bat_bachelor,2022.2.4,59.99522945592579,
,,,,,,,,,,,,1,0,1,0,1,0,1,0,,,,,,,1,,,0.2,625.9157031909563,Y,l,go,l,1,0.42792464466765523,,,,,,,,,,,,,,,,,,12,001,21,w,Psychologie,2023-01-10_10h31.59.632,00_bat_bachelor,2022.2.4,59.99522945592579,
,,,,,,,,,,,,1,0,1,0,2,0,2,0,,,,,,,2,,,0.2,626.682929632254,X,d,go,d,1,0.18886307952925563,,,,,,,,,,,,,,,,,,12,001,21,w,Psychologie,2023-01-10_10h31.59.632,00_bat_bachelor,2022.2.4,59.99522945592579,
,,,,,,,,,,,,1,0,1,0,3,0,3,0,,,,,,,3,,,0.2,627.2169165741652,Y,l,go,l,1,0.37609962467104197,,,,,,,,,,,,,,,,,,12,001,21,w,Psychologie,2023-01-10_10h31.59.632,00_bat_bachelor,2022.2.4,59.99522945592579,
,,,,,,,,,,,,1,0,1,0,4,0,4,0,,,,,,,4,,,0.2,627.9172168895602,Y,None,nogo,None,1,,628.7178450599313,,,,,,,,,,,,,,,,,12,001,21,w,Psychologie,2023-01-10_10h31.59.632,00_bat_bachelor,2022.2.4,59.99522945592579,
,,,,,,,,,,,,1,0,1,0,5,0,5,0,,,,,,,5,,,0.2,628.9182234359905,X,d,go,d,1,0.40309213614091277,,,,,,,,,,,,,,,,,,12,001,21,w,Psychologie,2023-01-10_10h31.59.632,00_bat_bachelor,2022.2.4,59.99522945592579,
,,,,,,,,,,,,1,0,1,0,6,0,6,0,,,,,,,6,,,0.2,629.6521257231943,Y,l,go,l,1,0.35588384745642543,,,,,,,,,,,,,,,,,,12,001,21,w,Psychologie,2023-01-10_10h31.59.632,00_bat_bachelor,2022.2.4,59.99522945592579,
,,,,,,,,,,,,1,0,1,0,7,0,7,0,,,,,,,7,,,0.2,630.3525390084833,X,d,go,l,0,0.35970154823735356,,,,,,,,,,,,,,,,,,12,001,21,w,Psychologie,2023-01-10_10h31.59.632,00_bat_bachelor,2022.2.4,59.99522945592579,
,,,,,,,,,,,,1,0,1,0,8,0,8,0,,,,,,,8,,,0.2,631.0530090210959,X,None,nogo,None,1,,631.8538801008835,,,,,,,,,,,,,,,,,12,001,21,w,Psychologie,2023-01-10_10h31.59.632,00_bat_bachelor,2022.2.4,59.99522945592579,
,,,,,,,,,,,,1,0,1,0,9,0,9,0,,,,,,,9,,,0.2,632.0536655066535,Y,l,go,l,1,0.27426728373393416,,,,,,,,,,,,,,,,,,12,001,21,w,Psychologie,2023-01-10_10h31.59.632,00_bat_bachelor,2022.2.4,59.99522945592579,
,,,,,,,,,,,,1,0,1,0,10,0,10,0,,,,,,,10,,,0.2,632.6710983477533,X,d,go,d,1,0.3782281116582453,,,,,,,,,,,,,,,,,,12,001,21,w,Psychologie,2023-01-10_10h31.59.632,00_bat_bachelor,2022.2.4,59.99522945592579,
,,,,,,,,,,,,1,0,1,0,11,0,11,0,,,,,,,11,,,0.2,633.3715572087094,X,None,nogo,l,0,0.23662458080798388,,,,,,,,,,,,,,,,,,12,001,21,w,Psychologie,2023-01-10_10h31.59.632,00_bat_bachelor,2022.2.4,59.99522945592579,
,,,,,,,,,,,,1,0,1,0,12,0,12,0,,,,,,,12,,,0.2,633.9551839567721,Y,l,go,None,0,,634.7561393999495,,,,,,,,,,,,,,,,,12,001,21,w,Psychologie,2023-01-10_10h31.59.632,00_bat_bachelor,2022.2.4,59.99522945592579,
,,,,,,,,,,,,1,0,1,0,13,0,13,0,,,,,,,13,,,0.2,634.9559800787829,X,d,go,d,1,0.2199113522656262,,,,,,,,,,,,,,,,,,12,001,21,w,Psychologie,2023-01-10_10h31.59.632,00_bat_bachelor,2022.2.4,59.99522945592579,
,,,,,,,,,,,,1,0,1,0,14,0,14,0,,,,,,,14,,,0.2,635.5230531133711,X,None,nogo,None,1,,636.3238713443279,,,,,,,,,,,,,,,,,12,001,21,w,Psychologie,2023-01-10_10h31.59.632,00_bat_bachelor,2022.2.4,59.99522945592579,
,,,,,,,,,,,,1,0,1,0,15,0,15,0,,,,,,,15,,,0.2,636.5240237810649,Y,l,go,l,1,0.3490794776007533,,,,,,,,,,,,,,,,,,12,001,21,w,Psychologie,2023-01-10_10h31.59.632,00_bat_bachelor,2022.2.4,59.99522945592579,
,,,,,,,,,,,,1,0,1,0,16,0,16,0,,,,,,,16,,,0.2,637.1909708520398,X,d,go,d,1,0.4011614671908319,,,,,,,,,,,,,,,,,,12,001,21,w,Psychologie,2023-01-10_10h31.59.632,00_bat_bachelor,2022.2.4,59.99522945592579,
,,,,,,,,,,,,1,0,1,0,17,0,17,0,,,,,,,17,,,0.2,637.9251456246711,Y,l,go,l,1,0.41876536328345537,,,,,,,,,,,,,,,,,,12,001,21,w,Psychologie,2023-01-10_10h31.59.632,00_bat_bachelor,2022.2.4,59.99522945592579,
,,,,,,,,,,,,1,0,1,0,18,0,18,0,,,,,,,18,,,0.2,638.6754867159761,X,d,go,d,1,0.3573180311359465,,,,,,,,,,,,,,,,,,12,001,21,w,Psychologie,2023-01-10_10h31.59.632,00_bat_bachelor,2022.2.4,59.99522945592579,
,,,,,,,,,,,,1,0,1,0,19,0,19,0,,,,,,,19,,,0.2,639.3762442437001,X,None,nogo,None,1,,640.1768714445643,,,,,,,,,,,,,,,,,12,001,21,w,Psychologie,2023-01-10_10h31.59.632,00_bat_bachelor,2022.2.4,59.99522945592579,
,,,,,,,,,,,,1,0,1,0,20,0,20,0,,,,,,,20,,,0.2,640.3767722444609,Y,l,go,l,1,0.25623235711827874,,,,,,,,,,,,,,,,,,12,001,21,w,Psychologie,2023-01-10_10h31.59.632,00_bat_bachelor,2022.2.4,59.99522945592579,
,,,,,,,,,,,,1,0,1,0,21,0,21,0,,,,,,,21,,,0.2,640.9605352347717,X,d,go,d,1,0.3115676837041974,,,,,,,,,,,,,,,,,,12,001,21,w,Psychologie,2023-01-10_10h31.59.632,00_bat_bachelor,2022.2.4,59.99522945592579,
,,,,,,,,,,,,1,0,1,0,22,0,22,0,,,,,,,22,,,0.2,641.6111041079275,Y,l,go,l,1,0.3980506765656173,,,,,,,,,,,,,,,,,,12,001,21,w,Psychologie,2023-01-10_10h31.59.632,00_bat_bachelor,2022.2.4,59.99522945592579,
,,,,,,,,,,,,1,0,1,0,23,0,23,0,,,,,,,23,,,0.2,642.3286839551292,X,d,go,d,1,0.4489409076049924,,,,,,,,,,,,,,,,,,12,001,21,w,Psychologie,2023-01-10_10h31.59.632,00_bat_bachelor,2022.2.4,59.99522945592579,
,,,,,,,,,,,,1,0,1,0,24,0,24,0,,,,,,,24,,,0.2,643.0956786382012,X,None,nogo,None,1,,643.8962718993425,,,,,,,,,,,,,,,,,12,001,21,w,Psychologie,2023-01-10_10h31.59.632,00_bat_bachelor,2022.2.4,59.99522945592579,
,,,,,,,,,,,,1,0,1,0,25,0,25,0,,,,,,,25,,,0.2,644.0964577905834,Y,l,go,d,0,0.29605494113638997,,,,,,,,,,,,,,,,,,12,001,21,w,Psychologie,2023-01-10_10h31.59.632,00_bat_bachelor,2022.2.4,59.99522945592579,
,,,,,,,,,,,,1,0,1,0,26,0,26,0,,,,,,,26,,,0.2,644.7134450557642,X,d,go,None,0,,645.5140601349995,,,,,,,,,,,,,,,,,12,001,21,w,Psychologie,2023-01-10_10h31.59.632,00_bat_bachelor,2022.2.4,59.99522945592579,
,,,,,,,,,,,,1,0,1,0,27,0,27,0,,,,,,,27,,,0.2,645.7141732987948,X,None,nogo,d,0,0.27753952937200665,,,,,,,,,,,,,,,,,,12,001,21,w,Psychologie,2023-01-10_10h31.59.632,00_bat_bachelor,2022.2.4,59.99522945592579,
,,,,,,,,,,,,1,0,1,0,28,0,28,0,,,,,,,28,,,0.2,646.314851699397,Y,l,go,None,0,,647.1154861729592,,,,,,,,,,,,,,,,,12,001,21,w,Psychologie,2023-01-10_10h31.59.632,00_bat_bachelor,2022.2.4,59.99522945592579,
,,,,,,,,,,,,1,0,1,0,29,0,29,0,,,,,,,29,,,0.2,647.3156415182166,X,d,go,d,1,0.19766017887741327,,,,,,,,,,,,,,,,,,12,001,21,w,Psychologie,2023-01-10_10h31.59.632,00_bat_bachelor,2022.2.4,59.99522945592579,
,,,,,,,,,,,,1,0,1,0,30,0,30,0,,,,,,,30,,,0.2,647.849142157007,Y,l,go,l,1,0.2864893563091755,,,,,,,,,,,,,,,,,,12,001,21,w,Psychologie,2023-01-10_10h31.59.632,00_bat_bachelor,2022.2.4,59.99522945592579,
,,,,,,,,,,,,1,0,1,0,31,0,31,0,,,,,,,31,,,0.2,648.4831956201233,X,d,go,d,1,0.19800054328516126,,,,,,,,,,,,,,,,,,12,001,21,w,Psychologie,2023-01-10_10h31.59.632,00_bat_bachelor,2022.2.4,59.99522945592579,
,,,,,,,,,,,,1,0,1,0,32,0,32,0,,,,,,,32,,,0.2,649.0000853333622,X,None,nogo,None,1,,649.8005850189365,,,,,,,,,,,,,,,,,12,001,21,w,Psychologie,2023-01-10_10h31.59.632,00_bat_bachelor,2022.2.4,59.99522945592579,
,,,,,,,,,,,,1,0,1,0,33,0,33,0,,,,,,,33,,,0.2,650.0007699402049,Y,l,go,l,1,0.3275371533818543,,,,,,,,,,,,,,,,,,12,001,21,w,Psychologie,2023-01-10_10h31.59.632,00_bat_bachelor,2022.2.4,59.99522945592579,
,,,,,,,,,,,,1,0,1,0,34,0,34,0,,,,,,,34,,,0.2,650.6345703122206,X,d,go,d,1,0.18990114144980907,,,,,,,,,,,,,,,,,,12,001,21,w,Psychologie,2023-01-10_10h31.59.632,00_bat_bachelor,2022.2.4,59.99522945592579,
,,,,,,,,,,,,1,0,1,0,35,0,35,0,,,,,,,35,,,0.2,651.1518915412016,Y,l,go,l,1,0.31299410900101066,,,,,,,,,,,,,,,,,,12,001,21,w,Psychologie,2023-01-10_10h31.59.632,00_bat_bachelor,2022.2.4,59.99522945592579,
,,,,,,,,,,,,1,0,1,0,36,0,36,0,,,,,,,36,,,0.2,651.8021486569196,X,d,go,d,1,0.4135745703242719,,,,,,,,,,,,,,,,,,12,001,21,w,Psychologie,2023-01-10_10h31.59.632,00_bat_bachelor,2022.2.4,59.99522945592579,
,,,,,,,,,,,,1,0,1,0,37,0,37,0,,,,,,,37,,,0.2,652.5527045358904,X,None,nogo,None,1,,653.3533011912368,,,,,,,,,,,,,,,,,12,001,21,w,Psychologie,2023-01-10_10h31.59.632,00_bat_bachelor,2022.2.4,59.99522945592579,
,,,,,,,,,,,,1,0,1,0,38,0,38,0,,,,,,,38,,,0.2,653.5536199309863,X,None,nogo,d,0,0.32694757729768753,,,,,,,,,,,,,,,,,,12,001,21,w,Psychologie,2023-01-10_10h31.59.632,00_bat_bachelor,2022.2.4,59.99522945592579,
,,,,,,,,,,,,1,0,1,0,39,0,39,0,,,,,,,39,,,0.2,654.2041980163194,Y,l,go,None,0,,655.0048528532498,,,,,,,,,,,,,,,,,12,001,21,w,Psychologie,2023-01-10_10h31.59.632,00_bat_bachelor,2022.2.4,59.99522945592579,
,,,,,,,,,,,,1,0,1,0,40,0,40,0,,,,,,,40,,,0.2,655.2047405624762,X,d,go,d,1,0.2919385735876858,,,,,,,,,,,,,,,,,,12,001,21,w,Psychologie,2023-01-10_10h31.59.632,00_bat_bachelor,2022.2.4,59.99522945592579,
,,,,,,,,,,,,1,0,1,0,41,0,41,0,,,,,,,41,,,0.2,655.8221074640751,Y,l,go,l,1,0.3947595218196511,,,,,,,,,,,,,,,,,,12,001,21,w,Psychologie,2023-01-10_10h31.59.632,00_bat_bachelor,2022.2.4,59.99522945592579,
,,,,,,,,,,,,1,0,1,0,42,0,42,0,,,,,,,42,,,0.2,656.5390890077688,Y,None,nogo,d,0,0.2685169749893248,,,,,,,,,,,,,,,,,,12,001,21,w,Psychologie,2023-01-10_10h31.59.632,00_bat_bachelor,2022.2.4,59.99522945592579,
,,,,,,,,,,,,1,0,1,0,43,0,43,0,,,,,,,43,,,0.2,657.139821711462,X,d,go,None,0,,657.9406118211336,,,,,,,,,,,,,,,,,12,001,21,w,Psychologie,2023-01-10_10h31.59.632,00_bat_bachelor,2022.2.4,59.99522945592579,
,,,,,,,,,,,,1,0,1,0,44,0,44,0,,,,,,,44,,,0.2,658.1405480150133,Y,l,go,None,0,,658.941247458104,,,,,,,,,,,,,,,,,12,001,21,w,Psychologie,2023-01-10_10h31.59.632,00_bat_bachelor,2022.2.4,59.99522945592579,
,,,,,,,,,,,,1,0,1,0,45,0,45,0,,,,,,,45,,,0.2,659.1410798947327,X,d,go,d,1,0.2588626630604267,,,,,,,,,,,,,,,,,,12,001,21,w,Psychologie,2023-01-10_10h31.59.632,00_bat_bachelor,2022.2.4,59.99522945592579,
,,,,,,,,,,,,1,0,1,0,46,0,46,0,,,,,,,46,,,0.2,659.7415953860618,Y,l,go,l,1,0.36368603678420186,,,,,,,,,,,,,,,,,,12,001,21,w,Psychologie,2023-01-10_10h31.59.632,00_bat_bachelor,2022.2.4,59.99522945592579,
,,,,,,,,,,,,1,0,1,0,47,0,47,0,,,,,,,47,,,0.2,660.4424285502173,X,d,go,d,1,0.3825825401581824,,,,,,,,,,,,,,,,,,12,001,21,w,Psychologie,2023-01-10_10h31.59.632,00_bat_bachelor,2022.2.4,59.99522945592579,
,,,,,,,,,,,,1,0,1,0,48,0,48,0,,,,,,,48,,,0.2,661.1428529871628,Y,l,go,l,1,0.30669592088088393,,,,,,,,,,,,,,,,,,12,001,21,w,Psychologie,2023-01-10_10h31.59.632,00_bat_bachelor,2022.2.4,59.99522945592579,
,,,,,,,,,,,,1,0,1,0,49,0,49,0,,,,,,,49,,,0.2,661.7764157834463,Y,None,nogo,None,1,,662.5770793478005,,,,,,,,,,,,,,,,,12,001,21,w,Psychologie,2023-01-10_10h31.59.632,00_bat_bachelor,2022.2.4,59.99522945592579,
,,,,,,,,,,,,1,0,1,0,50,0,50,0,,,,,,,50,,,0.2,662.7774523901753,X,d,go,d,1,0.3510886915028095,,,,,,,,,,,,,,,,,,12,001,21,w,Psychologie,2023-01-10_10h31.59.632,00_bat_bachelor,2022.2.4,59.99522945592579,
,,,,,,,,,,,,1,0,1,0,51,0,51,0,,,,,,,51,,,0.2,663.4444237039424,Y,l,go,l,1,0.5004018060863018,,,,,,,,,,,,,,,,,,12,001,21,w,Psychologie,2023-01-10_10h31.59.632,00_bat_bachelor,2022.2.4,59.99522945592579,
,,,,,,,,,,,,1,0,1,0,52,0,52,0,,,,,,,52,,,0.2,664.2783076637425,X,d,go,d,1,0.37067465018481016,,,,,,,,,,,,,,,,,,12,001,21,w,Psychologie,2023-01-10_10h31.59.632,00_bat_bachelor,2022.2.4,59.99522945592579,
,,,,,,,,,,,,1,0,1,0,53,0,53,0,,,,,,,53,,,0.2,664.979119495023,X,None,nogo,None,1,,665.7794785741717,,,,,,,,,,,,,,,,,12,001,21,w,Psychologie,2023-01-10_10h31.59.632,00_bat_bachelor,2022.2.4,59.99522945592579,
,,,,,,,,,,,,1,0,1,0,54,0,54,0,,,,,,,54,,,0.2,665.9796276167035,Y,l,go,l,1,0.3973481305874884,,,,,,,,,,,,,,,,,,12,001,21,w,Psychologie,2023-01-10_10h31.59.632,00_bat_bachelor,2022.2.4,59.99522945592579,
,,,,,,,,,,,,1,0,1,0,55,0,55,0,,,,,,,55,,,0.2,666.7135779042728,X,d,go,d,1,0.19090283941477537,,,,,,,,,,,,,,,,,,12,001,21,w,Psychologie,2023-01-10_10h31.59.632,00_bat_bachelor,2022.2.4,59.99522945592579,
,,,,,,,,,,,,1,0,1,0,56,0,56,0,,,,,,,56,,,0.2,667.2475197552703,X,None,nogo,None,1,,668.0479326527566,,,,,,,,,,,,,,,,,12,001,21,w,Psychologie,2023-01-10_10h31.59.632,00_bat_bachelor,2022.2.4,59.99522945592579,
,,,,,,,,,,,,1,0,1,0,57,0,57,0,,,,,,,57,,,0.2,668.2482528467663,Y,l,go,l,1,0.40021795127540827,,,,,,,,,,,,,,,,,,12,001,21,w,Psychologie,2023-01-10_10h31.59.632,00_bat_bachelor,2022.2.4,59.99522945592579,
,,,,,,,,,,,,1,0,1,0,58,0,58,0,,,,,,,58,,,0.2,668.9821163462475,X,d,go,d,1,0.21049170661717653,,,,,,,,,,,,,,,,,,12,001,21,w,Psychologie,2023-01-10_10h31.59.632,00_bat_bachelor,2022.2.4,59.99522945592579,
,,,,,,,,,,,,1,0,1,0,59,0,59,0,,,,,,,59,,,0.2,669.5159161365591,Y,l,go,l,1,0.2854420826770365,,,,,,,,,,,,,,,,,,12,001,21,w,Psychologie,2023-01-10_10h31.59.632,00_bat_bachelor,2022.2.4,59.99522945592579,
,,,,,,,,,,,,1,0,1,0,60,0,60,0,,,,,,,60,,,0.2,670.1161053250544,X,d,go,d,1,0.4050955316051841,,,,,,,,,,,,,,,,,,12,001,21,w,Psychologie,2023-01-10_10h31.59.632,00_bat_bachelor,2022.2.4,59.99522945592579,
,,,,,,,,,,,,1,0,1,0,61,0,61,0,,,,,,,61,,,0.2,670.8335891719908,Y,l,go,l,1,0.3916729730553925,,,,,,,,,,,,,,,,,,12,001,21,w,Psychologie,2023-01-10_10h31.59.632,00_bat_bachelor,2022.2.4,59.99522945592579,
,,,,,,,,,,,,1,0,1,0,62,0,62,0,,,,,,,62,,,0.2,671.5340252453461,Y,None,nogo,None,1,,672.3345646881498,,,,,,,,,,,,,,,,,12,001,21,w,Psychologie,2023-01-10_10h31.59.632,00_bat_bachelor,2022.2.4,59.99522945592579,
,,,,,,,,,,,,1,0,1,0,63,0,63,0,,,,,,,63,,,0.2,672.5348208826035,X,d,go,d,1,0.3540845732204616,,,,,,,,,,,,,,,,,,12,001,21,w,Psychologie,2023-01-10_10h31.59.632,00_bat_bachelor,2022.2.4,59.99522945592579,
,,,,,,,,,,,,1,0,1,0,64,0,64,0,,,,,,,64,,,0.2,673.2187400911935,Y,l,go,l,1,0.21458140760660172,,,,,,,,,,,,,,,,,,12,001,21,w,Psychologie,2023-01-10_10h31.59.632,00_bat_bachelor,2022.2.4,59.99522945592579,
,,,,,,,,,,,,1,0,1,0,65,0,65,0,,,,,,,65,,,0.2,673.7524816994555,X,d,go,d,1,0.3686668905429542,,,,,,,,,,,,,,,,,,12,001,21,w,Psychologie,2023-01-10_10h31.59.632,00_bat_bachelor,2022.2.4,59.99522945592579,
,,,,,,,,,,,,1,0,1,0,66,0,66,0,,,,,,,66,,,0.2,674.4527849238366,Y,l,go,l,1,0.27525976952165365,,,,,,,,,,,,,,,,,,12,001,21,w,Psychologie,2023-01-10_10h31.59.632,00_bat_bachelor,2022.2.4,59.99522945592579,
,,,,,,,,,,,,1,0,1,0,67,0,67,0,,,,,,,67,,,0.2,675.0699026132934,X,d,go,d,1,0.3628933089785278,,,,,,,,,,,,,,,,,,12,001,21,w,Psychologie,2023-01-10_10h31.59.632,00_bat_bachelor,2022.2.4,59.99522945592579,
,,,,,,,,,,,,1,0,1,0,68,0,68,0,,,,,,,68,,,0.2,675.770648505073,X,None,nogo,None,1,,676.5712694027461,,,,,,,,,,,,,,,,,12,001,21,w,Psychologie,2023-01-10_10h31.59.632,00_bat_bachelor,2022.2.4,59.99522945592579,
,,,,,,,,,,,,1,0,1,0,69,0,69,0,,,,,,,69,,,0.2,676.7714198995382,Y,l,go,l,1,0.37334325863048434,,,,,,,,,,,,,,,,,,12,001,21,w,Psychologie,2023-01-10_10h31.59.632,00_bat_bachelor,2022.2.4,59.99522945592579,
,,,,,,,,,,,,1,0,1,0,70,0,70,0,,,,,,,70,,,0.2,677.471967972815,X,d,go,d,1,0.15208098338916898,,,,,,,,,,,,,,,,,,12,001,21,w,Psychologie,2023-01-10_10h31.59.632,00_bat_bachelor,2022.2.4,59.99522945592579,
,,,,,,,,,,,,1,0,1,0,71,0,71,0,,,,,,,71,,,0.2,677.9554283204488,X,None,nogo,l,0,0.24440786056220531,,,,,,,,,,,,,,,,,,12,001,21,w,Psychologie,2023-01-10_10h31.59.632,00_bat_bachelor,2022.2.4,59.99522945592579,
,,,,,,,,,,,,1,0,1,0,72,0,72,0,,,,,,,72,,,0.2,678.5394220990129,Y,l,go,None,0,,679.3398844511248,,,,,,,,,,,,,,,,,12,001,21,w,Psychologie,2023-01-10_10h31.59.632,00_bat_bachelor,2022.2.4,59.99522945592579,
,,,,,,,,,,,,1,0,1,0,73,0,73,0,,,,,,,73,,,0.2,679.5399845237844,X,d,go,d,1,0.38874594029039145,,,,,,,,,,,,,,,,,,12,001,21,w,Psychologie,2023-01-10_10h31.59.632,00_bat_bachelor,2022.2.4,59.99522945592579,
,,,,,,,,,,,,1,0,1,0,74,0,74,0,,,,,,,74,,,0.2,680.2407561126165,Y,l,go,l,1,0.28053153213113546,,,,,,,,,,,,,,,,,,12,001,21,w,Psychologie,2023-01-10_10h31.59.632,00_bat_bachelor,2022.2.4,59.99522945592579,
,,,,,,,,,,,,1,0,1,0,75,0,75,0,,,,,,,75,,,0.2,680.8576531955041,X,d,go,d,1,0.3983251010067761,,,,,,,,,,,,,,,,,,12,001,21,w,Psychologie,2023-01-10_10h31.59.632,00_bat_bachelor,2022.2.4,59.99522945592579,
,,,,,,,,,,,,1,0,1,0,76,0,76,0,,,,,,,76,,,0.2,681.5915685738437,Y,l,go,l,1,0.3854533308185637,,,,,,,,,,,,,,,,,,12,001,21,w,Psychologie,2023-01-10_10h31.59.632,00_bat_bachelor,2022.2.4,59.99522945592579,
,,,,,,,,,,,,1,0,1,0,77,0,77,0,,,,,,,77,,,0.2,682.2921549500898,X,d,go,d,1,0.27568643633276224,,,,,,,,,,,,,,,,,,12,001,21,w,Psychologie,2023-01-10_10h31.59.632,00_bat_bachelor,2022.2.4,59.99522945592579,
,,,,,,,,,,,,1,0,1,0,78,0,78,0,,,,,,,78,,,0.2,682.9094762760215,Y,l,go,l,1,0.3469621422700584,,,,,,,,,,,,,,,,,,12,001,21,w,Psychologie,2023-01-10_10h31.59.632,00_bat_bachelor,2022.2.4,59.99522945592579,
,,,,,,,,,,,,1,0,1,0,79,0,79,0,,,,,,,79,,,0.2,683.5932606966235,X,d,go,d,1,0.35153572214767337,,,,,,,,,,,,,,,,,,12,001,21,w,Psychologie,2023-01-10_10h31.59.632,00_bat_bachelor,2022.2.4,59.99522945592579,
,,,,,,,,,,,,1,0,1,0,80,0,80,0,,,,,,,80,,,0.2,684.2769292383455,Y,l,go,l,1,0.3716685902327299,,,,,,,,,,,,,,,,,,12,001,21,w,Psychologie,2023-01-10_10h31.59.632,00_bat_bachelor,2022.2.4,59.99522945592579,
,,,,,,,,,,,,1,0,1,0,81,0,81,0,,,,,,,81,,,0.2,684.9943573279306,X,d,go,d,1,0.3418688038364053,,,,,,,,,,,,,,,,,,12,001,21,w,Psychologie,2023-01-10_10h31.59.632,00_bat_bachelor,2022.2.4,59.99522945592579,
,,,,,,,,,,,,1,0,1,0,82,0,82,0,,,,,,,82,,,0.2,685.6613519140519,Y,l,go,l,1,0.5724440575577319,,,,,,,,,,,,,,,,,,12,001,21,w,Psychologie,2023-01-10_10h31.59.632,00_bat_bachelor,2022.2.4,59.99522945592579,
,,,,,,,,,,,,1,0,1,0,83,0,83,0,,,,,,,83,,,0.2,686.5451670740731,X,d,go,d,1,0.4230989431962371,,,,,,,,,,,,,,,,,,12,001,21,w,Psychologie,2023-01-10_10h31.59.632,00_bat_bachelor,2022.2.4,59.99522945592579,
,,,,,,,,,,,,1,0,1,0,84,0,84,0,,,,,,,84,,,0.2,687.2957709534094,X,None,nogo,None,1,,688.096391366329,,,,,,,,,,,,,,,,,12,001,21,w,Psychologie,2023-01-10_10h31.59.632,00_bat_bachelor,2022.2.4,59.99522945592579,
,,,,,,,,,,,,1,0,1,0,85,0,85,0,,,,,,,85,,,0.2,688.2964531360194,Y,l,go,l,1,0.4331314377486706,,,,,,,,,,,,,,,,,,12,001,21,w,Psychologie,2023-01-10_10h31.59.632,00_bat_bachelor,2022.2.4,59.99522945592579,
,,,,,,,,,,,,1,0,1,0,86,0,86,0,,,,,,,86,,,0.2,689.0304237874225,X,d,go,d,1,0.30625616293400526,,,,,,,,,,,,,,,,,,12,001,21,w,Psychologie,2023-01-10_10h31.59.632,00_bat_bachelor,2022.2.4,59.99522945592579,
,,,,,,,,,,,,1,0,1,0,87,0,87,0,,,,,,,87,,,0.2,689.6469645062461,X,None,nogo,None,1,,,,,,,,,,,,,,,,,,,12,001,21,w,Psychologie,2023-01-10_10h31.59.632,00_bat_bachelor,2022.2.4,59.99522945592579,
,,,,,,,,,,,,1,0,1,0,88,0,88,0,,,,,,,88,,,0.2,690.6477965069935,Y,l,go,l,1,0.32130878418684006,,,,,,,,,,,,,,,,,,12,001,21,w,Psychologie,2023-01-10_10h31.59.632,00_bat_bachelor,2022.2.4,59.99522945592579,
,,,,,,,,,,,,1,0,1,0,89,0,89,0,,,,,,,89,,,0.2,691.2815430611372,X,d,go,d,1,0.23208784917369485,,,,,,,,,,,,,,,,,,12,001,21,w,Psychologie,2023-01-10_10h31.59.632,00_bat_bachelor,2022.2.4,59.99522945592579,
,,,,,,,,,,,,1,0,1,0,90,0,90,0,,,,,,,90,,,0.2,691.8152293968014,Y,l,go,l,1,0.38506060326471925,,,,,,,,,,,,,,,,,,12,001,21,w,Psychologie,2023-01-10_10h31.59.632,00_bat_bachelor,2022.2.4,59.99522945592579,
,,,,,,,,,,,,1,0,1,0,91,0,91,0,,,,,,,91,,,0.2,692.5158371063881,X,d,go,d,1,0.22954675555229187,,,,,,,,,,,,,,,,,,12,001,21,w,Psychologie,2023-01-10_10h31.59.632,00_bat_bachelor,2022.2.4,59.99522945592579,
,,,,,,,,,,,,1,0,1,0,92,0,92,0,,,,,,,92,,,0.2,693.0497910785489,Y,l,go,l,1,0.3189456299878657,,,,,,,,,,,,,,,,,,12,001,21,w,Psychologie,2023-01-10_10h31.59.632,00_bat_bachelor,2022.2.4,59.99522945592579,
,,,,,,,,,,,,1,0,1,0,93,0,93,0,,,,,,,93,,,0.2,693.6835439358838,X,d,go,d,1,0.3421645616181195,,,,,,,,,,,,,,,,,,12,001,21,w,Psychologie,2023-01-10_10h31.59.632,00_bat_bachelor,2022.2.4,59.99522945592579,
,,,,,,,,,,,,1,0,1,0,94,0,94,0,,,,,,,94,,,0.2,694.3341418998316,Y,l,go,l,1,0.37990665901452303,,,,,,,,,,,,,,,,,,12,001,21,w,Psychologie,2023-01-10_10h31.59.632,00_bat_bachelor,2022.2.4,59.99522945592579,
,,,,,,,,,,,,1,0,1,0,95,0,95,0,,,,,,,95,,,0.2,695.0177265629172,X,d,go,d,1,0.5273807412013412,,,,,,,,,,,,,,,,,,12,001,21,w,Psychologie,2023-01-10_10h31.59.632,00_bat_bachelor,2022.2.4,59.99522945592579,
,,,,,,,,,,,,1,0,1,0,96,0,96,0,,,,,,,96,,,0.2,695.8519014324993,X,None,nogo,None,1,,,,,,,,,,,,,,,,,,,12,001,21,w,Psychologie,2023-01-10_10h31.59.632,00_bat_bachelor,2022.2.4,59.99522945592579,
,,,,,,,,,,,,1,0,1,0,97,0,97,0,,,,,,,97,,,0.2,696.8533976762556,Y,l,go,l,1,0.32325157383456826,,,,,,,,,,,,,,,,,,12,001,21,w,Psychologie,2023-01-10_10h31.59.632,00_bat_bachelor,2022.2.4,59.99522945592579,
,,,,,,,,,,,,1,0,1,0,98,0,98,0,,,,,,,98,,,0.2,697.5205939593725,X,d,go,d,1,0.40886717196553946,,,,,,,,,,,,,,,,,,12,001,21,w,Psychologie,2023-01-10_10h31.59.632,00_bat_bachelor,2022.2.4,59.99522945592579,
,,,,,,,,,,,,1,0,1,0,99,0,99,0,,,,,,,99,,,0.2,698.2542770951986,Y,l,go,l,1,0.36243027821183205,,,,,,,,,,,,,,,,,,12,001,21,w,Psychologie,2023-01-10_10h31.59.632,00_bat_bachelor,2022.2.4,59.99522945592579,
,,,,,,,,,,,,1,0,1,0,100,0,100,0,,,,,,,100,,,0.2,698.9383577583358,Y,None,nogo,None,1,,699.7389335650951,,,,,,,,,,,,,,,,,12,001,21,w,Psychologie,2023-01-10_10h31.59.632,00_bat_bachelor,2022.2.4,59.99522945592579,
,,,,,,,,,,,,1,0,1,0,101,0,101,0,,,,,,,101,,,0.2,699.9391272137873,X,d,go,d,1,0.3087570141069591,,,,,,,,,,,,,,,,,,12,001,21,w,Psychologie,2023-01-10_10h31.59.632,00_bat_bachelor,2022.2.4,59.99522945592579,
,,,,,,,,,,,,1,0,1,0,102,0,102,0,,,,,,,102,,,0.2,700.589399844408,Y,l,go,l,1,0.2348849424161017,,,,,,,,,,,,,,,,,,12,001,21,w,Psychologie,2023-01-10_10h31.59.632,00_bat_bachelor,2022.2.4,59.99522945592579,
,,,,,,,,,,,,1,0,1,0,103,0,103,0,,,,,,,103,,,0.2,701.156468030531,X,d,go,d,1,0.22818675450980663,,,,,,,,,,,,,,,,,,12,001,21,w,Psychologie,2023-01-10_10h31.59.632,00_bat_bachelor,2022.2.4,59.99522945592579,
,,,,,,,,,,,,1,0,1,0,104,0,104,0,,,,,,,104,,,0.2,701.7238411870785,Y,l,go,l,1,0.3973515243269503,,,,,,,,,,,,,,,,,,12,001,21,w,Psychologie,2023-01-10_10h31.59.632,00_bat_bachelor,2022.2.4,59.99522945592579,
,,,,,,,,,,,,1,0,1,0,105,0,105,0,,,,,,,105,,,0.2,702.440986609552,Y,None,nogo,d,0,0.23919137101620436,,,,,,,,,,,,,,,,,,12,001,21,w,Psychologie,2023-01-10_10h31.59.632,00_bat_bachelor,2022.2.4,59.99522945592579,
,,,,,,,,,,,,1,0,1,0,106,0,106,0,,,,,,,106,,,0.2,703.0246201450936,X,d,go,None,0,,703.8255469826981,,,,,,,,,,,,,,,,,12,001,21,w,Psychologie,2023-01-10_10h31.59.632,00_bat_bachelor,2022.2.4,59.99522945592579,
,,,,,,,,,,,,1,0,1,0,107,0,107,0,,,,,,,107,,,0.2,704.0255912975408,Y,l,go,l,1,0.38377284444868565,,,,,,,,,,,,,,,,,,12,001,21,w,Psychologie,2023-01-10_10h31.59.632,00_bat_bachelor,2022.2.4,59.99522945592579,
,,,,,,,,,,,,1,0,1,0,108,0,108,0,,,,,,,108,,,0.2,704.72609718889,Y,None,nogo,None,1,,705.5264911772683,,,,,,,,,,,,,,,,,12,001,21,w,Psychologie,2023-01-10_10h31.59.632,00_bat_bachelor,2022.2.4,59.99522945592579,
,,,,,,,,,,,,1,0,1,0,109,0,109,0,,,,,,,109,,,0.2,705.726862765383,Y,None,nogo,None,1,,706.5274424511008,,,,,,,,,,,,,,,,,12,001,21,w,Psychologie,2023-01-10_10h31.59.632,00_bat_bachelor,2022.2.4,59.99522945592579,
,,,,,,,,,,,,1,0,1,0,110,0,110,0,,,,,,,110,,,0.2,706.7276278571226,X,d,go,d,1,0.24097270611673594,,,,,,,,,,,,,,,,,,12,001,21,w,Psychologie,2023-01-10_10h31.59.632,00_bat_bachelor,2022.2.4,59.99522945592579,
,,,,,,,,,,,,1,0,1,0,111,0,111,0,,,,,,,111,,,0.2,707.2944967704825,Y,l,go,l,1,0.2346526999026537,,,,,,,,,,,,,,,,,,12,001,21,w,Psychologie,2023-01-10_10h31.59.632,00_bat_bachelor,2022.2.4,59.99522945592579,
,,,,,,,,,,,,1,0,1,0,112,0,112,0,,,,,,,112,,,0.2,707.8451644559391,X,d,go,d,1,0.403775773011148,,,,,,,,,,,,,,,,,,12,001,21,w,Psychologie,2023-01-10_10h31.59.632,00_bat_bachelor,2022.2.4,59.99522945592579,
,,,,,,,,,,,,1,0,1,0,113,0,113,0,,,,,,,113,,,0.2,708.5957392444834,Y,l,go,l,1,0.24583719531074166,,,,,,,,,,,,,,,,,,12,001,21,w,Psychologie,2023-01-10_10h31.59.632,00_bat_bachelor,2022.2.4,59.99522945592579,
,,,,,,,,,,,,1,0,1,0,114,0,114,0,,,,,,,114,,,0.2,709.1625955519266,Y,None,nogo,d,0,0.301952644251287,,,,,,,,,,,,,,,,,,12,001,21,w,Psychologie,2023-01-10_10h31.59.632,00_bat_bachelor,2022.2.4,59.99522945592579,
,,,,,,,,,,,,1,0,1,0,115,0,115,0,,,,,,,115,,,0.2,709.7797622107901,X,d,go,None,0,,710.5806575329043,,,,,,,,,,,,,,,,,12,001,21,w,Psychologie,2023-01-10_10h31.59.632,00_bat_bachelor,2022.2.4,59.99522945592579,
,,,,,,,,,,,,1,0,1,0,116,0,116,0,,,,,,,116,,,0.2,710.7807367574424,Y,l,go,l,1,0.23520348826423287,,,,,,,,,,,,,,,,,,12,001,21,w,Psychologie,2023-01-10_10h31.59.632,00_bat_bachelor,2022.2.4,59.99522945592579,
,,,,,,,,,,,,1,0,1,0,117,0,117,0,,,,,,,117,,,0.2,711.3478771857917,Y,None,nogo,d,0,0.22896590642631054,,,,,,,,,,,,,,,,,,12,001,21,w,Psychologie,2023-01-10_10h31.59.632,00_bat_bachelor,2022.2.4,59.99522945592579,
,,,,,,,,,,,,1,0,1,0,118,0,118,0,,,,,,,118,,,0.2,711.8980178404599,X,d,go,None,0,,712.6987007986754,,,,,,,,,,,,,,,,,12,001,21,w,Psychologie,2023-01-10_10h31.59.632,00_bat_bachelor,2022.2.4,59.99522945592579,
,,,,,,,,,,,,1,0,1,0,119,0,119,0,,,,,,,119,,,0.2,712.8987727505155,Y,l,go,l,1,0.21338092163205147,,,,,,,,,,,,,,,,,,12,001,21,w,Psychologie,2023-01-10_10h31.59.632,00_bat_bachelor,2022.2.4,59.99522945592579,
,,,,,,,,,,,,1,0,1,0,120,0,120,0,,,,,,,120,,,0.2,713.4491829811595,Y,None,nogo,None,1,,714.249883393757,,,,,,,,,,,,,,,,,12,001,21,w,Psychologie,2023-01-10_10h31.59.632,00_bat_bachelor,2022.2.4,59.99522945592579,
,,,,,,,,,,,,1,0,1,0,121,0,121,0,,,,,,,121,,,0.2,714.4499335275032,X,d,go,d,1,0.3748870175331831,,,,,,,,,,,,,,,,,,12,001,21,w,Psychologie,2023-01-10_10h31.59.632,00_bat_bachelor,2022.2.4,59.99522945592579,
,,,,,,,,,,,,1,0,1,0,122,0,122,0,,,,,,,122,,,0.2,715.1507109343074,Y,l,go,l,1,0.20231036562472582,,,,,,,,,,,,,,,,,,12,001,21,w,Psychologie,2023-01-10_10h31.59.632,00_bat_bachelor,2022.2.4,59.99522945592579,
,,,,,,,,,,,,1,0,1,0,123,0,123,0,,,,,,,123,,,0.2,715.6678547081538,X,d,go,d,1,0.37328313710168004,,,,,,,,,,,,,,,,,,12,001,21,w,Psychologie,2023-01-10_10h31.59.632,00_bat_bachelor,2022.2.4,59.99522945592579,
,,,,,,,,,,,,1,0,1,0,124,0,124,0,,,,,,,124,,,0.2,716.351675007958,X,None,nogo,l,0,0.3926009740680456,,,,,,,,,,,,,,,,,,12,001,21,w,Psychologie,2023-01-10_10h31.59.632,00_bat_bachelor,2022.2.4,59.99522945592579,
,,,,,,,,,,,,1,0,1,0,125,0,125,0,,,,,,,125,,,0.2,717.0688150972128,Y,l,go,None,0,,717.869304115884,,,,,,,,,,,,,,,,,12,001,21,w,Psychologie,2023-01-10_10h31.59.632,00_bat_bachelor,2022.2.4,59.99522945592579,
,,,,,,,,,,,,1,0,1,0,126,0,126,0,,,,,,,126,,,0.2,718.069644188974,X,d,go,d,1,0.3704283465631306,,,,,,,,,,,,,,,,,,12,001,21,w,Psychologie,2023-01-10_10h31.59.632,00_bat_bachelor,2022.2.4,59.99522945592579,
,,,,,,,,,,,,1,0,1,0,127,0,127,0,,,,,,,127,,,0.2,718.7866606418975,X,None,nogo,None,1,,719.5875074788928,,,,,,,,,,,,,,,,,12,001,21,w,Psychologie,2023-01-10_10h31.59.632,00_bat_bachelor,2022.2.4,59.99522945592579,
,,,,,,,,,,,,1,0,1,0,128,0,128,0,,,,,,,128,,,0.2,719.7875891276635,Y,l,go,l,1,0.28544159745797515,,,,,,,,,,,,,,,,,,12,001,21,w,Psychologie,2023-01-10_10h31.59.632,00_bat_bachelor,2022.2.4,59.99522945592579,
,,,,,,,,,,,,1,0,1,0,129,0,129,0,,,,,,,129,,,0.2,720.3878234066069,X,d,go,d,1,0.1963108447380364,,,,,,,,,,,,,,,,,,12,001,21,w,Psychologie,2023-01-10_10h31.59.632,00_bat_bachelor,2022.2.4,59.99522945592579,
,,,,,,,,,,,,1,0,1,0,130,0,130,0,,,,,,,130,,,0.2,720.9218074395321,Y,l,go,l,1,0.3193019940517843,,,,,,,,,,,,,,,,,,12,001,21,w,Psychologie,2023-01-10_10h31.59.632,00_bat_bachelor,2022.2.4,59.99522945592579,
,,,,,,,,,,,,1,0,1,0,131,0,131,0,,,,,,,131,,,0.2,721.5555762965232,X,d,go,d,1,0.4045917736366391,,,,,,,,,,,,,,,,,,12,001,21,w,Psychologie,2023-01-10_10h31.59.632,00_bat_bachelor,2022.2.4,59.99522945592579,
,,,,,,,,,,,,1,0,1,0,132,0,132,0,,,,,,,132,,,0.2,722.3061709636822,Y,l,go,l,1,0.42170694191008806,,,,,,,,,,,,,,,,,,12,001,21,w,Psychologie,2023-01-10_10h31.59.632,00_bat_bachelor,2022.2.4,59.99522945592579,
,,,,,,,,,,,,1,0,1,0,133,0,133,0,,,,,,,133,,,0.2,723.0734269805253,X,d,go,d,1,0.42321821628138423,,,,,,,,,,,,,,,,,,12,001,21,w,Psychologie,2023-01-10_10h31.59.632,00_bat_bachelor,2022.2.4,59.99522945592579,
,,,,,,,,,,,,1,0,1,0,134,0,134,0,,,,,,,134,,,0.2,723.8408027547412,X,None,nogo,None,1,,724.6412408645265,,,,,,,,,,,,,,,,,12,001,21,w,Psychologie,2023-01-10_10h31.59.632,00_bat_bachelor,2022.2.4,59.99522945592579,
,,,,,,,,,,,,1,0,1,0,135,0,135,0,,,,,,,135,,,0.2,724.841530028265,Y,l,go,l,1,0.3510547522455454,,,,,,,,,,,,,,,,,,12,001,21,w,Psychologie,2023-01-10_10h31.59.632,00_bat_bachelor,2022.2.4,59.99522945592579,
,,,,,,,,,,,,1,0,1,0,136,0,136,0,,,,,,,136,,,0.2,725.508692856878,X,d,go,d,1,0.17999373748898506,,,,,,,,,,,,,,,,,,12,001,21,w,Psychologie,2023-01-10_10h31.59.632,00_bat_bachelor,2022.2.4,59.99522945592579,
,,,,,,,,,,,,1,0,1,0,137,0,137,0,,,,,,,137,,,0.2,726.0256785703823,Y,l,go,l,1,0.30277203861624,,,,,,,,,,,,,,,,,,12,001,21,w,Psychologie,2023-01-10_10h31.59.632,00_bat_bachelor,2022.2.4,59.99522945592579,
,,,,,,,,,,,,1,0,1,0,138,0,138,0,,,,,,,138,,,0.2,726.6592772454023,X,d,go,d,1,0.5172265497967601,,,,,,,,,,,,,,,,,,12,001,21,w,Psychologie,2023-01-10_10h31.59.632,00_bat_bachelor,2022.2.4,59.99522945592579,
,,,,,,,,,,,,1,0,1,0,139,0,139,0,,,,,,,139,,,0.2,727.4934797515161,Y,l,go,l,1,0.41981797059997916,,,,,,,,,,,,,,,,,,12,001,21,w,Psychologie,2023-01-10_10h31.59.632,00_bat_bachelor,2022.2.4,59.99522945592579,
,,,,,,,,,,,,1,0,1,0,140,0,140,0,,,,,,,140,,,0.2,728.2439139336348,X,d,go,d,1,0.4693865031003952,,,,,,,,,,,,,,,,,,12,001,21,w,Psychologie,2023-01-10_10h31.59.632,00_bat_bachelor,2022.2.4,59.99522945592579,
,,,,,,,,,,,,1,0,1,0,141,0,141,0,,,,,,,141,,,0.2,729.0279893605039,Y,l,go,l,1,0.3720986512489617,,,,,,,,,,,,,,,,,,12,001,21,w,Psychologie,2023-01-10_10h31.59.632,00_bat_bachelor,2022.2.4,59.99522945592579,
,,,,,,,,,,,,1,0,1,0,142,0,142,0,,,,,,,142,,,0.2,729.7451997529715,X,d,go,d,1,0.3755386546254158,,,,,,,,,,,,,,,,,,12,001,21,w,Psychologie,2023-01-10_10h31.59.632,00_bat_bachelor,2022.2.4,59.99522945592579,
,,,,,,,,,,,,1,0,1,0,143,0,143,0,,,,,,,143,,,0.2,730.4288013856858,X,None,nogo,None,1,,731.2295706467703,,,,,,,,,,,,,,,,,12,001,21,w,Psychologie,2023-01-10_10h31.59.632,00_bat_bachelor,2022.2.4,59.99522945592579,
,,,,,,,,,,,,1,0,1,0,144,0,144,0,,,,,,,144,,,0.2,731.4298055078834,Y,l,go,l,1,0.37155562033876777,,,,,,,,,,,,,,,,,,12,001,21,w,Psychologie,2023-01-10_10h31.59.632,00_bat_bachelor,2022.2.4,59.99522945592579,
,,,,,,,,,,,,1,0,1,0,145,0,145,0,,,,,,,145,,,0.2,732.1303201266564,X,d,go,d,1,0.19749290635809302,,,,,,,,,,,,,,,,,,12,001,21,w,Psychologie,2023-01-10_10h31.59.632,00_bat_bachelor,2022.2.4,59.99522945592579,
,,,,,,,,,,,,1,0,1,0,146,0,146,0,,,,,,,146,,,0.2,732.6636205222458,Y,l,go,l,1,0.2890551770105958,,,,,,,,,,,,,,,,,,12,001,21,w,Psychologie,2023-01-10_10h31.59.632,00_bat_bachelor,2022.2.4,59.99522945592579,
,,,,,,,,,,,,1,0,1,0,147,0,147,0,,,,,,,147,,,0.2,733.263993952889,X,d,go,d,1,0.3283032150939107,,,,,,,,,,,,,,,,,,12,001,21,w,Psychologie,2023-01-10_10h31.59.632,00_bat_bachelor,2022.2.4,59.99522945592579,
,,,,,,,,,,,,1,0,1,0,148,0,148,0,,,,,,,148,,,0.2,733.8980241436511,Y,l,go,l,1,0.49476640624925494,,,,,,,,,,,,,,,,,,12,001,21,w,Psychologie,2023-01-10_10h31.59.632,00_bat_bachelor,2022.2.4,59.99522945592579,
,,,,,,,,,,,,1,0,1,0,149,0,149,0,,,,,,,149,,,0.2,734.6986329201609,X,d,go,d,1,0.3979023126885295,,,,,,,,,,,,,,,,,,12,001,21,w,Psychologie,2023-01-10_10h31.59.632,00_bat_bachelor,2022.2.4,59.99522945592579,
,,,,,,,,,,,,1,0,1,0,150,0,150,0,,,,,,,150,,,0.2,735.3991402657703,Y,l,go,l,1,0.27312255511060357,,,,,,,,,,,,,,,,,,12,001,21,w,Psychologie,2023-01-10_10h31.59.632,00_bat_bachelor,2022.2.4,59.99522945592579,
,,,,,,,,,,,,1,0,1,0,151,0,151,0,,,,,,,151,,,0.2,735.9996227878146,Y,None,nogo,None,1,,,,,,,,,,,,,,,,,,,12,001,21,w,Psychologie,2023-01-10_10h31.59.632,00_bat_bachelor,2022.2.4,59.99522945592579,
,,,,,,,,,,,,1,0,1,0,152,0,152,0,,,,,,,152,,,0.2,737.0002046064474,X,d,go,d,1,0.32047872245311737,,,,,,,,,,,,,,,,,,12,001,21,w,Psychologie,2023-01-10_10h31.59.632,00_bat_bachelor,2022.2.4,59.99522945592579,
,,,,,,,,,,,,1,0,1,0,153,0,153,0,,,,,,,153,,,0.2,737.6341567360796,Y,l,go,l,1,0.2788316518999636,,,,,,,,,,,,,,,,,,12,001,21,w,Psychologie,2023-01-10_10h31.59.632,00_bat_bachelor,2022.2.4,59.99522945592579,
,,,,,,,,,,,,1,0,1,0,154,0,154,0,,,,,,,154,,,0.2,738.2176535446197,X,d,go,d,1,0.27133685629814863,,,,,,,,,,,,,,,,,,12,001,21,w,Psychologie,2023-01-10_10h31.59.632,00_bat_bachelor,2022.2.4,59.99522945592579,
,,,,,,,,,,,,1,0,1,0,155,0,155,0,,,,,,,155,,,0.2,738.8011459889822,X,None,nogo,None,1,,,,,,,,,,,,,,,,,,,12,001,21,w,Psychologie,2023-01-10_10h31.59.632,00_bat_bachelor,2022.2.4,59.99522945592579,
,,,,,,,,,,,,1,0,1,0,156,0,156,0,,,,,,,156,,,0.2,739.8020793232135,Y,l,go,l,1,0.39888849575072527,,,,,,,,,,,,,,,,,,12,001,21,w,Psychologie,2023-01-10_10h31.59.632,00_bat_bachelor,2022.2.4,59.99522945592579,
,,,,,,,,,,,,1,0,1,0,157,0,157,0,,,,,,,157,,,0.2,740.5026797601022,X,d,go,d,1,0.24288349598646164,,,,,,,,,,,,,,,,,,12,001,21,w,Psychologie,2023-01-10_10h31.59.632,00_bat_bachelor,2022.2.4,59.99522945592579,
,,,,,,,,,,,,1,0,1,0,158,0,158,0,,,,,,,158,,,0.2,741.0528839300387,Y,l,go,l,1,0.31604332383722067,,,,,,,,,,,,,,,,,,12,001,21,w,Psychologie,2023-01-10_10h31.59.632,00_bat_bachelor,2022.2.4,59.99522945592579,
,,,,,,,,,,,,1,0,1,0,159,0,159,0,,,,,,,159,,,0.2,741.6701907105744,Y,None,nogo,None,1,,,,,,,,,,,,,,,,,,,12,001,21,w,Psychologie,2023-01-10_10h31.59.632,00_bat_bachelor,2022.2.4,59.99522945592579,
,,,,,,,,,,,,1,0,1,0,160,0,160,0,,,,,,,160,,,0.2,742.6708084084094,X,d,go,d,1,0.4745191144756973,,,,,,,,,,,,,,,,,,12,001,21,w,Psychologie,2023-01-10_10h31.59.632,00_bat_bachelor,2022.2.4,59.99522945592579,
,,,,,,,,,,,,1,0,1,0,161,0,161,0,,,,,,,161,,,0.2,743.4548678351566,Y,l,go,l,1,0.2342551234178245,,,,,,,,,,,,,,,,,,12,001,21,w,Psychologie,2023-01-10_10h31.59.632,00_bat_bachelor,2022.2.4,59.99522945592579,
,,,,,,,,,,,,1,0,1,0,162,0,162,0,,,,,,,162,,,0.2,744.0053401263431,X,d,go,d,1,0.37210543919354677,,,,,,,,,,,,,,,,,,12,001,21,w,Psychologie,2023-01-10_10h31.59.632,00_bat_bachelor,2022.2.4,59.99522945592579,
,,,,,,,,,,,,1,0,1,0,163,0,163,0,,,,,,,163,,,0.2,744.6891531534493,X,None,nogo,l,0,0.312842836137861,,,,,,,,,,,,,,,,,,12,001,21,w,Psychologie,2023-01-10_10h31.59.632,00_bat_bachelor,2022.2.4,59.99522945592579,
,,,,,,,,,,,,1,0,1,0,164,0,164,0,,,,,,,164,,,0.2,745.3063086606562,Y,l,go,None,0,,746.106961558573,,,,,,,,,,,,,,,,,12,001,21,w,Psychologie,2023-01-10_10h31.59.632,00_bat_bachelor,2022.2.4,59.99522945592579,
,,,,,,,,,,,,1,0,1,0,165,0,165,0,,,,,,,165,,,0.2,746.3068866007961,X,d,go,d,1,0.2944471822120249,,,,,,,,,,,,,,,,,,12,001,21,w,Psychologie,2023-01-10_10h31.59.632,00_bat_bachelor,2022.2.4,59.99522945592579,
,,,,,,,,,,,,1,0,1,0,166,0,166,0,,,,,,,166,,,0.2,746.9075533649884,Y,l,go,l,1,0.41426984407007694,,,,,,,,,,,,,,,,,,12,001,21,w,Psychologie,2023-01-10_10h31.59.632,00_bat_bachelor,2022.2.4,59.99522945592579,
,,,,,,,,,,,,1,0,1,0,167,0,167,0,,,,,,,167,,,0.2,747.6248524850234,Y,None,nogo,None,1,,,,,,,,,,,,,,,,,,,12,001,21,w,Psychologie,2023-01-10_10h31.59.632,00_bat_bachelor,2022.2.4,59.99522945592579,
,,,,,,,,,,,,1,0,1,0,168,0,168,0,,,,,,,168,,,0.2,748.6261121225543,Y,None,nogo,None,1,,749.4270297475159,,,,,,,,,,,,,,,,,12,001,21,w,Psychologie,2023-01-10_10h31.59.632,00_bat_bachelor,2022.2.4,59.99522945592579,
,,,,,,,,,,,,1,0,1,0,169,0,169,0,,,,,,,169,,,0.2,749.626872850582,X,d,go,d,1,0.3338164323940873,,,,,,,,,,,,,,,,,,12,001,21,w,Psychologie,2023-01-10_10h31.59.632,00_bat_bachelor,2022.2.4,59.99522945592579,
,,,,,,,,,,,,1,0,1,0,170,0,170,0,,,,,,,170,,,0.2,750.2939915577881,Y,l,go,l,1,0.24274967750534415,,,,,,,,,,,,,,,,,,12,001,21,w,Psychologie,2023-01-10_10h31.59.632,00_bat_bachelor,2022.2.4,59.99522945592579,
,,,,,,,,,,,,1,0,1,0,171,0,171,0,,,,,,,171,,,0.2,750.8612822899595,X,d,go,d,1,0.315821748226881,,,,,,,,,,,,,,,,,,12,001,21,w,Psychologie,2023-01-10_10h31.59.632,00_bat_bachelor,2022.2.4,59.99522945592579,
,,,,,,,,,,,,1,0,1,0,172,0,172,0,,,,,,,172,,,0.2,751.4951141769998,X,None,nogo,None,1,,752.2955149533227,,,,,,,,,,,,,,,,,12,001,21,w,Psychologie,2023-01-10_10h31.59.632,00_bat_bachelor,2022.2.4,59.99522945592579,
,,,,,,,,,,,,1,0,1,0,173,0,173,0,,,,,,,173,,,0.2,752.4957139352337,Y,l,go,l,1,0.456744066439569,,,,,,,,,,,,,,,,,,12,001,21,w,Psychologie,2023-01-10_10h31.59.632,00_bat_bachelor,2022.2.4,59.99522945592579,
,,,,,,,,,,,,1,0,1,0,174,0,174,0,,,,,,,174,,,0.2,753.2795711802319,X,d,go,d,1,0.18505071196705103,,,,,,,,,,,,,,,,,,12,001,21,w,Psychologie,2023-01-10_10h31.59.632,00_bat_bachelor,2022.2.4,59.99522945592579,
,,,,,,,,,,,,1,0,1,0,175,0,175,0,,,,,,,175,,,0.2,753.7964608934708,Y,l,go,l,1,0.4359857435338199,,,,,,,,,,,,,,,,,,12,001,21,w,Psychologie,2023-01-10_10h31.59.632,00_bat_bachelor,2022.2.4,59.99522945592579,
,,,,,,,,,,,,1,0,1,0,176,0,176,0,,,,,,,176,,,0.2,754.5470783486962,Y,None,nogo,None,1,,755.3476905189455,,,,,,,,,,,,,,,,,12,001,21,w,Psychologie,2023-01-10_10h31.59.632,00_bat_bachelor,2022.2.4,59.99522945592579,
,,,,,,,,,,,,1,0,1,0,177,0,177,0,,,,,,,177,,,0.2,755.5476679252461,X,d,go,d,1,0.301678704097867,,,,,,,,,,,,,,,,,,12,001,21,w,Psychologie,2023-01-10_10h31.59.632,00_bat_bachelor,2022.2.4,59.99522945592579,
,,,,,,,,,,,,1,0,1,0,178,0,178,0,,,,,,,178,,,0.2,756.1649184632115,Y,l,go,l,1,0.22844808781519532,,,,,,,,,,,,,,,,,,12,001,21,w,Psychologie,2023-01-10_10h31.59.632,00_bat_bachelor,2022.2.4,59.99522945592579,
,,,,,,,,,,,,1,0,1,0,179,0,179,0,,,,,,,179,,,0.2,756.6981616467237,X,d,go,d,1,0.3188869636505842,,,,,,,,,,,,,,,,,,12,001,21,w,Psychologie,2023-01-10_10h31.59.632,00_bat_bachelor,2022.2.4,59.99522945592579,
,,,,,,,,,,,,1,0,1,0,180,0,180,0,,,,,,,180,,,0.2,757.3319678371772,Y,l,go,l,1,0.4528672145679593,,,,,,,,,,,,,,,,,,12,001,21,w,Psychologie,2023-01-10_10h31.59.632,00_bat_bachelor,2022.2.4,59.99522945592579,
,,,,,,,,,,,,1,0,1,0,181,0,181,0,,,,,,,181,,,0.2,758.0994633692317,Y,None,nogo,d,0,0.32594490936025977,,,,,,,,,,,,,,,,,,12,001,21,w,Psychologie,2023-01-10_10h31.59.632,00_bat_bachelor,2022.2.4,59.99522945592579,
,,,,,,,,,,,,1,0,1,0,182,0,182,0,,,,,,,182,,,0.2,758.7332186503336,X,d,go,None,0,,759.5337813664228,,,,,,,,,,,,,,,,,12,001,21,w,Psychologie,2023-01-10_10h31.59.632,00_bat_bachelor,2022.2.4,59.99522945592579,
,,,,,,,,,,,,1,0,1,0,183,0,183,0,,,,,,,183,,,0.2,759.7340147723444,Y,l,go,l,1,0.40353431832045317,,,,,,,,,,,,,,,,,,12,001,21,w,Psychologie,2023-01-10_10h31.59.632,00_bat_bachelor,2022.2.4,59.99522945592579,
,,,,,,,,,,,,1,0,1,0,184,0,184,0,,,,,,,184,,,0.2,760.4511616495438,X,d,go,d,1,0.3420777735300362,,,,,,,,,,,,,,,,,,12,001,21,w,Psychologie,2023-01-10_10h31.59.632,00_bat_bachelor,2022.2.4,59.99522945592579,
,,,,,,,,,,,,1,0,1,0,185,0,185,0,,,,,,,185,,,0.2,761.1016893107444,X,None,nogo,None,1,,,,,,,,,,,,,,,,,,,12,001,21,w,Psychologie,2023-01-10_10h31.59.632,00_bat_bachelor,2022.2.4,59.99522945592579,
,,,,,,,,,,,,1,0,1,0,186,0,186,0,,,,,,,186,,,0.2,762.1024490692653,Y,l,go,l,1,0.3385165580548346,,,,,,,,,,,,,,,,,,12,001,21,w,Psychologie,2023-01-10_10h31.59.632,00_bat_bachelor,2022.2.4,59.99522945592579,
,,,,,,,,,,,,1,0,1,0,187,0,187,0,,,,,,,187,,,0.2,762.7528928513639,X,d,go,d,1,0.31227895710617304,,,,,,,,,,,,,,,,,,12,001,21,w,Psychologie,2023-01-10_10h31.59.632,00_bat_bachelor,2022.2.4,59.99522945592579,
,,,,,,,,,,,,1,0,1,0,188,0,188,0,,,,,,,188,,,0.2,763.3701220559888,X,None,nogo,None,1,,,,,,,,,,,,,,,,,,,12,001,21,w,Psychologie,2023-01-10_10h31.59.632,00_bat_bachelor,2022.2.4,59.99522945592579,
,,,,,,,,,,,,1,0,1,0,189,0,189,0,,,,,,,189,,,0.2,764.3705928442068,Y,l,go,l,1,0.3580729407258332,,,,,,,,,,,,,,,,,,12,001,21,w,Psychologie,2023-01-10_10h31.59.632,00_bat_bachelor,2022.2.4,59.99522945592579,
,,,,,,,,,,,,1,0,1,0,190,0,190,0,,,,,,,190,,,0.2,765.0378027036786,X,d,go,d,1,0.20323497243225574,,,,,,,,,,,,,,,,,,12,001,21,w,Psychologie,2023-01-10_10h31.59.632,00_bat_bachelor,2022.2.4,59.99522945592579,
,,,,,,,,,,,,1,0,1,0,191,0,191,0,,,,,,,191,,,0.2,765.5551302353851,Y,l,go,l,1,0.35845451708883047,,,,,,,,,,,,,,,,,,12,001,21,w,Psychologie,2023-01-10_10h31.59.632,00_bat_bachelor,2022.2.4,59.99522945592579,
,,,,,,,,,,,,1,0,1,0,192,0,192,0,,,,,,,192,,,0.2,766.2220777911134,X,d,go,d,1,0.47522990265861154,,,,,,,,,,,,,,,,,,12,001,21,w,Psychologie,2023-01-10_10h31.59.632,00_bat_bachelor,2022.2.4,59.99522945592579,
,,,,,,,,,,,,1,0,1,0,193,0,193,0,,,,,,,193,,,0.2,767.006016490981,X,None,nogo,None,1,,,,,,,,,,,,,,,,,,,12,001,21,w,Psychologie,2023-01-10_10h31.59.632,00_bat_bachelor,2022.2.4,59.99522945592579,
,,,,,,,,,,,,1,0,1,0,194,0,194,0,,,,,,,194,,,0.2,768.0070792795159,Y,l,go,l,1,0.36996531626209617,,,,,,,,,,,,,,,,,,12,001,21,w,Psychologie,2023-01-10_10h31.59.632,00_bat_bachelor,2022.2.4,59.99522945592579,
,,,,,,,,,,,,1,0,1,0,195,0,195,0,,,,,,,195,,,0.2,768.6908195791766,X,d,go,d,1,0.23115015123039484,,,,,,,,,,,,,,,,,,12,001,21,w,Psychologie,2023-01-10_10h31.59.632,00_bat_bachelor,2022.2.4,59.99522945592579,
,,,,,,,,,,,,1,0,1,0,196,0,196,0,,,,,,,196,,,0.2,769.2246159757487,Y,l,go,l,1,0.3684598598629236,,,,,,,,,,,,,,,,,,12,001,21,w,Psychologie,2023-01-10_10h31.59.632,00_bat_bachelor,2022.2.4,59.99522945592579,
,,,,,,,,,,,,1,0,1,0,197,0,197,0,,,,,,,197,,,0.2,769.9084353051148,Y,None,nogo,None,1,,770.7087483238429,,,,,,,,,,,,,,,,,12,001,21,w,Psychologie,2023-01-10_10h31.59.632,00_bat_bachelor,2022.2.4,59.99522945592579,
