loop_instruction.thisRepN,loop_instruction.thisTrialN,loop_instruction.thisN,loop_instruction.thisIndex,loop_rsi_practice.thisRepN,loop_rsi_practice.thisTrialN,loop_rsi_practice.thisN,loop_rsi_practice.thisIndex,loop_practice.thisRepN,loop_practice.thisTrialN,loop_practice.thisN,loop_practice.thisIndex,loop_exp.thisRepN,loop_exp.thisTrialN,loop_exp.thisN,loop_exp.thisIndex,loop_trials.thisRepN,loop_trials.thisTrialN,loop_trials.thisN,loop_trials.thisIndex,map_condition,map_x_key,map_y_key,key_resp_welcome.started,key_resp_welcome.keys,key_resp_welcome.rt,index,text_empty_rsi_practice.started,text_empty_rsi_practice.stopped,rsi,stimulus.started,stimulus,correct,trial_type,key_resp_trial.keys,key_resp_trial.corr,key_resp_trial.rt,key_resp_instruction_rsi.started,key_resp_instruction_rsi.keys,key_resp_instruction_rsi.rt,stimulus.stopped,key_resp_instruction_rsi.stopped,key_resp_instruction_final.started,key_resp_instruction_final.keys,key_resp_instruction_final.rt,key_resp_break.started,key_resp_break.keys,key_resp_break.rt,key_resp_break.stopped,key_resp_end_screen.started,image_end_screen.started,key_resp_end_screen.keys,key_resp_end_screen.rt,participant,session,Alter,Geschlecht (w/m/d/andere),Studiengang,date,expName,psychopyVersion,frameRate,
,,,,0,0,0,0,0,0,0,0,,,,,,,,,1,l,d,745.3559584756149,j,19.937126834702212,0,765.3184714271338,766.33285688865,1,766.33285688865,X,l,go,None,0,,,,,,,,,,,,,,,,,,13,001,19,w,Psychologie,2023-01-11_09h04.03.547,00_bat_bachelor,2022.2.4,59.88099281817125,
,,,,0,0,0,0,1,0,1,0,,,,,,,,,,,,,,,1,767.7335150222934,768.7345157500531,1,768.7345157500531,Y,d,go,None,0,,,,,,,,,,,,,,,,,,13,001,19,w,Psychologie,2023-01-11_09h04.03.547,00_bat_bachelor,2022.2.4,59.88099281817125,
,,,,0,0,0,0,2,0,2,0,,,,,,,,,,,,,,,2,770.1357367930759,771.136113520537,1,771.136113520537,X,l,go,l,1,0.37796195756527595,,,,,,,,,,,,,,,,,13,001,19,w,Psychologie,2023-01-11_09h04.03.547,00_bat_bachelor,2022.2.4,59.88099281817125,
,,,,0,0,0,0,3,0,3,0,,,,,,,,,,,,,,,3,772.2206522281922,773.2213368345692,1,773.2213368345692,Y,d,go,d,1,0.292743491998408,,,,,,,,,,,,,,,,,13,001,19,w,Psychologie,2023-01-11_09h04.03.547,00_bat_bachelor,2022.2.4,59.88099281817125,
,,,,0,0,0,0,4,0,4,0,,,,,,,,,,,,,,,4,774.2218847136246,775.2226420473307,1,775.2226420473307,Y,None,nogo,None,1,,,,,,,,,,,,,,,,,,13,001,19,w,Psychologie,2023-01-11_09h04.03.547,00_bat_bachelor,2022.2.4,59.88099281817125,
,,,,0,0,0,0,5,0,5,0,,,,,,,,,,,,,,,5,776.6238868479268,777.6247096362058,1,777.6247096362058,X,l,go,l,1,0.3213321119255852,,,,,,,,,,,,,,,,,13,001,19,w,Psychologie,2023-01-11_09h04.03.547,00_bat_bachelor,2022.2.4,59.88099281817125,
,,,,0,0,0,0,6,0,6,0,,,,,,,,,,,,,,,6,778.6589001982356,779.6595683197957,1,779.6595683197957,Y,d,go,d,1,0.43066355885821395,,,,,,,,,,,,,,,,,13,001,19,w,Psychologie,2023-01-11_09h04.03.547,00_bat_bachelor,2022.2.4,59.88099281817125,
,,,,0,0,0,0,7,0,7,0,,,,,,,,,,,,,,,7,780.7934670513787,781.7943276578444,1,781.7943276578444,Y,None,nogo,d,0,0.6476120277075097,,,,,,,,,,,,,,,,,13,001,19,w,Psychologie,2023-01-11_09h04.03.547,00_bat_bachelor,2022.2.4,59.88099281817125,
,,,,0,0,0,0,8,0,8,0,,,,,,,,,,,,,,,8,783.5458533555502,784.5463813558163,1,784.5463813558163,X,l,go,l,1,0.43932441156357527,,,,,,,,,,,,,,,,,13,001,19,w,Psychologie,2023-01-11_09h04.03.547,00_bat_bachelor,2022.2.4,59.88099281817125,
,,,,0,0,0,0,9,0,9,0,,,,,,,,,,,,,,,9,785.6974427623791,786.6983969446737,1,786.6983969446737,Y,d,go,d,1,0.44794017329695635,,,,,,,,,,,,,,,,,13,001,19,w,Psychologie,2023-01-11_09h04.03.547,00_bat_bachelor,2022.2.4,59.88099281817125,
,,,,0,0,0,0,10,0,10,0,,,,,,,,,,,,,,,10,787.8491771389963,788.8497090180463,1,788.8497090180463,Y,None,nogo,None,1,,,,,,,,,,,,,,,,,,13,001,19,w,Psychologie,2023-01-11_09h04.03.547,00_bat_bachelor,2022.2.4,59.88099281817125,
,,,,0,0,0,0,11,0,11,0,,,,,,,,,,,,,,,11,790.2510076368344,791.2520335767476,1,791.2520335767476,X,l,go,l,1,0.4533200547157321,,,,,,,,,,,,,,,,,13,001,19,w,Psychologie,2023-01-11_09h04.03.547,00_bat_bachelor,2022.2.4,59.88099281817125,
,,,,0,0,0,0,12,0,12,0,,,,,,,,,,,,,,,12,792.4194809306646,793.420357052295,1,793.420357052295,Y,d,go,d,1,0.2850455488660373,,,,,,,,,,,,,,,,,13,001,19,w,Psychologie,2023-01-11_09h04.03.547,00_bat_bachelor,2022.2.4,59.88099281817125,
,,,,0,0,0,0,13,0,13,0,,,,,,,,,,,,,,,13,794.4211459011422,795.4219158409105,1,795.4219158409105,X,l,go,l,1,0.26716141897486523,,,,,,,,,,,,,,,,,13,001,19,w,Psychologie,2023-01-11_09h04.03.547,00_bat_bachelor,2022.2.4,59.88099281817125,
,,,,0,0,0,0,14,0,14,0,,,,,,,,,,,,,,,14,796.4056898936688,797.4064889243455,1,797.4064889243455,Y,d,go,d,1,0.36310376852634363,,,,,,,,,,,,,,,,,13,001,19,w,Psychologie,2023-01-11_09h04.03.547,00_bat_bachelor,2022.2.4,59.88099281817125,
,,,,1,0,1,0,0,0,0,0,,,,,,,,,,,,,,,0,813.5687047605752,813.7689089788473,0.2,813.7689089788473,X,l,go,l,1,0.38488996092928573,798.4844055681897,j,15.0643302903336,,,,,,,,,,,,,,13,001,19,w,Psychologie,2023-01-11_09h04.03.547,00_bat_bachelor,2022.2.4,59.88099281817125,
,,,,1,0,1,0,1,0,1,0,,,,,,,,,,,,,,,1,814.8697536338004,815.0698565187049,0.2,815.0698565187049,Y,d,go,d,1,0.20440696430159733,,,,,,,,,,,,,,,,,13,001,19,w,Psychologie,2023-01-11_09h04.03.547,00_bat_bachelor,2022.2.4,59.88099281817125,
,,,,1,0,1,0,2,0,2,0,,,,,,,,,,,,,,,2,815.9872780544392,816.1872117271123,0.2,816.1872117271123,X,l,go,l,1,0.2706649358442519,,,,,,,,,,,,,,,,,13,001,19,w,Psychologie,2023-01-11_09h04.03.547,00_bat_bachelor,2022.2.4,59.88099281817125,
,,,,1,0,1,0,3,0,3,0,,,,,,,,,,,,,,,3,817.1715157195285,817.3714484225202,0.2,817.3714484225202,Y,d,go,d,1,0.17425616181571968,,,,,,,,,,,,,,,,,13,001,19,w,Psychologie,2023-01-11_09h04.03.547,00_bat_bachelor,2022.2.4,59.88099281817125,
,,,,1,0,1,0,4,0,4,0,,,,,,,,,,,,,,,4,818.2557353967277,818.4558407058648,0.2,818.4558407058648,Y,None,nogo,None,1,,,,,819.2566018213693,,,,,,,,,,,,,13,001,19,w,Psychologie,2023-01-11_09h04.03.547,00_bat_bachelor,2022.2.4,59.88099281817125,
,,,,1,0,1,0,5,0,5,0,,,,,,,,,,,,,,,5,819.8565953244106,820.0568557851366,0.2,820.0568557851366,X,l,go,l,1,0.2885510051273741,,,,,,,,,,,,,,,,,13,001,19,w,Psychologie,2023-01-11_09h04.03.547,00_bat_bachelor,2022.2.4,59.88099281817125,
,,,,1,0,1,0,6,0,6,0,,,,,,,,,,,,,,,6,821.05788124018,821.2578900644148,0.2,821.2578900644148,Y,d,go,d,1,0.2713412998127751,,,,,,,,,,,,,,,,,13,001,19,w,Psychologie,2023-01-11_09h04.03.547,00_bat_bachelor,2022.2.4,59.88099281817125,
,,,,1,0,1,0,7,0,7,0,,,,,,,,,,,,,,,7,822.2421382992179,822.4423119720304,0.2,822.4423119720304,X,l,go,l,1,0.22362733725458384,,,,,,,,,,,,,,,,,13,001,19,w,Psychologie,2023-01-11_09h04.03.547,00_bat_bachelor,2022.2.4,59.88099281817125,
,,,,1,0,1,0,8,0,8,0,,,,,,,,,,,,,,,8,823.3762915763655,823.5764133703778,0.2,823.5764133703778,Y,d,go,d,1,0.33786302903899923,,,,,,,,,,,,,,,,,13,001,19,w,Psychologie,2023-01-11_09h04.03.547,00_bat_bachelor,2022.2.4,59.88099281817125,
,,,,1,0,1,0,9,0,9,0,,,,,,,,,,,,,,,9,824.6272017586452,824.827412279963,0.2,824.827412279963,X,l,go,l,1,0.3025471331202425,,,,,,,,,,,,,,,,,13,001,19,w,Psychologie,2023-01-11_09h04.03.547,00_bat_bachelor,2022.2.4,59.88099281817125,
,,,,1,0,1,0,10,0,10,0,,,,,,,,,,,,,,,10,825.844835803553,826.0450060824223,0.2,826.0450060824223,Y,d,go,d,1,0.3009830111404881,,,,,,,,,,,,,,,,,13,001,19,w,Psychologie,2023-01-11_09h04.03.547,00_bat_bachelor,2022.2.4,59.88099281817125,
,,,,1,0,1,0,11,0,11,0,,,,,,,,,,,,,,,11,827.0621037876699,827.2621989150066,0.2,827.2621989150066,X,l,go,l,1,0.2675997222249862,,,,,,,,,,,,,,,,,13,001,19,w,Psychologie,2023-01-11_09h04.03.547,00_bat_bachelor,2022.2.4,59.88099281817125,
,,,,1,0,1,0,12,0,12,0,,,,,,,,,,,,,,,12,828.2299836266611,828.4300918449007,0.2,828.4300918449007,X,None,nogo,d,0,0.23537231265800074,,,,,,,,,,,,,,,,,13,001,19,w,Psychologie,2023-01-11_09h04.03.547,00_bat_bachelor,2022.2.4,59.88099281817125,
,,,,1,0,1,0,13,0,13,0,,,,,,,,,,,,,,,13,829.780800863402,829.9813381727727,0.2,829.9813381727727,Y,d,go,d,1,0.460581633989932,,,,,,,,,,,,,,,,,13,001,19,w,Psychologie,2023-01-11_09h04.03.547,00_bat_bachelor,2022.2.4,59.88099281817125,
,,,,1,0,1,0,14,0,14,0,,,,,,,,,,,,,,,14,831.1488475873193,831.3489548358484,0.2,831.3489548358484,X,l,go,l,1,0.27725015114992857,,,,,,,,,,,,,,,,,13,001,19,w,Psychologie,2023-01-11_09h04.03.547,00_bat_bachelor,2022.2.4,59.88099281817125,
,,,,,,,,,,,,,,,,,,,,,,,,,,,,,,,,,,,,,832.3806236996897,None,,,832.3806236996897,832.3806236996897,space,4.287784459273098,,,,,,,,,13,001,19,w,Psychologie,2023-01-11_09h04.03.547,00_bat_bachelor,2022.2.4,59.88099281817125,
,,,,,,,,,,,,0,0,0,0,0,0,0,0,,,,,,,0,,,1,837.6872042119794,X,l,go,l,1,0.3060472560173366,,,,,,,,,,,,,,,,,13,001,19,w,Psychologie,2023-01-11_09h04.03.547,00_bat_bachelor,2022.2.4,59.88099281817125,
,,,,,,,,,,,,0,0,0,0,1,0,1,0,,,,,,,1,,,1,839.1046211416251,Y,d,go,d,1,0.2011065990664065,,,,,,,,,,,,,,,,,13,001,19,w,Psychologie,2023-01-11_09h04.03.547,00_bat_bachelor,2022.2.4,59.88099281817125,
,,,,,,,,,,,,0,0,0,0,2,0,2,0,,,,,,,2,,,1,840.4223880835634,X,l,go,l,1,0.21156284658354707,,,,,,,,,,,,,,,,,13,001,19,w,Psychologie,2023-01-11_09h04.03.547,00_bat_bachelor,2022.2.4,59.88099281817125,
,,,,,,,,,,,,0,0,0,0,3,0,3,0,,,,,,,3,,,1,841.7402597528417,Y,d,go,d,1,0.23758613190148026,,,,,,,,,,,,,,,,,13,001,19,w,Psychologie,2023-01-11_09h04.03.547,00_bat_bachelor,2022.2.4,59.88099281817125,
,,,,,,,,,,,,0,0,0,0,4,0,4,0,,,,,,,4,,,1,843.0910967714444,Y,None,nogo,l,0,0.29462470501312055,,,,,,,,,,,,,,,,,13,001,19,w,Psychologie,2023-01-11_09h04.03.547,00_bat_bachelor,2022.2.4,59.88099281817125,
,,,,,,,,,,,,0,0,0,0,5,0,5,0,,,,,,,5,,,1,844.4923764811538,X,l,go,l,1,0.269682632322656,,,,,,,,,,,,,,,,,13,001,19,w,Psychologie,2023-01-11_09h04.03.547,00_bat_bachelor,2022.2.4,59.88099281817125,
,,,,,,,,,,,,0,0,0,0,6,0,6,0,,,,,,,6,,,1,845.8766942432267,Y,d,go,d,1,0.22851752146380022,,,,,,,,,,,,,,,,,13,001,19,w,Psychologie,2023-01-11_09h04.03.547,00_bat_bachelor,2022.2.4,59.88099281817125,
,,,,,,,,,,,,0,0,0,0,7,0,7,0,,,,,,,7,,,1,847.2110459204996,Y,None,nogo,None,1,,,,,,,,,,,,,,,,,,13,001,19,w,Psychologie,2023-01-11_09h04.03.547,00_bat_bachelor,2022.2.4,59.88099281817125,
,,,,,,,,,,,,0,0,0,0,8,0,8,0,,,,,,,8,,,1,849.0125129757507,X,l,go,l,1,0.29353137116413563,,,,,,,,,,,,,,,,,13,001,19,w,Psychologie,2023-01-11_09h04.03.547,00_bat_bachelor,2022.2.4,59.88099281817125,
,,,,,,,,,,,,0,0,0,0,9,0,9,0,,,,,,,9,,,1,850.4135347459523,Y,d,go,d,1,0.2680346315319184,,,,,,,,,,,,,,,,,13,001,19,w,Psychologie,2023-01-11_09h04.03.547,00_bat_bachelor,2022.2.4,59.88099281817125,
,,,,,,,,,,,,0,0,0,0,10,0,10,0,,,,,,,10,,,1,851.7978694777412,X,l,go,l,1,0.3560196438920684,,,,,,,,,,,,,,,,,13,001,19,w,Psychologie,2023-01-11_09h04.03.547,00_bat_bachelor,2022.2.4,59.88099281817125,
,,,,,,,,,,,,0,0,0,0,11,0,11,0,,,,,,,11,,,1,853.2654284923337,Y,d,go,d,1,0.2962891906790901,,,,,,,,,,,,,,,,,13,001,19,w,Psychologie,2023-01-11_09h04.03.547,00_bat_bachelor,2022.2.4,59.88099281817125,
,,,,,,,,,,,,0,0,0,0,12,0,12,0,,,,,,,12,,,1,854.6669031112106,Y,None,nogo,None,1,,,,,,,,,,,,,,,,,,13,001,19,w,Psychologie,2023-01-11_09h04.03.547,00_bat_bachelor,2022.2.4,59.88099281817125,
,,,,,,,,,,,,0,0,0,0,13,0,13,0,,,,,,,13,,,1,856.4679662874842,X,l,go,l,1,0.27746881791972555,,,,,,,,,,,,,,,,,13,001,19,w,Psychologie,2023-01-11_09h04.03.547,00_bat_bachelor,2022.2.4,59.88099281817125,
,,,,,,,,,,,,0,0,0,0,14,0,14,0,,,,,,,14,,,1,857.8523417465913,Y,d,go,d,1,0.2537020184972789,,,,,,,,,,,,,,,,,13,001,19,w,Psychologie,2023-01-11_09h04.03.547,00_bat_bachelor,2022.2.4,59.88099281817125,
,,,,,,,,,,,,0,0,0,0,15,0,15,0,,,,,,,15,,,1,859.2202706522366,X,l,go,l,1,0.24500092340167612,,,,,,,,,,,,,,,,,13,001,19,w,Psychologie,2023-01-11_09h04.03.547,00_bat_bachelor,2022.2.4,59.88099281817125,
,,,,,,,,,,,,0,0,0,0,16,0,16,0,,,,,,,16,,,1,860.5711168829584,X,None,nogo,None,1,,,,,,,,,,,,,,,,,,13,001,19,w,Psychologie,2023-01-11_09h04.03.547,00_bat_bachelor,2022.2.4,59.88099281817125,
,,,,,,,,,,,,0,0,0,0,17,0,17,0,,,,,,,17,,,1,862.3726818776631,Y,d,go,d,1,0.24526759018772282,,,,,,,,,,,,,,,,,13,001,19,w,Psychologie,2023-01-11_09h04.03.547,00_bat_bachelor,2022.2.4,59.88099281817125,
,,,,,,,,,,,,0,0,0,0,18,0,18,0,,,,,,,18,,,1,863.7237104114902,X,l,go,l,1,0.22164236661046743,,,,,,,,,,,,,,,,,13,001,19,w,Psychologie,2023-01-11_09h04.03.547,00_bat_bachelor,2022.2.4,59.88099281817125,
,,,,,,,,,,,,0,0,0,0,19,0,19,0,,,,,,,19,,,1,865.0580713008821,Y,d,go,d,1,0.1993916891515255,,,,,,,,,,,,,,,,,13,001,19,w,Psychologie,2023-01-11_09h04.03.547,00_bat_bachelor,2022.2.4,59.88099281817125,
,,,,,,,,,,,,0,0,0,0,20,0,20,0,,,,,,,20,,,1,866.3588646588323,Y,None,nogo,l,0,0.21030611867900006,,,,,,,,,,,,,,,,,13,001,19,w,Psychologie,2023-01-11_09h04.03.547,00_bat_bachelor,2022.2.4,59.88099281817125,
,,,,,,,,,,,,0,0,0,0,21,0,21,0,,,,,,,21,,,1,867.676690752327,X,l,go,l,1,0.2216399423778057,,,,,,,,,,,,,,,,,13,001,19,w,Psychologie,2023-01-11_09h04.03.547,00_bat_bachelor,2022.2.4,59.88099281817125,
,,,,,,,,,,,,0,0,0,0,22,0,22,0,,,,,,,22,,,1,869.0110390356567,Y,d,go,d,1,0.3265199931920506,,,,,,,,,,,,,,,,,13,001,19,w,Psychologie,2023-01-11_09h04.03.547,00_bat_bachelor,2022.2.4,59.88099281817125,
,,,,,,,,,,,,0,0,0,0,23,0,23,0,,,,,,,23,,,1,870.4453039734799,Y,None,nogo,l,0,0.25211462381412275,,,,,,,,,,,,,,,,,13,001,19,w,Psychologie,2023-01-11_09h04.03.547,00_bat_bachelor,2022.2.4,59.88099281817125,
,,,,,,,,,,,,0,0,0,0,24,0,24,0,,,,,,,24,,,1,871.8132702125004,X,l,go,l,1,0.22880164280650206,,,,,,,,,,,,,,,,,13,001,19,w,Psychologie,2023-01-11_09h04.03.547,00_bat_bachelor,2022.2.4,59.88099281817125,
,,,,,,,,,,,,0,0,0,0,25,0,25,0,,,,,,,25,,,1,873.1476097685227,Y,d,go,None,0,,,,,,,,,,,,,,,,,,13,001,19,w,Psychologie,2023-01-11_09h04.03.547,00_bat_bachelor,2022.2.4,59.88099281817125,
,,,,,,,,,,,,0,0,0,0,26,0,26,0,,,,,,,26,,,1,874.9489454297873,X,l,go,l,1,0.34037018174421974,,,,,,,,,,,,,,,,,13,001,19,w,Psychologie,2023-01-11_09h04.03.547,00_bat_bachelor,2022.2.4,59.88099281817125,
,,,,,,,,,,,,0,0,0,0,27,0,27,0,,,,,,,27,,,1,876.3999841939367,X,None,nogo,None,1,,,,,,,,,,,,,,,,,,13,001,19,w,Psychologie,2023-01-11_09h04.03.547,00_bat_bachelor,2022.2.4,59.88099281817125,
,,,,,,,,,,,,0,0,0,0,28,0,28,0,,,,,,,28,,,1,878.2014342794719,Y,d,go,d,1,0.27210978502989747,,,,,,,,,,,,,,,,,13,001,19,w,Psychologie,2023-01-11_09h04.03.547,00_bat_bachelor,2022.2.4,59.88099281817125,
,,,,,,,,,,,,0,0,0,0,29,0,29,0,,,,,,,29,,,1,879.5858271931356,X,l,go,l,1,0.2642867509275675,,,,,,,,,,,,,,,,,13,001,19,w,Psychologie,2023-01-11_09h04.03.547,00_bat_bachelor,2022.2.4,59.88099281817125,
,,,,,,,,,,,,0,0,0,0,30,0,30,0,,,,,,,30,,,1,880.9533342804061,Y,d,go,d,1,0.2718179060902912,,,,,,,,,,,,,,,,,13,001,19,w,Psychologie,2023-01-11_09h04.03.547,00_bat_bachelor,2022.2.4,59.88099281817125,
,,,,,,,,,,,,0,0,0,0,31,0,31,0,,,,,,,31,,,1,882.3375836788327,X,l,go,l,1,0.29611803908483125,,,,,,,,,,,,,,,,,13,001,19,w,Psychologie,2023-01-11_09h04.03.547,00_bat_bachelor,2022.2.4,59.88099281817125,
,,,,,,,,,,,,0,0,0,0,32,0,32,0,,,,,,,32,,,1,883.7389244794613,X,None,nogo,None,1,,,,,,,,,,,,,,,,,,13,001,19,w,Psychologie,2023-01-11_09h04.03.547,00_bat_bachelor,2022.2.4,59.88099281817125,
,,,,,,,,,,,,0,0,0,0,33,0,33,0,,,,,,,33,,,1,885.5406131105847,Y,d,go,d,1,0.3569864322489593,,,,,,,,,,,,,,,,,13,001,19,w,Psychologie,2023-01-11_09h04.03.547,00_bat_bachelor,2022.2.4,59.88099281817125,
,,,,,,,,,,,,0,0,0,0,34,0,34,0,,,,,,,34,,,1,887.0083844889014,X,l,go,l,1,0.3936977227567695,,,,,,,,,,,,,,,,,13,001,19,w,Psychologie,2023-01-11_09h04.03.547,00_bat_bachelor,2022.2.4,59.88099281817125,
,,,,,,,,,,,,0,0,0,0,35,0,35,0,,,,,,,35,,,1,888.5095823076845,X,None,nogo,None,1,,,,,889.3100069381762,,,,,,,,,,,,,13,001,19,w,Psychologie,2023-01-11_09h04.03.547,00_bat_bachelor,2022.2.4,59.88099281817125,
,,,,,,,,,,,,0,0,0,0,36,0,36,0,,,,,,,36,,,1,890.3107957870525,Y,d,go,d,1,0.3222232638800051,,,,,,,,,,,,,,,,,13,001,19,w,Psychologie,2023-01-11_09h04.03.547,00_bat_bachelor,2022.2.4,59.88099281817125,
,,,,,,,,,,,,0,0,0,0,37,0,37,0,,,,,,,37,,,1,891.7448561187193,X,l,go,l,1,0.26409523567417637,,,,,,,,,,,,,,,,,13,001,19,w,Psychologie,2023-01-11_09h04.03.547,00_bat_bachelor,2022.2.4,59.88099281817125,
,,,,,,,,,,,,0,0,0,0,38,0,38,0,,,,,,,38,,,1,893.1126133879297,X,None,nogo,l,0,0.5286893033480737,,,,,,,,,,,,,,,,,13,001,19,w,Psychologie,2023-01-11_09h04.03.547,00_bat_bachelor,2022.2.4,59.88099281817125,
,,,,,,,,,,,,0,0,0,0,39,0,39,0,,,,,,,39,,,1,894.7473341805162,Y,d,go,d,1,0.4782456425309647,,,,,,,,,,,,,,,,,13,001,19,w,Psychologie,2023-01-11_09h04.03.547,00_bat_bachelor,2022.2.4,59.88099281817125,
,,,,,,,,,,,,0,0,0,0,40,0,40,0,,,,,,,40,,,1,896.3315579789341,X,l,go,l,1,0.6376129925192799,,,,,,,,,,,,,,,,,13,001,19,w,Psychologie,2023-01-11_09h04.03.547,00_bat_bachelor,2022.2.4,59.88099281817125,
,,,,,,,,,,,,0,0,0,0,41,0,41,0,,,,,,,41,,,1,898.08324028278,X,None,nogo,None,1,,,,,,,,,,,,,,,,,,13,001,19,w,Psychologie,2023-01-11_09h04.03.547,00_bat_bachelor,2022.2.4,59.88099281817125,
,,,,,,,,,,,,0,0,0,0,42,0,42,0,,,,,,,42,,,1,899.8847194592527,Y,d,go,d,1,0.332967511494644,,,,,,,,,,,,,,,,,13,001,19,w,Psychologie,2023-01-11_09h04.03.547,00_bat_bachelor,2022.2.4,59.88099281817125,
,,,,,,,,,,,,0,0,0,0,43,0,43,0,,,,,,,43,,,1,901.3188336091116,X,l,go,l,1,0.290719733457081,,,,,,,,,,,,,,,,,13,001,19,w,Psychologie,2023-01-11_09h04.03.547,00_bat_bachelor,2022.2.4,59.88099281817125,
,,,,,,,,,,,,0,0,0,0,44,0,44,0,,,,,,,44,,,1,902.7199087126646,Y,d,go,d,1,0.3935401469061617,,,,,,,,,,,,,,,,,13,001,19,w,Psychologie,2023-01-11_09h04.03.547,00_bat_bachelor,2022.2.4,59.88099281817125,
,,,,,,,,,,,,0,0,0,0,45,0,45,0,,,,,,,45,,,1,904.2212059254234,X,l,go,l,1,0.42803858791012317,,,,,,,,,,,,,,,,,13,001,19,w,Psychologie,2023-01-11_09h04.03.547,00_bat_bachelor,2022.2.4,59.88099281817125,
,,,,,,,,,,,,0,0,0,0,46,0,46,0,,,,,,,46,,,1,905.7558025482576,Y,d,go,d,1,0.3496269134921022,,,,,,,,,,,,,,,,,13,001,19,w,Psychologie,2023-01-11_09h04.03.547,00_bat_bachelor,2022.2.4,59.88099281817125,
,,,,,,,,,,,,0,0,0,0,47,0,47,0,,,,,,,47,,,1,907.206863615429,X,l,go,l,1,0.40290596964769065,,,,,,,,,,,,,,,,,13,001,19,w,Psychologie,2023-01-11_09h04.03.547,00_bat_bachelor,2022.2.4,59.88099281817125,
,,,,,,,,,,,,0,0,0,0,48,0,48,0,,,,,,,48,,,1,908.7247285938065,Y,d,go,d,1,0.2935560984478798,,,,,,,,,,,,,,,,,13,001,19,w,Psychologie,2023-01-11_09h04.03.547,00_bat_bachelor,2022.2.4,59.88099281817125,
,,,,,,,,,,,,0,0,0,0,49,0,49,0,,,,,,,49,,,1,910.125714970025,Y,None,nogo,None,1,,,,,,,,,,,,,,,,,,13,001,19,w,Psychologie,2023-01-11_09h04.03.547,00_bat_bachelor,2022.2.4,59.88099281817125,
,,,,,,,,,,,,0,0,0,0,50,0,50,0,,,,,,,50,,,1,911.9271776616515,X,l,go,l,1,0.29062324852566235,,,,,,,,,,,,,,,,,13,001,19,w,Psychologie,2023-01-11_09h04.03.547,00_bat_bachelor,2022.2.4,59.88099281817125,
,,,,,,,,,,,,0,0,0,0,51,0,51,0,,,,,,,51,,,1,913.3282125227561,Y,d,go,d,1,0.3290775702043902,,,,,,,,,,,,,,,,,13,001,19,w,Psychologie,2023-01-11_09h04.03.547,00_bat_bachelor,2022.2.4,59.88099281817125,
,,,,,,,,,,,,0,0,0,0,52,0,52,0,,,,,,,52,,,1,914.76261418793,X,l,go,l,1,0.2873839742387645,,,,,,,,,,,,,,,,,13,001,19,w,Psychologie,2023-01-11_09h04.03.547,00_bat_bachelor,2022.2.4,59.88099281817125,
,,,,,,,,,,,,0,0,0,0,53,0,53,0,,,,,,,53,,,1,916.163763958175,X,None,nogo,None,1,,,,,,,,,,,,,,,,,,13,001,19,w,Psychologie,2023-01-11_09h04.03.547,00_bat_bachelor,2022.2.4,59.88099281817125,
,,,,,,,,,,,,0,0,0,0,54,0,54,0,,,,,,,54,,,1,917.965113680053,Y,d,go,d,1,0.2527706241235137,,,,,,,,,,,,,,,,,13,001,19,w,Psychologie,2023-01-11_09h04.03.547,00_bat_bachelor,2022.2.4,59.88099281817125,
,,,,,,,,,,,,0,0,0,0,55,0,55,0,,,,,,,55,,,1,919.3326120400452,X,l,go,l,1,0.24524431745521724,,,,,,,,,,,,,,,,,13,001,19,w,Psychologie,2023-01-11_09h04.03.547,00_bat_bachelor,2022.2.4,59.88099281817125,
,,,,,,,,,,,,0,0,0,0,56,0,56,0,,,,,,,56,,,1,920.6836177859805,X,None,nogo,None,1,,,,,,,,,,,,,,,,,,13,001,19,w,Psychologie,2023-01-11_09h04.03.547,00_bat_bachelor,2022.2.4,59.88099281817125,
,,,,,,,,,,,,0,0,0,0,57,0,57,0,,,,,,,57,,,1,922.4851590231119,Y,d,go,d,1,0.34114836395019665,,,,,,,,,,,,,,,,,13,001,19,w,Psychologie,2023-01-11_09h04.03.547,00_bat_bachelor,2022.2.4,59.88099281817125,
,,,,,,,,,,,,0,0,0,0,58,0,58,0,,,,,,,58,,,1,923.936000453803,X,l,go,l,1,0.39354644998093136,,,,,,,,,,,,,,,,,13,001,19,w,Psychologie,2023-01-11_09h04.03.547,00_bat_bachelor,2022.2.4,59.88099281817125,
,,,,,,,,,,,,0,0,0,0,59,0,59,0,,,,,,,59,,,1,925.4374557272531,X,None,nogo,None,1,,,,,,,,,,,,,,,,,,13,001,19,w,Psychologie,2023-01-11_09h04.03.547,00_bat_bachelor,2022.2.4,59.88099281817125,
,,,,,,,,,,,,0,0,0,0,60,0,60,0,,,,,,,60,,,1,927.2388418127666,Y,d,go,d,1,0.25848165721981786,,,,,,,,,,,,,,,,,13,001,19,w,Psychologie,2023-01-11_09h04.03.547,00_bat_bachelor,2022.2.4,59.88099281817125,
,,,,,,,,,,,,0,0,0,0,61,0,61,0,,,,,,,61,,,1,928.6065772637958,X,l,go,l,1,0.29921525268582627,,,,,,,,,,,,,,,,,13,001,19,w,Psychologie,2023-01-11_09h04.03.547,00_bat_bachelor,2022.2.4,59.88099281817125,
,,,,,,,,,,,,0,0,0,0,62,0,62,0,,,,,,,62,,,1,930.0075815794407,X,None,nogo,None,1,,,,,,,,,,,,,,,,,,13,001,19,w,Psychologie,2023-01-11_09h04.03.547,00_bat_bachelor,2022.2.4,59.88099281817125,
,,,,,,,,,,,,0,0,0,0,63,0,63,0,,,,,,,63,,,1,931.8089865740621,Y,d,go,d,1,0.3606077673030086,,,,,,,,,,,,,,,,,13,001,19,w,Psychologie,2023-01-11_09h04.03.547,00_bat_bachelor,2022.2.4,59.88099281817125,
,,,,,,,,,,,,0,0,0,0,64,0,64,0,,,,,,,64,,,1,933.2765489825688,X,l,go,l,1,0.5415407035325188,,,,,,,,,,,,,,,,,13,001,19,w,Psychologie,2023-01-11_09h04.03.547,00_bat_bachelor,2022.2.4,59.88099281817125,
,,,,,,,,,,,,0,0,0,0,65,0,65,0,,,,,,,65,,,1,934.9281090560544,Y,d,go,d,1,0.31334907773998566,,,,,,,,,,,,,,,,,13,001,19,w,Psychologie,2023-01-11_09h04.03.547,00_bat_bachelor,2022.2.4,59.88099281817125,
,,,,,,,,,,,,0,0,0,0,66,0,66,0,,,,,,,66,,,1,936.3457907130942,X,l,go,l,1,0.3200162324937992,,,,,,,,,,,,,,,,,13,001,19,w,Psychologie,2023-01-11_09h04.03.547,00_bat_bachelor,2022.2.4,59.88099281817125,
,,,,,,,,,,,,0,0,0,0,67,0,67,0,,,,,,,67,,,1,937.7802122570574,X,None,nogo,None,1,,,,,,,,,,,,,,,,,,13,001,19,w,Psychologie,2023-01-11_09h04.03.547,00_bat_bachelor,2022.2.4,59.88099281817125,
,,,,,,,,,,,,0,0,0,0,68,0,68,0,,,,,,,68,,,1,939.5813777364092,Y,d,go,d,1,0.300136465288233,,,,,,,,,,,,,,,,,13,001,19,w,Psychologie,2023-01-11_09h04.03.547,00_bat_bachelor,2022.2.4,59.88099281817125,
,,,,,,,,,,,,0,0,0,0,69,0,69,0,,,,,,,69,,,1,940.9824523551215,X,l,go,l,1,0.4507658716174774,,,,,,,,,,,,,,,,,13,001,19,w,Psychologie,2023-01-11_09h04.03.547,00_bat_bachelor,2022.2.4,59.88099281817125,
,,,,,,,,,,,,0,0,0,0,70,0,70,0,,,,,,,70,,,1,942.5338509255089,Y,d,go,d,1,0.3401578180200886,,,,,,,,,,,,,,,,,13,001,19,w,Psychologie,2023-01-11_09h04.03.547,00_bat_bachelor,2022.2.4,59.88099281817125,
,,,,,,,,,,,,0,0,0,0,71,0,71,0,,,,,,,71,,,1,943.9848775684077,X,l,go,l,1,0.3772565026592929,,,,,,,,,,,,,,,,,13,001,19,w,Psychologie,2023-01-11_09h04.03.547,00_bat_bachelor,2022.2.4,59.88099281817125,
,,,,,,,,,,,,0,0,0,0,72,0,72,0,,,,,,,72,,,1,945.4690906516626,Y,d,go,d,1,0.3641025568940677,,,,,,,,,,,,,,,,,13,001,19,w,Psychologie,2023-01-11_09h04.03.547,00_bat_bachelor,2022.2.4,59.88099281817125,
,,,,,,,,,,,,0,0,0,0,73,0,73,0,,,,,,,73,,,1,946.9371888180322,Y,None,nogo,None,1,,,,,,,,,,,,,,,,,,13,001,19,w,Psychologie,2023-01-11_09h04.03.547,00_bat_bachelor,2022.2.4,59.88099281817125,
,,,,,,,,,,,,0,0,0,0,74,0,74,0,,,,,,,74,,,1,948.7385346610972,X,l,go,l,1,0.279069303534925,,,,,,,,,,,,,,,,,13,001,19,w,Psychologie,2023-01-11_09h04.03.547,00_bat_bachelor,2022.2.4,59.88099281817125,
,,,,,,,,,,,,0,0,0,0,75,0,75,0,,,,,,,75,,,1,950.1228931504884,Y,d,go,d,1,0.2705597236636095,,,,,,,,,,,,,,,,,13,001,19,w,Psychologie,2023-01-11_09h04.03.547,00_bat_bachelor,2022.2.4,59.88099281817125,
,,,,,,,,,,,,0,0,0,0,76,0,76,0,,,,,,,76,,,1,951.5071066701203,X,l,go,l,1,0.24711340927751735,,,,,,,,,,,,,,,,,13,001,19,w,Psychologie,2023-01-11_09h04.03.547,00_bat_bachelor,2022.2.4,59.88099281817125,
,,,,,,,,,,,,0,0,0,0,77,0,77,0,,,,,,,77,,,1,952.8590137498104,X,None,nogo,None,1,,,,,953.6598466229625,,,,,,,,,,,,,13,001,19,w,Psychologie,2023-01-11_09h04.03.547,00_bat_bachelor,2022.2.4,59.88099281817125,
,,,,,,,,,,,,0,0,0,0,78,0,78,0,,,,,,,78,,,1,954.6602378958778,Y,d,go,d,1,0.24463340805959888,,,,,,,,,,,,,,,,,13,001,19,w,Psychologie,2023-01-11_09h04.03.547,00_bat_bachelor,2022.2.4,59.88099281817125,
,,,,,,,,,,,,0,0,0,0,79,0,79,0,,,,,,,79,,,1,956.0445866882801,X,l,go,l,1,0.22019266893039457,,,,,,,,,,,,,,,,,13,001,19,w,Psychologie,2023-01-11_09h04.03.547,00_bat_bachelor,2022.2.4,59.88099281817125,
,,,,,,,,,,,,0,0,0,0,80,0,80,0,,,,,,,80,,,1,957.395583706937,X,None,nogo,d,0,0.23001424947869964,,,,,,,,,,,,,,,,,13,001,19,w,Psychologie,2023-01-11_09h04.03.547,00_bat_bachelor,2022.2.4,59.88099281817125,
,,,,,,,,,,,,0,0,0,0,81,0,81,0,,,,,,,81,,,1,958.7296881113434,Y,d,go,d,1,0.24094225474982522,,,,,,,,,,,,,,,,,13,001,19,w,Psychologie,2023-01-11_09h04.03.547,00_bat_bachelor,2022.2.4,59.88099281817125,
,,,,,,,,,,,,0,0,0,0,82,0,82,0,,,,,,,82,,,1,960.0802046449389,X,l,go,l,1,0.2498290469229687,,,,,,,,,,,,,,,,,13,001,19,w,Psychologie,2023-01-11_09h04.03.547,00_bat_bachelor,2022.2.4,59.88099281817125,
,,,,,,,,,,,,0,0,0,0,83,0,83,0,,,,,,,83,,,1,961.4315473607567,X,None,nogo,None,1,,,,,,,,,,,,,,,,,,13,001,19,w,Psychologie,2023-01-11_09h04.03.547,00_bat_bachelor,2022.2.4,59.88099281817125,
,,,,,,,,,,,,0,0,0,0,84,0,84,0,,,,,,,84,,,1,963.233000840235,Y,d,go,d,1,0.32962205531657673,,,,,,,,,,,,,,,,,13,001,19,w,Psychologie,2023-01-11_09h04.03.547,00_bat_bachelor,2022.2.4,59.88099281817125,
,,,,,,,,,,,,0,0,0,0,85,0,85,0,,,,,,,85,,,1,964.6673564447847,X,l,go,l,1,0.39852778569911607,,,,,,,,,,,,,,,,,13,001,19,w,Psychologie,2023-01-11_09h04.03.547,00_bat_bachelor,2022.2.4,59.88099281817125,
,,,,,,,,,,,,0,0,0,0,86,0,86,0,,,,,,,86,,,1,966.1681678391178,Y,d,go,d,1,0.3377316350233741,,,,,,,,,,,,,,,,,13,001,19,w,Psychologie,2023-01-11_09h04.03.547,00_bat_bachelor,2022.2.4,59.88099281817125,
,,,,,,,,,,,,0,0,0,0,87,0,87,0,,,,,,,87,,,1,967.6196313307155,Y,None,nogo,l,0,0.3744996528548654,,,,,,,,,,,,,,,,,13,001,19,w,Psychologie,2023-01-11_09h04.03.547,00_bat_bachelor,2022.2.4,59.88099281817125,
,,,,,,,,,,,,0,0,0,0,88,0,88,0,,,,,,,88,,,1,969.1040781110642,X,l,go,l,1,0.2500598349433858,,,,,,,,,,,,,,,,,13,001,19,w,Psychologie,2023-01-11_09h04.03.547,00_bat_bachelor,2022.2.4,59.88099281817125,
,,,,,,,,,,,,0,0,0,0,89,0,89,0,,,,,,,89,,,1,970.4549049478373,Y,d,go,d,1,0.3551144313241821,,,,,,,,,,,,,,,,,13,001,19,w,Psychologie,2023-01-11_09h04.03.547,00_bat_bachelor,2022.2.4,59.88099281817125,
,,,,,,,,,,,,0,0,0,0,90,0,90,0,,,,,,,90,,,1,971.9228692959296,X,l,go,l,1,0.3592429181735497,,,,,,,,,,,,,,,,,13,001,19,w,Psychologie,2023-01-11_09h04.03.547,00_bat_bachelor,2022.2.4,59.88099281817125,
,,,,,,,,,,,,0,0,0,0,91,0,91,0,,,,,,,91,,,1,973.3906998257735,Y,d,go,d,1,0.3951265719369985,,,,,,,,,,,,,,,,,13,001,19,w,Psychologie,2023-01-11_09h04.03.547,00_bat_bachelor,2022.2.4,59.88099281817125,
,,,,,,,,,,,,0,0,0,0,92,0,92,0,,,,,,,92,,,1,974.8917764323705,Y,None,nogo,None,1,,,,,,,,,,,,,,,,,,13,001,19,w,Psychologie,2023-01-11_09h04.03.547,00_bat_bachelor,2022.2.4,59.88099281817125,
,,,,,,,,,,,,0,0,0,0,93,0,93,0,,,,,,,93,,,1,976.6931460330379,X,l,go,l,1,0.29288361326325685,,,,,,,,,,,,,,,,,13,001,19,w,Psychologie,2023-01-11_09h04.03.547,00_bat_bachelor,2022.2.4,59.88099281817125,
,,,,,,,,,,,,0,0,0,0,94,0,94,0,,,,,,,94,,,1,978.094202227483,Y,d,go,d,1,0.2993005860771518,,,,,,,,,,,,,,,,,13,001,19,w,Psychologie,2023-01-11_09h04.03.547,00_bat_bachelor,2022.2.4,59.88099281817125,
,,,,,,,,,,,,0,0,0,0,95,0,95,0,,,,,,,95,,,1,979.495255027985,X,l,go,l,1,0.24259704342694022,,,,,,,,,,,,,,,,,13,001,19,w,Psychologie,2023-01-11_09h04.03.547,00_bat_bachelor,2022.2.4,59.88099281817125,
,,,,,,,,,,,,0,0,0,0,96,0,96,0,,,,,,,96,,,1,980.8463761679304,Y,d,go,d,1,0.34731466995435767,,,,,,,,,,,,,,,,,13,001,19,w,Psychologie,2023-01-11_09h04.03.547,00_bat_bachelor,2022.2.4,59.88099281817125,
,,,,,,,,,,,,0,0,0,0,97,0,97,0,,,,,,,97,,,1,982.2974915381637,X,l,go,l,1,0.5445792504760902,,,,,,,,,,,,,,,,,13,001,19,w,Psychologie,2023-01-11_09h04.03.547,00_bat_bachelor,2022.2.4,59.88099281817125,
,,,,,,,,,,,,0,0,0,0,98,0,98,0,,,,,,,98,,,1,983.9488460358116,X,None,nogo,None,1,,,,,,,,,,,,,,,,,,13,001,19,w,Psychologie,2023-01-11_09h04.03.547,00_bat_bachelor,2022.2.4,59.88099281817125,
,,,,,,,,,,,,0,0,0,0,99,0,99,0,,,,,,,99,,,1,985.7500764848664,Y,d,go,d,1,0.5634277444332838,,,,,,,,,,,,,,,,,13,001,19,w,Psychologie,2023-01-11_09h04.03.547,00_bat_bachelor,2022.2.4,59.88099281817125,
,,,,,,,,,,,,0,0,0,0,100,0,100,0,,,,,,,100,,,1,987.4181267481763,X,l,go,l,1,0.3198974445404019,,,,,,,,,,,,,,,,,13,001,19,w,Psychologie,2023-01-11_09h04.03.547,00_bat_bachelor,2022.2.4,59.88099281817125,
,,,,,,,,,,,,0,0,0,0,101,0,101,0,,,,,,,101,,,1,988.8523112011026,Y,d,go,d,1,0.342255758412648,,,,,,,,,,,,,,,,,13,001,19,w,Psychologie,2023-01-11_09h04.03.547,00_bat_bachelor,2022.2.4,59.88099281817125,
,,,,,,,,,,,,0,0,0,0,102,0,102,0,,,,,,,102,,,1,990.3036045108456,X,l,go,l,1,0.4106936097959988,,,,,,,,,,,,,,,,,13,001,19,w,Psychologie,2023-01-11_09h04.03.547,00_bat_bachelor,2022.2.4,59.88099281817125,
,,,,,,,,,,,,0,0,0,0,103,0,103,0,,,,,,,103,,,1,991.8214442770695,Y,d,go,d,1,0.4130688836739864,,,,,,,,,,,,,,,,,13,001,19,w,Psychologie,2023-01-11_09h04.03.547,00_bat_bachelor,2022.2.4,59.88099281817125,
,,,,,,,,,,,,0,0,0,0,104,0,104,0,,,,,,,104,,,1,993.3392374977993,Y,None,nogo,None,1,,,,,994.139878855698,,,,,,,,,,,,,13,001,19,w,Psychologie,2023-01-11_09h04.03.547,00_bat_bachelor,2022.2.4,59.88099281817125,
,,,,,,,,,,,,0,0,0,0,105,0,105,0,,,,,,,105,,,1,995.1405765530071,X,l,go,l,1,0.4376570167951286,,,,,,,,,,,,,,,,,13,001,19,w,Psychologie,2023-01-11_09h04.03.547,00_bat_bachelor,2022.2.4,59.88099281817125,
,,,,,,,,,,,,0,0,0,0,106,0,106,0,,,,,,,106,,,1,996.6918379111739,Y,d,go,d,1,0.3422140614420641,,,,,,,,,,,,,,,,,13,001,19,w,Psychologie,2023-01-11_09h04.03.547,00_bat_bachelor,2022.2.4,59.88099281817125,
,,,,,,,,,,,,0,0,0,0,107,0,107,0,,,,,,,107,,,1,998.1429430996068,X,l,go,None,0,,,,,,,,,,,,,,,,,,13,001,19,w,Psychologie,2023-01-11_09h04.03.547,00_bat_bachelor,2022.2.4,59.88099281817125,
,,,,,,,,,,,,0,0,0,0,108,0,108,0,,,,,,,108,,,1,999.9442501547746,Y,d,go,d,1,0.38558038548217155,,,,,,,,,,,,,,,,,13,001,19,w,Psychologie,2023-01-11_09h04.03.547,00_bat_bachelor,2022.2.4,59.88099281817125,
,,,,,,,,,,,,0,0,0,0,109,0,109,0,,,,,,,109,,,1,1001.445363609877,X,l,go,l,1,0.32472944690380245,,,,,,,,,,,,,,,,,13,001,19,w,Psychologie,2023-01-11_09h04.03.547,00_bat_bachelor,2022.2.4,59.88099281817125,
,,,,,,,,,,,,0,0,0,0,110,0,110,0,,,,,,,110,,,1,1002.8798811538727,Y,d,go,d,1,0.39375348036992364,,,,,,,,,,,,,,,,,13,001,19,w,Psychologie,2023-01-11_09h04.03.547,00_bat_bachelor,2022.2.4,59.88099281817125,
,,,,,,,,,,,,0,0,0,0,111,0,111,0,,,,,,,111,,,1,1004.3809233361972,Y,None,nogo,None,1,,,,,1005.1813101485022,,,,,,,,,,,,,13,001,19,w,Psychologie,2023-01-11_09h04.03.547,00_bat_bachelor,2022.2.4,59.88099281817125,
,,,,,,,,,,,,0,0,0,0,112,0,112,0,,,,,,,112,,,1,1006.1821712398378,Y,None,nogo,None,1,,,,,,,,,,,,,,,,,,13,001,19,w,Psychologie,2023-01-11_09h04.03.547,00_bat_bachelor,2022.2.4,59.88099281817125,
,,,,,,,,,,,,0,0,0,0,113,0,113,0,,,,,,,113,,,1,1007.9837032648211,X,l,go,l,1,0.3469684879819397,,,,,,,,,,,,,,,,,13,001,19,w,Psychologie,2023-01-11_09h04.03.547,00_bat_bachelor,2022.2.4,59.88099281817125,
,,,,,,,,,,,,0,0,0,0,114,0,114,0,,,,,,,114,,,1,1009.4345141500526,Y,d,go,d,1,0.31938592914957553,,,,,,,,,,,,,,,,,13,001,19,w,Psychologie,2023-01-11_09h04.03.547,00_bat_bachelor,2022.2.4,59.88099281817125,
,,,,,,,,,,,,0,0,0,0,115,0,115,0,,,,,,,115,,,1,1010.8693163002608,X,l,go,l,1,0.3567876442684792,,,,,,,,,,,,,,,,,13,001,19,w,Psychologie,2023-01-11_09h04.03.547,00_bat_bachelor,2022.2.4,59.88099281817125,
,,,,,,,,,,,,0,0,0,0,116,0,116,0,,,,,,,116,,,1,1012.3370993149583,X,None,nogo,None,1,,,,,,,,,,,,,,,,,,13,001,19,w,Psychologie,2023-01-11_09h04.03.547,00_bat_bachelor,2022.2.4,59.88099281817125,
,,,,,,,,,,,,0,0,0,0,117,0,117,0,,,,,,,117,,,1,1014.1384664913639,Y,d,go,d,1,0.2388103749253787,,,,,,,,,,,,,,,,,13,001,19,w,Psychologie,2023-01-11_09h04.03.547,00_bat_bachelor,2022.2.4,59.88099281817125,
,,,,,,,,,,,,0,0,0,0,118,0,118,0,,,,,,,118,,,1,1015.4894513888285,X,l,go,l,1,0.313163380662445,,,,,,,,,,,,,,,,,13,001,19,w,Psychologie,2023-01-11_09h04.03.547,00_bat_bachelor,2022.2.4,59.88099281817125,
,,,,,,,,,,,,0,0,0,0,119,0,119,0,,,,,,,119,,,1,1016.9072736520029,X,None,nogo,None,1,,,,,,,,,,,,,,,,,,13,001,19,w,Psychologie,2023-01-11_09h04.03.547,00_bat_bachelor,2022.2.4,59.88099281817125,
,,,,,,,,,,,,0,0,0,0,120,0,120,0,,,,,,,120,,,1,1018.7085807071708,Y,d,go,d,1,0.2610891736112535,,,,,,,,,,,,,,,,,13,001,19,w,Psychologie,2023-01-11_09h04.03.547,00_bat_bachelor,2022.2.4,59.88099281817125,
,,,,,,,,,,,,0,0,0,0,121,0,121,0,,,,,,,121,,,1,1020.0763753097563,X,l,go,l,1,0.3822116565715987,,,,,,,,,,,,,,,,,13,001,19,w,Psychologie,2023-01-11_09h04.03.547,00_bat_bachelor,2022.2.4,59.88099281817125,
,,,,,,,,,,,,0,0,0,0,122,0,122,0,,,,,,,122,,,1,1021.5607954234001,X,None,nogo,None,1,,,,,,,,,,,,,,,,,,13,001,19,w,Psychologie,2023-01-11_09h04.03.547,00_bat_bachelor,2022.2.4,59.88099281817125,
,,,,,,,,,,,,0,0,0,0,123,0,123,0,,,,,,,123,,,1,1023.3618362966517,Y,d,go,d,1,0.3115415617066901,,,,,,,,,,,,,,,,,13,001,19,w,Psychologie,2023-01-11_09h04.03.547,00_bat_bachelor,2022.2.4,59.88099281817125,
,,,,,,,,,,,,0,0,0,0,124,0,124,0,,,,,,,124,,,1,1024.779886438715,X,l,go,l,1,0.4613748464907985,,,,,,,,,,,,,,,,,13,001,19,w,Psychologie,2023-01-11_09h04.03.547,00_bat_bachelor,2022.2.4,59.88099281817125,
,,,,,,,,,,,,0,0,0,0,125,0,125,0,,,,,,,125,,,1,1026.3477499867731,Y,d,go,d,1,0.22198660919093527,,,,,,,,,,,,,,,,,13,001,19,w,Psychologie,2023-01-11_09h04.03.547,00_bat_bachelor,2022.2.4,59.88099281817125,
,,,,,,,,,,,,0,0,0,0,126,0,126,0,,,,,,,126,,,1,1027.682148209511,Y,None,nogo,None,1,,,,,,,,,,,,,,,,,,13,001,19,w,Psychologie,2023-01-11_09h04.03.547,00_bat_bachelor,2022.2.4,59.88099281817125,
,,,,,,,,,,,,0,0,0,0,127,0,127,0,,,,,,,127,,,1,1029.4831507797062,X,l,go,l,1,0.33477648205007426,,,,,,,,,,,,,,,,,13,001,19,w,Psychologie,2023-01-11_09h04.03.547,00_bat_bachelor,2022.2.4,59.88099281817125,
,,,,,,,,,,,,0,0,0,0,128,0,128,0,,,,,,,128,,,1,1030.9343781500065,Y,d,go,d,1,0.2917699157842435,,,,,,,,,,,,,,,,,13,001,19,w,Psychologie,2023-01-11_09h04.03.547,00_bat_bachelor,2022.2.4,59.88099281817125,
,,,,,,,,,,,,0,0,0,0,129,0,129,0,,,,,,,129,,,1,1032.3357121627778,X,l,go,l,1,0.3309020559536293,,,,,,,,,,,,,,,,,13,001,19,w,Psychologie,2023-01-11_09h04.03.547,00_bat_bachelor,2022.2.4,59.88099281817125,
,,,,,,,,,,,,0,0,0,0,130,0,130,0,,,,,,,130,,,1,1033.7700692218496,X,None,nogo,d,0,0.30419561875169165,,,,,,,,,,,,,,,,,13,001,19,w,Psychologie,2023-01-11_09h04.03.547,00_bat_bachelor,2022.2.4,59.88099281817125,
,,,,,,,,,,,,0,0,0,0,131,0,131,0,,,,,,,131,,,1,1035.18757439396,Y,d,go,d,1,0.16613106697332114,,,,,,,,,,,,,,,,,13,001,19,w,Psychologie,2023-01-11_09h04.03.547,00_bat_bachelor,2022.2.4,59.88099281817125,
,,,,,,,,,,,,0,0,0,0,132,0,132,0,,,,,,,132,,,1,1036.4554722208413,X,l,go,l,1,0.2908026425575372,,,,,,,,,,,,,,,,,13,001,19,w,Psychologie,2023-01-11_09h04.03.547,00_bat_bachelor,2022.2.4,59.88099281817125,
,,,,,,,,,,,,0,0,0,0,133,0,133,0,,,,,,,133,,,1,1037.856603566819,X,None,nogo,None,1,,,,,,,,,,,,,,,,,,13,001,19,w,Psychologie,2023-01-11_09h04.03.547,00_bat_bachelor,2022.2.4,59.88099281817125,
,,,,,,,,,,,,0,0,0,0,134,0,134,0,,,,,,,134,,,1,1039.6575707430602,Y,d,go,d,1,0.27235463363467716,,,,,,,,,,,,,,,,,13,001,19,w,Psychologie,2023-01-11_09h04.03.547,00_bat_bachelor,2022.2.4,59.88099281817125,
,,,,,,,,,,,,0,0,0,0,135,0,135,0,,,,,,,135,,,1,1041.0422405053105,X,l,go,l,1,0.2961165845335927,,,,,,,,,,,,,,,,,13,001,19,w,Psychologie,2023-01-11_09h04.03.547,00_bat_bachelor,2022.2.4,59.88099281817125,
,,,,,,,,,,,,0,0,0,0,136,0,136,0,,,,,,,136,,,1,1042.44317645728,X,None,nogo,None,1,,,,,,,,,,,,,,,,,,13,001,19,w,Psychologie,2023-01-11_09h04.03.547,00_bat_bachelor,2022.2.4,59.88099281817125,
,,,,,,,,,,,,0,0,0,0,137,0,137,0,,,,,,,137,,,1,1044.2447375732008,Y,d,go,d,1,0.24513474164996296,,,,,,,,,,,,,,,,,13,001,19,w,Psychologie,2023-01-11_09h04.03.547,00_bat_bachelor,2022.2.4,59.88099281817125,
,,,,,,,,,,,,0,0,0,0,138,0,138,0,,,,,,,138,,,1,1045.595749137341,X,l,go,l,1,0.3979285126843024,,,,,,,,,,,,,,,,,13,001,19,w,Psychologie,2023-01-11_09h04.03.547,00_bat_bachelor,2022.2.4,59.88099281817125,
,,,,,,,,,,,,0,0,0,0,139,0,139,0,,,,,,,139,,,1,1047.0967055014335,Y,d,go,d,1,0.25661886841407977,,,,,,,,,,,,,,,,,13,001,19,w,Psychologie,2023-01-11_09h04.03.547,00_bat_bachelor,2022.2.4,59.88099281817125,
,,,,,,,,,,,,0,0,0,0,140,0,140,0,,,,,,,140,,,1,1048.4646722252946,Y,None,nogo,None,1,,,,,,,,,,,,,,,,,,13,001,19,w,Psychologie,2023-01-11_09h04.03.547,00_bat_bachelor,2022.2.4,59.88099281817125,
,,,,,,,,,,,,0,0,0,0,141,0,141,0,,,,,,,141,,,1,1050.266021462303,X,l,go,l,1,0.23989401184371673,,,,,,,,,,,,,,,,,13,001,19,w,Psychologie,2023-01-11_09h04.03.547,00_bat_bachelor,2022.2.4,59.88099281817125,
,,,,,,,,,,,,0,0,0,0,142,0,142,0,,,,,,,142,,,1,1051.6170412688516,Y,d,go,d,1,0.31243610760429874,,,,,,,,,,,,,,,,,13,001,19,w,Psychologie,2023-01-11_09h04.03.547,00_bat_bachelor,2022.2.4,59.88099281817125,
,,,,,,,,,,,,0,0,0,0,143,0,143,0,,,,,,,143,,,1,1053.0347384410852,X,l,go,l,1,0.3187468985270243,,,,,,,,,,,,,,,,,13,001,19,w,Psychologie,2023-01-11_09h04.03.547,00_bat_bachelor,2022.2.4,59.88099281817125,
,,,,,,,,,,,,0,0,0,0,144,0,144,0,,,,,,,144,,,1,1054.4692375608429,Y,d,go,d,1,0.292578643449815,,,,,,,,,,,,,,,,,13,001,19,w,Psychologie,2023-01-11_09h04.03.547,00_bat_bachelor,2022.2.4,59.88099281817125,
,,,,,,,,,,,,0,0,0,0,145,0,145,0,,,,,,,145,,,1,1055.869937391486,Y,None,nogo,None,1,,,,,1056.670695597917,,,,,,,,,,,,,13,001,19,w,Psychologie,2023-01-11_09h04.03.547,00_bat_bachelor,2022.2.4,59.88099281817125,
,,,,,,,,,,,,0,0,0,0,146,0,146,0,,,,,,,146,,,1,1057.671604204399,X,l,go,l,1,0.27385669498471543,,,,,,,,,,,,,,,,,13,001,19,w,Psychologie,2023-01-11_09h04.03.547,00_bat_bachelor,2022.2.4,59.88099281817125,
,,,,,,,,,,,,0,0,0,0,147,0,147,0,,,,,,,147,,,1,1059.056030087755,Y,d,go,d,1,0.2977282216597814,,,,,,,,,,,,,,,,,13,001,19,w,Psychologie,2023-01-11_09h04.03.547,00_bat_bachelor,2022.2.4,59.88099281817125,
,,,,,,,,,,,,0,0,0,0,148,0,148,0,,,,,,,148,,,1,1060.456862766965,X,l,go,l,1,0.3376123622292653,,,,,,,,,,,,,,,,,13,001,19,w,Psychologie,2023-01-11_09h04.03.547,00_bat_bachelor,2022.2.4,59.88099281817125,
,,,,,,,,,,,,0,0,0,0,149,0,149,0,,,,,,,149,,,1,1061.9080038341635,X,None,nogo,d,0,0.2298033402475994,,,,,,,,,,,,,,,,,13,001,19,w,Psychologie,2023-01-11_09h04.03.547,00_bat_bachelor,2022.2.4,59.88099281817125,
,,,,,,,,,,,,0,0,0,0,150,0,150,0,,,,,,,150,,,1,1063.242360359931,Y,d,go,d,1,0.19129762463853694,,,,,,,,,,,,,,,,,13,001,19,w,Psychologie,2023-01-11_09h04.03.547,00_bat_bachelor,2022.2.4,59.88099281817125,
,,,,,,,,,,,,0,0,0,0,151,0,151,0,,,,,,,151,,,1,1064.543555172626,X,l,go,l,1,0.5549002251646016,,,,,,,,,,,,,,,,,13,001,19,w,Psychologie,2023-01-11_09h04.03.547,00_bat_bachelor,2022.2.4,59.88099281817125,
,,,,,,,,,,,,0,0,0,0,152,0,152,0,,,,,,,152,,,1,1066.211170041759,Y,d,go,d,1,0.34311103157233447,,,,,,,,,,,,,,,,,13,001,19,w,Psychologie,2023-01-11_09h04.03.547,00_bat_bachelor,2022.2.4,59.88099281817125,
,,,,,,,,,,,,0,0,0,0,153,0,153,0,,,,,,,153,,,1,1067.6627406849584,Y,None,nogo,None,1,,,,,,,,,,,,,,,,,,13,001,19,w,Psychologie,2023-01-11_09h04.03.547,00_bat_bachelor,2022.2.4,59.88099281817125,
,,,,,,,,,,,,0,0,0,0,154,0,154,0,,,,,,,154,,,1,1069.463955134037,X,l,go,l,1,0.22619073244277388,,,,,,,,,,,,,,,,,13,001,19,w,Psychologie,2023-01-11_09h04.03.547,00_bat_bachelor,2022.2.4,59.88099281817125,
,,,,,,,,,,,,0,0,0,0,155,0,155,0,,,,,,,155,,,1,1070.797996992973,Y,d,go,d,1,0.3322528444987256,,,,,,,,,,,,,,,,,13,001,19,w,Psychologie,2023-01-11_09h04.03.547,00_bat_bachelor,2022.2.4,59.88099281817125,
,,,,,,,,,,,,0,0,0,0,156,0,156,0,,,,,,,156,,,1,1072.232683749171,X,l,go,l,1,0.3533394001715351,,,,,,,,,,,,,,,,,13,001,19,w,Psychologie,2023-01-11_09h04.03.547,00_bat_bachelor,2022.2.4,59.88099281817125,
,,,,,,,,,,,,0,0,0,0,157,0,157,0,,,,,,,157,,,1,1073.700417309301,Y,d,go,d,1,0.3257005988853052,,,,,,,,,,,,,,,,,13,001,19,w,Psychologie,2023-01-11_09h04.03.547,00_bat_bachelor,2022.2.4,59.88099281817125,
,,,,,,,,,,,,0,0,0,0,158,0,158,0,,,,,,,158,,,1,1075.1347350956348,X,l,go,l,1,0.33078375287004746,,,,,,,,,,,,,,,,,13,001,19,w,Psychologie,2023-01-11_09h04.03.547,00_bat_bachelor,2022.2.4,59.88099281817125,
,,,,,,,,,,,,0,0,0,0,159,0,159,0,,,,,,,159,,,1,1076.569244397193,X,None,nogo,None,1,,,,,,,,,,,,,,,,,,13,001,19,w,Psychologie,2023-01-11_09h04.03.547,00_bat_bachelor,2022.2.4,59.88099281817125,
,,,,,,,,,,,,0,0,0,0,160,0,160,0,,,,,,,160,,,1,1078.370776907046,Y,d,go,d,1,0.3755983200389892,,,,,,,,,,,,,,,,,13,001,19,w,Psychologie,2023-01-11_09h04.03.547,00_bat_bachelor,2022.2.4,59.88099281817125,
,,,,,,,,,,,,0,0,0,0,161,0,161,0,,,,,,,161,,,1,1079.8549846569658,X,l,go,l,1,0.2986208281654399,,,,,,,,,,,,,,,,,13,001,19,w,Psychologie,2023-01-11_09h04.03.547,00_bat_bachelor,2022.2.4,59.88099281817125,
,,,,,,,,,,,,0,0,0,0,162,0,162,0,,,,,,,162,,,1,1081.2562857000157,X,None,nogo,None,1,,,,,,,,,,,,,,,,,,13,001,19,w,Psychologie,2023-01-11_09h04.03.547,00_bat_bachelor,2022.2.4,59.88099281817125,
,,,,,,,,,,,,0,0,0,0,163,0,163,0,,,,,,,163,,,1,1083.057659179467,Y,d,go,d,1,0.3446169716771692,,,,,,,,,,,,,,,,,13,001,19,w,Psychologie,2023-01-11_09h04.03.547,00_bat_bachelor,2022.2.4,59.88099281817125,
,,,,,,,,,,,,0,0,0,0,164,0,164,0,,,,,,,164,,,1,1084.5088288527622,X,l,go,l,1,0.23732382874004543,,,,,,,,,,,,,,,,,13,001,19,w,Psychologie,2023-01-11_09h04.03.547,00_bat_bachelor,2022.2.4,59.88099281817125,
,,,,,,,,,,,,0,0,0,0,165,0,165,0,,,,,,,165,,,1,1085.8598345986975,X,None,nogo,None,1,,,,,,,,,,,,,,,,,,13,001,19,w,Psychologie,2023-01-11_09h04.03.547,00_bat_bachelor,2022.2.4,59.88099281817125,
,,,,,,,,,,,,0,0,0,0,166,0,166,0,,,,,,,166,,,1,1087.6612342599838,Y,d,go,d,1,0.25261692708591,,,,,,,,,,,,,,,,,13,001,19,w,Psychologie,2023-01-11_09h04.03.547,00_bat_bachelor,2022.2.4,59.88099281817125,
,,,,,,,,,,,,0,0,0,0,167,0,167,0,,,,,,,167,,,1,1089.0287088624027,X,l,go,l,1,0.29247731005307287,,,,,,,,,,,,,,,,,13,001,19,w,Psychologie,2023-01-11_09h04.03.547,00_bat_bachelor,2022.2.4,59.88099281817125,
,,,,,,,,,,,,0,0,0,0,168,0,168,0,,,,,,,168,,,1,1090.4296399658779,X,None,nogo,None,1,,,,,,,,,,,,,,,,,,13,001,19,w,Psychologie,2023-01-11_09h04.03.547,00_bat_bachelor,2022.2.4,59.88099281817125,
,,,,,,,,,,,,0,0,0,0,169,0,169,0,,,,,,,169,,,1,1092.2311773241963,Y,d,go,d,1,0.3386567263805773,,,,,,,,,,,,,,,,,13,001,19,w,Psychologie,2023-01-11_09h04.03.547,00_bat_bachelor,2022.2.4,59.88099281817125,
,,,,,,,,,,,,0,0,0,0,170,0,170,0,,,,,,,170,,,1,1093.682247118646,X,l,go,l,1,0.4073879112256691,,,,,,,,,,,,,,,,,13,001,19,w,Psychologie,2023-01-11_09h04.03.547,00_bat_bachelor,2022.2.4,59.88099281817125,
,,,,,,,,,,,,0,0,0,0,171,0,171,0,,,,,,,171,,,1,1095.2002992486232,X,None,nogo,None,1,,,,,,,,,,,,,,,,,,13,001,19,w,Psychologie,2023-01-11_09h04.03.547,00_bat_bachelor,2022.2.4,59.88099281817125,
,,,,,,,,,,,,0,0,0,0,172,0,172,0,,,,,,,172,,,1,1097.001692122023,Y,d,go,d,1,0.28786348964786157,,,,,,,,,,,,,,,,,13,001,19,w,Psychologie,2023-01-11_09h04.03.547,00_bat_bachelor,2022.2.4,59.88099281817125,
,,,,,,,,,,,,0,0,0,0,173,0,173,0,,,,,,,173,,,1,1098.4023517102178,X,l,go,l,1,0.29469306868850254,,,,,,,,,,,,,,,,,13,001,19,w,Psychologie,2023-01-11_09h04.03.547,00_bat_bachelor,2022.2.4,59.88099281817125,
,,,,,,,,,,,,0,0,0,0,174,0,174,0,,,,,,,174,,,1,1099.803812753351,Y,d,go,d,1,0.3820215958694462,,,,,,,,,,,,,,,,,13,001,19,w,Psychologie,2023-01-11_09h04.03.547,00_bat_bachelor,2022.2.4,59.88099281817125,
,,,,,,,,,,,,0,0,0,0,175,0,175,0,,,,,,,175,,,1,1101.2882057154784,X,l,go,l,1,0.354191279358929,,,,,,,,,,,,,,,,,13,001,19,w,Psychologie,2023-01-11_09h04.03.547,00_bat_bachelor,2022.2.4,59.88099281817125,
,,,,,,,,,,,,0,0,0,0,176,0,176,0,,,,,,,176,,,1,1102.7560265483626,X,None,nogo,d,0,0.31036628840956837,,,,,,,,,,,,,,,,,13,001,19,w,Psychologie,2023-01-11_09h04.03.547,00_bat_bachelor,2022.2.4,59.88099281817125,
,,,,,,,,,,,,0,0,0,0,177,0,177,0,,,,,,,177,,,1,1104.1738182660774,Y,d,go,d,1,0.22024018413503654,,,,,,,,,,,,,,,,,13,001,19,w,Psychologie,2023-01-11_09h04.03.547,00_bat_bachelor,2022.2.4,59.88099281817125,
,,,,,,,,,,,,0,0,0,0,178,0,178,0,,,,,,,178,,,1,1105.5081495796912,X,l,go,l,1,0.42237894877325743,,,,,,,,,,,,,,,,,13,001,19,w,Psychologie,2023-01-11_09h04.03.547,00_bat_bachelor,2022.2.4,59.88099281817125,
,,,,,,,,,,,,0,0,0,0,179,0,179,0,,,,,,,179,,,1,1107.0423112932476,Y,d,go,d,1,0.3438989107089583,,,,,,,,,,,,,,,,,13,001,19,w,Psychologie,2023-01-11_09h04.03.547,00_bat_bachelor,2022.2.4,59.88099281817125,
,,,,,,,,,,,,0,0,0,0,180,0,180,0,,,,,,,180,,,1,1108.4933999968052,Y,None,nogo,None,1,,,,,,,,,,,,,,,,,,13,001,19,w,Psychologie,2023-01-11_09h04.03.547,00_bat_bachelor,2022.2.4,59.88099281817125,
,,,,,,,,,,,,0,0,0,0,181,0,181,0,,,,,,,181,,,1,1110.2948971126752,X,l,go,l,1,0.32260435493662953,,,,,,,,,,,,,,,,,13,001,19,w,Psychologie,2023-01-11_09h04.03.547,00_bat_bachelor,2022.2.4,59.88099281817125,
,,,,,,,,,,,,0,0,0,0,182,0,182,0,,,,,,,182,,,1,1111.729592111311,Y,d,go,d,1,0.3440109107759781,,,,,,,,,,,,,,,,,13,001,19,w,Psychologie,2023-01-11_09h04.03.547,00_bat_bachelor,2022.2.4,59.88099281817125,
,,,,,,,,,,,,0,0,0,0,183,0,183,0,,,,,,,183,,,1,1113.1806900269876,X,l,go,l,1,0.34935151945683174,,,,,,,,,,,,,,,,,13,001,19,w,Psychologie,2023-01-11_09h04.03.547,00_bat_bachelor,2022.2.4,59.88099281817125,
,,,,,,,,,,,,0,0,0,0,184,0,184,0,,,,,,,184,,,1,1114.6314175182488,Y,d,go,d,1,0.3379881199798547,,,,,,,,,,,,,,,,,13,001,19,w,Psychologie,2023-01-11_09h04.03.547,00_bat_bachelor,2022.2.4,59.88099281817125,
,,,,,,,,,,,,0,0,0,0,185,0,185,0,,,,,,,185,,,1,1116.082913494727,X,l,go,l,1,0.5989429131732322,,,,,,,,,,,,,,,,,13,001,19,w,Psychologie,2023-01-11_09h04.03.547,00_bat_bachelor,2022.2.4,59.88099281817125,
,,,,,,,,,,,,0,0,0,0,186,0,186,0,,,,,,,186,,,1,1117.7841657135286,Y,d,go,d,1,0.40198184800101444,,,,,,,,,,,,,,,,,13,001,19,w,Psychologie,2023-01-11_09h04.03.547,00_bat_bachelor,2022.2.4,59.88099281817125,
,,,,,,,,,,,,0,0,0,0,187,0,187,0,,,,,,,187,,,1,1119.3016442674561,X,l,go,l,1,0.38858984151738696,,,,,,,,,,,,,,,,,13,001,19,w,Psychologie,2023-01-11_09h04.03.547,00_bat_bachelor,2022.2.4,59.88099281817125,
,,,,,,,,,,,,0,0,0,0,188,0,188,0,,,,,,,188,,,1,1120.8031189348258,X,None,nogo,None,1,,,,,,,,,,,,,,,,,,13,001,19,w,Psychologie,2023-01-11_09h04.03.547,00_bat_bachelor,2022.2.4,59.88099281817125,
,,,,,,,,,,,,0,0,0,0,189,0,189,0,,,,,,,189,,,1,1122.6045893840492,Y,d,go,d,1,0.36522498168051243,,,,,,,,,,,,,,,,,13,001,19,w,Psychologie,2023-01-11_09h04.03.547,00_bat_bachelor,2022.2.4,59.88099281817125,
,,,,,,,,,,,,0,0,0,0,190,0,190,0,,,,,,,190,,,1,1124.0723122774798,X,l,go,l,1,0.3054513769457117,,,,,,,,,,,,,,,,,13,001,19,w,Psychologie,2023-01-11_09h04.03.547,00_bat_bachelor,2022.2.4,59.88099281817125,
,,,,,,,,,,,,0,0,0,0,191,0,191,0,,,,,,,191,,,1,1125.490064237587,Y,d,go,d,1,0.4234165250672959,,,,,,,,,,,,,,,,,13,001,19,w,Psychologie,2023-01-11_09h04.03.547,00_bat_bachelor,2022.2.4,59.88099281817125,
,,,,,,,,,,,,0,0,0,0,192,0,192,0,,,,,,,192,,,1,1127.0245023149182,X,l,go,l,1,0.40938257885864004,,,,,,,,,,,,,,,,,13,001,19,w,Psychologie,2023-01-11_09h04.03.547,00_bat_bachelor,2022.2.4,59.88099281817125,
,,,,,,,,,,,,0,0,0,0,193,0,193,0,,,,,,,193,,,1,1128.5420788082702,Y,d,go,d,1,0.3309742984129116,,,,,,,,,,,,,,,,,13,001,19,w,Psychologie,2023-01-11_09h04.03.547,00_bat_bachelor,2022.2.4,59.88099281817125,
,,,,,,,,,,,,0,0,0,0,194,0,194,0,,,,,,,194,,,1,1129.976913443359,Y,None,nogo,None,1,,,,,,,,,,,,,,,,,,13,001,19,w,Psychologie,2023-01-11_09h04.03.547,00_bat_bachelor,2022.2.4,59.88099281817125,
,,,,,,,,,,,,0,0,0,0,195,0,195,0,,,,,,,195,,,1,1131.778214680351,X,l,go,l,1,0.2321165534958709,,,,,,,,,,,,,,,,,13,001,19,w,Psychologie,2023-01-11_09h04.03.547,00_bat_bachelor,2022.2.4,59.88099281817125,
,,,,,,,,,,,,0,0,0,0,196,0,196,0,,,,,,,196,,,1,1133.1124737515056,Y,d,go,d,1,0.3210727178666275,,,,,,,,,,,,,,,,,13,001,19,w,Psychologie,2023-01-11_09h04.03.547,00_bat_bachelor,2022.2.4,59.88099281817125,
,,,,,,,,,,,,0,0,0,0,197,0,197,0,,,,,,,197,,,1,1134.5469777197286,X,l,go,l,1,0.3434969711233862,,,,,,,,,,,,,,,,,13,001,19,w,Psychologie,2023-01-11_09h04.03.547,00_bat_bachelor,2022.2.4,59.88099281817125,
,,,,,,,,,,,,0,0,0,0,198,0,198,0,,,,,,,198,,,1,1135.99814351424,X,None,nogo,None,1,,,,,,,,,,,,,,,,,,13,001,19,w,Psychologie,2023-01-11_09h04.03.547,00_bat_bachelor,2022.2.4,59.88099281817125,
,,,,,,,,,,,,0,0,0,0,199,0,199,0,,,,,,,199,,,1,1137.7995014785265,Y,d,go,d,1,0.25815002067247406,,,,,,,,,,,,,,,,,13,001,19,w,Psychologie,2023-01-11_09h04.03.547,00_bat_bachelor,2022.2.4,59.88099281817125,
,,,,,,,,,,,,0,0,0,0,200,0,200,0,,,,,,,200,,,1,1139.1669324445538,X,l,go,l,1,0.39501263247802854,,,,,,,,,,,,,,,,,13,001,19,w,Psychologie,2023-01-11_09h04.03.547,00_bat_bachelor,2022.2.4,59.88099281817125,
,,,,,,,,,,,,0,0,0,0,201,0,201,0,,,,,,,201,,,1,1140.6683043240337,Y,d,go,d,1,0.34998958036885597,,,,,,,,,,,,,,,,,13,001,19,w,Psychologie,2023-01-11_09h04.03.547,00_bat_bachelor,2022.2.4,59.88099281817125,
,,,,,,,,,,,,0,0,0,0,202,0,202,0,,,,,,,202,,,1,1142.1193527851428,X,l,go,l,1,0.3541360065864865,,,,,,,,,,,,,,,,,13,001,19,w,Psychologie,2023-01-11_09h04.03.547,00_bat_bachelor,2022.2.4,59.88099281817125,
,,,,,,,,,,,,0,0,0,0,203,0,203,0,,,,,,,203,,,1,1143.5871934968163,Y,d,go,d,1,0.5032313516130671,,,,,,,,,,,,,,,,,13,001,19,w,Psychologie,2023-01-11_09h04.03.547,00_bat_bachelor,2022.2.4,59.88099281817125,
,,,,,,,,,,,,0,0,0,0,204,0,204,0,,,,,,,204,,,1,1145.205072584271,Y,None,nogo,None,1,,,,,1146.0056669118349,,,,,,,,,,,,,13,001,19,w,Psychologie,2023-01-11_09h04.03.547,00_bat_bachelor,2022.2.4,59.88099281817125,
,,,,,,,,,,,,0,0,0,0,205,0,205,0,,,,,,,205,,,1,1147.006338427309,Y,None,nogo,None,1,,,,,,,,,,,,,,,,,,13,001,19,w,Psychologie,2023-01-11_09h04.03.547,00_bat_bachelor,2022.2.4,59.88099281817125,
,,,,,,,,,,,,0,0,0,0,206,0,206,0,,,,,,,206,,,1,1148.8076159067277,X,l,go,l,1,0.27399439198779874,,,,,,,,,,,,,,,,,13,001,19,w,Psychologie,2023-01-11_09h04.03.547,00_bat_bachelor,2022.2.4,59.88099281817125,
,,,,,,,,,,,,0,0,0,0,207,0,207,0,,,,,,,207,,,1,1150.1922046992404,Y,d,go,d,1,0.2977335550240241,,,,,,,,,,,,,,,,,13,001,19,w,Psychologie,2023-01-11_09h04.03.547,00_bat_bachelor,2022.2.4,59.88099281817125,
,,,,,,,,,,,,0,0,0,0,208,0,208,0,,,,,,,208,,,1,1151.5933050149179,X,l,go,l,1,0.3212748997611925,,,,,,,,,,,,,,,,,13,001,19,w,Psychologie,2023-01-11_09h04.03.547,00_bat_bachelor,2022.2.4,59.88099281817125,
,,,,,,,,,,,,0,0,0,0,209,0,209,0,,,,,,,209,,,1,1153.0278167407669,X,None,nogo,None,1,,,,,,,,,,,,,,,,,,13,001,19,w,Psychologie,2023-01-11_09h04.03.547,00_bat_bachelor,2022.2.4,59.88099281817125,
,,,,,,,,,,,,0,0,0,0,210,0,210,0,,,,,,,210,,,1,1154.8291427050426,Y,d,go,d,1,0.2842770636489149,,,,,,,,,,,,,,,,,13,001,19,w,Psychologie,2023-01-11_09h04.03.547,00_bat_bachelor,2022.2.4,59.88099281817125,
,,,,,,,,,,,,0,0,0,0,211,0,211,0,,,,,,,211,,,1,1156.2298255659698,X,l,go,l,1,0.45133653859375045,,,,,,,,,,,,,,,,,13,001,19,w,Psychologie,2023-01-11_09h04.03.547,00_bat_bachelor,2022.2.4,59.88099281817125,
,,,,,,,,,,,,0,0,0,0,212,0,212,0,,,,,,,212,,,1,1157.7977264473739,X,None,nogo,None,1,,,,,,,,,,,,,,,,,,13,001,19,w,Psychologie,2023-01-11_09h04.03.547,00_bat_bachelor,2022.2.4,59.88099281817125,
,,,,,,,,,,,,0,0,0,0,213,0,213,0,,,,,,,213,,,1,1159.5992604117491,Y,d,go,d,1,0.2824763355019968,,,,,,,,,,,,,,,,,13,001,19,w,Psychologie,2023-01-11_09h04.03.547,00_bat_bachelor,2022.2.4,59.88099281817125,
,,,,,,,,,,,,0,0,0,0,214,0,214,0,,,,,,,214,,,1,1160.9838273860805,X,l,go,l,1,0.2901335513452068,,,,,,,,,,,,,,,,,13,001,19,w,Psychologie,2023-01-11_09h04.03.547,00_bat_bachelor,2022.2.4,59.88099281817125,
,,,,,,,,,,,,0,0,0,0,215,0,215,0,,,,,,,215,,,1,1162.3848520653846,X,None,nogo,None,1,,,,,,,,,,,,,,,,,,13,001,19,w,Psychologie,2023-01-11_09h04.03.547,00_bat_bachelor,2022.2.4,59.88099281817125,
,,,,,,,,,,,,0,0,0,0,216,0,216,0,,,,,,,216,,,1,1164.1858919689257,Y,d,go,d,1,0.2714620271290187,,,,,,,,,,,,,,,,,13,001,19,w,Psychologie,2023-01-11_09h04.03.547,00_bat_bachelor,2022.2.4,59.88099281817125,
,,,,,,,,,,,,0,0,0,0,217,0,217,0,,,,,,,217,,,1,1165.5702654886118,X,l,go,l,1,0.2950164627691265,,,,,,,,,,,,,,,,,13,001,19,w,Psychologie,2023-01-11_09h04.03.547,00_bat_bachelor,2022.2.4,59.88099281817125,
,,,,,,,,,,,,0,0,0,0,218,0,218,0,,,,,,,218,,,1,1166.9716475013993,Y,d,go,d,1,0.4142577327147592,,,,,,,,,,,,,,,,,13,001,19,w,Psychologie,2023-01-11_09h04.03.547,00_bat_bachelor,2022.2.4,59.88099281817125,
,,,,,,,,,,,,0,0,0,0,219,0,219,0,,,,,,,219,,,1,1168.489562419185,Y,None,nogo,None,1,,,,,,,,,,,,,,,,,,13,001,19,w,Psychologie,2023-01-11_09h04.03.547,00_bat_bachelor,2022.2.4,59.88099281817125,
,,,,,,,,,,,,0,0,0,0,220,0,220,0,,,,,,,220,,,1,1170.2906915348722,X,l,go,l,1,0.47177485152496956,,,,,,,,,,,,,,,,,13,001,19,w,Psychologie,2023-01-11_09h04.03.547,00_bat_bachelor,2022.2.4,59.88099281817125,
,,,,,,,,,,,,0,0,0,0,221,0,221,0,,,,,,,221,,,1,1171.8754636971862,Y,d,go,d,1,0.4707731540547684,,,,,,,,,,,,,,,,,13,001,19,w,Psychologie,2023-01-11_09h04.03.547,00_bat_bachelor,2022.2.4,59.88099281817125,
,,,,,,,,,,,,0,0,0,0,222,0,222,0,,,,,,,222,,,1,1173.4599691927142,X,l,go,l,1,0.39030087261926383,,,,,,,,,,,,,,,,,13,001,19,w,Psychologie,2023-01-11_09h04.03.547,00_bat_bachelor,2022.2.4,59.88099281817125,
,,,,,,,,,,,,0,0,0,0,223,0,223,0,,,,,,,223,,,1,1174.9611447084171,X,None,nogo,None,1,,,,,,,,,,,,,,,,,,13,001,19,w,Psychologie,2023-01-11_09h04.03.547,00_bat_bachelor,2022.2.4,59.88099281817125,
,,,,,,,,,,,,0,0,0,0,224,0,224,0,,,,,,,224,,,1,1176.7622248544067,Y,d,go,d,1,0.4321389535034541,,,,,,,,,,,,,,,,,13,001,19,w,Psychologie,2023-01-11_09h04.03.547,00_bat_bachelor,2022.2.4,59.88099281817125,
,,,,,,,,,,,,0,0,0,0,225,0,225,0,,,,,,,225,,,1,1178.2970018409542,X,l,go,l,1,0.43281871141516604,,,,,,,,,,,,,,,,,13,001,19,w,Psychologie,2023-01-11_09h04.03.547,00_bat_bachelor,2022.2.4,59.88099281817125,
,,,,,,,,,,,,0,0,0,0,226,0,226,0,,,,,,,226,,,1,1179.83146464554,Y,d,go,d,1,0.3547498251136858,,,,,,,,,,,,,,,,,13,001,19,w,Psychologie,2023-01-11_09h04.03.547,00_bat_bachelor,2022.2.4,59.88099281817125,
,,,,,,,,,,,,0,0,0,0,227,0,227,0,,,,,,,227,,,1,1181.2992331147834,X,l,go,l,1,0.6145012237539049,,,,,,,,,,,,,,,,,13,001,19,w,Psychologie,2023-01-11_09h04.03.547,00_bat_bachelor,2022.2.4,59.88099281817125,
,,,,,,,,,,,,0,0,0,0,228,0,228,0,,,,,,,228,,,1,1183.0172111598658,X,None,nogo,None,1,,,,,1183.8178976086783,,,,,,,,,,,,,13,001,19,w,Psychologie,2023-01-11_09h04.03.547,00_bat_bachelor,2022.2.4,59.88099281817125,
,,,,,,,,,,,,0,0,0,0,229,0,229,0,,,,,,,229,,,1,1184.8186200332711,Y,d,go,d,1,0.32791781207197346,,,,,,,,,,,,,,,,,13,001,19,w,Psychologie,2023-01-11_09h04.03.547,00_bat_bachelor,2022.2.4,59.88099281817125,
,,,,,,,,,,,,0,0,0,0,230,0,230,0,,,,,,,230,,,1,1186.2531138196937,X,l,go,l,1,0.317133806849597,,,,,,,,,,,,,,,,,13,001,19,w,Psychologie,2023-01-11_09h04.03.547,00_bat_bachelor,2022.2.4,59.88099281817125,
,,,,,,,,,,,,0,0,0,0,231,0,231,0,,,,,,,231,,,1,1187.6875305151625,Y,d,go,d,1,0.3540346732188482,,,,,,,,,,,,,,,,,13,001,19,w,Psychologie,2023-01-11_09h04.03.547,00_bat_bachelor,2022.2.4,59.88099281817125,
,,,,,,,,,,,,0,0,0,0,232,0,232,0,,,,,,,232,,,1,1189.155098741874,Y,None,nogo,None,1,,,,,,,,,,,,,,,,,,13,001,19,w,Psychologie,2023-01-11_09h04.03.547,00_bat_bachelor,2022.2.4,59.88099281817125,
,,,,,,,,,,,,0,0,0,0,233,0,233,0,,,,,,,233,,,1,1190.956691372936,X,l,go,l,1,0.3493452164111659,,,,,,,,,,,,,,,,,13,001,19,w,Psychologie,2023-01-11_09h04.03.547,00_bat_bachelor,2022.2.4,59.88099281817125,
,,,,,,,,,,,,0,0,0,0,234,0,234,0,,,,,,,234,,,1,1192.407816440158,Y,d,go,d,1,0.322242172958795,,,,,,,,,,,,,,,,,13,001,19,w,Psychologie,2023-01-11_09h04.03.547,00_bat_bachelor,2022.2.4,59.88099281817125,
,,,,,,,,,,,,0,0,0,0,235,0,235,0,,,,,,,235,,,1,1193.8420057415788,X,l,go,l,1,0.3599236457666848,,,,,,,,,,,,,,,,,13,001,19,w,Psychologie,2023-01-11_09h04.03.547,00_bat_bachelor,2022.2.4,59.88099281817125,
,,,,,,,,,,,,0,0,0,0,236,0,236,0,,,,,,,236,,,1,1195.309785362304,X,None,nogo,None,1,,,,,1196.110381144419,,,,,,,,,,,,,13,001,19,w,Psychologie,2023-01-11_09h04.03.547,00_bat_bachelor,2022.2.4,59.88099281817125,
,,,,,,,,,,,,0,0,0,0,237,0,237,0,,,,,,,237,,,1,1197.1113697509572,Y,d,go,d,1,0.37060195396770723,,,,,,,,,,,,,,,,,13,001,19,w,Psychologie,2023-01-11_09h04.03.547,00_bat_bachelor,2022.2.4,59.88099281817125,
,,,,,,,,,,,,0,0,0,0,238,0,238,0,,,,,,,238,,,1,1198.5958528949413,X,l,go,l,1,0.4864468586165458,,,,,,,,,,,,,,,,,13,001,19,w,Psychologie,2023-01-11_09h04.03.547,00_bat_bachelor,2022.2.4,59.88099281817125,
,,,,,,,,,,,,0,0,0,0,239,0,239,0,,,,,,,239,,,1,1200.1970701561368,Y,d,go,d,1,0.34193478856468573,,,,,,,,,,,,,,,,,13,001,19,w,Psychologie,2023-01-11_09h04.03.547,00_bat_bachelor,2022.2.4,59.88099281817125,
,,,,,,,,,,,,0,0,0,0,240,0,240,0,,,,,,,240,,,1,1201.6481869809213,X,l,go,l,1,0.4737889131065458,,,,,,,,,,,,,,,,,13,001,19,w,Psychologie,2023-01-11_09h04.03.547,00_bat_bachelor,2022.2.4,59.88099281817125,
,,,,,,,,,,,,0,0,0,0,241,0,241,0,,,,,,,241,,,1,1203.2326478703762,Y,d,go,d,1,0.345143517391989,,,,,,,,,,,,,,,,,13,001,19,w,Psychologie,2023-01-11_09h04.03.547,00_bat_bachelor,2022.2.4,59.88099281817125,
,,,,,,,,,,,,0,0,0,0,242,0,242,0,,,,,,,242,,,1,1204.6837637254503,X,l,go,l,1,0.36631104280240834,,,,,,,,,,,,,,,,,13,001,19,w,Psychologie,2023-01-11_09h04.03.547,00_bat_bachelor,2022.2.4,59.88099281817125,
,,,,,,,,,,,,0,0,0,0,243,0,243,0,,,,,,,243,,,1,1206.1512854066677,Y,d,go,d,1,0.4027193028887268,,,,,,,,,,,,,,,,,13,001,19,w,Psychologie,2023-01-11_09h04.03.547,00_bat_bachelor,2022.2.4,59.88099281817125,
,,,,,,,,,,,,0,0,0,0,244,0,244,0,,,,,,,244,,,1,1207.6694466276094,Y,None,nogo,None,1,,,,,,,,,,,,,,,,,,13,001,19,w,Psychologie,2023-01-11_09h04.03.547,00_bat_bachelor,2022.2.4,59.88099281817125,
,,,,,,,,,,,,0,0,0,0,245,0,245,0,,,,,,,245,,,1,1209.4707847131067,X,l,go,l,1,0.2994038588658441,,,,,,,,,,,,,,,,,13,001,19,w,Psychologie,2023-01-11_09h04.03.547,00_bat_bachelor,2022.2.4,59.88099281817125,
,,,,,,,,,,,,0,0,0,0,246,0,246,0,,,,,,,246,,,1,1210.8717744832684,Y,d,go,d,1,0.3708511662262026,,,,,,,,,,,,,,,,,13,001,19,w,Psychologie,2023-01-11_09h04.03.547,00_bat_bachelor,2022.2.4,59.88099281817125,
,,,,,,,,,,,,0,0,0,0,247,0,247,0,,,,,,,247,,,1,1212.3563861121947,X,l,go,l,1,0.3410790305642877,,,,,,,,,,,,,,,,,13,001,19,w,Psychologie,2023-01-11_09h04.03.547,00_bat_bachelor,2022.2.4,59.88099281817125,
,,,,,,,,,,,,0,0,0,0,248,0,248,0,,,,,,,248,,,1,1213.8073506944638,Y,d,go,d,1,0.3465389120101463,,,,,,,,,,,,,,,,,13,001,19,w,Psychologie,2023-01-11_09h04.03.547,00_bat_bachelor,2022.2.4,59.88099281817125,
,,,,,,,,,,,,0,0,0,0,249,0,249,0,,,,,,,249,,,1,1215.2584922465321,Y,None,nogo,None,1,,,,,,,,,,,,,,,,,,13,001,19,w,Psychologie,2023-01-11_09h04.03.547,00_bat_bachelor,2022.2.4,59.88099281817125,
,,,,,,,,,,,,1,0,1,0,0,0,0,0,,,,,,,0,,,0.2,1249.0843825863558,X,l,go,l,1,0.4616560587310232,,,,,,,,,1216.061911302735,space,32.7999510106456,,,,,,13,001,19,w,Psychologie,2023-01-11_09h04.03.547,00_bat_bachelor,2022.2.4,59.88099281817125,
,,,,,,,,,,,,1,0,1,0,1,0,1,0,,,,,,,1,,,0.2,1249.8512682915316,Y,d,go,d,1,0.3343711485504173,,,,,,,,,,,,,,,,,13,001,19,w,Psychologie,2023-01-11_09h04.03.547,00_bat_bachelor,2022.2.4,59.88099281817125,
,,,,,,,,,,,,1,0,1,0,2,0,2,0,,,,,,,2,,,0.2,1250.5020981828275,X,l,go,l,1,0.3247119923471473,,,,,,,,,,,,,,,,,13,001,19,w,Psychologie,2023-01-11_09h04.03.547,00_bat_bachelor,2022.2.4,59.88099281817125,
,,,,,,,,,,,,1,0,1,0,3,0,3,0,,,,,,,3,,,0.2,1251.1355981263332,Y,d,go,d,1,0.28199730496271513,,,,,,,,,,,,,,,,,13,001,19,w,Psychologie,2023-01-11_09h04.03.547,00_bat_bachelor,2022.2.4,59.88099281817125,
,,,,,,,,,,,,1,0,1,0,4,0,4,0,,,,,,,4,,,0.2,1251.7196439852705,X,l,go,l,1,0.2745117255835794,,,,,,,,,,,,,,,,,13,001,19,w,Psychologie,2023-01-11_09h04.03.547,00_bat_bachelor,2022.2.4,59.88099281817125,
,,,,,,,,,,,,1,0,1,0,5,0,5,0,,,,,,,5,,,0.2,1252.3034891168354,X,None,nogo,d,0,0.2509650474821683,,,,,,,,,,,,,,,,,13,001,19,w,Psychologie,2023-01-11_09h04.03.547,00_bat_bachelor,2022.2.4,59.88099281817125,
,,,,,,,,,,,,1,0,1,0,6,0,6,0,,,,,,,6,,,0.2,1252.8704881796148,Y,d,go,d,1,0.3230426581867505,,,,,,,,,,,,,,,,,13,001,19,w,Psychologie,2023-01-11_09h04.03.547,00_bat_bachelor,2022.2.4,59.88099281817125,
,,,,,,,,,,,,1,0,1,0,7,0,7,0,,,,,,,7,,,0.2,1253.5044458203192,X,l,go,l,1,0.2661199639260303,,,,,,,,,,,,,,,,,13,001,19,w,Psychologie,2023-01-11_09h04.03.547,00_bat_bachelor,2022.2.4,59.88099281817125,
,,,,,,,,,,,,1,0,1,0,8,0,8,0,,,,,,,8,,,0.2,1254.0714342164574,Y,d,go,d,1,0.27470566506963223,,,,,,,,,,,,,,,,,13,001,19,w,Psychologie,2023-01-11_09h04.03.547,00_bat_bachelor,2022.2.4,59.88099281817125,
,,,,,,,,,,,,1,0,1,0,9,0,9,0,,,,,,,9,,,0.2,1254.6552701358742,X,l,go,l,1,0.3788211095088627,,,,,,,,,,,,,,,,,13,001,19,w,Psychologie,2023-01-11_09h04.03.547,00_bat_bachelor,2022.2.4,59.88099281817125,
,,,,,,,,,,,,1,0,1,0,10,0,10,0,,,,,,,10,,,0.2,1255.3387841642543,Y,d,go,d,1,0.35097527780453674,,,,,,,,,,,,,,,,,13,001,19,w,Psychologie,2023-01-11_09h04.03.547,00_bat_bachelor,2022.2.4,59.88099281817125,
,,,,,,,,,,,,1,0,1,0,11,0,11,0,,,,,,,11,,,0.2,1256.0059311543882,Y,None,nogo,None,1,,,,,,,,,,,,,,,,,,13,001,19,w,Psychologie,2023-01-11_09h04.03.547,00_bat_bachelor,2022.2.4,59.88099281817125,
,,,,,,,,,,,,1,0,1,0,12,0,12,0,,,,,,,12,,,0.2,1257.0070521246234,X,l,go,l,1,0.2830377903301269,,,,,,,,,,,,,,,,,13,001,19,w,Psychologie,2023-01-11_09h04.03.547,00_bat_bachelor,2022.2.4,59.88099281817125,
,,,,,,,,,,,,1,0,1,0,13,0,13,0,,,,,,,13,,,0.2,1257.5908962864778,Y,d,go,d,1,0.2909185214084573,,,,,,,,,,,,,,,,,13,001,19,w,Psychologie,2023-01-11_09h04.03.547,00_bat_bachelor,2022.2.4,59.88099281817125,
,,,,,,,,,,,,1,0,1,0,14,0,14,0,,,,,,,14,,,0.2,1258.1912917291047,X,l,go,l,1,0.2983653128903825,,,,,,,,,,,,,,,,,13,001,19,w,Psychologie,2023-01-11_09h04.03.547,00_bat_bachelor,2022.2.4,59.88099281817125,
,,,,,,,,,,,,1,0,1,0,15,0,15,0,,,,,,,15,,,0.2,1258.7917812323722,Y,d,go,d,1,0.3706669236999005,,,,,,,,,,,,,,,,,13,001,19,w,Psychologie,2023-01-11_09h04.03.547,00_bat_bachelor,2022.2.4,59.88099281817125,
,,,,,,,,,,,,1,0,1,0,16,0,16,0,,,,,,,16,,,0.2,1259.475616715441,Y,None,nogo,None,1,,,,,1260.2762401339423,,,,,,,,,,,,,13,001,19,w,Psychologie,2023-01-11_09h04.03.547,00_bat_bachelor,2022.2.4,59.88099281817125,
,,,,,,,,,,,,1,0,1,0,17,0,17,0,,,,,,,17,,,0.2,1260.4763624127663,X,l,go,l,1,0.2535265032784082,,,,,,,,,,,,,,,,,13,001,19,w,Psychologie,2023-01-11_09h04.03.547,00_bat_bachelor,2022.2.4,59.88099281817125,
,,,,,,,,,,,,1,0,1,0,18,0,18,0,,,,,,,18,,,0.2,1261.0434521422721,Y,d,go,d,1,0.24632989370729774,,,,,,,,,,,,,,,,,13,001,19,w,Psychologie,2023-01-11_09h04.03.547,00_bat_bachelor,2022.2.4,59.88099281817125,
,,,,,,,,,,,,1,0,1,0,19,0,19,0,,,,,,,19,,,0.2,1261.5938019848545,X,l,go,l,1,0.22449570131720975,,,,,,,,,,,,,,,,,13,001,19,w,Psychologie,2023-01-11_09h04.03.547,00_bat_bachelor,2022.2.4,59.88099281817125,
,,,,,,,,,,,,1,0,1,0,20,0,20,0,,,,,,,20,,,0.2,1262.1275947285176,Y,d,go,d,1,0.26597596384817734,,,,,,,,,,,,,,,,,13,001,19,w,Psychologie,2023-01-11_09h04.03.547,00_bat_bachelor,2022.2.4,59.88099281817125,
,,,,,,,,,,,,1,0,1,0,21,0,21,0,,,,,,,21,,,0.2,1262.6943853063567,Y,None,nogo,l,0,0.21160066477023065,,,,,,,,,,,,,,,,,13,001,19,w,Psychologie,2023-01-11_09h04.03.547,00_bat_bachelor,2022.2.4,59.88099281817125,
,,,,,,,,,,,,1,0,1,0,22,0,22,0,,,,,,,22,,,0.2,1263.2114105267392,Y,None,nogo,l,0,0.33393139074905775,,,,,,,,,,,,,,,,,13,001,19,w,Psychologie,2023-01-11_09h04.03.547,00_bat_bachelor,2022.2.4,59.88099281817125,
,,,,,,,,,,,,1,0,1,0,23,0,23,0,,,,,,,23,,,0.2,1263.8622995695914,X,l,go,None,0,,,,,,,,,,,,,,,,,,13,001,19,w,Psychologie,2023-01-11_09h04.03.547,00_bat_bachelor,2022.2.4,59.88099281817125,
,,,,,,,,,,,,1,0,1,0,24,0,24,0,,,,,,,24,,,0.2,1264.8630152062979,Y,d,go,d,1,0.4429627163335681,,,,,,,,,,,,,,,,,13,001,19,w,Psychologie,2023-01-11_09h04.03.547,00_bat_bachelor,2022.2.4,59.88099281817125,
,,,,,,,,,,,,1,0,1,0,25,0,25,0,,,,,,,25,,,0.2,1265.6136158126465,X,l,go,l,1,0.18875507792108692,,,,,,,,,,,,,,,,,13,001,19,w,Psychologie,2023-01-11_09h04.03.547,00_bat_bachelor,2022.2.4,59.88099281817125,
,,,,,,,,,,,,1,0,1,0,26,0,26,0,,,,,,,26,,,0.2,1266.1140858735016,Y,d,go,d,1,0.23234346270328388,,,,,,,,,,,,,,,,,13,001,19,w,Psychologie,2023-01-11_09h04.03.547,00_bat_bachelor,2022.2.4,59.88099281817125,
,,,,,,,,,,,,1,0,1,0,27,0,27,0,,,,,,,27,,,0.2,1266.6477443140466,Y,None,nogo,l,0,0.17824210316757672,,,,,,,,,,,,,,,,,13,001,19,w,Psychologie,2023-01-11_09h04.03.547,00_bat_bachelor,2022.2.4,59.88099281817125,
,,,,,,,,,,,,1,0,1,0,28,0,28,0,,,,,,,28,,,0.2,1267.1313503667188,X,l,go,l,1,0.3990116647037212,,,,,,,,,,,,,,,,,13,001,19,w,Psychologie,2023-01-11_09h04.03.547,00_bat_bachelor,2022.2.4,59.88099281817125,
,,,,,,,,,,,,1,0,1,0,29,0,29,0,,,,,,,29,,,0.2,1267.831771069934,Y,d,go,d,1,0.2900472482724581,,,,,,,,,,,,,,,,,13,001,19,w,Psychologie,2023-01-11_09h04.03.547,00_bat_bachelor,2022.2.4,59.88099281817125,
,,,,,,,,,,,,1,0,1,0,30,0,30,0,,,,,,,30,,,0.2,1268.4324419066252,Y,None,nogo,None,1,,,,,,,,,,,,,,,,,,13,001,19,w,Psychologie,2023-01-11_09h04.03.547,00_bat_bachelor,2022.2.4,59.88099281817125,
,,,,,,,,,,,,1,0,1,0,31,0,31,0,,,,,,,31,,,0.2,1269.43321863428,X,l,go,l,1,0.1933790801849682,,,,,,,,,,,,,,,,,13,001,19,w,Psychologie,2023-01-11_09h04.03.547,00_bat_bachelor,2022.2.4,59.88099281817125,
,,,,,,,,,,,,1,0,1,0,32,0,32,0,,,,,,,32,,,0.2,1269.9332227554987,Y,d,go,d,1,0.461033512983704,,,,,,,,,,,,,,,,,13,001,19,w,Psychologie,2023-01-11_09h04.03.547,00_bat_bachelor,2022.2.4,59.88099281817125,
,,,,,,,,,,,,1,0,1,0,33,0,33,0,,,,,,,33,,,0.2,1270.700857551914,Y,None,nogo,None,1,,,,,,,,,,,,,,,,,,13,001,19,w,Psychologie,2023-01-11_09h04.03.547,00_bat_bachelor,2022.2.4,59.88099281817125,
,,,,,,,,,,,,1,0,1,0,34,0,34,0,,,,,,,34,,,0.2,1271.7012294308806,X,l,go,l,1,0.22804236970841885,,,,,,,,,,,,,,,,,13,001,19,w,Psychologie,2023-01-11_09h04.03.547,00_bat_bachelor,2022.2.4,59.88099281817125,
,,,,,,,,,,,,1,0,1,0,35,0,35,0,,,,,,,35,,,0.2,1272.2350207199925,Y,d,go,d,1,0.4145481571322307,,,,,,,,,,,,,,,,,13,001,19,w,Psychologie,2023-01-11_09h04.03.547,00_bat_bachelor,2022.2.4,59.88099281817125,
,,,,,,,,,,,,1,0,1,0,36,0,36,0,,,,,,,36,,,0.2,1272.9524882193946,X,l,go,l,1,0.3051415586087387,,,,,,,,,,,,,,,,,13,001,19,w,Psychologie,2023-01-11_09h04.03.547,00_bat_bachelor,2022.2.4,59.88099281817125,
,,,,,,,,,,,,1,0,1,0,37,0,37,0,,,,,,,37,,,0.2,1273.5697074277268,Y,d,go,d,1,0.28065330430399626,,,,,,,,,,,,,,,,,13,001,19,w,Psychologie,2023-01-11_09h04.03.547,00_bat_bachelor,2022.2.4,59.88099281817125,
,,,,,,,,,,,,1,0,1,0,38,0,38,0,,,,,,,38,,,0.2,1274.1533663773735,Y,None,nogo,l,0,0.3689452258986421,,,,,,,,,,,,,,,,,13,001,19,w,Psychologie,2023-01-11_09h04.03.547,00_bat_bachelor,2022.2.4,59.88099281817125,
,,,,,,,,,,,,1,0,1,0,39,0,39,0,,,,,,,39,,,0.2,1274.8373269514123,X,l,go,None,0,,,,,1275.6378795820056,,,,,,,,,,,,,13,001,19,w,Psychologie,2023-01-11_09h04.03.547,00_bat_bachelor,2022.2.4,59.88099281817125,
,,,,,,,,,,,,1,0,1,0,40,0,40,0,,,,,,,40,,,0.2,1275.8378762850189,Y,d,go,l,0,0.3324884809553623,,,,,,,,,,,,,,,,,13,001,19,w,Psychologie,2023-01-11_09h04.03.547,00_bat_bachelor,2022.2.4,59.88099281817125,
,,,,,,,,,,,,1,0,1,0,41,0,41,0,,,,,,,41,,,0.2,1276.4718368348258,Y,None,nogo,None,1,,,,,,,,,,,,,,,,,,13,001,19,w,Psychologie,2023-01-11_09h04.03.547,00_bat_bachelor,2022.2.4,59.88099281817125,
,,,,,,,,,,,,1,0,1,0,42,0,42,0,,,,,,,42,,,0.2,1277.472461319965,X,l,go,l,1,0.24974080448737368,,,,,,,,,,,,,,,,,13,001,19,w,Psychologie,2023-01-11_09h04.03.547,00_bat_bachelor,2022.2.4,59.88099281817125,
,,,,,,,,,,,,1,0,1,0,43,0,43,0,,,,,,,43,,,0.2,1278.0228882535012,Y,d,go,d,1,0.2588404452544637,,,,,,,,,,,,,,,,,13,001,19,w,Psychologie,2023-01-11_09h04.03.547,00_bat_bachelor,2022.2.4,59.88099281817125,
,,,,,,,,,,,,1,0,1,0,44,0,44,0,,,,,,,44,,,0.2,1278.590155437647,Y,None,nogo,l,0,0.21976842632284388,,,,,,,,,,,,,,,,,13,001,19,w,Psychologie,2023-01-11_09h04.03.547,00_bat_bachelor,2022.2.4,59.88099281817125,
,,,,,,,,,,,,1,0,1,0,45,0,45,0,,,,,,,45,,,0.2,1279.1238783630833,X,l,go,None,0,,,,,1279.924211842037,,,,,,,,,,,,,13,001,19,w,Psychologie,2023-01-11_09h04.03.547,00_bat_bachelor,2022.2.4,59.88099281817125,
,,,,,,,,,,,,1,0,1,0,46,0,46,0,,,,,,,46,,,0.2,1280.1243670905824,Y,d,go,l,0,0.20539217692567036,,,,,,,,,,,,,,,,,13,001,19,w,Psychologie,2023-01-11_09h04.03.547,00_bat_bachelor,2022.2.4,59.88099281817125,
,,,,,,,,,,,,1,0,1,0,47,0,47,0,,,,,,,47,,,0.2,1280.641556189832,Y,None,nogo,None,1,,,,,1281.4423580326547,,,,,,,,,,,,,13,001,19,w,Psychologie,2023-01-11_09h04.03.547,00_bat_bachelor,2022.2.4,59.88099281817125,
,,,,,,,,,,,,1,0,1,0,48,0,48,0,,,,,,,48,,,0.2,1281.6424953418027,X,l,go,None,0,,,,,,,,,,,,,,,,,,13,001,19,w,Psychologie,2023-01-11_09h04.03.547,00_bat_bachelor,2022.2.4,59.88099281817125,
,,,,,,,,,,,,1,0,1,0,49,0,49,0,,,,,,,49,,,0.2,1282.6432439482305,Y,d,go,None,0,,,,,,,,,,,,,,,,,,13,001,19,w,Psychologie,2023-01-11_09h04.03.547,00_bat_bachelor,2022.2.4,59.88099281817125,
,,,,,,,,,,,,1,0,1,0,50,0,50,0,,,,,,,50,,,0.2,1283.6439343728125,X,l,go,l,1,0.25443559463019483,,,,,,,,,,,,,,,,,13,001,19,w,Psychologie,2023-01-11_09h04.03.547,00_bat_bachelor,2022.2.4,59.88099281817125,
,,,,,,,,,,,,1,0,1,0,51,0,51,0,,,,,,,51,,,0.2,1284.2112030114804,Y,d,go,d,1,0.19876187067711726,,,,,,,,,,,,,,,,,13,001,19,w,Psychologie,2023-01-11_09h04.03.547,00_bat_bachelor,2022.2.4,59.88099281817125,
,,,,,,,,,,,,1,0,1,0,52,0,52,0,,,,,,,52,,,0.2,1284.7114994964795,Y,None,nogo,None,1,,,,,,,,,,,,,,,,,,13,001,19,w,Psychologie,2023-01-11_09h04.03.547,00_bat_bachelor,2022.2.4,59.88099281817125,
,,,,,,,,,,,,1,0,1,0,53,0,53,0,,,,,,,53,,,0.2,1285.7120585270459,X,l,go,l,1,0.21747606157441624,,,,,,,,,,,,,,,,,13,001,19,w,Psychologie,2023-01-11_09h04.03.547,00_bat_bachelor,2022.2.4,59.88099281817125,
,,,,,,,,,,,,1,0,1,0,54,0,54,0,,,,,,,54,,,0.2,1286.245979755622,Y,d,go,d,1,0.2596525668632239,,,,,,,,,,,,,,,,,13,001,19,w,Psychologie,2023-01-11_09h04.03.547,00_bat_bachelor,2022.2.4,59.88099281817125,
,,,,,,,,,,,,1,0,1,0,55,0,55,0,,,,,,,55,,,0.2,1286.812802333472,X,l,go,l,1,0.5404381575644948,,,,,,,,,,,,,,,,,13,001,19,w,Psychologie,2023-01-11_09h04.03.547,00_bat_bachelor,2022.2.4,59.88099281817125,
,,,,,,,,,,,,1,0,1,0,56,0,56,0,,,,,,,56,,,0.2,1287.6637200793775,Y,d,go,d,1,0.2988986464915797,,,,,,,,,,,,,,,,,13,001,19,w,Psychologie,2023-01-11_09h04.03.547,00_bat_bachelor,2022.2.4,59.88099281817125,
,,,,,,,,,,,,1,0,1,0,57,0,57,0,,,,,,,57,,,0.2,1288.2641475220153,X,l,go,l,1,0.369776256615296,,,,,,,,,,,,,,,,,13,001,19,w,Psychologie,2023-01-11_09h04.03.547,00_bat_bachelor,2022.2.4,59.88099281817125,
,,,,,,,,,,,,1,0,1,0,58,0,58,0,,,,,,,58,,,0.2,1288.9477551261662,Y,d,go,d,1,0.374470077076694,,,,,,,,,,,,,,,,,13,001,19,w,Psychologie,2023-01-11_09h04.03.547,00_bat_bachelor,2022.2.4,59.88099281817125,
,,,,,,,,,,,,1,0,1,0,59,0,59,0,,,,,,,59,,,0.2,1289.6316216395644,X,l,go,None,0,,,,,,,,,,,,,,,,,,13,001,19,w,Psychologie,2023-01-11_09h04.03.547,00_bat_bachelor,2022.2.4,59.88099281817125,
,,,,,,,,,,,,1,0,1,0,60,0,60,0,,,,,,,60,,,0.2,1290.6326718218916,X,None,nogo,None,1,,,,,,,,,,,,,,,,,,13,001,19,w,Psychologie,2023-01-11_09h04.03.547,00_bat_bachelor,2022.2.4,59.88099281817125,
,,,,,,,,,,,,1,0,1,0,61,0,61,0,,,,,,,61,,,0.2,1291.6335159435112,Y,d,go,d,1,0.3921374795900192,,,,,,,,,,,,,,,,,13,001,19,w,Psychologie,2023-01-11_09h04.03.547,00_bat_bachelor,2022.2.4,59.88099281817125,
,,,,,,,,,,,,1,0,1,0,62,0,62,0,,,,,,,62,,,0.2,1292.3339473134256,X,l,go,l,1,0.556170043972088,,,,,,,,,,,,,,,,,13,001,19,w,Psychologie,2023-01-11_09h04.03.547,00_bat_bachelor,2022.2.4,59.88099281817125,
,,,,,,,,,,,,1,0,1,0,63,0,63,0,,,,,,,63,,,0.2,1293.20123452181,X,None,nogo,d,0,0.2808782741194591,,,,,,,,,,,,,,,,,13,001,19,w,Psychologie,2023-01-11_09h04.03.547,00_bat_bachelor,2022.2.4,59.88099281817125,
,,,,,,,,,,,,1,0,1,0,64,0,64,0,,,,,,,64,,,0.2,1293.7850355321425,Y,d,go,d,1,0.48103691660799086,,,,,,,,,,,,,,,,,13,001,19,w,Psychologie,2023-01-11_09h04.03.547,00_bat_bachelor,2022.2.4,59.88099281817125,
,,,,,,,,,,,,1,0,1,0,65,0,65,0,,,,,,,65,,,0.2,1294.5688856091583,X,l,go,None,0,,,,,,,,,,,,,,,,,,13,001,19,w,Psychologie,2023-01-11_09h04.03.547,00_bat_bachelor,2022.2.4,59.88099281817125,
,,,,,,,,,,,,1,0,1,0,66,0,66,0,,,,,,,66,,,0.2,1295.5697772459534,Y,d,go,d,1,0.3767682600009721,,,,,,,,,,,,,,,,,13,001,19,w,Psychologie,2023-01-11_09h04.03.547,00_bat_bachelor,2022.2.4,59.88099281817125,
,,,,,,,,,,,,1,0,1,0,67,0,67,0,,,,,,,67,,,0.2,1296.253699032095,Y,None,nogo,l,0,0.22137182101141661,,,,,,,,,,,,,,,,,13,001,19,w,Psychologie,2023-01-11_09h04.03.547,00_bat_bachelor,2022.2.4,59.88099281817125,
,,,,,,,,,,,,1,0,1,0,68,0,68,0,,,,,,,68,,,0.2,1296.7872857150505,X,l,go,None,0,,,,,1297.5879605274822,,,,,,,,,,,,,13,001,19,w,Psychologie,2023-01-11_09h04.03.547,00_bat_bachelor,2022.2.4,59.88099281817125,
,,,,,,,,,,,,1,0,1,0,69,0,69,0,,,,,,,69,,,0.2,1297.788100260892,Y,d,go,d,1,0.4134907020779792,,,,,,,,,,,,,,,,,13,001,19,w,Psychologie,2023-01-11_09h04.03.547,00_bat_bachelor,2022.2.4,59.88099281817125,
,,,,,,,,,,,,1,0,1,0,70,0,70,0,,,,,,,70,,,0.2,1298.5050101842498,Y,None,nogo,l,0,0.2571517171745654,,,,,,,,,,,,,,,,,13,001,19,w,Psychologie,2023-01-11_09h04.03.547,00_bat_bachelor,2022.2.4,59.88099281817125,
,,,,,,,,,,,,1,0,1,0,71,0,71,0,,,,,,,71,,,0.2,1299.0724019744957,X,l,go,None,0,,,,,,,,,,,,,,,,,,13,001,19,w,Psychologie,2023-01-11_09h04.03.547,00_bat_bachelor,2022.2.4,59.88099281817125,
,,,,,,,,,,,,1,0,1,0,72,0,72,0,,,,,,,72,,,0.2,1300.0731622172752,Y,d,go,None,0,,,,,,,,,,,,,,,,,,13,001,19,w,Psychologie,2023-01-11_09h04.03.547,00_bat_bachelor,2022.2.4,59.88099281817125,
,,,,,,,,,,,,1,0,1,0,73,0,73,0,,,,,,,73,,,0.2,1301.0739253691572,X,l,go,None,0,,,,,,,,,,,,,,,,,,13,001,19,w,Psychologie,2023-01-11_09h04.03.547,00_bat_bachelor,2022.2.4,59.88099281817125,
,,,,,,,,,,,,1,0,1,0,74,0,74,0,,,,,,,74,,,0.2,1302.074414581526,Y,d,go,d,1,0.33542472482076846,,,,,,,,,,,,,,,,,13,001,19,w,Psychologie,2023-01-11_09h04.03.547,00_bat_bachelor,2022.2.4,59.88099281817125,
,,,,,,,,,,,,1,0,1,0,75,0,75,0,,,,,,,75,,,0.2,1302.7252973213617,X,l,go,l,1,0.260386142967036,,,,,,,,,,,,,,,,,13,001,19,w,Psychologie,2023-01-11_09h04.03.547,00_bat_bachelor,2022.2.4,59.88099281817125,
,,,,,,,,,,,,1,0,1,0,76,0,76,0,,,,,,,76,,,0.2,1303.2923540811462,X,None,nogo,d,0,0.2209858814603649,,,,,,,,,,,,,,,,,13,001,19,w,Psychologie,2023-01-11_09h04.03.547,00_bat_bachelor,2022.2.4,59.88099281817125,
,,,,,,,,,,,,1,0,1,0,77,0,77,0,,,,,,,77,,,0.2,1303.8257880367455,X,None,nogo,None,1,,,,,,,,,,,,,,,,,,13,001,19,w,Psychologie,2023-01-11_09h04.03.547,00_bat_bachelor,2022.2.4,59.88099281817125,
,,,,,,,,,,,,1,0,1,0,78,0,78,0,,,,,,,78,,,0.2,1304.8268668251403,Y,d,go,l,0,0.20741108697257005,,,,,,,,,,,,,,,,,13,001,19,w,Psychologie,2023-01-11_09h04.03.547,00_bat_bachelor,2022.2.4,59.88099281817125,
,,,,,,,,,,,,1,0,1,0,79,0,79,0,,,,,,,79,,,0.2,1305.3438445303473,X,l,go,None,0,,,,,1306.1442783729872,,,,,,,,,,,,,13,001,19,w,Psychologie,2023-01-11_09h04.03.547,00_bat_bachelor,2022.2.4,59.88099281817125,
,,,,,,,,,,,,1,0,1,0,80,0,80,0,,,,,,,80,,,0.2,1306.344658591348,Y,d,go,d,1,0.3856875370547641,,,,,,,,,,,,,,,,,13,001,19,w,Psychologie,2023-01-11_09h04.03.547,00_bat_bachelor,2022.2.4,59.88099281817125,
,,,,,,,,,,,,1,0,1,0,81,0,81,0,,,,,,,81,,,0.2,1307.0449159005657,X,l,go,l,1,0.2128961805428844,,,,,,,,,,,,,,,,,13,001,19,w,Psychologie,2023-01-11_09h04.03.547,00_bat_bachelor,2022.2.4,59.88099281817125,
,,,,,,,,,,,,1,0,1,0,82,0,82,0,,,,,,,82,,,0.2,1307.5623299696017,Y,d,go,d,1,0.19147653380059637,,,,,,,,,,,,,,,,,13,001,19,w,Psychologie,2023-01-11_09h04.03.547,00_bat_bachelor,2022.2.4,59.88099281817125,
,,,,,,,,,,,,1,0,1,0,83,0,83,0,,,,,,,83,,,0.2,1308.0625886364141,X,l,go,l,1,0.20316526675014757,,,,,,,,,,,,,,,,,13,001,19,w,Psychologie,2023-01-11_09h04.03.547,00_bat_bachelor,2022.2.4,59.88099281817125,
,,,,,,,,,,,,1,0,1,0,84,0,84,0,,,,,,,84,,,0.2,1308.5796865840966,X,None,nogo,d,0,0.08647963442490436,,,,,,,,,,,,,,,,,13,001,19,w,Psychologie,2023-01-11_09h04.03.547,00_bat_bachelor,2022.2.4,59.88099281817125,
,,,,,,,,,,,,1,0,1,0,85,0,85,0,,,,,,,85,,,0.2,1308.9800470206246,Y,d,go,l,0,0.1503070592880249,,,,,,,,,,,,,,,,,13,001,19,w,Psychologie,2023-01-11_09h04.03.547,00_bat_bachelor,2022.2.4,59.88099281817125,
,,,,,,,,,,,,1,0,1,0,86,0,86,0,,,,,,,86,,,0.2,1309.4470722167462,X,l,go,None,0,,,,,,,,,,,,,,,,,,13,001,19,w,Psychologie,2023-01-11_09h04.03.547,00_bat_bachelor,2022.2.4,59.88099281817125,
,,,,,,,,,,,,1,0,1,0,87,0,87,0,,,,,,,87,,,0.2,1310.447856217128,X,None,nogo,None,1,,,,,,,,,,,,,,,,,,13,001,19,w,Psychologie,2023-01-11_09h04.03.547,00_bat_bachelor,2022.2.4,59.88099281817125,
,,,,,,,,,,,,1,0,1,0,88,0,88,0,,,,,,,88,,,0.2,1311.448259126424,Y,d,go,None,0,,,,,1312.2492103026307,,,,,,,,,,,,,13,001,19,w,Psychologie,2023-01-11_09h04.03.547,00_bat_bachelor,2022.2.4,59.88099281817125,
,,,,,,,,,,,,1,0,1,0,89,0,89,0,,,,,,,89,,,0.2,1312.4492656723596,X,l,go,None,0,,,,,,,,,,,,,,,,,,13,001,19,w,Psychologie,2023-01-11_09h04.03.547,00_bat_bachelor,2022.2.4,59.88099281817125,
,,,,,,,,,,,,1,0,1,0,90,0,90,0,,,,,,,90,,,0.2,1313.4501127030817,Y,d,go,d,1,0.2401723149814643,,,,,,,,,,,,,,,,,13,001,19,w,Psychologie,2023-01-11_09h04.03.547,00_bat_bachelor,2022.2.4,59.88099281817125,
,,,,,,,,,,,,1,0,1,0,91,0,91,0,,,,,,,91,,,0.2,1314.000466424448,Y,None,nogo,l,0,0.1854396823910065,,,,,,,,,,,,,,,,,13,001,19,w,Psychologie,2023-01-11_09h04.03.547,00_bat_bachelor,2022.2.4,59.88099281817125,
,,,,,,,,,,,,1,0,1,0,92,0,92,0,,,,,,,92,,,0.2,1314.5006693336472,Y,None,nogo,d,0,0.5490354950306937,,,,,,,,,,,,,,,,,13,001,19,w,Psychologie,2023-01-11_09h04.03.547,00_bat_bachelor,2022.2.4,59.88099281817125,
,,,,,,,,,,,,1,0,1,0,93,0,93,0,,,,,,,93,,,0.2,1315.3515720492287,X,l,go,l,1,0.2590930514561478,,,,,,,,,,,,,,,,,13,001,19,w,Psychologie,2023-01-11_09h04.03.547,00_bat_bachelor,2022.2.4,59.88099281817125,
,,,,,,,,,,,,1,0,1,0,94,0,94,0,,,,,,,94,,,0.2,1315.9182826270408,Y,d,go,None,0,,,,,1316.7192507729633,,,,,,,,,,,,,13,001,19,w,Psychologie,2023-01-11_09h04.03.547,00_bat_bachelor,2022.2.4,59.88099281817125,
,,,,,,,,,,,,1,0,1,0,95,0,95,0,,,,,,,95,,,0.2,1316.9193987487815,X,l,go,l,1,0.5621176832064521,,,,,,,,,,,,,,,,,13,001,19,w,Psychologie,2023-01-11_09h04.03.547,00_bat_bachelor,2022.2.4,59.88099281817125,
,,,,,,,,,,,,1,0,1,0,96,0,96,0,,,,,,,96,,,0.2,1317.7864309267607,X,None,nogo,d,0,0.22347848874051124,,,,,,,,,,,,,,,,,13,001,19,w,Psychologie,2023-01-11_09h04.03.547,00_bat_bachelor,2022.2.4,59.88099281817125,
,,,,,,,,,,,,1,0,1,0,97,0,97,0,,,,,,,97,,,0.2,1318.3205077917664,Y,d,go,None,0,,,,,1319.12100757382,,,,,,,,,,,,,13,001,19,w,Psychologie,2023-01-11_09h04.03.547,00_bat_bachelor,2022.2.4,59.88099281817125,
,,,,,,,,,,,,1,0,1,0,98,0,98,0,,,,,,,98,,,0.2,1319.3209388222604,X,l,go,l,1,0.28875076276017353,,,,,,,,,,,,,,,,,13,001,19,w,Psychologie,2023-01-11_09h04.03.547,00_bat_bachelor,2022.2.4,59.88099281817125,
,,,,,,,,,,,,1,0,1,0,99,0,99,0,,,,,,,99,,,0.2,1319.9216174165485,Y,d,go,d,1,0.2325601900811307,,,,,,,,,,,,,,,,,13,001,19,w,Psychologie,2023-01-11_09h04.03.547,00_bat_bachelor,2022.2.4,59.88099281817125,
,,,,,,,,,,,,1,0,1,0,100,0,100,0,,,,,,,100,,,0.2,1320.4554600996198,X,l,go,l,1,0.21037593690562062,,,,,,,,,,,,,,,,,13,001,19,w,Psychologie,2023-01-11_09h04.03.547,00_bat_bachelor,2022.2.4,59.88099281817125,
,,,,,,,,,,,,1,0,1,0,101,0,101,0,,,,,,,101,,,0.2,1320.972558532143,X,None,nogo,None,1,,,,,,,,,,,,,,,,,,13,001,19,w,Psychologie,2023-01-11_09h04.03.547,00_bat_bachelor,2022.2.4,59.88099281817125,
,,,,,,,,,,,,1,0,1,0,102,0,102,0,,,,,,,102,,,0.2,1321.9729619262798,Y,d,go,d,1,0.2765800902270712,,,,,,,,,,,,,,,,,13,001,19,w,Psychologie,2023-01-11_09h04.03.547,00_bat_bachelor,2022.2.4,59.88099281817125,
,,,,,,,,,,,,1,0,1,0,103,0,103,0,,,,,,,103,,,0.2,1322.5568376033043,X,l,go,l,1,0.18887774465838447,,,,,,,,,,,,,,,,,13,001,19,w,Psychologie,2023-01-11_09h04.03.547,00_bat_bachelor,2022.2.4,59.88099281817125,
,,,,,,,,,,,,1,0,1,0,104,0,104,0,,,,,,,104,,,0.2,1323.0574400278565,Y,d,go,d,1,0.20112308394163847,,,,,,,,,,,,,,,,,13,001,19,w,Psychologie,2023-01-11_09h04.03.547,00_bat_bachelor,2022.2.4,59.88099281817125,
,,,,,,,,,,,,1,0,1,0,105,0,105,0,,,,,,,105,,,0.2,1323.574390581518,Y,None,nogo,l,0,0.24366419547004625,,,,,,,,,,,,,,,,,13,001,19,w,Psychologie,2023-01-11_09h04.03.547,00_bat_bachelor,2022.2.4,59.88099281817125,
,,,,,,,,,,,,1,0,1,0,106,0,106,0,,,,,,,106,,,0.2,1324.12460515133,X,l,go,None,0,,,,,,,,,,,,,,,,,,13,001,19,w,Psychologie,2023-01-11_09h04.03.547,00_bat_bachelor,2022.2.4,59.88099281817125,
,,,,,,,,,,,,1,0,1,0,107,0,107,0,,,,,,,107,,,0.2,1325.1256994548894,Y,d,go,d,1,0.21304454424534924,,,,,,,,,,,,,,,,,13,001,19,w,Psychologie,2023-01-11_09h04.03.547,00_bat_bachelor,2022.2.4,59.88099281817125,
,,,,,,,,,,,,1,0,1,0,108,0,108,0,,,,,,,108,,,0.2,1325.642407099338,Y,None,nogo,l,0,0.15914003329817206,,,,,,,,,,,,,,,,,13,001,19,w,Psychologie,2023-01-11_09h04.03.547,00_bat_bachelor,2022.2.4,59.88099281817125,
,,,,,,,,,,,,1,0,1,0,109,0,109,0,,,,,,,109,,,0.2,1326.1097387198533,X,l,go,None,0,,,,,,,,,,,,,,,,,,13,001,19,w,Psychologie,2023-01-11_09h04.03.547,00_bat_bachelor,2022.2.4,59.88099281817125,
,,,,,,,,,,,,1,0,1,0,110,0,110,0,,,,,,,110,,,0.2,1327.1106075687858,Y,d,go,d,1,0.2589989907864947,,,,,,,,,,,,,,,,,13,001,19,w,Psychologie,2023-01-11_09h04.03.547,00_bat_bachelor,2022.2.4,59.88099281817125,
,,,,,,,,,,,,1,0,1,0,111,0,111,0,,,,,,,111,,,0.2,1327.6776250558032,Y,None,nogo,l,0,0.3160545335849747,,,,,,,,,,,,,,,,,13,001,19,w,Psychologie,2023-01-11_09h04.03.547,00_bat_bachelor,2022.2.4,59.88099281817125,
,,,,,,,,,,,,1,0,1,0,112,0,112,0,,,,,,,112,,,0.2,1328.294746324711,X,l,go,None,0,,,,,,,,,,,,,,,,,,13,001,19,w,Psychologie,2023-01-11_09h04.03.547,00_bat_bachelor,2022.2.4,59.88099281817125,
,,,,,,,,,,,,1,0,1,0,113,0,113,0,,,,,,,113,,,0.2,1329.2954658402305,Y,d,go,d,1,0.3938456016185228,,,,,,,,,,,,,,,,,13,001,19,w,Psychologie,2023-01-11_09h04.03.547,00_bat_bachelor,2022.2.4,59.88099281817125,
,,,,,,,,,,,,1,0,1,0,114,0,114,0,,,,,,,114,,,0.2,1329.9961047253746,X,l,go,l,1,0.36621698216185905,,,,,,,,,,,,,,,,,13,001,19,w,Psychologie,2023-01-11_09h04.03.547,00_bat_bachelor,2022.2.4,59.88099281817125,
,,,,,,,,,,,,1,0,1,0,115,0,115,0,,,,,,,115,,,0.2,1330.6632255336735,Y,d,go,d,1,0.3549180676054675,,,,,,,,,,,,,,,,,13,001,19,w,Psychologie,2023-01-11_09h04.03.547,00_bat_bachelor,2022.2.4,59.88099281817125,
,,,,,,,,,,,,1,0,1,0,116,0,116,0,,,,,,,116,,,0.2,1331.3303637965291,X,l,go,l,1,0.39123760035727173,,,,,,,,,,,,,,,,,13,001,19,w,Psychologie,2023-01-11_09h04.03.547,00_bat_bachelor,2022.2.4,59.88099281817125,
,,,,,,,,,,,,1,0,1,0,117,0,117,0,,,,,,,117,,,0.2,1332.0309871665377,Y,d,go,d,1,0.3959512996079866,,,,,,,,,,,,,,,,,13,001,19,w,Psychologie,2023-01-11_09h04.03.547,00_bat_bachelor,2022.2.4,59.88099281817125,
,,,,,,,,,,,,1,0,1,0,118,0,118,0,,,,,,,118,,,0.2,1332.7314655667578,Y,None,nogo,None,1,,,,,,,,,,,,,,,,,,13,001,19,w,Psychologie,2023-01-11_09h04.03.547,00_bat_bachelor,2022.2.4,59.88099281817125,
,,,,,,,,,,,,1,0,1,0,119,0,119,0,,,,,,,119,,,0.2,1333.7322524762421,X,l,go,l,1,0.19761083982302807,,,,,,,,,,,,,,,,,13,001,19,w,Psychologie,2023-01-11_09h04.03.547,00_bat_bachelor,2022.2.4,59.88099281817125,
,,,,,,,,,,,,1,0,1,0,120,0,120,0,,,,,,,120,,,0.2,1334.2324539308902,Y,d,go,d,1,0.40115518093807623,,,,,,,,,,,,,,,,,13,001,19,w,Psychologie,2023-01-11_09h04.03.547,00_bat_bachelor,2022.2.4,59.88099281817125,
,,,,,,,,,,,,1,0,1,0,121,0,121,0,,,,,,,121,,,0.2,1334.9495291876374,Y,None,nogo,None,1,,,,,,,,,,,,,,,,,,13,001,19,w,Psychologie,2023-01-11_09h04.03.547,00_bat_bachelor,2022.2.4,59.88099281817125,
,,,,,,,,,,,,1,0,1,0,122,0,122,0,,,,,,,122,,,0.2,1335.9502918546787,Y,None,nogo,None,1,,,,,,,,,,,,,,,,,,13,001,19,w,Psychologie,2023-01-11_09h04.03.547,00_bat_bachelor,2022.2.4,59.88099281817125,
,,,,,,,,,,,,1,0,1,0,123,0,123,0,,,,,,,123,,,0.2,1336.9512780369841,X,l,go,l,1,0.3388458173722029,,,,,,,,,,,,,,,,,13,001,19,w,Psychologie,2023-01-11_09h04.03.547,00_bat_bachelor,2022.2.4,59.88099281817125,
,,,,,,,,,,,,1,0,1,0,124,0,124,0,,,,,,,124,,,0.2,1337.6016356856271,Y,d,go,d,1,0.42368658576742746,,,,,,,,,,,,,,,,,13,001,19,w,Psychologie,2023-01-11_09h04.03.547,00_bat_bachelor,2022.2.4,59.88099281817125,
,,,,,,,,,,,,1,0,1,0,125,0,125,0,,,,,,,125,,,0.2,1338.3354527686897,Y,None,nogo,l,0,0.2660996002960019,,,,,,,,,,,,,,,,,13,001,19,w,Psychologie,2023-01-11_09h04.03.547,00_bat_bachelor,2022.2.4,59.88099281817125,
,,,,,,,,,,,,1,0,1,0,126,0,126,0,,,,,,,126,,,0.2,1338.9028445589356,X,l,go,l,1,0.6277211089618504,,,,,,,,,,,,,,,,,13,001,19,w,Psychologie,2023-01-11_09h04.03.547,00_bat_bachelor,2022.2.4,59.88099281817125,
,,,,,,,,,,,,1,0,1,0,127,0,127,0,,,,,,,127,,,0.2,1339.836915314867,Y,d,go,d,1,0.2217747303075157,,,,,,,,,,,,,,,,,13,001,19,w,Psychologie,2023-01-11_09h04.03.547,00_bat_bachelor,2022.2.4,59.88099281817125,
,,,,,,,,,,,,1,0,1,0,128,0,128,0,,,,,,,128,,,0.2,1340.3704152098799,X,l,go,l,1,0.4240696162742097,,,,,,,,,,,,,,,,,13,001,19,w,Psychologie,2023-01-11_09h04.03.547,00_bat_bachelor,2022.2.4,59.88099281817125,
,,,,,,,,,,,,1,0,1,0,129,0,129,0,,,,,,,129,,,0.2,1341.1042250202154,X,None,nogo,None,1,,,,,,,,,,,,,,,,,,13,001,19,w,Psychologie,2023-01-11_09h04.03.547,00_bat_bachelor,2022.2.4,59.88099281817125,
,,,,,,,,,,,,1,0,1,0,130,0,130,0,,,,,,,130,,,0.2,1342.1053372632014,Y,d,go,d,1,0.38489335487247445,,,,,,,,,,,,,,,,,13,001,19,w,Psychologie,2023-01-11_09h04.03.547,00_bat_bachelor,2022.2.4,59.88099281817125,
,,,,,,,,,,,,1,0,1,0,131,0,131,0,,,,,,,131,,,0.2,1342.8056532391056,X,l,go,l,1,0.27605548390420154,,,,,,,,,,,,,,,,,13,001,19,w,Psychologie,2023-01-11_09h04.03.547,00_bat_bachelor,2022.2.4,59.88099281817125,
,,,,,,,,,,,,1,0,1,0,132,0,132,0,,,,,,,132,,,0.2,1343.3892990978493,X,None,nogo,None,1,,,,,,,,,,,,,,,,,,13,001,19,w,Psychologie,2023-01-11_09h04.03.547,00_bat_bachelor,2022.2.4,59.88099281817125,
,,,,,,,,,,,,1,0,1,0,133,0,133,0,,,,,,,133,,,0.2,1344.3903730377497,Y,d,go,d,1,0.275737907999428,,,,,,,,,,,,,,,,,13,001,19,w,Psychologie,2023-01-11_09h04.03.547,00_bat_bachelor,2022.2.4,59.88099281817125,
,,,,,,,,,,,,1,0,1,0,134,0,134,0,,,,,,,134,,,0.2,1344.9741270177474,X,l,go,l,1,0.315743260725867,,,,,,,,,,,,,,,,,13,001,19,w,Psychologie,2023-01-11_09h04.03.547,00_bat_bachelor,2022.2.4,59.88099281817125,
,,,,,,,,,,,,1,0,1,0,135,0,135,0,,,,,,,135,,,0.2,1345.5909937410906,Y,d,go,d,1,0.59553006303031,,,,,,,,,,,,,,,,,13,001,19,w,Psychologie,2023-01-11_09h04.03.547,00_bat_bachelor,2022.2.4,59.88099281817125,
,,,,,,,,,,,,1,0,1,0,136,0,136,0,,,,,,,136,,,0.2,1346.491927996074,X,l,go,l,1,0.3660724972432945,,,,,,,,,,,,,,,,,13,001,19,w,Psychologie,2023-01-11_09h04.03.547,00_bat_bachelor,2022.2.4,59.88099281817125,
,,,,,,,,,,,,1,0,1,0,137,0,137,0,,,,,,,137,,,0.2,1347.159084198327,X,None,nogo,None,1,,,,,,,,,,,,,,,,,,13,001,19,w,Psychologie,2023-01-11_09h04.03.547,00_bat_bachelor,2022.2.4,59.88099281817125,
,,,,,,,,,,,,1,0,1,0,138,0,138,0,,,,,,,138,,,0.2,1348.1599171684356,Y,d,go,d,1,0.3295527219597716,,,,,,,,,,,,,,,,,13,001,19,w,Psychologie,2023-01-11_09h04.03.547,00_bat_bachelor,2022.2.4,59.88099281817125,
,,,,,,,,,,,,1,0,1,0,139,0,139,0,,,,,,,139,,,0.2,1348.7936609908647,X,l,go,l,1,0.2731313612603117,,,,,,,,,,,,,,,,,13,001,19,w,Psychologie,2023-01-11_09h04.03.547,00_bat_bachelor,2022.2.4,59.88099281817125,
,,,,,,,,,,,,1,0,1,0,140,0,140,0,,,,,,,140,,,0.2,1349.3775095163728,Y,d,go,d,1,0.5367654284927994,,,,,,,,,,,,,,,,,13,001,19,w,Psychologie,2023-01-11_09h04.03.547,00_bat_bachelor,2022.2.4,59.88099281817125,
,,,,,,,,,,,,1,0,1,0,141,0,141,0,,,,,,,141,,,0.2,1350.2279026559554,X,l,go,l,1,0.27801378787262365,,,,,,,,,,,,,,,,,13,001,19,w,Psychologie,2023-01-11_09h04.03.547,00_bat_bachelor,2022.2.4,59.88099281817125,
,,,,,,,,,,,,1,0,1,0,142,0,142,0,,,,,,,142,,,0.2,1350.8119732421765,X,None,nogo,None,1,,,,,1351.6121505998308,,,,,,,,,,,,,13,001,19,w,Psychologie,2023-01-11_09h04.03.547,00_bat_bachelor,2022.2.4,59.88099281817125,
,,,,,,,,,,,,1,0,1,0,143,0,143,0,,,,,,,143,,,0.2,1351.8126733637182,Y,d,go,d,1,0.2294023703725543,,,,,,,,,,,,,,,,,13,001,19,w,Psychologie,2023-01-11_09h04.03.547,00_bat_bachelor,2022.2.4,59.88099281817125,
,,,,,,,,,,,,1,0,1,0,144,0,144,0,,,,,,,144,,,0.2,1352.3464471982734,X,l,go,l,1,0.27132772404002026,,,,,,,,,,,,,,,,,13,001,19,w,Psychologie,2023-01-11_09h04.03.547,00_bat_bachelor,2022.2.4,59.88099281817125,
,,,,,,,,,,,,1,0,1,0,145,0,145,0,,,,,,,145,,,0.2,1352.9301551176468,X,None,nogo,None,1,,,,,1353.7304498087033,,,,,,,,,,,,,13,001,19,w,Psychologie,2023-01-11_09h04.03.547,00_bat_bachelor,2022.2.4,59.88099281817125,
,,,,,,,,,,,,1,0,1,0,146,0,146,0,,,,,,,146,,,0.2,1353.9306176633108,X,None,nogo,d,0,0.25571414071600884,,,,,,,,,,,,,,,,,13,001,19,w,Psychologie,2023-01-11_09h04.03.547,00_bat_bachelor,2022.2.4,59.88099281817125,
,,,,,,,,,,,,1,0,1,0,147,0,147,0,,,,,,,147,,,0.2,1354.4978509080538,Y,d,go,None,0,,,,,,,,,,,,,,,,,,13,001,19,w,Psychologie,2023-01-11_09h04.03.547,00_bat_bachelor,2022.2.4,59.88099281817125,
,,,,,,,,,,,,1,0,1,0,148,0,148,0,,,,,,,148,,,0.2,1355.4986606054008,X,l,go,l,1,0.44784999144030735,,,,,,,,,,,,,,,,,13,001,19,w,Psychologie,2023-01-11_09h04.03.547,00_bat_bachelor,2022.2.4,59.88099281817125,
,,,,,,,,,,,,1,0,1,0,149,0,149,0,,,,,,,149,,,0.2,1356.2493465451407,Y,d,go,d,1,0.3686548015102744,,,,,,,,,,,,,,,,,13,001,19,w,Psychologie,2023-01-11_09h04.03.547,00_bat_bachelor,2022.2.4,59.88099281817125,
,,,,,,,,,,,,1,0,1,0,150,0,150,0,,,,,,,150,,,0.2,1356.9332067554933,Y,None,nogo,l,0,0.37297140966984443,,,,,,,,,,,,,,,,,13,001,19,w,Psychologie,2023-01-11_09h04.03.547,00_bat_bachelor,2022.2.4,59.88099281817125,
,,,,,,,,,,,,1,0,1,0,151,0,151,0,,,,,,,151,,,0.2,1357.6170999355672,X,l,go,l,1,0.6164323762059212,,,,,,,,,,,,,,,,,13,001,19,w,Psychologie,2023-01-11_09h04.03.547,00_bat_bachelor,2022.2.4,59.88099281817125,
,,,,,,,,,,,,1,0,1,0,152,0,152,0,,,,,,,152,,,0.2,1358.534229592362,Y,d,go,d,1,0.4511600536352489,,,,,,,,,,,,,,,,,13,001,19,w,Psychologie,2023-01-11_09h04.03.547,00_bat_bachelor,2022.2.4,59.88099281817125,
,,,,,,,,,,,,1,0,1,0,153,0,153,0,,,,,,,153,,,0.2,1359.301718934148,X,l,go,l,1,0.38798765937099233,,,,,,,,,,,,,,,,,13,001,19,w,Psychologie,2023-01-11_09h04.03.547,00_bat_bachelor,2022.2.4,59.88099281817125,
,,,,,,,,,,,,1,0,1,0,154,0,154,0,,,,,,,154,,,0.2,1360.0019835160929,Y,d,go,d,1,0.6486481494212057,,,,,,,,,,,,,,,,,13,001,19,w,Psychologie,2023-01-11_09h04.03.547,00_bat_bachelor,2022.2.4,59.88099281817125,
,,,,,,,,,,,,1,0,1,0,155,0,155,0,,,,,,,155,,,0.2,1360.9529914923478,Y,None,nogo,l,0,0.4175401585525833,,,,,,,,,,,,,,,,,13,001,19,w,Psychologie,2023-01-11_09h04.03.547,00_bat_bachelor,2022.2.4,59.88099281817125,
,,,,,,,,,,,,1,0,1,0,156,0,156,0,,,,,,,156,,,0.2,1361.6865166965,X,l,go,l,1,0.5950738203828223,,,,,,,,,,,,,,,,,13,001,19,w,Psychologie,2023-01-11_09h04.03.547,00_bat_bachelor,2022.2.4,59.88099281817125,
,,,,,,,,,,,,1,0,1,0,157,0,157,0,,,,,,,157,,,0.2,1362.5872807695705,Y,d,go,d,1,0.3344269061635714,,,,,,,,,,,,,,,,,13,001,19,w,Psychologie,2023-01-11_09h04.03.547,00_bat_bachelor,2022.2.4,59.88099281817125,
,,,,,,,,,,,,1,0,1,0,158,0,158,0,,,,,,,158,,,0.2,1363.2381087215035,Y,None,nogo,None,1,,,,,,,,,,,,,,,,,,13,001,19,w,Psychologie,2023-01-11_09h04.03.547,00_bat_bachelor,2022.2.4,59.88099281817125,
,,,,,,,,,,,,1,0,1,0,159,0,159,0,,,,,,,159,,,0.2,1364.238495630765,X,l,go,l,1,0.395754935889272,,,,,,,,,,,,,,,,,13,001,19,w,Psychologie,2023-01-11_09h04.03.547,00_bat_bachelor,2022.2.4,59.88099281817125,
,,,,,,,,,,,,1,0,1,0,160,0,160,0,,,,,,,160,,,0.2,1364.9393318493676,Y,d,go,d,1,0.4308225892309565,,,,,,,,,,,,,,,,,13,001,19,w,Psychologie,2023-01-11_09h04.03.547,00_bat_bachelor,2022.2.4,59.88099281817125,
,,,,,,,,,,,,1,0,1,0,161,0,161,0,,,,,,,161,,,0.2,1365.6730960839195,Y,None,nogo,None,1,,,,,1366.4739304115938,,,,,,,,,,,,,13,001,19,w,Psychologie,2023-01-11_09h04.03.547,00_bat_bachelor,2022.2.4,59.88099281817125,
,,,,,,,,,,,,1,0,1,0,162,0,162,0,,,,,,,162,,,0.2,1366.6740415389359,Y,None,nogo,None,1,,,,,,,,,,,,,,,,,,13,001,19,w,Psychologie,2023-01-11_09h04.03.547,00_bat_bachelor,2022.2.4,59.88099281817125,
,,,,,,,,,,,,1,0,1,0,163,0,163,0,,,,,,,163,,,0.2,1367.674845418107,X,l,go,l,1,0.5270286964951083,,,,,,,,,,,,,,,,,13,001,19,w,Psychologie,2023-01-11_09h04.03.547,00_bat_bachelor,2022.2.4,59.88099281817125,
,,,,,,,,,,,,1,0,1,0,164,0,164,0,,,,,,,164,,,0.2,1368.5087905497057,Y,d,go,d,1,0.34900097383069806,,,,,,,,,,,,,,,,,13,001,19,w,Psychologie,2023-01-11_09h04.03.547,00_bat_bachelor,2022.2.4,59.88099281817125,
,,,,,,,,,,,,1,0,1,0,165,0,165,0,,,,,,,165,,,0.2,1369.1592868650914,Y,None,nogo,None,1,,,,,,,,,,,,,,,,,,13,001,19,w,Psychologie,2023-01-11_09h04.03.547,00_bat_bachelor,2022.2.4,59.88099281817125,
,,,,,,,,,,,,1,0,1,0,166,0,166,0,,,,,,,166,,,0.2,1370.1596616531606,X,l,go,l,1,0.45740587485488504,,,,,,,,,,,,,,,,,13,001,19,w,Psychologie,2023-01-11_09h04.03.547,00_bat_bachelor,2022.2.4,59.88099281817125,
,,,,,,,,,,,,1,0,1,0,167,0,167,0,,,,,,,167,,,0.2,1370.9269667524495,Y,d,go,d,1,0.37856365481275134,,,,,,,,,,,,,,,,,13,001,19,w,Psychologie,2023-01-11_09h04.03.547,00_bat_bachelor,2022.2.4,59.88099281817125,
,,,,,,,,,,,,1,0,1,0,168,0,168,0,,,,,,,168,,,0.2,1371.6111493872304,X,l,go,l,1,0.41444003584911115,,,,,,,,,,,,,,,,,13,001,19,w,Psychologie,2023-01-11_09h04.03.547,00_bat_bachelor,2022.2.4,59.88099281817125,
,,,,,,,,,,,,1,0,1,0,169,0,169,0,,,,,,,169,,,0.2,1372.3283463410044,X,None,nogo,None,1,,,,,,,,,,,,,,,,,,13,001,19,w,Psychologie,2023-01-11_09h04.03.547,00_bat_bachelor,2022.2.4,59.88099281817125,
,,,,,,,,,,,,1,0,1,0,170,0,170,0,,,,,,,170,,,0.2,1373.329136159562,Y,d,go,d,1,0.3613025555096101,,,,,,,,,,,,,,,,,13,001,19,w,Psychologie,2023-01-11_09h04.03.547,00_bat_bachelor,2022.2.4,59.88099281817125,
,,,,,,,,,,,,1,0,1,0,171,0,171,0,,,,,,,171,,,0.2,1373.9963107860822,X,l,go,l,1,0.6545269401394762,,,,,,,,,,,,,,,,,13,001,19,w,Psychologie,2023-01-11_09h04.03.547,00_bat_bachelor,2022.2.4,59.88099281817125,
,,,,,,,,,,,,1,0,1,0,172,0,172,0,,,,,,,172,,,0.2,1374.9637056793727,Y,d,go,d,1,0.5184565711242612,,,,,,,,,,,,,,,,,13,001,19,w,Psychologie,2023-01-11_09h04.03.547,00_bat_bachelor,2022.2.4,59.88099281817125,
,,,,,,,,,,,,1,0,1,0,173,0,173,0,,,,,,,173,,,0.2,1375.7976314170228,X,l,go,l,1,0.4043042733683251,,,,,,,,,,,,,,,,,13,001,19,w,Psychologie,2023-01-11_09h04.03.547,00_bat_bachelor,2022.2.4,59.88099281817125,
,,,,,,,,,,,,1,0,1,0,174,0,174,0,,,,,,,174,,,0.2,1376.514512734313,X,None,nogo,None,1,,,,,,,,,,,,,,,,,,13,001,19,w,Psychologie,2023-01-11_09h04.03.547,00_bat_bachelor,2022.2.4,59.88099281817125,
,,,,,,,,,,,,1,0,1,0,175,0,175,0,,,,,,,175,,,0.2,1377.515660371224,Y,d,go,d,1,0.4460812633042224,,,,,,,,,,,,,,,,,13,001,19,w,Psychologie,2023-01-11_09h04.03.547,00_bat_bachelor,2022.2.4,59.88099281817125,
,,,,,,,,,,,,1,0,1,0,176,0,176,0,,,,,,,176,,,0.2,1378.2660015835136,X,l,go,l,1,0.35206133892643265,,,,,,,,,,,,,,,,,13,001,19,w,Psychologie,2023-01-11_09h04.03.547,00_bat_bachelor,2022.2.4,59.88099281817125,
,,,,,,,,,,,,1,0,1,0,177,0,177,0,,,,,,,177,,,0.2,1378.9334128162009,Y,d,go,d,1,0.5485976766503882,,,,,,,,,,,,,,,,,13,001,19,w,Psychologie,2023-01-11_09h04.03.547,00_bat_bachelor,2022.2.4,59.88099281817125,
,,,,,,,,,,,,1,0,1,0,178,0,178,0,,,,,,,178,,,0.2,1379.784144380188,Y,None,nogo,None,1,,,,,,,,,,,,,,,,,,13,001,19,w,Psychologie,2023-01-11_09h04.03.547,00_bat_bachelor,2022.2.4,59.88099281817125,
,,,,,,,,,,,,1,0,1,0,179,0,179,0,,,,,,,179,,,0.2,1380.7847460774356,X,l,go,l,1,0.26520796347176656,,,,,,,,,,,,,,,,,13,001,19,w,Psychologie,2023-01-11_09h04.03.547,00_bat_bachelor,2022.2.4,59.88099281817125,
,,,,,,,,,,,,1,0,1,0,180,0,180,0,,,,,,,180,,,0.2,1381.3519575039682,Y,d,go,d,1,0.3702097113709897,,,,,,,,,,,,,,,,,13,001,19,w,Psychologie,2023-01-11_09h04.03.547,00_bat_bachelor,2022.2.4,59.88099281817125,
,,,,,,,,,,,,1,0,1,0,181,0,181,0,,,,,,,181,,,0.2,1382.0354749262915,Y,None,nogo,None,1,,,,,,,,,,,,,,,,,,13,001,19,w,Psychologie,2023-01-11_09h04.03.547,00_bat_bachelor,2022.2.4,59.88099281817125,
,,,,,,,,,,,,1,0,1,0,182,0,182,0,,,,,,,182,,,0.2,1383.0364625631191,X,l,go,l,1,0.31775004958035424,,,,,,,,,,,,,,,,,13,001,19,w,Psychologie,2023-01-11_09h04.03.547,00_bat_bachelor,2022.2.4,59.88099281817125,
,,,,,,,,,,,,1,0,1,0,183,0,183,0,,,,,,,183,,,0.2,1383.6703275977343,Y,d,go,d,1,0.43605313723674044,,,,,,,,,,,,,,,,,13,001,19,w,Psychologie,2023-01-11_09h04.03.547,00_bat_bachelor,2022.2.4,59.88099281817125,
,,,,,,,,,,,,1,0,1,0,184,0,184,0,,,,,,,184,,,0.2,1384.4208835980098,Y,None,nogo,None,1,,,,,,,,,,,,,,,,,,13,001,19,w,Psychologie,2023-01-11_09h04.03.547,00_bat_bachelor,2022.2.4,59.88099281817125,
,,,,,,,,,,,,1,0,1,0,185,0,185,0,,,,,,,185,,,0.2,1385.421674386249,X,l,go,l,1,0.15663966842112131,,,,,,,,,,,,,,,,,13,001,19,w,Psychologie,2023-01-11_09h04.03.547,00_bat_bachelor,2022.2.4,59.88099281817125,
,,,,,,,,,,,,1,0,1,0,186,0,186,0,,,,,,,186,,,0.2,1385.8886477035703,Y,d,go,d,1,0.5856512703758199,,,,,,,,,,,,,,,,,13,001,19,w,Psychologie,2023-01-11_09h04.03.547,00_bat_bachelor,2022.2.4,59.88099281817125,
,,,,,,,,,,,,1,0,1,0,187,0,187,0,,,,,,,187,,,0.2,1386.7891363826056,Y,None,nogo,None,1,,,,,,,,,,,,,,,,,,13,001,19,w,Psychologie,2023-01-11_09h04.03.547,00_bat_bachelor,2022.2.4,59.88099281817125,
,,,,,,,,,,,,1,0,1,0,188,0,188,0,,,,,,,188,,,0.2,1387.7900813527522,X,l,go,l,1,0.26764190406538546,,,,,,,,,,,,,,,,,13,001,19,w,Psychologie,2023-01-11_09h04.03.547,00_bat_bachelor,2022.2.4,59.88099281817125,
,,,,,,,,,,,,1,0,1,0,189,0,189,0,,,,,,,189,,,0.2,1388.3739085449197,Y,d,go,d,1,0.37249722762499005,,,,,,,,,,,,,,,,,13,001,19,w,Psychologie,2023-01-11_09h04.03.547,00_bat_bachelor,2022.2.4,59.88099281817125,
,,,,,,,,,,,,1,0,1,0,190,0,190,0,,,,,,,190,,,0.2,1389.057806573488,X,l,go,l,1,0.5686209590930957,,,,,,,,,,,,,,,,,13,001,19,w,Psychologie,2023-01-11_09h04.03.547,00_bat_bachelor,2022.2.4,59.88099281817125,
,,,,,,,,,,,,1,0,1,0,191,0,191,0,,,,,,,191,,,0.2,1389.9414884564758,Y,d,go,d,1,0.46855157721438445,,,,,,,,,,,,,,,,,13,001,19,w,Psychologie,2023-01-11_09h04.03.547,00_bat_bachelor,2022.2.4,59.88099281817125,
,,,,,,,,,,,,1,0,1,0,192,0,192,0,,,,,,,192,,,0.2,1390.7256818063906,X,l,go,l,1,0.4037888791644946,,,,,,,,,,,,,,,,,13,001,19,w,Psychologie,2023-01-11_09h04.03.547,00_bat_bachelor,2022.2.4,59.88099281817125,
,,,,,,,,,,,,1,0,1,0,193,0,193,0,,,,,,,193,,,0.2,1391.442973305675,Y,d,go,d,1,0.3439187895564828,,,,,,,,,,,,,,,,,13,001,19,w,Psychologie,2023-01-11_09h04.03.547,00_bat_bachelor,2022.2.4,59.88099281817125,
,,,,,,,,,,,,1,0,1,0,194,0,194,0,,,,,,,194,,,0.2,1392.0930744693615,Y,None,nogo,l,0,0.46049775514984503,,,,,,,,,,,,,,,,,13,001,19,w,Psychologie,2023-01-11_09h04.03.547,00_bat_bachelor,2022.2.4,59.88099281817125,
,,,,,,,,,,,,1,0,1,0,195,0,195,0,,,,,,,195,,,0.2,1392.8603679322987,X,l,go,None,0,,,,,,,,,,,,,,,,,,13,001,19,w,Psychologie,2023-01-11_09h04.03.547,00_bat_bachelor,2022.2.4,59.88099281817125,
,,,,,,,,,,,,1,0,1,0,196,0,196,0,,,,,,,196,,,0.2,1393.8610995690105,Y,d,go,None,0,,,,,,,,,,,,,,,,,,13,001,19,w,Psychologie,2023-01-11_09h04.03.547,00_bat_bachelor,2022.2.4,59.88099281817125,
,,,,,,,,,,,,1,0,1,0,197,0,197,0,,,,,,,197,,,0.2,1394.8622627210862,X,l,go,l,1,0.2521965632622596,,,,,,,,,,,,,,,,,13,001,19,w,Psychologie,2023-01-11_09h04.03.547,00_bat_bachelor,2022.2.4,59.88099281817125,
,,,,,,,,,,,,1,0,1,0,198,0,198,0,,,,,,,198,,,0.2,1395.429326268757,Y,d,go,d,1,0.2770722116692923,,,,,,,,,,,,,,,,,13,001,19,w,Psychologie,2023-01-11_09h04.03.547,00_bat_bachelor,2022.2.4,59.88099281817125,
,,,,,,,,,,,,1,0,1,0,199,0,199,0,,,,,,,199,,,0.2,1396.0130977033114,X,l,go,l,1,0.3976007549499627,,,,,,,,,,,,,,,,,13,001,19,w,Psychologie,2023-01-11_09h04.03.547,00_bat_bachelor,2022.2.4,59.88099281817125,
,,,,,,,,,,,,1,0,1,0,200,0,200,0,,,,,,,200,,,0.2,1396.713256103394,X,None,nogo,d,0,0.2881238533882424,,,,,,,,,,,,,,,,,13,001,19,w,Psychologie,2023-01-11_09h04.03.547,00_bat_bachelor,2022.2.4,59.88099281817125,
,,,,,,,,,,,,1,0,1,0,201,0,201,0,,,,,,,201,,,0.2,1397.3139565158635,Y,d,go,d,1,0.4235052523436025,,,,,,,,,,,,,,,,,13,001,19,w,Psychologie,2023-01-11_09h04.03.547,00_bat_bachelor,2022.2.4,59.88099281817125,
,,,,,,,,,,,,1,0,1,0,202,0,202,0,,,,,,,202,,,0.2,1398.0477731140563,X,l,go,l,1,0.3459086086950265,,,,,,,,,,,,,,,,,13,001,19,w,Psychologie,2023-01-11_09h04.03.547,00_bat_bachelor,2022.2.4,59.88099281817125,
,,,,,,,,,,,,1,0,1,0,203,0,203,0,,,,,,,203,,,0.2,1398.6985724599217,Y,d,go,d,1,0.5751499319449067,,,,,,,,,,,,,,,,,13,001,19,w,Psychologie,2023-01-11_09h04.03.547,00_bat_bachelor,2022.2.4,59.88099281817125,
,,,,,,,,,,,,1,0,1,0,204,0,204,0,,,,,,,204,,,0.2,1399.582529252133,X,l,go,l,1,0.5073292930028401,,,,,,,,,,,,,,,,,13,001,19,w,Psychologie,2023-01-11_09h04.03.547,00_bat_bachelor,2022.2.4,59.88099281817125,
