loop_instruction.thisRepN,loop_instruction.thisTrialN,loop_instruction.thisN,loop_instruction.thisIndex,loop_rsi_practice.thisRepN,loop_rsi_practice.thisTrialN,loop_rsi_practice.thisN,loop_rsi_practice.thisIndex,loop_practice.thisRepN,loop_practice.thisTrialN,loop_practice.thisN,loop_practice.thisIndex,loop_exp.thisRepN,loop_exp.thisTrialN,loop_exp.thisN,loop_exp.thisIndex,loop_trials.thisRepN,loop_trials.thisTrialN,loop_trials.thisN,loop_trials.thisIndex,map_condition,map_x_key,map_y_key,key_resp_welcome.started,key_resp_welcome.keys,key_resp_welcome.rt,index,text_empty_rsi_practice.started,text_empty_rsi_practice.stopped,rsi,stimulus.started,stimulus,correct,trial_type,key_resp_trial.keys,key_resp_trial.corr,key_resp_trial.rt,key_resp_instruction_rsi.started,key_resp_instruction_rsi.keys,key_resp_instruction_rsi.rt,stimulus.stopped,key_resp_instruction_rsi.stopped,key_resp_instruction_final.started,key_resp_instruction_final.keys,key_resp_instruction_final.rt,key_resp_break.started,key_resp_break.keys,key_resp_break.rt,key_resp_break.stopped,key_resp_end_screen.started,image_end_screen.started,key_resp_end_screen.stopped,image_end_screen.stopped,key_resp_end_screen.keys,participant,session,Alter,Geschlecht (w/m/d/andere),Studiengang,date,expName,psychopyVersion,frameRate,
,,,,0,0,0,0,0,0,0,0,,,,,,,,,0,d,l,350.2755986790871,j,32.69354517330066,0,382.9933071482519,384.00779685226735,1,384.00779685226735,X,d,go,d,1,0.2543444755137898,,,,,,,,,,,,,,,,,,14,001,22,w,Psychologie,2023-01-11_10h30.35.751,00_bat_bachelor,2022.2.4,60.16747716074206,
,,,,0,0,0,0,1,0,1,0,,,,,,,,,,,,,,,1,384.9747912604944,385.97564653365407,1,385.97564653365407,Y,l,go,d,0,0.30286668083863333,,,,,,,,,,,,,,,,,,14,001,22,w,Psychologie,2023-01-11_10h30.35.751,00_bat_bachelor,2022.2.4,60.16747716074206,
,,,,0,0,0,0,2,0,2,0,,,,,,,,,,,,,,,2,386.99334642101894,387.9937663000019,1,387.9937663000019,X,d,go,d,1,0.28373891400406137,,,,,,,,,,,,,,,,,,14,001,22,w,Psychologie,2023-01-11_10h30.35.751,00_bat_bachelor,2022.2.4,60.16747716074206,
,,,,0,0,0,0,3,0,3,0,,,,,,,,,,,,,,,3,388.97816289850743,389.9789667776786,1,389.9789667776786,X,None,nogo,l,0,0.18694613978732377,,,,,,,,,,,,,,,,,,14,001,22,w,Psychologie,2023-01-11_10h30.35.751,00_bat_bachelor,2022.2.4,60.16747716074206,
,,,,0,0,0,0,4,0,4,0,,,,,,,,,,,,,,,4,391.27956765069393,392.28062316635624,1,392.28062316635624,Y,l,go,d,0,0.6540348511189222,,,,,,,,,,,,,,,,,,14,001,22,w,Psychologie,2023-01-11_10h30.35.751,00_bat_bachelor,2022.2.4,60.16747716074206,
,,,,0,0,0,0,5,0,5,0,,,,,,,,,,,,,,,5,393.6481176475645,394.64907910258626,1,394.64907910258626,X,d,go,d,1,0.3487144606770016,,,,,,,,,,,,,,,,,,14,001,22,w,Psychologie,2023-01-11_10h30.35.751,00_bat_bachelor,2022.2.4,60.16747716074206,
,,,,0,0,0,0,6,0,6,0,,,,,,,,,,,,,,,6,395.6996119755786,396.70065100636566,1,396.70065100636566,Y,l,go,l,1,0.29712995077716187,,,,,,,,,,,,,,,,,,14,001,22,w,Psychologie,2023-01-11_10h30.35.751,00_bat_bachelor,2022.2.4,60.16747716074206,
,,,,0,0,0,0,7,0,7,0,,,,,,,,,,,,,,,7,397.7014354915882,398.7022573101858,1,398.7022573101858,X,d,go,d,1,0.2637849649472628,,,,,,,,,,,,,,,,,,14,001,22,w,Psychologie,2023-01-11_10h30.35.751,00_bat_bachelor,2022.2.4,60.16747716074206,
,,,,0,0,0,0,8,0,8,0,,,,,,,,,,,,,,,8,399.669576082204,400.6704745068855,1,400.6704745068855,X,None,nogo,None,1,,,,,,,,,,,,,,,,,,,14,001,22,w,Psychologie,2023-01-11_10h30.35.751,00_bat_bachelor,2022.2.4,60.16747716074206,
,,,,0,0,0,0,9,0,9,0,,,,,,,,,,,,,,,9,402.0712877921469,403.07230985324713,1,403.07230985324713,Y,l,go,l,1,0.40610406422638334,,,,,,,,,,,,,,,,,,14,001,22,w,Psychologie,2023-01-11_10h30.35.751,00_bat_bachelor,2022.2.4,60.16747716074206,
,,,,0,0,0,0,10,0,10,0,,,,,,,,,,,,,,,10,404.1894604554982,405.19039912262815,1,405.19039912262815,X,d,go,d,1,0.36691422705189325,,,,,,,,,,,,,,,,,,14,001,22,w,Psychologie,2023-01-11_10h30.35.751,00_bat_bachelor,2022.2.4,60.16747716074206,
,,,,0,0,0,0,11,0,11,0,,,,,,,,,,,,,,,11,406.2579734584142,407.2584762465267,1,407.2584762465267,Y,l,go,d,0,0.23518131469609216,,,,,,,,,,,,,,,,,,14,001,22,w,Psychologie,2023-01-11_10h30.35.751,00_bat_bachelor,2022.2.4,60.16747716074206,
,,,,0,0,0,0,12,0,12,0,,,,,,,,,,,,,,,12,408.20937852576026,409.2103128292365,1,409.2103128292365,X,d,go,l,0,0.3320356646727305,,,,,,,,,,,,,,,,,,14,001,22,w,Psychologie,2023-01-11_10h30.35.751,00_bat_bachelor,2022.2.4,60.16747716074206,
,,,,0,0,0,0,13,0,13,0,,,,,,,,,,,,,,,13,410.24430508815567,411.2448359974951,1,411.2448359974951,X,None,nogo,d,0,0.3287905722099822,,,,,,,,,,,,,,,,,,14,001,22,w,Psychologie,2023-01-11_10h30.35.751,00_bat_bachelor,2022.2.4,60.16747716074206,
,,,,0,0,0,0,14,0,14,0,,,,,,,,,,,,,,,14,412.67952954157954,413.68030481468304,1,413.68030481468304,Y,l,go,None,0,,,,,,,,,,,,,,,,,,,14,001,22,w,Psychologie,2023-01-11_10h30.35.751,00_bat_bachelor,2022.2.4,60.16747716074206,
,,,,1,0,1,0,0,0,0,0,,,,,,,,,,,,,,,0,449.3241708238493,449.52431589056505,0.2,449.52431589056505,X,d,go,d,1,0.4179081911861431,415.09127422605525,j,34.214205789379776,,,,,,,,,,,,,,,14,001,22,w,Psychologie,2023-01-11_10h30.35.751,00_bat_bachelor,2022.2.4,60.16747716074206,
,,,,1,0,1,0,1,0,1,0,,,,,,,,,,,,,,,1,450.65820201608585,450.858656416327,0.2,450.858656416327,Y,l,go,l,1,0.3005253463925328,,,,,,,,,,,,,,,,,,14,001,22,w,Psychologie,2023-01-11_10h30.35.751,00_bat_bachelor,2022.2.4,60.16747716074206,
,,,,1,0,1,0,2,0,2,0,,,,,,,,,,,,,,,2,451.8591931438423,452.0596121501003,0.2,452.0596121501003,X,d,go,d,1,0.23449282950605266,,,,,,,,,,,,,,,,,,14,001,22,w,Psychologie,2023-01-11_10h30.35.751,00_bat_bachelor,2022.2.4,60.16747716074206,
,,,,1,0,1,0,3,0,3,0,,,,,,,,,,,,,,,3,453.0103791565343,453.2105271323817,0.2,453.2105271323817,Y,l,go,l,1,0.2679609669430647,,,,,,,,,,,,,,,,,,14,001,22,w,Psychologie,2023-01-11_10h30.35.751,00_bat_bachelor,2022.2.4,60.16747716074206,
,,,,1,0,1,0,4,0,4,0,,,,,,,,,,,,,,,4,454.19455912461854,454.3947846762603,0.2,454.3947846762603,Y,None,nogo,l,0,0.5554054699605331,,,,,,,,,,,,,,,,,,14,001,22,w,Psychologie,2023-01-11_10h30.35.751,00_bat_bachelor,2022.2.4,60.16747716074206,
,,,,1,0,1,0,5,0,5,0,,,,,,,,,,,,,,,5,456.0623529999284,456.2628626729129,0.2,456.2628626729129,X,d,go,d,1,0.4472255387227051,,,,,,,,,,,,,,,,,,14,001,22,w,Psychologie,2023-01-11_10h30.35.751,00_bat_bachelor,2022.2.4,60.16747716074206,
,,,,1,0,1,0,6,0,6,0,,,,,,,,,,,,,,,6,457.41369668542757,457.61388732792693,0.2,457.61388732792693,Y,l,go,l,1,0.31191444280557334,,,,,,,,,,,,,,,,,,14,001,22,w,Psychologie,2023-01-11_10h30.35.751,00_bat_bachelor,2022.2.4,60.16747716074206,
,,,,1,0,1,0,7,0,7,0,,,,,,,,,,,,,,,7,458.6313263667107,458.831117978727,0.2,458.831117978727,Y,None,nogo,None,1,,,,,459.6320972761605,,,,,,,,,,,,,,14,001,22,w,Psychologie,2023-01-11_10h30.35.751,00_bat_bachelor,2022.2.4,60.16747716074206,
,,,,1,0,1,0,8,0,8,0,,,,,,,,,,,,,,,8,460.2325426581956,460.4326227552083,0.2,460.4326227552083,X,d,go,d,1,0.4850694358465262,,,,,,,,,,,,,,,,,,14,001,22,w,Psychologie,2023-01-11_10h30.35.751,00_bat_bachelor,2022.2.4,60.16747716074206,
,,,,1,0,1,0,9,0,9,0,,,,,,,,,,,,,,,9,461.6336017617432,461.83371094966424,0.2,461.83371094966424,Y,l,go,l,1,0.539908735168865,,,,,,,,,,,,,,,,,,14,001,22,w,Psychologie,2023-01-11_10h30.35.751,00_bat_bachelor,2022.2.4,60.16747716074206,
,,,,1,0,1,0,10,0,10,0,,,,,,,,,,,,,,,10,463.08464295012527,463.28451504703844,0.2,463.28451504703844,X,d,go,d,1,0.35373167518991977,,,,,,,,,,,,,,,,,,14,001,22,w,Psychologie,2023-01-11_10h30.35.751,00_bat_bachelor,2022.2.4,60.16747716074206,
,,,,1,0,1,0,11,0,11,0,,,,,,,,,,,,,,,11,464.35234538294026,464.5525399042526,0.2,464.5525399042526,X,None,nogo,None,1,,,,,,,,,,,,,,,,,,,14,001,22,w,Psychologie,2023-01-11_10h30.35.751,00_bat_bachelor,2022.2.4,60.16747716074206,
,,,,1,0,1,0,12,0,12,0,,,,,,,,,,,,,,,12,465.95340894709807,466.1533794683055,0.2,466.1533794683055,Y,l,go,l,1,0.4928837426705286,,,,,,,,,,,,,,,,,,14,001,22,w,Psychologie,2023-01-11_10h30.35.751,00_bat_bachelor,2022.2.4,60.16747716074206,
,,,,1,0,1,0,13,0,13,0,,,,,,,,,,,,,,,13,467.3545451415994,467.5544579658017,0.2,467.5544579658017,X,d,go,d,1,0.29123079642886296,,,,,,,,,,,,,,,,,,14,001,22,w,Psychologie,2023-01-11_10h30.35.751,00_bat_bachelor,2022.2.4,60.16747716074206,
,,,,1,0,1,0,14,0,14,0,,,,,,,,,,,,,,,14,468.5555706935993,468.75571527550346,0.2,468.75571527550346,X,None,nogo,d,0,0.45067087371717207,,,,,,,,,,,,,,,,,,14,001,22,w,Psychologie,2023-01-11_10h30.35.751,00_bat_bachelor,2022.2.4,60.16747716074206,
,,,,,,,,,,,,,,,,,,,,,,,,,,,,,,,,,,,,,470.33750707271975,None,,,470.33750707271975,470.33750707271975,space,18.855776524695102,,,,,,,,,,14,001,22,w,Psychologie,2023-01-11_10h30.35.751,00_bat_bachelor,2022.2.4,60.16747716074206,
,,,,,,,,,,,,0,0,0,0,0,0,0,0,,,,,,,0,,,1,490.22210531981546,X,d,go,d,1,0.3276623292185832,,,,,,,,,,,,,,,,,,14,001,22,w,Psychologie,2023-01-11_10h30.35.751,00_bat_bachelor,2022.2.4,60.16747716074206,
,,,,,,,,,,,,0,0,0,0,1,0,1,0,,,,,,,1,,,1,491.65649098495487,Y,l,go,l,1,0.6218389567220584,,,,,,,,,,,,,,,,,,14,001,22,w,Psychologie,2023-01-11_10h30.35.751,00_bat_bachelor,2022.2.4,60.16747716074206,
,,,,,,,,,,,,0,0,0,0,2,0,2,0,,,,,,,2,,,1,493.3911759472394,X,d,go,d,1,0.35837749563506804,,,,,,,,,,,,,,,,,,14,001,22,w,Psychologie,2023-01-11_10h30.35.751,00_bat_bachelor,2022.2.4,60.16747716074206,
,,,,,,,,,,,,0,0,0,0,3,0,3,0,,,,,,,3,,,1,494.8589861134533,X,None,nogo,None,1,,,,,,,,,,,,,,,,,,,14,001,22,w,Psychologie,2023-01-11_10h30.35.751,00_bat_bachelor,2022.2.4,60.16747716074206,
,,,,,,,,,,,,0,0,0,0,4,0,4,0,,,,,,,4,,,1,496.6603377746942,Y,l,go,l,1,0.40117703154101036,,,,,,,,,,,,,,,,,,14,001,22,w,Psychologie,2023-01-11_10h30.35.751,00_bat_bachelor,2022.2.4,60.16747716074206,
,,,,,,,,,,,,0,0,0,0,5,0,5,0,,,,,,,5,,,1,498.1780466317723,X,d,go,d,1,0.260324114758987,,,,,,,,,,,,,,,,,,14,001,22,w,Psychologie,2023-01-11_10h30.35.751,00_bat_bachelor,2022.2.4,60.16747716074206,
,,,,,,,,,,,,0,0,0,0,6,0,6,0,,,,,,,6,,,1,499.5458451131417,Y,l,go,l,1,0.4764750074537005,,,,,,,,,,,,,,,,,,14,001,22,w,Psychologie,2023-01-11_10h30.35.751,00_bat_bachelor,2022.2.4,60.16747716074206,
,,,,,,,,,,,,0,0,0,0,7,0,7,0,,,,,,,7,,,1,501.13043060869677,Y,None,nogo,None,1,,,,,501.93093184530153,,,,,,,,,,,,,,14,001,22,w,Psychologie,2023-01-11_10h30.35.751,00_bat_bachelor,2022.2.4,60.16747716074206,
,,,,,,,,,,,,0,0,0,0,8,0,8,0,,,,,,,8,,,1,502.9317095426377,X,d,go,d,1,0.19442590099060908,,,,,,,,,,,,,,,,,,14,001,22,w,Psychologie,2023-01-11_10h30.35.751,00_bat_bachelor,2022.2.4,60.16747716074206,
,,,,,,,,,,,,0,0,0,0,9,0,9,0,,,,,,,9,,,1,504.23270265827887,Y,l,go,l,1,0.3336749382142443,,,,,,,,,,,,,,,,,,14,001,22,w,Psychologie,2023-01-11_10h30.35.751,00_bat_bachelor,2022.2.4,60.16747716074206,
,,,,,,,,,,,,0,0,0,0,10,0,10,0,,,,,,,10,,,1,505.6670844446344,X,d,go,d,1,0.24284968205029145,,,,,,,,,,,,,,,,,,14,001,22,w,Psychologie,2023-01-11_10h30.35.751,00_bat_bachelor,2022.2.4,60.16747716074206,
,,,,,,,,,,,,0,0,0,0,11,0,11,0,,,,,,,11,,,1,507.0182007360854,X,None,nogo,d,0,0.3796284150448628,,,,,,,,,,,,,,,,,,14,001,22,w,Psychologie,2023-01-11_10h30.35.751,00_bat_bachelor,2022.2.4,60.16747716074206,
,,,,,,,,,,,,0,0,0,0,12,0,12,0,,,,,,,12,,,1,508.5027061831206,Y,l,go,l,1,0.43119159154593945,,,,,,,,,,,,,,,,,,14,001,22,w,Psychologie,2023-01-11_10h30.35.751,00_bat_bachelor,2022.2.4,60.16747716074206,
,,,,,,,,,,,,0,0,0,0,13,0,13,0,,,,,,,13,,,1,510.0371525028604,X,d,go,d,1,0.30433237852412276,,,,,,,,,,,,,,,,,,14,001,22,w,Psychologie,2023-01-11_10h30.35.751,00_bat_bachelor,2022.2.4,60.16747716074206,
,,,,,,,,,,,,0,0,0,0,14,0,14,0,,,,,,,14,,,1,511.4547914932191,Y,l,go,l,1,0.4545549968315754,,,,,,,,,,,,,,,,,,14,001,22,w,Psychologie,2023-01-11_10h30.35.751,00_bat_bachelor,2022.2.4,60.16747716074206,
,,,,,,,,,,,,0,0,0,0,15,0,15,0,,,,,,,15,,,1,513.039166564442,Y,None,nogo,l,0,0.3590979808359407,,,,,,,,,,,,,,,,,,14,001,22,w,Psychologie,2023-01-11_10h30.35.751,00_bat_bachelor,2022.2.4,60.16747716074206,
,,,,,,,,,,,,0,0,0,0,16,0,16,0,,,,,,,16,,,1,514.5070058215642,X,d,go,d,1,0.2828332165663596,,,,,,,,,,,,,,,,,,14,001,22,w,Psychologie,2023-01-11_10h30.35.751,00_bat_bachelor,2022.2.4,60.16747716074206,
,,,,,,,,,,,,0,0,0,0,17,0,17,0,,,,,,,17,,,1,515.8914317049203,Y,l,go,l,1,0.38666890328750014,,,,,,,,,,,,,,,,,,14,001,22,w,Psychologie,2023-01-11_10h30.35.751,00_bat_bachelor,2022.2.4,60.16747716074206,
,,,,,,,,,,,,0,0,0,0,18,0,18,0,,,,,,,18,,,1,517.3928515844163,X,d,go,d,1,0.3415891238837503,,,,,,,,,,,,,,,,,,14,001,22,w,Psychologie,2023-01-11_10h30.35.751,00_bat_bachelor,2022.2.4,60.16747716074206,
,,,,,,,,,,,,0,0,0,0,19,0,19,0,,,,,,,19,,,1,518.843566954456,Y,l,go,l,1,0.5225220600841567,,,,,,,,,,,,,,,,,,14,001,22,w,Psychologie,2023-01-11_10h30.35.751,00_bat_bachelor,2022.2.4,60.16747716074206,
,,,,,,,,,,,,0,0,0,0,20,0,20,0,,,,,,,20,,,1,520.4783575652691,Y,None,nogo,None,1,,,,,,,,,,,,,,,,,,,14,001,22,w,Psychologie,2023-01-11_10h30.35.751,00_bat_bachelor,2022.2.4,60.16747716074206,
,,,,,,,,,,,,0,0,0,0,21,0,21,0,,,,,,,21,,,1,522.2798813478148,X,d,go,d,1,0.41367449215613306,,,,,,,,,,,,,,,,,,14,001,22,w,Psychologie,2023-01-11_10h30.35.751,00_bat_bachelor,2022.2.4,60.16747716074206,
,,,,,,,,,,,,0,0,0,0,22,0,22,0,,,,,,,22,,,1,523.7975960230688,Y,l,go,l,1,0.5605346845695749,,,,,,,,,,,,,,,,,,14,001,22,w,Psychologie,2023-01-11_10h30.35.751,00_bat_bachelor,2022.2.4,60.16747716074206,
,,,,,,,,,,,,0,0,0,0,23,0,23,0,,,,,,,23,,,1,525.4652996195364,Y,None,nogo,None,1,,,,,526.2661804926756,,,,,,,,,,,,,,14,001,22,w,Psychologie,2023-01-11_10h30.35.751,00_bat_bachelor,2022.2.4,60.16747716074206,
,,,,,,,,,,,,0,0,0,0,24,0,24,0,,,,,,,24,,,1,527.2666745535389,Y,None,nogo,None,1,,,,,,,,,,,,,,,,,,,14,001,22,w,Psychologie,2023-01-11_10h30.35.751,00_bat_bachelor,2022.2.4,60.16747716074206,
,,,,,,,,,,,,0,0,0,0,25,0,25,0,,,,,,,25,,,1,529.0682477906521,X,d,go,d,1,0.34536900446983054,,,,,,,,,,,,,,,,,,14,001,22,w,Psychologie,2023-01-11_10h30.35.751,00_bat_bachelor,2022.2.4,60.16747716074206,
,,,,,,,,,,,,0,0,0,0,26,0,26,0,,,,,,,26,,,1,530.5192002517288,Y,l,go,l,1,0.35028100686031394,,,,,,,,,,,,,,,,,,14,001,22,w,Psychologie,2023-01-11_10h30.35.751,00_bat_bachelor,2022.2.4,60.16747716074206,
,,,,,,,,,,,,0,0,0,0,27,0,27,0,,,,,,,27,,,1,531.9703243492404,Y,None,nogo,d,0,0.24396289471769705,,,,,,,,,,,,,,,,,,14,001,22,w,Psychologie,2023-01-11_10h30.35.751,00_bat_bachelor,2022.2.4,60.16747716074206,
,,,,,,,,,,,,0,0,0,0,28,0,28,0,,,,,,,28,,,1,533.3216394286719,X,d,go,d,1,0.42848855996271595,,,,,,,,,,,,,,,,,,14,001,22,w,Psychologie,2023-01-11_10h30.35.751,00_bat_bachelor,2022.2.4,60.16747716074206,
,,,,,,,,,,,,0,0,0,0,29,0,29,0,,,,,,,29,,,1,534.8560872029338,Y,l,go,l,1,0.3018480136815924,,,,,,,,,,,,,,,,,,14,001,22,w,Psychologie,2023-01-11_10h30.35.751,00_bat_bachelor,2022.2.4,60.16747716074206,
,,,,,,,,,,,,0,0,0,0,30,0,30,0,,,,,,,30,,,1,536.2735797690111,Y,None,nogo,l,0,0.5801841486536432,,,,,,,,,,,,,,,,,,14,001,22,w,Psychologie,2023-01-11_10h30.35.751,00_bat_bachelor,2022.2.4,60.16747716074206,
,,,,,,,,,,,,0,0,0,0,31,0,31,0,,,,,,,31,,,1,537.9584911313723,X,d,go,d,1,0.2870349155855365,,,,,,,,,,,,,,,,,,14,001,22,w,Psychologie,2023-01-11_10h30.35.751,00_bat_bachelor,2022.2.4,60.16747716074206,
,,,,,,,,,,,,0,0,0,0,32,0,32,0,,,,,,,32,,,1,539.3595812652493,Y,l,go,l,1,0.31070377555442974,,,,,,,,,,,,,,,,,,14,001,22,w,Psychologie,2023-01-11_10h30.35.751,00_bat_bachelor,2022.2.4,60.16747716074206,
,,,,,,,,,,,,0,0,0,0,33,0,33,0,,,,,,,33,,,1,540.7772449828917,Y,None,nogo,None,1,,,,,,,,,,,,,,,,,,,14,001,22,w,Psychologie,2023-01-11_10h30.35.751,00_bat_bachelor,2022.2.4,60.16747716074206,
,,,,,,,,,,,,0,0,0,0,34,0,34,0,,,,,,,34,,,1,542.5782829470409,X,d,go,d,1,0.2918940694653429,,,,,,,,,,,,,,,,,,14,001,22,w,Psychologie,2023-01-11_10h30.35.751,00_bat_bachelor,2022.2.4,60.16747716074206,
,,,,,,,,,,,,0,0,0,0,35,0,35,0,,,,,,,35,,,1,543.9796693234821,Y,l,go,l,1,0.34674112635548227,,,,,,,,,,,,,,,,,,14,001,22,w,Psychologie,2023-01-11_10h30.35.751,00_bat_bachelor,2022.2.4,60.16747716074206,
,,,,,,,,,,,,0,0,0,0,36,0,36,0,,,,,,,36,,,1,545.4308622695098,X,d,go,d,1,0.30360752969863825,,,,,,,,,,,,,,,,,,14,001,22,w,Psychologie,2023-01-11_10h30.35.751,00_bat_bachelor,2022.2.4,60.16747716074206,
,,,,,,,,,,,,0,0,0,0,37,0,37,0,,,,,,,37,,,1,546.8482767749229,Y,l,go,l,1,0.21326809196034446,,,,,,,,,,,,,,,,,,14,001,22,w,Psychologie,2023-01-11_10h30.35.751,00_bat_bachelor,2022.2.4,60.16747716074206,
,,,,,,,,,,,,0,0,0,0,38,0,38,0,,,,,,,38,,,1,548.1659263834881,X,d,go,d,1,0.25630665829521604,,,,,,,,,,,,,,,,,,14,001,22,w,Psychologie,2023-01-11_10h30.35.751,00_bat_bachelor,2022.2.4,60.16747716074206,
,,,,,,,,,,,,0,0,0,0,39,0,39,0,,,,,,,39,,,1,549.5338446224632,Y,l,go,l,1,0.32806766277644783,,,,,,,,,,,,,,,,,,14,001,22,w,Psychologie,2023-01-11_10h30.35.751,00_bat_bachelor,2022.2.4,60.16747716074206,
,,,,,,,,,,,,0,0,0,0,40,0,40,0,,,,,,,40,,,1,550.9684319846856,X,d,go,d,1,0.26940775552066043,,,,,,,,,,,,,,,,,,14,001,22,w,Psychologie,2023-01-11_10h30.35.751,00_bat_bachelor,2022.2.4,60.16747716074206,
,,,,,,,,,,,,0,0,0,0,41,0,41,0,,,,,,,41,,,1,552.3526998073794,X,None,nogo,l,0,0.2775784261757508,,,,,,,,,,,,,,,,,,14,001,22,w,Psychologie,2023-01-11_10h30.35.751,00_bat_bachelor,2022.2.4,60.16747716074206,
,,,,,,,,,,,,0,0,0,0,42,0,42,0,,,,,,,42,,,1,553.7371407210303,Y,l,go,None,0,,,,,,,,,,,,,,,,,,,14,001,22,w,Psychologie,2023-01-11_10h30.35.751,00_bat_bachelor,2022.2.4,60.16747716074206,
,,,,,,,,,,,,0,0,0,0,43,0,43,0,,,,,,,43,,,1,555.5385238974704,X,d,go,d,1,0.33983736543450505,,,,,,,,,,,,,,,,,,14,001,22,w,Psychologie,2023-01-11_10h30.35.751,00_bat_bachelor,2022.2.4,60.16747716074206,
,,,,,,,,,,,,0,0,0,0,44,0,44,0,,,,,,,44,,,1,556.9896252070903,Y,l,go,l,1,0.32848463268601336,,,,,,,,,,,,,,,,,,14,001,22,w,Psychologie,2023-01-11_10h30.35.751,00_bat_bachelor,2022.2.4,60.16747716074206,
,,,,,,,,,,,,0,0,0,0,45,0,45,0,,,,,,,45,,,1,558.4240579025645,Y,None,nogo,None,1,,,,,,,,,,,,,,,,,,,14,001,22,w,Psychologie,2023-01-11_10h30.35.751,00_bat_bachelor,2022.2.4,60.16747716074206,
,,,,,,,,,,,,0,0,0,0,46,0,46,0,,,,,,,46,,,1,560.2251516242977,X,d,go,d,1,0.30875177460256964,,,,,,,,,,,,,,,,,,14,001,22,w,Psychologie,2023-01-11_10h30.35.751,00_bat_bachelor,2022.2.4,60.16747716074206,
,,,,,,,,,,,,0,0,0,0,47,0,47,0,,,,,,,47,,,1,561.6431969178957,Y,l,go,l,1,0.5225254539982416,,,,,,,,,,,,,,,,,,14,001,22,w,Psychologie,2023-01-11_10h30.35.751,00_bat_bachelor,2022.2.4,60.16747716074206,
,,,,,,,,,,,,0,0,0,0,48,0,48,0,,,,,,,48,,,1,563.2774168617616,Y,None,nogo,None,1,,,,,,,,,,,,,,,,,,,14,001,22,w,Psychologie,2023-01-11_10h30.35.751,00_bat_bachelor,2022.2.4,60.16747716074206,
,,,,,,,,,,,,0,0,0,0,49,0,49,0,,,,,,,49,,,1,565.0788999170472,X,d,go,d,1,0.27033672569086775,,,,,,,,,,,,,,,,,,14,001,22,w,Psychologie,2023-01-11_10h30.35.751,00_bat_bachelor,2022.2.4,60.16747716074206,
,,,,,,,,,,,,0,0,0,0,50,0,50,0,,,,,,,50,,,1,566.4634858004865,Y,l,go,l,1,0.37470138233038597,,,,,,,,,,,,,,,,,,14,001,22,w,Psychologie,2023-01-11_10h30.35.751,00_bat_bachelor,2022.2.4,60.16747716074206,
,,,,,,,,,,,,0,0,0,0,51,0,51,0,,,,,,,51,,,1,567.9476930655364,X,d,go,d,1,0.34671058086678386,,,,,,,,,,,,,,,,,,14,001,22,w,Psychologie,2023-01-11_10h30.35.751,00_bat_bachelor,2022.2.4,60.16747716074206,
,,,,,,,,,,,,0,0,0,0,52,0,52,0,,,,,,,52,,,1,569.3987769206287,X,None,nogo,l,0,0.22326324830646627,,,,,,,,,,,,,,,,,,14,001,22,w,Psychologie,2023-01-11_10h30.35.751,00_bat_bachelor,2022.2.4,60.16747716074206,
,,,,,,,,,,,,0,0,0,0,53,0,53,0,,,,,,,53,,,1,570.7332439918828,Y,l,go,None,0,,,,,,,,,,,,,,,,,,,14,001,22,w,Psychologie,2023-01-11_10h30.35.751,00_bat_bachelor,2022.2.4,60.16747716074206,
,,,,,,,,,,,,0,0,0,0,54,0,54,0,,,,,,,54,,,1,572.5354872899188,X,d,go,d,1,0.462097788346,,,,,,,,,,,,,,,,,,14,001,22,w,Psychologie,2023-01-11_10h30.35.751,00_bat_bachelor,2022.2.4,60.16747716074206,
,,,,,,,,,,,,0,0,0,0,55,0,55,0,,,,,,,55,,,1,574.1197270883422,Y,l,go,l,1,0.5898001532768831,,,,,,,,,,,,,,,,,,14,001,22,w,Psychologie,2023-01-11_10h30.35.751,00_bat_bachelor,2022.2.4,60.16747716074206,
,,,,,,,,,,,,0,0,0,0,56,0,56,0,,,,,,,56,,,1,575.8213143376051,X,d,go,d,1,0.6168435603321996,,,,,,,,,,,,,,,,,,14,001,22,w,Psychologie,2023-01-11_10h30.35.751,00_bat_bachelor,2022.2.4,60.16747716074206,
,,,,,,,,,,,,0,0,0,0,57,0,57,0,,,,,,,57,,,1,577.5556977239612,Y,l,go,l,1,0.36957313743187115,,,,,,,,,,,,,,,,,,14,001,22,w,Psychologie,2023-01-11_10h30.35.751,00_bat_bachelor,2022.2.4,60.16747716074206,
,,,,,,,,,,,,0,0,0,0,58,0,58,0,,,,,,,58,,,1,579.0568630578637,Y,None,nogo,None,1,,,,,579.8578326583374,,,,,,,,,,,,,,14,001,22,w,Psychologie,2023-01-11_10h30.35.751,00_bat_bachelor,2022.2.4,60.16747716074206,
,,,,,,,,,,,,0,0,0,0,59,0,59,0,,,,,,,59,,,1,580.8581812645716,X,d,go,d,1,0.5080449621309526,,,,,,,,,,,,,,,,,,14,001,22,w,Psychologie,2023-01-11_10h30.35.751,00_bat_bachelor,2022.2.4,60.16747716074206,
,,,,,,,,,,,,0,0,0,0,60,0,60,0,,,,,,,60,,,1,582.4763847158174,Y,l,go,l,1,0.2646029047318734,,,,,,,,,,,,,,,,,,14,001,22,w,Psychologie,2023-01-11_10h30.35.751,00_bat_bachelor,2022.2.4,60.16747716074206,
,,,,,,,,,,,,0,0,0,0,61,0,61,0,,,,,,,61,,,1,583.8772261222766,X,d,go,d,1,0.33606087873340584,,,,,,,,,,,,,,,,,,14,001,22,w,Psychologie,2023-01-11_10h30.35.751,00_bat_bachelor,2022.2.4,60.16747716074206,
,,,,,,,,,,,,0,0,0,0,62,0,62,0,,,,,,,62,,,1,585.3449548339122,X,None,nogo,None,1,,,,,586.1459758283454,,,,,,,,,,,,,,14,001,22,w,Psychologie,2023-01-11_10h30.35.751,00_bat_bachelor,2022.2.4,60.16747716074206,
,,,,,,,,,,,,0,0,0,0,63,0,63,0,,,,,,,63,,,1,587.1466521923139,Y,l,go,l,1,0.3961181199993007,,,,,,,,,,,,,,,,,,14,001,22,w,Psychologie,2023-01-11_10h30.35.751,00_bat_bachelor,2022.2.4,60.16747716074206,
,,,,,,,,,,,,0,0,0,0,64,0,64,0,,,,,,,64,,,1,588.6644643221516,X,d,go,d,1,0.3017743166710716,,,,,,,,,,,,,,,,,,14,001,22,w,Psychologie,2023-01-11_10h30.35.751,00_bat_bachelor,2022.2.4,60.16747716074206,
,,,,,,,,,,,,0,0,0,0,65,0,65,0,,,,,,,65,,,1,590.0821033125394,X,None,nogo,d,0,0.3549122818221804,,,,,,,,,,,,,,,,,,14,001,22,w,Psychologie,2023-01-11_10h30.35.751,00_bat_bachelor,2022.2.4,60.16747716074206,
,,,,,,,,,,,,0,0,0,0,66,0,66,0,,,,,,,66,,,1,591.5833714343607,Y,l,go,d,0,0.3257660858798772,,,,,,,,,,,,,,,,,,14,001,22,w,Psychologie,2023-01-11_10h30.35.751,00_bat_bachelor,2022.2.4,60.16747716074206,
,,,,,,,,,,,,0,0,0,0,67,0,67,0,,,,,,,67,,,1,593.0344116530323,X,d,go,d,1,0.2519551409932319,,,,,,,,,,,,,,,,,,14,001,22,w,Psychologie,2023-01-11_10h30.35.751,00_bat_bachelor,2022.2.4,60.16747716074206,
,,,,,,,,,,,,0,0,0,0,68,0,68,0,,,,,,,68,,,1,594.4190828698629,Y,l,go,l,1,0.4829327075567562,,,,,,,,,,,,,,,,,,14,001,22,w,Psychologie,2023-01-11_10h30.35.751,00_bat_bachelor,2022.2.4,60.16747716074206,
,,,,,,,,,,,,0,0,0,0,69,0,69,0,,,,,,,69,,,1,596.0199156460294,Y,None,nogo,None,1,,,,,596.8206854888122,,,,,,,,,,,,,,14,001,22,w,Psychologie,2023-01-11_10h30.35.751,00_bat_bachelor,2022.2.4,60.16747716074206,
,,,,,,,,,,,,0,0,0,0,70,0,70,0,,,,,,,70,,,1,597.8216323983506,X,d,go,d,1,0.32865675396169536,,,,,,,,,,,,,,,,,,14,001,22,w,Psychologie,2023-01-11_10h30.35.751,00_bat_bachelor,2022.2.4,60.16747716074206,
,,,,,,,,,,,,0,0,0,0,71,0,71,0,,,,,,,71,,,1,599.2722954047495,Y,l,go,l,1,0.5095770840998739,,,,,,,,,,,,,,,,,,14,001,22,w,Psychologie,2023-01-11_10h30.35.751,00_bat_bachelor,2022.2.4,60.16747716074206,
,,,,,,,,,,,,0,0,0,0,72,0,72,0,,,,,,,72,,,1,600.9068969245418,Y,None,nogo,None,1,,,,,601.707515009708,,,,,,,,,,,,,,14,001,22,w,Psychologie,2023-01-11_10h30.35.751,00_bat_bachelor,2022.2.4,60.16747716074206,
,,,,,,,,,,,,0,0,0,0,73,0,73,0,,,,,,,73,,,1,602.7082854343171,X,d,go,d,1,0.3057908034825232,,,,,,,,,,,,,,,,,,14,001,22,w,Psychologie,2023-01-11_10h30.35.751,00_bat_bachelor,2022.2.4,60.16747716074206,
,,,,,,,,,,,,0,0,0,0,74,0,74,0,,,,,,,74,,,1,604.1260388489754,Y,l,go,l,1,0.423709890950704,,,,,,,,,,,,,,,,,,14,001,22,w,Psychologie,2023-01-11_10h30.35.751,00_bat_bachelor,2022.2.4,60.16747716074206,
,,,,,,,,,,,,0,0,0,0,75,0,75,0,,,,,,,75,,,1,605.660496805096,X,d,go,d,1,0.31304850394371897,,,,,,,,,,,,,,,,,,14,001,22,w,Psychologie,2023-01-11_10h30.35.751,00_bat_bachelor,2022.2.4,60.16747716074206,
,,,,,,,,,,,,0,0,0,0,76,0,76,0,,,,,,,76,,,1,607.0780679166492,X,None,nogo,None,1,,,,,607.8789095170505,,,,,,,,,,,,,,14,001,22,w,Psychologie,2023-01-11_10h30.35.751,00_bat_bachelor,2022.2.4,60.16747716074206,
,,,,,,,,,,,,0,0,0,0,77,0,77,0,,,,,,,77,,,1,608.8795412749168,Y,l,go,None,0,,,,,609.6802282085991,,,,,,,,,,,,,,14,001,22,w,Psychologie,2023-01-11_10h30.35.751,00_bat_bachelor,2022.2.4,60.16747716074206,
,,,,,,,,,,,,0,0,0,0,78,0,78,0,,,,,,,78,,,1,610.681082996889,X,d,go,d,1,0.267830057797255,,,,,,,,,,,,,,,,,,14,001,22,w,Psychologie,2023-01-11_10h30.35.751,00_bat_bachelor,2022.2.4,60.16747716074206,
,,,,,,,,,,,,0,0,0,0,79,0,79,0,,,,,,,79,,,1,612.0819098578941,X,None,nogo,None,1,,,,,612.8827606704144,,,,,,,,,,,,,,14,001,22,w,Psychologie,2023-01-11_10h30.35.751,00_bat_bachelor,2022.2.4,60.16747716074206,
,,,,,,,,,,,,0,0,0,0,80,0,80,0,,,,,,,80,,,1,613.8834772768314,Y,l,go,l,1,0.44283523358171806,,,,,,,,,,,,,,,,,,14,001,22,w,Psychologie,2023-01-11_10h30.35.751,00_bat_bachelor,2022.2.4,60.16747716074206,
,,,,,,,,,,,,0,0,0,0,81,0,81,0,,,,,,,81,,,1,615.4346518471139,X,d,go,d,1,0.23542858753353357,,,,,,,,,,,,,,,,,,14,001,22,w,Psychologie,2023-01-11_10h30.35.751,00_bat_bachelor,2022.2.4,60.16747716074206,
,,,,,,,,,,,,0,0,0,0,82,0,82,0,,,,,,,82,,,1,616.7856265627197,X,None,nogo,None,1,,,,,617.5862533751351,,,,,,,,,,,,,,14,001,22,w,Psychologie,2023-01-11_10h30.35.751,00_bat_bachelor,2022.2.4,60.16747716074206,
,,,,,,,,,,,,0,0,0,0,83,0,83,0,,,,,,,83,,,1,618.5870427088521,Y,l,go,l,1,0.3619134973559994,,,,,,,,,,,,,,,,,,14,001,22,w,Psychologie,2023-01-11_10h30.35.751,00_bat_bachelor,2022.2.4,60.16747716074206,
,,,,,,,,,,,,0,0,0,0,84,0,84,0,,,,,,,84,,,1,620.0714560346387,X,d,go,None,0,,,,,620.8721003016108,,,,,,,,,,,,,,14,001,22,w,Psychologie,2023-01-11_10h30.35.751,00_bat_bachelor,2022.2.4,60.16747716074206,
,,,,,,,,,,,,0,0,0,0,85,0,85,0,,,,,,,85,,,1,621.8726835746202,Y,l,go,l,1,0.6607524301216472,,,,,,,,,,,,,,,,,,14,001,22,w,Psychologie,2023-01-11_10h30.35.751,00_bat_bachelor,2022.2.4,60.16747716074206,
,,,,,,,,,,,,0,0,0,0,86,0,86,0,,,,,,,86,,,1,623.6403755831998,Y,None,nogo,None,1,,,,,624.4409417895367,,,,,,,,,,,,,,14,001,22,w,Psychologie,2023-01-11_10h30.35.751,00_bat_bachelor,2022.2.4,60.16747716074206,
,,,,,,,,,,,,0,0,0,0,87,0,87,0,,,,,,,87,,,1,625.4418940324394,X,d,go,d,1,0.37231059331679717,,,,,,,,,,,,,,,,,,14,001,22,w,Psychologie,2023-01-11_10h30.35.751,00_bat_bachelor,2022.2.4,60.16747716074206,
,,,,,,,,,,,,0,0,0,0,88,0,88,0,,,,,,,88,,,1,626.926366994594,Y,l,go,l,1,0.26379660129896365,,,,,,,,,,,,,,,,,,14,001,22,w,Psychologie,2023-01-11_10h30.35.751,00_bat_bachelor,2022.2.4,60.16747716074206,
,,,,,,,,,,,,0,0,0,0,89,0,89,0,,,,,,,89,,,1,628.2940403849934,X,d,go,d,1,0.41669800874660723,,,,,,,,,,,,,,,,,,14,001,22,w,Psychologie,2023-01-11_10h30.35.751,00_bat_bachelor,2022.2.4,60.16747716074206,
,,,,,,,,,,,,0,0,0,0,90,0,90,0,,,,,,,90,,,1,629.8118176057178,X,None,nogo,None,1,,,,,630.612112781615,,,,,,,,,,,,,,14,001,22,w,Psychologie,2023-01-11_10h30.35.751,00_bat_bachelor,2022.2.4,60.16747716074206,
,,,,,,,,,,,,0,0,0,0,91,0,91,0,,,,,,,91,,,1,631.6131823578908,Y,l,go,l,1,0.4725865206855815,,,,,,,,,,,,,,,,,,14,001,22,w,Psychologie,2023-01-11_10h30.35.751,00_bat_bachelor,2022.2.4,60.16747716074206,
,,,,,,,,,,,,0,0,0,0,92,0,92,0,,,,,,,92,,,1,633.197799368616,X,d,go,d,1,0.45704663440119475,,,,,,,,,,,,,,,,,,14,001,22,w,Psychologie,2023-01-11_10h30.35.751,00_bat_bachelor,2022.2.4,60.16747716074206,
,,,,,,,,,,,,0,0,0,0,93,0,93,0,,,,,,,93,,,1,634.7655349166307,Y,l,go,l,1,0.3766562923847232,,,,,,,,,,,,,,,,,,14,001,22,w,Psychologie,2023-01-11_10h30.35.751,00_bat_bachelor,2022.2.4,60.16747716074206,
,,,,,,,,,,,,0,0,0,0,94,0,94,0,,,,,,,94,,,1,636.25016884855,Y,None,nogo,None,1,,,,,637.050594933622,,,,,,,,,,,,,,14,001,22,w,Psychologie,2023-01-11_10h30.35.751,00_bat_bachelor,2022.2.4,60.16747716074206,
,,,,,,,,,,,,0,0,0,0,95,0,95,0,,,,,,,95,,,1,638.051331903669,X,d,go,d,1,0.27471733387210406,,,,,,,,,,,,,,,,,,14,001,22,w,Psychologie,2023-01-11_10h30.35.751,00_bat_bachelor,2022.2.4,60.16747716074206,
,,,,,,,,,,,,0,0,0,0,96,0,96,0,,,,,,,96,,,1,639.4359071204381,Y,l,go,l,1,0.5548120151215699,,,,,,,,,,,,,,,,,,14,001,22,w,Psychologie,2023-01-11_10h30.35.751,00_bat_bachelor,2022.2.4,60.16747716074206,
,,,,,,,,,,,,0,0,0,0,97,0,97,0,,,,,,,97,,,1,641.1035641714116,Y,None,nogo,None,1,,,,,641.9041250444134,,,,,,,,,,,,,,14,001,22,w,Psychologie,2023-01-11_10h30.35.751,00_bat_bachelor,2022.2.4,60.16747716074206,
,,,,,,,,,,,,0,0,0,0,98,0,98,0,,,,,,,98,,,1,642.9048896508466,X,d,go,d,1,0.22113088361220434,,,,,,,,,,,,,,,,,,14,001,22,w,Psychologie,2023-01-11_10h30.35.751,00_bat_bachelor,2022.2.4,60.16747716074206,
,,,,,,,,,,,,0,0,0,0,99,0,99,0,,,,,,,99,,,1,644.2395681161433,Y,l,go,l,1,0.32655493475613184,,,,,,,,,,,,,,,,,,14,001,22,w,Psychologie,2023-01-11_10h30.35.751,00_bat_bachelor,2022.2.4,60.16747716074206,
,,,,,,,,,,,,0,0,0,0,100,0,100,0,,,,,,,100,,,1,645.6738553570176,X,d,go,d,1,0.3959746047912631,,,,,,,,,,,,,,,,,,14,001,22,w,Psychologie,2023-01-11_10h30.35.751,00_bat_bachelor,2022.2.4,60.16747716074206,
,,,,,,,,,,,,0,0,0,0,101,0,101,0,,,,,,,101,,,1,647.1748107514286,X,None,nogo,None,1,,,,,647.975661563949,,,,,,,,,,,,,,14,001,22,w,Psychologie,2023-01-11_10h30.35.751,00_bat_bachelor,2022.2.4,60.16747716074206,
,,,,,,,,,,,,0,0,0,0,102,0,102,0,,,,,,,102,,,1,648.9761648369313,Y,l,go,l,1,0.4224788600404281,,,,,,,,,,,,,,,,,,14,001,22,w,Psychologie,2023-01-11_10h30.35.751,00_bat_bachelor,2022.2.4,60.16747716074206,
,,,,,,,,,,,,0,0,0,0,103,0,103,0,,,,,,,103,,,1,650.5108501870709,X,d,go,d,1,0.2954819500155281,,,,,,,,,,,,,,,,,,14,001,22,w,Psychologie,2023-01-11_10h30.35.751,00_bat_bachelor,2022.2.4,60.16747716074206,
,,,,,,,,,,,,0,0,0,0,104,0,104,0,,,,,,,104,,,1,651.9119461391238,Y,l,go,l,1,0.2543265361164231,,,,,,,,,,,,,,,,,,14,001,22,w,Psychologie,2023-01-11_10h30.35.751,00_bat_bachelor,2022.2.4,60.16747716074206,
,,,,,,,,,,,,0,0,0,0,105,0,105,0,,,,,,,105,,,1,653.2796360143693,X,d,go,d,1,0.5024401109258179,,,,,,,,,,,,,,,,,,14,001,22,w,Psychologie,2023-01-11_10h30.35.751,00_bat_bachelor,2022.2.4,60.16747716074206,
,,,,,,,,,,,,0,0,0,0,106,0,106,0,,,,,,,106,,,1,654.8975180109264,X,None,nogo,d,0,0.48501319339266047,,,,,,,,,,,,,,,,,,14,001,22,w,Psychologie,2023-01-11_10h30.35.751,00_bat_bachelor,2022.2.4,60.16747716074206,
,,,,,,,,,,,,0,0,0,0,107,0,107,0,,,,,,,107,,,1,656.4988496964215,Y,l,go,l,1,0.4189491613651626,,,,,,,,,,,,,,,,,,14,001,22,w,Psychologie,2023-01-11_10h30.35.751,00_bat_bachelor,2022.2.4,60.16747716074206,
,,,,,,,,,,,,0,0,0,0,108,0,108,0,,,,,,,108,,,1,658.0330317735788,X,d,go,None,0,,,,,,,,,,,,,,,,,,,14,001,22,w,Psychologie,2023-01-11_10h30.35.751,00_bat_bachelor,2022.2.4,60.16747716074206,
,,,,,,,,,,,,0,0,0,0,109,0,109,0,,,,,,,109,,,1,659.8348101017182,Y,l,go,l,1,0.30029310382087715,,,,,,,,,,,,,,,,,,14,001,22,w,Psychologie,2023-01-11_10h30.35.751,00_bat_bachelor,2022.2.4,60.16747716074206,
,,,,,,,,,,,,0,0,0,0,110,0,110,0,,,,,,,110,,,1,661.2359045992198,Y,None,nogo,None,1,,,,,,,,,,,,,,,,,,,14,001,22,w,Psychologie,2023-01-11_10h30.35.751,00_bat_bachelor,2022.2.4,60.16747716074206,
,,,,,,,,,,,,0,0,0,0,111,0,111,0,,,,,,,111,,,1,663.0372009877174,X,d,go,d,1,0.2964419504569378,,,,,,,,,,,,,,,,,,14,001,22,w,Psychologie,2023-01-11_10h30.35.751,00_bat_bachelor,2022.2.4,60.16747716074206,
,,,,,,,,,,,,0,0,0,0,112,0,112,0,,,,,,,112,,,1,664.4382756064297,Y,l,go,l,1,0.47955767560051754,,,,,,,,,,,,,,,,,,14,001,22,w,Psychologie,2023-01-11_10h30.35.751,00_bat_bachelor,2022.2.4,60.16747716074206,
,,,,,,,,,,,,0,0,0,0,113,0,113,0,,,,,,,113,,,1,666.0228562534903,X,d,go,d,1,0.2229388845153153,,,,,,,,,,,,,,,,,,14,001,22,w,Psychologie,2023-01-11_10h30.35.751,00_bat_bachelor,2022.2.4,60.16747716074206,
,,,,,,,,,,,,0,0,0,0,114,0,114,0,,,,,,,114,,,1,667.3572413853253,Y,l,go,l,1,0.5531082567176782,,,,,,,,,,,,,,,,,,14,001,22,w,Psychologie,2023-01-11_10h30.35.751,00_bat_bachelor,2022.2.4,60.16747716074206,
,,,,,,,,,,,,0,0,0,0,115,0,115,0,,,,,,,115,,,1,669.0250371030415,Y,None,nogo,None,1,,,,,,,,,,,,,,,,,,,14,001,22,w,Psychologie,2023-01-11_10h30.35.751,00_bat_bachelor,2022.2.4,60.16747716074206,
,,,,,,,,,,,,0,0,0,0,116,0,116,0,,,,,,,116,,,1,670.8261885217798,X,d,go,d,1,0.2357519816432614,,,,,,,,,,,,,,,,,,14,001,22,w,Psychologie,2023-01-11_10h30.35.751,00_bat_bachelor,2022.2.4,60.16747716074206,
,,,,,,,,,,,,0,0,0,0,117,0,117,0,,,,,,,117,,,1,672.1775511163869,Y,l,go,l,1,0.5005986555188429,,,,,,,,,,,,,,,,,,14,001,22,w,Psychologie,2023-01-11_10h30.35.751,00_bat_bachelor,2022.2.4,60.16747716074206,
,,,,,,,,,,,,0,0,0,0,118,0,118,0,,,,,,,118,,,1,673.7953855977685,X,d,go,d,1,0.5632527465058956,,,,,,,,,,,,,,,,,,14,001,22,w,Psychologie,2023-01-11_10h30.35.751,00_bat_bachelor,2022.2.4,60.16747716074206,
,,,,,,,,,,,,0,0,0,0,119,0,119,0,,,,,,,119,,,1,675.4633165882842,X,None,nogo,None,1,,,,,,,,,,,,,,,,,,,14,001,22,w,Psychologie,2023-01-11_10h30.35.751,00_bat_bachelor,2022.2.4,60.16747716074206,
,,,,,,,,,,,,0,0,0,0,120,0,120,0,,,,,,,120,,,1,677.2643972190854,Y,l,go,l,1,0.5011916254879907,,,,,,,,,,,,,,,,,,14,001,22,w,Psychologie,2023-01-11_10h30.35.751,00_bat_bachelor,2022.2.4,60.16747716074206,
,,,,,,,,,,,,0,0,0,0,121,0,121,0,,,,,,,121,,,1,678.8827044279606,X,d,go,d,1,0.3719697446504142,,,,,,,,,,,,,,,,,,14,001,22,w,Psychologie,2023-01-11_10h30.35.751,00_bat_bachelor,2022.2.4,60.16747716074206,
,,,,,,,,,,,,0,0,0,0,122,0,122,0,,,,,,,122,,,1,680.3670804204012,Y,l,go,l,1,0.487046648922842,,,,,,,,,,,,,,,,,,14,001,22,w,Psychologie,2023-01-11_10h30.35.751,00_bat_bachelor,2022.2.4,60.16747716074206,
,,,,,,,,,,,,0,0,0,0,123,0,123,0,,,,,,,123,,,1,681.9682618028019,Y,None,nogo,None,1,,,,,,,,,,,,,,,,,,,14,001,22,w,Psychologie,2023-01-11_10h30.35.751,00_bat_bachelor,2022.2.4,60.16747716074206,
,,,,,,,,,,,,0,0,0,0,124,0,124,0,,,,,,,124,,,1,683.7696939489397,X,d,go,d,1,0.2684564823284745,,,,,,,,,,,,,,,,,,14,001,22,w,Psychologie,2023-01-11_10h30.35.751,00_bat_bachelor,2022.2.4,60.16747716074206,
,,,,,,,,,,,,0,0,0,0,125,0,125,0,,,,,,,125,,,1,685.1541246807901,Y,l,go,l,1,0.37220150232315063,,,,,,,,,,,,,,,,,,14,001,22,w,Psychologie,2023-01-11_10h30.35.751,00_bat_bachelor,2022.2.4,60.16747716074206,
,,,,,,,,,,,,0,0,0,0,126,0,126,0,,,,,,,126,,,1,686.6385811580985,X,d,go,d,1,0.247928472381318,,,,,,,,,,,,,,,,,,14,001,22,w,Psychologie,2023-01-11_10h30.35.751,00_bat_bachelor,2022.2.4,60.16747716074206,
,,,,,,,,,,,,0,0,0,0,127,0,127,0,,,,,,,127,,,1,687.9892533281236,X,None,nogo,l,0,0.2890974620531779,,,,,,,,,,,,,,,,,,14,001,22,w,Psychologie,2023-01-11_10h30.35.751,00_bat_bachelor,2022.2.4,60.16747716074206,
,,,,,,,,,,,,0,0,0,0,128,0,128,0,,,,,,,128,,,1,689.3905039468955,Y,l,go,l,1,0.6155286506109405,,,,,,,,,,,,,,,,,,14,001,22,w,Psychologie,2023-01-11_10h30.35.751,00_bat_bachelor,2022.2.4,60.16747716074206,
,,,,,,,,,,,,0,0,0,0,129,0,129,0,,,,,,,129,,,1,691.1085779920395,X,d,go,d,1,0.30521334864897653,,,,,,,,,,,,,,,,,,14,001,22,w,Psychologie,2023-01-11_10h30.35.751,00_bat_bachelor,2022.2.4,60.16747716074206,
,,,,,,,,,,,,0,0,0,0,130,0,130,0,,,,,,,130,,,1,692.5260899520363,Y,l,go,l,1,0.488408104138216,,,,,,,,,,,,,,,,,,14,001,22,w,Psychologie,2023-01-11_10h30.35.751,00_bat_bachelor,2022.2.4,60.16747716074206,
,,,,,,,,,,,,0,0,0,0,131,0,131,0,,,,,,,131,,,1,694.1276398194605,X,d,go,d,1,0.5019678682729136,,,,,,,,,,,,,,,,,,14,001,22,w,Psychologie,2023-01-11_10h30.35.751,00_bat_bachelor,2022.2.4,60.16747716074206,
,,,,,,,,,,,,0,0,0,0,132,0,132,0,,,,,,,132,,,1,695.7451751491753,Y,l,go,l,1,0.4047731544706039,,,,,,,,,,,,,,,,,,14,001,22,w,Psychologie,2023-01-11_10h30.35.751,00_bat_bachelor,2022.2.4,60.16747716074206,
,,,,,,,,,,,,0,0,0,0,133,0,133,0,,,,,,,133,,,1,697.2633446125255,Y,None,nogo,d,0,0.2630775706493296,,,,,,,,,,,,,,,,,,14,001,22,w,Psychologie,2023-01-11_10h30.35.751,00_bat_bachelor,2022.2.4,60.16747716074206,
,,,,,,,,,,,,0,0,0,0,134,0,134,0,,,,,,,134,,,1,698.6310684271739,X,d,go,d,1,0.35120997700141743,,,,,,,,,,,,,,,,,,14,001,22,w,Psychologie,2023-01-11_10h30.35.751,00_bat_bachelor,2022.2.4,60.16747716074206,
,,,,,,,,,,,,0,0,0,0,135,0,135,0,,,,,,,135,,,1,700.0987748357584,Y,l,go,l,1,0.339192031766288,,,,,,,,,,,,,,,,,,14,001,22,w,Psychologie,2023-01-11_10h30.35.751,00_bat_bachelor,2022.2.4,60.16747716074206,
,,,,,,,,,,,,0,0,0,0,136,0,136,0,,,,,,,136,,,1,701.5498882665997,Y,None,nogo,None,1,,,,,702.3504850184254,,,,,,,,,,,,,,14,001,22,w,Psychologie,2023-01-11_10h30.35.751,00_bat_bachelor,2022.2.4,60.16747716074206,
,,,,,,,,,,,,0,0,0,0,137,0,137,0,,,,,,,137,,,1,703.351278715767,X,d,go,d,1,0.23845113447168842,,,,,,,,,,,,,,,,,,14,001,22,w,Psychologie,2023-01-11_10h30.35.751,00_bat_bachelor,2022.2.4,60.16747716074206,
,,,,,,,,,,,,0,0,0,0,138,0,138,0,,,,,,,138,,,1,704.7023877344909,Y,l,go,l,1,0.3120245034515392,,,,,,,,,,,,,,,,,,14,001,22,w,Psychologie,2023-01-11_10h30.35.751,00_bat_bachelor,2022.2.4,60.16747716074206,
,,,,,,,,,,,,0,0,0,0,139,0,139,0,,,,,,,139,,,1,706.12012127036,X,d,go,d,1,0.477916947536869,,,,,,,,,,,,,,,,,,14,001,22,w,Psychologie,2023-01-11_10h30.35.751,00_bat_bachelor,2022.2.4,60.16747716074206,
,,,,,,,,,,,,0,0,0,0,140,0,140,0,,,,,,,140,,,1,707.7044221597025,Y,l,go,l,1,0.3812434461142402,,,,,,,,,,,,,,,,,,14,001,22,w,Psychologie,2023-01-11_10h30.35.751,00_bat_bachelor,2022.2.4,60.16747716074206,
,,,,,,,,,,,,0,0,0,0,141,0,141,0,,,,,,,141,,,1,709.1890793644125,X,d,go,d,1,0.5614321395405568,,,,,,,,,,,,,,,,,,14,001,22,w,Psychologie,2023-01-11_10h30.35.751,00_bat_bachelor,2022.2.4,60.16747716074206,
,,,,,,,,,,,,0,0,0,0,142,0,142,0,,,,,,,142,,,1,710.8567354456754,X,None,nogo,None,1,,,,,,,,,,,,,,,,,,,14,001,22,w,Psychologie,2023-01-11_10h30.35.751,00_bat_bachelor,2022.2.4,60.16747716074206,
,,,,,,,,,,,,0,0,0,0,143,0,143,0,,,,,,,143,,,1,712.6583426222205,Y,l,go,l,1,0.5475063146150205,,,,,,,,,,,,,,,,,,14,001,22,w,Psychologie,2023-01-11_10h30.35.751,00_bat_bachelor,2022.2.4,60.16747716074206,
,,,,,,,,,,,,0,0,0,0,144,0,144,0,,,,,,,144,,,1,714.3096336046583,X,d,go,d,1,0.5122107823553961,,,,,,,,,,,,,,,,,,14,001,22,w,Psychologie,2023-01-11_10h30.35.751,00_bat_bachelor,2022.2.4,60.16747716074206,
,,,,,,,,,,,,0,0,0,0,145,0,145,0,,,,,,,145,,,1,715.9272688132187,Y,l,go,l,1,0.2869379458425101,,,,,,,,,,,,,,,,,,14,001,22,w,Psychologie,2023-01-11_10h30.35.751,00_bat_bachelor,2022.2.4,60.16747716074206,
,,,,,,,,,,,,0,0,0,0,146,0,146,0,,,,,,,146,,,1,717.3286663411709,X,d,go,d,1,0.4376347461948171,,,,,,,,,,,,,,,,,,14,001,22,w,Psychologie,2023-01-11_10h30.35.751,00_bat_bachelor,2022.2.4,60.16747716074206,
,,,,,,,,,,,,0,0,0,0,147,0,147,0,,,,,,,147,,,1,718.8794544870034,Y,l,go,l,1,0.2789912753214594,,,,,,,,,,,,,,,,,,14,001,22,w,Psychologie,2023-01-11_10h30.35.751,00_bat_bachelor,2022.2.4,60.16747716074206,
,,,,,,,,,,,,0,0,0,0,148,0,148,0,,,,,,,148,,,1,720.2643089766207,Y,None,nogo,None,1,,,,,,,,,,,,,,,,,,,14,001,22,w,Psychologie,2023-01-11_10h30.35.751,00_bat_bachelor,2022.2.4,60.16747716074206,
,,,,,,,,,,,,0,0,0,0,149,0,149,0,,,,,,,149,,,1,722.0656310621125,X,d,go,d,1,0.22873137216083705,,,,,,,,,,,,,,,,,,14,001,22,w,Psychologie,2023-01-11_10h30.35.751,00_bat_bachelor,2022.2.4,60.16747716074206,
,,,,,,,,,,,,0,0,0,0,150,0,150,0,,,,,,,150,,,1,723.3996171634353,Y,l,go,l,1,0.27046424089348875,,,,,,,,,,,,,,,,,,14,001,22,w,Psychologie,2023-01-11_10h30.35.751,00_bat_bachelor,2022.2.4,60.16747716074206,
,,,,,,,,,,,,0,0,0,0,151,0,151,0,,,,,,,151,,,1,724.7843935924175,X,d,go,d,1,0.3576982225931715,,,,,,,,,,,,,,,,,,14,001,22,w,Psychologie,2023-01-11_10h30.35.751,00_bat_bachelor,2022.2.4,60.16747716074206,
,,,,,,,,,,,,0,0,0,0,152,0,152,0,,,,,,,152,,,1,726.252148485888,X,None,nogo,l,0,0.23414373843115754,,,,,,,,,,,,,,,,,,14,001,22,w,Psychologie,2023-01-11_10h30.35.751,00_bat_bachelor,2022.2.4,60.16747716074206,
,,,,,,,,,,,,0,0,0,0,153,0,153,0,,,,,,,153,,,1,727.6027615043567,Y,l,go,l,1,0.4986490787996445,,,,,,,,,,,,,,,,,,14,001,22,w,Psychologie,2023-01-11_10h30.35.751,00_bat_bachelor,2022.2.4,60.16747716074206,
,,,,,,,,,,,,0,0,0,0,154,0,154,0,,,,,,,154,,,1,729.2041445838113,X,d,go,d,1,0.2741471517656464,,,,,,,,,,,,,,,,,,14,001,22,w,Psychologie,2023-01-11_10h30.35.751,00_bat_bachelor,2022.2.4,60.16747716074206,
,,,,,,,,,,,,0,0,0,0,155,0,155,0,,,,,,,155,,,1,730.5884410125727,Y,l,go,l,1,0.6496949701977428,,,,,,,,,,,,,,,,,,14,001,22,w,Psychologie,2023-01-11_10h30.35.751,00_bat_bachelor,2022.2.4,60.16747716074206,
,,,,,,,,,,,,0,0,0,0,156,0,156,0,,,,,,,156,,,1,732.3399521648244,X,d,go,d,1,0.22625428007449955,,,,,,,,,,,,,,,,,,14,001,22,w,Psychologie,2023-01-11_10h30.35.751,00_bat_bachelor,2022.2.4,60.16747716074206,
,,,,,,,,,,,,0,0,0,0,157,0,157,0,,,,,,,157,,,1,733.6741336601845,X,None,nogo,d,0,0.28398085350636393,,,,,,,,,,,,,,,,,,14,001,22,w,Psychologie,2023-01-11_10h30.35.751,00_bat_bachelor,2022.2.4,60.16747716074206,
,,,,,,,,,,,,0,0,0,0,158,0,158,0,,,,,,,158,,,1,735.075560279045,Y,l,go,l,1,0.40270915350993164,,,,,,,,,,,,,,,,,,14,001,22,w,Psychologie,2023-01-11_10h30.35.751,00_bat_bachelor,2022.2.4,60.16747716074206,
,,,,,,,,,,,,0,0,0,0,159,0,159,0,,,,,,,159,,,1,736.5930974996882,X,d,go,d,1,0.30852922904887237,,,,,,,,,,,,,,,,,,14,001,22,w,Psychologie,2023-01-11_10h30.35.751,00_bat_bachelor,2022.2.4,60.16747716074206,
,,,,,,,,,,,,0,0,0,0,160,0,160,0,,,,,,,160,,,1,738.0111117629567,X,None,nogo,d,0,0.18702613984351046,,,,,,,,,,,,,,,,,,14,001,22,w,Psychologie,2023-01-11_10h30.35.751,00_bat_bachelor,2022.2.4,60.16747716074206,
,,,,,,,,,,,,0,0,0,0,161,0,161,0,,,,,,,161,,,1,739.3121106967737,Y,l,go,l,1,0.5984934908628929,,,,,,,,,,,,,,,,,,14,001,22,w,Psychologie,2023-01-11_10h30.35.751,00_bat_bachelor,2022.2.4,60.16747716074206,
,,,,,,,,,,,,0,0,0,0,162,0,162,0,,,,,,,162,,,1,741.0130739457381,X,d,go,d,1,0.25684290096978657,,,,,,,,,,,,,,,,,,14,001,22,w,Psychologie,2023-01-11_10h30.35.751,00_bat_bachelor,2022.2.4,60.16747716074206,
,,,,,,,,,,,,0,0,0,0,163,0,163,0,,,,,,,163,,,1,742.3808161846246,Y,l,go,l,1,0.40945436886977404,,,,,,,,,,,,,,,,,,14,001,22,w,Psychologie,2023-01-11_10h30.35.751,00_bat_bachelor,2022.2.4,60.16747716074206,
,,,,,,,,,,,,0,0,0,0,164,0,164,0,,,,,,,164,,,1,743.8988474661019,X,d,go,d,1,0.5870083943591453,,,,,,,,,,,,,,,,,,14,001,22,w,Psychologie,2023-01-11_10h30.35.751,00_bat_bachelor,2022.2.4,60.16747716074206,
,,,,,,,,,,,,0,0,0,0,165,0,165,0,,,,,,,165,,,1,745.5998824726557,X,None,nogo,l,0,0.24655780504690483,,,,,,,,,,,,,,,,,,14,001,22,w,Psychologie,2023-01-11_10h30.35.751,00_bat_bachelor,2022.2.4,60.16747716074206,
,,,,,,,,,,,,0,0,0,0,166,0,166,0,,,,,,,166,,,1,746.9511994914792,Y,l,go,l,1,0.6393415106576867,,,,,,,,,,,,,,,,,,14,001,22,w,Psychologie,2023-01-11_10h30.35.751,00_bat_bachelor,2022.2.4,60.16747716074206,
,,,,,,,,,,,,0,0,0,0,167,0,167,0,,,,,,,167,,,1,748.7023717344855,X,d,go,d,1,0.3920662392338272,,,,,,,,,,,,,,,,,,14,001,22,w,Psychologie,2023-01-11_10h30.35.751,00_bat_bachelor,2022.2.4,60.16747716074206,
,,,,,,,,,,,,0,0,0,0,168,0,168,0,,,,,,,168,,,1,750.2033882198157,Y,l,go,l,1,0.41018455105950125,,,,,,,,,,,,,,,,,,14,001,22,w,Psychologie,2023-01-11_10h30.35.751,00_bat_bachelor,2022.2.4,60.16747716074206,
,,,,,,,,,,,,0,0,0,0,169,0,169,0,,,,,,,169,,,1,751.7215552589332,X,d,go,d,1,0.6051650092122145,,,,,,,,,,,,,,,,,,14,001,22,w,Psychologie,2023-01-11_10h30.35.751,00_bat_bachelor,2022.2.4,60.16747716074206,
,,,,,,,,,,,,0,0,0,0,170,0,170,0,,,,,,,170,,,1,753.4395982737478,Y,l,go,l,1,0.31087929077330045,,,,,,,,,,,,,,,,,,14,001,22,w,Psychologie,2023-01-11_10h30.35.751,00_bat_bachelor,2022.2.4,60.16747716074206,
,,,,,,,,,,,,0,0,0,0,171,0,171,0,,,,,,,171,,,1,754.8572969005036,X,d,go,d,1,0.5730748118367046,,,,,,,,,,,,,,,,,,14,001,22,w,Psychologie,2023-01-11_10h30.35.751,00_bat_bachelor,2022.2.4,60.16747716074206,
,,,,,,,,,,,,0,0,0,0,172,0,172,0,,,,,,,172,,,1,756.5415726262145,X,None,nogo,d,0,0.40846867143409327,,,,,,,,,,,,,,,,,,14,001,22,w,Psychologie,2023-01-11_10h30.35.751,00_bat_bachelor,2022.2.4,60.16747716074206,
,,,,,,,,,,,,0,0,0,0,173,0,173,0,,,,,,,173,,,1,758.0595893622085,Y,l,go,l,1,0.31443808038602583,,,,,,,,,,,,,,,,,,14,001,22,w,Psychologie,2023-01-11_10h30.35.751,00_bat_bachelor,2022.2.4,60.16747716074206,
,,,,,,,,,,,,0,0,0,0,174,0,174,0,,,,,,,174,,,1,759.4773316253559,X,d,go,d,1,0.5282054567942396,,,,,,,,,,,,,,,,,,14,001,22,w,Psychologie,2023-01-11_10h30.35.751,00_bat_bachelor,2022.2.4,60.16747716074206,
,,,,,,,,,,,,0,0,0,0,175,0,175,0,,,,,,,175,,,1,761.111969023972,X,None,nogo,None,1,,,,,,,,,,,,,,,,,,,14,001,22,w,Psychologie,2023-01-11_10h30.35.751,00_bat_bachelor,2022.2.4,60.16747716074206,
,,,,,,,,,,,,0,0,0,0,176,0,176,0,,,,,,,176,,,1,762.9133323216229,Y,l,go,l,1,0.3092278960393742,,,,,,,,,,,,,,,,,,14,001,22,w,Psychologie,2023-01-11_10h30.35.751,00_bat_bachelor,2022.2.4,60.16747716074206,
,,,,,,,,,,,,0,0,0,0,177,0,177,0,,,,,,,177,,,1,764.331000402919,X,d,go,None,0,,,,,,,,,,,,,,,,,,,14,001,22,w,Psychologie,2023-01-11_10h30.35.751,00_bat_bachelor,2022.2.4,60.16747716074206,
,,,,,,,,,,,,0,0,0,0,178,0,178,0,,,,,,,178,,,1,766.1324960642378,Y,l,go,l,1,0.41789413054357283,,,,,,,,,,,,,,,,,,14,001,22,w,Psychologie,2023-01-11_10h30.35.751,00_bat_bachelor,2022.2.4,60.16747716074206,
,,,,,,,,,,,,0,0,0,0,179,0,179,0,,,,,,,179,,,1,767.667075717356,Y,None,nogo,None,1,,,,,,,,,,,,,,,,,,,14,001,22,w,Psychologie,2023-01-11_10h30.35.751,00_bat_bachelor,2022.2.4,60.16747716074206,
,,,,,,,,,,,,0,0,0,0,180,0,180,0,,,,,,,180,,,1,769.4680870148295,X,d,go,d,1,0.3777651413984131,,,,,,,,,,,,,,,,,,14,001,22,w,Psychologie,2023-01-11_10h30.35.751,00_bat_bachelor,2022.2.4,60.16747716074206,
,,,,,,,,,,,,0,0,0,0,181,0,181,0,,,,,,,181,,,1,770.9528649468266,Y,l,go,l,1,0.4293278330587782,,,,,,,,,,,,,,,,,,14,001,22,w,Psychologie,2023-01-11_10h30.35.751,00_bat_bachelor,2022.2.4,60.16747716074206,
,,,,,,,,,,,,0,0,0,0,182,0,182,0,,,,,,,182,,,1,772.4872302968288,Y,None,nogo,None,1,,,,,,,,,,,,,,,,,,,14,001,22,w,Psychologie,2023-01-11_10h30.35.751,00_bat_bachelor,2022.2.4,60.16747716074206,
,,,,,,,,,,,,0,0,0,0,183,0,183,0,,,,,,,183,,,1,774.2886706854042,X,d,go,d,1,0.3092181990505196,,,,,,,,,,,,,,,,,,14,001,22,w,Psychologie,2023-01-11_10h30.35.751,00_bat_bachelor,2022.2.4,60.16747716074206,
,,,,,,,,,,,,0,0,0,0,184,0,184,0,,,,,,,184,,,1,775.7062005848275,Y,l,go,None,0,,,,,,,,,,,,,,,,,,,14,001,22,w,Psychologie,2023-01-11_10h30.35.751,00_bat_bachelor,2022.2.4,60.16747716074206,
,,,,,,,,,,,,0,0,0,0,185,0,185,0,,,,,,,185,,,1,777.5075435188191,X,d,go,d,1,0.3226683874381706,,,,,,,,,,,,,,,,,,14,001,22,w,Psychologie,2023-01-11_10h30.35.751,00_bat_bachelor,2022.2.4,60.16747716074206,
,,,,,,,,,,,,0,0,0,0,186,0,186,0,,,,,,,186,,,1,778.9419888203556,X,None,nogo,None,1,,,,,779.7425506630389,,,,,,,,,,,,,,14,001,22,w,Psychologie,2023-01-11_10h30.35.751,00_bat_bachelor,2022.2.4,60.16747716074206,
,,,,,,,,,,,,0,0,0,0,187,0,187,0,,,,,,,187,,,1,780.7433632695174,Y,l,go,l,1,0.238375982909929,,,,,,,,,,,,,,,,,,14,001,22,w,Psychologie,2023-01-11_10h30.35.751,00_bat_bachelor,2022.2.4,60.16747716074206,
,,,,,,,,,,,,0,0,0,0,188,0,188,0,,,,,,,188,,,1,782.0947035610734,X,d,go,d,1,0.3108303210756276,,,,,,,,,,,,,,,,,,14,001,22,w,Psychologie,2023-01-11_10h30.35.751,00_bat_bachelor,2022.2.4,60.16747716074206,
,,,,,,,,,,,,0,0,0,0,189,0,189,0,,,,,,,189,,,1,783.5124744302884,Y,l,go,l,1,0.3810984763549641,,,,,,,,,,,,,,,,,,14,001,22,w,Psychologie,2023-01-11_10h30.35.751,00_bat_bachelor,2022.2.4,60.16747716074206,
,,,,,,,,,,,,0,0,0,0,190,0,190,0,,,,,,,190,,,1,784.9967873923888,X,d,go,d,1,0.4017923045612406,,,,,,,,,,,,,,,,,,14,001,22,w,Psychologie,2023-01-11_10h30.35.751,00_bat_bachelor,2022.2.4,60.16747716074206,
,,,,,,,,,,,,0,0,0,0,191,0,191,0,,,,,,,191,,,1,786.5147827950423,X,None,nogo,None,1,,,,,,,,,,,,,,,,,,,14,001,22,w,Psychologie,2023-01-11_10h30.35.751,00_bat_bachelor,2022.2.4,60.16747716074206,
,,,,,,,,,,,,0,0,0,0,192,0,192,0,,,,,,,192,,,1,788.3158241531346,Y,l,go,l,1,0.5224614540056791,,,,,,,,,,,,,,,,,,14,001,22,w,Psychologie,2023-01-11_10h30.35.751,00_bat_bachelor,2022.2.4,60.16747716074206,
,,,,,,,,,,,,0,0,0,0,193,0,193,0,,,,,,,193,,,1,789.950742763991,X,d,go,d,1,0.4234126787050627,,,,,,,,,,,,,,,,,,14,001,22,w,Psychologie,2023-01-11_10h30.35.751,00_bat_bachelor,2022.2.4,60.16747716074206,
,,,,,,,,,,,,0,0,0,0,194,0,194,0,,,,,,,194,,,1,791.4851444776286,Y,l,go,l,1,0.48887307406403124,,,,,,,,,,,,,,,,,,14,001,22,w,Psychologie,2023-01-11_10h30.35.751,00_bat_bachelor,2022.2.4,60.16747716074206,
,,,,,,,,,,,,0,0,0,0,195,0,195,0,,,,,,,195,,,1,793.086156647827,Y,None,nogo,None,1,,,,,,,,,,,,,,,,,,,14,001,22,w,Psychologie,2023-01-11_10h30.35.751,00_bat_bachelor,2022.2.4,60.16747716074206,
,,,,,,,,,,,,0,0,0,0,196,0,196,0,,,,,,,196,,,1,794.8874161878484,X,d,go,d,1,0.39914600024349056,,,,,,,,,,,,,,,,,,14,001,22,w,Psychologie,2023-01-11_10h30.35.751,00_bat_bachelor,2022.2.4,60.16747716074206,
,,,,,,,,,,,,0,0,0,0,197,0,197,0,,,,,,,197,,,1,796.3888350976049,Y,l,go,l,1,0.4494408125174232,,,,,,,,,,,,,,,,,,14,001,22,w,Psychologie,2023-01-11_10h30.35.751,00_bat_bachelor,2022.2.4,60.16747716074206,
,,,,,,,,,,,,0,0,0,0,198,0,198,0,,,,,,,198,,,1,797.9399786375579,Y,None,nogo,l,0,0.497861199604813,,,,,,,,,,,,,,,,,,14,001,22,w,Psychologie,2023-01-11_10h30.35.751,00_bat_bachelor,2022.2.4,60.16747716074206,
,,,,,,,,,,,,0,0,0,0,199,0,199,0,,,,,,,199,,,1,799.5413040200365,Y,None,nogo,d,0,0.2893074015446473,,,,,,,,,,,,,,,,,,14,001,22,w,Psychologie,2023-01-11_10h30.35.751,00_bat_bachelor,2022.2.4,60.16747716074206,
,,,,,,,,,,,,0,0,0,0,200,0,200,0,,,,,,,200,,,1,800.9423956084356,X,d,go,d,1,0.42345534535706975,,,,,,,,,,,,,,,,,,14,001,22,w,Psychologie,2023-01-11_10h30.35.751,00_bat_bachelor,2022.2.4,60.16747716074206,
,,,,,,,,,,,,0,0,0,0,201,0,201,0,,,,,,,201,,,1,802.4769791403378,Y,l,go,l,1,0.3299726333934814,,,,,,,,,,,,,,,,,,14,001,22,w,Psychologie,2023-01-11_10h30.35.751,00_bat_bachelor,2022.2.4,60.16747716074206,
,,,,,,,,,,,,0,0,0,0,202,0,202,0,,,,,,,202,,,1,803.9111892902583,X,d,go,d,1,0.5750486309989356,,,,,,,,,,,,,,,,,,14,001,22,w,Psychologie,2023-01-11_10h30.35.751,00_bat_bachelor,2022.2.4,60.16747716074206,
,,,,,,,,,,,,0,0,0,0,203,0,203,0,,,,,,,203,,,1,805.5959154404409,Y,l,go,l,1,0.34644003529683687,,,,,,,,,,,,,,,,,,14,001,22,w,Psychologie,2023-01-11_10h30.35.751,00_bat_bachelor,2022.2.4,60.16747716074206,
,,,,,,,,,,,,0,0,0,0,204,0,204,0,,,,,,,204,,,1,807.0469003863691,X,d,go,d,1,0.5434355247416534,,,,,,,,,,,,,,,,,,14,001,22,w,Psychologie,2023-01-11_10h30.35.751,00_bat_bachelor,2022.2.4,60.16747716074206,
,,,,,,,,,,,,0,0,0,0,205,0,205,0,,,,,,,205,,,1,808.6980182778207,X,None,nogo,d,0,0.44380056735826656,,,,,,,,,,,,,,,,,,14,001,22,w,Psychologie,2023-01-11_10h30.35.751,00_bat_bachelor,2022.2.4,60.16747716074206,
,,,,,,,,,,,,0,0,0,0,206,0,206,0,,,,,,,206,,,1,810.2495152725023,Y,l,go,l,1,0.4769613107200712,,,,,,,,,,,,,,,,,,14,001,22,w,Psychologie,2023-01-11_10h30.35.751,00_bat_bachelor,2022.2.4,60.16747716074206,
,,,,,,,,,,,,0,0,0,0,207,0,207,0,,,,,,,207,,,1,811.8341856165789,X,d,go,None,0,,,,,,,,,,,,,,,,,,,14,001,22,w,Psychologie,2023-01-11_10h30.35.751,00_bat_bachelor,2022.2.4,60.16747716074206,
,,,,,,,,,,,,0,0,0,0,208,0,208,0,,,,,,,208,,,1,813.635432550509,X,None,nogo,None,1,,,,,814.4360336659593,,,,,,,,,,,,,,14,001,22,w,Psychologie,2023-01-11_10h30.35.751,00_bat_bachelor,2022.2.4,60.16747716074206,
,,,,,,,,,,,,0,0,0,0,209,0,209,0,,,,,,,209,,,1,815.4367643329606,Y,l,go,l,1,0.40942867190460674,,,,,,,,,,,,,,,,,,14,001,22,w,Psychologie,2023-01-11_10h30.35.751,00_bat_bachelor,2022.2.4,60.16747716074206,
,,,,,,,,,,,,0,0,0,0,210,0,210,0,,,,,,,210,,,1,816.9546773113543,X,d,go,d,1,0.41223061265191063,,,,,,,,,,,,,,,,,,14,001,22,w,Psychologie,2023-01-11_10h30.35.751,00_bat_bachelor,2022.2.4,60.16747716074206,
,,,,,,,,,,,,0,0,0,0,211,0,211,0,,,,,,,211,,,1,818.4724545321078,Y,l,go,l,1,0.4774655533838086,,,,,,,,,,,,,,,,,,14,001,22,w,Psychologie,2023-01-11_10h30.35.751,00_bat_bachelor,2022.2.4,60.16747716074206,
,,,,,,,,,,,,0,0,0,0,212,0,212,0,,,,,,,212,,,1,820.0568790578691,Y,None,nogo,l,0,0.5412013418390416,,,,,,,,,,,,,,,,,,14,001,22,w,Psychologie,2023-01-11_10h30.35.751,00_bat_bachelor,2022.2.4,60.16747716074206,
,,,,,,,,,,,,0,0,0,0,213,0,213,0,,,,,,,213,,,1,821.7081671312335,X,d,go,d,1,0.4737162182282191,,,,,,,,,,,,,,,,,,14,001,22,w,Psychologie,2023-01-11_10h30.35.751,00_bat_bachelor,2022.2.4,60.16747716074206,
,,,,,,,,,,,,0,0,0,0,214,0,214,0,,,,,,,214,,,1,823.2924423236109,Y,l,go,l,1,0.5851412419287954,,,,,,,,,,,,,,,,,,14,001,22,w,Psychologie,2023-01-11_10h30.35.751,00_bat_bachelor,2022.2.4,60.16747716074206,
,,,,,,,,,,,,0,0,0,0,215,0,215,0,,,,,,,215,,,1,824.9941289668495,X,d,go,d,1,0.2598698115325533,,,,,,,,,,,,,,,,,,14,001,22,w,Psychologie,2023-01-11_10h30.35.751,00_bat_bachelor,2022.2.4,60.16747716074206,
,,,,,,,,,,,,0,0,0,0,216,0,216,0,,,,,,,216,,,1,826.3618309633166,Y,l,go,l,1,0.2525272624916397,,,,,,,,,,,,,,,,,,14,001,22,w,Psychologie,2023-01-11_10h30.35.751,00_bat_bachelor,2022.2.4,60.16747716074206,
,,,,,,,,,,,,0,0,0,0,217,0,217,0,,,,,,,217,,,1,827.7293787778763,X,d,go,d,1,0.4530476021463983,,,,,,,,,,,,,,,,,,14,001,22,w,Psychologie,2023-01-11_10h30.35.751,00_bat_bachelor,2022.2.4,60.16747716074206,
,,,,,,,,,,,,0,0,0,0,218,0,218,0,,,,,,,218,,,1,829.2974086290342,Y,l,go,l,1,0.5332231561478693,,,,,,,,,,,,,,,,,,14,001,22,w,Psychologie,2023-01-11_10h30.35.751,00_bat_bachelor,2022.2.4,60.16747716074206,
,,,,,,,,,,,,0,0,0,0,219,0,219,0,,,,,,,219,,,1,830.9319509972993,X,d,go,d,1,0.5304347911733203,,,,,,,,,,,,,,,,,,14,001,22,w,Psychologie,2023-01-11_10h30.35.751,00_bat_bachelor,2022.2.4,60.16747716074206,
,,,,,,,,,,,,0,0,0,0,220,0,220,0,,,,,,,220,,,1,832.5665816080291,X,None,nogo,d,0,0.5115441153757274,,,,,,,,,,,,,,,,,,14,001,22,w,Psychologie,2023-01-11_10h30.35.751,00_bat_bachelor,2022.2.4,60.16747716074206,
,,,,,,,,,,,,0,0,0,0,221,0,221,0,,,,,,,221,,,1,834.1841130589601,Y,l,go,l,1,0.4454500227002427,,,,,,,,,,,,,,,,,,14,001,22,w,Psychologie,2023-01-11_10h30.35.751,00_bat_bachelor,2022.2.4,60.16747716074206,
,,,,,,,,,,,,0,0,0,0,222,0,222,0,,,,,,,222,,,1,835.736271872127,X,d,go,None,0,,,,,836.5369908058201,,,,,,,,,,,,,,14,001,22,w,Psychologie,2023-01-11_10h30.35.751,00_bat_bachelor,2022.2.4,60.16747716074206,
,,,,,,,,,,,,0,0,0,0,223,0,223,0,,,,,,,223,,,1,837.5374397757114,X,None,nogo,l,0,0.24406471292604692,,,,,,,,,,,,,,,,,,14,001,22,w,Psychologie,2023-01-11_10h30.35.751,00_bat_bachelor,2022.2.4,60.16747716074206,
,,,,,,,,,,,,0,0,0,0,224,0,224,0,,,,,,,224,,,1,838.9053599541076,Y,l,go,None,0,,,,,839.7057695543044,,,,,,,,,,,,,,14,001,22,w,Psychologie,2023-01-11_10h30.35.751,00_bat_bachelor,2022.2.4,60.16747716074206,
,,,,,,,,,,,,0,0,0,0,225,0,225,0,,,,,,,225,,,1,840.7067295547749,X,d,go,d,1,0.4349806843092665,,,,,,,,,,,,,,,,,,14,001,22,w,Psychologie,2023-01-11_10h30.35.751,00_bat_bachelor,2022.2.4,60.16747716074206,
,,,,,,,,,,,,0,0,0,0,226,0,226,0,,,,,,,226,,,1,842.274595042225,X,None,nogo,d,0,0.40361824486171827,,,,,,,,,,,,,,,,,,14,001,22,w,Psychologie,2023-01-11_10h30.35.751,00_bat_bachelor,2022.2.4,60.16747716074206,
,,,,,,,,,,,,0,0,0,0,227,0,227,0,,,,,,,227,,,1,843.7924348084489,Y,l,go,l,1,0.4688430037640501,,,,,,,,,,,,,,,,,,14,001,22,w,Psychologie,2023-01-11_10h30.35.751,00_bat_bachelor,2022.2.4,60.16747716074206,
,,,,,,,,,,,,0,0,0,0,228,0,228,0,,,,,,,228,,,1,845.3936510999338,X,d,go,d,1,0.5003242311067879,,,,,,,,,,,,,,,,,,14,001,22,w,Psychologie,2023-01-11_10h30.35.751,00_bat_bachelor,2022.2.4,60.16747716074206,
,,,,,,,,,,,,0,0,0,0,229,0,229,0,,,,,,,229,,,1,847.0115374601446,Y,l,go,l,1,0.5303160032490268,,,,,,,,,,,,,,,,,,14,001,22,w,Psychologie,2023-01-11_10h30.35.751,00_bat_bachelor,2022.2.4,60.16747716074206,
,,,,,,,,,,,,0,0,0,0,230,0,230,0,,,,,,,230,,,1,848.6627203213284,Y,None,nogo,l,0,0.6390486620366573,,,,,,,,,,,,,,,,,,14,001,22,w,Psychologie,2023-01-11_10h30.35.751,00_bat_bachelor,2022.2.4,60.16747716074206,
,,,,,,,,,,,,0,0,0,0,231,0,231,0,,,,,,,231,,,1,850.4306620269781,X,d,go,d,1,0.311077593913069,,,,,,,,,,,,,,,,,,14,001,22,w,Psychologie,2023-01-11_10h30.35.751,00_bat_bachelor,2022.2.4,60.16747716074206,
,,,,,,,,,,,,0,0,0,0,232,0,232,0,,,,,,,232,,,1,851.8649327830062,Y,l,go,l,1,0.4121879459707998,,,,,,,,,,,,,,,,,,14,001,22,w,Psychologie,2023-01-11_10h30.35.751,00_bat_bachelor,2022.2.4,60.16747716074206,
,,,,,,,,,,,,0,0,0,0,233,0,233,0,,,,,,,233,,,1,853.3995497694705,Y,None,nogo,l,0,0.47761731102946214,,,,,,,,,,,,,,,,,,14,001,22,w,Psychologie,2023-01-11_10h30.35.751,00_bat_bachelor,2022.2.4,60.16747716074206,
,,,,,,,,,,,,0,0,0,0,234,0,234,0,,,,,,,234,,,1,855.0006991518603,Y,None,nogo,l,0,0.46032954507973045,,,,,,,,,,,,,,,,,,14,001,22,w,Psychologie,2023-01-11_10h30.35.751,00_bat_bachelor,2022.2.4,60.16747716074206,
,,,,,,,,,,,,0,0,0,0,235,0,235,0,,,,,,,235,,,1,856.5854810111341,X,d,go,d,1,0.3806674458319321,,,,,,,,,,,,,,,,,,14,001,22,w,Psychologie,2023-01-11_10h30.35.751,00_bat_bachelor,2022.2.4,60.16747716074206,
,,,,,,,,,,,,0,0,0,0,236,0,236,0,,,,,,,236,,,1,858.0866536177637,Y,l,go,l,1,0.5591945627238601,,,,,,,,,,,,,,,,,,14,001,22,w,Psychologie,2023-01-11_10h30.35.751,00_bat_bachelor,2022.2.4,60.16747716074206,
,,,,,,,,,,,,0,0,0,0,237,0,237,0,,,,,,,237,,,1,859.7879102001898,Y,None,nogo,None,1,,,,,860.5885016186512,,,,,,,,,,,,,,14,001,22,w,Psychologie,2023-01-11_10h30.35.751,00_bat_bachelor,2022.2.4,60.16747716074206,
,,,,,,,,,,,,0,0,0,0,238,0,238,0,,,,,,,238,,,1,861.5893341039191,X,d,go,d,1,0.24064701431780122,,,,,,,,,,,,,,,,,,14,001,22,w,Psychologie,2023-01-11_10h30.35.751,00_bat_bachelor,2022.2.4,60.16747716074206,
,,,,,,,,,,,,0,0,0,0,239,0,239,0,,,,,,,239,,,1,862.9400790012442,Y,l,go,l,1,0.5857308180129621,,,,,,,,,,,,,,,,,,14,001,22,w,Psychologie,2023-01-11_10h30.35.751,00_bat_bachelor,2022.2.4,60.16747716074206,
,,,,,,,,,,,,0,0,0,0,240,0,240,0,,,,,,,240,,,1,864.6416463717178,Y,None,nogo,None,1,,,,,865.4423236083821,,,,,,,,,,,,,,14,001,22,w,Psychologie,2023-01-11_10h30.35.751,00_bat_bachelor,2022.2.4,60.16747716074206,
,,,,,,,,,,,,0,0,0,0,241,0,241,0,,,,,,,241,,,1,866.4428598510858,X,d,go,d,1,0.3470596719707828,,,,,,,,,,,,,,,,,,14,001,22,w,Psychologie,2023-01-11_10h30.35.751,00_bat_bachelor,2022.2.4,60.16747716074206,
,,,,,,,,,,,,0,0,0,0,242,0,242,0,,,,,,,242,,,1,867.8941400698677,Y,l,go,None,0,,,,,868.694767367153,,,,,,,,,,,,,,14,001,22,w,Psychologie,2023-01-11_10h30.35.751,00_bat_bachelor,2022.2.4,60.16747716074206,
,,,,,,,,,,,,0,0,0,0,243,0,243,0,,,,,,,243,,,1,869.6952483370842,X,d,go,d,1,0.646125029103132,,,,,,,,,,,,,,,,,,14,001,22,w,Psychologie,2023-01-11_10h30.35.751,00_bat_bachelor,2022.2.4,60.16747716074206,
,,,,,,,,,,,,0,0,0,0,244,0,244,0,,,,,,,244,,,1,871.4633558610221,X,None,nogo,None,1,,,,,872.2642440068885,,,,,,,,,,,,,,14,001,22,w,Psychologie,2023-01-11_10h30.35.751,00_bat_bachelor,2022.2.4,60.16747716074206,
,,,,,,,,,,,,0,0,0,0,245,0,245,0,,,,,,,245,,,1,873.2646580676956,Y,l,go,l,1,0.4219692840415519,,,,,,,,,,,,,,,,,,14,001,22,w,Psychologie,2023-01-11_10h30.35.751,00_bat_bachelor,2022.2.4,60.16747716074206,
,,,,,,,,,,,,0,0,0,0,246,0,246,0,,,,,,,246,,,1,874.7994563876127,X,d,go,d,1,0.5665531117410865,,,,,,,,,,,,,,,,,,14,001,22,w,Psychologie,2023-01-11_10h30.35.751,00_bat_bachelor,2022.2.4,60.16747716074206,
,,,,,,,,,,,,0,0,0,0,247,0,247,0,,,,,,,247,,,1,876.4839435073663,X,None,nogo,None,1,,,,,877.2843511681713,,,,,,,,,,,,,,14,001,22,w,Psychologie,2023-01-11_10h30.35.751,00_bat_bachelor,2022.2.4,60.16747716074206,
,,,,,,,,,,,,0,0,0,0,248,0,248,0,,,,,,,248,,,1,878.2852927443746,Y,l,go,l,1,0.4572013011202216,,,,,,,,,,,,,,,,,,14,001,22,w,Psychologie,2023-01-11_10h30.35.751,00_bat_bachelor,2022.2.4,60.16747716074206,
,,,,,,,,,,,,0,0,0,0,249,0,249,0,,,,,,,249,,,1,879.8699533914914,X,d,go,d,1,0.3443566403584555,,,,,,,,,,,,,,,,,,14,001,22,w,Psychologie,2023-01-11_10h30.35.751,00_bat_bachelor,2022.2.4,60.16747716074206,
,,,,,,,,,,,,1,0,1,0,0,0,0,0,,,,,,,0,,,0.2,916.730582657241,X,d,go,None,0,,,,,,,,,,880.3509543519758,space,36.1549053969793,,,,,,,14,001,22,w,Psychologie,2023-01-11_10h30.35.751,00_bat_bachelor,2022.2.4,60.16747716074206,
,,,,,,,,,,,,1,0,1,0,1,0,1,0,,,,,,,1,,,0.2,917.7312774454767,Y,l,go,l,1,0.40286285054753534,,,,,,,,,,,,,,,,,,14,001,22,w,Psychologie,2023-01-11_10h30.35.751,00_bat_bachelor,2022.2.4,60.16747716074206,
,,,,,,,,,,,,1,0,1,0,2,0,2,0,,,,,,,2,,,0.2,918.4487187630148,X,d,go,d,1,0.4855906482262071,,,,,,,,,,,,,,,,,,14,001,22,w,Psychologie,2023-01-11_10h30.35.751,00_bat_bachelor,2022.2.4,60.16747716074206,
,,,,,,,,,,,,1,0,1,0,3,0,3,0,,,,,,,3,,,0.2,919.2493290905841,Y,l,go,l,1,0.6289841723046266,,,,,,,,,,,,,,,,,,14,001,22,w,Psychologie,2023-01-11_10h30.35.751,00_bat_bachelor,2022.2.4,60.16747716074206,
,,,,,,,,,,,,1,0,1,0,4,0,4,0,,,,,,,4,,,0.2,920.1834051798214,X,d,go,d,1,0.6069875555695035,,,,,,,,,,,,,,,,,,14,001,22,w,Psychologie,2023-01-11_10h30.35.751,00_bat_bachelor,2022.2.4,60.16747716074206,
,,,,,,,,,,,,1,0,1,0,5,0,5,0,,,,,,,5,,,0.2,921.1006865942618,Y,l,go,l,1,0.504370293696411,,,,,,,,,,,,,,,,,,14,001,22,w,Psychologie,2023-01-11_10h30.35.751,00_bat_bachelor,2022.2.4,60.16747716074206,
,,,,,,,,,,,,1,0,1,0,6,0,6,0,,,,,,,6,,,0.2,921.9345701501006,X,d,go,None,0,,,,,,,,,,,,,,,,,,,14,001,22,w,Psychologie,2023-01-11_10h30.35.751,00_bat_bachelor,2022.2.4,60.16747716074206,
,,,,,,,,,,,,1,0,1,0,7,0,7,0,,,,,,,7,,,0.2,922.9354661505204,Y,l,go,l,1,0.44684638699982315,,,,,,,,,,,,,,,,,,14,001,22,w,Psychologie,2023-01-11_10h30.35.751,00_bat_bachelor,2022.2.4,60.16747716074206,
,,,,,,,,,,,,1,0,1,0,8,0,8,0,,,,,,,8,,,0.2,923.6859717265179,X,d,go,d,1,0.511990176193649,,,,,,,,,,,,,,,,,,14,001,22,w,Psychologie,2023-01-11_10h30.35.751,00_bat_bachelor,2022.2.4,60.16747716074206,
,,,,,,,,,,,,1,0,1,0,9,0,9,0,,,,,,,9,,,0.2,924.5030106681224,Y,l,go,l,1,0.3032138325215783,,,,,,,,,,,,,,,,,,14,001,22,w,Psychologie,2023-01-11_10h30.35.751,00_bat_bachelor,2022.2.4,60.16747716074206,
,,,,,,,,,,,,1,0,1,0,10,0,10,0,,,,,,,10,,,0.2,925.1203855129133,X,d,go,d,1,0.6452910893131047,,,,,,,,,,,,,,,,,,14,001,22,w,Psychologie,2023-01-11_10h30.35.751,00_bat_bachelor,2022.2.4,60.16747716074206,
,,,,,,,,,,,,1,0,1,0,11,0,11,0,,,,,,,11,,,0.2,926.0708184585674,X,None,nogo,None,1,,,,,,,,,,,,,,,,,,,14,001,22,w,Psychologie,2023-01-11_10h30.35.751,00_bat_bachelor,2022.2.4,60.16747716074206,
,,,,,,,,,,,,1,0,1,0,12,0,12,0,,,,,,,12,,,0.2,927.0719743379159,Y,l,go,l,1,0.39038866266491823,,,,,,,,,,,,,,,,,,14,001,22,w,Psychologie,2023-01-11_10h30.35.751,00_bat_bachelor,2022.2.4,60.16747716074206,
,,,,,,,,,,,,1,0,1,0,13,0,13,0,,,,,,,13,,,0.2,927.7724430411763,X,d,go,d,1,0.5701962650055066,,,,,,,,,,,,,,,,,,14,001,22,w,Psychologie,2023-01-11_10h30.35.751,00_bat_bachelor,2022.2.4,60.16747716074206,
,,,,,,,,,,,,1,0,1,0,14,0,14,0,,,,,,,14,,,0.2,928.6563261364063,X,None,nogo,d,0,0.5655872930947226,,,,,,,,,,,,,,,,,,14,001,22,w,Psychologie,2023-01-11_10h30.35.751,00_bat_bachelor,2022.2.4,60.16747716074206,
,,,,,,,,,,,,1,0,1,0,15,0,15,0,,,,,,,15,,,0.2,929.5238339509524,Y,l,go,l,1,0.4664832450216636,,,,,,,,,,,,,,,,,,14,001,22,w,Psychologie,2023-01-11_10h30.35.751,00_bat_bachelor,2022.2.4,60.16747716074206,
,,,,,,,,,,,,1,0,1,0,16,0,16,0,,,,,,,16,,,0.2,930.2911346866167,X,d,go,d,1,0.38732005513156764,,,,,,,,,,,,,,,,,,14,001,22,w,Psychologie,2023-01-11_10h30.35.751,00_bat_bachelor,2022.2.4,60.16747716074206,
,,,,,,,,,,,,1,0,1,0,17,0,17,0,,,,,,,17,,,0.2,930.991653814126,Y,l,go,l,1,0.6471897568844724,,,,,,,,,,,,,,,,,,14,001,22,w,Psychologie,2023-01-11_10h30.35.751,00_bat_bachelor,2022.2.4,60.16747716074206,
,,,,,,,,,,,,1,0,1,0,18,0,18,0,,,,,,,18,,,0.2,931.9422259113926,Y,None,nogo,None,1,,,,,,,,,,,,,,,,,,,14,001,22,w,Psychologie,2023-01-11_10h30.35.751,00_bat_bachelor,2022.2.4,60.16747716074206,
,,,,,,,,,,,,1,0,1,0,19,0,19,0,,,,,,,19,,,0.2,932.9431306390907,Y,None,nogo,None,1,,,,,,,,,,,,,,,,,,,14,001,22,w,Psychologie,2023-01-11_10h30.35.751,00_bat_bachelor,2022.2.4,60.16747716074206,
,,,,,,,,,,,,1,0,1,0,20,0,20,0,,,,,,,20,,,0.2,933.9439122152398,X,d,go,d,1,0.3341481505485717,,,,,,,,,,,,,,,,,,14,001,22,w,Psychologie,2023-01-11_10h30.35.751,00_bat_bachelor,2022.2.4,60.16747716074206,
,,,,,,,,,,,,1,0,1,0,21,0,21,0,,,,,,,21,,,0.2,934.593991560716,Y,l,go,None,0,,,,,,,,,,,,,,,,,,,14,001,22,w,Psychologie,2023-01-11_10h30.35.751,00_bat_bachelor,2022.2.4,60.16747716074206,
,,,,,,,,,,,,1,0,1,0,22,0,22,0,,,,,,,22,,,0.2,935.5951212582295,Y,None,nogo,None,1,,,,,,,,,,,,,,,,,,,14,001,22,w,Psychologie,2023-01-11_10h30.35.751,00_bat_bachelor,2022.2.4,60.16747716074206,
,,,,,,,,,,,,1,0,1,0,23,0,23,0,,,,,,,23,,,0.2,936.5957331373356,X,d,go,None,0,,,,,,,,,,,,,,,,,,,14,001,22,w,Psychologie,2023-01-11_10h30.35.751,00_bat_bachelor,2022.2.4,60.16747716074206,
,,,,,,,,,,,,1,0,1,0,24,0,24,0,,,,,,,24,,,0.2,937.5967086529417,Y,l,go,None,0,,,,,,,,,,,,,,,,,,,14,001,22,w,Psychologie,2023-01-11_10h30.35.751,00_bat_bachelor,2022.2.4,60.16747716074206,
,,,,,,,,,,,,1,0,1,0,25,0,25,0,,,,,,,25,,,0.2,938.5974393199722,X,d,go,d,1,0.3682276822219137,,,,,,,,,,,,,,,,,,14,001,22,w,Psychologie,2023-01-11_10h30.35.751,00_bat_bachelor,2022.2.4,60.16747716074206,
,,,,,,,,,,,,1,0,1,0,26,0,26,0,,,,,,,26,,,0.2,939.2812234090816,X,None,nogo,None,1,,,,,,,,,,,,,,,,,,,14,001,22,w,Psychologie,2023-01-11_10h30.35.751,00_bat_bachelor,2022.2.4,60.16747716074206,
,,,,,,,,,,,,1,0,1,0,27,0,27,0,,,,,,,27,,,0.2,940.2820355306903,Y,l,go,d,0,0.012323509668931365,,,,,,,,,,,,,,,,,,14,001,22,w,Psychologie,2023-01-11_10h30.35.751,00_bat_bachelor,2022.2.4,60.16747716074206,
,,,,,,,,,,,,1,0,1,0,28,0,28,0,,,,,,,28,,,0.2,940.5988870782312,X,d,go,None,0,,,,,,,,,,,,,,,,,,,14,001,22,w,Psychologie,2023-01-11_10h30.35.751,00_bat_bachelor,2022.2.4,60.16747716074206,
,,,,,,,,,,,,1,0,1,0,29,0,29,0,,,,,,,29,,,0.2,941.599589139194,Y,l,go,l,1,0.5033506568288431,,,,,,,,,,,,,,,,,,14,001,22,w,Psychologie,2023-01-11_10h30.35.751,00_bat_bachelor,2022.2.4,60.16747716074206,
,,,,,,,,,,,,1,0,1,0,30,0,30,0,,,,,,,30,,,0.2,942.4170392325032,X,d,go,None,0,,,,,,,,,,,,,,,,,,,14,001,22,w,Psychologie,2023-01-11_10h30.35.751,00_bat_bachelor,2022.2.4,60.16747716074206,
,,,,,,,,,,,,1,0,1,0,31,0,31,0,,,,,,,31,,,0.2,943.4178135358961,Y,l,go,l,1,0.6211645321454853,,,,,,,,,,,,,,,,,,14,001,22,w,Psychologie,2023-01-11_10h30.35.751,00_bat_bachelor,2022.2.4,60.16747716074206,
,,,,,,,,,,,,1,0,1,0,32,0,32,0,,,,,,,32,,,0.2,944.3518110796576,X,d,go,None,0,,,,,,,,,,,,,,,,,,,14,001,22,w,Psychologie,2023-01-11_10h30.35.751,00_bat_bachelor,2022.2.4,60.16747716074206,
,,,,,,,,,,,,1,0,1,0,33,0,33,0,,,,,,,33,,,0.2,945.3522721707996,Y,l,go,l,1,0.5251518795266747,,,,,,,,,,,,,,,,,,14,001,22,w,Psychologie,2023-01-11_10h30.35.751,00_bat_bachelor,2022.2.4,60.16747716074206,
,,,,,,,,,,,,1,0,1,0,34,0,34,0,,,,,,,34,,,0.2,946.186578029854,X,d,go,None,0,,,,,,,,,,,,,,,,,,,14,001,22,w,Psychologie,2023-01-11_10h30.35.751,00_bat_bachelor,2022.2.4,60.16747716074206,
,,,,,,,,,,,,1,0,1,0,35,0,35,0,,,,,,,35,,,0.2,947.1872660301742,X,None,nogo,None,1,,,,,,,,,,,,,,,,,,,14,001,22,w,Psychologie,2023-01-11_10h30.35.751,00_bat_bachelor,2022.2.4,60.16747716074206,
,,,,,,,,,,,,1,0,1,0,36,0,36,0,,,,,,,36,,,0.2,948.1880175457045,Y,l,go,None,0,,,,,,,,,,,,,,,,,,,14,001,22,w,Psychologie,2023-01-11_10h30.35.751,00_bat_bachelor,2022.2.4,60.16747716074206,
,,,,,,,,,,,,1,0,1,0,37,0,37,0,,,,,,,37,,,0.2,949.1888665158185,X,d,go,None,0,,,,,,,,,,,,,,,,,,,14,001,22,w,Psychologie,2023-01-11_10h30.35.751,00_bat_bachelor,2022.2.4,60.16747716074206,
,,,,,,,,,,,,1,0,1,0,38,0,38,0,,,,,,,38,,,0.2,950.1892476069042,X,None,nogo,d,0,0.0080539318441879,,,,,,,,,,,,,,,,,,14,001,22,w,Psychologie,2023-01-11_10h30.35.751,00_bat_bachelor,2022.2.4,60.16747716074206,
,,,,,,,,,,,,1,0,1,0,39,0,39,0,,,,,,,39,,,0.2,950.5065195182979,X,None,nogo,None,1,,,,,,,,,,,,,,,,,,,14,001,22,w,Psychologie,2023-01-11_10h30.35.751,00_bat_bachelor,2022.2.4,60.16747716074206,
,,,,,,,,,,,,1,0,1,0,40,0,40,0,,,,,,,40,,,0.2,951.5072322459309,Y,l,go,l,1,0.2903905535931699,,,,,,,,,,,,,,,,,,14,001,22,w,Psychologie,2023-01-11_10h30.35.751,00_bat_bachelor,2022.2.4,60.16747716074206,
,,,,,,,,,,,,1,0,1,0,41,0,41,0,,,,,,,41,,,0.2,952.1077091431362,X,d,go,d,1,0.29856849694624543,,,,,,,,,,,,,,,,,,14,001,22,w,Psychologie,2023-01-11_10h30.35.751,00_bat_bachelor,2022.2.4,60.16747716074206,
,,,,,,,,,,,,1,0,1,0,42,0,42,0,,,,,,,42,,,0.2,952.708181191847,X,None,nogo,l,0,0.24185040884185582,,,,,,,,,,,,,,,,,,14,001,22,w,Psychologie,2023-01-11_10h30.35.751,00_bat_bachelor,2022.2.4,60.16747716074206,
,,,,,,,,,,,,1,0,1,0,43,0,43,0,,,,,,,43,,,0.2,953.2586066708318,Y,l,go,None,0,,,,,,,,,,,,,,,,,,,14,001,22,w,Psychologie,2023-01-11_10h30.35.751,00_bat_bachelor,2022.2.4,60.16747716074206,
,,,,,,,,,,,,1,0,1,0,44,0,44,0,,,,,,,44,,,0.2,954.2593727318163,X,d,go,None,0,,,,,,,,,,,,,,,,,,,14,001,22,w,Psychologie,2023-01-11_10h30.35.751,00_bat_bachelor,2022.2.4,60.16747716074206,
,,,,,,,,,,,,1,0,1,0,45,0,45,0,,,,,,,45,,,0.2,955.2600951564091,Y,l,go,l,1,0.41008370253257453,,,,,,,,,,,,,,,,,,14,001,22,w,Psychologie,2023-01-11_10h30.35.751,00_bat_bachelor,2022.2.4,60.16747716074206,
,,,,,,,,,,,,1,0,1,0,46,0,46,0,,,,,,,46,,,0.2,955.9772756253369,Y,None,nogo,l,0,0.5090995081118308,,,,,,,,,,,,,,,,,,14,001,22,w,Psychologie,2023-01-11_10h30.35.751,00_bat_bachelor,2022.2.4,60.16747716074206,
,,,,,,,,,,,,1,0,1,0,47,0,47,0,,,,,,,47,,,0.2,956.7946743246866,X,d,go,d,1,0.6520081834751181,,,,,,,,,,,,,,,,,,14,001,22,w,Psychologie,2023-01-11_10h30.35.751,00_bat_bachelor,2022.2.4,60.16747716074206,
,,,,,,,,,,,,1,0,1,0,48,0,48,0,,,,,,,48,,,0.2,957.7620793997776,Y,l,go,l,1,0.3719265931285918,,,,,,,,,,,,,,,,,,14,001,22,w,Psychologie,2023-01-11_10h30.35.751,00_bat_bachelor,2022.2.4,60.16747716074206,
,,,,,,,,,,,,1,0,1,0,49,0,49,0,,,,,,,49,,,0.2,958.4458203373651,X,d,go,d,1,0.5364837638335302,,,,,,,,,,,,,,,,,,14,001,22,w,Psychologie,2023-01-11_10h30.35.751,00_bat_bachelor,2022.2.4,60.16747716074206,
,,,,,,,,,,,,1,0,1,0,50,0,50,0,,,,,,,50,,,0.2,959.2962430527259,Y,l,go,l,1,0.3575333740445785,,,,,,,,,,,,,,,,,,14,001,22,w,Psychologie,2023-01-11_10h30.35.751,00_bat_bachelor,2022.2.4,60.16747716074206,
,,,,,,,,,,,,1,0,1,0,51,0,51,0,,,,,,,51,,,0.2,959.9637803460646,X,d,go,d,1,0.6026554322452284,,,,,,,,,,,,,,,,,,14,001,22,w,Psychologie,2023-01-11_10h30.35.751,00_bat_bachelor,2022.2.4,60.16747716074206,
,,,,,,,,,,,,1,0,1,0,52,0,52,0,,,,,,,52,,,0.2,960.881134487805,Y,l,go,l,1,0.5332556410285179,,,,,,,,,,,,,,,,,,14,001,22,w,Psychologie,2023-01-11_10h30.35.751,00_bat_bachelor,2022.2.4,60.16747716074206,
,,,,,,,,,,,,1,0,1,0,53,0,53,0,,,,,,,53,,,0.2,961.7150994982221,X,d,go,d,1,0.5480478906247299,,,,,,,,,,,,,,,,,,14,001,22,w,Psychologie,2023-01-11_10h30.35.751,00_bat_bachelor,2022.2.4,60.16747716074206,
,,,,,,,,,,,,1,0,1,0,54,0,54,0,,,,,,,54,,,0.2,962.5656836682174,Y,l,go,l,1,0.5606500785506796,,,,,,,,,,,,,,,,,,14,001,22,w,Psychologie,2023-01-11_10h30.35.751,00_bat_bachelor,2022.2.4,60.16747716074206,
,,,,,,,,,,,,1,0,1,0,55,0,55,0,,,,,,,55,,,0.2,963.4330101493397,Y,None,nogo,None,1,,,,,,,,,,,,,,,,,,,14,001,22,w,Psychologie,2023-01-11_10h30.35.751,00_bat_bachelor,2022.2.4,60.16747716074206,
,,,,,,,,,,,,1,0,1,0,56,0,56,0,,,,,,,56,,,0.2,964.4338251800218,X,d,go,d,1,0.6280236869934015,,,,,,,,,,,,,,,,,,14,001,22,w,Psychologie,2023-01-11_10h30.35.751,00_bat_bachelor,2022.2.4,60.16747716074206,
,,,,,,,,,,,,1,0,1,0,57,0,57,0,,,,,,,57,,,0.2,965.3678586026072,Y,l,go,l,1,0.6218942294653971,,,,,,,,,,,,,,,,,,14,001,22,w,Psychologie,2023-01-11_10h30.35.751,00_bat_bachelor,2022.2.4,60.16747716074206,
,,,,,,,,,,,,1,0,1,0,58,0,58,0,,,,,,,58,,,0.2,966.3017019644612,Y,None,nogo,None,1,,,,,,,,,,,,,,,,,,,14,001,22,w,Psychologie,2023-01-11_10h30.35.751,00_bat_bachelor,2022.2.4,60.16747716074206,
,,,,,,,,,,,,1,0,1,0,59,0,59,0,,,,,,,59,,,0.2,967.3024302072299,X,d,go,d,1,0.3679881669522729,,,,,,,,,,,,,,,,,,14,001,22,w,Psychologie,2023-01-11_10h30.35.751,00_bat_bachelor,2022.2.4,60.16747716074206,
,,,,,,,,,,,,1,0,1,0,60,0,60,0,,,,,,,60,,,0.2,967.9861890842149,Y,l,go,l,1,0.4676803365291562,,,,,,,,,,,,,,,,,,14,001,22,w,Psychologie,2023-01-11_10h30.35.751,00_bat_bachelor,2022.2.4,60.16747716074206,
,,,,,,,,,,,,1,0,1,0,61,0,61,0,,,,,,,61,,,0.2,968.7704532220378,X,d,go,d,1,0.6280377475777641,,,,,,,,,,,,,,,,,,14,001,22,w,Psychologie,2023-01-11_10h30.35.751,00_bat_bachelor,2022.2.4,60.16747716074206,
,,,,,,,,,,,,1,0,1,0,62,0,62,0,,,,,,,62,,,0.2,969.704094886838,Y,l,go,l,1,0.47791355359368026,,,,,,,,,,,,,,,,,,14,001,22,w,Psychologie,2023-01-11_10h30.35.751,00_bat_bachelor,2022.2.4,60.16747716074206,
,,,,,,,,,,,,1,0,1,0,63,0,63,0,,,,,,,63,,,0.2,970.488392479223,Y,None,nogo,None,1,,,,,,,,,,,,,,,,,,,14,001,22,w,Psychologie,2023-01-11_10h30.35.751,00_bat_bachelor,2022.2.4,60.16747716074206,
,,,,,,,,,,,,1,0,1,0,64,0,64,0,,,,,,,64,,,0.2,971.4890717522649,X,d,go,d,1,0.005693203420378268,,,,,,,,,,,,,,,,,,14,001,22,w,Psychologie,2023-01-11_10h30.35.751,00_bat_bachelor,2022.2.4,60.16747716074206,
,,,,,,,,,,,,1,0,1,0,65,0,65,0,,,,,,,65,,,0.2,971.8060309362481,Y,l,go,None,0,,,,,,,,,,,,,,,,,,,14,001,22,w,Psychologie,2023-01-11_10h30.35.751,00_bat_bachelor,2022.2.4,60.16747716074206,
,,,,,,,,,,,,1,0,1,0,66,0,66,0,,,,,,,66,,,0.2,972.806874573027,X,d,go,None,0,,,,,,,,,,,,,,,,,,,14,001,22,w,Psychologie,2023-01-11_10h30.35.751,00_bat_bachelor,2022.2.4,60.16747716074206,
,,,,,,,,,,,,1,0,1,0,67,0,67,0,,,,,,,67,,,0.2,973.8074277854175,Y,l,go,None,0,,,,,,,,,,,,,,,,,,,14,001,22,w,Psychologie,2023-01-11_10h30.35.751,00_bat_bachelor,2022.2.4,60.16747716074206,
,,,,,,,,,,,,1,0,1,0,68,0,68,0,,,,,,,68,,,0.2,974.8084231798421,X,d,go,d,1,0.20548336091451347,,,,,,,,,,,,,,,,,,14,001,22,w,Psychologie,2023-01-11_10h30.35.751,00_bat_bachelor,2022.2.4,60.16747716074206,
,,,,,,,,,,,,1,0,1,0,69,0,69,0,,,,,,,69,,,0.2,975.3253708244301,X,None,nogo,l,0,0.4562723309791181,,,,,,,,,,,,,,,,,,14,001,22,w,Psychologie,2023-01-11_10h30.35.751,00_bat_bachelor,2022.2.4,60.16747716074206,
,,,,,,,,,,,,1,0,1,0,70,0,70,0,,,,,,,70,,,0.2,976.092308408377,Y,l,go,None,0,,,,,,,,,,,,,,,,,,,14,001,22,w,Psychologie,2023-01-11_10h30.35.751,00_bat_bachelor,2022.2.4,60.16747716074206,
,,,,,,,,,,,,1,0,1,0,71,0,71,0,,,,,,,71,,,0.2,977.0933134997904,X,d,go,d,1,0.3692638039647136,,,,,,,,,,,,,,,,,,14,001,22,w,Psychologie,2023-01-11_10h30.35.751,00_bat_bachelor,2022.2.4,60.16747716074206,
,,,,,,,,,,,,1,0,1,0,72,0,72,0,,,,,,,72,,,0.2,977.7774621951394,X,None,nogo,d,0,0.4368323215749115,,,,,,,,,,,,,,,,,,14,001,22,w,Psychologie,2023-01-11_10h30.35.751,00_bat_bachelor,2022.2.4,60.16747716074206,
,,,,,,,,,,,,1,0,1,0,73,0,73,0,,,,,,,73,,,0.2,978.527849952894,Y,l,go,None,0,,,,,,,,,,,,,,,,,,,14,001,22,w,Psychologie,2023-01-11_10h30.35.751,00_bat_bachelor,2022.2.4,60.16747716074206,
,,,,,,,,,,,,1,0,1,0,74,0,74,0,,,,,,,74,,,0.2,979.5285505593056,X,d,go,d,1,0.39781945414142683,,,,,,,,,,,,,,,,,,14,001,22,w,Psychologie,2023-01-11_10h30.35.751,00_bat_bachelor,2022.2.4,60.16747716074206,
,,,,,,,,,,,,1,0,1,0,75,0,75,0,,,,,,,75,,,0.2,980.2290648383205,Y,l,go,l,1,0.529137820849428,,,,,,,,,,,,,,,,,,14,001,22,w,Psychologie,2023-01-11_10h30.35.751,00_bat_bachelor,2022.2.4,60.16747716074206,
,,,,,,,,,,,,1,0,1,0,76,0,76,0,,,,,,,76,,,0.2,981.0631748184969,Y,None,nogo,None,1,,,,,,,,,,,,,,,,,,,14,001,22,w,Psychologie,2023-01-11_10h30.35.751,00_bat_bachelor,2022.2.4,60.16747716074206,
,,,,,,,,,,,,1,0,1,0,77,0,77,0,,,,,,,77,,,0.2,982.0639132430952,X,d,go,d,1,0.3745903519738931,,,,,,,,,,,,,,,,,,14,001,22,w,Psychologie,2023-01-11_10h30.35.751,00_bat_bachelor,2022.2.4,60.16747716074206,
,,,,,,,,,,,,1,0,1,0,78,0,78,0,,,,,,,78,,,0.2,982.7478292110609,Y,l,go,l,1,0.522449332755059,,,,,,,,,,,,,,,,,,14,001,22,w,Psychologie,2023-01-11_10h30.35.751,00_bat_bachelor,2022.2.4,60.16747716074206,
,,,,,,,,,,,,1,0,1,0,79,0,79,0,,,,,,,79,,,0.2,983.581673009292,X,d,go,d,1,0.3762528982479125,,,,,,,,,,,,,,,,,,14,001,22,w,Psychologie,2023-01-11_10h30.35.751,00_bat_bachelor,2022.2.4,60.16747716074206,
,,,,,,,,,,,,1,0,1,0,80,0,80,0,,,,,,,80,,,0.2,984.2656427954498,Y,l,go,l,1,0.47655646203202195,,,,,,,,,,,,,,,,,,14,001,22,w,Psychologie,2023-01-11_10h30.35.751,00_bat_bachelor,2022.2.4,60.16747716074206,
,,,,,,,,,,,,1,0,1,0,81,0,81,0,,,,,,,81,,,0.2,985.0495297209709,X,d,go,d,1,0.3810601732984651,,,,,,,,,,,,,,,,,,14,001,22,w,Psychologie,2023-01-11_10h30.35.751,00_bat_bachelor,2022.2.4,60.16747716074206,
,,,,,,,,,,,,1,0,1,0,82,0,82,0,,,,,,,82,,,0.2,985.7331121130264,X,None,nogo,None,1,,,,,,,,,,,,,,,,,,,14,001,22,w,Psychologie,2023-01-11_10h30.35.751,00_bat_bachelor,2022.2.4,60.16747716074206,
,,,,,,,,,,,,1,0,1,0,83,0,83,0,,,,,,,83,,,0.2,986.734002780111,Y,l,go,l,1,0.6638123103766702,,,,,,,,,,,,,,,,,,14,001,22,w,Psychologie,2023-01-11_10h30.35.751,00_bat_bachelor,2022.2.4,60.16747716074206,
,,,,,,,,,,,,1,0,1,0,84,0,84,0,,,,,,,84,,,0.2,987.7015339158825,X,d,go,d,1,0.4168570391484536,,,,,,,,,,,,,,,,,,14,001,22,w,Psychologie,2023-01-11_10h30.35.751,00_bat_bachelor,2022.2.4,60.16747716074206,
,,,,,,,,,,,,1,0,1,0,85,0,85,0,,,,,,,85,,,0.2,988.4183827482921,X,None,nogo,d,0,0.41972152539528906,,,,,,,,,,,,,,,,,,14,001,22,w,Psychologie,2023-01-11_10h30.35.751,00_bat_bachelor,2022.2.4,60.16747716074206,
,,,,,,,,,,,,1,0,1,0,86,0,86,0,,,,,,,86,,,0.2,989.1525760739751,Y,l,go,l,1,0.5657691113592591,,,,,,,,,,,,,,,,,,14,001,22,w,Psychologie,2023-01-11_10h30.35.751,00_bat_bachelor,2022.2.4,60.16747716074206,
,,,,,,,,,,,,1,0,1,0,87,0,87,0,,,,,,,87,,,0.2,990.0199141914782,X,d,go,d,1,0.4825273740279954,,,,,,,,,,,,,,,,,,14,001,22,w,Psychologie,2023-01-11_10h30.35.751,00_bat_bachelor,2022.2.4,60.16747716074206,
,,,,,,,,,,,,1,0,1,0,88,0,88,0,,,,,,,88,,,0.2,990.803883541259,X,None,nogo,None,1,,,,,,,,,,,,,,,,,,,14,001,22,w,Psychologie,2023-01-11_10h30.35.751,00_bat_bachelor,2022.2.4,60.16747716074206,
,,,,,,,,,,,,1,0,1,0,89,0,89,0,,,,,,,89,,,0.2,991.8047111780324,Y,l,go,l,1,0.5695034161908552,,,,,,,,,,,,,,,,,,14,001,22,w,Psychologie,2023-01-11_10h30.35.751,00_bat_bachelor,2022.2.4,60.16747716074206,
,,,,,,,,,,,,1,0,1,0,90,0,90,0,,,,,,,90,,,0.2,992.6886044550629,X,d,go,None,0,,,,,,,,,,,,,,,,,,,14,001,22,w,Psychologie,2023-01-11_10h30.35.751,00_bat_bachelor,2022.2.4,60.16747716074206,
,,,,,,,,,,,,1,0,1,0,91,0,91,0,,,,,,,91,,,0.2,993.689403000928,Y,l,go,l,1,0.6530607900349423,,,,,,,,,,,,,,,,,,14,001,22,w,Psychologie,2023-01-11_10h30.35.751,00_bat_bachelor,2022.2.4,60.16747716074206,
,,,,,,,,,,,,1,0,1,0,92,0,92,0,,,,,,,92,,,0.2,994.656858500297,Y,None,nogo,None,1,,,,,995.4571308883023,,,,,,,,,,,,,,14,001,22,w,Psychologie,2023-01-11_10h30.35.751,00_bat_bachelor,2022.2.4,60.16747716074206,
,,,,,,,,,,,,1,0,1,0,93,0,93,0,,,,,,,93,,,0.2,995.6574044399604,X,d,go,d,1,0.6051126455713529,,,,,,,,,,,,,,,,,,14,001,22,w,Psychologie,2023-01-11_10h30.35.751,00_bat_bachelor,2022.2.4,60.16747716074206,
,,,,,,,,,,,,1,0,1,0,94,0,94,0,,,,,,,94,,,0.2,996.574672278628,Y,l,go,l,1,0.39153532989439555,,,,,,,,,,,,,,,,,,14,001,22,w,Psychologie,2023-01-11_10h30.35.751,00_bat_bachelor,2022.2.4,60.16747716074206,
,,,,,,,,,,,,1,0,1,0,95,0,95,0,,,,,,,95,,,0.2,997.2754275274638,Y,None,nogo,None,1,,,,,998.0761605217704,,,,,,,,,,,,,,14,001,22,w,Psychologie,2023-01-11_10h30.35.751,00_bat_bachelor,2022.2.4,60.16747716074206,
,,,,,,,,,,,,1,0,1,0,96,0,96,0,,,,,,,96,,,0.2,998.2762154066586,X,d,go,None,0,,,,,,,,,,,,,,,,,,,14,001,22,w,Psychologie,2023-01-11_10h30.35.751,00_bat_bachelor,2022.2.4,60.16747716074206,
,,,,,,,,,,,,1,0,1,0,97,0,97,0,,,,,,,97,,,0.2,999.2767763766169,Y,l,go,l,1,0.6170534998527728,,,,,,,,,,,,,,,,,,14,001,22,w,Psychologie,2023-01-11_10h30.35.751,00_bat_bachelor,2022.2.4,60.16747716074206,
,,,,,,,,,,,,1,0,1,0,98,0,98,0,,,,,,,98,,,0.2,1000.1943099123891,X,d,go,d,1,0.5635567466379143,,,,,,,,,,,,,,,,,,14,001,22,w,Psychologie,2023-01-11_10h30.35.751,00_bat_bachelor,2022.2.4,60.16747716074206,
,,,,,,,,,,,,1,0,1,0,99,0,99,0,,,,,,,99,,,0.2,1001.0615321510413,X,None,nogo,d,0,0.5920871847192757,,,,,,,,,,,,,,,,,,14,001,22,w,Psychologie,2023-01-11_10h30.35.751,00_bat_bachelor,2022.2.4,60.16747716074206,
,,,,,,,,,,,,1,0,1,0,100,0,100,0,,,,,,,100,,,0.2,1001.9621168301092,Y,l,go,l,1,0.5565283795876894,,,,,,,,,,,,,,,,,,14,001,22,w,Psychologie,2023-01-11_10h30.35.751,00_bat_bachelor,2022.2.4,60.16747716074206,
,,,,,,,,,,,,1,0,1,0,101,0,101,0,,,,,,,101,,,0.2,1002.8296294931497,X,d,go,d,1,0.5850976055662613,,,,,,,,,,,,,,,,,,14,001,22,w,Psychologie,2023-01-11_10h30.35.751,00_bat_bachelor,2022.2.4,60.16747716074206,
,,,,,,,,,,,,1,0,1,0,102,0,102,0,,,,,,,102,,,0.2,1003.730461445055,Y,l,go,l,1,0.5954656105895992,,,,,,,,,,,,,,,,,,14,001,22,w,Psychologie,2023-01-11_10h30.35.751,00_bat_bachelor,2022.2.4,60.16747716074206,
,,,,,,,,,,,,1,0,1,0,103,0,103,0,,,,,,,103,,,0.2,1004.6310606696061,X,d,go,None,0,,,,,1005.4317907548102,,,,,,,,,,,,,,14,001,22,w,Psychologie,2023-01-11_10h30.35.751,00_bat_bachelor,2022.2.4,60.16747716074206,
,,,,,,,,,,,,1,0,1,0,104,0,104,0,,,,,,,104,,,0.2,1005.6315581243834,X,None,nogo,None,1,,,,,1006.4321989974123,,,,,,,,,,,,,,14,001,22,w,Psychologie,2023-01-11_10h30.35.751,00_bat_bachelor,2022.2.4,60.16747716074206,
,,,,,,,,,,,,1,0,1,0,105,0,105,0,,,,,,,105,,,0.2,1006.6326902461587,Y,l,go,l,1,0.4140371589746792,,,,,,,,,,,,,,,,,,14,001,22,w,Psychologie,2023-01-11_10h30.35.751,00_bat_bachelor,2022.2.4,60.16747716074206,
,,,,,,,,,,,,1,0,1,0,106,0,106,0,,,,,,,106,,,0.2,1007.3498741090298,X,d,go,d,1,0.6572300041734707,,,,,,,,,,,,,,,,,,14,001,22,w,Psychologie,2023-01-11_10h30.35.751,00_bat_bachelor,2022.2.4,60.16747716074206,
,,,,,,,,,,,,1,0,1,0,107,0,107,0,,,,,,,107,,,0.2,1008.3171245174017,Y,l,go,l,1,0.47298846030025743,,,,,,,,,,,,,,,,,,14,001,22,w,Psychologie,2023-01-11_10h30.35.751,00_bat_bachelor,2022.2.4,60.16747716074206,
,,,,,,,,,,,,1,0,1,0,108,0,108,0,,,,,,,108,,,0.2,1009.1011520490283,X,d,go,d,1,0.5533691053278744,,,,,,,,,,,,,,,,,,14,001,22,w,Psychologie,2023-01-11_10h30.35.751,00_bat_bachelor,2022.2.4,60.16747716074206,
,,,,,,,,,,,,1,0,1,0,109,0,109,0,,,,,,,109,,,0.2,1009.9685231362528,Y,l,go,l,1,0.5815819675044622,,,,,,,,,,,,,,,,,,14,001,22,w,Psychologie,2023-01-11_10h30.35.751,00_bat_bachelor,2022.2.4,60.16747716074206,
,,,,,,,,,,,,1,0,1,0,110,0,110,0,,,,,,,110,,,0.2,1010.852573504264,Y,None,nogo,l,0,0.6419756937539205,,,,,,,,,,,,,,,,,,14,001,22,w,Psychologie,2023-01-11_10h30.35.751,00_bat_bachelor,2022.2.4,60.16747716074206,
,,,,,,,,,,,,1,0,1,0,111,0,111,0,,,,,,,111,,,0.2,1011.8032983288576,X,d,go,d,1,0.49132495405501686,,,,,,,,,,,,,,,,,,14,001,22,w,Psychologie,2023-01-11_10h30.35.751,00_bat_bachelor,2022.2.4,60.16747716074206,
,,,,,,,,,,,,1,0,1,0,112,0,112,0,,,,,,,112,,,0.2,1012.6038611412514,Y,l,go,l,1,0.5704367499856744,,,,,,,,,,,,,,,,,,14,001,22,w,Psychologie,2023-01-11_10h30.35.751,00_bat_bachelor,2022.2.4,60.16747716074206,
,,,,,,,,,,,,1,0,1,0,113,0,113,0,,,,,,,113,,,0.2,1013.4878077516623,Y,None,nogo,None,1,,,,,,,,,,,,,,,,,,,14,001,22,w,Psychologie,2023-01-11_10h30.35.751,00_bat_bachelor,2022.2.4,60.16747716074206,
,,,,,,,,,,,,1,0,1,0,114,0,114,0,,,,,,,114,,,0.2,1014.488498661085,X,d,go,d,1,0.38187084035598673,,,,,,,,,,,,,,,,,,14,001,22,w,Psychologie,2023-01-11_10h30.35.751,00_bat_bachelor,2022.2.4,60.16747716074206,
,,,,,,,,,,,,1,0,1,0,115,0,115,0,,,,,,,115,,,0.2,1015.1725508715317,Y,l,go,None,0,,,,,,,,,,,,,,,,,,,14,001,22,w,Psychologie,2023-01-11_10h30.35.751,00_bat_bachelor,2022.2.4,60.16747716074206,
,,,,,,,,,,,,1,0,1,0,116,0,116,0,,,,,,,116,,,0.2,1016.173296568857,X,d,go,d,1,0.5372377035673708,,,,,,,,,,,,,,,,,,14,001,22,w,Psychologie,2023-01-11_10h30.35.751,00_bat_bachelor,2022.2.4,60.16747716074206,
,,,,,,,,,,,,1,0,1,0,117,0,117,0,,,,,,,117,,,0.2,1017.0239607388794,Y,l,go,l,1,0.5505681342910975,,,,,,,,,,,,,,,,,,14,001,22,w,Psychologie,2023-01-11_10h30.35.751,00_bat_bachelor,2022.2.4,60.16747716074206,
,,,,,,,,,,,,1,0,1,0,118,0,118,0,,,,,,,118,,,0.2,1017.8744251512398,X,d,go,d,1,0.4038180024945177,,,,,,,,,,,,,,,,,,14,001,22,w,Psychologie,2023-01-11_10h30.35.751,00_bat_bachelor,2022.2.4,60.16747716074206,
,,,,,,,,,,,,1,0,1,0,119,0,119,0,,,,,,,119,,,0.2,1018.591631317162,X,None,nogo,None,1,,,,,1019.3924137660069,,,,,,,,,,,,,,14,001,22,w,Psychologie,2023-01-11_10h30.35.751,00_bat_bachelor,2022.2.4,60.16747716074206,
,,,,,,,,,,,,1,0,1,0,120,0,120,0,,,,,,,120,,,0.2,1019.5924836811901,Y,l,go,l,1,0.41362940121325664,,,,,,,,,,,,,,,,,,14,001,22,w,Psychologie,2023-01-11_10h30.35.751,00_bat_bachelor,2022.2.4,60.16747716074206,
,,,,,,,,,,,,1,0,1,0,121,0,121,0,,,,,,,121,,,0.2,1020.3097664532252,X,d,go,d,1,0.44841196353081614,,,,,,,,,,,,,,,,,,14,001,22,w,Psychologie,2023-01-11_10h30.35.751,00_bat_bachelor,2022.2.4,60.16747716074206,
,,,,,,,,,,,,1,0,1,0,122,0,122,0,,,,,,,122,,,0.2,1021.060017483629,Y,l,go,l,1,0.3702242892468348,,,,,,,,,,,,,,,,,,14,001,22,w,Psychologie,2023-01-11_10h30.35.751,00_bat_bachelor,2022.2.4,60.16747716074206,
,,,,,,,,,,,,1,0,1,0,123,0,123,0,,,,,,,123,,,0.2,1021.7441293304728,X,d,go,None,0,,,,,,,,,,,,,,,,,,,14,001,22,w,Psychologie,2023-01-11_10h30.35.751,00_bat_bachelor,2022.2.4,60.16747716074206,
,,,,,,,,,,,,1,0,1,0,124,0,124,0,,,,,,,124,,,0.2,1022.7446330882958,X,None,nogo,None,1,,,,,,,,,,,,,,,,,,,14,001,22,w,Psychologie,2023-01-11_10h30.35.751,00_bat_bachelor,2022.2.4,60.16747716074206,
,,,,,,,,,,,,1,0,1,0,125,0,125,0,,,,,,,125,,,0.2,1023.745724482782,Y,l,go,l,1,0.3086591685132589,,,,,,,,,,,,,,,,,,14,001,22,w,Psychologie,2023-01-11_10h30.35.751,00_bat_bachelor,2022.2.4,60.16747716074206,
,,,,,,,,,,,,1,0,1,0,126,0,126,0,,,,,,,126,,,0.2,1024.362515084853,X,d,go,d,1,0.4595760901574977,,,,,,,,,,,,,,,,,,14,001,22,w,Psychologie,2023-01-11_10h30.35.751,00_bat_bachelor,2022.2.4,60.16747716074206,
,,,,,,,,,,,,1,0,1,0,127,0,127,0,,,,,,,127,,,0.2,1025.1300679418491,X,None,nogo,None,1,,,,,1025.930380572303,,,,,,,,,,,,,,14,001,22,w,Psychologie,2023-01-11_10h30.35.751,00_bat_bachelor,2022.2.4,60.16747716074206,
,,,,,,,,,,,,1,0,1,0,128,0,128,0,,,,,,,128,,,0.2,1026.1307898816012,Y,l,go,l,1,0.45176178333349526,,,,,,,,,,,,,,,,,,14,001,22,w,Psychologie,2023-01-11_10h30.35.751,00_bat_bachelor,2022.2.4,60.16747716074206,
,,,,,,,,,,,,1,0,1,0,129,0,129,0,,,,,,,129,,,0.2,1026.898166253639,X,d,go,d,1,0.48437513250974007,,,,,,,,,,,,,,,,,,14,001,22,w,Psychologie,2023-01-11_10h30.35.751,00_bat_bachelor,2022.2.4,60.16747716074206,
,,,,,,,,,,,,1,0,1,0,130,0,130,0,,,,,,,130,,,0.2,1027.698553065973,Y,l,go,l,1,0.4833957380615175,,,,,,,,,,,,,,,,,,14,001,22,w,Psychologie,2023-01-11_10h30.35.751,00_bat_bachelor,2022.2.4,60.16747716074206,
,,,,,,,,,,,,1,0,1,0,131,0,131,0,,,,,,,131,,,0.2,1028.4823464156652,X,d,go,d,1,0.4353554723493289,,,,,,,,,,,,,,,,,,14,001,22,w,Psychologie,2023-01-11_10h30.35.751,00_bat_bachelor,2022.2.4,60.16747716074206,
,,,,,,,,,,,,1,0,1,0,132,0,132,0,,,,,,,132,,,0.2,1029.23332956768,Y,l,go,l,1,0.37280707841273397,,,,,,,,,,,,,,,,,,14,001,22,w,Psychologie,2023-01-11_10h30.35.751,00_bat_bachelor,2022.2.4,60.16747716074206,
,,,,,,,,,,,,1,0,1,0,133,0,133,0,,,,,,,133,,,0.2,1029.9167975354067,X,d,go,None,0,,,,,,,,,,,,,,,,,,,14,001,22,w,Psychologie,2023-01-11_10h30.35.751,00_bat_bachelor,2022.2.4,60.16747716074206,
,,,,,,,,,,,,1,0,1,0,134,0,134,0,,,,,,,134,,,0.2,1030.9177648086043,Y,l,go,None,0,,,,,,,,,,,,,,,,,,,14,001,22,w,Psychologie,2023-01-11_10h30.35.751,00_bat_bachelor,2022.2.4,60.16747716074206,
,,,,,,,,,,,,1,0,1,0,135,0,135,0,,,,,,,135,,,0.2,1031.91858420294,Y,None,nogo,d,0,0.2317238584801089,,,,,,,,,,,,,,,,,,14,001,22,w,Psychologie,2023-01-11_10h30.35.751,00_bat_bachelor,2022.2.4,60.16747716074206,
,,,,,,,,,,,,1,0,1,0,136,0,136,0,,,,,,,136,,,0.2,1032.452298885968,X,d,go,None,0,,,,,,,,,,,,,,,,,,,14,001,22,w,Psychologie,2023-01-11_10h30.35.751,00_bat_bachelor,2022.2.4,60.16747716074206,
,,,,,,,,,,,,1,0,1,0,137,0,137,0,,,,,,,137,,,0.2,1033.4530887045257,Y,l,go,None,0,,,,,,,,,,,,,,,,,,,14,001,22,w,Psychologie,2023-01-11_10h30.35.751,00_bat_bachelor,2022.2.4,60.16747716074206,
,,,,,,,,,,,,1,0,1,0,138,0,138,0,,,,,,,138,,,0.2,1034.4538188866863,X,d,go,d,1,0.2239919759449549,,,,,,,,,,,,,,,,,,14,001,22,w,Psychologie,2023-01-11_10h30.35.751,00_bat_bachelor,2022.2.4,60.16747716074206,
,,,,,,,,,,,,1,0,1,0,139,0,139,0,,,,,,,139,,,0.2,1034.9875796303386,Y,l,go,None,0,,,,,,,,,,,,,,,,,,,14,001,22,w,Psychologie,2023-01-11_10h30.35.751,00_bat_bachelor,2022.2.4,60.16747716074206,
,,,,,,,,,,,,1,0,1,0,140,0,140,0,,,,,,,140,,,0.2,1035.9883655701124,X,d,go,None,0,,,,,1036.7890379583114,,,,,,,,,,,,,,14,001,22,w,Psychologie,2023-01-11_10h30.35.751,00_bat_bachelor,2022.2.4,60.16747716074206,
,,,,,,,,,,,,1,0,1,0,141,0,141,0,,,,,,,141,,,0.2,1036.9887791460787,Y,l,go,l,1,0.4086519442789722,,,,,,,,,,,,,,,,,,14,001,22,w,Psychologie,2023-01-11_10h30.35.751,00_bat_bachelor,2022.2.4,60.16747716074206,
,,,,,,,,,,,,1,0,1,0,142,0,142,0,,,,,,,142,,,0.2,1037.7063048272976,Y,None,nogo,d,0,0.4443348706699908,,,,,,,,,,,,,,,,,,14,001,22,w,Psychologie,2023-01-11_10h30.35.751,00_bat_bachelor,2022.2.4,60.16747716074206,
,,,,,,,,,,,,1,0,1,0,143,0,143,0,,,,,,,143,,,0.2,1038.4565990092524,X,d,go,None,0,,,,,1039.2572558823158,,,,,,,,,,,,,,14,001,22,w,Psychologie,2023-01-11_10h30.35.751,00_bat_bachelor,2022.2.4,60.16747716074206,
,,,,,,,,,,,,1,0,1,0,144,0,144,0,,,,,,,144,,,0.2,1039.4577456764819,Y,l,go,None,0,,,,,1040.258167882741,,,,,,,,,,,,,,14,001,22,w,Psychologie,2023-01-11_10h30.35.751,00_bat_bachelor,2022.2.4,60.16747716074206,
,,,,,,,,,,,,1,0,1,0,145,0,145,0,,,,,,,145,,,0.2,1040.458445313183,X,d,go,d,1,0.5080648409493733,,,,,,,,,,,,,,,,,,14,001,22,w,Psychologie,2023-01-11_10h30.35.751,00_bat_bachelor,2022.2.4,60.16747716074206,
,,,,,,,,,,,,1,0,1,0,146,0,146,0,,,,,,,146,,,0.2,1041.2757998913003,Y,l,go,l,1,0.21854033693671227,,,,,,,,,,,,,,,,,,14,001,22,w,Psychologie,2023-01-11_10h30.35.751,00_bat_bachelor,2022.2.4,60.16747716074206,
,,,,,,,,,,,,1,0,1,0,147,0,147,0,,,,,,,147,,,0.2,1041.8091519074515,Y,None,nogo,None,1,,,,,,,,,,,,,,,,,,,14,001,22,w,Psychologie,2023-01-11_10h30.35.751,00_bat_bachelor,2022.2.4,60.16747716074206,
,,,,,,,,,,,,1,0,1,0,148,0,148,0,,,,,,,148,,,0.2,1042.8102908171131,X,d,go,d,1,0.22004482251941226,,,,,,,,,,,,,,,,,,14,001,22,w,Psychologie,2023-01-11_10h30.35.751,00_bat_bachelor,2022.2.4,60.16747716074206,
,,,,,,,,,,,,1,0,1,0,149,0,149,0,,,,,,,149,,,0.2,1043.3439671970846,Y,l,go,l,1,0.3904870869591832,,,,,,,,,,,,,,,,,,14,001,22,w,Psychologie,2023-01-11_10h30.35.751,00_bat_bachelor,2022.2.4,60.16747716074206,
,,,,,,,,,,,,1,0,1,0,150,0,150,0,,,,,,,150,,,0.2,1044.0444892336964,X,d,go,d,1,0.4896274986676872,,,,,,,,,,,,,,,,,,14,001,22,w,Psychologie,2023-01-11_10h30.35.751,00_bat_bachelor,2022.2.4,60.16747716074206,
,,,,,,,,,,,,1,0,1,0,151,0,151,0,,,,,,,151,,,0.2,1044.8448256217234,Y,l,go,l,1,0.37695932283531874,,,,,,,,,,,,,,,,,,14,001,22,w,Psychologie,2023-01-11_10h30.35.751,00_bat_bachelor,2022.2.4,60.16747716074206,
,,,,,,,,,,,,1,0,1,0,152,0,152,0,,,,,,,152,,,0.2,1045.5290286201343,Y,None,nogo,None,1,,,,,,,,,,,,,,,,,,,14,001,22,w,Psychologie,2023-01-11_10h30.35.751,00_bat_bachelor,2022.2.4,60.16747716074206,
,,,,,,,,,,,,1,0,1,0,153,0,153,0,,,,,,,153,,,0.2,1046.5297670447326,X,d,go,d,1,0.581191664270591,,,,,,,,,,,,,,,,,,14,001,22,w,Psychologie,2023-01-11_10h30.35.751,00_bat_bachelor,2022.2.4,60.16747716074206,
,,,,,,,,,,,,1,0,1,0,154,0,154,0,,,,,,,154,,,0.2,1047.413527958066,Y,l,go,l,1,0.4648473654233385,,,,,,,,,,,,,,,,,,14,001,22,w,Psychologie,2023-01-11_10h30.35.751,00_bat_bachelor,2022.2.4,60.16747716074206,
,,,,,,,,,,,,1,0,1,0,155,0,155,0,,,,,,,155,,,0.2,1048.1810536635458,Y,None,nogo,None,1,,,,,1048.981669809291,,,,,,,,,,,,,,14,001,22,w,Psychologie,2023-01-11_10h30.35.751,00_bat_bachelor,2022.2.4,60.16747716074206,
,,,,,,,,,,,,1,0,1,0,156,0,156,0,,,,,,,156,,,0.2,1049.1817246941791,X,d,go,d,1,0.42526528565213084,,,,,,,,,,,,,,,,,,14,001,22,w,Psychologie,2023-01-11_10h30.35.751,00_bat_bachelor,2022.2.4,60.16747716074206,
,,,,,,,,,,,,1,0,1,0,157,0,157,0,,,,,,,157,,,0.2,1049.915649413655,Y,l,go,l,1,0.5063610825454816,,,,,,,,,,,,,,,,,,14,001,22,w,Psychologie,2023-01-11_10h30.35.751,00_bat_bachelor,2022.2.4,60.16747716074206,
,,,,,,,,,,,,1,0,1,0,158,0,158,0,,,,,,,158,,,0.2,1050.732903628057,X,d,go,d,1,0.4249704976391513,,,,,,,,,,,,,,,,,,14,001,22,w,Psychologie,2023-01-11_10h30.35.751,00_bat_bachelor,2022.2.4,60.16747716074206,
,,,,,,,,,,,,1,0,1,0,159,0,159,0,,,,,,,159,,,0.2,1051.4667997414654,Y,l,go,l,1,0.2675173303869087,,,,,,,,,,,,,,,,,,14,001,22,w,Psychologie,2023-01-11_10h30.35.751,00_bat_bachelor,2022.2.4,60.16747716074206,
,,,,,,,,,,,,1,0,1,0,160,0,160,0,,,,,,,160,,,0.2,1052.050305963785,Y,None,nogo,d,0,0.3713147140224464,,,,,,,,,,,,,,,,,,14,001,22,w,Psychologie,2023-01-11_10h30.35.751,00_bat_bachelor,2022.2.4,60.16747716074206,
,,,,,,,,,,,,1,0,1,0,161,0,161,0,,,,,,,161,,,0.2,1052.7345322349283,X,d,go,None,0,,,,,,,,,,,,,,,,,,,14,001,22,w,Psychologie,2023-01-11_10h30.35.751,00_bat_bachelor,2022.2.4,60.16747716074206,
,,,,,,,,,,,,1,0,1,0,162,0,162,0,,,,,,,162,,,0.2,1053.734934174514,Y,l,go,None,0,,,,,,,,,,,,,,,,,,,14,001,22,w,Psychologie,2023-01-11_10h30.35.751,00_bat_bachelor,2022.2.4,60.16747716074206,
,,,,,,,,,,,,1,0,1,0,163,0,163,0,,,,,,,163,,,0.2,1054.7360585386923,X,d,go,None,0,,,,,,,,,,,,,,,,,,,14,001,22,w,Psychologie,2023-01-11_10h30.35.751,00_bat_bachelor,2022.2.4,60.16747716074206,
,,,,,,,,,,,,1,0,1,0,164,0,164,0,,,,,,,164,,,0.2,1055.7367916299554,Y,l,go,None,0,,,,,1056.5371183210227,,,,,,,,,,,,,,14,001,22,w,Psychologie,2023-01-11_10h30.35.751,00_bat_bachelor,2022.2.4,60.16747716074206,
,,,,,,,,,,,,1,0,1,0,165,0,165,0,,,,,,,165,,,0.2,1056.7375431454857,X,d,go,None,0,,,,,,,,,,,,,,,,,,,14,001,22,w,Psychologie,2023-01-11_10h30.35.751,00_bat_bachelor,2022.2.4,60.16747716074206,
,,,,,,,,,,,,1,0,1,0,166,0,166,0,,,,,,,166,,,0.2,1057.738077933609,Y,l,go,None,0,,,,,,,,,,,,,,,,,,,14,001,22,w,Psychologie,2023-01-11_10h30.35.751,00_bat_bachelor,2022.2.4,60.16747716074206,
,,,,,,,,,,,,1,0,1,0,167,0,167,0,,,,,,,167,,,0.2,1058.7390839947038,X,d,go,None,0,,,,,,,,,,,,,,,,,,,14,001,22,w,Psychologie,2023-01-11_10h30.35.751,00_bat_bachelor,2022.2.4,60.16747716074206,
,,,,,,,,,,,,1,0,1,0,168,0,168,0,,,,,,,168,,,0.2,1059.739787025348,Y,l,go,l,1,0.4098437024222221,,,,,,,,,,,,,,,,,,14,001,22,w,Psychologie,2023-01-11_10h30.35.751,00_bat_bachelor,2022.2.4,60.16747716074206,
,,,,,,,,,,,,1,0,1,0,169,0,169,0,,,,,,,169,,,0.2,1060.4569844639918,X,d,go,d,1,0.4937637431139592,,,,,,,,,,,,,,,,,,14,001,22,w,Psychologie,2023-01-11_10h30.35.751,00_bat_bachelor,2022.2.4,60.16747716074206,
,,,,,,,,,,,,1,0,1,0,170,0,170,0,,,,,,,170,,,0.2,1061.257339276286,Y,l,go,l,1,0.47674458334222436,,,,,,,,,,,,,,,,,,14,001,22,w,Psychologie,2023-01-11_10h30.35.751,00_bat_bachelor,2022.2.4,60.16747716074206,
,,,,,,,,,,,,1,0,1,0,171,0,171,0,,,,,,,171,,,0.2,1062.04136438368,Y,None,nogo,None,1,,,,,,,,,,,,,,,,,,,14,001,22,w,Psychologie,2023-01-11_10h30.35.751,00_bat_bachelor,2022.2.4,60.16747716074206,
,,,,,,,,,,,,1,0,1,0,172,0,172,0,,,,,,,172,,,0.2,1063.042349596275,X,d,go,d,1,0.4835838593717199,,,,,,,,,,,,,,,,,,14,001,22,w,Psychologie,2023-01-11_10h30.35.751,00_bat_bachelor,2022.2.4,60.16747716074206,
,,,,,,,,,,,,1,0,1,0,173,0,173,0,,,,,,,173,,,0.2,1063.8262040369445,Y,l,go,l,1,0.6444978767831344,,,,,,,,,,,,,,,,,,14,001,22,w,Psychologie,2023-01-11_10h30.35.751,00_bat_bachelor,2022.2.4,60.16747716074206,
,,,,,,,,,,,,1,0,1,0,174,0,174,0,,,,,,,174,,,0.2,1064.7770166191622,X,d,go,None,0,,,,,,,,,,,,,,,,,,,14,001,22,w,Psychologie,2023-01-11_10h30.35.751,00_bat_bachelor,2022.2.4,60.16747716074206,
,,,,,,,,,,,,1,0,1,0,175,0,175,0,,,,,,,175,,,0.2,1065.7773914072022,X,None,nogo,d,0,0.5007635040674359,,,,,,,,,,,,,,,,,,14,001,22,w,Psychologie,2023-01-11_10h30.35.751,00_bat_bachelor,2022.2.4,60.16747716074206,
,,,,,,,,,,,,1,0,1,0,176,0,176,0,,,,,,,176,,,0.2,1066.594737742911,Y,l,go,l,1,0.4671276089793537,,,,,,,,,,,,,,,,,,14,001,22,w,Psychologie,2023-01-11_10h30.35.751,00_bat_bachelor,2022.2.4,60.16747716074206,
,,,,,,,,,,,,1,0,1,0,177,0,177,0,,,,,,,177,,,0.2,1067.3619701149,X,d,go,d,1,0.4518577833950985,,,,,,,,,,,,,,,,,,14,001,22,w,Psychologie,2023-01-11_10h30.35.751,00_bat_bachelor,2022.2.4,60.16747716074206,
,,,,,,,,,,,,1,0,1,0,178,0,178,0,,,,,,,178,,,0.2,1068.1295598204015,Y,l,go,l,1,0.5170287240762264,,,,,,,,,,,,,,,,,,14,001,22,w,Psychologie,2023-01-11_10h30.35.751,00_bat_bachelor,2022.2.4,60.16747716074206,
,,,,,,,,,,,,1,0,1,0,179,0,179,0,,,,,,,179,,,0.2,1068.946863489371,Y,None,nogo,None,1,,,,,,,,,,,,,,,,,,,14,001,22,w,Psychologie,2023-01-11_10h30.35.751,00_bat_bachelor,2022.2.4,60.16747716074206,
,,,,,,,,,,,,1,0,1,0,180,0,180,0,,,,,,,180,,,0.2,1069.9472765804967,X,d,go,d,1,0.2832705501350574,,,,,,,,,,,,,,,,,,14,001,22,w,Psychologie,2023-01-11_10h30.35.751,00_bat_bachelor,2022.2.4,60.16747716074206,
,,,,,,,,,,,,1,0,1,0,181,0,181,0,,,,,,,181,,,0.2,1070.5310155301995,Y,l,go,None,0,,,,,1071.331856645731,,,,,,,,,,,,,,14,001,22,w,Psychologie,2023-01-11_10h30.35.751,00_bat_bachelor,2022.2.4,60.16747716074206,
,,,,,,,,,,,,1,0,1,0,182,0,182,0,,,,,,,182,,,0.2,1071.5318378336087,Y,None,nogo,None,1,,,,,1072.3327085249475,,,,,,,,,,,,,,14,001,22,w,Psychologie,2023-01-11_10h30.35.751,00_bat_bachelor,2022.2.4,60.16747716074206,
,,,,,,,,,,,,1,0,1,0,183,0,183,0,,,,,,,183,,,0.2,1072.532805591647,X,d,go,d,1,0.27299030270660296,,,,,,,,,,,,,,,,,,14,001,22,w,Psychologie,2023-01-11_10h30.35.751,00_bat_bachelor,2022.2.4,60.16747716074206,
,,,,,,,,,,,,1,0,1,0,184,0,184,0,,,,,,,184,,,0.2,1073.1166526626039,Y,l,go,l,1,0.6175068333977833,,,,,,,,,,,,,,,,,,14,001,22,w,Psychologie,2023-01-11_10h30.35.751,00_bat_bachelor,2022.2.4,60.16747716074206,
,,,,,,,,,,,,1,0,1,0,185,0,185,0,,,,,,,185,,,0.2,1074.0340397740656,X,d,go,d,1,0.45172348027699627,,,,,,,,,,,,,,,,,,14,001,22,w,Psychologie,2023-01-11_10h30.35.751,00_bat_bachelor,2022.2.4,60.16747716074206,
,,,,,,,,,,,,1,0,1,0,186,0,186,0,,,,,,,186,,,0.2,1074.8009948125982,Y,l,go,l,1,0.3735135030001402,,,,,,,,,,,,,,,,,,14,001,22,w,Psychologie,2023-01-11_10h30.35.751,00_bat_bachelor,2022.2.4,60.16747716074206,
,,,,,,,,,,,,1,0,1,0,187,0,187,0,,,,,,,187,,,0.2,1075.485173568566,Y,None,nogo,None,1,,,,,,,,,,,,,,,,,,,14,001,22,w,Psychologie,2023-01-11_10h30.35.751,00_bat_bachelor,2022.2.4,60.16747716074206,
,,,,,,,,,,,,1,0,1,0,188,0,188,0,,,,,,,188,,,0.2,1076.4859498113801,X,d,go,d,1,0.28860970423556864,,,,,,,,,,,,,,,,,,14,001,22,w,Psychologie,2023-01-11_10h30.35.751,00_bat_bachelor,2022.2.4,60.16747716074206,
,,,,,,,,,,,,1,0,1,0,189,0,189,0,,,,,,,189,,,0.2,1077.086307920632,Y,l,go,l,1,0.5521472865657415,,,,,,,,,,,,,,,,,,14,001,22,w,Psychologie,2023-01-11_10h30.35.751,00_bat_bachelor,2022.2.4,60.16747716074206,
,,,,,,,,,,,,1,0,1,0,190,0,190,0,,,,,,,190,,,0.2,1077.9535679774708,X,d,go,d,1,0.4366694123891648,,,,,,,,,,,,,,,,,,14,001,22,w,Psychologie,2023-01-11_10h30.35.751,00_bat_bachelor,2022.2.4,60.16747716074206,
,,,,,,,,,,,,1,0,1,0,191,0,191,0,,,,,,,191,,,0.2,1078.7043314930052,Y,l,go,None,0,,,,,1079.5047289719805,,,,,,,,,,,,,,14,001,22,w,Psychologie,2023-01-11_10h30.35.751,00_bat_bachelor,2022.2.4,60.16747716074206,
,,,,,,,,,,,,1,0,1,0,192,0,192,0,,,,,,,192,,,0.2,1079.7050136751495,Y,None,nogo,d,0,0.46123524248832837,,,,,,,,,,,,,,,,,,14,001,22,w,Psychologie,2023-01-11_10h30.35.751,00_bat_bachelor,2022.2.4,60.16747716074206,
,,,,,,,,,,,,1,0,1,0,193,0,193,0,,,,,,,193,,,0.2,1080.4719536833582,X,d,go,None,0,,,,,,,,,,,,,,,,,,,14,001,22,w,Psychologie,2023-01-11_10h30.35.751,00_bat_bachelor,2022.2.4,60.16747716074206,
,,,,,,,,,,,,1,0,1,0,194,0,194,0,,,,,,,194,,,0.2,1081.472888956545,Y,l,go,l,1,0.3415353056625463,,,,,,,,,,,,,,,,,,14,001,22,w,Psychologie,2023-01-11_10h30.35.751,00_bat_bachelor,2022.2.4,60.16747716074206,
,,,,,,,,,,,,1,0,1,0,195,0,195,0,,,,,,,195,,,0.2,1082.1236019993084,X,d,go,d,1,0.33113190668518655,,,,,,,,,,,,,,,,,,14,001,22,w,Psychologie,2023-01-11_10h30.35.751,00_bat_bachelor,2022.2.4,60.16747716074206,
,,,,,,,,,,,,1,0,1,0,196,0,196,0,,,,,,,196,,,0.2,1082.7573162459594,Y,l,go,None,0,,,,,,,,,,,,,,,,,,,14,001,22,w,Psychologie,2023-01-11_10h30.35.751,00_bat_bachelor,2022.2.4,60.16747716074206,
,,,,,,,,,,,,1,0,1,0,197,0,197,0,,,,,,,197,,,0.2,1083.7582975797704,Y,None,nogo,None,1,,,,,,,,,,,,,,,,,,,14,001,22,w,Psychologie,2023-01-11_10h30.35.751,00_bat_bachelor,2022.2.4,60.16747716074206,
,,,,,,,,,,,,1,0,1,0,198,0,198,0,,,,,,,198,,,0.2,1084.7588372163882,X,d,go,d,1,0.079600148339523,,,,,,,,,,,,,,,,,,14,001,22,w,Psychologie,2023-01-11_10h30.35.751,00_bat_bachelor,2022.2.4,60.16747716074206,
,,,,,,,,,,,,1,0,1,0,199,0,199,0,,,,,,,199,,,0.2,1085.1425309781916,Y,l,go,l,1,0.559643532615155,,,,,,,,,,,,,,,,,,14,001,22,w,Psychologie,2023-01-11_10h30.35.751,00_bat_bachelor,2022.2.4,60.16747716074206,
,,,,,,,,,,,,1,0,1,0,200,0,200,0,,,,,,,200,,,0.2,1086.0098991563136,Y,None,nogo,d,0,0.380289263848681,,,,,,,,,,,,,,,,,,14,001,22,w,Psychologie,2023-01-11_10h30.35.751,00_bat_bachelor,2022.2.4,60.16747716074206,
,,,,,,,,,,,,1,0,1,0,201,0,201,0,,,,,,,201,,,0.2,1086.693597427191,X,d,go,None,0,,,,,,,,,,,,,,,,,,,14,001,22,w,Psychologie,2023-01-11_10h30.35.751,00_bat_bachelor,2022.2.4,60.16747716074206,
,,,,,,,,,,,,1,0,1,0,202,0,202,0,,,,,,,202,,,0.2,1087.6941210638033,Y,l,go,l,1,0.24890301830600947,,,,,,,,,,,,,,,,,,14,001,22,w,Psychologie,2023-01-11_10h30.35.751,00_bat_bachelor,2022.2.4,60.16747716074206,
