loop_instruction.thisRepN,loop_instruction.thisTrialN,loop_instruction.thisN,loop_instruction.thisIndex,loop_rsi_practice.thisRepN,loop_rsi_practice.thisTrialN,loop_rsi_practice.thisN,loop_rsi_practice.thisIndex,loop_practice.thisRepN,loop_practice.thisTrialN,loop_practice.thisN,loop_practice.thisIndex,loop_exp.thisRepN,loop_exp.thisTrialN,loop_exp.thisN,loop_exp.thisIndex,loop_trials.thisRepN,loop_trials.thisTrialN,loop_trials.thisN,loop_trials.thisIndex,map_condition,map_x_key,map_y_key,key_resp_welcome.started,key_resp_welcome.keys,key_resp_welcome.rt,index,text_empty_rsi_practice.started,text_empty_rsi_practice.stopped,rsi,stimulus.started,stimulus,correct,trial_type,key_resp_trial.keys,key_resp_trial.corr,stimulus.stopped,key_resp_trial.rt,key_resp_instruction_rsi.started,key_resp_instruction_rsi.keys,key_resp_instruction_rsi.rt,key_resp_instruction_rsi.stopped,key_resp_instruction_final.started,key_resp_instruction_final.keys,key_resp_instruction_final.rt,key_resp_break.started,key_resp_break.keys,key_resp_break.rt,key_resp_break.stopped,key_resp_end_screen.started,image_end_screen.started,key_resp_end_screen.keys,key_resp_end_screen.rt,participant,session,Alter,Geschlecht (w/m/d/andere),Studiengang,date,expName,psychopyVersion,frameRate,
,,,,0,0,0,0,0,0,0,0,,,,,,,,,0,d,l,124.01791806929396,j,16.433344909601146,0,140.48434302271926,141.51120800542412,1,141.51120800542412,X,d,go,None,0,,,,,,,,,,,,,,,,,,16,001,20,w,Psychologie,2023-01-12_08h58.45.337,00_bat_bachelor,2022.2.4,59.865350069776945,
,,,,0,0,0,0,1,0,1,0,,,,,,,,,,,,,,,1,142.89718540469767,143.89993740603677,1,143.89993740603677,Y,l,go,None,0,,,,,,,,,,,,,,,,,,16,001,20,w,Psychologie,2023-01-12_08h58.45.337,00_bat_bachelor,2022.2.4,59.865350069776945,
,,,,0,0,0,0,2,0,2,0,,,,,,,,,,,,,,,2,145.3165499716706,146.31647772921133,1,146.31647772921133,X,d,go,None,0,147.1171093901212,,,,,,,,,,,,,,,,,16,001,20,w,Psychologie,2023-01-12_08h58.45.337,00_bat_bachelor,2022.2.4,59.865350069776945,
,,,,0,0,0,0,3,0,3,0,,,,,,,,,,,,,,,3,147.71786701472593,148.71839743922465,1,148.71839743922465,Y,l,go,l,1,,0.6083689944643993,,,,,,,,,,,,,,,,16,001,20,w,Psychologie,2023-01-12_08h58.45.337,00_bat_bachelor,2022.2.4,59.865350069776945,
,,,,0,0,0,0,4,0,4,0,,,,,,,,,,,,,,,4,150.0695103367325,151.07027251893305,1,151.07027251893305,X,d,go,d,1,,0.4813808116596192,,,,,,,,,,,,,,,,16,001,20,w,Psychologie,2023-01-12_08h58.45.337,00_bat_bachelor,2022.2.4,59.865350069776945,
,,,,0,0,0,0,5,0,5,0,,,,,,,,,,,,,,,5,152.25461588101462,153.25530145710218,1,153.25530145710218,Y,l,go,l,1,,0.377076276257867,,,,,,,,,,,,,,,,16,001,20,w,Psychologie,2023-01-12_08h58.45.337,00_bat_bachelor,2022.2.4,59.865350069776945,
,,,,0,0,0,0,6,0,6,0,,,,,,,,,,,,,,,6,154.3559739907796,155.35689762758557,1,155.35689762758557,X,d,go,d,1,,0.4661318345752079,,,,,,,,,,,,,,,,16,001,20,w,Psychologie,2023-01-12_08h58.45.337,00_bat_bachelor,2022.2.4,59.865350069776945,
,,,,0,0,0,0,7,0,7,0,,,,,,,,,,,,,,,7,156.54052098933607,157.54111832295894,1,157.54111832295894,Y,l,go,d,0,,0.34771868627285585,,,,,,,,,,,,,,,,16,001,20,w,Psychologie,2023-01-12_08h58.45.337,00_bat_bachelor,2022.2.4,59.865350069776945,
,,,,0,0,0,0,8,0,8,0,,,,,,,,,,,,,,,8,158.59215204467182,159.592918590497,1,159.592918590497,X,d,go,d,1,,0.45447704105754383,,,,,,,,,,,,,,,,16,001,20,w,Psychologie,2023-01-12_08h58.45.337,00_bat_bachelor,2022.2.4,59.865350069776945,
,,,,0,0,0,0,9,0,9,0,,,,,,,,,,,,,,,9,160.76036788380588,161.76099236897426,1,161.76099236897426,Y,l,go,l,1,,0.28679889914928935,,,,,,,,,,,,,,,,16,001,20,w,Psychologie,2023-01-12_08h58.45.337,00_bat_bachelor,2022.2.4,59.865350069776945,
,,,,0,0,0,0,10,0,10,0,,,,,,,,,,,,,,,10,162.76178170269122,163.7624987939489,1,163.7624987939489,Y,None,nogo,l,0,,0.39790052876924165,,,,,,,,,,,,,,,,16,001,20,w,Psychologie,2023-01-12_08h58.45.337,00_bat_bachelor,2022.2.4,59.865350069776945,
,,,,0,0,0,0,11,0,11,0,,,,,,,,,,,,,,,11,165.2801877722086,166.28152207587846,1,166.28152207587846,X,d,go,d,1,,0.309174182737479,,,,,,,,,,,,,,,,16,001,20,w,Psychologie,2023-01-12_08h58.45.337,00_bat_bachelor,2022.2.4,59.865350069776945,
,,,,0,0,0,0,12,0,12,0,,,,,,,,,,,,,,,12,167.31564233487006,168.31653688073857,1,168.31653688073857,Y,l,go,l,1,,0.45134734257590026,,,,,,,,,,,,,,,,16,001,20,w,Psychologie,2023-01-12_08h58.45.337,00_bat_bachelor,2022.2.4,59.865350069776945,
,,,,0,0,0,0,13,0,13,0,,,,,,,,,,,,,,,13,169.4840147801151,170.484724113805,1,170.484724113805,X,d,go,d,1,,0.4267965428007301,,,,,,,,,,,,,,,,16,001,20,w,Psychologie,2023-01-12_08h58.45.337,00_bat_bachelor,2022.2.4,59.865350069776945,
,,,,0,0,0,0,14,0,14,0,,,,,,,,,,,,,,,14,171.63571182338637,172.63636006612796,1,172.63636006612796,Y,l,go,l,1,,0.3393123791611288,,,,,,,,,,,,,,,,16,001,20,w,Psychologie,2023-01-12_08h58.45.337,00_bat_bachelor,2022.2.4,59.865350069776945,
,,,,1,0,1,0,0,0,0,0,,,,,,,,,,,,,,,0,189.18224736108095,189.38242442783667,0.2,189.38242442783667,X,d,go,d,1,,0.6175816050090361,173.71822580278968,j,15.436770365806296,,,,,,,,,,,,,16,001,20,w,Psychologie,2023-01-12_08h58.45.337,00_bat_bachelor,2022.2.4,59.865350069776945,
,,,,1,0,1,0,1,0,1,0,,,,,,,,,,,,,,,1,190.71664858987788,190.91682808089536,0.2,190.91682808089536,Y,l,go,l,1,,0.4594680737936869,,,,,,,,,,,,,,,,16,001,20,w,Psychologie,2023-01-12_08h58.45.337,00_bat_bachelor,2022.2.4,59.865350069776945,
,,,,1,0,1,0,2,0,2,0,,,,,,,,,,,,,,,2,192.08417458625627,192.28462559255422,0.2,192.28462559255422,X,d,go,d,1,,0.5308358659676742,,,,,,,,,,,,,,,,16,001,20,w,Psychologie,2023-01-12_08h58.45.337,00_bat_bachelor,2022.2.4,59.865350069776945,
,,,,1,0,1,0,3,0,3,0,,,,,,,,,,,,,,,3,193.51877746364335,193.71882750003715,0.2,193.71882750003715,X,None,nogo,None,1,194.51937576697674,,,,,,,,,,,,,,,,,16,001,20,w,Psychologie,2023-01-12_08h58.45.337,00_bat_bachelor,2022.2.4,59.865350069776945,
,,,,1,0,1,0,4,0,4,0,,,,,,,,,,,,,,,4,195.12000975516276,195.32017130675376,0.2,195.32017130675376,Y,l,go,l,1,,0.5198923455318436,,,,,,,,,,,,,,,,16,001,20,w,Psychologie,2023-01-12_08h58.45.337,00_bat_bachelor,2022.2.4,59.865350069776945,
,,,,1,0,1,0,5,0,5,0,,,,,,,,,,,,,,,5,196.55422232931596,196.7545380628144,0.2,196.7545380628144,X,d,go,d,1,,0.620872758096084,,,,,,,,,,,,,,,,16,001,20,w,Psychologie,2023-01-12_08h58.45.337,00_bat_bachelor,2022.2.4,59.865350069776945,
,,,,1,0,1,0,6,0,6,0,,,,,,,,,,,,,,,6,198.0887738612364,198.28887432187912,0.2,198.28887432187912,Y,l,go,l,1,,0.5751369783538394,,,,,,,,,,,,,,,,16,001,20,w,Psychologie,2023-01-12_08h58.45.337,00_bat_bachelor,2022.2.4,59.865350069776945,
,,,,1,0,1,0,7,0,7,0,,,,,,,,,,,,,,,7,199.57324294460705,199.77362025386537,0.2,199.77362025386537,X,d,go,d,1,,0.5143815549672581,,,,,,,,,,,,,,,,16,001,20,w,Psychologie,2023-01-12_08h58.45.337,00_bat_bachelor,2022.2.4,59.865350069776945,
,,,,1,0,1,0,8,0,8,0,,,,,,,,,,,,,,,8,200.99100120775984,201.19111233507283,0.2,201.19111233507283,X,None,nogo,None,1,201.99191272334429,,,,,,,,,,,,,,,,,16,001,20,w,Psychologie,2023-01-12_08h58.45.337,00_bat_bachelor,2022.2.4,59.865350069776945,
,,,,1,0,1,0,9,0,9,0,,,,,,,,,,,,,,,9,202.59235374175478,202.79237468721112,0.2,202.79237468721112,X,None,nogo,d,0,,0.35974487391649745,,,,,,,,,,,,,,,,16,001,20,w,Psychologie,2023-01-12_08h58.45.337,00_bat_bachelor,2022.2.4,59.865350069776945,
,,,,1,0,1,0,10,0,10,0,,,,,,,,,,,,,,,10,204.26013733824948,204.46049428387778,0.2,204.46049428387778,Y,l,go,None,0,205.26105758111225,,,,,,,,,,,,,,,,,16,001,20,w,Psychologie,2023-01-12_08h58.45.337,00_bat_bachelor,2022.2.4,59.865350069776945,
,,,,1,0,1,0,11,0,11,0,,,,,,,,,,,,,,,11,205.86153205408482,206.06162960562506,0.2,206.06162960562506,X,d,go,None,0,206.86229617564823,,,,,,,,,,,,,,,,,16,001,20,w,Psychologie,2023-01-12_08h58.45.337,00_bat_bachelor,2022.2.4,59.865350069776945,
,,,,1,0,1,0,12,0,12,0,,,,,,,,,,,,,,,12,207.46256652730517,207.6628672304796,0.2,207.6628672304796,X,None,nogo,None,1,208.46355610355386,,,,,,,,,,,,,,,,,16,001,20,w,Psychologie,2023-01-12_08h58.45.337,00_bat_bachelor,2022.2.4,59.865350069776945,
,,,,1,0,1,0,13,0,13,0,,,,,,,,,,,,,,,13,209.06405384922982,209.2639647340402,0.2,209.2639647340402,Y,l,go,l,1,,0.5127480996306986,,,,,,,,,,,,,,,,16,001,20,w,Psychologie,2023-01-12_08h58.45.337,00_bat_bachelor,2022.2.4,59.865350069776945,
,,,,1,0,1,0,14,0,14,0,,,,,,,,,,,,,,,14,210.481746172969,210.68190239122487,0.2,210.68190239122487,X,d,go,d,1,,0.598458201799076,,,,,,,,,,,,,,,,16,001,20,w,Psychologie,2023-01-12_08h58.45.337,00_bat_bachelor,2022.2.4,59.865350069776945,
,,,,,,,,,,,,,,,,,,,,,,,,,,,,,,,,,,,,,,212.03226183381048,None,,212.03226183381048,212.03226183381048,space,5.986603359662695,,,,,,,,,16,001,20,w,Psychologie,2023-01-12_08h58.45.337,00_bat_bachelor,2022.2.4,59.865350069776945,
,,,,,,,,,,,,0,0,0,0,0,0,0,0,,,,,,,0,,,1,219.0380615942122,X,d,go,d,1,,0.48128626617835835,,,,,,,,,,,,,,,,16,001,20,w,Psychologie,2023-01-12_08h58.45.337,00_bat_bachelor,2022.2.4,59.865350069776945,
,,,,,,,,,,,,0,0,0,0,1,0,1,0,,,,,,,1,,,1,220.62284927169094,Y,l,go,l,1,,0.4652159553661477,,,,,,,,,,,,,,,,16,001,20,w,Psychologie,2023-01-12_08h58.45.337,00_bat_bachelor,2022.2.4,59.865350069776945,
,,,,,,,,,,,,0,0,0,0,2,0,2,0,,,,,,,2,,,1,222.19061730452813,X,d,go,d,1,,0.3853070681216195,,,,,,,,,,,,,,,,16,001,20,w,Psychologie,2023-01-12_08h58.45.337,00_bat_bachelor,2022.2.4,59.865350069776945,
,,,,,,,,,,,,0,0,0,0,3,0,3,0,,,,,,,3,,,1,223.69159597167163,Y,l,go,l,1,,0.42051823672954924,,,,,,,,,,,,,,,,16,001,20,w,Psychologie,2023-01-12_08h58.45.337,00_bat_bachelor,2022.2.4,59.865350069776945,
,,,,,,,,,,,,0,0,0,0,4,0,4,0,,,,,,,4,,,1,225.2261101702461,Y,None,nogo,l,0,,0.5011960940028075,,,,,,,,,,,,,,,,16,001,20,w,Psychologie,2023-01-12_08h58.45.337,00_bat_bachelor,2022.2.4,59.865350069776945,
,,,,,,,,,,,,0,0,0,0,5,0,5,0,,,,,,,5,,,1,226.8439989546605,X,d,go,d,1,,0.45192140343715437,,,,,,,,,,,,,,,,16,001,20,w,Psychologie,2023-01-12_08h58.45.337,00_bat_bachelor,2022.2.4,59.865350069776945,
,,,,,,,,,,,,0,0,0,0,6,0,6,0,,,,,,,6,,,1,228.41193086639396,Y,l,go,l,1,,0.54859393517836,,,,,,,,,,,,,,,,16,001,20,w,Psychologie,2023-01-12_08h58.45.337,00_bat_bachelor,2022.2.4,59.865350069776945,
,,,,,,,,,,,,0,0,0,0,7,0,7,0,,,,,,,7,,,1,230.0632199094398,X,d,go,d,1,,0.4004333784978371,,,,,,,,,,,,,,,,16,001,20,w,Psychologie,2023-01-12_08h58.45.337,00_bat_bachelor,2022.2.4,59.865350069776945,
,,,,,,,,,,,,0,0,0,0,8,0,8,0,,,,,,,8,,,1,231.56425384932663,Y,l,go,l,1,,0.3555315385456197,,,,,,,,,,,,,,,,16,001,20,w,Psychologie,2023-01-12_08h58.45.337,00_bat_bachelor,2022.2.4,59.865350069776945,
,,,,,,,,,,,,0,0,0,0,9,0,9,0,,,,,,,9,,,1,233.03199662157567,X,d,go,d,1,,0.43955485202604905,,,,,,,,,,,,,,,,16,001,20,w,Psychologie,2023-01-12_08h58.45.337,00_bat_bachelor,2022.2.4,59.865350069776945,
,,,,,,,,,,,,0,0,0,0,10,0,10,0,,,,,,,10,,,1,234.58337143436074,X,None,nogo,None,1,,,,,,,,,,,,,,,,,,16,001,20,w,Psychologie,2023-01-12_08h58.45.337,00_bat_bachelor,2022.2.4,59.865350069776945,
,,,,,,,,,,,,0,0,0,0,11,0,11,0,,,,,,,11,,,1,236.38457764100167,Y,l,go,l,1,,0.44873788676341064,,,,,,,,,,,,,,,,16,001,20,w,Psychologie,2023-01-12_08h58.45.337,00_bat_bachelor,2022.2.4,59.865350069776945,
,,,,,,,,,,,,0,0,0,0,12,0,12,0,,,,,,,12,,,1,237.9358394840383,X,d,go,d,1,,0.44866564430412836,,,,,,,,,,,,,,,,16,001,20,w,Psychologie,2023-01-12_08h58.45.337,00_bat_bachelor,2022.2.4,59.865350069776945,
,,,,,,,,,,,,0,0,0,0,13,0,13,0,,,,,,,13,,,1,239.48767538796528,Y,l,go,l,1,,0.46394177290494554,,,,,,,,,,,,,,,,16,001,20,w,Psychologie,2023-01-12_08h58.45.337,00_bat_bachelor,2022.2.4,59.865350069776945,
,,,,,,,,,,,,0,0,0,0,14,0,14,0,,,,,,,14,,,1,241.08882089154213,Y,None,nogo,l,0,,0.35043577846954577,,,,,,,,,,,,,,,,16,001,20,w,Psychologie,2023-01-12_08h58.45.337,00_bat_bachelor,2022.2.4,59.865350069776945,
,,,,,,,,,,,,0,0,0,0,15,0,15,0,,,,,,,15,,,1,242.57284294441342,X,d,go,d,1,,0.4028702281648293,,,,,,,,,,,,,,,,16,001,20,w,Psychologie,2023-01-12_08h58.45.337,00_bat_bachelor,2022.2.4,59.865350069776945,
,,,,,,,,,,,,0,0,0,0,16,0,16,0,,,,,,,16,,,1,244.09087228646968,Y,l,go,l,1,,0.4691626239218749,,,,,,,,,,,,,,,,16,001,20,w,Psychologie,2023-01-12_08h58.45.337,00_bat_bachelor,2022.2.4,59.865350069776945,
,,,,,,,,,,,,0,0,0,0,17,0,17,0,,,,,,,17,,,1,245.67546263051918,X,d,go,d,1,,0.6129062087857164,,,,,,,,,,,,,,,,16,001,20,w,Psychologie,2023-01-12_08h58.45.337,00_bat_bachelor,2022.2.4,59.865350069776945,
,,,,,,,,,,,,0,0,0,0,18,0,18,0,,,,,,,18,,,1,247.39294370566495,Y,l,go,l,1,,0.4134922939410899,,,,,,,,,,,,,,,,16,001,20,w,Psychologie,2023-01-12_08h58.45.337,00_bat_bachelor,2022.2.4,59.865350069776945,
,,,,,,,,,,,,0,0,0,0,19,0,19,0,,,,,,,19,,,1,248.9276605709747,Y,None,nogo,None,1,249.72806629238767,,,,,,,,,,,,,,,,,16,001,20,w,Psychologie,2023-01-12_08h58.45.337,00_bat_bachelor,2022.2.4,59.865350069776945,
,,,,,,,,,,,,0,0,0,0,20,0,20,0,,,,,,,20,,,1,250.72881780791795,X,d,go,d,1,,0.3437274116149638,,,,,,,,,,,,,,,,16,001,20,w,Psychologie,2023-01-12_08h58.45.337,00_bat_bachelor,2022.2.4,59.865350069776945,
,,,,,,,,,,,,0,0,0,0,21,0,21,0,,,,,,,21,,,1,252.1799118448107,Y,l,go,l,1,,0.33214970902190544,,,,,,,,,,,,,,,,16,001,20,w,Psychologie,2023-01-12_08h58.45.337,00_bat_bachelor,2022.2.4,59.865350069776945,
,,,,,,,,,,,,0,0,0,0,22,0,22,0,,,,,,,22,,,1,253.61463351012208,Y,None,nogo,None,1,254.41519680735655,,,,,,,,,,,,,,,,,16,001,20,w,Psychologie,2023-01-12_08h58.45.337,00_bat_bachelor,2022.2.4,59.865350069776945,
,,,,,,,,,,,,0,0,0,0,23,0,23,0,,,,,,,23,,,1,255.4158052925195,X,d,go,d,1,,0.28098556300392374,,,,,,,,,,,,,,,,16,001,20,w,Psychologie,2023-01-12_08h58.45.337,00_bat_bachelor,2022.2.4,59.865350069776945,
,,,,,,,,,,,,0,0,0,0,24,0,24,0,,,,,,,24,,,1,256.80026317588636,Y,l,go,l,1,,0.33526680144132115,,,,,,,,,,,,,,,,16,001,20,w,Psychologie,2023-01-12_08h58.45.337,00_bat_bachelor,2022.2.4,59.865350069776945,
,,,,,,,,,,,,0,0,0,0,25,0,25,0,,,,,,,25,,,1,258.2514958795218,Y,None,nogo,None,1,259.0519132372865,,,,,,,,,,,,,,,,,16,001,20,w,Psychologie,2023-01-12_08h58.45.337,00_bat_bachelor,2022.2.4,59.865350069776945,
,,,,,,,,,,,,0,0,0,0,26,0,26,0,,,,,,,26,,,1,260.05266329826554,X,d,go,d,1,,0.26768034443375655,,,,,,,,,,,,,,,,16,001,20,w,Psychologie,2023-01-12_08h58.45.337,00_bat_bachelor,2022.2.4,59.865350069776945,
,,,,,,,,,,,,0,0,0,0,27,0,27,0,,,,,,,27,,,1,261.4372331816994,Y,l,go,l,1,,0.37011336380965076,,,,,,,,,,,,,,,,16,001,20,w,Psychologie,2023-01-12_08h58.45.337,00_bat_bachelor,2022.2.4,59.865350069776945,
,,,,,,,,,,,,0,0,0,0,28,0,28,0,,,,,,,28,,,1,262.9216731741326,Y,None,nogo,None,1,263.72228931990685,,,,,,,,,,,,,,,,,16,001,20,w,Psychologie,2023-01-12_08h58.45.337,00_bat_bachelor,2022.2.4,59.865350069776945,
,,,,,,,,,,,,0,0,0,0,29,0,29,0,,,,,,,29,,,1,264.7228527140978,X,d,go,d,1,,0.30046193610178307,,,,,,,,,,,,,,,,16,001,20,w,Psychologie,2023-01-12_08h58.45.337,00_bat_bachelor,2022.2.4,59.865350069776945,
,,,,,,,,,,,,0,0,0,0,30,0,30,0,,,,,,,30,,,1,266.1239268479694,Y,l,go,l,1,,0.2920449623197783,,,,,,,,,,,,,,,,16,001,20,w,Psychologie,2023-01-12_08h58.45.337,00_bat_bachelor,2022.2.4,59.865350069776945,
,,,,,,,,,,,,0,0,0,0,31,0,31,0,,,,,,,31,,,1,267.52519055767334,Y,None,nogo,None,1,268.32562536999467,,,,,,,,,,,,,,,,,16,001,20,w,Psychologie,2023-01-12_08h58.45.337,00_bat_bachelor,2022.2.4,59.865350069776945,
,,,,,,,,,,,,0,0,0,0,32,0,32,0,,,,,,,32,,,1,269.32656937045977,X,d,go,d,1,,0.3380066815589089,,,,,,,,,,,,,,,,16,001,20,w,Psychologie,2023-01-12_08h58.45.337,00_bat_bachelor,2022.2.4,59.865350069776945,
,,,,,,,,,,,,0,0,0,0,33,0,33,0,,,,,,,33,,,1,270.77748401332065,Y,l,go,l,1,,0.4378826087631751,,,,,,,,,,,,,,,,16,001,20,w,Psychologie,2023-01-12_08h58.45.337,00_bat_bachelor,2022.2.4,59.865350069776945,
,,,,,,,,,,,,0,0,0,0,34,0,34,0,,,,,,,34,,,1,272.32877494729473,X,d,go,d,1,,0.5347306557232514,,,,,,,,,,,,,,,,16,001,20,w,Psychologie,2023-01-12_08h58.45.337,00_bat_bachelor,2022.2.4,59.865350069776945,
,,,,,,,,,,,,0,0,0,0,35,0,35,0,,,,,,,35,,,1,273.9799049599678,Y,l,go,l,1,,0.46798395668156445,,,,,,,,,,,,,,,,16,001,20,w,Psychologie,2023-01-12_08h58.45.337,00_bat_bachelor,2022.2.4,59.865350069776945,
,,,,,,,,,,,,0,0,0,0,36,0,36,0,,,,,,,36,,,1,275.56464221316855,Y,None,nogo,None,1,,,,,,,,,,,,,,,,,,16,001,20,w,Psychologie,2023-01-12_08h58.45.337,00_bat_bachelor,2022.2.4,59.865350069776945,
,,,,,,,,,,,,0,0,0,0,37,0,37,0,,,,,,,37,,,1,277.36581302585546,X,d,go,d,1,,0.2978282378462609,,,,,,,,,,,,,,,,16,001,20,w,Psychologie,2023-01-12_08h58.45.337,00_bat_bachelor,2022.2.4,59.865350069776945,
,,,,,,,,,,,,0,0,0,0,38,0,38,0,,,,,,,38,,,1,278.7670854628377,Y,l,go,l,1,,0.49712287992588244,,,,,,,,,,,,,,,,16,001,20,w,Psychologie,2023-01-12_08h58.45.337,00_bat_bachelor,2022.2.4,59.865350069776945,
,,,,,,,,,,,,0,0,0,0,39,0,39,0,,,,,,,39,,,1,280.3683007846412,X,d,go,d,1,,0.4487393413146492,,,,,,,,,,,,,,,,16,001,20,w,Psychologie,2023-01-12_08h58.45.337,00_bat_bachelor,2022.2.4,59.865350069776945,
,,,,,,,,,,,,0,0,0,0,40,0,40,0,,,,,,,40,,,1,281.919304688141,X,None,nogo,None,1,282.72011380369077,,,,,,,,,,,,,,,,,16,001,20,w,Psychologie,2023-01-12_08h58.45.337,00_bat_bachelor,2022.2.4,59.865350069776945,
,,,,,,,,,,,,0,0,0,0,41,0,41,0,,,,,,,41,,,1,283.7208861676918,Y,l,go,l,1,,0.3920576168457046,,,,,,,,,,,,,,,,16,001,20,w,Psychologie,2023-01-12_08h58.45.337,00_bat_bachelor,2022.2.4,59.865350069776945,
,,,,,,,,,,,,0,0,0,0,42,0,42,0,,,,,,,42,,,1,285.22201610764023,X,d,go,d,1,,0.3460464430390857,,,,,,,,,,,,,,,,16,001,20,w,Psychologie,2023-01-12_08h58.45.337,00_bat_bachelor,2022.2.4,59.865350069776945,
,,,,,,,,,,,,0,0,0,0,43,0,43,0,,,,,,,43,,,1,286.673259477946,Y,l,go,l,1,,0.6239016080508009,,,,,,,,,,,,,,,,16,001,20,w,Psychologie,2023-01-12_08h58.45.337,00_bat_bachelor,2022.2.4,59.865350069776945,
,,,,,,,,,,,,0,0,0,0,44,0,44,0,,,,,,,44,,,1,288.40776940982323,X,d,go,d,1,,0.3766699730185792,,,,,,,,,,,,,,,,16,001,20,w,Psychologie,2023-01-12_08h58.45.337,00_bat_bachelor,2022.2.4,59.865350069776945,
,,,,,,,,,,,,0,0,0,0,45,0,45,0,,,,,,,45,,,1,289.89205667492934,X,None,nogo,None,1,290.69283282075776,,,,,,,,,,,,,,,,,16,001,20,w,Psychologie,2023-01-12_08h58.45.337,00_bat_bachelor,2022.2.4,59.865350069776945,
,,,,,,,,,,,,0,0,0,0,46,0,46,0,,,,,,,46,,,1,291.6934286998585,Y,l,go,l,1,,0.3377666814485565,,,,,,,,,,,,,,,,16,001,20,w,Psychologie,2023-01-12_08h58.45.337,00_bat_bachelor,2022.2.4,59.865350069776945,
,,,,,,,,,,,,0,0,0,0,47,0,47,0,,,,,,,47,,,1,293.14471037319163,X,d,go,d,1,,0.3600202679808717,,,,,,,,,,,,,,,,16,001,20,w,Psychologie,2023-01-12_08h58.45.337,00_bat_bachelor,2022.2.4,59.865350069776945,
,,,,,,,,,,,,0,0,0,0,48,0,48,0,,,,,,,48,,,1,294.612607327319,X,None,nogo,None,1,295.4128797153244,,,,,,,,,,,,,,,,,16,001,20,w,Psychologie,2023-01-12_08h58.45.337,00_bat_bachelor,2022.2.4,59.865350069776945,
,,,,,,,,,,,,0,0,0,0,49,0,49,0,,,,,,,49,,,1,296.4137907460681,Y,l,go,l,1,,0.2756590149656404,,,,,,,,,,,,,,,,16,001,20,w,Psychologie,2023-01-12_08h58.45.337,00_bat_bachelor,2022.2.4,59.865350069776945,
,,,,,,,,,,,,0,0,0,0,50,0,50,0,,,,,,,50,,,1,297.79804499298916,X,d,go,d,1,,0.29872423826600425,,,,,,,,,,,,,,,,16,001,20,w,Psychologie,2023-01-12_08h58.45.337,00_bat_bachelor,2022.2.4,59.865350069776945,
,,,,,,,,,,,,0,0,0,0,51,0,51,0,,,,,,,51,,,1,299.1989950055722,X,None,nogo,d,0,,0.3523722642858047,,,,,,,,,,,,,,,,16,001,20,w,Psychologie,2023-01-12_08h58.45.337,00_bat_bachelor,2022.2.4,59.865350069776945,
,,,,,,,,,,,,0,0,0,0,52,0,52,0,,,,,,,52,,,1,300.6667789899511,Y,l,go,l,1,,0.5170254350232426,,,,,,,,,,,,,,,,16,001,20,w,Psychologie,2023-01-12_08h58.45.337,00_bat_bachelor,2022.2.4,59.865350069776945,
,,,,,,,,,,,,0,0,0,0,53,0,53,0,,,,,,,53,,,1,302.28488353206194,X,d,go,d,1,,0.4988794868113473,,,,,,,,,,,,,,,,16,001,20,w,Psychologie,2023-01-12_08h58.45.337,00_bat_bachelor,2022.2.4,59.865350069776945,
,,,,,,,,,,,,0,0,0,0,54,0,54,0,,,,,,,54,,,1,303.88604745990597,Y,l,go,l,1,,0.562386426696321,,,,,,,,,,,,,,,,16,001,20,w,Psychologie,2023-01-12_08h58.45.337,00_bat_bachelor,2022.2.4,59.865350069776945,
,,,,,,,,,,,,0,0,0,0,55,0,55,0,,,,,,,55,,,1,305.5540666928864,X,d,go,d,1,,0.39800768037093803,,,,,,,,,,,,,,,,16,001,20,w,Psychologie,2023-01-12_08h58.45.337,00_bat_bachelor,2022.2.4,59.865350069776945,
,,,,,,,,,,,,0,0,0,0,56,0,56,0,,,,,,,56,,,1,307.05496972362744,Y,l,go,l,1,,0.4657347434840631,,,,,,,,,,,,,,,,16,001,20,w,Psychologie,2023-01-12_08h58.45.337,00_bat_bachelor,2022.2.4,59.865350069776945,
,,,,,,,,,,,,0,0,0,0,57,0,57,0,,,,,,,57,,,1,308.62311836270965,Y,None,nogo,None,1,,,,,,,,,,,,,,,,,,16,001,20,w,Psychologie,2023-01-12_08h58.45.337,00_bat_bachelor,2022.2.4,59.865350069776945,
,,,,,,,,,,,,0,0,0,0,58,0,58,0,,,,,,,58,,,1,310.42444238762255,X,d,go,d,1,,0.27965465327724814,,,,,,,,,,,,,,,,16,001,20,w,Psychologie,2023-01-12_08h58.45.337,00_bat_bachelor,2022.2.4,59.865350069776945,
,,,,,,,,,,,,0,0,0,0,59,0,59,0,,,,,,,59,,,1,311.80858366476605,Y,l,go,l,1,,0.3186015812389087,,,,,,,,,,,,,,,,16,001,20,w,Psychologie,2023-01-12_08h58.45.337,00_bat_bachelor,2022.2.4,59.865350069776945,
,,,,,,,,,,,,0,0,0,0,60,0,60,0,,,,,,,60,,,1,313.24312932998873,X,d,go,d,1,,0.32574825137271546,,,,,,,,,,,,,,,,16,001,20,w,Psychologie,2023-01-12_08h58.45.337,00_bat_bachelor,2022.2.4,59.865350069776945,
,,,,,,,,,,,,0,0,0,0,61,0,61,0,,,,,,,61,,,1,314.6776429952297,Y,l,go,l,1,,0.33097685998654924,,,,,,,,,,,,,,,,16,001,20,w,Psychologie,2023-01-12_08h58.45.337,00_bat_bachelor,2022.2.4,59.865350069776945,
,,,,,,,,,,,,0,0,0,0,62,0,62,0,,,,,,,62,,,1,316.1121251452714,X,d,go,d,1,,0.38431070401566103,,,,,,,,,,,,,,,,16,001,20,w,Psychologie,2023-01-12_08h58.45.337,00_bat_bachelor,2022.2.4,59.865350069776945,
,,,,,,,,,,,,0,0,0,0,63,0,63,0,,,,,,,63,,,1,317.6132182367146,Y,l,go,l,1,,0.290941931452835,,,,,,,,,,,,,,,,16,001,20,w,Psychologie,2023-01-12_08h58.45.337,00_bat_bachelor,2022.2.4,59.865350069776945,
,,,,,,,,,,,,0,0,0,0,64,0,64,0,,,,,,,64,,,1,319.01432194633526,X,d,go,d,1,,0.2819184119289275,,,,,,,,,,,,,,,,16,001,20,w,Psychologie,2023-01-12_08h58.45.337,00_bat_bachelor,2022.2.4,59.865350069776945,
,,,,,,,,,,,,0,0,0,0,65,0,65,0,,,,,,,65,,,1,320.3987366781803,Y,l,go,l,1,,0.43409400086966343,,,,,,,,,,,,,,,,16,001,20,w,Psychologie,2023-01-12_08h58.45.337,00_bat_bachelor,2022.2.4,59.865350069776945,
,,,,,,,,,,,,0,0,0,0,66,0,66,0,,,,,,,66,,,1,321.9497105210612,X,d,go,d,1,,0.38601979572558776,,,,,,,,,,,,,,,,16,001,20,w,Psychologie,2023-01-12_08h58.45.337,00_bat_bachelor,2022.2.4,59.865350069776945,
,,,,,,,,,,,,0,0,0,0,67,0,67,0,,,,,,,67,,,1,323.4508840974013,X,None,nogo,None,1,324.2516296977701,,,,,,,,,,,,,,,,,16,001,20,w,Psychologie,2023-01-12_08h58.45.337,00_bat_bachelor,2022.2.4,59.865350069776945,
,,,,,,,,,,,,0,0,0,0,68,0,68,0,,,,,,,68,,,1,325.25244424361154,Y,l,go,l,1,,0.3640944517974276,,,,,,,,,,,,,,,,16,001,20,w,Psychologie,2023-01-12_08h58.45.337,00_bat_bachelor,2022.2.4,59.865350069776945,
,,,,,,,,,,,,0,0,0,0,69,0,69,0,,,,,,,69,,,1,326.7201647128095,X,d,go,d,1,,0.3838564007601235,,,,,,,,,,,,,,,,16,001,20,w,Psychologie,2023-01-12_08h58.45.337,00_bat_bachelor,2022.2.4,59.865350069776945,
,,,,,,,,,,,,0,0,0,0,70,0,70,0,,,,,,,70,,,1,328.2046677355829,X,None,nogo,None,1,,,,,,,,,,,,,,,,,,16,001,20,w,Psychologie,2023-01-12_08h58.45.337,00_bat_bachelor,2022.2.4,59.865350069776945,
,,,,,,,,,,,,0,0,0,0,71,0,71,0,,,,,,,71,,,1,330.0060567301989,Y,l,go,l,1,,0.28169635121594183,,,,,,,,,,,,,,,,16,001,20,w,Psychologie,2023-01-12_08h58.45.337,00_bat_bachelor,2022.2.4,59.865350069776945,
,,,,,,,,,,,,0,0,0,0,72,0,72,0,,,,,,,72,,,1,331.39040649231174,X,d,go,d,1,,0.305910181166837,,,,,,,,,,,,,,,,16,001,20,w,Psychologie,2023-01-12_08h58.45.337,00_bat_bachelor,2022.2.4,59.865350069776945,
,,,,,,,,,,,,0,0,0,0,73,0,73,0,,,,,,,73,,,1,332.8081409978913,Y,l,go,l,1,,0.36101663211593404,,,,,,,,,,,,,,,,16,001,20,w,Psychologie,2023-01-12_08h58.45.337,00_bat_bachelor,2022.2.4,59.865350069776945,
,,,,,,,,,,,,0,0,0,0,74,0,74,0,,,,,,,74,,,1,334.275800376141,X,d,go,d,1,,0.4132314453017898,,,,,,,,,,,,,,,,16,001,20,w,Psychologie,2023-01-12_08h58.45.337,00_bat_bachelor,2022.2.4,59.865350069776945,
,,,,,,,,,,,,0,0,0,0,75,0,75,0,,,,,,,75,,,1,335.79381080911844,X,None,nogo,None,1,,,,,,,,,,,,,,,,,,16,001,20,w,Psychologie,2023-01-12_08h58.45.337,00_bat_bachelor,2022.2.4,59.865350069776945,
,,,,,,,,,,,,0,0,0,0,76,0,76,0,,,,,,,76,,,1,337.5950019854645,Y,l,go,l,1,,0.2620439780585002,,,,,,,,,,,,,,,,16,001,20,w,Psychologie,2023-01-12_08h58.45.337,00_bat_bachelor,2022.2.4,59.865350069776945,
,,,,,,,,,,,,0,0,0,0,77,0,77,0,,,,,,,77,,,1,338.9627796183049,X,d,go,d,1,,0.33360037638340145,,,,,,,,,,,,,,,,16,001,20,w,Psychologie,2023-01-12_08h58.45.337,00_bat_bachelor,2022.2.4,59.865350069776945,
,,,,,,,,,,,,0,0,0,0,78,0,78,0,,,,,,,78,,,1,340.3970906167815,X,None,nogo,None,1,,,,,,,,,,,,,,,,,,16,001,20,w,Psychologie,2023-01-12_08h58.45.337,00_bat_bachelor,2022.2.4,59.865350069776945,
,,,,,,,,,,,,0,0,0,0,79,0,79,0,,,,,,,79,,,1,342.19850482352194,Y,l,go,l,1,,0.44158636816428043,,,,,,,,,,,,,,,,16,001,20,w,Psychologie,2023-01-12_08h58.45.337,00_bat_bachelor,2022.2.4,59.865350069776945,
,,,,,,,,,,,,0,0,0,0,80,0,80,0,,,,,,,80,,,1,343.74988933326676,X,d,go,d,1,,0.34702632229891606,,,,,,,,,,,,,,,,16,001,20,w,Psychologie,2023-01-12_08h58.45.337,00_bat_bachelor,2022.2.4,59.865350069776945,
,,,,,,,,,,,,0,0,0,0,81,0,81,0,,,,,,,81,,,1,345.2009673701541,Y,l,go,l,1,,0.303067028260557,,,,,,,,,,,,,,,,16,001,20,w,Psychologie,2023-01-12_08h58.45.337,00_bat_bachelor,2022.2.4,59.865350069776945,
,,,,,,,,,,,,0,0,0,0,82,0,82,0,,,,,,,82,,,1,346.6186611484445,X,d,go,d,1,,0.38942052467609756,,,,,,,,,,,,,,,,16,001,20,w,Psychologie,2023-01-12_08h58.45.337,00_bat_bachelor,2022.2.4,59.865350069776945,
,,,,,,,,,,,,0,0,0,0,83,0,83,0,,,,,,,83,,,1,348.1199278157146,X,None,nogo,None,1,,,,,,,,,,,,,,,,,,16,001,20,w,Psychologie,2023-01-12_08h58.45.337,00_bat_bachelor,2022.2.4,59.865350069776945,
,,,,,,,,,,,,0,0,0,0,84,0,84,0,,,,,,,84,,,1,349.921209658758,Y,l,go,l,1,,0.2869850810675416,,,,,,,,,,,,,,,,16,001,20,w,Psychologie,2023-01-12_08h58.45.337,00_bat_bachelor,2022.2.4,59.865350069776945,
,,,,,,,,,,,,0,0,0,0,85,0,85,0,,,,,,,85,,,1,351.32227845929447,X,d,go,d,1,,0.42217157085542567,,,,,,,,,,,,,,,,16,001,20,w,Psychologie,2023-01-12_08h58.45.337,00_bat_bachelor,2022.2.4,59.865350069776945,
,,,,,,,,,,,,0,0,0,0,86,0,86,0,,,,,,,86,,,1,352.8568178699643,X,None,nogo,None,1,,,,,,,,,,,,,,,,,,16,001,20,w,Psychologie,2023-01-12_08h58.45.337,00_bat_bachelor,2022.2.4,59.865350069776945,
,,,,,,,,,,,,0,0,0,0,87,0,87,0,,,,,,,87,,,1,354.65802601602627,Y,l,go,l,1,,0.3016158760583494,,,,,,,,,,,,,,,,16,001,20,w,Psychologie,2023-01-12_08h58.45.337,00_bat_bachelor,2022.2.4,59.865350069776945,
,,,,,,,,,,,,0,0,0,0,88,0,88,0,,,,,,,88,,,1,356.0760053701815,X,d,go,d,1,,0.42039314575958997,,,,,,,,,,,,,,,,16,001,20,w,Psychologie,2023-01-12_08h58.45.337,00_bat_bachelor,2022.2.4,59.865350069776945,
,,,,,,,,,,,,0,0,0,0,89,0,89,0,,,,,,,89,,,1,357.61054429601063,Y,l,go,l,1,,0.2782616829208564,,,,,,,,,,,,,,,,16,001,20,w,Psychologie,2023-01-12_08h58.45.337,00_bat_bachelor,2022.2.4,59.865350069776945,
,,,,,,,,,,,,0,0,0,0,90,0,90,0,,,,,,,90,,,1,358.99481987627223,X,d,go,d,1,,0.4133696271746885,,,,,,,,,,,,,,,,16,001,20,w,Psychologie,2023-01-12_08h58.45.337,00_bat_bachelor,2022.2.4,59.865350069776945,
,,,,,,,,,,,,0,0,0,0,91,0,91,0,,,,,,,91,,,1,360.51263733947417,Y,l,go,l,1,,0.2557574295497034,,,,,,,,,,,,,,,,16,001,20,w,Psychologie,2023-01-12_08h58.45.337,00_bat_bachelor,2022.2.4,59.865350069776945,
,,,,,,,,,,,,0,0,0,0,92,0,92,0,,,,,,,92,,,1,361.88013279036386,X,d,go,d,1,,0.40830635200836696,,,,,,,,,,,,,,,,16,001,20,w,Psychologie,2023-01-12_08h58.45.337,00_bat_bachelor,2022.2.4,59.865350069776945,
,,,,,,,,,,,,0,0,0,0,93,0,93,0,,,,,,,93,,,1,363.397850859561,X,None,nogo,None,1,,,,,,,,,,,,,,,,,,16,001,20,w,Psychologie,2023-01-12_08h58.45.337,00_bat_bachelor,2022.2.4,59.865350069776945,
,,,,,,,,,,,,0,0,0,0,94,0,94,0,,,,,,,94,,,1,365.19933779363055,Y,l,go,l,1,,0.39991216611815616,,,,,,,,,,,,,,,,16,001,20,w,Psychologie,2023-01-12_08h58.45.337,00_bat_bachelor,2022.2.4,59.865350069776945,
,,,,,,,,,,,,0,0,0,0,95,0,95,0,,,,,,,95,,,1,366.7006408245652,X,d,go,d,1,,0.27577440897584893,,,,,,,,,,,,,,,,16,001,20,w,Psychologie,2023-01-12_08h58.45.337,00_bat_bachelor,2022.2.4,59.865350069776945,
,,,,,,,,,,,,0,0,0,0,96,0,96,0,,,,,,,96,,,1,368.0856684051687,X,None,nogo,None,1,368.88663024807465,,,,,,,,,,,,,,,,,16,001,20,w,Psychologie,2023-01-12_08h58.45.337,00_bat_bachelor,2022.2.4,59.865350069776945,
,,,,,,,,,,,,0,0,0,0,97,0,97,0,,,,,,,97,,,1,369.8873914605647,Y,l,go,l,1,,0.28793829365167767,,,,,,,,,,,,,,,,16,001,20,w,Psychologie,2023-01-12_08h58.45.337,00_bat_bachelor,2022.2.4,59.865350069776945,
,,,,,,,,,,,,0,0,0,0,98,0,98,0,,,,,,,98,,,1,371.30509929943946,X,d,go,d,1,,0.40685229070368223,,,,,,,,,,,,,,,,16,001,20,w,Psychologie,2023-01-12_08h58.45.337,00_bat_bachelor,2022.2.4,59.865350069776945,
,,,,,,,,,,,,0,0,0,0,99,0,99,0,,,,,,,99,,,1,372.82244597451063,Y,l,go,l,1,,0.3133443665865343,,,,,,,,,,,,,,,,16,001,20,w,Psychologie,2023-01-12_08h58.45.337,00_bat_bachelor,2022.2.4,59.865350069776945,
,,,,,,,,,,,,0,0,0,0,100,0,100,0,,,,,,,100,,,1,374.25680933662807,Y,None,nogo,None,1,375.057500633935,,,,,,,,,,,,,,,,,16,001,20,w,Psychologie,2023-01-12_08h58.45.337,00_bat_bachelor,2022.2.4,59.865350069776945,
,,,,,,,,,,,,0,0,0,0,101,0,101,0,,,,,,,101,,,1,376.0580805130012,X,d,go,d,1,,0.22947959863813594,,,,,,,,,,,,,,,,16,001,20,w,Psychologie,2023-01-12_08h58.45.337,00_bat_bachelor,2022.2.4,59.865350069776945,
,,,,,,,,,,,,0,0,0,0,102,0,102,0,,,,,,,102,,,1,377.39269400856574,Y,l,go,l,1,,0.3993351961253211,,,,,,,,,,,,,,,,16,001,20,w,Psychologie,2023-01-12_08h58.45.337,00_bat_bachelor,2022.2.4,59.865350069776945,
,,,,,,,,,,,,0,0,0,0,103,0,103,0,,,,,,,103,,,1,378.89372600908973,Y,None,nogo,None,1,379.6943508821132,,,,,,,,,,,,,,,,,16,001,20,w,Psychologie,2023-01-12_08h58.45.337,00_bat_bachelor,2022.2.4,59.865350069776945,
,,,,,,,,,,,,0,0,0,0,104,0,104,0,,,,,,,104,,,1,380.6950480945816,X,d,go,d,1,,0.29724884359166026,,,,,,,,,,,,,,,,16,001,20,w,Psychologie,2023-01-12_08h58.45.337,00_bat_bachelor,2022.2.4,59.865350069776945,
,,,,,,,,,,,,0,0,0,0,105,0,105,0,,,,,,,105,,,1,382.0960048950219,Y,l,go,l,1,,0.33575261986698024,,,,,,,,,,,,,,,,16,001,20,w,Psychologie,2023-01-12_08h58.45.337,00_bat_bachelor,2022.2.4,59.865350069776945,
,,,,,,,,,,,,0,0,0,0,106,0,106,0,,,,,,,106,,,1,383.5471420834656,X,d,go,d,1,,0.24504033345147036,,,,,,,,,,,,,,,,16,001,20,w,Psychologie,2023-01-12_08h58.45.337,00_bat_bachelor,2022.2.4,59.865350069776945,
,,,,,,,,,,,,0,0,0,0,107,0,107,0,,,,,,,107,,,1,384.8981492839521,Y,l,go,l,1,,0.4141114457161166,,,,,,,,,,,,,,,,16,001,20,w,Psychologie,2023-01-12_08h58.45.337,00_bat_bachelor,2022.2.4,59.865350069776945,
,,,,,,,,,,,,0,0,0,0,108,0,108,0,,,,,,,108,,,1,386.41621789877536,Y,None,nogo,None,1,387.2165833777399,,,,,,,,,,,,,,,,,16,001,20,w,Psychologie,2023-01-12_08h58.45.337,00_bat_bachelor,2022.2.4,59.865350069776945,
,,,,,,,,,,,,0,0,0,0,109,0,109,0,,,,,,,109,,,1,388.217366893281,X,d,go,d,1,,0.1979891591181513,,,,,,,,,,,,,,,,16,001,20,w,Psychologie,2023-01-12_08h58.45.337,00_bat_bachelor,2022.2.4,59.865350069776945,
,,,,,,,,,,,,0,0,0,0,110,0,110,0,,,,,,,110,,,1,389.53502765335725,Y,l,go,l,1,,0.4011669546016492,,,,,,,,,,,,,,,,16,001,20,w,Psychologie,2023-01-12_08h58.45.337,00_bat_bachelor,2022.2.4,59.865350069776945,
,,,,,,,,,,,,0,0,0,0,111,0,111,0,,,,,,,111,,,1,391.05290523776785,X,d,go,d,1,,0.2915203559969086,,,,,,,,,,,,,,,,16,001,20,w,Psychologie,2023-01-12_08h58.45.337,00_bat_bachelor,2022.2.4,59.865350069776945,
,,,,,,,,,,,,0,0,0,0,112,0,112,0,,,,,,,112,,,1,392.4539362200885,X,None,nogo,None,1,393.2547113962355,,,,,,,,,,,,,,,,,16,001,20,w,Psychologie,2023-01-12_08h58.45.337,00_bat_bachelor,2022.2.4,59.865350069776945,
,,,,,,,,,,,,0,0,0,0,113,0,113,0,,,,,,,113,,,1,394.2555021844746,Y,l,go,l,1,,0.3522937188099604,,,,,,,,,,,,,,,,16,001,20,w,Psychologie,2023-01-12_08h58.45.337,00_bat_bachelor,2022.2.4,59.865350069776945,
,,,,,,,,,,,,0,0,0,0,114,0,114,0,,,,,,,114,,,1,395.72307186573744,X,d,go,d,1,,0.29331235686549917,,,,,,,,,,,,,,,,16,001,20,w,Psychologie,2023-01-12_08h58.45.337,00_bat_bachelor,2022.2.4,59.865350069776945,
,,,,,,,,,,,,0,0,0,0,115,0,115,0,,,,,,,115,,,1,397.1245203028084,Y,l,go,l,1,,0.3805584597866982,,,,,,,,,,,,,,,,16,001,20,w,Psychologie,2023-01-12_08h58.45.337,00_bat_bachelor,2022.2.4,59.865350069776945,
,,,,,,,,,,,,0,0,0,0,116,0,116,0,,,,,,,116,,,1,398.60888320431695,X,d,go,d,1,,0.3830748246109579,,,,,,,,,,,,,,,,16,001,20,w,Psychologie,2023-01-12_08h58.45.337,00_bat_bachelor,2022.2.4,59.865350069776945,
,,,,,,,,,,,,0,0,0,0,117,0,117,0,,,,,,,117,,,1,400.0932960452337,Y,l,go,l,1,,0.3706079094845336,,,,,,,,,,,,,,,,16,001,20,w,Psychologie,2023-01-12_08h58.45.337,00_bat_bachelor,2022.2.4,59.865350069776945,
,,,,,,,,,,,,0,0,0,0,118,0,118,0,,,,,,,118,,,1,401.5944351973012,X,d,go,d,1,,0.5342681100592017,,,,,,,,,,,,,,,,16,001,20,w,Psychologie,2023-01-12_08h58.45.337,00_bat_bachelor,2022.2.4,59.865350069776945,
,,,,,,,,,,,,0,0,0,0,119,0,119,0,,,,,,,119,,,1,403.2289504140499,Y,l,go,l,1,,0.4189924178062938,,,,,,,,,,,,,,,,16,001,20,w,Psychologie,2023-01-12_08h58.45.337,00_bat_bachelor,2022.2.4,59.865350069776945,
,,,,,,,,,,,,0,0,0,0,120,0,120,0,,,,,,,120,,,1,404.7633356428414,X,d,go,d,1,,0.32436885675997473,,,,,,,,,,,,,,,,16,001,20,w,Psychologie,2023-01-12_08h58.45.337,00_bat_bachelor,2022.2.4,59.865350069776945,
,,,,,,,,,,,,0,0,0,0,121,0,121,0,,,,,,,121,,,1,406.197715489805,X,None,nogo,l,0,,0.29833635929389857,,,,,,,,,,,,,,,,16,001,20,w,Psychologie,2023-01-12_08h58.45.337,00_bat_bachelor,2022.2.4,59.865350069776945,
,,,,,,,,,,,,0,0,0,0,122,0,122,0,,,,,,,122,,,1,407.59902186619,Y,l,go,None,0,408.3996210422483,,,,,,,,,,,,,,,,,16,001,20,w,Psychologie,2023-01-12_08h58.45.337,00_bat_bachelor,2022.2.4,59.865350069776945,
,,,,,,,,,,,,0,0,0,0,123,0,123,0,,,,,,,123,,,1,409.4003827395791,X,d,go,d,1,,0.2953753881738521,,,,,,,,,,,,,,,,16,001,20,w,Psychologie,2023-01-12_08h58.45.337,00_bat_bachelor,2022.2.4,59.865350069776945,
,,,,,,,,,,,,0,0,0,0,124,0,124,0,,,,,,,124,,,1,410.8182883967529,Y,l,go,l,1,,0.41422199123189785,,,,,,,,,,,,,,,,16,001,20,w,Psychologie,2023-01-12_08h58.45.337,00_bat_bachelor,2022.2.4,59.865350069776945,
,,,,,,,,,,,,0,0,0,0,125,0,125,0,,,,,,,125,,,1,412.3359240416612,X,d,go,d,1,,0.33678195369429886,,,,,,,,,,,,,,,,16,001,20,w,Psychologie,2023-01-12_08h58.45.337,00_bat_bachelor,2022.2.4,59.865350069776945,
,,,,,,,,,,,,0,0,0,0,126,0,126,0,,,,,,,126,,,1,413.7869783209462,Y,l,go,l,1,,0.4211819946067408,,,,,,,,,,,,,,,,16,001,20,w,Psychologie,2023-01-12_08h58.45.337,00_bat_bachelor,2022.2.4,59.865350069776945,
,,,,,,,,,,,,0,0,0,0,127,0,127,0,,,,,,,127,,,1,415.32137567095924,Y,None,nogo,None,1,416.1221678168222,,,,,,,,,,,,,,,,,16,001,20,w,Psychologie,2023-01-12_08h58.45.337,00_bat_bachelor,2022.2.4,59.865350069776945,
,,,,,,,,,,,,0,0,0,0,128,0,128,0,,,,,,,128,,,1,417.122901392926,X,d,go,d,1,,0.25356009518145584,,,,,,,,,,,,,,,,16,001,20,w,Psychologie,2023-01-12_08h58.45.337,00_bat_bachelor,2022.2.4,59.865350069776945,
,,,,,,,,,,,,0,0,0,0,129,0,129,0,,,,,,,129,,,1,418.49063005606877,Y,l,go,l,1,,0.29306411431753077,,,,,,,,,,,,,,,,16,001,20,w,Psychologie,2023-01-12_08h58.45.337,00_bat_bachelor,2022.2.4,59.865350069776945,
,,,,,,,,,,,,0,0,0,0,130,0,130,0,,,,,,,130,,,1,419.89144722008496,Y,None,nogo,None,1,420.6922519720101,,,,,,,,,,,,,,,,,16,001,20,w,Psychologie,2023-01-12_08h58.45.337,00_bat_bachelor,2022.2.4,59.865350069776945,
,,,,,,,,,,,,0,0,0,0,131,0,131,0,,,,,,,131,,,1,421.69306603301084,X,d,go,d,1,,0.35501081100665033,,,,,,,,,,,,,,,,16,001,20,w,Psychologie,2023-01-12_08h58.45.337,00_bat_bachelor,2022.2.4,59.865350069776945,
,,,,,,,,,,,,0,0,0,0,132,0,132,0,,,,,,,132,,,1,423.1606415324204,Y,l,go,l,1,,0.3428212293656543,,,,,,,,,,,,,,,,16,001,20,w,Psychologie,2023-01-12_08h58.45.337,00_bat_bachelor,2022.2.4,59.865350069776945,
,,,,,,,,,,,,0,0,0,0,133,0,133,0,,,,,,,133,,,1,424.62862285022857,Y,None,nogo,None,1,425.42920893538394,,,,,,,,,,,,,,,,,16,001,20,w,Psychologie,2023-01-12_08h58.45.337,00_bat_bachelor,2022.2.4,59.865350069776945,
,,,,,,,,,,,,0,0,0,0,134,0,134,0,,,,,,,134,,,1,426.4300394812308,X,d,go,d,1,,0.22617486977833323,,,,,,,,,,,,,,,,16,001,20,w,Psychologie,2023-01-12_08h58.45.337,00_bat_bachelor,2022.2.4,59.865350069776945,
,,,,,,,,,,,,0,0,0,0,135,0,135,0,,,,,,,135,,,1,427.76421612809645,Y,l,go,l,1,,0.3628648754383903,,,,,,,,,,,,,,,,16,001,20,w,Psychologie,2023-01-12_08h58.45.337,00_bat_bachelor,2022.2.4,59.865350069776945,
,,,,,,,,,,,,0,0,0,0,136,0,136,0,,,,,,,136,,,1,429.2488849691581,X,d,go,None,0,430.04939735727385,,,,,,,,,,,,,,,,,16,001,20,w,Psychologie,2023-01-12_08h58.45.337,00_bat_bachelor,2022.2.4,59.865350069776945,
,,,,,,,,,,,,0,0,0,0,137,0,137,0,,,,,,,137,,,1,431.05017699403106,X,None,nogo,None,1,431.85087168528116,,,,,,,,,,,,,,,,,16,001,20,w,Psychologie,2023-01-12_08h58.45.337,00_bat_bachelor,2022.2.4,59.865350069776945,
,,,,,,,,,,,,0,0,0,0,138,0,138,0,,,,,,,138,,,1,432.8512998067017,Y,l,go,l,1,,0.36409299724618904,,,,,,,,,,,,,,,,16,001,20,w,Psychologie,2023-01-12_08h58.45.337,00_bat_bachelor,2022.2.4,59.865350069776945,
,,,,,,,,,,,,0,0,0,0,139,0,139,0,,,,,,,139,,,1,434.335874102253,X,d,go,d,1,,0.3837206431198865,,,,,,,,,,,,,,,,16,001,20,w,Psychologie,2023-01-12_08h58.45.337,00_bat_bachelor,2022.2.4,59.865350069776945,
,,,,,,,,,,,,0,0,0,0,140,0,140,0,,,,,,,140,,,1,435.82027821589145,X,None,nogo,None,1,436.62113387690624,,,,,,,,,,,,,,,,,16,001,20,w,Psychologie,2023-01-12_08h58.45.337,00_bat_bachelor,2022.2.4,59.865350069776945,
,,,,,,,,,,,,0,0,0,0,141,0,141,0,,,,,,,141,,,1,437.6220371500822,Y,l,go,l,1,,0.29787429847056046,,,,,,,,,,,,,,,,16,001,20,w,Psychologie,2023-01-12_08h58.45.337,00_bat_bachelor,2022.2.4,59.865350069776945,
,,,,,,,,,,,,0,0,0,0,142,0,142,0,,,,,,,142,,,1,439.0229629202222,X,d,go,d,1,,0.33650752931134775,,,,,,,,,,,,,,,,16,001,20,w,Psychologie,2023-01-12_08h58.45.337,00_bat_bachelor,2022.2.4,59.865350069776945,
,,,,,,,,,,,,0,0,0,0,143,0,143,0,,,,,,,143,,,1,440.4740327146719,Y,l,go,l,1,,0.3743422143161297,,,,,,,,,,,,,,,,16,001,20,w,Psychologie,2023-01-12_08h58.45.337,00_bat_bachelor,2022.2.4,59.865350069776945,
,,,,,,,,,,,,0,0,0,0,144,0,144,0,,,,,,,144,,,1,441.9584872525884,Y,None,nogo,None,1,442.7589322467684,,,,,,,,,,,,,,,,,16,001,20,w,Psychologie,2023-01-12_08h58.45.337,00_bat_bachelor,2022.2.4,59.865350069776945,
,,,,,,,,,,,,0,0,0,0,145,0,145,0,,,,,,,145,,,1,443.759910671477,X,d,go,d,1,,0.2401811796007678,,,,,,,,,,,,,,,,16,001,20,w,Psychologie,2023-01-12_08h58.45.337,00_bat_bachelor,2022.2.4,59.865350069776945,
,,,,,,,,,,,,0,0,0,0,146,0,146,0,,,,,,,146,,,1,445.11093338712817,Y,l,go,l,1,,0.5528261796571314,,,,,,,,,,,,,,,,16,001,20,w,Psychologie,2023-01-12_08h58.45.337,00_bat_bachelor,2022.2.4,59.865350069776945,
,,,,,,,,,,,,0,0,0,0,147,0,147,0,,,,,,,147,,,1,446.7790718928736,X,d,go,d,1,,0.2769748943974264,,,,,,,,,,,,,,,,16,001,20,w,Psychologie,2023-01-12_08h58.45.337,00_bat_bachelor,2022.2.4,59.865350069776945,
,,,,,,,,,,,,0,0,0,0,148,0,148,0,,,,,,,148,,,1,448.17927281418815,Y,l,go,l,1,,0.3163678832061123,,,,,,,,,,,,,,,,16,001,20,w,Psychologie,2023-01-12_08h58.45.337,00_bat_bachelor,2022.2.4,59.865350069776945,
,,,,,,,,,,,,0,0,0,0,149,0,149,0,,,,,,,149,,,1,449.59723810775904,X,d,go,d,1,,0.33831649989588186,,,,,,,,,,,,,,,,16,001,20,w,Psychologie,2023-01-12_08h58.45.337,00_bat_bachelor,2022.2.4,59.865350069776945,
,,,,,,,,,,,,0,0,0,0,150,0,150,0,,,,,,,150,,,1,451.04804220510414,X,None,nogo,None,1,,,,,,,,,,,,,,,,,,16,001,20,w,Psychologie,2023-01-12_08h58.45.337,00_bat_bachelor,2022.2.4,59.865350069776945,
,,,,,,,,,,,,0,0,0,0,151,0,151,0,,,,,,,151,,,1,452.8497439271596,Y,l,go,l,1,,0.38264864261145703,,,,,,,,,,,,,,,,16,001,20,w,Psychologie,2023-01-12_08h58.45.337,00_bat_bachelor,2022.2.4,59.865350069776945,
,,,,,,,,,,,,0,0,0,0,152,0,152,0,,,,,,,152,,,1,454.3341805256496,X,d,go,d,1,,0.41806975068175234,,,,,,,,,,,,,,,,16,001,20,w,Psychologie,2023-01-12_08h58.45.337,00_bat_bachelor,2022.2.4,59.865350069776945,
,,,,,,,,,,,,0,0,0,0,153,0,153,0,,,,,,,153,,,1,455.8687359363539,Y,l,go,l,1,,0.3067334542865865,,,,,,,,,,,,,,,,16,001,20,w,Psychologie,2023-01-12_08h58.45.337,00_bat_bachelor,2022.2.4,59.865350069776945,
,,,,,,,,,,,,0,0,0,0,154,0,154,0,,,,,,,154,,,1,457.2867424420547,X,d,go,d,1,,0.441541277221404,,,,,,,,,,,,,,,,16,001,20,w,Psychologie,2023-01-12_08h58.45.337,00_bat_bachelor,2022.2.4,59.865350069776945,
,,,,,,,,,,,,0,0,0,0,155,0,155,0,,,,,,,155,,,1,458.8376581031189,X,None,nogo,None,1,459.63834406706155,,,,,,,,,,,,,,,,,16,001,20,w,Psychologie,2023-01-12_08h58.45.337,00_bat_bachelor,2022.2.4,59.865350069776945,
,,,,,,,,,,,,0,0,0,0,156,0,156,0,,,,,,,156,,,1,460.63921921901056,Y,l,go,l,1,,0.4011301061254926,,,,,,,,,,,,,,,,16,001,20,w,Psychologie,2023-01-12_08h58.45.337,00_bat_bachelor,2022.2.4,59.865350069776945,
,,,,,,,,,,,,0,0,0,0,157,0,157,0,,,,,,,157,,,1,462.157020682178,X,d,go,d,1,,0.3393870458530728,,,,,,,,,,,,,,,,16,001,20,w,Psychologie,2023-01-12_08h58.45.337,00_bat_bachelor,2022.2.4,59.865350069776945,
,,,,,,,,,,,,0,0,0,0,158,0,158,0,,,,,,,158,,,1,463.60812247666763,Y,l,go,l,1,,0.47255850437795743,,,,,,,,,,,,,,,,16,001,20,w,Psychologie,2023-01-12_08h58.45.337,00_bat_bachelor,2022.2.4,59.865350069776945,
,,,,,,,,,,,,0,0,0,0,159,0,159,0,,,,,,,159,,,1,465.1926463964337,X,d,go,d,1,,0.3755397906934377,,,,,,,,,,,,,,,,16,001,20,w,Psychologie,2023-01-12_08h58.45.337,00_bat_bachelor,2022.2.4,59.865350069776945,
,,,,,,,,,,,,0,0,0,0,160,0,160,0,,,,,,,160,,,1,466.6767348735593,Y,l,go,l,1,,0.31543309486005455,,,,,,,,,,,,,,,,16,001,20,w,Psychologie,2023-01-12_08h58.45.337,00_bat_bachelor,2022.2.4,59.865350069776945,
,,,,,,,,,,,,0,0,0,0,161,0,161,0,,,,,,,161,,,1,468.09459350039833,X,d,go,d,1,,0.35353638607193716,,,,,,,,,,,,,,,,16,001,20,w,Psychologie,2023-01-12_08h58.45.337,00_bat_bachelor,2022.2.4,59.865350069776945,
,,,,,,,,,,,,0,0,0,0,162,0,162,0,,,,,,,162,,,1,469.5625214848551,X,None,nogo,None,1,470.3631240548566,,,,,,,,,,,,,,,,,16,001,20,w,Psychologie,2023-01-12_08h58.45.337,00_bat_bachelor,2022.2.4,59.865350069776945,
,,,,,,,,,,,,0,0,0,0,163,0,163,0,,,,,,,163,,,1,471.3636418732931,Y,l,go,l,1,,0.30088084540329874,,,,,,,,,,,,,,,,16,001,20,w,Psychologie,2023-01-12_08h58.45.337,00_bat_bachelor,2022.2.4,59.865350069776945,
,,,,,,,,,,,,0,0,0,0,164,0,164,0,,,,,,,164,,,1,472.78157953044865,X,d,go,d,1,,0.27456180230365135,,,,,,,,,,,,,,,,16,001,20,w,Psychologie,2023-01-12_08h58.45.337,00_bat_bachelor,2022.2.4,59.865350069776945,
,,,,,,,,,,,,0,0,0,0,165,0,165,0,,,,,,,165,,,1,474.1659942622937,Y,l,go,l,1,,0.37840476175188087,,,,,,,,,,,,,,,,16,001,20,w,Psychologie,2023-01-12_08h58.45.337,00_bat_bachelor,2022.2.4,59.865350069776945,
,,,,,,,,,,,,0,0,0,0,166,0,166,0,,,,,,,166,,,1,475.6503944971482,Y,None,nogo,None,1,,,,,,,,,,,,,,,,,,16,001,20,w,Psychologie,2023-01-12_08h58.45.337,00_bat_bachelor,2022.2.4,59.865350069776945,
,,,,,,,,,,,,0,0,0,0,167,0,167,0,,,,,,,167,,,1,477.45260531036183,Y,None,nogo,None,1,478.253309213731,,,,,,,,,,,,,,,,,16,001,20,w,Psychologie,2023-01-12_08h58.45.337,00_bat_bachelor,2022.2.4,59.865350069776945,
,,,,,,,,,,,,0,0,0,0,168,0,168,0,,,,,,,168,,,1,479.2537290927139,X,d,go,d,1,,0.26584519201423973,,,,,,,,,,,,,,,,16,001,20,w,Psychologie,2023-01-12_08h58.45.337,00_bat_bachelor,2022.2.4,59.865350069776945,
,,,,,,,,,,,,0,0,0,0,169,0,169,0,,,,,,,169,,,1,480.63844297622563,Y,l,go,l,1,,0.35317808284889907,,,,,,,,,,,,,,,,16,001,20,w,Psychologie,2023-01-12_08h58.45.337,00_bat_bachelor,2022.2.4,59.865350069776945,
,,,,,,,,,,,,0,0,0,0,170,0,170,0,,,,,,,170,,,1,482.1228354534833,X,d,go,d,1,,0.3730563955323305,,,,,,,,,,,,,,,,16,001,20,w,Psychologie,2023-01-12_08h58.45.337,00_bat_bachelor,2022.2.4,59.865350069776945,
,,,,,,,,,,,,0,0,0,0,171,0,171,0,,,,,,,171,,,1,483.6238272115588,Y,l,go,l,1,,0.2638801001594402,,,,,,,,,,,,,,,,16,001,20,w,Psychologie,2023-01-12_08h58.45.337,00_bat_bachelor,2022.2.4,59.865350069776945,
,,,,,,,,,,,,0,0,0,0,172,0,172,0,,,,,,,172,,,1,485.0081590342452,X,d,go,d,1,,0.43055072642164305,,,,,,,,,,,,,,,,16,001,20,w,Psychologie,2023-01-12_08h58.45.337,00_bat_bachelor,2022.2.4,59.865350069776945,
,,,,,,,,,,,,0,0,0,0,173,0,173,0,,,,,,,173,,,1,486.55931421057903,X,None,nogo,None,1,487.3597650229058,,,,,,,,,,,,,,,,,16,001,20,w,Psychologie,2023-01-12_08h58.45.337,00_bat_bachelor,2022.2.4,59.865350069776945,
,,,,,,,,,,,,0,0,0,0,174,0,174,0,,,,,,,174,,,1,488.36054999299813,Y,l,go,l,1,,0.26280325115658343,,,,,,,,,,,,,,,,16,001,20,w,Psychologie,2023-01-12_08h58.45.337,00_bat_bachelor,2022.2.4,59.865350069776945,
,,,,,,,,,,,,0,0,0,0,175,0,175,0,,,,,,,175,,,1,489.745203755243,X,d,go,d,1,,0.35054923308780417,,,,,,,,,,,,,,,,16,001,20,w,Psychologie,2023-01-12_08h58.45.337,00_bat_bachelor,2022.2.4,59.865350069776945,
,,,,,,,,,,,,0,0,0,0,176,0,176,0,,,,,,,176,,,1,491.19629876184626,X,None,nogo,None,1,491.99678933178075,,,,,,,,,,,,,,,,,16,001,20,w,Psychologie,2023-01-12_08h58.45.337,00_bat_bachelor,2022.2.4,59.865350069776945,
,,,,,,,,,,,,0,0,0,0,177,0,177,0,,,,,,,177,,,1,492.9977173322404,Y,l,go,l,1,,0.23381705529754981,,,,,,,,,,,,,,,,16,001,20,w,Psychologie,2023-01-12_08h58.45.337,00_bat_bachelor,2022.2.4,59.865350069776945,
,,,,,,,,,,,,0,0,0,0,178,0,178,0,,,,,,,178,,,1,494.3484932598658,X,d,go,d,1,,0.3067290906328708,,,,,,,,,,,,,,,,16,001,20,w,Psychologie,2023-01-12_08h58.45.337,00_bat_bachelor,2022.2.4,59.865350069776945,
,,,,,,,,,,,,0,0,0,0,179,0,179,0,,,,,,,179,,,1,495.7828163795348,Y,l,go,l,1,,0.27982289576902986,,,,,,,,,,,,,,,,16,001,20,w,Psychologie,2023-01-12_08h58.45.337,00_bat_bachelor,2022.2.4,59.865350069776945,
,,,,,,,,,,,,0,0,0,0,180,0,180,0,,,,,,,180,,,1,497.18408493773313,Y,None,nogo,None,1,,,,,,,,,,,,,,,,,,16,001,20,w,Psychologie,2023-01-12_08h58.45.337,00_bat_bachelor,2022.2.4,59.865350069776945,
,,,,,,,,,,,,0,0,0,0,181,0,181,0,,,,,,,181,,,1,498.98555635663797,X,d,go,d,1,,0.21400710628950037,,,,,,,,,,,,,,,,16,001,20,w,Psychologie,2023-01-12_08h58.45.337,00_bat_bachelor,2022.2.4,59.865350069776945,
,,,,,,,,,,,,0,0,0,0,182,0,182,0,,,,,,,182,,,1,500.3197577307874,Y,l,go,l,1,,0.3196697029634379,,,,,,,,,,,,,,,,16,001,20,w,Psychologie,2023-01-12_08h58.45.337,00_bat_bachelor,2022.2.4,59.865350069776945,
,,,,,,,,,,,,0,0,0,0,183,0,183,0,,,,,,,183,,,1,501.7543426687771,Y,None,nogo,None,1,502.5548152993142,,,,,,,,,,,,,,,,,16,001,20,w,Psychologie,2023-01-12_08h58.45.337,00_bat_bachelor,2022.2.4,59.865350069776945,
,,,,,,,,,,,,0,0,0,0,184,0,184,0,,,,,,,184,,,1,503.5556254815019,X,d,go,d,1,,0.1727969044877682,,,,,,,,,,,,,,,,16,001,20,w,Psychologie,2023-01-12_08h58.45.337,00_bat_bachelor,2022.2.4,59.865350069776945,
,,,,,,,,,,,,0,0,0,0,185,0,185,0,,,,,,,185,,,1,504.8397613768466,Y,l,go,l,1,,0.26531767661799677,,,,,,,,,,,,,,,,16,001,20,w,Psychologie,2023-01-12_08h58.45.337,00_bat_bachelor,2022.2.4,59.865350069776945,
,,,,,,,,,,,,0,0,0,0,186,0,186,0,,,,,,,186,,,1,506.2075525854889,Y,None,nogo,None,1,507.0080446099746,,,,,,,,,,,,,,,,,16,001,20,w,Psychologie,2023-01-12_08h58.45.337,00_bat_bachelor,2022.2.4,59.865350069776945,
,,,,,,,,,,,,0,0,0,0,187,0,187,0,,,,,,,187,,,1,508.0091389135341,X,d,go,d,1,,0.27942435012664646,,,,,,,,,,,,,,,,16,001,20,w,Psychologie,2023-01-12_08h58.45.337,00_bat_bachelor,2022.2.4,59.865350069776945,
,,,,,,,,,,,,0,0,0,0,188,0,188,0,,,,,,,188,,,1,509.393497887766,Y,l,go,l,1,,0.28721538418903947,,,,,,,,,,,,,,,,16,001,20,w,Psychologie,2023-01-12_08h58.45.337,00_bat_bachelor,2022.2.4,59.865350069776945,
,,,,,,,,,,,,0,0,0,0,189,0,189,0,,,,,,,189,,,1,510.7943242639012,X,d,go,d,1,,0.38873979705385864,,,,,,,,,,,,,,,,16,001,20,w,Psychologie,2023-01-12_08h58.45.337,00_bat_bachelor,2022.2.4,59.865350069776945,
,,,,,,,,,,,,0,0,0,0,190,0,190,0,,,,,,,190,,,1,512.3125271818426,Y,l,go,l,1,,0.37505591165972874,,,,,,,,,,,,,,,,16,001,20,w,Psychologie,2023-01-12_08h58.45.337,00_bat_bachelor,2022.2.4,59.865350069776945,
,,,,,,,,,,,,0,0,0,0,191,0,191,0,,,,,,,191,,,1,513.813569364167,X,d,go,d,1,,0.37829567078733817,,,,,,,,,,,,,,,,16,001,20,w,Psychologie,2023-01-12_08h58.45.337,00_bat_bachelor,2022.2.4,59.865350069776945,
,,,,,,,,,,,,0,0,0,0,192,0,192,0,,,,,,,192,,,1,515.2977383261896,Y,l,go,l,1,,0.26962798173190095,,,,,,,,,,,,,,,,16,001,20,w,Psychologie,2023-01-12_08h58.45.337,00_bat_bachelor,2022.2.4,59.865350069776945,
,,,,,,,,,,,,0,0,0,0,193,0,193,0,,,,,,,193,,,1,516.6985031265358,Y,None,nogo,None,1,517.4987333327299,,,,,,,,,,,,,,,,,16,001,20,w,Psychologie,2023-01-12_08h58.45.337,00_bat_bachelor,2022.2.4,59.865350069776945,
,,,,,,,,,,,,0,0,0,0,194,0,194,0,,,,,,,194,,,1,518.4997927271761,X,d,go,d,1,,0.25184518526657484,,,,,,,,,,,,,,,,16,001,20,w,Psychologie,2023-01-12_08h58.45.337,00_bat_bachelor,2022.2.4,59.865350069776945,
,,,,,,,,,,,,0,0,0,0,195,0,195,0,,,,,,,195,,,1,519.867535935773,Y,l,go,l,1,,0.293755023740232,,,,,,,,,,,,,,,,16,001,20,w,Psychologie,2023-01-12_08h58.45.337,00_bat_bachelor,2022.2.4,59.865350069776945,
,,,,,,,,,,,,0,0,0,0,196,0,196,0,,,,,,,196,,,1,521.2685635241505,X,d,go,d,1,,0.2841205948207062,,,,,,,,,,,,,,,,16,001,20,w,Psychologie,2023-01-12_08h58.45.337,00_bat_bachelor,2022.2.4,59.865350069776945,
,,,,,,,,,,,,0,0,0,0,197,0,197,0,,,,,,,197,,,1,522.6696817792254,Y,l,go,l,1,,0.3069162422325462,,,,,,,,,,,,,,,,16,001,20,w,Psychologie,2023-01-12_08h58.45.337,00_bat_bachelor,2022.2.4,59.865350069776945,
,,,,,,,,,,,,0,0,0,0,198,0,198,0,,,,,,,198,,,1,524.0873944666237,Y,None,nogo,None,1,,,,,,,,,,,,,,,,,,16,001,20,w,Psychologie,2023-01-12_08h58.45.337,00_bat_bachelor,2022.2.4,59.865350069776945,
,,,,,,,,,,,,0,0,0,0,199,0,199,0,,,,,,,199,,,1,525.8885638247593,X,d,go,d,1,,0.24010263409581967,,,,,,,,,,,,,,,,16,001,20,w,Psychologie,2023-01-12_08h58.45.337,00_bat_bachelor,2022.2.4,59.865350069776945,
,,,,,,,,,,,,0,0,0,0,200,0,200,0,,,,,,,200,,,1,527.2397717526183,Y,l,go,l,1,,0.29748060132260434,,,,,,,,,,,,,,,,16,001,20,w,Psychologie,2023-01-12_08h58.45.337,00_bat_bachelor,2022.2.4,59.865350069776945,
,,,,,,,,,,,,0,0,0,0,201,0,201,0,,,,,,,201,,,1,528.6408177652338,X,d,go,d,1,,0.2870868993049953,,,,,,,,,,,,,,,,16,001,20,w,Psychologie,2023-01-12_08h58.45.337,00_bat_bachelor,2022.2.4,59.865350069776945,
,,,,,,,,,,,,0,0,0,0,202,0,202,0,,,,,,,202,,,1,530.041933596076,Y,l,go,l,1,,0.3578001457208302,,,,,,,,,,,,,,,,16,001,20,w,Psychologie,2023-01-12_08h58.45.337,00_bat_bachelor,2022.2.4,59.865350069776945,
,,,,,,,,,,,,0,0,0,0,203,0,203,0,,,,,,,203,,,1,531.5097403683467,X,d,go,d,1,,0.36342584539670497,,,,,,,,,,,,,,,,16,001,20,w,Psychologie,2023-01-12_08h58.45.337,00_bat_bachelor,2022.2.4,59.865350069776945,
,,,,,,,,,,,,0,0,0,0,204,0,204,0,,,,,,,204,,,1,532.9775452012254,Y,l,go,l,1,,0.4634472272300627,,,,,,,,,,,,,,,,16,001,20,w,Psychologie,2023-01-12_08h58.45.337,00_bat_bachelor,2022.2.4,59.865350069776945,
,,,,,,,,,,,,0,0,0,0,205,0,205,0,,,,,,,205,,,1,534.5451774764515,X,d,go,d,1,,0.4475247952505015,,,,,,,,,,,,,,,,16,001,20,w,Psychologie,2023-01-12_08h58.45.337,00_bat_bachelor,2022.2.4,59.865350069776945,
,,,,,,,,,,,,0,0,0,0,206,0,206,0,,,,,,,206,,,1,536.0963651376369,Y,l,go,l,1,,0.4153696281427983,,,,,,,,,,,,,,,,16,001,20,w,Psychologie,2023-01-12_08h58.45.337,00_bat_bachelor,2022.2.4,59.865350069776945,
,,,,,,,,,,,,0,0,0,0,207,0,207,0,,,,,,,207,,,1,537.6143207827117,Y,None,nogo,None,1,,,,,,,,,,,,,,,,,,16,001,20,w,Psychologie,2023-01-12_08h58.45.337,00_bat_bachelor,2022.2.4,59.865350069776945,
,,,,,,,,,,,,0,0,0,0,208,0,208,0,,,,,,,208,,,1,539.4155478378525,X,d,go,d,1,,0.24772348627448082,,,,,,,,,,,,,,,,16,001,20,w,Psychologie,2023-01-12_08h58.45.337,00_bat_bachelor,2022.2.4,59.865350069776945,
,,,,,,,,,,,,0,0,0,0,209,0,209,0,,,,,,,209,,,1,540.766590432293,Y,l,go,l,1,,0.28989465822814964,,,,,,,,,,,,,,,,16,001,20,w,Psychologie,2023-01-12_08h58.45.337,00_bat_bachelor,2022.2.4,59.865350069776945,
,,,,,,,,,,,,0,0,0,0,210,0,210,0,,,,,,,210,,,1,542.1678342631785,X,d,go,d,1,,0.20030382691766135,,,,,,,,,,,,,,,,16,001,20,w,Psychologie,2023-01-12_08h58.45.337,00_bat_bachelor,2022.2.4,59.865350069776945,
,,,,,,,,,,,,0,0,0,0,211,0,211,0,,,,,,,211,,,1,543.4855609626975,X,None,nogo,None,1,544.2862537145556,,,,,,,,,,,,,,,,,16,001,20,w,Psychologie,2023-01-12_08h58.45.337,00_bat_bachelor,2022.2.4,59.865350069776945,
,,,,,,,,,,,,0,0,0,0,212,0,212,0,,,,,,,212,,,1,545.2868995330355,Y,l,go,l,1,,0.26569052526610903,,,,,,,,,,,,,,,,16,001,20,w,Psychologie,2023-01-12_08h58.45.337,00_bat_bachelor,2022.2.4,59.865350069776945,
,,,,,,,,,,,,0,0,0,0,213,0,213,0,,,,,,,213,,,1,546.6545908628323,X,d,go,d,1,,0.2747659236192703,,,,,,,,,,,,,,,,16,001,20,w,Psychologie,2023-01-12_08h58.45.337,00_bat_bachelor,2022.2.4,59.865350069776945,
,,,,,,,,,,,,0,0,0,0,214,0,214,0,,,,,,,214,,,1,548.0397556556272,Y,l,go,l,1,,0.3600702074181754,,,,,,,,,,,,,,,,16,001,20,w,Psychologie,2023-01-12_08h58.45.337,00_bat_bachelor,2022.2.4,59.865350069776945,
,,,,,,,,,,,,0,0,0,0,215,0,215,0,,,,,,,215,,,1,549.5076802461408,Y,None,nogo,None,1,550.3083405131474,,,,,,,,,,,,,,,,,16,001,20,w,Psychologie,2023-01-12_08h58.45.337,00_bat_bachelor,2022.2.4,59.865350069776945,
,,,,,,,,,,,,0,0,0,0,216,0,216,0,,,,,,,216,,,1,551.3089480285707,X,d,go,d,1,,0.29119162855204195,,,,,,,,,,,,,,,,16,001,20,w,Psychologie,2023-01-12_08h58.45.337,00_bat_bachelor,2022.2.4,59.865350069776945,
,,,,,,,,,,,,0,0,0,0,217,0,217,0,,,,,,,217,,,1,552.7100798594183,Y,l,go,l,1,,0.2331916004186496,,,,,,,,,,,,,,,,16,001,20,w,Psychologie,2023-01-12_08h58.45.337,00_bat_bachelor,2022.2.4,59.865350069776945,
,,,,,,,,,,,,0,0,0,0,218,0,218,0,,,,,,,218,,,1,554.0610434235423,X,d,go,d,1,,0.30696715135127306,,,,,,,,,,,,,,,,16,001,20,w,Psychologie,2023-01-12_08h58.45.337,00_bat_bachelor,2022.2.4,59.865350069776945,
,,,,,,,,,,,,0,0,0,0,219,0,219,0,,,,,,,219,,,1,555.4954373311193,X,None,nogo,None,1,556.2962973557878,,,,,,,,,,,,,,,,,16,001,20,w,Psychologie,2023-01-12_08h58.45.337,00_bat_bachelor,2022.2.4,59.865350069776945,
,,,,,,,,,,,,0,0,0,0,220,0,220,0,,,,,,,220,,,1,557.296655174141,Y,l,go,l,1,,0.2713370734709315,,,,,,,,,,,,,,,,16,001,20,w,Psychologie,2023-01-12_08h58.45.337,00_bat_bachelor,2022.2.4,59.865350069776945,
,,,,,,,,,,,,0,0,0,0,221,0,221,0,,,,,,,221,,,1,558.6976905200863,X,d,go,d,1,,0.4216101160272956,,,,,,,,,,,,,,,,16,001,20,w,Psychologie,2023-01-12_08h58.45.337,00_bat_bachelor,2022.2.4,59.865350069776945,
,,,,,,,,,,,,0,0,0,0,222,0,222,0,,,,,,,222,,,1,560.2322958701989,X,None,nogo,None,1,561.0332402585482,,,,,,,,,,,,,,,,,16,001,20,w,Psychologie,2023-01-12_08h58.45.337,00_bat_bachelor,2022.2.4,59.865350069776945,
,,,,,,,,,,,,0,0,0,0,223,0,223,0,,,,,,,223,,,1,562.0335529859585,Y,l,go,l,1,,0.2707814368477557,,,,,,,,,,,,,,,,16,001,20,w,Psychologie,2023-01-12_08h58.45.337,00_bat_bachelor,2022.2.4,59.865350069776945,
,,,,,,,,,,,,0,0,0,0,224,0,224,0,,,,,,,224,,,1,563.4179017783899,X,d,go,d,1,,0.40661471482599154,,,,,,,,,,,,,,,,16,001,20,w,Psychologie,2023-01-12_08h58.45.337,00_bat_bachelor,2022.2.4,59.865350069776945,
,,,,,,,,,,,,0,0,0,0,225,0,225,0,,,,,,,225,,,1,564.9357725749142,Y,l,go,l,1,,0.297019025310874,,,,,,,,,,,,,,,,16,001,20,w,Psychologie,2023-01-12_08h58.45.337,00_bat_bachelor,2022.2.4,59.865350069776945,
,,,,,,,,,,,,0,0,0,0,226,0,226,0,,,,,,,226,,,1,566.3366862238618,Y,None,nogo,None,1,567.1372698847263,,,,,,,,,,,,,,,,,16,001,20,w,Psychologie,2023-01-12_08h58.45.337,00_bat_bachelor,2022.2.4,59.865350069776945,
,,,,,,,,,,,,0,0,0,0,227,0,227,0,,,,,,,227,,,1,568.1380519457161,X,d,go,d,1,,0.22985438667819835,,,,,,,,,,,,,,,,16,001,20,w,Psychologie,2023-01-12_08h58.45.337,00_bat_bachelor,2022.2.4,59.865350069776945,
,,,,,,,,,,,,0,0,0,0,228,0,228,0,,,,,,,228,,,1,569.4891241159348,Y,l,go,l,1,,0.28645950503414497,,,,,,,,,,,,,,,,16,001,20,w,Psychologie,2023-01-12_08h58.45.337,00_bat_bachelor,2022.2.4,59.865350069776945,
,,,,,,,,,,,,0,0,0,0,229,0,229,0,,,,,,,229,,,1,570.9069730458141,X,d,go,d,1,,0.27750628857756965,,,,,,,,,,,,,,,,16,001,20,w,Psychologie,2023-01-12_08h58.45.337,00_bat_bachelor,2022.2.4,59.865350069776945,
,,,,,,,,,,,,0,0,0,0,230,0,230,0,,,,,,,230,,,1,572.291391656443,Y,l,go,l,1,,0.284330049471464,,,,,,,,,,,,,,,,16,001,20,w,Psychologie,2023-01-12_08h58.45.337,00_bat_bachelor,2022.2.4,59.865350069776945,
,,,,,,,,,,,,0,0,0,0,231,0,231,0,,,,,,,231,,,1,573.6922718507994,Y,None,nogo,None,1,574.4928807238175,,,,,,,,,,,,,,,,,16,001,20,w,Psychologie,2023-01-12_08h58.45.337,00_bat_bachelor,2022.2.4,59.865350069776945,
,,,,,,,,,,,,0,0,0,0,232,0,232,0,,,,,,,232,,,1,575.4938945424801,X,d,go,d,1,,0.23358966124942526,,,,,,,,,,,,,,,,16,001,20,w,Psychologie,2023-01-12_08h58.45.337,00_bat_bachelor,2022.2.4,59.865350069776945,
,,,,,,,,,,,,0,0,0,0,233,0,233,0,,,,,,,233,,,1,576.8449638036254,Y,l,go,l,1,,0.32380109891528264,,,,,,,,,,,,,,,,16,001,20,w,Psychologie,2023-01-12_08h58.45.337,00_bat_bachelor,2022.2.4,59.865350069776945,
,,,,,,,,,,,,0,0,0,0,234,0,234,0,,,,,,,234,,,1,578.2791201353248,Y,None,nogo,d,0,,0.2965002371929586,,,,,,,,,,,,,,,,16,001,20,w,Psychologie,2023-01-12_08h58.45.337,00_bat_bachelor,2022.2.4,59.865350069776945,
,,,,,,,,,,,,0,0,0,0,235,0,235,0,,,,,,,235,,,1,579.6801734206965,X,d,go,d,1,,0.5117667658196297,,,,,,,,,,,,,,,,16,001,20,w,Psychologie,2023-01-12_08h58.45.337,00_bat_bachelor,2022.2.4,59.865350069776945,
,,,,,,,,,,,,0,0,0,0,236,0,236,0,,,,,,,236,,,1,581.3148966375156,Y,l,go,l,1,,0.36591214963118546,,,,,,,,,,,,,,,,16,001,20,w,Psychologie,2023-01-12_08h58.45.337,00_bat_bachelor,2022.2.4,59.865350069776945,
,,,,,,,,,,,,0,0,0,0,237,0,237,0,,,,,,,237,,,1,582.7825501975894,X,d,go,d,1,,0.3848469467193354,,,,,,,,,,,,,,,,16,001,20,w,Psychologie,2023-01-12_08h58.45.337,00_bat_bachelor,2022.2.4,59.865350069776945,
,,,,,,,,,,,,0,0,0,0,238,0,238,0,,,,,,,238,,,1,584.2836757739133,Y,l,go,l,1,,0.2926917505101301,,,,,,,,,,,,,,,,16,001,20,w,Psychologie,2023-01-12_08h58.45.337,00_bat_bachelor,2022.2.4,59.865350069776945,
,,,,,,,,,,,,0,0,0,0,239,0,239,0,,,,,,,239,,,1,585.6849094229983,X,d,go,d,1,,0.2830830185848754,,,,,,,,,,,,,,,,16,001,20,w,Psychologie,2023-01-12_08h58.45.337,00_bat_bachelor,2022.2.4,59.865350069776945,
,,,,,,,,,,,,0,0,0,0,240,0,240,0,,,,,,,240,,,1,587.068664275721,Y,l,go,l,1,,0.3240755232691299,,,,,,,,,,,,,,,,16,001,20,w,Psychologie,2023-01-12_08h58.45.337,00_bat_bachelor,2022.2.4,59.865350069776945,
,,,,,,,,,,,,0,0,0,0,241,0,241,0,,,,,,,241,,,1,588.5029869105492,X,d,go,d,1,,0.3133962453866843,,,,,,,,,,,,,,,,16,001,20,w,Psychologie,2023-01-12_08h58.45.337,00_bat_bachelor,2022.2.4,59.865350069776945,
,,,,,,,,,,,,0,0,0,0,242,0,242,0,,,,,,,242,,,1,589.9207422645995,Y,l,go,l,1,,0.28765659654163755,,,,,,,,,,,,,,,,16,001,20,w,Psychologie,2023-01-12_08h58.45.337,00_bat_bachelor,2022.2.4,59.865350069776945,
,,,,,,,,,,,,0,0,0,0,243,0,243,0,,,,,,,243,,,1,591.3220374894736,Y,None,nogo,None,1,,,,,,,,,,,,,,,,,,16,001,20,w,Psychologie,2023-01-12_08h58.45.337,00_bat_bachelor,2022.2.4,59.865350069776945,
,,,,,,,,,,,,0,0,0,0,244,0,244,0,,,,,,,244,,,1,593.1233935143682,X,d,go,d,1,,0.2208686853700783,,,,,,,,,,,,,,,,16,001,20,w,Psychologie,2023-01-12_08h58.45.337,00_bat_bachelor,2022.2.4,59.865350069776945,
,,,,,,,,,,,,0,0,0,0,245,0,245,0,,,,,,,245,,,1,594.4579308886896,Y,l,go,l,1,,0.42245860130060464,,,,,,,,,,,,,,,,16,001,20,w,Psychologie,2023-01-12_08h58.45.337,00_bat_bachelor,2022.2.4,59.865350069776945,
,,,,,,,,,,,,0,0,0,0,246,0,246,0,,,,,,,246,,,1,595.9922758750326,X,d,go,d,1,,0.3920236774429213,,,,,,,,,,,,,,,,16,001,20,w,Psychologie,2023-01-12_08h58.45.337,00_bat_bachelor,2022.2.4,59.865350069776945,
,,,,,,,,,,,,0,0,0,0,247,0,247,0,,,,,,,247,,,1,597.4934698150028,Y,l,go,l,1,,0.34744814070290886,,,,,,,,,,,,,,,,16,001,20,w,Psychologie,2023-01-12_08h58.45.337,00_bat_bachelor,2022.2.4,59.865350069776945,
,,,,,,,,,,,,0,0,0,0,248,0,248,0,,,,,,,248,,,1,598.944505185209,Y,None,nogo,None,1,,,,,,,,,,,,,,,,,,16,001,20,w,Psychologie,2023-01-12_08h58.45.337,00_bat_bachelor,2022.2.4,59.865350069776945,
,,,,,,,,,,,,0,0,0,0,249,0,249,0,,,,,,,249,,,1,600.7458263010194,X,d,go,d,1,,0.2785986527451314,,,,,,,,,,,,,,,,16,001,20,w,Psychologie,2023-01-12_08h58.45.337,00_bat_bachelor,2022.2.4,59.865350069776945,
,,,,,,,,,,,,1,0,1,0,0,0,0,0,,,,,,,0,,,0.2,608.4691730759514,X,d,go,d,1,,0.5704523700114805,,,,,,,,601.1353930353362,space,7.092295047274092,,,,,,16,001,20,w,Psychologie,2023-01-12_08h58.45.337,00_bat_bachelor,2022.2.4,59.865350069776945,
,,,,,,,,,,,,1,0,1,0,1,0,1,0,,,,,,,1,,,0.2,609.3865310965048,Y,l,go,l,1,,0.3734806381398812,,,,,,,,,,,,,,,,16,001,20,w,Psychologie,2023-01-12_08h58.45.337,00_bat_bachelor,2022.2.4,59.865350069776945,
,,,,,,,,,,,,1,0,1,0,2,0,2,0,,,,,,,2,,,0.2,610.1035825956787,X,d,go,d,1,,0.4402452766080387,,,,,,,,,,,,,,,,16,001,20,w,Psychologie,2023-01-12_08h58.45.337,00_bat_bachelor,2022.2.4,59.865350069776945,
,,,,,,,,,,,,1,0,1,0,3,0,3,0,,,,,,,3,,,0.2,610.8875121878809,Y,l,go,l,1,,0.4714879583916627,,,,,,,,,,,,,,,,16,001,20,w,Psychologie,2023-01-12_08h58.45.337,00_bat_bachelor,2022.2.4,59.865350069776945,
,,,,,,,,,,,,1,0,1,0,4,0,4,0,,,,,,,4,,,0.2,611.7051504025003,Y,None,nogo,None,1,612.5057360027859,,,,,,,,,,,,,,,,,16,001,20,w,Psychologie,2023-01-12_08h58.45.337,00_bat_bachelor,2022.2.4,59.865350069776945,
,,,,,,,,,,,,1,0,1,0,5,0,5,0,,,,,,,5,,,0.2,612.7055082208535,X,d,go,d,1,,0.28540544395218603,,,,,,,,,,,,,,,,16,001,20,w,Psychologie,2023-01-12_08h58.45.337,00_bat_bachelor,2022.2.4,59.865350069776945,
,,,,,,,,,,,,1,0,1,0,6,0,6,0,,,,,,,6,,,0.2,613.3393727705989,Y,l,go,l,1,,0.5179611930507235,,,,,,,,,,,,,,,,16,001,20,w,Psychologie,2023-01-12_08h58.45.337,00_bat_bachelor,2022.2.4,59.865350069776945,
,,,,,,,,,,,,1,0,1,0,7,0,7,0,,,,,,,7,,,0.2,614.190009304235,Y,None,nogo,None,1,614.9910593896057,,,,,,,,,,,,,,,,,16,001,20,w,Psychologie,2023-01-12_08h58.45.337,00_bat_bachelor,2022.2.4,59.865350069776945,
,,,,,,,,,,,,1,0,1,0,8,0,8,0,,,,,,,8,,,0.2,615.1909639713704,X,d,go,None,0,615.9918366021011,,,,,,,,,,,,,,,,,16,001,20,w,Psychologie,2023-01-12_08h58.45.337,00_bat_bachelor,2022.2.4,59.865350069776945,
,,,,,,,,,,,,1,0,1,0,9,0,9,0,,,,,,,9,,,0.2,616.1915331837663,Y,l,go,l,1,,0.5751752814103384,,,,,,,,,,,,,,,,16,001,20,w,Psychologie,2023-01-12_08h58.45.337,00_bat_bachelor,2022.2.4,59.865350069776945,
,,,,,,,,,,,,1,0,1,0,10,0,10,0,,,,,,,10,,,0.2,617.1090497498517,X,d,go,d,1,,0.39447119378019124,,,,,,,,,,,,,,,,16,001,20,w,Psychologie,2023-01-12_08h58.45.337,00_bat_bachelor,2022.2.4,59.865350069776945,
,,,,,,,,,,,,1,0,1,0,11,0,11,0,,,,,,,11,,,0.2,617.8430229541846,X,None,nogo,None,1,618.6430800693634,,,,,,,,,,,,,,,,,16,001,20,w,Psychologie,2023-01-12_08h58.45.337,00_bat_bachelor,2022.2.4,59.865350069776945,
,,,,,,,,,,,,1,0,1,0,12,0,12,0,,,,,,,12,,,0.2,618.8433909543674,X,None,nogo,None,1,619.6440095243743,,,,,,,,,,,,,,,,,16,001,20,w,Psychologie,2023-01-12_08h58.45.337,00_bat_bachelor,2022.2.4,59.865350069776945,
,,,,,,,,,,,,1,0,1,0,13,0,13,0,,,,,,,13,,,0.2,619.8441240456305,Y,l,go,l,1,,0.4438874601619318,,,,,,,,,,,,,,,,16,001,20,w,Psychologie,2023-01-12_08h58.45.337,00_bat_bachelor,2022.2.4,59.865350069776945,
,,,,,,,,,,,,1,0,1,0,14,0,14,0,,,,,,,14,,,0.2,620.594539924612,X,d,go,d,1,,0.38165858152206056,,,,,,,,,,,,,,,,16,001,20,w,Psychologie,2023-01-12_08h58.45.337,00_bat_bachelor,2022.2.4,59.865350069776945,
,,,,,,,,,,,,1,0,1,0,15,0,15,0,,,,,,,15,,,0.2,621.2952447491989,X,None,nogo,None,1,622.0959908344084,,,,,,,,,,,,,,,,,16,001,20,w,Psychologie,2023-01-12_08h58.45.337,00_bat_bachelor,2022.2.4,59.865350069776945,
,,,,,,,,,,,,1,0,1,0,16,0,16,0,,,,,,,16,,,0.2,622.2960098405019,Y,l,go,l,1,,0.536109080654569,,,,,,,,,,,,,,,,16,001,20,w,Psychologie,2023-01-12_08h58.45.337,00_bat_bachelor,2022.2.4,59.865350069776945,
,,,,,,,,,,,,1,0,1,0,17,0,17,0,,,,,,,17,,,0.2,623.1466929196031,X,d,go,None,0,623.9472159744182,,,,,,,,,,,,,,,,,16,001,20,w,Psychologie,2023-01-12_08h58.45.337,00_bat_bachelor,2022.2.4,59.865350069776945,
,,,,,,,,,,,,1,0,1,0,18,0,18,0,,,,,,,18,,,0.2,624.1472383744258,Y,l,go,l,1,,0.4451970365771558,,,,,,,,,,,,,,,,16,001,20,w,Psychologie,2023-01-12_08h58.45.337,00_bat_bachelor,2022.2.4,59.865350069776945,
,,,,,,,,,,,,1,0,1,0,19,0,19,0,,,,,,,19,,,0.2,624.898132799106,X,d,go,d,1,,0.398322832013946,,,,,,,,,,,,,,,,16,001,20,w,Psychologie,2023-01-12_08h58.45.337,00_bat_bachelor,2022.2.4,59.865350069776945,
,,,,,,,,,,,,1,0,1,0,20,0,20,0,,,,,,,20,,,0.2,625.5982606537,Y,l,go,l,1,,0.6103573590808082,,,,,,,,,,,,,,,,16,001,20,w,Psychologie,2023-01-12_08h58.45.337,00_bat_bachelor,2022.2.4,59.865350069776945,
,,,,,,,,,,,,1,0,1,0,21,0,21,0,,,,,,,21,,,0.2,626.515703037905,Y,None,nogo,None,1,,,,,,,,,,,,,,,,,,16,001,20,w,Psychologie,2023-01-12_08h58.45.337,00_bat_bachelor,2022.2.4,59.865350069776945,
,,,,,,,,,,,,1,0,1,0,22,0,22,0,,,,,,,22,,,0.2,627.5163309170166,X,d,go,d,1,,0.32436837191926315,,,,,,,,,,,,,,,,16,001,20,w,Psychologie,2023-01-12_08h58.45.337,00_bat_bachelor,2022.2.4,59.865350069776945,
,,,,,,,,,,,,1,0,1,0,23,0,23,0,,,,,,,23,,,0.2,628.1501755879726,Y,l,go,l,1,,0.6341837948712055,,,,,,,,,,,,,,,,16,001,20,w,Psychologie,2023-01-12_08h58.45.337,00_bat_bachelor,2022.2.4,59.865350069776945,
,,,,,,,,,,,,1,0,1,0,24,0,24,0,,,,,,,24,,,0.2,629.084005374054,X,d,go,d,1,,0.4199752061686013,,,,,,,,,,,,,,,,16,001,20,w,Psychologie,2023-01-12_08h58.45.337,00_bat_bachelor,2022.2.4,59.865350069776945,
,,,,,,,,,,,,1,0,1,0,25,0,25,0,,,,,,,25,,,0.2,629.8178636692755,Y,l,go,l,1,,0.630141126253875,,,,,,,,,,,,,,,,16,001,20,w,Psychologie,2023-01-12_08h58.45.337,00_bat_bachelor,2022.2.4,59.865350069776945,
,,,,,,,,,,,,1,0,1,0,26,0,26,0,,,,,,,26,,,0.2,630.7520556373638,X,d,go,d,1,,0.5928383202699479,,,,,,,,,,,,,,,,16,001,20,w,Psychologie,2023-01-12_08h58.45.337,00_bat_bachelor,2022.2.4,59.865350069776945,
,,,,,,,,,,,,1,0,1,0,27,0,27,0,,,,,,,27,,,0.2,631.6703363250126,Y,l,go,l,1,,0.5382559907739051,,,,,,,,,,,,,,,,16,001,20,w,Psychologie,2023-01-12_08h58.45.337,00_bat_bachelor,2022.2.4,59.865350069776945,
,,,,,,,,,,,,1,0,1,0,28,0,28,0,,,,,,,28,,,0.2,632.5541306929081,Y,None,nogo,d,0,,0.35704475137754343,,,,,,,,,,,,,,,,16,001,20,w,Psychologie,2023-01-12_08h58.45.337,00_bat_bachelor,2022.2.4,59.865350069776945,
,,,,,,,,,,,,1,0,1,0,29,0,29,0,,,,,,,29,,,0.2,633.2545950325439,X,d,go,None,0,634.0556266936474,,,,,,,,,,,,,,,,,16,001,20,w,Psychologie,2023-01-12_08h58.45.337,00_bat_bachelor,2022.2.4,59.865350069776945,
,,,,,,,,,,,,1,0,1,0,30,0,30,0,,,,,,,30,,,0.2,634.2554532147769,Y,l,go,None,0,635.0563757849159,,,,,,,,,,,,,,,,,16,001,20,w,Psychologie,2023-01-12_08h58.45.337,00_bat_bachelor,2022.2.4,59.865350069776945,
,,,,,,,,,,,,1,0,1,0,31,0,31,0,,,,,,,31,,,0.2,635.2560636393027,X,d,go,d,1,,0.3597880254383199,,,,,,,,,,,,,,,,16,001,20,w,Psychologie,2023-01-12_08h58.45.337,00_bat_bachelor,2022.2.4,59.865350069776945,
,,,,,,,,,,,,1,0,1,0,32,0,32,0,,,,,,,32,,,0.2,635.9566535547492,Y,l,go,l,1,,0.3948901030817069,,,,,,,,,,,,,,,,16,001,20,w,Psychologie,2023-01-12_08h58.45.337,00_bat_bachelor,2022.2.4,59.865350069776945,
,,,,,,,,,,,,1,0,1,0,33,0,33,0,,,,,,,33,,,0.2,636.6906762136496,X,d,go,d,1,,0.316732004575897,,,,,,,,,,,,,,,,16,001,20,w,Psychologie,2023-01-12_08h58.45.337,00_bat_bachelor,2022.2.4,59.865350069776945,
,,,,,,,,,,,,1,0,1,0,34,0,34,0,,,,,,,34,,,0.2,637.3410993168945,Y,l,go,l,1,,0.35468741692602634,,,,,,,,,,,,,,,,16,001,20,w,Psychologie,2023-01-12_08h58.45.337,00_bat_bachelor,2022.2.4,59.865350069776945,
,,,,,,,,,,,,1,0,1,0,35,0,35,0,,,,,,,35,,,0.2,638.0412586866587,X,d,go,d,1,,0.4382612756162416,,,,,,,,,,,,,,,,16,001,20,w,Psychologie,2023-01-12_08h58.45.337,00_bat_bachelor,2022.2.4,59.865350069776945,
,,,,,,,,,,,,1,0,1,0,36,0,36,0,,,,,,,36,,,0.2,638.7917865657073,X,None,nogo,None,1,639.5926524085517,,,,,,,,,,,,,,,,,16,001,20,w,Psychologie,2023-01-12_08h58.45.337,00_bat_bachelor,2022.2.4,59.865350069776945,
,,,,,,,,,,,,1,0,1,0,37,0,37,0,,,,,,,37,,,0.2,639.7927693540696,X,None,nogo,None,1,640.5936041665846,,,,,,,,,,,,,,,,,16,001,20,w,Psychologie,2023-01-12_08h58.45.337,00_bat_bachelor,2022.2.4,59.865350069776945,
,,,,,,,,,,,,1,0,1,0,38,0,38,0,,,,,,,38,,,0.2,640.7936876575404,Y,l,go,l,1,,0.3734287593397312,,,,,,,,,,,,,,,,16,001,20,w,Psychologie,2023-01-12_08h58.45.337,00_bat_bachelor,2022.2.4,59.865350069776945,
,,,,,,,,,,,,1,0,1,0,39,0,39,0,,,,,,,39,,,0.2,641.4940826637903,X,d,go,d,1,,0.5218603464600164,,,,,,,,,,,,,,,,16,001,20,w,Psychologie,2023-01-12_08h58.45.337,00_bat_bachelor,2022.2.4,59.865350069776945,
,,,,,,,,,,,,1,0,1,0,40,0,40,0,,,,,,,40,,,0.2,642.3281863409502,Y,l,go,l,1,,0.4245017538196407,,,,,,,,,,,,,,,,16,001,20,w,Psychologie,2023-01-12_08h58.45.337,00_bat_bachelor,2022.2.4,59.865350069776945,
,,,,,,,,,,,,1,0,1,0,41,0,41,0,,,,,,,41,,,0.2,643.0784698562347,Y,None,nogo,None,1,643.8792207899387,,,,,,,,,,,,,,,,,16,001,20,w,Psychologie,2023-01-12_08h58.45.337,00_bat_bachelor,2022.2.4,59.865350069776945,
,,,,,,,,,,,,1,0,1,0,42,0,42,0,,,,,,,42,,,0.2,644.0794274324435,X,d,go,d,1,,0.384694219334051,,,,,,,,,,,,,,,,16,001,20,w,Psychologie,2023-01-12_08h58.45.337,00_bat_bachelor,2022.2.4,59.865350069776945,
,,,,,,,,,,,,1,0,1,0,43,0,43,0,,,,,,,43,,,0.2,644.7798728629714,Y,l,go,l,1,,0.6608208986872341,,,,,,,,,,,,,,,,16,001,20,w,Psychologie,2023-01-12_08h58.45.337,00_bat_bachelor,2022.2.4,59.865350069776945,
,,,,,,,,,,,,1,0,1,0,44,0,44,0,,,,,,,44,,,0.2,645.7471407259,X,d,go,d,1,,0.30086484536877833,,,,,,,,,,,,,,,,16,001,20,w,Psychologie,2023-01-12_08h58.45.337,00_bat_bachelor,2022.2.4,59.865350069776945,
,,,,,,,,,,,,1,0,1,0,45,0,45,0,,,,,,,45,,,0.2,646.3811706090637,Y,l,go,l,1,,0.4990613051049877,,,,,,,,,,,,,,,,16,001,20,w,Psychologie,2023-01-12_08h58.45.337,00_bat_bachelor,2022.2.4,59.865350069776945,
,,,,,,,,,,,,1,0,1,0,46,0,46,0,,,,,,,46,,,0.2,647.1816616638389,Y,None,nogo,d,0,,0.3233050986600574,,,,,,,,,,,,,,,,16,001,20,w,Psychologie,2023-01-12_08h58.45.337,00_bat_bachelor,2022.2.4,59.865350069776945,
,,,,,,,,,,,,1,0,1,0,47,0,47,0,,,,,,,47,,,0.2,647.8153599104844,X,d,go,None,0,,,,,,,,,,,,,,,,,,16,001,20,w,Psychologie,2023-01-12_08h58.45.337,00_bat_bachelor,2022.2.4,59.865350069776945,
,,,,,,,,,,,,1,0,1,0,48,0,48,0,,,,,,,48,,,0.2,648.8158578501025,Y,l,go,None,0,649.6167619960033,,,,,,,,,,,,,,,,,16,001,20,w,Psychologie,2023-01-12_08h58.45.337,00_bat_bachelor,2022.2.4,59.865350069776945,
,,,,,,,,,,,,1,0,1,0,49,0,49,0,,,,,,,49,,,0.2,649.8166297292628,Y,None,nogo,d,0,,0.03876386981573887,,,,,,,,,,,,,,,,16,001,20,w,Psychologie,2023-01-12_08h58.45.337,00_bat_bachelor,2022.2.4,59.865350069776945,
,,,,,,,,,,,,1,0,1,0,50,0,50,0,,,,,,,50,,,0.2,650.1670803234447,X,d,go,None,0,650.9676911358547,,,,,,,,,,,,,,,,,16,001,20,w,Psychologie,2023-01-12_08h58.45.337,00_bat_bachelor,2022.2.4,59.865350069776945,
,,,,,,,,,,,,1,0,1,0,51,0,51,0,,,,,,,51,,,0.2,651.1678672328999,Y,l,go,l,1,,0.35184426401974633,,,,,,,,,,,,,,,,16,001,20,w,Psychologie,2023-01-12_08h58.45.337,00_bat_bachelor,2022.2.4,59.865350069776945,
,,,,,,,,,,,,1,0,1,0,52,0,52,0,,,,,,,52,,,0.2,651.8349836775742,X,d,go,None,0,652.6354485505144,,,,,,,,,,,,,,,,,16,001,20,w,Psychologie,2023-01-12_08h58.45.337,00_bat_bachelor,2022.2.4,59.865350069776945,
,,,,,,,,,,,,1,0,1,0,53,0,53,0,,,,,,,53,,,0.2,652.8357894961373,X,None,nogo,d,0,,0.5082826428988483,,,,,,,,,,,,,,,,16,001,20,w,Psychologie,2023-01-12_08h58.45.337,00_bat_bachelor,2022.2.4,59.865350069776945,
,,,,,,,,,,,,1,0,1,0,54,0,54,0,,,,,,,54,,,0.2,653.6530422560172,Y,l,go,None,0,,,,,,,,,,,,,,,,,,16,001,20,w,Psychologie,2023-01-12_08h58.45.337,00_bat_bachelor,2022.2.4,59.865350069776945,
,,,,,,,,,,,,1,0,1,0,55,0,55,0,,,,,,,55,,,0.2,654.65369195331,X,d,go,d,1,,0.3548949321557302,,,,,,,,,,,,,,,,16,001,20,w,Psychologie,2023-01-12_08h58.45.337,00_bat_bachelor,2022.2.4,59.865350069776945,
,,,,,,,,,,,,1,0,1,0,56,0,56,0,,,,,,,56,,,0.2,655.3208491252735,Y,l,go,l,1,,0.4558583750622347,,,,,,,,,,,,,,,,16,001,20,w,Psychologie,2023-01-12_08h58.45.337,00_bat_bachelor,2022.2.4,59.865350069776945,
,,,,,,,,,,,,1,0,1,0,57,0,57,0,,,,,,,57,,,0.2,656.0880882851197,Y,None,nogo,None,1,,,,,,,,,,,,,,,,,,16,001,20,w,Psychologie,2023-01-12_08h58.45.337,00_bat_bachelor,2022.2.4,59.865350069776945,
,,,,,,,,,,,,1,0,1,0,58,0,58,0,,,,,,,58,,,0.2,657.088850952161,X,d,go,d,1,,0.36770705960225314,,,,,,,,,,,,,,,,16,001,20,w,Psychologie,2023-01-12_08h58.45.337,00_bat_bachelor,2022.2.4,59.865350069776945,
,,,,,,,,,,,,1,0,1,0,59,0,59,0,,,,,,,59,,,0.2,657.7727630413428,Y,l,go,None,0,,,,,,,,,,,,,,,,,,16,001,20,w,Psychologie,2023-01-12_08h58.45.337,00_bat_bachelor,2022.2.4,59.865350069776945,
,,,,,,,,,,,,1,0,1,0,60,0,60,0,,,,,,,60,,,0.2,658.7735155265545,Y,None,nogo,None,1,,,,,,,,,,,,,,,,,,16,001,20,w,Psychologie,2023-01-12_08h58.45.337,00_bat_bachelor,2022.2.4,59.865350069776945,
,,,,,,,,,,,,1,0,1,0,61,0,61,0,,,,,,,61,,,0.2,659.7740178298263,X,d,go,d,1,,0.3538646286469884,,,,,,,,,,,,,,,,16,001,20,w,Psychologie,2023-01-12_08h58.45.337,00_bat_bachelor,2022.2.4,59.865350069776945,
,,,,,,,,,,,,1,0,1,0,62,0,62,0,,,,,,,62,,,0.2,660.4414552443486,Y,l,go,l,1,,0.5670758835331071,,,,,,,,,,,,,,,,16,001,20,w,Psychologie,2023-01-12_08h58.45.337,00_bat_bachelor,2022.2.4,59.865350069776945,
,,,,,,,,,,,,1,0,1,0,63,0,63,0,,,,,,,63,,,0.2,661.3087599072896,Y,None,nogo,None,1,,,,,,,,,,,,,,,,,,16,001,20,w,Psychologie,2023-01-12_08h58.45.337,00_bat_bachelor,2022.2.4,59.865350069776945,
,,,,,,,,,,,,1,0,1,0,64,0,64,0,,,,,,,64,,,0.2,662.3095007561205,X,d,go,d,1,,0.3948198000143748,,,,,,,,,,,,,,,,16,001,20,w,Psychologie,2023-01-12_08h58.45.337,00_bat_bachelor,2022.2.4,59.865350069776945,
,,,,,,,,,,,,1,0,1,0,65,0,65,0,,,,,,,65,,,0.2,663.0100693382265,Y,l,go,l,1,,0.47913450756459497,,,,,,,,,,,,,,,,16,001,20,w,Psychologie,2023-01-12_08h58.45.337,00_bat_bachelor,2022.2.4,59.865350069776945,
,,,,,,,,,,,,1,0,1,0,66,0,66,0,,,,,,,66,,,0.2,663.7939877788885,Y,None,nogo,None,1,,,,,,,,,,,,,,,,,,16,001,20,w,Psychologie,2023-01-12_08h58.45.337,00_bat_bachelor,2022.2.4,59.865350069776945,
,,,,,,,,,,,,1,0,1,0,67,0,67,0,,,,,,,67,,,0.2,664.794766930805,X,d,go,d,1,,0.30990775884129107,,,,,,,,,,,,,,,,16,001,20,w,Psychologie,2023-01-12_08h58.45.337,00_bat_bachelor,2022.2.4,59.865350069776945,
,,,,,,,,,,,,1,0,1,0,68,0,68,0,,,,,,,68,,,0.2,665.4115900177276,Y,l,go,l,1,,0.5557856962550431,,,,,,,,,,,,,,,,16,001,20,w,Psychologie,2023-01-12_08h58.45.337,00_bat_bachelor,2022.2.4,59.865350069776945,
,,,,,,,,,,,,1,0,1,0,69,0,69,0,,,,,,,69,,,0.2,666.2967128711462,Y,None,nogo,None,1,667.0975457442692,,,,,,,,,,,,,,,,,16,001,20,w,Psychologie,2023-01-12_08h58.45.337,00_bat_bachelor,2022.2.4,59.865350069776945,
,,,,,,,,,,,,1,0,1,0,70,0,70,0,,,,,,,70,,,0.2,667.2973087502178,X,d,go,d,1,,0.22201826170203276,,,,,,,,,,,,,,,,16,001,20,w,Psychologie,2023-01-12_08h58.45.337,00_bat_bachelor,2022.2.4,59.865350069776945,
,,,,,,,,,,,,1,0,1,0,71,0,71,0,,,,,,,71,,,0.2,667.8643146008835,Y,l,go,l,1,,0.5828916487807874,,,,,,,,,,,,,,,,16,001,20,w,Psychologie,2023-01-12_08h58.45.337,00_bat_bachelor,2022.2.4,59.865350069776945,
,,,,,,,,,,,,1,0,1,0,72,0,72,0,,,,,,,72,,,0.2,668.7819741973071,X,d,go,d,1,,0.6574007758172229,,,,,,,,,,,,,,,,16,001,20,w,Psychologie,2023-01-12_08h58.45.337,00_bat_bachelor,2022.2.4,59.865350069776945,
,,,,,,,,,,,,1,0,1,0,73,0,73,0,,,,,,,73,,,0.2,669.7826098339865,Y,l,go,l,1,,0.4084392005461268,,,,,,,,,,,,,,,,16,001,20,w,Psychologie,2023-01-12_08h58.45.337,00_bat_bachelor,2022.2.4,59.865350069776945,
,,,,,,,,,,,,1,0,1,0,74,0,74,0,,,,,,,74,,,0.2,670.5327294704039,Y,None,nogo,None,1,671.3334721616702,,,,,,,,,,,,,,,,,16,001,20,w,Psychologie,2023-01-12_08h58.45.337,00_bat_bachelor,2022.2.4,59.865350069776945,
,,,,,,,,,,,,1,0,1,0,75,0,75,0,,,,,,,75,,,0.2,671.5336938345281,Y,None,nogo,None,1,672.3340520407655,,,,,,,,,,,,,,,,,16,001,20,w,Psychologie,2023-01-12_08h58.45.337,00_bat_bachelor,2022.2.4,59.865350069776945,
,,,,,,,,,,,,1,0,1,0,76,0,76,0,,,,,,,76,,,0.2,672.5341345620109,X,d,go,d,1,,0.25039597242721356,,,,,,,,,,,,,,,,16,001,20,w,Psychologie,2023-01-12_08h58.45.337,00_bat_bachelor,2022.2.4,59.865350069776945,
,,,,,,,,,,,,1,0,1,0,77,0,77,0,,,,,,,77,,,0.2,673.084419434861,Y,l,go,l,1,,0.6597648981551174,,,,,,,,,,,,,,,,16,001,20,w,Psychologie,2023-01-12_08h58.45.337,00_bat_bachelor,2022.2.4,59.865350069776945,
,,,,,,,,,,,,1,0,1,0,78,0,78,0,,,,,,,78,,,0.2,674.0517663281353,Y,None,nogo,None,1,,,,,,,,,,,,,,,,,,16,001,20,w,Psychologie,2023-01-12_08h58.45.337,00_bat_bachelor,2022.2.4,59.865350069776945,
,,,,,,,,,,,,1,0,1,0,79,0,79,0,,,,,,,79,,,0.2,675.052748146787,X,d,go,d,1,,0.26032518935971893,,,,,,,,,,,,,,,,16,001,20,w,Psychologie,2023-01-12_08h58.45.337,00_bat_bachelor,2022.2.4,59.865350069776945,
,,,,,,,,,,,,1,0,1,0,80,0,80,0,,,,,,,80,,,0.2,675.61931326997,Y,l,go,l,1,,0.4455403094762005,,,,,,,,,,,,,,,,16,001,20,w,Psychologie,2023-01-12_08h58.45.337,00_bat_bachelor,2022.2.4,59.865350069776945,
,,,,,,,,,,,,1,0,1,0,81,0,81,0,,,,,,,81,,,0.2,676.3700370278966,X,d,go,d,1,,0.6212674249545671,,,,,,,,,,,,,,,,16,001,20,w,Psychologie,2023-01-12_08h58.45.337,00_bat_bachelor,2022.2.4,59.865350069776945,
,,,,,,,,,,,,1,0,1,0,82,0,82,0,,,,,,,82,,,0.2,677.3043167536089,Y,l,go,l,1,,0.4240479354048148,,,,,,,,,,,,,,,,16,001,20,w,Psychologie,2023-01-12_08h58.45.337,00_bat_bachelor,2022.2.4,59.865350069776945,
,,,,,,,,,,,,1,0,1,0,83,0,83,0,,,,,,,83,,,0.2,678.0378613516805,X,d,go,d,1,,0.4271674520568922,,,,,,,,,,,,,,,,16,001,20,w,Psychologie,2023-01-12_08h58.45.337,00_bat_bachelor,2022.2.4,59.865350069776945,
,,,,,,,,,,,,1,0,1,0,84,0,84,0,,,,,,,84,,,0.2,678.7720328591531,X,None,nogo,None,1,,,,,,,,,,,,,,,,,,16,001,20,w,Psychologie,2023-01-12_08h58.45.337,00_bat_bachelor,2022.2.4,59.865350069776945,
,,,,,,,,,,,,1,0,1,0,85,0,85,0,,,,,,,85,,,0.2,679.7728023140808,X,None,nogo,None,1,680.5733607628499,,,,,,,,,,,,,,,,,16,001,20,w,Psychologie,2023-01-12_08h58.45.337,00_bat_bachelor,2022.2.4,59.865350069776945,
,,,,,,,,,,,,1,0,1,0,86,0,86,0,,,,,,,86,,,0.2,680.7735945569002,Y,l,go,l,1,,0.5708722490235232,,,,,,,,,,,,,,,,16,001,20,w,Psychologie,2023-01-12_08h58.45.337,00_bat_bachelor,2022.2.4,59.865350069776945,
,,,,,,,,,,,,1,0,1,0,87,0,87,0,,,,,,,87,,,0.2,681.6575610461005,X,d,go,d,1,,0.32674510034848936,,,,,,,,,,,,,,,,16,001,20,w,Psychologie,2023-01-12_08h58.45.337,00_bat_bachelor,2022.2.4,59.865350069776945,
,,,,,,,,,,,,1,0,1,0,88,0,88,0,,,,,,,88,,,0.2,682.2914352928055,X,None,nogo,None,1,,,,,,,,,,,,,,,,,,16,001,20,w,Psychologie,2023-01-12_08h58.45.337,00_bat_bachelor,2022.2.4,59.865350069776945,
,,,,,,,,,,,,1,0,1,0,89,0,89,0,,,,,,,89,,,0.2,683.2922057174437,Y,l,go,l,1,,0.4202569032495376,,,,,,,,,,,,,,,,16,001,20,w,Psychologie,2023-01-12_08h58.45.337,00_bat_bachelor,2022.2.4,59.865350069776945,
,,,,,,,,,,,,1,0,1,0,90,0,90,0,,,,,,,90,,,0.2,684.0261619520898,X,d,go,d,1,,0.4389943668793421,,,,,,,,,,,,,,,,16,001,20,w,Psychologie,2023-01-12_08h58.45.337,00_bat_bachelor,2022.2.4,59.865350069776945,
,,,,,,,,,,,,1,0,1,0,91,0,91,0,,,,,,,91,,,0.2,684.7766340735252,Y,l,go,l,1,,0.551255754660815,,,,,,,,,,,,,,,,16,001,20,w,Psychologie,2023-01-12_08h58.45.337,00_bat_bachelor,2022.2.4,59.865350069776945,
,,,,,,,,,,,,1,0,1,0,92,0,92,0,,,,,,,92,,,0.2,685.6438674636884,X,d,go,d,1,,0.40436210768530145,,,,,,,,,,,,,,,,16,001,20,w,Psychologie,2023-01-12_08h58.45.337,00_bat_bachelor,2022.2.4,59.865350069776945,
,,,,,,,,,,,,1,0,1,0,93,0,93,0,,,,,,,93,,,0.2,686.3609693871404,X,None,nogo,None,1,,,,,,,,,,,,,,,,,,16,001,20,w,Psychologie,2023-01-12_08h58.45.337,00_bat_bachelor,2022.2.4,59.865350069776945,
,,,,,,,,,,,,1,0,1,0,94,0,94,0,,,,,,,94,,,0.2,687.3619769027864,Y,l,go,l,1,,0.4295514532132074,,,,,,,,,,,,,,,,16,001,20,w,Psychologie,2023-01-12_08h58.45.337,00_bat_bachelor,2022.2.4,59.865350069776945,
,,,,,,,,,,,,1,0,1,0,95,0,95,0,,,,,,,95,,,0.2,688.0956310766633,X,d,go,d,1,,0.33635383227374405,,,,,,,,,,,,,,,,16,001,20,w,Psychologie,2023-01-12_08h58.45.337,00_bat_bachelor,2022.2.4,59.865350069776945,
,,,,,,,,,,,,1,0,1,0,96,0,96,0,,,,,,,96,,,0.2,688.7463659376372,Y,l,go,l,1,,0.4381036997947376,,,,,,,,,,,,,,,,16,001,20,w,Psychologie,2023-01-12_08h58.45.337,00_bat_bachelor,2022.2.4,59.865350069776945,
,,,,,,,,,,,,1,0,1,0,97,0,97,0,,,,,,,97,,,0.2,689.4969936955022,X,d,go,d,1,,0.3123484873212874,,,,,,,,,,,,,,,,16,001,20,w,Psychologie,2023-01-12_08h58.45.337,00_bat_bachelor,2022.2.4,59.865350069776945,
,,,,,,,,,,,,1,0,1,0,98,0,98,0,,,,,,,98,,,0.2,690.1138308430673,Y,l,go,l,1,,0.3981056197953876,,,,,,,,,,,,,,,,16,001,20,w,Psychologie,2023-01-12_08h58.45.337,00_bat_bachelor,2022.2.4,59.865350069776945,
,,,,,,,,,,,,1,0,1,0,99,0,99,0,,,,,,,99,,,0.2,690.8143955463602,X,d,go,d,1,,0.3208944308280479,,,,,,,,,,,,,,,,16,001,20,w,Psychologie,2023-01-12_08h58.45.337,00_bat_bachelor,2022.2.4,59.865350069776945,
,,,,,,,,,,,,1,0,1,0,100,0,100,0,,,,,,,100,,,0.2,691.4484302780183,Y,l,go,l,1,,0.392186586628668,,,,,,,,,,,,,,,,16,001,20,w,Psychologie,2023-01-12_08h58.45.337,00_bat_bachelor,2022.2.4,59.865350069776945,
,,,,,,,,,,,,1,0,1,0,101,0,101,0,,,,,,,101,,,0.2,692.1486250417656,Y,None,nogo,d,0,,0.3797303381434176,,,,,,,,,,,,,,,,16,001,20,w,Psychologie,2023-01-12_08h58.45.337,00_bat_bachelor,2022.2.4,59.865350069776945,
,,,,,,,,,,,,1,0,1,0,102,0,102,0,,,,,,,102,,,0.2,692.8327790704498,X,d,go,None,0,,,,,,,,,,,,,,,,,,16,001,20,w,Psychologie,2023-01-12_08h58.45.337,00_bat_bachelor,2022.2.4,59.865350069776945,
,,,,,,,,,,,,1,0,1,0,103,0,103,0,,,,,,,103,,,0.2,693.8332736161246,Y,l,go,l,1,,0.21547134942375124,,,,,,,,,,,,,,,,16,001,20,w,Psychologie,2023-01-12_08h58.45.337,00_bat_bachelor,2022.2.4,59.865350069776945,
,,,,,,,,,,,,1,0,1,0,104,0,104,0,,,,,,,104,,,0.2,694.3505931396794,Y,None,nogo,d,0,,0.338129833136918,,,,,,,,,,,,,,,,16,001,20,w,Psychologie,2023-01-12_08h58.45.337,00_bat_bachelor,2022.2.4,59.865350069776945,
,,,,,,,,,,,,1,0,1,0,105,0,105,0,,,,,,,105,,,0.2,695.0008795155736,X,d,go,None,0,,,,,,,,,,,,,,,,,,16,001,20,w,Psychologie,2023-01-12_08h58.45.337,00_bat_bachelor,2022.2.4,59.865350069776945,
,,,,,,,,,,,,1,0,1,0,106,0,106,0,,,,,,,106,,,0.2,696.0018681221118,Y,l,go,l,1,,0.31867818732280284,,,,,,,,,,,,,,,,16,001,20,w,Psychologie,2023-01-12_08h58.45.337,00_bat_bachelor,2022.2.4,59.865350069776945,
,,,,,,,,,,,,1,0,1,0,107,0,107,0,,,,,,,107,,,0.2,696.6357278233918,Y,None,nogo,d,0,,0.2924987807055004,,,,,,,,,,,,,,,,16,001,20,w,Psychologie,2023-01-12_08h58.45.337,00_bat_bachelor,2022.2.4,59.865350069776945,
,,,,,,,,,,,,1,0,1,0,108,0,108,0,,,,,,,108,,,0.2,697.2362081145111,X,d,go,None,0,,,,,,,,,,,,,,,,,,16,001,20,w,Psychologie,2023-01-12_08h58.45.337,00_bat_bachelor,2022.2.4,59.865350069776945,
,,,,,,,,,,,,1,0,1,0,109,0,109,0,,,,,,,109,,,0.2,698.2369688421604,Y,l,go,l,1,,0.27621610614005476,,,,,,,,,,,,,,,,16,001,20,w,Psychologie,2023-01-12_08h58.45.337,00_bat_bachelor,2022.2.4,59.865350069776945,
,,,,,,,,,,,,1,0,1,0,110,0,110,0,,,,,,,110,,,0.2,698.8207296100445,X,d,go,d,1,,0.3325269213237334,,,,,,,,,,,,,,,,16,001,20,w,Psychologie,2023-01-12_08h58.45.337,00_bat_bachelor,2022.2.4,59.865350069776945,
,,,,,,,,,,,,1,0,1,0,111,0,111,0,,,,,,,111,,,0.2,699.4542009474826,X,None,nogo,None,1,,,,,,,,,,,,,,,,,,16,001,20,w,Psychologie,2023-01-12_08h58.45.337,00_bat_bachelor,2022.2.4,59.865350069776945,
,,,,,,,,,,,,1,0,1,0,112,0,112,0,,,,,,,112,,,0.2,700.4553408268257,Y,l,go,None,0,,,,,,,,,,,,,,,,,,16,001,20,w,Psychologie,2023-01-12_08h58.45.337,00_bat_bachelor,2022.2.4,59.865350069776945,
,,,,,,,,,,,,1,0,1,0,113,0,113,0,,,,,,,113,,,0.2,701.4560244635213,X,d,go,None,0,,,,,,,,,,,,,,,,,,16,001,20,w,Psychologie,2023-01-12_08h58.45.337,00_bat_bachelor,2022.2.4,59.865350069776945,
,,,,,,,,,,,,1,0,1,0,114,0,114,0,,,,,,,114,,,0.2,702.4568264033005,X,None,nogo,l,0,,0.21565171316615306,,,,,,,,,,,,,,,,16,001,20,w,Psychologie,2023-01-12_08h58.45.337,00_bat_bachelor,2022.2.4,59.865350069776945,
,,,,,,,,,,,,1,0,1,0,115,0,115,0,,,,,,,115,,,0.2,702.9738361085183,Y,l,go,None,0,703.7744464360876,,,,,,,,,,,,,,,,,16,001,20,w,Psychologie,2023-01-12_08h58.45.337,00_bat_bachelor,2022.2.4,59.865350069776945,
,,,,,,,,,,,,1,0,1,0,116,0,116,0,,,,,,,116,,,0.2,703.9746104119404,X,d,go,d,1,,0.3460697157715913,,,,,,,,,,,,,,,,16,001,20,w,Psychologie,2023-01-12_08h58.45.337,00_bat_bachelor,2022.2.4,59.865350069776945,
,,,,,,,,,,,,1,0,1,0,117,0,117,0,,,,,,,117,,,0.2,704.6251125455019,Y,l,go,l,1,,0.49559075795696117,,,,,,,,,,,,,,,,16,001,20,w,Psychologie,2023-01-12_08h58.45.337,00_bat_bachelor,2022.2.4,59.865350069776945,
,,,,,,,,,,,,1,0,1,0,118,0,118,0,,,,,,,118,,,0.2,705.425719479128,Y,None,nogo,None,1,706.2261659278302,,,,,,,,,,,,,,,,,16,001,20,w,Psychologie,2023-01-12_08h58.45.337,00_bat_bachelor,2022.2.4,59.865350069776945,
,,,,,,,,,,,,1,0,1,0,119,0,119,0,,,,,,,119,,,0.2,706.42648263101,X,d,go,d,1,,0.1662305982899852,,,,,,,,,,,,,,,,16,001,20,w,Psychologie,2023-01-12_08h58.45.337,00_bat_bachelor,2022.2.4,59.865350069776945,
,,,,,,,,,,,,1,0,1,0,120,0,120,0,,,,,,,120,,,0.2,706.8933487967879,Y,l,go,l,1,,0.5957095943740569,,,,,,,,,,,,,,,,16,001,20,w,Psychologie,2023-01-12_08h58.45.337,00_bat_bachelor,2022.2.4,59.865350069776945,
,,,,,,,,,,,,1,0,1,0,121,0,121,0,,,,,,,121,,,0.2,707.7942306881014,Y,None,nogo,d,0,,0.4308794538665097,,,,,,,,,,,,,,,,16,001,20,w,Psychologie,2023-01-12_08h58.45.337,00_bat_bachelor,2022.2.4,59.865350069776945,
,,,,,,,,,,,,1,0,1,0,122,0,122,0,,,,,,,122,,,0.2,708.5280914075556,X,d,go,None,0,,,,,,,,,,,,,,,,,,16,001,20,w,Psychologie,2023-01-12_08h58.45.337,00_bat_bachelor,2022.2.4,59.865350069776945,
,,,,,,,,,,,,1,0,1,0,123,0,123,0,,,,,,,123,,,0.2,709.5288419533754,Y,l,go,None,0,,,,,,,,,,,,,,,,,,16,001,20,w,Psychologie,2023-01-12_08h58.45.337,00_bat_bachelor,2022.2.4,59.865350069776945,
,,,,,,,,,,,,1,0,1,0,124,0,124,0,,,,,,,124,,,0.2,710.5295158931112,X,d,go,d,1,,0.3671179684170056,,,,,,,,,,,,,,,,16,001,20,w,Psychologie,2023-01-12_08h58.45.337,00_bat_bachelor,2022.2.4,59.865350069776945,
,,,,,,,,,,,,1,0,1,0,125,0,125,0,,,,,,,125,,,0.2,711.1968160954129,X,None,nogo,None,1,,,,,,,,,,,,,,,,,,16,001,20,w,Psychologie,2023-01-12_08h58.45.337,00_bat_bachelor,2022.2.4,59.865350069776945,
,,,,,,,,,,,,1,0,1,0,126,0,126,0,,,,,,,126,,,0.2,712.1976068836811,Y,l,go,l,1,,0.15406962268752977,,,,,,,,,,,,,,,,16,001,20,w,Psychologie,2023-01-12_08h58.45.337,00_bat_bachelor,2022.2.4,59.865350069776945,
,,,,,,,,,,,,1,0,1,0,127,0,127,0,,,,,,,127,,,0.2,712.664666988916,X,d,go,None,0,,,,,,,,,,,,,,,,,,16,001,20,w,Psychologie,2023-01-12_08h58.45.337,00_bat_bachelor,2022.2.4,59.865350069776945,
,,,,,,,,,,,,1,0,1,0,128,0,128,0,,,,,,,128,,,0.2,713.6651552316034,X,None,nogo,None,1,,,,,,,,,,,,,,,,,,16,001,20,w,Psychologie,2023-01-12_08h58.45.337,00_bat_bachelor,2022.2.4,59.865350069776945,
,,,,,,,,,,,,1,0,1,0,129,0,129,0,,,,,,,129,,,0.2,714.6659629895585,Y,l,go,None,0,,,,,,,,,,,,,,,,,,16,001,20,w,Psychologie,2023-01-12_08h58.45.337,00_bat_bachelor,2022.2.4,59.865350069776945,
,,,,,,,,,,,,1,0,1,0,130,0,130,0,,,,,,,130,,,0.2,715.666562747414,X,d,go,d,1,,0.07760752498870715,,,,,,,,,,,,,,,,16,001,20,w,Psychologie,2023-01-12_08h58.45.337,00_bat_bachelor,2022.2.4,59.865350069776945,
,,,,,,,,,,,,1,0,1,0,131,0,131,0,,,,,,,131,,,0.2,716.0501963879797,X,None,nogo,None,1,716.850939079246,,,,,,,,,,,,,,,,,16,001,20,w,Psychologie,2023-01-12_08h58.45.337,00_bat_bachelor,2022.2.4,59.865350069776945,
,,,,,,,,,,,,1,0,1,0,132,0,132,0,,,,,,,132,,,0.2,717.0512572369771,Y,l,go,l,1,,0.2777346523362212,,,,,,,,,,,,,,,,16,001,20,w,Psychologie,2023-01-12_08h58.45.337,00_bat_bachelor,2022.2.4,59.865350069776945,
,,,,,,,,,,,,1,0,1,0,133,0,133,0,,,,,,,133,,,0.2,717.6357826112944,X,d,go,d,1,,0.5403243554173969,,,,,,,,,,,,,,,,16,001,20,w,Psychologie,2023-01-12_08h58.45.337,00_bat_bachelor,2022.2.4,59.865350069776945,
,,,,,,,,,,,,1,0,1,0,134,0,134,0,,,,,,,134,,,0.2,718.502923880209,Y,l,go,l,1,,0.44084067080984823,,,,,,,,,,,,,,,,16,001,20,w,Psychologie,2023-01-12_08h58.45.337,00_bat_bachelor,2022.2.4,59.865350069776945,
,,,,,,,,,,,,1,0,1,0,135,0,135,0,,,,,,,135,,,0.2,719.2869591694325,X,d,go,d,1,,0.4242801779473666,,,,,,,,,,,,,,,,16,001,20,w,Psychologie,2023-01-12_08h58.45.337,00_bat_bachelor,2022.2.4,59.865350069776945,
,,,,,,,,,,,,1,0,1,0,136,0,136,0,,,,,,,136,,,0.2,720.0543292384536,X,None,nogo,None,1,720.8551824752358,,,,,,,,,,,,,,,,,16,001,20,w,Psychologie,2023-01-12_08h58.45.337,00_bat_bachelor,2022.2.4,59.865350069776945,
,,,,,,,,,,,,1,0,1,0,137,0,137,0,,,,,,,137,,,0.2,721.0548945720657,Y,l,go,l,1,,0.35209153685718775,,,,,,,,,,,,,,,,16,001,20,w,Psychologie,2023-01-12_08h58.45.337,00_bat_bachelor,2022.2.4,59.865350069776945,
,,,,,,,,,,,,1,0,1,0,138,0,138,0,,,,,,,138,,,0.2,721.7554403662798,X,d,go,d,1,,0.4192939937056508,,,,,,,,,,,,,,,,16,001,20,w,Psychologie,2023-01-12_08h58.45.337,00_bat_bachelor,2022.2.4,59.865350069776945,
,,,,,,,,,,,,1,0,1,0,139,0,139,0,,,,,,,139,,,0.2,722.5228390413686,Y,l,go,l,1,,0.500774760497734,,,,,,,,,,,,,,,,16,001,20,w,Psychologie,2023-01-12_08h58.45.337,00_bat_bachelor,2022.2.4,59.865350069776945,
,,,,,,,,,,,,1,0,1,0,140,0,140,0,,,,,,,140,,,0.2,723.356728900224,X,d,go,d,1,,0.3231038864760194,,,,,,,,,,,,,,,,16,001,20,w,Psychologie,2023-01-12_08h58.45.337,00_bat_bachelor,2022.2.4,59.865350069776945,
,,,,,,,,,,,,1,0,1,0,141,0,141,0,,,,,,,141,,,0.2,724.0238012236659,Y,l,go,l,1,,0.6485261048364919,,,,,,,,,,,,,,,,16,001,20,w,Psychologie,2023-01-12_08h58.45.337,00_bat_bachelor,2022.2.4,59.865350069776945,
,,,,,,,,,,,,1,0,1,0,142,0,142,0,,,,,,,142,,,0.2,724.99138714734,Y,None,nogo,None,1,725.7922743235249,,,,,,,,,,,,,,,,,16,001,20,w,Psychologie,2023-01-12_08h58.45.337,00_bat_bachelor,2022.2.4,59.865350069776945,
,,,,,,,,,,,,1,0,1,0,143,0,143,0,,,,,,,143,,,0.2,725.9921473901195,X,d,go,d,1,,0.32837273748009466,,,,,,,,,,,,,,,,16,001,20,w,Psychologie,2023-01-12_08h58.45.337,00_bat_bachelor,2022.2.4,59.865350069776945,
,,,,,,,,,,,,1,0,1,0,144,0,144,0,,,,,,,144,,,0.2,726.6425894024724,Y,l,go,l,1,,0.49326396896503866,,,,,,,,,,,,,,,,16,001,20,w,Psychologie,2023-01-12_08h58.45.337,00_bat_bachelor,2022.2.4,59.865350069776945,
,,,,,,,,,,,,1,0,1,0,145,0,145,0,,,,,,,145,,,0.2,727.4764147764363,Y,None,nogo,d,0,,0.25201730654225685,,,,,,,,,,,,,,,,16,001,20,w,Psychologie,2023-01-12_08h58.45.337,00_bat_bachelor,2022.2.4,59.865350069776945,
,,,,,,,,,,,,1,0,1,0,146,0,146,0,,,,,,,146,,,0.2,728.0604068171524,X,d,go,None,0,728.8612833266961,,,,,,,,,,,,,,,,,16,001,20,w,Psychologie,2023-01-12_08h58.45.337,00_bat_bachelor,2022.2.4,59.865350069776945,
,,,,,,,,,,,,1,0,1,0,147,0,147,0,,,,,,,147,,,0.2,729.0613382115553,Y,l,go,None,0,729.86203726643,,,,,,,,,,,,,,,,,16,001,20,w,Psychologie,2023-01-12_08h58.45.337,00_bat_bachelor,2022.2.4,59.865350069776945,
,,,,,,,,,,,,1,0,1,0,148,0,148,0,,,,,,,148,,,0.2,730.0621003937558,Y,None,nogo,d,0,,0.03377768557402305,,,,,,,,,,,,,,,,16,001,20,w,Psychologie,2023-01-12_08h58.45.337,00_bat_bachelor,2022.2.4,59.865350069776945,
,,,,,,,,,,,,1,0,1,0,149,0,149,0,,,,,,,149,,,0.2,730.4289873595117,X,d,go,None,0,731.2297557477723,,,,,,,,,,,,,,,,,16,001,20,w,Psychologie,2023-01-12_08h58.45.337,00_bat_bachelor,2022.2.4,59.865350069776945,
,,,,,,,,,,,,1,0,1,0,150,0,150,0,,,,,,,150,,,0.2,731.4294557233807,Y,l,go,l,1,,0.13746840253588744,,,,,,,,,,,,,,,,16,001,20,w,Psychologie,2023-01-12_08h58.45.337,00_bat_bachelor,2022.2.4,59.865350069776945,
,,,,,,,,,,,,1,0,1,0,151,0,151,0,,,,,,,151,,,0.2,731.9131737760908,X,d,go,d,1,,0.2621050690067932,,,,,,,,,,,,,,,,16,001,20,w,Psychologie,2023-01-12_08h58.45.337,00_bat_bachelor,2022.2.4,59.865350069776945,
,,,,,,,,,,,,1,0,1,0,152,0,152,0,,,,,,,152,,,0.2,732.5134989156213,X,None,nogo,l,0,,0.3343315282545518,,,,,,,,,,,,,,,,16,001,20,w,Psychologie,2023-01-12_08h58.45.337,00_bat_bachelor,2022.2.4,59.865350069776945,
,,,,,,,,,,,,1,0,1,0,153,0,153,0,,,,,,,153,,,0.2,733.1639661400986,Y,l,go,None,0,733.9645992555597,,,,,,,,,,,,,,,,,16,001,20,w,Psychologie,2023-01-12_08h58.45.337,00_bat_bachelor,2022.2.4,59.865350069776945,
,,,,,,,,,,,,1,0,1,0,154,0,154,0,,,,,,,154,,,0.2,734.1643399584573,X,d,go,d,1,,0.2352347529376857,,,,,,,,,,,,,,,,16,001,20,w,Psychologie,2023-01-12_08h58.45.337,00_bat_bachelor,2022.2.4,59.865350069776945,
,,,,,,,,,,,,1,0,1,0,155,0,155,0,,,,,,,155,,,0.2,734.7315329607518,Y,l,go,l,1,,0.3253671602869872,,,,,,,,,,,,,,,,16,001,20,w,Psychologie,2023-01-12_08h58.45.337,00_bat_bachelor,2022.2.4,59.865350069776945,
,,,,,,,,,,,,1,0,1,0,156,0,156,0,,,,,,,156,,,0.2,735.3652418740676,X,d,go,d,1,,0.298560844239546,,,,,,,,,,,,,,,,16,001,20,w,Psychologie,2023-01-12_08h58.45.337,00_bat_bachelor,2022.2.4,59.865350069776945,
,,,,,,,,,,,,1,0,1,0,157,0,157,0,,,,,,,157,,,0.2,735.9656673772843,X,None,nogo,None,1,,,,,,,,,,,,,,,,,,16,001,20,w,Psychologie,2023-01-12_08h58.45.337,00_bat_bachelor,2022.2.4,59.865350069776945,
,,,,,,,,,,,,1,0,1,0,158,0,158,0,,,,,,,158,,,0.2,736.966656953533,Y,l,go,l,1,,0.3778811251395382,,,,,,,,,,,,,,,,16,001,20,w,Psychologie,2023-01-12_08h58.45.337,00_bat_bachelor,2022.2.4,59.865350069776945,
,,,,,,,,,,,,1,0,1,0,159,0,159,0,,,,,,,159,,,0.2,737.6503043152916,X,d,go,d,1,,0.31810412646154873,,,,,,,,,,,,,,,,16,001,20,w,Psychologie,2023-01-12_08h58.45.337,00_bat_bachelor,2022.2.4,59.865350069776945,
,,,,,,,,,,,,1,0,1,0,160,0,160,0,,,,,,,160,,,0.2,738.2842430469173,X,None,nogo,None,1,739.0849978594051,,,,,,,,,,,,,,,,,16,001,20,w,Psychologie,2023-01-12_08h58.45.337,00_bat_bachelor,2022.2.4,59.865350069776945,
,,,,,,,,,,,,1,0,1,0,161,0,161,0,,,,,,,161,,,0.2,739.2851933503989,Y,l,go,l,1,,0.3956285276799463,,,,,,,,,,,,,,,,16,001,20,w,Psychologie,2023-01-12_08h58.45.337,00_bat_bachelor,2022.2.4,59.865350069776945,
,,,,,,,,,,,,1,0,1,0,162,0,162,0,,,,,,,162,,,0.2,739.9855922354327,X,d,go,d,1,,0.3341821948706638,,,,,,,,,,,,,,,,16,001,20,w,Psychologie,2023-01-12_08h58.45.337,00_bat_bachelor,2022.2.4,59.865350069776945,
,,,,,,,,,,,,1,0,1,0,163,0,163,0,,,,,,,163,,,0.2,740.6358781264862,X,None,nogo,None,1,741.4365000904363,,,,,,,,,,,,,,,,,16,001,20,w,Psychologie,2023-01-12_08h58.45.337,00_bat_bachelor,2022.2.4,59.865350069776945,
,,,,,,,,,,,,1,0,1,0,164,0,164,0,,,,,,,164,,,0.2,741.6368623693998,Y,l,go,l,1,,0.443452066014288,,,,,,,,,,,,,,,,16,001,20,w,Psychologie,2023-01-12_08h58.45.337,00_bat_bachelor,2022.2.4,59.865350069776945,
,,,,,,,,,,,,1,0,1,0,165,0,165,0,,,,,,,165,,,0.2,742.3874353393621,X,d,go,d,1,,0.34867335337912664,,,,,,,,,,,,,,,,16,001,20,w,Psychologie,2023-01-12_08h58.45.337,00_bat_bachelor,2022.2.4,59.865350069776945,
,,,,,,,,,,,,1,0,1,0,166,0,166,0,,,,,,,166,,,0.2,743.0377377152618,Y,l,go,l,1,,0.5951529880403541,,,,,,,,,,,,,,,,16,001,20,w,Psychologie,2023-01-12_08h58.45.337,00_bat_bachelor,2022.2.4,59.865350069776945,
,,,,,,,,,,,,1,0,1,0,167,0,167,0,,,,,,,167,,,0.2,743.9385706368776,Y,None,nogo,d,0,,0.238186511938693,,,,,,,,,,,,,,,,16,001,20,w,Psychologie,2023-01-12_08h58.45.337,00_bat_bachelor,2022.2.4,59.865350069776945,
,,,,,,,,,,,,1,0,1,0,168,0,168,0,,,,,,,168,,,0.2,744.4888288430811,X,d,go,None,0,,,,,,,,,,,,,,,,,,16,001,20,w,Psychologie,2023-01-12_08h58.45.337,00_bat_bachelor,2022.2.4,59.865350069776945,
,,,,,,,,,,,,1,0,1,0,169,0,169,0,,,,,,,169,,,0.2,745.4899144193623,Y,l,go,l,1,,0.38203870289726183,,,,,,,,,,,,,,,,16,001,20,w,Psychologie,2023-01-12_08h58.45.337,00_bat_bachelor,2022.2.4,59.865350069776945,
,,,,,,,,,,,,1,0,1,0,170,0,170,0,,,,,,,170,,,0.2,746.1736369326827,X,d,go,d,1,,0.4986467594571877,,,,,,,,,,,,,,,,16,001,20,w,Psychologie,2023-01-12_08h58.45.337,00_bat_bachelor,2022.2.4,59.865350069776945,
,,,,,,,,,,,,1,0,1,0,171,0,171,0,,,,,,,171,,,0.2,746.974159502628,X,None,nogo,None,1,,,,,,,,,,,,,,,,,,16,001,20,w,Psychologie,2023-01-12_08h58.45.337,00_bat_bachelor,2022.2.4,59.865350069776945,
,,,,,,,,,,,,1,0,1,0,172,0,172,0,,,,,,,172,,,0.2,747.9751384121773,X,None,nogo,None,1,748.7754544365744,,,,,,,,,,,,,,,,,16,001,20,w,Psychologie,2023-01-12_08h58.45.337,00_bat_bachelor,2022.2.4,59.865350069776945,
,,,,,,,,,,,,1,0,1,0,173,0,173,0,,,,,,,173,,,0.2,748.9758370791969,Y,l,go,l,1,,0.3844391888997052,,,,,,,,,,,,,,,,16,001,20,w,Psychologie,2023-01-12_08h58.45.337,00_bat_bachelor,2022.2.4,59.865350069776945,
,,,,,,,,,,,,1,0,1,0,174,0,174,0,,,,,,,174,,,0.2,749.6763048127468,X,d,go,d,1,,0.16431447613285854,,,,,,,,,,,,,,,,16,001,20,w,Psychologie,2023-01-12_08h58.45.337,00_bat_bachelor,2022.2.4,59.865350069776945,
,,,,,,,,,,,,1,0,1,0,175,0,175,0,,,,,,,175,,,0.2,750.1431341299904,X,None,nogo,None,1,750.9439626394887,,,,,,,,,,,,,,,,,16,001,20,w,Psychologie,2023-01-12_08h58.45.337,00_bat_bachelor,2022.2.4,59.865350069776945,
,,,,,,,,,,,,1,0,1,0,176,0,176,0,,,,,,,176,,,0.2,751.1440984941146,Y,l,go,l,1,,0.4414700044435449,,,,,,,,,,,,,,,,16,001,20,w,Psychologie,2023-01-12_08h58.45.337,00_bat_bachelor,2022.2.4,59.865350069776945,
,,,,,,,,,,,,1,0,1,0,177,0,177,0,,,,,,,177,,,0.2,751.8946137670719,X,d,go,d,1,,0.18541897123213857,,,,,,,,,,,,,,,,16,001,20,w,Psychologie,2023-01-12_08h58.45.337,00_bat_bachelor,2022.2.4,59.865350069776945,
,,,,,,,,,,,,1,0,1,0,178,0,178,0,,,,,,,178,,,0.2,752.394837524771,Y,l,go,l,1,,0.4853876015113201,,,,,,,,,,,,,,,,16,001,20,w,Psychologie,2023-01-12_08h58.45.337,00_bat_bachelor,2022.2.4,59.865350069776945,
,,,,,,,,,,,,1,0,1,0,179,0,179,0,,,,,,,179,,,0.2,753.1953702765459,Y,None,nogo,d,0,,0.21316007556742989,,,,,,,,,,,,,,,,16,001,20,w,Psychologie,2023-01-12_08h58.45.337,00_bat_bachelor,2022.2.4,59.865350069776945,
,,,,,,,,,,,,1,0,1,0,180,0,180,0,,,,,,,180,,,0.2,753.7126098000444,X,d,go,l,0,,0.4961497885524295,,,,,,,,,,,,,,,,16,001,20,w,Psychologie,2023-01-12_08h58.45.337,00_bat_bachelor,2022.2.4,59.865350069776945,
,,,,,,,,,,,,1,0,1,0,181,0,181,0,,,,,,,181,,,0.2,754.512975279009,Y,l,go,None,0,,,,,,,,,,,,,,,,,,16,001,20,w,Psychologie,2023-01-12_08h58.45.337,00_bat_bachelor,2022.2.4,59.865350069776945,
,,,,,,,,,,,,1,0,1,0,182,0,182,0,,,,,,,182,,,0.2,755.5139507946442,Y,None,nogo,d,0,,0.24674506156588905,,,,,,,,,,,,,,,,16,001,20,w,Psychologie,2023-01-12_08h58.45.337,00_bat_bachelor,2022.2.4,59.865350069776945,
,,,,,,,,,,,,1,0,1,0,183,0,183,0,,,,,,,183,,,0.2,756.0644936070312,X,d,go,None,0,,,,,,,,,,,,,,,,,,16,001,20,w,Psychologie,2023-01-12_08h58.45.337,00_bat_bachelor,2022.2.4,59.865350069776945,
,,,,,,,,,,,,1,0,1,0,184,0,184,0,,,,,,,184,,,0.2,757.0651336073352,Y,l,go,l,1,,0.055324362678220496,,,,,,,,,,,,,,,,16,001,20,w,Psychologie,2023-01-12_08h58.45.337,00_bat_bachelor,2022.2.4,59.865350069776945,
,,,,,,,,,,,,1,0,1,0,185,0,185,0,,,,,,,185,,,0.2,757.4320632398012,Y,None,nogo,None,1,758.2327302946651,,,,,,,,,,,,,,,,,16,001,20,w,Psychologie,2023-01-12_08h58.45.337,00_bat_bachelor,2022.2.4,59.865350069776945,
,,,,,,,,,,,,1,0,1,0,186,0,186,0,,,,,,,186,,,0.2,758.4326086945948,X,d,go,d,1,,0.11233239033026621,,,,,,,,,,,,,,,,16,001,20,w,Psychologie,2023-01-12_08h58.45.337,00_bat_bachelor,2022.2.4,59.865350069776945,
,,,,,,,,,,,,1,0,1,0,187,0,187,0,,,,,,,187,,,0.2,758.8498515635729,Y,l,go,None,0,,,,,,,,,,,,,,,,,,16,001,20,w,Psychologie,2023-01-12_08h58.45.337,00_bat_bachelor,2022.2.4,59.865350069776945,
,,,,,,,,,,,,1,0,1,0,188,0,188,0,,,,,,,188,,,0.2,759.8506855033629,X,d,go,None,0,760.6514955885941,,,,,,,,,,,,,,,,,16,001,20,w,Psychologie,2023-01-12_08h58.45.337,00_bat_bachelor,2022.2.4,59.865350069776945,
,,,,,,,,,,,,1,0,1,0,189,0,189,0,,,,,,,189,,,0.2,760.8514646552503,Y,l,go,l,1,,0.1400890098302625,,,,,,,,,,,,,,,,16,001,20,w,Psychologie,2023-01-12_08h58.45.337,00_bat_bachelor,2022.2.4,59.865350069776945,
,,,,,,,,,,,,1,0,1,0,190,0,190,0,,,,,,,190,,,0.2,761.301999176736,Y,None,nogo,d,0,,0.29833054111804813,,,,,,,,,,,,,,,,16,001,20,w,Psychologie,2023-01-12_08h58.45.337,00_bat_bachelor,2022.2.4,59.865350069776945,
,,,,,,,,,,,,1,0,1,0,191,0,191,0,,,,,,,191,,,0.2,761.902289892023,X,d,go,None,0,762.7027222801116,,,,,,,,,,,,,,,,,16,001,20,w,Psychologie,2023-01-12_08h58.45.337,00_bat_bachelor,2022.2.4,59.865350069776945,
,,,,,,,,,,,,1,0,1,0,192,0,192,0,,,,,,,192,,,0.2,762.9030404378427,Y,l,go,l,1,,0.5845900738495402,,,,,,,,,,,,,,,,16,001,20,w,Psychologie,2023-01-12_08h58.45.337,00_bat_bachelor,2022.2.4,59.865350069776945,
,,,,,,,,,,,,1,0,1,0,193,0,193,0,,,,,,,193,,,0.2,763.8036736017675,X,d,go,d,1,,0.26060252281604335,,,,,,,,,,,,,,,,16,001,20,w,Psychologie,2023-01-12_08h58.45.337,00_bat_bachelor,2022.2.4,59.865350069776945,
,,,,,,,,,,,,1,0,1,0,194,0,194,0,,,,,,,194,,,0.2,764.3706755736494,Y,l,go,l,1,,0.477319233934395,,,,,,,,,,,,,,,,16,001,20,w,Psychologie,2023-01-12_08h58.45.337,00_bat_bachelor,2022.2.4,59.865350069776945,
,,,,,,,,,,,,1,0,1,0,195,0,195,0,,,,,,,195,,,0.2,765.1547884386964,X,d,go,d,1,,0.22184807978919707,,,,,,,,,,,,,,,,16,001,20,w,Psychologie,2023-01-12_08h58.45.337,00_bat_bachelor,2022.2.4,59.865350069776945,
,,,,,,,,,,,,1,0,1,0,196,0,196,0,,,,,,,196,,,0.2,765.6883082124987,Y,l,go,l,1,,0.503789064969169,,,,,,,,,,,,,,,,16,001,20,w,Psychologie,2023-01-12_08h58.45.337,00_bat_bachelor,2022.2.4,59.865350069776945,
,,,,,,,,,,,,1,0,1,0,197,0,197,0,,,,,,,197,,,0.2,766.5054305480735,X,d,go,None,0,,,,,,,,,,,,,,,,,,16,001,20,w,Psychologie,2023-01-12_08h58.45.337,00_bat_bachelor,2022.2.4,59.865350069776945,
,,,,,,,,,,,,1,0,1,0,198,0,198,0,,,,,,,198,,,0.2,767.5064273970493,Y,l,go,l,1,,0.41419968820991926,,,,,,,,,,,,,,,,16,001,20,w,Psychologie,2023-01-12_08h58.45.337,00_bat_bachelor,2022.2.4,59.865350069776945,
,,,,,,,,,,,,1,0,1,0,199,0,199,0,,,,,,,199,,,0.2,768.223626775085,Y,None,nogo,d,0,,0.25708155139000155,,,,,,,,,,,,,,,,16,001,20,w,Psychologie,2023-01-12_08h58.45.337,00_bat_bachelor,2022.2.4,59.865350069776945,
