loop_instruction.thisRepN,loop_instruction.thisTrialN,loop_instruction.thisN,loop_instruction.thisIndex,loop_rsi_practice.thisRepN,loop_rsi_practice.thisTrialN,loop_rsi_practice.thisN,loop_rsi_practice.thisIndex,loop_practice.thisRepN,loop_practice.thisTrialN,loop_practice.thisN,loop_practice.thisIndex,loop_exp.thisRepN,loop_exp.thisTrialN,loop_exp.thisN,loop_exp.thisIndex,loop_trials.thisRepN,loop_trials.thisTrialN,loop_trials.thisN,loop_trials.thisIndex,map_condition,map_x_key,map_y_key,key_resp_welcome.started,key_resp_welcome.keys,key_resp_welcome.rt,index,text_empty_rsi_practice.started,text_empty_rsi_practice.stopped,rsi,stimulus.started,stimulus,correct,trial_type,key_resp_trial.keys,key_resp_trial.corr,key_resp_trial.rt,stimulus.stopped,key_resp_instruction_rsi.started,key_resp_instruction_rsi.keys,key_resp_instruction_rsi.rt,key_resp_instruction_rsi.stopped,key_resp_instruction_final.started,key_resp_instruction_final.keys,key_resp_instruction_final.rt,key_resp_break.started,key_resp_break.keys,key_resp_break.rt,key_resp_break.stopped,key_resp_end_screen.started,image_end_screen.started,key_resp_end_screen.keys,participant,session,Alter,Geschlecht (w/m/d/andere),Studiengang,date,expName,psychopyVersion,frameRate,
,,,,0,0,0,0,0,0,0,0,,,,,,,,,1,l,d,19338.905512773083,j,37.90156285744358,0,19376.83323111116,19377.850939223787,1,19377.850939223787,X,l,go,l,1,0.5567969639943584,,,,,,,,,,,,,,,,19,001,20,w,Psychologie,2023-01-16_14h11.08.258,00_bat_bachelor,2022.2.4,59.997061962887486,
,,,,0,0,0,0,1,0,1,0,,,,,,,,,,,,,,,1,19379.113615944912,19380.113497641938,1,19380.113497641938,Y,d,go,d,1,0.44914950103536455,,,,,,,,,,,,,,,,19,001,20,w,Psychologie,2023-01-16_14h11.08.258,00_bat_bachelor,2022.2.4,59.997061962887486,
,,,,0,0,0,0,2,0,2,0,,,,,,,,,,,,,,,2,19381.26317078149,19382.263637690357,1,19382.263637690357,X,l,go,l,1,0.4609090104842579,,,,,,,,,,,,,,,,19,001,20,w,Psychologie,2023-01-16_14h11.08.258,00_bat_bachelor,2022.2.4,59.997061962887486,
,,,,0,0,0,0,3,0,3,0,,,,,,,,,,,,,,,3,19383.43016415507,19384.429886337024,1,19384.429886337024,Y,d,go,d,1,0.40459243173079074,,,,,,,,,,,,,,,,19,001,20,w,Psychologie,2023-01-16_14h11.08.258,00_bat_bachelor,2022.2.4,59.997061962887486,
,,,,0,0,0,0,4,0,4,0,,,,,,,,,,,,,,,4,19385.546965552985,19386.5467396137,1,19386.5467396137,Y,None,nogo,None,1,,19387.34686140758,,,,,,,,,,,,,,,19,001,20,w,Psychologie,2023-01-16_14h11.08.258,00_bat_bachelor,2022.2.4,59.997061962887486,
,,,,0,0,0,0,5,0,5,0,,,,,,,,,,,,,,,5,19387.946940631784,19388.946821359114,1,19388.946821359114,X,l,go,l,1,0.4166942440444217,,,,,,,,,,,,,,,,19,001,20,w,Psychologie,2023-01-16_14h11.08.258,00_bat_bachelor,2022.2.4,59.997061962887486,
,,,,0,0,0,0,6,0,6,0,,,,,,,,,,,,,,,6,19390.063510757085,19391.063219848133,1,19391.063219848133,Y,d,go,d,1,0.44374586729297505,,,,,,,,,,,,,,,,19,001,20,w,Psychologie,2023-01-16_14h11.08.258,00_bat_bachelor,2022.2.4,59.997061962887486,
,,,,0,0,0,0,7,0,7,0,,,,,,,,,,,,,,,7,19392.213615896428,19393.21316838149,1,19393.21316838149,X,l,go,l,1,0.3898947418839924,,,,,,,,,,,,,,,,19,001,20,w,Psychologie,2023-01-16_14h11.08.258,00_bat_bachelor,2022.2.4,59.997061962887486,
,,,,0,0,0,0,8,0,8,0,,,,,,,,,,,,,,,8,19394.313183848153,19395.313496575272,1,19395.313496575272,X,None,nogo,None,1,,19396.113509763145,,,,,,,,,,,,,,,19,001,20,w,Psychologie,2023-01-16_14h11.08.258,00_bat_bachelor,2022.2.4,59.997061962887486,
,,,,0,0,0,0,9,0,9,0,,,,,,,,,,,,,,,9,19396.71366898731,19397.71346729044,1,19397.71346729044,Y,d,go,d,1,0.53041346163279,,,,,,,,,,,,,,,,19,001,20,w,Psychologie,2023-01-16_14h11.08.258,00_bat_bachelor,2022.2.4,59.997061962887486,
,,,,0,0,0,0,10,0,10,0,,,,,,,,,,,,,,,10,19398.94651008654,19399.946519783505,1,19399.946519783505,X,l,go,l,1,0.455987315903414,,,,,,,,,,,,,,,,19,001,20,w,Psychologie,2023-01-16_14h11.08.258,00_bat_bachelor,2022.2.4,59.997061962887486,
,,,,0,0,0,0,11,0,11,0,,,,,,,,,,,,,,,11,19401.11350539951,19402.11348552073,1,19402.11348552073,X,None,nogo,l,0,0.41730418314379847,,,,,,,,,,,,,,,,19,001,20,w,Psychologie,2023-01-16_14h11.08.258,00_bat_bachelor,2022.2.4,59.997061962887486,
,,,,0,0,0,0,12,0,12,0,,,,,,,,,,,,,,,12,19403.646871928788,19404.64667701979,1,19404.64667701979,Y,d,go,d,1,0.6043979106126898,,,,,,,,,,,,,,,,19,001,20,w,Psychologie,2023-01-16_14h11.08.258,00_bat_bachelor,2022.2.4,59.997061962887486,
,,,,0,0,0,0,13,0,13,0,,,,,,,,,,,,,,,13,19405.9634468056,19406.963251411755,1,19406.963251411755,X,l,go,l,1,0.48009542542256156,,,,,,,,,,,,,,,,19,001,20,w,Psychologie,2023-01-16_14h11.08.258,00_bat_bachelor,2022.2.4,59.997061962887486,
,,,,0,0,0,0,14,0,14,0,,,,,,,,,,,,,,,14,19408.146788292466,19409.14657398954,1,19409.14657398954,Y,d,go,d,1,0.45644452780304334,,,,,,,,,,,,,,,,19,001,20,w,Psychologie,2023-01-16_14h11.08.258,00_bat_bachelor,2022.2.4,59.997061962887486,
,,,,1,0,1,0,0,0,0,0,,,,,,,,,,,,,,,0,19435.44681626821,19435.646792898522,0.2,19435.646792898522,X,l,go,None,0,,19436.447008752963,19410.338264563263,j,25.09208737112401,,,,,,,,,,,,19,001,20,w,Psychologie,2023-01-16_14h11.08.258,00_bat_bachelor,2022.2.4,59.997061962887486,
,,,,1,0,1,0,1,0,1,0,,,,,,,,,,,,,,,1,19437.046687007663,19437.247016607507,0.2,19437.247016607507,Y,d,go,d,1,0.46800670401550803,,,,,,,,,,,,,,,,19,001,20,w,Psychologie,2023-01-16_14h11.08.258,00_bat_bachelor,2022.2.4,59.997061962887486,
,,,,1,0,1,0,2,0,2,0,,,,,,,,,,,,,,,2,19438.429892155204,19438.629852785525,0.2,19438.629852785525,X,l,go,l,1,0.5101967441643609,,,,,,,,,,,,,,,,19,001,20,w,Psychologie,2023-01-16_14h11.08.258,00_bat_bachelor,2022.2.4,59.997061962887486,
,,,,1,0,1,0,3,0,3,0,,,,,,,,,,,,,,,3,19439.846768074294,19440.046487735035,0.2,19440.046487735035,Y,d,go,d,1,0.3564237278134641,,,,,,,,,,,,,,,,19,001,20,w,Psychologie,2023-01-16_14h11.08.258,00_bat_bachelor,2022.2.4,59.997061962887486,
,,,,1,0,1,0,4,0,4,0,,,,,,,,,,,,,,,4,19441.11347485407,19441.313440332877,0.2,19441.313440332877,Y,None,nogo,None,1,,19442.11321206632,,,,,,,,,,,,,,,19,001,20,w,Psychologie,2023-01-16_14h11.08.258,00_bat_bachelor,2022.2.4,59.997061962887486,
,,,,1,0,1,0,5,0,5,0,,,,,,,,,,,,,,,5,19442.71346729044,19442.913174829973,0.2,19442.913174829973,X,l,go,l,1,0.35458566809590764,,,,,,,,,,,,,,,,19,001,20,w,Psychologie,2023-01-16_14h11.08.258,00_bat_bachelor,2022.2.4,59.997061962887486,
,,,,1,0,1,0,6,0,6,0,,,,,,,,,,,,,,,6,19443.97979928252,19444.17982391281,0.2,19444.17982391281,Y,d,go,d,1,0.5110665619233004,,,,,,,,,,,,,,,,19,001,20,w,Psychologie,2023-01-16_14h11.08.258,00_bat_bachelor,2022.2.4,59.997061962887486,
,,,,1,0,1,0,7,0,7,0,,,,,,,,,,,,,,,7,19445.39693604997,19445.596527225924,0.2,19445.596527225924,Y,None,nogo,d,0,0.5179004980074495,,,,,,,,,,,,,,,,19,001,20,w,Psychologie,2023-01-16_14h11.08.258,00_bat_bachelor,2022.2.4,59.997061962887486,
,,,,1,0,1,0,8,0,8,0,,,,,,,,,,,,,,,8,19447.230154555076,19447.42994209457,0.2,19447.42994209457,X,l,go,l,1,0.4785822140385534,,,,,,,,,,,,,,,,19,001,20,w,Psychologie,2023-01-16_14h11.08.258,00_bat_bachelor,2022.2.4,59.997061962887486,
,,,,1,0,1,0,9,0,9,0,,,,,,,,,,,,,,,9,19448.61355073282,19448.813488575277,0.2,19448.813488575277,Y,d,go,d,1,0.39050952946688255,,,,,,,,,,,,,,,,19,001,20,w,Psychologie,2023-01-16_14h11.08.258,00_bat_bachelor,2022.2.4,59.997061962887486,
,,,,1,0,1,0,10,0,10,0,,,,,,,,,,,,,,,10,19449.913680526697,19450.113472429828,0.2,19450.113472429828,X,l,go,l,1,0.3539238502363986,,,,,,,,,,,,,,,,19,001,20,w,Psychologie,2023-01-16_14h11.08.258,00_bat_bachelor,2022.2.4,59.997061962887486,
,,,,1,0,1,0,11,0,11,0,,,,,,,,,,,,,,,11,19451.180033367255,19451.380140906596,0.2,19451.380140906596,X,None,nogo,None,1,,19452.18024573079,,,,,,,,,,,,,,,19,001,20,w,Psychologie,2023-01-16_14h11.08.258,00_bat_bachelor,2022.2.4,59.997061962887486,
,,,,1,0,1,0,12,0,12,0,,,,,,,,,,,,,,,12,19452.779860470368,19452.979947161235,0.2,19452.979947161235,Y,d,go,d,1,0.3505575488363064,,,,,,,,,,,,,,,,19,001,20,w,Psychologie,2023-01-16_14h11.08.258,00_bat_bachelor,2022.2.4,59.997061962887486,
,,,,1,0,1,0,13,0,13,0,,,,,,,,,,,,,,,13,19454.029943743055,19454.230131767206,0.2,19454.230131767206,X,l,go,l,1,0.49368960065309864,,,,,,,,,,,,,,,,19,001,20,w,Psychologie,2023-01-16_14h11.08.258,00_bat_bachelor,2022.2.4,59.997061962887486,
,,,,1,0,1,0,14,0,14,0,,,,,,,,,,,,,,,14,19455.430149124775,19455.629938118815,0.2,19455.629938118815,Y,d,go,d,1,0.34139973509643085,,,,,,,,,,,,,,,,19,001,20,w,Psychologie,2023-01-16_14h11.08.258,00_bat_bachelor,2022.2.4,59.997061962887486,
,,,,,,,,,,,,,,,,,,,,,,,,,,,,,,,,,,,,,,19456.722463649712,None,,19456.722463649712,19456.722463649712,space,4.3079204785992005,,,,,,,,19,001,20,w,Psychologie,2023-01-16_14h11.08.258,00_bat_bachelor,2022.2.4,59.997061962887486,
,,,,,,,,,,,,0,0,0,0,0,0,0,0,,,,,,,0,,,1,19462.063463241957,X,l,go,l,1,0.4039984926259166,,,,,,,,,,,,,,,,19,001,20,w,Psychologie,2023-01-16_14h11.08.258,00_bat_bachelor,2022.2.4,59.997061962887486,
,,,,,,,,,,,,0,0,0,0,1,0,1,0,,,,,,,1,,,1,19463.580140809627,Y,d,go,d,1,0.29524072717156,,,,,,,,,,,,,,,,19,001,20,w,Psychologie,2023-01-16_14h11.08.258,00_bat_bachelor,2022.2.4,59.997061962887486,
,,,,,,,,,,,,0,0,0,0,2,0,2,0,,,,,,,2,,,1,19464.98022594898,X,l,go,l,1,0.3029924809908806,,,,,,,,,,,,,,,,19,001,20,w,Psychologie,2023-01-16_14h11.08.258,00_bat_bachelor,2022.2.4,59.997061962887486,
,,,,,,,,,,,,0,0,0,0,3,0,3,0,,,,,,,3,,,1,19466.396834716685,Y,d,go,d,1,0.39132261998217643,,,,,,,,,,,,,,,,19,001,20,w,Psychologie,2023-01-16_14h11.08.258,00_bat_bachelor,2022.2.4,59.997061962887486,
,,,,,,,,,,,,0,0,0,0,4,0,4,0,,,,,,,4,,,1,19467.896743807636,X,l,go,l,1,0.3316154974146883,,,,,,,,,,,,,,,,19,001,20,w,Psychologie,2023-01-16_14h11.08.258,00_bat_bachelor,2022.2.4,59.997061962887486,
,,,,,,,,,,,,0,0,0,0,5,0,5,0,,,,,,,5,,,1,19469.329744324972,X,None,nogo,None,1,,19470.130109027825,,,,,,,,,,,,,,,19,001,20,w,Psychologie,2023-01-16_14h11.08.258,00_bat_bachelor,2022.2.4,59.997061962887486,
,,,,,,,,,,,,0,0,0,0,6,0,6,0,,,,,,,6,,,1,19471.130109512673,X,None,nogo,None,1,,19471.93022112474,,,,,,,,,,,,,,,19,001,20,w,Psychologie,2023-01-16_14h11.08.258,00_bat_bachelor,2022.2.4,59.997061962887486,
,,,,,,,,,,,,0,0,0,0,7,0,7,0,,,,,,,7,,,1,19472.930319548934,Y,d,go,d,1,0.3525895478507408,,,,,,,,,,,,,,,,19,001,20,w,Psychologie,2023-01-16_14h11.08.258,00_bat_bachelor,2022.2.4,59.997061962887486,
,,,,,,,,,,,,0,0,0,0,8,0,8,0,,,,,,,8,,,1,19474.39656998954,X,l,go,l,1,0.3106157500207445,,,,,,,,,,,,,,,,19,001,20,w,Psychologie,2023-01-16_14h11.08.258,00_bat_bachelor,2022.2.4,59.997061962887486,
,,,,,,,,,,,,0,0,0,0,9,0,9,0,,,,,,,9,,,1,19475.813248090544,X,None,nogo,None,1,,19476.61313570272,,,,,,,,,,,,,,,19,001,20,w,Psychologie,2023-01-16_14h11.08.258,00_bat_bachelor,2022.2.4,59.997061962887486,
,,,,,,,,,,,,0,0,0,0,10,0,10,0,,,,,,,10,,,1,19477.61368697518,Y,d,go,d,1,0.34299488584126436,,,,,,,,,,,,,,,,19,001,20,w,Psychologie,2023-01-16_14h11.08.258,00_bat_bachelor,2022.2.4,59.997061962887486,
,,,,,,,,,,,,0,0,0,0,11,0,11,0,,,,,,,11,,,1,19479.063221787528,X,l,go,l,1,0.4761201546263436,,,,,,,,,,,,,,,,19,001,20,w,Psychologie,2023-01-16_14h11.08.258,00_bat_bachelor,2022.2.4,59.997061962887486,
,,,,,,,,,,,,0,0,0,0,12,0,12,0,,,,,,,12,,,1,19480.647015928716,Y,d,go,d,1,0.4300712072528512,,,,,,,,,,,,,,,,19,001,20,w,Psychologie,2023-01-16_14h11.08.258,00_bat_bachelor,2022.2.4,59.997061962887486,
,,,,,,,,,,,,0,0,0,0,13,0,13,0,,,,,,,13,,,1,19482.17982633705,Y,None,nogo,l,0,0.46381034241328223,,,,,,,,,,,,,,,,19,001,20,w,Psychologie,2023-01-16_14h11.08.258,00_bat_bachelor,2022.2.4,59.997061962887486,
,,,,,,,,,,,,0,0,0,0,14,0,14,0,,,,,,,14,,,1,19483.746752607633,X,l,go,l,1,0.6562645521318444,,,,,,,,,,,,,,,,19,001,20,w,Psychologie,2023-01-16_14h11.08.258,00_bat_bachelor,2022.2.4,59.997061962887486,
,,,,,,,,,,,,0,0,0,0,15,0,15,0,,,,,,,15,,,1,19485.513465932865,Y,d,go,d,1,0.5055887463988,,,,,,,,,,,,,,,,19,001,20,w,Psychologie,2023-01-16_14h11.08.258,00_bat_bachelor,2022.2.4,59.997061962887486,
,,,,,,,,,,,,0,0,0,0,16,0,16,0,,,,,,,16,,,1,19487.129834118867,Y,None,nogo,None,1,,19487.929976276373,,,,,,,,,,,,,,,19,001,20,w,Psychologie,2023-01-16_14h11.08.258,00_bat_bachelor,2022.2.4,59.997061962887486,
,,,,,,,,,,,,0,0,0,0,17,0,17,0,,,,,,,17,,,1,19488.93011057934,X,l,go,l,1,0.4650578569582393,,,,,,,,,,,,,,,,19,001,20,w,Psychologie,2023-01-16_14h11.08.258,00_bat_bachelor,2022.2.4,59.997061962887486,
,,,,,,,,,,,,0,0,0,0,18,0,18,0,,,,,,,18,,,1,19490.496521941077,Y,d,go,d,1,0.4982874166036453,,,,,,,,,,,,,,,,19,001,20,w,Psychologie,2023-01-16_14h11.08.258,00_bat_bachelor,2022.2.4,59.997061962887486,
,,,,,,,,,,,,0,0,0,0,19,0,19,0,,,,,,,19,,,1,19492.096838256075,Y,None,nogo,d,0,0.4183388493058118,,,,,,,,,,,,,,,,19,001,20,w,Psychologie,2023-01-16_14h11.08.258,00_bat_bachelor,2022.2.4,59.997061962887486,
,,,,,,,,,,,,0,0,0,0,20,0,20,0,,,,,,,20,,,1,19493.62982078554,X,l,go,l,1,0.40444115907864386,,,,,,,,,,,,,,,,19,001,20,w,Psychologie,2023-01-16_14h11.08.258,00_bat_bachelor,2022.2.4,59.997061962887486,
,,,,,,,,,,,,0,0,0,0,21,0,21,0,,,,,,,21,,,1,19495.146847928798,Y,d,go,d,1,0.4876241490475621,,,,,,,,,,,,,,,,19,001,20,w,Psychologie,2023-01-16_14h11.08.258,00_bat_bachelor,2022.2.4,59.997061962887486,
,,,,,,,,,,,,0,0,0,0,22,0,22,0,,,,,,,22,,,1,19496.74701394084,X,l,go,l,1,0.3939892853579039,,,,,,,,,,,,,,,,19,001,20,w,Psychologie,2023-01-16_14h11.08.258,00_bat_bachelor,2022.2.4,59.997061962887486,
,,,,,,,,,,,,0,0,0,0,23,0,23,0,,,,,,,23,,,1,19498.24654194107,Y,d,go,d,1,0.38029426169502756,,,,,,,,,,,,,,,,19,001,20,w,Psychologie,2023-01-16_14h11.08.258,00_bat_bachelor,2022.2.4,59.997061962887486,
,,,,,,,,,,,,0,0,0,0,24,0,24,0,,,,,,,24,,,1,19499.730122312667,X,l,go,l,1,0.36925378219727634,,,,,,,,,,,,,,,,19,001,20,w,Psychologie,2023-01-16_14h11.08.258,00_bat_bachelor,2022.2.4,59.997061962887486,
,,,,,,,,,,,,0,0,0,0,25,0,25,0,,,,,,,25,,,1,19501.213116017883,Y,d,go,d,1,0.3577900301808512,,,,,,,,,,,,,,,,19,001,20,w,Psychologie,2023-01-16_14h11.08.258,00_bat_bachelor,2022.2.4,59.997061962887486,
,,,,,,,,,,,,0,0,0,0,26,0,26,0,,,,,,,26,,,1,19502.68011700358,X,l,go,l,1,0.26647031687950573,,,,,,,,,,,,,,,,19,001,20,w,Psychologie,2023-01-16_14h11.08.258,00_bat_bachelor,2022.2.4,59.997061962887486,
,,,,,,,,,,,,0,0,0,0,27,0,27,0,,,,,,,27,,,1,19504.046904219682,Y,d,go,d,1,0.40464576503852356,,,,,,,,,,,,,,,,19,001,20,w,Psychologie,2023-01-16_14h11.08.258,00_bat_bachelor,2022.2.4,59.997061962887486,
,,,,,,,,,,,,0,0,0,0,28,0,28,0,,,,,,,28,,,1,19505.56330736324,Y,None,nogo,None,1,,19506.36344661166,,,,,,,,,,,,,,,19,001,20,w,Psychologie,2023-01-16_14h11.08.258,00_bat_bachelor,2022.2.4,59.997061962887486,
,,,,,,,,,,,,0,0,0,0,29,0,29,0,,,,,,,29,,,1,19507.363450490448,X,l,go,l,1,0.2876882459878942,,,,,,,,,,,,,,,,19,001,20,w,Psychologie,2023-01-16_14h11.08.258,00_bat_bachelor,2022.2.4,59.997061962887486,
,,,,,,,,,,,,0,0,0,0,30,0,30,0,,,,,,,30,,,1,19508.763217569347,Y,d,go,d,1,0.3911955897403203,,,,,,,,,,,,,,,,19,001,20,w,Psychologie,2023-01-16_14h11.08.258,00_bat_bachelor,2022.2.4,59.997061962887486,
,,,,,,,,,,,,0,0,0,0,31,0,31,0,,,,,,,31,,,1,19510.26357562978,X,l,go,l,1,0.6032914869048653,,,,,,,,,,,,,,,,19,001,20,w,Psychologie,2023-01-16_14h11.08.258,00_bat_bachelor,2022.2.4,59.997061962887486,
,,,,,,,,,,,,0,0,0,0,32,0,32,0,,,,,,,32,,,1,19511.98016776719,X,None,nogo,l,0,0.3913245593741266,,,,,,,,,,,,,,,,19,001,20,w,Psychologie,2023-01-16_14h11.08.258,00_bat_bachelor,2022.2.4,59.997061962887486,
,,,,,,,,,,,,0,0,0,0,33,0,33,0,,,,,,,33,,,1,19513.479899403683,Y,d,go,d,1,0.5714010781249925,,,,,,,,,,,,,,,,19,001,20,w,Psychologie,2023-01-16_14h11.08.258,00_bat_bachelor,2022.2.4,59.997061962887486,
,,,,,,,,,,,,0,0,0,0,34,0,34,0,,,,,,,34,,,1,19515.163392405626,X,l,go,l,1,0.48816911848022926,,,,,,,,,,,,,,,,19,001,20,w,Psychologie,2023-01-16_14h11.08.258,00_bat_bachelor,2022.2.4,59.997061962887486,
,,,,,,,,,,,,0,0,0,0,35,0,35,0,,,,,,,35,,,1,19516.76331938748,X,None,nogo,None,1,,19517.563422757128,,,,,,,,,,,,,,,19,001,20,w,Psychologie,2023-01-16_14h11.08.258,00_bat_bachelor,2022.2.4,59.997061962887486,
,,,,,,,,,,,,0,0,0,0,36,0,36,0,,,,,,,36,,,1,19518.563111969397,Y,d,go,d,1,0.5117167434274705,,,,,,,,,,,,,,,,19,001,20,w,Psychologie,2023-01-16_14h11.08.258,00_bat_bachelor,2022.2.4,59.997061962887486,
,,,,,,,,,,,,0,0,0,0,37,0,37,0,,,,,,,37,,,1,19520.180095912678,X,l,go,l,1,0.6078796058920233,,,,,,,,,,,,,,,,19,001,20,w,Psychologie,2023-01-16_14h11.08.258,00_bat_bachelor,2022.2.4,59.997061962887486,
,,,,,,,,,,,,0,0,0,0,38,0,38,0,,,,,,,38,,,1,19521.896693868268,X,None,nogo,None,1,,19522.696908753012,,,,,,,,,,,,,,,19,001,20,w,Psychologie,2023-01-16_14h11.08.258,00_bat_bachelor,2022.2.4,59.997061962887486,
,,,,,,,,,,,,0,0,0,0,39,0,39,0,,,,,,,39,,,1,19523.69675069248,Y,d,go,d,1,0.30614447946042844,,,,,,,,,,,,,,,,19,001,20,w,Psychologie,2023-01-16_14h11.08.258,00_bat_bachelor,2022.2.4,59.997061962887486,
,,,,,,,,,,,,0,0,0,0,40,0,40,0,,,,,,,40,,,1,19525.11338661169,X,l,go,l,1,0.39345643712856315,,,,,,,,,,,,,,,,19,001,20,w,Psychologie,2023-01-16_14h11.08.258,00_bat_bachelor,2022.2.4,59.997061962887486,
,,,,,,,,,,,,0,0,0,0,41,0,41,0,,,,,,,41,,,1,19526.613416429856,Y,d,go,d,1,0.25388753510030426,,,,,,,,,,,,,,,,19,001,20,w,Psychologie,2023-01-16_14h11.08.258,00_bat_bachelor,2022.2.4,59.997061962887486,
,,,,,,,,,,,,0,0,0,0,42,0,42,0,,,,,,,42,,,1,19527.980091161167,X,l,go,l,1,0.2961958782235996,,,,,,,,,,,,,,,,19,001,20,w,Psychologie,2023-01-16_14h11.08.258,00_bat_bachelor,2022.2.4,59.997061962887486,
,,,,,,,,,,,,0,0,0,0,43,0,43,0,,,,,,,43,,,1,19529.379903815803,Y,d,go,d,1,0.39912188892974143,,,,,,,,,,,,,,,,19,001,20,w,Psychologie,2023-01-16_14h11.08.258,00_bat_bachelor,2022.2.4,59.997061962887486,
,,,,,,,,,,,,0,0,0,0,44,0,44,0,,,,,,,44,,,1,19530.879961755167,Y,None,nogo,None,1,,19531.67981397342,,,,,,,,,,,,,,,19,001,20,w,Psychologie,2023-01-16_14h11.08.258,00_bat_bachelor,2022.2.4,59.997061962887486,
,,,,,,,,,,,,0,0,0,0,45,0,45,0,,,,,,,45,,,1,19532.68018003385,X,l,go,l,1,0.330420346477851,,,,,,,,,,,,,,,,19,001,20,w,Psychologie,2023-01-16_14h11.08.258,00_bat_bachelor,2022.2.4,59.997061962887486,
,,,,,,,,,,,,0,0,0,0,46,0,46,0,,,,,,,46,,,1,19534.11342006622,Y,d,go,d,1,0.2569173518151473,,,,,,,,,,,,,,,,19,001,20,w,Psychologie,2023-01-16_14h11.08.258,00_bat_bachelor,2022.2.4,59.997061962887486,
,,,,,,,,,,,,0,0,0,0,47,0,47,0,,,,,,,47,,,1,19535.479768979505,X,l,go,l,1,0.41180551914128216,,,,,,,,,,,,,,,,19,001,20,w,Psychologie,2023-01-16_14h11.08.258,00_bat_bachelor,2022.2.4,59.997061962887486,
,,,,,,,,,,,,0,0,0,0,48,0,48,0,,,,,,,48,,,1,19536.99676363793,Y,d,go,d,1,0.33348507226598656,,,,,,,,,,,,,,,,19,001,20,w,Psychologie,2023-01-16_14h11.08.258,00_bat_bachelor,2022.2.4,59.997061962887486,
,,,,,,,,,,,,0,0,0,0,49,0,49,0,,,,,,,49,,,1,19538.446853601523,X,l,go,l,1,0.6290112320113366,,,,,,,,,,,,,,,,19,001,20,w,Psychologie,2023-01-16_14h11.08.258,00_bat_bachelor,2022.2.4,59.997061962887486,
,,,,,,,,,,,,0,0,0,0,50,0,50,0,,,,,,,50,,,1,19540.179751185573,Y,d,go,d,1,0.3507456699573339,,,,,,,,,,,,,,,,19,001,20,w,Psychologie,2023-01-16_14h11.08.258,00_bat_bachelor,2022.2.4,59.997061962887486,
,,,,,,,,,,,,0,0,0,0,51,0,51,0,,,,,,,51,,,1,19541.64671047432,X,l,go,l,1,0.4202055150691848,,,,,,,,,,,,,,,,19,001,20,w,Psychologie,2023-01-16_14h11.08.258,00_bat_bachelor,2022.2.4,59.997061962887486,
,,,,,,,,,,,,0,0,0,0,52,0,52,0,,,,,,,52,,,1,19543.179875306727,Y,d,go,d,1,0.614930753991004,,,,,,,,,,,,,,,,19,001,20,w,Psychologie,2023-01-16_14h11.08.258,00_bat_bachelor,2022.2.4,59.997061962887486,
,,,,,,,,,,,,0,0,0,0,53,0,53,0,,,,,,,53,,,1,19544.896412171434,X,l,go,l,1,0.24339784321834657,,,,,,,,,,,,,,,,19,001,20,w,Psychologie,2023-01-16_14h11.08.258,00_bat_bachelor,2022.2.4,59.997061962887486,
,,,,,,,,,,,,0,0,0,0,54,0,54,0,,,,,,,54,,,1,19546.24658315317,X,None,nogo,None,1,,19547.046744704607,,,,,,,,,,,,,,,19,001,20,w,Psychologie,2023-01-16_14h11.08.258,00_bat_bachelor,2022.2.4,59.997061962887486,
,,,,,,,,,,,,0,0,0,0,55,0,55,0,,,,,,,55,,,1,19548.046625431936,X,None,nogo,None,1,,19548.846967346923,,,,,,,,,,,,,,,19,001,20,w,Psychologie,2023-01-16_14h11.08.258,00_bat_bachelor,2022.2.4,59.997061962887486,
,,,,,,,,,,,,0,0,0,0,56,0,56,0,,,,,,,56,,,1,19549.8467520743,Y,d,go,d,1,0.3159636262154635,,,,,,,,,,,,,,,,19,001,20,w,Psychologie,2023-01-16_14h11.08.258,00_bat_bachelor,2022.2.4,59.997061962887486,
,,,,,,,,,,,,0,0,0,0,57,0,57,0,,,,,,,57,,,1,19551.26342387228,X,l,go,l,1,0.3557080917945967,,,,,,,,,,,,,,,,19,001,20,w,Psychologie,2023-01-16_14h11.08.258,00_bat_bachelor,2022.2.4,59.997061962887486,
,,,,,,,,,,,,0,0,0,0,58,0,58,0,,,,,,,58,,,1,19552.72991334307,Y,d,go,d,1,0.2812950369645222,,,,,,,,,,,,,,,,19,001,20,w,Psychologie,2023-01-16_14h11.08.258,00_bat_bachelor,2022.2.4,59.997061962887486,
,,,,,,,,,,,,0,0,0,0,59,0,59,0,,,,,,,59,,,1,19554.11308261184,Y,None,nogo,None,1,,19554.913419193494,,,,,,,,,,,,,,,19,001,20,w,Psychologie,2023-01-16_14h11.08.258,00_bat_bachelor,2022.2.4,59.997061962887486,
,,,,,,,,,,,,0,0,0,0,60,0,60,0,,,,,,,60,,,1,19555.913488041944,X,l,go,l,1,0.2332776057029804,,,,,,,,,,,,,,,,19,001,20,w,Psychologie,2023-01-16_14h11.08.258,00_bat_bachelor,2022.2.4,59.997061962887486,
,,,,,,,,,,,,0,0,0,0,61,0,61,0,,,,,,,61,,,1,19557.246437698694,Y,d,go,d,1,0.4209507268298438,,,,,,,,,,,,,,,,19,001,20,w,Psychologie,2023-01-16_14h11.08.258,00_bat_bachelor,2022.2.4,59.997061962887486,
,,,,,,,,,,,,0,0,0,0,62,0,62,0,,,,,,,62,,,1,19558.780091258137,Y,None,nogo,l,0,0.3122831431521007,,,,,,,,,,,,,,,,19,001,20,w,Psychologie,2023-01-16_14h11.08.258,00_bat_bachelor,2022.2.4,59.997061962887486,
,,,,,,,,,,,,0,0,0,0,63,0,63,0,,,,,,,63,,,1,19560.196716995528,X,l,go,l,1,0.2860795194957717,,,,,,,,,,,,,,,,19,001,20,w,Psychologie,2023-01-16_14h11.08.258,00_bat_bachelor,2022.2.4,59.997061962887486,
,,,,,,,,,,,,0,0,0,0,64,0,64,0,,,,,,,64,,,1,19561.59671728644,Y,d,go,d,1,0.3106254469841332,,,,,,,,,,,,,,,,19,001,20,w,Psychologie,2023-01-16_14h11.08.258,00_bat_bachelor,2022.2.4,59.997061962887486,
,,,,,,,,,,,,0,0,0,0,65,0,65,0,,,,,,,65,,,1,19563.013577690384,X,l,go,l,1,0.46187919183482506,,,,,,,,,,,,,,,,19,001,20,w,Psychologie,2023-01-16_14h11.08.258,00_bat_bachelor,2022.2.4,59.997061962887486,
,,,,,,,,,,,,0,0,0,0,66,0,66,0,,,,,,,66,,,1,19564.57980432494,X,None,nogo,None,1,,19565.380056543003,,,,,,,,,,,,,,,19,001,20,w,Psychologie,2023-01-16_14h11.08.258,00_bat_bachelor,2022.2.4,59.997061962887486,
,,,,,,,,,,,,0,0,0,0,67,0,67,0,,,,,,,67,,,1,19566.379867937034,Y,d,go,d,1,0.26361989401827657,,,,,,,,,,,,,,,,19,001,20,w,Psychologie,2023-01-16_14h11.08.258,00_bat_bachelor,2022.2.4,59.997061962887486,
,,,,,,,,,,,,0,0,0,0,68,0,68,0,,,,,,,68,,,1,19567.74677588035,X,l,go,None,0,,19568.546441916875,,,,,,,,,,,,,,,19,001,20,w,Psychologie,2023-01-16_14h11.08.258,00_bat_bachelor,2022.2.4,59.997061962887486,
,,,,,,,,,,,,0,0,0,0,69,0,69,0,,,,,,,69,,,1,19569.546579128928,X,None,nogo,l,0,0.5044920196543643,,,,,,,,,,,,,,,,19,001,20,w,Psychologie,2023-01-16_14h11.08.258,00_bat_bachelor,2022.2.4,59.997061962887486,
,,,,,,,,,,,,0,0,0,0,70,0,70,0,,,,,,,70,,,1,19571.16308404214,Y,d,go,d,1,0.4244363008967156,,,,,,,,,,,,,,,,19,001,20,w,Psychologie,2023-01-16_14h11.08.258,00_bat_bachelor,2022.2.4,59.997061962887486,
,,,,,,,,,,,,0,0,0,0,71,0,71,0,,,,,,,71,,,1,19572.696506813812,X,l,go,l,1,0.26569649907303017,,,,,,,,,,,,,,,,19,001,20,w,Psychologie,2023-01-16_14h11.08.258,00_bat_bachelor,2022.2.4,59.997061962887486,
,,,,,,,,,,,,0,0,0,0,72,0,72,0,,,,,,,72,,,1,19574.0633813026,X,None,nogo,None,1,,19574.863420672278,,,,,,,,,,,,,,,19,001,20,w,Psychologie,2023-01-16_14h11.08.258,00_bat_bachelor,2022.2.4,59.997061962887486,
,,,,,,,,,,,,0,0,0,0,73,0,73,0,,,,,,,73,,,1,19575.863513278295,Y,d,go,d,1,0.2835360055743621,,,,,,,,,,,,,,,,19,001,20,w,Psychologie,2023-01-16_14h11.08.258,00_bat_bachelor,2022.2.4,59.997061962887486,
,,,,,,,,,,,,0,0,0,0,74,0,74,0,,,,,,,74,,,1,19577.263396720777,X,l,go,l,1,0.45135313633197427,,,,,,,,,,,,,,,,19,001,20,w,Psychologie,2023-01-16_14h11.08.258,00_bat_bachelor,2022.2.4,59.997061962887486,
,,,,,,,,,,,,0,0,0,0,75,0,75,0,,,,,,,75,,,1,19578.829827476446,Y,d,go,d,1,0.32656337865243756,,,,,,,,,,,,,,,,19,001,20,w,Psychologie,2023-01-16_14h11.08.258,00_bat_bachelor,2022.2.4,59.997061962887486,
,,,,,,,,,,,,0,0,0,0,76,0,76,0,,,,,,,76,,,1,19580.263047630036,X,l,go,l,1,0.5395610935649273,,,,,,,,,,,,,,,,19,001,20,w,Psychologie,2023-01-16_14h11.08.258,00_bat_bachelor,2022.2.4,59.997061962887486,
,,,,,,,,,,,,0,0,0,0,77,0,77,0,,,,,,,77,,,1,19581.91340658744,X,None,nogo,None,1,,19582.713185108758,,,,,,,,,,,,,,,19,001,20,w,Psychologie,2023-01-16_14h11.08.258,00_bat_bachelor,2022.2.4,59.997061962887486,
,,,,,,,,,,,,0,0,0,0,78,0,78,0,,,,,,,78,,,1,19583.713405714712,Y,d,go,d,1,0.32213041110496476,,,,,,,,,,,,,,,,19,001,20,w,Psychologie,2023-01-16_14h11.08.258,00_bat_bachelor,2022.2.4,59.997061962887486,
,,,,,,,,,,,,0,0,0,0,79,0,79,0,,,,,,,79,,,1,19585.14693956512,X,l,go,l,1,0.6481913439258022,,,,,,,,,,,,,,,,19,001,20,w,Psychologie,2023-01-16_14h11.08.258,00_bat_bachelor,2022.2.4,59.997061962887486,
,,,,,,,,,,,,0,0,0,0,80,0,80,0,,,,,,,80,,,1,19586.89640489871,Y,d,go,d,1,0.3702535392896351,,,,,,,,,,,,,,,,19,001,20,w,Psychologie,2023-01-16_14h11.08.258,00_bat_bachelor,2022.2.4,59.997061962887486,
,,,,,,,,,,,,0,0,0,0,81,0,81,0,,,,,,,81,,,1,19588.37985193704,X,l,go,l,1,0.45541810405681815,,,,,,,,,,,,,,,,19,001,20,w,Psychologie,2023-01-16_14h11.08.258,00_bat_bachelor,2022.2.4,59.997061962887486,
,,,,,,,,,,,,0,0,0,0,82,0,82,0,,,,,,,82,,,1,19589.94652317744,Y,d,go,d,1,0.3773793540150763,,,,,,,,,,,,,,,,19,001,20,w,Psychologie,2023-01-16_14h11.08.258,00_bat_bachelor,2022.2.4,59.997061962887486,
,,,,,,,,,,,,0,0,0,0,83,0,83,0,,,,,,,83,,,1,19591.4297816098,X,l,go,l,1,0.5904842203873812,,,,,,,,,,,,,,,,19,001,20,w,Psychologie,2023-01-16_14h11.08.258,00_bat_bachelor,2022.2.4,59.997061962887486,
,,,,,,,,,,,,0,0,0,0,84,0,84,0,,,,,,,84,,,1,19593.129741028002,X,None,nogo,None,1,,19593.92979688252,,,,,,,,,,,,,,,19,001,20,w,Psychologie,2023-01-16_14h11.08.258,00_bat_bachelor,2022.2.4,59.997061962887486,
,,,,,,,,,,,,0,0,0,0,85,0,85,0,,,,,,,85,,,1,19594.93014306417,X,None,nogo,None,1,,19595.729914797615,,,,,,,,,,,,,,,19,001,20,w,Psychologie,2023-01-16_14h11.08.258,00_bat_bachelor,2022.2.4,59.997061962887486,
,,,,,,,,,,,,0,0,0,0,86,0,86,0,,,,,,,86,,,1,19596.729732979522,Y,d,go,d,1,0.32958980143136785,,,,,,,,,,,,,,,,19,001,20,w,Psychologie,2023-01-16_14h11.08.258,00_bat_bachelor,2022.2.4,59.997061962887486,
,,,,,,,,,,,,0,0,0,0,87,0,87,0,,,,,,,87,,,1,19598.163498102545,X,l,go,l,1,0.25626765516260264,,,,,,,,,,,,,,,,19,001,20,w,Psychologie,2023-01-16_14h11.08.258,00_bat_bachelor,2022.2.4,59.997061962887486,
,,,,,,,,,,,,0,0,0,0,88,0,88,0,,,,,,,88,,,1,19599.530025439984,X,None,nogo,None,1,,19600.33002990059,,,,,,,,,,,,,,,19,001,20,w,Psychologie,2023-01-16_14h11.08.258,00_bat_bachelor,2022.2.4,59.997061962887486,
,,,,,,,,,,,,0,0,0,0,89,0,89,0,,,,,,,89,,,1,19601.330046385432,Y,d,go,d,1,0.2585023207449666,,,,,,,,,,,,,,,,19,001,20,w,Psychologie,2023-01-16_14h11.08.258,00_bat_bachelor,2022.2.4,59.997061962887486,
,,,,,,,,,,,,0,0,0,0,90,0,90,0,,,,,,,90,,,1,19602.69659699559,X,l,go,l,1,0.2658734686830684,,,,,,,,,,,,,,,,19,001,20,w,Psychologie,2023-01-16_14h11.08.258,00_bat_bachelor,2022.2.4,59.997061962887486,
,,,,,,,,,,,,0,0,0,0,91,0,91,0,,,,,,,91,,,1,19604.06348118134,X,None,nogo,None,1,,19604.863366369274,,,,,,,,,,,,,,,19,001,20,w,Psychologie,2023-01-16_14h11.08.258,00_bat_bachelor,2022.2.4,59.997061962887486,
,,,,,,,,,,,,0,0,0,0,92,0,92,0,,,,,,,92,,,1,19605.86327909659,Y,d,go,d,1,0.2994477554367876,,,,,,,,,,,,,,,,19,001,20,w,Psychologie,2023-01-16_14h11.08.258,00_bat_bachelor,2022.2.4,59.997061962887486,
,,,,,,,,,,,,0,0,0,0,93,0,93,0,,,,,,,93,,,1,19607.26317950876,X,l,go,l,1,0.260527047032312,,,,,,,,,,,,,,,,19,001,20,w,Psychologie,2023-01-16_14h11.08.258,00_bat_bachelor,2022.2.4,59.997061962887486,
,,,,,,,,,,,,0,0,0,0,94,0,94,0,,,,,,,94,,,1,19608.62974611891,Y,d,go,d,1,0.2851166108686556,,,,,,,,,,,,,,,,19,001,20,w,Psychologie,2023-01-16_14h11.08.258,00_bat_bachelor,2022.2.4,59.997061962887486,
,,,,,,,,,,,,0,0,0,0,95,0,95,0,,,,,,,95,,,1,19610.030154652046,X,l,go,l,1,0.24622935699714787,,,,,,,,,,,,,,,,19,001,20,w,Psychologie,2023-01-16_14h11.08.258,00_bat_bachelor,2022.2.4,59.997061962887486,
,,,,,,,,,,,,0,0,0,0,96,0,96,0,,,,,,,96,,,1,19611.380052179367,Y,d,go,d,1,0.27089358745995185,,,,,,,,,,,,,,,,19,001,20,w,Psychologie,2023-01-16_14h11.08.258,00_bat_bachelor,2022.2.4,59.997061962887486,
,,,,,,,,,,,,0,0,0,0,97,0,97,0,,,,,,,97,,,1,19612.76337514503,Y,None,nogo,None,1,,19613.563057666393,,,,,,,,,,,,,,,19,001,20,w,Psychologie,2023-01-16_14h11.08.258,00_bat_bachelor,2022.2.4,59.997061962887486,
,,,,,,,,,,,,0,0,0,0,98,0,98,0,,,,,,,98,,,1,19614.563245302666,X,l,go,l,1,0.3198942909750002,,,,,,,,,,,,,,,,19,001,20,w,Psychologie,2023-01-16_14h11.08.258,00_bat_bachelor,2022.2.4,59.997061962887486,
,,,,,,,,,,,,0,0,0,0,99,0,99,0,,,,,,,99,,,1,19615.996666183433,Y,d,go,d,1,0.3272620449808272,,,,,,,,,,,,,,,,19,001,20,w,Psychologie,2023-01-16_14h11.08.258,00_bat_bachelor,2022.2.4,59.997061962887486,
,,,,,,,,,,,,0,0,0,0,100,0,100,0,,,,,,,100,,,1,19617.430038579372,X,l,go,l,1,0.2528412325793141,,,,,,,,,,,,,,,,19,001,20,w,Psychologie,2023-01-16_14h11.08.258,00_bat_bachelor,2022.2.4,59.997061962887486,
,,,,,,,,,,,,0,0,0,0,101,0,101,0,,,,,,,101,,,1,19618.79668082585,Y,d,go,d,1,0.3267878633907202,,,,,,,,,,,,,,,,19,001,20,w,Psychologie,2023-01-16_14h11.08.258,00_bat_bachelor,2022.2.4,59.997061962887486,
,,,,,,,,,,,,0,0,0,0,102,0,102,0,,,,,,,102,,,1,19620.229847646133,X,l,go,l,1,0.2686123764489565,,,,,,,,,,,,,,,,19,001,20,w,Psychologie,2023-01-16_14h11.08.258,00_bat_bachelor,2022.2.4,59.997061962887486,
,,,,,,,,,,,,0,0,0,0,103,0,103,0,,,,,,,103,,,1,19621.61363752066,Y,d,go,d,1,0.26257940967677484,,,,,,,,,,,,,,,,19,001,20,w,Psychologie,2023-01-16_14h11.08.258,00_bat_bachelor,2022.2.4,59.997061962887486,
,,,,,,,,,,,,0,0,0,0,104,0,104,0,,,,,,,104,,,1,19622.979868130973,X,l,go,l,1,0.2712611024345932,,,,,,,,,,,,,,,,19,001,20,w,Psychologie,2023-01-16_14h11.08.258,00_bat_bachelor,2022.2.4,59.997061962887486,
,,,,,,,,,,,,0,0,0,0,105,0,105,0,,,,,,,105,,,1,19624.36334091474,X,None,nogo,None,1,,19625.163080163355,,,,,,,,,,,,,,,19,001,20,w,Psychologie,2023-01-16_14h11.08.258,00_bat_bachelor,2022.2.4,59.997061962887486,
,,,,,,,,,,,,0,0,0,0,106,0,106,0,,,,,,,106,,,1,19626.16323676934,Y,d,go,d,1,0.1906676869677284,,,,,,,,,,,,,,,,19,001,20,w,Psychologie,2023-01-16_14h11.08.258,00_bat_bachelor,2022.2.4,59.997061962887486,
,,,,,,,,,,,,0,0,0,0,107,0,107,0,,,,,,,107,,,1,19627.463394199563,X,l,go,l,1,0.18756659756233773,,,,,,,,,,,,,,,,19,001,20,w,Psychologie,2023-01-16_14h11.08.258,00_bat_bachelor,2022.2.4,59.997061962887486,
,,,,,,,,,,,,0,0,0,0,108,0,108,0,,,,,,,108,,,1,19628.763056599728,Y,d,go,d,1,0.3125003551705703,,,,,,,,,,,,,,,,19,001,20,w,Psychologie,2023-01-16_14h11.08.258,00_bat_bachelor,2022.2.4,59.997061962887486,
,,,,,,,,,,,,0,0,0,0,109,0,109,0,,,,,,,109,,,1,19630.180032882407,Y,None,nogo,l,0,0.1909251413837154,,,,,,,,,,,,,,,,19,001,20,w,Psychologie,2023-01-16_14h11.08.258,00_bat_bachelor,2022.2.4,59.997061962887486,
,,,,,,,,,,,,0,0,0,0,110,0,110,0,,,,,,,110,,,1,19631.479828130992,X,l,go,None,0,,19632.28003525816,,,,,,,,,,,,,,,19,001,20,w,Psychologie,2023-01-16_14h11.08.258,00_bat_bachelor,2022.2.4,59.997061962887486,
,,,,,,,,,,,,0,0,0,0,111,0,111,0,,,,,,,111,,,1,19633.280026046046,Y,d,go,d,1,0.29154521381330767,,,,,,,,,,,,,,,,19,001,20,w,Psychologie,2023-01-16_14h11.08.258,00_bat_bachelor,2022.2.4,59.997061962887486,
,,,,,,,,,,,,0,0,0,0,112,0,112,0,,,,,,,112,,,1,19634.68001954908,X,l,go,l,1,0.20284174167152003,,,,,,,,,,,,,,,,19,001,20,w,Psychologie,2023-01-16_14h11.08.258,00_bat_bachelor,2022.2.4,59.997061962887486,
,,,,,,,,,,,,0,0,0,0,113,0,113,0,,,,,,,113,,,1,19635.996737456124,Y,d,go,d,1,0.2305411221806679,,,,,,,,,,,,,,,,19,001,20,w,Psychologie,2023-01-16_14h11.08.258,00_bat_bachelor,2022.2.4,59.997061962887486,
,,,,,,,,,,,,0,0,0,0,114,0,114,0,,,,,,,114,,,1,19637.330020203626,X,l,go,l,1,0.1769522996784616,,,,,,,,,,,,,,,,19,001,20,w,Psychologie,2023-01-16_14h11.08.258,00_bat_bachelor,2022.2.4,59.997061962887486,
,,,,,,,,,,,,0,0,0,0,115,0,115,0,,,,,,,115,,,1,19638.613028066407,Y,d,go,d,1,0.23751614910194974,,,,,,,,,,,,,,,,19,001,20,w,Psychologie,2023-01-16_14h11.08.258,00_bat_bachelor,2022.2.4,59.997061962887486,
,,,,,,,,,,,,0,0,0,0,116,0,116,0,,,,,,,116,,,1,19639.963356623826,X,l,go,l,1,0.19926647067602232,,,,,,,,,,,,,,,,19,001,20,w,Psychologie,2023-01-16_14h11.08.258,00_bat_bachelor,2022.2.4,59.997061962887486,
,,,,,,,,,,,,0,0,0,0,117,0,117,0,,,,,,,117,,,1,19641.263044236097,X,None,nogo,None,1,,19642.063440454087,,,,,,,,,,,,,,,19,001,20,w,Psychologie,2023-01-16_14h11.08.258,00_bat_bachelor,2022.2.4,59.997061962887486,
,,,,,,,,,,,,0,0,0,0,118,0,118,0,,,,,,,118,,,1,19643.063275605684,Y,d,go,d,1,0.23525142292616863,,,,,,,,,,,,,,,,19,001,20,w,Psychologie,2023-01-16_14h11.08.258,00_bat_bachelor,2022.2.4,59.997061962887486,
,,,,,,,,,,,,0,0,0,0,119,0,119,0,,,,,,,119,,,1,19644.41334331474,X,l,go,l,1,0.18103229770183304,,,,,,,,,,,,,,,,19,001,20,w,Psychologie,2023-01-16_14h11.08.258,00_bat_bachelor,2022.2.4,59.997061962887486,
,,,,,,,,,,,,0,0,0,0,120,0,120,0,,,,,,,120,,,1,19645.69666778343,Y,d,go,d,1,0.1790550865354561,,,,,,,,,,,,,,,,19,001,20,w,Psychologie,2023-01-16_14h11.08.258,00_bat_bachelor,2022.2.4,59.997061962887486,
,,,,,,,,,,,,0,0,0,0,121,0,121,0,,,,,,,121,,,1,19646.980022797565,X,l,go,l,1,0.20746525457995801,,,,,,,,,,,,,,,,19,001,20,w,Psychologie,2023-01-16_14h11.08.258,00_bat_bachelor,2022.2.4,59.997061962887486,
,,,,,,,,,,,,0,0,0,0,122,0,122,0,,,,,,,122,,,1,19648.29675185612,X,None,nogo,None,1,,19649.09666225616,,,,,,,,,,,,,,,19,001,20,w,Psychologie,2023-01-16_14h11.08.258,00_bat_bachelor,2022.2.4,59.997061962887486,
,,,,,,,,,,,,0,0,0,0,123,0,123,0,,,,,,,123,,,1,19650.096580316807,X,None,nogo,d,0,0.2424960254740398,,,,,,,,,,,,,,,,19,001,20,w,Psychologie,2023-01-16_14h11.08.258,00_bat_bachelor,2022.2.4,59.997061962887486,
,,,,,,,,,,,,0,0,0,0,124,0,124,0,,,,,,,124,,,1,19651.446699904627,Y,d,go,d,1,0.3968886778913401,,,,,,,,,,,,,,,,19,001,20,w,Psychologie,2023-01-16_14h11.08.258,00_bat_bachelor,2022.2.4,59.997061962887486,
,,,,,,,,,,,,0,0,0,0,125,0,125,0,,,,,,,125,,,1,19652.94636269267,X,l,go,l,1,0.1928625949932865,,,,,,,,,,,,,,,,19,001,20,w,Psychologie,2023-01-16_14h11.08.258,00_bat_bachelor,2022.2.4,59.997061962887486,
,,,,,,,,,,,,0,0,0,0,126,0,126,0,,,,,,,126,,,1,19654.246670910703,Y,d,go,d,1,0.33238737582921374,,,,,,,,,,,,,,,,19,001,20,w,Psychologie,2023-01-16_14h11.08.258,00_bat_bachelor,2022.2.4,59.997061962887486,
,,,,,,,,,,,,0,0,0,0,127,0,127,0,,,,,,,127,,,1,19655.68022124595,X,l,go,l,1,0.18019835871216117,,,,,,,,,,,,,,,,19,001,20,w,Psychologie,2023-01-16_14h11.08.258,00_bat_bachelor,2022.2.4,59.997061962887486,
,,,,,,,,,,,,0,0,0,0,128,0,128,0,,,,,,,128,,,1,19656.963025472473,Y,d,go,d,1,0.2232805196382941,,,,,,,,,,,,,,,,19,001,20,w,Psychologie,2023-01-16_14h11.08.258,00_bat_bachelor,2022.2.4,59.997061962887486,
,,,,,,,,,,,,0,0,0,0,129,0,129,0,,,,,,,129,,,1,19658.296647613744,X,l,go,l,1,0.154799583144424,,,,,,,,,,,,,,,,19,001,20,w,Psychologie,2023-01-16_14h11.08.258,00_bat_bachelor,2022.2.4,59.997061962887486,
,,,,,,,,,,,,0,0,0,0,130,0,130,0,,,,,,,130,,,1,19659.563035363375,X,None,nogo,d,0,0.2957056966462659,,,,,,,,,,,,,,,,19,001,20,w,Psychologie,2023-01-16_14h11.08.258,00_bat_bachelor,2022.2.4,59.997061962887486,
,,,,,,,,,,,,0,0,0,0,131,0,131,0,,,,,,,131,,,1,19660.96300123006,Y,d,go,d,1,0.4965831750070464,,,,,,,,,,,,,,,,19,001,20,w,Psychologie,2023-01-16_14h11.08.258,00_bat_bachelor,2022.2.4,59.997061962887486,
,,,,,,,,,,,,0,0,0,0,132,0,132,0,,,,,,,132,,,1,19662.563033423983,X,l,go,l,1,0.3350569502928664,,,,,,,,,,,,,,,,19,001,20,w,Psychologie,2023-01-16_14h11.08.258,00_bat_bachelor,2022.2.4,59.997061962887486,
,,,,,,,,,,,,0,0,0,0,133,0,133,0,,,,,,,133,,,1,19664.01305550882,X,None,nogo,None,1,,19664.813214151167,,,,,,,,,,,,,,,19,001,20,w,Psychologie,2023-01-16_14h11.08.258,00_bat_bachelor,2022.2.4,59.997061962887486,
,,,,,,,,,,,,0,0,0,0,134,0,134,0,,,,,,,134,,,1,19665.813347484436,X,None,nogo,None,1,,19666.613327702627,,,,,,,,,,,,,,,19,001,20,w,Psychologie,2023-01-16_14h11.08.258,00_bat_bachelor,2022.2.4,59.997061962887486,
,,,,,,,,,,,,0,0,0,0,135,0,135,0,,,,,,,135,,,1,19667.613305884457,Y,d,go,d,1,0.2144063421239224,,,,,,,,,,,,,,,,19,001,20,w,Psychologie,2023-01-16_14h11.08.258,00_bat_bachelor,2022.2.4,59.997061962887486,
,,,,,,,,,,,,0,0,0,0,136,0,136,0,,,,,,,136,,,1,19668.929960276382,X,l,go,l,1,0.20935713244959686,,,,,,,,,,,,,,,,19,001,20,w,Psychologie,2023-01-16_14h11.08.258,00_bat_bachelor,2022.2.4,59.997061962887486,
,,,,,,,,,,,,0,0,0,0,137,0,137,0,,,,,,,137,,,1,19670.246526425926,X,None,nogo,None,1,,19671.046545916826,,,,,,,,,,,,,,,19,001,20,w,Psychologie,2023-01-16_14h11.08.258,00_bat_bachelor,2022.2.4,59.997061962887486,
,,,,,,,,,,,,0,0,0,0,138,0,138,0,,,,,,,138,,,1,19672.046581310748,Y,d,go,d,1,0.27754231151099873,,,,,,,,,,,,,,,,19,001,20,w,Psychologie,2023-01-16_14h11.08.258,00_bat_bachelor,2022.2.4,59.997061962887486,
,,,,,,,,,,,,0,0,0,0,139,0,139,0,,,,,,,139,,,1,19673.430054579367,X,l,go,l,1,0.26898183081554805,,,,,,,,,,,,,,,,19,001,20,w,Psychologie,2023-01-16_14h11.08.258,00_bat_bachelor,2022.2.4,59.997061962887486,
,,,,,,,,,,,,0,0,0,0,140,0,140,0,,,,,,,140,,,1,19674.81353124192,X,None,nogo,None,1,,19675.613312672333,,,,,,,,,,,,,,,19,001,20,w,Psychologie,2023-01-16_14h11.08.258,00_bat_bachelor,2022.2.4,59.997061962887486,
,,,,,,,,,,,,0,0,0,0,141,0,141,0,,,,,,,141,,,1,19676.61334079353,Y,d,go,d,1,0.20561507365907516,,,,,,,,,,,,,,,,19,001,20,w,Psychologie,2023-01-16_14h11.08.258,00_bat_bachelor,2022.2.4,59.997061962887486,
,,,,,,,,,,,,0,0,0,0,142,0,142,0,,,,,,,142,,,1,19677.929803670395,X,l,go,l,1,0.3611354831029274,,,,,,,,,,,,,,,,19,001,20,w,Psychologie,2023-01-16_14h11.08.258,00_bat_bachelor,2022.2.4,59.997061962887486,
,,,,,,,,,,,,0,0,0,0,143,0,143,0,,,,,,,143,,,1,19679.396527322893,X,None,nogo,None,1,,19680.19632135936,,,,,,,,,,,,,,,19,001,20,w,Psychologie,2023-01-16_14h11.08.258,00_bat_bachelor,2022.2.4,59.997061962887486,
,,,,,,,,,,,,0,0,0,0,144,0,144,0,,,,,,,144,,,1,19681.1966694804,Y,d,go,d,1,0.21465652382009637,,,,,,,,,,,,,,,,19,001,20,w,Psychologie,2023-01-16_14h11.08.258,00_bat_bachelor,2022.2.4,59.997061962887486,
,,,,,,,,,,,,0,0,0,0,145,0,145,0,,,,,,,145,,,1,19682.513119266365,X,l,go,l,1,0.22490524612491924,,,,,,,,,,,,,,,,19,001,20,w,Psychologie,2023-01-16_14h11.08.258,00_bat_bachelor,2022.2.4,59.997061962887486,
,,,,,,,,,,,,0,0,0,0,146,0,146,0,,,,,,,146,,,1,19683.846731225825,X,None,nogo,None,1,,19684.646354595705,,,,,,,,,,,,,,,19,001,20,w,Psychologie,2023-01-16_14h11.08.258,00_bat_bachelor,2022.2.4,59.997061962887486,
,,,,,,,,,,,,0,0,0,0,147,0,147,0,,,,,,,147,,,1,19685.646450595657,Y,d,go,d,1,0.21333191840146526,,,,,,,,,,,,,,,,19,001,20,w,Psychologie,2023-01-16_14h11.08.258,00_bat_bachelor,2022.2.4,59.997061962887486,
,,,,,,,,,,,,0,0,0,0,148,0,148,0,,,,,,,148,,,1,19686.96314183605,X,l,go,l,1,0.20822016330400572,,,,,,,,,,,,,,,,19,001,20,w,Psychologie,2023-01-16_14h11.08.258,00_bat_bachelor,2022.2.4,59.997061962887486,
,,,,,,,,,,,,0,0,0,0,149,0,149,0,,,,,,,149,,,1,19688.279856834008,X,None,nogo,None,1,,19689.08001402181,,,,,,,,,,,,,,,19,001,20,w,Psychologie,2023-01-16_14h11.08.258,00_bat_bachelor,2022.2.4,59.997061962887486,
,,,,,,,,,,,,0,0,0,0,150,0,150,0,,,,,,,150,,,1,19690.08000529454,X,None,nogo,None,1,,19690.880046118764,,,,,,,,,,,,,,,19,001,20,w,Psychologie,2023-01-16_14h11.08.258,00_bat_bachelor,2022.2.4,59.997061962887486,
,,,,,,,,,,,,0,0,0,0,151,0,151,0,,,,,,,151,,,1,19691.879920058218,Y,d,go,d,1,0.21932124882930282,,,,,,,,,,,,,,,,19,001,20,w,Psychologie,2023-01-16_14h11.08.258,00_bat_bachelor,2022.2.4,59.997061962887486,
,,,,,,,,,,,,0,0,0,0,152,0,152,0,,,,,,,152,,,1,19693.213106320916,X,l,go,l,1,0.23113069765001626,,,,,,,,,,,,,,,,19,001,20,w,Psychologie,2023-01-16_14h11.08.258,00_bat_bachelor,2022.2.4,59.997061962887486,
,,,,,,,,,,,,0,0,0,0,153,0,153,0,,,,,,,153,,,1,19694.546337674503,X,None,nogo,None,1,,19695.346624316786,,,,,,,,,,,,,,,19,001,20,w,Psychologie,2023-01-16_14h11.08.258,00_bat_bachelor,2022.2.4,59.997061962887486,
,,,,,,,,,,,,0,0,0,0,154,0,154,0,,,,,,,154,,,1,19696.34693074088,Y,d,go,d,1,0.24858668918948013,,,,,,,,,,,,,,,,19,001,20,w,Psychologie,2023-01-16_14h11.08.258,00_bat_bachelor,2022.2.4,59.997061962887486,
,,,,,,,,,,,,0,0,0,0,155,0,155,0,,,,,,,155,,,1,19697.696441359298,X,l,go,l,1,0.22639082115908593,,,,,,,,,,,,,,,,19,001,20,w,Psychologie,2023-01-16_14h11.08.258,00_bat_bachelor,2022.2.4,59.997061962887486,
,,,,,,,,,,,,0,0,0,0,156,0,156,0,,,,,,,156,,,1,19699.029935500635,Y,d,go,d,1,0.2526182023849941,,,,,,,,,,,,,,,,19,001,20,w,Psychologie,2023-01-16_14h11.08.258,00_bat_bachelor,2022.2.4,59.997061962887486,
,,,,,,,,,,,,0,0,0,0,157,0,157,0,,,,,,,157,,,1,19700.396535565313,X,l,go,l,1,0.4868454827575732,,,,,,,,,,,,,,,,19,001,20,w,Psychologie,2023-01-16_14h11.08.258,00_bat_bachelor,2022.2.4,59.997061962887486,
,,,,,,,,,,,,0,0,0,0,158,0,158,0,,,,,,,158,,,1,19701.99641745628,Y,d,go,d,1,0.3593551203286296,,,,,,,,,,,,,,,,19,001,20,w,Psychologie,2023-01-16_14h11.08.258,00_bat_bachelor,2022.2.4,59.997061962887486,
,,,,,,,,,,,,0,0,0,0,159,0,159,0,,,,,,,159,,,1,19703.46332389657,X,l,go,l,1,0.21938961243192523,,,,,,,,,,,,,,,,19,001,20,w,Psychologie,2023-01-16_14h11.08.258,00_bat_bachelor,2022.2.4,59.997061962887486,
,,,,,,,,,,,,0,0,0,0,160,0,160,0,,,,,,,160,,,1,19704.796440341117,Y,d,go,d,1,0.4391461119468403,,,,,,,,,,,,,,,,19,001,20,w,Psychologie,2023-01-16_14h11.08.258,00_bat_bachelor,2022.2.4,59.997061962887486,
,,,,,,,,,,,,0,0,0,0,161,0,161,0,,,,,,,161,,,1,19706.346535589557,Y,None,nogo,None,1,,19707.146599686497,,,,,,,,,,,,,,,19,001,20,w,Psychologie,2023-01-16_14h11.08.258,00_bat_bachelor,2022.2.4,59.997061962887486,
,,,,,,,,,,,,0,0,0,0,162,0,162,0,,,,,,,162,,,1,19708.146417383552,X,l,go,l,1,0.19323835238735398,,,,,,,,,,,,,,,,19,001,20,w,Psychologie,2023-01-16_14h11.08.258,00_bat_bachelor,2022.2.4,59.997061962887486,
,,,,,,,,,,,,0,0,0,0,163,0,163,0,,,,,,,163,,,1,19709.44663590466,Y,d,go,d,1,0.5079538361625708,,,,,,,,,,,,,,,,19,001,20,w,Psychologie,2023-01-16_14h11.08.258,00_bat_bachelor,2022.2.4,59.997061962887486,
,,,,,,,,,,,,0,0,0,0,164,0,164,0,,,,,,,164,,,1,19711.06309039365,X,l,go,l,1,0.26742983156343314,,,,,,,,,,,,,,,,19,001,20,w,Psychologie,2023-01-16_14h11.08.258,00_bat_bachelor,2022.2.4,59.997061962887486,
,,,,,,,,,,,,0,0,0,0,165,0,165,0,,,,,,,165,,,1,19712.446550571367,X,None,nogo,None,1,,19713.24665006223,,,,,,,,,,,,,,,19,001,20,w,Psychologie,2023-01-16_14h11.08.258,00_bat_bachelor,2022.2.4,59.997061962887486,
,,,,,,,,,,,,0,0,0,0,166,0,166,0,,,,,,,166,,,1,19714.246695637965,Y,d,go,d,1,0.31676265613184285,,,,,,,,,,,,,,,,19,001,20,w,Psychologie,2023-01-16_14h11.08.258,00_bat_bachelor,2022.2.4,59.997061962887486,
,,,,,,,,,,,,0,0,0,0,167,0,167,0,,,,,,,167,,,1,19715.663002830057,X,l,go,l,1,0.3400106448590776,,,,,,,,,,,,,,,,19,001,20,w,Psychologie,2023-01-16_14h11.08.258,00_bat_bachelor,2022.2.4,59.997061962887486,
,,,,,,,,,,,,0,0,0,0,168,0,168,0,,,,,,,168,,,1,19717.113241642062,X,None,nogo,None,1,,19717.913099193647,,,,,,,,,,,,,,,19,001,20,w,Psychologie,2023-01-16_14h11.08.258,00_bat_bachelor,2022.2.4,59.997061962887486,
,,,,,,,,,,,,0,0,0,0,169,0,169,0,,,,,,,169,,,1,19718.913318345058,Y,d,go,d,1,0.28921357857886676,,,,,,,,,,,,,,,,19,001,20,w,Psychologie,2023-01-16_14h11.08.258,00_bat_bachelor,2022.2.4,59.997061962887486,
,,,,,,,,,,,,0,0,0,0,170,0,170,0,,,,,,,170,,,1,19720.313060211847,X,l,go,l,1,0.2974938169920023,,,,,,,,,,,,,,,,19,001,20,w,Psychologie,2023-01-16_14h11.08.258,00_bat_bachelor,2022.2.4,59.997061962887486,
,,,,,,,,,,,,0,0,0,0,171,0,171,0,,,,,,,171,,,1,19721.713006199752,Y,d,go,d,1,0.2413367533064701,,,,,,,,,,,,,,,,19,001,20,w,Psychologie,2023-01-16_14h11.08.258,00_bat_bachelor,2022.2.4,59.997061962887486,
,,,,,,,,,,,,0,0,0,0,172,0,172,0,,,,,,,172,,,1,19723.06325718145,Y,None,nogo,l,0,0.1883001729640199,,,,,,,,,,,,,,,,19,001,20,w,Psychologie,2023-01-16_14h11.08.258,00_bat_bachelor,2022.2.4,59.997061962887486,
,,,,,,,,,,,,0,0,0,0,173,0,173,0,,,,,,,173,,,1,19724.36327982386,X,l,go,l,1,0.5183228008301484,,,,,,,,,,,,,,,,19,001,20,w,Psychologie,2023-01-16_14h11.08.258,00_bat_bachelor,2022.2.4,59.997061962887486,
,,,,,,,,,,,,0,0,0,0,174,0,174,0,,,,,,,174,,,1,19726.01328775113,Y,d,go,d,1,0.35729742435630385,,,,,,,,,,,,,,,,19,001,20,w,Psychologie,2023-01-16_14h11.08.258,00_bat_bachelor,2022.2.4,59.997061962887486,
,,,,,,,,,,,,0,0,0,0,175,0,175,0,,,,,,,175,,,1,19727.479952252143,X,l,go,l,1,0.3318171942866428,,,,,,,,,,,,,,,,19,001,20,w,Psychologie,2023-01-16_14h11.08.258,00_bat_bachelor,2022.2.4,59.997061962887486,
,,,,,,,,,,,,0,0,0,0,176,0,176,0,,,,,,,176,,,1,19728.913238345096,X,None,nogo,None,1,,19729.712961108864,,,,,,,,,,,,,,,19,001,20,w,Psychologie,2023-01-16_14h11.08.258,00_bat_bachelor,2022.2.4,59.997061962887486,
,,,,,,,,,,,,0,0,0,0,177,0,177,0,,,,,,,177,,,1,19730.713271411747,Y,d,go,d,1,0.28198158208958546,,,,,,,,,,,,,,,,19,001,20,w,Psychologie,2023-01-16_14h11.08.258,00_bat_bachelor,2022.2.4,59.997061962887486,
,,,,,,,,,,,,0,0,0,0,178,0,178,0,,,,,,,178,,,1,19732.096637044055,X,l,go,l,1,0.21130088908300593,,,,,,,,,,,,,,,,19,001,20,w,Psychologie,2023-01-16_14h11.08.258,00_bat_bachelor,2022.2.4,59.997061962887486,
,,,,,,,,,,,,0,0,0,0,179,0,179,0,,,,,,,179,,,1,19733.41322161783,X,None,nogo,None,1,,19734.213300745065,,,,,,,,,,,,,,,19,001,20,w,Psychologie,2023-01-16_14h11.08.258,00_bat_bachelor,2022.2.4,59.997061962887486,
,,,,,,,,,,,,0,0,0,0,180,0,180,0,,,,,,,180,,,1,19735.213065593663,Y,d,go,d,1,0.1972456231725772,,,,,,,,,,,,,,,,19,001,20,w,Psychologie,2023-01-16_14h11.08.258,00_bat_bachelor,2022.2.4,59.997061962887486,
,,,,,,,,,,,,0,0,0,0,181,0,181,0,,,,,,,181,,,1,19736.513269084473,X,l,go,l,1,0.2412717836433984,,,,,,,,,,,,,,,,19,001,20,w,Psychologie,2023-01-16_14h11.08.258,00_bat_bachelor,2022.2.4,59.997061962887486,
,,,,,,,,,,,,0,0,0,0,182,0,182,0,,,,,,,182,,,1,19737.863219460254,Y,d,go,d,1,0.3490186404944069,,,,,,,,,,,,,,,,19,001,20,w,Psychologie,2023-01-16_14h11.08.258,00_bat_bachelor,2022.2.4,59.997061962887486,
,,,,,,,,,,,,0,0,0,0,183,0,183,0,,,,,,,183,,,1,19739.313246878424,Y,None,nogo,None,1,,19740.11331485415,,,,,,,,,,,,,,,19,001,20,w,Psychologie,2023-01-16_14h11.08.258,00_bat_bachelor,2022.2.4,59.997061962887486,
,,,,,,,,,,,,0,0,0,0,184,0,184,0,,,,,,,184,,,1,19741.113097157286,X,l,go,l,1,0.2982962408406564,,,,,,,,,,,,,,,,19,001,20,w,Psychologie,2023-01-16_14h11.08.258,00_bat_bachelor,2022.2.4,59.997061962887486,
,,,,,,,,,,,,0,0,0,0,185,0,185,0,,,,,,,185,,,1,19742.513301569306,Y,d,go,d,1,0.24261335874886925,,,,,,,,,,,,,,,,19,001,20,w,Psychologie,2023-01-16_14h11.08.258,00_bat_bachelor,2022.2.4,59.997061962887486,
,,,,,,,,,,,,0,0,0,0,186,0,186,0,,,,,,,186,,,1,19743.86309824819,Y,None,nogo,None,1,,19744.663299072337,,,,,,,,,,,,,,,19,001,20,w,Psychologie,2023-01-16_14h11.08.258,00_bat_bachelor,2022.2.4,59.997061962887486,
,,,,,,,,,,,,0,0,0,0,187,0,187,0,,,,,,,187,,,1,19745.662981981583,X,l,go,l,1,0.18098332802598804,,,,,,,,,,,,,,,,19,001,20,w,Psychologie,2023-01-16_14h11.08.258,00_bat_bachelor,2022.2.4,59.997061962887486,
,,,,,,,,,,,,0,0,0,0,188,0,188,0,,,,,,,188,,,1,19746.94661772285,Y,d,go,d,1,0.23993408732182786,,,,,,,,,,,,,,,,19,001,20,w,Psychologie,2023-01-16_14h11.08.258,00_bat_bachelor,2022.2.4,59.997061962887486,
,,,,,,,,,,,,0,0,0,0,189,0,189,0,,,,,,,189,,,1,19748.29662434103,X,l,go,l,1,0.2825275212145897,,,,,,,,,,,,,,,,19,001,20,w,Psychologie,2023-01-16_14h11.08.258,00_bat_bachelor,2022.2.4,59.997061962887486,
,,,,,,,,,,,,0,0,0,0,190,0,190,0,,,,,,,190,,,1,19749.67994730669,Y,d,go,d,1,0.27574740328979885,,,,,,,,,,,,,,,,19,001,20,w,Psychologie,2023-01-16_14h11.08.258,00_bat_bachelor,2022.2.4,59.997061962887486,
,,,,,,,,,,,,0,0,0,0,191,0,191,0,,,,,,,191,,,1,19751.06322906025,X,l,go,l,1,0.23606790737737526,,,,,,,,,,,,,,,,19,001,20,w,Psychologie,2023-01-16_14h11.08.258,00_bat_bachelor,2022.2.4,59.997061962887486,
,,,,,,,,,,,,0,0,0,0,192,0,192,0,,,,,,,192,,,1,19752.413724405465,X,None,nogo,None,1,,19753.213514078296,,,,,,,,,,,,,,,19,001,20,w,Psychologie,2023-01-16_14h11.08.258,00_bat_bachelor,2022.2.4,59.997061962887486,
,,,,,,,,,,,,0,0,0,0,193,0,193,0,,,,,,,193,,,1,19754.21357419948,X,None,nogo,None,1,,19755.01375902363,,,,,,,,,,,,,,,19,001,20,w,Psychologie,2023-01-16_14h11.08.258,00_bat_bachelor,2022.2.4,59.997061962887486,
,,,,,,,,,,,,0,0,0,0,194,0,194,0,,,,,,,194,,,1,19756.013615993397,Y,d,go,d,1,0.1809072068482891,,,,,,,,,,,,,,,,19,001,20,w,Psychologie,2023-01-16_14h11.08.258,00_bat_bachelor,2022.2.4,59.997061962887486,
,,,,,,,,,,,,0,0,0,0,195,0,195,0,,,,,,,195,,,1,19757.296877431814,X,l,go,l,1,0.17828660206048141,,,,,,,,,,,,,,,,19,001,20,w,Psychologie,2023-01-16_14h11.08.258,00_bat_bachelor,2022.2.4,59.997061962887486,
,,,,,,,,,,,,0,0,0,0,196,0,196,0,,,,,,,196,,,1,19758.58033862771,Y,d,go,d,1,0.28644315567923684,,,,,,,,,,,,,,,,19,001,20,w,Psychologie,2023-01-16_14h11.08.258,00_bat_bachelor,2022.2.4,59.997061962887486,
,,,,,,,,,,,,0,0,0,0,197,0,197,0,,,,,,,197,,,1,19759.980176494457,Y,None,nogo,l,0,0.2936067885731717,,,,,,,,,,,,,,,,19,001,20,w,Psychologie,2023-01-16_14h11.08.258,00_bat_bachelor,2022.2.4,59.997061962887486,
,,,,,,,,,,,,0,0,0,0,198,0,198,0,,,,,,,198,,,1,19761.397064534754,Y,None,nogo,d,0,0.5098820776494648,,,,,,,,,,,,,,,,19,001,20,w,Psychologie,2023-01-16_14h11.08.258,00_bat_bachelor,2022.2.4,59.997061962887486,
,,,,,,,,,,,,0,0,0,0,199,0,199,0,,,,,,,199,,,1,19763.013689205483,X,l,go,l,1,0.3804882009919055,,,,,,,,,,,,,,,,19,001,20,w,Psychologie,2023-01-16_14h11.08.258,00_bat_bachelor,2022.2.4,59.997061962887486,
,,,,,,,,,,,,0,0,0,0,200,0,200,0,,,,,,,200,,,1,19764.51373599334,Y,d,go,d,1,0.4161744867180204,,,,,,,,,,,,,,,,19,001,20,w,Psychologie,2023-01-16_14h11.08.258,00_bat_bachelor,2022.2.4,59.997061962887486,
,,,,,,,,,,,,0,0,0,0,201,0,201,0,,,,,,,201,,,1,19766.046717553105,X,l,go,l,1,0.516493953231631,,,,,,,,,,,,,,,,19,001,20,w,Psychologie,2023-01-16_14h11.08.258,00_bat_bachelor,2022.2.4,59.997061962887486,
,,,,,,,,,,,,0,0,0,0,202,0,202,0,,,,,,,202,,,1,19767.66360064795,Y,d,go,d,1,0.2592349264470357,,,,,,,,,,,,,,,,19,001,20,w,Psychologie,2023-01-16_14h11.08.258,00_bat_bachelor,2022.2.4,59.997061962887486,
,,,,,,,,,,,,0,0,0,0,203,0,203,0,,,,,,,203,,,1,19769.046858159098,X,l,go,l,1,0.2826763696267989,,,,,,,,,,,,,,,,19,001,20,w,Psychologie,2023-01-16_14h11.08.258,00_bat_bachelor,2022.2.4,59.997061962887486,
,,,,,,,,,,,,0,0,0,0,204,0,204,0,,,,,,,204,,,1,19770.44676584399,Y,d,go,d,1,0.2600969866381746,,,,,,,,,,,,,,,,19,001,20,w,Psychologie,2023-01-16_14h11.08.258,00_bat_bachelor,2022.2.4,59.997061962887486,
,,,,,,,,,,,,0,0,0,0,205,0,205,0,,,,,,,205,,,1,19771.813577787354,X,l,go,l,1,0.3010050880131274,,,,,,,,,,,,,,,,19,001,20,w,Psychologie,2023-01-16_14h11.08.258,00_bat_bachelor,2022.2.4,59.997061962887486,
,,,,,,,,,,,,0,0,0,0,206,0,206,0,,,,,,,206,,,1,19773.230469706436,Y,d,go,d,1,0.30916411436389524,,,,,,,,,,,,,,,,19,001,20,w,Psychologie,2023-01-16_14h11.08.258,00_bat_bachelor,2022.2.4,59.997061962887486,
,,,,,,,,,,,,0,0,0,0,207,0,207,0,,,,,,,207,,,1,19774.64690101968,X,l,go,l,1,0.2353401501551815,,,,,,,,,,,,,,,,19,001,20,w,Psychologie,2023-01-16_14h11.08.258,00_bat_bachelor,2022.2.4,59.997061962887486,
,,,,,,,,,,,,0,0,0,0,208,0,208,0,,,,,,,208,,,1,19776.013359508674,Y,d,go,d,1,0.2445154184335223,,,,,,,,,,,,,,,,19,001,20,w,Psychologie,2023-01-16_14h11.08.258,00_bat_bachelor,2022.2.4,59.997061962887486,
,,,,,,,,,,,,0,0,0,0,209,0,209,0,,,,,,,209,,,1,19777.380305755003,X,l,go,l,1,0.25429286823980135,,,,,,,,,,,,,,,,19,001,20,w,Psychologie,2023-01-16_14h11.08.258,00_bat_bachelor,2022.2.4,59.997061962887486,
,,,,,,,,,,,,0,0,0,0,210,0,210,0,,,,,,,210,,,1,19778.74709054686,Y,d,go,d,1,0.2960431510274901,,,,,,,,,,,,,,,,19,001,20,w,Psychologie,2023-01-16_14h11.08.258,00_bat_bachelor,2022.2.4,59.997061962887486,
,,,,,,,,,,,,0,0,0,0,211,0,211,0,,,,,,,211,,,1,19780.147065140816,Y,None,nogo,None,1,,19780.947063783242,,,,,,,,,,,,,,,19,001,20,w,Psychologie,2023-01-16_14h11.08.258,00_bat_bachelor,2022.2.4,59.997061962887486,
,,,,,,,,,,,,0,0,0,0,212,0,212,0,,,,,,,212,,,1,19781.946944025723,X,l,go,l,1,0.24793408344537227,,,,,,,,,,,,,,,,19,001,20,w,Psychologie,2023-01-16_14h11.08.258,00_bat_bachelor,2022.2.4,59.997061962887486,
,,,,,,,,,,,,0,0,0,0,213,0,213,0,,,,,,,213,,,1,19783.31349124194,Y,d,go,d,1,0.3379490701028516,,,,,,,,,,,,,,,,19,001,20,w,Psychologie,2023-01-16_14h11.08.258,00_bat_bachelor,2022.2.4,59.997061962887486,
,,,,,,,,,,,,0,0,0,0,214,0,214,0,,,,,,,214,,,1,19784.7630924785,X,l,go,l,1,0.2155413718775634,,,,,,,,,,,,,,,,19,001,20,w,Psychologie,2023-01-16_14h11.08.258,00_bat_bachelor,2022.2.4,59.997061962887486,
,,,,,,,,,,,,0,0,0,0,215,0,215,0,,,,,,,215,,,1,19786.080062991485,X,None,nogo,None,1,,19786.88011108843,,,,,,,,,,,,,,,19,001,20,w,Psychologie,2023-01-16_14h11.08.258,00_bat_bachelor,2022.2.4,59.997061962887486,
,,,,,,,,,,,,0,0,0,0,216,0,216,0,,,,,,,216,,,1,19787.880016058174,Y,d,go,d,1,0.24997723396715799,,,,,,,,,,,,,,,,19,001,20,w,Psychologie,2023-01-16_14h11.08.258,00_bat_bachelor,2022.2.4,59.997061962887486,
,,,,,,,,,,,,0,0,0,0,217,0,217,0,,,,,,,217,,,1,19789.230108009644,X,l,go,l,1,0.22865700187882965,,,,,,,,,,,,,,,,19,001,20,w,Psychologie,2023-01-16_14h11.08.258,00_bat_bachelor,2022.2.4,59.997061962887486,
,,,,,,,,,,,,0,0,0,0,218,0,218,0,,,,,,,218,,,1,19790.56343827227,Y,d,go,d,1,0.2398967540049597,,,,,,,,,,,,,,,,19,001,20,w,Psychologie,2023-01-16_14h11.08.258,00_bat_bachelor,2022.2.4,59.997061962887486,
,,,,,,,,,,,,0,0,0,0,219,0,219,0,,,,,,,219,,,1,19791.913604405523,Y,None,nogo,None,1,,19792.713232623886,,,,,,,,,,,,,,,19,001,20,w,Psychologie,2023-01-16_14h11.08.258,00_bat_bachelor,2022.2.4,59.997061962887486,
,,,,,,,,,,,,0,0,0,0,220,0,220,0,,,,,,,220,,,1,19793.713390199566,X,l,go,l,1,0.27421673736732544,,,,,,,,,,,,,,,,19,001,20,w,Psychologie,2023-01-16_14h11.08.258,00_bat_bachelor,2022.2.4,59.997061962887486,
,,,,,,,,,,,,0,0,0,0,221,0,221,0,,,,,,,221,,,1,19795.096675831912,Y,d,go,d,1,0.3147621722547882,,,,,,,,,,,,,,,,19,001,20,w,Psychologie,2023-01-16_14h11.08.258,00_bat_bachelor,2022.2.4,59.997061962887486,
,,,,,,,,,,,,0,0,0,0,222,0,222,0,,,,,,,222,,,1,19796.513123145152,X,l,go,l,1,0.24145505628091257,,,,,,,,,,,,,,,,19,001,20,w,Psychologie,2023-01-16_14h11.08.258,00_bat_bachelor,2022.2.4,59.997061962887486,
,,,,,,,,,,,,0,0,0,0,223,0,223,0,,,,,,,223,,,1,19797.863482248005,X,None,nogo,None,1,,19798.663234102674,,,,,,,,,,,,,,,19,001,20,w,Psychologie,2023-01-16_14h11.08.258,00_bat_bachelor,2022.2.4,59.997061962887486,
,,,,,,,,,,,,0,0,0,0,224,0,224,0,,,,,,,224,,,1,19799.66336743594,Y,d,go,d,1,0.27710400869379725,,,,,,,,,,,,,,,,19,001,20,w,Psychologie,2023-01-16_14h11.08.258,00_bat_bachelor,2022.2.4,59.997061962887486,
,,,,,,,,,,,,0,0,0,0,225,0,225,0,,,,,,,225,,,1,19801.046625916784,X,l,go,l,1,0.4122389734749703,,,,,,,,,,,,,,,,19,001,20,w,Psychologie,2023-01-16_14h11.08.258,00_bat_bachelor,2022.2.4,59.997061962887486,
,,,,,,,,,,,,0,0,0,0,226,0,226,0,,,,,,,226,,,1,19802.563222999648,Y,d,go,d,1,0.28721794318532545,,,,,,,,,,,,,,,,19,001,20,w,Psychologie,2023-01-16_14h11.08.258,00_bat_bachelor,2022.2.4,59.997061962887486,
,,,,,,,,,,,,0,0,0,0,227,0,227,0,,,,,,,227,,,1,19803.963506926782,X,l,go,l,1,0.19914525861365462,,,,,,,,,,,,,,,,19,001,20,w,Psychologie,2023-01-16_14h11.08.258,00_bat_bachelor,2022.2.4,59.997061962887486,
,,,,,,,,,,,,0,0,0,0,228,0,228,0,,,,,,,228,,,1,19805.26343162985,Y,d,go,d,1,0.32434471306457624,,,,,,,,,,,,,,,,19,001,20,w,Psychologie,2023-01-16_14h11.08.258,00_bat_bachelor,2022.2.4,59.997061962887486,
,,,,,,,,,,,,0,0,0,0,229,0,229,0,,,,,,,229,,,1,19806.69660523801,Y,None,nogo,l,0,0.2025823478563069,,,,,,,,,,,,,,,,19,001,20,w,Psychologie,2023-01-16_14h11.08.258,00_bat_bachelor,2022.2.4,59.997061962887486,
,,,,,,,,,,,,0,0,0,0,230,0,230,0,,,,,,,230,,,1,19808.013222296617,X,l,go,l,1,0.27794231131899494,,,,,,,,,,,,,,,,19,001,20,w,Psychologie,2023-01-16_14h11.08.258,00_bat_bachelor,2022.2.4,59.997061962887486,
,,,,,,,,,,,,0,0,0,0,231,0,231,0,,,,,,,231,,,1,19809.396505504723,Y,d,go,d,1,0.3019088451530223,,,,,,,,,,,,,,,,19,001,20,w,Psychologie,2023-01-16_14h11.08.258,00_bat_bachelor,2022.2.4,59.997061962887486,
,,,,,,,,,,,,0,0,0,0,232,0,232,0,,,,,,,232,,,1,19810.813273302654,X,l,go,l,1,0.30995247761727285,,,,,,,,,,,,,,,,19,001,20,w,Psychologie,2023-01-16_14h11.08.258,00_bat_bachelor,2022.2.4,59.997061962887486,
,,,,,,,,,,,,0,0,0,0,233,0,233,0,,,,,,,233,,,1,19812.23002025211,Y,d,go,d,1,0.33254883029637483,,,,,,,,,,,,,,,,19,001,20,w,Psychologie,2023-01-16_14h11.08.258,00_bat_bachelor,2022.2.4,59.997061962887486,
,,,,,,,,,,,,0,0,0,0,234,0,234,0,,,,,,,234,,,1,19813.663653981257,X,l,go,l,1,0.4023456449414624,,,,,,,,,,,,,,,,19,001,20,w,Psychologie,2023-01-16_14h11.08.258,00_bat_bachelor,2022.2.4,59.997061962887486,
,,,,,,,,,,,,0,0,0,0,235,0,235,0,,,,,,,235,,,1,19815.196687419786,X,None,nogo,None,1,,19815.996599759223,,,,,,,,,,,,,,,19,001,20,w,Psychologie,2023-01-16_14h11.08.258,00_bat_bachelor,2022.2.4,59.997061962887486,
,,,,,,,,,,,,0,0,0,0,236,0,236,0,,,,,,,236,,,1,19816.99655369864,Y,d,go,d,1,0.1744107251526401,,,,,,,,,,,,,,,,19,001,20,w,Psychologie,2023-01-16_14h11.08.258,00_bat_bachelor,2022.2.4,59.997061962887486,
,,,,,,,,,,,,0,0,0,0,237,0,237,0,,,,,,,237,,,1,19818.279967864255,X,l,go,l,1,0.2671651044203571,,,,,,,,,,,,,,,,19,001,20,w,Psychologie,2023-01-16_14h11.08.258,00_bat_bachelor,2022.2.4,59.997061962887486,
,,,,,,,,,,,,0,0,0,0,238,0,238,0,,,,,,,238,,,1,19819.66330440567,Y,d,go,d,1,0.3718632354777327,,,,,,,,,,,,,,,,19,001,20,w,Psychologie,2023-01-16_14h11.08.258,00_bat_bachelor,2022.2.4,59.997061962887486,
,,,,,,,,,,,,0,0,0,0,239,0,239,0,,,,,,,239,,,1,19821.146698595538,X,l,go,l,1,0.3604392410181134,,,,,,,,,,,,,,,,19,001,20,w,Psychologie,2023-01-16_14h11.08.258,00_bat_bachelor,2022.2.4,59.997061962887486,
,,,,,,,,,,,,0,0,0,0,240,0,240,0,,,,,,,240,,,1,19822.61340188441,X,None,nogo,None,1,,19823.413506223755,,,,,,,,,,,,,,,19,001,20,w,Psychologie,2023-01-16_14h11.08.258,00_bat_bachelor,2022.2.4,59.997061962887486,
,,,,,,,,,,,,0,0,0,0,241,0,241,0,,,,,,,241,,,1,19824.413297254156,Y,d,go,d,1,0.27884461391128923,,,,,,,,,,,,,,,,19,001,20,w,Psychologie,2023-01-16_14h11.08.258,00_bat_bachelor,2022.2.4,59.997061962887486,
,,,,,,,,,,,,0,0,0,0,242,0,242,0,,,,,,,242,,,1,19825.796527128954,X,l,go,l,1,0.26966158806150986,,,,,,,,,,,,,,,,19,001,20,w,Psychologie,2023-01-16_14h11.08.258,00_bat_bachelor,2022.2.4,59.997061962887486,
,,,,,,,,,,,,0,0,0,0,243,0,243,0,,,,,,,243,,,1,19827.179851064313,Y,d,go,d,1,0.2790589168381956,,,,,,,,,,,,,,,,19,001,20,w,Psychologie,2023-01-16_14h11.08.258,00_bat_bachelor,2022.2.4,59.997061962887486,
,,,,,,,,,,,,0,0,0,0,244,0,244,0,,,,,,,244,,,1,19828.563363120793,Y,None,nogo,None,1,,19829.36331909657,,,,,,,,,,,,,,,19,001,20,w,Psychologie,2023-01-16_14h11.08.258,00_bat_bachelor,2022.2.4,59.997061962887486,
,,,,,,,,,,,,0,0,0,0,245,0,245,0,,,,,,,245,,,1,19830.363187702696,X,l,go,l,1,0.19902550109524952,,,,,,,,,,,,,,,,19,001,20,w,Psychologie,2023-01-16_14h11.08.258,00_bat_bachelor,2022.2.4,59.997061962887486,
,,,,,,,,,,,,0,0,0,0,246,0,246,0,,,,,,,246,,,1,19831.66330634506,Y,d,go,d,1,0.2121600401825816,,,,,,,,,,,,,,,,19,001,20,w,Psychologie,2023-01-16_14h11.08.258,00_bat_bachelor,2022.2.4,59.997061962887486,
,,,,,,,,,,,,0,0,0,0,247,0,247,0,,,,,,,247,,,1,19832.979764858293,X,l,go,l,1,0.22220706561181203,,,,,,,,,,,,,,,,19,001,20,w,Psychologie,2023-01-16_14h11.08.258,00_bat_bachelor,2022.2.4,59.997061962887486,
,,,,,,,,,,,,0,0,0,0,248,0,248,0,,,,,,,248,,,1,19834.313341423833,X,None,nogo,d,0,0.23366112066848643,,,,,,,,,,,,,,,,19,001,20,w,Psychologie,2023-01-16_14h11.08.258,00_bat_bachelor,2022.2.4,59.997061962887486,
,,,,,,,,,,,,0,0,0,0,249,0,249,0,,,,,,,249,,,1,19835.663261739024,Y,d,go,d,1,0.32394810719613076,,,,,,,,,,,,,,,,19,001,20,w,Psychologie,2023-01-16_14h11.08.258,00_bat_bachelor,2022.2.4,59.997061962887486,
,,,,,,,,,,,,1,0,1,0,0,0,0,0,,,,,,,0,,,0.2,19874.32983014311,X,l,go,l,1,0.5209051026087508,,,,,,,,,19836.11702297356,space,37.9853693622628,,,,,19,001,20,w,Psychologie,2023-01-16_14h11.08.258,00_bat_bachelor,2022.2.4,59.997061962887486,
,,,,,,,,,,,,1,0,1,0,1,0,1,0,,,,,,,1,,,0.2,19875.16319943602,Y,d,go,d,1,0.37628699090616635,,,,,,,,,,,,,,,,19,001,20,w,Psychologie,2023-01-16_14h11.08.258,00_bat_bachelor,2022.2.4,59.997061962887486,
,,,,,,,,,,,,1,0,1,0,2,0,2,0,,,,,,,2,,,0.2,19875.84653874107,X,l,go,l,1,0.3156896869569863,,,,,,,,,,,,,,,,19,001,20,w,Psychologie,2023-01-16_14h11.08.258,00_bat_bachelor,2022.2.4,59.997061962887486,
,,,,,,,,,,,,1,0,1,0,3,0,3,0,,,,,,,3,,,0.2,19876.46311007849,Y,d,go,d,1,0.3246375614054813,,,,,,,,,,,,,,,,19,001,20,w,Psychologie,2023-01-16_14h11.08.258,00_bat_bachelor,2022.2.4,59.997061962887486,
,,,,,,,,,,,,1,0,1,0,4,0,4,0,,,,,,,4,,,0.2,19877.09661522588,Y,None,nogo,None,1,,19877.896309383606,,,,,,,,,,,,,,,19,001,20,w,Psychologie,2023-01-16_14h11.08.258,00_bat_bachelor,2022.2.4,59.997061962887486,
,,,,,,,,,,,,1,0,1,0,5,0,5,0,,,,,,,5,,,0.2,19878.096548316822,X,l,go,l,1,0.29171345615593225,,,,,,,,,,,,,,,,19,001,20,w,Psychologie,2023-01-16_14h11.08.258,00_bat_bachelor,2022.2.4,59.997061962887486,
,,,,,,,,,,,,1,0,1,0,6,0,6,0,,,,,,,6,,,0.2,19878.696466571408,Y,d,go,d,1,0.36262639147223297,,,,,,,,,,,,,,,,19,001,20,w,Psychologie,2023-01-16_14h11.08.258,00_bat_bachelor,2022.2.4,59.997061962887486,
,,,,,,,,,,,,1,0,1,0,7,0,7,0,,,,,,,7,,,0.2,19879.363215339046,X,l,go,l,1,0.31941720029696796,,,,,,,,,,,,,,,,19,001,20,w,Psychologie,2023-01-16_14h11.08.258,00_bat_bachelor,2022.2.4,59.997061962887486,
,,,,,,,,,,,,1,0,1,0,8,0,8,0,,,,,,,8,,,0.2,19879.996463032017,X,None,nogo,l,0,0.3434482189533554,,,,,,,,,,,,,,,,19,001,20,w,Psychologie,2023-01-16_14h11.08.258,00_bat_bachelor,2022.2.4,59.997061962887486,
,,,,,,,,,,,,1,0,1,0,9,0,9,0,,,,,,,9,,,0.2,19880.64648889867,Y,d,go,d,1,0.5892289482709856,,,,,,,,,,,,,,,,19,001,20,w,Psychologie,2023-01-16_14h11.08.258,00_bat_bachelor,2022.2.4,59.997061962887486,
,,,,,,,,,,,,1,0,1,0,10,0,10,0,,,,,,,10,,,0.2,19881.54639634114,X,l,go,l,1,0.5048057164769233,,,,,,,,,,,,,,,,19,001,20,w,Psychologie,2023-01-16_14h11.08.258,00_bat_bachelor,2022.2.4,59.997061962887486,
,,,,,,,,,,,,1,0,1,0,11,0,11,0,,,,,,,11,,,0.2,19882.363452914688,Y,d,go,d,1,0.45674658826298753,,,,,,,,,,,,,,,,19,001,20,w,Psychologie,2023-01-16_14h11.08.258,00_bat_bachelor,2022.2.4,59.997061962887486,
,,,,,,,,,,,,1,0,1,0,12,0,12,0,,,,,,,12,,,0.2,19883.129581512927,Y,None,nogo,None,1,,19883.929710579534,,,,,,,,,,,,,,,19,001,20,w,Psychologie,2023-01-16_14h11.08.258,00_bat_bachelor,2022.2.4,59.997061962887486,
,,,,,,,,,,,,1,0,1,0,13,0,13,0,,,,,,,13,,,0.2,19884.130000421817,X,l,go,l,1,0.17732175404141515,,,,,,,,,,,,,,,,19,001,20,w,Psychologie,2023-01-16_14h11.08.258,00_bat_bachelor,2022.2.4,59.997061962887486,
,,,,,,,,,,,,1,0,1,0,14,0,14,0,,,,,,,14,,,0.2,19884.61319630875,Y,d,go,d,1,0.3340940416693883,,,,,,,,,,,,,,,,19,001,20,w,Psychologie,2023-01-16_14h11.08.258,00_bat_bachelor,2022.2.4,59.997061962887486,
,,,,,,,,,,,,1,0,1,0,15,0,15,0,,,,,,,15,,,0.2,19885.26299672097,Y,None,nogo,None,1,,19886.063106393645,,,,,,,,,,,,,,,19,001,20,w,Psychologie,2023-01-16_14h11.08.258,00_bat_bachelor,2022.2.4,59.997061962887486,
,,,,,,,,,,,,1,0,1,0,16,0,16,0,,,,,,,16,,,0.2,19886.26321587238,X,l,go,l,1,0.17192345363052652,,,,,,,,,,,,,,,,19,001,20,w,Psychologie,2023-01-16_14h11.08.258,00_bat_bachelor,2022.2.4,59.997061962887486,
,,,,,,,,,,,,1,0,1,0,17,0,17,0,,,,,,,17,,,0.2,19886.746508244116,Y,d,go,d,1,0.23248196972251378,,,,,,,,,,,,,,,,19,001,20,w,Psychologie,2023-01-16_14h11.08.258,00_bat_bachelor,2022.2.4,59.997061962887486,
,,,,,,,,,,,,1,0,1,0,18,0,18,0,,,,,,,18,,,0.2,19887.279863137035,X,l,go,l,1,0.3711432358269775,,,,,,,,,,,,,,,,19,001,20,w,Psychologie,2023-01-16_14h11.08.258,00_bat_bachelor,2022.2.4,59.997061962887486,
,,,,,,,,,,,,1,0,1,0,19,0,19,0,,,,,,,19,,,0.2,19887.96298716946,Y,d,go,d,1,0.2961362418920288,,,,,,,,,,,,,,,,19,001,20,w,Psychologie,2023-01-16_14h11.08.258,00_bat_bachelor,2022.2.4,59.997061962887486,
,,,,,,,,,,,,1,0,1,0,20,0,20,0,,,,,,,20,,,0.2,19888.562843363467,X,l,go,l,1,0.3996392220089291,,,,,,,,,,,,,,,,19,001,20,w,Psychologie,2023-01-16_14h11.08.258,00_bat_bachelor,2022.2.4,59.997061962887486,
,,,,,,,,,,,,1,0,1,0,21,0,21,0,,,,,,,21,,,0.2,19889.263194539057,Y,d,go,d,1,0.2918351530662875,,,,,,,,,,,,,,,,19,001,20,w,Psychologie,2023-01-16_14h11.08.258,00_bat_bachelor,2022.2.4,59.997061962887486,
,,,,,,,,,,,,1,0,1,0,22,0,22,0,,,,,,,22,,,0.2,19889.86321364208,Y,None,nogo,None,1,,19890.66319579966,,,,,,,,,,,,,,,19,001,20,w,Psychologie,2023-01-16_14h11.08.258,00_bat_bachelor,2022.2.4,59.997061962887486,
,,,,,,,,,,,,1,0,1,0,23,0,23,0,,,,,,,23,,,0.2,19890.863194248148,X,l,go,l,1,0.26037722892412773,,,,,,,,,,,,,,,,19,001,20,w,Psychologie,2023-01-16_14h11.08.258,00_bat_bachelor,2022.2.4,59.997061962887486,
,,,,,,,,,,,,1,0,1,0,24,0,24,0,,,,,,,24,,,0.2,19891.42986742794,Y,d,go,d,1,0.23727275527760128,,,,,,,,,,,,,,,,19,001,20,w,Psychologie,2023-01-16_14h11.08.258,00_bat_bachelor,2022.2.4,59.997061962887486,
,,,,,,,,,,,,1,0,1,0,25,0,25,0,,,,,,,25,,,0.2,19891.979869585517,X,l,go,l,1,0.42237763522841476,,,,,,,,,,,,,,,,19,001,20,w,Psychologie,2023-01-16_14h11.08.258,00_bat_bachelor,2022.2.4,59.997061962887486,
,,,,,,,,,,,,1,0,1,0,26,0,26,0,,,,,,,26,,,0.2,19892.712885957386,Y,d,go,d,1,0.601559608958425,,,,,,,,,,,,,,,,19,001,20,w,Psychologie,2023-01-16_14h11.08.258,00_bat_bachelor,2022.2.4,59.997061962887486,
,,,,,,,,,,,,1,0,1,0,27,0,27,0,,,,,,,27,,,0.2,19893.62951048266,X,l,go,l,1,0.34185646214443466,,,,,,,,,,,,,,,,19,001,20,w,Psychologie,2023-01-16_14h11.08.258,00_bat_bachelor,2022.2.4,59.997061962887486,
,,,,,,,,,,,,1,0,1,0,28,0,28,0,,,,,,,28,,,0.2,19894.27971962195,X,None,nogo,None,1,,19895.079822506752,,,,,,,,,,,,,,,19,001,20,w,Psychologie,2023-01-16_14h11.08.258,00_bat_bachelor,2022.2.4,59.997061962887486,
,,,,,,,,,,,,1,0,1,0,29,0,29,0,,,,,,,29,,,0.2,19895.279557682636,Y,d,go,d,1,0.38748310669159025,,,,,,,,,,,,,,,,19,001,20,w,Psychologie,2023-01-16_14h11.08.258,00_bat_bachelor,2022.2.4,59.997061962887486,
,,,,,,,,,,,,1,0,1,0,30,0,30,0,,,,,,,30,,,0.2,19895.98001794908,X,l,go,l,1,0.24819056816902219,,,,,,,,,,,,,,,,19,001,20,w,Psychologie,2023-01-16_14h11.08.258,00_bat_bachelor,2022.2.4,59.997061962887486,
,,,,,,,,,,,,1,0,1,0,31,0,31,0,,,,,,,31,,,0.2,19896.52956144021,Y,d,go,d,1,0.3206802299920781,,,,,,,,,,,,,,,,19,001,20,w,Psychologie,2023-01-16_14h11.08.258,00_bat_bachelor,2022.2.4,59.997061962887486,
,,,,,,,,,,,,1,0,1,0,32,0,32,0,,,,,,,32,,,0.2,19897.16303701186,Y,None,nogo,l,0,0.28138521874113565,,,,,,,,,,,,,,,,19,001,20,w,Psychologie,2023-01-16_14h11.08.258,00_bat_bachelor,2022.2.4,59.997061962887486,
,,,,,,,,,,,,1,0,1,0,33,0,33,0,,,,,,,33,,,0.2,19897.746452486568,X,l,go,l,1,0.4973841443190139,,,,,,,,,,,,,,,,19,001,20,w,Psychologie,2023-01-16_14h11.08.258,00_bat_bachelor,2022.2.4,59.997061962887486,
,,,,,,,,,,,,1,0,1,0,34,0,34,0,,,,,,,34,,,0.2,19898.546333310867,Y,d,go,d,1,0.2721052232392793,,,,,,,,,,,,,,,,19,001,20,w,Psychologie,2023-01-16_14h11.08.258,00_bat_bachelor,2022.2.4,59.997061962887486,
,,,,,,,,,,,,1,0,1,0,35,0,35,0,,,,,,,35,,,0.2,19899.129828300687,X,l,go,l,1,0.28170570343188217,,,,,,,,,,,,,,,,19,001,20,w,Psychologie,2023-01-16_14h11.08.258,00_bat_bachelor,2022.2.4,59.997061962887486,
,,,,,,,,,,,,1,0,1,0,36,0,36,0,,,,,,,36,,,0.2,19899.713050805793,X,None,nogo,None,1,,19900.51297138765,,,,,,,,,,,,,,,19,001,20,w,Psychologie,2023-01-16_14h11.08.258,00_bat_bachelor,2022.2.4,59.997061962887486,
,,,,,,,,,,,,1,0,1,0,37,0,37,0,,,,,,,37,,,0.2,19900.713147290593,Y,d,go,d,1,0.37881886846859913,,,,,,,,,,,,,,,,19,001,20,w,Psychologie,2023-01-16_14h11.08.258,00_bat_bachelor,2022.2.4,59.997061962887486,
,,,,,,,,,,,,1,0,1,0,38,0,38,0,,,,,,,38,,,0.2,19901.396195201844,X,l,go,l,1,0.2049416194405893,,,,,,,,,,,,,,,,19,001,20,w,Psychologie,2023-01-16_14h11.08.258,00_bat_bachelor,2022.2.4,59.997061962887486,
,,,,,,,,,,,,1,0,1,0,39,0,39,0,,,,,,,39,,,0.2,19901.929560761422,Y,d,go,d,1,0.3939572853725366,,,,,,,,,,,,,,,,19,001,20,w,Psychologie,2023-01-16_14h11.08.258,00_bat_bachelor,2022.2.4,59.997061962887486,
,,,,,,,,,,,,1,0,1,0,40,0,40,0,,,,,,,40,,,0.2,19902.629949755174,Y,None,nogo,l,0,0.34877282243012075,,,,,,,,,,,,,,,,19,001,20,w,Psychologie,2023-01-16_14h11.08.258,00_bat_bachelor,2022.2.4,59.997061962887486,
,,,,,,,,,,,,1,0,1,0,41,0,41,0,,,,,,,41,,,0.2,19903.279794773433,X,l,go,l,1,0.4668964015237833,,,,,,,,,,,,,,,,19,001,20,w,Psychologie,2023-01-16_14h11.08.258,00_bat_bachelor,2022.2.4,59.997061962887486,
,,,,,,,,,,,,1,0,1,0,42,0,42,0,,,,,,,42,,,0.2,19904.063042393675,Y,d,go,d,1,0.24408438833977186,,,,,,,,,,,,,,,,19,001,20,w,Psychologie,2023-01-16_14h11.08.258,00_bat_bachelor,2022.2.4,59.997061962887486,
,,,,,,,,,,,,1,0,1,0,43,0,43,0,,,,,,,43,,,0.2,19904.61306394518,X,l,go,l,1,0.3982161923978964,,,,,,,,,,,,,,,,19,001,20,w,Psychologie,2023-01-16_14h11.08.258,00_bat_bachelor,2022.2.4,59.997061962887486,
,,,,,,,,,,,,1,0,1,0,44,0,44,0,,,,,,,44,,,0.2,19905.313160575435,Y,d,go,d,1,0.5305254615833945,,,,,,,,,,,,,,,,19,001,20,w,Psychologie,2023-01-16_14h11.08.258,00_bat_bachelor,2022.2.4,59.997061962887486,
,,,,,,,,,,,,1,0,1,0,45,0,45,0,,,,,,,45,,,0.2,19906.146220535164,X,l,go,l,1,0.4970680232565172,,,,,,,,,,,,,,,,19,001,20,w,Psychologie,2023-01-16_14h11.08.258,00_bat_bachelor,2022.2.4,59.997061962887486,
,,,,,,,,,,,,1,0,1,0,46,0,46,0,,,,,,,46,,,0.2,19906.946445601723,Y,d,go,d,1,0.4005963124565568,,,,,,,,,,,,,,,,19,001,20,w,Psychologie,2023-01-16_14h11.08.258,00_bat_bachelor,2022.2.4,59.997061962887486,
,,,,,,,,,,,,1,0,1,0,47,0,47,0,,,,,,,47,,,0.2,19907.663063436088,Y,None,nogo,None,1,,19908.46286619982,,,,,,,,,,,,,,,19,001,20,w,Psychologie,2023-01-16_14h11.08.258,00_bat_bachelor,2022.2.4,59.997061962887486,
,,,,,,,,,,,,1,0,1,0,48,0,48,0,,,,,,,48,,,0.2,19908.662981981583,X,l,go,l,1,0.1878376277328897,,,,,,,,,,,,,,,,19,001,20,w,Psychologie,2023-01-16_14h11.08.258,00_bat_bachelor,2022.2.4,59.997061962887486,
,,,,,,,,,,,,1,0,1,0,49,0,49,0,,,,,,,49,,,0.2,19909.1634835571,Y,d,go,d,1,0.32889452903889094,,,,,,,,,,,,,,,,19,001,20,w,Psychologie,2023-01-16_14h11.08.258,00_bat_bachelor,2022.2.4,59.997061962887486,
,,,,,,,,,,,,1,0,1,0,50,0,50,0,,,,,,,50,,,0.2,19909.79646846232,X,l,go,l,1,0.41416285132997643,,,,,,,,,,,,,,,,19,001,20,w,Psychologie,2023-01-16_14h11.08.258,00_bat_bachelor,2022.2.4,59.997061962887486,
,,,,,,,,,,,,1,0,1,0,51,0,51,0,,,,,,,51,,,0.2,19910.512853569522,Y,d,go,d,1,0.32287562286562377,,,,,,,,,,,,,,,,19,001,20,w,Psychologie,2023-01-16_14h11.08.258,00_bat_bachelor,2022.2.4,59.997061962887486,
,,,,,,,,,,,,1,0,1,0,52,0,52,0,,,,,,,52,,,0.2,19911.146590959226,X,l,go,l,1,0.3293982863671516,,,,,,,,,,,,,,,,19,001,20,w,Psychologie,2023-01-16_14h11.08.258,00_bat_bachelor,2022.2.4,59.997061962887486,
,,,,,,,,,,,,1,0,1,0,53,0,53,0,,,,,,,53,,,0.2,19911.779568106875,X,None,nogo,None,1,,19912.57986929461,,,,,,,,,,,,,,,19,001,20,w,Psychologie,2023-01-16_14h11.08.258,00_bat_bachelor,2022.2.4,59.997061962887486,
,,,,,,,,,,,,1,0,1,0,54,0,54,0,,,,,,,54,,,0.2,19912.779844470377,Y,d,go,d,1,0.3117469009868472,,,,,,,,,,,,,,,,19,001,20,w,Psychologie,2023-01-16_14h11.08.258,00_bat_bachelor,2022.2.4,59.997061962887486,
,,,,,,,,,,,,1,0,1,0,55,0,55,0,,,,,,,55,,,0.2,19913.413013133082,X,l,go,l,1,0.2699670424573668,,,,,,,,,,,,,,,,19,001,20,w,Psychologie,2023-01-16_14h11.08.258,00_bat_bachelor,2022.2.4,59.997061962887486,
,,,,,,,,,,,,1,0,1,0,56,0,56,0,,,,,,,56,,,0.2,19913.99642327446,X,None,nogo,None,1,,19914.796167856402,,,,,,,,,,,,,,,19,001,20,w,Psychologie,2023-01-16_14h11.08.258,00_bat_bachelor,2022.2.4,59.997061962887486,
,,,,,,,,,,,,1,0,1,0,57,0,57,0,,,,,,,57,,,0.2,19914.996532850164,Y,d,go,d,1,0.3345274960030764,,,,,,,,,,,,,,,,19,001,20,w,Psychologie,2023-01-16_14h11.08.258,00_bat_bachelor,2022.2.4,59.997061962887486,
,,,,,,,,,,,,1,0,1,0,58,0,58,0,,,,,,,58,,,0.2,19915.646458353232,X,l,go,l,1,0.21179834338742864,,,,,,,,,,,,,,,,19,001,20,w,Psychologie,2023-01-16_14h11.08.258,00_bat_bachelor,2022.2.4,59.997061962887486,
,,,,,,,,,,,,1,0,1,0,59,0,59,0,,,,,,,59,,,0.2,19916.1630675573,X,None,nogo,None,1,,19916.96299832097,,,,,,,,,,,,,,,19,001,20,w,Psychologie,2023-01-16_14h11.08.258,00_bat_bachelor,2022.2.4,59.997061962887486,
,,,,,,,,,,,,1,0,1,0,60,0,60,0,,,,,,,60,,,0.2,19917.163276526895,Y,d,go,d,1,0.31267053690150703,,,,,,,,,,,,,,,,19,001,20,w,Psychologie,2023-01-16_14h11.08.258,00_bat_bachelor,2022.2.4,59.997061962887486,
,,,,,,,,,,,,1,0,1,0,61,0,61,0,,,,,,,61,,,0.2,19917.779845440073,X,l,go,l,1,0.19159908045746477,,,,,,,,,,,,,,,,19,001,20,w,Psychologie,2023-01-16_14h11.08.258,00_bat_bachelor,2022.2.4,59.997061962887486,
,,,,,,,,,,,,1,0,1,0,62,0,62,0,,,,,,,62,,,0.2,19918.27976762193,X,None,nogo,None,1,,19919.07981184009,,,,,,,,,,,,,,,19,001,20,w,Psychologie,2023-01-16_14h11.08.258,00_bat_bachelor,2022.2.4,59.997061962887486,
,,,,,,,,,,,,1,0,1,0,63,0,63,0,,,,,,,63,,,0.2,19919.280059500576,Y,d,go,d,1,0.19577410873368706,,,,,,,,,,,,,,,,19,001,20,w,Psychologie,2023-01-16_14h11.08.258,00_bat_bachelor,2022.2.4,59.997061962887486,
,,,,,,,,,,,,1,0,1,0,64,0,64,0,,,,,,,64,,,0.2,19919.779653925016,X,l,go,l,1,0.11125875577106115,,,,,,,,,,,,,,,,19,001,20,w,Psychologie,2023-01-16_14h11.08.258,00_bat_bachelor,2022.2.4,59.997061962887486,
,,,,,,,,,,,,1,0,1,0,65,0,65,0,,,,,,,65,,,0.2,19920.196220510923,X,None,nogo,None,1,,19920.996361698733,,,,,,,,,,,,,,,19,001,20,w,Psychologie,2023-01-16_14h11.08.258,00_bat_bachelor,2022.2.4,59.997061962887486,
,,,,,,,,,,,,1,0,1,0,66,0,66,0,,,,,,,66,,,0.2,19921.19651723805,Y,d,go,d,1,0.1825440545418786,,,,,,,,,,,,,,,,19,001,20,w,Psychologie,2023-01-16_14h11.08.258,00_bat_bachelor,2022.2.4,59.997061962887486,
,,,,,,,,,,,,1,0,1,0,67,0,67,0,,,,,,,67,,,0.2,19921.679657367436,X,l,go,l,1,0.21220125228698805,,,,,,,,,,,,,,,,19,001,20,w,Psychologie,2023-01-16_14h11.08.258,00_bat_bachelor,2022.2.4,59.997061962887486,
,,,,,,,,,,,,1,0,1,0,68,0,68,0,,,,,,,68,,,0.2,19922.19649541988,X,None,nogo,None,1,,19922.996331153292,,,,,,,,,,,,,,,19,001,20,w,Psychologie,2023-01-16_14h11.08.258,00_bat_bachelor,2022.2.4,59.997061962887486,
,,,,,,,,,,,,1,0,1,0,69,0,69,0,,,,,,,69,,,0.2,19923.196308753304,Y,d,go,d,1,0.23108609161333504,,,,,,,,,,,,,,,,19,001,20,w,Psychologie,2023-01-16_14h11.08.258,00_bat_bachelor,2022.2.4,59.997061962887486,
,,,,,,,,,,,,1,0,1,0,70,0,70,0,,,,,,,70,,,0.2,19923.729650070472,X,l,go,l,1,0.06538629316325739,,,,,,,,,,,,,,,,19,001,20,w,Psychologie,2023-01-16_14h11.08.258,00_bat_bachelor,2022.2.4,59.997061962887486,
,,,,,,,,,,,,1,0,1,0,71,0,71,0,,,,,,,71,,,0.2,19924.09659583195,X,None,nogo,None,1,,19924.896525141077,,,,,,,,,,,,,,,19,001,20,w,Psychologie,2023-01-16_14h11.08.258,00_bat_bachelor,2022.2.4,59.997061962887486,
,,,,,,,,,,,,1,0,1,0,72,0,72,0,,,,,,,72,,,0.2,19925.096515831992,Y,d,go,d,1,0.20226962073699895,,,,,,,,,,,,,,,,19,001,20,w,Psychologie,2023-01-16_14h11.08.258,00_bat_bachelor,2022.2.4,59.997061962887486,
,,,,,,,,,,,,1,0,1,0,73,0,73,0,,,,,,,73,,,0.2,19925.613272429928,X,l,go,l,1,0.1335055328656125,,,,,,,,,,,,,,,,19,001,20,w,Psychologie,2023-01-16_14h11.08.258,00_bat_bachelor,2022.2.4,59.997061962887486,
,,,,,,,,,,,,1,0,1,0,74,0,74,0,,,,,,,74,,,0.2,19926.04619003821,X,None,nogo,None,1,,19926.84652468047,,,,,,,,,,,,,,,19,001,20,w,Psychologie,2023-01-16_14h11.08.258,00_bat_bachelor,2022.2.4,59.997061962887486,
,,,,,,,,,,,,1,0,1,0,75,0,75,0,,,,,,,75,,,0.2,19927.046521674412,Y,d,go,d,1,0.20488343764934314,,,,,,,,,,,,,,,,19,001,20,w,Psychologie,2023-01-16_14h11.08.258,00_bat_bachelor,2022.2.4,59.997061962887486,
,,,,,,,,,,,,1,0,1,0,76,0,76,0,,,,,,,76,,,0.2,19927.56318081785,X,l,go,l,1,0.15168103920056808,,,,,,,,,,,,,,,,19,001,20,w,Psychologie,2023-01-16_14h11.08.258,00_bat_bachelor,2022.2.4,59.997061962887486,
,,,,,,,,,,,,1,0,1,0,77,0,77,0,,,,,,,77,,,0.2,19928.029670773492,Y,d,go,d,1,0.421120423716431,,,,,,,,,,,,,,,,19,001,20,w,Psychologie,2023-01-16_14h11.08.258,00_bat_bachelor,2022.2.4,59.997061962887486,
,,,,,,,,,,,,1,0,1,0,78,0,78,0,,,,,,,78,,,0.2,19928.763164720887,Y,None,nogo,l,0,0.24835929535599632,,,,,,,,,,,,,,,,19,001,20,w,Psychologie,2023-01-16_14h11.08.258,00_bat_bachelor,2022.2.4,59.997061962887486,
,,,,,,,,,,,,1,0,1,0,79,0,79,0,,,,,,,79,,,0.2,19929.31291815131,X,l,go,l,1,0.5938320975530331,,,,,,,,,,,,,,,,19,001,20,w,Psychologie,2023-01-16_14h11.08.258,00_bat_bachelor,2022.2.4,59.997061962887486,
,,,,,,,,,,,,1,0,1,0,80,0,80,0,,,,,,,80,,,0.2,19930.213014684596,Y,d,go,d,1,0.3816775337492544,,,,,,,,,,,,,,,,19,001,20,w,Psychologie,2023-01-16_14h11.08.258,00_bat_bachelor,2022.2.4,59.997061962887486,
,,,,,,,,,,,,1,0,1,0,81,0,81,0,,,,,,,81,,,0.2,19930.896810231847,X,l,go,l,1,0.29022157809065163,,,,,,,,,,,,,,,,19,001,20,w,Psychologie,2023-01-16_14h11.08.258,00_bat_bachelor,2022.2.4,59.997061962887486,
,,,,,,,,,,,,1,0,1,0,82,0,82,0,,,,,,,82,,,0.2,19931.49678424398,Y,d,go,d,1,0.37879995938980926,,,,,,,,,,,,,,,,19,001,20,w,Psychologie,2023-01-16_14h11.08.258,00_bat_bachelor,2022.2.4,59.997061962887486,
,,,,,,,,,,,,1,0,1,0,83,0,83,0,,,,,,,83,,,0.2,19932.18027288229,Y,None,nogo,l,0,0.28622642851603075,,,,,,,,,,,,,,,,19,001,20,w,Psychologie,2023-01-16_14h11.08.258,00_bat_bachelor,2022.2.4,59.997061962887486,
,,,,,,,,,,,,1,0,1,0,84,0,84,0,,,,,,,84,,,0.2,19932.779962288503,X,l,go,l,1,0.48644354355762687,,,,,,,,,,,,,,,,19,001,20,w,Psychologie,2023-01-16_14h11.08.258,00_bat_bachelor,2022.2.4,59.997061962887486,
,,,,,,,,,,,,1,0,1,0,85,0,85,0,,,,,,,85,,,0.2,19933.580387597387,Y,d,go,d,1,0.2783830383761341,,,,,,,,,,,,,,,,19,001,20,w,Psychologie,2023-01-16_14h11.08.258,00_bat_bachelor,2022.2.4,59.997061962887486,
,,,,,,,,,,,,1,0,1,0,86,0,86,0,,,,,,,86,,,0.2,19934.163653253985,Y,None,nogo,None,1,,19934.96289504829,,,,,,,,,,,,,,,19,001,20,w,Psychologie,2023-01-16_14h11.08.258,00_bat_bachelor,2022.2.4,59.997061962887486,
,,,,,,,,,,,,1,0,1,0,87,0,87,0,,,,,,,87,,,0.2,19935.16284210286,X,l,go,l,1,0.18416587193694056,,,,,,,,,,,,,,,,19,001,20,w,Psychologie,2023-01-16_14h11.08.258,00_bat_bachelor,2022.2.4,59.997061962887486,
,,,,,,,,,,,,1,0,1,0,88,0,88,0,,,,,,,88,,,0.2,19935.663032405802,Y,d,go,d,1,0.26052704703595,,,,,,,,,,,,,,,,19,001,20,w,Psychologie,2023-01-16_14h11.08.258,00_bat_bachelor,2022.2.4,59.997061962887486,
,,,,,,,,,,,,1,0,1,0,89,0,89,0,,,,,,,89,,,0.2,19936.229824858267,Y,None,nogo,None,1,,19937.029655258346,,,,,,,,,,,,,,,19,001,20,w,Psychologie,2023-01-16_14h11.08.258,00_bat_bachelor,2022.2.4,59.997061962887486,
,,,,,,,,,,,,1,0,1,0,90,0,90,0,,,,,,,90,,,0.2,19937.229844737045,X,l,go,l,1,0.18147108536702206,,,,,,,,,,,,,,,,19,001,20,w,Psychologie,2023-01-16_14h11.08.258,00_bat_bachelor,2022.2.4,59.997061962887486,
,,,,,,,,,,,,1,0,1,0,91,0,91,0,,,,,,,91,,,0.2,19937.713153108773,Y,d,go,d,1,0.226015548613006,,,,,,,,,,,,,,,,19,001,20,w,Psychologie,2023-01-16_14h11.08.258,00_bat_bachelor,2022.2.4,59.997061962887486,
,,,,,,,,,,,,1,0,1,0,92,0,92,0,,,,,,,92,,,0.2,19938.246351880556,X,l,go,l,1,0.2200732484654253,,,,,,,,,,,,,,,,19,001,20,w,Psychologie,2023-01-16_14h11.08.258,00_bat_bachelor,2022.2.4,59.997061962887486,
,,,,,,,,,,,,1,0,1,0,93,0,93,0,,,,,,,93,,,0.2,19938.779766894655,X,None,nogo,d,0,0.24860317402833232,,,,,,,,,,,,,,,,19,001,20,w,Psychologie,2023-01-16_14h11.08.258,00_bat_bachelor,2022.2.4,59.997061962887486,
,,,,,,,,,,,,1,0,1,0,94,0,94,0,,,,,,,94,,,0.2,19939.329773415866,Y,d,go,d,1,0.657679339323451,,,,,,,,,,,,,,,,19,001,20,w,Psychologie,2023-01-16_14h11.08.258,00_bat_bachelor,2022.2.4,59.997061962887486,
,,,,,,,,,,,,1,0,1,0,95,0,95,0,,,,,,,95,,,0.2,19940.29618361397,X,l,go,l,1,0.26613771097815686,,,,,,,,,,,,,,,,19,001,20,w,Psychologie,2023-01-16_14h11.08.258,00_bat_bachelor,2022.2.4,59.997061962887486,
,,,,,,,,,,,,1,0,1,0,96,0,96,0,,,,,,,96,,,0.2,19940.863157884527,X,None,nogo,None,1,,19941.66283555741,,,,,,,,,,,,,,,19,001,20,w,Psychologie,2023-01-16_14h11.08.258,00_bat_bachelor,2022.2.4,59.997061962887486,
,,,,,,,,,,,,1,0,1,0,97,0,97,0,,,,,,,97,,,0.2,19941.86319036936,Y,d,go,d,1,0.2194133700015044,,,,,,,,,,,,,,,,19,001,20,w,Psychologie,2023-01-16_14h11.08.258,00_bat_bachelor,2022.2.4,59.997061962887486,
,,,,,,,,,,,,1,0,1,0,98,0,98,0,,,,,,,98,,,0.2,19942.396489019884,X,l,go,l,1,0.2625440157518568,,,,,,,,,,,,,,,,19,001,20,w,Psychologie,2023-01-16_14h11.08.258,00_bat_bachelor,2022.2.4,59.997061962887486,
,,,,,,,,,,,,1,0,1,0,99,0,99,0,,,,,,,99,,,0.2,19942.96305068458,X,None,nogo,None,1,,19943.76285975134,,,,,,,,,,,,,,,19,001,20,w,Psychologie,2023-01-16_14h11.08.258,00_bat_bachelor,2022.2.4,59.997061962887486,
,,,,,,,,,,,,1,0,1,0,100,0,100,0,,,,,,,100,,,0.2,19943.96313989666,Y,d,go,d,1,0.37650032413709766,,,,,,,,,,,,,,,,19,001,20,w,Psychologie,2023-01-16_14h11.08.258,00_bat_bachelor,2022.2.4,59.997061962887486,
,,,,,,,,,,,,1,0,1,0,101,0,101,0,,,,,,,101,,,0.2,19944.646193626086,X,l,go,l,1,0.2849260655076904,,,,,,,,,,,,,,,,19,001,20,w,Psychologie,2023-01-16_14h11.08.258,00_bat_bachelor,2022.2.4,59.997061962887486,
,,,,,,,,,,,,1,0,1,0,102,0,102,0,,,,,,,102,,,0.2,19945.24641151689,Y,d,go,d,1,0.4048101285936099,,,,,,,,,,,,,,,,19,001,20,w,Psychologie,2023-01-16_14h11.08.258,00_bat_bachelor,2022.2.4,59.997061962887486,
,,,,,,,,,,,,1,0,1,0,103,0,103,0,,,,,,,103,,,0.2,19945.96287129073,Y,None,nogo,None,1,,19946.763330054142,,,,,,,,,,,,,,,19,001,20,w,Psychologie,2023-01-16_14h11.08.258,00_bat_bachelor,2022.2.4,59.997061962887486,
,,,,,,,,,,,,1,0,1,0,104,0,104,0,,,,,,,104,,,0.2,19946.963210199654,X,l,go,l,1,0.19186768638444107,,,,,,,,,,,,,,,,19,001,20,w,Psychologie,2023-01-16_14h11.08.258,00_bat_bachelor,2022.2.4,59.997061962887486,
,,,,,,,,,,,,1,0,1,0,105,0,105,0,,,,,,,105,,,0.2,19947.46300535127,Y,d,go,d,1,0.2519040209137273,,,,,,,,,,,,,,,,19,001,20,w,Psychologie,2023-01-16_14h11.08.258,00_bat_bachelor,2022.2.4,59.997061962887486,
,,,,,,,,,,,,1,0,1,0,106,0,106,0,,,,,,,106,,,0.2,19948.02969550075,Y,None,nogo,None,1,,19948.82967959773,,,,,,,,,,,,,,,19,001,20,w,Psychologie,2023-01-16_14h11.08.258,00_bat_bachelor,2022.2.4,59.997061962887486,
,,,,,,,,,,,,1,0,1,0,107,0,107,0,,,,,,,107,,,0.2,19949.029656712893,X,l,go,l,1,0.2696121335376773,,,,,,,,,,,,,,,,19,001,20,w,Psychologie,2023-01-16_14h11.08.258,00_bat_bachelor,2022.2.4,59.997061962887486,
,,,,,,,,,,,,1,0,1,0,108,0,108,0,,,,,,,108,,,0.2,19949.612998005818,Y,d,go,d,1,0.3423408255495559,,,,,,,,,,,,,,,,19,001,20,w,Psychologie,2023-01-16_14h11.08.258,00_bat_bachelor,2022.2.4,59.997061962887486,
,,,,,,,,,,,,1,0,1,0,109,0,109,0,,,,,,,109,,,0.2,19950.262827024082,Y,None,nogo,None,1,,19951.063020575504,,,,,,,,,,,,,,,19,001,20,w,Psychologie,2023-01-16_14h11.08.258,00_bat_bachelor,2022.2.4,59.997061962887486,
,,,,,,,,,,,,1,0,1,0,110,0,110,0,,,,,,,110,,,0.2,19951.263091751225,X,l,go,l,1,0.06762241328958396,,,,,,,,,,,,,,,,19,001,20,w,Psychologie,2023-01-16_14h11.08.258,00_bat_bachelor,2022.2.4,59.997061962887486,
,,,,,,,,,,,,1,0,1,0,111,0,111,0,,,,,,,111,,,0.2,19951.64659944407,Y,d,go,d,1,0.30764750903669835,,,,,,,,,,,,,,,,19,001,20,w,Psychologie,2023-01-16_14h11.08.258,00_bat_bachelor,2022.2.4,59.997061962887486,
,,,,,,,,,,,,1,0,1,0,112,0,112,0,,,,,,,112,,,0.2,19952.262826054386,Y,None,nogo,None,1,,19953.063177181488,,,,,,,,,,,,,,,19,001,20,w,Psychologie,2023-01-16_14h11.08.258,00_bat_bachelor,2022.2.4,59.997061962887486,
,,,,,,,,,,,,1,0,1,0,113,0,113,0,,,,,,,113,,,0.2,19953.262798418036,X,l,go,l,1,0.10032882167631385,,,,,,,,,,,,,,,,19,001,20,w,Psychologie,2023-01-16_14h11.08.258,00_bat_bachelor,2022.2.4,59.997061962887486,
,,,,,,,,,,,,1,0,1,0,114,0,114,0,,,,,,,114,,,0.2,19953.663050830033,Y,d,go,d,1,0.22894112295595903,,,,,,,,,,,,,,,,19,001,20,w,Psychologie,2023-01-16_14h11.08.258,00_bat_bachelor,2022.2.4,59.997061962887486,
,,,,,,,,,,,,1,0,1,0,115,0,115,0,,,,,,,115,,,0.2,19954.196515783507,X,l,go,l,1,0.6541229774103812,,,,,,,,,,,,,,,,19,001,20,w,Psychologie,2023-01-16_14h11.08.258,00_bat_bachelor,2022.2.4,59.997061962887486,
,,,,,,,,,,,,1,0,1,0,116,0,116,0,,,,,,,116,,,0.2,19955.16324792085,X,None,nogo,d,0,0.4712222176078029,,,,,,,,,,,,,,,,19,001,20,w,Psychologie,2023-01-16_14h11.08.258,00_bat_bachelor,2022.2.4,59.997061962887486,
,,,,,,,,,,,,1,0,1,0,117,0,117,0,,,,,,,117,,,0.2,19955.9464523896,Y,d,go,None,0,,19956.746519395627,,,,,,,,,,,,,,,19,001,20,w,Psychologie,2023-01-16_14h11.08.258,00_bat_bachelor,2022.2.4,59.997061962887486,
,,,,,,,,,,,,1,0,1,0,118,0,118,0,,,,,,,118,,,0.2,19956.94647372292,X,l,go,l,1,0.384889168557649,,,,,,,,,,,,,,,,19,001,20,w,Psychologie,2023-01-16_14h11.08.258,00_bat_bachelor,2022.2.4,59.997061962887486,
,,,,,,,,,,,,1,0,1,0,119,0,119,0,,,,,,,119,,,0.2,19957.646482110795,X,None,nogo,None,1,,19958.446467662317,,,,,,,,,,,,,,,19,001,20,w,Psychologie,2023-01-16_14h11.08.258,00_bat_bachelor,2022.2.4,59.997061962887486,
,,,,,,,,,,,,1,0,1,0,120,0,120,0,,,,,,,120,,,0.2,19958.64631774724,Y,d,go,d,1,0.20510355875573794,,,,,,,,,,,,,,,,19,001,20,w,Psychologie,2023-01-16_14h11.08.258,00_bat_bachelor,2022.2.4,59.997061962887486,
,,,,,,,,,,,,1,0,1,0,121,0,121,0,,,,,,,121,,,0.2,19959.163021981563,X,l,go,l,1,0.20004368242204862,,,,,,,,,,,,,,,,19,001,20,w,Psychologie,2023-01-16_14h11.08.258,00_bat_bachelor,2022.2.4,59.997061962887486,
,,,,,,,,,,,,1,0,1,0,122,0,122,0,,,,,,,122,,,0.2,19959.66300573915,X,None,nogo,None,1,,19960.46299032097,,,,,,,,,,,,,,,19,001,20,w,Psychologie,2023-01-16_14h11.08.258,00_bat_bachelor,2022.2.4,59.997061962887486,
,,,,,,,,,,,,1,0,1,0,123,0,123,0,,,,,,,123,,,0.2,19960.66297179977,Y,d,go,d,1,0.21948900632757784,,,,,,,,,,,,,,,,19,001,20,w,Psychologie,2023-01-16_14h11.08.258,00_bat_bachelor,2022.2.4,59.997061962887486,
,,,,,,,,,,,,1,0,1,0,124,0,124,0,,,,,,,124,,,0.2,19961.19643141991,X,l,go,l,1,0.24627784182136736,,,,,,,,,,,,,,,,19,001,20,w,Psychologie,2023-01-16_14h11.08.258,00_bat_bachelor,2022.2.4,59.997061962887486,
,,,,,,,,,,,,1,0,1,0,125,0,125,0,,,,,,,125,,,0.2,19961.746572728935,Y,d,go,d,1,0.6247402037790124,,,,,,,,,,,,,,,,19,001,20,w,Psychologie,2023-01-16_14h11.08.258,00_bat_bachelor,2022.2.4,59.997061962887486,
,,,,,,,,,,,,1,0,1,0,126,0,126,0,,,,,,,126,,,0.2,19962.679480397826,X,l,go,l,1,0.4434472007689436,,,,,,,,,,,,,,,,19,001,20,w,Psychologie,2023-01-16_14h11.08.258,00_bat_bachelor,2022.2.4,59.997061962887486,
,,,,,,,,,,,,1,0,1,0,127,0,127,0,,,,,,,127,,,0.2,19963.429821852205,X,None,nogo,None,1,,19964.229538797797,,,,,,,,,,,,,,,19,001,20,w,Psychologie,2023-01-16_14h11.08.258,00_bat_bachelor,2022.2.4,59.997061962887486,
,,,,,,,,,,,,1,0,1,0,128,0,128,0,,,,,,,128,,,0.2,19964.429509125086,Y,d,go,d,1,0.2459791753009739,,,,,,,,,,,,,,,,19,001,20,w,Psychologie,2023-01-16_14h11.08.258,00_bat_bachelor,2022.2.4,59.997061962887486,
,,,,,,,,,,,,1,0,1,0,129,0,129,0,,,,,,,129,,,0.2,19964.979695524995,X,l,go,l,1,0.36698614693357,,,,,,,,,,,,,,,,19,001,20,w,Psychologie,2023-01-16_14h11.08.258,00_bat_bachelor,2022.2.4,59.997061962887486,
,,,,,,,,,,,,1,0,1,0,130,0,130,0,,,,,,,130,,,0.2,19965.662887921022,X,None,nogo,None,1,,19966.463045593675,,,,,,,,,,,,,,,19,001,20,w,Psychologie,2023-01-16_14h11.08.258,00_bat_bachelor,2022.2.4,59.997061962887486,
,,,,,,,,,,,,1,0,1,0,131,0,131,0,,,,,,,131,,,0.2,19966.66280792106,Y,d,go,d,1,0.2517600209813935,,,,,,,,,,,,,,,,19,001,20,w,Psychologie,2023-01-16_14h11.08.258,00_bat_bachelor,2022.2.4,59.997061962887486,
,,,,,,,,,,,,1,0,1,0,132,0,132,0,,,,,,,132,,,0.2,19967.22946122208,X,l,go,l,1,0.22932172883353985,,,,,,,,,,,,,,,,19,001,20,w,Psychologie,2023-01-16_14h11.08.258,00_bat_bachelor,2022.2.4,59.997061962887486,
,,,,,,,,,,,,1,0,1,0,133,0,133,0,,,,,,,133,,,0.2,19967.763075023962,X,None,nogo,None,1,,19968.562808454393,,,,,,,,,,,,,,,19,001,20,w,Psychologie,2023-01-16_14h11.08.258,00_bat_bachelor,2022.2.4,59.997061962887486,
,,,,,,,,,,,,1,0,1,0,134,0,134,0,,,,,,,134,,,0.2,19968.762852963464,Y,d,go,d,1,0.18389872055028889,,,,,,,,,,,,,,,,19,001,20,w,Psychologie,2023-01-16_14h11.08.258,00_bat_bachelor,2022.2.4,59.997061962887486,
,,,,,,,,,,,,1,0,1,0,135,0,135,0,,,,,,,135,,,0.2,19969.26309611486,X,l,go,l,1,0.18022841930194033,,,,,,,,,,,,,,,,19,001,20,w,Psychologie,2023-01-16_14h11.08.258,00_bat_bachelor,2022.2.4,59.997061962887486,
,,,,,,,,,,,,1,0,1,0,136,0,136,0,,,,,,,136,,,0.2,19969.746203274568,Y,d,go,None,0,,19970.54641912901,,,,,,,,,,,,,,,19,001,20,w,Psychologie,2023-01-16_14h11.08.258,00_bat_bachelor,2022.2.4,59.997061962887486,
,,,,,,,,,,,,1,0,1,0,137,0,137,0,,,,,,,137,,,0.2,19970.74640497144,X,l,go,None,0,,19971.546239735155,,,,,,,,,,,,,,,19,001,20,w,Psychologie,2023-01-16_14h11.08.258,00_bat_bachelor,2022.2.4,59.997061962887486,
,,,,,,,,,,,,1,0,1,0,138,0,138,0,,,,,,,138,,,0.2,19971.746457335048,Y,d,go,d,1,0.46377155455245145,,,,,,,,,,,,,,,,19,001,20,w,Psychologie,2023-01-16_14h11.08.258,00_bat_bachelor,2022.2.4,59.997061962887486,
,,,,,,,,,,,,1,0,1,0,139,0,139,0,,,,,,,139,,,0.2,19972.51319005421,X,l,go,l,1,0.38553741066623104,,,,,,,,,,,,,,,,19,001,20,w,Psychologie,2023-01-16_14h11.08.258,00_bat_bachelor,2022.2.4,59.997061962887486,
,,,,,,,,,,,,1,0,1,0,140,0,140,0,,,,,,,140,,,0.2,19973.21304716943,Y,d,go,None,0,,19974.013308114758,,,,,,,,,,,,,,,19,001,20,w,Psychologie,2023-01-16_14h11.08.258,00_bat_bachelor,2022.2.4,59.997061962887486,
,,,,,,,,,,,,1,0,1,0,141,0,141,0,,,,,,,141,,,0.2,19974.21279795743,X,l,go,l,1,0.39848576802448576,,,,,,,,,,,,,,,,19,001,20,w,Psychologie,2023-01-16_14h11.08.258,00_bat_bachelor,2022.2.4,59.997061962887486,
,,,,,,,,,,,,1,0,1,0,142,0,142,0,,,,,,,142,,,0.2,19974.91314331484,Y,d,go,d,1,0.4491155616580471,,,,,,,,,,,,,,,,19,001,20,w,Psychologie,2023-01-16_14h11.08.258,00_bat_bachelor,2022.2.4,59.997061962887486,
,,,,,,,,,,,,1,0,1,0,143,0,143,0,,,,,,,143,,,0.2,19975.66307070881,X,l,go,l,1,0.43553011369856165,,,,,,,,,,,,,,,,19,001,20,w,Psychologie,2023-01-16_14h11.08.258,00_bat_bachelor,2022.2.4,59.997061962887486,
,,,,,,,,,,,,1,0,1,0,144,0,144,0,,,,,,,144,,,0.2,19976.412935072516,Y,d,go,d,1,0.4214714538522202,,,,,,,,,,,,,,,,19,001,20,w,Psychologie,2023-01-16_14h11.08.258,00_bat_bachelor,2022.2.4,59.997061962887486,
,,,,,,,,,,,,1,0,1,0,145,0,145,0,,,,,,,145,,,0.2,19977.146350474493,Y,None,nogo,None,1,,,,,,,,,,,,,,,,,19,001,20,w,Psychologie,2023-01-16_14h11.08.258,00_bat_bachelor,2022.2.4,59.997061962887486,
,,,,,,,,,,,,1,0,1,0,146,0,146,0,,,,,,,146,,,0.2,19978.14638538357,X,l,go,l,1,0.06501053576918991,,,,,,,,,,,,,,,,19,001,20,w,Psychologie,2023-01-16_14h11.08.258,00_bat_bachelor,2022.2.4,59.997061962887486,
,,,,,,,,,,,,1,0,1,0,147,0,147,0,,,,,,,147,,,0.2,19978.513144478475,Y,d,go,d,1,0.4655756748890525,,,,,,,,,,,,,,,,19,001,20,w,Psychologie,2023-01-16_14h11.08.258,00_bat_bachelor,2022.2.4,59.997061962887486,
,,,,,,,,,,,,1,0,1,0,148,0,148,0,,,,,,,148,,,0.2,19979.279741924973,X,l,go,l,1,0.48261906056556825,,,,,,,,,,,,,,,,19,001,20,w,Psychologie,2023-01-16_14h11.08.258,00_bat_bachelor,2022.2.4,59.997061962887486,
,,,,,,,,,,,,1,0,1,0,149,0,149,0,,,,,,,149,,,0.2,19980.06282469681,Y,d,go,d,1,0.5154844991758836,,,,,,,,,,,,,,,,19,001,20,w,Psychologie,2023-01-16_14h11.08.258,00_bat_bachelor,2022.2.4,59.997061962887486,
,,,,,,,,,,,,1,0,1,0,150,0,150,0,,,,,,,150,,,0.2,19980.87982502796,Y,None,nogo,None,1,,19981.679490579638,,,,,,,,,,,,,,,19,001,20,w,Psychologie,2023-01-16_14h11.08.258,00_bat_bachelor,2022.2.4,59.997061962887486,
,,,,,,,,,,,,1,0,1,0,151,0,151,0,,,,,,,151,,,0.2,19981.879969027894,X,l,go,l,1,0.05996229579083945,,,,,,,,,,,,,,,,19,001,20,w,Psychologie,2023-01-16_14h11.08.258,00_bat_bachelor,2022.2.4,59.997061962887486,
,,,,,,,,,,,,1,0,1,0,152,0,152,0,,,,,,,152,,,0.2,19982.24626945635,Y,d,go,d,1,0.28454982326927336,,,,,,,,,,,,,,,,19,001,20,w,Psychologie,2023-01-16_14h11.08.258,00_bat_bachelor,2022.2.4,59.997061962887486,
,,,,,,,,,,,,1,0,1,0,153,0,153,0,,,,,,,153,,,0.2,19982.846160559435,X,l,go,l,1,0.5482452105663214,,,,,,,,,,,,,,,,19,001,20,w,Psychologie,2023-01-16_14h11.08.258,00_bat_bachelor,2022.2.4,59.997061962887486,
,,,,,,,,,,,,1,0,1,0,154,0,154,0,,,,,,,154,,,0.2,19983.69634681389,Y,d,go,d,1,0.3859102589687353,,,,,,,,,,,,,,,,19,001,20,w,Psychologie,2023-01-16_14h11.08.258,00_bat_bachelor,2022.2.4,59.997061962887486,
,,,,,,,,,,,,1,0,1,0,155,0,155,0,,,,,,,155,,,0.2,19984.396200535175,X,l,go,l,1,0.3905827415530183,,,,,,,,,,,,,,,,19,001,20,w,Psychologie,2023-01-16_14h11.08.258,00_bat_bachelor,2022.2.4,59.997061962887486,
,,,,,,,,,,,,1,0,1,0,156,0,156,0,,,,,,,156,,,0.2,19985.096481892615,Y,d,go,d,1,0.53802412461134,,,,,,,,,,,,,,,,19,001,20,w,Psychologie,2023-01-16_14h11.08.258,00_bat_bachelor,2022.2.4,59.997061962887486,
,,,,,,,,,,,,1,0,1,0,157,0,157,0,,,,,,,157,,,0.2,19985.94612220794,Y,None,nogo,None,1,,19986.746297819976,,,,,,,,,,,,,,,19,001,20,w,Psychologie,2023-01-16_14h11.08.258,00_bat_bachelor,2022.2.4,59.997061962887486,
,,,,,,,,,,,,1,0,1,0,158,0,158,0,,,,,,,158,,,0.2,19986.946321965417,Y,None,nogo,None,1,,,,,,,,,,,,,,,,,19,001,20,w,Psychologie,2023-01-16_14h11.08.258,00_bat_bachelor,2022.2.4,59.997061962887486,
,,,,,,,,,,,,1,0,1,0,159,0,159,0,,,,,,,159,,,0.2,19987.946472268377,X,l,go,None,0,,19988.746175153366,,,,,,,,,,,,,,,19,001,20,w,Psychologie,2023-01-16_14h11.08.258,00_bat_bachelor,2022.2.4,59.997061962887486,
,,,,,,,,,,,,1,0,1,0,160,0,160,0,,,,,,,160,,,0.2,19988.946455298686,Y,d,go,None,0,,19989.74619988063,,,,,,,,,,,,,,,19,001,20,w,Psychologie,2023-01-16_14h11.08.258,00_bat_bachelor,2022.2.4,59.997061962887486,
,,,,,,,,,,,,1,0,1,0,161,0,161,0,,,,,,,161,,,0.2,19989.946397601743,Y,None,nogo,l,0,0.3932217705752663,,,,,,,,,,,,,,,,19,001,20,w,Psychologie,2023-01-16_14h11.08.258,00_bat_bachelor,2022.2.4,59.997061962887486,
,,,,,,,,,,,,1,0,1,0,162,0,162,0,,,,,,,162,,,0.2,19990.64634732298,X,l,go,d,0,0.22006015756612385,,,,,,,,,,,,,,,,19,001,20,w,Psychologie,2023-01-16_14h11.08.258,00_bat_bachelor,2022.2.4,59.997061962887486,
,,,,,,,,,,,,1,0,1,0,163,0,163,0,,,,,,,163,,,0.2,19991.179499064485,Y,d,go,None,0,,19991.979620858365,,,,,,,,,,,,,,,19,001,20,w,Psychologie,2023-01-16_14h11.08.258,00_bat_bachelor,2022.2.4,59.997061962887486,
,,,,,,,,,,,,1,0,1,0,164,0,164,0,,,,,,,164,,,0.2,19992.17970512499,X,l,go,l,1,0.06402096049184536,,,,,,,,,,,,,,,,19,001,20,w,Psychologie,2023-01-16_14h11.08.258,00_bat_bachelor,2022.2.4,59.997061962887486,
,,,,,,,,,,,,1,0,1,0,165,0,165,0,,,,,,,165,,,0.2,19992.546439492635,Y,d,go,d,1,0.25610717038777864,,,,,,,,,,,,,,,,19,001,20,w,Psychologie,2023-01-16_14h11.08.258,00_bat_bachelor,2022.2.4,59.997061962887486,
,,,,,,,,,,,,1,0,1,0,166,0,166,0,,,,,,,166,,,0.2,19993.112812066513,X,l,go,l,1,0.26585068081674024,,,,,,,,,,,,,,,,19,001,20,w,Psychologie,2023-01-16_14h11.08.258,00_bat_bachelor,2022.2.4,59.997061962887486,
,,,,,,,,,,,,1,0,1,0,167,0,167,0,,,,,,,167,,,0.2,19993.679665609856,Y,d,go,d,1,0.2908533353603815,,,,,,,,,,,,,,,,19,001,20,w,Psychologie,2023-01-16_14h11.08.258,00_bat_bachelor,2022.2.4,59.997061962887486,
,,,,,,,,,,,,1,0,1,0,168,0,168,0,,,,,,,168,,,0.2,19994.27994265215,X,l,go,l,1,0.44326392813142945,,,,,,,,,,,,,,,,19,001,20,w,Psychologie,2023-01-16_14h11.08.258,00_bat_bachelor,2022.2.4,59.997061962887486,
,,,,,,,,,,,,1,0,1,0,169,0,169,0,,,,,,,169,,,0.2,19995.029775500712,X,None,nogo,d,0,0.30147248172777097,,,,,,,,,,,,,,,,19,001,20,w,Psychologie,2023-01-16_14h11.08.258,00_bat_bachelor,2022.2.4,59.997061962887486,
,,,,,,,,,,,,1,0,1,0,170,0,170,0,,,,,,,170,,,0.2,19995.646174232155,Y,d,go,None,0,,19996.4462785715,,,,,,,,,,,,,,,19,001,20,w,Psychologie,2023-01-16_14h11.08.258,00_bat_bachelor,2022.2.4,59.997061962887486,
,,,,,,,,,,,,1,0,1,0,171,0,171,0,,,,,,,171,,,0.2,19996.64650489866,X,l,go,l,1,0.22041700587776347,,,,,,,,,,,,,,,,19,001,20,w,Psychologie,2023-01-16_14h11.08.258,00_bat_bachelor,2022.2.4,59.997061962887486,
,,,,,,,,,,,,1,0,1,0,172,0,172,0,,,,,,,172,,,0.2,19997.179961124864,X,None,nogo,d,0,0.2313639096593505,,,,,,,,,,,,,,,,19,001,20,w,Psychologie,2023-01-16_14h11.08.258,00_bat_bachelor,2022.2.4,59.997061962887486,
,,,,,,,,,,,,1,0,1,0,173,0,173,0,,,,,,,173,,,0.2,19997.712980017946,Y,d,go,None,0,,19998.512917569493,,,,,,,,,,,,,,,19,001,20,w,Psychologie,2023-01-16_14h11.08.258,00_bat_bachelor,2022.2.4,59.997061962887486,
,,,,,,,,,,,,1,0,1,0,174,0,174,0,,,,,,,174,,,0.2,19998.713063411848,X,l,go,l,1,0.2340785750113099,,,,,,,,,,,,,,,,19,001,20,w,Psychologie,2023-01-16_14h11.08.258,00_bat_bachelor,2022.2.4,59.997061962887486,
,,,,,,,,,,,,1,0,1,0,175,0,175,0,,,,,,,175,,,0.2,19999.263039387617,X,None,nogo,None,1,,20000.062912454345,,,,,,,,,,,,,,,19,001,20,w,Psychologie,2023-01-16_14h11.08.258,00_bat_bachelor,2022.2.4,59.997061962887486,
,,,,,,,,,,,,1,0,1,0,176,0,176,0,,,,,,,176,,,0.2,20000.262926902822,X,None,nogo,None,1,,20001.062790272586,,,,,,,,,,,,,,,19,001,20,w,Psychologie,2023-01-16_14h11.08.258,00_bat_bachelor,2022.2.4,59.997061962887486,
,,,,,,,,,,,,1,0,1,0,177,0,177,0,,,,,,,177,,,0.2,20001.263209084504,Y,d,go,d,1,0.34008337209722583,,,,,,,,,,,,,,,,19,001,20,w,Psychologie,2023-01-16_14h11.08.258,00_bat_bachelor,2022.2.4,59.997061962887486,
,,,,,,,,,,,,1,0,1,0,178,0,178,0,,,,,,,178,,,0.2,20001.91310986031,X,l,go,l,1,0.24993262793047677,,,,,,,,,,,,,,,,19,001,20,w,Psychologie,2023-01-16_14h11.08.258,00_bat_bachelor,2022.2.4,59.997061962887486,
,,,,,,,,,,,,1,0,1,0,179,0,179,0,,,,,,,179,,,0.2,20002.46292486646,Y,d,go,d,1,0.2920707893155594,,,,,,,,,,,,,,,,19,001,20,w,Psychologie,2023-01-16_14h11.08.258,00_bat_bachelor,2022.2.4,59.997061962887486,
,,,,,,,,,,,,1,0,1,0,180,0,180,0,,,,,,,180,,,0.2,20003.06319318148,X,l,go,l,1,0.2359849983278508,,,,,,,,,,,,,,,,19,001,20,w,Psychologie,2023-01-16_14h11.08.258,00_bat_bachelor,2022.2.4,59.997061962887486,
,,,,,,,,,,,,1,0,1,0,181,0,181,0,,,,,,,181,,,0.2,20003.61312697545,X,None,nogo,None,1,,20004.413241496608,,,,,,,,,,,,,,,19,001,20,w,Psychologie,2023-01-16_14h11.08.258,00_bat_bachelor,2022.2.4,59.997061962887486,
,,,,,,,,,,,,1,0,1,0,182,0,182,0,,,,,,,182,,,0.2,20004.613142005746,Y,d,go,l,0,0.2057183463349901,,,,,,,,,,,,,,,,19,001,20,w,Psychologie,2023-01-16_14h11.08.258,00_bat_bachelor,2022.2.4,59.997061962887486,
,,,,,,,,,,,,1,0,1,0,183,0,183,0,,,,,,,183,,,0.2,20005.129798724945,X,l,go,l,1,0.45720186076702873,,,,,,,,,,,,,,,,19,001,20,w,Psychologie,2023-01-16_14h11.08.258,00_bat_bachelor,2022.2.4,59.997061962887486,
,,,,,,,,,,,,1,0,1,0,184,0,184,0,,,,,,,184,,,0.2,20005.89647180777,X,None,nogo,l,0,0.5383014578093679,,,,,,,,,,,,,,,,19,001,20,w,Psychologie,2023-01-16_14h11.08.258,00_bat_bachelor,2022.2.4,59.997061962887486,
,,,,,,,,,,,,1,0,1,0,185,0,185,0,,,,,,,185,,,0.2,20006.746461213836,Y,d,go,d,1,0.5527130871870867,,,,,,,,,,,,,,,,19,001,20,w,Psychologie,2023-01-16_14h11.08.258,00_bat_bachelor,2022.2.4,59.997061962887486,
,,,,,,,,,,,,1,0,1,0,186,0,186,0,,,,,,,186,,,0.2,20007.613067339116,X,l,go,l,1,0.27882667452483645,,,,,,,,,,,,,,,,19,001,20,w,Psychologie,2023-01-16_14h11.08.258,00_bat_bachelor,2022.2.4,59.997061962887486,
,,,,,,,,,,,,1,0,1,0,187,0,187,0,,,,,,,187,,,0.2,20008.19624669273,Y,d,go,d,1,0.39861910129381783,,,,,,,,,,,,,,,,19,001,20,w,Psychologie,2023-01-16_14h11.08.258,00_bat_bachelor,2022.2.4,59.997061962887486,
,,,,,,,,,,,,1,0,1,0,188,0,188,0,,,,,,,188,,,0.2,20008.89644950475,X,l,go,l,1,0.32291828951035484,,,,,,,,,,,,,,,,19,001,20,w,Psychologie,2023-01-16_14h11.08.258,00_bat_bachelor,2022.2.4,59.997061962887486,
,,,,,,,,,,,,1,0,1,0,189,0,189,0,,,,,,,189,,,0.2,20009.529698652266,Y,d,go,d,1,0.4731218530488803,,,,,,,,,,,,,,,,19,001,20,w,Psychologie,2023-01-16_14h11.08.258,00_bat_bachelor,2022.2.4,59.997061962887486,
,,,,,,,,,,,,1,0,1,0,190,0,190,0,,,,,,,190,,,0.2,20010.313083969413,X,l,go,l,1,0.29825114995598767,,,,,,,,,,,,,,,,19,001,20,w,Psychologie,2023-01-16_14h11.08.258,00_bat_bachelor,2022.2.4,59.997061962887486,
,,,,,,,,,,,,1,0,1,0,191,0,191,0,,,,,,,191,,,0.2,20010.912972163405,Y,d,go,d,1,0.45017592478158974,,,,,,,,,,,,,,,,19,001,20,w,Psychologie,2023-01-16_14h11.08.258,00_bat_bachelor,2022.2.4,59.997061962887486,
,,,,,,,,,,,,1,0,1,0,192,0,192,0,,,,,,,192,,,0.2,20011.6627962847,Y,None,nogo,None,1,,20012.463122199697,,,,,,,,,,,,,,,19,001,20,w,Psychologie,2023-01-16_14h11.08.258,00_bat_bachelor,2022.2.4,59.997061962887486,
,,,,,,,,,,,,1,0,1,0,193,0,193,0,,,,,,,193,,,0.2,20012.66299361794,X,l,go,l,1,0.2838734599555863,,,,,,,,,,,,,,,,19,001,20,w,Psychologie,2023-01-16_14h11.08.258,00_bat_bachelor,2022.2.4,59.997061962887486,
,,,,,,,,,,,,1,0,1,0,194,0,194,0,,,,,,,194,,,0.2,20013.263083023958,Y,d,go,d,1,0.3400382812125571,,,,,,,,,,,,,,,,19,001,20,w,Psychologie,2023-01-16_14h11.08.258,00_bat_bachelor,2022.2.4,59.997061962887486,
,,,,,,,,,,,,1,0,1,0,195,0,195,0,,,,,,,195,,,0.2,20013.913130223937,Y,None,nogo,None,1,,20014.712811775604,,,,,,,,,,,,,,,19,001,20,w,Psychologie,2023-01-16_14h11.08.258,00_bat_bachelor,2022.2.4,59.997061962887486,
,,,,,,,,,,,,1,0,1,0,196,0,196,0,,,,,,,196,,,0.2,20014.913089496684,X,l,go,l,1,0.1937707157650692,,,,,,,,,,,,,,,,19,001,20,w,Psychologie,2023-01-16_14h11.08.258,00_bat_bachelor,2022.2.4,59.997061962887486,
