loop_instruction.thisRepN,loop_instruction.thisTrialN,loop_instruction.thisN,loop_instruction.thisIndex,loop_rsi_practice.thisRepN,loop_rsi_practice.thisTrialN,loop_rsi_practice.thisN,loop_rsi_practice.thisIndex,loop_practice.thisRepN,loop_practice.thisTrialN,loop_practice.thisN,loop_practice.thisIndex,loop_exp.thisRepN,loop_exp.thisTrialN,loop_exp.thisN,loop_exp.thisIndex,loop_trials.thisRepN,loop_trials.thisTrialN,loop_trials.thisN,loop_trials.thisIndex,map_condition,map_x_key,map_y_key,key_resp_welcome.started,key_resp_welcome.keys,key_resp_welcome.rt,index,text_empty_rsi_practice.started,text_empty_rsi_practice.stopped,rsi,stimulus.started,stimulus,correct,trial_type,key_resp_trial.keys,key_resp_trial.corr,stimulus.stopped,key_resp_trial.rt,key_resp_instruction_rsi.started,key_resp_instruction_rsi.keys,key_resp_instruction_rsi.rt,key_resp_instruction_rsi.stopped,key_resp_instruction_final.started,key_resp_instruction_final.keys,key_resp_instruction_final.rt,key_resp_break.started,key_resp_break.keys,key_resp_break.rt,key_resp_break.stopped,key_resp_end_screen.started,image_end_screen.started,key_resp_end_screen.stopped,image_end_screen.stopped,key_resp_end_screen.keys,participant,session,date,expName,psychopyVersion,frameRate,
,,,,0,0,0,0,0,0,0,0,,,,,,,,,1,l,d,191.568364815339,j,19.451057681540988,0,211.0521323383582,212.07283826771527,1,212.07283826771527,X,l,go,None,0,,,,,,,,,,,,,,,,,,,1,001,2022-12-14_13h57.43.768,00_bat_bachelor,2022.2.4,59.825469248503715,
,,,,0,0,0,0,1,0,1,0,,,,,,,,,,,,,,,1,213.48461358321583,214.48570691602072,1,214.48570691602072,Y,d,go,None,0,215.28617198246138,,,,,,,,,,,,,,,,,,1,001,2022-12-14_13h57.43.768,00_bat_bachelor,2022.2.4,59.825469248503715,
,,,,0,0,0,0,2,0,2,0,,,,,,,,,,,,,,,2,215.88665023677459,216.88739060005173,1,216.88739060005173,X,l,go,None,0,217.68825421175643,,,,,,,,,,,,,,,,,,1,001,2022-12-14_13h57.43.768,00_bat_bachelor,2022.2.4,59.825469248503715,
,,,,0,0,0,0,3,0,3,0,,,,,,,,,,,,,,,3,218.28853561767755,219.28951888993106,1,219.28951888993106,X,None,nogo,None,1,220.09023753200745,,,,,,,,,,,,,,,,,,1,001,2022-12-14_13h57.43.768,00_bat_bachelor,2022.2.4,59.825469248503715,
,,,,0,0,0,0,4,0,4,0,,,,,,,,,,,,,,,4,220.6904137258607,221.69130342239805,1,221.69130342239805,Y,d,go,None,0,222.49209382201298,,,,,,,,,,,,,,,,,,1,001,2022-12-14_13h57.43.768,00_bat_bachelor,2022.2.4,59.825469248503715,
,,,,0,0,0,0,5,0,5,0,,,,,,,,,,,,,,,5,223.09221910680208,224.09291001555903,1,224.09291001555903,X,l,go,None,0,224.8937842939231,,,,,,,,,,,,,,,,,,1,001,2022-12-14_13h57.43.768,00_bat_bachelor,2022.2.4,59.825469248503715,
,,,,0,0,0,0,6,0,6,0,,,,,,,,,,,,,,,6,225.49400848775258,226.4947701843521,1,226.4947701843521,Y,d,go,d,1,,0.4599430105663487,,,,,,,,,,,,,,,,,1,001,2022-12-14_13h57.43.768,00_bat_bachelor,2022.2.4,59.825469248503715,
,,,,0,0,0,0,7,0,7,0,,,,,,,,,,,,,,,7,227.59557255972322,228.5963405593502,1,228.5963405593502,X,l,go,l,1,,0.27883570443373173,,,,,,,,,,,,,,,,,1,001,2022-12-14_13h57.43.768,00_bat_bachelor,2022.2.4,59.825469248503715,
,,,,0,0,0,0,8,0,8,0,,,,,,,,,,,,,,,8,229.49705624385024,230.49801333429787,1,230.49801333429787,X,None,nogo,d,0,,0.32958331619374803,,,,,,,,,,,,,,,,,1,001,2022-12-14_13h57.43.768,00_bat_bachelor,2022.2.4,59.825469248503715,
,,,,0,0,0,0,9,0,9,0,,,,,,,,,,,,,,,9,231.86538188345003,232.8660955800733,1,232.8660955800733,Y,d,go,None,0,233.66672646461666,,,,,,,,,,,,,,,,,,1,001,2022-12-14_13h57.43.768,00_bat_bachelor,2022.2.4,59.825469248503715,
,,,,0,0,0,0,10,0,10,0,,,,,,,,,,,,,,,10,234.26719987044999,235.26794314281506,1,235.26794314281506,X,l,go,d,0,,0.47174858059952385,,,,,,,,,,,,,,,,,1,001,2022-12-14_13h57.43.768,00_bat_bachelor,2022.2.4,59.825469248503715,
,,,,0,0,0,0,11,0,11,0,,,,,,,,,,,,,,,11,236.36881873026869,237.3695072147857,1,237.3695072147857,Y,d,go,None,0,238.16988112975378,,,,,,,,,,,,,,,,,,1,001,2022-12-14_13h57.43.768,00_bat_bachelor,2022.2.4,59.825469248503715,
,,,,0,0,0,0,12,0,12,0,,,,,,,,,,,,,,,12,238.7703836264809,239.7711404745969,1,239.7711404745969,X,l,go,l,1,,0.3362276766092691,,,,,,,,,,,,,,,,,1,001,2022-12-14_13h57.43.768,00_bat_bachelor,2022.2.4,59.825469248503715,
,,,,0,0,0,0,13,0,13,0,,,,,,,,,,,,,,,13,240.73907406590297,241.73934897486106,1,241.73934897486106,Y,d,go,d,1,,0.48020821286263526,,,,,,,,,,,,,,,,,1,001,2022-12-14_13h57.43.768,00_bat_bachelor,2022.2.4,59.825469248503715,
,,,,0,0,0,0,14,0,14,0,,,,,,,,,,,,,,,14,242.84017074415897,243.84128928907012,1,243.84128928907012,Y,None,nogo,d,0,,0.7302260310352722,,,,,,,,,,,,,,,,,1,001,2022-12-14_13h57.43.768,00_bat_bachelor,2022.2.4,59.825469248503715,
,,,,1,0,1,0,0,0,0,0,,,,,,,,,,,,,,,0,250.86282867256887,251.06298130279538,0.2,251.06298130279538,X,l,go,None,0,,,245.64713083775496,j,5.19552907815887,,,,,,,,,,,,,,1,001,2022-12-14_13h57.43.768,00_bat_bachelor,2022.2.4,59.825469248503715,
,,,,1,0,1,0,1,0,1,0,,,,,,,,,,,,,,,1,252.46401529017385,252.66415919313295,0.2,252.66415919313295,Y,d,go,d,1,,0.33940779628028395,,,,,,,,,,,,,,,,,1,001,2022-12-14_13h57.43.768,00_bat_bachelor,2022.2.4,59.825469248503715,
,,,,1,0,1,0,2,0,2,0,,,,,,,,,,,,,,,2,253.6315914513507,253.83180565730436,0.2,253.83180565730436,X,l,go,l,1,,0.4992734157385712,,,,,,,,,,,,,,,,,1,001,2022-12-14_13h57.43.768,00_bat_bachelor,2022.2.4,59.825469248503715,
,,,,1,0,1,0,3,0,3,0,,,,,,,,,,,,,,,3,254.9490880246849,255.14952380629256,0.2,255.14952380629256,X,None,nogo,l,0,,0.5267376448464347,,,,,,,,,,,,,,,,,1,001,2022-12-14_13h57.43.768,00_bat_bachelor,2022.2.4,59.825469248503715,
,,,,1,0,1,0,4,0,4,0,,,,,,,,,,,,,,,4,256.7005780845684,256.9004868361262,0.2,256.9004868361262,Y,d,go,d,1,,0.5181248005392263,,,,,,,,,,,,,,,,,1,001,2022-12-14_13h57.43.768,00_bat_bachelor,2022.2.4,59.825469248503715,
,,,,1,0,1,0,5,0,5,0,,,,,,,,,,,,,,,5,258.05170615674797,258.25151454472143,0.2,258.25151454472143,X,l,go,l,1,,0.5609504767417093,,,,,,,,,,,,,,,,,1,001,2022-12-14_13h57.43.768,00_bat_bachelor,2022.2.4,59.825469248503715,
,,,,1,0,1,0,6,0,6,0,,,,,,,,,,,,,,,6,259.4361360309631,259.6363012672482,0.2,259.6363012672482,Y,d,go,d,1,,0.5512152087358118,,,,,,,,,,,,,,,,,1,001,2022-12-14_13h57.43.768,00_bat_bachelor,2022.2.4,59.825469248503715,
,,,,1,0,1,0,7,0,7,0,,,,,,,,,,,,,,,7,260.82043645069643,261.0202894447066,0.2,261.0202894447066,X,l,go,l,1,,0.6078706964217417,,,,,,,,,,,,,,,,,1,001,2022-12-14_13h57.43.768,00_bat_bachelor,2022.2.4,59.825469248503715,
,,,,1,0,1,0,8,0,8,0,,,,,,,,,,,,,,,8,262.25480811887974,262.45470911286975,0.2,262.45470911286975,Y,d,go,None,0,263.25565999725586,,,,,,,,,,,,,,,,,,1,001,2022-12-14_13h57.43.768,00_bat_bachelor,2022.2.4,59.825469248503715,
,,,,1,0,1,0,9,0,9,0,,,,,,,,,,,,,,,9,263.855863342611,264.05630930603,0.2,264.05630930603,Y,None,nogo,d,0,,0.674640118591924,,,,,,,,,,,,,,,,,1,001,2022-12-14_13h57.43.768,00_bat_bachelor,2022.2.4,59.825469248503715,
,,,,1,0,1,0,10,0,10,0,,,,,,,,,,,,,,,10,265.7575283599872,265.9576422023565,0.2,265.9576422023565,X,l,go,None,0,,,,,,,,,,,,,,,,,,,1,001,2022-12-14_13h57.43.768,00_bat_bachelor,2022.2.4,59.825469248503715,
,,,,1,0,1,0,11,0,11,0,,,,,,,,,,,,,,,11,267.35852200798763,267.5588821532692,0.2,267.5588821532692,Y,d,go,d,1,,0.3078383570391452,,,,,,,,,,,,,,,,,1,001,2022-12-14_13h57.43.768,00_bat_bachelor,2022.2.4,59.825469248503715,
,,,,1,0,1,0,12,0,12,0,,,,,,,,,,,,,,,12,268.49289333677734,268.69280451257873,0.2,268.69280451257873,X,l,go,l,1,,0.5665296255538124,,,,,,,,,,,,,,,,,1,001,2022-12-14_13h57.43.768,00_bat_bachelor,2022.2.4,59.825469248503715,
,,,,1,0,1,0,13,0,13,0,,,,,,,,,,,,,,,13,269.87738866550717,270.07740893216396,0.2,270.07740893216396,X,None,nogo,l,0,,0.4613248280802509,,,,,,,,,,,,,,,,,1,001,2022-12-14_13h57.43.768,00_bat_bachelor,2022.2.4,59.825469248503715,
,,,,1,0,1,0,14,0,14,0,,,,,,,,,,,,,,,14,271.5616457882934,271.7620752668736,0.2,271.7620752668736,Y,d,go,None,0,272.5625451817941,,,,,,,,,,,,,,,,,,1,001,2022-12-14_13h57.43.768,00_bat_bachelor,2022.2.4,59.825469248503715,
,,,,,,,,,,,,,,,,,,,,,,,,,,,,,,,,,,,,,,273.19800814642076,None,,273.19800814642076,273.19800814642076,space,3.34111058333292,,,,,,,,,,1,001,2022-12-14_13h57.43.768,00_bat_bachelor,2022.2.4,59.825469248503715,
,,,,,,,,,,,,0,0,0,0,0,0,0,0,,,,,,,0,,,1,277.5665204525976,X,l,go,None,0,278.36715279168493,,,,,,,,,,,,,,,,,,1,001,2022-12-14_13h57.43.768,00_bat_bachelor,2022.2.4,59.825469248503715,
,,,,,,,,,,,,0,0,0,0,1,0,1,0,,,,,,,1,,,1,279.3678907307185,Y,d,go,d,1,,0.35520803104373044,,,,,,,,,,,,,,,,,1,001,2022-12-14_13h57.43.768,00_bat_bachelor,2022.2.4,59.825469248503715,
,,,,,,,,,,,,0,0,0,0,2,0,2,0,,,,,,,2,,,1,280.7522095746863,X,l,go,l,1,,0.34780827705253614,,,,,,,,,,,,,,,,,1,001,2022-12-14_13h57.43.768,00_bat_bachelor,2022.2.4,59.825469248503715,
,,,,,,,,,,,,0,0,0,0,3,0,3,0,,,,,,,3,,,1,282.12068018391074,Y,d,go,d,1,,0.3708599022429553,,,,,,,,,,,,,,,,,1,001,2022-12-14_13h57.43.768,00_bat_bachelor,2022.2.4,59.825469248503715,
,,,,,,,,,,,,0,0,0,0,4,0,4,0,,,,,,,4,,,1,283.5217791409559,X,l,go,l,1,,0.4740676097753749,,,,,,,,,,,,,,,,,1,001,2022-12-14_13h57.43.768,00_bat_bachelor,2022.2.4,59.825469248503715,
,,,,,,,,,,,,0,0,0,0,5,0,5,0,,,,,,,5,,,1,285.02311174637,Y,d,go,d,1,,0.5234983736918366,,,,,,,,,,,,,,,,,1,001,2022-12-14_13h57.43.768,00_bat_bachelor,2022.2.4,59.825469248503715,
,,,,,,,,,,,,0,0,0,0,6,0,6,0,,,,,,,6,,,1,286.59064504695925,X,l,go,l,1,,0.47684724479404395,,,,,,,,,,,,,,,,,1,001,2022-12-14_13h57.43.768,00_bat_bachelor,2022.2.4,59.825469248503715,
,,,,,,,,,,,,0,0,0,0,7,0,7,0,,,,,,,7,,,1,288.1412658709014,X,None,nogo,d,0,,0.49487584211237845,,,,,,,,,,,,,,,,,1,001,2022-12-14_13h57.43.768,00_bat_bachelor,2022.2.4,59.825469248503715,
,,,,,,,,,,,,0,0,0,0,8,0,8,0,,,,,,,8,,,1,289.6587691351415,Y,d,go,None,0,,,,,,,,,,,,,,,,,,,1,001,2022-12-14_13h57.43.768,00_bat_bachelor,2022.2.4,59.825469248503715,
,,,,,,,,,,,,0,0,0,0,9,0,9,0,,,,,,,9,,,1,291.46050547369305,X,l,go,None,0,,,,,,,,,,,,,,,,,,,1,001,2022-12-14_13h57.43.768,00_bat_bachelor,2022.2.4,59.825469248503715,
,,,,,,,,,,,,0,0,0,0,10,0,10,0,,,,,,,10,,,1,293.26151841865794,X,None,nogo,None,1,,,,,,,,,,,,,,,,,,,1,001,2022-12-14_13h57.43.768,00_bat_bachelor,2022.2.4,59.825469248503715,
,,,,,,,,,,,,0,0,0,0,11,0,11,0,,,,,,,11,,,1,295.0631306360592,X,None,nogo,None,1,,,,,,,,,,,,,,,,,,,1,001,2022-12-14_13h57.43.768,00_bat_bachelor,2022.2.4,59.825469248503715,
,,,,,,,,,,,,0,0,0,0,12,0,12,0,,,,,,,12,,,1,296.86457267172227,Y,d,go,d,1,,0.5706348356834496,,,,,,,,,,,,,,,,,1,001,2022-12-14_13h57.43.768,00_bat_bachelor,2022.2.4,59.825469248503715,
,,,,,,,,,,,,0,0,0,0,13,0,13,0,,,,,,,13,,,1,298.46578498628514,X,l,go,l,1,,0.6008980937403976,,,,,,,,,,,,,,,,,1,001,2022-12-14_13h57.43.768,00_bat_bachelor,2022.2.4,59.825469248503715,
,,,,,,,,,,,,0,0,0,0,14,0,14,0,,,,,,,14,,,1,300.10030249682313,Y,d,go,None,0,,,,,,,,,,,,,,,,,,,1,001,2022-12-14_13h57.43.768,00_bat_bachelor,2022.2.4,59.825469248503715,
,,,,,,,,,,,,0,0,0,0,15,0,15,0,,,,,,,15,,,1,301.90166210828465,X,l,go,l,1,,0.589003311626584,,,,,,,,,,,,,,,,,1,001,2022-12-14_13h57.43.768,00_bat_bachelor,2022.2.4,59.825469248503715,
,,,,,,,,,,,,0,0,0,0,16,0,16,0,,,,,,,16,,,1,303.51964483896154,Y,d,go,d,1,,0.6189906910294667,,,,,,,,,,,,,,,,,1,001,2022-12-14_13h57.43.768,00_bat_bachelor,2022.2.4,59.825469248503715,
,,,,,,,,,,,,0,0,0,0,17,0,17,0,,,,,,,17,,,1,305.17093809893777,Y,None,nogo,None,1,,,,,,,,,,,,,,,,,,,1,001,2022-12-14_13h57.43.768,00_bat_bachelor,2022.2.4,59.825469248503715,
,,,,,,,,,,,,0,0,0,0,18,0,18,0,,,,,,,18,,,1,306.9719680135895,Y,None,nogo,d,0,,0.6714919989062764,,,,,,,,,,,,,,,,,1,001,2022-12-14_13h57.43.768,00_bat_bachelor,2022.2.4,59.825469248503715,
,,,,,,,,,,,,0,0,0,0,19,0,19,0,,,,,,,19,,,1,308.67359191583455,X,l,go,l,1,,0.4416802315390669,,,,,,,,,,,,,,,,,1,001,2022-12-14_13h57.43.768,00_bat_bachelor,2022.2.4,59.825469248503715,
,,,,,,,,,,,,0,0,0,0,20,0,20,0,,,,,,,20,,,1,310.14137932539234,Y,d,go,d,1,,0.5585432051811949,,,,,,,,,,,,,,,,,1,001,2022-12-14_13h57.43.768,00_bat_bachelor,2022.2.4,59.825469248503715,
,,,,,,,,,,,,0,0,0,0,21,0,21,0,,,,,,,21,,,1,311.7258687389731,X,l,go,l,1,,0.6847157500706089,,,,,,,,,,,,,,,,,1,001,2022-12-14_13h57.43.768,00_bat_bachelor,2022.2.4,59.825469248503715,
,,,,,,,,,,,,0,0,0,0,22,0,22,0,,,,,,,22,,,1,313.4439333605151,X,None,nogo,None,1,,,,,,,,,,,,,,,,,,,1,001,2022-12-14_13h57.43.768,00_bat_bachelor,2022.2.4,59.825469248503715,
,,,,,,,,,,,,0,0,0,0,23,0,23,0,,,,,,,23,,,1,315.2452280023135,Y,d,go,None,0,,,,,,,,,,,,,,,,,,,1,001,2022-12-14_13h57.43.768,00_bat_bachelor,2022.2.4,59.825469248503715,
,,,,,,,,,,,,0,0,0,0,24,0,24,0,,,,,,,24,,,1,317.0466336743593,X,l,go,l,1,,0.32433725813098135,,,,,,,,,,,,,,,,,1,001,2022-12-14_13h57.43.768,00_bat_bachelor,2022.2.4,59.825469248503715,
,,,,,,,,,,,,0,0,0,0,25,0,25,0,,,,,,,25,,,1,318.3977219889821,Y,d,go,d,1,,0.3810979578847764,,,,,,,,,,,,,,,,,1,001,2022-12-14_13h57.43.768,00_bat_bachelor,2022.2.4,59.825469248503715,
,,,,,,,,,,,,0,0,0,0,26,0,26,0,,,,,,,26,,,1,319.79861682491173,Y,None,nogo,None,1,,,,,,,,,,,,,,,,,,,1,001,2022-12-14_13h57.43.768,00_bat_bachelor,2022.2.4,59.825469248503715,
,,,,,,,,,,,,0,0,0,0,27,0,27,0,,,,,,,27,,,1,321.6000792242048,X,l,go,l,1,,0.33195373928538174,,,,,,,,,,,,,,,,,1,001,2022-12-14_13h57.43.768,00_bat_bachelor,2022.2.4,59.825469248503715,
,,,,,,,,,,,,0,0,0,0,28,0,28,0,,,,,,,28,,,1,322.9508068117284,Y,d,go,d,1,,0.5324704905542603,,,,,,,,,,,,,,,,,1,001,2022-12-14_13h57.43.768,00_bat_bachelor,2022.2.4,59.825469248503715,
,,,,,,,,,,,,0,0,0,0,29,0,29,0,,,,,,,29,,,1,324.50217527167115,X,l,go,l,1,,0.6130896029790165,,,,,,,,,,,,,,,,,1,001,2022-12-14_13h57.43.768,00_bat_bachelor,2022.2.4,59.825469248503715,
,,,,,,,,,,,,0,0,0,0,30,0,30,0,,,,,,,30,,,1,326.13678102459016,Y,d,go,d,1,,0.4823046966921538,,,,,,,,,,,,,,,,,1,001,2022-12-14_13h57.43.768,00_bat_bachelor,2022.2.4,59.825469248503715,
,,,,,,,,,,,,0,0,0,0,31,0,31,0,,,,,,,31,,,1,327.6377116908079,Y,None,nogo,None,1,328.4384405146957,,,,,,,,,,,,,,,,,,1,001,2022-12-14_13h57.43.768,00_bat_bachelor,2022.2.4,59.825469248503715,
,,,,,,,,,,,,0,0,0,0,32,0,32,0,,,,,,,32,,,1,329.4393127566982,X,l,go,l,1,,0.5084705021909031,,,,,,,,,,,,,,,,,1,001,2022-12-14_13h57.43.768,00_bat_bachelor,2022.2.4,59.825469248503715,
,,,,,,,,,,,,0,0,0,0,33,0,33,0,,,,,,,33,,,1,330.97395492171927,Y,d,go,d,1,,0.4936351154392469,,,,,,,,,,,,,,,,,1,001,2022-12-14_13h57.43.768,00_bat_bachelor,2022.2.4,59.825469248503715,
,,,,,,,,,,,,0,0,0,0,34,0,34,0,,,,,,,34,,,1,332.491715155531,X,l,go,l,1,,0.4642062812272343,,,,,,,,,,,,,,,,,1,001,2022-12-14_13h57.43.768,00_bat_bachelor,2022.2.4,59.825469248503715,
,,,,,,,,,,,,0,0,0,0,35,0,35,0,,,,,,,35,,,1,333.97618813275767,Y,d,go,d,1,,0.6596723682705488,,,,,,,,,,,,,,,,,1,001,2022-12-14_13h57.43.768,00_bat_bachelor,2022.2.4,59.825469248503715,
,,,,,,,,,,,,0,0,0,0,36,0,36,0,,,,,,,36,,,1,335.6606731342181,X,l,go,l,1,,0.3827939570619492,,,,,,,,,,,,,,,,,1,001,2022-12-14_13h57.43.768,00_bat_bachelor,2022.2.4,59.825469248503715,
,,,,,,,,,,,,0,0,0,0,37,0,37,0,,,,,,,37,,,1,337.0619742729832,Y,d,go,l,0,,0.46926421816897346,,,,,,,,,,,,,,,,,1,001,2022-12-14_13h57.43.768,00_bat_bachelor,2022.2.4,59.825469248503715,
,,,,,,,,,,,,0,0,0,0,38,0,38,0,,,,,,,38,,,1,338.5629359694867,X,l,go,None,0,,,,,,,,,,,,,,,,,,,1,001,2022-12-14_13h57.43.768,00_bat_bachelor,2022.2.4,59.825469248503715,
,,,,,,,,,,,,0,0,0,0,39,0,39,0,,,,,,,39,,,1,340.36434745970837,X,None,nogo,l,0,,0.7663724377525796,,,,,,,,,,,,,,,,,1,001,2022-12-14_13h57.43.768,00_bat_bachelor,2022.2.4,59.825469248503715,
,,,,,,,,,,,,0,0,0,0,40,0,40,0,,,,,,,40,,,1,342.14914029132706,Y,d,go,d,1,,0.6633436392221483,,,,,,,,,,,,,,,,,1,001,2022-12-14_13h57.43.768,00_bat_bachelor,2022.2.4,59.825469248503715,
,,,,,,,,,,,,0,0,0,0,41,0,41,0,,,,,,,41,,,1,343.8333809292708,X,l,go,l,1,,0.4991284461102623,,,,,,,,,,,,,,,,,1,001,2022-12-14_13h57.43.768,00_bat_bachelor,2022.2.4,59.825469248503715,
,,,,,,,,,,,,0,0,0,0,42,0,42,0,,,,,,,42,,,1,345.35127401150385,X,None,nogo,None,1,,,,,,,,,,,,,,,,,,,1,001,2022-12-14_13h57.43.768,00_bat_bachelor,2022.2.4,59.825469248503715,
,,,,,,,,,,,,0,0,0,0,43,0,43,0,,,,,,,43,,,1,347.1529225925224,Y,d,go,d,1,,0.5233689192064048,,,,,,,,,,,,,,,,,1,001,2022-12-14_13h57.43.768,00_bat_bachelor,2022.2.4,59.825469248503715,
,,,,,,,,,,,,0,0,0,0,44,0,44,0,,,,,,,44,,,1,348.7039574768678,X,l,go,None,0,,,,,,,,,,,,,,,,,,,1,001,2022-12-14_13h57.43.768,00_bat_bachelor,2022.2.4,59.825469248503715,
,,,,,,,,,,,,0,0,0,0,45,0,45,0,,,,,,,45,,,1,350.50512363388043,Y,d,go,d,1,,0.5147143779504404,,,,,,,,,,,,,,,,,1,001,2022-12-14_13h57.43.768,00_bat_bachelor,2022.2.4,59.825469248503715,
,,,,,,,,,,,,0,0,0,0,46,0,46,0,,,,,,,46,,,1,352.0399321018522,Y,None,nogo,None,1,,,,,,,,,,,,,,,,,,,1,001,2022-12-14_13h57.43.768,00_bat_bachelor,2022.2.4,59.825469248503715,
,,,,,,,,,,,,0,0,0,0,47,0,47,0,,,,,,,47,,,1,353.8412005618411,X,l,go,l,1,,0.4583391325541015,,,,,,,,,,,,,,,,,1,001,2022-12-14_13h57.43.768,00_bat_bachelor,2022.2.4,59.825469248503715,
,,,,,,,,,,,,0,0,0,0,48,0,48,0,,,,,,,48,,,1,355.3258471147419,Y,d,go,d,1,,0.7332931810633454,,,,,,,,,,,,,,,,,1,001,2022-12-14_13h57.43.768,00_bat_bachelor,2022.2.4,59.825469248503715,
,,,,,,,,,,,,0,0,0,0,49,0,49,0,,,,,,,49,,,1,357.07694153845296,X,l,go,l,1,,0.5496438155569194,,,,,,,,,,,,,,,,,1,001,2022-12-14_13h57.43.768,00_bat_bachelor,2022.2.4,59.825469248503715,
,,,,,,,,,,,,0,0,0,0,50,0,50,0,,,,,,,50,,,1,358.64498635394557,Y,d,go,d,1,,0.565813989534945,,,,,,,,,,,,,,,,,1,001,2022-12-14_13h57.43.768,00_bat_bachelor,2022.2.4,59.825469248503715,
,,,,,,,,,,,,0,0,0,0,51,0,51,0,,,,,,,51,,,1,360.22946897965085,X,l,go,l,1,,0.42105284760327777,,,,,,,,,,,,,,,,,1,001,2022-12-14_13h57.43.768,00_bat_bachelor,2022.2.4,59.825469248503715,
,,,,,,,,,,,,0,0,0,0,52,0,52,0,,,,,,,52,,,1,361.6803439125615,X,None,nogo,l,0,,0.41131176141789183,,,,,,,,,,,,,,,,,1,001,2022-12-14_13h57.43.768,00_bat_bachelor,2022.2.4,59.825469248503715,
,,,,,,,,,,,,0,0,0,0,53,0,53,0,,,,,,,53,,,1,363.11472915649574,Y,d,go,d,1,,0.4969645683740964,,,,,,,,,,,,,,,,,1,001,2022-12-14_13h57.43.768,00_bat_bachelor,2022.2.4,59.825469248503715,
,,,,,,,,,,,,0,0,0,0,54,0,54,0,,,,,,,54,,,1,364.63289375374734,X,l,go,l,1,,0.43461453799682204,,,,,,,,,,,,,,,,,1,001,2022-12-14_13h57.43.768,00_bat_bachelor,2022.2.4,59.825469248503715,
,,,,,,,,,,,,0,0,0,0,55,0,55,0,,,,,,,55,,,1,366.10067970876116,X,None,nogo,None,1,,,,,,,,,,,,,,,,,,,1,001,2022-12-14_13h57.43.768,00_bat_bachelor,2022.2.4,59.825469248503715,
,,,,,,,,,,,,0,0,0,0,56,0,56,0,,,,,,,56,,,1,367.90188222939105,Y,d,go,d,1,,0.5743444096406165,,,,,,,,,,,,,,,,,1,001,2022-12-14_13h57.43.768,00_bat_bachelor,2022.2.4,59.825469248503715,
,,,,,,,,,,,,0,0,0,0,57,0,57,0,,,,,,,57,,,1,369.5029452106937,X,l,go,l,1,,0.380876382234419,,,,,,,,,,,,,,,,,1,001,2022-12-14_13h57.43.768,00_bat_bachelor,2022.2.4,59.825469248503715,
,,,,,,,,,,,,0,0,0,0,58,0,58,0,,,,,,,58,,,1,370.9043762887886,Y,d,go,d,1,,0.4028642503617448,,,,,,,,,,,,,,,,,1,001,2022-12-14_13h57.43.768,00_bat_bachelor,2022.2.4,59.825469248503715,
,,,,,,,,,,,,0,0,0,0,59,0,59,0,,,,,,,59,,,1,372.3384798358893,X,l,go,l,1,,0.5052743825290236,,,,,,,,,,,,,,,,,1,001,2022-12-14_13h57.43.768,00_bat_bachelor,2022.2.4,59.825469248503715,
,,,,,,,,,,,,0,0,0,0,60,0,60,0,,,,,,,60,,,1,373.87324854630424,Y,d,go,d,1,,0.5212210414611036,,,,,,,,,,,,,,,,,1,001,2022-12-14_13h57.43.768,00_bat_bachelor,2022.2.4,59.825469248503715,
,,,,,,,,,,,,0,0,0,0,61,0,61,0,,,,,,,61,,,1,375.4244317942139,Y,None,nogo,None,1,,,,,,,,,,,,,,,,,,,1,001,2022-12-14_13h57.43.768,00_bat_bachelor,2022.2.4,59.825469248503715,
,,,,,,,,,,,,0,0,0,0,62,0,62,0,,,,,,,62,,,1,377.2257531026662,X,l,go,l,1,,0.38558571328394464,,,,,,,,,,,,,,,,,1,001,2022-12-14_13h57.43.768,00_bat_bachelor,2022.2.4,59.825469248503715,
,,,,,,,,,,,,0,0,0,0,63,0,63,0,,,,,,,63,,,1,378.64344065772457,Y,d,go,d,1,,0.4878736636892427,,,,,,,,,,,,,,,,,1,001,2022-12-14_13h57.43.768,00_bat_bachelor,2022.2.4,59.825469248503715,
,,,,,,,,,,,,0,0,0,0,64,0,64,0,,,,,,,64,,,1,380.1610510734281,X,l,go,l,1,,0.5382925483354484,,,,,,,,,,,,,,,,,1,001,2022-12-14_13h57.43.768,00_bat_bachelor,2022.2.4,59.825469248503715,
,,,,,,,,,,,,0,0,0,0,65,0,65,0,,,,,,,65,,,1,381.7289169799187,Y,d,go,d,1,,0.6992961066353018,,,,,,,,,,,,,,,,,1,001,2022-12-14_13h57.43.768,00_bat_bachelor,2022.2.4,59.825469248503715,
,,,,,,,,,,,,0,0,0,0,66,0,66,0,,,,,,,66,,,1,383.4472536013309,Y,None,nogo,None,1,,,,,,,,,,,,,,,,,,,1,001,2022-12-14_13h57.43.768,00_bat_bachelor,2022.2.4,59.825469248503715,
,,,,,,,,,,,,0,0,0,0,67,0,67,0,,,,,,,67,,,1,385.24843187954684,X,l,go,l,1,,0.4106227920528909,,,,,,,,,,,,,,,,,1,001,2022-12-14_13h57.43.768,00_bat_bachelor,2022.2.4,59.825469248503715,
,,,,,,,,,,,,0,0,0,0,68,0,68,0,,,,,,,68,,,1,386.68268572960733,Y,d,go,d,1,,0.449063500691409,,,,,,,,,,,,,,,,,1,001,2022-12-14_13h57.43.768,00_bat_bachelor,2022.2.4,59.825469248503715,
,,,,,,,,,,,,0,0,0,0,69,0,69,0,,,,,,,69,,,1,388.1506918057239,X,l,go,l,1,,0.37377577961524366,,,,,,,,,,,,,,,,,1,001,2022-12-14_13h57.43.768,00_bat_bachelor,2022.2.4,59.825469248503715,
,,,,,,,,,,,,0,0,0,0,70,0,70,0,,,,,,,70,,,1,389.5516099143715,Y,d,go,d,1,,0.47608554819089477,,,,,,,,,,,,,,,,,1,001,2022-12-14_13h57.43.768,00_bat_bachelor,2022.2.4,59.825469248503715,
,,,,,,,,,,,,0,0,0,0,71,0,71,0,,,,,,,71,,,1,391.0528460349851,X,l,go,l,1,,0.3984773433985538,,,,,,,,,,,,,,,,,1,001,2022-12-14_13h57.43.768,00_bat_bachelor,2022.2.4,59.825469248503715,
,,,,,,,,,,,,0,0,0,0,72,0,72,0,,,,,,,72,,,1,392.47040268101773,Y,d,go,d,1,,0.5326028541239793,,,,,,,,,,,,,,,,,1,001,2022-12-14_13h57.43.768,00_bat_bachelor,2022.2.4,59.825469248503715,
,,,,,,,,,,,,0,0,0,0,73,0,73,0,,,,,,,73,,,1,394.0217027773542,X,l,go,l,1,,0.3736676584594534,,,,,,,,,,,,,,,,,1,001,2022-12-14_13h57.43.768,00_bat_bachelor,2022.2.4,59.825469248503715,
,,,,,,,,,,,,0,0,0,0,74,0,74,0,,,,,,,74,,,1,395.422959794927,Y,d,go,d,1,,0.6519220689988288,,,,,,,,,,,,,,,,,1,001,2022-12-14_13h57.43.768,00_bat_bachelor,2022.2.4,59.825469248503715,
,,,,,,,,,,,,0,0,0,0,75,0,75,0,,,,,,,75,,,1,397.10729449343125,X,l,go,l,1,,0.34416367276207893,,,,,,,,,,,,,,,,,1,001,2022-12-14_13h57.43.768,00_bat_bachelor,2022.2.4,59.825469248503715,
,,,,,,,,,,,,0,0,0,0,76,0,76,0,,,,,,,76,,,1,398.475353951344,Y,d,go,d,1,,0.5275725535320817,,,,,,,,,,,,,,,,,1,001,2022-12-14_13h57.43.768,00_bat_bachelor,2022.2.4,59.825469248503715,
,,,,,,,,,,,,0,0,0,0,77,0,77,0,,,,,,,77,,,1,400.0265342901657,Y,None,nogo,None,1,,,,,,,,,,,,,,,,,,,1,001,2022-12-14_13h57.43.768,00_bat_bachelor,2022.2.4,59.825469248503715,
,,,,,,,,,,,,0,0,0,0,78,0,78,0,,,,,,,78,,,1,401.8278168107536,Y,None,nogo,None,1,,,,,,,,,,,,,,,,,,,1,001,2022-12-14_13h57.43.768,00_bat_bachelor,2022.2.4,59.825469248503715,
,,,,,,,,,,,,0,0,0,0,79,0,79,0,,,,,,,79,,,1,403.6291914525136,X,l,go,l,1,,0.3656070563047251,,,,,,,,,,,,,,,,,1,001,2022-12-14_13h57.43.768,00_bat_bachelor,2022.2.4,59.825469248503715,
,,,,,,,,,,,,0,0,0,0,80,0,80,0,,,,,,,80,,,1,405.0135878721994,Y,d,go,d,1,,0.35801966604049085,,,,,,,,,,,,,,,,,1,001,2022-12-14_13h57.43.768,00_bat_bachelor,2022.2.4,59.825469248503715,
,,,,,,,,,,,,0,0,0,0,81,0,81,0,,,,,,,81,,,1,406.39809241304465,X,l,go,l,1,,0.38200268472064636,,,,,,,,,,,,,,,,,1,001,2022-12-14_13h57.43.768,00_bat_bachelor,2022.2.4,59.825469248503715,
,,,,,,,,,,,,0,0,0,0,82,0,82,0,,,,,,,82,,,1,407.7991234913352,X,None,nogo,None,1,,,,,,,,,,,,,,,,,,,1,001,2022-12-14_13h57.43.768,00_bat_bachelor,2022.2.4,59.825469248503715,
,,,,,,,,,,,,0,0,0,0,83,0,83,0,,,,,,,83,,,1,409.6003788604212,Y,d,go,d,1,,0.34724876217296696,,,,,,,,,,,,,,,,,1,001,2022-12-14_13h57.43.768,00_bat_bachelor,2022.2.4,59.825469248503715,
,,,,,,,,,,,,0,0,0,0,84,0,84,0,,,,,,,84,,,1,410.96794910644894,X,l,go,l,1,,0.3559411215974251,,,,,,,,,,,,,,,,,1,001,2022-12-14_13h57.43.768,00_bat_bachelor,2022.2.4,59.825469248503715,
,,,,,,,,,,,,0,0,0,0,85,0,85,0,,,,,,,85,,,1,412.3525782532961,Y,d,go,d,1,,0.3305728914710926,,,,,,,,,,,,,,,,,1,001,2022-12-14_13h57.43.768,00_bat_bachelor,2022.2.4,59.825469248503715,
,,,,,,,,,,,,0,0,0,0,86,0,86,0,,,,,,,86,,,1,413.7032699620504,X,l,go,l,1,,0.6120985731540713,,,,,,,,,,,,,,,,,1,001,2022-12-14_13h57.43.768,00_bat_bachelor,2022.2.4,59.825469248503715,
,,,,,,,,,,,,0,0,0,0,87,0,87,0,,,,,,,87,,,1,415.338134139085,Y,d,go,d,1,,0.753210262315406,,,,,,,,,,,,,,,,,1,001,2022-12-14_13h57.43.768,00_bat_bachelor,2022.2.4,59.825469248503715,
,,,,,,,,,,,,0,0,0,0,88,0,88,0,,,,,,,88,,,1,417.1225580011851,X,l,go,l,1,,0.47337524647809914,,,,,,,,,,,,,,,,,1,001,2022-12-14_13h57.43.768,00_bat_bachelor,2022.2.4,59.825469248503715,
,,,,,,,,,,,,0,0,0,0,89,0,89,0,,,,,,,89,,,1,418.6236932733591,X,None,nogo,l,0,,0.5549912069072889,,,,,,,,,,,,,,,,,1,001,2022-12-14_13h57.43.768,00_bat_bachelor,2022.2.4,59.825469248503715,
,,,,,,,,,,,,0,0,0,0,90,0,90,0,,,,,,,90,,,1,420.20854244434304,Y,d,go,d,1,,0.47435851872796775,,,,,,,,,,,,,,,,,1,001,2022-12-14_13h57.43.768,00_bat_bachelor,2022.2.4,59.825469248503715,
,,,,,,,,,,,,0,0,0,0,91,0,91,0,,,,,,,91,,,1,421.70964232259576,X,l,go,l,1,,0.39749067720913445,,,,,,,,,,,,,,,,,1,001,2022-12-14_13h57.43.768,00_bat_bachelor,2022.2.4,59.825469248503715,
,,,,,,,,,,,,0,0,0,0,92,0,92,0,,,,,,,92,,,1,423.1274312109417,X,None,nogo,d,0,,0.3721180834509141,,,,,,,,,,,,,,,,,1,001,2022-12-14_13h57.43.768,00_bat_bachelor,2022.2.4,59.825469248503715,
,,,,,,,,,,,,0,0,0,0,93,0,93,0,,,,,,,93,,,1,424.52849138012607,Y,d,go,None,0,,,,,,,,,,,,,,,,,,,1,001,2022-12-14_13h57.43.768,00_bat_bachelor,2022.2.4,59.825469248503715,
,,,,,,,,,,,,0,0,0,0,94,0,94,0,,,,,,,94,,,1,426.3299106279228,X,l,go,l,1,,0.30538502489434904,,,,,,,,,,,,,,,,,1,001,2022-12-14_13h57.43.768,00_bat_bachelor,2022.2.4,59.825469248503715,
,,,,,,,,,,,,0,0,0,0,95,0,95,0,,,,,,,95,,,1,427.6641233143637,X,None,nogo,l,0,,0.6029703351596254,,,,,,,,,,,,,,,,,1,001,2022-12-14_13h57.43.768,00_bat_bachelor,2022.2.4,59.825469248503715,
,,,,,,,,,,,,0,0,0,0,96,0,96,0,,,,,,,96,,,1,429.29848615830997,Y,d,go,None,0,430.09937401242496,,,,,,,,,,,,,,,,,,1,001,2022-12-14_13h57.43.768,00_bat_bachelor,2022.2.4,59.825469248503715,
,,,,,,,,,,,,0,0,0,0,97,0,97,0,,,,,,,97,,,1,431.10020261808313,X,l,go,l,1,,0.36636196502877283,,,,,,,,,,,,,,,,,1,001,2022-12-14_13h57.43.768,00_bat_bachelor,2022.2.4,59.825469248503715,
,,,,,,,,,,,,0,0,0,0,98,0,98,0,,,,,,,98,,,1,432.4842678864152,X,None,nogo,l,0,,0.43871344510262134,,,,,,,,,,,,,,,,,1,001,2022-12-14_13h57.43.768,00_bat_bachelor,2022.2.4,59.825469248503715,
,,,,,,,,,,,,0,0,0,0,99,0,99,0,,,,,,,99,,,1,433.9523132352406,X,None,nogo,None,1,,,,,,,,,,,,,,,,,,,1,001,2022-12-14_13h57.43.768,00_bat_bachelor,2022.2.4,59.825469248503715,
,,,,,,,,,,,,0,0,0,0,100,0,100,0,,,,,,,100,,,1,435.75378484664907,Y,d,go,d,1,,0.5294421283833799,,,,,,,,,,,,,,,,,1,001,2022-12-14_13h57.43.768,00_bat_bachelor,2022.2.4,59.825469248503715,
,,,,,,,,,,,,0,0,0,0,101,0,101,0,,,,,,,101,,,1,437.3048638521868,X,l,go,l,1,,0.4020152810771833,,,,,,,,,,,,,,,,,1,001,2022-12-14_13h57.43.768,00_bat_bachelor,2022.2.4,59.825469248503715,
,,,,,,,,,,,,0,0,0,0,102,0,102,0,,,,,,,102,,,1,438.7392854597383,Y,d,go,d,1,,0.7441353576250549,,,,,,,,,,,,,,,,,1,001,2022-12-14_13h57.43.768,00_bat_bachelor,2022.2.4,59.825469248503715,
,,,,,,,,,,,,0,0,0,0,103,0,103,0,,,,,,,103,,,1,440.50730060251954,Y,None,nogo,None,1,,,,,,,,,,,,,,,,,,,1,001,2022-12-14_13h57.43.768,00_bat_bachelor,2022.2.4,59.825469248503715,
,,,,,,,,,,,,0,0,0,0,104,0,104,0,,,,,,,104,,,1,442.30864227459824,X,l,go,l,1,,0.5178256491672073,,,,,,,,,,,,,,,,,1,001,2022-12-14_13h57.43.768,00_bat_bachelor,2022.2.4,59.825469248503715,
,,,,,,,,,,,,0,0,0,0,105,0,105,0,,,,,,,105,,,1,443.85996224971313,Y,d,go,d,1,,0.6799807220631919,,,,,,,,,,,,,,,,,1,001,2022-12-14_13h57.43.768,00_bat_bachelor,2022.2.4,59.825469248503715,
,,,,,,,,,,,,0,0,0,0,106,0,106,0,,,,,,,106,,,1,445.5610901521977,X,l,go,l,1,,0.6424122554271889,,,,,,,,,,,,,,,,,1,001,2022-12-14_13h57.43.768,00_bat_bachelor,2022.2.4,59.825469248503715,
,,,,,,,,,,,,0,0,0,0,107,0,107,0,,,,,,,107,,,1,447.22911649497473,Y,d,go,d,1,,0.5429509703171789,,,,,,,,,,,,,,,,,1,001,2022-12-14_13h57.43.768,00_bat_bachelor,2022.2.4,59.825469248503715,
,,,,,,,,,,,,0,0,0,0,108,0,108,0,,,,,,,108,,,1,448.79688640150925,Y,None,nogo,None,1,,,,,,,,,,,,,,,,,,,1,001,2022-12-14_13h57.43.768,00_bat_bachelor,2022.2.4,59.825469248503715,
,,,,,,,,,,,,0,0,0,0,109,0,109,0,,,,,,,109,,,1,450.5983890432035,X,l,go,l,1,,0.4367405975717702,,,,,,,,,,,,,,,,,1,001,2022-12-14_13h57.43.768,00_bat_bachelor,2022.2.4,59.825469248503715,
,,,,,,,,,,,,0,0,0,0,110,0,110,0,,,,,,,110,,,1,452.0665846949887,Y,d,go,d,1,,0.6321019573952071,,,,,,,,,,,,,,,,,1,001,2022-12-14_13h57.43.768,00_bat_bachelor,2022.2.4,59.825469248503715,
,,,,,,,,,,,,0,0,0,0,111,0,111,0,,,,,,,111,,,1,453.7181320154523,Y,None,nogo,None,1,454.5187032636604,,,,,,,,,,,,,,,,,,1,001,2022-12-14_13h57.43.768,00_bat_bachelor,2022.2.4,59.825469248503715,
,,,,,,,,,,,,0,0,0,0,112,0,112,0,,,,,,,112,,,1,455.51924386945757,X,l,go,None,0,456.31992275397715,,,,,,,,,,,,,,,,,,1,001,2022-12-14_13h57.43.768,00_bat_bachelor,2022.2.4,59.825469248503715,
,,,,,,,,,,,,0,0,0,0,113,0,113,0,,,,,,,113,,,1,457.3203043295507,Y,d,go,d,1,,0.41858739425151725,,,,,,,,,,,,,,,,,1,001,2022-12-14_13h57.43.768,00_bat_bachelor,2022.2.4,59.825469248503715,
,,,,,,,,,,,,0,0,0,0,114,0,114,0,,,,,,,114,,,1,458.7713004745201,X,l,go,None,0,459.5718188742685,,,,,,,,,,,,,,,,,,1,001,2022-12-14_13h57.43.768,00_bat_bachelor,2022.2.4,59.825469248503715,
,,,,,,,,,,,,0,0,0,0,115,0,115,0,,,,,,,115,,,1,460.5726402072032,Y,d,go,d,1,,0.5579148418510158,,,,,,,,,,,,,,,,,1,001,2022-12-14_13h57.43.768,00_bat_bachelor,2022.2.4,59.825469248503715,
,,,,,,,,,,,,0,0,0,0,116,0,116,0,,,,,,,116,,,1,462.1573778630882,Y,None,nogo,None,1,,,,,,,,,,,,,,,,,,,1,001,2022-12-14_13h57.43.768,00_bat_bachelor,2022.2.4,59.825469248503715,
,,,,,,,,,,,,0,0,0,0,117,0,117,0,,,,,,,117,,,1,463.9587651109032,X,l,go,l,1,,0.4839686958875973,,,,,,,,,,,,,,,,,1,001,2022-12-14_13h57.43.768,00_bat_bachelor,2022.2.4,59.825469248503715,
,,,,,,,,,,,,0,0,0,0,118,0,118,0,,,,,,,118,,,1,465.4598790497548,Y,d,go,d,1,,0.5679880490897631,,,,,,,,,,,,,,,,,1,001,2022-12-14_13h57.43.768,00_bat_bachelor,2022.2.4,59.825469248503715,
,,,,,,,,,,,,0,0,0,0,119,0,119,0,,,,,,,119,,,1,467.0608867583578,Y,None,nogo,None,1,467.86119861275074,,,,,,,,,,,,,,,,,,1,001,2022-12-14_13h57.43.768,00_bat_bachelor,2022.2.4,59.825469248503715,
,,,,,,,,,,,,0,0,0,0,120,0,120,0,,,,,,,120,,,1,468.8623588546143,X,l,go,l,1,,0.34882645837933524,,,,,,,,,,,,,,,,,1,001,2022-12-14_13h57.43.768,00_bat_bachelor,2022.2.4,59.825469248503715,
,,,,,,,,,,,,0,0,0,0,121,0,121,0,,,,,,,121,,,1,470.2296672825869,Y,d,go,None,0,,,,,,,,,,,,,,,,,,,1,001,2022-12-14_13h57.43.768,00_bat_bachelor,2022.2.4,59.825469248503715,
,,,,,,,,,,,,0,0,0,0,122,0,122,0,,,,,,,122,,,1,472.0313910150835,X,l,go,l,1,,0.3319934968421876,,,,,,,,,,,,,,,,,1,001,2022-12-14_13h57.43.768,00_bat_bachelor,2022.2.4,59.825469248503715,
,,,,,,,,,,,,0,0,0,0,123,0,123,0,,,,,,,123,,,1,473.38218502681775,X,None,nogo,None,1,,,,,,,,,,,,,,,,,,,1,001,2022-12-14_13h57.43.768,00_bat_bachelor,2022.2.4,59.825469248503715,
,,,,,,,,,,,,0,0,0,0,124,0,124,0,,,,,,,124,,,1,475.183708032142,X,None,nogo,None,1,,,,,,,,,,,,,,,,,,,1,001,2022-12-14_13h57.43.768,00_bat_bachelor,2022.2.4,59.825469248503715,
,,,,,,,,,,,,0,0,0,0,125,0,125,0,,,,,,,125,,,1,476.9851088557043,Y,d,go,d,1,,0.41770448558963835,,,,,,,,,,,,,,,,,1,001,2022-12-14_13h57.43.768,00_bat_bachelor,2022.2.4,59.825469248503715,
,,,,,,,,,,,,0,0,0,0,126,0,126,0,,,,,,,126,,,1,478.4369132427091,X,l,go,l,1,,0.40646715770708397,,,,,,,,,,,,,,,,,1,001,2022-12-14_13h57.43.768,00_bat_bachelor,2022.2.4,59.825469248503715,
,,,,,,,,,,,,0,0,0,0,127,0,127,0,,,,,,,127,,,1,479.87132175935767,Y,d,go,d,1,,0.4114673977055645,,,,,,,,,,,,,,,,,1,001,2022-12-14_13h57.43.768,00_bat_bachelor,2022.2.4,59.825469248503715,
,,,,,,,,,,,,0,0,0,0,128,0,128,0,,,,,,,128,,,1,481.3055528215482,X,l,go,l,1,,0.35325506229128223,,,,,,,,,,,,,,,,,1,001,2022-12-14_13h57.43.768,00_bat_bachelor,2022.2.4,59.825469248503715,
,,,,,,,,,,,,0,0,0,0,129,0,129,0,,,,,,,129,,,1,482.6901999077818,X,None,nogo,None,1,483.4909762467978,,,,,,,,,,,,,,,,,,1,001,2022-12-14_13h57.43.768,00_bat_bachelor,2022.2.4,59.825469248503715,
,,,,,,,,,,,,0,0,0,0,130,0,130,0,,,,,,,130,,,1,484.4910824285653,Y,d,go,d,1,,0.5289407952950569,,,,,,,,,,,,,,,,,1,001,2022-12-14_13h57.43.768,00_bat_bachelor,2022.2.4,59.825469248503715,
,,,,,,,,,,,,0,0,0,0,131,0,131,0,,,,,,,131,,,1,486.04232628250975,X,l,go,l,1,,0.3201879268090124,,,,,,,,,,,,,,,,,1,001,2022-12-14_13h57.43.768,00_bat_bachelor,2022.2.4,59.825469248503715,
,,,,,,,,,,,,0,0,0,0,132,0,132,0,,,,,,,132,,,1,487.39342671833947,Y,d,go,d,1,,0.6819385392955155,,,,,,,,,,,,,,,,,1,001,2022-12-14_13h57.43.768,00_bat_bachelor,2022.2.4,59.825469248503715,
,,,,,,,,,,,,0,0,0,0,133,0,133,0,,,,,,,133,,,1,489.09469328742125,Y,None,nogo,l,0,,0.34166234064105083,,,,,,,,,,,,,,,,,1,001,2022-12-14_13h57.43.768,00_bat_bachelor,2022.2.4,59.825469248503715,
,,,,,,,,,,,,0,0,0,0,134,0,134,0,,,,,,,134,,,1,490.46254329088697,X,l,go,None,0,491.2628420543806,,,,,,,,,,,,,,,,,,1,001,2022-12-14_13h57.43.768,00_bat_bachelor,2022.2.4,59.825469248503715,
,,,,,,,,,,,,0,0,0,0,135,0,135,0,,,,,,,135,,,1,492.26340205410816,Y,d,go,d,1,,0.5320510968158487,,,,,,,,,,,,,,,,,1,001,2022-12-14_13h57.43.768,00_bat_bachelor,2022.2.4,59.825469248503715,
,,,,,,,,,,,,0,0,0,0,136,0,136,0,,,,,,,136,,,1,493.8147365746736,X,l,go,l,1,,0.46833233983124956,,,,,,,,,,,,,,,,,1,001,2022-12-14_13h57.43.768,00_bat_bachelor,2022.2.4,59.825469248503715,
,,,,,,,,,,,,0,0,0,0,137,0,137,0,,,,,,,137,,,1,495.3157428772138,Y,d,go,d,1,,0.4067958848172566,,,,,,,,,,,,,,,,,1,001,2022-12-14_13h57.43.768,00_bat_bachelor,2022.2.4,59.825469248503715,
,,,,,,,,,,,,0,0,0,0,138,0,138,0,,,,,,,138,,,1,496.75035115134597,Y,None,nogo,None,1,497.5509413086329,,,,,,,,,,,,,,,,,,1,001,2022-12-14_13h57.43.768,00_bat_bachelor,2022.2.4,59.825469248503715,
,,,,,,,,,,,,0,0,0,0,139,0,139,0,,,,,,,139,,,1,498.55155706591177,X,l,go,l,1,,0.32315083446519566,,,,,,,,,,,,,,,,,1,001,2022-12-14_13h57.43.768,00_bat_bachelor,2022.2.4,59.825469248503715,
,,,,,,,,,,,,0,0,0,0,140,0,140,0,,,,,,,140,,,1,499.9028145925731,Y,d,go,None,0,500.7033300832336,,,,,,,,,,,,,,,,,,1,001,2022-12-14_13h57.43.768,00_bat_bachelor,2022.2.4,59.825469248503715,
,,,,,,,,,,,,0,0,0,0,141,0,141,0,,,,,,,141,,,1,501.7041257192104,X,l,go,l,1,,0.37060341751930537,,,,,,,,,,,,,,,,,1,001,2022-12-14_13h57.43.768,00_bat_bachelor,2022.2.4,59.825469248503715,
,,,,,,,,,,,,0,0,0,0,142,0,142,0,,,,,,,142,,,1,503.1051989792977,X,None,nogo,None,1,503.905832772929,,,,,,,,,,,,,,,,,,1,001,2022-12-14_13h57.43.768,00_bat_bachelor,2022.2.4,59.825469248503715,
,,,,,,,,,,,,0,0,0,0,143,0,143,0,,,,,,,143,,,1,504.90634816661986,Y,d,go,None,0,505.7071526268337,,,,,,,,,,,,,,,,,,1,001,2022-12-14_13h57.43.768,00_bat_bachelor,2022.2.4,59.825469248503715,
,,,,,,,,,,,,0,0,0,0,144,0,144,0,,,,,,,144,,,1,506.70775529320963,X,l,go,l,1,,0.40740679361260845,,,,,,,,,,,,,,,,,1,001,2022-12-14_13h57.43.768,00_bat_bachelor,2022.2.4,59.825469248503715,
,,,,,,,,,,,,0,0,0,0,145,0,145,0,,,,,,,145,,,1,508.1423485370433,X,None,nogo,None,1,508.9427777247147,,,,,,,,,,,,,,,,,,1,001,2022-12-14_13h57.43.768,00_bat_bachelor,2022.2.4,59.825469248503715,
,,,,,,,,,,,,0,0,0,0,146,0,146,0,,,,,,,146,,,1,509.943880269635,X,None,nogo,l,0,,0.45108871182674193,,,,,,,,,,,,,,,,,1,001,2022-12-14_13h57.43.768,00_bat_bachelor,2022.2.4,59.825469248503715,
,,,,,,,,,,,,0,0,0,0,147,0,147,0,,,,,,,147,,,1,511.4282363984312,Y,d,go,d,1,,0.4072361270264082,,,,,,,,,,,,,,,,,1,001,2022-12-14_13h57.43.768,00_bat_bachelor,2022.2.4,59.825469248503715,
,,,,,,,,,,,,0,0,0,0,148,0,148,0,,,,,,,148,,,1,512.8626095211584,X,l,go,l,1,,0.41322545745788375,,,,,,,,,,,,,,,,,1,001,2022-12-14_13h57.43.768,00_bat_bachelor,2022.2.4,59.825469248503715,
,,,,,,,,,,,,0,0,0,0,149,0,149,0,,,,,,,149,,,1,514.2969850681293,Y,d,go,d,1,,0.3859978342989052,,,,,,,,,,,,,,,,,1,001,2022-12-14_13h57.43.768,00_bat_bachelor,2022.2.4,59.825469248503715,
,,,,,,,,,,,,0,0,0,0,150,0,150,0,,,,,,,150,,,1,515.7147652292042,X,l,go,l,1,,0.45615731543148286,,,,,,,,,,,,,,,,,1,001,2022-12-14_13h57.43.768,00_bat_bachelor,2022.2.4,59.825469248503715,
,,,,,,,,,,,,0,0,0,0,151,0,151,0,,,,,,,151,,,1,517.1992202670444,X,None,nogo,None,1,517.9996567274393,,,,,,,,,,,,,,,,,,1,001,2022-12-14_13h57.43.768,00_bat_bachelor,2022.2.4,59.825469248503715,
,,,,,,,,,,,,0,0,0,0,152,0,152,0,,,,,,,152,,,1,519.0006700602826,Y,d,go,d,1,,0.46615537118850625,,,,,,,,,,,,,,,,,1,001,2022-12-14_13h57.43.768,00_bat_bachelor,2022.2.4,59.825469248503715,
,,,,,,,,,,,,0,0,0,0,153,0,153,0,,,,,,,153,,,1,520.4851023102528,X,l,go,l,1,,0.3265137419257371,,,,,,,,,,,,,,,,,1,001,2022-12-14_13h57.43.768,00_bat_bachelor,2022.2.4,59.825469248503715,
,,,,,,,,,,,,0,0,0,0,154,0,154,0,,,,,,,154,,,1,521.83620904911,Y,d,go,d,1,,0.4632773119774356,,,,,,,,,,,,,,,,,1,001,2022-12-14_13h57.43.768,00_bat_bachelor,2022.2.4,59.825469248503715,
,,,,,,,,,,,,0,0,0,0,155,0,155,0,,,,,,,155,,,1,523.320606390007,X,l,go,l,1,,0.706344830490707,,,,,,,,,,,,,,,,,1,001,2022-12-14_13h57.43.768,00_bat_bachelor,2022.2.4,59.825469248503715,
,,,,,,,,,,,,0,0,0,0,156,0,156,0,,,,,,,156,,,1,525.0550225187762,X,None,nogo,d,0,,0.34886960987205384,,,,,,,,,,,,,,,,,1,001,2022-12-14_13h57.43.768,00_bat_bachelor,2022.2.4,59.825469248503715,
,,,,,,,,,,,,0,0,0,0,157,0,157,0,,,,,,,157,,,1,526.4229578555351,Y,d,go,d,1,,0.45244434753476526,,,,,,,,,,,,,,,,,1,001,2022-12-14_13h57.43.768,00_bat_bachelor,2022.2.4,59.825469248503715,
,,,,,,,,,,,,0,0,0,0,158,0,158,0,,,,,,,158,,,1,527.9074017418643,X,l,go,l,1,,0.36038718004419934,,,,,,,,,,,,,,,,,1,001,2022-12-14_13h57.43.768,00_bat_bachelor,2022.2.4,59.825469248503715,
,,,,,,,,,,,,0,0,0,0,159,0,159,0,,,,,,,159,,,1,529.2915979192258,Y,d,go,d,1,,0.38300098726540455,,,,,,,,,,,,,,,,,1,001,2022-12-14_13h57.43.768,00_bat_bachelor,2022.2.4,59.825469248503715,
,,,,,,,,,,,,0,0,0,0,160,0,160,0,,,,,,,160,,,1,530.6930304518646,X,l,go,l,1,,0.35837893859570613,,,,,,,,,,,,,,,,,1,001,2022-12-14_13h57.43.768,00_bat_bachelor,2022.2.4,59.825469248503715,
,,,,,,,,,,,,0,0,0,0,161,0,161,0,,,,,,,161,,,1,532.07723050801,Y,d,go,d,1,,0.41375636629527435,,,,,,,,,,,,,,,,,1,001,2022-12-14_13h57.43.768,00_bat_bachelor,2022.2.4,59.825469248503715,
,,,,,,,,,,,,0,0,0,0,162,0,162,0,,,,,,,162,,,1,533.5116084792207,X,l,go,l,1,,0.7241542764022597,,,,,,,,,,,,,,,,,1,001,2022-12-14_13h57.43.768,00_bat_bachelor,2022.2.4,59.825469248503715,
,,,,,,,,,,,,0,0,0,0,163,0,163,0,,,,,,,163,,,1,535.2631436299889,X,None,nogo,l,0,,0.5562615093185741,,,,,,,,,,,,,,,,,1,001,2022-12-14_13h57.43.768,00_bat_bachelor,2022.2.4,59.825469248503715,
,,,,,,,,,,,,0,0,0,0,164,0,164,0,,,,,,,164,,,1,536.8476248011502,X,None,nogo,l,0,,0.42768169287228375,,,,,,,,,,,,,,,,,1,001,2022-12-14_13h57.43.768,00_bat_bachelor,2022.2.4,59.825469248503715,
,,,,,,,,,,,,0,0,0,0,165,0,165,0,,,,,,,165,,,1,538.2986384006581,Y,d,go,d,1,,0.5935371276100341,,,,,,,,,,,,,,,,,1,001,2022-12-14_13h57.43.768,00_bat_bachelor,2022.2.4,59.825469248503715,
,,,,,,,,,,,,0,0,0,0,166,0,166,0,,,,,,,166,,,1,539.9163903435692,X,l,go,l,1,,0.3189607758904458,,,,,,,,,,,,,,,,,1,001,2022-12-14_13h57.43.768,00_bat_bachelor,2022.2.4,59.825469248503715,
,,,,,,,,,,,,0,0,0,0,167,0,167,0,,,,,,,167,,,1,541.2675916278349,Y,d,go,l,0,,0.4557122247388179,,,,,,,,,,,,,,,,,1,001,2022-12-14_13h57.43.768,00_bat_bachelor,2022.2.4,59.825469248503715,
,,,,,,,,,,,,0,0,0,0,168,0,168,0,,,,,,,168,,,1,542.7520563626385,Y,None,nogo,d,0,,0.5074566844959918,,,,,,,,,,,,,,,,,1,001,2022-12-14_13h57.43.768,00_bat_bachelor,2022.2.4,59.825469248503715,
,,,,,,,,,,,,0,0,0,0,169,0,169,0,,,,,,,169,,,1,544.286352346011,X,l,go,l,1,,0.5087749868907849,,,,,,,,,,,,,,,,,1,001,2022-12-14_13h57.43.768,00_bat_bachelor,2022.2.4,59.825469248503715,
,,,,,,,,,,,,0,0,0,0,170,0,170,0,,,,,,,170,,,1,545.8208306323249,Y,d,go,d,1,,0.414990789937292,,,,,,,,,,,,,,,,,1,001,2022-12-14_13h57.43.768,00_bat_bachelor,2022.2.4,59.825469248503715,
,,,,,,,,,,,,0,0,0,0,171,0,171,0,,,,,,,171,,,1,547.2555067852081,X,l,go,l,1,,0.3400996747332101,,,,,,,,,,,,,,,,,1,001,2022-12-14_13h57.43.768,00_bat_bachelor,2022.2.4,59.825469248503715,
,,,,,,,,,,,,0,0,0,0,172,0,172,0,,,,,,,172,,,1,548.6231764251279,Y,d,go,d,1,,0.4433078671172552,,,,,,,,,,,,,,,,,1,001,2022-12-14_13h57.43.768,00_bat_bachelor,2022.2.4,59.825469248503715,
,,,,,,,,,,,,0,0,0,0,173,0,173,0,,,,,,,173,,,1,550.0908518347387,X,l,go,l,1,,0.32003422991692787,,,,,,,,,,,,,,,,,1,001,2022-12-14_13h57.43.768,00_bat_bachelor,2022.2.4,59.825469248503715,
,,,,,,,,,,,,0,0,0,0,174,0,174,0,,,,,,,174,,,1,551.441844634257,X,None,nogo,d,0,,0.5376889122635475,,,,,,,,,,,,,,,,,1,001,2022-12-14_13h57.43.768,00_bat_bachelor,2022.2.4,59.825469248503715,
,,,,,,,,,,,,0,0,0,0,175,0,175,0,,,,,,,175,,,1,553.00973187407,Y,d,go,d,1,,0.5695114422887855,,,,,,,,,,,,,,,,,1,001,2022-12-14_13h57.43.768,00_bat_bachelor,2022.2.4,59.825469248503715,
,,,,,,,,,,,,0,0,0,0,176,0,176,0,,,,,,,176,,,1,554.6105941281967,X,l,go,l,1,,0.37707080832115025,,,,,,,,,,,,,,,,,1,001,2022-12-14_13h57.43.768,00_bat_bachelor,2022.2.4,59.825469248503715,
,,,,,,,,,,,,0,0,0,0,177,0,177,0,,,,,,,177,,,1,556.0116872670587,Y,d,go,d,1,,0.4480695617785386,,,,,,,,,,,,,,,,,1,001,2022-12-14_13h57.43.768,00_bat_bachelor,2022.2.4,59.825469248503715,
,,,,,,,,,,,,0,0,0,0,178,0,178,0,,,,,,,178,,,1,557.4798771006645,X,l,go,l,1,,0.5957189447326527,,,,,,,,,,,,,,,,,1,001,2022-12-14_13h57.43.768,00_bat_bachelor,2022.2.4,59.825469248503715,
,,,,,,,,,,,,0,0,0,0,179,0,179,0,,,,,,,179,,,1,559.097939346455,X,None,nogo,l,0,,0.5453611509692564,,,,,,,,,,,,,,,,,1,001,2022-12-14_13h57.43.768,00_bat_bachelor,2022.2.4,59.825469248503715,
,,,,,,,,,,,,0,0,0,0,180,0,180,0,,,,,,,180,,,1,560.6655371318593,Y,d,go,d,1,,0.7528834745935455,,,,,,,,,,,,,,,,,1,001,2022-12-14_13h57.43.768,00_bat_bachelor,2022.2.4,59.825469248503715,
,,,,,,,,,,,,0,0,0,0,181,0,181,0,,,,,,,181,,,1,562.4501505696244,X,l,go,l,1,,0.5685058670169383,,,,,,,,,,,,,,,,,1,001,2022-12-14_13h57.43.768,00_bat_bachelor,2022.2.4,59.825469248503715,
,,,,,,,,,,,,0,0,0,0,182,0,182,0,,,,,,,182,,,1,564.0516862779696,Y,d,go,d,1,,0.3924540735897608,,,,,,,,,,,,,,,,,1,001,2022-12-14_13h57.43.768,00_bat_bachelor,2022.2.4,59.825469248503715,
,,,,,,,,,,,,0,0,0,0,183,0,183,0,,,,,,,183,,,1,565.4691677725241,Y,None,nogo,None,1,566.2694995056954,,,,,,,,,,,,,,,,,,1,001,2022-12-14_13h57.43.768,00_bat_bachelor,2022.2.4,59.825469248503715,
,,,,,,,,,,,,0,0,0,0,184,0,184,0,,,,,,,184,,,1,567.2704822931009,X,l,go,l,1,,0.3247207730964874,,,,,,,,,,,,,,,,,1,001,2022-12-14_13h57.43.768,00_bat_bachelor,2022.2.4,59.825469248503715,
,,,,,,,,,,,,0,0,0,0,185,0,185,0,,,,,,,185,,,1,568.6216986076615,Y,d,go,d,1,,0.49393814559516613,,,,,,,,,,,,,,,,,1,001,2022-12-14_13h57.43.768,00_bat_bachelor,2022.2.4,59.825469248503715,
,,,,,,,,,,,,0,0,0,0,186,0,186,0,,,,,,,186,,,1,570.1391189628521,X,l,go,l,1,,0.7518328084370296,,,,,,,,,,,,,,,,,1,001,2022-12-14_13h57.43.768,00_bat_bachelor,2022.2.4,59.825469248503715,
,,,,,,,,,,,,0,0,0,0,187,0,187,0,,,,,,,187,,,1,571.9240659762108,Y,d,go,d,1,,0.43933453570571146,,,,,,,,,,,,,,,,,1,001,2022-12-14_13h57.43.768,00_bat_bachelor,2022.2.4,59.825469248503715,
,,,,,,,,,,,,0,0,0,0,188,0,188,0,,,,,,,188,,,1,573.3916153252758,Y,None,nogo,l,0,,0.34921676122030476,,,,,,,,,,,,,,,,,1,001,2022-12-14_13h57.43.768,00_bat_bachelor,2022.2.4,59.825469248503715,
,,,,,,,,,,,,0,0,0,0,189,0,189,0,,,,,,,189,,,1,574.759493934791,X,l,go,l,1,,0.6917610799901013,,,,,,,,,,,,,,,,,1,001,2022-12-14_13h57.43.768,00_bat_bachelor,2022.2.4,59.825469248503715,
,,,,,,,,,,,,0,0,0,0,190,0,190,0,,,,,,,190,,,1,576.477565344212,Y,d,go,d,1,,0.49377717597963056,,,,,,,,,,,,,,,,,1,001,2022-12-14_13h57.43.768,00_bat_bachelor,2022.2.4,59.825469248503715,
,,,,,,,,,,,,0,0,0,0,191,0,191,0,,,,,,,191,,,1,577.995160729617,X,l,go,l,1,,0.5930736126829288,,,,,,,,,,,,,,,,,1,001,2022-12-14_13h57.43.768,00_bat_bachelor,2022.2.4,59.825469248503715,
,,,,,,,,,,,,0,0,0,0,192,0,192,0,,,,,,,192,,,1,579.6130081876327,X,None,nogo,None,1,,,,,,,,,,,,,,,,,,,1,001,2022-12-14_13h57.43.768,00_bat_bachelor,2022.2.4,59.825469248503715,
,,,,,,,,,,,,0,0,0,0,193,0,193,0,,,,,,,193,,,1,581.4146703444021,Y,d,go,d,1,,0.35671057576837484,,,,,,,,,,,,,,,,,1,001,2022-12-14_13h57.43.768,00_bat_bachelor,2022.2.4,59.825469248503715,
,,,,,,,,,,,,0,0,0,0,194,0,194,0,,,,,,,194,,,1,582.7990008247252,X,l,go,l,1,,0.4121806094808562,,,,,,,,,,,,,,,,,1,001,2022-12-14_13h57.43.768,00_bat_bachelor,2022.2.4,59.825469248503715,
,,,,,,,,,,,,0,0,0,0,195,0,195,0,,,,,,,195,,,1,584.2334874019434,X,None,nogo,l,0,,0.7381469968931924,,,,,,,,,,,,,,,,,1,001,2022-12-14_13h57.43.768,00_bat_bachelor,2022.2.4,59.825469248503715,
,,,,,,,,,,,,0,0,0,0,196,0,196,0,,,,,,,196,,,1,586.0015980598291,Y,d,go,d,1,,0.44221598885633284,,,,,,,,,,,,,,,,,1,001,2022-12-14_13h57.43.768,00_bat_bachelor,2022.2.4,59.825469248503715,
,,,,,,,,,,,,0,0,0,0,197,0,197,0,,,,,,,197,,,1,587.4690412271302,X,l,go,l,1,,0.4141568509476201,,,,,,,,,,,,,,,,,1,001,2022-12-14_13h57.43.768,00_bat_bachelor,2022.2.4,59.825469248503715,
,,,,,,,,,,,,0,0,0,0,198,0,198,0,,,,,,,198,,,1,588.903429380156,X,None,nogo,None,1,,,,,,,,,,,,,,,,,,,1,001,2022-12-14_13h57.43.768,00_bat_bachelor,2022.2.4,59.825469248503715,
,,,,,,,,,,,,0,0,0,0,199,0,199,0,,,,,,,199,,,1,590.7048874158136,Y,d,go,d,1,,0.49039438974068617,,,,,,,,,,,,,,,,,1,001,2022-12-14_13h57.43.768,00_bat_bachelor,2022.2.4,59.825469248503715,
,,,,,,,,,,,,0,0,0,0,200,0,200,0,,,,,,,200,,,1,592.2230151645999,X,l,go,None,0,,,,,,,,,,,,,,,,,,,1,001,2022-12-14_13h57.43.768,00_bat_bachelor,2022.2.4,59.825469248503715,
,,,,,,,,,,,,0,0,0,0,201,0,201,0,,,,,,,201,,,1,594.023978655041,Y,d,go,d,1,,0.38705771256718435,,,,,,,,,,,,,,,,,1,001,2022-12-14_13h57.43.768,00_bat_bachelor,2022.2.4,59.825469248503715,
,,,,,,,,,,,,0,0,0,0,202,0,202,0,,,,,,,202,,,1,595.4417355434016,Y,None,nogo,d,0,,0.6824568420706782,,,,,,,,,,,,,,,,,1,001,2022-12-14_13h57.43.768,00_bat_bachelor,2022.2.4,59.825469248503715,
,,,,,,,,,,,,0,0,0,0,203,0,203,0,,,,,,,203,,,1,597.1432377487326,X,l,go,l,1,,0.6128593000612454,,,,,,,,,,,,,,,,,1,001,2022-12-14_13h57.43.768,00_bat_bachelor,2022.2.4,59.825469248503715,
,,,,,,,,,,,,0,0,0,0,204,0,204,0,,,,,,,204,,,1,598.7779070167708,Y,d,go,d,1,,0.6247448700523819,,,,,,,,,,,,,,,,,1,001,2022-12-14_13h57.43.768,00_bat_bachelor,2022.2.4,59.825469248503715,
,,,,,,,,,,,,0,0,0,0,205,0,205,0,,,,,,,205,,,1,600.4292429433954,X,l,go,None,0,,,,,,,,,,,,,,,,,,,1,001,2022-12-14_13h57.43.768,00_bat_bachelor,2022.2.4,59.825469248503715,
,,,,,,,,,,,,0,0,0,0,206,0,206,0,,,,,,,206,,,1,602.230597706377,Y,d,go,d,1,,0.5809669518857845,,,,,,,,,,,,,,,,,1,001,2022-12-14_13h57.43.768,00_bat_bachelor,2022.2.4,59.825469248503715,
,,,,,,,,,,,,0,0,0,0,207,0,207,0,,,,,,,207,,,1,603.8316451725368,Y,None,nogo,None,1,604.6320588450617,,,,,,,,,,,,,,,,,,1,001,2022-12-14_13h57.43.768,00_bat_bachelor,2022.2.4,59.825469248503715,
,,,,,,,,,,,,0,0,0,0,208,0,208,0,,,,,,,208,,,1,605.6332113293502,X,l,go,l,1,,0.37817238354546134,,,,,,,,,,,,,,,,,1,001,2022-12-14_13h57.43.768,00_bat_bachelor,2022.2.4,59.825469248503715,
,,,,,,,,,,,,0,0,0,0,209,0,209,0,,,,,,,209,,,1,607.0340222865343,Y,d,go,d,1,,0.4812971820283565,,,,,,,,,,,,,,,,,1,001,2022-12-14_13h57.43.768,00_bat_bachelor,2022.2.4,59.825469248503715,
,,,,,,,,,,,,0,0,0,0,210,0,210,0,,,,,,,210,,,1,608.535346164681,X,l,go,l,1,,0.48350275671691634,,,,,,,,,,,,,,,,,1,001,2022-12-14_13h57.43.768,00_bat_bachelor,2022.2.4,59.825469248503715,
,,,,,,,,,,,,0,0,0,0,211,0,211,0,,,,,,,211,,,1,610.0365279822909,Y,d,go,d,1,,0.662941700022202,,,,,,,,,,,,,,,,,1,001,2022-12-14_13h57.43.768,00_bat_bachelor,2022.2.4,59.825469248503715,
,,,,,,,,,,,,0,0,0,0,212,0,212,0,,,,,,,212,,,1,611.7210420746451,X,l,go,l,1,,0.43434884115777095,,,,,,,,,,,,,,,,,1,001,2022-12-14_13h57.43.768,00_bat_bachelor,2022.2.4,59.825469248503715,
,,,,,,,,,,,,0,0,0,0,213,0,213,0,,,,,,,213,,,1,613.1888513023732,X,None,nogo,None,1,613.98931006579,,,,,,,,,,,,,,,,,,1,001,2022-12-14_13h57.43.768,00_bat_bachelor,2022.2.4,59.825469248503715,
,,,,,,,,,,,,0,0,0,0,214,0,214,0,,,,,,,214,,,1,614.9901570956827,Y,d,go,d,1,,0.47708239619532833,,,,,,,,,,,,,,,,,1,001,2022-12-14_13h57.43.768,00_bat_bachelor,2022.2.4,59.825469248503715,
,,,,,,,,,,,,0,0,0,0,215,0,215,0,,,,,,,215,,,1,616.4913990344721,X,l,go,l,1,,0.4807046974710829,,,,,,,,,,,,,,,,,1,001,2022-12-14_13h57.43.768,00_bat_bachelor,2022.2.4,59.825469248503715,
,,,,,,,,,,,,0,0,0,0,216,0,216,0,,,,,,,216,,,1,617.9927035186884,X,None,nogo,None,1,618.7935244637447,,,,,,,,,,,,,,,,,,1,001,2022-12-14_13h57.43.768,00_bat_bachelor,2022.2.4,59.825469248503715,
,,,,,,,,,,,,0,0,0,0,217,0,217,0,,,,,,,217,,,1,619.7941004634667,Y,d,go,None,0,620.594935469122,,,,,,,,,,,,,,,,,,1,001,2022-12-14_13h57.43.768,00_bat_bachelor,2022.2.4,59.825469248503715,
,,,,,,,,,,,,0,0,0,0,218,0,218,0,,,,,,,218,,,1,621.5955289233789,X,l,go,l,1,,0.5117020157704246,,,,,,,,,,,,,,,,,1,001,2022-12-14_13h57.43.768,00_bat_bachelor,2022.2.4,59.825469248503715,
,,,,,,,,,,,,0,0,0,0,219,0,219,0,,,,,,,219,,,1,623.1297866037385,Y,d,go,d,1,,0.3532225774579274,,,,,,,,,,,,,,,,,1,001,2022-12-14_13h57.43.768,00_bat_bachelor,2022.2.4,59.825469248503715,
,,,,,,,,,,,,0,0,0,0,220,0,220,0,,,,,,,220,,,1,624.5142639930855,Y,None,nogo,d,0,,0.6489630401338218,,,,,,,,,,,,,,,,,1,001,2022-12-14_13h57.43.768,00_bat_bachelor,2022.2.4,59.825469248503715,
,,,,,,,,,,,,0,0,0,0,221,0,221,0,,,,,,,221,,,1,626.1821017298898,X,l,go,l,1,,0.5818789514451055,,,,,,,,,,,,,,,,,1,001,2022-12-14_13h57.43.768,00_bat_bachelor,2022.2.4,59.825469248503715,
,,,,,,,,,,,,0,0,0,0,222,0,222,0,,,,,,,222,,,1,627.7831841051229,Y,d,go,d,1,,0.37212487132273964,,,,,,,,,,,,,,,,,1,001,2022-12-14_13h57.43.768,00_bat_bachelor,2022.2.4,59.825469248503715,
,,,,,,,,,,,,0,0,0,0,223,0,223,0,,,,,,,223,,,1,629.1845618499101,X,l,go,l,1,,0.4908768137502193,,,,,,,,,,,,,,,,,1,001,2022-12-14_13h57.43.768,00_bat_bachelor,2022.2.4,59.825469248503715,
,,,,,,,,,,,,0,0,0,0,224,0,224,0,,,,,,,224,,,1,630.7023773564215,X,None,nogo,None,1,,,,,,,,,,,,,,,,,,,1,001,2022-12-14_13h57.43.768,00_bat_bachelor,2022.2.4,59.825469248503715,
,,,,,,,,,,,,0,0,0,0,225,0,225,0,,,,,,,225,,,1,632.5037655739325,Y,d,go,d,1,,0.3711692354263505,,,,,,,,,,,,,,,,,1,001,2022-12-14_13h57.43.768,00_bat_bachelor,2022.2.4,59.825469248503715,
,,,,,,,,,,,,0,0,0,0,226,0,226,0,,,,,,,226,,,1,633.9048165309978,X,l,go,l,1,,0.4902237231544859,,,,,,,,,,,,,,,,,1,001,2022-12-14_13h57.43.768,00_bat_bachelor,2022.2.4,59.825469248503715,
,,,,,,,,,,,,0,0,0,0,227,0,227,0,,,,,,,227,,,1,635.4224507042672,Y,d,go,None,0,636.223268740232,,,,,,,,,,,,,,,,,,1,001,2022-12-14_13h57.43.768,00_bat_bachelor,2022.2.4,59.825469248503715,
,,,,,,,,,,,,0,0,0,0,228,0,228,0,,,,,,,228,,,1,637.2240498307619,X,l,go,l,1,,0.33943009929862455,,,,,,,,,,,,,,,,,1,001,2022-12-14_13h57.43.768,00_bat_bachelor,2022.2.4,59.825469248503715,
,,,,,,,,,,,,0,0,0,0,229,0,229,0,,,,,,,229,,,1,638.5916826222128,X,None,nogo,d,0,,0.34810403448864236,,,,,,,,,,,,,,,,,1,001,2022-12-14_13h57.43.768,00_bat_bachelor,2022.2.4,59.825469248503715,
,,,,,,,,,,,,0,0,0,0,230,0,230,0,,,,,,,230,,,1,639.9592402621856,Y,d,go,d,1,,0.49969717310887063,,,,,,,,,,,,,,,,,1,001,2022-12-14_13h57.43.768,00_bat_bachelor,2022.2.4,59.825469248503715,
,,,,,,,,,,,,0,0,0,0,231,0,231,0,,,,,,,231,,,1,641.4770421929497,X,l,go,l,1,,0.5174712250991433,,,,,,,,,,,,,,,,,1,001,2022-12-14_13h57.43.768,00_bat_bachelor,2022.2.4,59.825469248503715,
,,,,,,,,,,,,0,0,0,0,232,0,232,0,,,,,,,232,,,1,643.011757570057,X,None,nogo,l,0,,0.5187749820397585,,,,,,,,,,,,,,,,,1,001,2022-12-14_13h57.43.768,00_bat_bachelor,2022.2.4,59.825469248503715,
,,,,,,,,,,,,0,0,0,0,233,0,233,0,,,,,,,233,,,1,644.5629209391882,Y,d,go,d,1,,0.5678076855401741,,,,,,,,,,,,,,,,,1,001,2022-12-14_13h57.43.768,00_bat_bachelor,2022.2.4,59.825469248503715,
,,,,,,,,,,,,0,0,0,0,234,0,234,0,,,,,,,234,,,1,646.1640968901338,X,l,go,l,1,,0.5184540124973864,,,,,,,,,,,,,,,,,1,001,2022-12-14_13h57.43.768,00_bat_bachelor,2022.2.4,59.825469248503715,
,,,,,,,,,,,,0,0,0,0,235,0,235,0,,,,,,,235,,,1,647.7153077743969,X,None,nogo,None,1,648.5160467800997,,,,,,,,,,,,,,,,,,1,001,2022-12-14_13h57.43.768,00_bat_bachelor,2022.2.4,59.825469248503715,
,,,,,,,,,,,,0,0,0,0,236,0,236,0,,,,,,,236,,,1,649.5166959919043,Y,d,go,d,1,,0.4304206006345339,,,,,,,,,,,,,,,,,1,001,2022-12-14_13h57.43.768,00_bat_bachelor,2022.2.4,59.825469248503715,
,,,,,,,,,,,,0,0,0,0,237,0,237,0,,,,,,,237,,,1,650.9677910459177,X,l,go,l,1,,0.6431521338563471,,,,,,,,,,,,,,,,,1,001,2022-12-14_13h57.43.768,00_bat_bachelor,2022.2.4,59.825469248503715,
,,,,,,,,,,,,0,0,0,0,238,0,238,0,,,,,,,238,,,1,652.6358712068504,Y,d,go,d,1,,0.5266081903646409,,,,,,,,,,,,,,,,,1,001,2022-12-14_13h57.43.768,00_bat_bachelor,2022.2.4,59.825469248503715,
,,,,,,,,,,,,0,0,0,0,239,0,239,0,,,,,,,239,,,1,654.1869196669468,X,l,go,l,1,,0.4159187894874776,,,,,,,,,,,,,,,,,1,001,2022-12-14_13h57.43.768,00_bat_bachelor,2022.2.4,59.825469248503715,
,,,,,,,,,,,,0,0,0,0,240,0,240,0,,,,,,,240,,,1,655.6209180019796,Y,d,go,d,1,,0.45369186207972234,,,,,,,,,,,,,,,,,1,001,2022-12-14_13h57.43.768,00_bat_bachelor,2022.2.4,59.825469248503715,
,,,,,,,,,,,,0,0,0,0,241,0,241,0,,,,,,,241,,,1,657.1056678275563,Y,None,nogo,None,1,,,,,,,,,,,,,,,,,,,1,001,2022-12-14_13h57.43.768,00_bat_bachelor,2022.2.4,59.825469248503715,
,,,,,,,,,,,,0,0,0,0,242,0,242,0,,,,,,,242,,,1,658.9068150754829,X,l,go,l,1,,0.3837398959949496,,,,,,,,,,,,,,,,,1,001,2022-12-14_13h57.43.768,00_bat_bachelor,2022.2.4,59.825469248503715,
,,,,,,,,,,,,0,0,0,0,243,0,243,0,,,,,,,243,,,1,660.3080202142919,Y,d,go,None,0,,,,,,,,,,,,,,,,,,,1,001,2022-12-14_13h57.43.768,00_bat_bachelor,2022.2.4,59.825469248503715,
,,,,,,,,,,,,0,0,0,0,244,0,244,0,,,,,,,244,,,1,662.1092406743082,X,l,go,l,1,,0.5741305915653356,,,,,,,,,,,,,,,,,1,001,2022-12-14_13h57.43.768,00_bat_bachelor,2022.2.4,59.825469248503715,
,,,,,,,,,,,,0,0,0,0,245,0,245,0,,,,,,,245,,,1,663.7104743221935,X,None,nogo,None,1,,,,,,,,,,,,,,,,,,,1,001,2022-12-14_13h57.43.768,00_bat_bachelor,2022.2.4,59.825469248503715,
,,,,,,,,,,,,0,0,0,0,246,0,246,0,,,,,,,246,,,1,665.5120564790013,Y,d,go,d,1,,0.4187110305574606,,,,,,,,,,,,,,,,,1,001,2022-12-14_13h57.43.768,00_bat_bachelor,2022.2.4,59.825469248503715,
,,,,,,,,,,,,0,0,0,0,247,0,247,0,,,,,,,247,,,1,666.9631825633041,X,l,go,l,1,,0.3606000284271431,,,,,,,,,,,,,,,,,1,001,2022-12-14_13h57.43.768,00_bat_bachelor,2022.2.4,59.825469248503715,
,,,,,,,,,,,,0,0,0,0,248,0,248,0,,,,,,,248,,,1,668.3472744982901,Y,d,go,d,1,,0.3997883730662579,,,,,,,,,,,,,,,,,1,001,2022-12-14_13h57.43.768,00_bat_bachelor,2022.2.4,59.825469248503715,
,,,,,,,,,,,,0,0,0,0,249,0,249,0,,,,,,,249,,,1,669.7652815683468,X,l,go,l,1,,0.5498876942292554,,,,,,,,,,,,,,,,,1,001,2022-12-14_13h57.43.768,00_bat_bachelor,2022.2.4,59.825469248503715,
,,,,,,,,,,,,1,0,1,0,0,0,0,0,,,,,,,0,,,0.2,675.9870681274806,X,l,go,None,0,676.7877450726082,,,,,,,,,670.3376425029601,space,5.416680486086989,,,,,,,1,001,2022-12-14_13h57.43.768,00_bat_bachelor,2022.2.4,59.825469248503715,
,,,,,,,,,,,,1,0,1,0,1,0,1,0,,,,,,,1,,,0.2,676.9875127333253,Y,d,go,None,0,,,,,,,,,,,,,,,,,,,1,001,2022-12-14_13h57.43.768,00_bat_bachelor,2022.2.4,59.825469248503715,
,,,,,,,,,,,,1,0,1,0,2,0,2,0,,,,,,,2,,,0.2,677.9882215814687,X,l,go,None,0,,,,,,,,,,,,,,,,,,,1,001,2022-12-14_13h57.43.768,00_bat_bachelor,2022.2.4,59.825469248503715,
,,,,,,,,,,,,1,0,1,0,3,0,3,0,,,,,,,3,,,0.2,678.9890608537899,Y,d,go,d,1,,0.5414140013672295,,,,,,,,,,,,,,,,,1,001,2022-12-14_13h57.43.768,00_bat_bachelor,2022.2.4,59.825469248503715,
,,,,,,,,,,,,1,0,1,0,4,0,4,0,,,,,,,4,,,0.2,679.7563841181181,X,l,go,None,0,680.5568574269782,,,,,,,,,,,,,,,,,,1,001,2022-12-14_13h57.43.768,00_bat_bachelor,2022.2.4,59.825469248503715,
,,,,,,,,,,,,1,0,1,0,5,0,5,0,,,,,,,5,,,0.2,680.7571138147323,Y,d,go,None,0,,,,,,,,,,,,,,,,,,,1,001,2022-12-14_13h57.43.768,00_bat_bachelor,2022.2.4,59.825469248503715,
,,,,,,,,,,,,1,0,1,0,6,0,6,0,,,,,,,6,,,0.2,681.7574871478864,X,l,go,None,0,,,,,,,,,,,,,,,,,,,1,001,2022-12-14_13h57.43.768,00_bat_bachelor,2022.2.4,59.825469248503715,
,,,,,,,,,,,,1,0,1,0,7,0,7,0,,,,,,,7,,,0.2,682.7582551475134,X,None,nogo,None,1,,,,,,,,,,,,,,,,,,,1,001,2022-12-14_13h57.43.768,00_bat_bachelor,2022.2.4,59.825469248503715,
,,,,,,,,,,,,1,0,1,0,8,0,8,0,,,,,,,8,,,0.2,683.7591259349683,Y,d,go,d,1,,0.2675751038332237,,,,,,,,,,,,,,,,,1,001,2022-12-14_13h57.43.768,00_bat_bachelor,2022.2.4,59.825469248503715,
,,,,,,,,,,,,1,0,1,0,9,0,9,0,,,,,,,9,,,0.2,684.2596362377517,X,l,go,l,1,,0.45560555812335224,,,,,,,,,,,,,,,,,1,001,2022-12-14_13h57.43.768,00_bat_bachelor,2022.2.4,59.825469248503715,
,,,,,,,,,,,,1,0,1,0,10,0,10,0,,,,,,,10,,,0.2,684.9436039061293,Y,d,go,d,1,,0.37968753432505764,,,,,,,,,,,,,,,,,1,001,2022-12-14_13h57.43.768,00_bat_bachelor,2022.2.4,59.825469248503715,
,,,,,,,,,,,,1,0,1,0,11,0,11,0,,,,,,,11,,,0.2,685.543709796988,Y,None,nogo,l,0,,0.33925603877651156,,,,,,,,,,,,,,,,,1,001,2022-12-14_13h57.43.768,00_bat_bachelor,2022.2.4,59.825469248503715,
,,,,,,,,,,,,1,0,1,0,12,0,12,0,,,,,,,12,,,0.2,686.1111892794215,X,l,go,None,0,,,,,,,,,,,,,,,,,,,1,001,2022-12-14_13h57.43.768,00_bat_bachelor,2022.2.4,59.825469248503715,
,,,,,,,,,,,,1,0,1,0,13,0,13,0,,,,,,,13,,,0.2,687.1118894002975,Y,d,go,d,1,,0.46730737063262495,,,,,,,,,,,,,,,,,1,001,2022-12-14_13h57.43.768,00_bat_bachelor,2022.2.4,59.825469248503715,
,,,,,,,,,,,,1,0,1,0,14,0,14,0,,,,,,,14,,,0.2,687.8123947576278,X,l,go,l,1,,0.45452919500894495,,,,,,,,,,,,,,,,,1,001,2022-12-14_13h57.43.768,00_bat_bachelor,2022.2.4,59.825469248503715,
,,,,,,,,,,,,1,0,1,0,15,0,15,0,,,,,,,15,,,0.2,688.4963488502544,X,None,nogo,l,0,,0.04357618213543901,,,,,,,,,,,,,,,,,1,001,2022-12-14_13h57.43.768,00_bat_bachelor,2022.2.4,59.825469248503715,
,,,,,,,,,,,,1,0,1,0,16,0,16,0,,,,,,,16,,,0.2,688.7631957511767,Y,d,go,d,1,,0.57600840883606,,,,,,,,,,,,,,,,,1,001,2022-12-14_13h57.43.768,00_bat_bachelor,2022.2.4,59.825469248503715,
,,,,,,,,,,,,1,0,1,0,17,0,17,0,,,,,,,17,,,0.2,689.5637665145368,X,l,go,l,1,,0.4632870089444623,,,,,,,,,,,,,,,,,1,001,2022-12-14_13h57.43.768,00_bat_bachelor,2022.2.4,59.825469248503715,
,,,,,,,,,,,,1,0,1,0,18,0,18,0,,,,,,,18,,,0.2,690.2476318799345,Y,d,go,d,1,,0.4507153786762501,,,,,,,,,,,,,,,,,1,001,2022-12-14_13h57.43.768,00_bat_bachelor,2022.2.4,59.825469248503715,
,,,,,,,,,,,,1,0,1,0,19,0,19,0,,,,,,,19,,,0.2,690.9314070635592,X,l,go,l,1,,0.4082276416993409,,,,,,,,,,,,,,,,,1,001,2022-12-14_13h57.43.768,00_bat_bachelor,2022.2.4,59.825469248503715,
,,,,,,,,,,,,1,0,1,0,20,0,20,0,,,,,,,20,,,0.2,691.5652933016754,X,None,nogo,d,0,,0.3820909270980337,,,,,,,,,,,,,,,,,1,001,2022-12-14_13h57.43.768,00_bat_bachelor,2022.2.4,59.825469248503715,
,,,,,,,,,,,,1,0,1,0,21,0,21,0,,,,,,,21,,,0.2,692.1653890107191,Y,d,go,l,0,,0.5491977551682794,,,,,,,,,,,,,,,,,1,001,2022-12-14_13h57.43.768,00_bat_bachelor,2022.2.4,59.825469248503715,
,,,,,,,,,,,,1,0,1,0,22,0,22,0,,,,,,,22,,,0.2,692.9328388204412,X,l,go,None,0,,,,,,,,,,,,,,,,,,,1,001,2022-12-14_13h57.43.768,00_bat_bachelor,2022.2.4,59.825469248503715,
,,,,,,,,,,,,1,0,1,0,23,0,23,0,,,,,,,23,,,0.2,693.9334376080296,X,None,nogo,None,1,,,,,,,,,,,,,,,,,,,1,001,2022-12-14_13h57.43.768,00_bat_bachelor,2022.2.4,59.825469248503715,
,,,,,,,,,,,,1,0,1,0,24,0,24,0,,,,,,,24,,,0.2,694.9345353044664,Y,d,go,None,0,,,,,,,,,,,,,,,,,,,1,001,2022-12-14_13h57.43.768,00_bat_bachelor,2022.2.4,59.825469248503715,
,,,,,,,,,,,,1,0,1,0,25,0,25,0,,,,,,,25,,,0.2,695.9352402738223,X,l,go,None,0,,,,,,,,,,,,,,,,,,,1,001,2022-12-14_13h57.43.768,00_bat_bachelor,2022.2.4,59.825469248503715,
,,,,,,,,,,,,1,0,1,0,26,0,26,0,,,,,,,26,,,0.2,696.9359675461965,Y,d,go,l,0,,0.17897635891131358,,,,,,,,,,,,,,,,,1,001,2022-12-14_13h57.43.768,00_bat_bachelor,2022.2.4,59.825469248503715,
,,,,,,,,,,,,1,0,1,0,27,0,27,0,,,,,,,27,,,0.2,697.3363634732777,X,l,go,None,0,698.1368993275646,,,,,,,,,,,,,,,,,,1,001,2022-12-14_13h57.43.768,00_bat_bachelor,2022.2.4,59.825469248503715,
,,,,,,,,,,,,1,0,1,0,28,0,28,0,,,,,,,28,,,0.2,698.3368037154905,X,None,nogo,l,0,,0.4593582835768757,,,,,,,,,,,,,,,,,1,001,2022-12-14_13h57.43.768,00_bat_bachelor,2022.2.4,59.825469248503715,
,,,,,,,,,,,,1,0,1,0,29,0,29,0,,,,,,,29,,,0.2,699.020697202086,Y,d,go,d,1,,0.7181465217399818,,,,,,,,,,,,,,,,,1,001,2022-12-14_13h57.43.768,00_bat_bachelor,2022.2.4,59.825469248503715,
,,,,,,,,,,,,1,0,1,0,30,0,30,0,,,,,,,30,,,0.2,699.9716451046552,X,l,go,l,1,,0.5676724128788919,,,,,,,,,,,,,,,,,1,001,2022-12-14_13h57.43.768,00_bat_bachelor,2022.2.4,59.825469248503715,
,,,,,,,,,,,,1,0,1,0,31,0,31,0,,,,,,,31,,,0.2,700.7722425346692,X,None,nogo,None,1,,,,,,,,,,,,,,,,,,,1,001,2022-12-14_13h57.43.768,00_bat_bachelor,2022.2.4,59.825469248503715,
,,,,,,,,,,,,1,0,1,0,32,0,32,0,,,,,,,32,,,0.2,701.773062897908,Y,d,go,d,1,,0.6701431510737166,,,,,,,,,,,,,,,,,1,001,2022-12-14_13h57.43.768,00_bat_bachelor,2022.2.4,59.825469248503715,
,,,,,,,,,,,,1,0,1,0,33,0,33,0,,,,,,,33,,,0.2,702.6736636733731,X,l,go,l,1,,0.5055177763460961,,,,,,,,,,,,,,,,,1,001,2022-12-14_13h57.43.768,00_bat_bachelor,2022.2.4,59.825469248503715,
,,,,,,,,,,,,1,0,1,0,34,0,34,0,,,,,,,34,,,0.2,703.4075086509038,X,None,nogo,None,1,,,,,,,,,,,,,,,,,,,1,001,2022-12-14_13h57.43.768,00_bat_bachelor,2022.2.4,59.825469248503715,
,,,,,,,,,,,,1,0,1,0,35,0,35,0,,,,,,,35,,,0.2,704.408423559551,Y,d,go,None,0,,,,,,,,,,,,,,,,,,,1,001,2022-12-14_13h57.43.768,00_bat_bachelor,2022.2.4,59.825469248503715,
,,,,,,,,,,,,1,0,1,0,36,0,36,0,,,,,,,36,,,0.2,705.4091377410223,X,l,go,None,0,,,,,,,,,,,,,,,,,,,1,001,2022-12-14_13h57.43.768,00_bat_bachelor,2022.2.4,59.825469248503715,
,,,,,,,,,,,,1,0,1,0,37,0,37,0,,,,,,,37,,,0.2,706.4099101042848,Y,d,go,None,0,,,,,,,,,,,,,,,,,,,1,001,2022-12-14_13h57.43.768,00_bat_bachelor,2022.2.4,59.825469248503715,
,,,,,,,,,,,,1,0,1,0,38,0,38,0,,,,,,,38,,,0.2,707.4106732554319,X,l,go,l,1,,0.36048899817615165,,,,,,,,,,,,,,,,,1,001,2022-12-14_13h57.43.768,00_bat_bachelor,2022.2.4,59.825469248503715,
,,,,,,,,,,,,1,0,1,0,39,0,39,0,,,,,,,39,,,0.2,707.9944431542099,Y,d,go,None,0,,,,,,,,,,,,,,,,,,,1,001,2022-12-14_13h57.43.768,00_bat_bachelor,2022.2.4,59.825469248503715,
,,,,,,,,,,,,1,0,1,0,40,0,40,0,,,,,,,40,,,0.2,708.9952053356574,X,l,go,d,0,,0.2968318169223494,,,,,,,,,,,,,,,,,1,001,2022-12-14_13h57.43.768,00_bat_bachelor,2022.2.4,59.825469248503715,
,,,,,,,,,,,,1,0,1,0,41,0,41,0,,,,,,,41,,,0.2,709.5122416910344,X,None,nogo,None,1,,,,,,,,,,,,,,,,,,,1,001,2022-12-14_13h57.43.768,00_bat_bachelor,2022.2.4,59.825469248503715,
,,,,,,,,,,,,1,0,1,0,42,0,42,0,,,,,,,42,,,0.2,710.5133515086782,X,None,nogo,l,0,,0.2495397186394257,,,,,,,,,,,,,,,,,1,001,2022-12-14_13h57.43.768,00_bat_bachelor,2022.2.4,59.825469248503715,
,,,,,,,,,,,,1,0,1,0,43,0,43,0,,,,,,,43,,,0.2,710.9803932216273,Y,d,go,d,1,,0.6155468139113509,,,,,,,,,,,,,,,,,1,001,2022-12-14_13h57.43.768,00_bat_bachelor,2022.2.4,59.825469248503715,
,,,,,,,,,,,,1,0,1,0,44,0,44,0,,,,,,,44,,,0.2,711.81435742334,X,l,go,None,0,712.615042126039,,,,,,,,,,,,,,,,,,1,001,2022-12-14_13h57.43.768,00_bat_bachelor,2022.2.4,59.825469248503715,
,,,,,,,,,,,,1,0,1,0,45,0,45,0,,,,,,,45,,,0.2,712.8151210593351,X,None,nogo,l,0,,0.299458724737633,,,,,,,,,,,,,,,,,1,001,2022-12-14_13h57.43.768,00_bat_bachelor,2022.2.4,59.825469248503715,
,,,,,,,,,,,,1,0,1,0,46,0,46,0,,,,,,,46,,,0.2,713.3322044449924,Y,d,go,d,1,,0.5989363977205358,,,,,,,,,,,,,,,,,1,001,2022-12-14_13h57.43.768,00_bat_bachelor,2022.2.4,59.825469248503715,
,,,,,,,,,,,,1,0,1,0,47,0,47,0,,,,,,,47,,,0.2,714.1493250185085,X,l,go,None,0,714.9501260847865,,,,,,,,,,,,,,,,,,1,001,2022-12-14_13h57.43.768,00_bat_bachelor,2022.2.4,59.825469248503715,
,,,,,,,,,,,,1,0,1,0,48,0,48,0,,,,,,,48,,,0.2,715.1501056241905,Y,d,go,d,1,,0.4443813211400993,,,,,,,,,,,,,,,,,1,001,2022-12-14_13h57.43.768,00_bat_bachelor,2022.2.4,59.825469248503715,
,,,,,,,,,,,,1,0,1,0,49,0,49,0,,,,,,,49,,,0.2,715.8174410582105,X,l,go,l,1,,0.38572922836465295,,,,,,,,,,,,,,,,,1,001,2022-12-14_13h57.43.768,00_bat_bachelor,2022.2.4,59.825469248503715,
,,,,,,,,,,,,1,0,1,0,50,0,50,0,,,,,,,50,,,0.2,716.4339042744687,Y,d,go,d,1,,0.44162447399139637,,,,,,,,,,,,,,,,,1,001,2022-12-14_13h57.43.768,00_bat_bachelor,2022.2.4,59.825469248503715,
,,,,,,,,,,,,1,0,1,0,51,0,51,0,,,,,,,51,,,0.2,717.1013793447855,Y,None,nogo,l,0,,0.3817777151307382,,,,,,,,,,,,,,,,,1,001,2022-12-14_13h57.43.768,00_bat_bachelor,2022.2.4,59.825469248503715,
,,,,,,,,,,,,1,0,1,0,52,0,52,0,,,,,,,52,,,0.2,717.7018799021171,X,l,go,None,0,718.502212604988,,,,,,,,,,,,,,,,,,1,001,2022-12-14_13h57.43.768,00_bat_bachelor,2022.2.4,59.825469248503715,
,,,,,,,,,,,,1,0,1,0,53,0,53,0,,,,,,,53,,,0.2,718.7026367502367,Y,d,go,None,0,,,,,,,,,,,,,,,,,,,1,001,2022-12-14_13h57.43.768,00_bat_bachelor,2022.2.4,59.825469248503715,
,,,,,,,,,,,,1,0,1,0,54,0,54,0,,,,,,,54,,,0.2,719.7032985680962,X,l,go,None,0,,,,,,,,,,,,,,,,,,,1,001,2022-12-14_13h57.43.768,00_bat_bachelor,2022.2.4,59.825469248503715,
,,,,,,,,,,,,1,0,1,0,55,0,55,0,,,,,,,55,,,0.2,720.70412911315,Y,d,go,l,0,,0.34764536804141244,,,,,,,,,,,,,,,,,1,001,2022-12-14_13h57.43.768,00_bat_bachelor,2022.2.4,59.825469248503715,
,,,,,,,,,,,,1,0,1,0,56,0,56,0,,,,,,,56,,,0.2,721.2712885957371,X,l,go,None,0,,,,,,,,,,,,,,,,,,,1,001,2022-12-14_13h57.43.768,00_bat_bachelor,2022.2.4,59.825469248503715,
,,,,,,,,,,,,1,0,1,0,57,0,57,0,,,,,,,57,,,0.2,722.2718956257486,X,None,nogo,l,0,,0.41201963986168266,,,,,,,,,,,,,,,,,1,001,2022-12-14_13h57.43.768,00_bat_bachelor,2022.2.4,59.825469248503715,
,,,,,,,,,,,,1,0,1,0,58,0,58,0,,,,,,,58,,,0.2,722.9058754395737,Y,d,go,d,1,,0.305391327925463,,,,,,,,,,,,,,,,,1,001,2022-12-14_13h57.43.768,00_bat_bachelor,2022.2.4,59.825469248503715,
,,,,,,,,,,,,1,0,1,0,59,0,59,0,,,,,,,59,,,0.2,723.4394586960188,X,l,go,l,1,,0.45907755643929704,,,,,,,,,,,,,,,,,1,001,2022-12-14_13h57.43.768,00_bat_bachelor,2022.2.4,59.825469248503715,
,,,,,,,,,,,,1,0,1,0,60,0,60,0,,,,,,,60,,,0.2,724.123140303931,X,None,nogo,None,1,,,,,,,,,,,,,,,,,,,1,001,2022-12-14_13h57.43.768,00_bat_bachelor,2022.2.4,59.825469248503715,
,,,,,,,,,,,,1,0,1,0,61,0,61,0,,,,,,,61,,,0.2,725.1241701216131,Y,d,go,d,1,,0.3591289988398785,,,,,,,,,,,,,,,,,1,001,2022-12-14_13h57.43.768,00_bat_bachelor,2022.2.4,59.825469248503715,
,,,,,,,,,,,,1,0,1,0,62,0,62,0,,,,,,,62,,,0.2,725.7078740810321,X,l,go,l,1,,0.4320991452768794,,,,,,,,,,,,,,,,,1,001,2022-12-14_13h57.43.768,00_bat_bachelor,2022.2.4,59.825469248503715,
,,,,,,,,,,,,1,0,1,0,63,0,63,0,,,,,,,63,,,0.2,726.3584992201213,X,None,nogo,None,1,727.15906222591,,,,,,,,,,,,,,,,,,1,001,2022-12-14_13h57.43.768,00_bat_bachelor,2022.2.4,59.825469248503715,
,,,,,,,,,,,,1,0,1,0,64,0,64,0,,,,,,,64,,,0.2,727.3592032197812,Y,d,go,d,1,,0.3794586859512492,,,,,,,,,,,,,,,,,1,001,2022-12-14_13h57.43.768,00_bat_bachelor,2022.2.4,59.825469248503715,
,,,,,,,,,,,,1,0,1,0,65,0,65,0,,,,,,,65,,,0.2,727.95956317112,X,l,go,l,1,,0.4193486060066789,,,,,,,,,,,,,,,,,1,001,2022-12-14_13h57.43.768,00_bat_bachelor,2022.2.4,59.825469248503715,
,,,,,,,,,,,,1,0,1,0,66,0,66,0,,,,,,,66,,,0.2,728.6101776435498,Y,d,go,d,1,,0.7452475995087298,,,,,,,,,,,,,,,,,1,001,2022-12-14_13h57.43.768,00_bat_bachelor,2022.2.4,59.825469248503715,
,,,,,,,,,,,,1,0,1,0,67,0,67,0,,,,,,,67,,,0.2,729.5776118411559,X,l,go,l,1,,0.5142004388071655,,,,,,,,,,,,,,,,,1,001,2022-12-14_13h57.43.768,00_bat_bachelor,2022.2.4,59.825469248503715,
,,,,,,,,,,,,1,0,1,0,68,0,68,0,,,,,,,68,,,0.2,730.3113840914484,X,None,nogo,l,0,,0.7556776550554787,,,,,,,,,,,,,,,,,1,001,2022-12-14_13h57.43.768,00_bat_bachelor,2022.2.4,59.825469248503715,
,,,,,,,,,,,,1,0,1,0,69,0,69,0,,,,,,,69,,,0.2,731.2956371899927,Y,d,go,d,1,,0.6991133188457752,,,,,,,,,,,,,,,,,1,001,2022-12-14_13h57.43.768,00_bat_bachelor,2022.2.4,59.825469248503715,
,,,,,,,,,,,,1,0,1,0,70,0,70,0,,,,,,,70,,,0.2,732.2126132302474,X,l,go,l,1,,0.4864564522540604,,,,,,,,,,,,,,,,,1,001,2022-12-14_13h57.43.768,00_bat_bachelor,2022.2.4,59.825469248503715,
,,,,,,,,,,,,1,0,1,0,71,0,71,0,,,,,,,71,,,0.2,732.9300916702596,Y,d,go,d,1,,0.6007536089600762,,,,,,,,,,,,,,,,,1,001,2022-12-14_13h57.43.768,00_bat_bachelor,2022.2.4,59.825469248503715,
,,,,,,,,,,,,1,0,1,0,72,0,72,0,,,,,,,72,,,0.2,733.7640427810693,Y,None,nogo,l,0,,0.743036691488669,,,,,,,,,,,,,,,,,1,001,2022-12-14_13h57.43.768,00_bat_bachelor,2022.2.4,59.825469248503715,
,,,,,,,,,,,,1,0,1,0,73,0,73,0,,,,,,,73,,,0.2,734.731177827307,Y,None,nogo,None,1,,,,,,,,,,,,,,,,,,,1,001,2022-12-14_13h57.43.768,00_bat_bachelor,2022.2.4,59.825469248503715,
,,,,,,,,,,,,1,0,1,0,74,0,74,0,,,,,,,74,,,0.2,735.7319400087545,X,l,go,l,1,,0.7274551232876547,,,,,,,,,,,,,,,,,1,001,2022-12-14_13h57.43.768,00_bat_bachelor,2022.2.4,59.825469248503715,
,,,,,,,,,,,,1,0,1,0,75,0,75,0,,,,,,,75,,,0.2,736.683029002168,Y,d,go,d,1,,0.5445669695327524,,,,,,,,,,,,,,,,,1,001,2022-12-14_13h57.43.768,00_bat_bachelor,2022.2.4,59.825469248503715,
,,,,,,,,,,,,1,0,1,0,76,0,76,0,,,,,,,76,,,0.2,737.4501908120292,Y,None,nogo,None,1,,,,,,,,,,,,,,,,,,,1,001,2022-12-14_13h57.43.768,00_bat_bachelor,2022.2.4,59.825469248503715,
,,,,,,,,,,,,1,0,1,0,77,0,77,0,,,,,,,77,,,0.2,738.4506785693666,X,l,go,l,1,,0.40820485383301275,,,,,,,,,,,,,,,,,1,001,2022-12-14_13h57.43.768,00_bat_bachelor,2022.2.4,59.825469248503715,
,,,,,,,,,,,,1,0,1,0,78,0,78,0,,,,,,,78,,,0.2,739.0847989891881,Y,d,go,d,1,,0.7337654232542263,,,,,,,,,,,,,,,,,1,001,2022-12-14_13h57.43.768,00_bat_bachelor,2022.2.4,59.825469248503715,
,,,,,,,,,,,,1,0,1,0,79,0,79,0,,,,,,,79,,,0.2,740.0354913767296,X,l,go,l,1,,0.48751439113766537,,,,,,,,,,,,,,,,,1,001,2022-12-14_13h57.43.768,00_bat_bachelor,2022.2.4,59.825469248503715,
,,,,,,,,,,,,1,0,1,0,80,0,80,0,,,,,,,80,,,0.2,740.7527463016995,X,None,nogo,None,1,,,,,,,,,,,,,,,,,,,1,001,2022-12-14_13h57.43.768,00_bat_bachelor,2022.2.4,59.825469248503715,
,,,,,,,,,,,,1,0,1,0,81,0,81,0,,,,,,,81,,,0.2,741.753532240713,Y,d,go,d,1,,0.4655963411569246,,,,,,,,,,,,,,,,,1,001,2022-12-14_13h57.43.768,00_bat_bachelor,2022.2.4,59.825469248503715,
,,,,,,,,,,,,1,0,1,0,82,0,82,0,,,,,,,82,,,0.2,742.4372584546618,X,l,go,l,1,,0.4533224077131308,,,,,,,,,,,,,,,,,1,001,2022-12-14_13h57.43.768,00_bat_bachelor,2022.2.4,59.825469248503715,
,,,,,,,,,,,,1,0,1,0,83,0,83,0,,,,,,,83,,,0.2,743.1212314563709,Y,d,go,d,1,,0.6495608580225962,,,,,,,,,,,,,,,,,1,001,2022-12-14_13h57.43.768,00_bat_bachelor,2022.2.4,59.825469248503715,
,,,,,,,,,,,,1,0,1,0,84,0,84,0,,,,,,,84,,,0.2,743.9885915206833,X,l,go,l,1,,0.647301465178316,,,,,,,,,,,,,,,,,1,001,2022-12-14_13h57.43.768,00_bat_bachelor,2022.2.4,59.825469248503715,
,,,,,,,,,,,,1,0,1,0,85,0,85,0,,,,,,,85,,,0.2,744.8559894031569,Y,d,go,d,1,,0.4984739009742043,,,,,,,,,,,,,,,,,1,001,2022-12-14_13h57.43.768,00_bat_bachelor,2022.2.4,59.825469248503715,
,,,,,,,,,,,,1,0,1,0,86,0,86,0,,,,,,,86,,,0.2,745.5730644494215,Y,None,nogo,d,0,,0.7099710105539998,,,,,,,,,,,,,,,,,1,001,2022-12-14_13h57.43.768,00_bat_bachelor,2022.2.4,59.825469248503715,
,,,,,,,,,,,,1,0,1,0,87,0,87,0,,,,,,,87,,,0.2,746.5071372086604,X,l,go,l,1,,0.5291798254802416,,,,,,,,,,,,,,,,,1,001,2022-12-14_13h57.43.768,00_bat_bachelor,2022.2.4,59.825469248503715,
,,,,,,,,,,,,1,0,1,0,88,0,88,0,,,,,,,88,,,0.2,747.2576376932666,Y,d,go,d,1,,0.49766856803398696,,,,,,,,,,,,,,,,,1,001,2022-12-14_13h57.43.768,00_bat_bachelor,2022.2.4,59.825469248503715,
,,,,,,,,,,,,1,0,1,0,89,0,89,0,,,,,,,89,,,0.2,747.9748417091687,Y,None,nogo,None,1,748.775264108961,,,,,,,,,,,,,,,,,,1,001,2022-12-14_13h57.43.768,00_bat_bachelor,2022.2.4,59.825469248503715,
,,,,,,,,,,,,1,0,1,0,90,0,90,0,,,,,,,90,,,0.2,748.9753614664914,X,l,go,l,1,,0.3159343531151535,,,,,,,,,,,,,,,,,1,001,2022-12-14_13h57.43.768,00_bat_bachelor,2022.2.4,59.825469248503715,
,,,,,,,,,,,,1,0,1,0,91,0,91,0,,,,,,,91,,,0.2,749.5093820560578,Y,d,go,None,0,,,,,,,,,,,,,,,,,,,1,001,2022-12-14_13h57.43.768,00_bat_bachelor,2022.2.4,59.825469248503715,
,,,,,,,,,,,,1,0,1,0,92,0,92,0,,,,,,,92,,,0.2,750.510210176868,X,l,go,l,1,,0.3976918892331014,,,,,,,,,,,,,,,,,1,001,2022-12-14_13h57.43.768,00_bat_bachelor,2022.2.4,59.825469248503715,
,,,,,,,,,,,,1,0,1,0,93,0,93,0,,,,,,,93,,,0.2,751.1273618776431,Y,d,go,d,1,,0.7244354883878259,,,,,,,,,,,,,,,,,1,001,2022-12-14_13h57.43.768,00_bat_bachelor,2022.2.4,59.825469248503715,
,,,,,,,,,,,,1,0,1,0,94,0,94,0,,,,,,,94,,,0.2,752.0777992350049,Y,None,nogo,l,0,,0.44636774442187743,,,,,,,,,,,,,,,,,1,001,2022-12-14_13h57.43.768,00_bat_bachelor,2022.2.4,59.825469248503715,
,,,,,,,,,,,,1,0,1,0,95,0,95,0,,,,,,,95,,,0.2,752.7452049720232,Y,None,nogo,None,1,,,,,,,,,,,,,,,,,,,1,001,2022-12-14_13h57.43.768,00_bat_bachelor,2022.2.4,59.825469248503715,
,,,,,,,,,,,,1,0,1,0,96,0,96,0,,,,,,,96,,,0.2,753.7459244868223,X,l,go,l,1,,0.4245684822635667,,,,,,,,,,,,,,,,,1,001,2022-12-14_13h57.43.768,00_bat_bachelor,2022.2.4,59.825469248503715,
,,,,,,,,,,,,1,0,1,0,97,0,97,0,,,,,,,97,,,0.2,754.3962669593857,Y,d,go,d,1,,0.5100627438405354,,,,,,,,,,,,,,,,,1,001,2022-12-14_13h57.43.768,00_bat_bachelor,2022.2.4,59.825469248503715,
,,,,,,,,,,,,1,0,1,0,98,0,98,0,,,,,,,98,,,0.2,755.1303878155704,X,l,go,l,1,,0.5129538939545455,,,,,,,,,,,,,,,,,1,001,2022-12-14_13h57.43.768,00_bat_bachelor,2022.2.4,59.825469248503715,
,,,,,,,,,,,,1,0,1,0,99,0,99,0,,,,,,,99,,,0.2,755.864236187037,X,None,nogo,d,0,,0.3868691065981693,,,,,,,,,,,,,,,,,1,001,2022-12-14_13h57.43.768,00_bat_bachelor,2022.2.4,59.825469248503715,
,,,,,,,,,,,,1,0,1,0,100,0,100,0,,,,,,,100,,,0.2,756.4811585545904,Y,d,go,None,0,757.2817564694524,,,,,,,,,,,,,,,,,,1,001,2022-12-14_13h57.43.768,00_bat_bachelor,2022.2.4,59.825469248503715,
,,,,,,,,,,,,1,0,1,0,101,0,101,0,,,,,,,101,,,0.2,757.4820307965892,X,l,go,l,1,,0.36899760011510807,,,,,,,,,,,,,,,,,1,001,2022-12-14_13h57.43.768,00_bat_bachelor,2022.2.4,59.825469248503715,
,,,,,,,,,,,,1,0,1,0,102,0,102,0,,,,,,,102,,,0.2,758.0827611719942,X,None,nogo,None,1,,,,,,,,,,,,,,,,,,,1,001,2022-12-14_13h57.43.768,00_bat_bachelor,2022.2.4,59.825469248503715,
,,,,,,,,,,,,1,0,1,0,103,0,103,0,,,,,,,103,,,0.2,759.083670262462,Y,d,go,d,1,,0.41526472919940716,,,,,,,,,,,,,,,,,1,001,2022-12-14_13h57.43.768,00_bat_bachelor,2022.2.4,59.825469248503715,
,,,,,,,,,,,,1,0,1,0,104,0,104,0,,,,,,,104,,,0.2,759.717519652113,X,l,go,None,0,760.5180991427405,,,,,,,,,,,,,,,,,,1,001,2022-12-14_13h57.43.768,00_bat_bachelor,2022.2.4,59.825469248503715,
,,,,,,,,,,,,1,0,1,0,105,0,105,0,,,,,,,105,,,0.2,760.7182832881044,X,None,nogo,None,1,761.5189107787082,,,,,,,,,,,,,,,,,,1,001,2022-12-14_13h57.43.768,00_bat_bachelor,2022.2.4,59.825469248503715,
,,,,,,,,,,,,1,0,1,0,106,0,106,0,,,,,,,106,,,0.2,761.7190202574457,Y,d,go,l,0,,0.3240424703944882,,,,,,,,,,,,,,,,,1,001,2022-12-14_13h57.43.768,00_bat_bachelor,2022.2.4,59.825469248503715,
,,,,,,,,,,,,1,0,1,0,107,0,107,0,,,,,,,107,,,0.2,762.2693768390891,X,l,go,None,0,,,,,,,,,,,,,,,,,,,1,001,2022-12-14_13h57.43.768,00_bat_bachelor,2022.2.4,59.825469248503715,
,,,,,,,,,,,,1,0,1,0,108,0,108,0,,,,,,,108,,,0.2,763.2708100505151,X,None,nogo,l,0,,0.3077796903999115,,,,,,,,,,,,,,,,,1,001,2022-12-14_13h57.43.768,00_bat_bachelor,2022.2.4,59.825469248503715,
,,,,,,,,,,,,1,0,1,0,109,0,109,0,,,,,,,109,,,0.2,763.820818995966,Y,d,go,d,1,,0.526086978497915,,,,,,,,,,,,,,,,,1,001,2022-12-14_13h57.43.768,00_bat_bachelor,2022.2.4,59.825469248503715,
,,,,,,,,,,,,1,0,1,0,110,0,110,0,,,,,,,110,,,0.2,764.5882009269335,X,l,go,l,1,,0.41556630480772583,,,,,,,,,,,,,,,,,1,001,2022-12-14_13h57.43.768,00_bat_bachelor,2022.2.4,59.825469248503715,
,,,,,,,,,,,,1,0,1,0,111,0,111,0,,,,,,,111,,,0.2,765.2387242478908,Y,d,go,d,1,,0.4998111124477873,,,,,,,,,,,,,,,,,1,001,2022-12-14_13h57.43.768,00_bat_bachelor,2022.2.4,59.825469248503715,
,,,,,,,,,,,,1,0,1,0,112,0,112,0,,,,,,,112,,,0.2,765.9724421951796,X,l,go,l,1,,0.5029451715345203,,,,,,,,,,,,,,,,,1,001,2022-12-14_13h57.43.768,00_bat_bachelor,2022.2.4,59.825469248503715,
,,,,,,,,,,,,1,0,1,0,113,0,113,0,,,,,,,113,,,0.2,766.7065586877288,X,None,nogo,None,1,767.5073481176478,,,,,,,,,,,,,,,,,,1,001,2022-12-14_13h57.43.768,00_bat_bachelor,2022.2.4,59.825469248503715,
,,,,,,,,,,,,1,0,1,0,114,0,114,0,,,,,,,114,,,0.2,767.7070818389911,Y,d,go,d,1,,0.3841268049000064,,,,,,,,,,,,,,,,,1,001,2022-12-14_13h57.43.768,00_bat_bachelor,2022.2.4,59.825469248503715,
,,,,,,,,,,,,1,0,1,0,115,0,115,0,,,,,,,115,,,0.2,768.3244143881639,X,l,go,l,1,,0.4069907938137476,,,,,,,,,,,,,,,,,1,001,2022-12-14_13h57.43.768,00_bat_bachelor,2022.2.4,59.825469248503715,
,,,,,,,,,,,,1,0,1,0,116,0,116,0,,,,,,,116,,,0.2,768.9747161334708,Y,d,go,d,1,,0.7643598326649226,,,,,,,,,,,,,,,,,1,001,2022-12-14_13h57.43.768,00_bat_bachelor,2022.2.4,59.825469248503715,
,,,,,,,,,,,,1,0,1,0,117,0,117,0,,,,,,,117,,,0.2,769.9756882542097,X,l,go,l,1,,0.38735589424322825,,,,,,,,,,,,,,,,,1,001,2022-12-14_13h57.43.768,00_bat_bachelor,2022.2.4,59.825469248503715,
,,,,,,,,,,,,1,0,1,0,118,0,118,0,,,,,,,118,,,0.2,770.6093669772745,X,None,nogo,None,1,771.4094276802789,,,,,,,,,,,,,,,,,,1,001,2022-12-14_13h57.43.768,00_bat_bachelor,2022.2.4,59.825469248503715,
,,,,,,,,,,,,1,0,1,0,119,0,119,0,,,,,,,119,,,0.2,771.6094804317654,Y,d,go,None,0,,,,,,,,,,,,,,,,,,,1,001,2022-12-14_13h57.43.768,00_bat_bachelor,2022.2.4,59.825469248503715,
,,,,,,,,,,,,1,0,1,0,120,0,120,0,,,,,,,120,,,0.2,772.6102775222898,X,l,go,None,0,,,,,,,,,,,,,,,,,,,1,001,2022-12-14_13h57.43.768,00_bat_bachelor,2022.2.4,59.825469248503715,
,,,,,,,,,,,,1,0,1,0,121,0,121,0,,,,,,,121,,,0.2,773.6110736431147,X,None,nogo,l,0,,0.3032381168450229,,,,,,,,,,,,,,,,,1,001,2022-12-14_13h57.43.768,00_bat_bachelor,2022.2.4,59.825469248503715,
,,,,,,,,,,,,1,0,1,0,122,0,122,0,,,,,,,122,,,0.2,774.1448741115746,Y,d,go,d,1,,0.3784962621757586,,,,,,,,,,,,,,,,,1,001,2022-12-14_13h57.43.768,00_bat_bachelor,2022.2.4,59.825469248503715,
,,,,,,,,,,,,1,0,1,0,123,0,123,0,,,,,,,123,,,0.2,774.7452311538254,X,l,go,l,1,,0.35366669845825527,,,,,,,,,,,,,,,,,1,001,2022-12-14_13h57.43.768,00_bat_bachelor,2022.2.4,59.825469248503715,
,,,,,,,,,,,,1,0,1,0,124,0,124,0,,,,,,,124,,,0.2,775.3290301435009,X,None,nogo,d,0,,0.3620080277469242,,,,,,,,,,,,,,,,,1,001,2022-12-14_13h57.43.768,00_bat_bachelor,2022.2.4,59.825469248503715,
,,,,,,,,,,,,1,0,1,0,125,0,125,0,,,,,,,125,,,0.2,775.9126269514527,Y,d,go,l,0,,0.4990004461724311,,,,,,,,,,,,,,,,,1,001,2022-12-14_13h57.43.768,00_bat_bachelor,2022.2.4,59.825469248503715,
,,,,,,,,,,,,1,0,1,0,126,0,126,0,,,,,,,126,,,0.2,776.6300646642121,X,l,go,None,0,,,,,,,,,,,,,,,,,,,1,001,2022-12-14_13h57.43.768,00_bat_bachelor,2022.2.4,59.825469248503715,
,,,,,,,,,,,,1,0,1,0,127,0,127,0,,,,,,,127,,,0.2,777.6305276942876,Y,d,go,None,0,,,,,,,,,,,,,,,,,,,1,001,2022-12-14_13h57.43.768,00_bat_bachelor,2022.2.4,59.825469248503715,
,,,,,,,,,,,,1,0,1,0,128,0,128,0,,,,,,,128,,,0.2,778.6315861180192,X,l,go,l,1,,0.27579425136354985,,,,,,,,,,,,,,,,,1,001,2022-12-14_13h57.43.768,00_bat_bachelor,2022.2.4,59.825469248503715,
,,,,,,,,,,,,1,0,1,0,129,0,129,0,,,,,,,129,,,0.2,779.1316697543407,X,None,nogo,d,0,,0.31853507912819623,,,,,,,,,,,,,,,,,1,001,2022-12-14_13h57.43.768,00_bat_bachelor,2022.2.4,59.825469248503715,
,,,,,,,,,,,,1,0,1,0,130,0,130,0,,,,,,,130,,,0.2,779.6822997903982,Y,d,go,None,0,,,,,,,,,,,,,,,,,,,1,001,2022-12-14_13h57.43.768,00_bat_bachelor,2022.2.4,59.825469248503715,
,,,,,,,,,,,,1,0,1,0,131,0,131,0,,,,,,,131,,,0.2,780.6831642748293,X,l,go,l,1,,0.3200366541532276,,,,,,,,,,,,,,,,,1,001,2022-12-14_13h57.43.768,00_bat_bachelor,2022.2.4,59.825469248503715,
,,,,,,,,,,,,1,0,1,0,132,0,132,0,,,,,,,132,,,0.2,781.2334864322474,X,None,nogo,None,1,782.0342176803788,,,,,,,,,,,,,,,,,,1,001,2022-12-14_13h57.43.768,00_bat_bachelor,2022.2.4,59.825469248503715,
,,,,,,,,,,,,1,0,1,0,133,0,133,0,,,,,,,133,,,0.2,782.2340280077442,Y,d,go,None,0,783.0346928316649,,,,,,,,,,,,,,,,,,1,001,2022-12-14_13h57.43.768,00_bat_bachelor,2022.2.4,59.825469248503715,
,,,,,,,,,,,,1,0,1,0,134,0,134,0,,,,,,,134,,,0.2,783.2351043708586,X,l,go,None,0,,,,,,,,,,,,,,,,,,,1,001,2022-12-14_13h57.43.768,00_bat_bachelor,2022.2.4,59.825469248503715,
,,,,,,,,,,,,1,0,1,0,135,0,135,0,,,,,,,135,,,0.2,784.2355644918462,Y,d,go,None,0,785.0363771944831,,,,,,,,,,,,,,,,,,1,001,2022-12-14_13h57.43.768,00_bat_bachelor,2022.2.4,59.825469248503715,
,,,,,,,,,,,,1,0,1,0,136,0,136,0,,,,,,,136,,,0.2,785.2366258246657,Y,None,nogo,None,1,,,,,,,,,,,,,,,,,,,1,001,2022-12-14_13h57.43.768,00_bat_bachelor,2022.2.4,59.825469248503715,
,,,,,,,,,,,,1,0,1,0,137,0,137,0,,,,,,,137,,,0.2,786.2370903092888,X,l,go,l,1,,0.1584187931221095,,,,,,,,,,,,,,,,,1,001,2022-12-14_13h57.43.768,00_bat_bachelor,2022.2.4,59.825469248503715,
,,,,,,,,,,,,1,0,1,0,138,0,138,0,,,,,,,138,,,0.2,786.6210823655347,Y,d,go,d,1,,0.36578305621878826,,,,,,,,,,,,,,,,,1,001,2022-12-14_13h57.43.768,00_bat_bachelor,2022.2.4,59.825469248503715,
,,,,,,,,,,,,1,0,1,0,139,0,139,0,,,,,,,139,,,0.2,787.2045492341567,Y,None,nogo,None,1,788.0053692095171,,,,,,,,,,,,,,,,,,1,001,2022-12-14_13h57.43.768,00_bat_bachelor,2022.2.4,59.825469248503715,
,,,,,,,,,,,,1,0,1,0,140,0,140,0,,,,,,,140,,,0.2,788.205472870075,X,l,go,l,1,,0.36567832899891073,,,,,,,,,,,,,,,,,1,001,2022-12-14_13h57.43.768,00_bat_bachelor,2022.2.4,59.825469248503715,
,,,,,,,,,,,,1,0,1,0,141,0,141,0,,,,,,,141,,,0.2,788.7890866477137,Y,d,go,d,1,,0.4856525738578057,,,,,,,,,,,,,,,,,1,001,2022-12-14_13h57.43.768,00_bat_bachelor,2022.2.4,59.825469248503715,
,,,,,,,,,,,,1,0,1,0,142,0,142,0,,,,,,,142,,,0.2,789.5065248453211,X,l,go,l,1,,0.37666838427321636,,,,,,,,,,,,,,,,,1,001,2022-12-14_13h57.43.768,00_bat_bachelor,2022.2.4,59.825469248503715,
,,,,,,,,,,,,1,0,1,0,143,0,143,0,,,,,,,143,,,0.2,790.1071136450337,X,None,nogo,d,0,,0.448659137247887,,,,,,,,,,,,,,,,,1,001,2022-12-14_13h57.43.768,00_bat_bachelor,2022.2.4,59.825469248503715,
,,,,,,,,,,,,1,0,1,0,144,0,144,0,,,,,,,144,,,0.2,790.7741014428611,Y,d,go,None,0,,,,,,,,,,,,,,,,,,,1,001,2022-12-14_13h57.43.768,00_bat_bachelor,2022.2.4,59.825469248503715,
,,,,,,,,,,,,1,0,1,0,145,0,145,0,,,,,,,145,,,0.2,791.7749572000212,X,l,go,None,0,792.5756932966324,,,,,,,,,,,,,,,,,,1,001,2022-12-14_13h57.43.768,00_bat_bachelor,2022.2.4,59.825469248503715,
,,,,,,,,,,,,1,0,1,0,146,0,146,0,,,,,,,146,,,0.2,792.7757028966298,Y,d,go,d,1,,0.2603625012707198,,,,,,,,,,,,,,,,,1,001,2022-12-14_13h57.43.768,00_bat_bachelor,2022.2.4,59.825469248503715,
,,,,,,,,,,,,1,0,1,0,147,0,147,0,,,,,,,147,,,0.2,793.2594471469347,Y,None,nogo,l,0,,0.46420288728768355,,,,,,,,,,,,,,,,,1,001,2022-12-14_13h57.43.768,00_bat_bachelor,2022.2.4,59.825469248503715,
,,,,,,,,,,,,1,0,1,0,148,0,148,0,,,,,,,148,,,0.2,793.943102573041,X,l,go,None,0,,,,,,,,,,,,,,,,,,,1,001,2022-12-14_13h57.43.768,00_bat_bachelor,2022.2.4,59.825469248503715,
,,,,,,,,,,,,1,0,1,0,149,0,149,0,,,,,,,149,,,0.2,794.9440068150252,Y,d,go,d,1,,0.4114072765223682,,,,,,,,,,,,,,,,,1,001,2022-12-14_13h57.43.768,00_bat_bachelor,2022.2.4,59.825469248503715,
,,,,,,,,,,,,1,0,1,0,150,0,150,0,,,,,,,150,,,0.2,795.5780074773284,X,l,go,l,1,,0.4971143864822807,,,,,,,,,,,,,,,,,1,001,2022-12-14_13h57.43.768,00_bat_bachelor,2022.2.4,59.825469248503715,
,,,,,,,,,,,,1,0,1,0,151,0,151,0,,,,,,,151,,,0.2,796.2950980387395,Y,d,go,d,1,,0.32439156113468925,,,,,,,,,,,,,,,,,1,001,2022-12-14_13h57.43.768,00_bat_bachelor,2022.2.4,59.825469248503715,
,,,,,,,,,,,,1,0,1,0,152,0,152,0,,,,,,,152,,,0.2,796.8453004386429,Y,None,nogo,l,0,,0.41467515372642083,,,,,,,,,,,,,,,,,1,001,2022-12-14_13h57.43.768,00_bat_bachelor,2022.2.4,59.825469248503715,
,,,,,,,,,,,,1,0,1,0,153,0,153,0,,,,,,,153,,,0.2,797.4792778282281,X,l,go,None,0,,,,,,,,,,,,,,,,,,,1,001,2022-12-14_13h57.43.768,00_bat_bachelor,2022.2.4,59.825469248503715,
,,,,,,,,,,,,1,0,1,0,154,0,154,0,,,,,,,154,,,0.2,798.4800385551316,Y,d,go,l,0,,0.36420536001242,,,,,,,,,,,,,,,,,1,001,2022-12-14_13h57.43.768,00_bat_bachelor,2022.2.4,59.825469248503715,
,,,,,,,,,,,,1,0,1,0,155,0,155,0,,,,,,,155,,,0.2,799.0635189995046,X,l,go,None,0,799.8644941263046,,,,,,,,,,,,,,,,,,1,001,2022-12-14_13h57.43.768,00_bat_bachelor,2022.2.4,59.825469248503715,
,,,,,,,,,,,,1,0,1,0,156,0,156,0,,,,,,,156,,,0.2,800.0642855445876,Y,d,go,d,1,,0.2989641795247735,,,,,,,,,,,,,,,,,1,001,2022-12-14_13h57.43.768,00_bat_bachelor,2022.2.4,59.825469248503715,
,,,,,,,,,,,,1,0,1,0,157,0,157,0,,,,,,,157,,,0.2,800.5813883241754,Y,None,nogo,None,1,,,,,,,,,,,,,,,,,,,1,001,2022-12-14_13h57.43.768,00_bat_bachelor,2022.2.4,59.825469248503715,
,,,,,,,,,,,,1,0,1,0,158,0,158,0,,,,,,,158,,,0.2,801.5823662630937,X,l,go,l,1,,0.38045795819198247,,,,,,,,,,,,,,,,,1,001,2022-12-14_13h57.43.768,00_bat_bachelor,2022.2.4,59.825469248503715,
,,,,,,,,,,,,1,0,1,0,159,0,159,0,,,,,,,159,,,0.2,802.1825666993609,Y,d,go,d,1,,0.43573987078343634,,,,,,,,,,,,,,,,,1,001,2022-12-14_13h57.43.768,00_bat_bachelor,2022.2.4,59.825469248503715,
,,,,,,,,,,,,1,0,1,0,160,0,160,0,,,,,,,160,,,0.2,802.8500286787748,X,l,go,l,1,,0.3771076567900309,,,,,,,,,,,,,,,,,1,001,2022-12-14_13h57.43.768,00_bat_bachelor,2022.2.4,59.825469248503715,
,,,,,,,,,,,,1,0,1,0,161,0,161,0,,,,,,,161,,,0.2,803.4502165089871,X,None,nogo,d,0,,0.38490062271011993,,,,,,,,,,,,,,,,,1,001,2022-12-14_13h57.43.768,00_bat_bachelor,2022.2.4,59.825469248503715,
,,,,,,,,,,,,1,0,1,0,162,0,162,0,,,,,,,162,,,0.2,804.0676406944767,Y,d,go,None,0,,,,,,,,,,,,,,,,,,,1,001,2022-12-14_13h57.43.768,00_bat_bachelor,2022.2.4,59.825469248503715,
,,,,,,,,,,,,1,0,1,0,163,0,163,0,,,,,,,163,,,0.2,805.0684373001495,X,l,go,None,0,805.869054124094,,,,,,,,,,,,,,,,,,1,001,2022-12-14_13h57.43.768,00_bat_bachelor,2022.2.4,59.825469248503715,
,,,,,,,,,,,,1,0,1,0,164,0,164,0,,,,,,,164,,,0.2,806.0690535422764,Y,d,go,l,0,,0.32698307502869284,,,,,,,,,,,,,,,,,1,001,2022-12-14_13h57.43.768,00_bat_bachelor,2022.2.4,59.825469248503715,
,,,,,,,,,,,,1,0,1,0,165,0,165,0,,,,,,,165,,,0.2,806.619578851114,X,l,go,None,0,807.4198950691425,,,,,,,,,,,,,,,,,,1,001,2022-12-14_13h57.43.768,00_bat_bachelor,2022.2.4,59.825469248503715,
,,,,,,,,,,,,1,0,1,0,166,0,166,0,,,,,,,166,,,0.2,807.6200413963415,Y,d,go,None,0,,,,,,,,,,,,,,,,,,,1,001,2022-12-14_13h57.43.768,00_bat_bachelor,2022.2.4,59.825469248503715,
,,,,,,,,,,,,1,0,1,0,167,0,167,0,,,,,,,167,,,0.2,808.6211870927582,X,l,go,None,0,,,,,,,,,,,,,,,,,,,1,001,2022-12-14_13h57.43.768,00_bat_bachelor,2022.2.4,59.825469248503715,
,,,,,,,,,,,,1,0,1,0,168,0,168,0,,,,,,,168,,,0.2,809.6219148499804,Y,d,go,d,1,,0.5016884448705241,,,,,,,,,,,,,,,,,1,001,2022-12-14_13h57.43.768,00_bat_bachelor,2022.2.4,59.825469248503715,
,,,,,,,,,,,,1,0,1,0,169,0,169,0,,,,,,,169,,,0.2,810.3558340092932,Y,None,nogo,None,1,,,,,,,,,,,,,,,,,,,1,001,2022-12-14_13h57.43.768,00_bat_bachelor,2022.2.4,59.825469248503715,
,,,,,,,,,,,,1,0,1,0,170,0,170,0,,,,,,,170,,,0.2,811.356429402942,X,l,go,l,1,,0.35037506368826143,,,,,,,,,,,,,,,,,1,001,2022-12-14_13h57.43.768,00_bat_bachelor,2022.2.4,59.825469248503715,
,,,,,,,,,,,,1,0,1,0,171,0,171,0,,,,,,,171,,,0.2,811.9235462188881,Y,d,go,None,0,,,,,,,,,,,,,,,,,,,1,001,2022-12-14_13h57.43.768,00_bat_bachelor,2022.2.4,59.825469248503715,
,,,,,,,,,,,,1,0,1,0,172,0,172,0,,,,,,,172,,,0.2,812.9240650065149,X,l,go,l,1,,0.7351065135189856,,,,,,,,,,,,,,,,,1,001,2022-12-14_13h57.43.768,00_bat_bachelor,2022.2.4,59.825469248503715,
,,,,,,,,,,,,1,0,1,0,173,0,173,0,,,,,,,173,,,0.2,813.8917256282548,Y,d,go,d,1,,0.566921867786732,,,,,,,,,,,,,,,,,1,001,2022-12-14_13h57.43.768,00_bat_bachelor,2022.2.4,59.825469248503715,
,,,,,,,,,,,,1,0,1,0,174,0,174,0,,,,,,,174,,,0.2,814.6757843996202,X,l,go,l,1,,0.4554819218174089,,,,,,,,,,,,,,,,,1,001,2022-12-14_13h57.43.768,00_bat_bachelor,2022.2.4,59.825469248503715,
,,,,,,,,,,,,1,0,1,0,175,0,175,0,,,,,,,175,,,0.2,815.3596570377413,X,None,nogo,None,1,,,,,,,,,,,,,,,,,,,1,001,2022-12-14_13h57.43.768,00_bat_bachelor,2022.2.4,59.825469248503715,
,,,,,,,,,,,,1,0,1,0,176,0,176,0,,,,,,,176,,,0.2,816.3600284314998,Y,d,go,d,1,,0.46667076487938175,,,,,,,,,,,,,,,,,1,001,2022-12-14_13h57.43.768,00_bat_bachelor,2022.2.4,59.825469248503715,
,,,,,,,,,,,,1,0,1,0,177,0,177,0,,,,,,,177,,,0.2,817.0441944028134,X,l,go,l,1,,0.3746039004254271,,,,,,,,,,,,,,,,,1,001,2022-12-14_13h57.43.768,00_bat_bachelor,2022.2.4,59.825469248503715,
,,,,,,,,,,,,1,0,1,0,178,0,178,0,,,,,,,178,,,0.2,817.6446474450204,X,None,nogo,None,1,,,,,,,,,,,,,,,,,,,1,001,2022-12-14_13h57.43.768,00_bat_bachelor,2022.2.4,59.825469248503715,
,,,,,,,,,,,,1,0,1,0,179,0,179,0,,,,,,,179,,,0.2,818.6450993235885,Y,d,go,d,1,,0.40526473404679564,,,,,,,,,,,,,,,,,1,001,2022-12-14_13h57.43.768,00_bat_bachelor,2022.2.4,59.825469248503715,
,,,,,,,,,,,,1,0,1,0,180,0,180,0,,,,,,,180,,,0.2,819.2792934403406,X,l,go,l,1,,0.3642097236479458,,,,,,,,,,,,,,,,,1,001,2022-12-14_13h57.43.768,00_bat_bachelor,2022.2.4,59.825469248503715,
,,,,,,,,,,,,1,0,1,0,181,0,181,0,,,,,,,181,,,0.2,819.8630735209335,Y,d,go,d,1,,0.6911540499786497,,,,,,,,,,,,,,,,,1,001,2022-12-14_13h57.43.768,00_bat_bachelor,2022.2.4,59.825469248503715,
,,,,,,,,,,,,1,0,1,0,182,0,182,0,,,,,,,182,,,0.2,820.7803894398094,X,l,go,l,1,,0.4299905402403965,,,,,,,,,,,,,,,,,1,001,2022-12-14_13h57.43.768,00_bat_bachelor,2022.2.4,59.825469248503715,
,,,,,,,,,,,,1,0,1,0,183,0,183,0,,,,,,,183,,,0.2,821.4305694882096,Y,d,go,d,1,,0.7399865111510735,,,,,,,,,,,,,,,,,1,001,2022-12-14_13h57.43.768,00_bat_bachelor,2022.2.4,59.825469248503715,
,,,,,,,,,,,,1,0,1,0,184,0,184,0,,,,,,,184,,,0.2,822.3983425947408,X,l,go,l,1,,0.4769020326457394,,,,,,,,,,,,,,,,,1,001,2022-12-14_13h57.43.768,00_bat_bachelor,2022.2.4,59.825469248503715,
,,,,,,,,,,,,1,0,1,0,185,0,185,0,,,,,,,185,,,0.2,823.0988479520747,Y,d,go,d,1,,0.625366930358723,,,,,,,,,,,,,,,,,1,001,2022-12-14_13h57.43.768,00_bat_bachelor,2022.2.4,59.825469248503715,
,,,,,,,,,,,,1,0,1,0,186,0,186,0,,,,,,,186,,,0.2,823.9495069335717,Y,None,nogo,l,0,,0.41385333594007534,,,,,,,,,,,,,,,,,1,001,2022-12-14_13h57.43.768,00_bat_bachelor,2022.2.4,59.825469248503715,
,,,,,,,,,,,,1,0,1,0,187,0,187,0,,,,,,,187,,,0.2,824.5829713537096,X,l,go,None,0,,,,,,,,,,,,,,,,,,,1,001,2022-12-14_13h57.43.768,00_bat_bachelor,2022.2.4,59.825469248503715,
,,,,,,,,,,,,1,0,1,0,188,0,188,0,,,,,,,188,,,0.2,825.5839245653697,Y,d,go,d,1,,0.44398471527165384,,,,,,,,,,,,,,,,,1,001,2022-12-14_13h57.43.768,00_bat_bachelor,2022.2.4,59.825469248503715,
,,,,,,,,,,,,1,0,1,0,189,0,189,0,,,,,,,189,,,0.2,826.2509710298327,Y,None,nogo,l,0,,0.687704839529033,,,,,,,,,,,,,,,,,1,001,2022-12-14_13h57.43.768,00_bat_bachelor,2022.2.4,59.825469248503715,
,,,,,,,,,,,,1,0,1,0,190,0,190,0,,,,,,,190,,,0.2,827.1685526455512,X,l,go,d,0,,0.5067832302811439,,,,,,,,,,,,,,,,,1,001,2022-12-14_13h57.43.768,00_bat_bachelor,2022.2.4,59.825469248503715,
,,,,,,,,,,,,1,0,1,0,191,0,191,0,,,,,,,191,,,0.2,827.9024276836717,Y,d,go,None,0,,,,,,,,,,,,,,,,,,,1,001,2022-12-14_13h57.43.768,00_bat_bachelor,2022.2.4,59.825469248503715,
,,,,,,,,,,,,1,0,1,0,192,0,192,0,,,,,,,192,,,0.2,828.9032718044728,X,l,go,l,1,,0.3559037882805569,,,,,,,,,,,,,,,,,1,001,2022-12-14_13h57.43.768,00_bat_bachelor,2022.2.4,59.825469248503715,
,,,,,,,,,,,,1,0,1,0,193,0,193,0,,,,,,,193,,,0.2,829.4869709154082,Y,d,go,d,1,,0.4120841246767668,,,,,,,,,,,,,,,,,1,001,2022-12-14_13h57.43.768,00_bat_bachelor,2022.2.4,59.825469248503715,
,,,,,,,,,,,,1,0,1,0,194,0,194,0,,,,,,,194,,,0.2,830.120625880907,Y,None,nogo,l,0,,0.4497335609703441,,,,,,,,,,,,,,,,,1,001,2022-12-14_13h57.43.768,00_bat_bachelor,2022.2.4,59.825469248503715,
,,,,,,,,,,,,1,0,1,0,195,0,195,0,,,,,,,195,,,0.2,830.7879264058538,X,l,go,None,0,,,,,,,,,,,,,,,,,,,1,001,2022-12-14_13h57.43.768,00_bat_bachelor,2022.2.4,59.825469248503715,
,,,,,,,,,,,,1,0,1,0,196,0,196,0,,,,,,,196,,,0.2,831.7888379205615,Y,d,go,None,0,,,,,,,,,,,,,,,,,,,1,001,2022-12-14_13h57.43.768,00_bat_bachelor,2022.2.4,59.825469248503715,
,,,,,,,,,,,,1,0,1,0,197,0,197,0,,,,,,,197,,,0.2,832.7894551323843,Y,None,nogo,d,0,,0.4532622865299345,,,,,,,,,,,,,,,,,1,001,2022-12-14_13h57.43.768,00_bat_bachelor,2022.2.4,59.825469248503715,
,,,,,,,,,,,,1,0,1,0,198,0,198,0,,,,,,,198,,,0.2,833.4733680129139,X,l,go,l,1,,0.7296291828388348,,,,,,,,,,,,,,,,,1,001,2022-12-14_13h57.43.768,00_bat_bachelor,2022.2.4,59.825469248503715,
,,,,,,,,,,,,1,0,1,0,199,0,199,0,,,,,,,199,,,0.2,834.4240700974187,Y,d,go,None,0,,,,,,,,,,,,,,,,,,,1,001,2022-12-14_13h57.43.768,00_bat_bachelor,2022.2.4,59.825469248503715,
,,,,,,,,,,,,1,0,1,0,200,0,200,0,,,,,,,200,,,0.2,835.4247813698021,X,l,go,l,1,,0.3625219668901991,,,,,,,,,,,,,,,,,1,001,2022-12-14_13h57.43.768,00_bat_bachelor,2022.2.4,59.825469248503715,
,,,,,,,,,,,,1,0,1,0,201,0,201,0,,,,,,,201,,,0.2,836.0084567231715,X,None,nogo,d,0,,0.3070165392564377,,,,,,,,,,,,,,,,,1,001,2022-12-14_13h57.43.768,00_bat_bachelor,2022.2.4,59.825469248503715,
,,,,,,,,,,,,1,0,1,0,202,0,202,0,,,,,,,202,,,0.2,836.5423822824814,Y,d,go,None,0,,,,,,,,,,,,,,,,,,,1,001,2022-12-14_13h57.43.768,00_bat_bachelor,2022.2.4,59.825469248503715,
,,,,,,,,,,,,1,0,1,0,203,0,203,0,,,,,,,203,,,0.2,837.5428312519616,X,l,go,l,1,,0.2916604254896811,,,,,,,,,,,,,,,,,1,001,2022-12-14_13h57.43.768,00_bat_bachelor,2022.2.4,59.825469248503715,
,,,,,,,,,,,,1,0,1,0,204,0,204,0,,,,,,,204,,,0.2,838.0602045768719,X,None,nogo,l,0,,0.639244741814764,,,,,,,,,,,,,,,,,1,001,2022-12-14_13h57.43.768,00_bat_bachelor,2022.2.4,59.825469248503715,
,,,,,,,,,,,,1,0,1,0,205,0,205,0,,,,,,,205,,,0.2,838.9275908229865,Y,d,go,None,0,,,,,,,,,,,,,,,,,,,1,001,2022-12-14_13h57.43.768,00_bat_bachelor,2022.2.4,59.825469248503715,
,,,,,,,,,,,,1,0,1,0,206,0,206,0,,,,,,,206,,,0.2,839.9279850046114,X,l,go,l,1,,0.3234785918830312,,,,,,,,,,,,,,,,,1,001,2022-12-14_13h57.43.768,00_bat_bachelor,2022.2.4,59.825469248503715,
,,,,,,,,,,,,1,0,1,0,207,0,207,0,,,,,,,207,,,0.2,840.4787377072789,X,None,nogo,d,0,,0.34871688267594436,,,,,,,,,,,,,,,,,1,001,2022-12-14_13h57.43.768,00_bat_bachelor,2022.2.4,59.825469248503715,
,,,,,,,,,,,,1,0,1,0,208,0,208,0,,,,,,,208,,,0.2,841.0458147656645,Y,d,go,None,0,841.8463341351089,,,,,,,,,,,,,,,,,,1,001,2022-12-14_13h57.43.768,00_bat_bachelor,2022.2.4,59.825469248503715,
,,,,,,,,,,,,1,0,1,0,209,0,209,0,,,,,,,209,,,0.2,842.0465590077292,X,l,go,l,1,,0.7320665149891283,,,,,,,,,,,,,,,,,1,001,2022-12-14_13h57.43.768,00_bat_bachelor,2022.2.4,59.825469248503715,
,,,,,,,,,,,,1,0,1,0,210,0,210,0,,,,,,,210,,,0.2,842.9970157590215,X,None,nogo,None,1,843.7979453100852,,,,,,,,,,,,,,,,,,1,001,2022-12-14_13h57.43.768,00_bat_bachelor,2022.2.4,59.825469248503715,
,,,,,,,,,,,,1,0,1,0,211,0,211,0,,,,,,,211,,,0.2,843.9977609707821,Y,d,go,d,1,,0.4304579339514021,,,,,,,,,,,,,,,,,1,001,2022-12-14_13h57.43.768,00_bat_bachelor,2022.2.4,59.825469248503715,
,,,,,,,,,,,,1,0,1,0,212,0,212,0,,,,,,,212,,,0.2,844.648386594723,X,l,go,l,1,,0.3711110536387423,,,,,,,,,,,,,,,,,1,001,2022-12-14_13h57.43.768,00_bat_bachelor,2022.2.4,59.825469248503715,
,,,,,,,,,,,,1,0,1,0,213,0,213,0,,,,,,,213,,,0.2,845.2488973338659,Y,d,go,None,0,,,,,,,,,,,,,,,,,,,1,001,2022-12-14_13h57.43.768,00_bat_bachelor,2022.2.4,59.825469248503715,
,,,,,,,,,,,,1,0,1,0,214,0,214,0,,,,,,,214,,,0.2,846.2501613332533,X,l,go,l,1,,0.36836875193330343,,,,,,,,,,,,,,,,,1,001,2022-12-14_13h57.43.768,00_bat_bachelor,2022.2.4,59.825469248503715,
,,,,,,,,,,,,1,0,1,0,215,0,215,0,,,,,,,215,,,0.2,846.850656557257,Y,d,go,d,1,,0.5517252690951864,,,,,,,,,,,,,,,,,1,001,2022-12-14_13h57.43.768,00_bat_bachelor,2022.2.4,59.825469248503715,
,,,,,,,,,,,,1,0,1,0,216,0,216,0,,,,,,,216,,,0.2,847.6345010256955,X,l,go,l,1,,0.4237825432464888,,,,,,,,,,,,,,,,,1,001,2022-12-14_13h57.43.768,00_bat_bachelor,2022.2.4,59.825469248503715,
,,,,,,,,,,,,1,0,1,0,217,0,217,0,,,,,,,217,,,0.2,848.2850156193854,X,None,nogo,None,1,849.0855858978975,,,,,,,,,,,,,,,,,,1,001,2022-12-14_13h57.43.768,00_bat_bachelor,2022.2.4,59.825469248503715,
,,,,,,,,,,,,1,0,1,0,218,0,218,0,,,,,,,218,,,0.2,849.2858476189831,Y,d,go,d,1,,0.48494857420155313,,,,,,,,,,,,,,,,,1,001,2022-12-14_13h57.43.768,00_bat_bachelor,2022.2.4,59.825469248503715,
,,,,,,,,,,,,1,0,1,0,219,0,219,0,,,,,,,219,,,0.2,850.0028499380132,X,l,go,l,1,,0.4079798842431046,,,,,,,,,,,,,,,,,1,001,2022-12-14_13h57.43.768,00_bat_bachelor,2022.2.4,59.825469248503715,
,,,,,,,,,,,,1,0,1,0,220,0,220,0,,,,,,,220,,,0.2,850.636918479071,Y,d,go,d,1,,0.5263992207692354,,,,,,,,,,,,,,,,,1,001,2022-12-14_13h57.43.768,00_bat_bachelor,2022.2.4,59.825469248503715,
,,,,,,,,,,,,1,0,1,0,221,0,221,0,,,,,,,221,,,0.2,851.3874776303128,X,l,go,l,1,,0.31928465452438104,,,,,,,,,,,,,,,,,1,001,2022-12-14_13h57.43.768,00_bat_bachelor,2022.2.4,59.825469248503715,
,,,,,,,,,,,,1,0,1,0,222,0,222,0,,,,,,,222,,,0.2,851.9376397878113,X,None,nogo,None,1,852.7382575814518,,,,,,,,,,,,,,,,,,1,001,2022-12-14_13h57.43.768,00_bat_bachelor,2022.2.4,59.825469248503715,
,,,,,,,,,,,,1,0,1,0,223,0,223,0,,,,,,,223,,,0.2,852.9386545751986,Y,d,go,d,1,,0.5759448937169509,,,,,,,,,,,,,,,,,1,001,2022-12-14_13h57.43.768,00_bat_bachelor,2022.2.4,59.825469248503715,
,,,,,,,,,,,,1,0,1,0,224,0,224,0,,,,,,,224,,,0.2,853.7392849748903,X,l,go,l,1,,0.3830305630071962,,,,,,,,,,,,,,,,,1,001,2022-12-14_13h57.43.768,00_bat_bachelor,2022.2.4,59.825469248503715,
,,,,,,,,,,,,1,0,1,0,225,0,225,0,,,,,,,225,,,0.2,854.3396614110716,X,None,nogo,None,1,855.1402108411094,,,,,,,,,,,,,,,,,,1,001,2022-12-14_13h57.43.768,00_bat_bachelor,2022.2.4,59.825469248503715,
,,,,,,,,,,,,1,0,1,0,226,0,226,0,,,,,,,226,,,0.2,855.3405069864202,Y,d,go,d,1,,0.41457236589849344,,,,,,,,,,,,,,,,,1,001,2022-12-14_13h57.43.768,00_bat_bachelor,2022.2.4,59.825469248503715,
,,,,,,,,,,,,1,0,1,0,227,0,227,0,,,,,,,227,,,0.2,855.9742623155071,X,l,go,l,1,,0.3723052348723286,,,,,,,,,,,,,,,,,1,001,2022-12-14_13h57.43.768,00_bat_bachelor,2022.2.4,59.825469248503715,
,,,,,,,,,,,,1,0,1,0,228,0,228,0,,,,,,,228,,,0.2,856.5745238426534,X,None,nogo,None,1,857.3752749695632,,,,,,,,,,,,,,,,,,1,001,2022-12-14_13h57.43.768,00_bat_bachelor,2022.2.4,59.825469248503715,
,,,,,,,,,,,,1,0,1,0,229,0,229,0,,,,,,,229,,,0.2,857.5753185089379,Y,d,go,d,1,,0.4036080075748032,,,,,,,,,,,,,,,,,1,001,2022-12-14_13h57.43.768,00_bat_bachelor,2022.2.4,59.825469248503715,
,,,,,,,,,,,,1,0,1,0,230,0,230,0,,,,,,,230,,,0.2,858.2092862015561,X,l,go,l,1,,0.32941943748664926,,,,,,,,,,,,,,,,,1,001,2022-12-14_13h57.43.768,00_bat_bachelor,2022.2.4,59.825469248503715,
,,,,,,,,,,,,1,0,1,0,231,0,231,0,,,,,,,231,,,0.2,858.759658298346,Y,d,go,d,1,,0.7228223982601776,,,,,,,,,,,,,,,,,1,001,2022-12-14_13h57.43.768,00_bat_bachelor,2022.2.4,59.825469248503715,
,,,,,,,,,,,,1,0,1,0,232,0,232,0,,,,,,,232,,,0.2,859.7104641403821,Y,None,nogo,l,0,,0.4771696688767406,,,,,,,,,,,,,,,,,1,001,2022-12-14_13h57.43.768,00_bat_bachelor,2022.2.4,59.825469248503715,
,,,,,,,,,,,,1,0,1,0,233,0,233,0,,,,,,,233,,,0.2,860.410926346216,X,l,go,None,0,861.211344867228,,,,,,,,,,,,,,,,,,1,001,2022-12-14_13h57.43.768,00_bat_bachelor,2022.2.4,59.825469248503715,
,,,,,,,,,,,,1,0,1,0,234,0,234,0,,,,,,,234,,,0.2,861.4114873156432,Y,d,go,d,1,,0.5996597913108417,,,,,,,,,,,,,,,,,1,001,2022-12-14_13h57.43.768,00_bat_bachelor,2022.2.4,59.825469248503715,
,,,,,,,,,,,,1,0,1,0,235,0,235,0,,,,,,,235,,,0.2,862.2286054649194,X,l,go,l,1,,0.6145829355882597,,,,,,,,,,,,,,,,,1,001,2022-12-14_13h57.43.768,00_bat_bachelor,2022.2.4,59.825469248503715,
,,,,,,,,,,,,1,0,1,0,236,0,236,0,,,,,,,236,,,0.2,863.0625919696504,Y,d,go,d,1,,0.5320263695539325,,,,,,,,,,,,,,,,,1,001,2022-12-14_13h57.43.768,00_bat_bachelor,2022.2.4,59.825469248503715,
,,,,,,,,,,,,1,0,1,0,237,0,237,0,,,,,,,237,,,0.2,863.813122030002,X,l,go,l,1,,0.7415162073812098,,,,,,,,,,,,,,,,,1,001,2022-12-14_13h57.43.768,00_bat_bachelor,2022.2.4,59.825469248503715,
,,,,,,,,,,,,1,0,1,0,238,0,238,0,,,,,,,238,,,0.2,864.7805266518662,Y,d,go,d,1,,0.4635173118622333,,,,,,,,,,,,,,,,,1,001,2022-12-14_13h57.43.768,00_bat_bachelor,2022.2.4,59.825469248503715,
,,,,,,,,,,,,1,0,1,0,239,0,239,0,,,,,,,239,,,0.2,865.4643609869745,X,l,go,l,1,,0.46637161351100076,,,,,,,,,,,,,,,,,1,001,2022-12-14_13h57.43.768,00_bat_bachelor,2022.2.4,59.825469248503715,
,,,,,,,,,,,,1,0,1,0,240,0,240,0,,,,,,,240,,,0.2,866.1483713220005,Y,d,go,d,1,,0.5507667241035961,,,,,,,,,,,,,,,,,1,001,2022-12-14_13h57.43.768,00_bat_bachelor,2022.2.4,59.825469248503715,
,,,,,,,,,,,,1,0,1,0,241,0,241,0,,,,,,,241,,,0.2,866.9156911923928,X,l,go,l,1,,0.5193791029596468,,,,,,,,,,,,,,,,,1,001,2022-12-14_13h57.43.768,00_bat_bachelor,2022.2.4,59.825469248503715,
,,,,,,,,,,,,1,0,1,0,242,0,242,0,,,,,,,242,,,0.2,867.6662338587957,X,None,nogo,None,1,,,,,,,,,,,,,,,,,,,1,001,2022-12-14_13h57.43.768,00_bat_bachelor,2022.2.4,59.825469248503715,
,,,,,,,,,,,,1,0,1,0,243,0,243,0,,,,,,,243,,,0.2,868.6668147069977,Y,d,go,d,1,,0.3843551684258273,,,,,,,,,,,,,,,,,1,001,2022-12-14_13h57.43.768,00_bat_bachelor,2022.2.4,59.825469248503715,
,,,,,,,,,,,,1,0,1,0,244,0,244,0,,,,,,,244,,,0.2,869.2842757409562,X,l,go,None,0,870.08474904982,,,,,,,,,,,,,,,,,,1,001,2022-12-14_13h57.43.768,00_bat_bachelor,2022.2.4,59.825469248503715,
,,,,,,,,,,,,1,0,1,0,245,0,245,0,,,,,,,245,,,0.2,870.284905558834,Y,d,go,l,0,,0.3976560104638338,,,,,,,,,,,,,,,,,1,001,2022-12-14_13h57.43.768,00_bat_bachelor,2022.2.4,59.825469248503715,
,,,,,,,,,,,,1,0,1,0,246,0,246,0,,,,,,,246,,,0.2,870.9020524111256,X,l,go,None,0,,,,,,,,,,,,,,,,,,,1,001,2022-12-14_13h57.43.768,00_bat_bachelor,2022.2.4,59.825469248503715,
,,,,,,,,,,,,1,0,1,0,247,0,247,0,,,,,,,247,,,0.2,871.9025949563184,Y,d,go,d,1,,0.31627762567586615,,,,,,,,,,,,,,,,,1,001,2022-12-14_13h57.43.768,00_bat_bachelor,2022.2.4,59.825469248503715,
