loop_instruction.thisRepN,loop_instruction.thisTrialN,loop_instruction.thisN,loop_instruction.thisIndex,loop_rsi_practice.thisRepN,loop_rsi_practice.thisTrialN,loop_rsi_practice.thisN,loop_rsi_practice.thisIndex,loop_practice.thisRepN,loop_practice.thisTrialN,loop_practice.thisN,loop_practice.thisIndex,loop_exp.thisRepN,loop_exp.thisTrialN,loop_exp.thisN,loop_exp.thisIndex,loop_trials.thisRepN,loop_trials.thisTrialN,loop_trials.thisN,loop_trials.thisIndex,map_condition,map_x_key,map_y_key,key_resp_welcome.started,key_resp_welcome.keys,key_resp_welcome.rt,index,text_empty_rsi_practice.started,text_empty_rsi_practice.stopped,rsi,stimulus.started,stimulus.stopped,stimulus,correct,trial_type,key_resp_trial.keys,key_resp_trial.corr,key_resp_trial.rt,key_resp_instruction_rsi.started,key_resp_instruction_rsi.keys,key_resp_instruction_rsi.rt,key_resp_instruction_rsi.stopped,key_resp_instruction_final.started,key_resp_instruction_final.keys,key_resp_instruction_final.rt,key_resp_break.started,key_resp_break.keys,key_resp_break.rt,key_resp_break.stopped,key_resp_end_screen.started,image_end_screen.started,key_resp_end_screen.stopped,image_end_screen.stopped,key_resp_end_screen.keys,participant,session,Alter,Geschlecht (w/m/d/andere),Studiengang,date,expName,psychopyVersion,frameRate,
,,,,0,0,0,0,0,0,0,0,,,,,,,,,0,d,l,404.52471877589414,j,20.00468736818584,0,424.55757063875353,425.5700845720821,1,425.5700845720821,426.36921630583674,X,d,go,None,0,,,,,,,,,,,,,,,,,,20,001,20,w,Psychologie,2023-01-16_14h05.22.022,00_bat_bachelor,2022.2.4,59.65589052857752,
,,,,0,0,0,0,1,0,1,0,,,,,,,,,,,,,,,1,426.96952437841173,427.9702400144306,1,427.9702400144306,,Y,l,go,l,1,0.4449038820202986,,,,,,,,,,,,,,,,,20,001,20,w,Psychologie,2023-01-16_14h05.22.022,00_bat_bachelor,2022.2.4,59.65589052857752,
,,,,0,0,0,0,2,0,2,0,,,,,,,,,,,,,,,2,429.1212212745595,430.12209254686604,1,430.12209254686604,,X,d,go,d,1,0.5800815134462027,,,,,,,,,,,,,,,,,20,001,20,w,Psychologie,2023-01-16_14h05.22.022,00_bat_bachelor,2022.2.4,59.65589052857752,
,,,,0,0,0,0,3,0,3,0,,,,,,,,,,,,,,,3,431.40626792423427,432.40673240885735,1,432.40673240885735,,X,None,nogo,None,1,,,,,,,,,,,,,,,,,,20,001,20,w,Psychologie,2023-01-16_14h05.22.022,00_bat_bachelor,2022.2.4,59.65589052857752,
,,,,0,0,0,0,4,0,4,0,,,,,,,,,,,,,,,4,433.8081508808973,434.8096277286677,1,434.8096277286677,,Y,l,go,l,1,0.35526271336129867,,,,,,,,,,,,,,,,,20,001,20,w,Psychologie,2023-01-16_14h05.22.022,00_bat_bachelor,2022.2.4,59.65589052857752,
,,,,0,0,0,0,5,0,5,0,,,,,,,,,,,,,,,5,435.89375132424175,436.8944907178229,1,436.8944907178229,,X,d,go,d,1,0.4309678887766495,,,,,,,,,,,,,,,,,20,001,20,w,Psychologie,2023-01-16_14h05.22.022,00_bat_bachelor,2022.2.4,59.65589052857752,
,,,,0,0,0,0,6,0,6,0,,,,,,,,,,,,,,,6,438.04542640221916,439.04599367467017,1,439.04599367467017,,X,None,nogo,d,0,0.4066551732903463,,,,,,,,,,,,,,,,,20,001,20,w,Psychologie,2023-01-16_14h05.22.022,00_bat_bachelor,2022.2.4,59.65589052857752,
,,,,0,0,0,0,7,0,7,0,,,,,,,,,,,,,,,7,440.61347170255976,441.6143478233462,1,441.6143478233462,,Y,l,go,l,1,0.5608897651800362,,,,,,,,,,,,,,,,,20,001,20,w,Psychologie,2023-01-16_14h05.22.022,00_bat_bachelor,2022.2.4,59.65589052857752,
,,,,0,0,0,0,8,0,8,0,,,,,,,,,,,,,,,8,442.88168781494096,443.8823942388408,1,443.8823942388408,,X,d,go,d,1,0.38774463700610795,,,,,,,,,,,,,,,,,20,001,20,w,Psychologie,2023-01-16_14h05.22.022,00_bat_bachelor,2022.2.4,59.65589052857752,
,,,,0,0,0,0,9,0,9,0,,,,,,,,,,,,,,,9,444.9832795232578,445.98417940161016,1,445.98417940161016,,Y,l,go,l,1,0.5741343648187467,,,,,,,,,,,,,,,,,20,001,20,w,Psychologie,2023-01-16_14h05.22.022,00_bat_bachelor,2022.2.4,59.65589052857752,
,,,,0,0,0,0,10,0,10,0,,,,,,,,,,,,,,,10,447.2687741727168,448.26959502080354,1,448.26959502080354,,X,d,go,d,1,0.4649363571552385,,,,,,,,,,,,,,,,,20,001,20,w,Psychologie,2023-01-16_14h05.22.022,00_bat_bachelor,2022.2.4,59.65589052857752,
,,,,0,0,0,0,11,0,11,0,,,,,,,,,,,,,,,11,449.43686087909737,450.4377529998783,1,450.4377529998783,451.23840909653154,X,None,nogo,None,1,,,,,,,,,,,,,,,,,,20,001,20,w,Psychologie,2023-01-16_14h05.22.022,00_bat_bachelor,2022.2.4,59.65589052857752,
,,,,0,0,0,0,12,0,12,0,,,,,,,,,,,,,,,12,451.8388529266158,452.8394502596602,1,452.8394502596602,,Y,l,go,l,1,0.48616592261896585,,,,,,,,,,,,,,,,,20,001,20,w,Psychologie,2023-01-16_14h05.22.022,00_bat_bachelor,2022.2.4,59.65589052857752,
,,,,0,0,0,0,13,0,13,0,,,,,,,,,,,,,,,13,454.0406981620872,455.04137016176173,1,455.04137016176173,,X,d,go,d,1,0.46007914738947875,,,,,,,,,,,,,,,,,20,001,20,w,Psychologie,2023-01-16_14h05.22.022,00_bat_bachelor,2022.2.4,59.65589052857752,
,,,,0,0,0,0,14,0,14,0,,,,,,,,,,,,,,,14,456.2255615876056,457.2260915267434,1,457.2260915267434,,Y,l,go,l,1,0.499698522118706,,,,,,,,,,,,,,,,,20,001,20,w,Psychologie,2023-01-16_14h05.22.022,00_bat_bachelor,2022.2.4,59.65589052857752,
,,,,1,0,1,0,0,0,0,0,,,,,,,,,,,,,,,0,480.21037759496903,480.4103871949628,0.2,480.4103871949628,,X,d,go,d,1,0.5318667489482323,458.4691498331413,j,21.724584716113895,,,,,,,,,,,,,,20,001,20,w,Psychologie,2023-01-16_14h05.22.022,00_bat_bachelor,2022.2.4,59.65589052857752,
,,,,1,0,1,0,1,0,1,0,,,,,,,,,,,,,,,1,481.64488841460116,481.8449474691188,0.2,481.8449474691188,,Y,l,go,l,1,0.4086832935208804,,,,,,,,,,,,,,,,,20,001,20,w,Psychologie,2023-01-16_14h05.22.022,00_bat_bachelor,2022.2.4,59.65589052857752,
,,,,1,0,1,0,2,0,2,0,,,,,,,,,,,,,,,2,482.9624499576021,483.16253325453,0.2,483.16253325453,,X,d,go,d,1,0.43508376556565054,,,,,,,,,,,,,,,,,20,001,20,w,Psychologie,2023-01-16_14h05.22.022,00_bat_bachelor,2022.2.4,59.65589052857752,
,,,,1,0,1,0,3,0,3,0,,,,,,,,,,,,,,,3,484.3134951207321,484.5137587812096,0.2,484.5137587812096,,Y,l,go,l,1,0.42907164727148484,,,,,,,,,,,,,,,,,20,001,20,w,Psychologie,2023-01-16_14h05.22.022,00_bat_bachelor,2022.2.4,59.65589052857752,
,,,,1,0,1,0,4,0,4,0,,,,,,,,,,,,,,,4,485.64743629215445,485.8478104980313,0.2,485.8478104980313,,X,d,go,d,1,0.5661115808288741,,,,,,,,,,,,,,,,,20,001,20,w,Psychologie,2023-01-16_14h05.22.022,00_bat_bachelor,2022.2.4,59.65589052857752,
,,,,1,0,1,0,5,0,5,0,,,,,,,,,,,,,,,5,487.1155378833755,487.3153651804314,0.2,487.3153651804314,,X,None,nogo,None,1,,,,,,,,,,,,,,,,,,20,001,20,w,Psychologie,2023-01-16_14h05.22.022,00_bat_bachelor,2022.2.4,59.65589052857752,
,,,,1,0,1,0,6,0,6,0,,,,,,,,,,,,,,,6,488.7166765010079,488.91644949505644,0.2,488.91644949505644,,Y,l,go,l,1,0.4581286028806062,,,,,,,,,,,,,,,,,20,001,20,w,Psychologie,2023-01-16_14h05.22.022,00_bat_bachelor,2022.2.4,59.65589052857752,
,,,,1,0,1,0,7,0,7,0,,,,,,,,,,,,,,,7,490.08400674715085,490.28449974085015,0.2,490.28449974085015,,X,d,go,d,1,0.36968985788189457,,,,,,,,,,,,,,,,,20,001,20,w,Psychologie,2023-01-16_14h05.22.022,00_bat_bachelor,2022.2.4,59.65589052857752,
,,,,1,0,1,0,8,0,8,0,,,,,,,,,,,,,,,8,491.36863303339123,491.5684700274105,0.2,491.5684700274105,,X,None,nogo,None,1,,,,,,,,,,,,,,,,,,20,001,20,w,Psychologie,2023-01-16_14h05.22.022,00_bat_bachelor,2022.2.4,59.65589052857752,
,,,,1,0,1,0,9,0,9,0,,,,,,,,,,,,,,,9,492.96954377234215,493.1699970084883,0.2,493.1699970084883,,Y,l,go,l,1,0.33170636114664376,,,,,,,,,,,,,,,,,20,001,20,w,Psychologie,2023-01-16_14h05.22.022,00_bat_bachelor,2022.2.4,59.65589052857752,
,,,,1,0,1,0,10,0,10,0,,,,,,,,,,,,,,,10,494.2041051131637,494.4043314403243,0.2,494.4043314403243,,X,d,go,d,1,0.4087405056125135,,,,,,,,,,,,,,,,,20,001,20,w,Psychologie,2023-01-16_14h05.22.022,00_bat_bachelor,2022.2.4,59.65589052857752,
,,,,1,0,1,0,11,0,11,0,,,,,,,,,,,,,,,11,495.52256847390527,495.72261443751995,0.2,495.72261443751995,496.5231410796914,X,None,nogo,None,1,,,,,,,,,,,,,,,,,,20,001,20,w,Psychologie,2023-01-16_14h05.22.022,00_bat_bachelor,2022.2.4,59.65589052857752,
,,,,1,0,1,0,12,0,12,0,,,,,,,,,,,,,,,12,497.12390103083817,497.32392226719094,0.2,497.32392226719094,,Y,l,go,l,1,0.32234151720331283,,,,,,,,,,,,,,,,,20,001,20,w,Psychologie,2023-01-16_14h05.22.022,00_bat_bachelor,2022.2.4,59.65589052857752,
,,,,1,0,1,0,13,0,13,0,,,,,,,,,,,,,,,13,498.3578165537874,498.55822809298115,0.2,498.55822809298115,,X,d,go,d,1,0.35160792725582724,,,,,,,,,,,,,,,,,20,001,20,w,Psychologie,2023-01-16_14h05.22.022,00_bat_bachelor,2022.2.4,59.65589052857752,
,,,,1,0,1,0,14,0,14,0,,,,,,,,,,,,,,,14,499.6423225976614,499.8422982582815,0.2,499.8422982582815,500.6429378700923,X,None,nogo,None,1,,,,,,,,,,,,,,,,,,20,001,20,w,Psychologie,2023-01-16_14h05.22.022,00_bat_bachelor,2022.2.4,59.65589052857752,
,,,,,,,,,,,,,,,,,,,,,,,,,,,,,,,,,,,,,,501.3098548800699,None,,501.3098548800699,501.3098548800699,space,12.29158322908188,,,,,,,,,,20,001,20,w,Psychologie,2023-01-16_14h05.22.022,00_bat_bachelor,2022.2.4,59.65589052857752,
,,,,,,,,,,,,0,0,0,0,0,0,0,0,,,,,,,0,,,1,514.619804305552,,X,d,go,d,1,0.3533635627645708,,,,,,,,,,,,,,,,,20,001,20,w,Psychologie,2023-01-16_14h05.22.022,00_bat_bachelor,2022.2.4,59.65589052857752,
,,,,,,,,,,,,0,0,0,0,1,0,1,0,,,,,,,1,,,1,516.0877502604853,,Y,l,go,l,1,0.3747264615012682,,,,,,,,,,,,,,,,,20,001,20,w,Psychologie,2023-01-16_14h05.22.022,00_bat_bachelor,2022.2.4,59.65589052857752,
,,,,,,,,,,,,0,0,0,0,2,0,2,0,,,,,,,2,,,1,517.5716404501145,,X,d,go,d,1,0.2987565589392034,,,,,,,,,,,,,,,,,20,001,20,w,Psychologie,2023-01-16_14h05.22.022,00_bat_bachelor,2022.2.4,59.65589052857752,
,,,,,,,,,,,,0,0,0,0,3,0,3,0,,,,,,,3,,,1,518.9741406186004,,Y,l,go,l,1,0.38349833603570005,,,,,,,,,,,,,,,,,20,001,20,w,Psychologie,2023-01-16_14h05.22.022,00_bat_bachelor,2022.2.4,59.65589052857752,
,,,,,,,,,,,,0,0,0,0,4,0,4,0,,,,,,,4,,,1,520.4748172243308,521.2756599875611,Y,None,nogo,None,1,,,,,,,,,,,,,,,,,,20,001,20,w,Psychologie,2023-01-16_14h05.22.022,00_bat_bachelor,2022.2.4,59.65589052857752,
,,,,,,,,,,,,0,0,0,0,5,0,5,0,,,,,,,5,,,1,522.2760304116237,,X,d,go,d,1,0.3762760365061695,,,,,,,,,,,,,,,,,20,001,20,w,Psychologie,2023-01-16_14h05.22.022,00_bat_bachelor,2022.2.4,59.65589052857752,
,,,,,,,,,,,,0,0,0,0,6,0,6,0,,,,,,,6,,,1,523.7772258049808,,Y,l,go,l,1,0.4914420412751497,,,,,,,,,,,,,,,,,20,001,20,w,Psychologie,2023-01-16_14h05.22.022,00_bat_bachelor,2022.2.4,59.65589052857752,
,,,,,,,,,,,,0,0,0,0,7,0,7,0,,,,,,,7,,,1,525.4120133759934,,X,d,go,d,1,0.39313130105801974,,,,,,,,,,,,,,,,,20,001,20,w,Psychologie,2023-01-16_14h05.22.022,00_bat_bachelor,2022.2.4,59.65589052857752,
,,,,,,,,,,,,0,0,0,0,8,0,8,0,,,,,,,8,,,1,526.9300669429977,,Y,l,go,l,1,0.3954445120616583,,,,,,,,,,,,,,,,,20,001,20,w,Psychologie,2023-01-16_14h05.22.022,00_bat_bachelor,2022.2.4,59.65589052857752,
,,,,,,,,,,,,0,0,0,0,9,0,9,0,,,,,,,9,,,1,528.4474019648951,,Y,None,nogo,l,0,0.6059307130381058,,,,,,,,,,,,,,,,,20,001,20,w,Psychologie,2023-01-16_14h05.22.022,00_bat_bachelor,2022.2.4,59.65589052857752,
,,,,,,,,,,,,0,0,0,0,10,0,10,0,,,,,,,10,,,1,530.1823965176263,,X,d,go,d,1,0.5355971713797771,,,,,,,,,,,,,,,,,20,001,20,w,Psychologie,2023-01-16_14h05.22.022,00_bat_bachelor,2022.2.4,59.65589052857752,
,,,,,,,,,,,,0,0,0,0,11,0,11,0,,,,,,,11,,,1,531.8667224888632,,Y,l,go,l,1,0.4824495607863355,,,,,,,,,,,,,,,,,20,001,20,w,Psychologie,2023-01-16_14h05.22.022,00_bat_bachelor,2022.2.4,59.65589052857752,
,,,,,,,,,,,,0,0,0,0,12,0,12,0,,,,,,,12,,,1,533.4679318943381,534.2689715059532,Y,None,nogo,None,1,,,,,,,,,,,,,,,,,,20,001,20,w,Psychologie,2023-01-16_14h05.22.022,00_bat_bachelor,2022.2.4,59.65589052857752,
,,,,,,,,,,,,0,0,0,0,13,0,13,0,,,,,,,13,,,1,535.2694786572247,,X,d,go,d,1,0.3925737255740387,,,,,,,,,,,,,,,,,20,001,20,w,Psychologie,2023-01-16_14h05.22.022,00_bat_bachelor,2022.2.4,59.65589052857752,
,,,,,,,,,,,,0,0,0,0,14,0,14,0,,,,,,,14,,,1,536.7707787778054,,Y,l,go,l,1,0.410703656176338,,,,,,,,,,,,,,,,,20,001,20,w,Psychologie,2023-01-16_14h05.22.022,00_bat_bachelor,2022.2.4,59.65589052857752,
,,,,,,,,,,,,0,0,0,0,15,0,15,0,,,,,,,15,,,1,538.3049860339452,,X,d,go,d,1,0.49272543458937434,,,,,,,,,,,,,,,,,20,001,20,w,Psychologie,2023-01-16_14h05.22.022,00_bat_bachelor,2022.2.4,59.65589052857752,
,,,,,,,,,,,,0,0,0,0,16,0,16,0,,,,,,,16,,,1,539.9228310677208,,Y,l,go,l,1,0.34699120221921476,,,,,,,,,,,,,,,,,20,001,20,w,Psychologie,2023-01-16_14h05.22.022,00_bat_bachelor,2022.2.4,59.65589052857752,
,,,,,,,,,,,,0,0,0,0,17,0,17,0,,,,,,,17,,,1,541.3903983561722,,X,d,go,d,1,0.3984045106226404,,,,,,,,,,,,,,,,,20,001,20,w,Psychologie,2023-01-16_14h05.22.022,00_bat_bachelor,2022.2.4,59.65589052857752,
,,,,,,,,,,,,0,0,0,0,18,0,18,0,,,,,,,18,,,1,542.9076024690403,,X,None,nogo,None,1,,,,,,,,,,,,,,,,,,20,001,20,w,Psychologie,2023-01-16_14h05.22.022,00_bat_bachelor,2022.2.4,59.65589052857752,
,,,,,,,,,,,,0,0,0,0,19,0,19,0,,,,,,,19,,,1,544.7090798986283,,X,None,nogo,d,0,0.5688296401167463,,,,,,,,,,,,,,,,,20,001,20,w,Psychologie,2023-01-16_14h05.22.022,00_bat_bachelor,2022.2.4,59.65589052857752,
,,,,,,,,,,,,0,0,0,0,20,0,20,0,,,,,,,20,,,1,546.3939154453765,,Y,l,go,l,1,0.4835472572231083,,,,,,,,,,,,,,,,,20,001,20,w,Psychologie,2023-01-16_14h05.22.022,00_bat_bachelor,2022.2.4,59.65589052857752,
,,,,,,,,,,,,0,0,0,0,21,0,21,0,,,,,,,21,,,1,547.9782768590194,,X,d,go,d,1,0.5476820140065684,,,,,,,,,,,,,,,,,20,001,20,w,Psychologie,2023-01-16_14h05.22.022,00_bat_bachelor,2022.2.4,59.65589052857752,
,,,,,,,,,,,,0,0,0,0,22,0,22,0,,,,,,,22,,,1,549.6297330280104,550.4300414884638,X,None,nogo,None,1,,,,,,,,,,,,,,,,,,20,001,20,w,Psychologie,2023-01-16_14h05.22.022,00_bat_bachelor,2022.2.4,59.65589052857752,
,,,,,,,,,,,,0,0,0,0,23,0,23,0,,,,,,,23,,,1,551.4309539728711,,Y,l,go,l,1,0.42315601377777057,,,,,,,,,,,,,,,,,20,001,20,w,Psychologie,2023-01-16_14h05.22.022,00_bat_bachelor,2022.2.4,59.65589052857752,
,,,,,,,,,,,,0,0,0,0,24,0,24,0,,,,,,,24,,,1,552.9656620772548,,X,d,go,d,1,0.44143091400837875,,,,,,,,,,,,,,,,,20,001,20,w,Psychologie,2023-01-16_14h05.22.022,00_bat_bachelor,2022.2.4,59.65589052857752,
,,,,,,,,,,,,0,0,0,0,25,0,25,0,,,,,,,25,,,1,554.5164249617337,,Y,l,go,l,1,0.44210630761881475,,,,,,,,,,,,,,,,,20,001,20,w,Psychologie,2023-01-16_14h05.22.022,00_bat_bachelor,2022.2.4,59.65589052857752,
,,,,,,,,,,,,0,0,0,0,26,0,26,0,,,,,,,26,,,1,556.0678942701124,,Y,None,nogo,None,1,,,,,,,,,,,,,,,,,,20,001,20,w,Psychologie,2023-01-16_14h05.22.022,00_bat_bachelor,2022.2.4,59.65589052857752,
,,,,,,,,,,,,0,0,0,0,27,0,27,0,,,,,,,27,,,1,557.8693600633414,,Y,None,nogo,None,1,,,,,,,,,,,,,,,,,,20,001,20,w,Psychologie,2023-01-16_14h05.22.022,00_bat_bachelor,2022.2.4,59.65589052857752,
,,,,,,,,,,,,0,0,0,0,28,0,28,0,,,,,,,28,,,1,559.6709267050064,,X,d,go,d,1,0.47081950581923593,,,,,,,,,,,,,,,,,20,001,20,w,Psychologie,2023-01-16_14h05.22.022,00_bat_bachelor,2022.2.4,59.65589052857752,
,,,,,,,,,,,,0,0,0,0,29,0,29,0,,,,,,,29,,,1,561.2552633913874,,Y,l,go,l,1,0.5189998460955394,,,,,,,,,,,,,,,,,20,001,20,w,Psychologie,2023-01-16_14h05.22.022,00_bat_bachelor,2022.2.4,59.65589052857752,
,,,,,,,,,,,,0,0,0,0,30,0,30,0,,,,,,,30,,,1,562.8898129019108,563.6904108167728,Y,None,nogo,None,1,,,,,,,,,,,,,,,,,,20,001,20,w,Psychologie,2023-01-16_14h05.22.022,00_bat_bachelor,2022.2.4,59.65589052857752,
,,,,,,,,,,,,0,0,0,0,31,0,31,0,,,,,,,31,,,1,564.6911545739858,,X,d,go,d,1,0.4117572314244171,,,,,,,,,,,,,,,,,20,001,20,w,Psychologie,2023-01-16_14h05.22.022,00_bat_bachelor,2022.2.4,59.65589052857752,
,,,,,,,,,,,,0,0,0,0,32,0,32,0,,,,,,,32,,,1,566.2088032927022,,Y,l,go,l,1,0.5093566992545675,,,,,,,,,,,,,,,,,20,001,20,w,Psychologie,2023-01-16_14h05.22.022,00_bat_bachelor,2022.2.4,59.65589052857752,
,,,,,,,,,,,,0,0,0,0,33,0,33,0,,,,,,,33,,,1,567.8269649323811,,Y,None,nogo,None,1,,,,,,,,,,,,,,,,,,20,001,20,w,Psychologie,2023-01-16_14h05.22.022,00_bat_bachelor,2022.2.4,59.65589052857752,
,,,,,,,,,,,,0,0,0,0,34,0,34,0,,,,,,,34,,,1,569.628267816599,,X,d,go,d,1,0.3693213732112781,,,,,,,,,,,,,,,,,20,001,20,w,Psychologie,2023-01-16_14h05.22.022,00_bat_bachelor,2022.2.4,59.65589052857752,
,,,,,,,,,,,,0,0,0,0,35,0,35,0,,,,,,,35,,,1,571.1134433389379,,Y,l,go,l,1,0.4517601211191504,,,,,,,,,,,,,,,,,20,001,20,w,Psychologie,2023-01-16_14h05.22.022,00_bat_bachelor,2022.2.4,59.65589052857752,
,,,,,,,,,,,,0,0,0,0,36,0,36,0,,,,,,,36,,,1,572.6976384496302,,X,d,go,d,1,0.43592837122196215,,,,,,,,,,,,,,,,,20,001,20,w,Psychologie,2023-01-16_14h05.22.022,00_bat_bachelor,2022.2.4,59.65589052857752,
,,,,,,,,,,,,0,0,0,0,37,0,37,0,,,,,,,37,,,1,574.2489846065546,,Y,l,go,l,1,0.35566077377370675,,,,,,,,,,,,,,,,,20,001,20,w,Psychologie,2023-01-16_14h05.22.022,00_bat_bachelor,2022.2.4,59.65589052857752,
,,,,,,,,,,,,0,0,0,0,38,0,38,0,,,,,,,38,,,1,575.7334192807684,,X,d,go,d,1,0.6007593216054374,,,,,,,,,,,,,,,,,20,001,20,w,Psychologie,2023-01-16_14h05.22.022,00_bat_bachelor,2022.2.4,59.65589052857752,
,,,,,,,,,,,,0,0,0,0,39,0,39,0,,,,,,,39,,,1,577.4346999104491,578.2353501889229,X,None,nogo,None,1,,,,,,,,,,,,,,,,,,20,001,20,w,Psychologie,2023-01-16_14h05.22.022,00_bat_bachelor,2022.2.4,59.65589052857752,
,,,,,,,,,,,,0,0,0,0,40,0,40,0,,,,,,,40,,,1,579.2361312794528,,Y,l,go,l,1,0.265033423773275,,,,,,,,,,,,,,,,,20,001,20,w,Psychologie,2023-01-16_14h05.22.022,00_bat_bachelor,2022.2.4,59.65589052857752,
,,,,,,,,,,,,0,0,0,0,41,0,41,0,,,,,,,41,,,1,580.6204942446093,,X,d,go,d,1,0.4650168419648253,,,,,,,,,,,,,,,,,20,001,20,w,Psychologie,2023-01-16_14h05.22.022,00_bat_bachelor,2022.2.4,59.65589052857752,
,,,,,,,,,,,,0,0,0,0,42,0,42,0,,,,,,,42,,,1,582.2050054763604,583.0054705428047,X,None,nogo,None,1,,,,,,,,,,,,,,,,,,20,001,20,w,Psychologie,2023-01-16_14h05.22.022,00_bat_bachelor,2022.2.4,59.65589052857752,
,,,,,,,,,,,,0,0,0,0,43,0,43,0,,,,,,,43,,,1,584.0064984210912,,Y,l,go,l,1,0.326542727285414,,,,,,,,,,,,,,,,,20,001,20,w,Psychologie,2023-01-16_14h05.22.022,00_bat_bachelor,2022.2.4,59.65589052857752,
,,,,,,,,,,,,0,0,0,0,44,0,44,0,,,,,,,44,,,1,585.4574683842584,,X,d,go,d,1,0.3317664823262021,,,,,,,,,,,,,,,,,20,001,20,w,Psychologie,2023-01-16_14h05.22.022,00_bat_bachelor,2022.2.4,59.65589052857752,
,,,,,,,,,,,,0,0,0,0,45,0,45,0,,,,,,,45,,,1,586.90863374127,,Y,l,go,l,1,0.4968820386347943,,,,,,,,,,,,,,,,,20,001,20,w,Psychologie,2023-01-16_14h05.22.022,00_bat_bachelor,2022.2.4,59.65589052857752,
,,,,,,,,,,,,0,0,0,0,46,0,46,0,,,,,,,46,,,1,588.509831995234,,X,d,go,d,1,0.41564329014363466,,,,,,,,,,,,,,,,,20,001,20,w,Psychologie,2023-01-16_14h05.22.022,00_bat_bachelor,2022.2.4,59.65589052857752,
,,,,,,,,,,,,0,0,0,0,47,0,47,0,,,,,,,47,,,1,590.0270782899024,,Y,l,go,l,1,0.338902963718283,,,,,,,,,,,,,,,,,20,001,20,w,Psychologie,2023-01-16_14h05.22.022,00_bat_bachelor,2022.2.4,59.65589052857752,
,,,,,,,,,,,,0,0,0,0,48,0,48,0,,,,,,,48,,,1,591.4787134648686,,X,d,go,d,1,0.3905460901951301,,,,,,,,,,,,,,,,,20,001,20,w,Psychologie,2023-01-16_14h05.22.022,00_bat_bachelor,2022.2.4,59.65589052857752,
,,,,,,,,,,,,0,0,0,0,49,0,49,0,,,,,,,49,,,1,592.9968169712411,,Y,l,go,l,1,0.329557998549717,,,,,,,,,,,,,,,,,20,001,20,w,Psychologie,2023-01-16_14h05.22.022,00_bat_bachelor,2022.2.4,59.65589052857752,
,,,,,,,,,,,,0,0,0,0,50,0,50,0,,,,,,,50,,,1,594.4306955487555,595.2314723726195,Y,None,nogo,None,1,,,,,,,,,,,,,,,,,,20,001,20,w,Psychologie,2023-01-16_14h05.22.022,00_bat_bachelor,2022.2.4,59.65589052857752,
,,,,,,,,,,,,0,0,0,0,51,0,51,0,,,,,,,51,,,1,596.23204546325,,X,d,go,d,1,0.38997978743645945,,,,,,,,,,,,,,,,,20,001,20,w,Psychologie,2023-01-16_14h05.22.022,00_bat_bachelor,2022.2.4,59.65589052857752,
,,,,,,,,,,,,0,0,0,0,52,0,52,0,,,,,,,52,,,1,597.7338488563182,,Y,l,go,l,1,0.35930392352020135,,,,,,,,,,,,,,,,,20,001,20,w,Psychologie,2023-01-16_14h05.22.022,00_bat_bachelor,2022.2.4,59.65589052857752,
,,,,,,,,,,,,0,0,0,0,53,0,53,0,,,,,,,53,,,1,599.2182238941969,,X,d,go,d,1,0.23517307461588643,,,,,,,,,,,,,,,,,20,001,20,w,Psychologie,2023-01-16_14h05.22.022,00_bat_bachelor,2022.2.4,59.65589052857752,
,,,,,,,,,,,,0,0,0,0,54,0,54,0,,,,,,,54,,,1,600.6023458897726,,Y,l,go,l,1,0.40208790277756634,,,,,,,,,,,,,,,,,20,001,20,w,Psychologie,2023-01-16_14h05.22.022,00_bat_bachelor,2022.2.4,59.65589052857752,
,,,,,,,,,,,,0,0,0,0,55,0,55,0,,,,,,,55,,,1,602.1371281759384,,Y,None,nogo,l,0,0.4681746586174995,,,,,,,,,,,,,,,,,20,001,20,w,Psychologie,2023-01-16_14h05.22.022,00_bat_bachelor,2022.2.4,59.65589052857752,
,,,,,,,,,,,,0,0,0,0,56,0,56,0,,,,,,,56,,,1,603.7550963611648,,X,d,go,d,1,0.3223483050787763,,,,,,,,,,,,,,,,,20,001,20,w,Psychologie,2023-01-16_14h05.22.022,00_bat_bachelor,2022.2.4,59.65589052857752,
,,,,,,,,,,,,0,0,0,0,57,0,57,0,,,,,,,57,,,1,605.222700013237,,Y,l,go,l,1,0.3753698551299749,,,,,,,,,,,,,,,,,20,001,20,w,Psychologie,2023-01-16_14h05.22.022,00_bat_bachelor,2022.2.4,59.65589052857752,
,,,,,,,,,,,,0,0,0,0,58,0,58,0,,,,,,,58,,,1,606.7237189218358,,X,d,go,d,1,0.4425024286392727,,,,,,,,,,,,,,,,,20,001,20,w,Psychologie,2023-01-16_14h05.22.022,00_bat_bachelor,2022.2.4,59.65589052857752,
,,,,,,,,,,,,0,0,0,0,59,0,59,0,,,,,,,59,,,1,608.2749307757913,,Y,l,go,l,1,0.39555893624856253,,,,,,,,,,,,,,,,,20,001,20,w,Psychologie,2023-01-16_14h05.22.022,00_bat_bachelor,2022.2.4,59.65589052857752,
,,,,,,,,,,,,0,0,0,0,60,0,60,0,,,,,,,60,,,1,609.7758430177746,610.5764729326183,Y,None,nogo,None,1,,,,,,,,,,,,,,,,,,20,001,20,w,Psychologie,2023-01-16_14h05.22.022,00_bat_bachelor,2022.2.4,59.65589052857752,
,,,,,,,,,,,,0,0,0,0,61,0,61,0,,,,,,,61,,,1,611.5772389928534,,X,d,go,d,1,0.3883259700560302,,,,,,,,,,,,,,,,,20,001,20,w,Psychologie,2023-01-16_14h05.22.022,00_bat_bachelor,2022.2.4,59.65589052857752,
,,,,,,,,,,,,0,0,0,0,62,0,62,0,,,,,,,62,,,1,613.0783674771556,,Y,l,go,l,1,0.4547050893888809,,,,,,,,,,,,,,,,,20,001,20,w,Psychologie,2023-01-16_14h05.22.022,00_bat_bachelor,2022.2.4,59.65589052857752,
,,,,,,,,,,,,0,0,0,0,63,0,63,0,,,,,,,63,,,1,614.662912163436,615.463532866168,Y,None,nogo,None,1,,,,,,,,,,,,,,,,,,20,001,20,w,Psychologie,2023-01-16_14h05.22.022,00_bat_bachelor,2022.2.4,59.65589052857752,
,,,,,,,,,,,,0,0,0,0,64,0,64,0,,,,,,,64,,,1,616.4643066839744,,Y,None,nogo,l,0,0.5575569183092739,,,,,,,,,,,,,,,,,20,001,20,w,Psychologie,2023-01-16_14h05.22.022,00_bat_bachelor,2022.2.4,59.65589052857752,
,,,,,,,,,,,,0,0,0,0,65,0,65,0,,,,,,,65,,,1,618.1488876853873,,X,d,go,d,1,0.4245630433979386,,,,,,,,,,,,,,,,,20,001,20,w,Psychologie,2023-01-16_14h05.22.022,00_bat_bachelor,2022.2.4,59.65589052857752,
,,,,,,,,,,,,0,0,0,0,66,0,66,0,,,,,,,66,,,1,619.700089842383,,Y,l,go,l,1,0.4736170802207198,,,,,,,,,,,,,,,,,20,001,20,w,Psychologie,2023-01-16_14h05.22.022,00_bat_bachelor,2022.2.4,59.65589052857752,
,,,,,,,,,,,,0,0,0,0,67,0,67,0,,,,,,,67,,,1,621.3015305204717,,X,d,go,d,1,0.5359065045631723,,,,,,,,,,,,,,,,,20,001,20,w,Psychologie,2023-01-16_14h05.22.022,00_bat_bachelor,2022.2.4,59.65589052857752,
,,,,,,,,,,,,0,0,0,0,68,0,68,0,,,,,,,68,,,1,622.9692203785598,,Y,l,go,l,1,0.35752016681362875,,,,,,,,,,,,,,,,,20,001,20,w,Psychologie,2023-01-16_14h05.22.022,00_bat_bachelor,2022.2.4,59.65589052857752,
,,,,,,,,,,,,0,0,0,0,69,0,69,0,,,,,,,69,,,1,624.4372046365061,625.237827763478,Y,None,nogo,None,1,,,,,,,,,,,,,,,,,,20,001,20,w,Psychologie,2023-01-16_14h05.22.022,00_bat_bachelor,2022.2.4,59.65589052857752,
,,,,,,,,,,,,0,0,0,0,70,0,70,0,,,,,,,70,,,1,626.2387126115354,,X,d,go,d,1,0.3997392978562857,,,,,,,,,,,,,,,,,20,001,20,w,Psychologie,2023-01-16_14h05.22.022,00_bat_bachelor,2022.2.4,59.65589052857752,
,,,,,,,,,,,,0,0,0,0,71,0,71,0,,,,,,,71,,,1,627.7395812171744,,Y,l,go,l,1,0.5151409388745378,,,,,,,,,,,,,,,,,20,001,20,w,Psychologie,2023-01-16_14h05.22.022,00_bat_bachelor,2022.2.4,59.65589052857752,
,,,,,,,,,,,,0,0,0,0,72,0,72,0,,,,,,,72,,,1,629.3574868569776,630.1581856202756,Y,None,nogo,None,1,,,,,,,,,,,,,,,,,,20,001,20,w,Psychologie,2023-01-16_14h05.22.022,00_bat_bachelor,2022.2.4,59.65589052857752,
,,,,,,,,,,,,0,0,0,0,73,0,73,0,,,,,,,73,,,1,631.1589710744374,,X,d,go,d,1,0.4240728618169669,,,,,,,,,,,,,,,,,20,001,20,w,Psychologie,2023-01-16_14h05.22.022,00_bat_bachelor,2022.2.4,59.65589052857752,
,,,,,,,,,,,,0,0,0,0,74,0,74,0,,,,,,,74,,,1,632.6935967546196,,Y,l,go,l,1,0.3439642945959349,,,,,,,,,,,,,,,,,20,001,20,w,Psychologie,2023-01-16_14h05.22.022,00_bat_bachelor,2022.2.4,59.65589052857752,
,,,,,,,,,,,,0,0,0,0,75,0,75,0,,,,,,,75,,,1,634.1447213843785,634.9450492387659,Y,None,nogo,None,1,,,,,,,,,,,,,,,,,,20,001,20,w,Psychologie,2023-01-16_14h05.22.022,00_bat_bachelor,2022.2.4,59.65589052857752,
,,,,,,,,,,,,0,0,0,0,76,0,76,0,,,,,,,76,,,1,635.9459762686201,,X,d,go,d,1,0.4039240230995347,,,,,,,,,,,,,,,,,20,001,20,w,Psychologie,2023-01-16_14h05.22.022,00_bat_bachelor,2022.2.4,59.65589052857752,
,,,,,,,,,,,,0,0,0,0,77,0,77,0,,,,,,,77,,,1,637.463808259974,,Y,l,go,l,1,0.5338589904058608,,,,,,,,,,,,,,,,,20,001,20,w,Psychologie,2023-01-16_14h05.22.022,00_bat_bachelor,2022.2.4,59.65589052857752,
,,,,,,,,,,,,0,0,0,0,78,0,78,0,,,,,,,78,,,1,639.09850322497,,X,d,go,d,1,0.5479229835837032,,,,,,,,,,,,,,,,,20,001,20,w,Psychologie,2023-01-16_14h05.22.022,00_bat_bachelor,2022.2.4,59.65589052857752,
,,,,,,,,,,,,0,0,0,0,79,0,79,0,,,,,,,79,,,1,640.7663065375491,641.5667381494604,X,None,nogo,None,1,,,,,,,,,,,,,,,,,,20,001,20,w,Psychologie,2023-01-16_14h05.22.022,00_bat_bachelor,2022.2.4,59.65589052857752,
,,,,,,,,,,,,0,0,0,0,80,0,80,0,,,,,,,80,,,1,642.5680229973223,,Y,l,go,l,1,0.3580457423158805,,,,,,,,,,,,,,,,,20,001,20,w,Psychologie,2023-01-16_14h05.22.022,00_bat_bachelor,2022.2.4,59.65589052857752,
,,,,,,,,,,,,0,0,0,0,81,0,81,0,,,,,,,81,,,1,644.0352940434932,,X,d,go,d,1,0.4423254590292345,,,,,,,,,,,,,,,,,20,001,20,w,Psychologie,2023-01-16_14h05.22.022,00_bat_bachelor,2022.2.4,59.65589052857752,
,,,,,,,,,,,,0,0,0,0,82,0,82,0,,,,,,,82,,,1,645.6032898893136,,X,None,nogo,d,0,0.6185134948136692,,,,,,,,,,,,,,,,,20,001,20,w,Psychologie,2023-01-16_14h05.22.022,00_bat_bachelor,2022.2.4,59.65589052857752,
,,,,,,,,,,,,0,0,0,0,83,0,83,0,,,,,,,83,,,1,647.3544546160228,,Y,l,go,l,1,0.45144157582035405,,,,,,,,,,,,,,,,,20,001,20,w,Psychologie,2023-01-16_14h05.22.022,00_bat_bachelor,2022.2.4,59.65589052857752,
,,,,,,,,,,,,0,0,0,0,84,0,84,0,,,,,,,84,,,1,648.9225324011968,,X,d,go,d,1,0.6585939602300641,,,,,,,,,,,,,,,,,20,001,20,w,Psychologie,2023-01-16_14h05.22.022,00_bat_bachelor,2022.2.4,59.65589052857752,
,,,,,,,,,,,,0,0,0,0,85,0,85,0,,,,,,,85,,,1,650.707208869233,,Y,l,go,l,1,0.33077011917703203,,,,,,,,,,,,,,,,,20,001,20,w,Psychologie,2023-01-16_14h05.22.022,00_bat_bachelor,2022.2.4,59.65589052857752,
,,,,,,,,,,,,0,0,0,0,86,0,86,0,,,,,,,86,,,1,652.1413967799308,652.9420683917269,Y,None,nogo,None,1,,,,,,,,,,,,,,,,,,20,001,20,w,Psychologie,2023-01-16_14h05.22.022,00_bat_bachelor,2022.2.4,59.65589052857752,
,,,,,,,,,,,,0,0,0,0,87,0,87,0,,,,,,,87,,,1,653.9430230579273,,X,d,go,d,1,0.35877737832197454,,,,,,,,,,,,,,,,,20,001,20,w,Psychologie,2023-01-16_14h05.22.022,00_bat_bachelor,2022.2.4,59.65589052857752,
,,,,,,,,,,,,0,0,0,0,88,0,88,0,,,,,,,88,,,1,655.42749700485,,Y,l,go,l,1,0.4741028981625277,,,,,,,,,,,,,,,,,20,001,20,w,Psychologie,2023-01-16_14h05.22.022,00_bat_bachelor,2022.2.4,59.65589052857752,
,,,,,,,,,,,,0,0,0,0,89,0,89,0,,,,,,,89,,,1,657.0285260467754,,X,d,go,d,1,0.47277489880798385,,,,,,,,,,,,,,,,,20,001,20,w,Psychologie,2023-01-16_14h05.22.022,00_bat_bachelor,2022.2.4,59.65589052857752,
,,,,,,,,,,,,0,0,0,0,90,0,90,0,,,,,,,90,,,1,658.6132569147849,659.414027920473,X,None,nogo,None,1,,,,,,,,,,,,,,,,,,20,001,20,w,Psychologie,2023-01-16_14h05.22.022,00_bat_bachelor,2022.2.4,59.65589052857752,
,,,,,,,,,,,,0,0,0,0,91,0,91,0,,,,,,,91,,,1,660.4146174959424,661.2150602593647,X,None,nogo,None,1,,,,,,,,,,,,,,,,,,20,001,20,w,Psychologie,2023-01-16_14h05.22.022,00_bat_bachelor,2022.2.4,59.65589052857752,
,,,,,,,,,,,,0,0,0,0,92,0,92,0,,,,,,,92,,,1,662.2159242589478,,Y,l,go,l,1,0.24544894842256326,,,,,,,,,,,,,,,,,20,001,20,w,Psychologie,2023-01-16_14h05.22.022,00_bat_bachelor,2022.2.4,59.65589052857752,
,,,,,,,,,,,,0,0,0,0,93,0,93,0,,,,,,,93,,,1,663.5671982704516,,X,d,go,d,1,0.4148917753591377,,,,,,,,,,,,,,,,,20,001,20,w,Psychologie,2023-01-16_14h05.22.022,00_bat_bachelor,2022.2.4,59.65589052857752,
,,,,,,,,,,,,0,0,0,0,94,0,94,0,,,,,,,94,,,1,665.1013294054173,665.9019554414772,X,None,nogo,None,1,,,,,,,,,,,,,,,,,,20,001,20,w,Psychologie,2023-01-16_14h05.22.022,00_bat_bachelor,2022.2.4,59.65589052857752,
,,,,,,,,,,,,0,0,0,0,95,0,95,0,,,,,,,95,,,1,666.9026764108239,,X,None,nogo,d,0,0.45556230109286844,,,,,,,,,,,,,,,,,20,001,20,w,Psychologie,2023-01-16_14h05.22.022,00_bat_bachelor,2022.2.4,59.65589052857752,
,,,,,,,,,,,,0,0,0,0,96,0,96,0,,,,,,,96,,,1,668.4707634081169,,Y,l,go,l,1,0.48653925577309565,,,,,,,,,,,,,,,,,20,001,20,w,Psychologie,2023-01-16_14h05.22.022,00_bat_bachelor,2022.2.4,59.65589052857752,
,,,,,,,,,,,,0,0,0,0,97,0,97,0,,,,,,,97,,,1,670.0721531771378,,X,d,go,d,1,0.5495462555263657,,,,,,,,,,,,,,,,,20,001,20,w,Psychologie,2023-01-16_14h05.22.022,00_bat_bachelor,2022.2.4,59.65589052857752,
,,,,,,,,,,,,0,0,0,0,98,0,98,0,,,,,,,98,,,1,671.7231361342383,,Y,l,go,l,1,0.37024258488600026,,,,,,,,,,,,,,,,,20,001,20,w,Psychologie,2023-01-16_14h05.22.022,00_bat_bachelor,2022.2.4,59.65589052857752,
,,,,,,,,,,,,0,0,0,0,99,0,99,0,,,,,,,99,,,1,673.2243819518153,,Y,None,nogo,l,0,0.6139787091342441,,,,,,,,,,,,,,,,,20,001,20,w,Psychologie,2023-01-16_14h05.22.022,00_bat_bachelor,2022.2.4,59.65589052857752,
,,,,,,,,,,,,0,0,0,0,100,0,100,0,,,,,,,100,,,1,674.9425571187603,,X,d,go,d,1,0.4311172220404842,,,,,,,,,,,,,,,,,20,001,20,w,Psychologie,2023-01-16_14h05.22.022,00_bat_bachelor,2022.2.4,59.65589052857752,
,,,,,,,,,,,,0,0,0,0,101,0,101,0,,,,,,,101,,,1,676.4768642536437,,Y,l,go,l,1,0.35314538105376414,,,,,,,,,,,,,,,,,20,001,20,w,Psychologie,2023-01-16_14h05.22.022,00_bat_bachelor,2022.2.4,59.65589052857752,
,,,,,,,,,,,,0,0,0,0,102,0,102,0,,,,,,,102,,,1,677.9446400268425,,X,d,go,d,1,0.3890222121444822,,,,,,,,,,,,,,,,,20,001,20,w,Psychologie,2023-01-16_14h05.22.022,00_bat_bachelor,2022.2.4,59.65589052857752,
,,,,,,,,,,,,0,0,0,0,103,0,103,0,,,,,,,103,,,1,679.4624148061012,680.2628842361773,X,None,nogo,None,1,,,,,,,,,,,,,,,,,,20,001,20,w,Psychologie,2023-01-16_14h05.22.022,00_bat_bachelor,2022.2.4,59.65589052857752,
,,,,,,,,,,,,0,0,0,0,104,0,104,0,,,,,,,104,,,1,681.2637778115022,,Y,l,go,l,1,0.38116233716573333,,,,,,,,,,,,,,,,,20,001,20,w,Psychologie,2023-01-16_14h05.22.022,00_bat_bachelor,2022.2.4,59.65589052857752,
,,,,,,,,,,,,0,0,0,0,105,0,105,0,,,,,,,105,,,1,682.7650401139217,,X,d,go,d,1,0.3848864565734402,,,,,,,,,,,,,,,,,20,001,20,w,Psychologie,2023-01-16_14h05.22.022,00_bat_bachelor,2022.2.4,59.65589052857752,
,,,,,,,,,,,,0,0,0,0,106,0,106,0,,,,,,,106,,,1,684.265940719546,,Y,l,go,l,1,0.5640354606221081,,,,,,,,,,,,,,,,,20,001,20,w,Psychologie,2023-01-16_14h05.22.022,00_bat_bachelor,2022.2.4,59.65589052857752,
,,,,,,,,,,,,0,0,0,0,107,0,107,0,,,,,,,107,,,1,685.9343719106073,,X,d,go,d,1,0.46351381239219336,,,,,,,,,,,,,,,,,20,001,20,w,Psychologie,2023-01-16_14h05.22.022,00_bat_bachelor,2022.2.4,59.65589052857752,
,,,,,,,,,,,,0,0,0,0,108,0,108,0,,,,,,,108,,,1,687.5183784153342,688.3193438451672,X,None,nogo,None,1,,,,,,,,,,,,,,,,,,20,001,20,w,Psychologie,2023-01-16_14h05.22.022,00_bat_bachelor,2022.2.4,59.65589052857752,
,,,,,,,,,,,,0,0,0,0,109,0,109,0,,,,,,,109,,,1,689.3201016629828,,Y,l,go,l,1,0.37404428001173073,,,,,,,,,,,,,,,,,20,001,20,w,Psychologie,2023-01-16_14h05.22.022,00_bat_bachelor,2022.2.4,59.65589052857752,
,,,,,,,,,,,,0,0,0,0,110,0,110,0,,,,,,,110,,,1,690.821206874567,,X,d,go,d,1,0.47307162593642715,,,,,,,,,,,,,,,,,20,001,20,w,Psychologie,2023-01-16_14h05.22.022,00_bat_bachelor,2022.2.4,59.65589052857752,
,,,,,,,,,,,,0,0,0,0,111,0,111,0,,,,,,,111,,,1,692.4055886518363,693.2062495969694,X,None,nogo,None,1,,,,,,,,,,,,,,,,,,20,001,20,w,Psychologie,2023-01-16_14h05.22.022,00_bat_bachelor,2022.2.4,59.65589052857752,
,,,,,,,,,,,,0,0,0,0,112,0,112,0,,,,,,,112,,,1,694.2070525056733,,Y,l,go,l,1,0.38251506378583144,,,,,,,,,,,,,,,,,20,001,20,w,Psychologie,2023-01-16_14h05.22.022,00_bat_bachelor,2022.2.4,59.65589052857752,
,,,,,,,,,,,,0,0,0,0,113,0,113,0,,,,,,,113,,,1,695.6909630589289,,X,d,go,d,1,0.3705970089577022,,,,,,,,,,,,,,,,,20,001,20,w,Psychologie,2023-01-16_14h05.22.022,00_bat_bachelor,2022.2.4,59.65589052857752,
,,,,,,,,,,,,0,0,0,0,114,0,114,0,,,,,,,114,,,1,697.1754243997966,,Y,l,go,l,1,0.4076277788808511,,,,,,,,,,,,,,,,,20,001,20,w,Psychologie,2023-01-16_14h05.22.022,00_bat_bachelor,2022.2.4,59.65589052857752,
,,,,,,,,,,,,0,0,0,0,115,0,115,0,,,,,,,115,,,1,698.6931254821211,,Y,None,nogo,None,1,,,,,,,,,,,,,,,,,,20,001,20,w,Psychologie,2023-01-16_14h05.22.022,00_bat_bachelor,2022.2.4,59.65589052857752,
,,,,,,,,,,,,0,0,0,0,116,0,116,0,,,,,,,116,,,1,700.4946533359252,,X,d,go,d,1,0.44801418354109046,,,,,,,,,,,,,,,,,20,001,20,w,Psychologie,2023-01-16_14h05.22.022,00_bat_bachelor,2022.2.4,59.65589052857752,
,,,,,,,,,,,,0,0,0,0,117,0,117,0,,,,,,,117,,,1,702.0455960991058,,Y,l,go,l,1,0.39951432827001554,,,,,,,,,,,,,,,,,20,001,20,w,Psychologie,2023-01-16_14h05.22.022,00_bat_bachelor,2022.2.4,59.65589052857752,
,,,,,,,,,,,,0,0,0,0,118,0,118,0,,,,,,,118,,,1,703.546899128778,,Y,None,nogo,None,1,,,,,,,,,,,,,,,,,,20,001,20,w,Psychologie,2023-01-16_14h05.22.022,00_bat_bachelor,2022.2.4,59.65589052857752,
,,,,,,,,,,,,0,0,0,0,119,0,119,0,,,,,,,119,,,1,705.3482907402249,,X,d,go,d,1,0.39458681550604524,,,,,,,,,,,,,,,,,20,001,20,w,Psychologie,2023-01-16_14h05.22.022,00_bat_bachelor,2022.2.4,59.65589052857752,
,,,,,,,,,,,,0,0,0,0,120,0,120,0,,,,,,,120,,,1,706.8492538912724,,Y,l,go,l,1,0.4129140793484112,,,,,,,,,,,,,,,,,20,001,20,w,Psychologie,2023-01-16_14h05.22.022,00_bat_bachelor,2022.2.4,59.65589052857752,
,,,,,,,,,,,,0,0,0,0,121,0,121,0,,,,,,,121,,,1,708.3673350946265,,X,d,go,d,1,0.4307492222178553,,,,,,,,,,,,,,,,,20,001,20,w,Psychologie,2023-01-16_14h05.22.022,00_bat_bachelor,2022.2.4,59.65589052857752,
,,,,,,,,,,,,0,0,0,0,122,0,122,0,,,,,,,122,,,1,709.9025004109099,,Y,l,go,l,1,0.41465032093037735,,,,,,,,,,,,,,,,,20,001,20,w,Psychologie,2023-01-16_14h05.22.022,00_bat_bachelor,2022.2.4,59.65589052857752,
,,,,,,,,,,,,0,0,0,0,123,0,123,0,,,,,,,123,,,1,711.4368361518391,,X,d,go,d,1,0.4000656007301586,,,,,,,,,,,,,,,,,20,001,20,w,Psychologie,2023-01-16_14h05.22.022,00_bat_bachelor,2022.2.4,59.65589052857752,
,,,,,,,,,,,,0,0,0,0,124,0,124,0,,,,,,,124,,,1,712.9548320219001,,X,None,nogo,l,0,0.21045114720982383,,,,,,,,,,,,,,,,,20,001,20,w,Psychologie,2023-01-16_14h05.22.022,00_bat_bachelor,2022.2.4,59.65589052857752,
,,,,,,,,,,,,0,0,0,0,125,0,125,0,,,,,,,125,,,1,714.2890495568245,,Y,l,go,l,1,0.5715016388203367,,,,,,,,,,,,,,,,,20,001,20,w,Psychologie,2023-01-16_14h05.22.022,00_bat_bachelor,2022.2.4,59.65589052857752,
,,,,,,,,,,,,0,0,0,0,126,0,126,0,,,,,,,126,,,1,716.0074545418393,,X,d,go,d,1,0.470353566648555,,,,,,,,,,,,,,,,,20,001,20,w,Psychologie,2023-01-16_14h05.22.022,00_bat_bachelor,2022.2.4,59.65589052857752,
,,,,,,,,,,,,0,0,0,0,127,0,127,0,,,,,,,127,,,1,717.6249180000414,,Y,l,go,l,1,0.5164960897309356,,,,,,,,,,,,,,,,,20,001,20,w,Psychologie,2023-01-16_14h05.22.022,00_bat_bachelor,2022.2.4,59.65589052857752,
,,,,,,,,,,,,0,0,0,0,128,0,128,0,,,,,,,128,,,1,719.259780722532,,X,d,go,d,1,0.6419030592333002,,,,,,,,,,,,,,,,,20,001,20,w,Psychologie,2023-01-16_14h05.22.022,00_bat_bachelor,2022.2.4,59.65589052857752,
,,,,,,,,,,,,0,0,0,0,129,0,129,0,,,,,,,129,,,1,721.027849198621,,Y,l,go,l,1,0.45751478499369114,,,,,,,,,,,,,,,,,20,001,20,w,Psychologie,2023-01-16_14h05.22.022,00_bat_bachelor,2022.2.4,59.65589052857752,
,,,,,,,,,,,,0,0,0,0,130,0,130,0,,,,,,,130,,,1,722.6122590970881,723.413073254269,Y,None,nogo,None,1,,,,,,,,,,,,,,,,,,20,001,20,w,Psychologie,2023-01-16_14h05.22.022,00_bat_bachelor,2022.2.4,59.65589052857752,
,,,,,,,,,,,,0,0,0,0,131,0,131,0,,,,,,,131,,,1,724.4136114358262,,X,d,go,d,1,0.3849296080697968,,,,,,,,,,,,,,,,,20,001,20,w,Psychologie,2023-01-16_14h05.22.022,00_bat_bachelor,2022.2.4,59.65589052857752,
,,,,,,,,,,,,0,0,0,0,132,0,132,0,,,,,,,132,,,1,725.93134597268,,Y,l,go,l,1,0.51399427276192,,,,,,,,,,,,,,,,,20,001,20,w,Psychologie,2023-01-16_14h05.22.022,00_bat_bachelor,2022.2.4,59.65589052857752,
,,,,,,,,,,,,0,0,0,0,133,0,133,0,,,,,,,133,,,1,727.5657480893351,728.3668129130601,Y,None,nogo,None,1,,,,,,,,,,,,,,,,,,20,001,20,w,Psychologie,2023-01-16_14h05.22.022,00_bat_bachelor,2022.2.4,59.65589052857752,
,,,,,,,,,,,,0,0,0,0,134,0,134,0,,,,,,,134,,,1,729.3672550946649,,X,d,go,d,1,0.3426518103842682,,,,,,,,,,,,,,,,,20,001,20,w,Psychologie,2023-01-16_14h05.22.022,00_bat_bachelor,2022.2.4,59.65589052857752,
,,,,,,,,,,,,0,0,0,0,135,0,135,0,,,,,,,135,,,1,730.8520180111445,,Y,l,go,l,1,0.6333459724701243,,,,,,,,,,,,,,,,,20,001,20,w,Psychologie,2023-01-16_14h05.22.022,00_bat_bachelor,2022.2.4,59.65589052857752,
,,,,,,,,,,,,0,0,0,0,136,0,136,0,,,,,,,136,,,1,732.6199250327627,,X,d,go,d,1,0.6095942264146288,,,,,,,,,,,,,,,,,20,001,20,w,Psychologie,2023-01-16_14h05.22.022,00_bat_bachelor,2022.2.4,59.65589052857752,
,,,,,,,,,,,,0,0,0,0,137,0,137,0,,,,,,,137,,,1,734.3545801917207,,Y,l,go,l,1,0.4588806025130907,,,,,,,,,,,,,,,,,20,001,20,w,Psychologie,2023-01-16_14h05.22.022,00_bat_bachelor,2022.2.4,59.65589052857752,
,,,,,,,,,,,,0,0,0,0,138,0,138,0,,,,,,,138,,,1,735.9387685145375,,X,d,go,d,1,0.6353944563270488,,,,,,,,,,,,,,,,,20,001,20,w,Psychologie,2023-01-16_14h05.22.022,00_bat_bachelor,2022.2.4,59.65589052857752,
,,,,,,,,,,,,0,0,0,0,139,0,139,0,,,,,,,139,,,1,737.6901630593165,,Y,l,go,l,1,0.37214222032707767,,,,,,,,,,,,,,,,,20,001,20,w,Psychologie,2023-01-16_14h05.22.022,00_bat_bachelor,2022.2.4,59.65589052857752,
,,,,,,,,,,,,0,0,0,0,140,0,140,0,,,,,,,140,,,1,739.1745953092868,739.9751893453649,Y,None,nogo,None,1,,,,,,,,,,,,,,,,,,20,001,20,w,Psychologie,2023-01-16_14h05.22.022,00_bat_bachelor,2022.2.4,59.65589052857752,
,,,,,,,,,,,,0,0,0,0,141,0,141,0,,,,,,,141,,,1,740.9760475267649,,X,d,go,d,1,0.5741542435971496,,,,,,,,,,,,,,,,,20,001,20,w,Psychologie,2023-01-16_14h05.22.022,00_bat_bachelor,2022.2.4,59.65589052857752,
,,,,,,,,,,,,0,0,0,0,142,0,142,0,,,,,,,142,,,1,742.6604738615897,,Y,l,go,l,1,0.376819551391236,,,,,,,,,,,,,,,,,20,001,20,w,Psychologie,2023-01-16_14h05.22.022,00_bat_bachelor,2022.2.4,59.65589052857752,
,,,,,,,,,,,,0,0,0,0,143,0,143,0,,,,,,,143,,,1,744.1617933761008,744.9623592909775,Y,None,nogo,None,1,,,,,,,,,,,,,,,,,,20,001,20,w,Psychologie,2023-01-16_14h05.22.022,00_bat_bachelor,2022.2.4,59.65589052857752,
,,,,,,,,,,,,0,0,0,0,144,0,144,0,,,,,,,144,,,1,745.9629750482563,,X,d,go,d,1,0.3709645239287056,,,,,,,,,,,,,,,,,20,001,20,w,Psychologie,2023-01-16_14h05.22.022,00_bat_bachelor,2022.2.4,59.65589052857752,
,,,,,,,,,,,,0,0,0,0,145,0,145,0,,,,,,,145,,,1,747.4473956618713,,Y,l,go,l,1,0.4068006277666427,,,,,,,,,,,,,,,,,20,001,20,w,Psychologie,2023-01-16_14h05.22.022,00_bat_bachelor,2022.2.4,59.65589052857752,
,,,,,,,,,,,,0,0,0,0,146,0,146,0,,,,,,,146,,,1,748.9653697137619,749.7658216892996,Y,None,nogo,None,1,,,,,,,,,,,,,,,,,,20,001,20,w,Psychologie,2023-01-16_14h05.22.022,00_bat_bachelor,2022.2.4,59.65589052857752,
,,,,,,,,,,,,0,0,0,0,147,0,147,0,,,,,,,147,,,1,750.7666367192069,751.5672283310414,Y,None,nogo,None,1,,,,,,,,,,,,,,,,,,20,001,20,w,Psychologie,2023-01-16_14h05.22.022,00_bat_bachelor,2022.2.4,59.65589052857752,
,,,,,,,,,,,,0,0,0,0,148,0,148,0,,,,,,,148,,,1,752.5680399670127,,X,d,go,d,1,0.32541836419477477,,,,,,,,,,,,,,,,,20,001,20,w,Psychologie,2023-01-16_14h05.22.022,00_bat_bachelor,2022.2.4,59.65589052857752,
,,,,,,,,,,,,0,0,0,0,149,0,149,0,,,,,,,149,,,1,754.019539384466,,Y,l,go,l,1,0.490262890329177,,,,,,,,,,,,,,,,,20,001,20,w,Psychologie,2023-01-16_14h05.22.022,00_bat_bachelor,2022.2.4,59.65589052857752,
,,,,,,,,,,,,0,0,0,0,150,0,150,0,,,,,,,150,,,1,755.6369907214612,756.4376104544936,Y,None,nogo,None,1,,,,,,,,,,,,,,,,,,20,001,20,w,Psychologie,2023-01-16_14h05.22.022,00_bat_bachelor,2022.2.4,59.65589052857752,
,,,,,,,,,,,,0,0,0,0,151,0,151,0,,,,,,,151,,,1,757.4385311813203,,Y,None,nogo,l,0,0.5439171673497185,,,,,,,,,,,,,,,,,20,001,20,w,Psychologie,2023-01-16_14h05.22.022,00_bat_bachelor,2022.2.4,59.65589052857752,
,,,,,,,,,,,,0,0,0,0,152,0,152,0,,,,,,,152,,,1,759.089953895782,,X,d,go,d,1,0.4115521406165499,,,,,,,,,,,,,,,,,20,001,20,w,Psychologie,2023-01-16_14h05.22.022,00_bat_bachelor,2022.2.4,59.65589052857752,
,,,,,,,,,,,,0,0,0,0,153,0,153,0,,,,,,,153,,,1,760.6076380084196,761.4082257414666,Y,l,go,None,0,,,,,,,,,,,,,,,,,,20,001,20,w,Psychologie,2023-01-16_14h05.22.022,00_bat_bachelor,2022.2.4,59.65589052857752,
,,,,,,,,,,,,0,0,0,0,154,0,154,0,,,,,,,154,,,1,762.4089278017345,,Y,None,nogo,l,0,0.38920015145413345,,,,,,,,,,,,,,,,,20,001,20,w,Psychologie,2023-01-16_14h05.22.022,00_bat_bachelor,2022.2.4,59.65589052857752,
,,,,,,,,,,,,0,0,0,0,155,0,155,0,,,,,,,155,,,1,763.9100019830294,,X,d,go,d,1,0.4561048462855979,,,,,,,,,,,,,,,,,20,001,20,w,Psychologie,2023-01-16_14h05.22.022,00_bat_bachelor,2022.2.4,59.65589052857752,
,,,,,,,,,,,,0,0,0,0,156,0,156,0,,,,,,,156,,,1,765.477880010727,,Y,l,go,l,1,0.5192005732715188,,,,,,,,,,,,,,,,,20,001,20,w,Psychologie,2023-01-16_14h05.22.022,00_bat_bachelor,2022.2.4,59.65589052857752,
,,,,,,,,,,,,0,0,0,0,157,0,157,0,,,,,,,157,,,1,767.1292600585402,,X,d,go,d,1,0.4517669089946139,,,,,,,,,,,,,,,,,20,001,20,w,Psychologie,2023-01-16_14h05.22.022,00_bat_bachelor,2022.2.4,59.65589052857752,
,,,,,,,,,,,,0,0,0,0,158,0,158,0,,,,,,,158,,,1,768.7137198963792,,Y,l,go,l,1,0.42003165165442624,,,,,,,,,,,,,,,,,20,001,20,w,Psychologie,2023-01-16_14h05.22.022,00_bat_bachelor,2022.2.4,59.65589052857752,
,,,,,,,,,,,,0,0,0,0,159,0,159,0,,,,,,,159,,,1,770.2480910312297,771.048901794471,Y,None,nogo,None,1,,,,,,,,,,,,,,,,,,20,001,20,w,Psychologie,2023-01-16_14h05.22.022,00_bat_bachelor,2022.2.4,59.65589052857752,
,,,,,,,,,,,,0,0,0,0,160,0,160,0,,,,,,,160,,,1,772.049668339554,,X,d,go,d,1,0.3480961713794386,,,,,,,,,,,,,,,,,20,001,20,w,Psychologie,2023-01-16_14h05.22.022,00_bat_bachelor,2022.2.4,59.65589052857752,
,,,,,,,,,,,,0,0,0,0,161,0,161,0,,,,,,,161,,,1,773.5005621815471,,Y,l,go,l,1,0.49820470466147526,,,,,,,,,,,,,,,,,20,001,20,w,Psychologie,2023-01-16_14h05.22.022,00_bat_bachelor,2022.2.4,59.65589052857752,
,,,,,,,,,,,,0,0,0,0,162,0,162,0,,,,,,,162,,,1,775.1019989808483,,X,d,go,d,1,0.48011453161598183,,,,,,,,,,,,,,,,,20,001,20,w,Psychologie,2023-01-16_14h05.22.022,00_bat_bachelor,2022.2.4,59.65589052857752,
,,,,,,,,,,,,0,0,0,0,163,0,163,0,,,,,,,163,,,1,776.6866260913339,,Y,l,go,l,1,0.3185238220830797,,,,,,,,,,,,,,,,,20,001,20,w,Psychologie,2023-01-16_14h05.22.022,00_bat_bachelor,2022.2.4,59.65589052857752,
,,,,,,,,,,,,0,0,0,0,164,0,164,0,,,,,,,164,,,1,778.1376605393161,,X,d,go,d,1,0.42050534839290776,,,,,,,,,,,,,,,,,20,001,20,w,Psychologie,2023-01-16_14h05.22.022,00_bat_bachelor,2022.2.4,59.65589052857752,
,,,,,,,,,,,,0,0,0,0,165,0,165,0,,,,,,,165,,,1,779.6721334922986,780.4727464374555,X,None,nogo,None,1,,,,,,,,,,,,,,,,,,20,001,20,w,Psychologie,2023-01-16_14h05.22.022,00_bat_bachelor,2022.2.4,59.65589052857752,
,,,,,,,,,,,,0,0,0,0,166,0,166,0,,,,,,,166,,,1,781.4736991642676,,Y,l,go,l,1,0.5557111010239169,,,,,,,,,,,,,,,,,20,001,20,w,Psychologie,2023-01-16_14h05.22.022,00_bat_bachelor,2022.2.4,59.65589052857752,
,,,,,,,,,,,,0,0,0,0,167,0,167,0,,,,,,,167,,,1,783.157916529497,,X,d,go,d,1,0.4085470511636231,,,,,,,,,,,,,,,,,20,001,20,w,Psychologie,2023-01-16_14h05.22.022,00_bat_bachelor,2022.2.4,59.65589052857752,
,,,,,,,,,,,,0,0,0,0,168,0,168,0,,,,,,,168,,,1,784.6758740965452,785.4764012235646,X,None,nogo,None,1,,,,,,,,,,,,,,,,,,20,001,20,w,Psychologie,2023-01-16_14h05.22.022,00_bat_bachelor,2022.2.4,59.65589052857752,
,,,,,,,,,,,,0,0,0,0,169,0,169,0,,,,,,,169,,,1,786.4773340715947,,Y,l,go,l,1,0.4966900387298665,,,,,,,,,,,,,,,,,20,001,20,w,Psychologie,2023-01-16_14h05.22.022,00_bat_bachelor,2022.2.4,59.65589052857752,
,,,,,,,,,,,,0,0,0,0,170,0,170,0,,,,,,,170,,,1,788.078651598229,,X,d,go,d,1,0.39938487378822174,,,,,,,,,,,,,,,,,20,001,20,w,Psychologie,2023-01-16_14h05.22.022,00_bat_bachelor,2022.2.4,59.65589052857752,
,,,,,,,,,,,,0,0,0,0,171,0,171,0,,,,,,,171,,,1,789.5963778926671,,Y,l,go,l,1,0.5469566810243123,,,,,,,,,,,,,,,,,20,001,20,w,Psychologie,2023-01-16_14h05.22.022,00_bat_bachelor,2022.2.4,59.65589052857752,
,,,,,,,,,,,,0,0,0,0,172,0,172,0,,,,,,,172,,,1,791.2474180618592,,X,d,go,d,1,0.478710411083739,,,,,,,,,,,,,,,,,20,001,20,w,Psychologie,2023-01-16_14h05.22.022,00_bat_bachelor,2022.2.4,59.65589052857752,
,,,,,,,,,,,,0,0,0,0,173,0,173,0,,,,,,,173,,,1,792.8321542632002,,Y,l,go,l,1,0.41344304879021365,,,,,,,,,,,,,,,,,20,001,20,w,Psychologie,2023-01-16_14h05.22.022,00_bat_bachelor,2022.2.4,59.65589052857752,
,,,,,,,,,,,,0,0,0,0,174,0,174,0,,,,,,,174,,,1,794.366740185822,,X,d,go,d,1,0.5599622504742001,,,,,,,,,,,,,,,,,20,001,20,w,Psychologie,2023-01-16_14h05.22.022,00_bat_bachelor,2022.2.4,59.65589052857752,
,,,,,,,,,,,,0,0,0,0,175,0,175,0,,,,,,,175,,,1,796.0346113771593,,Y,l,go,l,1,0.3798333681152144,,,,,,,,,,,,,,,,,20,001,20,w,Psychologie,2023-01-16_14h05.22.022,00_bat_bachelor,2022.2.4,59.65589052857752,
,,,,,,,,,,,,0,0,0,0,176,0,176,0,,,,,,,176,,,1,797.519074172571,,X,d,go,d,1,0.4786192596111505,,,,,,,,,,,,,,,,,20,001,20,w,Psychologie,2023-01-16_14h05.22.022,00_bat_bachelor,2022.2.4,59.65589052857752,
,,,,,,,,,,,,0,0,0,0,177,0,177,0,,,,,,,177,,,1,799.1034738892267,799.9040233192609,X,None,nogo,None,1,,,,,,,,,,,,,,,,,,20,001,20,w,Psychologie,2023-01-16_14h05.22.022,00_bat_bachelor,2022.2.4,59.65589052857752,
,,,,,,,,,,,,0,0,0,0,178,0,178,0,,,,,,,178,,,1,800.9046002886789,,Y,l,go,l,1,0.40541396177286515,,,,,,,,,,,,,,,,,20,001,20,w,Psychologie,2023-01-16_14h05.22.022,00_bat_bachelor,2022.2.4,59.65589052857752,
,,,,,,,,,,,,0,0,0,0,179,0,179,0,,,,,,,179,,,1,802.422491916368,,X,d,go,d,1,0.3125727946680854,,,,,,,,,,,,,,,,,20,001,20,w,Psychologie,2023-01-16_14h05.22.022,00_bat_bachelor,2022.2.4,59.65589052857752,
,,,,,,,,,,,,0,0,0,0,180,0,180,0,,,,,,,180,,,1,803.8400325624098,,X,None,nogo,None,1,,,,,,,,,,,,,,,,,,20,001,20,w,Psychologie,2023-01-16_14h05.22.022,00_bat_bachelor,2022.2.4,59.65589052857752,
,,,,,,,,,,,,0,0,0,0,181,0,181,0,,,,,,,181,,,1,805.6413616284299,,Y,l,go,l,1,0.3569596822344465,,,,,,,,,,,,,,,,,20,001,20,w,Psychologie,2023-01-16_14h05.22.022,00_bat_bachelor,2022.2.4,59.65589052857752,
,,,,,,,,,,,,0,0,0,0,182,0,182,0,,,,,,,182,,,1,807.1091340076928,,X,d,go,d,1,0.37748864197783405,,,,,,,,,,,,,,,,,20,001,20,w,Psychologie,2023-01-16_14h05.22.022,00_bat_bachelor,2022.2.4,59.65589052857752,
,,,,,,,,,,,,0,0,0,0,183,0,183,0,,,,,,,183,,,1,808.5936758333701,,Y,l,go,l,1,0.6198870699081453,,,,,,,,,,,,,,,,,20,001,20,w,Psychologie,2023-01-16_14h05.22.022,00_bat_bachelor,2022.2.4,59.65589052857752,
,,,,,,,,,,,,0,0,0,0,184,0,184,0,,,,,,,184,,,1,810.3279712349249,,X,d,go,d,1,0.341967204654793,,,,,,,,,,,,,,,,,20,001,20,w,Psychologie,2023-01-16_14h05.22.022,00_bat_bachelor,2022.2.4,59.65589052857752,
,,,,,,,,,,,,0,0,0,0,185,0,185,0,,,,,,,185,,,1,811.779422167554,812.5799235976119,X,None,nogo,None,1,,,,,,,,,,,,,,,,,,20,001,20,w,Psychologie,2023-01-16_14h05.22.022,00_bat_bachelor,2022.2.4,59.65589052857752,
,,,,,,,,,,,,0,0,0,0,186,0,186,0,,,,,,,186,,,1,813.5808234759643,,Y,l,go,l,1,0.5617430980964855,,,,,,,,,,,,,,,,,20,001,20,w,Psychologie,2023-01-16_14h05.22.022,00_bat_bachelor,2022.2.4,59.65589052857752,
,,,,,,,,,,,,0,0,0,0,187,0,187,0,,,,,,,187,,,1,815.2487746672632,,X,d,go,d,1,0.3011846789777337,,,,,,,,,,,,,,,,,20,001,20,w,Psychologie,2023-01-16_14h05.22.022,00_bat_bachelor,2022.2.4,59.65589052857752,
,,,,,,,,,,,,0,0,0,0,188,0,188,0,,,,,,,188,,,1,816.6661233133964,,X,None,nogo,None,1,,,,,,,,,,,,,,,,,,20,001,20,w,Psychologie,2023-01-16_14h05.22.022,00_bat_bachelor,2022.2.4,59.65589052857752,
,,,,,,,,,,,,0,0,0,0,189,0,189,0,,,,,,,189,,,1,818.4678131065157,,Y,l,go,l,1,0.5384272306146158,,,,,,,,,,,,,,,,,20,001,20,w,Psychologie,2023-01-16_14h05.22.022,00_bat_bachelor,2022.2.4,59.65589052857752,
,,,,,,,,,,,,0,0,0,0,190,0,190,0,,,,,,,190,,,1,820.1191611543472,,X,d,go,d,1,0.48686119501144276,,,,,,,,,,,,,,,,,20,001,20,w,Psychologie,2023-01-16_14h05.22.022,00_bat_bachelor,2022.2.4,59.65589052857752,
,,,,,,,,,,,,0,0,0,0,191,0,191,0,,,,,,,191,,,1,821.7203579537672,,Y,l,go,l,1,0.5334255360685347,,,,,,,,,,,,,,,,,20,001,20,w,Psychologie,2023-01-16_14h05.22.022,00_bat_bachelor,2022.2.4,59.65589052857752,
,,,,,,,,,,,,0,0,0,0,192,0,192,0,,,,,,,192,,,1,823.354627706849,,X,d,go,d,1,0.5954259908576205,,,,,,,,,,,,,,,,,20,001,20,w,Psychologie,2023-01-16_14h05.22.022,00_bat_bachelor,2022.2.4,59.65589052857752,
,,,,,,,,,,,,0,0,0,0,193,0,193,0,,,,,,,193,,,1,825.055940336515,,X,None,nogo,None,1,,,,,,,,,,,,,,,,,,20,001,20,w,Psychologie,2023-01-16_14h05.22.022,00_bat_bachelor,2022.2.4,59.65589052857752,
,,,,,,,,,,,,0,0,0,0,194,0,194,0,,,,,,,194,,,1,826.8573721903667,,Y,l,go,l,1,0.4521887269729632,,,,,,,,,,,,,,,,,20,001,20,w,Psychologie,2023-01-16_14h05.22.022,00_bat_bachelor,2022.2.4,59.65589052857752,
,,,,,,,,,,,,0,0,0,0,195,0,195,0,,,,,,,195,,,1,828.4253151877274,,X,d,go,d,1,0.45276036305949674,,,,,,,,,,,,,,,,,20,001,20,w,Psychologie,2023-01-16_14h05.22.022,00_bat_bachelor,2022.2.4,59.65589052857752,
,,,,,,,,,,,,0,0,0,0,196,0,196,0,,,,,,,196,,,1,829.9932247305587,,Y,l,go,l,1,0.5007967034034664,,,,,,,,,,,,,,,,,20,001,20,w,Psychologie,2023-01-16_14h05.22.022,00_bat_bachelor,2022.2.4,59.65589052857752,
,,,,,,,,,,,,0,0,0,0,197,0,197,0,,,,,,,197,,,1,831.6111323097539,,X,d,go,d,1,0.40292087207126315,,,,,,,,,,,,,,,,,20,001,20,w,Psychologie,2023-01-16_14h05.22.022,00_bat_bachelor,2022.2.4,59.65589052857752,
,,,,,,,,,,,,0,0,0,0,198,0,198,0,,,,,,,198,,,1,833.1286864830618,,X,None,nogo,None,1,,,,,,,,,,,,,,,,,,20,001,20,w,Psychologie,2023-01-16_14h05.22.022,00_bat_bachelor,2022.2.4,59.65589052857752,
,,,,,,,,,,,,0,0,0,0,199,0,199,0,,,,,,,199,,,1,834.9303685186096,,Y,l,go,l,1,0.4927516163952532,,,,,,,,,,,,,,,,,20,001,20,w,Psychologie,2023-01-16_14h05.22.022,00_bat_bachelor,2022.2.4,59.65589052857752,
,,,,,,,,,,,,0,0,0,0,200,0,200,0,,,,,,,200,,,1,836.5316060452824,,X,d,go,None,0,,,,,,,,,,,,,,,,,,20,001,20,w,Psychologie,2023-01-16_14h05.22.022,00_bat_bachelor,2022.2.4,59.65589052857752,
,,,,,,,,,,,,0,0,0,0,201,0,201,0,,,,,,,201,,,1,838.332672323555,,X,None,nogo,None,1,,,,,,,,,,,,,,,,,,20,001,20,w,Psychologie,2023-01-16_14h05.22.022,00_bat_bachelor,2022.2.4,59.65589052857752,
,,,,,,,,,,,,0,0,0,0,202,0,202,0,,,,,,,202,,,1,840.1343766621212,,Y,l,go,l,1,0.3602304685264244,,,,,,,,,,,,,,,,,20,001,20,w,Psychologie,2023-01-16_14h05.22.022,00_bat_bachelor,2022.2.4,59.65589052857752,
,,,,,,,,,,,,0,0,0,0,203,0,203,0,,,,,,,203,,,1,841.6020176475067,,X,d,go,d,1,0.5406075931932719,,,,,,,,,,,,,,,,,20,001,20,w,Psychologie,2023-01-16_14h05.22.022,00_bat_bachelor,2022.2.4,59.65589052857752,
,,,,,,,,,,,,0,0,0,0,204,0,204,0,,,,,,,204,,,1,843.2534039983511,,X,None,nogo,d,0,0.5680480647388322,,,,,,,,,,,,,,,,,20,001,20,w,Psychologie,2023-01-16_14h05.22.022,00_bat_bachelor,2022.2.4,59.65589052857752,
,,,,,,,,,,,,0,0,0,0,205,0,205,0,,,,,,,205,,,1,844.9379782118885,,Y,l,go,l,1,0.3885601517613395,,,,,,,,,,,,,,,,,20,001,20,w,Psychologie,2023-01-16_14h05.22.022,00_bat_bachelor,2022.2.4,59.65589052857752,
,,,,,,,,,,,,0,0,0,0,206,0,206,0,,,,,,,206,,,1,846.4391779688849,,X,d,go,d,1,0.3595861052017426,,,,,,,,,,,,,,,,,20,001,20,w,Psychologie,2023-01-16_14h05.22.022,00_bat_bachelor,2022.2.4,59.65589052857752,
,,,,,,,,,,,,0,0,0,0,207,0,207,0,,,,,,,207,,,1,847.9066017422556,848.707496384246,X,None,nogo,None,1,,,,,,,,,,,,,,,,,,20,001,20,w,Psychologie,2023-01-16_14h05.22.022,00_bat_bachelor,2022.2.4,59.65589052857752,
,,,,,,,,,,,,0,0,0,0,208,0,208,0,,,,,,,208,,,1,849.7082862020434,,X,None,nogo,None,1,,,,,,,,,,,,,,,,,,20,001,20,w,Psychologie,2023-01-16_14h05.22.022,00_bat_bachelor,2022.2.4,59.65589052857752,
,,,,,,,,,,,,0,0,0,0,209,0,209,0,,,,,,,209,,,1,851.5096336922979,,Y,l,go,l,1,0.32761860555183375,,,,,,,,,,,,,,,,,20,001,20,w,Psychologie,2023-01-16_14h05.22.022,00_bat_bachelor,2022.2.4,59.65589052857752,
,,,,,,,,,,,,0,0,0,0,210,0,210,0,,,,,,,210,,,1,852.9441343301187,,X,d,go,None,0,,,,,,,,,,,,,,,,,,20,001,20,w,Psychologie,2023-01-16_14h05.22.022,00_bat_bachelor,2022.2.4,59.65589052857752,
,,,,,,,,,,,,0,0,0,0,211,0,211,0,,,,,,,211,,,1,854.745157456895,,X,None,nogo,None,1,,,,,,,,,,,,,,,,,,20,001,20,w,Psychologie,2023-01-16_14h05.22.022,00_bat_bachelor,2022.2.4,59.65589052857752,
,,,,,,,,,,,,0,0,0,0,212,0,212,0,,,,,,,212,,,1,856.5468933105985,,Y,l,go,l,1,0.4907666476647137,,,,,,,,,,,,,,,,,20,001,20,w,Psychologie,2023-01-16_14h05.22.022,00_bat_bachelor,2022.2.4,59.65589052857752,
,,,,,,,,,,,,0,0,0,0,213,0,213,0,,,,,,,213,,,1,858.1477536253333,,X,d,go,d,1,0.3460239299638488,,,,,,,,,,,,,,,,,20,001,20,w,Psychologie,2023-01-16_14h05.22.022,00_bat_bachelor,2022.2.4,59.65589052857752,
,,,,,,,,,,,,0,0,0,0,214,0,214,0,,,,,,,214,,,1,859.5992128003818,,X,None,nogo,None,1,,,,,,,,,,,,,,,,,,20,001,20,w,Psychologie,2023-01-16_14h05.22.022,00_bat_bachelor,2022.2.4,59.65589052857752,
,,,,,,,,,,,,0,0,0,0,215,0,215,0,,,,,,,215,,,1,861.4002359271581,,Y,l,go,l,1,0.24609040265568183,,,,,,,,,,,,,,,,,20,001,20,w,Psychologie,2023-01-16_14h05.22.022,00_bat_bachelor,2022.2.4,59.65589052857752,
,,,,,,,,,,,,0,0,0,0,216,0,216,0,,,,,,,216,,,1,862.7512694539291,,X,d,go,d,1,0.36580961733852746,,,,,,,,,,,,,,,,,20,001,20,w,Psychologie,2023-01-16_14h05.22.022,00_bat_bachelor,2022.2.4,59.65589052857752,
,,,,,,,,,,,,0,0,0,0,217,0,217,0,,,,,,,217,,,1,864.2190442574356,,Y,l,go,l,1,0.33993714503594674,,,,,,,,,,,,,,,,,20,001,20,w,Psychologie,2023-01-16_14h05.22.022,00_bat_bachelor,2022.2.4,59.65589052857752,
,,,,,,,,,,,,0,0,0,0,218,0,218,0,,,,,,,218,,,1,865.6704234325225,866.4709471656024,Y,None,nogo,None,1,,,,,,,,,,,,,,,,,,20,001,20,w,Psychologie,2023-01-16_14h05.22.022,00_bat_bachelor,2022.2.4,59.65589052857752,
,,,,,,,,,,,,0,0,0,0,219,0,219,0,,,,,,,219,,,1,867.4718179530573,,X,d,go,d,1,0.39944354042381747,,,,,,,,,,,,,,,,,20,001,20,w,Psychologie,2023-01-16_14h05.22.022,00_bat_bachelor,2022.2.4,59.65589052857752,
,,,,,,,,,,,,0,0,0,0,220,0,220,0,,,,,,,220,,,1,868.9729541949309,,Y,l,go,l,1,0.33667411631176947,,,,,,,,,,,,,,,,,20,001,20,w,Psychologie,2023-01-16_14h05.22.022,00_bat_bachelor,2022.2.4,59.65589052857752,
,,,,,,,,,,,,0,0,0,0,221,0,221,0,,,,,,,221,,,1,870.4240439156165,871.224748981942,Y,None,nogo,None,1,,,,,,,,,,,,,,,,,,20,001,20,w,Psychologie,2023-01-16_14h05.22.022,00_bat_bachelor,2022.2.4,59.65589052857752,
,,,,,,,,,,,,0,0,0,0,222,0,222,0,,,,,,,222,,,1,872.2254331028198,,X,d,go,d,1,0.39727093542023795,,,,,,,,,,,,,,,,,20,001,20,w,Psychologie,2023-01-16_14h05.22.022,00_bat_bachelor,2022.2.4,59.65589052857752,
,,,,,,,,,,,,0,0,0,0,223,0,223,0,,,,,,,223,,,1,873.726270193325,,Y,l,go,l,1,0.4319419489111169,,,,,,,,,,,,,,,,,20,001,20,w,Psychologie,2023-01-16_14h05.22.022,00_bat_bachelor,2022.2.4,59.65589052857752,
,,,,,,,,,,,,0,0,0,0,224,0,224,0,,,,,,,224,,,1,875.2610709037253,,X,d,go,d,1,0.3850241534782981,,,,,,,,,,,,,,,,,20,001,20,w,Psychologie,2023-01-16_14h05.22.022,00_bat_bachelor,2022.2.4,59.65589052857752,
,,,,,,,,,,,,0,0,0,0,225,0,225,0,,,,,,,225,,,1,876.7622997516119,,X,None,nogo,None,1,,,,,,,,,,,,,,,,,,20,001,20,w,Psychologie,2023-01-16_14h05.22.022,00_bat_bachelor,2022.2.4,59.65589052857752,
,,,,,,,,,,,,0,0,0,0,226,0,226,0,,,,,,,226,,,1,878.5632952420383,,Y,l,go,l,1,0.3309635736295604,,,,,,,,,,,,,,,,,20,001,20,w,Psychologie,2023-01-16_14h05.22.022,00_bat_bachelor,2022.2.4,59.65589052857752,
,,,,,,,,,,,,0,0,0,0,227,0,227,0,,,,,,,227,,,1,879.9981444857476,,X,d,go,d,1,0.4157223204128968,,,,,,,,,,,,,,,,,20,001,20,w,Psychologie,2023-01-16_14h05.22.022,00_bat_bachelor,2022.2.4,59.65589052857752,
,,,,,,,,,,,,0,0,0,0,228,0,228,0,,,,,,,228,,,1,881.5159464165117,,Y,l,go,l,1,0.3225820019324601,,,,,,,,,,,,,,,,,20,001,20,w,Psychologie,2023-01-16_14h05.22.022,00_bat_bachelor,2022.2.4,59.65589052857752,
,,,,,,,,,,,,0,0,0,0,229,0,229,0,,,,,,,229,,,1,882.950318084695,,X,d,go,d,1,0.343874597667309,,,,,,,,,,,,,,,,,20,001,20,w,Psychologie,2023-01-16_14h05.22.022,00_bat_bachelor,2022.2.4,59.65589052857752,
,,,,,,,,,,,,0,0,0,0,230,0,230,0,,,,,,,230,,,1,884.401406835681,,Y,l,go,l,1,0.2519662785962282,,,,,,,,,,,,,,,,,20,001,20,w,Psychologie,2023-01-16_14h05.22.022,00_bat_bachelor,2022.2.4,59.65589052857752,
,,,,,,,,,,,,0,0,0,0,231,0,231,0,,,,,,,231,,,1,885.7689765968607,,Y,None,nogo,d,0,0.27690153923322214,,,,,,,,,,,,,,,,,20,001,20,w,Psychologie,2023-01-16_14h05.22.022,00_bat_bachelor,2022.2.4,59.65589052857752,
,,,,,,,,,,,,0,0,0,0,232,0,232,0,,,,,,,232,,,1,887.1533002893084,,X,d,go,d,1,0.6206579786230577,,,,,,,,,,,,,,,,,20,001,20,w,Psychologie,2023-01-16_14h05.22.022,00_bat_bachelor,2022.2.4,59.65589052857752,
,,,,,,,,,,,,0,0,0,0,233,0,233,0,,,,,,,233,,,1,888.8882502359993,,Y,l,go,l,1,0.3733431894434034,,,,,,,,,,,,,,,,,20,001,20,w,Psychologie,2023-01-16_14h05.22.022,00_bat_bachelor,2022.2.4,59.65589052857752,
,,,,,,,,,,,,0,0,0,0,234,0,234,0,,,,,,,234,,,1,890.3727091526271,891.173520885568,Y,None,nogo,None,1,,,,,,,,,,,,,,,,,,20,001,20,w,Psychologie,2023-01-16_14h05.22.022,00_bat_bachelor,2022.2.4,59.65589052857752,
,,,,,,,,,,,,0,0,0,0,235,0,235,0,,,,,,,235,,,1,892.1742500973342,,X,d,go,d,1,0.36722731362169725,,,,,,,,,,,,,,,,,20,001,20,w,Psychologie,2023-01-16_14h05.22.022,00_bat_bachelor,2022.2.4,59.65589052857752,
,,,,,,,,,,,,0,0,0,0,236,0,236,0,,,,,,,236,,,1,893.6584307110643,,Y,l,go,l,1,0.34052429626171943,,,,,,,,,,,,,,,,,20,001,20,w,Psychologie,2023-01-16_14h05.22.022,00_bat_bachelor,2022.2.4,59.65589052857752,
,,,,,,,,,,,,0,0,0,0,237,0,237,0,,,,,,,237,,,1,895.109583946869,,X,d,go,d,1,0.4408810960921983,,,,,,,,,,,,,,,,,20,001,20,w,Psychologie,2023-01-16_14h05.22.022,00_bat_bachelor,2022.2.4,59.65589052857752,
,,,,,,,,,,,,0,0,0,0,238,0,238,0,,,,,,,238,,,1,896.6608505886798,897.4614577156572,X,None,nogo,None,1,,,,,,,,,,,,,,,,,,20,001,20,w,Psychologie,2023-01-16_14h05.22.022,00_bat_bachelor,2022.2.4,59.65589052857752,
,,,,,,,,,,,,0,0,0,0,239,0,239,0,,,,,,,239,,,1,898.462063775969,,Y,l,go,l,1,0.4313858279674605,,,,,,,,,,,,,,,,,20,001,20,w,Psychologie,2023-01-16_14h05.22.022,00_bat_bachelor,2022.2.4,59.65589052857752,
,,,,,,,,,,,,0,0,0,0,240,0,240,0,,,,,,,240,,,1,899.9967049712941,,X,d,go,d,1,0.27367148019038723,,,,,,,,,,,,,,,,,20,001,20,w,Psychologie,2023-01-16_14h05.22.022,00_bat_bachelor,2022.2.4,59.65589052857752,
,,,,,,,,,,,,0,0,0,0,241,0,241,0,,,,,,,241,,,1,901.380908906227,902.1817492452137,X,None,nogo,None,1,,,,,,,,,,,,,,,,,,20,001,20,w,Psychologie,2023-01-16_14h05.22.022,00_bat_bachelor,2022.2.4,59.65589052857752,
,,,,,,,,,,,,0,0,0,0,242,0,242,0,,,,,,,242,,,1,903.182365002489,,Y,l,go,l,1,0.38441179013898363,,,,,,,,,,,,,,,,,20,001,20,w,Psychologie,2023-01-16_14h05.22.022,00_bat_bachelor,2022.2.4,59.65589052857752,
,,,,,,,,,,,,0,0,0,0,243,0,243,0,,,,,,,243,,,1,904.6834876686116,,X,d,go,d,1,0.3390198121451249,,,,,,,,,,,,,,,,,20,001,20,w,Psychologie,2023-01-16_14h05.22.022,00_bat_bachelor,2022.2.4,59.65589052857752,
,,,,,,,,,,,,0,0,0,0,244,0,244,0,,,,,,,244,,,1,906.1345449044638,,X,None,nogo,None,1,,,,,,,,,,,,,,,,,,20,001,20,w,Psychologie,2023-01-16_14h05.22.022,00_bat_bachelor,2022.2.4,59.65589052857752,
,,,,,,,,,,,,0,0,0,0,245,0,245,0,,,,,,,245,,,1,907.935684394819,,Y,l,go,l,1,0.38204815491917543,,,,,,,,,,,,,,,,,20,001,20,w,Psychologie,2023-01-16_14h05.22.022,00_bat_bachelor,2022.2.4,59.65589052857752,
,,,,,,,,,,,,0,0,0,0,246,0,246,0,,,,,,,246,,,1,909.4204187052528,,X,d,go,d,1,0.5142434847621189,,,,,,,,,,,,,,,,,20,001,20,w,Psychologie,2023-01-16_14h05.22.022,00_bat_bachelor,2022.2.4,59.65589052857752,
,,,,,,,,,,,,0,0,0,0,247,0,247,0,,,,,,,247,,,1,911.0384276177319,911.8386614115589,X,None,nogo,None,1,,,,,,,,,,,,,,,,,,20,001,20,w,Psychologie,2023-01-16_14h05.22.022,00_bat_bachelor,2022.2.4,59.65589052857752,
,,,,,,,,,,,,0,0,0,0,248,0,248,0,,,,,,,248,,,1,912.8397028656,,Y,l,go,l,1,0.4068088701860688,,,,,,,,,,,,,,,,,20,001,20,w,Psychologie,2023-01-16_14h05.22.022,00_bat_bachelor,2022.2.4,59.65589052857752,
,,,,,,,,,,,,0,0,0,0,249,0,249,0,,,,,,,249,,,1,914.3575484327048,,X,d,go,d,1,0.5842274508322589,,,,,,,,,,,,,,,,,20,001,20,w,Psychologie,2023-01-16_14h05.22.022,00_bat_bachelor,2022.2.4,59.65589052857752,
,,,,,,,,,,,,1,0,1,0,0,0,0,0,,,,,,,0,,,0.2,929.2692081118985,,X,d,go,d,1,0.5999118068648386,,,,,,,,915.0632431208542,space,13.978443017273094,,,,,,,20,001,20,w,Psychologie,2023-01-16_14h05.22.022,00_bat_bachelor,2022.2.4,59.65589052857752,
,,,,,,,,,,,,1,0,1,0,1,0,1,0,,,,,,,1,,,0.2,930.1695897359568,,Y,l,go,l,1,0.467659264926624,,,,,,,,,,,,,,,,,20,001,20,w,Psychologie,2023-01-16_14h05.22.022,00_bat_bachelor,2022.2.4,59.65589052857752,
,,,,,,,,,,,,1,0,1,0,2,0,2,0,,,,,,,2,,,0.2,930.953600992194,,X,d,go,d,1,0.404694931818085,,,,,,,,,,,,,,,,,20,001,20,w,Psychologie,2023-01-16_14h05.22.022,00_bat_bachelor,2022.2.4,59.65589052857752,
,,,,,,,,,,,,1,0,1,0,3,0,3,0,,,,,,,3,,,0.2,931.6707022202681,,Y,l,go,l,1,0.37452379492970067,,,,,,,,,,,,,,,,,20,001,20,w,Psychologie,2023-01-16_14h05.22.022,00_bat_bachelor,2022.2.4,59.65589052857752,
,,,,,,,,,,,,1,0,1,0,4,0,4,0,,,,,,,4,,,0.2,932.3546121917025,,Y,None,nogo,None,1,,,,,,,,,,,,,,,,,,20,001,20,w,Psychologie,2023-01-16_14h05.22.022,00_bat_bachelor,2022.2.4,59.65589052857752,
,,,,,,,,,,,,1,0,1,0,5,0,5,0,,,,,,,5,,,0.2,933.3553729186096,,X,d,go,d,1,0.48267598491656827,,,,,,,,,,,,,,,,,20,001,20,w,Psychologie,2023-01-16_14h05.22.022,00_bat_bachelor,2022.2.4,59.65589052857752,
,,,,,,,,,,,,1,0,1,0,6,0,6,0,,,,,,,6,,,0.2,934.1392765385317,,Y,l,go,l,1,0.530142143721605,,,,,,,,,,,,,,,,,20,001,20,w,Psychologie,2023-01-16_14h05.22.022,00_bat_bachelor,2022.2.4,59.65589052857752,
,,,,,,,,,,,,1,0,1,0,7,0,7,0,,,,,,,7,,,0.2,934.9731723766454,,X,d,go,d,1,0.40000354015501216,,,,,,,,,,,,,,,,,20,001,20,w,Psychologie,2023-01-16_14h05.22.022,00_bat_bachelor,2022.2.4,59.65589052857752,
,,,,,,,,,,,,1,0,1,0,8,0,8,0,,,,,,,8,,,0.2,935.6736389461148,,Y,l,go,l,1,0.4198920153612562,,,,,,,,,,,,,,,,,20,001,20,w,Psychologie,2023-01-16_14h05.22.022,00_bat_bachelor,2022.2.4,59.65589052857752,
,,,,,,,,,,,,1,0,1,0,9,0,9,0,,,,,,,9,,,0.2,936.4077321659497,,X,d,go,d,1,0.3579109545025858,,,,,,,,,,,,,,,,,20,001,20,w,Psychologie,2023-01-16_14h05.22.022,00_bat_bachelor,2022.2.4,59.65589052857752,
,,,,,,,,,,,,1,0,1,0,10,0,10,0,,,,,,,10,,,0.2,937.0748746303652,,Y,l,go,l,1,0.4750764734526456,,,,,,,,,,,,,,,,,20,001,20,w,Psychologie,2023-01-16_14h05.22.022,00_bat_bachelor,2022.2.4,59.65589052857752,
,,,,,,,,,,,,1,0,1,0,11,0,11,0,,,,,,,11,,,0.2,937.8587084321407,,Y,None,nogo,None,1,,,,,,,,,,,,,,,,,,20,001,20,w,Psychologie,2023-01-16_14h05.22.022,00_bat_bachelor,2022.2.4,59.65589052857752,
,,,,,,,,,,,,1,0,1,0,12,0,12,0,,,,,,,12,,,0.2,938.8594657651083,,Y,None,nogo,None,1,,,,,,,,,,,,,,,,,,20,001,20,w,Psychologie,2023-01-16_14h05.22.022,00_bat_bachelor,2022.2.4,59.65589052857752,
,,,,,,,,,,,,1,0,1,0,13,0,13,0,,,,,,,13,,,0.2,939.8603384919588,,X,d,go,d,1,0.3783041567367036,,,,,,,,,,,,,,,,,20,001,20,w,Psychologie,2023-01-16_14h05.22.022,00_bat_bachelor,2022.2.4,59.65589052857752,
,,,,,,,,,,,,1,0,1,0,14,0,14,0,,,,,,,14,,,0.2,940.5442935542815,,Y,l,go,l,1,0.4311574644416396,,,,,,,,,,,,,,,,,20,001,20,w,Psychologie,2023-01-16_14h05.22.022,00_bat_bachelor,2022.2.4,59.65589052857752,
,,,,,,,,,,,,1,0,1,0,15,0,15,0,,,,,,,15,,,0.2,941.2778742895171,,X,d,go,d,1,0.3355807835068845,,,,,,,,,,,,,,,,,20,001,20,w,Psychologie,2023-01-16_14h05.22.022,00_bat_bachelor,2022.2.4,59.65589052857752,
,,,,,,,,,,,,1,0,1,0,16,0,16,0,,,,,,,16,,,0.2,941.9286099740093,,Y,l,go,l,1,0.42106243903617724,,,,,,,,,,,,,,,,,20,001,20,w,Psychologie,2023-01-16_14h05.22.022,00_bat_bachelor,2022.2.4,59.65589052857752,
,,,,,,,,,,,,1,0,1,0,17,0,17,0,,,,,,,17,,,0.2,942.6621291335141,,X,d,go,d,1,0.27992262867701356,,,,,,,,,,,,,,,,,20,001,20,w,Psychologie,2023-01-16_14h05.22.022,00_bat_bachelor,2022.2.4,59.65589052857752,
,,,,,,,,,,,,1,0,1,0,18,0,18,0,,,,,,,18,,,0.2,943.246314547243,,Y,l,go,l,1,0.3355172683914134,,,,,,,,,,,,,,,,,20,001,20,w,Psychologie,2023-01-16_14h05.22.022,00_bat_bachelor,2022.2.4,59.65589052857752,
,,,,,,,,,,,,1,0,1,0,19,0,19,0,,,,,,,19,,,0.2,943.8967142318979,,X,d,go,d,1,0.2769383877021028,,,,,,,,,,,,,,,,,20,001,20,w,Psychologie,2023-01-16_14h05.22.022,00_bat_bachelor,2022.2.4,59.65589052857752,
,,,,,,,,,,,,1,0,1,0,20,0,20,0,,,,,,,20,,,0.2,944.4805806154764,,Y,l,go,l,1,0.3012108607799746,,,,,,,,,,,,,,,,,20,001,20,w,Psychologie,2023-01-16_14h05.22.022,00_bat_bachelor,2022.2.4,59.65589052857752,
,,,,,,,,,,,,1,0,1,0,21,0,21,0,,,,,,,21,,,0.2,945.0975892860188,,X,d,go,d,1,0.2603333048427885,,,,,,,,,,,,,,,,,20,001,20,w,Psychologie,2023-01-16_14h05.22.022,00_bat_bachelor,2022.2.4,59.65589052857752,
,,,,,,,,,,,,1,0,1,0,22,0,22,0,,,,,,,22,,,0.2,945.6645490111296,,X,None,nogo,None,1,,,,,,,,,,,,,,,,,,20,001,20,w,Psychologie,2023-01-16_14h05.22.022,00_bat_bachelor,2022.2.4,59.65589052857752,
,,,,,,,,,,,,1,0,1,0,23,0,23,0,,,,,,,23,,,0.2,946.6655754348722,,X,None,nogo,None,1,,,,,,,,,,,,,,,,,,20,001,20,w,Psychologie,2023-01-16_14h05.22.022,00_bat_bachelor,2022.2.4,59.65589052857752,
,,,,,,,,,,,,1,0,1,0,24,0,24,0,,,,,,,24,,,0.2,947.666181980032,,Y,l,go,l,1,0.492240101491916,,,,,,,,,,,,,,,,,20,001,20,w,Psychologie,2023-01-16_14h05.22.022,00_bat_bachelor,2022.2.4,59.65589052857752,
,,,,,,,,,,,,1,0,1,0,25,0,25,0,,,,,,,25,,,0.2,948.466677591914,,X,d,go,d,1,0.5239259043119091,,,,,,,,,,,,,,,,,20,001,20,w,Psychologie,2023-01-16_14h05.22.022,00_bat_bachelor,2022.2.4,59.65589052857752,
,,,,,,,,,,,,1,0,1,0,26,0,26,0,,,,,,,26,,,0.2,949.3005748845717,,X,None,nogo,None,1,,,,,,,,,,,,,,,,,,20,001,20,w,Psychologie,2023-01-16_14h05.22.022,00_bat_bachelor,2022.2.4,59.65589052857752,
,,,,,,,,,,,,1,0,1,0,27,0,27,0,,,,,,,27,,,0.2,950.3014073690138,,Y,l,go,l,1,0.43139794917442487,,,,,,,,,,,,,,,,,20,001,20,w,Psychologie,2023-01-16_14h05.22.022,00_bat_bachelor,2022.2.4,59.65589052857752,
,,,,,,,,,,,,1,0,1,0,28,0,28,0,,,,,,,28,,,0.2,951.0528159743917,,X,d,go,d,1,0.48120931896482944,,,,,,,,,,,,,,,,,20,001,20,w,Psychologie,2023-01-16_14h05.22.022,00_bat_bachelor,2022.2.4,59.65589052857752,
,,,,,,,,,,,,1,0,1,0,29,0,29,0,,,,,,,29,,,0.2,951.8532456469111,,Y,l,go,l,1,0.3678949496606947,,,,,,,,,,,,,,,,,20,001,20,w,Psychologie,2023-01-16_14h05.22.022,00_bat_bachelor,2022.2.4,59.65589052857752,
,,,,,,,,,,,,1,0,1,0,30,0,30,0,,,,,,,30,,,0.2,952.5538678526718,,X,d,go,d,1,0.21104508631469798,,,,,,,,,,,,,,,,,20,001,20,w,Psychologie,2023-01-16_14h05.22.022,00_bat_bachelor,2022.2.4,59.65589052857752,
,,,,,,,,,,,,1,0,1,0,31,0,31,0,,,,,,,31,,,0.2,953.1045056463008,,Y,l,go,l,1,0.34924477688400657,,,,,,,,,,,,,,,,,20,001,20,w,Psychologie,2023-01-16_14h05.22.022,00_bat_bachelor,2022.2.4,59.65589052857752,
,,,,,,,,,,,,1,0,1,0,32,0,32,0,,,,,,,32,,,0.2,953.7715744137822,,X,d,go,d,1,0.2749442068488861,,,,,,,,,,,,,,,,,20,001,20,w,Psychologie,2023-01-16_14h05.22.022,00_bat_bachelor,2022.2.4,59.65589052857752,
,,,,,,,,,,,,1,0,1,0,33,0,33,0,,,,,,,33,,,0.2,954.3715460016756,,Y,l,go,l,1,0.32979266510301386,,,,,,,,,,,,,,,,,20,001,20,w,Psychologie,2023-01-16_14h05.22.022,00_bat_bachelor,2022.2.4,59.65589052857752,
,,,,,,,,,,,,1,0,1,0,34,0,34,0,,,,,,,34,,,0.2,955.0053401186233,,Y,None,nogo,d,0,0.2556288222767762,,,,,,,,,,,,,,,,,20,001,20,w,Psychologie,2023-01-16_14h05.22.022,00_bat_bachelor,2022.2.4,59.65589052857752,
,,,,,,,,,,,,1,0,1,0,35,0,35,0,,,,,,,35,,,0.2,955.5726562071977,956.373288546285,X,d,go,None,0,,,,,,,,,,,,,,,,,,20,001,20,w,Psychologie,2023-01-16_14h05.22.022,00_bat_bachelor,2022.2.4,59.65589052857752,
,,,,,,,,,,,,1,0,1,0,36,0,36,0,,,,,,,36,,,0.2,956.5730479645827,,Y,l,go,l,1,0.49673512961817323,,,,,,,,,,,,,,,,,20,001,20,w,Psychologie,2023-01-16_14h05.22.022,00_bat_bachelor,2022.2.4,59.65589052857752,
,,,,,,,,,,,,1,0,1,0,37,0,37,0,,,,,,,37,,,0.2,957.3737995763404,,X,d,go,d,1,0.46434241805036436,,,,,,,,,,,,,,,,,20,001,20,w,Psychologie,2023-01-16_14h05.22.022,00_bat_bachelor,2022.2.4,59.65589052857752,
,,,,,,,,,,,,1,0,1,0,38,0,38,0,,,,,,,38,,,0.2,958.1409715680129,,X,None,nogo,l,0,0.32079679067464895,,,,,,,,,,,,,,,,,20,001,20,w,Psychologie,2023-01-16_14h05.22.022,00_bat_bachelor,2022.2.4,59.65589052857752,
,,,,,,,,,,,,1,0,1,0,39,0,39,0,,,,,,,39,,,0.2,958.7746575638048,959.5754300240333,Y,l,go,None,0,,,,,,,,,,,,,,,,,,20,001,20,w,Psychologie,2023-01-16_14h05.22.022,00_bat_bachelor,2022.2.4,59.65589052857752,
,,,,,,,,,,,,1,0,1,0,40,0,40,0,,,,,,,40,,,0.2,959.7755428967066,960.5762067509313,X,d,go,None,0,,,,,,,,,,,,,,,,,,20,001,20,w,Psychologie,2023-01-16_14h05.22.022,00_bat_bachelor,2022.2.4,59.65589052857752,
,,,,,,,,,,,,1,0,1,0,41,0,41,0,,,,,,,41,,,0.2,960.776330290264,,Y,l,go,l,1,0.6136131335551909,,,,,,,,,,,,,,,,,20,001,20,w,Psychologie,2023-01-16_14h05.22.022,00_bat_bachelor,2022.2.4,59.65589052857752,
,,,,,,,,,,,,1,0,1,0,42,0,42,0,,,,,,,42,,,0.2,961.6935754212973,,X,d,go,d,1,0.623997128521296,,,,,,,,,,,,,,,,,20,001,20,w,Psychologie,2023-01-16_14h05.22.022,00_bat_bachelor,2022.2.4,59.65589052857752,
,,,,,,,,,,,,1,0,1,0,43,0,43,0,,,,,,,43,,,0.2,962.6275822411735,,Y,l,go,l,1,0.6174511922981765,,,,,,,,,,,,,,,,,20,001,20,w,Psychologie,2023-01-16_14h05.22.022,00_bat_bachelor,2022.2.4,59.65589052857752,
,,,,,,,,,,,,1,0,1,0,44,0,44,0,,,,,,,44,,,0.2,963.5451798568829,964.3457448020636,X,d,go,None,0,,,,,,,,,,,,,,,,,,20,001,20,w,Psychologie,2023-01-16_14h05.22.022,00_bat_bachelor,2022.2.4,59.65589052857752,
,,,,,,,,,,,,1,0,1,0,45,0,45,0,,,,,,,45,,,0.2,964.5457257960115,,X,None,nogo,None,1,,,,,,,,,,,,,,,,,,20,001,20,w,Psychologie,2023-01-16_14h05.22.022,00_bat_bachelor,2022.2.4,59.65589052857752,
,,,,,,,,,,,,1,0,1,0,46,0,46,0,,,,,,,46,,,0.2,965.5464278562795,,Y,l,go,l,1,0.4026459631131729,,,,,,,,,,,,,,,,,20,001,20,w,Psychologie,2023-01-16_14h05.22.022,00_bat_bachelor,2022.2.4,59.65589052857752,
,,,,,,,,,,,,1,0,1,0,47,0,47,0,,,,,,,47,,,0.2,966.2638776902422,,X,d,go,d,1,0.3262460001569707,,,,,,,,,,,,,,,,,20,001,20,w,Psychologie,2023-01-16_14h05.22.022,00_bat_bachelor,2022.2.4,59.65589052857752,
,,,,,,,,,,,,1,0,1,0,48,0,48,0,,,,,,,48,,,0.2,966.8976999283877,967.6984006310777,X,None,nogo,None,1,,,,,,,,,,,,,,,,,,20,001,20,w,Psychologie,2023-01-16_14h05.22.022,00_bat_bachelor,2022.2.4,59.65589052857752,
,,,,,,,,,,,,1,0,1,0,49,0,49,0,,,,,,,49,,,0.2,967.8984461098444,,X,None,nogo,d,0,0.4994910070672631,,,,,,,,,,,,,,,,,20,001,20,w,Psychologie,2023-01-16_14h05.22.022,00_bat_bachelor,2022.2.4,59.65589052857752,
,,,,,,,,,,,,1,0,1,0,50,0,50,0,,,,,,,50,,,0.2,968.6992428124904,969.4995924850482,Y,l,go,None,0,,,,,,,,,,,,,,,,,,20,001,20,w,Psychologie,2023-01-16_14h05.22.022,00_bat_bachelor,2022.2.4,59.65589052857752,
,,,,,,,,,,,,1,0,1,0,51,0,51,0,,,,,,,51,,,0.2,969.6995453577983,,X,d,go,None,0,,,,,,,,,,,,,,,,,,20,001,20,w,Psychologie,2023-01-16_14h05.22.022,00_bat_bachelor,2022.2.4,59.65589052857752,
,,,,,,,,,,,,1,0,1,0,52,0,52,0,,,,,,,52,,,0.2,970.700581478508,,Y,l,go,l,1,0.3844976082764333,,,,,,,,,,,,,,,,,20,001,20,w,Psychologie,2023-01-16_14h05.22.022,00_bat_bachelor,2022.2.4,59.65589052857752,
,,,,,,,,,,,,1,0,1,0,53,0,53,0,,,,,,,53,,,0.2,971.400925866219,,X,d,go,d,1,0.4685266584456258,,,,,,,,,,,,,,,,,20,001,20,w,Psychologie,2023-01-16_14h05.22.022,00_bat_bachelor,2022.2.4,59.65589052857752,
,,,,,,,,,,,,1,0,1,0,54,0,54,0,,,,,,,54,,,0.2,972.185078213297,,Y,l,go,l,1,0.35699943979125237,,,,,,,,,,,,,,,,,20,001,20,w,Psychologie,2023-01-16_14h05.22.022,00_bat_bachelor,2022.2.4,59.65589052857752,
,,,,,,,,,,,,1,0,1,0,55,0,55,0,,,,,,,55,,,0.2,972.8521872231831,,X,d,go,d,1,0.16918716721556848,,,,,,,,,,,,,,,,,20,001,20,w,Psychologie,2023-01-16_14h05.22.022,00_bat_bachelor,2022.2.4,59.65589052857752,
,,,,,,,,,,,,1,0,1,0,56,0,56,0,,,,,,,56,,,0.2,973.335755473574,,Y,l,go,l,1,0.21533890241698828,,,,,,,,,,,,,,,,,20,001,20,w,Psychologie,2023-01-16_14h05.22.022,00_bat_bachelor,2022.2.4,59.65589052857752,
,,,,,,,,,,,,1,0,1,0,57,0,57,0,,,,,,,57,,,0.2,973.8529154652533,,Y,None,nogo,None,1,,,,,,,,,,,,,,,,,,20,001,20,w,Psychologie,2023-01-16_14h05.22.022,00_bat_bachelor,2022.2.4,59.65589052857752,
,,,,,,,,,,,,1,0,1,0,58,0,58,0,,,,,,,58,,,0.2,974.8534749801329,,X,d,go,d,1,0.3914959079156688,,,,,,,,,,,,,,,,,20,001,20,w,Psychologie,2023-01-16_14h05.22.022,00_bat_bachelor,2022.2.4,59.65589052857752,
,,,,,,,,,,,,1,0,1,0,59,0,59,0,,,,,,,59,,,0.2,975.554230034315,,Y,l,go,l,1,0.5407675931164704,,,,,,,,,,,,,,,,,20,001,20,w,Psychologie,2023-01-16_14h05.22.022,00_bat_bachelor,2022.2.4,59.65589052857752,
,,,,,,,,,,,,1,0,1,0,60,0,60,0,,,,,,,60,,,0.2,976.4047508340627,,X,d,go,d,1,0.4405887325956428,,,,,,,,,,,,,,,,,20,001,20,w,Psychologie,2023-01-16_14h05.22.022,00_bat_bachelor,2022.2.4,59.65589052857752,
,,,,,,,,,,,,1,0,1,0,61,0,61,0,,,,,,,61,,,0.2,977.1555252579274,977.9561202637015,X,None,nogo,None,1,,,,,,,,,,,,,,,,,,20,001,20,w,Psychologie,2023-01-16_14h05.22.022,00_bat_bachelor,2022.2.4,59.65589052857752,
,,,,,,,,,,,,1,0,1,0,62,0,62,0,,,,,,,62,,,0.2,978.155994591034,,Y,l,go,l,1,0.43291213026168407,,,,,,,,,,,,,,,,,20,001,20,w,Psychologie,2023-01-16_14h05.22.022,00_bat_bachelor,2022.2.4,59.65589052857752,
,,,,,,,,,,,,1,0,1,0,63,0,63,0,,,,,,,63,,,0.2,978.8901697502224,,X,d,go,d,1,0.4349218262541399,,,,,,,,,,,,,,,,,20,001,20,w,Psychologie,2023-01-16_14h05.22.022,00_bat_bachelor,2022.2.4,59.65589052857752,
,,,,,,,,,,,,1,0,1,0,64,0,64,0,,,,,,,64,,,0.2,979.6405979924384,,Y,l,go,l,1,0.484663862742309,,,,,,,,,,,,,,,,,20,001,20,w,Psychologie,2023-01-16_14h05.22.022,00_bat_bachelor,2022.2.4,59.65589052857752,
,,,,,,,,,,,,1,0,1,0,65,0,65,0,,,,,,,65,,,0.2,980.4413418466247,981.2417778221679,Y,None,nogo,None,1,,,,,,,,,,,,,,,,,,20,001,20,w,Psychologie,2023-01-16_14h05.22.022,00_bat_bachelor,2022.2.4,59.65589052857752,
,,,,,,,,,,,,1,0,1,0,66,0,66,0,,,,,,,66,,,0.2,981.4421127553396,,X,d,go,d,1,0.50843063909997,,,,,,,,,,,,,,,,,20,001,20,w,Psychologie,2023-01-16_14h05.22.022,00_bat_bachelor,2022.2.4,59.65589052857752,
,,,,,,,,,,,,1,0,1,0,67,0,67,0,,,,,,,67,,,0.2,982.2592071470535,,Y,l,go,l,1,0.45873660258439486,,,,,,,,,,,,,,,,,20,001,20,w,Psychologie,2023-01-16_14h05.22.022,00_bat_bachelor,2022.2.4,59.65589052857752,
,,,,,,,,,,,,1,0,1,0,68,0,68,0,,,,,,,68,,,0.2,983.0263127145154,983.8272248110443,X,d,go,None,0,,,,,,,,,,,,,,,,,,20,001,20,w,Psychologie,2023-01-16_14h05.22.022,00_bat_bachelor,2022.2.4,59.65589052857752,
,,,,,,,,,,,,1,0,1,0,69,0,69,0,,,,,,,69,,,0.2,984.0272300474062,,Y,l,go,l,1,0.49810434107348556,,,,,,,,,,,,,,,,,20,001,20,w,Psychologie,2023-01-16_14h05.22.022,00_bat_bachelor,2022.2.4,59.65589052857752,
,,,,,,,,,,,,1,0,1,0,70,0,70,0,,,,,,,70,,,0.2,984.827869659217,,X,d,go,None,0,,,,,,,,,,,,,,,,,,20,001,20,w,Psychologie,2023-01-16_14h05.22.022,00_bat_bachelor,2022.2.4,59.65589052857752,
,,,,,,,,,,,,1,0,1,0,71,0,71,0,,,,,,,71,,,0.2,985.8286323255124,986.6293713312152,Y,l,go,None,0,,,,,,,,,,,,,,,,,,20,001,20,w,Psychologie,2023-01-16_14h05.22.022,00_bat_bachelor,2022.2.4,59.65589052857752,
,,,,,,,,,,,,1,0,1,0,72,0,72,0,,,,,,,72,,,0.2,986.8295370523447,987.6299856339465,Y,None,nogo,None,1,,,,,,,,,,,,,,,,,,20,001,20,w,Psychologie,2023-01-16_14h05.22.022,00_bat_bachelor,2022.2.4,59.65589052857752,
,,,,,,,,,,,,1,0,1,0,73,0,73,0,,,,,,,73,,,0.2,987.8302682035064,,X,d,go,d,1,0.3921310591213114,,,,,,,,,,,,,,,,,20,001,20,w,Psychologie,2023-01-16_14h05.22.022,00_bat_bachelor,2022.2.4,59.65589052857752,
,,,,,,,,,,,,1,0,1,0,74,0,74,0,,,,,,,74,,,0.2,988.5308249547525,,Y,l,go,l,1,0.49085101125456276,,,,,,,,,,,,,,,,,20,001,20,w,Psychologie,2023-01-16_14h05.22.022,00_bat_bachelor,2022.2.4,59.65589052857752,
,,,,,,,,,,,,1,0,1,0,75,0,75,0,,,,,,,75,,,0.2,989.3313118393635,,Y,None,nogo,None,1,,,,,,,,,,,,,,,,,,20,001,20,w,Psychologie,2023-01-16_14h05.22.022,00_bat_bachelor,2022.2.4,59.65589052857752,
,,,,,,,,,,,,1,0,1,0,76,0,76,0,,,,,,,76,,,0.2,990.33218311167,,X,d,go,d,1,0.4010929941723589,,,,,,,,,,,,,,,,,20,001,20,w,Psychologie,2023-01-16_14h05.22.022,00_bat_bachelor,2022.2.4,59.65589052857752,
,,,,,,,,,,,,1,0,1,0,77,0,77,0,,,,,,,77,,,0.2,991.0492314912808,,Y,l,go,l,1,0.49973634028356173,,,,,,,,,,,,,,,,,20,001,20,w,Psychologie,2023-01-16_14h05.22.022,00_bat_bachelor,2022.2.4,59.65589052857752,
,,,,,,,,,,,,1,0,1,0,78,0,78,0,,,,,,,78,,,0.2,991.8500388605862,,Y,None,nogo,None,1,,,,,,,,,,,,,,,,,,20,001,20,w,Psychologie,2023-01-16_14h05.22.022,00_bat_bachelor,2022.2.4,59.65589052857752,
,,,,,,,,,,,,1,0,1,0,79,0,79,0,,,,,,,79,,,0.2,992.8505828603229,,X,d,go,None,0,,,,,,,,,,,,,,,,,,20,001,20,w,Psychologie,2023-01-16_14h05.22.022,00_bat_bachelor,2022.2.4,59.65589052857752,
,,,,,,,,,,,,1,0,1,0,80,0,80,0,,,,,,,80,,,0.2,993.8515515871259,,Y,l,go,l,1,0.46611696264517377,,,,,,,,,,,,,,,,,20,001,20,w,Psychologie,2023-01-16_14h05.22.022,00_bat_bachelor,2022.2.4,59.65589052857752,
,,,,,,,,,,,,1,0,1,0,81,0,81,0,,,,,,,81,,,0.2,994.6187439424284,995.4193733724242,Y,None,nogo,None,1,,,,,,,,,,,,,,,,,,20,001,20,w,Psychologie,2023-01-16_14h05.22.022,00_bat_bachelor,2022.2.4,59.65589052857752,
,,,,,,,,,,,,1,0,1,0,82,0,82,0,,,,,,,82,,,0.2,995.6193820027256,,X,d,go,d,1,0.36260477040559635,,,,,,,,,,,,,,,,,20,001,20,w,Psychologie,2023-01-16_14h05.22.022,00_bat_bachelor,2022.2.4,59.65589052857752,
,,,,,,,,,,,,1,0,1,0,83,0,83,0,,,,,,,83,,,0.2,996.2865298004726,,Y,l,go,l,1,0.495763978571631,,,,,,,,,,,,,,,,,20,001,20,w,Psychologie,2023-01-16_14h05.22.022,00_bat_bachelor,2022.2.4,59.65589052857752,
,,,,,,,,,,,,1,0,1,0,84,0,84,0,,,,,,,84,,,0.2,997.0871926849977,,X,d,go,d,1,0.44694169921422144,,,,,,,,,,,,,,,,,20,001,20,w,Psychologie,2023-01-16_14h05.22.022,00_bat_bachelor,2022.2.4,59.65589052857752,
,,,,,,,,,,,,1,0,1,0,85,0,85,0,,,,,,,85,,,0.2,997.8379365634246,998.6385475691895,X,None,nogo,None,1,,,,,,,,,,,,,,,,,,20,001,20,w,Psychologie,2023-01-16_14h05.22.022,00_bat_bachelor,2022.2.4,59.65589052857752,
,,,,,,,,,,,,1,0,1,0,86,0,86,0,,,,,,,86,,,0.2,998.8386715933739,,Y,l,go,l,1,0.42382171042481787,,,,,,,,,,,,,,,,,20,001,20,w,Psychologie,2023-01-16_14h05.22.022,00_bat_bachelor,2022.2.4,59.65589052857752,
,,,,,,,,,,,,1,0,1,0,87,0,87,0,,,,,,,87,,,0.2,999.5723328134154,,X,d,go,d,1,0.6650293510501797,,,,,,,,,,,,,,,,,20,001,20,w,Psychologie,2023-01-16_14h05.22.022,00_bat_bachelor,2022.2.4,59.65589052857752,
,,,,,,,,,,,,1,0,1,0,88,0,88,0,,,,,,,88,,,0.2,1000.5399827684923,,Y,l,go,l,1,0.4017155393230496,,,,,,,,,,,,,,,,,20,001,20,w,Psychologie,2023-01-16_14h05.22.022,00_bat_bachelor,2022.2.4,59.65589052857752,
,,,,,,,,,,,,1,0,1,0,89,0,89,0,,,,,,,89,,,0.2,1001.257189693486,,X,d,go,d,1,0.6294177319505252,,,,,,,,,,,,,,,,,20,001,20,w,Psychologie,2023-01-16_14h05.22.022,00_bat_bachelor,2022.2.4,59.65589052857752,
,,,,,,,,,,,,1,0,1,0,90,0,90,0,,,,,,,90,,,0.2,1002.1912571193898,,Y,l,go,l,1,0.4144796543441771,,,,,,,,,,,,,,,,,20,001,20,w,Psychologie,2023-01-16_14h05.22.022,00_bat_bachelor,2022.2.4,59.65589052857752,
,,,,,,,,,,,,1,0,1,0,91,0,91,0,,,,,,,91,,,0.2,1002.9082754384144,1003.7088835350878,Y,None,nogo,None,1,,,,,,,,,,,,,,,,,,20,001,20,w,Psychologie,2023-01-16_14h05.22.022,00_bat_bachelor,2022.2.4,59.65589052857752,
,,,,,,,,,,,,1,0,1,0,92,0,92,0,,,,,,,92,,,0.2,1003.9092305894665,,X,d,go,d,1,0.36174174052575836,,,,,,,,,,,,,,,,,20,001,20,w,Psychologie,2023-01-16_14h05.22.022,00_bat_bachelor,2022.2.4,59.65589052857752,
,,,,,,,,,,,,1,0,1,0,93,0,93,0,,,,,,,93,,,0.2,1004.5761980236639,,Y,l,go,l,1,0.43019164673023624,,,,,,,,,,,,,,,,,20,001,20,w,Psychologie,2023-01-16_14h05.22.022,00_bat_bachelor,2022.2.4,59.65589052857752,
,,,,,,,,,,,,1,0,1,0,94,0,94,0,,,,,,,94,,,0.2,1005.3102219101966,,X,d,go,d,1,0.415557472006185,,,,,,,,,,,,,,,,,20,001,20,w,Psychologie,2023-01-16_14h05.22.022,00_bat_bachelor,2022.2.4,59.65589052857752,
,,,,,,,,,,,,1,0,1,0,95,0,95,0,,,,,,,95,,,0.2,1006.027359986736,,Y,l,go,l,1,0.44966994031710783,,,,,,,,,,,,,,,,,20,001,20,w,Psychologie,2023-01-16_14h05.22.022,00_bat_bachelor,2022.2.4,59.65589052857752,
,,,,,,,,,,,,1,0,1,0,96,0,96,0,,,,,,,96,,,0.2,1006.7778924713239,,X,d,go,d,1,0.24445307011774275,,,,,,,,,,,,,,,,,20,001,20,w,Psychologie,2023-01-16_14h05.22.022,00_bat_bachelor,2022.2.4,59.65589052857752,
,,,,,,,,,,,,1,0,1,0,97,0,97,0,,,,,,,97,,,0.2,1007.328336810504,,Y,l,go,l,1,0.31700042888041935,,,,,,,,,,,,,,,,,20,001,20,w,Psychologie,2023-01-16_14h05.22.022,00_bat_bachelor,2022.2.4,59.65589052857752,
,,,,,,,,,,,,1,0,1,0,98,0,98,0,,,,,,,98,,,0.2,1007.9456519051382,1008.7460471534323,Y,None,nogo,None,1,,,,,,,,,,,,,,,,,,20,001,20,w,Psychologie,2023-01-16_14h05.22.022,00_bat_bachelor,2022.2.4,59.65589052857752,
,,,,,,,,,,,,1,0,1,0,99,0,99,0,,,,,,,99,,,0.2,1008.94638063206,,X,d,go,d,1,0.0596633415298129,,,,,,,,,,,,,,,,,20,001,20,w,Psychologie,2023-01-16_14h05.22.022,00_bat_bachelor,2022.2.4,59.65589052857752,
,,,,,,,,,,,,1,0,1,0,100,0,100,0,,,,,,,100,,,0.2,1009.3131639693747,,Y,l,go,l,1,0.5579244332802773,,,,,,,,,,,,,,,,,20,001,20,w,Psychologie,2023-01-16_14h05.22.022,00_bat_bachelor,2022.2.4,59.65589052857752,
,,,,,,,,,,,,1,0,1,0,101,0,101,0,,,,,,,101,,,0.2,1010.1804343367585,,Y,None,nogo,None,1,,,,,,,,,,,,,,,,,,20,001,20,w,Psychologie,2023-01-16_14h05.22.022,00_bat_bachelor,2022.2.4,59.65589052857752,
,,,,,,,,,,,,1,0,1,0,102,0,102,0,,,,,,,102,,,0.2,1011.1813846393306,,X,d,go,d,1,0.43234485780703835,,,,,,,,,,,,,,,,,20,001,20,w,Psychologie,2023-01-16_14h05.22.022,00_bat_bachelor,2022.2.4,59.65589052857752,
,,,,,,,,,,,,1,0,1,0,103,0,103,0,,,,,,,103,,,0.2,1011.9153299804457,,Y,l,go,l,1,0.40190850892759045,,,,,,,,,,,,,,,,,20,001,20,w,Psychologie,2023-01-16_14h05.22.022,00_bat_bachelor,2022.2.4,59.65589052857752,
,,,,,,,,,,,,1,0,1,0,104,0,104,0,,,,,,,104,,,0.2,1012.6325369054357,,X,d,go,d,1,0.5978686563394149,,,,,,,,,,,,,,,,,20,001,20,w,Psychologie,2023-01-16_14h05.22.022,00_bat_bachelor,2022.2.4,59.65589052857752,
,,,,,,,,,,,,1,0,1,0,105,0,105,0,,,,,,,105,,,0.2,1013.5331827717928,,X,None,nogo,d,0,0.5931423556030495,,,,,,,,,,,,,,,,,20,001,20,w,Psychologie,2023-01-16_14h05.22.022,00_bat_bachelor,2022.2.4,59.65589052857752,
,,,,,,,,,,,,1,0,1,0,106,0,106,0,,,,,,,106,,,0.2,1014.4337544563605,,Y,l,go,l,1,0.5570163125121326,,,,,,,,,,,,,,,,,20,001,20,w,Psychologie,2023-01-16_14h05.22.022,00_bat_bachelor,2022.2.4,59.65589052857752,
,,,,,,,,,,,,1,0,1,0,107,0,107,0,,,,,,,107,,,0.2,1015.3012507630301,1016.1017948597364,X,d,go,None,0,,,,,,,,,,,,,,,,,,20,001,20,w,Psychologie,2023-01-16_14h05.22.022,00_bat_bachelor,2022.2.4,59.65589052857752,
,,,,,,,,,,,,1,0,1,0,108,0,108,0,,,,,,,108,,,0.2,1016.3017967021588,,X,None,nogo,None,1,,,,,,,,,,,,,,,,,,20,001,20,w,Psychologie,2023-01-16_14h05.22.022,00_bat_bachelor,2022.2.4,59.65589052857752,
,,,,,,,,,,,,1,0,1,0,109,0,109,0,,,,,,,109,,,0.2,1017.3027508835148,,Y,l,go,l,1,0.36016307461977703,,,,,,,,,,,,,,,,,20,001,20,w,Psychologie,2023-01-16_14h05.22.022,00_bat_bachelor,2022.2.4,59.65589052857752,
,,,,,,,,,,,,1,0,1,0,110,0,110,0,,,,,,,110,,,0.2,1017.9697735904119,,X,d,go,d,1,0.5406211689441989,,,,,,,,,,,,,,,,,20,001,20,w,Psychologie,2023-01-16_14h05.22.022,00_bat_bachelor,2022.2.4,59.65589052857752,
,,,,,,,,,,,,1,0,1,0,111,0,111,0,,,,,,,111,,,0.2,1018.8203957234437,1019.6211550927728,X,None,nogo,None,1,,,,,,,,,,,,,,,,,,20,001,20,w,Psychologie,2023-01-16_14h05.22.022,00_bat_bachelor,2022.2.4,59.65589052857752,
,,,,,,,,,,,,1,0,1,0,112,0,112,0,,,,,,,112,,,0.2,1019.8211506321713,,Y,l,go,l,1,0.4487962437706301,,,,,,,,,,,,,,,,,20,001,20,w,Psychologie,2023-01-16_14h05.22.022,00_bat_bachelor,2022.2.4,59.65589052857752,
,,,,,,,,,,,,1,0,1,0,113,0,113,0,,,,,,,113,,,0.2,1020.5718154803326,,X,d,go,d,1,0.44950557675838354,,,,,,,,,,,,,,,,,20,001,20,w,Psychologie,2023-01-16_14h05.22.022,00_bat_bachelor,2022.2.4,59.65589052857752,
,,,,,,,,,,,,1,0,1,0,114,0,114,0,,,,,,,114,,,0.2,1021.3220677226345,,Y,l,go,l,1,0.45100957602699054,,,,,,,,,,,,,,,,,20,001,20,w,Psychologie,2023-01-16_14h05.22.022,00_bat_bachelor,2022.2.4,59.65589052857752,
,,,,,,,,,,,,1,0,1,0,115,0,115,0,,,,,,,115,,,0.2,1022.0896474716865,1022.8902061138397,Y,None,nogo,None,1,,,,,,,,,,,,,,,,,,20,001,20,w,Psychologie,2023-01-16_14h05.22.022,00_bat_bachelor,2022.2.4,59.65589052857752,
,,,,,,,,,,,,1,0,1,0,116,0,116,0,,,,,,,116,,,0.2,1023.0900731684487,,X,d,go,d,1,0.4116384436019871,,,,,,,,,,,,,,,,,20,001,20,w,Psychologie,2023-01-16_14h05.22.022,00_bat_bachelor,2022.2.4,59.65589052857752,
,,,,,,,,,,,,1,0,1,0,117,0,117,0,,,,,,,117,,,0.2,1023.8076238508511,,Y,l,go,l,1,0.46239526748104254,,,,,,,,,,,,,,,,,20,001,20,w,Psychologie,2023-01-16_14h05.22.022,00_bat_bachelor,2022.2.4,59.65589052857752,
,,,,,,,,,,,,1,0,1,0,118,0,118,0,,,,,,,118,,,0.2,1024.5745577820344,1025.3753491513453,Y,None,nogo,None,1,,,,,,,,,,,,,,,,,,20,001,20,w,Psychologie,2023-01-16_14h05.22.022,00_bat_bachelor,2022.2.4,59.65589052857752,
,,,,,,,,,,,,1,0,1,0,119,0,119,0,,,,,,,119,,,0.2,1025.5755861451726,1026.3762606660566,Y,None,nogo,None,1,,,,,,,,,,,,,,,,,,20,001,20,w,Psychologie,2023-01-16_14h05.22.022,00_bat_bachelor,2022.2.4,59.65589052857752,
,,,,,,,,,,,,1,0,1,0,120,0,120,0,,,,,,,120,,,0.2,1026.5760690540264,,X,d,go,d,1,0.4137009880578262,,,,,,,,,,,,,,,,,20,001,20,w,Psychologie,2023-01-16_14h05.22.022,00_bat_bachelor,2022.2.4,59.65589052857752,
,,,,,,,,,,,,1,0,1,0,121,0,121,0,,,,,,,121,,,0.2,1027.2932648275091,,Y,l,go,l,1,0.5440723187894037,,,,,,,,,,,,,,,,,20,001,20,w,Psychologie,2023-01-16_14h05.22.022,00_bat_bachelor,2022.2.4,59.65589052857752,
,,,,,,,,,,,,1,0,1,0,122,0,122,0,,,,,,,122,,,0.2,1028.1614408914247,1028.962364624309,Y,None,nogo,None,1,,,,,,,,,,,,,,,,,,20,001,20,w,Psychologie,2023-01-16_14h05.22.022,00_bat_bachelor,2022.2.4,59.65589052857752,
,,,,,,,,,,,,1,0,1,0,123,0,123,0,,,,,,,123,,,0.2,1029.1625948302571,,X,d,go,d,1,0.4034915384618216,,,,,,,,,,,,,,,,,20,001,20,w,Psychologie,2023-01-16_14h05.22.022,00_bat_bachelor,2022.2.4,59.65589052857752,
,,,,,,,,,,,,1,0,1,0,124,0,124,0,,,,,,,124,,,0.2,1029.8795326644686,,Y,l,go,l,1,0.34176017445497564,,,,,,,,,,,,,,,,,20,001,20,w,Psychologie,2023-01-16_14h05.22.022,00_bat_bachelor,2022.2.4,59.65589052857752,
,,,,,,,,,,,,1,0,1,0,125,0,125,0,,,,,,,125,,,0.2,1030.5632996056738,1031.3635653994825,Y,None,nogo,None,1,,,,,,,,,,,,,,,,,,20,001,20,w,Psychologie,2023-01-16_14h05.22.022,00_bat_bachelor,2022.2.4,59.65589052857752,
,,,,,,,,,,,,1,0,1,0,126,0,126,0,,,,,,,126,,,0.2,1031.563861544797,1032.3643658839428,Y,None,nogo,None,1,,,,,,,,,,,,,,,,,,20,001,20,w,Psychologie,2023-01-16_14h05.22.022,00_bat_bachelor,2022.2.4,59.65589052857752,
,,,,,,,,,,,,1,0,1,0,127,0,127,0,,,,,,,127,,,0.2,1032.5647444534588,,X,d,go,d,1,0.3941014824085869,,,,,,,,,,,,,,,,,20,001,20,w,Psychologie,2023-01-16_14h05.22.022,00_bat_bachelor,2022.2.4,59.65589052857752,
,,,,,,,,,,,,1,0,1,0,128,0,128,0,,,,,,,128,,,0.2,1033.2652405986737,,Y,l,go,l,1,0.2681243313672894,,,,,,,,,,,,,,,,,20,001,20,w,Psychologie,2023-01-16_14h05.22.022,00_bat_bachelor,2022.2.4,59.65589052857752,
,,,,,,,,,,,,1,0,1,0,129,0,129,0,,,,,,,129,,,0.2,1033.8656902469374,,X,d,go,d,1,0.6596950506063877,,,,,,,,,,,,,,,,,20,001,20,w,Psychologie,2023-01-16_14h05.22.022,00_bat_bachelor,2022.2.4,59.65589052857752,
,,,,,,,,,,,,1,0,1,0,130,0,130,0,,,,,,,130,,,0.2,1034.832887838602,,Y,l,go,l,1,0.41297371568361996,,,,,,,,,,,,,,,,,20,001,20,w,Psychologie,2023-01-16_14h05.22.022,00_bat_bachelor,2022.2.4,59.65589052857752,
,,,,,,,,,,,,1,0,1,0,131,0,131,0,,,,,,,131,,,0.2,1035.5503047028833,1036.3507237087397,Y,None,nogo,None,1,,,,,,,,,,,,,,,,,,20,001,20,w,Psychologie,2023-01-16_14h05.22.022,00_bat_bachelor,2022.2.4,59.65589052857752,
,,,,,,,,,,,,1,0,1,0,132,0,132,0,,,,,,,132,,,0.2,1036.5510954903802,,X,d,go,d,1,0.39060669622267596,,,,,,,,,,,,,,,,,20,001,20,w,Psychologie,2023-01-16_14h05.22.022,00_bat_bachelor,2022.2.4,59.65589052857752,
,,,,,,,,,,,,1,0,1,0,133,0,133,0,,,,,,,133,,,0.2,1037.2684522334785,,Y,l,go,l,1,0.2963740146406053,,,,,,,,,,,,,,,,,20,001,20,w,Psychologie,2023-01-16_14h05.22.022,00_bat_bachelor,2022.2.4,59.65589052857752,
,,,,,,,,,,,,1,0,1,0,134,0,134,0,,,,,,,134,,,0.2,1037.885409025257,1038.6860660916063,X,d,go,None,0,,,,,,,,,,,,,,,,,,20,001,20,w,Psychologie,2023-01-16_14h05.22.022,00_bat_bachelor,2022.2.4,59.65589052857752,
,,,,,,,,,,,,1,0,1,0,135,0,135,0,,,,,,,135,,,0.2,1038.8859418734828,1039.686702697356,X,None,nogo,None,1,,,,,,,,,,,,,,,,,,20,001,20,w,Psychologie,2023-01-16_14h05.22.022,00_bat_bachelor,2022.2.4,59.65589052857752,
,,,,,,,,,,,,1,0,1,0,136,0,136,0,,,,,,,136,,,0.2,1039.8869101154378,1040.6873063334278,X,None,nogo,None,1,,,,,,,,,,,,,,,,,,20,001,20,w,Psychologie,2023-01-16_14h05.22.022,00_bat_bachelor,2022.2.4,59.65589052857752,
,,,,,,,,,,,,1,0,1,0,137,0,137,0,,,,,,,137,,,0.2,1040.8874783575884,,Y,l,go,l,1,0.4230881350231357,,,,,,,,,,,,,,,,,20,001,20,w,Psychologie,2023-01-16_14h05.22.022,00_bat_bachelor,2022.2.4,59.65589052857752,
,,,,,,,,,,,,1,0,1,0,138,0,138,0,,,,,,,138,,,0.2,1041.621351941165,,X,d,go,d,1,0.3439638097479474,,,,,,,,,,,,,,,,,20,001,20,w,Psychologie,2023-01-16_14h05.22.022,00_bat_bachelor,2022.2.4,59.65589052857752,
,,,,,,,,,,,,1,0,1,0,139,0,139,0,,,,,,,139,,,0.2,1042.2717942924646,1043.0722336619474,X,None,nogo,None,1,,,,,,,,,,,,,,,,,,20,001,20,w,Psychologie,2023-01-16_14h05.22.022,00_bat_bachelor,2022.2.4,59.65589052857752,
,,,,,,,,,,,,1,0,1,0,140,0,140,0,,,,,,,140,,,0.2,1043.272380473998,,Y,l,go,l,1,0.4049455983658845,,,,,,,,,,,,,,,,,20,001,20,w,Psychologie,2023-01-16_14h05.22.022,00_bat_bachelor,2022.2.4,59.65589052857752,
,,,,,,,,,,,,1,0,1,0,141,0,141,0,,,,,,,141,,,0.2,1043.9897643685981,,X,d,go,d,1,0.4395875209629594,,,,,,,,,,,,,,,,,20,001,20,w,Psychologie,2023-01-16_14h05.22.022,00_bat_bachelor,2022.2.4,59.65589052857752,
,,,,,,,,,,,,1,0,1,0,142,0,142,0,,,,,,,142,,,0.2,1044.7402003683892,,X,None,nogo,None,1,,,,,,,,,,,,,,,,,,20,001,20,w,Psychologie,2023-01-16_14h05.22.022,00_bat_bachelor,2022.2.4,59.65589052857752,
,,,,,,,,,,,,1,0,1,0,143,0,143,0,,,,,,,143,,,0.2,1045.7409407316663,,Y,l,go,l,1,0.40115069111197954,,,,,,,,,,,,,,,,,20,001,20,w,Psychologie,2023-01-16_14h05.22.022,00_bat_bachelor,2022.2.4,59.65589052857752,
,,,,,,,,,,,,1,0,1,0,144,0,144,0,,,,,,,144,,,0.2,1046.4584312928819,,X,d,go,d,1,0.3080976453202311,,,,,,,,,,,,,,,,,20,001,20,w,Psychologie,2023-01-16_14h05.22.022,00_bat_bachelor,2022.2.4,59.65589052857752,
,,,,,,,,,,,,1,0,1,0,145,0,145,0,,,,,,,145,,,0.2,1047.0754103876789,,Y,l,go,l,1,0.39495190623711096,,,,,,,,,,,,,,,,,20,001,20,w,Psychologie,2023-01-16_14h05.22.022,00_bat_bachelor,2022.2.4,59.65589052857752,
,,,,,,,,,,,,1,0,1,0,146,0,146,0,,,,,,,146,,,0.2,1047.775677199672,,Y,None,nogo,None,1,,,,,,,,,,,,,,,,,,20,001,20,w,Psychologie,2023-01-16_14h05.22.022,00_bat_bachelor,2022.2.4,59.65589052857752,
,,,,,,,,,,,,1,0,1,0,147,0,147,0,,,,,,,147,,,0.2,1048.7763826538758,,X,d,go,d,1,0.3414280534016143,,,,,,,,,,,,,,,,,20,001,20,w,Psychologie,2023-01-16_14h05.22.022,00_bat_bachelor,2022.2.4,59.65589052857752,
,,,,,,,,,,,,1,0,1,0,148,0,148,0,,,,,,,148,,,0.2,1049.4271406413864,,Y,l,go,l,1,0.34674441445895354,,,,,,,,,,,,,,,,,20,001,20,w,Psychologie,2023-01-16_14h05.22.022,00_bat_bachelor,2022.2.4,59.65589052857752,
,,,,,,,,,,,,1,0,1,0,149,0,149,0,,,,,,,149,,,0.2,1050.0775970532886,,X,d,go,d,1,0.4006653580145212,,,,,,,,,,,,,,,,,20,001,20,w,Psychologie,2023-01-16_14h05.22.022,00_bat_bachelor,2022.2.4,59.65589052857752,
,,,,,,,,,,,,1,0,1,0,150,0,150,0,,,,,,,150,,,0.2,1050.7782425317637,,Y,l,go,l,1,0.34004138740783674,,,,,,,,,,,,,,,,,20,001,20,w,Psychologie,2023-01-16_14h05.22.022,00_bat_bachelor,2022.2.4,59.65589052857752,
,,,,,,,,,,,,1,0,1,0,151,0,151,0,,,,,,,151,,,0.2,1051.4286010043143,1052.2290563737915,Y,None,nogo,None,1,,,,,,,,,,,,,,,,,,20,001,20,w,Psychologie,2023-01-16_14h05.22.022,00_bat_bachelor,2022.2.4,59.65589052857752,
,,,,,,,,,,,,1,0,1,0,152,0,152,0,,,,,,,152,,,0.2,1052.4293030645822,,X,d,go,d,1,0.5918904774189286,,,,,,,,,,,,,,,,,20,001,20,w,Psychologie,2023-01-16_14h05.22.022,00_bat_bachelor,2022.2.4,59.65589052857752,
,,,,,,,,,,,,1,0,1,0,153,0,153,0,,,,,,,153,,,0.2,1053.3301152338827,,Y,l,go,l,1,0.44439285196494893,,,,,,,,,,,,,,,,,20,001,20,w,Psychologie,2023-01-16_14h05.22.022,00_bat_bachelor,2022.2.4,59.65589052857752,
,,,,,,,,,,,,1,0,1,0,154,0,154,0,,,,,,,154,,,0.2,1054.0806666275566,,Y,None,nogo,None,1,,,,,,,,,,,,,,,,,,20,001,20,w,Psychologie,2023-01-16_14h05.22.022,00_bat_bachelor,2022.2.4,59.65589052857752,
,,,,,,,,,,,,1,0,1,0,155,0,155,0,,,,,,,155,,,0.2,1055.0814326877917,,X,d,go,d,1,0.40441517437648145,,,,,,,,,,,,,,,,,20,001,20,w,Psychologie,2023-01-16_14h05.22.022,00_bat_bachelor,2022.2.4,59.65589052857752,
,,,,,,,,,,,,1,0,1,0,156,0,156,0,,,,,,,156,,,0.2,1055.798673067311,,Y,l,go,l,1,0.26364724262748496,,,,,,,,,,,,,,,,,20,001,20,w,Psychologie,2023-01-16_14h05.22.022,00_bat_bachelor,2022.2.4,59.65589052857752,
,,,,,,,,,,,,1,0,1,0,157,0,157,0,,,,,,,157,,,0.2,1056.3655518227642,,X,d,go,d,1,0.5446298942733847,,,,,,,,,,,,,,,,,20,001,20,w,Psychologie,2023-01-16_14h05.22.022,00_bat_bachelor,2022.2.4,59.65589052857752,
,,,,,,,,,,,,1,0,1,0,158,0,158,0,,,,,,,158,,,0.2,1057.2164231677962,,Y,l,go,None,0,,,,,,,,,,,,,,,,,,20,001,20,w,Psychologie,2023-01-16_14h05.22.022,00_bat_bachelor,2022.2.4,59.65589052857752,
,,,,,,,,,,,,1,0,1,0,159,0,159,0,,,,,,,159,,,0.2,1058.2170573493058,,Y,None,nogo,l,0,0.40469105303054675,,,,,,,,,,,,,,,,,20,001,20,w,Psychologie,2023-01-16_14h05.22.022,00_bat_bachelor,2022.2.4,59.65589052857752,
,,,,,,,,,,,,1,0,1,0,160,0,160,0,,,,,,,160,,,0.2,1058.9342957894332,,X,d,go,d,1,0.39121954441361595,,,,,,,,,,,,,,,,,20,001,20,w,Psychologie,2023-01-16_14h05.22.022,00_bat_bachelor,2022.2.4,59.65589052857752,
,,,,,,,,,,,,1,0,1,0,161,0,161,0,,,,,,,161,,,0.2,1059.6348646618862,,Y,l,go,l,1,0.33049860415485455,,,,,,,,,,,,,,,,,20,001,20,w,Psychologie,2023-01-16_14h05.22.022,00_bat_bachelor,2022.2.4,59.65589052857752,
,,,,,,,,,,,,1,0,1,0,162,0,162,0,,,,,,,162,,,0.2,1060.268619506125,,X,d,go,d,1,0.44867309231631225,,,,,,,,,,,,,,,,,20,001,20,w,Psychologie,2023-01-16_14h05.22.022,00_bat_bachelor,2022.2.4,59.65589052857752,
,,,,,,,,,,,,1,0,1,0,163,0,163,0,,,,,,,163,,,0.2,1061.018975505951,,Y,l,go,None,0,,,,,,,,,,,,,,,,,,20,001,20,w,Psychologie,2023-01-16_14h05.22.022,00_bat_bachelor,2022.2.4,59.65589052857752,
,,,,,,,,,,,,1,0,1,0,164,0,164,0,,,,,,,164,,,0.2,1062.0199728388034,,X,d,go,d,1,0.4742313829519844,,,,,,,,,,,,,,,,,20,001,20,w,Psychologie,2023-01-16_14h05.22.022,00_bat_bachelor,2022.2.4,59.65589052857752,
,,,,,,,,,,,,1,0,1,0,165,0,165,0,,,,,,,165,,,0.2,1062.804055367731,,Y,l,go,l,1,0.4903128297009971,,,,,,,,,,,,,,,,,20,001,20,w,Psychologie,2023-01-16_14h05.22.022,00_bat_bachelor,2022.2.4,59.65589052857752,
,,,,,,,,,,,,1,0,1,0,166,0,166,0,,,,,,,166,,,0.2,1063.6046324341187,,X,d,go,d,1,0.31432794532884145,,,,,,,,,,,,,,,,,20,001,20,w,Psychologie,2023-01-16_14h05.22.022,00_bat_bachelor,2022.2.4,59.65589052857752,
,,,,,,,,,,,,1,0,1,0,167,0,167,0,,,,,,,167,,,0.2,1064.2214146805272,,Y,l,go,l,1,0.3997965099479188,,,,,,,,,,,,,,,,,20,001,20,w,Psychologie,2023-01-16_14h05.22.022,00_bat_bachelor,2022.2.4,59.65589052857752,
,,,,,,,,,,,,1,0,1,0,168,0,168,0,,,,,,,168,,,0.2,1064.9222584619347,,X,d,go,d,1,0.24360216143759317,,,,,,,,,,,,,,,,,20,001,20,w,Psychologie,2023-01-16_14h05.22.022,00_bat_bachelor,2022.2.4,59.65589052857752,
,,,,,,,,,,,,1,0,1,0,169,0,169,0,,,,,,,169,,,0.2,1065.4727314071606,,Y,l,go,None,0,,,,,,,,,,,,,,,,,,20,001,20,w,Psychologie,2023-01-16_14h05.22.022,00_bat_bachelor,2022.2.4,59.65589052857752,
,,,,,,,,,,,,1,0,1,0,170,0,170,0,,,,,,,170,,,0.2,1066.473428134097,,X,d,go,d,1,0.3575206516616163,,,,,,,,,,,,,,,,,20,001,20,w,Psychologie,2023-01-16_14h05.22.022,00_bat_bachelor,2022.2.4,59.65589052857752,
,,,,,,,,,,,,1,0,1,0,171,0,171,0,,,,,,,171,,,0.2,1067.1403199319684,,Y,l,go,l,1,0.32942078649648465,,,,,,,,,,,,,,,,,20,001,20,w,Psychologie,2023-01-16_14h05.22.022,00_bat_bachelor,2022.2.4,59.65589052857752,
,,,,,,,,,,,,1,0,1,0,172,0,172,0,,,,,,,172,,,0.2,1067.7744398669383,,X,d,go,d,1,0.3670328894695558,,,,,,,,,,,,,,,,,20,001,20,w,Psychologie,2023-01-16_14h05.22.022,00_bat_bachelor,2022.2.4,59.65589052857752,
,,,,,,,,,,,,1,0,1,0,173,0,173,0,,,,,,,173,,,0.2,1068.4415726343905,,Y,l,go,l,1,0.2915875927210436,,,,,,,,,,,,,,,,,20,001,20,w,Psychologie,2023-01-16_14h05.22.022,00_bat_bachelor,2022.2.4,59.65589052857752,
,,,,,,,,,,,,1,0,1,0,174,0,174,0,,,,,,,174,,,0.2,1069.0420945250444,,X,d,go,d,1,0.3156840658848523,,,,,,,,,,,,,,,,,20,001,20,w,Psychologie,2023-01-16_14h05.22.022,00_bat_bachelor,2022.2.4,59.65589052857752,
,,,,,,,,,,,,1,0,1,0,175,0,175,0,,,,,,,175,,,0.2,1069.658885498724,,Y,l,go,l,1,0.4982832500791119,,,,,,,,,,,,,,,,,20,001,20,w,Psychologie,2023-01-16_14h05.22.022,00_bat_bachelor,2022.2.4,59.65589052857752,
,,,,,,,,,,,,1,0,1,0,176,0,176,0,,,,,,,176,,,0.2,1070.459685110458,,X,d,go,d,1,0.3384796911959711,,,,,,,,,,,,,,,,,20,001,20,w,Psychologie,2023-01-16_14h05.22.022,00_bat_bachelor,2022.2.4,59.65589052857752,
,,,,,,,,,,,,1,0,1,0,177,0,177,0,,,,,,,177,,,0.2,1071.110237037461,,X,None,nogo,l,0,0.3604316805503913,,,,,,,,,,,,,,,,,20,001,20,w,Psychologie,2023-01-16_14h05.22.022,00_bat_bachelor,2022.2.4,59.65589052857752,
,,,,,,,,,,,,1,0,1,0,178,0,178,0,,,,,,,178,,,0.2,1071.7771666534973,,Y,l,go,None,0,,,,,,,,,,,,,,,,,,20,001,20,w,Psychologie,2023-01-16_14h05.22.022,00_bat_bachelor,2022.2.4,59.65589052857752,
,,,,,,,,,,,,1,0,1,0,179,0,179,0,,,,,,,179,,,0.2,1072.7785499255515,,X,d,go,d,1,0.35564283439089195,,,,,,,,,,,,,,,,,20,001,20,w,Psychologie,2023-01-16_14h05.22.022,00_bat_bachelor,2022.2.4,59.65589052857752,
,,,,,,,,,,,,1,0,1,0,180,0,180,0,,,,,,,180,,,0.2,1073.4456977232985,,Y,l,go,l,1,0.3930251192941796,,,,,,,,,,,,,,,,,20,001,20,w,Psychologie,2023-01-16_14h05.22.022,00_bat_bachelor,2022.2.4,59.65589052857752,
,,,,,,,,,,,,1,0,1,0,181,0,181,0,,,,,,,181,,,0.2,1074.1461948382093,1074.9466952985713,Y,None,nogo,None,1,,,,,,,,,,,,,,,,,,20,001,20,w,Psychologie,2023-01-16_14h05.22.022,00_bat_bachelor,2022.2.4,59.65589052857752,
,,,,,,,,,,,,1,0,1,0,182,0,182,0,,,,,,,182,,,0.2,1075.1470079287246,,X,d,go,d,1,0.3701039182851673,,,,,,,,,,,,,,,,,20,001,20,w,Psychologie,2023-01-16_14h05.22.022,00_bat_bachelor,2022.2.4,59.65589052857752,
,,,,,,,,,,,,1,0,1,0,183,0,183,0,,,,,,,183,,,0.2,1075.8471525589557,,Y,l,go,l,1,0.35825374221167294,,,,,,,,,,,,,,,,,20,001,20,w,Psychologie,2023-01-16_14h05.22.022,00_bat_bachelor,2022.2.4,59.65589052857752,
,,,,,,,,,,,,1,0,1,0,184,0,184,0,,,,,,,184,,,0.2,1076.5144162354336,,X,d,go,d,1,0.34761132313360577,,,,,,,,,,,,,,,,,20,001,20,w,Psychologie,2023-01-16_14h05.22.022,00_bat_bachelor,2022.2.4,59.65589052857752,
,,,,,,,,,,,,1,0,1,0,185,0,185,0,,,,,,,185,,,0.2,1077.1650025866657,,Y,l,go,l,1,0.3846721536501718,,,,,,,,,,,,,,,,,20,001,20,w,Psychologie,2023-01-16_14h05.22.022,00_bat_bachelor,2022.2.4,59.65589052857752,
,,,,,,,,,,,,1,0,1,0,186,0,186,0,,,,,,,186,,,0.2,1077.8654638228072,,X,d,go,d,1,0.43641031038350775,,,,,,,,,,,,,,,,,20,001,20,w,Psychologie,2023-01-16_14h05.22.022,00_bat_bachelor,2022.2.4,59.65589052857752,
,,,,,,,,,,,,1,0,1,0,187,0,187,0,,,,,,,187,,,0.2,1078.6161155800655,,Y,l,go,l,1,0.326626121186564,,,,,,,,,,,,,,,,,20,001,20,w,Psychologie,2023-01-16_14h05.22.022,00_bat_bachelor,2022.2.4,59.65589052857752,
,,,,,,,,,,,,1,0,1,0,188,0,188,0,,,,,,,188,,,0.2,1079.2498529697696,,Y,None,nogo,l,0,0.5410308657155838,,,,,,,,,,,,,,,,,20,001,20,w,Psychologie,2023-01-16_14h05.22.022,00_bat_bachelor,2022.2.4,59.65589052857752,
,,,,,,,,,,,,1,0,1,0,189,0,189,0,,,,,,,189,,,0.2,1080.100431951305,,X,d,go,None,0,,,,,,,,,,,,,,,,,,20,001,20,w,Psychologie,2023-01-16_14h05.22.022,00_bat_bachelor,2022.2.4,59.65589052857752,
,,,,,,,,,,,,1,0,1,0,190,0,190,0,,,,,,,190,,,0.2,1081.1009269813694,,Y,l,go,l,1,0.4980873713866458,,,,,,,,,,,,,,,,,20,001,20,w,Psychologie,2023-01-16_14h05.22.022,00_bat_bachelor,2022.2.4,59.65589052857752,
,,,,,,,,,,,,1,0,1,0,191,0,191,0,,,,,,,191,,,0.2,1081.9017159264404,,Y,None,nogo,None,1,,,,,,,,,,,,,,,,,,20,001,20,w,Psychologie,2023-01-16_14h05.22.022,00_bat_bachelor,2022.2.4,59.65589052857752,
,,,,,,,,,,,,1,0,1,0,192,0,192,0,,,,,,,192,,,0.2,1082.9024800472835,,X,d,go,d,1,0.42374461955114384,,,,,,,,,,,,,,,,,20,001,20,w,Psychologie,2023-01-16_14h05.22.022,00_bat_bachelor,2022.2.4,59.65589052857752,
,,,,,,,,,,,,1,0,1,0,193,0,193,0,,,,,,,193,,,0.2,1083.6366372670855,,Y,l,go,l,1,0.3295022410020465,,,,,,,,,,,,,,,,,20,001,20,w,Psychologie,2023-01-16_14h05.22.022,00_bat_bachelor,2022.2.4,59.65589052857752,
,,,,,,,,,,,,1,0,1,0,194,0,194,0,,,,,,,194,,,0.2,1084.2703877476924,,X,d,go,None,0,,,,,,,,,,,,,,,,,,20,001,20,w,Psychologie,2023-01-16_14h05.22.022,00_bat_bachelor,2022.2.4,59.65589052857752,
,,,,,,,,,,,,1,0,1,0,195,0,195,0,,,,,,,195,,,0.2,1085.2707736868979,,X,None,nogo,l,0,0.3113121892165509,,,,,,,,,,,,,,,,,20,001,20,w,Psychologie,2023-01-16_14h05.22.022,00_bat_bachelor,2022.2.4,59.65589052857752,
,,,,,,,,,,,,1,0,1,0,196,0,196,0,,,,,,,196,,,0.2,1085.8882924177997,,Y,l,go,None,0,,,,,,,,,,,,,,,,,,20,001,20,w,Psychologie,2023-01-16_14h05.22.022,00_bat_bachelor,2022.2.4,59.65589052857752,
,,,,,,,,,,,,1,0,1,0,197,0,197,0,,,,,,,197,,,0.2,1086.8888359326847,,X,d,go,d,1,0.06813703439183882,,,,,,,,,,,,,,,,,20,001,20,w,Psychologie,2023-01-16_14h05.22.022,00_bat_bachelor,2022.2.4,59.65589052857752,
,,,,,,,,,,,,1,0,1,0,198,0,198,0,,,,,,,198,,,0.2,1087.2724982921245,1088.073282388712,Y,l,go,None,0,,,,,,,,,,,,,,,,,,20,001,20,w,Psychologie,2023-01-16_14h05.22.022,00_bat_bachelor,2022.2.4,59.65589052857752,
,,,,,,,,,,,,1,0,1,0,199,0,199,0,,,,,,,199,,,0.2,1088.2730418070096,,Y,None,nogo,l,0,0.5885362972258008,,,,,,,,,,,,,,,,,20,001,20,w,Psychologie,2023-01-16_14h05.22.022,00_bat_bachelor,2022.2.4,59.65589052857752,
