loop_instruction.thisRepN,loop_instruction.thisTrialN,loop_instruction.thisN,loop_instruction.thisIndex,loop_rsi_practice.thisRepN,loop_rsi_practice.thisTrialN,loop_rsi_practice.thisN,loop_rsi_practice.thisIndex,loop_practice.thisRepN,loop_practice.thisTrialN,loop_practice.thisN,loop_practice.thisIndex,loop_exp.thisRepN,loop_exp.thisTrialN,loop_exp.thisN,loop_exp.thisIndex,loop_trials.thisRepN,loop_trials.thisTrialN,loop_trials.thisN,loop_trials.thisIndex,map_condition,map_x_key,map_y_key,key_resp_welcome.started,key_resp_welcome.keys,key_resp_welcome.rt,index,text_empty_rsi_practice.started,text_empty_rsi_practice.stopped,rsi,stimulus.started,stimulus,correct,trial_type,key_resp_trial.keys,key_resp_trial.corr,key_resp_trial.rt,stimulus.stopped,key_resp_instruction_rsi.started,key_resp_instruction_rsi.keys,key_resp_instruction_rsi.rt,key_resp_instruction_rsi.stopped,key_resp_instruction_final.started,key_resp_instruction_final.keys,key_resp_instruction_final.rt,key_resp_break.started,key_resp_break.keys,key_resp_break.rt,key_resp_break.stopped,key_resp_end_screen.started,image_end_screen.started,key_resp_end_screen.keys,key_resp_end_screen.rt,participant,session,Alter,Geschlecht (w/m/d/andere),Studiengang,date,expName,psychopyVersion,frameRate,
,,,,0,0,0,0,0,0,0,0,,,,,,,,,1,l,d,1355.083469535286,j,28.626911331091833,0,1383.7309295850027,1384.74539891132,1,1384.74539891132,X,l,go,None,0,,,,,,,,,,,,,,,,,,21,001,19,w,Bachelor Psychologie 100%,2023-01-16_15h30.41.874,00_bat_bachelor,2022.2.4,59.903138487796895,
,,,,0,0,0,0,1,0,1,0,,,,,,,,,,,,,,,1,1386.1466064743727,1387.1474777466756,1,1387.1474777466756,Y,d,go,l,0,0.6385554466578469,,,,,,,,,,,,,,,,,21,001,19,w,Bachelor Psychologie 100%,2023-01-16_15h30.41.874,00_bat_bachelor,2022.2.4,59.903138487796895,
,,,,0,0,0,0,2,0,2,0,,,,,,,,,,,,,,,2,1388.4989132126466,1389.4997932122205,1,1389.4997932122205,X,l,go,d,0,0.36692163896441343,,,,,,,,,,,,,,,,,21,001,19,w,Bachelor Psychologie 100%,2023-01-16_15h30.41.874,00_bat_bachelor,2022.2.4,59.903138487796895,
,,,,0,0,0,0,3,0,3,0,,,,,,,,,,,,,,,3,1390.5837762018054,1391.58470226196,1,1391.58470226196,X,None,nogo,d,0,0.26492071872417,,,,,,,,,,,,,,,,,21,001,19,w,Bachelor Psychologie 100%,2023-01-16_15h30.41.874,00_bat_bachelor,2022.2.4,59.903138487796895,
,,,,0,0,0,0,4,0,4,0,,,,,,,,,,,,,,,4,1392.9853992798053,1393.9859020674412,1,1393.9859020674412,Y,d,go,None,0,,1394.7861775582169,,,,,,,,,,,,,,,,21,001,19,w,Bachelor Psychologie 100%,2023-01-16_15h30.41.874,00_bat_bachelor,2022.2.4,59.903138487796895,
,,,,0,0,0,0,5,0,5,0,,,,,,,,,,,,,,,5,1395.3867120549257,1396.3875610242103,1,1396.3875610242103,X,l,go,d,0,0.19919808391932747,,,,,,,,,,,,,,,,,21,001,19,w,Bachelor Psychologie 100%,2023-01-16_15h30.41.874,00_bat_bachelor,2022.2.4,59.903138487796895,
,,,,0,0,0,0,6,0,6,0,,,,,,,,,,,,,,,6,1397.2884139207672,1398.2890500416725,1,1398.2890500416725,Y,d,go,d,1,0.20154474945229595,,,,,,,,,,,,,,,,,21,001,19,w,Bachelor Psychologie 100%,2023-01-16_15h30.41.874,00_bat_bachelor,2022.2.4,59.903138487796895,
,,,,0,0,0,0,7,0,7,0,,,,,,,,,,,,,,,7,1399.2063906878102,1400.2069647481367,1,1400.2069647481367,X,l,go,l,1,0.20350983940443257,,,,,,,,,,,,,,,,,21,001,19,w,Bachelor Psychologie 100%,2023-01-16_15h30.41.874,00_bat_bachelor,2022.2.4,59.903138487796895,
,,,,0,0,0,0,8,0,8,0,,,,,,,,,,,,,,,8,1401.1243398184997,1402.1250830908684,1,1402.1250830908684,Y,d,go,d,1,0.2369968534767395,,,,,,,,,,,,,,,,,21,001,19,w,Bachelor Psychologie 100%,2023-01-16_15h30.41.874,00_bat_bachelor,2022.2.4,59.903138487796895,
,,,,0,0,0,0,9,0,9,0,,,,,,,,,,,,,,,9,1403.0761303873296,1404.0768629930353,1,1404.0768629930353,X,l,go,l,1,0.46313977413228713,,,,,,,,,,,,,,,,,21,001,19,w,Bachelor Psychologie 100%,2023-01-16_15h30.41.874,00_bat_bachelor,2022.2.4,59.903138487796895,
,,,,0,0,0,0,10,0,10,0,,,,,,,,,,,,,,,10,1405.2443993966517,1406.2451271538775,1,1406.2451271538775,Y,d,go,d,1,0.34147292403213214,,,,,,,,,,,,,,,,,21,001,19,w,Bachelor Psychologie 100%,2023-01-16_15h30.41.874,00_bat_bachelor,2022.2.4,59.903138487796895,
,,,,0,0,0,0,11,0,11,0,,,,,,,,,,,,,,,11,1407.2960027655718,1408.2966432501125,1,1408.2966432501125,X,l,go,l,1,0.3386981375006144,,,,,,,,,,,,,,,,,21,001,19,w,Bachelor Psychologie 100%,2023-01-16_15h30.41.874,00_bat_bachelor,2022.2.4,59.903138487796895,
,,,,0,0,0,0,12,0,12,0,,,,,,,,,,,,,,,12,1409.3475852860174,1410.348332922018,1,1410.348332922018,Y,d,go,d,1,0.31810857172240503,,,,,,,,,,,,,,,,,21,001,19,w,Bachelor Psychologie 100%,2023-01-16_15h30.41.874,00_bat_bachelor,2022.2.4,59.903138487796895,
,,,,0,0,0,0,13,0,13,0,,,,,,,,,,,,,,,13,1411.382130238966,1412.383197389965,1,1412.383197389965,Y,None,nogo,d,0,0.4115907082159538,,,,,,,,,,,,,,,,,21,001,19,w,Bachelor Psychologie 100%,2023-01-16_15h30.41.874,00_bat_bachelor,2022.2.4,59.903138487796895,
,,,,0,0,0,0,14,0,14,0,,,,,,,,,,,,,,,14,1413.9009488965094,1414.9018943505944,1,1414.9018943505944,X,l,go,d,0,0.5006044832407497,,,,,,,,,,,,,,,,,21,001,19,w,Bachelor Psychologie 100%,2023-01-16_15h30.41.874,00_bat_bachelor,2022.2.4,59.903138487796895,
,,,,1,0,1,0,0,0,0,0,,,,,,,,,,,,,,,0,1427.87825993781,1428.0785051740568,0.2,1428.0785051740568,X,l,go,None,0,,,1416.1298389673502,j,11.725304010658874,,,,,,,,,,,,,21,001,19,w,Bachelor Psychologie 100%,2023-01-16_15h30.41.874,00_bat_bachelor,2022.2.4,59.903138487796895,
,,,,1,0,1,0,1,0,1,0,,,,,,,,,,,,,,,1,1429.4795731008126,1429.679651549257,0.2,1429.679651549257,Y,d,go,None,0,,,,,,,,,,,,,,,,,,21,001,19,w,Bachelor Psychologie 100%,2023-01-16_15h30.41.874,00_bat_bachelor,2022.2.4,59.903138487796895,
,,,,1,0,1,0,2,0,2,0,,,,,,,,,,,,,,,2,1431.080765051749,1431.2809550152924,0.2,1431.2809550152924,X,l,go,None,0,,1432.0816174149732,,,,,,,,,,,,,,,,21,001,19,w,Bachelor Psychologie 100%,2023-01-16_15h30.41.874,00_bat_bachelor,2022.2.4,59.903138487796895,
,,,,1,0,1,0,3,0,3,0,,,,,,,,,,,,,,,3,1432.6819856087313,1432.8821799359102,0.2,1432.8821799359102,Y,d,go,None,0,,,,,,,,,,,,,,,,,,21,001,19,w,Bachelor Psychologie 100%,2023-01-16_15h30.41.874,00_bat_bachelor,2022.2.4,59.903138487796895,
,,,,1,0,1,0,4,0,4,0,,,,,,,,,,,,,,,4,1434.282971499164,1434.4830770991139,0.2,1434.4830770991139,Y,None,nogo,d,0,0.4391974827085505,,,,,,,,,,,,,,,,,21,001,19,w,Bachelor Psychologie 100%,2023-01-16_15h30.41.874,00_bat_bachelor,2022.2.4,59.903138487796895,
,,,,1,0,1,0,5,0,5,0,,,,,,,,,,,,,,,5,1436.034542043857,1436.234509946902,0.2,1436.234509946902,X,l,go,d,0,0.4168037965973781,,,,,,,,,,,,,,,,,21,001,19,w,Bachelor Psychologie 100%,2023-01-16_15h30.41.874,00_bat_bachelor,2022.2.4,59.903138487796895,
,,,,1,0,1,0,6,0,6,0,,,,,,,,,,,,,,,6,1437.3526931623273,1437.552853065281,0.2,1437.552853065281,Y,d,go,None,0,,1438.3536856466962,,,,,,,,,,,,,,,,21,001,19,w,Bachelor Psychologie 100%,2023-01-16_15h30.41.874,00_bat_bachelor,2022.2.4,59.903138487796895,
,,,,1,0,1,0,7,0,7,0,,,,,,,,,,,,,,,7,1438.9539297193041,1439.154260773692,0.2,1439.154260773692,Y,None,nogo,l,0,0.03970385822321987,,,,,,,,,,,,,,,,,21,001,19,w,Bachelor Psychologie 100%,2023-01-16_15h30.41.874,00_bat_bachelor,2022.2.4,59.903138487796895,
,,,,1,0,1,0,8,0,8,0,,,,,,,,,,,,,,,8,1440.3380260179256,1440.5381451936264,0.2,1440.5381451936264,X,l,go,l,1,0.6086272187458235,,,,,,,,,,,,,,,,,21,001,19,w,Bachelor Psychologie 100%,2023-01-16_15h30.41.874,00_bat_bachelor,2022.2.4,59.903138487796895,
,,,,1,0,1,0,9,0,9,0,,,,,,,,,,,,,,,9,1441.8557954638563,1442.0559413062074,0.2,1442.0559413062074,Y,d,go,d,1,0.4663421968216426,,,,,,,,,,,,,,,,,21,001,19,w,Bachelor Psychologie 100%,2023-01-16_15h30.41.874,00_bat_bachelor,2022.2.4,59.903138487796895,
,,,,1,0,1,0,10,0,10,0,,,,,,,,,,,,,,,10,1443.223582437051,1443.423528037074,0.2,1443.423528037074,Y,None,nogo,None,1,,1444.224312618513,,,,,,,,,,,,,,,,21,001,19,w,Bachelor Psychologie 100%,2023-01-16_15h30.41.874,00_bat_bachelor,2022.2.4,59.903138487796895,
,,,,1,0,1,0,11,0,11,0,,,,,,,,,,,,,,,11,1444.824667721372,1445.0247068971112,0.2,1445.0247068971112,X,l,go,l,1,0.538093434759503,,,,,,,,,,,,,,,,,21,001,19,w,Bachelor Psychologie 100%,2023-01-16_15h30.41.874,00_bat_bachelor,2022.2.4,59.903138487796895,
,,,,1,0,1,0,12,0,12,0,,,,,,,,,,,,,,,12,1446.2758747753323,1446.475807284456,0.2,1446.475807284456,Y,d,go,d,1,0.3661773968997295,,,,,,,,,,,,,,,,,21,001,19,w,Bachelor Psychologie 100%,2023-01-16_15h30.41.874,00_bat_bachelor,2022.2.4,59.903138487796895,
,,,,1,0,1,0,13,0,13,0,,,,,,,,,,,,,,,13,1447.543317554755,1447.7436229121813,0.2,1447.7436229121813,X,l,go,None,0,,1448.5443066451844,,,,,,,,,,,,,,,,21,001,19,w,Bachelor Psychologie 100%,2023-01-16_15h30.41.874,00_bat_bachelor,2022.2.4,59.903138487796895,
,,,,1,0,1,0,14,0,14,0,,,,,,,,,,,,,,,14,1449.1446981116605,1449.3448890449,0.2,1449.3448890449,Y,d,go,d,1,0.39400768644190975,,,,,,,,,,,,,,,,,21,001,19,w,Bachelor Psychologie 100%,2023-01-16_15h30.41.874,00_bat_bachelor,2022.2.4,59.903138487796895,
,,,,,,,,,,,,,,,,,,,,,,,,,,,,,,,,,,,,,,1450.4886620661018,None,,1450.4886620661018,1450.4886620661018,space,24.197716872520687,,,,,,,,,21,001,19,w,Bachelor Psychologie 100%,2023-01-16_15h30.41.874,00_bat_bachelor,2022.2.4,59.903138487796895,
,,,,,,,,,,,,0,0,0,0,0,0,0,0,,,,,,,0,,,1,1475.71517056234,X,l,go,l,1,0.31059487839593203,,,,,,,,,,,,,,,,,21,001,19,w,Bachelor Psychologie 100%,2023-01-16_15h30.41.874,00_bat_bachelor,2022.2.4,59.903138487796895,
,,,,,,,,,,,,0,0,0,0,1,0,1,0,,,,,,,1,,,1,1477.1495708365692,Y,d,go,d,1,0.3964227155702247,,,,,,,,,,,,,,,,,21,001,19,w,Bachelor Psychologie 100%,2023-01-16_15h30.41.874,00_bat_bachelor,2022.2.4,59.903138487796895,
,,,,,,,,,,,,0,0,0,0,2,0,2,0,,,,,,,2,,,1,1478.6673868279322,X,l,go,l,1,0.4151145852956688,,,,,,,,,,,,,,,,,21,001,19,w,Bachelor Psychologie 100%,2023-01-16_15h30.41.874,00_bat_bachelor,2022.2.4,59.903138487796895,
,,,,,,,,,,,,0,0,0,0,3,0,3,0,,,,,,,3,,,1,1480.2018883869605,X,None,nogo,None,1,,1481.0024746654635,,,,,,,,,,,,,,,,21,001,19,w,Bachelor Psychologie 100%,2023-01-16_15h30.41.874,00_bat_bachelor,2022.2.4,59.903138487796895,
,,,,,,,,,,,,0,0,0,0,4,0,4,0,,,,,,,4,,,1,1482.0031073924329,Y,d,go,d,1,0.19951711406974937,,,,,,,,,,,,,,,,,21,001,19,w,Bachelor Psychologie 100%,2023-01-16_15h30.41.874,00_bat_bachelor,2022.2.4,59.903138487796895,
,,,,,,,,,,,,0,0,0,0,5,0,5,0,,,,,,,5,,,1,1483.3041889434207,X,l,go,l,1,0.19521214646010776,,,,,,,,,,,,,,,,,21,001,19,w,Bachelor Psychologie 100%,2023-01-16_15h30.41.874,00_bat_bachelor,2022.2.4,59.903138487796895,
,,,,,,,,,,,,0,0,0,0,6,0,6,0,,,,,,,6,,,1,1484.6216661228282,Y,d,go,d,1,0.2534264212663402,,,,,,,,,,,,,,,,,21,001,19,w,Bachelor Psychologie 100%,2023-01-16_15h30.41.874,00_bat_bachelor,2022.2.4,59.903138487796895,
,,,,,,,,,,,,0,0,0,0,7,0,7,0,,,,,,,7,,,1,1485.9892509143028,Y,None,nogo,None,1,,,,,,,,,,,,,,,,,,21,001,19,w,Bachelor Psychologie 100%,2023-01-16_15h30.41.874,00_bat_bachelor,2022.2.4,59.903138487796895,
,,,,,,,,,,,,0,0,0,0,8,0,8,0,,,,,,,8,,,1,1487.7906832529989,X,l,go,l,1,0.20364802115727798,,,,,,,,,,,,,,,,,21,001,19,w,Bachelor Psychologie 100%,2023-01-16_15h30.41.874,00_bat_bachelor,2022.2.4,59.903138487796895,
,,,,,,,,,,,,0,0,0,0,9,0,9,0,,,,,,,9,,,1,1489.1081594627103,Y,d,go,d,1,0.19853335697189323,,,,,,,,,,,,,,,,,21,001,19,w,Bachelor Psychologie 100%,2023-01-16_15h30.41.874,00_bat_bachelor,2022.2.4,59.903138487796895,
,,,,,,,,,,,,0,0,0,0,10,0,10,0,,,,,,,10,,,1,1490.4093137409363,Y,None,nogo,d,0,0.5145462946638872,,,,,,,,,,,,,,,,,21,001,19,w,Bachelor Psychologie 100%,2023-01-16_15h30.41.874,00_bat_bachelor,2022.2.4,59.903138487796895,
,,,,,,,,,,,,0,0,0,0,11,0,11,0,,,,,,,11,,,1,1492.0269265323986,X,l,go,l,1,0.5589457882888382,,,,,,,,,,,,,,,,,21,001,19,w,Bachelor Psychologie 100%,2023-01-16_15h30.41.874,00_bat_bachelor,2022.2.4,59.903138487796895,
,,,,,,,,,,,,0,0,0,0,12,0,12,0,,,,,,,12,,,1,1493.694976632738,Y,d,go,d,1,0.6197927890898427,,,,,,,,,,,,,,,,,21,001,19,w,Bachelor Psychologie 100%,2023-01-16_15h30.41.874,00_bat_bachelor,2022.2.4,59.903138487796895,
,,,,,,,,,,,,0,0,0,0,13,0,13,0,,,,,,,13,,,1,1495.4298330037163,X,l,go,l,1,0.341227105967846,,,,,,,,,,,,,,,,,21,001,19,w,Bachelor Psychologie 100%,2023-01-16_15h30.41.874,00_bat_bachelor,2022.2.4,59.903138487796895,
,,,,,,,,,,,,0,0,0,0,14,0,14,0,,,,,,,14,,,1,1496.8808199365703,Y,d,go,d,1,0.4903164882271085,,,,,,,,,,,,,,,,,21,001,19,w,Bachelor Psychologie 100%,2023-01-16_15h30.41.874,00_bat_bachelor,2022.2.4,59.903138487796895,
,,,,,,,,,,,,0,0,0,0,15,0,15,0,,,,,,,15,,,1,1498.4821282510893,X,l,go,l,1,0.3925153235250036,,,,,,,,,,,,,,,,,21,001,19,w,Bachelor Psychologie 100%,2023-01-16_15h30.41.874,00_bat_bachelor,2022.2.4,59.903138487796895,
,,,,,,,,,,,,0,0,0,0,16,0,16,0,,,,,,,16,,,1,1499.9833987959246,Y,d,go,d,1,0.42836985159738106,,,,,,,,,,,,,,,,,21,001,19,w,Bachelor Psychologie 100%,2023-01-16_15h30.41.874,00_bat_bachelor,2022.2.4,59.903138487796895,
,,,,,,,,,,,,0,0,0,0,17,0,17,0,,,,,,,17,,,1,1501.517531870286,X,l,go,l,1,0.38111217753976234,,,,,,,,,,,,,,,,,21,001,19,w,Bachelor Psychologie 100%,2023-01-16_15h30.41.874,00_bat_bachelor,2022.2.4,59.903138487796895,
,,,,,,,,,,,,0,0,0,0,18,0,18,0,,,,,,,18,,,1,1503.0021789080347,X,None,nogo,None,1,,,,,,,,,,,,,,,,,,21,001,19,w,Bachelor Psychologie 100%,2023-01-16_15h30.41.874,00_bat_bachelor,2022.2.4,59.903138487796895,
,,,,,,,,,,,,0,0,0,0,19,0,19,0,,,,,,,19,,,1,1504.8037765799854,Y,d,go,d,1,0.664001252502203,,,,,,,,,,,,,,,,,21,001,19,w,Bachelor Psychologie 100%,2023-01-16_15h30.41.874,00_bat_bachelor,2022.2.4,59.903138487796895,
,,,,,,,,,,,,0,0,0,0,20,0,20,0,,,,,,,20,,,1,1506.5716511167739,X,l,go,l,1,0.6552240446362703,,,,,,,,,,,,,,,,,21,001,19,w,Bachelor Psychologie 100%,2023-01-16_15h30.41.874,00_bat_bachelor,2022.2.4,59.903138487796895,
,,,,,,,,,,,,0,0,0,0,21,0,21,0,,,,,,,21,,,1,1508.3396211686668,Y,d,go,d,1,0.5833050492037728,,,,,,,,,,,,,,,,,21,001,19,w,Bachelor Psychologie 100%,2023-01-16_15h30.41.874,00_bat_bachelor,2022.2.4,59.903138487796895,
,,,,,,,,,,,,0,0,0,0,22,0,22,0,,,,,,,22,,,1,1510.024268109446,X,l,go,l,1,0.45100402244133875,,,,,,,,,,,,,,,,,21,001,19,w,Bachelor Psychologie 100%,2023-01-16_15h30.41.874,00_bat_bachelor,2022.2.4,59.903138487796895,
,,,,,,,,,,,,0,0,0,0,23,0,23,0,,,,,,,23,,,1,1511.5919017736232,X,None,nogo,None,1,,,,,,,,,,,,,,,,,,21,001,19,w,Bachelor Psychologie 100%,2023-01-16_15h30.41.874,00_bat_bachelor,2022.2.4,59.903138487796895,
,,,,,,,,,,,,0,0,0,0,24,0,24,0,,,,,,,24,,,1,1513.3935489000942,Y,d,go,d,1,0.2011719011461537,,,,,,,,,,,,,,,,,21,001,19,w,Bachelor Psychologie 100%,2023-01-16_15h30.41.874,00_bat_bachelor,2022.2.4,59.903138487796895,
,,,,,,,,,,,,0,0,0,0,25,0,25,0,,,,,,,25,,,1,1514.7111157764266,X,l,go,l,1,0.48306412810779875,,,,,,,,,,,,,,,,,21,001,19,w,Bachelor Psychologie 100%,2023-01-16_15h30.41.874,00_bat_bachelor,2022.2.4,59.903138487796895,
,,,,,,,,,,,,0,0,0,0,26,0,26,0,,,,,,,26,,,1,1516.2954893112765,Y,d,go,d,1,0.3712440611125203,,,,,,,,,,,,,,,,,21,001,19,w,Bachelor Psychologie 100%,2023-01-16_15h30.41.874,00_bat_bachelor,2022.2.4,59.903138487796895,
,,,,,,,,,,,,0,0,0,0,27,0,27,0,,,,,,,27,,,1,1517.780091742985,X,l,go,l,1,0.45423892996041104,,,,,,,,,,,,,,,,,21,001,19,w,Bachelor Psychologie 100%,2023-01-16_15h30.41.874,00_bat_bachelor,2022.2.4,59.903138487796895,
,,,,,,,,,,,,0,0,0,0,28,0,28,0,,,,,,,28,,,1,1519.3477981344004,X,None,nogo,d,0,0.47173031542115496,,,,,,,,,,,,,,,,,21,001,19,w,Bachelor Psychologie 100%,2023-01-16_15h30.41.874,00_bat_bachelor,2022.2.4,59.903138487796895,
,,,,,,,,,,,,0,0,0,0,29,0,29,0,,,,,,,29,,,1,1520.9322720328346,Y,d,go,l,0,0.27886495438360726,,,,,,,,,,,,,,,,,21,001,19,w,Bachelor Psychologie 100%,2023-01-16_15h30.41.874,00_bat_bachelor,2022.2.4,59.903138487796895,
,,,,,,,,,,,,0,0,0,0,30,0,30,0,,,,,,,30,,,1,1522.3167179070442,X,l,go,None,0,,,,,,,,,,,,,,,,,,21,001,19,w,Bachelor Psychologie 100%,2023-01-16_15h30.41.874,00_bat_bachelor,2022.2.4,59.903138487796895,
,,,,,,,,,,,,0,0,0,0,31,0,31,0,,,,,,,31,,,1,1524.1184566698394,Y,d,go,l,0,0.6444318074463808,,,,,,,,,,,,,,,,,21,001,19,w,Bachelor Psychologie 100%,2023-01-16_15h30.41.874,00_bat_bachelor,2022.2.4,59.903138487796895,
,,,,,,,,,,,,0,0,0,0,32,0,32,0,,,,,,,32,,,1,1525.8693406694074,X,l,go,None,0,,,,,,,,,,,,,,,,,,21,001,19,w,Bachelor Psychologie 100%,2023-01-16_15h30.41.874,00_bat_bachelor,2022.2.4,59.903138487796895,
,,,,,,,,,,,,0,0,0,0,33,0,33,0,,,,,,,33,,,1,1527.6711070685524,Y,d,go,None,0,,,,,,,,,,,,,,,,,,21,001,19,w,Bachelor Psychologie 100%,2023-01-16_15h30.41.874,00_bat_bachelor,2022.2.4,59.903138487796895,
,,,,,,,,,,,,0,0,0,0,34,0,34,0,,,,,,,34,,,1,1529.4723115285742,X,l,go,None,0,,,,,,,,,,,,,,,,,,21,001,19,w,Bachelor Psychologie 100%,2023-01-16_15h30.41.874,00_bat_bachelor,2022.2.4,59.903138487796895,
,,,,,,,,,,,,0,0,0,0,35,0,35,0,,,,,,,35,,,1,1531.2734917461858,X,None,nogo,d,0,0.2096843818690104,,,,,,,,,,,,,,,,,21,001,19,w,Bachelor Psychologie 100%,2023-01-16_15h30.41.874,00_bat_bachelor,2022.2.4,59.903138487796895,
,,,,,,,,,,,,0,0,0,0,36,0,36,0,,,,,,,36,,,1,1532.5913713496375,Y,d,go,None,0,,1533.3917825979224,,,,,,,,,,,,,,,,21,001,19,w,Bachelor Psychologie 100%,2023-01-16_15h30.41.874,00_bat_bachelor,2022.2.4,59.903138487796895,
,,,,,,,,,,,,0,0,0,0,37,0,37,0,,,,,,,37,,,1,1534.392743567154,X,l,go,l,1,0.5615625142927456,,,,,,,,,,,,,,,,,21,001,19,w,Bachelor Psychologie 100%,2023-01-16_15h30.41.874,00_bat_bachelor,2022.2.4,59.903138487796895,
,,,,,,,,,,,,0,0,0,0,38,0,38,0,,,,,,,38,,,1,1536.061000212845,X,None,nogo,None,1,,,,,,,,,,,,,,,,,,21,001,19,w,Bachelor Psychologie 100%,2023-01-16_15h30.41.874,00_bat_bachelor,2022.2.4,59.903138487796895,
,,,,,,,,,,,,0,0,0,0,39,0,39,0,,,,,,,39,,,1,1537.862099945647,X,None,nogo,None,1,,1538.6624651333477,,,,,,,,,,,,,,,,21,001,19,w,Bachelor Psychologie 100%,2023-01-16_15h30.41.874,00_bat_bachelor,2022.2.4,59.903138487796895,
,,,,,,,,,,,,0,0,0,0,40,0,40,0,,,,,,,40,,,1,1539.6635943449219,Y,d,go,d,1,0.29871803566857125,,,,,,,,,,,,,,,,,21,001,19,w,Bachelor Psychologie 100%,2023-01-16_15h30.41.874,00_bat_bachelor,2022.2.4,59.903138487796895,
,,,,,,,,,,,,0,0,0,0,41,0,41,0,,,,,,,41,,,1,1541.0644998475145,X,l,go,l,1,0.4012581071656314,,,,,,,,,,,,,,,,,21,001,19,w,Bachelor Psychologie 100%,2023-01-16_15h30.41.874,00_bat_bachelor,2022.2.4,59.903138487796895,
,,,,,,,,,,,,0,0,0,0,42,0,42,0,,,,,,,42,,,1,1542.5824297782128,Y,d,go,None,0,,,,,,,,,,,,,,,,,,21,001,19,w,Bachelor Psychologie 100%,2023-01-16_15h30.41.874,00_bat_bachelor,2022.2.4,59.903138487796895,
,,,,,,,,,,,,0,0,0,0,43,0,43,0,,,,,,,43,,,1,1544.3838310866267,X,l,go,l,1,0.4271407612832263,,,,,,,,,,,,,,,,,21,001,19,w,Bachelor Psychologie 100%,2023-01-16_15h30.41.874,00_bat_bachelor,2022.2.4,59.903138487796895,
,,,,,,,,,,,,0,0,0,0,44,0,44,0,,,,,,,44,,,1,1545.9181842820908,Y,d,go,d,1,0.39687216989841545,,,,,,,,,,,,,,,,,21,001,19,w,Bachelor Psychologie 100%,2023-01-16_15h30.41.874,00_bat_bachelor,2022.2.4,59.903138487796895,
,,,,,,,,,,,,0,0,0,0,45,0,45,0,,,,,,,45,,,1,1547.419126099816,Y,None,nogo,None,1,,1548.2199174691305,,,,,,,,,,,,,,,,21,001,19,w,Bachelor Psychologie 100%,2023-01-16_15h30.41.874,00_bat_bachelor,2022.2.4,59.903138487796895,
,,,,,,,,,,,,0,0,0,0,46,0,46,0,,,,,,,46,,,1,1549.2204929840009,X,l,go,l,1,0.2945105225589941,,,,,,,,,,,,,,,,,21,001,19,w,Bachelor Psychologie 100%,2023-01-16_15h30.41.874,00_bat_bachelor,2022.2.4,59.903138487796895,
,,,,,,,,,,,,0,0,0,0,47,0,47,0,,,,,,,47,,,1,1550.6218445469822,Y,d,go,d,1,0.23723442911796155,,,,,,,,,,,,,,,,,21,001,19,w,Bachelor Psychologie 100%,2023-01-16_15h30.41.874,00_bat_bachelor,2022.2.4,59.903138487796895,
,,,,,,,,,,,,0,0,0,0,48,0,48,0,,,,,,,48,,,1,1551.9728223162056,X,l,go,l,1,0.43822293772973353,,,,,,,,,,,,,,,,,21,001,19,w,Bachelor Psychologie 100%,2023-01-16_15h30.41.874,00_bat_bachelor,2022.2.4,59.903138487796895,
,,,,,,,,,,,,0,0,0,0,49,0,49,0,,,,,,,49,,,1,1553.5238145339063,X,None,nogo,d,0,0.32697353712137556,,,,,,,,,,,,,,,,,21,001,19,w,Bachelor Psychologie 100%,2023-01-16_15h30.41.874,00_bat_bachelor,2022.2.4,59.903138487796895,
,,,,,,,,,,,,0,0,0,0,50,0,50,0,,,,,,,50,,,1,1554.958390808053,Y,d,go,None,0,,,,,,,,,,,,,,,,,,21,001,19,w,Bachelor Psychologie 100%,2023-01-16_15h30.41.874,00_bat_bachelor,2022.2.4,59.903138487796895,
,,,,,,,,,,,,0,0,0,0,51,0,51,0,,,,,,,51,,,1,1556.7599836315203,X,l,go,None,0,,1557.5604385161496,,,,,,,,,,,,,,,,21,001,19,w,Bachelor Psychologie 100%,2023-01-16_15h30.41.874,00_bat_bachelor,2022.2.4,59.903138487796895,
,,,,,,,,,,,,0,0,0,0,52,0,52,0,,,,,,,52,,,1,1558.5612569399964,Y,d,go,d,1,0.15364659085753374,,,,,,,,,,,,,,,,,21,001,19,w,Bachelor Psychologie 100%,2023-01-16_15h30.41.874,00_bat_bachelor,2022.2.4,59.903138487796895,
,,,,,,,,,,,,0,0,0,0,53,0,53,0,,,,,,,53,,,1,1559.8286366891443,Y,None,nogo,None,1,,,,,,,,,,,,,,,,,,21,001,19,w,Bachelor Psychologie 100%,2023-01-16_15h30.41.874,00_bat_bachelor,2022.2.4,59.903138487796895,
,,,,,,,,,,,,0,0,0,0,54,0,54,0,,,,,,,54,,,1,1561.6302149671683,X,l,go,d,0,0.20547929299573298,,,,,,,,,,,,,,,,,21,001,19,w,Bachelor Psychologie 100%,2023-01-16_15h30.41.874,00_bat_bachelor,2022.2.4,59.903138487796895,
,,,,,,,,,,,,0,0,0,0,55,0,55,0,,,,,,,55,,,1,1562.947606328431,Y,d,go,None,0,,1563.7486609703446,,,,,,,,,,,,,,,,21,001,19,w,Bachelor Psychologie 100%,2023-01-16_15h30.41.874,00_bat_bachelor,2022.2.4,59.903138487796895,
,,,,,,,,,,,,0,0,0,0,56,0,56,0,,,,,,,56,,,1,1564.7492243640118,Y,None,nogo,None,1,,1565.5496123395787,,,,,,,,,,,,,,,,21,001,19,w,Bachelor Psychologie 100%,2023-01-16_15h30.41.874,00_bat_bachelor,2022.2.4,59.903138487796895,
,,,,,,,,,,,,0,0,0,0,57,0,57,0,,,,,,,57,,,1,1566.5507216723745,Y,None,nogo,l,0,0.19628172169905156,,,,,,,,,,,,,,,,,21,001,19,w,Bachelor Psychologie 100%,2023-01-16_15h30.41.874,00_bat_bachelor,2022.2.4,59.903138487796895,
,,,,,,,,,,,,0,0,0,0,58,0,58,0,,,,,,,58,,,1,1567.8516597082853,X,l,go,d,0,0.3343650486895058,,,,,,,,,,,,,,,,,21,001,19,w,Bachelor Psychologie 100%,2023-01-16_15h30.41.874,00_bat_bachelor,2022.2.4,59.903138487796895,
,,,,,,,,,,,,0,0,0,0,59,0,59,0,,,,,,,59,,,1,1569.3024628836538,Y,d,go,None,0,,,,,,,,,,,,,,,,,,21,001,19,w,Bachelor Psychologie 100%,2023-01-16_15h30.41.874,00_bat_bachelor,2022.2.4,59.903138487796895,
,,,,,,,,,,,,0,0,0,0,60,0,60,0,,,,,,,60,,,1,1571.1044047978612,Y,None,nogo,None,1,,1571.9048606521865,,,,,,,,,,,,,,,,21,001,19,w,Bachelor Psychologie 100%,2023-01-16_15h30.41.874,00_bat_bachelor,2022.2.4,59.903138487796895,
,,,,,,,,,,,,0,0,0,0,61,0,61,0,,,,,,,61,,,1,1572.9052892580403,X,l,go,l,1,0.4006709559362207,,,,,,,,,,,,,,,,,21,001,19,w,Bachelor Psychologie 100%,2023-01-16_15h30.41.874,00_bat_bachelor,2022.2.4,59.903138487796895,
,,,,,,,,,,,,0,0,0,0,62,0,62,0,,,,,,,62,,,1,1574.4400012412116,Y,d,go,d,1,0.2585779339206056,,,,,,,,,,,,,,,,,21,001,19,w,Bachelor Psychologie 100%,2023-01-16_15h30.41.874,00_bat_bachelor,2022.2.4,59.903138487796895,
,,,,,,,,,,,,0,0,0,0,63,0,63,0,,,,,,,63,,,1,1575.8077610629007,X,l,go,d,0,0.6028895245581225,,,,,,,,,,,,,,,,,21,001,19,w,Bachelor Psychologie 100%,2023-01-16_15h30.41.874,00_bat_bachelor,2022.2.4,59.903138487796895,
,,,,,,,,,,,,0,0,0,0,64,0,64,0,,,,,,,64,,,1,1577.525679260274,Y,d,go,None,0,,1578.3263217811764,,,,,,,,,,,,,,,,21,001,19,w,Bachelor Psychologie 100%,2023-01-16_15h30.41.874,00_bat_bachelor,2022.2.4,59.903138487796895,
,,,,,,,,,,,,0,0,0,0,65,0,65,0,,,,,,,65,,,1,1579.3270267505322,Y,None,nogo,d,0,0.4755955256696325,,,,,,,,,,,,,,,,,21,001,19,w,Bachelor Psychologie 100%,2023-01-16_15h30.41.874,00_bat_bachelor,2022.2.4,59.903138487796895,
,,,,,,,,,,,,0,0,0,0,66,0,66,0,,,,,,,66,,,1,1580.911516648961,X,l,go,l,1,0.36431751901545795,,,,,,,,,,,,,,,,,21,001,19,w,Bachelor Psychologie 100%,2023-01-16_15h30.41.874,00_bat_bachelor,2022.2.4,59.903138487796895,
,,,,,,,,,,,,0,0,0,0,67,0,67,0,,,,,,,67,,,1,1582.3793893918082,Y,d,go,d,1,0.4474088726674381,,,,,,,,,,,,,,,,,21,001,19,w,Bachelor Psychologie 100%,2023-01-16_15h30.41.874,00_bat_bachelor,2022.2.4,59.903138487796895,
,,,,,,,,,,,,0,0,0,0,68,0,68,0,,,,,,,68,,,1,1583.9305571245786,Y,None,nogo,None,1,,,,,,,,,,,,,,,,,,21,001,19,w,Bachelor Psychologie 100%,2023-01-16_15h30.41.874,00_bat_bachelor,2022.2.4,59.903138487796895,
,,,,,,,,,,,,0,0,0,0,69,0,69,0,,,,,,,69,,,1,1585.7319385542105,X,l,go,l,1,0.26369259810599033,,,,,,,,,,,,,,,,,21,001,19,w,Bachelor Psychologie 100%,2023-01-16_15h30.41.874,00_bat_bachelor,2022.2.4,59.903138487796895,
,,,,,,,,,,,,0,0,0,0,70,0,70,0,,,,,,,70,,,1,1587.09964067896,Y,d,go,d,1,0.2873473745130468,,,,,,,,,,,,,,,,,21,001,19,w,Bachelor Psychologie 100%,2023-01-16_15h30.41.874,00_bat_bachelor,2022.2.4,59.903138487796895,
,,,,,,,,,,,,0,0,0,0,71,0,71,0,,,,,,,71,,,1,1588.5005941815289,Y,None,nogo,l,0,0.5825200798863079,,,,,,,,,,,,,,,,,21,001,19,w,Bachelor Psychologie 100%,2023-01-16_15h30.41.874,00_bat_bachelor,2022.2.4,59.903138487796895,
,,,,,,,,,,,,0,0,0,0,72,0,72,0,,,,,,,72,,,1,1590.1850389405845,X,l,go,None,0,,1590.9859035219852,,,,,,,,,,,,,,,,21,001,19,w,Bachelor Psychologie 100%,2023-01-16_15h30.41.874,00_bat_bachelor,2022.2.4,59.903138487796895,
,,,,,,,,,,,,0,0,0,0,73,0,73,0,,,,,,,73,,,1,1591.9866555216213,Y,d,go,d,1,0.3284954757800733,,,,,,,,,,,,,,,,,21,001,19,w,Bachelor Psychologie 100%,2023-01-16_15h30.41.874,00_bat_bachelor,2022.2.4,59.903138487796895,
,,,,,,,,,,,,0,0,0,0,74,0,74,0,,,,,,,74,,,1,1593.4210262201086,Y,None,nogo,None,1,,,,,,,,,,,,,,,,,,21,001,19,w,Bachelor Psychologie 100%,2023-01-16_15h30.41.874,00_bat_bachelor,2022.2.4,59.903138487796895,
,,,,,,,,,,,,0,0,0,0,75,0,75,0,,,,,,,75,,,1,1595.2224638921361,X,l,go,l,1,0.2762613192862773,,,,,,,,,,,,,,,,,21,001,19,w,Bachelor Psychologie 100%,2023-01-16_15h30.41.874,00_bat_bachelor,2022.2.4,59.903138487796895,
,,,,,,,,,,,,0,0,0,0,76,0,76,0,,,,,,,76,,,1,1596.606591705895,Y,d,go,d,1,0.31536093669274123,,,,,,,,,,,,,,,,,21,001,19,w,Bachelor Psychologie 100%,2023-01-16_15h30.41.874,00_bat_bachelor,2022.2.4,59.903138487796895,
,,,,,,,,,,,,0,0,0,0,77,0,77,0,,,,,,,77,,,1,1598.0246656850104,Y,None,nogo,None,1,,1598.824958145473,,,,,,,,,,,,,,,,21,001,19,w,Bachelor Psychologie 100%,2023-01-16_15h30.41.874,00_bat_bachelor,2022.2.4,59.903138487796895,
,,,,,,,,,,,,0,0,0,0,78,0,78,0,,,,,,,78,,,1,1599.8258638420048,X,l,go,l,1,0.2490060597738193,,,,,,,,,,,,,,,,,21,001,19,w,Bachelor Psychologie 100%,2023-01-16_15h30.41.874,00_bat_bachelor,2022.2.4,59.903138487796895,
,,,,,,,,,,,,0,0,0,0,79,0,79,0,,,,,,,79,,,1,1601.1770185808382,Y,d,go,d,1,0.2587742974610592,,,,,,,,,,,,,,,,,21,001,19,w,Bachelor Psychologie 100%,2023-01-16_15h30.41.874,00_bat_bachelor,2022.2.4,59.903138487796895,
,,,,,,,,,,,,0,0,0,0,80,0,80,0,,,,,,,80,,,1,1602.544663493496,X,l,go,l,1,0.4732711631586426,,,,,,,,,,,,,,,,,21,001,19,w,Bachelor Psychologie 100%,2023-01-16_15h30.41.874,00_bat_bachelor,2022.2.4,59.903138487796895,
,,,,,,,,,,,,0,0,0,0,81,0,81,0,,,,,,,81,,,1,1604.1292673312637,X,None,nogo,None,1,,1604.9298516703748,,,,,,,,,,,,,,,,21,001,19,w,Bachelor Psychologie 100%,2023-01-16_15h30.41.874,00_bat_bachelor,2022.2.4,59.903138487796895,
,,,,,,,,,,,,0,0,0,0,82,0,82,0,,,,,,,82,,,1,1605.9304325185767,Y,d,go,l,0,0.3204838432975521,,,,,,,,,,,,,,,,,21,001,19,w,Bachelor Psychologie 100%,2023-01-16_15h30.41.874,00_bat_bachelor,2022.2.4,59.903138487796895,
,,,,,,,,,,,,0,0,0,0,83,0,83,0,,,,,,,83,,,1,1607.3647765504102,X,l,go,None,0,,1608.165691071179,,,,,,,,,,,,,,,,21,001,19,w,Bachelor Psychologie 100%,2023-01-16_15h30.41.874,00_bat_bachelor,2022.2.4,59.903138487796895,
,,,,,,,,,,,,0,0,0,0,84,0,84,0,,,,,,,84,,,1,1609.1664813738244,Y,d,go,d,1,0.2678312627685955,,,,,,,,,,,,,,,,,21,001,19,w,Bachelor Psychologie 100%,2023-01-16_15h30.41.874,00_bat_bachelor,2022.2.4,59.903138487796895,
,,,,,,,,,,,,0,0,0,0,85,0,85,0,,,,,,,85,,,1,1610.5508428844369,Y,None,nogo,None,1,,,,,,,,,,,,,,,,,,21,001,19,w,Bachelor Psychologie 100%,2023-01-16_15h30.41.874,00_bat_bachelor,2022.2.4,59.903138487796895,
,,,,,,,,,,,,0,0,0,0,86,0,86,0,,,,,,,86,,,1,1612.3519188596729,X,l,go,l,1,0.26707586919292226,,,,,,,,,,,,,,,,,21,001,19,w,Bachelor Psychologie 100%,2023-01-16_15h30.41.874,00_bat_bachelor,2022.2.4,59.903138487796895,
,,,,,,,,,,,,0,0,0,0,87,0,87,0,,,,,,,87,,,1,1613.7363317642012,Y,d,go,d,1,0.41792961423197994,,,,,,,,,,,,,,,,,21,001,19,w,Bachelor Psychologie 100%,2023-01-16_15h30.41.874,00_bat_bachelor,2022.2.4,59.903138487796895,
,,,,,,,,,,,,0,0,0,0,88,0,88,0,,,,,,,88,,,1,1615.2710306564695,Y,None,nogo,None,1,,,,,,,,,,,,,,,,,,21,001,19,w,Bachelor Psychologie 100%,2023-01-16_15h30.41.874,00_bat_bachelor,2022.2.4,59.903138487796895,
,,,,,,,,,,,,0,0,0,0,89,0,89,0,,,,,,,89,,,1,1617.072477540616,X,l,go,l,1,0.2657056880379969,,,,,,,,,,,,,,,,,21,001,19,w,Bachelor Psychologie 100%,2023-01-16_15h30.41.874,00_bat_bachelor,2022.2.4,59.903138487796895,
,,,,,,,,,,,,0,0,0,0,90,0,90,0,,,,,,,90,,,1,1618.4401030593435,Y,d,go,d,1,0.3864692658535205,,,,,,,,,,,,,,,,,21,001,19,w,Bachelor Psychologie 100%,2023-01-16_15h30.41.874,00_bat_bachelor,2022.2.4,59.903138487796895,
,,,,,,,,,,,,0,0,0,0,91,0,91,0,,,,,,,91,,,1,1619.9410366346456,Y,None,nogo,None,1,,,,,,,,,,,,,,,,,,21,001,19,w,Bachelor Psychologie 100%,2023-01-16_15h30.41.874,00_bat_bachelor,2022.2.4,59.903138487796895,
,,,,,,,,,,,,0,0,0,0,92,0,92,0,,,,,,,92,,,1,1621.7425901854076,X,l,go,l,1,0.2837114974936412,,,,,,,,,,,,,,,,,21,001,19,w,Bachelor Psychologie 100%,2023-01-16_15h30.41.874,00_bat_bachelor,2022.2.4,59.903138487796895,
,,,,,,,,,,,,0,0,0,0,93,0,93,0,,,,,,,93,,,1,1623.1438602938833,Y,d,go,d,1,0.38758732591668377,,,,,,,,,,,,,,,,,21,001,19,w,Bachelor Psychologie 100%,2023-01-16_15h30.41.874,00_bat_bachelor,2022.2.4,59.903138487796895,
,,,,,,,,,,,,0,0,0,0,94,0,94,0,,,,,,,94,,,1,1624.6449335054858,X,l,go,l,1,0.4378801500170084,,,,,,,,,,,,,,,,,21,001,19,w,Bachelor Psychologie 100%,2023-01-16_15h30.41.874,00_bat_bachelor,2022.2.4,59.903138487796895,
,,,,,,,,,,,,0,0,0,0,95,0,95,0,,,,,,,95,,,1,1626.196035783738,Y,d,go,d,1,0.27954471163320704,,,,,,,,,,,,,,,,,21,001,19,w,Bachelor Psychologie 100%,2023-01-16_15h30.41.874,00_bat_bachelor,2022.2.4,59.903138487796895,
,,,,,,,,,,,,0,0,0,0,96,0,96,0,,,,,,,96,,,1,1627.5802353550353,Y,None,nogo,None,1,,,,,,,,,,,,,,,,,,21,001,19,w,Bachelor Psychologie 100%,2023-01-16_15h30.41.874,00_bat_bachelor,2022.2.4,59.903138487796895,
,,,,,,,,,,,,0,0,0,0,97,0,97,0,,,,,,,97,,,1,1629.3818378754695,X,l,go,l,1,0.22977067515967065,,,,,,,,,,,,,,,,,21,001,19,w,Bachelor Psychologie 100%,2023-01-16_15h30.41.874,00_bat_bachelor,2022.2.4,59.903138487796895,
,,,,,,,,,,,,0,0,0,0,98,0,98,0,,,,,,,98,,,1,1630.7160578346375,Y,d,go,d,1,0.27008677682533744,,,,,,,,,,,,,,,,,21,001,19,w,Bachelor Psychologie 100%,2023-01-16_15h30.41.874,00_bat_bachelor,2022.2.4,59.903138487796895,
,,,,,,,,,,,,0,0,0,0,99,0,99,0,,,,,,,99,,,1,1632.1006234663619,X,l,go,l,1,0.5816682015138213,,,,,,,,,,,,,,,,,21,001,19,w,Bachelor Psychologie 100%,2023-01-16_15h30.41.874,00_bat_bachelor,2022.2.4,59.903138487796895,
,,,,,,,,,,,,0,0,0,0,100,0,100,0,,,,,,,100,,,1,1633.7849164679174,Y,d,go,d,1,0.38531678156141425,,,,,,,,,,,,,,,,,21,001,19,w,Bachelor Psychologie 100%,2023-01-16_15h30.41.874,00_bat_bachelor,2022.2.4,59.903138487796895,
,,,,,,,,,,,,0,0,0,0,101,0,101,0,,,,,,,101,,,1,1635.2863557399469,X,l,go,l,1,0.45225880970974686,,,,,,,,,,,,,,,,,21,001,19,w,Bachelor Psychologie 100%,2023-01-16_15h30.41.874,00_bat_bachelor,2022.2.4,59.903138487796895,
,,,,,,,,,,,,0,0,0,0,102,0,102,0,,,,,,,102,,,1,1636.853912313254,Y,d,go,d,1,0.4201031889351725,,,,,,,,,,,,,,,,,21,001,19,w,Bachelor Psychologie 100%,2023-01-16_15h30.41.874,00_bat_bachelor,2022.2.4,59.903138487796895,
,,,,,,,,,,,,0,0,0,0,103,0,103,0,,,,,,,103,,,1,1638.3887430842442,X,l,go,l,1,0.5975794665246212,,,,,,,,,,,,,,,,,21,001,19,w,Bachelor Psychologie 100%,2023-01-16_15h30.41.874,00_bat_bachelor,2022.2.4,59.903138487796895,
,,,,,,,,,,,,0,0,0,0,104,0,104,0,,,,,,,104,,,1,1640.0900358351319,Y,d,go,d,1,0.41671022088848986,,,,,,,,,,,,,,,,,21,001,19,w,Bachelor Psychologie 100%,2023-01-16_15h30.41.874,00_bat_bachelor,2022.2.4,59.903138487796895,
,,,,,,,,,,,,0,0,0,0,105,0,105,0,,,,,,,105,,,1,1641.6076026144947,X,l,go,l,1,0.3862796901848924,,,,,,,,,,,,,,,,,21,001,19,w,Bachelor Psychologie 100%,2023-01-16_15h30.41.874,00_bat_bachelor,2022.2.4,59.903138487796895,
,,,,,,,,,,,,0,0,0,0,106,0,106,0,,,,,,,106,,,1,1643.1089880683685,X,None,nogo,d,0,0.4853283694355923,,,,,,,,,,,,,,,,,21,001,19,w,Bachelor Psychologie 100%,2023-01-16_15h30.41.874,00_bat_bachelor,2022.2.4,59.903138487796895,
,,,,,,,,,,,,0,0,0,0,107,0,107,0,,,,,,,107,,,1,1644.7102183223178,Y,d,go,None,0,,,,,,,,,,,,,,,,,,21,001,19,w,Bachelor Psychologie 100%,2023-01-16_15h30.41.874,00_bat_bachelor,2022.2.4,59.903138487796895,
,,,,,,,,,,,,0,0,0,0,108,0,108,0,,,,,,,108,,,1,1646.5115735701438,X,l,go,l,1,0.3145192401279928,,,,,,,,,,,,,,,,,21,001,19,w,Bachelor Psychologie 100%,2023-01-16_15h30.41.874,00_bat_bachelor,2022.2.4,59.903138487796895,
,,,,,,,,,,,,0,0,0,0,109,0,109,0,,,,,,,109,,,1,1647.9292805191362,Y,d,go,d,1,0.3215708730749611,,,,,,,,,,,,,,,,,21,001,19,w,Bachelor Psychologie 100%,2023-01-16_15h30.41.874,00_bat_bachelor,2022.2.4,59.903138487796895,
,,,,,,,,,,,,0,0,0,0,110,0,110,0,,,,,,,110,,,1,1649.363447581356,X,l,go,l,1,0.37439508988609305,,,,,,,,,,,,,,,,,21,001,19,w,Bachelor Psychologie 100%,2023-01-16_15h30.41.874,00_bat_bachelor,2022.2.4,59.903138487796895,
,,,,,,,,,,,,0,0,0,0,111,0,111,0,,,,,,,111,,,1,1650.8481033463722,X,None,nogo,d,0,0.2506758771451132,,,,,,,,,,,,,,,,,21,001,19,w,Bachelor Psychologie 100%,2023-01-16_15h30.41.874,00_bat_bachelor,2022.2.4,59.903138487796895,
,,,,,,,,,,,,0,0,0,0,112,0,112,0,,,,,,,112,,,1,1652.2159678952885,X,None,nogo,None,1,,,,,,,,,,,,,,,,,,21,001,19,w,Bachelor Psychologie 100%,2023-01-16_15h30.41.874,00_bat_bachelor,2022.2.4,59.903138487796895,
,,,,,,,,,,,,0,0,0,0,113,0,113,0,,,,,,,113,,,1,1654.0169987796362,Y,d,go,d,1,0.3466782548421179,,,,,,,,,,,,,,,,,21,001,19,w,Bachelor Psychologie 100%,2023-01-16_15h30.41.874,00_bat_bachelor,2022.2.4,59.903138487796895,
,,,,,,,,,,,,0,0,0,0,114,0,114,0,,,,,,,114,,,1,1655.4682358941864,X,l,go,l,1,0.33409159427537816,,,,,,,,,,,,,,,,,21,001,19,w,Bachelor Psychologie 100%,2023-01-16_15h30.41.874,00_bat_bachelor,2022.2.4,59.903138487796895,
,,,,,,,,,,,,0,0,0,0,115,0,115,0,,,,,,,115,,,1,1656.9192524027858,X,None,nogo,None,1,,,,,,,,,,,,,,,,,,21,001,19,w,Bachelor Psychologie 100%,2023-01-16_15h30.41.874,00_bat_bachelor,2022.2.4,59.903138487796895,
,,,,,,,,,,,,0,0,0,0,116,0,116,0,,,,,,,116,,,1,1658.720565953663,X,None,nogo,None,1,,,,,,,,,,,,,,,,,,21,001,19,w,Bachelor Psychologie 100%,2023-01-16_15h30.41.874,00_bat_bachelor,2022.2.4,59.903138487796895,
,,,,,,,,,,,,0,0,0,0,117,0,117,0,,,,,,,117,,,1,1660.5219498075385,Y,d,go,d,1,0.3200959647001582,,,,,,,,,,,,,,,,,21,001,19,w,Bachelor Psychologie 100%,2023-01-16_15h30.41.874,00_bat_bachelor,2022.2.4,59.903138487796895,
,,,,,,,,,,,,0,0,0,0,118,0,118,0,,,,,,,118,,,1,1661.9563908090204,X,l,go,l,1,0.4857850964872341,,,,,,,,,,,,,,,,,21,001,19,w,Bachelor Psychologie 100%,2023-01-16_15h30.41.874,00_bat_bachelor,2022.2.4,59.903138487796895,
,,,,,,,,,,,,0,0,0,0,119,0,119,0,,,,,,,119,,,1,1663.557844578012,Y,d,go,d,1,0.42094100671238266,,,,,,,,,,,,,,,,,21,001,19,w,Bachelor Psychologie 100%,2023-01-16_15h30.41.874,00_bat_bachelor,2022.2.4,59.903138487796895,
,,,,,,,,,,,,0,0,0,0,120,0,120,0,,,,,,,120,,,1,1665.0920974098917,Y,None,nogo,None,1,,,,,,,,,,,,,,,,,,21,001,19,w,Bachelor Psychologie 100%,2023-01-16_15h30.41.874,00_bat_bachelor,2022.2.4,59.903138487796895,
,,,,,,,,,,,,0,0,0,0,121,0,121,0,,,,,,,121,,,1,1666.8938725363041,X,l,go,l,1,0.2050579598690092,,,,,,,,,,,,,,,,,21,001,19,w,Bachelor Psychologie 100%,2023-01-16_15h30.41.874,00_bat_bachelor,2022.2.4,59.903138487796895,
,,,,,,,,,,,,0,0,0,0,122,0,122,0,,,,,,,122,,,1,1668.2114757762538,Y,d,go,d,1,0.23086691704884288,,,,,,,,,,,,,,,,,21,001,19,w,Bachelor Psychologie 100%,2023-01-16_15h30.41.874,00_bat_bachelor,2022.2.4,59.903138487796895,
,,,,,,,,,,,,0,0,0,0,123,0,123,0,,,,,,,123,,,1,1669.5457670081123,Y,None,nogo,l,0,0.2579447221069131,,,,,,,,,,,,,,,,,21,001,19,w,Bachelor Psychologie 100%,2023-01-16_15h30.41.874,00_bat_bachelor,2022.2.4,59.903138487796895,
,,,,,,,,,,,,0,0,0,0,124,0,124,0,,,,,,,124,,,1,1670.913531193437,X,l,go,l,1,0.5531581547293172,,,,,,,,,,,,,,,,,21,001,19,w,Bachelor Psychologie 100%,2023-01-16_15h30.41.874,00_bat_bachelor,2022.2.4,59.903138487796895,
,,,,,,,,,,,,0,0,0,0,125,0,125,0,,,,,,,125,,,1,1672.5814649301974,Y,d,go,d,1,0.23010037196945632,,,,,,,,,,,,,,,,,21,001,19,w,Bachelor Psychologie 100%,2023-01-16_15h30.41.874,00_bat_bachelor,2022.2.4,59.903138487796895,
,,,,,,,,,,,,0,0,0,0,126,0,126,0,,,,,,,126,,,1,1673.9154938591528,X,l,go,l,1,0.6546829539911414,,,,,,,,,,,,,,,,,21,001,19,w,Bachelor Psychologie 100%,2023-01-16_15h30.41.874,00_bat_bachelor,2022.2.4,59.903138487796895,
,,,,,,,,,,,,0,0,0,0,127,0,127,0,,,,,,,127,,,1,1675.6836413655074,Y,d,go,d,1,0.2947970678760612,,,,,,,,,,,,,,,,,21,001,19,w,Bachelor Psychologie 100%,2023-01-16_15h30.41.874,00_bat_bachelor,2022.2.4,59.903138487796895,
,,,,,,,,,,,,0,0,0,0,128,0,128,0,,,,,,,128,,,1,1677.0846409286569,X,l,go,l,1,0.3179732990611228,,,,,,,,,,,,,,,,,21,001,19,w,Bachelor Psychologie 100%,2023-01-16_15h30.41.874,00_bat_bachelor,2022.2.4,59.903138487796895,
,,,,,,,,,,,,0,0,0,0,129,0,129,0,,,,,,,129,,,1,1678.5193219300236,Y,d,go,d,1,0.4673938326741336,,,,,,,,,,,,,,,,,21,001,19,w,Bachelor Psychologie 100%,2023-01-16_15h30.41.874,00_bat_bachelor,2022.2.4,59.903138487796895,
,,,,,,,,,,,,0,0,0,0,130,0,130,0,,,,,,,130,,,1,1680.1039078284084,Y,None,nogo,None,1,,,,,,,,,,,,,,,,,,21,001,19,w,Bachelor Psychologie 100%,2023-01-16_15h30.41.874,00_bat_bachelor,2022.2.4,59.903138487796895,
,,,,,,,,,,,,0,0,0,0,131,0,131,0,,,,,,,131,,,1,1681.9049038036828,Y,None,nogo,None,1,,,,,,,,,,,,,,,,,,21,001,19,w,Bachelor Psychologie 100%,2023-01-16_15h30.41.874,00_bat_bachelor,2022.2.4,59.903138487796895,
,,,,,,,,,,,,0,0,0,0,132,0,132,0,,,,,,,132,,,1,1683.7065562634853,X,l,go,l,1,0.23963830673892517,,,,,,,,,,,,,,,,,21,001,19,w,Bachelor Psychologie 100%,2023-01-16_15h30.41.874,00_bat_bachelor,2022.2.4,59.903138487796895,
,,,,,,,,,,,,0,0,0,0,133,0,133,0,,,,,,,133,,,1,1685.0575146387782,Y,d,go,d,1,0.2651752640558698,,,,,,,,,,,,,,,,,21,001,19,w,Bachelor Psychologie 100%,2023-01-16_15h30.41.874,00_bat_bachelor,2022.2.4,59.903138487796895,
,,,,,,,,,,,,0,0,0,0,134,0,134,0,,,,,,,134,,,1,1686.4250242787748,X,l,go,l,1,0.3054457899852423,,,,,,,,,,,,,,,,,21,001,19,w,Bachelor Psychologie 100%,2023-01-16_15h30.41.874,00_bat_bachelor,2022.2.4,59.903138487796895,
,,,,,,,,,,,,0,0,0,0,135,0,135,0,,,,,,,135,,,1,1687.8428529246776,Y,d,go,d,1,0.26349235577799845,,,,,,,,,,,,,,,,,21,001,19,w,Bachelor Psychologie 100%,2023-01-16_15h30.41.874,00_bat_bachelor,2022.2.4,59.903138487796895,
,,,,,,,,,,,,0,0,0,0,136,0,136,0,,,,,,,136,,,1,1689.2107882614328,X,l,go,l,1,0.3675538810857688,,,,,,,,,,,,,,,,,21,001,19,w,Bachelor Psychologie 100%,2023-01-16_15h30.41.874,00_bat_bachelor,2022.2.4,59.903138487796895,
,,,,,,,,,,,,0,0,0,0,137,0,137,0,,,,,,,137,,,1,1690.6949315418497,X,None,nogo,None,1,,1691.4958174565727,,,,,,,,,,,,,,,,21,001,19,w,Bachelor Psychologie 100%,2023-01-16_15h30.41.874,00_bat_bachelor,2022.2.4,59.903138487796895,
,,,,,,,,,,,,0,0,0,0,138,0,138,0,,,,,,,138,,,1,1692.4965786683242,Y,d,go,d,1,0.3936445350991562,,,,,,,,,,,,,,,,,21,001,19,w,Bachelor Psychologie 100%,2023-01-16_15h30.41.874,00_bat_bachelor,2022.2.4,59.903138487796895,
,,,,,,,,,,,,0,0,0,0,139,0,139,0,,,,,,,139,,,1,1693.9976572132546,X,l,go,l,1,0.4296071843273239,,,,,,,,,,,,,,,,,21,001,19,w,Bachelor Psychologie 100%,2023-01-16_15h30.41.874,00_bat_bachelor,2022.2.4,59.903138487796895,
,,,,,,,,,,,,0,0,0,0,140,0,140,0,,,,,,,140,,,1,1695.531965317834,Y,d,go,d,1,0.5753157197468681,,,,,,,,,,,,,,,,,21,001,19,w,Bachelor Psychologie 100%,2023-01-16_15h30.41.874,00_bat_bachelor,2022.2.4,59.903138487796895,
,,,,,,,,,,,,0,0,0,0,141,0,141,0,,,,,,,141,,,1,1697.2168139554815,Y,None,nogo,None,1,,,,,,,,,,,,,,,,,,21,001,19,w,Bachelor Psychologie 100%,2023-01-16_15h30.41.874,00_bat_bachelor,2022.2.4,59.903138487796895,
,,,,,,,,,,,,0,0,0,0,142,0,142,0,,,,,,,142,,,1,1699.0182167184394,Y,None,nogo,None,1,,1699.81860711825,,,,,,,,,,,,,,,,21,001,19,w,Bachelor Psychologie 100%,2023-01-16_15h30.41.874,00_bat_bachelor,2022.2.4,59.903138487796895,
,,,,,,,,,,,,0,0,0,0,143,0,143,0,,,,,,,143,,,1,1700.8195118450822,X,l,go,l,1,0.32724068850802723,,,,,,,,,,,,,,,,,21,001,19,w,Bachelor Psychologie 100%,2023-01-16_15h30.41.874,00_bat_bachelor,2022.2.4,59.903138487796895,
,,,,,,,,,,,,0,0,0,0,144,0,144,0,,,,,,,144,,,1,1702.2539935738205,Y,d,go,d,1,0.4295223358858493,,,,,,,,,,,,,,,,,21,001,19,w,Bachelor Psychologie 100%,2023-01-16_15h30.41.874,00_bat_bachelor,2022.2.4,59.903138487796895,
,,,,,,,,,,,,0,0,0,0,145,0,145,0,,,,,,,145,,,1,1703.788568829783,Y,None,nogo,None,1,,1704.5891478355625,,,,,,,,,,,,,,,,21,001,19,w,Bachelor Psychologie 100%,2023-01-16_15h30.41.874,00_bat_bachelor,2022.2.4,59.903138487796895,
,,,,,,,,,,,,0,0,0,0,146,0,146,0,,,,,,,146,,,1,1705.5899769260686,X,l,go,l,1,0.22970716004056158,,,,,,,,,,,,,,,,,21,001,19,w,Bachelor Psychologie 100%,2023-01-16_15h30.41.874,00_bat_bachelor,2022.2.4,59.903138487796895,
,,,,,,,,,,,,0,0,0,0,147,0,147,0,,,,,,,147,,,1,1706.9240654913592,Y,d,go,d,1,0.23781624701587134,,,,,,,,,,,,,,,,,21,001,19,w,Bachelor Psychologie 100%,2023-01-16_15h30.41.874,00_bat_bachelor,2022.2.4,59.903138487796895,
,,,,,,,,,,,,0,0,0,0,148,0,148,0,,,,,,,148,,,1,1708.2750238666522,Y,None,nogo,None,1,,,,,,,,,,,,,,,,,,21,001,19,w,Bachelor Psychologie 100%,2023-01-16_15h30.41.874,00_bat_bachelor,2022.2.4,59.903138487796895,
,,,,,,,,,,,,0,0,0,0,149,0,149,0,,,,,,,149,,,1,1710.0767010537202,X,l,go,l,1,0.22111225511616794,,,,,,,,,,,,,,,,,21,001,19,w,Bachelor Psychologie 100%,2023-01-16_15h30.41.874,00_bat_bachelor,2022.2.4,59.903138487796895,
,,,,,,,,,,,,0,0,0,0,150,0,150,0,,,,,,,150,,,1,1711.4110936188627,Y,d,go,d,1,0.24825212074210867,,,,,,,,,,,,,,,,,21,001,19,w,Bachelor Psychologie 100%,2023-01-16_15h30.41.874,00_bat_bachelor,2022.2.4,59.903138487796895,
,,,,,,,,,,,,0,0,0,0,151,0,151,0,,,,,,,151,,,1,1712.7620806002014,X,l,go,l,1,0.38442514562848373,,,,,,,,,,,,,,,,,21,001,19,w,Bachelor Psychologie 100%,2023-01-16_15h30.41.874,00_bat_bachelor,2022.2.4,59.903138487796895,
,,,,,,,,,,,,0,0,0,0,152,0,152,0,,,,,,,152,,,1,1714.2629075088917,Y,d,go,d,1,0.27499780474681756,,,,,,,,,,,,,,,,,21,001,19,w,Bachelor Psychologie 100%,2023-01-16_15h30.41.874,00_bat_bachelor,2022.2.4,59.903138487796895,
,,,,,,,,,,,,0,0,0,0,153,0,153,0,,,,,,,153,,,1,1715.648176655428,X,l,go,l,1,0.5230233814618259,,,,,,,,,,,,,,,,,21,001,19,w,Bachelor Psychologie 100%,2023-01-16_15h30.41.874,00_bat_bachelor,2022.2.4,59.903138487796895,
,,,,,,,,,,,,0,0,0,0,154,0,154,0,,,,,,,154,,,1,1717.2826287114513,Y,d,go,d,1,0.2633565982687287,,,,,,,,,,,,,,,,,21,001,19,w,Bachelor Psychologie 100%,2023-01-16_15h30.41.874,00_bat_bachelor,2022.2.4,59.903138487796895,
,,,,,,,,,,,,0,0,0,0,155,0,155,0,,,,,,,155,,,1,1718.6672181007416,Y,None,nogo,None,1,,1719.46765940962,,,,,,,,,,,,,,,,21,001,19,w,Bachelor Psychologie 100%,2023-01-16_15h30.41.874,00_bat_bachelor,2022.2.4,59.903138487796895,
,,,,,,,,,,,,0,0,0,0,156,0,156,0,,,,,,,156,,,1,1720.4684405001499,X,l,go,l,1,0.21437140990019543,,,,,,,,,,,,,,,,,21,001,19,w,Bachelor Psychologie 100%,2023-01-16_15h30.41.874,00_bat_bachelor,2022.2.4,59.903138487796895,
,,,,,,,,,,,,0,0,0,0,157,0,157,0,,,,,,,157,,,1,1721.7862691945338,Y,d,go,d,1,0.2884765860908374,,,,,,,,,,,,,,,,,21,001,19,w,Bachelor Psychologie 100%,2023-01-16_15h30.41.874,00_bat_bachelor,2022.2.4,59.903138487796895,
,,,,,,,,,,,,0,0,0,0,158,0,158,0,,,,,,,158,,,1,1723.1871237880587,X,l,go,l,1,0.23053528084710706,,,,,,,,,,,,,,,,,21,001,19,w,Bachelor Psychologie 100%,2023-01-16_15h30.41.874,00_bat_bachelor,2022.2.4,59.903138487796895,
,,,,,,,,,,,,0,0,0,0,159,0,159,0,,,,,,,159,,,1,1724.5383662844251,X,None,nogo,d,0,0.2727713815838797,,,,,,,,,,,,,,,,,21,001,19,w,Bachelor Psychologie 100%,2023-01-16_15h30.41.874,00_bat_bachelor,2022.2.4,59.903138487796895,
,,,,,,,,,,,,0,0,0,0,160,0,160,0,,,,,,,160,,,1,1725.9227811283454,Y,d,go,None,0,,1726.7231618311926,,,,,,,,,,,,,,,,21,001,19,w,Bachelor Psychologie 100%,2023-01-16_15h30.41.874,00_bat_bachelor,2022.2.4,59.903138487796895,
,,,,,,,,,,,,0,0,0,0,161,0,161,0,,,,,,,161,,,1,1727.723923042944,X,l,go,l,1,0.36621569991257275,,,,,,,,,,,,,,,,,21,001,19,w,Bachelor Psychologie 100%,2023-01-16_15h30.41.874,00_bat_bachelor,2022.2.4,59.903138487796895,
,,,,,,,,,,,,0,0,0,0,162,0,162,0,,,,,,,162,,,1,1729.2086248685446,X,None,nogo,l,0,0.44911553850761265,,,,,,,,,,,,,,,,,21,001,19,w,Bachelor Psychologie 100%,2023-01-16_15h30.41.874,00_bat_bachelor,2022.2.4,59.903138487796895,
,,,,,,,,,,,,0,0,0,0,163,0,163,0,,,,,,,163,,,1,1730.7764728356487,Y,d,go,d,1,0.3699403041682672,,,,,,,,,,,,,,,,,21,001,19,w,Bachelor Psychologie 100%,2023-01-16_15h30.41.874,00_bat_bachelor,2022.2.4,59.903138487796895,
,,,,,,,,,,,,0,0,0,0,164,0,164,0,,,,,,,164,,,1,1732.260927873489,X,l,go,None,0,,1733.061329909655,,,,,,,,,,,,,,,,21,001,19,w,Bachelor Psychologie 100%,2023-01-16_15h30.41.874,00_bat_bachelor,2022.2.4,59.903138487796895,
,,,,,,,,,,,,0,0,0,0,165,0,165,0,,,,,,,165,,,1,1734.0620702729357,Y,d,go,d,1,0.37950054195607663,,,,,,,,,,,,,,,,,21,001,19,w,Bachelor Psychologie 100%,2023-01-16_15h30.41.874,00_bat_bachelor,2022.2.4,59.903138487796895,
,,,,,,,,,,,,0,0,0,0,166,0,166,0,,,,,,,166,,,1,1735.5634959692143,Y,None,nogo,None,1,,1736.3641457628364,,,,,,,,,,,,,,,,21,001,19,w,Bachelor Psychologie 100%,2023-01-16_15h30.41.874,00_bat_bachelor,2022.2.4,59.903138487796895,
,,,,,,,,,,,,0,0,0,0,167,0,167,0,,,,,,,167,,,1,1737.3647959443406,X,l,go,l,1,0.38926974934292957,,,,,,,,,,,,,,,,,21,001,19,w,Bachelor Psychologie 100%,2023-01-16_15h30.41.874,00_bat_bachelor,2022.2.4,59.903138487796895,
,,,,,,,,,,,,0,0,0,0,168,0,168,0,,,,,,,168,,,1,1738.8826177538795,Y,d,go,d,1,0.29480288605191163,,,,,,,,,,,,,,,,,21,001,19,w,Bachelor Psychologie 100%,2023-01-16_15h30.41.874,00_bat_bachelor,2022.2.4,59.903138487796895,
,,,,,,,,,,,,0,0,0,0,169,0,169,0,,,,,,,169,,,1,1740.3004531876577,X,l,go,l,1,0.36644551798599423,,,,,,,,,,,,,,,,,21,001,19,w,Bachelor Psychologie 100%,2023-01-16_15h30.41.874,00_bat_bachelor,2022.2.4,59.903138487796895,
,,,,,,,,,,,,0,0,0,0,170,0,170,0,,,,,,,170,,,1,1741.7850764678406,Y,d,go,d,1,0.4329094857603195,,,,,,,,,,,,,,,,,21,001,19,w,Bachelor Psychologie 100%,2023-01-16_15h30.41.874,00_bat_bachelor,2022.2.4,59.903138487796895,
,,,,,,,,,,,,0,0,0,0,171,0,171,0,,,,,,,171,,,1,1743.352467707893,X,l,go,l,1,0.28882131319551263,,,,,,,,,,,,,,,,,21,001,19,w,Bachelor Psychologie 100%,2023-01-16_15h30.41.874,00_bat_bachelor,2022.2.4,59.903138487796895,
,,,,,,,,,,,,0,0,0,0,172,0,172,0,,,,,,,172,,,1,1744.7703908992044,Y,d,go,d,1,0.3910583545330155,,,,,,,,,,,,,,,,,21,001,19,w,Bachelor Psychologie 100%,2023-01-16_15h30.41.874,00_bat_bachelor,2022.2.4,59.903138487796895,
,,,,,,,,,,,,0,0,0,0,173,0,173,0,,,,,,,173,,,1,1746.3048071249395,Y,None,nogo,None,1,,1747.1054457670543,,,,,,,,,,,,,,,,21,001,19,w,Bachelor Psychologie 100%,2023-01-16_15h30.41.874,00_bat_bachelor,2022.2.4,59.903138487796895,
,,,,,,,,,,,,0,0,0,0,174,0,174,0,,,,,,,174,,,1,1748.1061119485494,X,l,go,l,1,0.25529648096562596,,,,,,,,,,,,,,,,,21,001,19,w,Bachelor Psychologie 100%,2023-01-16_15h30.41.874,00_bat_bachelor,2022.2.4,59.903138487796895,
,,,,,,,,,,,,0,0,0,0,175,0,175,0,,,,,,,175,,,1,1749.5071726025817,Y,d,go,d,1,0.3103199694378418,,,,,,,,,,,,,,,,,21,001,19,w,Bachelor Psychologie 100%,2023-01-16_15h30.41.874,00_bat_bachelor,2022.2.4,59.903138487796895,
,,,,,,,,,,,,0,0,0,0,176,0,176,0,,,,,,,176,,,1,1750.941644634353,X,l,go,l,1,0.26810471717908513,,,,,,,,,,,,,,,,,21,001,19,w,Bachelor Psychologie 100%,2023-01-16_15h30.41.874,00_bat_bachelor,2022.2.4,59.903138487796895,
,,,,,,,,,,,,0,0,0,0,177,0,177,0,,,,,,,177,,,1,1752.342672318704,Y,d,go,d,1,0.35522758403021726,,,,,,,,,,,,,,,,,21,001,19,w,Bachelor Psychologie 100%,2023-01-16_15h30.41.874,00_bat_bachelor,2022.2.4,59.903138487796895,
,,,,,,,,,,,,0,0,0,0,178,0,178,0,,,,,,,178,,,1,1753.827434750332,X,l,go,l,1,0.3596363091637613,,,,,,,,,,,,,,,,,21,001,19,w,Bachelor Psychologie 100%,2023-01-16_15h30.41.874,00_bat_bachelor,2022.2.4,59.903138487796895,
,,,,,,,,,,,,0,0,0,0,179,0,179,0,,,,,,,179,,,1,1755.2949312509409,X,None,nogo,d,0,0.23513067255771603,,,,,,,,,,,,,,,,,21,001,19,w,Bachelor Psychologie 100%,2023-01-16_15h30.41.874,00_bat_bachelor,2022.2.4,59.903138487796895,
,,,,,,,,,,,,0,0,0,0,180,0,180,0,,,,,,,180,,,1,1756.6626513150768,Y,d,go,l,0,0.22706037344323704,,,,,,,,,,,,,,,,,21,001,19,w,Bachelor Psychologie 100%,2023-01-16_15h30.41.874,00_bat_bachelor,2022.2.4,59.903138487796895,
,,,,,,,,,,,,0,0,0,0,181,0,181,0,,,,,,,181,,,1,1758.0135631449375,X,l,go,None,0,,1758.81395548414,,,,,,,,,,,,,,,,21,001,19,w,Bachelor Psychologie 100%,2023-01-16_15h30.41.874,00_bat_bachelor,2022.2.4,59.903138487796895,
,,,,,,,,,,,,0,0,0,0,182,0,182,0,,,,,,,182,,,1,1759.8144980293328,Y,d,go,None,0,,1760.61515800477,,,,,,,,,,,,,,,,21,001,19,w,Bachelor Psychologie 100%,2023-01-16_15h30.41.874,00_bat_bachelor,2022.2.4,59.903138487796895,
,,,,,,,,,,,,0,0,0,0,183,0,183,0,,,,,,,183,,,1,1761.6159565498383,X,l,go,l,1,0.5554388808959629,,,,,,,,,,,,,,,,,21,001,19,w,Bachelor Psychologie 100%,2023-01-16_15h30.41.874,00_bat_bachelor,2022.2.4,59.903138487796895,
,,,,,,,,,,,,0,0,0,0,184,0,184,0,,,,,,,184,,,1,1763.2838481047984,Y,d,go,d,1,0.26380120411340613,,,,,,,,,,,,,,,,,21,001,19,w,Bachelor Psychologie 100%,2023-01-16_15h30.41.874,00_bat_bachelor,2022.2.4,59.903138487796895,
,,,,,,,,,,,,0,0,0,0,185,0,185,0,,,,,,,185,,,1,1764.6513713205459,X,l,go,l,1,0.4639441373765294,,,,,,,,,,,,,,,,,21,001,19,w,Bachelor Psychologie 100%,2023-01-16_15h30.41.874,00_bat_bachelor,2022.2.4,59.903138487796895,
,,,,,,,,,,,,0,0,0,0,186,0,186,0,,,,,,,186,,,1,1766.219143166476,Y,d,go,d,1,0.30286591244657757,,,,,,,,,,,,,,,,,21,001,19,w,Bachelor Psychologie 100%,2023-01-16_15h30.41.874,00_bat_bachelor,2022.2.4,59.903138487796895,
,,,,,,,,,,,,0,0,0,0,187,0,187,0,,,,,,,187,,,1,1767.6371706001592,Y,None,nogo,None,1,,,,,,,,,,,,,,,,,,21,001,19,w,Bachelor Psychologie 100%,2023-01-16_15h30.41.874,00_bat_bachelor,2022.2.4,59.903138487796895,
,,,,,,,,,,,,0,0,0,0,188,0,188,0,,,,,,,188,,,1,1769.4392841506487,X,l,go,l,1,0.2838283459204831,,,,,,,,,,,,,,,,,21,001,19,w,Bachelor Psychologie 100%,2023-01-16_15h30.41.874,00_bat_bachelor,2022.2.4,59.903138487796895,
,,,,,,,,,,,,0,0,0,0,189,0,189,0,,,,,,,189,,,1,1770.8236432370213,Y,d,go,d,1,0.2581507826107554,,,,,,,,,,,,,,,,,21,001,19,w,Bachelor Psychologie 100%,2023-01-16_15h30.41.874,00_bat_bachelor,2022.2.4,59.903138487796895,
,,,,,,,,,,,,0,0,0,0,190,0,190,0,,,,,,,190,,,1,1772.2078321416557,X,l,go,l,1,0.457364746627718,,,,,,,,,,,,,,,,,21,001,19,w,Bachelor Psychologie 100%,2023-01-16_15h30.41.874,00_bat_bachelor,2022.2.4,59.903138487796895,
,,,,,,,,,,,,0,0,0,0,191,0,191,0,,,,,,,191,,,1,1773.7923181613005,X,None,nogo,None,1,,1774.5930057730875,,,,,,,,,,,,,,,,21,001,19,w,Bachelor Psychologie 100%,2023-01-16_15h30.41.874,00_bat_bachelor,2022.2.4,59.903138487796895,
,,,,,,,,,,,,0,0,0,0,192,0,192,0,,,,,,,192,,,1,1775.5937209242547,Y,d,go,d,1,0.3037929423007881,,,,,,,,,,,,,,,,,21,001,19,w,Bachelor Psychologie 100%,2023-01-16_15h30.41.874,00_bat_bachelor,2022.2.4,59.903138487796895,
,,,,,,,,,,,,0,0,0,0,193,0,193,0,,,,,,,193,,,1,1777.0281483499857,X,l,go,l,1,0.4061691350871115,,,,,,,,,,,,,,,,,21,001,19,w,Bachelor Psychologie 100%,2023-01-16_15h30.41.874,00_bat_bachelor,2022.2.4,59.903138487796895,
,,,,,,,,,,,,0,0,0,0,194,0,194,0,,,,,,,194,,,1,1778.562884575571,Y,d,go,d,1,0.29571537045922014,,,,,,,,,,,,,,,,,21,001,19,w,Bachelor Psychologie 100%,2023-01-16_15h30.41.874,00_bat_bachelor,2022.2.4,59.903138487796895,
,,,,,,,,,,,,0,0,0,0,195,0,195,0,,,,,,,195,,,1,1779.9639277750648,X,l,go,l,1,0.38176963176374556,,,,,,,,,,,,,,,,,21,001,19,w,Bachelor Psychologie 100%,2023-01-16_15h30.41.874,00_bat_bachelor,2022.2.4,59.903138487796895,
,,,,,,,,,,,,0,0,0,0,196,0,196,0,,,,,,,196,,,1,1781.4814824332207,Y,d,go,d,1,0.3682055171302636,,,,,,,,,,,,,,,,,21,001,19,w,Bachelor Psychologie 100%,2023-01-16_15h30.41.874,00_bat_bachelor,2022.2.4,59.903138487796895,
,,,,,,,,,,,,0,0,0,0,197,0,197,0,,,,,,,197,,,1,1782.9828470386165,X,l,go,l,1,0.4674607417327934,,,,,,,,,,,,,,,,,21,001,19,w,Bachelor Psychologie 100%,2023-01-16_15h30.41.874,00_bat_bachelor,2022.2.4,59.903138487796895,
,,,,,,,,,,,,0,0,0,0,198,0,198,0,,,,,,,198,,,1,1784.5674717248621,X,None,nogo,None,1,,1785.3680303670153,,,,,,,,,,,,,,,,21,001,19,w,Bachelor Psychologie 100%,2023-01-16_15h30.41.874,00_bat_bachelor,2022.2.4,59.903138487796895,
,,,,,,,,,,,,0,0,0,0,199,0,199,0,,,,,,,199,,,1,1786.3688342454116,Y,d,go,d,1,0.26588799098317395,,,,,,,,,,,,,,,,,21,001,19,w,Bachelor Psychologie 100%,2023-01-16_15h30.41.874,00_bat_bachelor,2022.2.4,59.903138487796895,
,,,,,,,,,,,,0,0,0,0,200,0,200,0,,,,,,,200,,,1,1787.7365227944101,X,l,go,None,0,,1788.5371919819663,,,,,,,,,,,,,,,,21,001,19,w,Bachelor Psychologie 100%,2023-01-16_15h30.41.874,00_bat_bachelor,2022.2.4,59.903138487796895,
,,,,,,,,,,,,0,0,0,0,201,0,201,0,,,,,,,201,,,1,1789.537660830225,X,None,nogo,d,0,0.21678256024461007,,,,,,,,,,,,,,,,,21,001,19,w,Bachelor Psychologie 100%,2023-01-16_15h30.41.874,00_bat_bachelor,2022.2.4,59.903138487796895,
,,,,,,,,,,,,0,0,0,0,202,0,202,0,,,,,,,202,,,1,1790.8556238275742,Y,d,go,d,1,0.43515530285367277,,,,,,,,,,,,,,,,,21,001,19,w,Bachelor Psychologie 100%,2023-01-16_15h30.41.874,00_bat_bachelor,2022.2.4,59.903138487796895,
,,,,,,,,,,,,0,0,0,0,203,0,203,0,,,,,,,203,,,1,1792.4064924089726,X,l,go,l,1,0.3232038419810124,,,,,,,,,,,,,,,,,21,001,19,w,Bachelor Psychologie 100%,2023-01-16_15h30.41.874,00_bat_bachelor,2022.2.4,59.903138487796895,
,,,,,,,,,,,,0,0,0,0,204,0,204,0,,,,,,,204,,,1,1793.8580165536878,Y,d,go,d,1,0.3758777558359725,,,,,,,,,,,,,,,,,21,001,19,w,Bachelor Psychologie 100%,2023-01-16_15h30.41.874,00_bat_bachelor,2022.2.4,59.903138487796895,
,,,,,,,,,,,,0,0,0,0,205,0,205,0,,,,,,,205,,,1,1795.37566866634,X,l,go,l,1,0.5860105024366931,,,,,,,,,,,,,,,,,21,001,19,w,Bachelor Psychologie 100%,2023-01-16_15h30.41.874,00_bat_bachelor,2022.2.4,59.903138487796895,
,,,,,,,,,,,,0,0,0,0,206,0,206,0,,,,,,,206,,,1,1797.09365425762,X,None,nogo,None,1,,1797.8944257481562,,,,,,,,,,,,,,,,21,001,19,w,Bachelor Psychologie 100%,2023-01-16_15h30.41.874,00_bat_bachelor,2022.2.4,59.903138487796895,
,,,,,,,,,,,,0,0,0,0,207,0,207,0,,,,,,,207,,,1,1798.8949028388342,Y,d,go,d,1,0.2823655587526446,,,,,,,,,,,,,,,,,21,001,19,w,Bachelor Psychologie 100%,2023-01-16_15h30.41.874,00_bat_bachelor,2022.2.4,59.903138487796895,
,,,,,,,,,,,,0,0,0,0,208,0,208,0,,,,,,,208,,,1,1800.2960764625059,X,l,go,l,1,0.29103997878337395,,,,,,,,,,,,,,,,,21,001,19,w,Bachelor Psychologie 100%,2023-01-16_15h30.41.874,00_bat_bachelor,2022.2.4,59.903138487796895,
,,,,,,,,,,,,0,0,0,0,209,0,209,0,,,,,,,209,,,1,1801.6969247530033,Y,d,go,d,1,0.42476645940405433,,,,,,,,,,,,,,,,,21,001,19,w,Bachelor Psychologie 100%,2023-01-16_15h30.41.874,00_bat_bachelor,2022.2.4,59.903138487796895,
,,,,,,,,,,,,0,0,0,0,210,0,210,0,,,,,,,210,,,1,1803.2480886069861,X,l,go,l,1,0.3461478308563528,,,,,,,,,,,,,,,,,21,001,19,w,Bachelor Psychologie 100%,2023-01-16_15h30.41.874,00_bat_bachelor,2022.2.4,59.903138487796895,
,,,,,,,,,,,,0,0,0,0,211,0,211,0,,,,,,,211,,,1,1804.7161780770039,X,None,nogo,l,0,0.4460639036260545,,,,,,,,,,,,,,,,,21,001,19,w,Bachelor Psychologie 100%,2023-01-16_15h30.41.874,00_bat_bachelor,2022.2.4,59.903138487796895,
,,,,,,,,,,,,0,0,0,0,212,0,212,0,,,,,,,212,,,1,1806.28403040774,Y,d,go,d,1,0.2706365947415179,,,,,,,,,,,,,,,,,21,001,19,w,Bachelor Psychologie 100%,2023-01-16_15h30.41.874,00_bat_bachelor,2022.2.4,59.903138487796895,
,,,,,,,,,,,,0,0,0,0,213,0,213,0,,,,,,,213,,,1,1807.684831183109,X,l,go,None,0,,1808.4854829161268,,,,,,,,,,,,,,,,21,001,19,w,Bachelor Psychologie 100%,2023-01-16_15h30.41.874,00_bat_bachelor,2022.2.4,59.903138487796895,
,,,,,,,,,,,,0,0,0,0,214,0,214,0,,,,,,,214,,,1,1809.4865292186514,X,None,nogo,None,1,,1810.287031618409,,,,,,,,,,,,,,,,21,001,19,w,Bachelor Psychologie 100%,2023-01-16_15h30.41.874,00_bat_bachelor,2022.2.4,59.903138487796895,
,,,,,,,,,,,,0,0,0,0,215,0,215,0,,,,,,,215,,,1,1811.2874704060741,Y,d,go,d,1,0.3715926670047338,,,,,,,,,,,,,,,,,21,001,19,w,Bachelor Psychologie 100%,2023-01-16_15h30.41.874,00_bat_bachelor,2022.2.4,59.903138487796895,
,,,,,,,,,,,,0,0,0,0,216,0,216,0,,,,,,,216,,,1,1812.771995262061,X,l,go,l,1,0.43937736141015193,,,,,,,,,,,,,,,,,21,001,19,w,Bachelor Psychologie 100%,2023-01-16_15h30.41.874,00_bat_bachelor,2022.2.4,59.903138487796895,
,,,,,,,,,,,,0,0,0,0,217,0,217,0,,,,,,,217,,,1,1814.323108691824,X,None,nogo,None,1,,1815.123707091534,,,,,,,,,,,,,,,,21,001,19,w,Bachelor Psychologie 100%,2023-01-16_15h30.41.874,00_bat_bachelor,2022.2.4,59.903138487796895,
,,,,,,,,,,,,0,0,0,0,218,0,218,0,,,,,,,218,,,1,1816.124498363879,Y,d,go,d,1,0.31785548093830585,,,,,,,,,,,,,,,,,21,001,19,w,Bachelor Psychologie 100%,2023-01-16_15h30.41.874,00_bat_bachelor,2022.2.4,59.903138487796895,
,,,,,,,,,,,,0,0,0,0,219,0,219,0,,,,,,,219,,,1,1817.5584651837744,X,l,go,l,1,0.2924484629511426,,,,,,,,,,,,,,,,,21,001,19,w,Bachelor Psychologie 100%,2023-01-16_15h30.41.874,00_bat_bachelor,2022.2.4,59.903138487796895,
,,,,,,,,,,,,0,0,0,0,220,0,220,0,,,,,,,220,,,1,1818.9596698377354,X,None,nogo,None,1,,,,,,,,,,,,,,,,,,21,001,19,w,Bachelor Psychologie 100%,2023-01-16_15h30.41.874,00_bat_bachelor,2022.2.4,59.903138487796895,
,,,,,,,,,,,,0,0,0,0,221,0,221,0,,,,,,,221,,,1,1820.760928600761,Y,d,go,d,1,0.2734971994141233,,,,,,,,,,,,,,,,,21,001,19,w,Bachelor Psychologie 100%,2023-01-16_15h30.41.874,00_bat_bachelor,2022.2.4,59.903138487796895,
,,,,,,,,,,,,0,0,0,0,222,0,222,0,,,,,,,222,,,1,1822.145370596183,X,l,go,l,1,0.3128935439453926,,,,,,,,,,,,,,,,,21,001,19,w,Bachelor Psychologie 100%,2023-01-16_15h30.41.874,00_bat_bachelor,2022.2.4,59.903138487796895,
,,,,,,,,,,,,0,0,0,0,223,0,223,0,,,,,,,223,,,1,1823.5629054240453,X,None,nogo,l,0,0.5595688182875165,,,,,,,,,,,,,,,,,21,001,19,w,Bachelor Psychologie 100%,2023-01-16_15h30.41.874,00_bat_bachelor,2022.2.4,59.903138487796895,
,,,,,,,,,,,,0,0,0,0,224,0,224,0,,,,,,,224,,,1,1825.2310049789048,Y,d,go,d,1,0.33228941333072726,,,,,,,,,,,,,,,,,21,001,19,w,Bachelor Psychologie 100%,2023-01-16_15h30.41.874,00_bat_bachelor,2022.2.4,59.903138487796895,
,,,,,,,,,,,,0,0,0,0,225,0,225,0,,,,,,,225,,,1,1826.6651919199066,X,l,go,l,1,0.3214676003954082,,,,,,,,,,,,,,,,,21,001,19,w,Bachelor Psychologie 100%,2023-01-16_15h30.41.874,00_bat_bachelor,2022.2.4,59.903138487796895,
,,,,,,,,,,,,0,0,0,0,226,0,226,0,,,,,,,226,,,1,1828.0998210425096,Y,d,go,d,1,0.37460163524156087,,,,,,,,,,,,,,,,,21,001,19,w,Bachelor Psychologie 100%,2023-01-16_15h30.41.874,00_bat_bachelor,2022.2.4,59.903138487796895,
,,,,,,,,,,,,0,0,0,0,227,0,227,0,,,,,,,227,,,1,1829.5843875954452,X,l,go,l,1,0.24985115027448046,,,,,,,,,,,,,,,,,21,001,19,w,Bachelor Psychologie 100%,2023-01-16_15h30.41.874,00_bat_bachelor,2022.2.4,59.903138487796895,
,,,,,,,,,,,,0,0,0,0,228,0,228,0,,,,,,,228,,,1,1830.9362453642425,Y,d,go,d,1,0.25716120733341086,,,,,,,,,,,,,,,,,21,001,19,w,Bachelor Psychologie 100%,2023-01-16_15h30.41.874,00_bat_bachelor,2022.2.4,59.903138487796895,
,,,,,,,,,,,,0,0,0,0,229,0,229,0,,,,,,,229,,,1,1832.3202989962156,Y,None,nogo,None,1,,1833.12119266851,,,,,,,,,,,,,,,,21,001,19,w,Bachelor Psychologie 100%,2023-01-16_15h30.41.874,00_bat_bachelor,2022.2.4,59.903138487796895,
,,,,,,,,,,,,0,0,0,0,230,0,230,0,,,,,,,230,,,1,1834.1216416379903,X,l,go,l,1,0.30396603312692605,,,,,,,,,,,,,,,,,21,001,19,w,Bachelor Psychologie 100%,2023-01-16_15h30.41.874,00_bat_bachelor,2022.2.4,59.903138487796895,
,,,,,,,,,,,,0,0,0,0,231,0,231,0,,,,,,,231,,,1,1835.5562566999943,Y,d,go,d,1,0.23007419016357744,,,,,,,,,,,,,,,,,21,001,19,w,Bachelor Psychologie 100%,2023-01-16_15h30.41.874,00_bat_bachelor,2022.2.4,59.903138487796895,
,,,,,,,,,,,,0,0,0,0,232,0,232,0,,,,,,,232,,,1,1836.9070836814135,X,l,go,l,1,0.30262445801781723,,,,,,,,,,,,,,,,,21,001,19,w,Bachelor Psychologie 100%,2023-01-16_15h30.41.874,00_bat_bachelor,2022.2.4,59.903138487796895,
,,,,,,,,,,,,0,0,0,0,233,0,233,0,,,,,,,233,,,1,1838.34141559204,Y,d,go,d,1,0.2601071452991164,,,,,,,,,,,,,,,,,21,001,19,w,Bachelor Psychologie 100%,2023-01-16_15h30.41.874,00_bat_bachelor,2022.2.4,59.903138487796895,
,,,,,,,,,,,,0,0,0,0,234,0,234,0,,,,,,,234,,,1,1839.726172253977,X,l,go,l,1,0.26779877793160267,,,,,,,,,,,,,,,,,21,001,19,w,Bachelor Psychologie 100%,2023-01-16_15h30.41.874,00_bat_bachelor,2022.2.4,59.903138487796895,
,,,,,,,,,,,,0,0,0,0,235,0,235,0,,,,,,,235,,,1,1841.1272043019599,Y,d,go,d,1,0.21107686604227638,,,,,,,,,,,,,,,,,21,001,19,w,Bachelor Psychologie 100%,2023-01-16_15h30.41.874,00_bat_bachelor,2022.2.4,59.903138487796895,
,,,,,,,,,,,,0,0,0,0,236,0,236,0,,,,,,,236,,,1,1842.4616022004338,Y,None,nogo,None,1,,1843.262172963794,,,,,,,,,,,,,,,,21,001,19,w,Bachelor Psychologie 100%,2023-01-16_15h30.41.874,00_bat_bachelor,2022.2.4,59.903138487796895,
,,,,,,,,,,,,0,0,0,0,237,0,237,0,,,,,,,237,,,1,1844.2627615695674,Y,None,nogo,l,0,0.19567032805571216,,,,,,,,,,,,,,,,,21,001,19,w,Bachelor Psychologie 100%,2023-01-16_15h30.41.874,00_bat_bachelor,2022.2.4,59.903138487796895,
,,,,,,,,,,,,0,0,0,0,238,0,238,0,,,,,,,238,,,1,1845.5639076053776,X,l,go,l,1,0.4145322825461335,,,,,,,,,,,,,,,,,21,001,19,w,Bachelor Psychologie 100%,2023-01-16_15h30.41.874,00_bat_bachelor,2022.2.4,59.903138487796895,
,,,,,,,,,,,,0,0,0,0,239,0,239,0,,,,,,,239,,,1,1847.1148333988676,Y,d,go,d,1,0.23872970111915492,,,,,,,,,,,,,,,,,21,001,19,w,Bachelor Psychologie 100%,2023-01-16_15h30.41.874,00_bat_bachelor,2022.2.4,59.903138487796895,
,,,,,,,,,,,,0,0,0,0,240,0,240,0,,,,,,,240,,,1,1848.4825946751043,X,l,go,l,1,0.3117206960305339,,,,,,,,,,,,,,,,,21,001,19,w,Bachelor Psychologie 100%,2023-01-16_15h30.41.874,00_bat_bachelor,2022.2.4,59.903138487796895,
,,,,,,,,,,,,0,0,0,0,241,0,241,0,,,,,,,241,,,1,1849.917186949242,Y,d,go,d,1,0.25419490574495285,,,,,,,,,,,,,,,,,21,001,19,w,Bachelor Psychologie 100%,2023-01-16_15h30.41.874,00_bat_bachelor,2022.2.4,59.903138487796895,
,,,,,,,,,,,,0,0,0,0,242,0,242,0,,,,,,,242,,,1,1851.2849603466857,X,l,go,l,1,0.3251369319514197,,,,,,,,,,,,,,,,,21,001,19,w,Bachelor Psychologie 100%,2023-01-16_15h30.41.874,00_bat_bachelor,2022.2.4,59.903138487796895,
,,,,,,,,,,,,0,0,0,0,243,0,243,0,,,,,,,243,,,1,1852.7193819542372,Y,d,go,d,1,0.18688196868242812,,,,,,,,,,,,,,,,,21,001,19,w,Bachelor Psychologie 100%,2023-01-16_15h30.41.874,00_bat_bachelor,2022.2.4,59.903138487796895,
,,,,,,,,,,,,0,0,0,0,244,0,244,0,,,,,,,244,,,1,1854.0370351335587,X,l,go,l,1,0.27768822768484824,,,,,,,,,,,,,,,,,21,001,19,w,Bachelor Psychologie 100%,2023-01-16_15h30.41.874,00_bat_bachelor,2022.2.4,59.903138487796895,
,,,,,,,,,,,,0,0,0,0,245,0,245,0,,,,,,,245,,,1,1855.4381190603053,Y,d,go,d,1,0.3632110953076335,,,,,,,,,,,,,,,,,21,001,19,w,Bachelor Psychologie 100%,2023-01-16_15h30.41.874,00_bat_bachelor,2022.2.4,59.903138487796895,
,,,,,,,,,,,,0,0,0,0,246,0,246,0,,,,,,,246,,,1,1856.922479552737,Y,None,nogo,None,1,,1857.7232180735882,,,,,,,,,,,,,,,,21,001,19,w,Bachelor Psychologie 100%,2023-01-16_15h30.41.874,00_bat_bachelor,2022.2.4,59.903138487796895,
,,,,,,,,,,,,0,0,0,0,247,0,247,0,,,,,,,247,,,1,1858.723949709598,X,l,go,l,1,0.4062680441311386,,,,,,,,,,,,,,,,,21,001,19,w,Bachelor Psychologie 100%,2023-01-16_15h30.41.874,00_bat_bachelor,2022.2.4,59.903138487796895,
,,,,,,,,,,,,0,0,0,0,248,0,248,0,,,,,,,248,,,1,1860.241565458633,Y,d,go,d,1,0.3123815441977058,,,,,,,,,,,,,,,,,21,001,19,w,Bachelor Psychologie 100%,2023-01-16_15h30.41.874,00_bat_bachelor,2022.2.4,59.903138487796895,
,,,,,,,,,,,,0,0,0,0,249,0,249,0,,,,,,,249,,,1,1861.6596011347356,Y,None,nogo,None,1,,1862.491540125313,,,,,,,,,,,,,,,,21,001,19,w,Bachelor Psychologie 100%,2023-01-16_15h30.41.874,00_bat_bachelor,2022.2.4,59.903138487796895,
,,,,,,,,,,,,1,0,1,0,0,0,0,0,,,,,,,0,,,0.2,1874.1685899788645,X,l,go,l,1,0.5780866274908476,,,,,,,,,1862.491540125313,space,11.458254928013048,,,,,,21,001,19,w,Bachelor Psychologie 100%,2023-01-16_15h30.41.874,00_bat_bachelor,2022.2.4,59.903138487796895,
,,,,,,,,,,,,1,0,1,0,1,0,1,0,,,,,,,1,,,0.2,1875.0526196108513,Y,d,go,d,1,0.4455950553638104,,,,,,,,,,,,,,,,,21,001,19,w,Bachelor Psychologie 100%,2023-01-16_15h30.41.874,00_bat_bachelor,2022.2.4,59.903138487796895,
,,,,,,,,,,,,1,0,1,0,2,0,2,0,,,,,,,2,,,0.2,1875.8026963380835,X,l,go,l,1,0.39917713847535197,,,,,,,,,,,,,,,,,21,001,19,w,Bachelor Psychologie 100%,2023-01-16_15h30.41.874,00_bat_bachelor,2022.2.4,59.903138487796895,
,,,,,,,,,,,,1,0,1,0,3,0,3,0,,,,,,,3,,,0.2,1876.503545937674,X,None,nogo,d,0,0.38726102304281085,,,,,,,,,,,,,,,,,21,001,19,w,Bachelor Psychologie 100%,2023-01-16_15h30.41.874,00_bat_bachelor,2022.2.4,59.903138487796895,
,,,,,,,,,,,,1,0,1,0,4,0,4,0,,,,,,,4,,,0.2,1877.2040251131984,Y,d,go,None,0,,,,,,,,,,,,,,,,,,21,001,19,w,Bachelor Psychologie 100%,2023-01-16_15h30.41.874,00_bat_bachelor,2022.2.4,59.903138487796895,
,,,,,,,,,,,,1,0,1,0,5,0,5,0,,,,,,,5,,,0.2,1878.2048270522027,X,l,go,None,0,,1879.0050545430022,,,,,,,,,,,,,,,,21,001,19,w,Bachelor Psychologie 100%,2023-01-16_15h30.41.874,00_bat_bachelor,2022.2.4,59.903138487796895,
,,,,,,,,,,,,1,0,1,0,6,0,6,0,,,,,,,6,,,0.2,1879.2052222035272,X,None,nogo,None,1,,,,,,,,,,,,,,,,,,21,001,19,w,Bachelor Psychologie 100%,2023-01-16_15h30.41.874,00_bat_bachelor,2022.2.4,59.903138487796895,
,,,,,,,,,,,,1,0,1,0,7,0,7,0,,,,,,,7,,,0.2,1880.2060246273795,X,None,nogo,d,0,0.045490037235140335,,,,,,,,,,,,,,,,,21,001,19,w,Bachelor Psychologie 100%,2023-01-16_15h30.41.874,00_bat_bachelor,2022.2.4,59.903138487796895,
,,,,,,,,,,,,1,0,1,0,8,0,8,0,,,,,,,8,,,0.2,1880.55658494226,Y,d,go,None,0,,,,,,,,,,,,,,,,,,21,001,19,w,Bachelor Psychologie 100%,2023-01-16_15h30.41.874,00_bat_bachelor,2022.2.4,59.903138487796895,
,,,,,,,,,,,,1,0,1,0,9,0,9,0,,,,,,,9,,,0.2,1881.5570814268685,X,l,go,l,1,0.4048110751391505,,,,,,,,,,,,,,,,,21,001,19,w,Bachelor Psychologie 100%,2023-01-16_15h30.41.874,00_bat_bachelor,2022.2.4,59.903138487796895,
,,,,,,,,,,,,1,0,1,0,10,0,10,0,,,,,,,10,,,0.2,1882.2744299275473,Y,d,go,d,1,0.4723300727091555,,,,,,,,,,,,,,,,,21,001,19,w,Bachelor Psychologie 100%,2023-01-16_15h30.41.874,00_bat_bachelor,2022.2.4,59.903138487796895,
,,,,,,,,,,,,1,0,1,0,11,0,11,0,,,,,,,11,,,0.2,1883.0584950019402,X,l,go,l,1,0.4242801566106209,,,,,,,,,,,,,,,,,21,001,19,w,Bachelor Psychologie 100%,2023-01-16_15h30.41.874,00_bat_bachelor,2022.2.4,59.903138487796895,
,,,,,,,,,,,,1,0,1,0,12,0,12,0,,,,,,,12,,,0.2,1883.7922643431448,Y,d,go,d,1,0.5857860176984104,,,,,,,,,,,,,,,,,21,001,19,w,Bachelor Psychologie 100%,2023-01-16_15h30.41.874,00_bat_bachelor,2022.2.4,59.903138487796895,
,,,,,,,,,,,,1,0,1,0,13,0,13,0,,,,,,,13,,,0.2,1884.6931715427017,X,l,go,l,1,0.40569640804460505,,,,,,,,,,,,,,,,,21,001,19,w,Bachelor Psychologie 100%,2023-01-16_15h30.41.874,00_bat_bachelor,2022.2.4,59.903138487796895,
,,,,,,,,,,,,1,0,1,0,14,0,14,0,,,,,,,14,,,0.2,1885.410147679926,X,None,nogo,l,0,0.42464282309811097,,,,,,,,,,,,,,,,,21,001,19,w,Bachelor Psychologie 100%,2023-01-16_15h30.41.874,00_bat_bachelor,2022.2.4,59.903138487796895,
,,,,,,,,,,,,1,0,1,0,15,0,15,0,,,,,,,15,,,0.2,1886.1439097484072,Y,d,go,None,0,,,,,,,,,,,,,,,,,,21,001,19,w,Bachelor Psychologie 100%,2023-01-16_15h30.41.874,00_bat_bachelor,2022.2.4,59.903138487796895,
,,,,,,,,,,,,1,0,1,0,16,0,16,0,,,,,,,16,,,0.2,1887.1448261115984,X,l,go,None,0,,1887.945280511376,,,,,,,,,,,,,,,,21,001,19,w,Bachelor Psychologie 100%,2023-01-16_15h30.41.874,00_bat_bachelor,2022.2.4,59.903138487796895,
,,,,,,,,,,,,1,0,1,0,17,0,17,0,,,,,,,17,,,0.2,1888.1456896263298,X,None,nogo,None,1,,1888.9463340866241,,,,,,,,,,,,,,,,21,001,19,w,Bachelor Psychologie 100%,2023-01-16_15h30.41.874,00_bat_bachelor,2022.2.4,59.903138487796895,
,,,,,,,,,,,,1,0,1,0,18,0,18,0,,,,,,,18,,,0.2,1889.1461710806434,Y,d,go,d,1,0.3197100254947145,,,,,,,,,,,,,,,,,21,001,19,w,Bachelor Psychologie 100%,2023-01-16_15h30.41.874,00_bat_bachelor,2022.2.4,59.903138487796895,
,,,,,,,,,,,,1,0,1,0,19,0,19,0,,,,,,,19,,,0.2,1889.780103864192,X,l,go,None,0,,,,,,,,,,,,,,,,,,21,001,19,w,Bachelor Psychologie 100%,2023-01-16_15h30.41.874,00_bat_bachelor,2022.2.4,59.903138487796895,
,,,,,,,,,,,,1,0,1,0,20,0,20,0,,,,,,,20,,,0.2,1890.7809378031816,X,None,nogo,None,1,,,,,,,,,,,,,,,,,,21,001,19,w,Bachelor Psychologie 100%,2023-01-16_15h30.41.874,00_bat_bachelor,2022.2.4,59.903138487796895,
,,,,,,,,,,,,1,0,1,0,21,0,21,0,,,,,,,21,,,0.2,1891.7816670149477,Y,d,go,d,1,0.2451190313549887,,,,,,,,,,,,,,,,,21,001,19,w,Bachelor Psychologie 100%,2023-01-16_15h30.41.874,00_bat_bachelor,2022.2.4,59.903138487796895,
,,,,,,,,,,,,1,0,1,0,22,0,22,0,,,,,,,22,,,0.2,1892.3321908692378,X,l,go,l,1,0.5751848107174737,,,,,,,,,,,,,,,,,21,001,19,w,Bachelor Psychologie 100%,2023-01-16_15h30.41.874,00_bat_bachelor,2022.2.4,59.903138487796895,
,,,,,,,,,,,,1,0,1,0,23,0,23,0,,,,,,,23,,,0.2,1893.2162903193712,Y,d,go,d,1,0.49078824557727785,,,,,,,,,,,,,,,,,21,001,19,w,Bachelor Psychologie 100%,2023-01-16_15h30.41.874,00_bat_bachelor,2022.2.4,59.903138487796895,
,,,,,,,,,,,,1,0,1,0,24,0,24,0,,,,,,,24,,,0.2,1894.0167059312917,Y,None,nogo,None,1,,1894.8175099066611,,,,,,,,,,,,,,,,21,001,19,w,Bachelor Psychologie 100%,2023-01-16_15h30.41.874,00_bat_bachelor,2022.2.4,59.903138487796895,
,,,,,,,,,,,,1,0,1,0,25,0,25,0,,,,,,,25,,,0.2,1895.0175389005854,X,l,go,l,1,0.24163006334856618,,,,,,,,,,,,,,,,,21,001,19,w,Bachelor Psychologie 100%,2023-01-16_15h30.41.874,00_bat_bachelor,2022.2.4,59.903138487796895,
,,,,,,,,,,,,1,0,1,0,26,0,26,0,,,,,,,26,,,0.2,1895.5679046943478,Y,d,go,None,0,,,,,,,,,,,,,,,,,,21,001,19,w,Bachelor Psychologie 100%,2023-01-16_15h30.41.874,00_bat_bachelor,2022.2.4,59.903138487796895,
,,,,,,,,,,,,1,0,1,0,27,0,27,0,,,,,,,27,,,0.2,1896.5685117243556,Y,None,nogo,d,0,0.3700120617104403,,,,,,,,,,,,,,,,,21,001,19,w,Bachelor Psychologie 100%,2023-01-16_15h30.41.874,00_bat_bachelor,2022.2.4,59.903138487796895,
,,,,,,,,,,,,1,0,1,0,28,0,28,0,,,,,,,28,,,0.2,1897.2525899381362,X,l,go,None,0,,,,,,,,,,,,,,,,,,21,001,19,w,Bachelor Psychologie 100%,2023-01-16_15h30.41.874,00_bat_bachelor,2022.2.4,59.903138487796895,
,,,,,,,,,,,,1,0,1,0,29,0,29,0,,,,,,,29,,,0.2,1898.253383634721,Y,d,go,d,1,0.4782379486314312,,,,,,,,,,,,,,,,,21,001,19,w,Bachelor Psychologie 100%,2023-01-16_15h30.41.874,00_bat_bachelor,2022.2.4,59.903138487796895,
,,,,,,,,,,,,1,0,1,0,30,0,30,0,,,,,,,30,,,0.2,1899.0372853152548,X,l,go,l,1,0.4295989419115358,,,,,,,,,,,,,,,,,21,001,19,w,Bachelor Psychologie 100%,2023-01-16_15h30.41.874,00_bat_bachelor,2022.2.4,59.903138487796895,
,,,,,,,,,,,,1,0,1,0,31,0,31,0,,,,,,,31,,,0.2,1899.7712500503003,Y,d,go,d,1,0.48008619015672593,,,,,,,,,,,,,,,,,21,001,19,w,Bachelor Psychologie 100%,2023-01-16_15h30.41.874,00_bat_bachelor,2022.2.4,59.903138487796895,
,,,,,,,,,,,,1,0,1,0,32,0,32,0,,,,,,,32,,,0.2,1900.5548273673558,X,l,go,l,1,0.3672372751789226,,,,,,,,,,,,,,,,,21,001,19,w,Bachelor Psychologie 100%,2023-01-16_15h30.41.874,00_bat_bachelor,2022.2.4,59.903138487796895,
,,,,,,,,,,,,1,0,1,0,33,0,33,0,,,,,,,33,,,0.2,1901.2390224295632,Y,d,go,d,1,0.40318925774408854,,,,,,,,,,,,,,,,,21,001,19,w,Bachelor Psychologie 100%,2023-01-16_15h30.41.874,00_bat_bachelor,2022.2.4,59.903138487796895,
,,,,,,,,,,,,1,0,1,0,34,0,34,0,,,,,,,34,,,0.2,1901.9562720212016,X,l,go,l,1,0.3901987185890903,,,,,,,,,,,,,,,,,21,001,19,w,Bachelor Psychologie 100%,2023-01-16_15h30.41.874,00_bat_bachelor,2022.2.4,59.903138487796895,
,,,,,,,,,,,,1,0,1,0,35,0,35,0,,,,,,,35,,,0.2,1902.6566202876966,Y,d,go,d,1,0.4738966174045345,,,,,,,,,,,,,,,,,21,001,19,w,Bachelor Psychologie 100%,2023-01-16_15h30.41.874,00_bat_bachelor,2022.2.4,59.903138487796895,
,,,,,,,,,,,,1,0,1,0,36,0,36,0,,,,,,,36,,,0.2,1903.4403513016478,X,l,go,l,1,0.4249468229536433,,,,,,,,,,,,,,,,,21,001,19,w,Bachelor Psychologie 100%,2023-01-16_15h30.41.874,00_bat_bachelor,2022.2.4,59.903138487796895,
,,,,,,,,,,,,1,0,1,0,37,0,37,0,,,,,,,37,,,0.2,1904.1745894911073,Y,d,go,d,1,0.6045656449568924,,,,,,,,,,,,,,,,,21,001,19,w,Bachelor Psychologie 100%,2023-01-16_15h30.41.874,00_bat_bachelor,2022.2.4,59.903138487796895,
,,,,,,,,,,,,1,0,1,0,38,0,38,0,,,,,,,38,,,0.2,1905.0918118342706,Y,None,nogo,None,1,,,,,,,,,,,,,,,,,,21,001,19,w,Bachelor Psychologie 100%,2023-01-16_15h30.41.874,00_bat_bachelor,2022.2.4,59.903138487796895,
,,,,,,,,,,,,1,0,1,0,39,0,39,0,,,,,,,39,,,0.2,1906.0927655307787,X,l,go,l,1,0.2062904441190767,,,,,,,,,,,,,,,,,21,001,19,w,Bachelor Psychologie 100%,2023-01-16_15h30.41.874,00_bat_bachelor,2022.2.4,59.903138487796895,
,,,,,,,,,,,,1,0,1,0,40,0,40,0,,,,,,,40,,,0.2,1906.6094867347929,Y,d,go,d,1,0.5529040942456049,,,,,,,,,,,,,,,,,21,001,19,w,Bachelor Psychologie 100%,2023-01-16_15h30.41.874,00_bat_bachelor,2022.2.4,59.903138487796895,
,,,,,,,,,,,,1,0,1,0,41,0,41,0,,,,,,,41,,,0.2,1907.4771411019901,X,l,go,l,1,0.5332866492099129,,,,,,,,,,,,,,,,,21,001,19,w,Bachelor Psychologie 100%,2023-01-16_15h30.41.874,00_bat_bachelor,2022.2.4,59.903138487796895,
,,,,,,,,,,,,1,0,1,0,42,0,42,0,,,,,,,42,,,0.2,1908.3111232430892,Y,d,go,d,1,0.41961058311426314,,,,,,,,,,,,,,,,,21,001,19,w,Bachelor Psychologie 100%,2023-01-16_15h30.41.874,00_bat_bachelor,2022.2.4,59.903138487796895,
,,,,,,,,,,,,1,0,1,0,43,0,43,0,,,,,,,43,,,0.2,1909.044855250977,X,l,go,l,1,0.5651935428359138,,,,,,,,,,,,,,,,,21,001,19,w,Bachelor Psychologie 100%,2023-01-16_15h30.41.874,00_bat_bachelor,2022.2.4,59.903138487796895,
,,,,,,,,,,,,1,0,1,0,44,0,44,0,,,,,,,44,,,0.2,1909.912185254696,X,None,nogo,None,1,,1910.7128636543675,,,,,,,,,,,,,,,,21,001,19,w,Bachelor Psychologie 100%,2023-01-16_15h30.41.874,00_bat_bachelor,2022.2.4,59.903138487796895,
,,,,,,,,,,,,1,0,1,0,45,0,45,0,,,,,,,45,,,0.2,1910.9130705876014,Y,d,go,d,1,0.24939927170271403,,,,,,,,,,,,,,,,,21,001,19,w,Bachelor Psychologie 100%,2023-01-16_15h30.41.874,00_bat_bachelor,2022.2.4,59.903138487796895,
,,,,,,,,,,,,1,0,1,0,46,0,46,0,,,,,,,46,,,0.2,1911.4633190480854,X,l,go,l,1,0.48318534017016646,,,,,,,,,,,,,,,,,21,001,19,w,Bachelor Psychologie 100%,2023-01-16_15h30.41.874,00_bat_bachelor,2022.2.4,59.903138487796895,
,,,,,,,,,,,,1,0,1,0,47,0,47,0,,,,,,,47,,,0.2,1912.2472755164708,X,None,nogo,l,0,0.4835174612235278,,,,,,,,,,,,,,,,,21,001,19,w,Bachelor Psychologie 100%,2023-01-16_15h30.41.874,00_bat_bachelor,2022.2.4,59.903138487796895,
,,,,,,,,,,,,1,0,1,0,48,0,48,0,,,,,,,48,,,0.2,1913.0313531969186,Y,d,go,d,1,0.4832304310584732,,,,,,,,,,,,,,,,,21,001,19,w,Bachelor Psychologie 100%,2023-01-16_15h30.41.874,00_bat_bachelor,2022.2.4,59.903138487796895,
,,,,,,,,,,,,1,0,1,0,49,0,49,0,,,,,,,49,,,0.2,1913.8152718471392,X,l,go,l,1,0.5795101419535058,,,,,,,,,,,,,,,,,21,001,19,w,Bachelor Psychologie 100%,2023-01-16_15h30.41.874,00_bat_bachelor,2022.2.4,59.903138487796895,
,,,,,,,,,,,,1,0,1,0,50,0,50,0,,,,,,,50,,,0.2,1914.6989746914041,X,None,nogo,None,1,,,,,,,,,,,,,,,,,,21,001,19,w,Bachelor Psychologie 100%,2023-01-16_15h30.41.874,00_bat_bachelor,2022.2.4,59.903138487796895,
,,,,,,,,,,,,1,0,1,0,51,0,51,0,,,,,,,51,,,0.2,1915.699971054557,Y,d,go,d,1,0.2470298183070554,,,,,,,,,,,,,,,,,21,001,19,w,Bachelor Psychologie 100%,2023-01-16_15h30.41.874,00_bat_bachelor,2022.2.4,59.903138487796895,
,,,,,,,,,,,,1,0,1,0,52,0,52,0,,,,,,,52,,,0.2,1916.2503969695026,X,l,go,l,1,0.5771324461384211,,,,,,,,,,,,,,,,,21,001,19,w,Bachelor Psychologie 100%,2023-01-16_15h30.41.874,00_bat_bachelor,2022.2.4,59.903138487796895,
,,,,,,,,,,,,1,0,1,0,53,0,53,0,,,,,,,53,,,0.2,1917.134318965178,Y,d,go,d,1,0.46109129027536255,,,,,,,,,,,,,,,,,21,001,19,w,Bachelor Psychologie 100%,2023-01-16_15h30.41.874,00_bat_bachelor,2022.2.4,59.903138487796895,
,,,,,,,,,,,,1,0,1,0,54,0,54,0,,,,,,,54,,,0.2,1917.9016931385704,X,l,go,l,1,0.5098151454403705,,,,,,,,,,,,,,,,,21,001,19,w,Bachelor Psychologie 100%,2023-01-16_15h30.41.874,00_bat_bachelor,2022.2.4,59.903138487796895,
,,,,,,,,,,,,1,0,1,0,55,0,55,0,,,,,,,55,,,0.2,1918.718654197015,Y,d,go,d,1,0.555843244339485,,,,,,,,,,,,,,,,,21,001,19,w,Bachelor Psychologie 100%,2023-01-16_15h30.41.874,00_bat_bachelor,2022.2.4,59.903138487796895,
,,,,,,,,,,,,1,0,1,0,56,0,56,0,,,,,,,56,,,0.2,1919.5859909886094,X,l,go,l,1,0.5524105187287205,,,,,,,,,,,,,,,,,21,001,19,w,Bachelor Psychologie 100%,2023-01-16_15h30.41.874,00_bat_bachelor,2022.2.4,59.903138487796895,
,,,,,,,,,,,,1,0,1,0,57,0,57,0,,,,,,,57,,,0.2,1920.4533151741489,X,None,nogo,None,1,,,,,,,,,,,,,,,,,,21,001,19,w,Bachelor Psychologie 100%,2023-01-16_15h30.41.874,00_bat_bachelor,2022.2.4,59.903138487796895,
,,,,,,,,,,,,1,0,1,0,58,0,58,0,,,,,,,58,,,0.2,1921.4543091130618,Y,d,go,d,1,0.26821671712605166,,,,,,,,,,,,,,,,,21,001,19,w,Bachelor Psychologie 100%,2023-01-16_15h30.41.874,00_bat_bachelor,2022.2.4,59.903138487796895,
,,,,,,,,,,,,1,0,1,0,59,0,59,0,,,,,,,59,,,0.2,1922.038217678437,X,l,go,l,1,0.5810582624144445,,,,,,,,,,,,,,,,,21,001,19,w,Bachelor Psychologie 100%,2023-01-16_15h30.41.874,00_bat_bachelor,2022.2.4,59.903138487796895,
,,,,,,,,,,,,1,0,1,0,60,0,60,0,,,,,,,60,,,0.2,1922.9220431893118,X,None,nogo,None,1,,1923.7227589222966,,,,,,,,,,,,,,,,21,001,19,w,Bachelor Psychologie 100%,2023-01-16_15h30.41.874,00_bat_bachelor,2022.2.4,59.903138487796895,
,,,,,,,,,,,,1,0,1,0,61,0,61,0,,,,,,,61,,,0.2,1923.9229697343144,Y,d,go,d,1,0.24790787848542095,,,,,,,,,,,,,,,,,21,001,19,w,Bachelor Psychologie 100%,2023-01-16_15h30.41.874,00_bat_bachelor,2022.2.4,59.903138487796895,
,,,,,,,,,,,,1,0,1,0,62,0,62,0,,,,,,,62,,,0.2,1924.47314158878,X,l,go,l,1,0.4177497355340165,,,,,,,,,,,,,,,,,21,001,19,w,Bachelor Psychologie 100%,2023-01-16_15h30.41.874,00_bat_bachelor,2022.2.4,59.903138487796895,
,,,,,,,,,,,,1,0,1,0,63,0,63,0,,,,,,,63,,,0.2,1925.2069453542063,Y,d,go,None,0,,1926.0077566022992,,,,,,,,,,,,,,,,21,001,19,w,Bachelor Psychologie 100%,2023-01-16_15h30.41.874,00_bat_bachelor,2022.2.4,59.903138487796895,
,,,,,,,,,,,,1,0,1,0,64,0,64,0,,,,,,,64,,,0.2,1926.2079271719122,X,l,go,l,1,0.586747471777926,,,,,,,,,,,,,,,,,21,001,19,w,Bachelor Psychologie 100%,2023-01-16_15h30.41.874,00_bat_bachelor,2022.2.4,59.903138487796895,
,,,,,,,,,,,,1,0,1,0,65,0,65,0,,,,,,,65,,,0.2,1927.1086637048902,Y,d,go,d,1,0.39105883938464103,,,,,,,,,,,,,,,,,21,001,19,w,Bachelor Psychologie 100%,2023-01-16_15h30.41.874,00_bat_bachelor,2022.2.4,59.903138487796895,
,,,,,,,,,,,,1,0,1,0,66,0,66,0,,,,,,,66,,,0.2,1927.8091433652626,X,l,go,l,1,0.41071992076103925,,,,,,,,,,,,,,,,,21,001,19,w,Bachelor Psychologie 100%,2023-01-16_15h30.41.874,00_bat_bachelor,2022.2.4,59.903138487796895,
,,,,,,,,,,,,1,0,1,0,67,0,67,0,,,,,,,67,,,0.2,1928.5265035023003,Y,d,go,d,1,0.3486864962942491,,,,,,,,,,,,,,,,,21,001,19,w,Bachelor Psychologie 100%,2023-01-16_15h30.41.874,00_bat_bachelor,2022.2.4,59.903138487796895,
,,,,,,,,,,,,1,0,1,0,68,0,68,0,,,,,,,68,,,0.2,1929.1766214901218,Y,None,nogo,None,1,,1929.9775253442276,,,,,,,,,,,,,,,,21,001,19,w,Bachelor Psychologie 100%,2023-01-16_15h30.41.874,00_bat_bachelor,2022.2.4,59.903138487796895,
,,,,,,,,,,,,1,0,1,0,69,0,69,0,,,,,,,69,,,0.2,1930.177412277615,X,l,go,l,1,0.1529314396866539,,,,,,,,,,,,,,,,,21,001,19,w,Bachelor Psychologie 100%,2023-01-16_15h30.41.874,00_bat_bachelor,2022.2.4,59.903138487796895,
,,,,,,,,,,,,1,0,1,0,70,0,70,0,,,,,,,70,,,0.2,1930.6447104752915,Y,d,go,d,1,0.4537472938391147,,,,,,,,,,,,,,,,,21,001,19,w,Bachelor Psychologie 100%,2023-01-16_15h30.41.874,00_bat_bachelor,2022.2.4,59.903138487796895,
,,,,,,,,,,,,1,0,1,0,71,0,71,0,,,,,,,71,,,0.2,1931.4118630730336,X,l,go,l,1,0.5824478374961473,,,,,,,,,,,,,,,,,21,001,19,w,Bachelor Psychologie 100%,2023-01-16_15h30.41.874,00_bat_bachelor,2022.2.4,59.903138487796895,
,,,,,,,,,,,,1,0,1,0,72,0,72,0,,,,,,,72,,,0.2,1932.2960095534472,Y,d,go,d,1,0.5313608319629566,,,,,,,,,,,,,,,,,21,001,19,w,Bachelor Psychologie 100%,2023-01-16_15h30.41.874,00_bat_bachelor,2022.2.4,59.903138487796895,
,,,,,,,,,,,,1,0,1,0,73,0,73,0,,,,,,,73,,,0.2,1933.1298748461195,Y,None,nogo,None,1,,,,,,,,,,,,,,,,,,21,001,19,w,Bachelor Psychologie 100%,2023-01-16_15h30.41.874,00_bat_bachelor,2022.2.4,59.903138487796895,
,,,,,,,,,,,,1,0,1,0,74,0,74,0,,,,,,,74,,,0.2,1934.1306903608747,X,l,go,l,1,0.5198505345142621,,,,,,,,,,,,,,,,,21,001,19,w,Bachelor Psychologie 100%,2023-01-16_15h30.41.874,00_bat_bachelor,2022.2.4,59.903138487796895,
,,,,,,,,,,,,1,0,1,0,75,0,75,0,,,,,,,75,,,0.2,1934.9645362596166,Y,d,go,d,1,0.3265468706631509,,,,,,,,,,,,,,,,,21,001,19,w,Bachelor Psychologie 100%,2023-01-16_15h30.41.874,00_bat_bachelor,2022.2.4,59.903138487796895,
,,,,,,,,,,,,1,0,1,0,76,0,76,0,,,,,,,76,,,0.2,1935.5984661340772,Y,None,nogo,None,1,,,,,,,,,,,,,,,,,,21,001,19,w,Bachelor Psychologie 100%,2023-01-16_15h30.41.874,00_bat_bachelor,2022.2.4,59.903138487796895,
,,,,,,,,,,,,1,0,1,0,77,0,77,0,,,,,,,77,,,0.2,1936.5993102548782,X,l,go,l,1,0.16405531308191712,,,,,,,,,,,,,,,,,21,001,19,w,Bachelor Psychologie 100%,2023-01-16_15h30.41.874,00_bat_bachelor,2022.2.4,59.903138487796895,
,,,,,,,,,,,,1,0,1,0,78,0,78,0,,,,,,,78,,,0.2,1937.0662637254463,Y,d,go,None,0,,,,,,,,,,,,,,,,,,21,001,19,w,Bachelor Psychologie 100%,2023-01-16_15h30.41.874,00_bat_bachelor,2022.2.4,59.903138487796895,
,,,,,,,,,,,,1,0,1,0,79,0,79,0,,,,,,,79,,,0.2,1938.0667262706775,Y,None,nogo,None,1,,,,,,,,,,,,,,,,,,21,001,19,w,Bachelor Psychologie 100%,2023-01-16_15h30.41.874,00_bat_bachelor,2022.2.4,59.903138487796895,
,,,,,,,,,,,,1,0,1,0,80,0,80,0,,,,,,,80,,,0.2,1939.0678346337772,X,l,go,l,1,0.33447026076100883,,,,,,,,,,,,,,,,,21,001,19,w,Bachelor Psychologie 100%,2023-01-16_15h30.41.874,00_bat_bachelor,2022.2.4,59.903138487796895,
,,,,,,,,,,,,1,0,1,0,81,0,81,0,,,,,,,81,,,0.2,1939.7182076517784,Y,d,go,d,1,0.3730743632550002,,,,,,,,,,,,,,,,,21,001,19,w,Bachelor Psychologie 100%,2023-01-16_15h30.41.874,00_bat_bachelor,2022.2.4,59.903138487796895,
,,,,,,,,,,,,1,0,1,0,82,0,82,0,,,,,,,82,,,0.2,1940.401887320295,Y,None,nogo,None,1,,,,,,,,,,,,,,,,,,21,001,19,w,Bachelor Psychologie 100%,2023-01-16_15h30.41.874,00_bat_bachelor,2022.2.4,59.903138487796895,
,,,,,,,,,,,,1,0,1,0,83,0,83,0,,,,,,,83,,,0.2,1941.4029113197976,Y,None,nogo,None,1,,1942.2032086287472,,,,,,,,,,,,,,,,21,001,19,w,Bachelor Psychologie 100%,2023-01-16_15h30.41.874,00_bat_bachelor,2022.2.4,59.903138487796895,
,,,,,,,,,,,,1,0,1,0,84,0,84,0,,,,,,,84,,,0.2,1942.4036599254978,X,l,go,l,1,0.4708217098013847,,,,,,,,,,,,,,,,,21,001,19,w,Bachelor Psychologie 100%,2023-01-16_15h30.41.874,00_bat_bachelor,2022.2.4,59.903138487796895,
,,,,,,,,,,,,1,0,1,0,85,0,85,0,,,,,,,85,,,0.2,1943.1873002728244,Y,d,go,d,1,0.3923650205688318,,,,,,,,,,,,,,,,,21,001,19,w,Bachelor Psychologie 100%,2023-01-16_15h30.41.874,00_bat_bachelor,2022.2.4,59.903138487796895,
,,,,,,,,,,,,1,0,1,0,86,0,86,0,,,,,,,86,,,0.2,1943.8880722966896,X,l,go,l,1,0.5701787525358668,,,,,,,,,,,,,,,,,21,001,19,w,Bachelor Psychologie 100%,2023-01-16_15h30.41.874,00_bat_bachelor,2022.2.4,59.903138487796895,
,,,,,,,,,,,,1,0,1,0,87,0,87,0,,,,,,,87,,,0.2,1944.772208110444,Y,d,go,d,1,0.4867373384477105,,,,,,,,,,,,,,,,,21,001,19,w,Bachelor Psychologie 100%,2023-01-16_15h30.41.874,00_bat_bachelor,2022.2.4,59.903138487796895,
,,,,,,,,,,,,1,0,1,0,88,0,88,0,,,,,,,88,,,0.2,1945.5727977828828,Y,None,nogo,None,1,,1946.3734058795599,,,,,,,,,,,,,,,,21,001,19,w,Bachelor Psychologie 100%,2023-01-16_15h30.41.874,00_bat_bachelor,2022.2.4,59.903138487796895,
,,,,,,,,,,,,1,0,1,0,89,0,89,0,,,,,,,89,,,0.2,1946.5734983886068,X,l,go,l,1,0.4451805101125501,,,,,,,,,,,,,,,,,21,001,19,w,Bachelor Psychologie 100%,2023-01-16_15h30.41.874,00_bat_bachelor,2022.2.4,59.903138487796895,
,,,,,,,,,,,,1,0,1,0,90,0,90,0,,,,,,,90,,,0.2,1947.3241031155849,Y,d,go,d,1,0.4466709336338681,,,,,,,,,,,,,,,,,21,001,19,w,Bachelor Psychologie 100%,2023-01-16_15h30.41.874,00_bat_bachelor,2022.2.4,59.903138487796895,
,,,,,,,,,,,,1,0,1,0,91,0,91,0,,,,,,,91,,,0.2,1948.0746511153193,Y,None,nogo,None,1,,,,,,,,,,,,,,,,,,21,001,19,w,Bachelor Psychologie 100%,2023-01-16_15h30.41.874,00_bat_bachelor,2022.2.4,59.903138487796895,
,,,,,,,,,,,,1,0,1,0,92,0,92,0,,,,,,,92,,,0.2,1949.0754137816148,X,l,go,l,1,0.48707624737289734,,,,,,,,,,,,,,,,,21,001,19,w,Bachelor Psychologie 100%,2023-01-16_15h30.41.874,00_bat_bachelor,2022.2.4,59.903138487796895,
,,,,,,,,,,,,1,0,1,0,93,0,93,0,,,,,,,93,,,0.2,1949.8759423631782,Y,d,go,d,1,0.4223203999827092,,,,,,,,,,,,,,,,,21,001,19,w,Bachelor Psychologie 100%,2023-01-16_15h30.41.874,00_bat_bachelor,2022.2.4,59.903138487796895,
,,,,,,,,,,,,1,0,1,0,94,0,94,0,,,,,,,94,,,0.2,1950.6098799467218,Y,None,nogo,None,1,,1951.410522467624,,,,,,,,,,,,,,,,21,001,19,w,Bachelor Psychologie 100%,2023-01-16_15h30.41.874,00_bat_bachelor,2022.2.4,59.903138487796895,
,,,,,,,,,,,,1,0,1,0,95,0,95,0,,,,,,,95,,,0.2,1951.610531097922,X,l,go,l,1,0.3998699866278912,,,,,,,,,,,,,,,,,21,001,19,w,Bachelor Psychologie 100%,2023-01-16_15h30.41.874,00_bat_bachelor,2022.2.4,59.903138487796895,
,,,,,,,,,,,,1,0,1,0,96,0,96,0,,,,,,,96,,,0.2,1952.310911849254,Y,d,go,d,1,0.5805675959854852,,,,,,,,,,,,,,,,,21,001,19,w,Bachelor Psychologie 100%,2023-01-16_15h30.41.874,00_bat_bachelor,2022.2.4,59.903138487796895,
,,,,,,,,,,,,1,0,1,0,97,0,97,0,,,,,,,97,,,0.2,1953.1951572387115,X,l,go,l,1,0.5908221364697965,,,,,,,,,,,,,,,,,21,001,19,w,Bachelor Psychologie 100%,2023-01-16_15h30.41.874,00_bat_bachelor,2022.2.4,59.903138487796895,
,,,,,,,,,,,,1,0,1,0,98,0,98,0,,,,,,,98,,,0.2,1954.0959393474222,Y,d,go,d,1,0.36325085286443937,,,,,,,,,,,,,,,,,21,001,19,w,Bachelor Psychologie 100%,2023-01-16_15h30.41.874,00_bat_bachelor,2022.2.4,59.903138487796895,
,,,,,,,,,,,,1,0,1,0,99,0,99,0,,,,,,,99,,,0.2,1954.7629940543047,Y,None,nogo,None,1,,,,,,,,,,,,,,,,,,21,001,19,w,Bachelor Psychologie 100%,2023-01-16_15h30.41.874,00_bat_bachelor,2022.2.4,59.903138487796895,
,,,,,,,,,,,,1,0,1,0,100,0,100,0,,,,,,,100,,,0.2,1955.7645707808115,X,l,go,l,1,0.31068312077695737,,,,,,,,,,,,,,,,,21,001,19,w,Bachelor Psychologie 100%,2023-01-16_15h30.41.874,00_bat_bachelor,2022.2.4,59.903138487796895,
,,,,,,,,,,,,1,0,1,0,101,0,101,0,,,,,,,101,,,0.2,1956.3814466029326,Y,d,go,d,1,0.395995079412387,,,,,,,,,,,,,,,,,21,001,19,w,Bachelor Psychologie 100%,2023-01-16_15h30.41.874,00_bat_bachelor,2022.2.4,59.903138487796895,
,,,,,,,,,,,,1,0,1,0,102,0,102,0,,,,,,,102,,,0.2,1957.115342489531,Y,None,nogo,None,1,,1957.9159670710433,,,,,,,,,,,,,,,,21,001,19,w,Bachelor Psychologie 100%,2023-01-16_15h30.41.874,00_bat_bachelor,2022.2.4,59.903138487796895,
,,,,,,,,,,,,1,0,1,0,103,0,103,0,,,,,,,103,,,0.2,1958.1161182467295,X,l,go,l,1,0.2608431449443742,,,,,,,,,,,,,,,,,21,001,19,w,Bachelor Psychologie 100%,2023-01-16_15h30.41.874,00_bat_bachelor,2022.2.4,59.903138487796895,
,,,,,,,,,,,,1,0,1,0,104,0,104,0,,,,,,,104,,,0.2,1958.7165111677496,Y,d,go,d,1,0.3334962006229034,,,,,,,,,,,,,,,,,21,001,19,w,Bachelor Psychologie 100%,2023-01-16_15h30.41.874,00_bat_bachelor,2022.2.4,59.903138487796895,
,,,,,,,,,,,,1,0,1,0,105,0,105,0,,,,,,,105,,,0.2,1959.3672909734341,X,l,go,l,1,0.6118286717392039,,,,,,,,,,,,,,,,,21,001,19,w,Bachelor Psychologie 100%,2023-01-16_15h30.41.874,00_bat_bachelor,2022.2.4,59.903138487796895,
,,,,,,,,,,,,1,0,1,0,106,0,106,0,,,,,,,106,,,0.2,1960.3010611873615,X,None,nogo,None,1,,1961.1018564354636,,,,,,,,,,,,,,,,21,001,19,w,Bachelor Psychologie 100%,2023-01-16_15h30.41.874,00_bat_bachelor,2022.2.4,59.903138487796895,
,,,,,,,,,,,,1,0,1,0,107,0,107,0,,,,,,,107,,,0.2,1961.3019009445306,Y,d,go,d,1,0.4041400451606023,,,,,,,,,,,,,,,,,21,001,19,w,Bachelor Psychologie 100%,2023-01-16_15h30.41.874,00_bat_bachelor,2022.2.4,59.903138487796895,
,,,,,,,,,,,,1,0,1,0,108,0,108,0,,,,,,,108,,,0.2,1962.0359752552831,X,l,go,l,1,0.5504260348425305,,,,,,,,,,,,,,,,,21,001,19,w,Bachelor Psychologie 100%,2023-01-16_15h30.41.874,00_bat_bachelor,2022.2.4,59.903138487796895,
,,,,,,,,,,,,1,0,1,0,109,0,109,0,,,,,,,109,,,0.2,1962.8864320550601,Y,d,go,None,0,,1963.6870008790283,,,,,,,,,,,,,,,,21,001,19,w,Bachelor Psychologie 100%,2023-01-16_15h30.41.874,00_bat_bachelor,2022.2.4,59.903138487796895,
,,,,,,,,,,,,1,0,1,0,110,0,110,0,,,,,,,110,,,0.2,1963.8871646607658,Y,None,nogo,None,1,,1964.6876854847578,,,,,,,,,,,,,,,,21,001,19,w,Bachelor Psychologie 100%,2023-01-16_15h30.41.874,00_bat_bachelor,2022.2.4,59.903138487796895,
,,,,,,,,,,,,1,0,1,0,111,0,111,0,,,,,,,111,,,0.2,1964.8879578725027,X,l,go,l,1,0.32312141777947545,,,,,,,,,,,,,,,,,21,001,19,w,Bachelor Psychologie 100%,2023-01-16_15h30.41.874,00_bat_bachelor,2022.2.4,59.903138487796895,
,,,,,,,,,,,,1,0,1,0,112,0,112,0,,,,,,,112,,,0.2,1965.521756837934,Y,d,go,d,1,0.3286787484175875,,,,,,,,,,,,,,,,,21,001,19,w,Bachelor Psychologie 100%,2023-01-16_15h30.41.874,00_bat_bachelor,2022.2.4,59.903138487796895,
,,,,,,,,,,,,1,0,1,0,113,0,113,0,,,,,,,113,,,0.2,1966.1719320378506,Y,None,nogo,None,1,,1966.9724998921192,,,,,,,,,,,,,,,,21,001,19,w,Bachelor Psychologie 100%,2023-01-16_15h30.41.874,00_bat_bachelor,2022.2.4,59.903138487796895,
,,,,,,,,,,,,1,0,1,0,114,0,114,0,,,,,,,114,,,0.2,1967.172709734441,Y,None,nogo,l,0,0.22968970550209633,,,,,,,,,,,,,,,,,21,001,19,w,Bachelor Psychologie 100%,2023-01-16_15h30.41.874,00_bat_bachelor,2022.2.4,59.903138487796895,
,,,,,,,,,,,,1,0,1,0,115,0,115,0,,,,,,,115,,,0.2,1967.706443293846,X,l,go,l,1,0.5921535297602532,,,,,,,,,,,,,,,,,21,001,19,w,Bachelor Psychologie 100%,2023-01-16_15h30.41.874,00_bat_bachelor,2022.2.4,59.903138487796895,
,,,,,,,,,,,,1,0,1,0,116,0,116,0,,,,,,,116,,,0.2,1968.607122129877,Y,d,go,None,0,,1969.407757378056,,,,,,,,,,,,,,,,21,001,19,w,Bachelor Psychologie 100%,2023-01-16_15h30.41.874,00_bat_bachelor,2022.2.4,59.903138487796895,
,,,,,,,,,,,,1,0,1,0,117,0,117,0,,,,,,,117,,,0.2,1969.607813038634,X,l,go,l,1,0.48215212855211576,,,,,,,,,,,,,,,,,21,001,19,w,Bachelor Psychologie 100%,2023-01-16_15h30.41.874,00_bat_bachelor,2022.2.4,59.903138487796895,
,,,,,,,,,,,,1,0,1,0,118,0,118,0,,,,,,,118,,,0.2,1970.3915925374095,X,None,nogo,l,0,0.5315654379228363,,,,,,,,,,,,,,,,,21,001,19,w,Bachelor Psychologie 100%,2023-01-16_15h30.41.874,00_bat_bachelor,2022.2.4,59.903138487796895,
,,,,,,,,,,,,1,0,1,0,119,0,119,0,,,,,,,119,,,0.2,1971.2257899511314,Y,d,go,d,1,0.6254776348141604,,,,,,,,,,,,,,,,,21,001,19,w,Bachelor Psychologie 100%,2023-01-16_15h30.41.874,00_bat_bachelor,2022.2.4,59.903138487796895,
,,,,,,,,,,,,1,0,1,0,120,0,120,0,,,,,,,120,,,0.2,1972.1598287709894,X,l,go,l,1,0.5709050552177359,,,,,,,,,,,,,,,,,21,001,19,w,Bachelor Psychologie 100%,2023-01-16_15h30.41.874,00_bat_bachelor,2022.2.4,59.903138487796895,
,,,,,,,,,,,,1,0,1,0,121,0,121,0,,,,,,,121,,,0.2,1973.0434021607725,X,None,nogo,None,1,,,,,,,,,,,,,,,,,,21,001,19,w,Bachelor Psychologie 100%,2023-01-16_15h30.41.874,00_bat_bachelor,2022.2.4,59.903138487796895,
,,,,,,,,,,,,1,0,1,0,122,0,122,0,,,,,,,122,,,0.2,1974.0443529481927,Y,d,go,d,1,0.302203609735443,,,,,,,,,,,,,,,,,21,001,19,w,Bachelor Psychologie 100%,2023-01-16_15h30.41.874,00_bat_bachelor,2022.2.4,59.903138487796895,
,,,,,,,,,,,,1,0,1,0,123,0,123,0,,,,,,,123,,,0.2,1974.6612719218065,X,l,go,l,1,0.5979654057337029,,,,,,,,,,,,,,,,,21,001,19,w,Bachelor Psychologie 100%,2023-01-16_15h30.41.874,00_bat_bachelor,2022.2.4,59.903138487796895,
,,,,,,,,,,,,1,0,1,0,124,0,124,0,,,,,,,124,,,0.2,1975.5619628790482,X,None,nogo,None,1,,,,,,,,,,,,,,,,,,21,001,19,w,Bachelor Psychologie 100%,2023-01-16_15h30.41.874,00_bat_bachelor,2022.2.4,59.903138487796895,
,,,,,,,,,,,,1,0,1,0,125,0,125,0,,,,,,,125,,,0.2,1976.5629994846058,Y,d,go,d,1,0.29634809742492507,,,,,,,,,,,,,,,,,21,001,19,w,Bachelor Psychologie 100%,2023-01-16_15h30.41.874,00_bat_bachelor,2022.2.4,59.903138487796895,
,,,,,,,,,,,,1,0,1,0,126,0,126,0,,,,,,,126,,,0.2,1977.1631688905836,X,l,go,l,1,0.5117676293411932,,,,,,,,,,,,,,,,,21,001,19,w,Bachelor Psychologie 100%,2023-01-16_15h30.41.874,00_bat_bachelor,2022.2.4,59.903138487796895,
,,,,,,,,,,,,1,0,1,0,127,0,127,0,,,,,,,127,,,0.2,1977.9807830396203,Y,d,go,d,1,0.41438100989398663,,,,,,,,,,,,,,,,,21,001,19,w,Bachelor Psychologie 100%,2023-01-16_15h30.41.874,00_bat_bachelor,2022.2.4,59.903138487796895,
,,,,,,,,,,,,1,0,1,0,128,0,128,0,,,,,,,128,,,0.2,1978.69796814644,X,l,go,l,1,0.5774417793181783,,,,,,,,,,,,,,,,,21,001,19,w,Bachelor Psychologie 100%,2023-01-16_15h30.41.874,00_bat_bachelor,2022.2.4,59.903138487796895,
,,,,,,,,,,,,1,0,1,0,129,0,129,0,,,,,,,129,,,0.2,1979.5820913541356,Y,d,go,d,1,0.39775798765185755,,,,,,,,,,,,,,,,,21,001,19,w,Bachelor Psychologie 100%,2023-01-16_15h30.41.874,00_bat_bachelor,2022.2.4,59.903138487796895,
,,,,,,,,,,,,1,0,1,0,130,0,130,0,,,,,,,130,,,0.2,1980.2822209540718,X,l,go,l,1,0.5602640906799934,,,,,,,,,,,,,,,,,21,001,19,w,Bachelor Psychologie 100%,2023-01-16_15h30.41.874,00_bat_bachelor,2022.2.4,59.903138487796895,
,,,,,,,,,,,,1,0,1,0,131,0,131,0,,,,,,,131,,,0.2,1981.1495480487029,Y,d,go,d,1,0.38093229883816093,,,,,,,,,,,,,,,,,21,001,19,w,Bachelor Psychologie 100%,2023-01-16_15h30.41.874,00_bat_bachelor,2022.2.4,59.903138487796895,
,,,,,,,,,,,,1,0,1,0,132,0,132,0,,,,,,,132,,,0.2,1981.83341680804,X,l,go,l,1,0.4821317649220873,,,,,,,,,,,,,,,,,21,001,19,w,Bachelor Psychologie 100%,2023-01-16_15h30.41.874,00_bat_bachelor,2022.2.4,59.903138487796895,
,,,,,,,,,,,,1,0,1,0,133,0,133,0,,,,,,,133,,,0.2,1982.617735458065,X,None,nogo,None,1,,1983.418158827557,,,,,,,,,,,,,,,,21,001,19,w,Bachelor Psychologie 100%,2023-01-16_15h30.41.874,00_bat_bachelor,2022.2.4,59.903138487796895,
,,,,,,,,,,,,1,0,1,0,134,0,134,0,,,,,,,134,,,0.2,1983.618516548595,Y,d,go,d,1,0.37718733095607604,,,,,,,,,,,,,,,,,21,001,19,w,Bachelor Psychologie 100%,2023-01-16_15h30.41.874,00_bat_bachelor,2022.2.4,59.903138487796895,
,,,,,,,,,,,,1,0,1,0,135,0,135,0,,,,,,,135,,,0.2,1984.3019630051058,X,l,go,l,1,0.4608512903942028,,,,,,,,,,,,,,,,,21,001,19,w,Bachelor Psychologie 100%,2023-01-16_15h30.41.874,00_bat_bachelor,2022.2.4,59.903138487796895,
,,,,,,,,,,,,1,0,1,0,136,0,136,0,,,,,,,136,,,0.2,1985.069285299738,X,None,nogo,l,0,0.557089789184829,,,,,,,,,,,,,,,,,21,001,19,w,Bachelor Psychologie 100%,2023-01-16_15h30.41.874,00_bat_bachelor,2022.2.4,59.903138487796895,
,,,,,,,,,,,,1,0,1,0,137,0,137,0,,,,,,,137,,,0.2,1985.9368218488125,Y,d,go,d,1,0.5859246842956054,,,,,,,,,,,,,,,,,21,001,19,w,Bachelor Psychologie 100%,2023-01-16_15h30.41.874,00_bat_bachelor,2022.2.4,59.903138487796895,
,,,,,,,,,,,,1,0,1,0,138,0,138,0,,,,,,,138,,,0.2,1986.8374017758033,X,l,go,None,0,,,,,,,,,,,,,,,,,,21,001,19,w,Bachelor Psychologie 100%,2023-01-16_15h30.41.874,00_bat_bachelor,2022.2.4,59.903138487796895,
,,,,,,,,,,,,1,0,1,0,139,0,139,0,,,,,,,139,,,0.2,1987.838337048077,X,None,nogo,None,1,,,,,,,,,,,,,,,,,,21,001,19,w,Bachelor Psychologie 100%,2023-01-16_15h30.41.874,00_bat_bachelor,2022.2.4,59.903138487796895,
,,,,,,,,,,,,1,0,1,0,140,0,140,0,,,,,,,140,,,0.2,1988.839078865898,X,None,nogo,None,1,,1989.639676295912,,,,,,,,,,,,,,,,21,001,19,w,Bachelor Psychologie 100%,2023-01-16_15h30.41.874,00_bat_bachelor,2022.2.4,59.903138487796895,
,,,,,,,,,,,,1,0,1,0,141,0,141,0,,,,,,,141,,,0.2,1989.8395850474735,Y,d,go,d,1,0.33091777763183927,,,,,,,,,,,,,,,,,21,001,19,w,Bachelor Psychologie 100%,2023-01-16_15h30.41.874,00_bat_bachelor,2022.2.4,59.903138487796895,
,,,,,,,,,,,,1,0,1,0,142,0,142,0,,,,,,,142,,,0.2,1990.4733859522967,X,l,go,l,1,0.4166937360459997,,,,,,,,,,,,,,,,,21,001,19,w,Bachelor Psychologie 100%,2023-01-16_15h30.41.874,00_bat_bachelor,2022.2.4,59.903138487796895,
,,,,,,,,,,,,1,0,1,0,143,0,143,0,,,,,,,143,,,0.2,1991.1907591802374,X,None,nogo,None,1,,,,,,,,,,,,,,,,,,21,001,19,w,Bachelor Psychologie 100%,2023-01-16_15h30.41.874,00_bat_bachelor,2022.2.4,59.903138487796895,
,,,,,,,,,,,,1,0,1,0,144,0,144,0,,,,,,,144,,,0.2,1992.1914995435145,Y,d,go,d,1,0.41158585973244044,,,,,,,,,,,,,,,,,21,001,19,w,Bachelor Psychologie 100%,2023-01-16_15h30.41.874,00_bat_bachelor,2022.2.4,59.903138487796895,
,,,,,,,,,,,,1,0,1,0,145,0,145,0,,,,,,,145,,,0.2,1992.9084960443652,X,l,go,l,1,0.5581545159438974,,,,,,,,,,,,,,,,,21,001,19,w,Bachelor Psychologie 100%,2023-01-16_15h30.41.874,00_bat_bachelor,2022.2.4,59.903138487796895,
,,,,,,,,,,,,1,0,1,0,146,0,146,0,,,,,,,146,,,0.2,1993.7761906539672,Y,d,go,d,1,0.4912304271783796,,,,,,,,,,,,,,,,,21,001,19,w,Bachelor Psychologie 100%,2023-01-16_15h30.41.874,00_bat_bachelor,2022.2.4,59.903138487796895,
,,,,,,,,,,,,1,0,1,0,147,0,147,0,,,,,,,147,,,0.2,1994.576442872025,Y,None,nogo,l,0,0.6181724262387434,,,,,,,,,,,,,,,,,21,001,19,w,Bachelor Psychologie 100%,2023-01-16_15h30.41.874,00_bat_bachelor,2022.2.4,59.903138487796895,
,,,,,,,,,,,,1,0,1,0,148,0,148,0,,,,,,,148,,,0.2,1995.5105340554983,X,l,go,None,0,,,,,,,,,,,,,,,,,,21,001,19,w,Bachelor Psychologie 100%,2023-01-16_15h30.41.874,00_bat_bachelor,2022.2.4,59.903138487796895,
,,,,,,,,,,,,1,0,1,0,149,0,149,0,,,,,,,149,,,0.2,1996.5113020551253,Y,d,go,d,1,0.5078810857739882,,,,,,,,,,,,,,,,,21,001,19,w,Bachelor Psychologie 100%,2023-01-16_15h30.41.874,00_bat_bachelor,2022.2.4,59.903138487796895,
,,,,,,,,,,,,1,0,1,0,150,0,150,0,,,,,,,150,,,0.2,1997.3288977799275,X,l,go,l,1,0.45816668563566054,,,,,,,,,,,,,,,,,21,001,19,w,Bachelor Psychologie 100%,2023-01-16_15h30.41.874,00_bat_bachelor,2022.2.4,59.903138487796895,
,,,,,,,,,,,,1,0,1,0,151,0,151,0,,,,,,,151,,,0.2,1998.0958418929222,Y,d,go,d,1,0.6351508422485495,,,,,,,,,,,,,,,,,21,001,19,w,Bachelor Psychologie 100%,2023-01-16_15h30.41.874,00_bat_bachelor,2022.2.4,59.903138487796895,
,,,,,,,,,,,,1,0,1,0,152,0,152,0,,,,,,,152,,,0.2,1999.046512462297,Y,None,nogo,None,1,,,,,,,,,,,,,,,,,,21,001,19,w,Bachelor Psychologie 100%,2023-01-16_15h30.41.874,00_bat_bachelor,2022.2.4,59.903138487796895,
,,,,,,,,,,,,1,0,1,0,153,0,153,0,,,,,,,153,,,0.2,2000.0472833710119,X,l,go,l,1,0.2661420514632482,,,,,,,,,,,,,,,,,21,001,19,w,Bachelor Psychologie 100%,2023-01-16_15h30.41.874,00_bat_bachelor,2022.2.4,59.903138487796895,
,,,,,,,,,,,,1,0,1,0,154,0,154,0,,,,,,,154,,,0.2,2000.6148200655407,Y,d,go,d,1,0.3236275993513118,,,,,,,,,,,,,,,,,21,001,19,w,Bachelor Psychologie 100%,2023-01-16_15h30.41.874,00_bat_bachelor,2022.2.4,59.903138487796895,
,,,,,,,,,,,,1,0,1,0,155,0,155,0,,,,,,,155,,,0.2,2001.2482103038965,X,l,go,l,1,0.5535465181746986,,,,,,,,,,,,,,,,,21,001,19,w,Bachelor Psychologie 100%,2023-01-16_15h30.41.874,00_bat_bachelor,2022.2.4,59.903138487796895,
,,,,,,,,,,,,1,0,1,0,156,0,156,0,,,,,,,156,,,0.2,2002.1157420044874,X,None,nogo,d,0,0.3916183542642102,,,,,,,,,,,,,,,,,21,001,19,w,Bachelor Psychologie 100%,2023-01-16_15h30.41.874,00_bat_bachelor,2022.2.4,59.903138487796895,
,,,,,,,,,,,,1,0,1,0,157,0,157,0,,,,,,,157,,,0.2,2002.816282755739,Y,d,go,None,0,,2003.6170241856853,,,,,,,,,,,,,,,,21,001,19,w,Bachelor Psychologie 100%,2023-01-16_15h30.41.874,00_bat_bachelor,2022.2.4,59.903138487796895,
,,,,,,,,,,,,1,0,1,0,158,0,158,0,,,,,,,158,,,0.2,2003.8172282098276,X,l,go,None,0,,2004.6176229732737,,,,,,,,,,,,,,,,21,001,19,w,Bachelor Psychologie 100%,2023-01-16_15h30.41.874,00_bat_bachelor,2022.2.4,59.903138487796895,
,,,,,,,,,,,,1,0,1,0,159,0,159,0,,,,,,,159,,,0.2,2004.8178187549966,X,None,nogo,d,0,0.34564843715997995,,,,,,,,,,,,,,,,,21,001,19,w,Bachelor Psychologie 100%,2023-01-16_15h30.41.874,00_bat_bachelor,2022.2.4,59.903138487796895,
,,,,,,,,,,,,1,0,1,0,160,0,160,0,,,,,,,160,,,0.2,2005.4683697123037,Y,d,go,None,0,,,,,,,,,,,,,,,,,,21,001,19,w,Bachelor Psychologie 100%,2023-01-16_15h30.41.874,00_bat_bachelor,2022.2.4,59.903138487796895,
,,,,,,,,,,,,1,0,1,0,161,0,161,0,,,,,,,161,,,0.2,2006.4689340756668,X,l,go,l,1,0.4377017258593696,,,,,,,,,,,,,,,,,21,001,19,w,Bachelor Psychologie 100%,2023-01-16_15h30.41.874,00_bat_bachelor,2022.2.4,59.903138487796895,
,,,,,,,,,,,,1,0,1,0,162,0,162,0,,,,,,,162,,,0.2,2007.2196478935039,X,None,nogo,None,1,,2008.0203621719447,,,,,,,,,,,,,,,,21,001,19,w,Bachelor Psychologie 100%,2023-01-16_15h30.41.874,00_bat_bachelor,2022.2.4,59.903138487796895,
,,,,,,,,,,,,1,0,1,0,163,0,163,0,,,,,,,163,,,0.2,2008.2205710445705,Y,d,go,d,1,0.33482129089316004,,,,,,,,,,,,,,,,,21,001,19,w,Bachelor Psychologie 100%,2023-01-16_15h30.41.874,00_bat_bachelor,2022.2.4,59.903138487796895,
,,,,,,,,,,,,1,0,1,0,164,0,164,0,,,,,,,164,,,0.2,2008.8709440625717,X,l,go,l,1,0.5801898991994676,,,,,,,,,,,,,,,,,21,001,19,w,Bachelor Psychologie 100%,2023-01-16_15h30.41.874,00_bat_bachelor,2022.2.4,59.903138487796895,
,,,,,,,,,,,,1,0,1,0,165,0,165,0,,,,,,,165,,,0.2,2009.754665331071,Y,d,go,d,1,0.43155578944424633,,,,,,,,,,,,,,,,,21,001,19,w,Bachelor Psychologie 100%,2023-01-16_15h30.41.874,00_bat_bachelor,2022.2.4,59.903138487796895,
,,,,,,,,,,,,1,0,1,0,166,0,166,0,,,,,,,166,,,0.2,2010.4886271570285,Y,None,nogo,None,1,,,,,,,,,,,,,,,,,,21,001,19,w,Bachelor Psychologie 100%,2023-01-16_15h30.41.874,00_bat_bachelor,2022.2.4,59.903138487796895,
,,,,,,,,,,,,1,0,1,0,167,0,167,0,,,,,,,167,,,0.2,2011.4893340657763,X,l,go,l,1,0.2811936805337609,,,,,,,,,,,,,,,,,21,001,19,w,Bachelor Psychologie 100%,2023-01-16_15h30.41.874,00_bat_bachelor,2022.2.4,59.903138487796895,
,,,,,,,,,,,,1,0,1,0,168,0,168,0,,,,,,,168,,,0.2,2012.0733909947194,Y,d,go,d,1,0.4332100916726631,,,,,,,,,,,,,,,,,21,001,19,w,Bachelor Psychologie 100%,2023-01-16_15h30.41.874,00_bat_bachelor,2022.2.4,59.903138487796895,
