loop_instruction.thisRepN,loop_instruction.thisTrialN,loop_instruction.thisN,loop_instruction.thisIndex,loop_rsi_practice.thisRepN,loop_rsi_practice.thisTrialN,loop_rsi_practice.thisN,loop_rsi_practice.thisIndex,loop_practice.thisRepN,loop_practice.thisTrialN,loop_practice.thisN,loop_practice.thisIndex,loop_exp.thisRepN,loop_exp.thisTrialN,loop_exp.thisN,loop_exp.thisIndex,loop_trials.thisRepN,loop_trials.thisTrialN,loop_trials.thisN,loop_trials.thisIndex,map_condition,map_x_key,map_y_key,key_resp_welcome.started,key_resp_welcome.keys,key_resp_welcome.rt,index,text_empty_rsi_practice.started,text_empty_rsi_practice.stopped,rsi,stimulus.started,stimulus.stopped,stimulus,correct,trial_type,key_resp_trial.keys,key_resp_trial.corr,key_resp_trial.rt,key_resp_instruction_rsi.started,key_resp_instruction_rsi.keys,key_resp_instruction_rsi.rt,key_resp_instruction_rsi.stopped,key_resp_instruction_final.started,key_resp_instruction_final.keys,key_resp_instruction_final.rt,key_resp_break.started,key_resp_break.keys,key_resp_break.rt,key_resp_break.stopped,key_resp_end_screen.started,image_end_screen.started,key_resp_end_screen.keys,key_resp_end_screen.rt,participant,session,Alter,Geschlecht (w/m/d/andere),Studiengang,date,expName,psychopyVersion,frameRate,
,,,,0,0,0,0,0,0,0,0,,,,,,,,,0,d,l,1148.840048562386,j,29.424348601314705,0,1178.2851799829514,1179.3001787635149,1,1179.3001787635149,1180.100590981543,X,d,go,None,0,,,,,,,,,,,,,,,,,22,001,20,w,Psychologie,2023-01-16_15h30.36.290,00_bat_bachelor,2022.2.4,59.950499082230955,
,,,,0,0,0,0,1,0,1,0,,,,,,,,,,,,,,,1,1180.7009848722373,1181.7015671749832,1,1181.7015671749832,,Y,l,go,None,0,,,,,,,,,,,,,,,,,22,001,20,w,Psychologie,2023-01-16_15h30.36.290,00_bat_bachelor,2022.2.4,59.950499082230955,
,,,,0,0,0,0,2,0,2,0,,,,,,,,,,,,,,,2,1183.1026845562737,1184.103455464996,1,1184.103455464996,,X,d,go,d,1,0.6370491042616777,,,,,,,,,,,,,,,,22,001,20,w,Psychologie,2023-01-16_15h30.36.290,00_bat_bachelor,2022.2.4,59.950499082230955,
,,,,0,0,0,0,3,0,3,0,,,,,,,,,,,,,,,3,1185.4548511733883,1186.455504263984,1,1186.455504263984,,Y,l,go,l,1,0.5090064997202717,,,,,,,,,,,,,,,,22,001,20,w,Psychologie,2023-01-16_15h30.36.290,00_bat_bachelor,2022.2.4,59.950499082230955,
,,,,0,0,0,0,4,0,4,0,,,,,,,,,,,,,,,4,1187.6728467040812,1188.6736244006897,1,1188.6736244006897,,Y,None,nogo,d,0,0.22808930260362104,,,,,,,,,,,,,,,,22,001,20,w,Psychologie,2023-01-16_15h30.36.290,00_bat_bachelor,2022.2.4,59.950499082230955,
,,,,0,0,0,0,5,0,5,0,,,,,,,,,,,,,,,5,1190.008770904853,1191.009890419431,1,1191.009890419431,,X,d,go,d,1,0.5472862387541682,,,,,,,,,,,,,,,,22,001,20,w,Psychologie,2023-01-16_15h30.36.290,00_bat_bachelor,2022.2.4,59.950499082230955,
,,,,0,0,0,0,6,0,6,0,,,,,,,,,,,,,,,6,1192.2937506454764,1193.294509432977,1,1193.294509432977,,Y,l,go,l,1,0.3901124967378564,,,,,,,,,,,,,,,,22,001,20,w,Psychologie,2023-01-16_15h30.36.290,00_bat_bachelor,2022.2.4,59.950499082230955,
,,,,0,0,0,0,7,0,7,0,,,,,,,,,,,,,,,7,1194.395419444656,1195.3964356865617,1,1195.3964356865617,,X,d,go,d,1,0.5434782406082377,,,,,,,,,,,,,,,,22,001,20,w,Psychologie,2023-01-16_15h30.36.290,00_bat_bachelor,2022.2.4,59.950499082230955,
,,,,0,0,0,0,8,0,8,0,,,,,,,,,,,,,,,8,1196.6639734962373,1197.6648079201113,1,1197.6648079201113,1198.4651367441984,X,None,nogo,None,1,,,,,,,,,,,,,,,,,22,001,20,w,Psychologie,2023-01-16_15h30.36.290,00_bat_bachelor,2022.2.4,59.950499082230955,
,,,,0,0,0,0,9,0,9,0,,,,,,,,,,,,,,,9,1199.065600453061,1200.0665672404575,1,1200.0665672404575,,X,None,nogo,d,0,0.44939537707250565,,,,,,,,,,,,,,,,22,001,20,w,Psychologie,2023-01-16_15h30.36.290,00_bat_bachelor,2022.2.4,59.950499082230955,
,,,,0,0,0,0,10,0,10,0,,,,,,,,,,,,,,,10,1201.6509034420014,1202.652001623239,1,1202.652001623239,1203.4527076592785,Y,l,go,None,0,,,,,,,,,,,,,,,,,22,001,20,w,Psychologie,2023-01-16_15h30.36.290,00_bat_bachelor,2022.2.4,59.950499082230955,
,,,,0,0,0,0,11,0,11,0,,,,,,,,,,,,,,,11,1204.052717550192,1205.0537182769622,1,1205.0537182769622,,X,d,go,d,1,0.5346986084477976,,,,,,,,,,,,,,,,22,001,20,w,Psychologie,2023-01-16_15h30.36.290,00_bat_bachelor,2022.2.4,59.950499082230955,
,,,,0,0,0,0,12,0,12,0,,,,,,,,,,,,,,,12,1206.321357904817,1207.322093419556,1,1207.322093419556,1208.1224736375734,X,None,nogo,None,1,,,,,,,,,,,,,,,,,22,001,20,w,Psychologie,2023-01-16_15h30.36.290,00_bat_bachelor,2022.2.4,59.950499082230955,
,,,,0,0,0,0,13,0,13,0,,,,,,,,,,,,,,,13,1208.722943164641,1209.7239152853726,1,1209.7239152853726,,Y,l,go,l,1,0.536545395385474,,,,,,,,,,,,,,,,22,001,20,w,Psychologie,2023-01-16_15h30.36.290,00_bat_bachelor,2022.2.4,59.950499082230955,
,,,,0,0,0,0,14,0,14,0,,,,,,,,,,,,,,,14,1210.9914075193228,1211.9923723673564,1,1211.9923723673564,,X,d,go,d,1,0.460416947491467,,,,,,,,,,,,,,,,22,001,20,w,Psychologie,2023-01-16_15h30.36.290,00_bat_bachelor,2022.2.4,59.950499082230955,
,,,,1,0,1,0,0,0,0,0,,,,,,,,,,,,,,,0,1232.7245363759575,1232.9241430670954,0.2,1232.9241430670954,,X,d,go,None,0,,1213.2058253547293,j,19.49097838718444,,,,,,,,,,,,,22,001,20,w,Psychologie,2023-01-16_15h30.36.290,00_bat_bachelor,2022.2.4,59.950499082230955,
,,,,1,0,1,0,1,0,1,0,,,,,,,,,,,,,,,1,1234.3252177817049,1234.5254111391841,0.2,1234.5254111391841,,Y,l,go,l,1,0.3594089964753948,,,,,,,,,,,,,,,,22,001,20,w,Psychologie,2023-01-16_15h30.36.290,00_bat_bachelor,2022.2.4,59.950499082230955,
,,,,1,0,1,0,2,0,2,0,,,,,,,,,,,,,,,2,1235.5930052882177,1235.7927865246893,0.2,1235.7927865246893,,X,d,go,d,1,0.5005027462611906,,,,,,,,,,,,,,,,22,001,20,w,Psychologie,2023-01-16_15h30.36.290,00_bat_bachelor,2022.2.4,59.950499082230955,
,,,,1,0,1,0,3,0,3,0,,,,,,,,,,,,,,,3,1236.993943275651,1237.194035299879,0.2,1237.194035299879,,Y,l,go,l,1,0.379585956397932,,,,,,,,,,,,,,,,22,001,20,w,Psychologie,2023-01-16_15h30.36.290,00_bat_bachelor,2022.2.4,59.950499082230955,
,,,,1,0,1,0,4,0,4,0,,,,,,,,,,,,,,,4,1238.2782456832938,1238.4782087378553,0.2,1238.4782087378553,,X,d,go,d,1,0.27769946033367887,,,,,,,,,,,,,,,,22,001,20,w,Psychologie,2023-01-16_15h30.36.290,00_bat_bachelor,2022.2.4,59.950499082230955,
,,,,1,0,1,0,5,0,5,0,,,,,,,,,,,,,,,5,1239.4625321393833,1239.6627739816904,0.2,1239.6627739816904,,X,None,nogo,None,1,,,,,,,,,,,,,,,,,22,001,20,w,Psychologie,2023-01-16_15h30.36.290,00_bat_bachelor,2022.2.4,59.950499082230955,
,,,,1,0,1,0,6,0,6,0,,,,,,,,,,,,,,,6,1241.063854029635,1241.2636352661066,0.2,1241.2636352661066,,Y,l,go,l,1,0.325800770369824,,,,,,,,,,,,,,,,22,001,20,w,Psychologie,2023-01-16_15h30.36.290,00_bat_bachelor,2022.2.4,59.950499082230955,
,,,,1,0,1,0,7,0,7,0,,,,,,,,,,,,,,,7,1242.2980304009398,1242.498129212996,0.2,1242.498129212996,,X,d,go,d,1,0.3223088932572864,,,,,,,,,,,,,,,,22,001,20,w,Psychologie,2023-01-16_15h30.36.290,00_bat_bachelor,2022.2.4,59.950499082230955,
,,,,1,0,1,0,8,0,8,0,,,,,,,,,,,,,,,8,1243.53225234797,1243.7324573418591,0.2,1243.7324573418591,,Y,l,go,l,1,0.3679728711140342,,,,,,,,,,,,,,,,22,001,20,w,Psychologie,2023-01-16_15h30.36.290,00_bat_bachelor,2022.2.4,59.950499082230955,
,,,,1,0,1,0,9,0,9,0,,,,,,,,,,,,,,,9,1244.816585785884,1245.0166938100592,0.2,1245.0166938100592,,X,d,go,d,1,0.267588434915524,,,,,,,,,,,,,,,,22,001,20,w,Psychologie,2023-01-16_15h30.36.290,00_bat_bachelor,2022.2.4,59.950499082230955,
,,,,1,0,1,0,10,0,10,0,,,,,,,,,,,,,,,10,1246.0007980602095,1246.2010122661595,0.2,1246.2010122661595,,Y,l,go,l,1,0.41234230413101614,,,,,,,,,,,,,,,,22,001,20,w,Psychologie,2023-01-16_15h30.36.290,00_bat_bachelor,2022.2.4,59.950499082230955,
,,,,1,0,1,0,11,0,11,0,,,,,,,,,,,,,,,11,1247.3185166940675,1247.5187275060453,0.2,1247.5187275060453,,Y,None,nogo,None,1,,,,,,,,,,,,,,,,,22,001,20,w,Psychologie,2023-01-16_15h30.36.290,00_bat_bachelor,2022.2.4,59.950499082230955,
,,,,1,0,1,0,12,0,12,0,,,,,,,,,,,,,,,12,1248.9197144631762,1249.1199184873258,0.2,1249.1199184873258,,X,d,go,d,1,0.32555252802558243,,,,,,,,,,,,,,,,22,001,20,w,Psychologie,2023-01-16_15h30.36.290,00_bat_bachelor,2022.2.4,59.950499082230955,
,,,,1,0,1,0,13,0,13,0,,,,,,,,,,,,,,,13,1250.154072167701,1250.3538514648098,0.2,1250.3538514648098,,Y,l,go,l,1,0.4992242014268413,,,,,,,,,,,,,,,,22,001,20,w,Psychologie,2023-01-16_15h30.36.290,00_bat_bachelor,2022.2.4,59.950499082230955,
,,,,1,0,1,0,14,0,14,0,,,,,,,,,,,,,,,14,1251.5551570641692,1251.755308724707,0.2,1251.755308724707,,X,d,go,d,1,0.2655031026224606,,,,,,,,,,,,,,,,22,001,20,w,Psychologie,2023-01-16_15h30.36.290,00_bat_bachelor,2022.2.4,59.950499082230955,
,,,,,,,,,,,,,,,,,,,,,,,,,,,,,,,,,,,,,,1252.7520073929336,None,,1252.7520073929336,1252.7520073929336,space,9.399330431653652,,,,,,,,,22,001,20,w,Psychologie,2023-01-16_15h30.36.290,00_bat_bachelor,2022.2.4,59.950499082230955,
,,,,,,,,,,,,0,0,0,0,0,0,0,0,,,,,,,0,,,1,1263.1806714275735,,X,d,go,d,1,0.360541602014564,,,,,,,,,,,,,,,,22,001,20,w,Psychologie,2023-01-16_15h30.36.290,00_bat_bachelor,2022.2.4,59.950499082230955,
,,,,,,,,,,,,0,0,0,0,1,0,1,0,,,,,,,1,,,1,1264.6481339887832,,Y,l,go,l,1,0.3322720399009995,,,,,,,,,,,,,,,,22,001,20,w,Psychologie,2023-01-16_15h30.36.290,00_bat_bachelor,2022.2.4,59.950499082230955,
,,,,,,,,,,,,0,0,0,0,2,0,2,0,,,,,,,2,,,1,1266.0825686872122,,X,d,go,d,1,0.33831664302852005,,,,,,,,,,,,,,,,22,001,20,w,Psychologie,2023-01-16_15h30.36.290,00_bat_bachelor,2022.2.4,59.950499082230955,
,,,,,,,,,,,,0,0,0,0,3,0,3,0,,,,,,,3,,,1,1267.5336588927894,,X,None,nogo,d,0,0.4550530712585896,,,,,,,,,,,,,,,,22,001,20,w,Psychologie,2023-01-16_15h30.36.290,00_bat_bachelor,2022.2.4,59.950499082230955,
,,,,,,,,,,,,0,0,0,0,4,0,4,0,,,,,,,4,,,1,1269.101723587024,,Y,l,go,l,1,0.5671819866402075,,,,,,,,,,,,,,,,22,001,20,w,Psychologie,2023-01-16_15h30.36.290,00_bat_bachelor,2022.2.4,59.950499082230955,
,,,,,,,,,,,,0,0,0,0,5,0,5,0,,,,,,,5,,,1,1270.7695719905314,,X,d,go,d,1,0.4984872320201248,,,,,,,,,,,,,,,,22,001,20,w,Psychologie,2023-01-16_15h30.36.290,00_bat_bachelor,2022.2.4,59.950499082230955,
,,,,,,,,,,,,0,0,0,0,6,0,6,0,,,,,,,6,,,1,1272.3709176383563,,Y,l,go,l,1,0.4176906651700847,,,,,,,,,,,,,,,,22,001,20,w,Psychologie,2023-01-16_15h30.36.290,00_bat_bachelor,2022.2.4,59.950499082230955,
,,,,,,,,,,,,0,0,0,0,7,0,7,0,,,,,,,7,,,1,1273.9054764094763,,X,d,go,d,1,0.45171634561847895,,,,,,,,,,,,,,,,22,001,20,w,Psychologie,2023-01-16_15h30.36.290,00_bat_bachelor,2022.2.4,59.950499082230955,
,,,,,,,,,,,,0,0,0,0,8,0,8,0,,,,,,,8,,,1,1275.4733253462473,,X,None,nogo,None,1,,,,,,,,,,,,,,,,,22,001,20,w,Psychologie,2023-01-16_15h30.36.290,00_bat_bachelor,2022.2.4,59.950499082230955,
,,,,,,,,,,,,0,0,0,0,9,0,9,0,,,,,,,9,,,1,1277.2746573213954,,X,None,nogo,None,1,,,,,,,,,,,,,,,,,22,001,20,w,Psychologie,2023-01-16_15h30.36.290,00_bat_bachelor,2022.2.4,59.950499082230955,
,,,,,,,,,,,,0,0,0,0,10,0,10,0,,,,,,,10,,,1,1279.0758389935363,,Y,l,go,l,1,0.4810646950500086,,,,,,,,,,,,,,,,22,001,20,w,Psychologie,2023-01-16_15h30.36.290,00_bat_bachelor,2022.2.4,59.950499082230955,
,,,,,,,,,,,,0,0,0,0,11,0,11,0,,,,,,,11,,,1,1280.6605412554927,,X,d,go,d,1,0.3842768631875515,,,,,,,,,,,,,,,,22,001,20,w,Psychologie,2023-01-16_15h30.36.290,00_bat_bachelor,2022.2.4,59.950499082230955,
,,,,,,,,,,,,0,0,0,0,12,0,12,0,,,,,,,12,,,1,1282.1614539822913,,Y,l,go,l,1,0.5480988443596289,,,,,,,,,,,,,,,,22,001,20,w,Psychologie,2023-01-16_15h30.36.290,00_bat_bachelor,2022.2.4,59.950499082230955,
,,,,,,,,,,,,0,0,0,0,13,0,13,0,,,,,,,13,,,1,1283.8129290603683,,X,d,go,d,1,0.4809623920591548,,,,,,,,,,,,,,,,22,001,20,w,Psychologie,2023-01-16_15h30.36.290,00_bat_bachelor,2022.2.4,59.950499082230955,
,,,,,,,,,,,,0,0,0,0,14,0,14,0,,,,,,,14,,,1,1285.3973942315788,,X,None,nogo,None,1,,,,,,,,,,,,,,,,,22,001,20,w,Psychologie,2023-01-16_15h30.36.290,00_bat_bachelor,2022.2.4,59.950499082230955,
,,,,,,,,,,,,0,0,0,0,15,0,15,0,,,,,,,15,,,1,1287.1987582066795,,X,None,nogo,None,1,,,,,,,,,,,,,,,,,22,001,20,w,Psychologie,2023-01-16_15h30.36.290,00_bat_bachelor,2022.2.4,59.950499082230955,
,,,,,,,,,,,,0,0,0,0,16,0,16,0,,,,,,,16,,,1,1289.0000189090497,,Y,l,go,l,1,0.3169862291542813,,,,,,,,,,,,,,,,22,001,20,w,Psychologie,2023-01-16_15h30.36.290,00_bat_bachelor,2022.2.4,59.950499082230955,
,,,,,,,,,,,,0,0,0,0,17,0,17,0,,,,,,,17,,,1,1290.417760767159,,X,d,go,d,1,0.6440924947964959,,,,,,,,,,,,,,,,22,001,20,w,Psychologie,2023-01-16_15h30.36.290,00_bat_bachelor,2022.2.4,59.950499082230955,
,,,,,,,,,,,,0,0,0,0,18,0,18,0,,,,,,,18,,,1,1292.1692871906562,,Y,l,go,l,1,0.5243087952840142,,,,,,,,,,,,,,,,22,001,20,w,Psychologie,2023-01-16_15h30.36.290,00_bat_bachelor,2022.2.4,59.950499082230955,
,,,,,,,,,,,,0,0,0,0,19,0,19,0,,,,,,,19,,,1,1293.803624822467,,X,d,go,d,1,0.4569721006555483,,,,,,,,,,,,,,,,22,001,20,w,Psychologie,2023-01-16_15h30.36.290,00_bat_bachelor,2022.2.4,59.950499082230955,
,,,,,,,,,,,,0,0,0,0,20,0,20,0,,,,,,,20,,,1,1295.3720890317345,1296.1726840374758,X,None,nogo,None,1,,,,,,,,,,,,,,,,,22,001,20,w,Psychologie,2023-01-16_15h30.36.290,00_bat_bachelor,2022.2.4,59.950499082230955,
,,,,,,,,,,,,0,0,0,0,21,0,21,0,,,,,,,21,,,1,1297.173162097868,,Y,l,go,l,1,0.3351864627911709,,,,,,,,,,,,,,,,22,001,20,w,Psychologie,2023-01-16_15h30.36.290,00_bat_bachelor,2022.2.4,59.950499082230955,
,,,,,,,,,,,,0,0,0,0,22,0,22,0,,,,,,,22,,,1,1298.6243570306106,,X,d,go,d,1,0.4686040950473398,,,,,,,,,,,,,,,,22,001,20,w,Psychologie,2023-01-16_15h30.36.290,00_bat_bachelor,2022.2.4,59.950499082230955,
,,,,,,,,,,,,0,0,0,0,23,0,23,0,,,,,,,23,,,1,1300.2088032927131,,Y,l,go,l,1,0.6119746921467595,,,,,,,,,,,,,,,,22,001,20,w,Psychologie,2023-01-16_15h30.36.290,00_bat_bachelor,2022.2.4,59.950499082230955,
,,,,,,,,,,,,0,0,0,0,24,0,24,0,,,,,,,24,,,1,1301.926861611195,,X,d,go,None,0,,,,,,,,,,,,,,,,,22,001,20,w,Psychologie,2023-01-16_15h30.36.290,00_bat_bachelor,2022.2.4,59.950499082230955,
,,,,,,,,,,,,0,0,0,0,25,0,25,0,,,,,,,25,,,1,1303.7281140711857,,X,None,nogo,None,1,,,,,,,,,,,,,,,,,22,001,20,w,Psychologie,2023-01-16_15h30.36.290,00_bat_bachelor,2022.2.4,59.950499082230955,
,,,,,,,,,,,,0,0,0,0,26,0,26,0,,,,,,,26,,,1,1305.529436349345,,Y,l,go,l,1,0.34731542656663805,,,,,,,,,,,,,,,,22,001,20,w,Psychologie,2023-01-16_15h30.36.290,00_bat_bachelor,2022.2.4,59.950499082230955,
,,,,,,,,,,,,0,0,0,0,27,0,27,0,,,,,,,27,,,1,1306.9804067973746,,X,d,go,d,1,0.6407858296879567,,,,,,,,,,,,,,,,22,001,20,w,Psychologie,2023-01-16_15h30.36.290,00_bat_bachelor,2022.2.4,59.950499082230955,
,,,,,,,,,,,,0,0,0,0,28,0,28,0,,,,,,,28,,,1,1308.7319259481737,1309.5323808327666,X,None,nogo,None,1,,,,,,,,,,,,,,,,,22,001,20,w,Psychologie,2023-01-16_15h30.36.290,00_bat_bachelor,2022.2.4,59.950499082230955,
,,,,,,,,,,,,0,0,0,0,29,0,29,0,,,,,,,29,,,1,1310.53334616567,,Y,l,go,l,1,0.4793187564937398,,,,,,,,,,,,,,,,22,001,20,w,Psychologie,2023-01-16_15h30.36.290,00_bat_bachelor,2022.2.4,59.950499082230955,
,,,,,,,,,,,,0,0,0,0,30,0,30,0,,,,,,,30,,,1,1312.1176411550841,,X,d,go,d,1,0.5272188545204699,,,,,,,,,,,,,,,,22,001,20,w,Psychologie,2023-01-16_15h30.36.290,00_bat_bachelor,2022.2.4,59.950499082230955,
,,,,,,,,,,,,0,0,0,0,31,0,31,0,,,,,,,31,,,1,1313.7522187868017,,X,None,nogo,None,1,,,,,,,,,,,,,,,,,22,001,20,w,Psychologie,2023-01-16_15h30.36.290,00_bat_bachelor,2022.2.4,59.950499082230955,
,,,,,,,,,,,,0,0,0,0,32,0,32,0,,,,,,,32,,,1,1315.553776216344,,Y,l,go,l,1,0.5478263596305624,,,,,,,,,,,,,,,,22,001,20,w,Psychologie,2023-01-16_15h30.36.290,00_bat_bachelor,2022.2.4,59.950499082230955,
,,,,,,,,,,,,0,0,0,0,33,0,33,0,,,,,,,33,,,1,1317.205080627813,,X,d,go,None,0,,,,,,,,,,,,,,,,,22,001,20,w,Psychologie,2023-01-16_15h30.36.290,00_bat_bachelor,2022.2.4,59.950499082230955,
,,,,,,,,,,,,0,0,0,0,34,0,34,0,,,,,,,34,,,1,1319.0061823000433,,X,None,nogo,d,0,0.45457307156175375,,,,,,,,,,,,,,,,22,001,20,w,Psychologie,2023-01-16_15h30.36.290,00_bat_bachelor,2022.2.4,59.950499082230955,
,,,,,,,,,,,,0,0,0,0,35,0,35,0,,,,,,,35,,,1,1320.575125539326,,Y,l,go,l,1,0.38862449739826843,,,,,,,,,,,,,,,,22,001,20,w,Psychologie,2023-01-16_15h30.36.290,00_bat_bachelor,2022.2.4,59.950499082230955,
,,,,,,,,,,,,0,0,0,0,36,0,36,0,,,,,,,36,,,1,1322.0926549853757,,X,d,go,d,1,0.5036183811025694,,,,,,,,,,,,,,,,22,001,20,w,Psychologie,2023-01-16_15h30.36.290,00_bat_bachelor,2022.2.4,59.950499082230955,
,,,,,,,,,,,,0,0,0,0,37,0,37,0,,,,,,,37,,,1,1323.7108515341533,1324.5116395095247,X,None,nogo,None,1,,,,,,,,,,,,,,,,,22,001,20,w,Psychologie,2023-01-16_15h30.36.290,00_bat_bachelor,2022.2.4,59.950499082230955,
,,,,,,,,,,,,0,0,0,0,38,0,38,0,,,,,,,38,,,1,1325.511975994159,,Y,l,go,l,1,0.4924843258340843,,,,,,,,,,,,,,,,22,001,20,w,Psychologie,2023-01-16_15h30.36.290,00_bat_bachelor,2022.2.4,59.950499082230955,
,,,,,,,,,,,,0,0,0,0,39,0,39,0,,,,,,,39,,,1,1327.1300678157131,,X,d,go,d,1,0.442508592561353,,,,,,,,,,,,,,,,22,001,20,w,Psychologie,2023-01-16_15h30.36.290,00_bat_bachelor,2022.2.4,59.950499082230955,
,,,,,,,,,,,,0,0,0,0,40,0,40,0,,,,,,,40,,,1,1328.697776631394,,X,None,nogo,d,0,0.667367150192149,,,,,,,,,,,,,,,,22,001,20,w,Psychologie,2023-01-16_15h30.36.290,00_bat_bachelor,2022.2.4,59.950499082230955,
,,,,,,,,,,,,0,0,0,0,41,0,41,0,,,,,,,41,,,1,1330.4657588044647,,Y,l,go,l,1,0.5626961706439033,,,,,,,,,,,,,,,,22,001,20,w,Psychologie,2023-01-16_15h30.36.290,00_bat_bachelor,2022.2.4,59.950499082230955,
,,,,,,,,,,,,0,0,0,0,42,0,42,0,,,,,,,42,,,1,1332.1505715633393,1332.951158811571,X,d,go,None,0,,,,,,,,,,,,,,,,,22,001,20,w,Psychologie,2023-01-16_15h30.36.290,00_bat_bachelor,2022.2.4,59.950499082230955,
,,,,,,,,,,,,0,0,0,0,43,0,43,0,,,,,,,43,,,1,1333.951941356645,,Y,l,go,l,1,0.38857067929347977,,,,,,,,,,,,,,,,22,001,20,w,Psychologie,2023-01-16_15h30.36.290,00_bat_bachelor,2022.2.4,59.950499082230955,
,,,,,,,,,,,,0,0,0,0,44,0,44,0,,,,,,,44,,,1,1335.4695866814,1336.2703348992509,Y,None,nogo,None,1,,,,,,,,,,,,,,,,,22,001,20,w,Psychologie,2023-01-16_15h30.36.290,00_bat_bachelor,2022.2.4,59.950499082230955,
,,,,,,,,,,,,0,0,0,0,45,0,45,0,,,,,,,45,,,1,1337.2707819293137,,X,d,go,d,1,0.38130619801813737,,,,,,,,,,,,,,,,22,001,20,w,Psychologie,2023-01-16_15h30.36.290,00_bat_bachelor,2022.2.4,59.950499082230955,
,,,,,,,,,,,,0,0,0,0,46,0,46,0,,,,,,,46,,,1,1338.7715215653297,,Y,l,go,l,1,0.545813754608389,,,,,,,,,,,,,,,,22,001,20,w,Psychologie,2023-01-16_15h30.36.290,00_bat_bachelor,2022.2.4,59.950499082230955,
,,,,,,,,,,,,0,0,0,0,47,0,47,0,,,,,,,47,,,1,1340.422712522326,,X,d,go,d,1,0.3981454625609331,,,,,,,,,,,,,,,,22,001,20,w,Psychologie,2023-01-16_15h30.36.290,00_bat_bachelor,2022.2.4,59.950499082230955,
,,,,,,,,,,,,0,0,0,0,48,0,48,0,,,,,,,48,,,1,1341.924041733786,,Y,l,go,l,1,0.4655141571420245,,,,,,,,,,,,,,,,22,001,20,w,Psychologie,2023-01-16_15h30.36.290,00_bat_bachelor,2022.2.4,59.950499082230955,
,,,,,,,,,,,,0,0,0,0,49,0,49,0,,,,,,,49,,,1,1343.4918184282142,,X,d,go,d,1,0.5300663682864979,,,,,,,,,,,,,,,,22,001,20,w,Psychologie,2023-01-16_15h30.36.290,00_bat_bachelor,2022.2.4,59.950499082230955,
,,,,,,,,,,,,0,0,0,0,50,0,50,0,,,,,,,50,,,1,1345.1261109691695,,Y,l,go,l,1,0.4630685825832188,,,,,,,,,,,,,,,,22,001,20,w,Psychologie,2023-01-16_15h30.36.290,00_bat_bachelor,2022.2.4,59.950499082230955,
,,,,,,,,,,,,0,0,0,0,51,0,51,0,,,,,,,51,,,1,1346.6941494815983,,Y,None,nogo,l,0,0.6064668160397559,,,,,,,,,,,,,,,,22,001,20,w,Psychologie,2023-01-16_15h30.36.290,00_bat_bachelor,2022.2.4,59.950499082230955,
,,,,,,,,,,,,0,0,0,0,52,0,52,0,,,,,,,52,,,1,1348.4118679215317,,X,d,go,None,0,,,,,,,,,,,,,,,,,22,001,20,w,Psychologie,2023-01-16_15h30.36.290,00_bat_bachelor,2022.2.4,59.950499082230955,
,,,,,,,,,,,,0,0,0,0,53,0,53,0,,,,,,,53,,,1,1350.2136852297117,,Y,l,go,None,0,,,,,,,,,,,,,,,,,22,001,20,w,Psychologie,2023-01-16_15h30.36.290,00_bat_bachelor,2022.2.4,59.950499082230955,
,,,,,,,,,,,,0,0,0,0,54,0,54,0,,,,,,,54,,,1,1352.0150627805851,,X,d,go,d,1,0.5992066984181292,,,,,,,,,,,,,,,,22,001,20,w,Psychologie,2023-01-16_15h30.36.290,00_bat_bachelor,2022.2.4,59.950499082230955,
,,,,,,,,,,,,0,0,0,0,55,0,55,0,,,,,,,55,,,1,1353.7162939557456,,Y,l,go,l,1,0.3367956741130911,,,,,,,,,,,,,,,,22,001,20,w,Psychologie,2023-01-16_15h30.36.290,00_bat_bachelor,2022.2.4,59.950499082230955,
,,,,,,,,,,,,0,0,0,0,56,0,56,0,,,,,,,56,,,1,1355.167155312898,,X,d,go,d,1,0.3904722541337833,,,,,,,,,,,,,,,,22,001,20,w,Psychologie,2023-01-16_15h30.36.290,00_bat_bachelor,2022.2.4,59.950499082230955,
,,,,,,,,,,,,0,0,0,0,57,0,57,0,,,,,,,57,,,1,1356.668234342651,,Y,l,go,l,1,0.5045488048926927,,,,,,,,,,,,,,,,22,001,20,w,Psychologie,2023-01-16_15h30.36.290,00_bat_bachelor,2022.2.4,59.950499082230955,
,,,,,,,,,,,,0,0,0,0,58,0,58,0,,,,,,,58,,,1,1358.2861404673313,,X,d,go,d,1,0.3579583305399865,,,,,,,,,,,,,,,,22,001,20,w,Psychologie,2023-01-16_15h30.36.290,00_bat_bachelor,2022.2.4,59.950499082230955,
,,,,,,,,,,,,0,0,0,0,59,0,59,0,,,,,,,59,,,1,1359.754257573688,,Y,l,go,None,0,,,,,,,,,,,,,,,,,22,001,20,w,Psychologie,2023-01-16_15h30.36.290,00_bat_bachelor,2022.2.4,59.950499082230955,
,,,,,,,,,,,,0,0,0,0,60,0,60,0,,,,,,,60,,,1,1361.555556094274,,X,d,go,d,1,0.3529794238274917,,,,,,,,,,,,,,,,22,001,20,w,Psychologie,2023-01-16_15h30.36.290,00_bat_bachelor,2022.2.4,59.950499082230955,
,,,,,,,,,,,,0,0,0,0,61,0,61,0,,,,,,,61,,,1,1363.0231379281613,1363.8236383885378,X,None,nogo,None,1,,,,,,,,,,,,,,,,,22,001,20,w,Psychologie,2023-01-16_15h30.36.290,00_bat_bachelor,2022.2.4,59.950499082230955,
,,,,,,,,,,,,0,0,0,0,62,0,62,0,,,,,,,62,,,1,1364.8245348729542,,X,None,nogo,None,1,,,,,,,,,,,,,,,,,22,001,20,w,Psychologie,2023-01-16_15h30.36.290,00_bat_bachelor,2022.2.4,59.950499082230955,
,,,,,,,,,,,,0,0,0,0,63,0,63,0,,,,,,,63,,,1,1366.6260249085608,,Y,l,go,l,1,0.3551656045601703,,,,,,,,,,,,,,,,22,001,20,w,Psychologie,2023-01-16_15h30.36.290,00_bat_bachelor,2022.2.4,59.950499082230955,
,,,,,,,,,,,,0,0,0,0,64,0,64,0,,,,,,,64,,,1,1368.0937284394167,,X,d,go,d,1,0.3589280270389281,,,,,,,,,,,,,,,,22,001,20,w,Psychologie,2023-01-16_15h30.36.290,00_bat_bachelor,2022.2.4,59.950499082230955,
,,,,,,,,,,,,0,0,0,0,65,0,65,0,,,,,,,65,,,1,1369.5613563338993,,Y,l,go,l,1,0.45899003912927583,,,,,,,,,,,,,,,,22,001,20,w,Psychologie,2023-01-16_15h30.36.290,00_bat_bachelor,2022.2.4,59.950499082230955,
,,,,,,,,,,,,0,0,0,0,66,0,66,0,,,,,,,66,,,1,1371.1293182403315,,X,d,go,d,1,0.42711708485148847,,,,,,,,,,,,,,,,22,001,20,w,Psychologie,2023-01-16_15h30.36.290,00_bat_bachelor,2022.2.4,59.950499082230955,
,,,,,,,,,,,,0,0,0,0,67,0,67,0,,,,,,,67,,,1,1372.6638028296875,,X,None,nogo,None,1,,,,,,,,,,,,,,,,,22,001,20,w,Psychologie,2023-01-16_15h30.36.290,00_bat_bachelor,2022.2.4,59.950499082230955,
,,,,,,,,,,,,0,0,0,0,68,0,68,0,,,,,,,68,,,1,1374.4651634108159,,Y,l,go,d,0,0.48289742140332237,,,,,,,,,,,,,,,,22,001,20,w,Psychologie,2023-01-16_15h30.36.290,00_bat_bachelor,2022.2.4,59.950499082230955,
,,,,,,,,,,,,0,0,0,0,69,0,69,0,,,,,,,69,,,1,1376.049834642501,,X,d,go,d,1,0.6111431774916127,,,,,,,,,,,,,,,,22,001,20,w,Psychologie,2023-01-16_15h30.36.290,00_bat_bachelor,2022.2.4,59.950499082230955,
,,,,,,,,,,,,0,0,0,0,70,0,70,0,,,,,,,70,,,1,1377.767859506479,1378.5682634820696,X,None,nogo,None,1,,,,,,,,,,,,,,,,,22,001,20,w,Psychologie,2023-01-16_15h30.36.290,00_bat_bachelor,2022.2.4,59.950499082230955,
,,,,,,,,,,,,0,0,0,0,71,0,71,0,,,,,,,71,,,1,1379.5691347543616,,Y,l,go,l,1,0.3243491346947849,,,,,,,,,,,,,,,,22,001,20,w,Psychologie,2023-01-16_15h30.36.290,00_bat_bachelor,2022.2.4,59.950499082230955,
,,,,,,,,,,,,0,0,0,0,72,0,72,0,,,,,,,72,,,1,1381.0036499376292,,X,d,go,d,1,0.424237571132835,,,,,,,,,,,,,,,,22,001,20,w,Psychologie,2023-01-16_15h30.36.290,00_bat_bachelor,2022.2.4,59.950499082230955,
,,,,,,,,,,,,0,0,0,0,73,0,73,0,,,,,,,73,,,1,1382.5381665269379,,X,None,nogo,None,1,,,,,,,,,,,,,,,,,22,001,20,w,Psychologie,2023-01-16_15h30.36.290,00_bat_bachelor,2022.2.4,59.950499082230955,
,,,,,,,,,,,,0,0,0,0,74,0,74,0,,,,,,,74,,,1,1384.3393210475915,,Y,l,go,l,1,0.43352386966580525,,,,,,,,,,,,,,,,22,001,20,w,Psychologie,2023-01-16_15h30.36.290,00_bat_bachelor,2022.2.4,59.950499082230955,
,,,,,,,,,,,,0,0,0,0,75,0,75,0,,,,,,,75,,,1,1385.874209030706,,X,d,go,d,1,0.37084365758346394,,,,,,,,,,,,,,,,22,001,20,w,Psychologie,2023-01-16_15h30.36.290,00_bat_bachelor,2022.2.4,59.950499082230955,
,,,,,,,,,,,,0,0,0,0,76,0,76,0,,,,,,,76,,,1,1387.3585176443448,,Y,l,go,l,1,0.5339209118392318,,,,,,,,,,,,,,,,22,001,20,w,Psychologie,2023-01-16_15h30.36.290,00_bat_bachelor,2022.2.4,59.950499082230955,
,,,,,,,,,,,,0,0,0,0,77,0,77,0,,,,,,,77,,,1,1388.993316851731,,X,d,go,d,1,0.5476173900533468,,,,,,,,,,,,,,,,22,001,20,w,Psychologie,2023-01-16_15h30.36.290,00_bat_bachelor,2022.2.4,59.950499082230955,
,,,,,,,,,,,,0,0,0,0,78,0,78,0,,,,,,,78,,,1,1390.6443676875788,,Y,l,go,l,1,0.6244910497334786,,,,,,,,,,,,,,,,22,001,20,w,Psychologie,2023-01-16_15h30.36.290,00_bat_bachelor,2022.2.4,59.950499082230955,
,,,,,,,,,,,,0,0,0,0,79,0,79,0,,,,,,,79,,,1,1392.3788104829728,,X,d,go,d,1,0.281563216005452,,,,,,,,,,,,,,,,22,001,20,w,Psychologie,2023-01-16_15h30.36.290,00_bat_bachelor,2022.2.4,59.950499082230955,
,,,,,,,,,,,,0,0,0,0,80,0,80,0,,,,,,,80,,,1,1393.7635579328053,,Y,l,go,l,1,0.32198356004664674,,,,,,,,,,,,,,,,22,001,20,w,Psychologie,2023-01-16_15h30.36.290,00_bat_bachelor,2022.2.4,59.950499082230955,
,,,,,,,,,,,,0,0,0,0,81,0,81,0,,,,,,,81,,,1,1395.1978568737395,,X,d,go,d,1,0.247164202388376,,,,,,,,,,,,,,,,22,001,20,w,Psychologie,2023-01-16_15h30.36.290,00_bat_bachelor,2022.2.4,59.950499082230955,
,,,,,,,,,,,,0,0,0,0,82,0,82,0,,,,,,,82,,,1,1396.548649915785,1397.3495140123414,X,None,nogo,None,1,,,,,,,,,,,,,,,,,22,001,20,w,Psychologie,2023-01-16_15h30.36.290,00_bat_bachelor,2022.2.4,59.950499082230955,
,,,,,,,,,,,,0,0,0,0,83,0,83,0,,,,,,,83,,,1,1398.350336314994,,Y,l,go,l,1,0.40681697346735746,,,,,,,,,,,,,,,,22,001,20,w,Psychologie,2023-01-16_15h30.36.290,00_bat_bachelor,2022.2.4,59.950499082230955,
,,,,,,,,,,,,0,0,0,0,84,0,84,0,,,,,,,84,,,1,1399.868022367009,,X,d,go,d,1,0.36126984405564144,,,,,,,,,,,,,,,,22,001,20,w,Psychologie,2023-01-16_15h30.36.290,00_bat_bachelor,2022.2.4,59.950499082230955,
,,,,,,,,,,,,0,0,0,0,85,0,85,0,,,,,,,85,,,1,1401.3356386251398,,Y,l,go,l,1,0.38188704615458846,,,,,,,,,,,,,,,,22,001,20,w,Psychologie,2023-01-16_15h30.36.290,00_bat_bachelor,2022.2.4,59.950499082230955,
,,,,,,,,,,,,0,0,0,0,86,0,86,0,,,,,,,86,,,1,1402.8202308750479,,X,d,go,d,1,0.3039743566769175,,,,,,,,,,,,,,,,22,001,20,w,Psychologie,2023-01-16_15h30.36.290,00_bat_bachelor,2022.2.4,59.950499082230955,
,,,,,,,,,,,,0,0,0,0,87,0,87,0,,,,,,,87,,,1,1404.2380789148738,1405.0384062844096,X,None,nogo,None,1,,,,,,,,,,,,,,,,,22,001,20,w,Psychologie,2023-01-16_15h30.36.290,00_bat_bachelor,2022.2.4,59.950499082230955,
,,,,,,,,,,,,0,0,0,0,88,0,88,0,,,,,,,88,,,1,1406.0393842233461,,Y,l,go,l,1,0.43045041657751426,,,,,,,,,,,,,,,,22,001,20,w,Psychologie,2023-01-16_15h30.36.290,00_bat_bachelor,2022.2.4,59.950499082230955,
,,,,,,,,,,,,0,0,0,0,89,0,89,0,,,,,,,89,,,1,1407.5740103883436,,X,d,go,d,1,0.3830792880617082,,,,,,,,,,,,,,,,22,001,20,w,Psychologie,2023-01-16_15h30.36.290,00_bat_bachelor,2022.2.4,59.950499082230955,
,,,,,,,,,,,,0,0,0,0,90,0,90,0,,,,,,,90,,,1,1409.0582593656727,1409.8589818865294,Y,l,go,None,0,,,,,,,,,,,,,,,,,22,001,20,w,Psychologie,2023-01-16_15h30.36.290,00_bat_bachelor,2022.2.4,59.950499082230955,
,,,,,,,,,,,,0,0,0,0,91,0,91,0,,,,,,,91,,,1,1410.859841037658,,Y,None,nogo,l,0,0.6322704399353825,,,,,,,,,,,,,,,,22,001,20,w,Psychologie,2023-01-16_15h30.36.290,00_bat_bachelor,2022.2.4,59.950499082230955,
,,,,,,,,,,,,0,0,0,0,92,0,92,0,,,,,,,92,,,1,1412.5944520754274,,X,d,go,d,1,0.4668867625296116,,,,,,,,,,,,,,,,22,001,20,w,Psychologie,2023-01-16_15h30.36.290,00_bat_bachelor,2022.2.4,59.950499082230955,
,,,,,,,,,,,,0,0,0,0,93,0,93,0,,,,,,,93,,,1,1414.1621938607423,1414.9626977150328,Y,l,go,None,0,,,,,,,,,,,,,,,,,22,001,20,w,Psychologie,2023-01-16_15h30.36.290,00_bat_bachelor,2022.2.4,59.950499082230955,
,,,,,,,,,,,,0,0,0,0,94,0,94,0,,,,,,,94,,,1,1415.963763896376,,X,d,go,d,1,0.6174413561820984,,,,,,,,,,,,,,,,22,001,20,w,Psychologie,2023-01-16_15h30.36.290,00_bat_bachelor,2022.2.4,59.950499082230955,
,,,,,,,,,,,,0,0,0,0,95,0,95,0,,,,,,,95,,,1,1417.6816374876653,,Y,l,go,l,1,0.29223230172647163,,,,,,,,,,,,,,,,22,001,20,w,Psychologie,2023-01-16_15h30.36.290,00_bat_bachelor,2022.2.4,59.950499082230955,
,,,,,,,,,,,,0,0,0,0,96,0,96,0,,,,,,,96,,,1,1419.0824886872433,,X,d,go,d,1,0.6023106968495995,,,,,,,,,,,,,,,,22,001,20,w,Psychologie,2023-01-16_15h30.36.290,00_bat_bachelor,2022.2.4,59.950499082230955,
,,,,,,,,,,,,0,0,0,0,97,0,97,0,,,,,,,97,,,1,1420.8004020361695,,X,None,nogo,None,1,,,,,,,,,,,,,,,,,22,001,20,w,Psychologie,2023-01-16_15h30.36.290,00_bat_bachelor,2022.2.4,59.950499082230955,
,,,,,,,,,,,,0,0,0,0,98,0,98,0,,,,,,,98,,,1,1422.6023681928054,,Y,l,go,l,1,0.44316556194098666,,,,,,,,,,,,,,,,22,001,20,w,Psychologie,2023-01-16_15h30.36.290,00_bat_bachelor,2022.2.4,59.950499082230955,
,,,,,,,,,,,,0,0,0,0,99,0,99,0,,,,,,,99,,,1,1424.1533851377317,,X,d,go,d,1,0.47528433421393856,,,,,,,,,,,,,,,,22,001,20,w,Psychologie,2023-01-16_15h30.36.290,00_bat_bachelor,2022.2.4,59.950499082230955,
,,,,,,,,,,,,0,0,0,0,100,0,100,0,,,,,,,100,,,1,1425.738141217851,1426.538670769136,X,None,nogo,None,1,,,,,,,,,,,,,,,,,22,001,20,w,Psychologie,2023-01-16_15h30.36.290,00_bat_bachelor,2022.2.4,59.950499082230955,
,,,,,,,,,,,,0,0,0,0,101,0,101,0,,,,,,,101,,,1,1427.5392967081862,,Y,l,go,l,1,0.369268870446831,,,,,,,,,,,,,,,,22,001,20,w,Psychologie,2023-01-16_15h30.36.290,00_bat_bachelor,2022.2.4,59.950499082230955,
,,,,,,,,,,,,0,0,0,0,102,0,102,0,,,,,,,102,,,1,1429.0237885945244,,X,d,go,d,1,0.5651761694462039,,,,,,,,,,,,,,,,22,001,20,w,Psychologie,2023-01-16_15h30.36.290,00_bat_bachelor,2022.2.4,59.950499082230955,
,,,,,,,,,,,,0,0,0,0,103,0,103,0,,,,,,,103,,,1,1430.6918498463929,,Y,l,go,l,1,0.6412328598671593,,,,,,,,,,,,,,,,22,001,20,w,Psychologie,2023-01-16_15h30.36.290,00_bat_bachelor,2022.2.4,59.950499082230955,
,,,,,,,,,,,,0,0,0,0,104,0,104,0,,,,,,,104,,,1,1432.4432104517473,,X,d,go,d,1,0.4727975475252606,,,,,,,,,,,,,,,,22,001,20,w,Psychologie,2023-01-16_15h30.36.290,00_bat_bachelor,2022.2.4,59.950499082230955,
,,,,,,,,,,,,0,0,0,0,105,0,105,0,,,,,,,105,,,1,1434.0275631381664,,Y,l,go,l,1,0.5206423728377558,,,,,,,,,,,,,,,,22,001,20,w,Psychologie,2023-01-16_15h30.36.290,00_bat_bachelor,2022.2.4,59.950499082230955,
,,,,,,,,,,,,0,0,0,0,106,0,106,0,,,,,,,106,,,1,1435.6622876788606,1436.4629379573744,Y,None,nogo,None,1,,,,,,,,,,,,,,,,,22,001,20,w,Psychologie,2023-01-16_15h30.36.290,00_bat_bachelor,2022.2.4,59.950499082230955,
,,,,,,,,,,,,0,0,0,0,107,0,107,0,,,,,,,107,,,1,1437.4631401390652,,X,d,go,d,1,0.5250011585885659,,,,,,,,,,,,,,,,22,001,20,w,Psychologie,2023-01-16_15h30.36.290,00_bat_bachelor,2022.2.4,59.950499082230955,
,,,,,,,,,,,,0,0,0,0,108,0,108,0,,,,,,,108,,,1,1439.114626853494,,Y,l,go,l,1,0.42580847942736,,,,,,,,,,,,,,,,22,001,20,w,Psychologie,2023-01-16_15h30.36.290,00_bat_bachelor,2022.2.4,59.950499082230955,
,,,,,,,,,,,,0,0,0,0,109,0,109,0,,,,,,,109,,,1,1440.648894715705,,Y,None,nogo,None,1,,,,,,,,,,,,,,,,,22,001,20,w,Psychologie,2023-01-16_15h30.36.290,00_bat_bachelor,2022.2.4,59.950499082230955,
,,,,,,,,,,,,0,0,0,0,110,0,110,0,,,,,,,110,,,1,1442.4505796603044,,X,d,go,d,1,0.22777948452858254,,,,,,,,,,,,,,,,22,001,20,w,Psychologie,2023-01-16_15h30.36.290,00_bat_bachelor,2022.2.4,59.950499082230955,
,,,,,,,,,,,,0,0,0,0,111,0,111,0,,,,,,,111,,,1,1443.7846129529062,,Y,l,go,l,1,0.3162031992105767,,,,,,,,,,,,,,,,22,001,20,w,Psychologie,2023-01-16_15h30.36.290,00_bat_bachelor,2022.2.4,59.950499082230955,
,,,,,,,,,,,,0,0,0,0,112,0,112,0,,,,,,,112,,,1,1445.2023688716,,X,d,go,d,1,0.6267169880447909,,,,,,,,,,,,,,,,22,001,20,w,Psychologie,2023-01-16_15h30.36.290,00_bat_bachelor,2022.2.4,59.950499082230955,
,,,,,,,,,,,,0,0,0,0,113,0,113,0,,,,,,,113,,,1,1446.9372140910127,,Y,l,go,l,1,0.28361412411322817,,,,,,,,,,,,,,,,22,001,20,w,Psychologie,2023-01-16_15h30.36.290,00_bat_bachelor,2022.2.4,59.950499082230955,
,,,,,,,,,,,,0,0,0,0,114,0,114,0,,,,,,,114,,,1,1448.3215901470976,,Y,None,nogo,d,0,0.2432917194091715,,,,,,,,,,,,,,,,22,001,20,w,Psychologie,2023-01-16_15h30.36.290,00_bat_bachelor,2022.2.4,59.950499082230955,
,,,,,,,,,,,,0,0,0,0,115,0,115,0,,,,,,,115,,,1,1449.672392886132,,X,d,go,d,1,0.4918763261521235,,,,,,,,,,,,,,,,22,001,20,w,Psychologie,2023-01-16_15h30.36.290,00_bat_bachelor,2022.2.4,59.950499082230955,
,,,,,,,,,,,,0,0,0,0,116,0,116,0,,,,,,,116,,,1,1451.273901442939,,Y,l,go,l,1,0.586629249912221,,,,,,,,,,,,,,,,22,001,20,w,Psychologie,2023-01-16_15h30.36.290,00_bat_bachelor,2022.2.4,59.950499082230955,
,,,,,,,,,,,,0,0,0,0,117,0,117,0,,,,,,,117,,,1,1452.9751752847806,,Y,None,nogo,None,1,,,,,,,,,,,,,,,,,22,001,20,w,Psychologie,2023-01-16_15h30.36.290,00_bat_bachelor,2022.2.4,59.950499082230955,
,,,,,,,,,,,,0,0,0,0,118,0,118,0,,,,,,,118,,,1,1454.7763118660077,,X,d,go,d,1,0.28367763926507905,,,,,,,,,,,,,,,,22,001,20,w,Psychologie,2023-01-16_15h30.36.290,00_bat_bachelor,2022.2.4,59.950499082230955,
,,,,,,,,,,,,0,0,0,0,119,0,119,0,,,,,,,119,,,1,1456.160914831038,,Y,l,go,l,1,0.34108173265121877,,,,,,,,,,,,,,,,22,001,20,w,Psychologie,2023-01-16_15h30.36.290,00_bat_bachelor,2022.2.4,59.950499082230955,
,,,,,,,,,,,,0,0,0,0,120,0,120,0,,,,,,,120,,,1,1457.61207049113,,X,d,go,d,1,0.665400605648756,,,,,,,,,,,,,,,,22,001,20,w,Psychologie,2023-01-16_15h30.36.290,00_bat_bachelor,2022.2.4,59.950499082230955,
,,,,,,,,,,,,0,0,0,0,121,0,121,0,,,,,,,121,,,1,1459.3800036945613,,X,None,nogo,d,0,0.5937783373519778,,,,,,,,,,,,,,,,22,001,20,w,Psychologie,2023-01-16_15h30.36.290,00_bat_bachelor,2022.2.4,59.950499082230955,
,,,,,,,,,,,,0,0,0,0,122,0,122,0,,,,,,,122,,,1,1461.0813706272165,,X,None,nogo,d,0,0.618928870651871,,,,,,,,,,,,,,,,22,001,20,w,Psychologie,2023-01-16_15h30.36.290,00_bat_bachelor,2022.2.4,59.950499082230955,
,,,,,,,,,,,,0,0,0,0,123,0,123,0,,,,,,,123,,,1,1462.8157983923447,,Y,l,go,l,1,0.5648673211107962,,,,,,,,,,,,,,,,22,001,20,w,Psychologie,2023-01-16_15h30.36.290,00_bat_bachelor,2022.2.4,59.950499082230955,
,,,,,,,,,,,,0,0,0,0,124,0,124,0,,,,,,,124,,,1,1464.4837161290925,,X,d,go,None,0,,,,,,,,,,,,,,,,,22,001,20,w,Psychologie,2023-01-16_15h30.36.290,00_bat_bachelor,2022.2.4,59.950499082230955,
,,,,,,,,,,,,0,0,0,0,125,0,125,0,,,,,,,125,,,1,1466.2850951345172,,X,None,nogo,None,1,,,,,,,,,,,,,,,,,22,001,20,w,Psychologie,2023-01-16_15h30.36.290,00_bat_bachelor,2022.2.4,59.950499082230955,
,,,,,,,,,,,,0,0,0,0,126,0,126,0,,,,,,,126,,,1,1468.0866889276658,,Y,l,go,l,1,0.5107248018612154,,,,,,,,,,,,,,,,22,001,20,w,Psychologie,2023-01-16_15h30.36.290,00_bat_bachelor,2022.2.4,59.950499082230955,
,,,,,,,,,,,,0,0,0,0,127,0,127,0,,,,,,,127,,,1,1469.7045548098977,1470.505240967148,X,d,go,None,0,,,,,,,,,,,,,,,,,22,001,20,w,Psychologie,2023-01-16_15h30.36.290,00_bat_bachelor,2022.2.4,59.950499082230955,
,,,,,,,,,,,,0,0,0,0,128,0,128,0,,,,,,,128,,,1,1471.505704482086,,Y,l,go,None,0,,,,,,,,,,,,,,,,,22,001,20,w,Psychologie,2023-01-16_15h30.36.290,00_bat_bachelor,2022.2.4,59.950499082230955,
,,,,,,,,,,,,0,0,0,0,129,0,129,0,,,,,,,129,,,1,1473.3073259115918,,X,d,go,d,1,0.37746619986137375,,,,,,,,,,,,,,,,22,001,20,w,Psychologie,2023-01-16_15h30.36.290,00_bat_bachelor,2022.2.4,59.950499082230955,
,,,,,,,,,,,,0,0,0,0,130,0,130,0,,,,,,,130,,,1,1474.7915763434721,,Y,l,go,l,1,0.3970972206443548,,,,,,,,,,,,,,,,22,001,20,w,Psychologie,2023-01-16_15h30.36.290,00_bat_bachelor,2022.2.4,59.950499082230955,
,,,,,,,,,,,,0,0,0,0,131,0,131,0,,,,,,,131,,,1,1476.292918645835,,X,d,go,d,1,0.6390515275415964,,,,,,,,,,,,,,,,22,001,20,w,Psychologie,2023-01-16_15h30.36.290,00_bat_bachelor,2022.2.4,59.950499082230955,
,,,,,,,,,,,,0,0,0,0,132,0,132,0,,,,,,,132,,,1,1478.0442302816082,,X,None,nogo,None,1,,,,,,,,,,,,,,,,,22,001,20,w,Psychologie,2023-01-16_15h30.36.290,00_bat_bachelor,2022.2.4,59.950499082230955,
,,,,,,,,,,,,0,0,0,0,133,0,133,0,,,,,,,133,,,1,1479.845384317392,,X,None,nogo,None,1,,,,,,,,,,,,,,,,,22,001,20,w,Psychologie,2023-01-16_15h30.36.290,00_bat_bachelor,2022.2.4,59.950499082230955,
,,,,,,,,,,,,0,0,0,0,134,0,134,0,,,,,,,134,,,1,1481.64696841361,,Y,l,go,l,1,0.34140609606401995,,,,,,,,,,,,,,,,22,001,20,w,Psychologie,2023-01-16_15h30.36.290,00_bat_bachelor,2022.2.4,59.950499082230955,
,,,,,,,,,,,,0,0,0,0,135,0,135,0,,,,,,,135,,,1,1483.0979180131108,,X,d,go,d,1,0.3314448888413608,,,,,,,,,,,,,,,,22,001,20,w,Psychologie,2023-01-16_15h30.36.290,00_bat_bachelor,2022.2.4,59.950499082230955,
,,,,,,,,,,,,0,0,0,0,136,0,136,0,,,,,,,136,,,1,1484.532614044787,,Y,l,go,l,1,0.43152532511157915,,,,,,,,,,,,,,,,22,001,20,w,Psychologie,2023-01-16_15h30.36.290,00_bat_bachelor,2022.2.4,59.950499082230955,
,,,,,,,,,,,,0,0,0,0,137,0,137,0,,,,,,,137,,,1,1486.067076331121,,X,d,go,d,1,0.2899695149390027,,,,,,,,,,,,,,,,22,001,20,w,Psychologie,2023-01-16_15h30.36.290,00_bat_bachelor,2022.2.4,59.950499082230955,
,,,,,,,,,,,,0,0,0,0,138,0,138,0,,,,,,,138,,,1,1487.4681292275782,,X,None,nogo,None,1,,,,,,,,,,,,,,,,,22,001,20,w,Psychologie,2023-01-16_15h30.36.290,00_bat_bachelor,2022.2.4,59.950499082230955,
,,,,,,,,,,,,0,0,0,0,139,0,139,0,,,,,,,139,,,1,1489.2695155057008,,Y,l,go,l,1,0.5920915502938442,,,,,,,,,,,,,,,,22,001,20,w,Psychologie,2023-01-16_15h30.36.290,00_bat_bachelor,2022.2.4,59.950499082230955,
,,,,,,,,,,,,0,0,0,0,140,0,140,0,,,,,,,140,,,1,1490.9707651050994,,X,d,go,d,1,0.3297707078163512,,,,,,,,,,,,,,,,22,001,20,w,Psychologie,2023-01-16_15h30.36.290,00_bat_bachelor,2022.2.4,59.950499082230955,
,,,,,,,,,,,,0,0,0,0,141,0,141,0,,,,,,,141,,,1,1492.4052555610542,,Y,l,go,l,1,0.2880262432154268,,,,,,,,,,,,,,,,22,001,20,w,Psychologie,2023-01-16_15h30.36.290,00_bat_bachelor,2022.2.4,59.950499082230955,
,,,,,,,,,,,,0,0,0,0,142,0,142,0,,,,,,,142,,,1,1493.80608494248,,Y,None,nogo,None,1,,,,,,,,,,,,,,,,,22,001,20,w,Psychologie,2023-01-16_15h30.36.290,00_bat_bachelor,2022.2.4,59.950499082230955,
,,,,,,,,,,,,0,0,0,0,143,0,143,0,,,,,,,143,,,1,1495.6076612811303,,Y,None,nogo,d,0,0.252938260207884,,,,,,,,,,,,,,,,22,001,20,w,Psychologie,2023-01-16_15h30.36.290,00_bat_bachelor,2022.2.4,59.950499082230955,
,,,,,,,,,,,,0,0,0,0,144,0,144,0,,,,,,,144,,,1,1496.975442920986,,X,d,go,d,1,0.35740414896281436,,,,,,,,,,,,,,,,22,001,20,w,Psychologie,2023-01-16_15h30.36.290,00_bat_bachelor,2022.2.4,59.950499082230955,
,,,,,,,,,,,,0,0,0,0,145,0,145,0,,,,,,,145,,,1,1498.4431508154375,1499.2437201242428,Y,l,go,None,0,,,,,,,,,,,,,,,,,22,001,20,w,Psychologie,2023-01-16_15h30.36.290,00_bat_bachelor,2022.2.4,59.950499082230955,
,,,,,,,,,,,,0,0,0,0,146,0,146,0,,,,,,,146,,,1,1500.2444881238625,,Y,None,nogo,None,1,,,,,,,,,,,,,,,,,22,001,20,w,Psychologie,2023-01-16_15h30.36.290,00_bat_bachelor,2022.2.4,59.950499082230955,
,,,,,,,,,,,,0,0,0,0,147,0,147,0,,,,,,,147,,,1,1502.0459262807854,,X,d,go,d,1,0.3435971253202297,,,,,,,,,,,,,,,,22,001,20,w,Psychologie,2023-01-16_15h30.36.290,00_bat_bachelor,2022.2.4,59.950499082230955,
,,,,,,,,,,,,0,0,0,0,148,0,148,0,,,,,,,148,,,1,1503.4967939409544,,Y,l,go,l,1,0.523861765221227,,,,,,,,,,,,,,,,22,001,20,w,Psychologie,2023-01-16_15h30.36.290,00_bat_bachelor,2022.2.4,59.950499082230955,
,,,,,,,,,,,,0,0,0,0,149,0,149,0,,,,,,,149,,,1,1505.1315839362214,,X,d,go,d,1,0.3454191850614734,,,,,,,,,,,,,,,,22,001,20,w,Psychologie,2023-01-16_15h30.36.290,00_bat_bachelor,2022.2.4,59.950499082230955,
,,,,,,,,,,,,0,0,0,0,150,0,150,0,,,,,,,150,,,1,1506.5827168083633,,X,None,nogo,None,1,,,,,,,,,,,,,,,,,22,001,20,w,Psychologie,2023-01-16_15h30.36.290,00_bat_bachelor,2022.2.4,59.950499082230955,
,,,,,,,,,,,,0,0,0,0,151,0,151,0,,,,,,,151,,,1,1508.384051207744,,Y,l,go,l,1,0.37220656604040414,,,,,,,,,,,,,,,,22,001,20,w,Psychologie,2023-01-16_15h30.36.290,00_bat_bachelor,2022.2.4,59.950499082230955,
,,,,,,,,,,,,0,0,0,0,152,0,152,0,,,,,,,152,,,1,1509.8684863668168,,X,d,go,d,1,0.26552540564443916,,,,,,,,,,,,,,,,22,001,20,w,Psychologie,2023-01-16_15h30.36.290,00_bat_bachelor,2022.2.4,59.950499082230955,
,,,,,,,,,,,,0,0,0,0,153,0,153,0,,,,,,,153,,,1,1511.2362869157223,,Y,l,go,l,1,0.4162138174287975,,,,,,,,,,,,,,,,22,001,20,w,Psychologie,2023-01-16_15h30.36.290,00_bat_bachelor,2022.2.4,59.950499082230955,
,,,,,,,,,,,,0,0,0,0,154,0,154,0,,,,,,,154,,,1,1512.7540427859058,,Y,None,nogo,None,1,,,,,,,,,,,,,,,,,22,001,20,w,Psychologie,2023-01-16_15h30.36.290,00_bat_bachelor,2022.2.4,59.950499082230955,
,,,,,,,,,,,,0,0,0,0,155,0,155,0,,,,,,,155,,,1,1514.5551861550775,,X,d,go,d,1,0.26484079990768805,,,,,,,,,,,,,,,,22,001,20,w,Psychologie,2023-01-16_15h30.36.290,00_bat_bachelor,2022.2.4,59.950499082230955,
,,,,,,,,,,,,0,0,0,0,156,0,156,0,,,,,,,156,,,1,1515.9230317948968,,Y,l,go,l,1,0.5462622391642071,,,,,,,,,,,,,,,,22,001,20,w,Psychologie,2023-01-16_15h30.36.290,00_bat_bachelor,2022.2.4,59.950499082230955,
,,,,,,,,,,,,0,0,0,0,157,0,157,0,,,,,,,157,,,1,1517.5743924487615,,Y,None,nogo,None,1,,,,,,,,,,,,,,,,,22,001,20,w,Psychologie,2023-01-16_15h30.36.290,00_bat_bachelor,2022.2.4,59.950499082230955,
,,,,,,,,,,,,0,0,0,0,158,0,158,0,,,,,,,158,,,1,1519.375697272364,,X,d,go,d,1,0.30937944492325187,,,,,,,,,,,,,,,,22,001,20,w,Psychologie,2023-01-16_15h30.36.290,00_bat_bachelor,2022.2.4,59.950499082230955,
,,,,,,,,,,,,0,0,0,0,159,0,159,0,,,,,,,159,,,1,1520.793454645609,,Y,l,go,l,1,0.5547771441633813,,,,,,,,,,,,,,,,22,001,20,w,Psychologie,2023-01-16_15h30.36.290,00_bat_bachelor,2022.2.4,59.950499082230955,
,,,,,,,,,,,,0,0,0,0,160,0,160,0,,,,,,,160,,,1,1522.4612855945015,,X,d,go,d,1,0.31122186832362786,,,,,,,,,,,,,,,,22,001,20,w,Psychologie,2023-01-16_15h30.36.290,00_bat_bachelor,2022.2.4,59.950499082230955,
,,,,,,,,,,,,0,0,0,0,161,0,161,0,,,,,,,161,,,1,1523.8790182404919,,Y,l,go,l,1,0.2852655172464438,,,,,,,,,,,,,,,,22,001,20,w,Psychologie,2023-01-16_15h30.36.290,00_bat_bachelor,2022.2.4,59.950499082230955,
,,,,,,,,,,,,0,0,0,0,162,0,162,0,,,,,,,162,,,1,1525.2800672581652,,X,d,go,d,1,0.37322571699041873,,,,,,,,,,,,,,,,22,001,20,w,Psychologie,2023-01-16_15h30.36.290,00_bat_bachelor,2022.2.4,59.950499082230955,
,,,,,,,,,,,,0,0,0,0,163,0,163,0,,,,,,,163,,,1,1526.7647433867678,,Y,l,go,l,1,0.4244669043109752,,,,,,,,,,,,,,,,22,001,20,w,Psychologie,2023-01-16_15h30.36.290,00_bat_bachelor,2022.2.4,59.950499082230955,
,,,,,,,,,,,,0,0,0,0,164,0,164,0,,,,,,,164,,,1,1528.2992808246054,,X,d,go,d,1,0.3142584728775546,,,,,,,,,,,,,,,,22,001,20,w,Psychologie,2023-01-16_15h30.36.290,00_bat_bachelor,2022.2.4,59.950499082230955,
,,,,,,,,,,,,0,0,0,0,165,0,165,0,,,,,,,165,,,1,1529.7170023189974,,X,None,nogo,None,1,,,,,,,,,,,,,,,,,22,001,20,w,Psychologie,2023-01-16_15h30.36.290,00_bat_bachelor,2022.2.4,59.950499082230955,
,,,,,,,,,,,,0,0,0,0,166,0,166,0,,,,,,,166,,,1,1531.5182819305337,,Y,l,go,l,1,0.4546724654501304,,,,,,,,,,,,,,,,22,001,20,w,Psychologie,2023-01-16_15h30.36.290,00_bat_bachelor,2022.2.4,59.950499082230955,
,,,,,,,,,,,,0,0,0,0,167,0,167,0,,,,,,,167,,,1,1533.0858962007915,,X,d,go,d,1,0.4379699280834757,,,,,,,,,,,,,,,,22,001,20,w,Psychologie,2023-01-16_15h30.36.290,00_bat_bachelor,2022.2.4,59.950499082230955,
,,,,,,,,,,,,0,0,0,0,168,0,168,0,,,,,,,168,,,1,1534.6371657516574,,Y,l,go,l,1,0.2642614062060602,,,,,,,,,,,,,,,,22,001,20,w,Psychologie,2023-01-16_15h30.36.290,00_bat_bachelor,2022.2.4,59.950499082230955,
,,,,,,,,,,,,0,0,0,0,169,0,169,0,,,,,,,169,,,1,1536.004979876394,,X,d,go,d,1,0.2555302589898929,,,,,,,,,,,,,,,,22,001,20,w,Psychologie,2023-01-16_15h30.36.290,00_bat_bachelor,2022.2.4,59.950499082230955,
,,,,,,,,,,,,0,0,0,0,170,0,170,0,,,,,,,170,,,1,1537.372837152565,,Y,l,go,l,1,0.2968029662151821,,,,,,,,,,,,,,,,22,001,20,w,Psychologie,2023-01-16_15h30.36.290,00_bat_bachelor,2022.2.4,59.950499082230955,
,,,,,,,,,,,,0,0,0,0,171,0,171,0,,,,,,,171,,,1,1538.7738793823519,,Y,None,nogo,None,1,,,,,,,,,,,,,,,,,22,001,20,w,Psychologie,2023-01-16_15h30.36.290,00_bat_bachelor,2022.2.4,59.950499082230955,
,,,,,,,,,,,,0,0,0,0,172,0,172,0,,,,,,,172,,,1,1540.5750261454377,,X,d,go,d,1,0.22928930196212605,,,,,,,,,,,,,,,,22,001,20,w,Psychologie,2023-01-16_15h30.36.290,00_bat_bachelor,2022.2.4,59.950499082230955,
,,,,,,,,,,,,0,0,0,0,173,0,173,0,,,,,,,173,,,1,1541.9096010135254,,Y,l,go,l,1,0.3834904393879697,,,,,,,,,,,,,,,,22,001,20,w,Psychologie,2023-01-16_15h30.36.290,00_bat_bachelor,2022.2.4,59.950499082230955,
,,,,,,,,,,,,0,0,0,0,174,0,174,0,,,,,,,174,,,1,1543.393789869675,,X,d,go,d,1,0.27525679481914267,,,,,,,,,,,,,,,,22,001,20,w,Psychologie,2023-01-16_15h30.36.290,00_bat_bachelor,2022.2.4,59.950499082230955,
,,,,,,,,,,,,0,0,0,0,175,0,175,0,,,,,,,175,,,1,1544.7784301680513,,X,None,nogo,None,1,,,,,,,,,,,,,,,,,22,001,20,w,Psychologie,2023-01-16_15h30.36.290,00_bat_bachelor,2022.2.4,59.950499082230955,
,,,,,,,,,,,,0,0,0,0,176,0,176,0,,,,,,,176,,,1,1546.5795643250458,,Y,l,go,l,1,0.5611393229337409,,,,,,,,,,,,,,,,22,001,20,w,Psychologie,2023-01-16_15h30.36.290,00_bat_bachelor,2022.2.4,59.950499082230955,
,,,,,,,,,,,,0,0,0,0,177,0,177,0,,,,,,,177,,,1,1548.2479111525463,,X,d,go,d,1,0.3973895841627382,,,,,,,,,,,,,,,,22,001,20,w,Psychologie,2023-01-16_15h30.36.290,00_bat_bachelor,2022.2.4,59.950499082230955,
,,,,,,,,,,,,0,0,0,0,178,0,178,0,,,,,,,178,,,1,1549.7489416974713,,X,None,nogo,None,1,,,,,,,,,,,,,,,,,22,001,20,w,Psychologie,2023-01-16_15h30.36.290,00_bat_bachelor,2022.2.4,59.950499082230955,
,,,,,,,,,,,,0,0,0,0,179,0,179,0,,,,,,,179,,,1,1551.5502887028852,,Y,l,go,None,0,,,,,,,,,,,,,,,,,22,001,20,w,Psychologie,2023-01-16_15h30.36.290,00_bat_bachelor,2022.2.4,59.950499082230955,
,,,,,,,,,,,,0,0,0,0,180,0,180,0,,,,,,,180,,,1,1553.3516769203707,,X,d,go,d,1,0.6533773388364352,,,,,,,,,,,,,,,,22,001,20,w,Psychologie,2023-01-16_15h30.36.290,00_bat_bachelor,2022.2.4,59.950499082230955,
,,,,,,,,,,,,0,0,0,0,181,0,181,0,,,,,,,181,,,1,1555.1194404269336,,Y,l,go,l,1,0.37310305039864033,,,,,,,,,,,,,,,,22,001,20,w,Psychologie,2023-01-16_15h30.36.290,00_bat_bachelor,2022.2.4,59.950499082230955,
,,,,,,,,,,,,0,0,0,0,182,0,182,0,,,,,,,182,,,1,1556.6040923131513,,X,d,go,d,1,0.345441488083452,,,,,,,,,,,,,,,,22,001,20,w,Psychologie,2023-01-16_15h30.36.290,00_bat_bachelor,2022.2.4,59.950499082230955,
,,,,,,,,,,,,0,0,0,0,183,0,183,0,,,,,,,183,,,1,1558.0552334277309,,Y,l,go,l,1,0.4297056896612048,,,,,,,,,,,,,,,,22,001,20,w,Psychologie,2023-01-16_15h30.36.290,00_bat_bachelor,2022.2.4,59.950499082230955,
,,,,,,,,,,,,0,0,0,0,184,0,184,0,,,,,,,184,,,1,1559.5897849261528,,Y,None,nogo,None,1,,,,,,,,,,,,,,,,,22,001,20,w,Psychologie,2023-01-16_15h30.36.290,00_bat_bachelor,2022.2.4,59.950499082230955,
,,,,,,,,,,,,0,0,0,0,185,0,185,0,,,,,,,185,,,1,1561.3907867196249,,X,d,go,d,1,0.3412189446971752,,,,,,,,,,,,,,,,22,001,20,w,Psychologie,2023-01-16_15h30.36.290,00_bat_bachelor,2022.2.4,59.950499082230955,
,,,,,,,,,,,,0,0,0,0,186,0,186,0,,,,,,,186,,,1,1562.8422846824978,,Y,l,go,l,1,0.5215044330107048,,,,,,,,,,,,,,,,22,001,20,w,Psychologie,2023-01-16_15h30.36.290,00_bat_bachelor,2022.2.4,59.950499082230955,
,,,,,,,,,,,,0,0,0,0,187,0,187,0,,,,,,,187,,,1,1564.4766392840538,1565.2774519866798,Y,None,nogo,None,1,,,,,,,,,,,,,,,,,22,001,20,w,Psychologie,2023-01-16_15h30.36.290,00_bat_bachelor,2022.2.4,59.950499082230955,
,,,,,,,,,,,,0,0,0,0,188,0,188,0,,,,,,,188,,,1,1566.2781298045302,,X,d,go,d,1,0.28599085024325177,,,,,,,,,,,,,,,,22,001,20,w,Psychologie,2023-01-16_15h30.36.290,00_bat_bachelor,2022.2.4,59.950499082230955,
,,,,,,,,,,,,0,0,0,0,189,0,189,0,,,,,,,189,,,1,1567.6791749434196,,Y,l,go,l,1,0.2938856342807412,,,,,,,,,,,,,,,,22,001,20,w,Psychologie,2023-01-16_15h30.36.290,00_bat_bachelor,2022.2.4,59.950499082230955,
,,,,,,,,,,,,0,0,0,0,190,0,190,0,,,,,,,190,,,1,1569.0803155974136,,Y,None,nogo,None,1,,,,,,,,,,,,,,,,,22,001,20,w,Psychologie,2023-01-16_15h30.36.290,00_bat_bachelor,2022.2.4,59.950499082230955,
,,,,,,,,,,,,0,0,0,0,191,0,191,0,,,,,,,191,,,1,1570.8815103604575,,X,d,go,d,1,0.33892124879639596,,,,,,,,,,,,,,,,22,001,20,w,Psychologie,2023-01-16_15h30.36.290,00_bat_bachelor,2022.2.4,59.950499082230955,
,,,,,,,,,,,,0,0,0,0,192,0,192,0,,,,,,,192,,,1,1572.3324958388112,,Y,l,go,l,1,0.6163339628255926,,,,,,,,,,,,,,,,22,001,20,w,Psychologie,2023-01-16_15h30.36.290,00_bat_bachelor,2022.2.4,59.950499082230955,
,,,,,,,,,,,,0,0,0,0,193,0,193,0,,,,,,,193,,,1,1574.0504940361134,,Y,None,nogo,None,1,,,,,,,,,,,,,,,,,22,001,20,w,Psychologie,2023-01-16_15h30.36.290,00_bat_bachelor,2022.2.4,59.950499082230955,
,,,,,,,,,,,,0,0,0,0,194,0,194,0,,,,,,,194,,,1,1575.8520824959269,,X,d,go,d,1,0.21678458078531548,,,,,,,,,,,,,,,,22,001,20,w,Psychologie,2023-01-16_15h30.36.290,00_bat_bachelor,2022.2.4,59.950499082230955,
,,,,,,,,,,,,0,0,0,0,195,0,195,0,,,,,,,195,,,1,1577.1697962813196,,Y,l,go,l,1,0.4994423831230961,,,,,,,,,,,,,,,,22,001,20,w,Psychologie,2023-01-16_15h30.36.290,00_bat_bachelor,2022.2.4,59.950499082230955,
,,,,,,,,,,,,0,0,0,0,196,0,196,0,,,,,,,196,,,1,1578.7709470201517,,X,d,go,d,1,0.3694560219300911,,,,,,,,,,,,,,,,22,001,20,w,Psychologie,2023-01-16_15h30.36.290,00_bat_bachelor,2022.2.4,59.950499082230955,
,,,,,,,,,,,,0,0,0,0,197,0,197,0,,,,,,,197,,,1,1580.2553002398345,,Y,l,go,l,1,0.42108217865461484,,,,,,,,,,,,,,,,22,001,20,w,Psychologie,2023-01-16_15h30.36.290,00_bat_bachelor,2022.2.4,59.950499082230955,
,,,,,,,,,,,,0,0,0,0,198,0,198,0,,,,,,,198,,,1,1581.790002526075,,X,d,go,d,1,0.5980939716682769,,,,,,,,,,,,,,,,22,001,20,w,Psychologie,2023-01-16_15h30.36.290,00_bat_bachelor,2022.2.4,59.950499082230955,
,,,,,,,,,,,,0,0,0,0,199,0,199,0,,,,,,,199,,,1,1583.4912380648311,,X,None,nogo,None,1,,,,,,,,,,,,,,,,,22,001,20,w,Psychologie,2023-01-16_15h30.36.290,00_bat_bachelor,2022.2.4,59.950499082230955,
,,,,,,,,,,,,0,0,0,0,200,0,200,0,,,,,,,200,,,1,1585.2927416762686,,Y,l,go,l,1,0.3921634048456326,,,,,,,,,,,,,,,,22,001,20,w,Psychologie,2023-01-16_15h30.36.290,00_bat_bachelor,2022.2.4,59.950499082230955,
,,,,,,,,,,,,0,0,0,0,201,0,201,0,,,,,,,201,,,1,1586.7938691908494,,X,d,go,d,1,0.3800300773582421,,,,,,,,,,,,,,,,22,001,20,w,Psychologie,2023-01-16_15h30.36.290,00_bat_bachelor,2022.2.4,59.950499082230955,
,,,,,,,,,,,,0,0,0,0,202,0,202,0,,,,,,,202,,,1,1588.2782946529333,,Y,l,go,l,1,0.5583359303418547,,,,,,,,,,,,,,,,22,001,20,w,Psychologie,2023-01-16_15h30.36.290,00_bat_bachelor,2022.2.4,59.950499082230955,
,,,,,,,,,,,,0,0,0,0,203,0,203,0,,,,,,,203,,,1,1589.9462647532928,,X,d,go,d,1,0.5710578635334969,,,,,,,,,,,,,,,,22,001,20,w,Psychologie,2023-01-16_15h30.36.290,00_bat_bachelor,2022.2.4,59.950499082230955,
,,,,,,,,,,,,0,0,0,0,204,0,204,0,,,,,,,204,,,1,1591.6309150880552,1592.4311983363586,X,None,nogo,None,1,,,,,,,,,,,,,,,,,22,001,20,w,Psychologie,2023-01-16_15h30.36.290,00_bat_bachelor,2022.2.4,59.950499082230955,
,,,,,,,,,,,,0,0,0,0,205,0,205,0,,,,,,,205,,,1,1593.4320492450497,,Y,l,go,l,1,0.2846356994123198,,,,,,,,,,,,,,,,22,001,20,w,Psychologie,2023-01-16_15h30.36.290,00_bat_bachelor,2022.2.4,59.950499082230955,
,,,,,,,,,,,,0,0,0,0,206,0,206,0,,,,,,,206,,,1,1594.8334948685952,,X,d,go,d,1,0.3237391955917701,,,,,,,,,,,,,,,,22,001,20,w,Psychologie,2023-01-16_15h30.36.290,00_bat_bachelor,2022.2.4,59.950499082230955,
,,,,,,,,,,,,0,0,0,0,207,0,207,0,,,,,,,207,,,1,1596.2676115066279,,X,None,nogo,None,1,,,,,,,,,,,,,,,,,22,001,20,w,Psychologie,2023-01-16_15h30.36.290,00_bat_bachelor,2022.2.4,59.950499082230955,
,,,,,,,,,,,,0,0,0,0,208,0,208,0,,,,,,,208,,,1,1598.0690719665145,,Y,l,go,l,1,0.28773775848094374,,,,,,,,,,,,,,,,22,001,20,w,Psychologie,2023-01-16_15h30.36.290,00_bat_bachelor,2022.2.4,59.950499082230955,
,,,,,,,,,,,,0,0,0,0,209,0,209,0,,,,,,,209,,,1,1599.4701495902264,,X,d,go,d,1,0.5020188667112961,,,,,,,,,,,,,,,,22,001,20,w,Psychologie,2023-01-16_15h30.36.290,00_bat_bachelor,2022.2.4,59.950499082230955,
,,,,,,,,,,,,0,0,0,0,210,0,210,0,,,,,,,210,,,1,1601.0882079572184,,X,None,nogo,None,1,,,,,,,,,,,,,,,,,22,001,20,w,Psychologie,2023-01-16_15h30.36.290,00_bat_bachelor,2022.2.4,59.950499082230955,
,,,,,,,,,,,,0,0,0,0,211,0,211,0,,,,,,,211,,,1,1602.889336780936,,Y,l,go,l,1,0.3638424488599412,,,,,,,,,,,,,,,,22,001,20,w,Psychologie,2023-01-16_15h30.36.290,00_bat_bachelor,2022.2.4,59.950499082230955,
,,,,,,,,,,,,0,0,0,0,212,0,212,0,,,,,,,212,,,1,1604.356993281457,,X,d,go,d,1,0.5119320739759132,,,,,,,,,,,,,,,,22,001,20,w,Psychologie,2023-01-16_15h30.36.290,00_bat_bachelor,2022.2.4,59.950499082230955,
,,,,,,,,,,,,0,0,0,0,213,0,213,0,,,,,,,213,,,1,1605.9747680122382,,Y,l,go,l,1,0.5096154690836556,,,,,,,,,,,,,,,,22,001,20,w,Psychologie,2023-01-16_15h30.36.290,00_bat_bachelor,2022.2.4,59.950499082230955,
,,,,,,,,,,,,0,0,0,0,214,0,214,0,,,,,,,214,,,1,1607.5930246821372,,Y,None,nogo,None,1,,,,,,,,,,,,,,,,,22,001,20,w,Psychologie,2023-01-16_15h30.36.290,00_bat_bachelor,2022.2.4,59.950499082230955,
,,,,,,,,,,,,0,0,0,0,215,0,215,0,,,,,,,215,,,1,1609.3943038088037,,X,d,go,d,1,0.4338506573694758,,,,,,,,,,,,,,,,22,001,20,w,Psychologie,2023-01-16_15h30.36.290,00_bat_bachelor,2022.2.4,59.950499082230955,
,,,,,,,,,,,,0,0,0,0,216,0,216,0,,,,,,,216,,,1,1610.9287117921049,,Y,l,go,l,1,0.5323480641236529,,,,,,,,,,,,,,,,22,001,20,w,Psychologie,2023-01-16_15h30.36.290,00_bat_bachelor,2022.2.4,59.950499082230955,
,,,,,,,,,,,,0,0,0,0,217,0,217,0,,,,,,,217,,,1,1612.5633568177582,,X,d,go,d,1,0.35301142383832484,,,,,,,,,,,,,,,,22,001,20,w,Psychologie,2023-01-16_15h30.36.290,00_bat_bachelor,2022.2.4,59.950499082230955,
,,,,,,,,,,,,0,0,0,0,218,0,218,0,,,,,,,218,,,1,1614.031069560675,,Y,l,go,l,1,0.4210172090679407,,,,,,,,,,,,,,,,22,001,20,w,Psychologie,2023-01-16_15h30.36.290,00_bat_bachelor,2022.2.4,59.950499082230955,
,,,,,,,,,,,,0,0,0,0,219,0,219,0,,,,,,,219,,,1,1615.5657403317746,,X,d,go,d,1,0.3439258524449542,,,,,,,,,,,,,,,,22,001,20,w,Psychologie,2023-01-16_15h30.36.290,00_bat_bachelor,2022.2.4,59.950499082230955,
,,,,,,,,,,,,0,0,0,0,220,0,220,0,,,,,,,220,,,1,1617.0169813251123,,Y,l,go,l,1,0.34856730478350073,,,,,,,,,,,,,,,,22,001,20,w,Psychologie,2023-01-16_15h30.36.290,00_bat_bachelor,2022.2.4,59.950499082230955,
,,,,,,,,,,,,0,0,0,0,221,0,221,0,,,,,,,221,,,1,1618.4679823185434,,Y,None,nogo,l,0,0.5289720657747239,,,,,,,,,,,,,,,,22,001,20,w,Psychologie,2023-01-16_15h30.36.290,00_bat_bachelor,2022.2.4,59.950499082230955,
,,,,,,,,,,,,0,0,0,0,222,0,222,0,,,,,,,222,,,1,1620.1025177684496,,X,d,go,d,1,0.33456537214806303,,,,,,,,,,,,,,,,22,001,20,w,Psychologie,2023-01-16_15h30.36.290,00_bat_bachelor,2022.2.4,59.950499082230955,
,,,,,,,,,,,,0,0,0,0,223,0,223,0,,,,,,,223,,,1,1621.5536128224921,,Y,l,go,None,0,,,,,,,,,,,,,,,,,22,001,20,w,Psychologie,2023-01-16_15h30.36.290,00_bat_bachelor,2022.2.4,59.950499082230955,
,,,,,,,,,,,,0,0,0,0,224,0,224,0,,,,,,,224,,,1,1623.3550073429942,1624.1554855003487,Y,None,nogo,None,1,,,,,,,,,,,,,,,,,22,001,20,w,Psychologie,2023-01-16_15h30.36.290,00_bat_bachelor,2022.2.4,59.950499082230955,
,,,,,,,,,,,,0,0,0,0,225,0,225,0,,,,,,,225,,,1,1625.156191439426,,Y,None,nogo,None,1,,,,,,,,,,,,,,,,,22,001,20,w,Psychologie,2023-01-16_15h30.36.290,00_bat_bachelor,2022.2.4,59.950499082230955,
,,,,,,,,,,,,0,0,0,0,226,0,226,0,,,,,,,226,,,1,1626.9577493538382,,X,d,go,d,1,0.534471214574296,,,,,,,,,,,,,,,,22,001,20,w,Psychologie,2023-01-16_15h30.36.290,00_bat_bachelor,2022.2.4,59.950499082230955,
,,,,,,,,,,,,0,0,0,0,227,0,227,0,,,,,,,227,,,1,1628.6087284320965,,Y,l,go,l,1,0.2924475743784569,,,,,,,,,,,,,,,,22,001,20,w,Psychologie,2023-01-16_15h30.36.290,00_bat_bachelor,2022.2.4,59.950499082230955,
,,,,,,,,,,,,0,0,0,0,228,0,228,0,,,,,,,228,,,1,1630.0097279952606,,X,d,go,d,1,0.634308741951827,,,,,,,,,,,,,,,,22,001,20,w,Psychologie,2023-01-16_15h30.36.290,00_bat_bachelor,2022.2.4,59.950499082230955,
,,,,,,,,,,,,0,0,0,0,229,0,229,0,,,,,,,229,,,1,1631.761174418847,,Y,l,go,l,1,0.29184296866878867,,,,,,,,,,,,,,,,22,001,20,w,Psychologie,2023-01-16_15h30.36.290,00_bat_bachelor,2022.2.4,59.950499082230955,
,,,,,,,,,,,,0,0,0,0,230,0,230,0,,,,,,,230,,,1,1633.1624202848761,,Y,None,nogo,None,1,,,,,,,,,,,,,,,,,22,001,20,w,Psychologie,2023-01-16_15h30.36.290,00_bat_bachelor,2022.2.4,59.950499082230955,
,,,,,,,,,,,,0,0,0,0,231,0,231,0,,,,,,,231,,,1,1634.9636436539586,,X,d,go,d,1,0.5932925194501877,,,,,,,,,,,,,,,,22,001,20,w,Psychologie,2023-01-16_15h30.36.290,00_bat_bachelor,2022.2.4,59.950499082230955,
,,,,,,,,,,,,0,0,0,0,232,0,232,0,,,,,,,232,,,1,1636.6650760411867,,Y,l,go,l,1,0.3479946989682503,,,,,,,,,,,,,,,,22,001,20,w,Psychologie,2023-01-16_15h30.36.290,00_bat_bachelor,2022.2.4,59.950499082230955,
,,,,,,,,,,,,0,0,0,0,233,0,233,0,,,,,,,233,,,1,1638.1162346103229,,X,d,go,d,1,0.33594525029184297,,,,,,,,,,,,,,,,22,001,20,w,Psychologie,2023-01-16_15h30.36.290,00_bat_bachelor,2022.2.4,59.950499082230955,
,,,,,,,,,,,,0,0,0,0,234,0,234,0,,,,,,,234,,,1,1639.5672845734516,,X,None,nogo,None,1,,,,,,,,,,,,,,,,,22,001,20,w,Psychologie,2023-01-16_15h30.36.290,00_bat_bachelor,2022.2.4,59.950499082230955,
,,,,,,,,,,,,0,0,0,0,235,0,235,0,,,,,,,235,,,1,1641.3687256394187,,Y,l,go,l,1,0.4610317351180129,,,,,,,,,,,,,,,,22,001,20,w,Psychologie,2023-01-16_15h30.36.290,00_bat_bachelor,2022.2.4,59.950499082230955,
,,,,,,,,,,,,0,0,0,0,236,0,236,0,,,,,,,236,,,1,1642.9365915458766,,X,d,go,d,1,0.5242612801375799,,,,,,,,,,,,,,,,22,001,20,w,Psychologie,2023-01-16_15h30.36.290,00_bat_bachelor,2022.2.4,59.950499082230955,
,,,,,,,,,,,,0,0,0,0,237,0,237,0,,,,,,,237,,,1,1644.571130874625,,X,None,nogo,None,1,,,,,,,,,,,,,,,,,22,001,20,w,Psychologie,2023-01-16_15h30.36.290,00_bat_bachelor,2022.2.4,59.950499082230955,
,,,,,,,,,,,,0,0,0,0,238,0,238,0,,,,,,,238,,,1,1646.3724890315207,,Y,l,go,l,1,0.38401989365229383,,,,,,,,,,,,,,,,22,001,20,w,Psychologie,2023-01-16_15h30.36.290,00_bat_bachelor,2022.2.4,59.950499082230955,
,,,,,,,,,,,,0,0,0,0,239,0,239,0,,,,,,,239,,,1,1647.8734036977403,,X,d,go,d,1,0.38676558929728344,,,,,,,,,,,,,,,,22,001,20,w,Psychologie,2023-01-16_15h30.36.290,00_bat_bachelor,2022.2.4,59.950499082230955,
,,,,,,,,,,,,0,0,0,0,240,0,240,0,,,,,,,240,,,1,1649.3747566667735,1650.1753526422544,X,None,nogo,None,1,,,,,,,,,,,,,,,,,22,001,20,w,Psychologie,2023-01-16_15h30.36.290,00_bat_bachelor,2022.2.4,59.950499082230955,
,,,,,,,,,,,,0,0,0,0,241,0,241,0,,,,,,,241,,,1,1651.1761904600426,1651.9768029203406,X,None,nogo,None,1,,,,,,,,,,,,,,,,,22,001,20,w,Psychologie,2023-01-16_15h30.36.290,00_bat_bachelor,2022.2.4,59.950499082230955,
,,,,,,,,,,,,0,0,0,0,242,0,242,0,,,,,,,242,,,1,1652.9775078896782,,Y,l,go,l,1,0.16269927367102355,,,,,,,,,,,,,,,,22,001,20,w,Psychologie,2023-01-16_15h30.36.290,00_bat_bachelor,2022.2.4,59.950499082230955,
,,,,,,,,,,,,0,0,0,0,243,0,243,0,,,,,,,243,,,1,1654.2451218205388,,X,d,go,d,1,0.464582763670478,,,,,,,,,,,,,,,,22,001,20,w,Psychologie,2023-01-16_15h30.36.290,00_bat_bachelor,2022.2.4,59.950499082230955,
,,,,,,,,,,,,0,0,0,0,244,0,244,0,,,,,,,244,,,1,1655.8129974239855,1656.613670005463,X,None,nogo,None,1,,,,,,,,,,,,,,,,,22,001,20,w,Psychologie,2023-01-16_15h30.36.290,00_bat_bachelor,2022.2.4,59.950499082230955,
,,,,,,,,,,,,0,0,0,0,245,0,245,0,,,,,,,245,,,1,1657.6143415202969,,Y,l,go,l,1,0.23123839194886386,,,,,,,,,,,,,,,,22,001,20,w,Psychologie,2023-01-16_15h30.36.290,00_bat_bachelor,2022.2.4,59.950499082230955,
,,,,,,,,,,,,0,0,0,0,246,0,246,0,,,,,,,246,,,1,1658.948737479397,,X,d,go,None,0,,,,,,,,,,,,,,,,,22,001,20,w,Psychologie,2023-01-16_15h30.36.290,00_bat_bachelor,2022.2.4,59.950499082230955,
,,,,,,,,,,,,0,0,0,0,247,0,247,0,,,,,,,247,,,1,1660.7502769695711,,Y,l,go,l,1,0.2950856336974539,,,,,,,,,,,,,,,,22,001,20,w,Psychologie,2023-01-16_15h30.36.290,00_bat_bachelor,2022.2.4,59.950499082230955,
,,,,,,,,,,,,0,0,0,0,248,0,248,0,,,,,,,248,,,1,1662.1510055025574,,X,d,go,d,1,0.26955352490767837,,,,,,,,,,,,,,,,22,001,20,w,Psychologie,2023-01-16_15h30.36.290,00_bat_bachelor,2022.2.4,59.950499082230955,
,,,,,,,,,,,,0,0,0,0,249,0,249,0,,,,,,,249,,,1,1663.535615255474,,Y,l,go,l,1,0.6130423280410469,,,,,,,,,,,,,,,,22,001,20,w,Psychologie,2023-01-16_15h30.36.290,00_bat_bachelor,2022.2.4,59.950499082230955,
,,,,,,,,,,,,1,0,1,0,0,0,0,0,,,,,,,0,,,0.2,1685.1687131302897,,X,d,go,None,0,,,,,,,,,1664.2581482384703,space,20.6937928343541,,,,,,22,001,20,w,Psychologie,2023-01-16_15h30.36.290,00_bat_bachelor,2022.2.4,59.950499082230955,
,,,,,,,,,,,,1,0,1,0,1,0,1,0,,,,,,,1,,,0.2,1686.1700367660378,1686.9706492263358,Y,l,go,None,0,,,,,,,,,,,,,,,,,22,001,20,w,Psychologie,2023-01-16_15h30.36.290,00_bat_bachelor,2022.2.4,59.950499082230955,
,,,,,,,,,,,,1,0,1,0,2,0,2,0,,,,,,,2,,,0.2,1687.1707994323224,,X,d,go,d,1,0.609147057228256,,,,,,,,,,,,,,,,22,001,20,w,Psychologie,2023-01-16_15h30.36.290,00_bat_bachelor,2022.2.4,59.950499082230955,
,,,,,,,,,,,,1,0,1,0,3,0,3,0,,,,,,,3,,,0.2,1688.1051912216935,1688.9054405306815,X,None,nogo,None,1,,,,,,,,,,,,,,,,,22,001,20,w,Psychologie,2023-01-16_15h30.36.290,00_bat_bachelor,2022.2.4,59.950499082230955,
,,,,,,,,,,,,1,0,1,0,4,0,4,0,,,,,,,4,,,0.2,1689.1056847972213,1689.9062419848633,Y,l,go,None,0,,,,,,,,,,,,,,,,,22,001,20,w,Psychologie,2023-01-16_15h30.36.290,00_bat_bachelor,2022.2.4,59.950499082230955,
,,,,,,,,,,,,1,0,1,0,5,0,5,0,,,,,,,5,,,0.2,1690.1063626150717,,X,d,go,d,1,0.4576222822070122,,,,,,,,,,,,,,,,22,001,20,w,Psychologie,2023-01-16_15h30.36.290,00_bat_bachelor,2022.2.4,59.950499082230955,
,,,,,,,,,,,,1,0,1,0,6,0,6,0,,,,,,,6,,,0.2,1690.9072024692432,,X,None,nogo,d,0,0.4898336604819633,,,,,,,,,,,,,,,,22,001,20,w,Psychologie,2023-01-16_15h30.36.290,00_bat_bachelor,2022.2.4,59.950499082230955,
,,,,,,,,,,,,1,0,1,0,7,0,7,0,,,,,,,7,,,0.2,1691.7244883759995,1692.5248453212553,X,None,nogo,None,1,,,,,,,,,,,,,,,,,22,001,20,w,Psychologie,2023-01-16_15h30.36.290,00_bat_bachelor,2022.2.4,59.950499082230955,
,,,,,,,,,,,,1,0,1,0,8,0,8,0,,,,,,,8,,,0.2,1692.7249834060785,,Y,l,go,l,1,0.33504537190310657,,,,,,,,,,,,,,,,22,001,20,w,Psychologie,2023-01-16_15h30.36.290,00_bat_bachelor,2022.2.4,59.950499082230955,
,,,,,,,,,,,,1,0,1,0,9,0,9,0,,,,,,,9,,,0.2,1693.392321264313,,X,d,go,d,1,0.34016294515458867,,,,,,,,,,,,,,,,22,001,20,w,Psychologie,2023-01-16_15h30.36.290,00_bat_bachelor,2022.2.4,59.950499082230955,
,,,,,,,,,,,,1,0,1,0,10,0,10,0,,,,,,,10,,,0.2,1694.0761497812346,,Y,l,go,l,1,0.45667052507633343,,,,,,,,,,,,,,,,22,001,20,w,Psychologie,2023-01-16_15h30.36.290,00_bat_bachelor,2022.2.4,59.950499082230955,
,,,,,,,,,,,,1,0,1,0,11,0,11,0,,,,,,,11,,,0.2,1694.859898734605,,X,d,go,d,1,0.3912867992185056,,,,,,,,,,,,,,,,22,001,20,w,Psychologie,2023-01-16_15h30.36.290,00_bat_bachelor,2022.2.4,59.950499082230955,
,,,,,,,,,,,,1,0,1,0,12,0,12,0,,,,,,,12,,,0.2,1695.5940195907606,,Y,l,go,l,1,0.4902355996891856,,,,,,,,,,,,,,,,22,001,20,w,Psychologie,2023-01-16_15h30.36.290,00_bat_bachelor,2022.2.4,59.950499082230955,
,,,,,,,,,,,,1,0,1,0,13,0,13,0,,,,,,,13,,,0.2,1696.411099921912,,X,d,go,d,1,0.3919146776897833,,,,,,,,,,,,,,,,22,001,20,w,Psychologie,2023-01-16_15h30.36.290,00_bat_bachelor,2022.2.4,59.950499082230955,
,,,,,,,,,,,,1,0,1,0,14,0,14,0,,,,,,,14,,,0.2,1697.1451019902597,,Y,l,go,l,1,0.41098909272113815,,,,,,,,,,,,,,,,22,001,20,w,Psychologie,2023-01-16_15h30.36.290,00_bat_bachelor,2022.2.4,59.950499082230955,
,,,,,,,,,,,,1,0,1,0,15,0,15,0,,,,,,,15,,,0.2,1697.8959282928845,,X,d,go,d,1,0.4132252128329128,,,,,,,,,,,,,,,,22,001,20,w,Psychologie,2023-01-16_15h30.36.290,00_bat_bachelor,2022.2.4,59.950499082230955,
,,,,,,,,,,,,1,0,1,0,16,0,16,0,,,,,,,16,,,0.2,1698.6295987250633,1699.4301806399017,X,None,nogo,None,1,,,,,,,,,,,,,,,,,22,001,20,w,Psychologie,2023-01-16_15h30.36.290,00_bat_bachelor,2022.2.4,59.950499082230955,
,,,,,,,,,,,,1,0,1,0,17,0,17,0,,,,,,,17,,,0.2,1699.630544663989,,Y,l,go,l,1,0.4374167161877267,,,,,,,,,,,,,,,,22,001,20,w,Psychologie,2023-01-16_15h30.36.290,00_bat_bachelor,2022.2.4,59.950499082230955,
,,,,,,,,,,,,1,0,1,0,18,0,18,0,,,,,,,18,,,0.2,1700.4143324051402,,X,d,go,d,1,0.5021003212314099,,,,,,,,,,,,,,,,22,001,20,w,Psychologie,2023-01-16_15h30.36.290,00_bat_bachelor,2022.2.4,59.950499082230955,
,,,,,,,,,,,,1,0,1,0,19,0,19,0,,,,,,,19,,,0.2,1701.2317322512972,,Y,l,go,l,1,0.64419867657125,,,,,,,,,,,,,,,,22,001,20,w,Psychologie,2023-01-16_15h30.36.290,00_bat_bachelor,2022.2.4,59.950499082230955,
,,,,,,,,,,,,1,0,1,0,20,0,20,0,,,,,,,20,,,0.2,1702.1987921460532,1702.9993648487725,Y,None,nogo,None,1,,,,,,,,,,,,,,,,,22,001,20,w,Psychologie,2023-01-16_15h30.36.290,00_bat_bachelor,2022.2.4,59.950499082230955,
,,,,,,,,,,,,1,0,1,0,21,0,21,0,,,,,,,21,,,0.2,1703.1995756608085,1703.9999767272966,Y,None,nogo,None,1,,,,,,,,,,,,,,,,,22,001,20,w,Psychologie,2023-01-16_15h30.36.290,00_bat_bachelor,2022.2.4,59.950499082230955,
,,,,,,,,,,,,1,0,1,0,22,0,22,0,,,,,,,22,,,0.2,1704.2003053574008,,X,d,go,d,1,0.28419400262646377,,,,,,,,,,,,,,,,22,001,20,w,Psychologie,2023-01-16_15h30.36.290,00_bat_bachelor,2022.2.4,59.950499082230955,
,,,,,,,,,,,,1,0,1,0,23,0,23,0,,,,,,,23,,,0.2,1704.7839298017207,1705.5847279588925,Y,l,go,None,0,,,,,,,,,,,,,,,,,22,001,20,w,Psychologie,2023-01-16_15h30.36.290,00_bat_bachelor,2022.2.4,59.950499082230955,
,,,,,,,,,,,,1,0,1,0,24,0,24,0,,,,,,,24,,,0.2,1705.7848481042893,1706.5855211706366,X,d,go,None,0,,,,,,,,,,,,,,,,,22,001,20,w,Psychologie,2023-01-16_15h30.36.290,00_bat_bachelor,2022.2.4,59.950499082230955,
,,,,,,,,,,,,1,0,1,0,25,0,25,0,,,,,,,25,,,0.2,1706.785438164603,1707.5860418976517,Y,l,go,None,0,,,,,,,,,,,,,,,,,22,001,20,w,Psychologie,2023-01-16_15h30.36.290,00_bat_bachelor,2022.2.4,59.950499082230955,
,,,,,,,,,,,,1,0,1,0,26,0,26,0,,,,,,,26,,,0.2,1707.7864733156166,,X,d,go,None,0,,,,,,,,,,,,,,,,,22,001,20,w,Psychologie,2023-01-16_15h30.36.290,00_bat_bachelor,2022.2.4,59.950499082230955,
,,,,,,,,,,,,1,0,1,0,27,0,27,0,,,,,,,27,,,0.2,1708.7871147698606,1709.5877126847627,X,None,nogo,None,1,,,,,,,,,,,,,,,,,22,001,20,w,Psychologie,2023-01-16_15h30.36.290,00_bat_bachelor,2022.2.4,59.950499082230955,
,,,,,,,,,,,,1,0,1,0,28,0,28,0,,,,,,,28,,,0.2,1709.7878691937658,1710.5884045631974,Y,l,go,None,0,,,,,,,,,,,,,,,,,22,001,20,w,Psychologie,2023-01-16_15h30.36.290,00_bat_bachelor,2022.2.4,59.950499082230955,
,,,,,,,,,,,,1,0,1,0,29,0,29,0,,,,,,,29,,,0.2,1710.78862167825,1711.5894329263247,X,d,go,None,0,,,,,,,,,,,,,,,,,22,001,20,w,Psychologie,2023-01-16_15h30.36.290,00_bat_bachelor,2022.2.4,59.950499082230955,
,,,,,,,,,,,,1,0,1,0,30,0,30,0,,,,,,,30,,,0.2,1711.7894512536004,,Y,l,go,d,0,0.6312483798246831,,,,,,,,,,,,,,,,22,001,20,w,Psychologie,2023-01-16_15h30.36.290,00_bat_bachelor,2022.2.4,59.950499082230955,
,,,,,,,,,,,,1,0,1,0,31,0,31,0,,,,,,,31,,,0.2,1712.723284012929,,Y,None,nogo,l,0,0.6096348145511001,,,,,,,,,,,,,,,,22,001,20,w,Psychologie,2023-01-16_15h30.36.290,00_bat_bachelor,2022.2.4,59.950499082230955,
,,,,,,,,,,,,1,0,1,0,32,0,32,0,,,,,,,32,,,0.2,1713.6406828408944,,X,d,go,d,1,0.6523960059275851,,,,,,,,,,,,,,,,22,001,20,w,Psychologie,2023-01-16_15h30.36.290,00_bat_bachelor,2022.2.4,59.950499082230955,
,,,,,,,,,,,,1,0,1,0,33,0,33,0,,,,,,,33,,,0.2,1714.6082435838762,,Y,l,go,l,1,0.6279737147851847,,,,,,,,,,,,,,,,22,001,20,w,Psychologie,2023-01-16_15h30.36.290,00_bat_bachelor,2022.2.4,59.950499082230955,
,,,,,,,,,,,,1,0,1,0,34,0,34,0,,,,,,,34,,,0.2,1715.5420748887118,,X,d,go,d,1,0.574014468176756,,,,,,,,,,,,,,,,22,001,20,w,Psychologie,2023-01-16_15h30.36.290,00_bat_bachelor,2022.2.4,59.950499082230955,
,,,,,,,,,,,,1,0,1,0,35,0,35,0,,,,,,,35,,,0.2,1716.4428046338144,1717.243692003074,X,None,nogo,None,1,,,,,,,,,,,,,,,,,22,001,20,w,Psychologie,2023-01-16_15h30.36.290,00_bat_bachelor,2022.2.4,59.950499082230955,
,,,,,,,,,,,,1,0,1,0,36,0,36,0,,,,,,,36,,,0.2,1717.4437292393995,,Y,l,go,l,1,0.24138335674069822,,,,,,,,,,,,,,,,22,001,20,w,Psychologie,2023-01-16_15h30.36.290,00_bat_bachelor,2022.2.4,59.950499082230955,
,,,,,,,,,,,,1,0,1,0,37,0,37,0,,,,,,,37,,,0.2,1717.99435685121,1718.7946177965496,X,d,go,None,0,,,,,,,,,,,,,,,,,22,001,20,w,Psychologie,2023-01-16_15h30.36.290,00_bat_bachelor,2022.2.4,59.950499082230955,
,,,,,,,,,,,,1,0,1,0,38,0,38,0,,,,,,,38,,,0.2,1718.9949546690914,,Y,l,go,l,1,0.5944348219200037,,,,,,,,,,,,,,,,22,001,20,w,Psychologie,2023-01-16_15h30.36.290,00_bat_bachelor,2022.2.4,59.950499082230955,
,,,,,,,,,,,,1,0,1,0,39,0,39,0,,,,,,,39,,,0.2,1719.8955792021588,1720.6962129957974,Y,None,nogo,None,1,,,,,,,,,,,,,,,,,22,001,20,w,Psychologie,2023-01-16_15h30.36.290,00_bat_bachelor,2022.2.4,59.950499082230955,
,,,,,,,,,,,,1,0,1,0,40,0,40,0,,,,,,,40,,,0.2,1720.8961881715222,,X,d,go,d,1,0.2598570447298698,,,,,,,,,,,,,,,,22,001,20,w,Psychologie,2023-01-16_15h30.36.290,00_bat_bachelor,2022.2.4,59.950499082230955,
,,,,,,,,,,,,1,0,1,0,41,0,41,0,,,,,,,41,,,0.2,1721.4630746845505,,Y,l,go,None,0,,,,,,,,,,,,,,,,,22,001,20,w,Psychologie,2023-01-16_15h30.36.290,00_bat_bachelor,2022.2.4,59.950499082230955,
,,,,,,,,,,,,1,0,1,0,42,0,42,0,,,,,,,42,,,0.2,1722.4640148053295,,Y,None,nogo,l,0,0.051866842550225556,,,,,,,,,,,,,,,,22,001,20,w,Psychologie,2023-01-16_15h30.36.290,00_bat_bachelor,2022.2.4,59.950499082230955,
,,,,,,,,,,,,1,0,1,0,43,0,43,0,,,,,,,43,,,0.2,1722.8309377789265,1723.6313946029404,X,d,go,None,0,,,,,,,,,,,,,,,,,22,001,20,w,Psychologie,2023-01-16_15h30.36.290,00_bat_bachelor,2022.2.4,59.950499082230955,
,,,,,,,,,,,,1,0,1,0,44,0,44,0,,,,,,,44,,,0.2,1723.8317799603683,1724.6323434509686,Y,l,go,None,0,,,,,,,,,,,,,,,,,22,001,20,w,Psychologie,2023-01-16_15h30.36.290,00_bat_bachelor,2022.2.4,59.950499082230955,
,,,,,,,,,,,,1,0,1,0,45,0,45,0,,,,,,,45,,,0.2,1724.8324815357337,1725.6330838142312,X,d,go,None,0,,,,,,,,,,,,,,,,,22,001,20,w,Psychologie,2023-01-16_15h30.36.290,00_bat_bachelor,2022.2.4,59.950499082230955,
,,,,,,,,,,,,1,0,1,0,46,0,46,0,,,,,,,46,,,0.2,1725.833183596027,,Y,l,go,d,0,0.6030617268406786,,,,,,,,,,,,,,,,22,001,20,w,Psychologie,2023-01-16_15h30.36.290,00_bat_bachelor,2022.2.4,59.950499082230955,
,,,,,,,,,,,,1,0,1,0,47,0,47,0,,,,,,,47,,,0.2,1726.7504515149049,1727.5512428842485,Y,None,nogo,None,1,,,,,,,,,,,,,,,,,22,001,20,w,Psychologie,2023-01-16_15h30.36.290,00_bat_bachelor,2022.2.4,59.950499082230955,
,,,,,,,,,,,,1,0,1,0,48,0,48,0,,,,,,,48,,,0.2,1727.7512078781729,,X,d,go,d,1,0.3495675466838293,,,,,,,,,,,,,,,,22,001,20,w,Psychologie,2023-01-16_15h30.36.290,00_bat_bachelor,2022.2.4,59.950499082230955,
,,,,,,,,,,,,1,0,1,0,49,0,49,0,,,,,,,49,,,0.2,1728.4017341082217,1729.2025812350912,Y,l,go,None,0,,,,,,,,,,,,,,,,,22,001,20,w,Psychologie,2023-01-16_15h30.36.290,00_bat_bachelor,2022.2.4,59.950499082230955,
,,,,,,,,,,,,1,0,1,0,50,0,50,0,,,,,,,50,,,0.2,1729.4026635623304,1730.2030777197215,Y,None,nogo,None,1,,,,,,,,,,,,,,,,,22,001,20,w,Psychologie,2023-01-16_15h30.36.290,00_bat_bachelor,2022.2.4,59.950499082230955,
,,,,,,,,,,,,1,0,1,0,51,0,51,0,,,,,,,51,,,0.2,1730.4032162893564,,X,d,go,None,0,,,,,,,,,,,,,,,,,22,001,20,w,Psychologie,2023-01-16_15h30.36.290,00_bat_bachelor,2022.2.4,59.950499082230955,
,,,,,,,,,,,,1,0,1,0,52,0,52,0,,,,,,,52,,,0.2,1731.4040095011005,,Y,l,go,l,1,0.39164752629585564,,,,,,,,,,,,,,,,22,001,20,w,Psychologie,2023-01-16_15h30.36.290,00_bat_bachelor,2022.2.4,59.950499082230955,
,,,,,,,,,,,,1,0,1,0,53,0,53,0,,,,,,,53,,,0.2,1732.1048246764694,,Y,None,nogo,None,1,,,,,,,,,,,,,,,,,22,001,20,w,Psychologie,2023-01-16_15h30.36.290,00_bat_bachelor,2022.2.4,59.950499082230955,
,,,,,,,,,,,,1,0,1,0,54,0,54,0,,,,,,,54,,,0.2,1733.1054782518768,,X,d,go,d,1,0.43463126302231103,,,,,,,,,,,,,,,,22,001,20,w,Psychologie,2023-01-16_15h30.36.290,00_bat_bachelor,2022.2.4,59.950499082230955,
,,,,,,,,,,,,1,0,1,0,55,0,55,0,,,,,,,55,,,0.2,1733.8559666152578,1734.6566033179988,Y,l,go,None,0,,,,,,,,,,,,,,,,,22,001,20,w,Psychologie,2023-01-16_15h30.36.290,00_bat_bachelor,2022.2.4,59.950499082230955,
,,,,,,,,,,,,1,0,1,0,56,0,56,0,,,,,,,56,,,0.2,1734.8567714633537,1735.6574367721332,X,d,go,None,0,,,,,,,,,,,,,,,,,22,001,20,w,Psychologie,2023-01-16_15h30.36.290,00_bat_bachelor,2022.2.4,59.950499082230955,
,,,,,,,,,,,,1,0,1,0,57,0,57,0,,,,,,,57,,,0.2,1735.8575593417627,,X,None,nogo,None,1,,,,,,,,,,,,,,,,,22,001,20,w,Psychologie,2023-01-16_15h30.36.290,00_bat_bachelor,2022.2.4,59.950499082230955,
,,,,,,,,,,,,1,0,1,0,58,0,58,0,,,,,,,58,,,0.2,1736.8583258868894,,Y,l,go,l,1,0.3780266844551079,,,,,,,,,,,,,,,,22,001,20,w,Psychologie,2023-01-16_15h30.36.290,00_bat_bachelor,2022.2.4,59.950499082230955,
,,,,,,,,,,,,1,0,1,0,59,0,59,0,,,,,,,59,,,0.2,1737.5419357372448,,X,d,go,d,1,0.6228207475505769,,,,,,,,,,,,,,,,22,001,20,w,Psychologie,2023-01-16_15h30.36.290,00_bat_bachelor,2022.2.4,59.950499082230955,
,,,,,,,,,,,,1,0,1,0,60,0,60,0,,,,,,,60,,,0.2,1738.4758184359525,,X,None,nogo,None,1,,,,,,,,,,,,,,,,,22,001,20,w,Psychologie,2023-01-16_15h30.36.290,00_bat_bachelor,2022.2.4,59.950499082230955,
,,,,,,,,,,,,1,0,1,0,61,0,61,0,,,,,,,61,,,0.2,1739.4765563749825,,Y,l,go,l,1,0.5127184978919104,,,,,,,,,,,,,,,,22,001,20,w,Psychologie,2023-01-16_15h30.36.290,00_bat_bachelor,2022.2.4,59.950499082230955,
,,,,,,,,,,,,1,0,1,0,62,0,62,0,,,,,,,62,,,0.2,1740.2941234937753,,X,d,go,d,1,0.5588673240272328,,,,,,,,,,,,,,,,22,001,20,w,Psychologie,2023-01-16_15h30.36.290,00_bat_bachelor,2022.2.4,59.950499082230955,
,,,,,,,,,,,,1,0,1,0,63,0,63,0,,,,,,,63,,,0.2,1741.161206224875,1741.9618361397297,Y,l,go,None,0,,,,,,,,,,,,,,,,,22,001,20,w,Psychologie,2023-01-16_15h30.36.290,00_bat_bachelor,2022.2.4,59.950499082230955,
,,,,,,,,,,,,1,0,1,0,64,0,64,0,,,,,,,64,,,0.2,1742.1622098607477,,X,d,go,None,0,,,,,,,,,,,,,,,,,22,001,20,w,Psychologie,2023-01-16_15h30.36.290,00_bat_bachelor,2022.2.4,59.950499082230955,
,,,,,,,,,,,,1,0,1,0,65,0,65,0,,,,,,,65,,,0.2,1743.1626728908159,,X,None,nogo,None,1,,,,,,,,,,,,,,,,,22,001,20,w,Psychologie,2023-01-16_15h30.36.290,00_bat_bachelor,2022.2.4,59.950499082230955,
,,,,,,,,,,,,1,0,1,0,66,0,66,0,,,,,,,66,,,0.2,1744.1637230721535,,Y,l,go,l,1,0.4172707865945995,,,,,,,,,,,,,,,,22,001,20,w,Psychologie,2023-01-16_15h30.36.290,00_bat_bachelor,2022.2.4,59.950499082230955,
,,,,,,,,,,,,1,0,1,0,67,0,67,0,,,,,,,67,,,0.2,1744.8810376334586,,X,d,go,d,1,0.5965259724180214,,,,,,,,,,,,,,,,22,001,20,w,Psychologie,2023-01-16_15h30.36.290,00_bat_bachelor,2022.2.4,59.950499082230955,
,,,,,,,,,,,,1,0,1,0,68,0,68,0,,,,,,,68,,,0.2,1745.7816379240248,,X,None,nogo,None,1,,,,,,,,,,,,,,,,,22,001,20,w,Psychologie,2023-01-16_15h30.36.290,00_bat_bachelor,2022.2.4,59.950499082230955,
,,,,,,,,,,,,1,0,1,0,69,0,69,0,,,,,,,69,,,0.2,1746.7821101662703,,X,None,nogo,l,0,0.29455860366579145,,,,,,,,,,,,,,,,22,001,20,w,Psychologie,2023-01-16_15h30.36.290,00_bat_bachelor,2022.2.4,59.950499082230955,
,,,,,,,,,,,,1,0,1,0,70,0,70,0,,,,,,,70,,,0.2,1747.3828715719283,,Y,l,go,None,0,,,,,,,,,,,,,,,,,22,001,20,w,Psychologie,2023-01-16_15h30.36.290,00_bat_bachelor,2022.2.4,59.950499082230955,
,,,,,,,,,,,,1,0,1,0,71,0,71,0,,,,,,,71,,,0.2,1748.3833554504672,,X,d,go,d,1,0.3731602625339292,,,,,,,,,,,,,,,,22,001,20,w,Psychologie,2023-01-16_15h30.36.290,00_bat_bachelor,2022.2.4,59.950499082230955,
,,,,,,,,,,,,1,0,1,0,72,0,72,0,,,,,,,72,,,0.2,1749.0680033609387,1749.8684955788776,Y,l,go,None,0,,,,,,,,,,,,,,,,,22,001,20,w,Psychologie,2023-01-16_15h30.36.290,00_bat_bachelor,2022.2.4,59.950499082230955,
,,,,,,,,,,,,1,0,1,0,73,0,73,0,,,,,,,73,,,0.2,1750.0686889364151,1750.8692558209877,Y,None,nogo,None,1,,,,,,,,,,,,,,,,,22,001,20,w,Psychologie,2023-01-16_15h30.36.290,00_bat_bachelor,2022.2.4,59.950499082230955,
,,,,,,,,,,,,1,0,1,0,74,0,74,0,,,,,,,74,,,0.2,1751.0695330571616,,X,d,go,d,1,0.43942156370030716,,,,,,,,,,,,,,,,22,001,20,w,Psychologie,2023-01-16_15h30.36.290,00_bat_bachelor,2022.2.4,59.950499082230955,
,,,,,,,,,,,,1,0,1,0,75,0,75,0,,,,,,,75,,,0.2,1751.8200602084398,,Y,l,go,l,1,0.5837856149300933,,,,,,,,,,,,,,,,22,001,20,w,Psychologie,2023-01-16_15h30.36.290,00_bat_bachelor,2022.2.4,59.950499082230955,
,,,,,,,,,,,,1,0,1,0,76,0,76,0,,,,,,,76,,,0.2,1752.720792377775,,X,d,go,d,1,0.5796930108917877,,,,,,,,,,,,,,,,22,001,20,w,Psychologie,2023-01-16_15h30.36.290,00_bat_bachelor,2022.2.4,59.950499082230955,
,,,,,,,,,,,,1,0,1,0,77,0,77,0,,,,,,,77,,,0.2,1753.6046207977342,,Y,l,go,l,1,0.5586312029045075,,,,,,,,,,,,,,,,22,001,20,w,Psychologie,2023-01-16_15h30.36.290,00_bat_bachelor,2022.2.4,59.950499082230955,
,,,,,,,,,,,,1,0,1,0,78,0,78,0,,,,,,,78,,,0.2,1754.4882121269475,,X,d,go,d,1,0.5404843026190065,,,,,,,,,,,,,,,,22,001,20,w,Psychologie,2023-01-16_15h30.36.290,00_bat_bachelor,2022.2.4,59.950499082230955,
,,,,,,,,,,,,1,0,1,0,79,0,79,0,,,,,,,79,,,0.2,1755.3389506235253,,Y,l,go,l,1,0.6174326289328746,,,,,,,,,,,,,,,,22,001,20,w,Psychologie,2023-01-16_15h30.36.290,00_bat_bachelor,2022.2.4,59.950499082230955,
,,,,,,,,,,,,1,0,1,0,80,0,80,0,,,,,,,80,,,0.2,1756.2563062999398,,X,d,go,d,1,0.5162239507772028,,,,,,,,,,,,,,,,22,001,20,w,Psychologie,2023-01-16_15h30.36.290,00_bat_bachelor,2022.2.4,59.950499082230955,
,,,,,,,,,,,,1,0,1,0,81,0,81,0,,,,,,,81,,,0.2,1757.0737386309193,,Y,l,go,l,1,0.4830239668372087,,,,,,,,,,,,,,,,22,001,20,w,Psychologie,2023-01-16_15h30.36.290,00_bat_bachelor,2022.2.4,59.950499082230955,
,,,,,,,,,,,,1,0,1,0,82,0,82,0,,,,,,,82,,,0.2,1757.857694129576,1758.6580908324104,Y,None,nogo,None,1,,,,,,,,,,,,,,,,,22,001,20,w,Psychologie,2023-01-16_15h30.36.290,00_bat_bachelor,2022.2.4,59.950499082230955,
,,,,,,,,,,,,1,0,1,0,83,0,83,0,,,,,,,83,,,0.2,1758.85844709893,,X,d,go,d,1,0.40947297221282497,,,,,,,,,,,,,,,,22,001,20,w,Psychologie,2023-01-16_15h30.36.290,00_bat_bachelor,2022.2.4,59.950499082230955,
,,,,,,,,,,,,1,0,1,0,84,0,84,0,,,,,,,84,,,0.2,1759.5754581452347,,Y,l,go,None,0,,,,,,,,,,,,,,,,,22,001,20,w,Psychologie,2023-01-16_15h30.36.290,00_bat_bachelor,2022.2.4,59.950499082230955,
,,,,,,,,,,,,1,0,1,0,85,0,85,0,,,,,,,85,,,0.2,1760.5762222660705,,Y,None,nogo,None,1,,,,,,,,,,,,,,,,,22,001,20,w,Psychologie,2023-01-16_15h30.36.290,00_bat_bachelor,2022.2.4,59.950499082230955,
,,,,,,,,,,,,1,0,1,0,86,0,86,0,,,,,,,86,,,0.2,1761.577709780482,,X,d,go,d,1,0.18646362581057474,,,,,,,,,,,,,,,,22,001,20,w,Psychologie,2023-01-16_15h30.36.290,00_bat_bachelor,2022.2.4,59.950499082230955,
,,,,,,,,,,,,1,0,1,0,87,0,87,0,,,,,,,87,,,0.2,1762.0947631055606,1762.895207808353,Y,l,go,None,0,,,,,,,,,,,,,,,,,22,001,20,w,Psychologie,2023-01-16_15h30.36.290,00_bat_bachelor,2022.2.4,59.950499082230955,
,,,,,,,,,,,,1,0,1,0,88,0,88,0,,,,,,,88,,,0.2,1763.0955960748834,1763.8962119290954,Y,None,nogo,None,1,,,,,,,,,,,,,,,,,22,001,20,w,Psychologie,2023-01-16_15h30.36.290,00_bat_bachelor,2022.2.4,59.950499082230955,
,,,,,,,,,,,,1,0,1,0,89,0,89,0,,,,,,,89,,,0.2,1764.0960479534115,1764.8966958076344,X,d,go,None,0,,,,,,,,,,,,,,,,,22,001,20,w,Psychologie,2023-01-16_15h30.36.290,00_bat_bachelor,2022.2.4,59.950499082230955,
,,,,,,,,,,,,1,0,1,0,90,0,90,0,,,,,,,90,,,0.2,1765.0965153471334,,Y,l,go,l,1,0.04267072578659281,,,,,,,,,,,,,,,,22,001,20,w,Psychologie,2023-01-16_15h30.36.290,00_bat_bachelor,2022.2.4,59.950499082230955,
,,,,,,,,,,,,1,0,1,0,91,0,91,0,,,,,,,91,,,0.2,1765.463669108518,1766.2642636294477,Y,None,nogo,None,1,,,,,,,,,,,,,,,,,22,001,20,w,Psychologie,2023-01-16_15h30.36.290,00_bat_bachelor,2022.2.4,59.950499082230955,
,,,,,,,,,,,,1,0,1,0,92,0,92,0,,,,,,,92,,,0.2,1766.4644555323757,1767.2650452048401,X,d,go,None,0,,,,,,,,,,,,,,,,,22,001,20,w,Psychologie,2023-01-16_15h30.36.290,00_bat_bachelor,2022.2.4,59.950499082230955,
,,,,,,,,,,,,1,0,1,0,93,0,93,0,,,,,,,93,,,0.2,1767.4651314108633,1768.2656342954724,Y,l,go,None,0,,,,,,,,,,,,,,,,,22,001,20,w,Psychologie,2023-01-16_15h30.36.290,00_bat_bachelor,2022.2.4,59.950499082230955,
,,,,,,,,,,,,1,0,1,0,94,0,94,0,,,,,,,94,,,0.2,1768.4656511681387,,X,d,go,d,1,0.5155558298574761,,,,,,,,,,,,,,,,22,001,20,w,Psychologie,2023-01-16_15h30.36.290,00_bat_bachelor,2022.2.4,59.950499082230955,
,,,,,,,,,,,,1,0,1,0,95,0,95,0,,,,,,,95,,,0.2,1769.2828701658873,,X,None,nogo,l,0,0.49698953580809757,,,,,,,,,,,,,,,,22,001,20,w,Psychologie,2023-01-16_15h30.36.290,00_bat_bachelor,2022.2.4,59.950499082230955,
,,,,,,,,,,,,1,0,1,0,96,0,96,0,,,,,,,96,,,0.2,1770.0836566867074,1770.8842264803825,Y,l,go,None,0,,,,,,,,,,,,,,,,,22,001,20,w,Psychologie,2023-01-16_15h30.36.290,00_bat_bachelor,2022.2.4,59.950499082230955,
,,,,,,,,,,,,1,0,1,0,97,0,97,0,,,,,,,97,,,0.2,1771.0842162015615,,X,d,go,d,1,0.007730621553491801,,,,,,,,,,,,,,,,22,001,20,w,Psychologie,2023-01-16_15h30.36.290,00_bat_bachelor,2022.2.4,59.950499082230955,
,,,,,,,,,,,,1,0,1,0,98,0,98,0,,,,,,,98,,,0.2,1771.4013229569537,1772.201704629464,X,None,nogo,None,1,,,,,,,,,,,,,,,,,22,001,20,w,Psychologie,2023-01-16_15h30.36.290,00_bat_bachelor,2022.2.4,59.950499082230955,
,,,,,,,,,,,,1,0,1,0,99,0,99,0,,,,,,,99,,,0.2,1772.401865502121,,Y,l,go,None,0,,,,,,,,,,,,,,,,,22,001,20,w,Psychologie,2023-01-16_15h30.36.290,00_bat_bachelor,2022.2.4,59.950499082230955,
,,,,,,,,,,,,1,0,1,0,100,0,100,0,,,,,,,100,,,0.2,1773.4026281684055,1774.203245477227,X,d,go,None,0,,,,,,,,,,,,,,,,,22,001,20,w,Psychologie,2023-01-16_15h30.36.290,00_bat_bachelor,2022.2.4,59.950499082230955,
,,,,,,,,,,,,1,0,1,0,101,0,101,0,,,,,,,101,,,0.2,1774.4036085315747,,Y,l,go,None,0,,,,,,,,,,,,,,,,,22,001,20,w,Psychologie,2023-01-16_15h30.36.290,00_bat_bachelor,2022.2.4,59.950499082230955,
,,,,,,,,,,,,1,0,1,0,102,0,102,0,,,,,,,102,,,0.2,1775.4044337432715,,X,d,go,d,1,0.6164289930602536,,,,,,,,,,,,,,,,22,001,20,w,Psychologie,2023-01-16_15h30.36.290,00_bat_bachelor,2022.2.4,59.950499082230955,
,,,,,,,,,,,,1,0,1,0,103,0,103,0,,,,,,,103,,,0.2,1776.3216405713465,,Y,l,go,l,1,0.46633015671977773,,,,,,,,,,,,,,,,22,001,20,w,Psychologie,2023-01-16_15h30.36.290,00_bat_bachelor,2022.2.4,59.950499082230955,
,,,,,,,,,,,,1,0,1,0,104,0,104,0,,,,,,,104,,,0.2,1777.0889861386386,,X,d,go,d,1,0.5153706177952699,,,,,,,,,,,,,,,,22,001,20,w,Psychologie,2023-01-16_15h30.36.290,00_bat_bachelor,2022.2.4,59.950499082230955,
,,,,,,,,,,,,1,0,1,0,105,0,105,0,,,,,,,105,,,0.2,1777.906049500103,,Y,l,go,l,1,0.5469604206737131,,,,,,,,,,,,,,,,22,001,20,w,Psychologie,2023-01-16_15h30.36.290,00_bat_bachelor,2022.2.4,59.950499082230955,
,,,,,,,,,,,,1,0,1,0,106,0,106,0,,,,,,,106,,,0.2,1778.7568534511956,,X,d,go,d,1,0.5118094073841348,,,,,,,,,,,,,,,,22,001,20,w,Psychologie,2023-01-16_15h30.36.290,00_bat_bachelor,2022.2.4,59.950499082230955,
,,,,,,,,,,,,1,0,1,0,107,0,107,0,,,,,,,107,,,0.2,1779.5741829943145,,Y,l,go,l,1,0.5103466202272102,,,,,,,,,,,,,,,,22,001,20,w,Psychologie,2023-01-16_15h30.36.290,00_bat_bachelor,2022.2.4,59.950499082230955,
,,,,,,,,,,,,1,0,1,0,108,0,108,0,,,,,,,108,,,0.2,1780.3914679313893,,Y,None,nogo,d,0,0.4941958402050659,,,,,,,,,,,,,,,,22,001,20,w,Psychologie,2023-01-16_15h30.36.290,00_bat_bachelor,2022.2.4,59.950499082230955,
,,,,,,,,,,,,1,0,1,0,109,0,109,0,,,,,,,109,,,0.2,1781.1920639068703,,Y,None,nogo,None,1,,,,,,,,,,,,,,,,,22,001,20,w,Psychologie,2023-01-16_15h30.36.290,00_bat_bachelor,2022.2.4,59.950499082230955,
,,,,,,,,,,,,1,0,1,0,110,0,110,0,,,,,,,110,,,0.2,1782.193009845796,,X,d,go,d,1,0.5155136480461806,,,,,,,,,,,,,,,,22,001,20,w,Psychologie,2023-01-16_15h30.36.290,00_bat_bachelor,2022.2.4,59.950499082230955,
,,,,,,,,,,,,1,0,1,0,111,0,111,0,,,,,,,111,,,0.2,1783.0099413284915,1783.8105523342965,Y,l,go,None,0,,,,,,,,,,,,,,,,,22,001,20,w,Psychologie,2023-01-16_15h30.36.290,00_bat_bachelor,2022.2.4,59.950499082230955,
,,,,,,,,,,,,1,0,1,0,112,0,112,0,,,,,,,112,,,0.2,1784.0109401158988,1784.8114255459514,Y,None,nogo,None,1,,,,,,,,,,,,,,,,,22,001,20,w,Psychologie,2023-01-16_15h30.36.290,00_bat_bachelor,2022.2.4,59.950499082230955,
,,,,,,,,,,,,1,0,1,0,113,0,113,0,,,,,,,113,,,0.2,1785.0116872670478,,X,d,go,d,1,0.49692796007730067,,,,,,,,,,,,,,,,22,001,20,w,Psychologie,2023-01-16_15h30.36.290,00_bat_bachelor,2022.2.4,59.950499082230955,
,,,,,,,,,,,,1,0,1,0,114,0,114,0,,,,,,,114,,,0.2,1785.828925658716,,Y,l,go,l,1,0.44763198401778936,,,,,,,,,,,,,,,,22,001,20,w,Psychologie,2023-01-16_15h30.36.290,00_bat_bachelor,2022.2.4,59.950499082230955,
,,,,,,,,,,,,1,0,1,0,115,0,115,0,,,,,,,115,,,0.2,1786.5794659008388,,X,d,go,d,1,0.5304426104994491,,,,,,,,,,,,,,,,22,001,20,w,Psychologie,2023-01-16_15h30.36.290,00_bat_bachelor,2022.2.4,59.950499082230955,
,,,,,,,,,,,,1,0,1,0,116,0,116,0,,,,,,,116,,,0.2,1787.4137782236212,,X,None,nogo,l,0,0.44781962025444955,,,,,,,,,,,,,,,,22,001,20,w,Psychologie,2023-01-16_15h30.36.290,00_bat_bachelor,2022.2.4,59.950499082230955,
,,,,,,,,,,,,1,0,1,0,117,0,117,0,,,,,,,117,,,0.2,1788.1638520417619,1788.964480986935,Y,l,go,None,0,,,,,,,,,,,,,,,,,22,001,20,w,Psychologie,2023-01-16_15h30.36.290,00_bat_bachelor,2022.2.4,59.950499082230955,
,,,,,,,,,,,,1,0,1,0,118,0,118,0,,,,,,,118,,,0.2,1789.164645253506,1789.9654390470823,X,d,go,None,0,,,,,,,,,,,,,,,,,22,001,20,w,Psychologie,2023-01-16_15h30.36.290,00_bat_bachelor,2022.2.4,59.950499082230955,
,,,,,,,,,,,,1,0,1,0,119,0,119,0,,,,,,,119,,,0.2,1790.1656028287834,1790.9660281376564,Y,l,go,None,0,,,,,,,,,,,,,,,,,22,001,20,w,Psychologie,2023-01-16_15h30.36.290,00_bat_bachelor,2022.2.4,59.950499082230955,
,,,,,,,,,,,,1,0,1,0,120,0,120,0,,,,,,,120,,,0.2,1791.1661390709342,1791.9669978341553,X,d,go,None,0,,,,,,,,,,,,,,,,,22,001,20,w,Psychologie,2023-01-16_15h30.36.290,00_bat_bachelor,2022.2.4,59.950499082230955,
,,,,,,,,,,,,1,0,1,0,121,0,121,0,,,,,,,121,,,0.2,1792.1670893735136,,X,None,nogo,d,0,0.38225359143689275,,,,,,,,,,,,,,,,22,001,20,w,Psychologie,2023-01-16_15h30.36.290,00_bat_bachelor,2022.2.4,59.950499082230955,
,,,,,,,,,,,,1,0,1,0,122,0,122,0,,,,,,,122,,,0.2,1792.8509377692244,,Y,l,go,l,1,0.6092217238037847,,,,,,,,,,,,,,,,22,001,20,w,Psychologie,2023-01-16_15h30.36.290,00_bat_bachelor,2022.2.4,59.950499082230955,
,,,,,,,,,,,,1,0,1,0,123,0,123,0,,,,,,,123,,,0.2,1793.7682706578053,,X,d,go,d,1,0.44493089441675693,,,,,,,,,,,,,,,,22,001,20,w,Psychologie,2023-01-16_15h30.36.290,00_bat_bachelor,2022.2.4,59.950499082230955,
,,,,,,,,,,,,1,0,1,0,124,0,124,0,,,,,,,124,,,0.2,1794.518922415038,,Y,l,go,l,1,0.4780329389614053,,,,,,,,,,,,,,,,22,001,20,w,Psychologie,2023-01-16_15h30.36.290,00_bat_bachelor,2022.2.4,59.950499082230955,
,,,,,,,,,,,,1,0,1,0,125,0,125,0,,,,,,,125,,,0.2,1795.3028788834345,,X,d,go,d,1,0.5904643995454535,,,,,,,,,,,,,,,,22,001,20,w,Psychologie,2023-01-16_15h30.36.290,00_bat_bachelor,2022.2.4,59.950499082230955,
,,,,,,,,,,,,1,0,1,0,126,0,126,0,,,,,,,126,,,0.2,1796.2034675377072,,X,None,nogo,None,1,,,,,,,,,,,,,,,,,22,001,20,w,Psychologie,2023-01-16_15h30.36.290,00_bat_bachelor,2022.2.4,59.950499082230955,
,,,,,,,,,,,,1,0,1,0,127,0,127,0,,,,,,,127,,,0.2,1797.2042015979532,,Y,l,go,l,1,0.03239048836985603,,,,,,,,,,,,,,,,22,001,20,w,Psychologie,2023-01-16_15h30.36.290,00_bat_bachelor,2022.2.4,59.950499082230955,
,,,,,,,,,,,,1,0,1,0,128,0,128,0,,,,,,,128,,,0.2,1797.5376399817178,,X,d,go,None,0,,,,,,,,,,,,,,,,,22,001,20,w,Psychologie,2023-01-16_15h30.36.290,00_bat_bachelor,2022.2.4,59.950499082230955,
,,,,,,,,,,,,1,0,1,0,129,0,129,0,,,,,,,129,,,0.2,1798.5383061632165,1799.3389705023146,X,None,nogo,None,1,,,,,,,,,,,,,,,,,22,001,20,w,Psychologie,2023-01-16_15h30.36.290,00_bat_bachelor,2022.2.4,59.950499082230955,
,,,,,,,,,,,,1,0,1,0,130,0,130,0,,,,,,,130,,,0.2,1799.5393136779312,1800.3396783807548,X,None,nogo,None,1,,,,,,,,,,,,,,,,,22,001,20,w,Psychologie,2023-01-16_15h30.36.290,00_bat_bachelor,2022.2.4,59.950499082230955,
,,,,,,,,,,,,1,0,1,0,131,0,131,0,,,,,,,131,,,0.2,1800.5401068896172,,Y,l,go,l,1,0.42437478312058374,,,,,,,,,,,,,,,,22,001,20,w,Psychologie,2023-01-16_15h30.36.290,00_bat_bachelor,2022.2.4,59.950499082230955,
,,,,,,,,,,,,1,0,1,0,132,0,132,0,,,,,,,132,,,0.2,1801.2737763521145,1802.0744465093594,X,d,go,None,0,,,,,,,,,,,,,,,,,22,001,20,w,Psychologie,2023-01-16_15h30.36.290,00_bat_bachelor,2022.2.4,59.950499082230955,
,,,,,,,,,,,,1,0,1,0,133,0,133,0,,,,,,,133,,,0.2,1802.274835745513,,X,None,nogo,None,1,,,,,,,,,,,,,,,,,22,001,20,w,Psychologie,2023-01-16_15h30.36.290,00_bat_bachelor,2022.2.4,59.950499082230955,
,,,,,,,,,,,,1,0,1,0,134,0,134,0,,,,,,,134,,,0.2,1803.2752658059471,,Y,l,go,l,1,0.010024438612163067,,,,,,,,,,,,,,,,22,001,20,w,Psychologie,2023-01-16_15h30.36.290,00_bat_bachelor,2022.2.4,59.950499082230955,
,,,,,,,,,,,,1,0,1,0,135,0,135,0,,,,,,,135,,,0.2,1803.5922881976585,1804.3930432033958,X,d,go,None,0,,,,,,,,,,,,,,,,,22,001,20,w,Psychologie,2023-01-16_15h30.36.290,00_bat_bachelor,2022.2.4,59.950499082230955,
,,,,,,,,,,,,1,0,1,0,136,0,136,0,,,,,,,136,,,0.2,1804.5931798336096,,X,None,nogo,d,0,0.019100313016679138,,,,,,,,,,,,,,,,22,001,20,w,Psychologie,2023-01-16_15h30.36.290,00_bat_bachelor,2022.2.4,59.950499082230955,
,,,,,,,,,,,,1,0,1,0,137,0,137,0,,,,,,,137,,,0.2,1804.9265886416542,1805.7273659503553,Y,l,go,None,0,,,,,,,,,,,,,,,,,22,001,20,w,Psychologie,2023-01-16_15h30.36.290,00_bat_bachelor,2022.2.4,59.950499082230955,
,,,,,,,,,,,,1,0,1,0,138,0,138,0,,,,,,,138,,,0.2,1805.9275054896716,,X,d,go,d,1,0.574036771140527,,,,,,,,,,,,,,,,22,001,20,w,Psychologie,2023-01-16_15h30.36.290,00_bat_bachelor,2022.2.4,59.950499082230955,
,,,,,,,,,,,,1,0,1,0,139,0,139,0,,,,,,,139,,,0.2,1806.811563727737,,X,None,nogo,None,1,,,,,,,,,,,,,,,,,22,001,20,w,Psychologie,2023-01-16_15h30.36.290,00_bat_bachelor,2022.2.4,59.950499082230955,
,,,,,,,,,,,,1,0,1,0,140,0,140,0,,,,,,,140,,,0.2,1807.812269666756,,Y,l,go,l,1,0.09588330605765805,,,,,,,,,,,,,,,,22,001,20,w,Psychologie,2023-01-16_15h30.36.290,00_bat_bachelor,2022.2.4,59.950499082230955,
,,,,,,,,,,,,1,0,1,0,141,0,141,0,,,,,,,141,,,0.2,1808.2126457151026,,X,d,go,d,1,0.6399470422184095,,,,,,,,,,,,,,,,22,001,20,w,Psychologie,2023-01-16_15h30.36.290,00_bat_bachelor,2022.2.4,59.950499082230955,
,,,,,,,,,,,,1,0,1,0,142,0,142,0,,,,,,,142,,,0.2,1809.1633759207907,,X,None,nogo,None,1,,,,,,,,,,,,,,,,,22,001,20,w,Psychologie,2023-01-16_15h30.36.290,00_bat_bachelor,2022.2.4,59.950499082230955,
,,,,,,,,,,,,1,0,1,0,143,0,143,0,,,,,,,143,,,0.2,1810.1641604052274,,Y,l,go,None,0,,,,,,,,,,,,,,,,,22,001,20,w,Psychologie,2023-01-16_15h30.36.290,00_bat_bachelor,2022.2.4,59.950499082230955,
,,,,,,,,,,,,1,0,1,0,144,0,144,0,,,,,,,144,,,0.2,1811.1650782229844,,X,d,go,l,0,0.00814710621489212,,,,,,,,,,,,,,,,22,001,20,w,Psychologie,2023-01-16_15h30.36.290,00_bat_bachelor,2022.2.4,59.950499082230955,
,,,,,,,,,,,,1,0,1,0,145,0,145,0,,,,,,,145,,,0.2,1811.481857705745,1812.2822393783135,X,None,nogo,None,1,,,,,,,,,,,,,,,,,22,001,20,w,Psychologie,2023-01-16_15h30.36.290,00_bat_bachelor,2022.2.4,59.950499082230955,
,,,,,,,,,,,,1,0,1,0,146,0,146,0,,,,,,,146,,,0.2,1812.482597099326,1813.2830267718527,Y,l,go,None,0,,,,,,,,,,,,,,,,,22,001,20,w,Psychologie,2023-01-16_15h30.36.290,00_bat_bachelor,2022.2.4,59.950499082230955,
,,,,,,,,,,,,1,0,1,0,147,0,147,0,,,,,,,147,,,0.2,1813.4831474021194,,X,d,go,None,0,,,,,,,,,,,,,,,,,22,001,20,w,Psychologie,2023-01-16_15h30.36.290,00_bat_bachelor,2022.2.4,59.950499082230955,
,,,,,,,,,,,,1,0,1,0,148,0,148,0,,,,,,,148,,,0.2,1814.4839231593069,,Y,l,go,d,0,0.5446738763712347,,,,,,,,,,,,,,,,22,001,20,w,Psychologie,2023-01-16_15h30.36.290,00_bat_bachelor,2022.2.4,59.950499082230955,
,,,,,,,,,,,,1,0,1,0,149,0,149,0,,,,,,,149,,,0.2,1815.3347882013186,,X,d,go,None,0,,,,,,,,,,,,,,,,,22,001,20,w,Psychologie,2023-01-16_15h30.36.290,00_bat_bachelor,2022.2.4,59.950499082230955,
,,,,,,,,,,,,1,0,1,0,150,0,150,0,,,,,,,150,,,0.2,1816.3355498979217,,X,None,nogo,None,1,,,,,,,,,,,,,,,,,22,001,20,w,Psychologie,2023-01-16_15h30.36.290,00_bat_bachelor,2022.2.4,59.950499082230955,
,,,,,,,,,,,,1,0,1,0,151,0,151,0,,,,,,,151,,,0.2,1817.3362917157356,1818.1367616306525,Y,l,go,None,0,,,,,,,,,,,,,,,,,22,001,20,w,Psychologie,2023-01-16_15h30.36.290,00_bat_bachelor,2022.2.4,59.950499082230955,
,,,,,,,,,,,,1,0,1,0,152,0,152,0,,,,,,,152,,,0.2,1818.3370049275109,,X,d,go,l,0,0.019763585412874818,,,,,,,,,,,,,,,,22,001,20,w,Psychologie,2023-01-16_15h30.36.290,00_bat_bachelor,2022.2.4,59.950499082230955,
,,,,,,,,,,,,1,0,1,0,153,0,153,0,,,,,,,153,,,0.2,1818.6706411293708,1819.4713253472582,Y,l,go,None,0,,,,,,,,,,,,,,,,,22,001,20,w,Psychologie,2023-01-16_15h30.36.290,00_bat_bachelor,2022.2.4,59.950499082230955,
,,,,,,,,,,,,1,0,1,0,154,0,154,0,,,,,,,154,,,0.2,1819.6713926441735,1820.4719386802753,Y,None,nogo,None,1,,,,,,,,,,,,,,,,,22,001,20,w,Psychologie,2023-01-16_15h30.36.290,00_bat_bachelor,2022.2.4,59.950499082230955,
,,,,,,,,,,,,1,0,1,0,155,0,155,0,,,,,,,155,,,0.2,1820.6719933711574,1821.4727134677814,X,d,go,None,0,,,,,,,,,,,,,,,,,22,001,20,w,Psychologie,2023-01-16_15h30.36.290,00_bat_bachelor,2022.2.4,59.950499082230955,
,,,,,,,,,,,,1,0,1,0,156,0,156,0,,,,,,,156,,,0.2,1821.6728680373635,,Y,l,go,d,0,0.5549124168464914,,,,,,,,,,,,,,,,22,001,20,w,Psychologie,2023-01-16_15h30.36.290,00_bat_bachelor,2022.2.4,59.950499082230955,
,,,,,,,,,,,,1,0,1,0,157,0,157,0,,,,,,,157,,,0.2,1822.5402368289651,1823.3408740165178,X,d,go,None,0,,,,,,,,,,,,,,,,,22,001,20,w,Psychologie,2023-01-16_15h30.36.290,00_bat_bachelor,2022.2.4,59.950499082230955,
,,,,,,,,,,,,1,0,1,0,158,0,158,0,,,,,,,158,,,0.2,1823.5412681011949,,Y,l,go,l,1,0.623803534952458,,,,,,,,,,,,,,,,22,001,20,w,Psychologie,2023-01-16_15h30.36.290,00_bat_bachelor,2022.2.4,59.950499082230955,
,,,,,,,,,,,,1,0,1,0,159,0,159,0,,,,,,,159,,,0.2,1824.475009224203,,X,d,go,d,1,0.4578293123631738,,,,,,,,,,,,,,,,22,001,20,w,Psychologie,2023-01-16_15h30.36.290,00_bat_bachelor,2022.2.4,59.950499082230955,
,,,,,,,,,,,,1,0,1,0,160,0,160,0,,,,,,,160,,,0.2,1825.2422864279943,,X,None,nogo,None,1,,,,,,,,,,,,,,,,,22,001,20,w,Psychologie,2023-01-16_15h30.36.290,00_bat_bachelor,2022.2.4,59.950499082230955,
,,,,,,,,,,,,1,0,1,0,161,0,161,0,,,,,,,161,,,0.2,1826.2429404882714,,Y,l,go,l,1,0.4008067945833318,,,,,,,,,,,,,,,,22,001,20,w,Psychologie,2023-01-16_15h30.36.290,00_bat_bachelor,2022.2.4,59.950499082230955,
,,,,,,,,,,,,1,0,1,0,162,0,162,0,,,,,,,162,,,0.2,1826.943607784924,1827.7441533361562,X,d,go,None,0,,,,,,,,,,,,,,,,,22,001,20,w,Psychologie,2023-01-16_15h30.36.290,00_bat_bachelor,2022.2.4,59.950499082230955,
,,,,,,,,,,,,1,0,1,0,163,0,163,0,,,,,,,163,,,0.2,1827.9443859663443,1828.7449441236677,X,None,nogo,None,1,,,,,,,,,,,,,,,,,22,001,20,w,Psychologie,2023-01-16_15h30.36.290,00_bat_bachelor,2022.2.4,59.950499082230955,
,,,,,,,,,,,,1,0,1,0,164,0,164,0,,,,,,,164,,,0.2,1828.9450652387459,,Y,l,go,l,1,0.2123065223568119,,,,,,,,,,,,,,,,22,001,20,w,Psychologie,2023-01-16_15h30.36.290,00_bat_bachelor,2022.2.4,59.950499082230955,
,,,,,,,,,,,,1,0,1,0,165,0,165,0,,,,,,,165,,,0.2,1829.4622198970756,1830.26259817573,X,d,go,None,0,,,,,,,,,,,,,,,,,22,001,20,w,Psychologie,2023-01-16_15h30.36.290,00_bat_bachelor,2022.2.4,59.950499082230955,
,,,,,,,,,,,,1,0,1,0,166,0,166,0,,,,,,,166,,,0.2,1830.4627396544092,1831.2635814479436,X,None,nogo,None,1,,,,,,,,,,,,,,,,,22,001,20,w,Psychologie,2023-01-16_15h30.36.290,00_bat_bachelor,2022.2.4,59.950499082230955,
,,,,,,,,,,,,1,0,1,0,167,0,167,0,,,,,,,167,,,0.2,1831.4635663207155,,Y,l,go,d,0,0.39700170553987846,,,,,,,,,,,,,,,,22,001,20,w,Psychologie,2023-01-16_15h30.36.290,00_bat_bachelor,2022.2.4,59.950499082230955,
,,,,,,,,,,,,1,0,1,0,168,0,168,0,,,,,,,168,,,0.2,1832.1642564052017,,X,d,go,l,0,0.09552742744563147,,,,,,,,,,,,,,,,22,001,20,w,Psychologie,2023-01-16_15h30.36.290,00_bat_bachelor,2022.2.4,59.950499082230955,
,,,,,,,,,,,,1,0,1,0,169,0,169,0,,,,,,,169,,,0.2,1832.5645893019973,1833.3649826109177,Y,l,go,None,0,,,,,,,,,,,,,,,,,22,001,20,w,Psychologie,2023-01-16_15h30.36.290,00_bat_bachelor,2022.2.4,59.950499082230955,
,,,,,,,,,,,,1,0,1,0,170,0,170,0,,,,,,,170,,,0.2,1833.5654222713201,,X,d,go,d,1,0.5192993431701325,,,,,,,,,,,,,,,,22,001,20,w,Psychologie,2023-01-16_15h30.36.290,00_bat_bachelor,2022.2.4,59.950499082230955,
,,,,,,,,,,,,1,0,1,0,171,0,171,0,,,,,,,171,,,0.2,1834.3992919276352,,Y,l,go,l,1,0.5494050255510956,,,,,,,,,,,,,,,,22,001,20,w,Psychologie,2023-01-16_15h30.36.290,00_bat_bachelor,2022.2.4,59.950499082230955,
,,,,,,,,,,,,1,0,1,0,172,0,172,0,,,,,,,172,,,0.2,1835.2498529697768,1836.0503616725327,X,d,go,None,0,,,,,,,,,,,,,,,,,22,001,20,w,Psychologie,2023-01-16_15h30.36.290,00_bat_bachelor,2022.2.4,59.950499082230955,
,,,,,,,,,,,,1,0,1,0,173,0,173,0,,,,,,,173,,,0.2,1836.2507232723874,,Y,l,go,l,1,0.2652592239319347,,,,,,,,,,,,,,,,22,001,20,w,Psychologie,2023-01-16_15h30.36.290,00_bat_bachelor,2022.2.4,59.950499082230955,
,,,,,,,,,,,,1,0,1,0,174,0,174,0,,,,,,,174,,,0.2,1836.8177348762401,1837.6182731547742,Y,None,nogo,None,1,,,,,,,,,,,,,,,,,22,001,20,w,Psychologie,2023-01-16_15h30.36.290,00_bat_bachelor,2022.2.4,59.950499082230955,
,,,,,,,,,,,,1,0,1,0,175,0,175,0,,,,,,,175,,,0.2,1837.818369057728,,X,d,go,d,1,0.33041313174180686,,,,,,,,,,,,,,,,22,001,20,w,Psychologie,2023-01-16_15h30.36.290,00_bat_bachelor,2022.2.4,59.950499082230955,
,,,,,,,,,,,,1,0,1,0,176,0,176,0,,,,,,,176,,,0.2,1838.4522999019246,,Y,l,go,None,0,,,,,,,,,,,,,,,,,22,001,20,w,Psychologie,2023-01-16_15h30.36.290,00_bat_bachelor,2022.2.4,59.950499082230955,
,,,,,,,,,,,,1,0,1,0,177,0,177,0,,,,,,,177,,,0.2,1839.4531546893995,1840.2536779376096,X,d,go,None,0,,,,,,,,,,,,,,,,,22,001,20,w,Psychologie,2023-01-16_15h30.36.290,00_bat_bachelor,2022.2.4,59.950499082230955,
,,,,,,,,,,,,1,0,1,0,178,0,178,0,,,,,,,178,,,0.2,1840.4536788103287,,Y,l,go,l,1,0.5580309607903473,,,,,,,,,,,,,,,,22,001,20,w,Psychologie,2023-01-16_15h30.36.290,00_bat_bachelor,2022.2.4,59.950499082230955,
,,,,,,,,,,,,1,0,1,0,179,0,179,0,,,,,,,179,,,0.2,1841.321257541189,,X,d,go,None,0,,,,,,,,,,,,,,,,,22,001,20,w,Psychologie,2023-01-16_15h30.36.290,00_bat_bachelor,2022.2.4,59.950499082230955,
,,,,,,,,,,,,1,0,1,0,180,0,180,0,,,,,,,180,,,0.2,1842.3217996015446,1843.1224367890973,Y,l,go,None,0,,,,,,,,,,,,,,,,,22,001,20,w,Psychologie,2023-01-16_15h30.36.290,00_bat_bachelor,2022.2.4,59.950499082230955,
,,,,,,,,,,,,1,0,1,0,181,0,181,0,,,,,,,181,,,0.2,1843.32259426784,,X,d,go,None,0,,,,,,,,,,,,,,,,,22,001,20,w,Psychologie,2023-01-16_15h30.36.290,00_bat_bachelor,2022.2.4,59.950499082230955,
,,,,,,,,,,,,1,0,1,0,182,0,182,0,,,,,,,182,,,0.2,1844.3235382673447,1845.1241075762082,X,None,nogo,None,1,,,,,,,,,,,,,,,,,22,001,20,w,Psychologie,2023-01-16_15h30.36.290,00_bat_bachelor,2022.2.4,59.950499082230955,
,,,,,,,,,,,,1,0,1,0,183,0,183,0,,,,,,,183,,,0.2,1845.324279115477,,Y,l,go,l,1,0.02473715873202309,,,,,,,,,,,,,,,,22,001,20,w,Psychologie,2023-01-16_15h30.36.290,00_bat_bachelor,2022.2.4,59.950499082230955,
,,,,,,,,,,,,1,0,1,0,184,0,184,0,,,,,,,184,,,0.2,1845.657678226591,1846.4581655960064,X,d,go,None,0,,,,,,,,,,,,,,,,,22,001,20,w,Psychologie,2023-01-16_15h30.36.290,00_bat_bachelor,2022.2.4,59.950499082230955,
,,,,,,,,,,,,1,0,1,0,185,0,185,0,,,,,,,185,,,0.2,1846.6583759232308,,Y,l,go,d,0,0.03410685114795342,,,,,,,,,,,,,,,,22,001,20,w,Psychologie,2023-01-16_15h30.36.290,00_bat_bachelor,2022.2.4,59.950499082230955,
,,,,,,,,,,,,1,0,1,0,186,0,186,0,,,,,,,186,,,0.2,1847.0086201170343,,X,d,go,None,0,,,,,,,,,,,,,,,,,22,001,20,w,Psychologie,2023-01-16_15h30.36.290,00_bat_bachelor,2022.2.4,59.950499082230955,
,,,,,,,,,,,,1,0,1,0,187,0,187,0,,,,,,,187,,,0.2,1848.0095776923117,,Y,l,go,None,0,,,,,,,,,,,,,,,,,22,001,20,w,Psychologie,2023-01-16_15h30.36.290,00_bat_bachelor,2022.2.4,59.950499082230955,
,,,,,,,,,,,,1,0,1,0,188,0,188,0,,,,,,,188,,,0.2,1849.0101711465977,1849.8107036069268,Y,None,nogo,None,1,,,,,,,,,,,,,,,,,22,001,20,w,Psychologie,2023-01-16_15h30.36.290,00_bat_bachelor,2022.2.4,59.950499082230955,
,,,,,,,,,,,,1,0,1,0,189,0,189,0,,,,,,,189,,,0.2,1850.0111355097615,,X,d,go,d,1,0.4098661841126159,,,,,,,,,,,,,,,,22,001,20,w,Psychologie,2023-01-16_15h30.36.290,00_bat_bachelor,2022.2.4,59.950499082230955,
,,,,,,,,,,,,1,0,1,0,190,0,190,0,,,,,,,190,,,0.2,1850.7281577075482,,Y,l,go,None,0,,,,,,,,,,,,,,,,,22,001,20,w,Psychologie,2023-01-16_15h30.36.290,00_bat_bachelor,2022.2.4,59.950499082230955,
,,,,,,,,,,,,1,0,1,0,191,0,191,0,,,,,,,191,,,0.2,1851.7291104343603,,Y,None,nogo,None,1,,,,,,,,,,,,,,,,,22,001,20,w,Psychologie,2023-01-16_15h30.36.290,00_bat_bachelor,2022.2.4,59.950499082230955,
,,,,,,,,,,,,1,0,1,0,192,0,192,0,,,,,,,192,,,0.2,1852.7300098278793,1853.5303439853014,X,d,go,None,0,,,,,,,,,,,,,,,,,22,001,20,w,Psychologie,2023-01-16_15h30.36.290,00_bat_bachelor,2022.2.4,59.950499082230955,
,,,,,,,,,,,,1,0,1,0,193,0,193,0,,,,,,,193,,,0.2,1853.7307051002863,,Y,l,go,l,1,0.6264285033685155,,,,,,,,,,,,,,,,22,001,20,w,Psychologie,2023-01-16_15h30.36.290,00_bat_bachelor,2022.2.4,59.950499082230955,
,,,,,,,,,,,,1,0,1,0,194,0,194,0,,,,,,,194,,,0.2,1854.6646891322453,1855.4651774714002,X,d,go,None,0,,,,,,,,,,,,,,,,,22,001,20,w,Psychologie,2023-01-16_15h30.36.290,00_bat_bachelor,2022.2.4,59.950499082230955,
,,,,,,,,,,,,1,0,1,0,195,0,195,0,,,,,,,195,,,0.2,1855.665472162189,,Y,l,go,l,1,0.5952202760381624,,,,,,,,,,,,,,,,22,001,20,w,Psychologie,2023-01-16_15h30.36.290,00_bat_bachelor,2022.2.4,59.950499082230955,
,,,,,,,,,,,,1,0,1,0,196,0,196,0,,,,,,,196,,,0.2,1856.566167483048,,Y,None,nogo,l,0,0.6545928533887491,,,,,,,,,,,,,,,,22,001,20,w,Psychologie,2023-01-16_15h30.36.290,00_bat_bachelor,2022.2.4,59.950499082230955,
,,,,,,,,,,,,1,0,1,0,197,0,197,0,,,,,,,197,,,0.2,1857.5333902868442,1858.3341928076698,X,d,go,None,0,,,,,,,,,,,,,,,,,22,001,20,w,Psychologie,2023-01-16_15h30.36.290,00_bat_bachelor,2022.2.4,59.950499082230955,
,,,,,,,,,,,,1,0,1,0,198,0,198,0,,,,,,,198,,,0.2,1858.5343405894237,1859.3347770497785,Y,l,go,None,0,,,,,,,,,,,,,,,,,22,001,20,w,Psychologie,2023-01-16_15h30.36.290,00_bat_bachelor,2022.2.4,59.950499082230955,
,,,,,,,,,,,,1,0,1,0,199,0,199,0,,,,,,,199,,,0.2,1859.5350848314702,,X,d,go,l,0,0.005608925595879555,,,,,,,,,,,,,,,,22,001,20,w,Psychologie,2023-01-16_15h30.36.290,00_bat_bachelor,2022.2.4,59.950499082230955,
,,,,,,,,,,,,1,0,1,0,200,0,200,0,,,,,,,200,,,0.2,1859.8520146171795,,X,None,nogo,None,1,,,,,,,,,,,,,,,,,22,001,20,w,Psychologie,2023-01-16_15h30.36.290,00_bat_bachelor,2022.2.4,59.950499082230955,
