loop_instruction.thisRepN,loop_instruction.thisTrialN,loop_instruction.thisN,loop_instruction.thisIndex,loop_rsi_practice.thisRepN,loop_rsi_practice.thisTrialN,loop_rsi_practice.thisN,loop_rsi_practice.thisIndex,loop_practice.thisRepN,loop_practice.thisTrialN,loop_practice.thisN,loop_practice.thisIndex,loop_exp.thisRepN,loop_exp.thisTrialN,loop_exp.thisN,loop_exp.thisIndex,loop_trials.thisRepN,loop_trials.thisTrialN,loop_trials.thisN,loop_trials.thisIndex,map_condition,map_x_key,map_y_key,key_resp_welcome.started,key_resp_welcome.keys,key_resp_welcome.rt,index,text_empty_rsi_practice.started,text_empty_rsi_practice.stopped,rsi,stimulus.started,stimulus,correct,trial_type,key_resp_trial.keys,key_resp_trial.corr,key_resp_trial.rt,stimulus.stopped,key_resp_instruction_rsi.started,key_resp_instruction_rsi.keys,key_resp_instruction_rsi.rt,key_resp_instruction_rsi.stopped,key_resp_instruction_final.started,key_resp_instruction_final.keys,key_resp_instruction_final.rt,key_resp_break.started,key_resp_break.keys,key_resp_break.rt,key_resp_break.stopped,key_resp_end_screen.started,image_end_screen.started,key_resp_end_screen.keys,key_resp_end_screen.rt,participant,session,Alter,Geschlecht (w/m/d/andere),Studiengang,date,expName,psychopyVersion,frameRate,
,,,,0,0,0,0,0,0,0,0,,,,,,,,,0,d,l,852.7772631382977,j,28.376671614634688,0,881.1748774909647,882.1897434231505,1,882.1897434231505,X,d,go,None,0,,,,,,,,,,,,,,,,,,24,001,32,w,Psychologie,2023-01-17_09h04.52.206,00_bat_bachelor,2022.2.4,60.05034035468642,
,,,,0,0,0,0,1,0,1,0,,,,,,,,,,,,,,,1,883.5914959556394,884.5940239544143,1,884.5940239544143,Y,l,go,l,1,0.3007308029627893,,,,,,,,,,,,,,,,,24,001,32,w,Psychologie,2023-01-17_09h04.52.206,00_bat_bachelor,2022.2.4,60.05034035468642,
,,,,0,0,0,0,2,0,2,0,,,,,,,,,,,,,,,2,885.6260990903684,886.6269092717994,1,886.6269092717994,X,d,go,d,1,0.234795319775003,,,,,,,,,,,,,,,,,24,001,32,w,Psychologie,2023-01-17_09h04.52.206,00_bat_bachelor,2022.2.4,60.05034035468642,
,,,,0,0,0,0,3,0,3,0,,,,,,,,,,,,,,,3,887.5945054087206,888.5952729234996,1,888.5952729234996,Y,l,go,l,1,0.28145808502449654,,,,,,,,,,,,,,,,,24,001,32,w,Psychologie,2023-01-17_09h04.52.206,00_bat_bachelor,2022.2.4,60.05034035468642,
,,,,0,0,0,0,4,0,4,0,,,,,,,,,,,,,,,4,889.5960326807108,890.5965388622863,1,890.5965388622863,X,d,go,d,1,0.2477781013585627,,,,,,,,,,,,,,,,,24,001,32,w,Psychologie,2023-01-17_09h04.52.206,00_bat_bachelor,2022.2.4,60.05034035468642,
,,,,0,0,0,0,5,0,5,0,,,,,,,,,,,,,,,5,891.5641723325243,892.5647080898343,1,892.5647080898343,Y,l,go,l,1,0.23221689678030089,,,,,,,,,,,,,,,,,24,001,32,w,Psychologie,2023-01-17_09h04.52.206,00_bat_bachelor,2022.2.4,60.05034035468642,
,,,,0,0,0,0,6,0,6,0,,,,,,,,,,,,,,,6,893.5156574469584,894.5163338102575,1,894.5163338102575,X,d,go,d,1,0.3137644936068682,,,,,,,,,,,,,,,,,24,001,32,w,Psychologie,2023-01-17_09h04.52.206,00_bat_bachelor,2022.2.4,60.05034035468642,
,,,,0,0,0,0,7,0,7,0,,,,,,,,,,,,,,,7,895.533797559372,896.534610649891,1,896.534610649891,X,None,nogo,l,0,0.27849081374006346,,,,,,,,,,,,,,,,,24,001,32,w,Psychologie,2023-01-17_09h04.52.206,00_bat_bachelor,2022.2.4,60.05034035468642,
,,,,0,0,0,0,8,0,8,0,,,,,,,,,,,,,,,8,897.9519762657001,898.9527442653343,1,898.9527442653343,Y,l,go,l,1,0.4368228581879521,,,,,,,,,,,,,,,,,24,001,32,w,Psychologie,2023-01-17_09h04.52.206,00_bat_bachelor,2022.2.4,60.05034035468642,
,,,,0,0,0,0,9,0,9,0,,,,,,,,,,,,,,,9,900.1037182527361,901.1042113434087,1,901.1042113434087,X,d,go,d,1,0.31724764344107825,,,,,,,,,,,,,,,,,24,001,32,w,Psychologie,2023-01-17_09h04.52.206,00_bat_bachelor,2022.2.4,60.05034035468642,
,,,,0,0,0,0,10,0,10,0,,,,,,,,,,,,,,,10,902.1216018804262,903.1223873346025,1,903.1223873346025,X,None,nogo,None,1,,903.9229997949005,,,,,,,,,,,,,,,,24,001,32,w,Psychologie,2023-01-17_09h04.52.206,00_bat_bachelor,2022.2.4,60.05034035468642,
,,,,0,0,0,0,11,0,11,0,,,,,,,,,,,,,,,11,904.5236758673127,905.5244108972547,1,905.5244108972547,X,None,nogo,None,1,,906.3250233575673,,,,,,,,,,,,,,,,24,001,32,w,Psychologie,2023-01-17_09h04.52.206,00_bat_bachelor,2022.2.4,60.05034035468642,
,,,,0,0,0,0,12,0,12,0,,,,,,,,,,,,,,,12,906.9254487634171,907.9263040357328,1,907.9263040357328,Y,l,go,l,1,0.42425704609195236,,,,,,,,,,,,,,,,,24,001,32,w,Psychologie,2023-01-17_09h04.52.206,00_bat_bachelor,2022.2.4,60.05034035468642,
,,,,0,0,0,0,13,0,13,0,,,,,,,,,,,,,,,13,909.0605846979015,910.0611863945815,1,910.0611863945815,X,d,go,d,1,0.4332204356906004,,,,,,,,,,,,,,,,,24,001,32,w,Psychologie,2023-01-17_09h04.52.206,00_bat_bachelor,2022.2.4,60.05034035468642,
,,,,0,0,0,0,14,0,14,0,,,,,,,,,,,,,,,14,911.1953889961733,912.1959533595364,1,912.1959533595364,X,None,nogo,d,0,0.5055079158046283,,,,,,,,,,,,,,,,,24,001,32,w,Psychologie,2023-01-17_09h04.52.206,00_bat_bachelor,2022.2.4,60.05034035468642,
,,,,1,0,1,0,0,0,0,0,,,,,,,,,,,,,,,0,930.209889837628,930.4093830742349,0.2,930.4093830742349,X,d,go,d,1,0.42073753266595304,,913.8558429789846,j,16.321255399059737,,,,,,,,,,,,,24,001,32,w,Psychologie,2023-01-17_09h04.52.206,00_bat_bachelor,2022.2.4,60.05034035468642,
,,,,1,0,1,0,1,0,1,0,,,,,,,,,,,,,,,1,931.5436535545887,931.7440161241102,0.2,931.7440161241102,Y,l,go,l,1,0.38248736938112415,,,,,,,,,,,,,,,,,24,001,32,w,Psychologie,2023-01-17_09h04.52.206,00_bat_bachelor,2022.2.4,60.05034035468642,
,,,,1,0,1,0,2,0,2,0,,,,,,,,,,,,,,,2,932.8281261439406,933.0283728347276,0.2,933.0283728347276,X,d,go,d,1,0.3464757504698355,,,,,,,,,,,,,,,,,24,001,32,w,Psychologie,2023-01-17_09h04.52.206,00_bat_bachelor,2022.2.4,60.05034035468642,
,,,,1,0,1,0,3,0,3,0,,,,,,,,,,,,,,,3,934.0790700222715,934.278980228366,0.2,934.278980228366,X,None,nogo,None,1,,,,,,,,,,,,,,,,,,24,001,32,w,Psychologie,2023-01-17_09h04.52.206,00_bat_bachelor,2022.2.4,60.05034035468642,
,,,,1,0,1,0,4,0,4,0,,,,,,,,,,,,,,,4,935.6804147004004,935.8803617549711,0.2,935.8803617549711,Y,l,go,l,1,0.3587079869757872,,,,,,,,,,,,,,,,,24,001,32,w,Psychologie,2023-01-17_09h04.52.206,00_bat_bachelor,2022.2.4,60.05034035468642,
,,,,1,0,1,0,5,0,5,0,,,,,,,,,,,,,,,5,936.9480422070046,937.1480993221339,0.2,937.1480993221339,X,d,go,d,1,0.30644570926961023,,,,,,,,,,,,,,,,,24,001,32,w,Psychologie,2023-01-17_09h04.52.206,00_bat_bachelor,2022.2.4,60.05034035468642,
,,,,1,0,1,0,6,0,6,0,,,,,,,,,,,,,,,6,938.1655557985214,938.365638125746,0.2,938.365638125746,Y,l,go,l,1,0.41602092888206244,,,,,,,,,,,,,,,,,24,001,32,w,Psychologie,2023-01-17_09h04.52.206,00_bat_bachelor,2022.2.4,60.05034035468642,
,,,,1,0,1,0,7,0,7,0,,,,,,,,,,,,,,,7,939.4840986743802,939.6841824561561,0.2,939.6841824561561,Y,None,nogo,None,1,,940.4845796438312,,,,,,,,,,,,,,,,24,001,32,w,Psychologie,2023-01-17_09h04.52.206,00_bat_bachelor,2022.2.4,60.05034035468642,
,,,,1,0,1,0,8,0,8,0,,,,,,,,,,,,,,,8,941.0850098981755,941.285171255673,0.2,941.285171255673,X,d,go,d,1,0.4245101368869655,,,,,,,,,,,,,,,,,24,001,32,w,Psychologie,2023-01-17_09h04.52.206,00_bat_bachelor,2022.2.4,60.05034035468642,
,,,,1,0,1,0,9,0,9,0,,,,,,,,,,,,,,,9,942.4195973723108,942.6197441843688,0.2,942.6197441843688,Y,l,go,l,1,0.3379123606864596,,,,,,,,,,,,,,,,,24,001,32,w,Psychologie,2023-01-17_09h04.52.206,00_bat_bachelor,2022.2.4,60.05034035468642,
,,,,1,0,1,0,10,0,10,0,,,,,,,,,,,,,,,10,943.6872040304443,943.8874182363943,0.2,943.8874182363943,X,d,go,d,1,0.34959865805285517,,,,,,,,,,,,,,,,,24,001,32,w,Psychologie,2023-01-17_09h04.52.206,00_bat_bachelor,2022.2.4,60.05034035468642,
,,,,1,0,1,0,11,0,11,0,,,,,,,,,,,,,,,11,944.9548688703653,945.1548838036979,0.2,945.1548838036979,Y,l,go,l,1,0.3618672581651481,,,,,,,,,,,,,,,,,24,001,32,w,Psychologie,2023-01-17_09h04.52.206,00_bat_bachelor,2022.2.4,60.05034035468642,
,,,,1,0,1,0,12,0,12,0,,,,,,,,,,,,,,,12,946.2389230356785,946.4391057264875,0.2,946.4391057264875,Y,None,nogo,None,1,,947.2398699443002,,,,,,,,,,,,,,,,24,001,32,w,Psychologie,2023-01-17_09h04.52.206,00_bat_bachelor,2022.2.4,60.05034035468642,
,,,,1,0,1,0,13,0,13,0,,,,,,,,,,,,,,,13,947.8401324411388,948.0403684652701,0.2,948.0403684652701,X,d,go,d,1,0.3731870102492394,,,,,,,,,,,,,,,,,24,001,32,w,Psychologie,2023-01-17_09h04.52.206,00_bat_bachelor,2022.2.4,60.05034035468642,
,,,,1,0,1,0,14,0,14,0,,,,,,,,,,,,,,,14,949.1414496283833,949.3414669859485,0.2,949.3414669859485,Y,l,go,l,1,0.39965487620793283,,,,,,,,,,,,,,,,,24,001,32,w,Psychologie,2023-01-17_09h04.52.206,00_bat_bachelor,2022.2.4,60.05034035468642,
,,,,,,,,,,,,,,,,,,,,,,,,,,,,,,,,,,,,,,950.5177107792842,None,,950.5177107792842,950.5177107792842,space,11.96274551229726,,,,,,,,,24,001,32,w,Psychologie,2023-01-17_09h04.52.206,00_bat_bachelor,2022.2.4,60.05034035468642,
,,,,,,,,,,,,0,0,0,0,0,0,0,0,,,,,,,0,,,1,963.5019197566435,X,d,go,d,1,0.4148698991339188,,,,,,,,,,,,,,,,,24,001,32,w,Psychologie,2023-01-17_09h04.52.206,00_bat_bachelor,2022.2.4,60.05034035468642,
,,,,,,,,,,,,0,0,0,0,1,0,1,0,,,,,,,1,,,1,965.0364053156809,Y,l,go,l,1,0.36930919394944794,,,,,,,,,,,,,,,,,24,001,32,w,Psychologie,2023-01-17_09h04.52.206,00_bat_bachelor,2022.2.4,60.05034035468642,
,,,,,,,,,,,,0,0,0,0,2,0,2,0,,,,,,,2,,,1,966.5210615655378,X,d,go,d,1,0.40374748028989416,,,,,,,,,,,,,,,,,24,001,32,w,Psychologie,2023-01-17_09h04.52.206,00_bat_bachelor,2022.2.4,60.05034035468642,
,,,,,,,,,,,,0,0,0,0,3,0,3,0,,,,,,,3,,,1,968.0551849429321,Y,l,go,l,1,0.45501969783799723,,,,,,,,,,,,,,,,,24,001,32,w,Psychologie,2023-01-17_09h04.52.206,00_bat_bachelor,2022.2.4,60.05034035468642,
,,,,,,,,,,,,0,0,0,0,4,0,4,0,,,,,,,4,,,1,969.622573758752,X,d,go,d,1,0.39200639506452717,,,,,,,,,,,,,,,,,24,001,32,w,Psychologie,2023-01-17_09h04.52.206,00_bat_bachelor,2022.2.4,60.05034035468642,
,,,,,,,,,,,,0,0,0,0,5,0,5,0,,,,,,,5,,,1,971.1239485459664,Y,l,go,l,1,0.3459210840810556,,,,,,,,,,,,,,,,,24,001,32,w,Psychologie,2023-01-17_09h04.52.206,00_bat_bachelor,2022.2.4,60.05034035468642,
,,,,,,,,,,,,0,0,0,0,6,0,6,0,,,,,,,6,,,1,972.5751187514543,X,d,go,d,1,0.43130334571469575,,,,,,,,,,,,,,,,,24,001,32,w,Psychologie,2023-01-17_09h04.52.206,00_bat_bachelor,2022.2.4,60.05034035468642,
,,,,,,,,,,,,0,0,0,0,7,0,7,0,,,,,,,7,,,1,974.1096285529056,X,None,nogo,None,1,,,,,,,,,,,,,,,,,,24,001,32,w,Psychologie,2023-01-17_09h04.52.206,00_bat_bachelor,2022.2.4,60.05034035468642,
,,,,,,,,,,,,0,0,0,0,8,0,8,0,,,,,,,8,,,1,975.9110351946438,Y,l,go,l,1,0.3912558499869192,,,,,,,,,,,,,,,,,24,001,32,w,Psychologie,2023-01-17_09h04.52.206,00_bat_bachelor,2022.2.4,60.05034035468642,
,,,,,,,,,,,,0,0,0,0,9,0,9,0,,,,,,,9,,,1,977.4119396790629,X,d,go,d,1,0.44133049236552324,,,,,,,,,,,,,,,,,24,001,32,w,Psychologie,2023-01-17_09h04.52.206,00_bat_bachelor,2022.2.4,60.05034035468642,
,,,,,,,,,,,,0,0,0,0,10,0,10,0,,,,,,,10,,,1,978.963377957145,Y,l,go,l,1,0.42612031793396454,,,,,,,,,,,,,,,,,24,001,32,w,Psychologie,2023-01-17_09h04.52.206,00_bat_bachelor,2022.2.4,60.05034035468642,
,,,,,,,,,,,,0,0,0,0,11,0,11,0,,,,,,,11,,,1,980.4978160010505,Y,None,nogo,None,1,,,,,,,,,,,,,,,,,,24,001,32,w,Psychologie,2023-01-17_09h04.52.206,00_bat_bachelor,2022.2.4,60.05034035468642,
,,,,,,,,,,,,0,0,0,0,12,0,12,0,,,,,,,12,,,1,982.2990994913416,X,d,go,d,1,0.306827284861356,,,,,,,,,,,,,,,,,24,001,32,w,Psychologie,2023-01-17_09h04.52.206,00_bat_bachelor,2022.2.4,60.05034035468642,
,,,,,,,,,,,,0,0,0,0,13,0,13,0,,,,,,,13,,,1,983.7168243797205,Y,l,go,l,1,0.5210516658407869,,,,,,,,,,,,,,,,,24,001,32,w,Psychologie,2023-01-17_09h04.52.206,00_bat_bachelor,2022.2.4,60.05034035468642,
,,,,,,,,,,,,0,0,0,0,14,0,14,0,,,,,,,14,,,1,985.3516003143741,X,d,go,d,1,0.3755777969781775,,,,,,,,,,,,,,,,,24,001,32,w,Psychologie,2023-01-17_09h04.52.206,00_bat_bachelor,2022.2.4,60.05034035468642,
,,,,,,,,,,,,0,0,0,0,15,0,15,0,,,,,,,15,,,1,986.8362182612327,Y,l,go,l,1,0.3465829019405646,,,,,,,,,,,,,,,,,24,001,32,w,Psychologie,2023-01-17_09h04.52.206,00_bat_bachelor,2022.2.4,60.05034035468642,
,,,,,,,,,,,,0,0,0,0,16,0,16,0,,,,,,,16,,,1,988.2870078608394,X,d,go,d,1,0.3512432633287972,,,,,,,,,,,,,,,,,24,001,32,w,Psychologie,2023-01-17_09h04.52.206,00_bat_bachelor,2022.2.4,60.05034035468642,
,,,,,,,,,,,,0,0,0,0,17,0,17,0,,,,,,,17,,,1,989.7548403612891,Y,l,go,l,1,0.4190206850034883,,,,,,,,,,,,,,,,,24,001,32,w,Psychologie,2023-01-17_09h04.52.206,00_bat_bachelor,2022.2.4,60.05034035468642,
,,,,,,,,,,,,0,0,0,0,18,0,18,0,,,,,,,18,,,1,991.2894626475318,X,d,go,d,1,0.45256248691293877,,,,,,,,,,,,,,,,,24,001,32,w,Psychologie,2023-01-17_09h04.52.206,00_bat_bachelor,2022.2.4,60.05034035468642,
,,,,,,,,,,,,0,0,0,0,19,0,19,0,,,,,,,19,,,1,992.857299463125,Y,l,go,l,1,0.42072589628514834,,,,,,,,,,,,,,,,,24,001,32,w,Psychologie,2023-01-17_09h04.52.206,00_bat_bachelor,2022.2.4,60.05034035468642,
,,,,,,,,,,,,0,0,0,0,20,0,20,0,,,,,,,20,,,1,994.3914402950613,Y,None,nogo,None,1,,,,,,,,,,,,,,,,,,24,001,32,w,Psychologie,2023-01-17_09h04.52.206,00_bat_bachelor,2022.2.4,60.05034035468642,
,,,,,,,,,,,,0,0,0,0,21,0,21,0,,,,,,,21,,,1,996.1930302094406,X,d,go,d,1,0.3481445981597062,,,,,,,,,,,,,,,,,24,001,32,w,Psychologie,2023-01-17_09h04.52.206,00_bat_bachelor,2022.2.4,60.05034035468642,
,,,,,,,,,,,,0,0,0,0,22,0,22,0,,,,,,,22,,,1,997.6442033240164,Y,l,go,l,1,0.4177353522827616,,,,,,,,,,,,,,,,,24,001,32,w,Psychologie,2023-01-17_09h04.52.206,00_bat_bachelor,2022.2.4,60.05034035468642,
,,,,,,,,,,,,0,0,0,0,23,0,23,0,,,,,,,23,,,1,999.1787000345648,X,d,go,d,1,0.4354415255220374,,,,,,,,,,,,,,,,,24,001,32,w,Psychologie,2023-01-17_09h04.52.206,00_bat_bachelor,2022.2.4,60.05034035468642,
,,,,,,,,,,,,0,0,0,0,24,0,24,0,,,,,,,24,,,1,1000.7299724945624,X,None,nogo,None,1,,1001.5305146518658,,,,,,,,,,,,,,,,24,001,32,w,Psychologie,2023-01-17_09h04.52.206,00_bat_bachelor,2022.2.4,60.05034035468642,
,,,,,,,,,,,,0,0,0,0,25,0,25,0,,,,,,,25,,,1,1002.5313548938866,Y,l,go,l,1,0.45879666571272537,,,,,,,,,,,,,,,,,24,001,32,w,Psychologie,2023-01-17_09h04.52.206,00_bat_bachelor,2022.2.4,60.05034035468642,
,,,,,,,,,,,,0,0,0,0,26,0,26,0,,,,,,,26,,,1,1004.0992503761227,X,d,go,d,1,0.44308418848959263,,,,,,,,,,,,,,,,,24,001,32,w,Psychologie,2023-01-17_09h04.52.206,00_bat_bachelor,2022.2.4,60.05034035468642,
,,,,,,,,,,,,0,0,0,0,27,0,27,0,,,,,,,27,,,1,1005.6504079270671,Y,l,go,l,1,0.42781874134379905,,,,,,,,,,,,,,,,,24,001,32,w,Psychologie,2023-01-17_09h04.52.206,00_bat_bachelor,2022.2.4,60.05034035468642,
,,,,,,,,,,,,0,0,0,0,28,0,28,0,,,,,,,28,,,1,1007.184842577044,X,d,go,d,1,0.4614075735444203,,,,,,,,,,,,,,,,,24,001,32,w,Psychologie,2023-01-17_09h04.52.206,00_bat_bachelor,2022.2.4,60.05034035468642,
,,,,,,,,,,,,0,0,0,0,29,0,29,0,,,,,,,29,,,1,1008.7527884834999,Y,l,go,l,1,0.42990892214584164,,,,,,,,,,,,,,,,,24,001,32,w,Psychologie,2023-01-17_09h04.52.206,00_bat_bachelor,2022.2.4,60.05034035468642,
,,,,,,,,,,,,0,0,0,0,30,0,30,0,,,,,,,30,,,1,1010.2872609516344,X,d,go,d,1,0.4475850347807864,,,,,,,,,,,,,,,,,24,001,32,w,Psychologie,2023-01-17_09h04.52.206,00_bat_bachelor,2022.2.4,60.05034035468642,
,,,,,,,,,,,,0,0,0,0,31,0,31,0,,,,,,,31,,,1,1011.8383685632143,Y,l,go,l,1,0.3992029976507183,,,,,,,,,,,,,,,,,24,001,32,w,Psychologie,2023-01-17_09h04.52.206,00_bat_bachelor,2022.2.4,60.05034035468642,
,,,,,,,,,,,,0,0,0,0,32,0,32,0,,,,,,,32,,,1,1013.3391877143295,Y,None,nogo,None,1,,,,,,,,,,,,,,,,,,24,001,32,w,Psychologie,2023-01-17_09h04.52.206,00_bat_bachelor,2022.2.4,60.05034035468642,
,,,,,,,,,,,,0,0,0,0,33,0,33,0,,,,,,,33,,,1,1015.1408964165312,Y,None,nogo,None,1,,,,,,,,,,,,,,,,,,24,001,32,w,Psychologie,2023-01-17_09h04.52.206,00_bat_bachelor,2022.2.4,60.05034035468642,
,,,,,,,,,,,,0,0,0,0,34,0,34,0,,,,,,,34,,,1,1016.942178452271,X,d,go,d,1,0.44854648887121584,,,,,,,,,,,,,,,,,24,001,32,w,Psychologie,2023-01-17_09h04.52.206,00_bat_bachelor,2022.2.4,60.05034035468642,
,,,,,,,,,,,,0,0,0,0,35,0,35,0,,,,,,,35,,,1,1018.4934218213748,Y,l,go,l,1,0.38426967154373415,,,,,,,,,,,,,,,,,24,001,32,w,Psychologie,2023-01-17_09h04.52.206,00_bat_bachelor,2022.2.4,60.05034035468642,
,,,,,,,,,,,,0,0,0,0,36,0,36,0,,,,,,,36,,,1,1019.9945813359518,X,d,go,d,1,0.4197532906982815,,,,,,,,,,,,,,,,,24,001,32,w,Psychologie,2023-01-17_09h04.52.206,00_bat_bachelor,2022.2.4,60.05034035468642,
,,,,,,,,,,,,0,0,0,0,37,0,37,0,,,,,,,37,,,1,1021.5290649555973,X,None,nogo,None,1,,,,,,,,,,,,,,,,,,24,001,32,w,Psychologie,2023-01-17_09h04.52.206,00_bat_bachelor,2022.2.4,60.05034035468642,
,,,,,,,,,,,,0,0,0,0,38,0,38,0,,,,,,,38,,,1,1023.3303397186246,Y,l,go,l,1,0.5081033084716182,,,,,,,,,,,,,,,,,24,001,32,w,Psychologie,2023-01-17_09h04.52.206,00_bat_bachelor,2022.2.4,60.05034035468642,
,,,,,,,,,,,,0,0,0,0,39,0,39,0,,,,,,,39,,,1,1024.948416025014,X,d,go,d,1,0.39428566669812426,,,,,,,,,,,,,,,,,24,001,32,w,Psychologie,2023-01-17_09h04.52.206,00_bat_bachelor,2022.2.4,60.05034035468642,
,,,,,,,,,,,,0,0,0,0,40,0,40,0,,,,,,,40,,,1,1026.4493316609296,X,None,nogo,None,1,,,,,,,,,,,,,,,,,,24,001,32,w,Psychologie,2023-01-17_09h04.52.206,00_bat_bachelor,2022.2.4,60.05034035468642,
,,,,,,,,,,,,0,0,0,0,41,0,41,0,,,,,,,41,,,1,1028.2508876359352,Y,l,go,l,1,0.355368837073911,,,,,,,,,,,,,,,,,24,001,32,w,Psychologie,2023-01-17_09h04.52.206,00_bat_bachelor,2022.2.4,60.05034035468642,
,,,,,,,,,,,,0,0,0,0,42,0,42,0,,,,,,,42,,,1,1029.7187308030407,X,d,go,d,1,0.3747734337375732,,,,,,,,,,,,,,,,,24,001,32,w,Psychologie,2023-01-17_09h04.52.206,00_bat_bachelor,2022.2.4,60.05034035468642,
,,,,,,,,,,,,0,0,0,0,43,0,43,0,,,,,,,43,,,1,1031.2032008711685,X,None,nogo,None,1,,,,,,,,,,,,,,,,,,24,001,32,w,Psychologie,2023-01-17_09h04.52.206,00_bat_bachelor,2022.2.4,60.05034035468642,
,,,,,,,,,,,,0,0,0,0,44,0,44,0,,,,,,,44,,,1,1033.0044896947948,Y,l,go,l,1,0.3854847012698883,,,,,,,,,,,,,,,,,24,001,32,w,Psychologie,2023-01-17_09h04.52.206,00_bat_bachelor,2022.2.4,60.05034035468642,
,,,,,,,,,,,,0,0,0,0,45,0,45,0,,,,,,,45,,,1,1034.5055207245896,X,d,go,d,1,0.4679922976210946,,,,,,,,,,,,,,,,,24,001,32,w,Psychologie,2023-01-17_09h04.52.206,00_bat_bachelor,2022.2.4,60.05034035468642,
,,,,,,,,,,,,0,0,0,0,46,0,46,0,,,,,,,46,,,1,1036.0899970472674,Y,l,go,l,1,0.4356121921155136,,,,,,,,,,,,,,,,,24,001,32,w,Psychologie,2023-01-17_09h04.52.206,00_bat_bachelor,2022.2.4,60.05034035468642,
,,,,,,,,,,,,0,0,0,0,47,0,47,0,,,,,,,47,,,1,1037.6413538708584,X,d,go,d,1,0.5164751832053298,,,,,,,,,,,,,,,,,24,001,32,w,Psychologie,2023-01-17_09h04.52.206,00_bat_bachelor,2022.2.4,60.05034035468642,
,,,,,,,,,,,,0,0,0,0,48,0,48,0,,,,,,,48,,,1,1039.2593235106324,X,None,nogo,None,1,,1040.0598545164394,,,,,,,,,,,,,,,,24,001,32,w,Psychologie,2023-01-17_09h04.52.206,00_bat_bachelor,2022.2.4,60.05034035468642,
,,,,,,,,,,,,0,0,0,0,49,0,49,0,,,,,,,49,,,1,1041.0604639706871,Y,l,go,l,1,0.44237679489015136,,,,,,,,,,,,,,,,,24,001,32,w,Psychologie,2023-01-17_09h04.52.206,00_bat_bachelor,2022.2.4,60.05034035468642,
,,,,,,,,,,,,0,0,0,0,50,0,50,0,,,,,,,50,,,1,1042.6118067336647,X,d,go,d,1,0.4900170142063871,,,,,,,,,,,,,,,,,24,001,32,w,Psychologie,2023-01-17_09h04.52.206,00_bat_bachelor,2022.2.4,60.05034035468642,
,,,,,,,,,,,,0,0,0,0,51,0,51,0,,,,,,,51,,,1,1044.2127417150332,Y,l,go,l,1,0.424823348846985,,,,,,,,,,,,,,,,,24,001,32,w,Psychologie,2023-01-17_09h04.52.206,00_bat_bachelor,2022.2.4,60.05034035468642,
,,,,,,,,,,,,0,0,0,0,52,0,52,0,,,,,,,52,,,1,1045.747508486049,X,d,go,d,1,0.4903326504281722,,,,,,,,,,,,,,,,,24,001,32,w,Psychologie,2023-01-17_09h04.52.206,00_bat_bachelor,2022.2.4,60.05034035468642,
,,,,,,,,,,,,0,0,0,0,53,0,53,0,,,,,,,53,,,1,1047.3484488007525,X,None,nogo,None,1,,1048.1490787155926,,,,,,,,,,,,,,,,24,001,32,w,Psychologie,2023-01-17_09h04.52.206,00_bat_bachelor,2022.2.4,60.05034035468642,
,,,,,,,,,,,,0,0,0,0,54,0,54,0,,,,,,,54,,,1,1049.1501720483939,Y,l,go,l,1,0.4001373002247419,,,,,,,,,,,,,,,,,24,001,32,w,Psychologie,2023-01-17_09h04.52.206,00_bat_bachelor,2022.2.4,60.05034035468642,
,,,,,,,,,,,,0,0,0,0,55,0,55,0,,,,,,,55,,,1,1050.6513868356851,X,d,go,d,1,0.4507540029444499,,,,,,,,,,,,,,,,,24,001,32,w,Psychologie,2023-01-17_09h04.52.206,00_bat_bachelor,2022.2.4,60.05034035468642,
,,,,,,,,,,,,0,0,0,0,56,0,56,0,,,,,,,56,,,1,1052.2024217200378,X,None,nogo,None,1,,,,,,,,,,,,,,,,,,24,001,32,w,Psychologie,2023-01-17_09h04.52.206,00_bat_bachelor,2022.2.4,60.05034035468642,
,,,,,,,,,,,,0,0,0,0,57,0,57,0,,,,,,,57,,,1,1054.0038613314537,Y,l,go,l,1,0.3627724698599195,,,,,,,,,,,,,,,,,24,001,32,w,Psychologie,2023-01-17_09h04.52.206,00_bat_bachelor,2022.2.4,60.05034035468642,
,,,,,,,,,,,,0,0,0,0,58,0,58,0,,,,,,,58,,,1,1055.4717350440042,X,d,go,d,1,0.511261609965004,,,,,,,,,,,,,,,,,24,001,32,w,Psychologie,2023-01-17_09h04.52.206,00_bat_bachelor,2022.2.4,60.05034035468642,
,,,,,,,,,,,,0,0,0,0,59,0,59,0,,,,,,,59,,,1,1057.0895834717085,X,None,nogo,None,1,,,,,,,,,,,,,,,,,,24,001,32,w,Psychologie,2023-01-17_09h04.52.206,00_bat_bachelor,2022.2.4,60.05034035468642,
,,,,,,,,,,,,0,0,0,0,60,0,60,0,,,,,,,60,,,1,1058.890950355897,Y,l,go,l,1,0.3564054426387884,,,,,,,,,,,,,,,,,24,001,32,w,Psychologie,2023-01-17_09h04.52.206,00_bat_bachelor,2022.2.4,60.05034035468642,
,,,,,,,,,,,,0,0,0,0,61,0,61,0,,,,,,,61,,,1,1060.3585583716049,X,d,go,None,0,,1061.159263437934,,,,,,,,,,,,,,,,24,001,32,w,Psychologie,2023-01-17_09h04.52.206,00_bat_bachelor,2022.2.4,60.05034035468642,
,,,,,,,,,,,,0,0,0,0,62,0,62,0,,,,,,,62,,,1,1062.1597201649856,Y,l,go,l,1,0.41444177813536953,,,,,,,,,,,,,,,,,24,001,32,w,Psychologie,2023-01-17_09h04.52.206,00_bat_bachelor,2022.2.4,60.05034035468642,
,,,,,,,,,,,,0,0,0,0,63,0,63,0,,,,,,,63,,,1,1063.6778096107591,Y,None,nogo,None,1,,,,,,,,,,,,,,,,,,24,001,32,w,Psychologie,2023-01-17_09h04.52.206,00_bat_bachelor,2022.2.4,60.05034035468642,
,,,,,,,,,,,,0,0,0,0,64,0,64,0,,,,,,,64,,,1,1065.479248252479,X,d,go,d,1,0.45458430412691087,,,,,,,,,,,,,,,,,24,001,32,w,Psychologie,2023-01-17_09h04.52.206,00_bat_bachelor,2022.2.4,60.05034035468642,
,,,,,,,,,,,,0,0,0,0,65,0,65,0,,,,,,,65,,,1,1067.0471728256089,Y,l,go,l,1,0.47087423561606556,,,,,,,,,,,,,,,,,24,001,32,w,Psychologie,2023-01-17_09h04.52.206,00_bat_bachelor,2022.2.4,60.05034035468642,
,,,,,,,,,,,,0,0,0,0,66,0,66,0,,,,,,,66,,,1,1068.6313238151197,X,d,go,d,1,0.5019457356975181,,,,,,,,,,,,,,,,,24,001,32,w,Psychologie,2023-01-17_09h04.52.206,00_bat_bachelor,2022.2.4,60.05034035468642,
,,,,,,,,,,,,0,0,0,0,67,0,67,0,,,,,,,67,,,1,1070.2496469092584,X,None,nogo,None,1,,1071.0500838544976,,,,,,,,,,,,,,,,24,001,32,w,Psychologie,2023-01-17_09h04.52.206,00_bat_bachelor,2022.2.4,60.05034035468642,
,,,,,,,,,,,,0,0,0,0,68,0,68,0,,,,,,,68,,,1,1072.0506894299615,Y,l,go,l,1,0.411203961528372,,,,,,,,,,,,,,,,,24,001,32,w,Psychologie,2023-01-17_09h04.52.206,00_bat_bachelor,2022.2.4,60.05034035468642,
,,,,,,,,,,,,0,0,0,0,69,0,69,0,,,,,,,69,,,1,1073.5687512393924,X,d,go,d,1,0.4295782556437189,,,,,,,,,,,,,,,,,24,001,32,w,Psychologie,2023-01-17_09h04.52.206,00_bat_bachelor,2022.2.4,60.05034035468642,
,,,,,,,,,,,,0,0,0,0,70,0,70,0,,,,,,,70,,,1,1075.1029332834296,X,None,nogo,None,1,,,,,,,,,,,,,,,,,,24,001,32,w,Psychologie,2023-01-17_09h04.52.206,00_bat_bachelor,2022.2.4,60.05034035468642,
,,,,,,,,,,,,0,0,0,0,71,0,71,0,,,,,,,71,,,1,1076.9044475614792,X,None,nogo,None,1,,,,,,,,,,,,,,,,,,24,001,32,w,Psychologie,2023-01-17_09h04.52.206,00_bat_bachelor,2022.2.4,60.05034035468642,
,,,,,,,,,,,,0,0,0,0,72,0,72,0,,,,,,,72,,,1,1078.7056874154223,Y,l,go,l,1,0.4122080822417047,,,,,,,,,,,,,,,,,24,001,32,w,Psychologie,2023-01-17_09h04.52.206,00_bat_bachelor,2022.2.4,60.05034035468642,
,,,,,,,,,,,,0,0,0,0,73,0,73,0,,,,,,,73,,,1,1080.2238306793588,X,d,go,d,1,0.4144097781390883,,,,,,,,,,,,,,,,,24,001,32,w,Psychologie,2023-01-17_09h04.52.206,00_bat_bachelor,2022.2.4,60.05034035468642,
,,,,,,,,,,,,0,0,0,0,74,0,74,0,,,,,,,74,,,1,1081.7416694585845,X,None,nogo,None,1,,,,,,,,,,,,,,,,,,24,001,32,w,Psychologie,2023-01-17_09h04.52.206,00_bat_bachelor,2022.2.4,60.05034035468642,
,,,,,,,,,,,,0,0,0,0,75,0,75,0,,,,,,,75,,,1,1083.5431119790883,Y,l,go,l,1,0.391921061775065,,,,,,,,,,,,,,,,,24,001,32,w,Psychologie,2023-01-17_09h04.52.206,00_bat_bachelor,2022.2.4,60.05034035468642,
,,,,,,,,,,,,0,0,0,0,76,0,76,0,,,,,,,76,,,1,1085.0440203422913,X,d,go,d,1,0.5213008778373478,,,,,,,,,,,,,,,,,24,001,32,w,Psychologie,2023-01-17_09h04.52.206,00_bat_bachelor,2022.2.4,60.05034035468642,
,,,,,,,,,,,,0,0,0,0,77,0,77,0,,,,,,,77,,,1,1086.6792690039874,Y,l,go,l,1,0.3901605777791701,,,,,,,,,,,,,,,,,24,001,32,w,Psychologie,2023-01-17_09h04.52.206,00_bat_bachelor,2022.2.4,60.05034035468642,
,,,,,,,,,,,,0,0,0,0,78,0,78,0,,,,,,,78,,,1,1088.1970898438303,Y,None,nogo,None,1,,1088.99810909183,,,,,,,,,,,,,,,,24,001,32,w,Psychologie,2023-01-17_09h04.52.206,00_bat_bachelor,2022.2.4,60.05034035468642,
,,,,,,,,,,,,0,0,0,0,79,0,79,0,,,,,,,79,,,1,1089.998820849054,X,d,go,d,1,0.3181916429748526,,,,,,,,,,,,,,,,,24,001,32,w,Psychologie,2023-01-17_09h04.52.206,00_bat_bachelor,2022.2.4,60.05034035468642,
,,,,,,,,,,,,0,0,0,0,80,0,80,0,,,,,,,80,,,1,1091.4664215920347,Y,l,go,l,1,0.40363451064331457,,,,,,,,,,,,,,,,,24,001,32,w,Psychologie,2023-01-17_09h04.52.206,00_bat_bachelor,2022.2.4,60.05034035468642,
,,,,,,,,,,,,0,0,0,0,81,0,81,0,,,,,,,81,,,1,1092.9840547956119,X,d,go,d,1,0.43700564597384073,,,,,,,,,,,,,,,,,24,001,32,w,Psychologie,2023-01-17_09h04.52.206,00_bat_bachelor,2022.2.4,60.05034035468642,
,,,,,,,,,,,,0,0,0,0,82,0,82,0,,,,,,,82,,,1,1094.5684971789015,Y,l,go,l,1,0.3565843516262248,,,,,,,,,,,,,,,,,24,001,32,w,Psychologie,2023-01-17_09h04.52.206,00_bat_bachelor,2022.2.4,60.05034035468642,
,,,,,,,,,,,,0,0,0,0,83,0,83,0,,,,,,,83,,,1,1096.0696591177402,Y,None,nogo,None,1,,1096.8696199419937,,,,,,,,,,,,,,,,24,001,32,w,Psychologie,2023-01-17_09h04.52.206,00_bat_bachelor,2022.2.4,60.05034035468642,
,,,,,,,,,,,,0,0,0,0,84,0,84,0,,,,,,,84,,,1,1097.870545517304,X,d,go,d,1,0.36784786132921,,,,,,,,,,,,,,,,,24,001,32,w,Psychologie,2023-01-17_09h04.52.206,00_bat_bachelor,2022.2.4,60.05034035468642,
,,,,,,,,,,,,0,0,0,0,85,0,85,0,,,,,,,85,,,1,1099.3551227369026,Y,l,go,l,1,0.4190042001573602,,,,,,,,,,,,,,,,,24,001,32,w,Psychologie,2023-01-17_09h04.52.206,00_bat_bachelor,2022.2.4,60.05034035468642,
,,,,,,,,,,,,0,0,0,0,86,0,86,0,,,,,,,86,,,1,1100.8893876899965,Y,None,nogo,None,1,,,,,,,,,,,,,,,,,,24,001,32,w,Psychologie,2023-01-17_09h04.52.206,00_bat_bachelor,2022.2.4,60.05034035468642,
,,,,,,,,,,,,0,0,0,0,87,0,87,0,,,,,,,87,,,1,1102.6908762710955,X,d,go,d,1,0.42838310469232965,,,,,,,,,,,,,,,,,24,001,32,w,Psychologie,2023-01-17_09h04.52.206,00_bat_bachelor,2022.2.4,60.05034035468642,
,,,,,,,,,,,,0,0,0,0,88,0,88,0,,,,,,,88,,,1,1104.2251213454,Y,l,go,l,1,0.39574554476712365,,,,,,,,,,,,,,,,,24,001,32,w,Psychologie,2023-01-17_09h04.52.206,00_bat_bachelor,2022.2.4,60.05034035468642,
,,,,,,,,,,,,0,0,0,0,89,0,89,0,,,,,,,89,,,1,1105.7266314052686,X,d,go,d,1,0.5279369958298048,,,,,,,,,,,,,,,,,24,001,32,w,Psychologie,2023-01-17_09h04.52.206,00_bat_bachelor,2022.2.4,60.05034035468642,
,,,,,,,,,,,,0,0,0,0,90,0,90,0,,,,,,,90,,,1,1107.3611314612644,X,None,nogo,None,1,,,,,,,,,,,,,,,,,,24,001,32,w,Psychologie,2023-01-17_09h04.52.206,00_bat_bachelor,2022.2.4,60.05034035468642,
,,,,,,,,,,,,0,0,0,0,91,0,91,0,,,,,,,91,,,1,1109.1625167696911,Y,l,go,l,1,0.40319669267046265,,,,,,,,,,,,,,,,,24,001,32,w,Psychologie,2023-01-17_09h04.52.206,00_bat_bachelor,2022.2.4,60.05034035468642,
,,,,,,,,,,,,0,0,0,0,92,0,92,0,,,,,,,92,,,1,1110.680371064067,X,d,go,d,1,0.48581289504363667,,,,,,,,,,,,,,,,,24,001,32,w,Psychologie,2023-01-17_09h04.52.206,00_bat_bachelor,2022.2.4,60.05034035468642,
,,,,,,,,,,,,0,0,0,0,93,0,93,0,,,,,,,93,,,1,1112.2816119846684,Y,l,go,l,1,0.49987252458231524,,,,,,,,,,,,,,,,,24,001,32,w,Psychologie,2023-01-17_09h04.52.206,00_bat_bachelor,2022.2.4,60.05034035468642,
,,,,,,,,,,,,0,0,0,0,94,0,94,0,,,,,,,94,,,1,1113.88268660233,Y,None,nogo,None,1,,1114.6832883959723,,,,,,,,,,,,,,,,24,001,32,w,Psychologie,2023-01-17_09h04.52.206,00_bat_bachelor,2022.2.4,60.05034035468642,
,,,,,,,,,,,,0,0,0,0,95,0,95,0,,,,,,,95,,,1,1115.6842222137057,X,d,go,d,1,0.34622023545671254,,,,,,,,,,,,,,,,,24,001,32,w,Psychologie,2023-01-17_09h04.52.206,00_bat_bachelor,2022.2.4,60.05034035468642,
,,,,,,,,,,,,0,0,0,0,96,0,96,0,,,,,,,96,,,1,1117.1352484192757,Y,l,go,l,1,0.6234957373671932,,,,,,,,,,,,,,,,,24,001,32,w,Psychologie,2023-01-17_09h04.52.206,00_bat_bachelor,2022.2.4,60.05034035468642,
,,,,,,,,,,,,0,0,0,0,97,0,97,0,,,,,,,97,,,1,1118.86983376008,Y,None,nogo,None,1,,1119.6705441597296,,,,,,,,,,,,,,,,24,001,32,w,Psychologie,2023-01-17_09h04.52.206,00_bat_bachelor,2022.2.4,60.05034035468642,
,,,,,,,,,,,,0,0,0,0,98,0,98,0,,,,,,,98,,,1,1120.6709582201438,X,d,go,d,1,0.4473746106523322,,,,,,,,,,,,,,,,,24,001,32,w,Psychologie,2023-01-17_09h04.52.206,00_bat_bachelor,2022.2.4,60.05034035468642,
,,,,,,,,,,,,0,0,0,0,99,0,99,0,,,,,,,99,,,1,1122.2224900739384,Y,l,go,l,1,0.4157397169037722,,,,,,,,,,,,,,,,,24,001,32,w,Psychologie,2023-01-17_09h04.52.206,00_bat_bachelor,2022.2.4,60.05034035468642,
,,,,,,,,,,,,0,0,0,0,100,0,100,0,,,,,,,100,,,1,1123.7402900653105,X,d,go,d,1,0.46479326886765193,,,,,,,,,,,,,,,,,24,001,32,w,Psychologie,2023-01-17_09h04.52.206,00_bat_bachelor,2022.2.4,60.05034035468642,
,,,,,,,,,,,,0,0,0,0,101,0,101,0,,,,,,,101,,,1,1125.3079809415794,Y,l,go,l,1,0.2902372322860174,,,,,,,,,,,,,,,,,24,001,32,w,Psychologie,2023-01-17_09h04.52.206,00_bat_bachelor,2022.2.4,60.05034035468642,
,,,,,,,,,,,,0,0,0,0,102,0,102,0,,,,,,,102,,,1,1126.7091967470478,X,d,go,d,1,0.36213586409576237,,,,,,,,,,,,,,,,,24,001,32,w,Psychologie,2023-01-17_09h04.52.206,00_bat_bachelor,2022.2.4,60.05034035468642,
,,,,,,,,,,,,0,0,0,0,103,0,103,0,,,,,,,103,,,1,1128.1769075505872,X,None,nogo,None,1,,,,,,,,,,,,,,,,,,24,001,32,w,Psychologie,2023-01-17_09h04.52.206,00_bat_bachelor,2022.2.4,60.05034035468642,
,,,,,,,,,,,,0,0,0,0,104,0,104,0,,,,,,,104,,,1,1129.9784227983328,Y,l,go,l,1,0.3395312689972343,,,,,,,,,,,,,,,,,24,001,32,w,Psychologie,2023-01-17_09h04.52.206,00_bat_bachelor,2022.2.4,60.05034035468642,
,,,,,,,,,,,,0,0,0,0,105,0,105,0,,,,,,,105,,,1,1131.4292157918971,X,d,go,d,1,0.409114265567041,,,,,,,,,,,,,,,,,24,001,32,w,Psychologie,2023-01-17_09h04.52.206,00_bat_bachelor,2022.2.4,60.05034035468642,
,,,,,,,,,,,,0,0,0,0,106,0,106,0,,,,,,,106,,,1,1132.947441964876,Y,l,go,l,1,0.41081559807935264,,,,,,,,,,,,,,,,,24,001,32,w,Psychologie,2023-01-17_09h04.52.206,00_bat_bachelor,2022.2.4,60.05034035468642,
,,,,,,,,,,,,0,0,0,0,107,0,107,0,,,,,,,107,,,1,1134.4649064412515,X,d,go,d,1,0.4138638390140841,,,,,,,,,,,,,,,,,24,001,32,w,Psychologie,2023-01-17_09h04.52.206,00_bat_bachelor,2022.2.4,60.05034035468642,
,,,,,,,,,,,,0,0,0,0,108,0,108,0,,,,,,,108,,,1,1135.9829866749205,Y,l,go,l,1,0.3827976722532185,,,,,,,,,,,,,,,,,24,001,32,w,Psychologie,2023-01-17_09h04.52.206,00_bat_bachelor,2022.2.4,60.05034035468642,
,,,,,,,,,,,,0,0,0,0,109,0,109,0,,,,,,,109,,,1,1137.4674271672993,X,d,go,d,1,0.3866289431316545,,,,,,,,,,,,,,,,,24,001,32,w,Psychologie,2023-01-17_09h04.52.206,00_bat_bachelor,2022.2.4,60.05034035468642,
,,,,,,,,,,,,0,0,0,0,110,0,110,0,,,,,,,110,,,1,1138.968590075834,X,None,nogo,None,1,,,,,,,,,,,,,,,,,,24,001,32,w,Psychologie,2023-01-17_09h04.52.206,00_bat_bachelor,2022.2.4,60.05034035468642,
,,,,,,,,,,,,0,0,0,0,111,0,111,0,,,,,,,111,,,1,1140.7699700509256,Y,l,go,l,1,0.3962905142107047,,,,,,,,,,,,,,,,,24,001,32,w,Psychologie,2023-01-17_09h04.52.206,00_bat_bachelor,2022.2.4,60.05034035468642,
,,,,,,,,,,,,0,0,0,0,112,0,112,0,,,,,,,112,,,1,1142.2710912625043,X,d,go,d,1,0.3342706654802896,,,,,,,,,,,,,,,,,24,001,32,w,Psychologie,2023-01-17_09h04.52.206,00_bat_bachelor,2022.2.4,60.05034035468642,
,,,,,,,,,,,,0,0,0,0,113,0,113,0,,,,,,,113,,,1,1143.7219177105871,X,None,nogo,None,1,,,,,,,,,,,,,,,,,,24,001,32,w,Psychologie,2023-01-17_09h04.52.206,00_bat_bachelor,2022.2.4,60.05034035468642,
,,,,,,,,,,,,0,0,0,0,114,0,114,0,,,,,,,114,,,1,1145.5234974431514,Y,l,go,l,1,0.28216353923198767,,,,,,,,,,,,,,,,,24,001,32,w,Psychologie,2023-01-17_09h04.52.206,00_bat_bachelor,2022.2.4,60.05034035468642,
,,,,,,,,,,,,0,0,0,0,115,0,115,0,,,,,,,115,,,1,1146.9079059840442,X,d,go,d,1,0.37001901179610286,,,,,,,,,,,,,,,,,24,001,32,w,Psychologie,2023-01-17_09h04.52.206,00_bat_bachelor,2022.2.4,60.05034035468642,
,,,,,,,,,,,,0,0,0,0,116,0,116,0,,,,,,,116,,,1,1148.3921297492634,X,None,nogo,None,1,,1149.1927247550339,,,,,,,,,,,,,,,,24,001,32,w,Psychologie,2023-01-17_09h04.52.206,00_bat_bachelor,2022.2.4,60.05034035468642,
,,,,,,,,,,,,0,0,0,0,117,0,117,0,,,,,,,117,,,1,1150.19376281515,Y,l,go,l,1,0.3317673939745873,,,,,,,,,,,,,,,,,24,001,32,w,Psychologie,2023-01-17_09h04.52.206,00_bat_bachelor,2022.2.4,60.05034035468642,
,,,,,,,,,,,,0,0,0,0,118,0,118,0,,,,,,,118,,,1,1151.6282731499232,X,d,go,d,1,0.3535710197611479,,,,,,,,,,,,,,,,,24,001,32,w,Psychologie,2023-01-17_09h04.52.206,00_bat_bachelor,2022.2.4,60.05034035468642,
,,,,,,,,,,,,0,0,0,0,119,0,119,0,,,,,,,119,,,1,1153.095692074814,Y,l,go,l,1,0.3902880928799277,,,,,,,,,,,,,,,,,24,001,32,w,Psychologie,2023-01-17_09h04.52.206,00_bat_bachelor,2022.2.4,60.05034035468642,
,,,,,,,,,,,,0,0,0,0,120,0,120,0,,,,,,,120,,,1,1154.5972079528729,X,d,go,d,1,0.37605100886139553,,,,,,,,,,,,,,,,,24,001,32,w,Psychologie,2023-01-17_09h04.52.206,00_bat_bachelor,2022.2.4,60.05034035468642,
,,,,,,,,,,,,0,0,0,0,121,0,121,0,,,,,,,121,,,1,1156.0815926877112,Y,l,go,l,1,0.3644849538686685,,,,,,,,,,,,,,,,,24,001,32,w,Psychologie,2023-01-17_09h04.52.206,00_bat_bachelor,2022.2.4,60.05034035468642,
,,,,,,,,,,,,0,0,0,0,122,0,122,0,,,,,,,122,,,1,1157.5494542790548,X,d,go,d,1,0.3687579215038568,,,,,,,,,,,,,,,,,24,001,32,w,Psychologie,2023-01-17_09h04.52.206,00_bat_bachelor,2022.2.4,60.05034035468642,
,,,,,,,,,,,,0,0,0,0,123,0,123,0,,,,,,,123,,,1,1159.0337493169645,Y,l,go,l,1,0.30800255700887647,,,,,,,,,,,,,,,,,24,001,32,w,Psychologie,2023-01-17_09h04.52.206,00_bat_bachelor,2022.2.4,60.05034035468642,
,,,,,,,,,,,,0,0,0,0,124,0,124,0,,,,,,,124,,,1,1160.4515997810377,X,d,go,d,1,0.34673368974472396,,,,,,,,,,,,,,,,,24,001,32,w,Psychologie,2023-01-17_09h04.52.206,00_bat_bachelor,2022.2.4,60.05034035468642,
,,,,,,,,,,,,0,0,0,0,125,0,125,0,,,,,,,125,,,1,1161.9026962896023,Y,l,go,l,1,0.39912202798586804,,,,,,,,,,,,,,,,,24,001,32,w,Psychologie,2023-01-17_09h04.52.206,00_bat_bachelor,2022.2.4,60.05034035468642,
,,,,,,,,,,,,0,0,0,0,126,0,126,0,,,,,,,126,,,1,1163.4035833194794,Y,None,nogo,None,1,,,,,,,,,,,,,,,,,,24,001,32,w,Psychologie,2023-01-17_09h04.52.206,00_bat_bachelor,2022.2.4,60.05034035468642,
,,,,,,,,,,,,0,0,0,0,127,0,127,0,,,,,,,127,,,1,1165.2052425671573,X,d,go,d,1,0.23333107806683984,,,,,,,,,,,,,,,,,24,001,32,w,Psychologie,2023-01-17_09h04.52.206,00_bat_bachelor,2022.2.4,60.05034035468642,
,,,,,,,,,,,,0,0,0,0,128,0,128,0,,,,,,,128,,,1,1166.5395546474901,Y,l,go,l,1,0.27583578473422676,,,,,,,,,,,,,,,,,24,001,32,w,Psychologie,2023-01-17_09h04.52.206,00_bat_bachelor,2022.2.4,60.05034035468642,
,,,,,,,,,,,,0,0,0,0,129,0,129,0,,,,,,,129,,,1,1167.9239782186778,X,d,go,d,1,0.3144015842117369,,,,,,,,,,,,,,,,,24,001,32,w,Psychologie,2023-01-17_09h04.52.206,00_bat_bachelor,2022.2.4,60.05034035468642,
,,,,,,,,,,,,0,0,0,0,130,0,130,0,,,,,,,130,,,1,1169.3415305010712,X,None,nogo,l,0,0.30456886169849895,,,,,,,,,,,,,,,,,24,001,32,w,Psychologie,2023-01-17_09h04.52.206,00_bat_bachelor,2022.2.4,60.05034035468642,
,,,,,,,,,,,,0,0,0,0,131,0,131,0,,,,,,,131,,,1,1170.7591438743548,X,None,nogo,None,1,,,,,,,,,,,,,,,,,,24,001,32,w,Psychologie,2023-01-17_09h04.52.206,00_bat_bachelor,2022.2.4,60.05034035468642,
,,,,,,,,,,,,0,0,0,0,132,0,132,0,,,,,,,132,,,1,1172.5608506371645,Y,l,go,l,1,0.39801754367363174,,,,,,,,,,,,,,,,,24,001,32,w,Psychologie,2023-01-17_09h04.52.206,00_bat_bachelor,2022.2.4,60.05034035468642,
,,,,,,,,,,,,0,0,0,0,133,0,133,0,,,,,,,133,,,1,1174.0620086972049,X,d,go,d,1,0.38442239873984363,,,,,,,,,,,,,,,,,24,001,32,w,Psychologie,2023-01-17_09h04.52.206,00_bat_bachelor,2022.2.4,60.05034035468642,
,,,,,,,,,,,,0,0,0,0,134,0,134,0,,,,,,,134,,,1,1175.5628103937925,Y,l,go,l,1,0.4029314806830371,,,,,,,,,,,,,,,,,24,001,32,w,Psychologie,2023-01-17_09h04.52.206,00_bat_bachelor,2022.2.4,60.05034035468642,
,,,,,,,,,,,,0,0,0,0,135,0,135,0,,,,,,,135,,,1,1177.0809594758903,Y,None,nogo,None,1,,,,,,,,,,,,,,,,,,24,001,32,w,Psychologie,2023-01-17_09h04.52.206,00_bat_bachelor,2022.2.4,60.05034035468642,
,,,,,,,,,,,,0,0,0,0,136,0,136,0,,,,,,,136,,,1,1178.8821270874469,X,d,go,d,1,0.26765300081751775,,,,,,,,,,,,,,,,,24,001,32,w,Psychologie,2023-01-17_09h04.52.206,00_bat_bachelor,2022.2.4,60.05034035468642,
,,,,,,,,,,,,0,0,0,0,137,0,137,0,,,,,,,137,,,1,1180.2663906587113,Y,l,go,l,1,0.3867666400328744,,,,,,,,,,,,,,,,,24,001,32,w,Psychologie,2023-01-17_09h04.52.206,00_bat_bachelor,2022.2.4,60.05034035468642,
,,,,,,,,,,,,0,0,0,0,138,0,138,0,,,,,,,138,,,1,1181.7678614458855,X,d,go,d,1,0.4059297822532244,,,,,,,,,,,,,,,,,24,001,32,w,Psychologie,2023-01-17_09h04.52.206,00_bat_bachelor,2022.2.4,60.05034035468642,
,,,,,,,,,,,,0,0,0,0,139,0,139,0,,,,,,,139,,,1,1183.2856808311772,X,None,nogo,None,1,,1184.0863378975337,,,,,,,,,,,,,,,,24,001,32,w,Psychologie,2023-01-17_09h04.52.206,00_bat_bachelor,2022.2.4,60.05034035468642,
,,,,,,,,,,,,0,0,0,0,140,0,140,0,,,,,,,140,,,1,1185.0867325639992,Y,l,go,l,1,0.2715676655789139,,,,,,,,,,,,,,,,,24,001,32,w,Psychologie,2023-01-17_09h04.52.206,00_bat_bachelor,2022.2.4,60.05034035468642,
,,,,,,,,,,,,0,0,0,0,141,0,141,0,,,,,,,141,,,1,1186.4714291047567,X,d,go,d,1,0.45382406206044834,,,,,,,,,,,,,,,,,24,001,32,w,Psychologie,2023-01-17_09h04.52.206,00_bat_bachelor,2022.2.4,60.05034035468642,
,,,,,,,,,,,,0,0,0,0,142,0,142,0,,,,,,,142,,,1,1188.0389590114064,Y,l,go,l,1,0.38994627485226374,,,,,,,,,,,,,,,,,24,001,32,w,Psychologie,2023-01-17_09h04.52.206,00_bat_bachelor,2022.2.4,60.05034035468642,
,,,,,,,,,,,,0,0,0,0,143,0,143,0,,,,,,,143,,,1,1189.5403527076996,Y,None,nogo,None,1,,1190.3407285620633,,,,,,,,,,,,,,,,24,001,32,w,Psychologie,2023-01-17_09h04.52.206,00_bat_bachelor,2022.2.4,60.05034035468642,
,,,,,,,,,,,,0,0,0,0,144,0,144,0,,,,,,,144,,,1,1191.341785046403,X,d,go,d,1,0.49728634401981253,,,,,,,,,,,,,,,,,24,001,32,w,Psychologie,2023-01-17_09h04.52.206,00_bat_bachelor,2022.2.4,60.05034035468642,
,,,,,,,,,,,,0,0,0,0,145,0,145,0,,,,,,,145,,,1,1192.9430279064109,Y,l,go,l,1,0.3980805739556672,,,,,,,,,,,,,,,,,24,001,32,w,Psychologie,2023-01-17_09h04.52.206,00_bat_bachelor,2022.2.4,60.05034035468642,
,,,,,,,,,,,,0,0,0,0,146,0,146,0,,,,,,,146,,,1,1194.4446882692428,Y,None,nogo,None,1,,1195.2457569717517,,,,,,,,,,,,,,,,24,001,32,w,Psychologie,2023-01-17_09h04.52.206,00_bat_bachelor,2022.2.4,60.05034035468642,
,,,,,,,,,,,,0,0,0,0,147,0,147,0,,,,,,,147,,,1,1196.246277213926,X,d,go,d,1,0.3914032438478898,,,,,,,,,,,,,,,,,24,001,32,w,Psychologie,2023-01-17_09h04.52.206,00_bat_bachelor,2022.2.4,60.05034035468642,
,,,,,,,,,,,,0,0,0,0,148,0,148,0,,,,,,,148,,,1,1197.7474216982228,Y,l,go,l,1,0.36222022768924944,,,,,,,,,,,,,,,,,24,001,32,w,Psychologie,2023-01-17_09h04.52.206,00_bat_bachelor,2022.2.4,60.05034035468642,
,,,,,,,,,,,,0,0,0,0,149,0,149,0,,,,,,,149,,,1,1199.2485943037027,X,d,go,None,0,,1200.0492431276361,,,,,,,,,,,,,,,,24,001,32,w,Psychologie,2023-01-17_09h04.52.206,00_bat_bachelor,2022.2.4,60.05034035468642,
,,,,,,,,,,,,0,0,0,0,150,0,150,0,,,,,,,150,,,1,1201.0499291879096,X,None,nogo,None,1,,1201.850722496616,,,,,,,,,,,,,,,,24,001,32,w,Psychologie,2023-01-17_09h04.52.206,00_bat_bachelor,2022.2.4,60.05034035468642,
,,,,,,,,,,,,0,0,0,0,151,0,151,0,,,,,,,151,,,1,1202.851091466131,Y,l,go,l,1,0.3791850679554045,,,,,,,,,,,,,,,,,24,001,32,w,Psychologie,2023-01-17_09h04.52.206,00_bat_bachelor,2022.2.4,60.05034035468642,
,,,,,,,,,,,,0,0,0,0,152,0,152,0,,,,,,,152,,,1,1204.335839352323,X,d,go,d,1,0.42933583151898347,,,,,,,,,,,,,,,,,24,001,32,w,Psychologie,2023-01-17_09h04.52.206,00_bat_bachelor,2022.2.4,60.05034035468642,
,,,,,,,,,,,,0,0,0,0,153,0,153,0,,,,,,,153,,,1,1205.90350792557,X,None,nogo,None,1,,1206.7044229311869,,,,,,,,,,,,,,,,24,001,32,w,Psychologie,2023-01-17_09h04.52.206,00_bat_bachelor,2022.2.4,60.05034035468642,
,,,,,,,,,,,,0,0,0,0,154,0,154,0,,,,,,,154,,,1,1207.7049960218137,Y,l,go,l,1,0.2768782084604027,,,,,,,,,,,,,,,,,24,001,32,w,Psychologie,2023-01-17_09h04.52.206,00_bat_bachelor,2022.2.4,60.05034035468642,
,,,,,,,,,,,,0,0,0,0,155,0,155,0,,,,,,,155,,,1,1209.0894491687504,X,d,go,d,1,0.3314934547233861,,,,,,,,,,,,,,,,,24,001,32,w,Psychologie,2023-01-17_09h04.52.206,00_bat_bachelor,2022.2.4,60.05034035468642,
,,,,,,,,,,,,0,0,0,0,156,0,156,0,,,,,,,156,,,1,1210.540305677423,X,None,nogo,None,1,,1211.3407605620596,,,,,,,,,,,,,,,,24,001,32,w,Psychologie,2023-01-17_09h04.52.206,00_bat_bachelor,2022.2.4,60.05034035468642,
,,,,,,,,,,,,0,0,0,0,157,0,157,0,,,,,,,157,,,1,1212.3415896525548,Y,l,go,l,1,0.328517941001337,,,,,,,,,,,,,,,,,24,001,32,w,Psychologie,2023-01-17_09h04.52.206,00_bat_bachelor,2022.2.4,60.05034035468642,
,,,,,,,,,,,,0,0,0,0,158,0,158,0,,,,,,,158,,,1,1213.7759792601282,X,d,go,d,1,0.6060121094924398,,,,,,,,,,,,,,,,,24,001,32,w,Psychologie,2023-01-17_09h04.52.206,00_bat_bachelor,2022.2.4,60.05034035468642,
,,,,,,,,,,,,0,0,0,0,159,0,159,0,,,,,,,159,,,1,1215.4939536999009,X,None,nogo,None,1,,1216.2945719783893,,,,,,,,,,,,,,,,24,001,32,w,Psychologie,2023-01-17_09h04.52.206,00_bat_bachelor,2022.2.4,60.05034035468642,
,,,,,,,,,,,,0,0,0,0,160,0,160,0,,,,,,,160,,,1,1217.2952706447104,Y,l,go,l,1,0.28651893106871285,,,,,,,,,,,,,,,,,24,001,32,w,Psychologie,2023-01-17_09h04.52.206,00_bat_bachelor,2022.2.4,60.05034035468642,
,,,,,,,,,,,,0,0,0,0,161,0,161,0,,,,,,,161,,,1,1218.6961606321565,X,d,go,d,1,0.4210347446351079,,,,,,,,,,,,,,,,,24,001,32,w,Psychologie,2023-01-17_09h04.52.206,00_bat_bachelor,2022.2.4,60.05034035468642,
,,,,,,,,,,,,0,0,0,0,162,0,162,0,,,,,,,162,,,1,1220.2472886073665,X,None,nogo,None,1,,1221.0480305221718,,,,,,,,,,,,,,,,24,001,32,w,Psychologie,2023-01-17_09h04.52.206,00_bat_bachelor,2022.2.4,60.05034035468642,
,,,,,,,,,,,,0,0,0,0,163,0,163,0,,,,,,,163,,,1,1222.0485085825349,Y,l,go,l,1,0.28512111357122194,,,,,,,,,,,,,,,,,24,001,32,w,Psychologie,2023-01-17_09h04.52.206,00_bat_bachelor,2022.2.4,60.05034035468642,
,,,,,,,,,,,,0,0,0,0,164,0,164,0,,,,,,,164,,,1,1223.449751539505,X,d,go,d,1,0.339359632707783,,,,,,,,,,,,,,,,,24,001,32,w,Psychologie,2023-01-17_09h04.52.206,00_bat_bachelor,2022.2.4,60.05034035468642,
,,,,,,,,,,,,0,0,0,0,165,0,165,0,,,,,,,165,,,1,1224.9005110785365,Y,l,go,l,1,0.4245130459748907,,,,,,,,,,,,,,,,,24,001,32,w,Psychologie,2023-01-17_09h04.52.206,00_bat_bachelor,2022.2.4,60.05034035468642,
,,,,,,,,,,,,0,0,0,0,166,0,166,0,,,,,,,166,,,1,1226.4352157889807,X,d,go,d,1,0.36411889344162773,,,,,,,,,,,,,,,,,24,001,32,w,Psychologie,2023-01-17_09h04.52.206,00_bat_bachelor,2022.2.4,60.05034035468642,
,,,,,,,,,,,,0,0,0,0,167,0,167,0,,,,,,,167,,,1,1227.9027559259412,X,None,nogo,None,1,,,,,,,,,,,,,,,,,,24,001,32,w,Psychologie,2023-01-17_09h04.52.206,00_bat_bachelor,2022.2.4,60.05034035468642,
,,,,,,,,,,,,0,0,0,0,168,0,168,0,,,,,,,168,,,1,1229.7043904463499,Y,l,go,l,1,0.29356086703774054,,,,,,,,,,,,,,,,,24,001,32,w,Psychologie,2023-01-17_09h04.52.206,00_bat_bachelor,2022.2.4,60.05034035468642,
,,,,,,,,,,,,0,0,0,0,169,0,169,0,,,,,,,169,,,1,1231.1054811609793,X,d,go,d,1,0.5084291264938656,,,,,,,,,,,,,,,,,24,001,32,w,Psychologie,2023-01-17_09h04.52.206,00_bat_bachelor,2022.2.4,60.05034035468642,
,,,,,,,,,,,,0,0,0,0,170,0,170,0,,,,,,,170,,,1,1232.7233887401671,X,None,nogo,None,1,,1233.5238664126664,,,,,,,,,,,,,,,,24,001,32,w,Psychologie,2023-01-17_09h04.52.206,00_bat_bachelor,2022.2.4,60.05034035468642,
,,,,,,,,,,,,0,0,0,0,171,0,171,0,,,,,,,171,,,1,1234.5246945334802,Y,l,go,l,1,0.3368932096782373,,,,,,,,,,,,,,,,,24,001,32,w,Psychologie,2023-01-17_09h04.52.206,00_bat_bachelor,2022.2.4,60.05034035468642,
,,,,,,,,,,,,0,0,0,0,172,0,172,0,,,,,,,172,,,1,1235.9757052239001,X,d,go,d,1,0.45390309233334847,,,,,,,,,,,,,,,,,24,001,32,w,Psychologie,2023-01-17_09h04.52.206,00_bat_bachelor,2022.2.4,60.05034035468642,
,,,,,,,,,,,,0,0,0,0,173,0,173,0,,,,,,,173,,,1,1237.543550766757,Y,l,go,l,1,0.34313078240666073,,,,,,,,,,,,,,,,,24,001,32,w,Psychologie,2023-01-17_09h04.52.206,00_bat_bachelor,2022.2.4,60.05034035468642,
,,,,,,,,,,,,0,0,0,0,174,0,174,0,,,,,,,174,,,1,1238.9946555177448,Y,None,nogo,None,1,,,,,,,,,,,,,,,,,,24,001,32,w,Psychologie,2023-01-17_09h04.52.206,00_bat_bachelor,2022.2.4,60.05034035468642,
,,,,,,,,,,,,0,0,0,0,175,0,175,0,,,,,,,175,,,1,1240.7961213109666,X,d,go,d,1,0.35345756527385674,,,,,,,,,,,,,,,,,24,001,32,w,Psychologie,2023-01-17_09h04.52.206,00_bat_bachelor,2022.2.4,60.05034035468642,
,,,,,,,,,,,,0,0,0,0,176,0,176,0,,,,,,,176,,,1,1242.263750175145,Y,l,go,l,1,0.32672012368857395,,,,,,,,,,,,,,,,,24,001,32,w,Psychologie,2023-01-17_09h04.52.206,00_bat_bachelor,2022.2.4,60.05034035468642,
,,,,,,,,,,,,0,0,0,0,177,0,177,0,,,,,,,177,,,1,1243.698052510037,X,d,go,d,1,0.33219018165254965,,,,,,,,,,,,,,,,,24,001,32,w,Psychologie,2023-01-17_09h04.52.206,00_bat_bachelor,2022.2.4,60.05034035468642,
,,,,,,,,,,,,0,0,0,0,178,0,178,0,,,,,,,178,,,1,1245.132807208327,Y,l,go,l,1,0.30497419484891,,,,,,,,,,,,,,,,,24,001,32,w,Psychologie,2023-01-17_09h04.52.206,00_bat_bachelor,2022.2.4,60.05034035468642,
,,,,,,,,,,,,0,0,0,0,179,0,179,0,,,,,,,179,,,1,1246.550896217741,Y,None,nogo,None,1,,1247.3514422538428,,,,,,,,,,,,,,,,24,001,32,w,Psychologie,2023-01-17_09h04.52.206,00_bat_bachelor,2022.2.4,60.05034035468642,
,,,,,,,,,,,,0,0,0,0,180,0,180,0,,,,,,,180,,,1,1248.3522257686127,X,d,go,d,1,0.22105472037219442,,,,,,,,,,,,,,,,,24,001,32,w,Psychologie,2023-01-17_09h04.52.206,00_bat_bachelor,2022.2.4,60.05034035468642,
,,,,,,,,,,,,0,0,0,0,181,0,181,0,,,,,,,181,,,1,1249.6865470610646,Y,l,go,l,1,0.2795618435193319,,,,,,,,,,,,,,,,,24,001,32,w,Psychologie,2023-01-17_09h04.52.206,00_bat_bachelor,2022.2.4,60.05034035468642,
,,,,,,,,,,,,0,0,0,0,182,0,182,0,,,,,,,182,,,1,1251.0707791172026,Y,None,nogo,None,1,,,,,,,,,,,,,,,,,,24,001,32,w,Psychologie,2023-01-17_09h04.52.206,00_bat_bachelor,2022.2.4,60.05034035468642,
,,,,,,,,,,,,0,0,0,0,183,0,183,0,,,,,,,183,,,1,1252.8723166679702,X,d,go,d,1,0.2614134886825923,,,,,,,,,,,,,,,,,24,001,32,w,Psychologie,2023-01-17_09h04.52.206,00_bat_bachelor,2022.2.4,60.05034035468642,
,,,,,,,,,,,,0,0,0,0,184,0,184,0,,,,,,,184,,,1,1254.2398137019045,Y,l,go,l,1,0.2853868103993591,,,,,,,,,,,,,,,,,24,001,32,w,Psychologie,2023-01-17_09h04.52.206,00_bat_bachelor,2022.2.4,60.05034035468642,
,,,,,,,,,,,,0,0,0,0,185,0,185,0,,,,,,,185,,,1,1255.6409339922684,Y,None,nogo,None,1,,,,,,,,,,,,,,,,,,24,001,32,w,Psychologie,2023-01-17_09h04.52.206,00_bat_bachelor,2022.2.4,60.05034035468642,
,,,,,,,,,,,,0,0,0,0,186,0,186,0,,,,,,,186,,,1,1257.4420380887022,X,d,go,d,1,0.267057607168681,,,,,,,,,,,,,,,,,24,001,32,w,Psychologie,2023-01-17_09h04.52.206,00_bat_bachelor,2022.2.4,60.05034035468642,
,,,,,,,,,,,,0,0,0,0,187,0,187,0,,,,,,,187,,,1,1258.8097659104096,Y,l,go,l,1,0.30754970874113496,,,,,,,,,,,,,,,,,24,001,32,w,Psychologie,2023-01-17_09h04.52.206,00_bat_bachelor,2022.2.4,60.05034035468642,
,,,,,,,,,,,,0,0,0,0,188,0,188,0,,,,,,,188,,,1,1260.2277211017063,Y,None,nogo,None,1,,,,,,,,,,,,,,,,,,24,001,32,w,Psychologie,2023-01-17_09h04.52.206,00_bat_bachelor,2022.2.4,60.05034035468642,
,,,,,,,,,,,,0,0,0,0,189,0,189,0,,,,,,,189,,,1,1262.0290186525963,X,d,go,d,1,0.2575332481501391,,,,,,,,,,,,,,,,,24,001,32,w,Psychologie,2023-01-17_09h04.52.206,00_bat_bachelor,2022.2.4,60.05034035468642,
,,,,,,,,,,,,0,0,0,0,190,0,190,0,,,,,,,190,,,1,1263.396639322833,Y,l,go,l,1,0.31432158425741363,,,,,,,,,,,,,,,,,24,001,32,w,Psychologie,2023-01-17_09h04.52.206,00_bat_bachelor,2022.2.4,60.05034035468642,
,,,,,,,,,,,,0,0,0,0,191,0,191,0,,,,,,,191,,,1,1264.8145329384133,Y,None,nogo,None,1,,,,,,,,,,,,,,,,,,24,001,32,w,Psychologie,2023-01-17_09h04.52.206,00_bat_bachelor,2022.2.4,60.05034035468642,
,,,,,,,,,,,,0,0,0,0,192,0,192,0,,,,,,,192,,,1,1266.6159463680233,X,d,go,d,1,0.2144806629512459,,,,,,,,,,,,,,,,,24,001,32,w,Psychologie,2023-01-17_09h04.52.206,00_bat_bachelor,2022.2.4,60.05034035468642,
,,,,,,,,,,,,0,0,0,0,193,0,193,0,,,,,,,193,,,1,1267.9333682747238,Y,l,go,l,1,0.2886677785136271,,,,,,,,,,,,,,,,,24,001,32,w,Psychologie,2023-01-17_09h04.52.206,00_bat_bachelor,2022.2.4,60.05034035468642,
,,,,,,,,,,,,0,0,0,0,194,0,194,0,,,,,,,194,,,1,1269.334460928745,X,d,go,d,1,0.2958110477629816,,,,,,,,,,,,,,,,,24,001,32,w,Psychologie,2023-01-17_09h04.52.206,00_bat_bachelor,2022.2.4,60.05034035468642,
,,,,,,,,,,,,0,0,0,0,195,0,195,0,,,,,,,195,,,1,1270.7357426735834,X,None,nogo,None,1,,1271.536334770266,,,,,,,,,,,,,,,,24,001,32,w,Psychologie,2023-01-17_09h04.52.206,00_bat_bachelor,2022.2.4,60.05034035468642,
,,,,,,,,,,,,0,0,0,0,196,0,196,0,,,,,,,196,,,1,1272.5370460426493,Y,l,go,l,1,0.2291114437393844,,,,,,,,,,,,,,,,,24,001,32,w,Psychologie,2023-01-17_09h04.52.206,00_bat_bachelor,2022.2.4,60.05034035468642,
,,,,,,,,,,,,0,0,0,0,197,0,197,0,,,,,,,197,,,1,1273.8712669715023,X,d,go,d,1,0.33460375624417793,,,,,,,,,,,,,,,,,24,001,32,w,Psychologie,2023-01-17_09h04.52.206,00_bat_bachelor,2022.2.4,60.05034035468642,
,,,,,,,,,,,,0,0,0,0,198,0,198,0,,,,,,,198,,,1,1275.3223537830927,X,None,nogo,None,1,,1276.1230995766819,,,,,,,,,,,,,,,,24,001,32,w,Psychologie,2023-01-17_09h04.52.206,00_bat_bachelor,2022.2.4,60.05034035468642,
,,,,,,,,,,,,0,0,0,0,199,0,199,0,,,,,,,199,,,1,1277.1238108490652,X,None,nogo,l,0,0.2341034413257148,,,,,,,,,,,,,,,,,24,001,32,w,Psychologie,2023-01-17_09h04.52.206,00_bat_bachelor,2022.2.4,60.05034035468642,
,,,,,,,,,,,,0,0,0,0,200,0,200,0,,,,,,,200,,,1,1278.4747920122172,Y,l,go,l,1,0.35443550419586245,,,,,,,,,,,,,,,,,24,001,32,w,Psychologie,2023-01-17_09h04.52.206,00_bat_bachelor,2022.2.4,60.05034035468642,
,,,,,,,,,,,,0,0,0,0,201,0,201,0,,,,,,,201,,,1,1279.94260754298,X,d,go,d,1,0.34344157013401855,,,,,,,,,,,,,,,,,24,001,32,w,Psychologie,2023-01-17_09h04.52.206,00_bat_bachelor,2022.2.4,60.05034035468642,
,,,,,,,,,,,,0,0,0,0,202,0,202,0,,,,,,,202,,,1,1281.3937947181548,X,None,nogo,None,1,,,,,,,,,,,,,,,,,,24,001,32,w,Psychologie,2023-01-17_09h04.52.206,00_bat_bachelor,2022.2.4,60.05034035468642,
,,,,,,,,,,,,0,0,0,0,203,0,203,0,,,,,,,203,,,1,1283.1953565113363,Y,l,go,l,1,0.30706922413082793,,,,,,,,,,,,,,,,,24,001,32,w,Psychologie,2023-01-17_09h04.52.206,00_bat_bachelor,2022.2.4,60.05034035468642,
,,,,,,,,,,,,0,0,0,0,204,0,204,0,,,,,,,204,,,1,1284.6129844300594,X,d,go,None,0,,1285.4135435570643,,,,,,,,,,,,,,,,24,001,32,w,Psychologie,2023-01-17_09h04.52.206,00_bat_bachelor,2022.2.4,60.05034035468642,
,,,,,,,,,,,,0,0,0,0,205,0,205,0,,,,,,,205,,,1,1286.4143484051601,X,None,nogo,None,1,,,,,,,,,,,,,,,,,,24,001,32,w,Psychologie,2023-01-17_09h04.52.206,00_bat_bachelor,2022.2.4,60.05034035468642,
,,,,,,,,,,,,0,0,0,0,206,0,206,0,,,,,,,206,,,1,1288.2157337135868,Y,l,go,l,1,0.278999904403463,,,,,,,,,,,,,,,,,24,001,32,w,Psychologie,2023-01-17_09h04.52.206,00_bat_bachelor,2022.2.4,60.05034035468642,
,,,,,,,,,,,,0,0,0,0,207,0,207,0,,,,,,,207,,,1,1289.5999512242706,X,d,go,d,1,0.34977708221413195,,,,,,,,,,,,,,,,,24,001,32,w,Psychologie,2023-01-17_09h04.52.206,00_bat_bachelor,2022.2.4,60.05034035468642,
,,,,,,,,,,,,0,0,0,0,208,0,208,0,,,,,,,208,,,1,1291.051219853951,Y,l,go,l,1,0.3541644740180345,,,,,,,,,,,,,,,,,24,001,32,w,Psychologie,2023-01-17_09h04.52.206,00_bat_bachelor,2022.2.4,60.05034035468642,
,,,,,,,,,,,,0,0,0,0,209,0,209,0,,,,,,,209,,,1,1292.5190625362156,X,d,go,d,1,0.3272621840296779,,,,,,,,,,,,,,,,,24,001,32,w,Psychologie,2023-01-17_09h04.52.206,00_bat_bachelor,2022.2.4,60.05034035468642,
,,,,,,,,,,,,0,0,0,0,210,0,210,0,,,,,,,210,,,1,1293.9534332346957,Y,l,go,l,1,0.33191527269082144,,,,,,,,,,,,,,,,,24,001,32,w,Psychologie,2023-01-17_09h04.52.206,00_bat_bachelor,2022.2.4,60.05034035468642,
,,,,,,,,,,,,0,0,0,0,211,0,211,0,,,,,,,211,,,1,1295.3877787210804,X,d,go,d,1,0.38588227683794685,,,,,,,,,,,,,,,,,24,001,32,w,Psychologie,2023-01-17_09h04.52.206,00_bat_bachelor,2022.2.4,60.05034035468642,
,,,,,,,,,,,,0,0,0,0,212,0,212,0,,,,,,,212,,,1,1296.8887850236206,X,None,nogo,None,1,,1297.689556999001,,,,,,,,,,,,,,,,24,001,32,w,Psychologie,2023-01-17_09h04.52.206,00_bat_bachelor,2022.2.4,60.05034035468642,
,,,,,,,,,,,,0,0,0,0,213,0,213,0,,,,,,,213,,,1,1298.6901645138569,Y,l,go,l,1,0.31531212921254337,,,,,,,,,,,,,,,,,24,001,32,w,Psychologie,2023-01-17_09h04.52.206,00_bat_bachelor,2022.2.4,60.05034035468642,
,,,,,,,,,,,,0,0,0,0,214,0,214,0,,,,,,,214,,,1,1300.108147341496,X,d,go,d,1,0.2898134749266319,,,,,,,,,,,,,,,,,24,001,32,w,Psychologie,2023-01-17_09h04.52.206,00_bat_bachelor,2022.2.4,60.05034035468642,
,,,,,,,,,,,,0,0,0,0,215,0,215,0,,,,,,,215,,,1,1301.509200237968,Y,l,go,l,1,0.4578715752577409,,,,,,,,,,,,,,,,,24,001,32,w,Psychologie,2023-01-17_09h04.52.206,00_bat_bachelor,2022.2.4,60.05034035468642,
,,,,,,,,,,,,0,0,0,0,216,0,216,0,,,,,,,216,,,1,1303.0771505080484,X,d,go,d,1,0.26530827466922347,,,,,,,,,,,,,,,,,24,001,32,w,Psychologie,2023-01-17_09h04.52.206,00_bat_bachelor,2022.2.4,60.05034035468642,
,,,,,,,,,,,,0,0,0,0,217,0,217,0,,,,,,,217,,,1,1304.44467032986,Y,l,go,l,1,0.3047996494715335,,,,,,,,,,,,,,,,,24,001,32,w,Psychologie,2023-01-17_09h04.52.206,00_bat_bachelor,2022.2.4,60.05034035468642,
,,,,,,,,,,,,0,0,0,0,218,0,218,0,,,,,,,218,,,1,1305.8624349757883,X,d,go,d,1,0.31241903970658313,,,,,,,,,,,,,,,,,24,001,32,w,Psychologie,2023-01-17_09h04.52.206,00_bat_bachelor,2022.2.4,60.05034035468642,
,,,,,,,,,,,,0,0,0,0,219,0,219,0,,,,,,,219,,,1,1307.2804580458323,Y,l,go,l,1,0.3177606128883781,,,,,,,,,,,,,,,,,24,001,32,w,Psychologie,2023-01-17_09h04.52.206,00_bat_bachelor,2022.2.4,60.05034035468642,
,,,,,,,,,,,,0,0,0,0,220,0,220,0,,,,,,,220,,,1,1308.7146391686547,X,d,go,d,1,0.5312111760576954,,,,,,,,,,,,,,,,,24,001,32,w,Psychologie,2023-01-17_09h04.52.206,00_bat_bachelor,2022.2.4,60.05034035468642,
,,,,,,,,,,,,0,0,0,0,221,0,221,0,,,,,,,221,,,1,1310.3492648003594,Y,l,go,l,1,0.2558968852972612,,,,,,,,,,,,,,,,,24,001,32,w,Psychologie,2023-01-17_09h04.52.206,00_bat_bachelor,2022.2.4,60.05034035468642,
,,,,,,,,,,,,0,0,0,0,222,0,222,0,,,,,,,222,,,1,1311.7167608645977,X,d,go,d,1,0.3938609396282118,,,,,,,,,,,,,,,,,24,001,32,w,Psychologie,2023-01-17_09h04.52.206,00_bat_bachelor,2022.2.4,60.05034035468642,
,,,,,,,,,,,,0,0,0,0,223,0,223,0,,,,,,,223,,,1,1313.2180745609367,Y,l,go,l,1,0.2842270533874398,,,,,,,,,,,,,,,,,24,001,32,w,Psychologie,2023-01-17_09h04.52.206,00_bat_bachelor,2022.2.4,60.05034035468642,
,,,,,,,,,,,,0,0,0,0,224,0,224,0,,,,,,,224,,,1,1314.6190110938041,Y,None,nogo,None,1,,1315.4197399177065,,,,,,,,,,,,,,,,24,001,32,w,Psychologie,2023-01-17_09h04.52.206,00_bat_bachelor,2022.2.4,60.05034035468642,
,,,,,,,,,,,,0,0,0,0,225,0,225,0,,,,,,,225,,,1,1316.4205559172988,Y,None,nogo,None,1,,1317.2211460745893,,,,,,,,,,,,,,,,24,001,32,w,Psychologie,2023-01-17_09h04.52.206,00_bat_bachelor,2022.2.4,60.05034035468642,
,,,,,,,,,,,,0,0,0,0,226,0,226,0,,,,,,,226,,,1,1318.2219218317914,X,d,go,d,1,0.30465904348238837,,,,,,,,,,,,,,,,,24,001,32,w,Psychologie,2023-01-17_09h04.52.206,00_bat_bachelor,2022.2.4,60.05034035468642,
,,,,,,,,,,,,0,0,0,0,227,0,227,0,,,,,,,227,,,1,1319.6394789626793,Y,l,go,l,1,0.2793228133523371,,,,,,,,,,,,,,,,,24,001,32,w,Psychologie,2023-01-17_09h04.52.206,00_bat_bachelor,2022.2.4,60.05034035468642,
,,,,,,,,,,,,0,0,0,0,228,0,228,0,,,,,,,228,,,1,1321.024053321671,Y,None,nogo,d,0,0.36534652920090593,,,,,,,,,,,,,,,,,24,001,32,w,Psychologie,2023-01-17_09h04.52.206,00_bat_bachelor,2022.2.4,60.05034035468642,
,,,,,,,,,,,,0,0,0,0,229,0,229,0,,,,,,,229,,,1,1322.4916681252507,X,d,go,d,1,0.274779785235296,,,,,,,,,,,,,,,,,24,001,32,w,Psychologie,2023-01-17_09h04.52.206,00_bat_bachelor,2022.2.4,60.05034035468642,
,,,,,,,,,,,,0,0,0,0,230,0,230,0,,,,,,,230,,,1,1323.8760635752406,Y,l,go,l,1,0.32987600094929803,,,,,,,,,,,,,,,,,24,001,32,w,Psychologie,2023-01-17_09h04.52.206,00_bat_bachelor,2022.2.4,60.05034035468642,
,,,,,,,,,,,,0,0,0,0,231,0,231,0,,,,,,,231,,,1,1325.3106054251548,Y,None,nogo,None,1,,1326.1112246733392,,,,,,,,,,,,,,,,24,001,32,w,Psychologie,2023-01-17_09h04.52.206,00_bat_bachelor,2022.2.4,60.05034035468642,
,,,,,,,,,,,,0,0,0,0,232,0,232,0,,,,,,,232,,,1,1327.1118986124056,X,d,go,d,1,0.3263201238878537,,,,,,,,,,,,,,,,,24,001,32,w,Psychologie,2023-01-17_09h04.52.206,00_bat_bachelor,2022.2.4,60.05034035468642,
,,,,,,,,,,,,0,0,0,0,233,0,233,0,,,,,,,233,,,1,1328.5462634927244,Y,l,go,l,1,0.3487792645028094,,,,,,,,,,,,,,,,,24,001,32,w,Psychologie,2023-01-17_09h04.52.206,00_bat_bachelor,2022.2.4,60.05034035468642,
,,,,,,,,,,,,0,0,0,0,234,0,234,0,,,,,,,234,,,1,1329.9973246073496,X,d,go,d,1,0.41640492869191803,,,,,,,,,,,,,,,,,24,001,32,w,Psychologie,2023-01-17_09h04.52.206,00_bat_bachelor,2022.2.4,60.05034035468642,
,,,,,,,,,,,,0,0,0,0,235,0,235,0,,,,,,,235,,,1,1331.5152671441174,Y,l,go,l,1,0.3700422845140565,,,,,,,,,,,,,,,,,24,001,32,w,Psychologie,2023-01-17_09h04.52.206,00_bat_bachelor,2022.2.4,60.05034035468642,
,,,,,,,,,,,,0,0,0,0,236,0,236,0,,,,,,,236,,,1,1332.9996906668093,X,d,go,d,1,0.2944277757196687,,,,,,,,,,,,,,,,,24,001,32,w,Psychologie,2023-01-17_09h04.52.206,00_bat_bachelor,2022.2.4,60.05034035468642,
,,,,,,,,,,,,0,0,0,0,237,0,237,0,,,,,,,237,,,1,1334.4008148359717,Y,l,go,l,1,0.31677006791869644,,,,,,,,,,,,,,,,,24,001,32,w,Psychologie,2023-01-17_09h04.52.206,00_bat_bachelor,2022.2.4,60.05034035468642,
,,,,,,,,,,,,0,0,0,0,238,0,238,0,,,,,,,238,,,1,1335.8185057849623,Y,None,nogo,None,1,,,,,,,,,,,,,,,,,,24,001,32,w,Psychologie,2023-01-17_09h04.52.206,00_bat_bachelor,2022.2.4,60.05034035468642,
,,,,,,,,,,,,0,0,0,0,239,0,239,0,,,,,,,239,,,1,1337.6199405478983,X,d,go,d,1,0.2496404034900479,,,,,,,,,,,,,,,,,24,001,32,w,Psychologie,2023-01-17_09h04.52.206,00_bat_bachelor,2022.2.4,60.05034035468642,
,,,,,,,,,,,,0,0,0,0,240,0,240,0,,,,,,,240,,,1,1338.9708349232242,Y,l,go,l,1,0.35428617092838977,,,,,,,,,,,,,,,,,24,001,32,w,Psychologie,2023-01-17_09h04.52.206,00_bat_bachelor,2022.2.4,60.05034035468642,
,,,,,,,,,,,,0,0,0,0,241,0,241,0,,,,,,,241,,,1,1340.438488514672,Y,None,nogo,None,1,,1341.239317702144,,,,,,,,,,,,,,,,24,001,32,w,Psychologie,2023-01-17_09h04.52.206,00_bat_bachelor,2022.2.4,60.05034035468642,
,,,,,,,,,,,,0,0,0,0,242,0,242,0,,,,,,,242,,,1,1342.2400362472545,X,d,go,d,1,0.31778776439023204,,,,,,,,,,,,,,,,,24,001,32,w,Psychologie,2023-01-17_09h04.52.206,00_bat_bachelor,2022.2.4,60.05034035468642,
,,,,,,,,,,,,0,0,0,0,243,0,243,0,,,,,,,243,,,1,1343.6744835517602,Y,l,go,l,1,0.33883454206807073,,,,,,,,,,,,,,,,,24,001,32,w,Psychologie,2023-01-17_09h04.52.206,00_bat_bachelor,2022.2.4,60.05034035468642,
,,,,,,,,,,,,0,0,0,0,244,0,244,0,,,,,,,244,,,1,1345.1256212724256,X,d,go,d,1,0.4553872128162766,,,,,,,,,,,,,,,,,24,001,32,w,Psychologie,2023-01-17_09h04.52.206,00_bat_bachelor,2022.2.4,60.05034035468642,
,,,,,,,,,,,,0,0,0,0,245,0,245,0,,,,,,,245,,,1,1346.6933911789529,X,None,nogo,None,1,,,,,,,,,,,,,,,,,,24,001,32,w,Psychologie,2023-01-17_09h04.52.206,00_bat_bachelor,2022.2.4,60.05034035468642,
,,,,,,,,,,,,0,0,0,0,246,0,246,0,,,,,,,246,,,1,1348.494910305497,Y,l,go,l,1,0.2865194159094244,,,,,,,,,,,,,,,,,24,001,32,w,Psychologie,2023-01-17_09h04.52.206,00_bat_bachelor,2022.2.4,60.05034035468642,
,,,,,,,,,,,,0,0,0,0,247,0,247,0,,,,,,,247,,,1,1349.895868171705,X,d,go,d,1,0.4855035618529655,,,,,,,,,,,,,,,,,24,001,32,w,Psychologie,2023-01-17_09h04.52.206,00_bat_bachelor,2022.2.4,60.05034035468642,
,,,,,,,,,,,,0,0,0,0,248,0,248,0,,,,,,,248,,,1,1351.4972046074108,X,None,nogo,None,1,,,,,,,,,,,,,,,,,,24,001,32,w,Psychologie,2023-01-17_09h04.52.206,00_bat_bachelor,2022.2.4,60.05034035468642,
,,,,,,,,,,,,0,0,0,0,249,0,249,0,,,,,,,249,,,1,1353.2991799761512,Y,l,go,l,1,0.2334188355889637,,,,,,,,,,,,,,,,,24,001,32,w,Psychologie,2023-01-17_09h04.52.206,00_bat_bachelor,2022.2.4,60.05034035468642,
,,,,,,,,,,,,1,0,1,0,0,0,0,0,,,,,,,0,,,0.2,1366.5590634865075,X,d,go,d,1,0.6074870178708807,,,,,,,,,1353.6789514283882,space,12.658037296394468,,,,,,24,001,32,w,Psychologie,2023-01-17_09h04.52.206,00_bat_bachelor,2022.2.4,60.05034035468642,
,,,,,,,,,,,,1,0,1,0,1,0,1,0,,,,,,,1,,,0.2,1367.4762315266707,Y,l,go,l,1,0.3288520014612004,,,,,,,,,,,,,,,,,24,001,32,w,Psychologie,2023-01-17_09h04.52.206,00_bat_bachelor,2022.2.4,60.05034035468642,
,,,,,,,,,,,,1,0,1,0,2,0,2,0,,,,,,,2,,,0.2,1368.1101027344994,X,d,go,d,1,0.3831661569274729,,,,,,,,,,,,,,,,,24,001,32,w,Psychologie,2023-01-17_09h04.52.206,00_bat_bachelor,2022.2.4,60.05034035468642,
,,,,,,,,,,,,1,0,1,0,3,0,3,0,,,,,,,3,,,0.2,1368.7939370696113,X,None,nogo,None,1,,1369.5946338935028,,,,,,,,,,,,,,,,24,001,32,w,Psychologie,2023-01-17_09h04.52.206,00_bat_bachelor,2022.2.4,60.05034035468642,
,,,,,,,,,,,,1,0,1,0,4,0,4,0,,,,,,,4,,,0.2,1369.7945285844762,Y,l,go,l,1,0.3632611968787387,,,,,,,,,,,,,,,,,24,001,32,w,Psychologie,2023-01-17_09h04.52.206,00_bat_bachelor,2022.2.4,60.05034035468642,
,,,,,,,,,,,,1,0,1,0,5,0,5,0,,,,,,,5,,,0.2,1370.4618979578663,X,d,go,d,1,0.4795307162712561,,,,,,,,,,,,,,,,,24,001,32,w,Psychologie,2023-01-17_09h04.52.206,00_bat_bachelor,2022.2.4,60.05034035468642,
,,,,,,,,,,,,1,0,1,0,6,0,6,0,,,,,,,6,,,0.2,1371.2455402445776,Y,l,go,l,1,0.4658676925901091,,,,,,,,,,,,,,,,,24,001,32,w,Psychologie,2023-01-17_09h04.52.206,00_bat_bachelor,2022.2.4,60.05034035468642,
,,,,,,,,,,,,1,0,1,0,7,0,7,0,,,,,,,7,,,0.2,1372.0127941756073,Y,None,nogo,None,1,,1372.8133276056615,,,,,,,,,,,,,,,,24,001,32,w,Psychologie,2023-01-17_09h04.52.206,00_bat_bachelor,2022.2.4,60.05034035468642,
,,,,,,,,,,,,1,0,1,0,8,0,8,0,,,,,,,8,,,0.2,1373.0134075086535,X,d,go,d,1,0.4884160452929791,,,,,,,,,,,,,,,,,24,001,32,w,Psychologie,2023-01-17_09h04.52.206,00_bat_bachelor,2022.2.4,60.05034035468642,
,,,,,,,,,,,,1,0,1,0,9,0,9,0,,,,,,,9,,,0.2,1373.814202756752,Y,l,go,l,1,0.32847285011666827,,,,,,,,,,,,,,,,,24,001,32,w,Psychologie,2023-01-17_09h04.52.206,00_bat_bachelor,2022.2.4,60.05034035468642,
,,,,,,,,,,,,1,0,1,0,10,0,10,0,,,,,,,10,,,0.2,1374.4479954191484,X,d,go,d,1,0.46251108816068154,,,,,,,,,,,,,,,,,24,001,32,w,Psychologie,2023-01-17_09h04.52.206,00_bat_bachelor,2022.2.4,60.05034035468642,
,,,,,,,,,,,,1,0,1,0,11,0,11,0,,,,,,,11,,,0.2,1375.214919653372,Y,l,go,l,1,0.3823036118847085,,,,,,,,,,,,,,,,,24,001,32,w,Psychologie,2023-01-17_09h04.52.206,00_bat_bachelor,2022.2.4,60.05034035468642,
,,,,,,,,,,,,1,0,1,0,12,0,12,0,,,,,,,12,,,0.2,1375.8987632006028,X,d,go,d,1,0.37143185960303526,,,,,,,,,,,,,,,,,24,001,32,w,Psychologie,2023-01-17_09h04.52.206,00_bat_bachelor,2022.2.4,60.05034035468642,
,,,,,,,,,,,,1,0,1,0,13,0,13,0,,,,,,,13,,,0.2,1376.5830062627792,X,None,nogo,None,1,,1377.383433026218,,,,,,,,,,,,,,,,24,001,32,w,Psychologie,2023-01-17_09h04.52.206,00_bat_bachelor,2022.2.4,60.05034035468642,
,,,,,,,,,,,,1,0,1,0,14,0,14,0,,,,,,,14,,,0.2,1377.5836966866918,Y,l,go,l,1,0.30225419616908766,,,,,,,,,,,,,,,,,24,001,32,w,Psychologie,2023-01-17_09h04.52.206,00_bat_bachelor,2022.2.4,60.05034035468642,
,,,,,,,,,,,,1,0,1,0,15,0,15,0,,,,,,,15,,,0.2,1378.2007557814504,X,d,go,d,1,0.4211622597213136,,,,,,,,,,,,,,,,,24,001,32,w,Psychologie,2023-01-17_09h04.52.206,00_bat_bachelor,2022.2.4,60.05034035468642,
,,,,,,,,,,,,1,0,1,0,16,0,16,0,,,,,,,16,,,0.2,1378.9346220923035,Y,l,go,l,1,0.4234114707651315,,,,,,,,,,,,,,,,,24,001,32,w,Psychologie,2023-01-17_09h04.52.206,00_bat_bachelor,2022.2.4,60.05034035468642,
,,,,,,,,,,,,1,0,1,0,17,0,17,0,,,,,,,17,,,0.2,1379.6682959183963,X,d,go,d,1,0.4423380070220446,,,,,,,,,,,,,,,,,24,001,32,w,Psychologie,2023-01-17_09h04.52.206,00_bat_bachelor,2022.2.4,60.05034035468642,
,,,,,,,,,,,,1,0,1,0,18,0,18,0,,,,,,,18,,,0.2,1380.4190955543745,X,None,nogo,None,1,,,,,,,,,,,,,,,,,,24,001,32,w,Psychologie,2023-01-17_09h04.52.206,00_bat_bachelor,2022.2.4,60.05034035468642,
,,,,,,,,,,,,1,0,1,0,19,0,19,0,,,,,,,19,,,0.2,1381.4198616146168,Y,l,go,l,1,0.3381877544888994,,,,,,,,,,,,,,,,,24,001,32,w,Psychologie,2023-01-17_09h04.52.206,00_bat_bachelor,2022.2.4,60.05034035468642,
,,,,,,,,,,,,1,0,1,0,20,0,20,0,,,,,,,20,,,0.2,1382.070136208422,X,d,go,d,1,0.3909693046589382,,,,,,,,,,,,,,,,,24,001,32,w,Psychologie,2023-01-17_09h04.52.206,00_bat_bachelor,2022.2.4,60.05034035468642,
,,,,,,,,,,,,1,0,1,0,21,0,21,0,,,,,,,21,,,0.2,1382.7710095655639,X,None,nogo,None,1,,1383.5715623895376,,,,,,,,,,,,,,,,24,001,32,w,Psychologie,2023-01-17_09h04.52.206,00_bat_bachelor,2022.2.4,60.05034035468642,
,,,,,,,,,,,,1,0,1,0,22,0,22,0,,,,,,,22,,,0.2,1383.7717348985461,X,None,nogo,None,1,,,,,,,,,,,,,,,,,,24,001,32,w,Psychologie,2023-01-17_09h04.52.206,00_bat_bachelor,2022.2.4,60.05034035468642,
,,,,,,,,,,,,1,0,1,0,23,0,23,0,,,,,,,23,,,0.2,1384.7722541710245,Y,l,go,l,1,0.4097780228185002,,,,,,,,,,,,,,,,,24,001,32,w,Psychologie,2023-01-17_09h04.52.206,00_bat_bachelor,2022.2.4,60.05034035468642,
,,,,,,,,,,,,1,0,1,0,24,0,24,0,,,,,,,24,,,0.2,1385.4897907928244,X,d,go,d,1,0.36379549965204205,,,,,,,,,,,,,,,,,24,001,32,w,Psychologie,2023-01-17_09h04.52.206,00_bat_bachelor,2022.2.4,60.05034035468642,
,,,,,,,,,,,,1,0,1,0,25,0,25,0,,,,,,,25,,,0.2,1386.1743252488086,Y,l,go,l,1,0.4312587396852905,,,,,,,,,,,,,,,,,24,001,32,w,Psychologie,2023-01-17_09h04.52.206,00_bat_bachelor,2022.2.4,60.05034035468642,
,,,,,,,,,,,,1,0,1,0,26,0,26,0,,,,,,,26,,,0.2,1386.9413653617667,Y,None,nogo,None,1,,1387.742389943087,,,,,,,,,,,,,,,,24,001,32,w,Psychologie,2023-01-17_09h04.52.206,00_bat_bachelor,2022.2.4,60.05034035468642,
,,,,,,,,,,,,1,0,1,0,27,0,27,0,,,,,,,27,,,0.2,1387.9421052401885,X,d,go,d,1,0.5671878858847776,,,,,,,,,,,,,,,,,24,001,32,w,Psychologie,2023-01-17_09h04.52.206,00_bat_bachelor,2022.2.4,60.05034035468642,
,,,,,,,,,,,,1,0,1,0,28,0,28,0,,,,,,,28,,,0.2,1388.8427651671373,Y,l,go,l,1,0.3223147925018566,,,,,,,,,,,,,,,,,24,001,32,w,Psychologie,2023-01-17_09h04.52.206,00_bat_bachelor,2022.2.4,60.05034035468642,
,,,,,,,,,,,,1,0,1,0,29,0,29,0,,,,,,,29,,,0.2,1389.5101646011317,Y,None,nogo,None,1,,1390.3110699097888,,,,,,,,,,,,,,,,24,001,32,w,Psychologie,2023-01-17_09h04.52.206,00_bat_bachelor,2022.2.4,60.05034035468642,
,,,,,,,,,,,,1,0,1,0,30,0,30,0,,,,,,,30,,,0.2,1390.5107696917403,X,d,go,d,1,0.3498837488295976,,,,,,,,,,,,,,,,,24,001,32,w,Psychologie,2023-01-17_09h04.52.206,00_bat_bachelor,2022.2.4,60.05034035468642,
,,,,,,,,,,,,1,0,1,0,31,0,31,0,,,,,,,31,,,0.2,1391.1949894812133,Y,l,go,l,1,0.32263042870908976,,,,,,,,,,,,,,,,,24,001,32,w,Psychologie,2023-01-17_09h04.52.206,00_bat_bachelor,2022.2.4,60.05034035468642,
,,,,,,,,,,,,1,0,1,0,32,0,32,0,,,,,,,32,,,0.2,1391.861968551777,Y,None,nogo,None,1,,1392.6627385877655,,,,,,,,,,,,,,,,24,001,32,w,Psychologie,2023-01-17_09h04.52.206,00_bat_bachelor,2022.2.4,60.05034035468642,
,,,,,,,,,,,,1,0,1,0,33,0,33,0,,,,,,,33,,,0.2,1392.8624369151803,X,d,go,d,1,0.33506290752848145,,,,,,,,,,,,,,,,,24,001,32,w,Psychologie,2023-01-17_09h04.52.206,00_bat_bachelor,2022.2.4,60.05034035468642,
,,,,,,,,,,,,1,0,1,0,34,0,34,0,,,,,,,34,,,0.2,1393.5465000986587,Y,l,go,l,1,0.3544049587508198,,,,,,,,,,,,,,,,,24,001,32,w,Psychologie,2023-01-17_09h04.52.206,00_bat_bachelor,2022.2.4,60.05034035468642,
,,,,,,,,,,,,1,0,1,0,35,0,35,0,,,,,,,35,,,0.2,1394.246834304562,X,d,go,d,1,0.42298238005605526,,,,,,,,,,,,,,,,,24,001,32,w,Psychologie,2023-01-17_09h04.52.206,00_bat_bachelor,2022.2.4,60.05034035468642,
,,,,,,,,,,,,1,0,1,0,36,0,36,0,,,,,,,36,,,0.2,1395.0142123567493,X,None,nogo,None,1,,1395.815153544172,,,,,,,,,,,,,,,,24,001,32,w,Psychologie,2023-01-17_09h04.52.206,00_bat_bachelor,2022.2.4,60.05034035468642,
,,,,,,,,,,,,1,0,1,0,37,0,37,0,,,,,,,37,,,0.2,1396.0147869019129,Y,l,go,l,1,0.2863899614312686,,,,,,,,,,,,,,,,,24,001,32,w,Psychologie,2023-01-17_09h04.52.206,00_bat_bachelor,2022.2.4,60.05034035468642,
,,,,,,,,,,,,1,0,1,0,38,0,38,0,,,,,,,38,,,0.2,1396.6489524126227,X,d,go,d,1,0.6436232427804498,,,,,,,,,,,,,,,,,24,001,32,w,Psychologie,2023-01-17_09h04.52.206,00_bat_bachelor,2022.2.4,60.05034035468642,
,,,,,,,,,,,,1,0,1,0,39,0,39,0,,,,,,,39,,,0.2,1397.6329766628041,Y,l,go,l,1,0.38040446129161865,,,,,,,,,,,,,,,,,24,001,32,w,Psychologie,2023-01-17_09h04.52.206,00_bat_bachelor,2022.2.4,60.05034035468642,
,,,,,,,,,,,,1,0,1,0,40,0,40,0,,,,,,,40,,,0.2,1398.3502243150433,Y,None,nogo,d,0,0.43144055777520407,,,,,,,,,,,,,,,,,24,001,32,w,Psychologie,2023-01-17_09h04.52.206,00_bat_bachelor,2022.2.4,60.05034035468642,
,,,,,,,,,,,,1,0,1,0,41,0,41,0,,,,,,,41,,,0.2,1399.100828072318,Y,None,nogo,None,1,,1399.9014768962516,,,,,,,,,,,,,,,,24,001,32,w,Psychologie,2023-01-17_09h04.52.206,00_bat_bachelor,2022.2.4,60.05034035468642,
,,,,,,,,,,,,1,0,1,0,42,0,42,0,,,,,,,42,,,0.2,1400.1013560720749,X,d,go,d,1,0.3285509106790414,,,,,,,,,,,,,,,,,24,001,32,w,Psychologie,2023-01-17_09h04.52.206,00_bat_bachelor,2022.2.4,60.05034035468642,
,,,,,,,,,,,,1,0,1,0,43,0,43,0,,,,,,,43,,,0.2,1400.7518338172958,Y,l,go,l,1,0.46058721029839944,,,,,,,,,,,,,,,,,24,001,32,w,Psychologie,2023-01-17_09h04.52.206,00_bat_bachelor,2022.2.4,60.05034035468642,
,,,,,,,,,,,,1,0,1,0,44,0,44,0,,,,,,,44,,,0.2,1401.5527139138285,X,d,go,d,1,0.4602565437962767,,,,,,,,,,,,,,,,,24,001,32,w,Psychologie,2023-01-17_09h04.52.206,00_bat_bachelor,2022.2.4,60.05034035468642,
,,,,,,,,,,,,1,0,1,0,45,0,45,0,,,,,,,45,,,0.2,1402.3530504954833,Y,l,go,l,1,0.4761682936659781,,,,,,,,,,,,,,,,,24,001,32,w,Psychologie,2023-01-17_09h04.52.206,00_bat_bachelor,2022.2.4,60.05034035468642,
,,,,,,,,,,,,1,0,1,0,46,0,46,0,,,,,,,46,,,0.2,1403.1703853719373,X,d,go,d,1,0.45844709013181273,,,,,,,,,,,,,,,,,24,001,32,w,Psychologie,2023-01-17_09h04.52.206,00_bat_bachelor,2022.2.4,60.05034035468642,
,,,,,,,,,,,,1,0,1,0,47,0,47,0,,,,,,,47,,,0.2,1403.971262559382,Y,l,go,l,1,0.4915025892551057,,,,,,,,,,,,,,,,,24,001,32,w,Psychologie,2023-01-17_09h04.52.206,00_bat_bachelor,2022.2.4,60.05034035468642,
,,,,,,,,,,,,1,0,1,0,48,0,48,0,,,,,,,48,,,0.2,1404.7884839813341,Y,None,nogo,None,1,,1405.58938783544,,,,,,,,,,,,,,,,24,001,32,w,Psychologie,2023-01-17_09h04.52.206,00_bat_bachelor,2022.2.4,60.05034035468642,
,,,,,,,,,,,,1,0,1,0,49,0,49,0,,,,,,,49,,,0.2,1405.788931011426,X,d,go,d,1,0.44792248916928656,,,,,,,,,,,,,,,,,24,001,32,w,Psychologie,2023-01-17_09h04.52.206,00_bat_bachelor,2022.2.4,60.05034035468642,
,,,,,,,,,,,,1,0,1,0,50,0,50,0,,,,,,,50,,,0.2,1406.5558542759536,Y,l,go,l,1,0.4011991178849712,,,,,,,,,,,,,,,,,24,001,32,w,Psychologie,2023-01-17_09h04.52.206,00_bat_bachelor,2022.2.4,60.05034035468642,
,,,,,,,,,,,,1,0,1,0,51,0,51,0,,,,,,,51,,,0.2,1407.2732658068999,X,d,go,d,1,0.5013930087006884,,,,,,,,,,,,,,,,,24,001,32,w,Psychologie,2023-01-17_09h04.52.206,00_bat_bachelor,2022.2.4,60.05034035468642,
,,,,,,,,,,,,1,0,1,0,52,0,52,0,,,,,,,52,,,0.2,1408.0902137744415,X,None,nogo,None,1,,,,,,,,,,,,,,,,,,24,001,32,w,Psychologie,2023-01-17_09h04.52.206,00_bat_bachelor,2022.2.4,60.05034035468642,
,,,,,,,,,,,,1,0,1,0,53,0,53,0,,,,,,,53,,,0.2,1409.091119470977,Y,l,go,l,1,0.42613389367761556,,,,,,,,,,,,,,,,,24,001,32,w,Psychologie,2023-01-17_09h04.52.206,00_bat_bachelor,2022.2.4,60.05034035468642,
,,,,,,,,,,,,1,0,1,0,54,0,54,0,,,,,,,54,,,0.2,1409.825099721158,X,d,go,d,1,0.41287280920369085,,,,,,,,,,,,,,,,,24,001,32,w,Psychologie,2023-01-17_09h04.52.206,00_bat_bachelor,2022.2.4,60.05034035468642,
,,,,,,,,,,,,1,0,1,0,55,0,55,0,,,,,,,55,,,0.2,1410.5420462826442,Y,l,go,l,1,0.49613870822940953,,,,,,,,,,,,,,,,,24,001,32,w,Psychologie,2023-01-17_09h04.52.206,00_bat_bachelor,2022.2.4,60.05034035468642,
,,,,,,,,,,,,1,0,1,0,56,0,56,0,,,,,,,56,,,0.2,1411.3427334095759,X,d,go,d,1,0.479403686025762,,,,,,,,,,,,,,,,,24,001,32,w,Psychologie,2023-01-17_09h04.52.206,00_bat_bachelor,2022.2.4,60.05034035468642,
,,,,,,,,,,,,1,0,1,0,57,0,57,0,,,,,,,57,,,0.2,1412.1266021204356,Y,l,go,l,1,0.6071170786599396,,,,,,,,,,,,,,,,,24,001,32,w,Psychologie,2023-01-17_09h04.52.206,00_bat_bachelor,2022.2.4,60.05034035468642,
,,,,,,,,,,,,1,0,1,0,58,0,58,0,,,,,,,58,,,0.2,1413.043934039306,X,d,go,d,1,0.4428126734565012,,,,,,,,,,,,,,,,,24,001,32,w,Psychologie,2023-01-17_09h04.52.206,00_bat_bachelor,2022.2.4,60.05034035468642,
,,,,,,,,,,,,1,0,1,0,59,0,59,0,,,,,,,59,,,0.2,1413.7945043420623,Y,l,go,l,1,0.5243074218305992,,,,,,,,,,,,,,,,,24,001,32,w,Psychologie,2023-01-17_09h04.52.206,00_bat_bachelor,2022.2.4,60.05034035468642,
,,,,,,,,,,,,1,0,1,0,60,0,60,0,,,,,,,60,,,0.2,1414.628509755872,Y,None,nogo,None,1,,1415.4291454889026,,,,,,,,,,,,,,,,24,001,32,w,Psychologie,2023-01-17_09h04.52.206,00_bat_bachelor,2022.2.4,60.05034035468642,
,,,,,,,,,,,,1,0,1,0,61,0,61,0,,,,,,,61,,,0.2,1415.6293078160961,X,d,go,d,1,0.3044980738632148,,,,,,,,,,,,,,,,,24,001,32,w,Psychologie,2023-01-17_09h04.52.206,00_bat_bachelor,2022.2.4,60.05034035468642,
,,,,,,,,,,,,1,0,1,0,62,0,62,0,,,,,,,62,,,0.2,1416.2465089713805,Y,l,go,l,1,0.42322819810942747,,,,,,,,,,,,,,,,,24,001,32,w,Psychologie,2023-01-17_09h04.52.206,00_bat_bachelor,2022.2.4,60.05034035468642,
,,,,,,,,,,,,1,0,1,0,63,0,63,0,,,,,,,63,,,0.2,1416.9801459490118,X,d,go,d,1,0.44180903759843204,,,,,,,,,,,,,,,,,24,001,32,w,Psychologie,2023-01-17_09h04.52.206,00_bat_bachelor,2022.2.4,60.05034035468642,
,,,,,,,,,,,,1,0,1,0,64,0,64,0,,,,,,,64,,,0.2,1417.7307923729531,Y,l,go,l,1,0.4113595978124067,,,,,,,,,,,,,,,,,24,001,32,w,Psychologie,2023-01-17_09h04.52.206,00_bat_bachelor,2022.2.4,60.05034035468642,
,,,,,,,,,,,,1,0,1,0,65,0,65,0,,,,,,,65,,,0.2,1418.448126813033,X,d,go,d,1,0.4290235892403871,,,,,,,,,,,,,,,,,24,001,32,w,Psychologie,2023-01-17_09h04.52.206,00_bat_bachelor,2022.2.4,60.05034035468642,
,,,,,,,,,,,,1,0,1,0,66,0,66,0,,,,,,,66,,,0.2,1419.181726942188,X,None,nogo,None,1,,,,,,,,,,,,,,,,,,24,001,32,w,Psychologie,2023-01-17_09h04.52.206,00_bat_bachelor,2022.2.4,60.05034035468642,
,,,,,,,,,,,,1,0,1,0,67,0,67,0,,,,,,,67,,,0.2,1420.182885729504,Y,l,go,l,1,0.37530385771242436,,,,,,,,,,,,,,,,,24,001,32,w,Psychologie,2023-01-17_09h04.52.206,00_bat_bachelor,2022.2.4,60.05034035468642,
,,,,,,,,,,,,1,0,1,0,68,0,68,0,,,,,,,68,,,0.2,1420.8663515799417,X,d,go,d,1,0.3948713633726584,,,,,,,,,,,,,,,,,24,001,32,w,Psychologie,2023-01-17_09h04.52.206,00_bat_bachelor,2022.2.4,60.05034035468642,
,,,,,,,,,,,,1,0,1,0,69,0,69,0,,,,,,,69,,,0.2,1421.5672006946843,Y,l,go,l,1,0.4310478306870209,,,,,,,,,,,,,,,,,24,001,32,w,Psychologie,2023-01-17_09h04.52.206,00_bat_bachelor,2022.2.4,60.05034035468642,
,,,,,,,,,,,,1,0,1,0,70,0,70,0,,,,,,,70,,,0.2,1422.3011663994257,X,d,go,d,1,0.38450191386800725,,,,,,,,,,,,,,,,,24,001,32,w,Psychologie,2023-01-17_09h04.52.206,00_bat_bachelor,2022.2.4,60.05034035468642,
,,,,,,,,,,,,1,0,1,0,71,0,71,0,,,,,,,71,,,0.2,1423.0016087264958,X,None,nogo,l,0,0.4356437072419794,,,,,,,,,,,,,,,,,24,001,32,w,Psychologie,2023-01-17_09h04.52.206,00_bat_bachelor,2022.2.4,60.05034035468642,
,,,,,,,,,,,,1,0,1,0,72,0,72,0,,,,,,,72,,,0.2,1423.7522284837614,Y,l,go,None,0,,,,,,,,,,,,,,,,,,24,001,32,w,Psychologie,2023-01-17_09h04.52.206,00_bat_bachelor,2022.2.4,60.05034035468642,
,,,,,,,,,,,,1,0,1,0,73,0,73,0,,,,,,,73,,,0.2,1424.7529741803737,X,d,go,d,1,0.5572242543566972,,,,,,,,,,,,,,,,,24,001,32,w,Psychologie,2023-01-17_09h04.52.206,00_bat_bachelor,2022.2.4,60.05034035468642,
,,,,,,,,,,,,1,0,1,0,74,0,74,0,,,,,,,74,,,0.2,1425.6199788509111,Y,l,go,l,1,0.4254546212760033,,,,,,,,,,,,,,,,,24,001,32,w,Psychologie,2023-01-17_09h04.52.206,00_bat_bachelor,2022.2.4,60.05034035468642,
,,,,,,,,,,,,1,0,1,0,75,0,75,0,,,,,,,75,,,0.2,1426.3540904949914,Y,None,nogo,None,1,,1427.1545482887013,,,,,,,,,,,,,,,,24,001,32,w,Psychologie,2023-01-17_09h04.52.206,00_bat_bachelor,2022.2.4,60.05034035468642,
,,,,,,,,,,,,1,0,1,0,76,0,76,0,,,,,,,76,,,0.2,1427.354941403668,X,d,go,d,1,0.22715799015713856,,,,,,,,,,,,,,,,,24,001,32,w,Psychologie,2023-01-17_09h04.52.206,00_bat_bachelor,2022.2.4,60.05034035468642,
,,,,,,,,,,,,1,0,1,0,77,0,77,0,,,,,,,77,,,0.2,1427.8884223571222,Y,l,go,l,1,0.46182648243848234,,,,,,,,,,,,,,,,,24,001,32,w,Psychologie,2023-01-17_09h04.52.206,00_bat_bachelor,2022.2.4,60.05034035468642,
,,,,,,,,,,,,1,0,1,0,78,0,78,0,,,,,,,78,,,0.2,1428.655880894119,Y,None,nogo,None,1,,1429.4562203848618,,,,,,,,,,,,,,,,24,001,32,w,Psychologie,2023-01-17_09h04.52.206,00_bat_bachelor,2022.2.4,60.05034035468642,
,,,,,,,,,,,,1,0,1,0,79,0,79,0,,,,,,,79,,,0.2,1429.6567482876417,X,d,go,d,1,0.4532383653859142,,,,,,,,,,,,,,,,,24,001,32,w,Psychologie,2023-01-17_09h04.52.206,00_bat_bachelor,2022.2.4,60.05034035468642,
,,,,,,,,,,,,1,0,1,0,80,0,80,0,,,,,,,80,,,0.2,1430.4239270671824,Y,l,go,l,1,0.37498482756200247,,,,,,,,,,,,,,,,,24,001,32,w,Psychologie,2023-01-17_09h04.52.206,00_bat_bachelor,2022.2.4,60.05034035468642,
,,,,,,,,,,,,1,0,1,0,81,0,81,0,,,,,,,81,,,0.2,1431.1078302507522,X,d,go,d,1,0.537808021355886,,,,,,,,,,,,,,,,,24,001,32,w,Psychologie,2023-01-17_09h04.52.206,00_bat_bachelor,2022.2.4,60.05034035468642,
,,,,,,,,,,,,1,0,1,0,82,0,82,0,,,,,,,82,,,0.2,1431.9585212322272,Y,l,go,l,1,0.439746493138955,,,,,,,,,,,,,,,,,24,001,32,w,Psychologie,2023-01-17_09h04.52.206,00_bat_bachelor,2022.2.4,60.05034035468642,
,,,,,,,,,,,,1,0,1,0,83,0,83,0,,,,,,,83,,,0.2,1432.7087133533496,X,d,go,d,1,0.4568577575701056,,,,,,,,,,,,,,,,,24,001,32,w,Psychologie,2023-01-17_09h04.52.206,00_bat_bachelor,2022.2.4,60.05034035468642,
,,,,,,,,,,,,1,0,1,0,84,0,84,0,,,,,,,84,,,0.2,1433.4762688599876,X,None,nogo,None,1,,,,,,,,,,,,,,,,,,24,001,32,w,Psychologie,2023-01-17_09h04.52.206,00_bat_bachelor,2022.2.4,60.05034035468642,
,,,,,,,,,,,,1,0,1,0,85,0,85,0,,,,,,,85,,,0.2,1434.4770426777977,Y,l,go,l,1,0.5454371085652383,,,,,,,,,,,,,,,,,24,001,32,w,Psychologie,2023-01-17_09h04.52.206,00_bat_bachelor,2022.2.4,60.05034035468642,
,,,,,,,,,,,,1,0,1,0,86,0,86,0,,,,,,,86,,,0.2,1435.3277496592636,X,d,go,d,1,0.4146071113937069,,,,,,,,,,,,,,,,,24,001,32,w,Psychologie,2023-01-17_09h04.52.206,00_bat_bachelor,2022.2.4,60.05034035468642,
,,,,,,,,,,,,1,0,1,0,87,0,87,0,,,,,,,87,,,0.2,1436.0448780388397,X,None,nogo,None,1,,1436.8454885597603,,,,,,,,,,,,,,,,24,001,32,w,Psychologie,2023-01-17_09h04.52.206,00_bat_bachelor,2022.2.4,60.05034035468642,
,,,,,,,,,,,,1,0,1,0,88,0,88,0,,,,,,,88,,,0.2,1437.0453497961862,Y,l,go,l,1,0.2651957898779074,,,,,,,,,,,,,,,,,24,001,32,w,Psychologie,2023-01-17_09h04.52.206,00_bat_bachelor,2022.2.4,60.05034035468642,
,,,,,,,,,,,,1,0,1,0,89,0,89,0,,,,,,,89,,,0.2,1437.6126804302185,X,d,go,d,1,0.4002803304611007,,,,,,,,,,,,,,,,,24,001,32,w,Psychologie,2023-01-17_09h04.52.206,00_bat_bachelor,2022.2.4,60.05034035468642,
,,,,,,,,,,,,1,0,1,0,90,0,90,0,,,,,,,90,,,0.2,1438.3132517269114,Y,l,go,l,1,0.43649510077375453,,,,,,,,,,,,,,,,,24,001,32,w,Psychologie,2023-01-17_09h04.52.206,00_bat_bachelor,2022.2.4,60.05034035468642,
,,,,,,,,,,,,1,0,1,0,91,0,91,0,,,,,,,91,,,0.2,1439.0635476055468,X,d,go,d,1,0.405737297507585,,,,,,,,,,,,,,,,,24,001,32,w,Psychologie,2023-01-17_09h04.52.206,00_bat_bachelor,2022.2.4,60.05034035468642,
,,,,,,,,,,,,1,0,1,0,92,0,92,0,,,,,,,92,,,0.2,1439.781081803114,X,None,nogo,None,1,,,,,,,,,,,,,,,,,,24,001,32,w,Psychologie,2023-01-17_09h04.52.206,00_bat_bachelor,2022.2.4,60.05034035468642,
,,,,,,,,,,,,1,0,1,0,93,0,93,0,,,,,,,93,,,0.2,1440.7815322271344,Y,l,go,l,1,0.3360103010054445,,,,,,,,,,,,,,,,,24,001,32,w,Psychologie,2023-01-17_09h04.52.206,00_bat_bachelor,2022.2.4,60.05034035468642,
,,,,,,,,,,,,1,0,1,0,94,0,94,0,,,,,,,94,,,0.2,1441.432298941916,X,d,go,d,1,0.4059292974125128,,,,,,,,,,,,,,,,,24,001,32,w,Psychologie,2023-01-17_09h04.52.206,00_bat_bachelor,2022.2.4,60.05034035468642,
,,,,,,,,,,,,1,0,1,0,95,0,95,0,,,,,,,95,,,0.2,1442.1493749578804,Y,l,go,l,1,0.42555159093171824,,,,,,,,,,,,,,,,,24,001,32,w,Psychologie,2023-01-17_09h04.52.206,00_bat_bachelor,2022.2.4,60.05034035468642,
,,,,,,,,,,,,1,0,1,0,96,0,96,0,,,,,,,96,,,0.2,1442.8832165414642,Y,None,nogo,None,1,,,,,,,,,,,,,,,,,,24,001,32,w,Psychologie,2023-01-17_09h04.52.206,00_bat_bachelor,2022.2.4,60.05034035468642,
,,,,,,,,,,,,1,0,1,0,97,0,97,0,,,,,,,97,,,0.2,1443.8842507227819,X,d,go,d,1,0.30503286149178166,,,,,,,,,,,,,,,,,24,001,32,w,Psychologie,2023-01-17_09h04.52.206,00_bat_bachelor,2022.2.4,60.05034035468642,
,,,,,,,,,,,,1,0,1,0,98,0,98,0,,,,,,,98,,,0.2,1444.5012938175496,Y,l,go,l,1,0.4401615232345648,,,,,,,,,,,,,,,,,24,001,32,w,Psychologie,2023-01-17_09h04.52.206,00_bat_bachelor,2022.2.4,60.05034035468642,
,,,,,,,,,,,,1,0,1,0,99,0,99,0,,,,,,,99,,,0.2,1445.2520362414361,X,d,go,d,1,0.4261144997435622,,,,,,,,,,,,,,,,,24,001,32,w,Psychologie,2023-01-17_09h04.52.206,00_bat_bachelor,2022.2.4,60.05034035468642,
,,,,,,,,,,,,1,0,1,0,100,0,100,0,,,,,,,100,,,0.2,1445.9857532190217,Y,l,go,l,1,0.47591423317498993,,,,,,,,,,,,,,,,,24,001,32,w,Psychologie,2023-01-17_09h04.52.206,00_bat_bachelor,2022.2.4,60.05034035468642,
,,,,,,,,,,,,1,0,1,0,101,0,101,0,,,,,,,101,,,0.2,1446.76973683892,X,d,go,d,1,0.4773615051963134,,,,,,,,,,,,,,,,,24,001,32,w,Psychologie,2023-01-17_09h04.52.206,00_bat_bachelor,2022.2.4,60.05034035468642,
,,,,,,,,,,,,1,0,1,0,102,0,102,0,,,,,,,102,,,0.2,1447.5536928224465,Y,l,go,l,1,0.41328250596416183,,,,,,,,,,,,,,,,,24,001,32,w,Psychologie,2023-01-17_09h04.52.206,00_bat_bachelor,2022.2.4,60.05034035468642,
,,,,,,,,,,,,1,0,1,0,103,0,103,0,,,,,,,103,,,0.2,1448.270556959731,Y,None,nogo,None,1,,,,,,,,,,,,,,,,,,24,001,32,w,Psychologie,2023-01-17_09h04.52.206,00_bat_bachelor,2022.2.4,60.05034035468642,
,,,,,,,,,,,,1,0,1,0,104,0,104,0,,,,,,,104,,,0.2,1449.2716987773601,X,d,go,d,1,0.3272006083134329,,,,,,,,,,,,,,,,,24,001,32,w,Psychologie,2023-01-17_09h04.52.206,00_bat_bachelor,2022.2.4,60.05034035468642,
,,,,,,,,,,,,1,0,1,0,105,0,105,0,,,,,,,105,,,0.2,1449.9054356822162,Y,l,go,l,1,0.4927670734905405,,,,,,,,,,,,,,,,,24,001,32,w,Psychologie,2023-01-17_09h04.52.206,00_bat_bachelor,2022.2.4,60.05034035468642,
,,,,,,,,,,,,1,0,1,0,106,0,106,0,,,,,,,106,,,0.2,1450.706150445505,X,d,go,d,1,0.4284136501373723,,,,,,,,,,,,,,,,,24,001,32,w,Psychologie,2023-01-17_09h04.52.206,00_bat_bachelor,2022.2.4,60.05034035468642,
,,,,,,,,,,,,1,0,1,0,107,0,107,0,,,,,,,107,,,0.2,1451.4399231806456,Y,l,go,l,1,0.5909561167936772,,,,,,,,,,,,,,,,,24,001,32,w,Psychologie,2023-01-17_09h04.52.206,00_bat_bachelor,2022.2.4,60.05034035468642,
,,,,,,,,,,,,1,0,1,0,108,0,108,0,,,,,,,108,,,0.2,1452.3406267439423,X,d,go,d,1,0.4411622500192607,,,,,,,,,,,,,,,,,24,001,32,w,Psychologie,2023-01-17_09h04.52.206,00_bat_bachelor,2022.2.4,60.05034035468642,
,,,,,,,,,,,,1,0,1,0,109,0,109,0,,,,,,,109,,,0.2,1453.0912038345705,Y,l,go,l,1,0.491589861936518,,,,,,,,,,,,,,,,,24,001,32,w,Psychologie,2023-01-17_09h04.52.206,00_bat_bachelor,2022.2.4,60.05034035468642,
,,,,,,,,,,,,1,0,1,0,110,0,110,0,,,,,,,110,,,0.2,1453.8914943556301,Y,None,nogo,None,1,,,,,,,,,,,,,,,,,,24,001,32,w,Psychologie,2023-01-17_09h04.52.206,00_bat_bachelor,2022.2.4,60.05034035468642,
,,,,,,,,,,,,1,0,1,0,111,0,111,0,,,,,,,111,,,0.2,1454.8926536278013,X,d,go,d,1,0.3212243687885348,,,,,,,,,,,,,,,,,24,001,32,w,Psychologie,2023-01-17_09h04.52.206,00_bat_bachelor,2022.2.4,60.05034035468642,
,,,,,,,,,,,,1,0,1,0,112,0,112,0,,,,,,,112,,,0.2,1455.526814774872,Y,l,go,l,1,0.5023185840109363,,,,,,,,,,,,,,,,,24,001,32,w,Psychologie,2023-01-17_09h04.52.206,00_bat_bachelor,2022.2.4,60.05034035468642,
,,,,,,,,,,,,1,0,1,0,113,0,113,0,,,,,,,113,,,0.2,1456.3440517119743,X,d,go,d,1,0.48466865318187047,,,,,,,,,,,,,,,,,24,001,32,w,Psychologie,2023-01-17_09h04.52.206,00_bat_bachelor,2022.2.4,60.05034035468642,
,,,,,,,,,,,,1,0,1,0,114,0,114,0,,,,,,,114,,,0.2,1457.1614331338496,Y,l,go,l,1,0.5159515470877523,,,,,,,,,,,,,,,,,24,001,32,w,Psychologie,2023-01-17_09h04.52.206,00_bat_bachelor,2022.2.4,60.05034035468642,
,,,,,,,,,,,,1,0,1,0,115,0,115,0,,,,,,,115,,,0.2,1457.978812616333,X,d,go,None,0,,1458.779345561532,,,,,,,,,,,,,,,,24,001,32,w,Psychologie,2023-01-17_09h04.52.206,00_bat_bachelor,2022.2.4,60.05034035468642,
,,,,,,,,,,,,1,0,1,0,116,0,116,0,,,,,,,116,,,0.2,1458.9793803736247,Y,l,go,None,0,,1459.7799433794135,,,,,,,,,,,,,,,,24,001,32,w,Psychologie,2023-01-17_09h04.52.206,00_bat_bachelor,2022.2.4,60.05034035468642,
,,,,,,,,,,,,1,0,1,0,117,0,117,0,,,,,,,117,,,0.2,1459.9803074034862,X,d,go,d,1,0.32098339921503793,,,,,,,,,,,,,,,,,24,001,32,w,Psychologie,2023-01-17_09h04.52.206,00_bat_bachelor,2022.2.4,60.05034035468642,
,,,,,,,,,,,,1,0,1,0,118,0,118,0,,,,,,,118,,,0.2,1460.6307866032585,X,None,nogo,None,1,,1461.4314053665876,,,,,,,,,,,,,,,,24,001,32,w,Psychologie,2023-01-17_09h04.52.206,00_bat_bachelor,2022.2.4,60.05034035468642,
,,,,,,,,,,,,1,0,1,0,119,0,119,0,,,,,,,119,,,0.2,1461.6313495120703,X,None,nogo,None,1,,1462.4320031844836,,,,,,,,,,,,,,,,24,001,32,w,Psychologie,2023-01-17_09h04.52.206,00_bat_bachelor,2022.2.4,60.05034035468642,
,,,,,,,,,,,,1,0,1,0,120,0,120,0,,,,,,,120,,,0.2,1462.6323943600437,Y,l,go,l,1,0.3408345410862239,,,,,,,,,,,,,,,,,24,001,32,w,Psychologie,2023-01-17_09h04.52.206,00_bat_bachelor,2022.2.4,60.05034035468642,
,,,,,,,,,,,,1,0,1,0,121,0,121,0,,,,,,,121,,,0.2,1463.2829443476658,X,d,go,None,0,,1464.0832726868975,,,,,,,,,,,,,,,,24,001,32,w,Psychologie,2023-01-17_09h04.52.206,00_bat_bachelor,2022.2.4,60.05034035468642,
,,,,,,,,,,,,1,0,1,0,122,0,122,0,,,,,,,122,,,0.2,1464.283382165624,Y,l,go,d,0,0.19344261255173478,,,,,,,,,,,,,,,,,24,001,32,w,Psychologie,2023-01-17_09h04.52.206,00_bat_bachelor,2022.2.4,60.05034035468642,
,,,,,,,,,,,,1,0,1,0,123,0,123,0,,,,,,,123,,,0.2,1464.8004703997722,X,d,go,None,0,,1465.6010998297716,,,,,,,,,,,,,,,,24,001,32,w,Psychologie,2023-01-17_09h04.52.206,00_bat_bachelor,2022.2.4,60.05034035468642,
,,,,,,,,,,,,1,0,1,0,124,0,124,0,,,,,,,124,,,0.2,1465.8012267630402,X,None,nogo,None,1,,1466.6018498900085,,,,,,,,,,,,,,,,24,001,32,w,Psychologie,2023-01-17_09h04.52.206,00_bat_bachelor,2022.2.4,60.05034035468642,
,,,,,,,,,,,,1,0,1,0,125,0,125,0,,,,,,,125,,,0.2,1466.8020403383998,Y,l,go,l,1,0.25062755451654084,,,,,,,,,,,,,,,,,24,001,32,w,Psychologie,2023-01-17_09h04.52.206,00_bat_bachelor,2022.2.4,60.05034035468642,
,,,,,,,,,,,,1,0,1,0,126,0,126,0,,,,,,,126,,,0.2,1467.3690839422634,X,d,go,None,0,,1468.1697240389185,,,,,,,,,,,,,,,,24,001,32,w,Psychologie,2023-01-17_09h04.52.206,00_bat_bachelor,2022.2.4,60.05034035468642,
,,,,,,,,,,,,1,0,1,0,127,0,127,0,,,,,,,127,,,0.2,1468.3698209115973,X,None,nogo,None,1,,1469.1706772505859,,,,,,,,,,,,,,,,24,001,32,w,Psychologie,2023-01-17_09h04.52.206,00_bat_bachelor,2022.2.4,60.05034035468642,
,,,,,,,,,,,,1,0,1,0,128,0,128,0,,,,,,,128,,,0.2,1469.3708167899022,Y,l,go,l,1,0.19512115718680434,,,,,,,,,,,,,,,,,24,001,32,w,Psychologie,2023-01-17_09h04.52.206,00_bat_bachelor,2022.2.4,60.05034035468642,
,,,,,,,,,,,,1,0,1,0,129,0,129,0,,,,,,,129,,,0.2,1469.8710589716065,X,d,go,d,1,0.41456686897436157,,,,,,,,,,,,,,,,,24,001,32,w,Psychologie,2023-01-17_09h04.52.206,00_bat_bachelor,2022.2.4,60.05034035468642,
,,,,,,,,,,,,1,0,1,0,130,0,130,0,,,,,,,130,,,0.2,1470.5884011692542,Y,l,go,l,1,0.3851089438685449,,,,,,,,,,,,,,,,,24,001,32,w,Psychologie,2023-01-17_09h04.52.206,00_bat_bachelor,2022.2.4,60.05034035468642,
,,,,,,,,,,,,1,0,1,0,131,0,131,0,,,,,,,131,,,0.2,1471.288665072163,Y,None,nogo,None,1,,1472.0894084414904,,,,,,,,,,,,,,,,24,001,32,w,Psychologie,2023-01-17_09h04.52.206,00_bat_bachelor,2022.2.4,60.05034035468642,
,,,,,,,,,,,,1,0,1,0,132,0,132,0,,,,,,,132,,,0.2,1472.2895693141472,Y,None,nogo,None,1,,1473.090298138035,,,,,,,,,,,,,,,,24,001,32,w,Psychologie,2023-01-17_09h04.52.206,00_bat_bachelor,2022.2.4,60.05034035468642,
,,,,,,,,,,,,1,0,1,0,133,0,133,0,,,,,,,133,,,0.2,1473.2905433742853,X,d,go,d,1,0.06620243182987906,,,,,,,,,,,,,,,,,24,001,32,w,Psychologie,2023-01-17_09h04.52.206,00_bat_bachelor,2022.2.4,60.05034035468642,
,,,,,,,,,,,,1,0,1,0,134,0,134,0,,,,,,,134,,,0.2,1473.6738954308385,Y,l,go,l,1,0.4352907377178781,,,,,,,,,,,,,,,,,24,001,32,w,Psychologie,2023-01-17_09h04.52.206,00_bat_bachelor,2022.2.4,60.05034035468642,
,,,,,,,,,,,,1,0,1,0,135,0,135,0,,,,,,,135,,,0.2,1474.4244957941846,X,d,go,d,1,0.4852398044167785,,,,,,,,,,,,,,,,,24,001,32,w,Psychologie,2023-01-17_09h04.52.206,00_bat_bachelor,2022.2.4,60.05034035468642,
,,,,,,,,,,,,1,0,1,0,136,0,136,0,,,,,,,136,,,0.2,1475.2252061938343,Y,l,go,l,1,0.387060942928656,,,,,,,,,,,,,,,,,24,001,32,w,Psychologie,2023-01-17_09h04.52.206,00_bat_bachelor,2022.2.4,60.05034035468642,
,,,,,,,,,,,,1,0,1,0,137,0,137,0,,,,,,,137,,,0.2,1475.9424359066907,X,d,go,d,1,0.438422857405385,,,,,,,,,,,,,,,,,24,001,32,w,Psychologie,2023-01-17_09h04.52.206,00_bat_bachelor,2022.2.4,60.05034035468642,
,,,,,,,,,,,,1,0,1,0,138,0,138,0,,,,,,,138,,,0.2,1476.6930765124416,Y,l,go,l,1,0.392596455392777,,,,,,,,,,,,,,,,,24,001,32,w,Psychologie,2023-01-17_09h04.52.206,00_bat_bachelor,2022.2.4,60.05034035468642,
,,,,,,,,,,,,1,0,1,0,139,0,139,0,,,,,,,139,,,0.2,1477.393369991085,Y,None,nogo,None,1,,1478.1940192998736,,,,,,,,,,,,,,,,24,001,32,w,Psychologie,2023-01-17_09h04.52.206,00_bat_bachelor,2022.2.4,60.05034035468642,
,,,,,,,,,,,,1,0,1,0,140,0,140,0,,,,,,,140,,,0.2,1478.3942776270123,X,d,go,d,1,0.40413632859417703,,,,,,,,,,,,,,,,,24,001,32,w,Psychologie,2023-01-17_09h04.52.206,00_bat_bachelor,2022.2.4,60.05034035468642,
,,,,,,,,,,,,1,0,1,0,141,0,141,0,,,,,,,141,,,0.2,1479.111509764116,Y,l,go,l,1,0.45350600162055343,,,,,,,,,,,,,,,,,24,001,32,w,Psychologie,2023-01-17_09h04.52.206,00_bat_bachelor,2022.2.4,60.05034035468642,
,,,,,,,,,,,,1,0,1,0,142,0,142,0,,,,,,,142,,,0.2,1479.8790458768199,Y,None,nogo,None,1,,1480.6792428221815,,,,,,,,,,,,,,,,24,001,32,w,Psychologie,2023-01-17_09h04.52.206,00_bat_bachelor,2022.2.4,60.05034035468642,
,,,,,,,,,,,,1,0,1,0,143,0,143,0,,,,,,,143,,,0.2,1480.8796049068624,X,d,go,d,1,0.5261512997240061,,,,,,,,,,,,,,,,,24,001,32,w,Psychologie,2023-01-17_09h04.52.206,00_bat_bachelor,2022.2.4,60.05034035468642,
,,,,,,,,,,,,1,0,1,0,144,0,144,0,,,,,,,144,,,0.2,1481.7136452297418,Y,l,go,l,1,0.39565924179623835,,,,,,,,,,,,,,,,,24,001,32,w,Psychologie,2023-01-17_09h04.52.206,00_bat_bachelor,2022.2.4,60.05034035468642,
,,,,,,,,,,,,1,0,1,0,145,0,145,0,,,,,,,145,,,0.2,1482.430738215393,Y,None,nogo,None,1,,1483.2311683727603,,,,,,,,,,,,,,,,24,001,32,w,Psychologie,2023-01-17_09h04.52.206,00_bat_bachelor,2022.2.4,60.05034035468642,
,,,,,,,,,,,,1,0,1,0,146,0,146,0,,,,,,,146,,,0.2,1483.4315125180583,X,d,go,d,1,0.43699594901409,,,,,,,,,,,,,,,,,24,001,32,w,Psychologie,2023-01-17_09h04.52.206,00_bat_bachelor,2022.2.4,60.05034035468642,
,,,,,,,,,,,,1,0,1,0,147,0,147,0,,,,,,,147,,,0.2,1484.1988789338793,Y,l,go,l,1,0.3748422821809072,,,,,,,,,,,,,,,,,24,001,32,w,Psychologie,2023-01-17_09h04.52.206,00_bat_bachelor,2022.2.4,60.05034035468642,
,,,,,,,,,,,,1,0,1,0,148,0,148,0,,,,,,,148,,,0.2,1484.8991452610207,X,d,go,d,1,0.4258095301920548,,,,,,,,,,,,,,,,,24,001,32,w,Psychologie,2023-01-17_09h04.52.206,00_bat_bachelor,2022.2.4,60.05034035468642,
,,,,,,,,,,,,1,0,1,0,149,0,149,0,,,,,,,149,,,0.2,1485.6330406627676,X,None,nogo,None,1,,1486.4336419715692,,,,,,,,,,,,,,,,24,001,32,w,Psychologie,2023-01-17_09h04.52.206,00_bat_bachelor,2022.2.4,60.05034035468642,
,,,,,,,,,,,,1,0,1,0,150,0,150,0,,,,,,,150,,,0.2,1486.63373593516,X,None,nogo,None,1,,1487.4343852439342,,,,,,,,,,,,,,,,24,001,32,w,Psychologie,2023-01-17_09h04.52.206,00_bat_bachelor,2022.2.4,60.05034035468642,
,,,,,,,,,,,,1,0,1,0,151,0,151,0,,,,,,,151,,,0.2,1487.634725995289,Y,l,go,l,1,0.29792934977740515,,,,,,,,,,,,,,,,,24,001,32,w,Psychologie,2023-01-17_09h04.52.206,00_bat_bachelor,2022.2.4,60.05034035468642,
,,,,,,,,,,,,1,0,1,0,152,0,152,0,,,,,,,152,,,0.2,1488.2517744233774,X,d,go,d,1,0.5133105786808301,,,,,,,,,,,,,,,,,24,001,32,w,Psychologie,2023-01-17_09h04.52.206,00_bat_bachelor,2022.2.4,60.05034035468642,
,,,,,,,,,,,,1,0,1,0,153,0,153,0,,,,,,,153,,,0.2,1489.0859999583045,Y,l,go,l,1,0.43097364890854806,,,,,,,,,,,,,,,,,24,001,32,w,Psychologie,2023-01-17_09h04.52.206,00_bat_bachelor,2022.2.4,60.05034035468642,
,,,,,,,,,,,,1,0,1,0,154,0,154,0,,,,,,,154,,,0.2,1489.8362439581833,Y,None,nogo,None,1,,1490.6369398123934,,,,,,,,,,,,,,,,24,001,32,w,Psychologie,2023-01-17_09h04.52.206,00_bat_bachelor,2022.2.4,60.05034035468642,
,,,,,,,,,,,,1,0,1,0,155,0,155,0,,,,,,,155,,,0.2,1490.837235472849,X,d,go,d,1,0.35970628951326944,,,,,,,,,,,,,,,,,24,001,32,w,Psychologie,2023-01-17_09h04.52.206,00_bat_bachelor,2022.2.4,60.05034035468642,
,,,,,,,,,,,,1,0,1,0,156,0,156,0,,,,,,,156,,,0.2,1491.521044595851,Y,l,go,l,1,0.44455812715750653,,,,,,,,,,,,,,,,,24,001,32,w,Psychologie,2023-01-17_09h04.52.206,00_bat_bachelor,2022.2.4,60.05034035468642,
,,,,,,,,,,,,1,0,1,0,157,0,157,0,,,,,,,157,,,0.2,1492.2715930804407,Y,None,nogo,None,1,,1493.0719941469142,,,,,,,,,,,,,,,,24,001,32,w,Psychologie,2023-01-17_09h04.52.206,00_bat_bachelor,2022.2.4,60.05034035468642,
,,,,,,,,,,,,1,0,1,0,158,0,158,0,,,,,,,158,,,0.2,1493.2721947771206,X,d,go,d,1,0.2929169885755982,,,,,,,,,,,,,,,,,24,001,32,w,Psychologie,2023-01-17_09h04.52.206,00_bat_bachelor,2022.2.4,60.05034035468642,
,,,,,,,,,,,,1,0,1,0,159,0,159,0,,,,,,,159,,,0.2,1493.8727326677617,Y,l,go,l,1,0.38118361243687104,,,,,,,,,,,,,,,,,24,001,32,w,Psychologie,2023-01-17_09h04.52.206,00_bat_bachelor,2022.2.4,60.05034035468642,
,,,,,,,,,,,,1,0,1,0,160,0,160,0,,,,,,,160,,,0.2,1494.556479245337,X,d,go,d,1,0.3693334363633767,,,,,,,,,,,,,,,,,24,001,32,w,Psychologie,2023-01-17_09h04.52.206,00_bat_bachelor,2022.2.4,60.05034035468642,
,,,,,,,,,,,,1,0,1,0,161,0,161,0,,,,,,,161,,,0.2,1495.2405225500406,X,None,nogo,l,0,0.357215624069795,,,,,,,,,,,,,,,,,24,001,32,w,Psychologie,2023-01-17_09h04.52.206,00_bat_bachelor,2022.2.4,60.05034035468642,
,,,,,,,,,,,,1,0,1,0,162,0,162,0,,,,,,,162,,,0.2,1495.9244068245316,Y,l,go,None,0,,1496.7249979515182,,,,,,,,,,,,,,,,24,001,32,w,Psychologie,2023-01-17_09h04.52.206,00_bat_bachelor,2022.2.4,60.05034035468642,
,,,,,,,,,,,,1,0,1,0,163,0,163,0,,,,,,,163,,,0.2,1496.9251113090286,X,d,go,d,1,0.5443495939252898,,,,,,,,,,,,,,,,,24,001,32,w,Psychologie,2023-01-17_09h04.52.206,00_bat_bachelor,2022.2.4,60.05034035468642,
,,,,,,,,,,,,1,0,1,0,164,0,164,0,,,,,,,164,,,0.2,1497.7756141693972,X,None,nogo,None,1,,1498.5762891751365,,,,,,,,,,,,,,,,24,001,32,w,Psychologie,2023-01-17_09h04.52.206,00_bat_bachelor,2022.2.4,60.05034035468642,
,,,,,,,,,,,,1,0,1,0,165,0,165,0,,,,,,,165,,,0.2,1498.7764112599252,Y,l,go,l,1,0.37373294938879553,,,,,,,,,,,,,,,,,24,001,32,w,Psychologie,2023-01-17_09h04.52.206,00_bat_bachelor,2022.2.4,60.05034035468642,
,,,,,,,,,,,,1,0,1,0,166,0,166,0,,,,,,,166,,,0.2,1499.4603672919475,X,d,go,d,1,0.40893099292588886,,,,,,,,,,,,,,,,,24,001,32,w,Psychologie,2023-01-17_09h04.52.206,00_bat_bachelor,2022.2.4,60.05034035468642,
,,,,,,,,,,,,1,0,1,0,167,0,167,0,,,,,,,167,,,0.2,1500.1940522695513,X,None,nogo,None,1,,1500.9948693358165,,,,,,,,,,,,,,,,24,001,32,w,Psychologie,2023-01-17_09h04.52.206,00_bat_bachelor,2022.2.4,60.05034035468642,
,,,,,,,,,,,,1,0,1,0,168,0,168,0,,,,,,,168,,,0.2,1501.1948449964402,Y,l,go,l,1,0.27358608884969726,,,,,,,,,,,,,,,,,24,001,32,w,Psychologie,2023-01-17_09h04.52.206,00_bat_bachelor,2022.2.4,60.05034035468642,
,,,,,,,,,,,,1,0,1,0,169,0,169,0,,,,,,,169,,,0.2,1501.7953411901399,X,d,go,d,1,0.4738502341788262,,,,,,,,,,,,,,,,,24,001,32,w,Psychologie,2023-01-17_09h04.52.206,00_bat_bachelor,2022.2.4,60.05034035468642,
,,,,,,,,,,,,1,0,1,0,170,0,170,0,,,,,,,170,,,0.2,1502.579250628245,X,None,nogo,None,1,,1503.3798533915833,,,,,,,,,,,,,,,,24,001,32,w,Psychologie,2023-01-17_09h04.52.206,00_bat_bachelor,2022.2.4,60.05034035468642,
,,,,,,,,,,,,1,0,1,0,171,0,171,0,,,,,,,171,,,0.2,1503.5802038398979,Y,l,go,l,1,0.320349702538806,,,,,,,,,,,,,,,,,24,001,32,w,Psychologie,2023-01-17_09h04.52.206,00_bat_bachelor,2022.2.4,60.05034035468642,
,,,,,,,,,,,,1,0,1,0,172,0,172,0,,,,,,,172,,,0.2,1504.2305327367067,X,d,go,d,1,0.42187353210465517,,,,,,,,,,,,,,,,,24,001,32,w,Psychologie,2023-01-17_09h04.52.206,00_bat_bachelor,2022.2.4,60.05034035468642,
,,,,,,,,,,,,1,0,1,0,173,0,173,0,,,,,,,173,,,0.2,1504.981261584835,X,None,nogo,None,1,,1505.7816742876748,,,,,,,,,,,,,,,,24,001,32,w,Psychologie,2023-01-17_09h04.52.206,00_bat_bachelor,2022.2.4,60.05034035468642,
,,,,,,,,,,,,1,0,1,0,174,0,174,0,,,,,,,174,,,0.2,1505.981862311819,Y,l,go,l,1,0.27098972647218034,,,,,,,,,,,,,,,,,24,001,32,w,Psychologie,2023-01-17_09h04.52.206,00_bat_bachelor,2022.2.4,60.05034035468642,
,,,,,,,,,,,,1,0,1,0,175,0,175,0,,,,,,,175,,,0.2,1506.5659371801448,X,d,go,d,1,0.47161847769166343,,,,,,,,,,,,,,,,,24,001,32,w,Psychologie,2023-01-17_09h04.52.206,00_bat_bachelor,2022.2.4,60.05034035468642,
,,,,,,,,,,,,1,0,1,0,176,0,176,0,,,,,,,176,,,0.2,1507.3496507395612,Y,l,go,l,1,0.43925437216239516,,,,,,,,,,,,,,,,,24,001,32,w,Psychologie,2023-01-17_09h04.52.206,00_bat_bachelor,2022.2.4,60.05034035468642,
,,,,,,,,,,,,1,0,1,0,177,0,177,0,,,,,,,177,,,0.2,1508.100463951283,X,d,go,d,1,0.5367990521335742,,,,,,,,,,,,,,,,,24,001,32,w,Psychologie,2023-01-17_09h04.52.206,00_bat_bachelor,2022.2.4,60.05034035468642,
,,,,,,,,,,,,1,0,1,0,178,0,178,0,,,,,,,178,,,0.2,1508.9674681369797,X,None,nogo,None,1,,1509.7682420517522,,,,,,,,,,,,,,,,24,001,32,w,Psychologie,2023-01-17_09h04.52.206,00_bat_bachelor,2022.2.4,60.05034035468642,
,,,,,,,,,,,,1,0,1,0,179,0,179,0,,,,,,,179,,,0.2,1509.96823225783,Y,l,go,l,1,0.38156373346282635,,,,,,,,,,,,,,,,,24,001,32,w,Psychologie,2023-01-17_09h04.52.206,00_bat_bachelor,2022.2.4,60.05034035468642,
,,,,,,,,,,,,1,0,1,0,180,0,180,0,,,,,,,180,,,0.2,1510.6522285322571,X,d,go,d,1,0.3688044669397641,,,,,,,,,,,,,,,,,24,001,32,w,Psychologie,2023-01-17_09h04.52.206,00_bat_bachelor,2022.2.4,60.05034035468642,
,,,,,,,,,,,,1,0,1,0,181,0,181,0,,,,,,,181,,,0.2,1511.352595222983,X,None,nogo,None,1,,1512.153243562061,,,,,,,,,,,,,,,,24,001,32,w,Psychologie,2023-01-17_09h04.52.206,00_bat_bachelor,2022.2.4,60.05034035468642,
,,,,,,,,,,,,1,0,1,0,182,0,182,0,,,,,,,182,,,0.2,1512.3535009195184,Y,l,go,l,1,0.20380333480716217,,,,,,,,,,,,,,,,,24,001,32,w,Psychologie,2023-01-17_09h04.52.206,00_bat_bachelor,2022.2.4,60.05034035468642,
,,,,,,,,,,,,1,0,1,0,183,0,183,0,,,,,,,183,,,0.2,1512.8706293960568,X,d,go,d,1,0.406057297353982,,,,,,,,,,,,,,,,,24,001,32,w,Psychologie,2023-01-17_09h04.52.206,00_bat_bachelor,2022.2.4,60.05034035468642,
,,,,,,,,,,,,1,0,1,0,184,0,184,0,,,,,,,184,,,0.2,1513.6043386160745,X,None,nogo,None,1,,1514.4049379854841,,,,,,,,,,,,,,,,24,001,32,w,Psychologie,2023-01-17_09h04.52.206,00_bat_bachelor,2022.2.4,60.05034035468642,
,,,,,,,,,,,,1,0,1,0,185,0,185,0,,,,,,,185,,,0.2,1514.6051614035532,Y,l,go,l,1,0.4162715954298619,,,,,,,,,,,,,,,,,24,001,32,w,Psychologie,2023-01-17_09h04.52.206,00_bat_bachelor,2022.2.4,60.05034035468642,
,,,,,,,,,,,,1,0,1,0,186,0,186,0,,,,,,,186,,,0.2,1515.3225225102942,X,d,go,d,1,0.24262804325553589,,,,,,,,,,,,,,,,,24,001,32,w,Psychologie,2023-01-17_09h04.52.206,00_bat_bachelor,2022.2.4,60.05034035468642,
,,,,,,,,,,,,1,0,1,0,187,0,187,0,,,,,,,187,,,0.2,1515.8895825989894,Y,l,go,l,1,0.4452587328851223,,,,,,,,,,,,,,,,,24,001,32,w,Psychologie,2023-01-17_09h04.52.206,00_bat_bachelor,2022.2.4,60.05034035468642,
,,,,,,,,,,,,1,0,1,0,188,0,188,0,,,,,,,188,,,0.2,1516.6401499926578,Y,None,nogo,d,0,0.17225571374001447,,,,,,,,,,,,,,,,,24,001,32,w,Psychologie,2023-01-17_09h04.52.206,00_bat_bachelor,2022.2.4,60.05034035468642,
,,,,,,,,,,,,1,0,1,0,189,0,189,0,,,,,,,189,,,0.2,1517.1402806592523,X,d,go,None,0,,1517.9410628164478,,,,,,,,,,,,,,,,24,001,32,w,Psychologie,2023-01-17_09h04.52.206,00_bat_bachelor,2022.2.4,60.05034035468642,
,,,,,,,,,,,,1,0,1,0,190,0,190,0,,,,,,,190,,,0.2,1518.141323082993,Y,l,go,l,1,0.2882808696012944,,,,,,,,,,,,,,,,,24,001,32,w,Psychologie,2023-01-17_09h04.52.206,00_bat_bachelor,2022.2.4,60.05034035468642,
,,,,,,,,,,,,1,0,1,0,191,0,191,0,,,,,,,191,,,0.2,1518.7410134589009,Y,None,nogo,None,1,,1519.5415337980376,,,,,,,,,,,,,,,,24,001,32,w,Psychologie,2023-01-17_09h04.52.206,00_bat_bachelor,2022.2.4,60.05034035468642,
,,,,,,,,,,,,1,0,1,0,192,0,192,0,,,,,,,192,,,0.2,1519.7420621856581,X,d,go,d,1,0.2554294915898936,,,,,,,,,,,,,,,,,24,001,32,w,Psychologie,2023-01-17_09h04.52.206,00_bat_bachelor,2022.2.4,60.05034035468642,
,,,,,,,,,,,,1,0,1,0,193,0,193,0,,,,,,,193,,,0.2,1520.3090946380107,Y,l,go,l,1,0.4414347347483272,,,,,,,,,,,,,,,,,24,001,32,w,Psychologie,2023-01-17_09h04.52.206,00_bat_bachelor,2022.2.4,60.05034035468642,
,,,,,,,,,,,,1,0,1,0,194,0,194,0,,,,,,,194,,,0.2,1521.059734758921,X,d,go,d,1,0.36328495445195585,,,,,,,,,,,,,,,,,24,001,32,w,Psychologie,2023-01-17_09h04.52.206,00_bat_bachelor,2022.2.4,60.05034035468642,
,,,,,,,,,,,,1,0,1,0,195,0,195,0,,,,,,,195,,,0.2,1521.7268355263805,Y,l,go,l,1,0.3666517406963976,,,,,,,,,,,,,,,,,24,001,32,w,Psychologie,2023-01-17_09h04.52.206,00_bat_bachelor,2022.2.4,60.05034035468642,
,,,,,,,,,,,,1,0,1,0,196,0,196,0,,,,,,,196,,,0.2,1522.3936769000284,X,d,go,d,1,0.35558798848069273,,,,,,,,,,,,,,,,,24,001,32,w,Psychologie,2023-01-17_09h04.52.206,00_bat_bachelor,2022.2.4,60.05034035468642,
,,,,,,,,,,,,1,0,1,0,197,0,197,0,,,,,,,197,,,0.2,1523.0610942734056,Y,l,go,l,1,0.3937479699961841,,,,,,,,,,,,,,,,,24,001,32,w,Psychologie,2023-01-17_09h04.52.206,00_bat_bachelor,2022.2.4,60.05034035468642,
,,,,,,,,,,,,1,0,1,0,198,0,198,0,,,,,,,198,,,0.2,1523.7617033882561,Y,None,nogo,None,1,,1524.5620133032644,,,,,,,,,,,,,,,,24,001,32,w,Psychologie,2023-01-17_09h04.52.206,00_bat_bachelor,2022.2.4,60.05034035468642,
,,,,,,,,,,,,1,0,1,0,199,0,199,0,,,,,,,199,,,0.2,1524.7624490848684,X,d,go,d,1,0.32360594339843374,,,,,,,,,,,,,,,,,24,001,32,w,Psychologie,2023-01-17_09h04.52.206,00_bat_bachelor,2022.2.4,60.05034035468642,
,,,,,,,,,,,,1,0,1,0,200,0,200,0,,,,,,,200,,,0.2,1525.3963265957136,Y,l,go,l,1,0.3459826598118525,,,,,,,,,,,,,,,,,24,001,32,w,Psychologie,2023-01-17_09h04.52.206,00_bat_bachelor,2022.2.4,60.05034035468642,
