loop_instruction.thisRepN,loop_instruction.thisTrialN,loop_instruction.thisN,loop_instruction.thisIndex,loop_rsi_practice.thisRepN,loop_rsi_practice.thisTrialN,loop_rsi_practice.thisN,loop_rsi_practice.thisIndex,loop_practice.thisRepN,loop_practice.thisTrialN,loop_practice.thisN,loop_practice.thisIndex,loop_exp.thisRepN,loop_exp.thisTrialN,loop_exp.thisN,loop_exp.thisIndex,loop_trials.thisRepN,loop_trials.thisTrialN,loop_trials.thisN,loop_trials.thisIndex,map_condition,map_x_key,map_y_key,key_resp_welcome.started,key_resp_welcome.keys,key_resp_welcome.rt,index,text_empty_rsi_practice.started,text_empty_rsi_practice.stopped,rsi,stimulus.started,stimulus,correct,trial_type,key_resp_trial.keys,key_resp_trial.corr,key_resp_trial.rt,stimulus.stopped,key_resp_instruction_rsi.started,key_resp_instruction_rsi.keys,key_resp_instruction_rsi.rt,key_resp_instruction_rsi.stopped,key_resp_instruction_final.started,key_resp_instruction_final.keys,key_resp_instruction_final.rt,key_resp_break.started,key_resp_break.keys,key_resp_break.rt,key_resp_break.stopped,key_resp_end_screen.started,image_end_screen.started,key_resp_end_screen.keys,key_resp_end_screen.rt,participant,session,Alter,Geschlecht (w/m/d/andere),Studiengang,date,expName,psychopyVersion,frameRate,
,,,,0,0,0,0,0,0,0,0,,,,,,,,,1,l,d,940.475898920733,j,20.90974331990583,0,961.4136007691268,962.4265597931808,1,962.4265597931808,X,l,go,l,1,0.42667397833429277,,,,,,,,,,,,,,,,,25,001,22,w,Bildungswissenschaften,2023-01-17_09h05.39.987,00_bat_bachelor,2022.2.4,59.95642441382072,
,,,,0,0,0,0,1,0,1,0,,,,,,,,,,,,,,,1,963.5610363340238,964.577628325962,1,964.577628325962,Y,d,go,d,1,0.2910342864925042,,,,,,,,,,,,,,,,,25,001,22,w,Bildungswissenschaften,2023-01-17_09h05.39.987,00_bat_bachelor,2022.2.4,59.95642441382072,
,,,,0,0,0,0,2,0,2,0,,,,,,,,,,,,,,,2,965.5795958401868,966.5801587490132,1,966.5801587490132,X,l,go,l,1,0.41727713437285274,,,,,,,,,,,,,,,,,25,001,22,w,Bildungswissenschaften,2023-01-17_09h05.39.987,00_bat_bachelor,2022.2.4,59.95642441382072,
,,,,0,0,0,0,3,0,3,0,,,,,,,,,,,,,,,3,967.7141155325226,968.7148966230452,1,968.7148966230452,Y,d,go,d,1,0.297669434803538,,,,,,,,,,,,,,,,,25,001,22,w,Bildungswissenschaften,2023-01-17_09h05.39.987,00_bat_bachelor,2022.2.4,59.95642441382072,
,,,,0,0,0,0,4,0,4,0,,,,,,,,,,,,,,,4,969.732592614484,970.7331909172353,1,970.7331909172353,Y,None,nogo,None,1,,971.533792710863,,,,,,,,,,,,,,,,25,001,22,w,Bildungswissenschaften,2023-01-17_09h05.39.987,00_bat_bachelor,2022.2.4,59.95642441382072,
,,,,0,0,0,0,5,0,5,0,,,,,,,,,,,,,,,5,972.1342171470169,973.1351451465744,1,973.1351451465744,X,l,go,l,1,0.29362580040469766,,,,,,,,,,,,,,,,,25,001,22,w,Bildungswissenschaften,2023-01-17_09h05.39.987,00_bat_bachelor,2022.2.4,59.95642441382072,
,,,,0,0,0,0,6,0,6,0,,,,,,,,,,,,,,,6,974.1527082895627,975.1531606530189,1,975.1531606530189,Y,d,go,d,1,0.19622318097390234,,,,,,,,,,,,,,,,,25,001,22,w,Bildungswissenschaften,2023-01-17_09h05.39.987,00_bat_bachelor,2022.2.4,59.95642441382072,
,,,,0,0,0,0,7,0,7,0,,,,,,,,,,,,,,,7,976.0708183898823,977.0714860259322,1,977.0714860259322,X,l,go,l,1,0.3252316032303497,,,,,,,,,,,,,,,,,25,001,22,w,Bildungswissenschaften,2023-01-17_09h05.39.987,00_bat_bachelor,2022.2.4,59.95642441382072,
,,,,0,0,0,0,8,0,8,0,,,,,,,,,,,,,,,8,978.1223538800841,979.1228377586231,1,979.1228377586231,Y,d,go,d,1,0.3376228699926287,,,,,,,,,,,,,,,,,25,001,22,w,Bildungswissenschaften,2023-01-17_09h05.39.987,00_bat_bachelor,2022.2.4,59.95642441382072,
,,,,0,0,0,0,9,0,9,0,,,,,,,,,,,,,,,9,980.1904891197337,981.1908159074956,1,981.1908159074956,Y,None,nogo,None,1,,981.9914036405389,,,,,,,,,,,,,,,,25,001,22,w,Bildungswissenschaften,2023-01-17_09h05.39.987,00_bat_bachelor,2022.2.4,59.95642441382072,
,,,,0,0,0,0,10,0,10,0,,,,,,,,,,,,,,,10,982.5916554707219,983.5925815308583,1,983.5925815308583,X,l,go,l,1,0.493475885305088,,,,,,,,,,,,,,,,,25,001,22,w,Bildungswissenschaften,2023-01-17_09h05.39.987,00_bat_bachelor,2022.2.4,59.95642441382072,
,,,,0,0,0,0,11,0,11,0,,,,,,,,,,,,,,,11,984.7934362213709,985.7941765846335,1,985.7941765846335,Y,d,go,d,1,0.3073387634358369,,,,,,,,,,,,,,,,,25,001,22,w,Bildungswissenschaften,2023-01-17_09h05.39.987,00_bat_bachelor,2022.2.4,59.95642441382072,
,,,,0,0,0,0,12,0,12,0,,,,,,,,,,,,,,,12,986.8117576669902,987.8126560908277,1,987.8126560908277,Y,None,nogo,l,0,0.2257068030303344,,,,,,,,,,,,,,,,,25,001,22,w,Bildungswissenschaften,2023-01-17_09h05.39.987,00_bat_bachelor,2022.2.4,59.95642441382072,
,,,,0,0,0,0,13,0,13,0,,,,,,,,,,,,,,,13,989.1633817389375,990.1644445263082,1,990.1644445263082,X,l,go,l,1,0.6257536393823102,,,,,,,,,,,,,,,,,25,001,22,w,Bildungswissenschaften,2023-01-17_09h05.39.987,00_bat_bachelor,2022.2.4,59.95642441382072,
,,,,0,0,0,0,14,0,14,0,,,,,,,,,,,,,,,14,991.4986906672711,992.4994140608469,1,992.4994140608469,Y,d,go,d,1,0.41800489160232246,,,,,,,,,,,,,,,,,25,001,22,w,Bildungswissenschaften,2023-01-17_09h05.39.987,00_bat_bachelor,2022.2.4,59.95642441382072,
,,,,1,0,1,0,0,0,0,0,,,,,,,,,,,,,,,0,1021.7382129753823,1021.9385008782847,0.2,1021.9385008782847,X,l,go,None,0,,,993.6668714342522,j,28.054028340848163,,,,,,,,,,,,,25,001,22,w,Bildungswissenschaften,2023-01-17_09h05.39.987,00_bat_bachelor,2022.2.4,59.95642441382072,
,,,,1,0,1,0,1,0,1,0,,,,,,,,,,,,,,,1,1023.3394151081447,1023.5397621625452,0.2,1023.5397621625452,Y,d,go,d,1,0.27466580958571285,,,,,,,,,,,,,,,,,25,001,22,w,Bildungswissenschaften,2023-01-17_09h05.39.987,00_bat_bachelor,2022.2.4,59.95642441382072,
,,,,1,0,1,0,2,0,2,0,,,,,,,,,,,,,,,2,1024.5233005947666,1024.7234886189108,0.2,1024.7234886189108,X,l,go,l,1,0.17824840178946033,,,,,,,,,,,,,,,,,25,001,22,w,Bildungswissenschaften,2023-01-17_09h05.39.987,00_bat_bachelor,2022.2.4,59.95642441382072,
,,,,1,0,1,0,3,0,3,0,,,,,,,,,,,,,,,3,1025.6077781295753,1025.8075894266367,0.2,1025.8075894266367,X,None,nogo,d,0,0.2309741944191046,,,,,,,,,,,,,,,,,25,001,22,w,Bildungswissenschaften,2023-01-17_09h05.39.987,00_bat_bachelor,2022.2.4,59.95642441382072,
,,,,1,0,1,0,4,0,4,0,,,,,,,,,,,,,,,4,1027.14225011284,1027.3423557127826,0.2,1027.3423557127826,Y,d,go,l,0,0.66488089307677,,,,,,,,,,,,,,,,,25,001,22,w,Bildungswissenschaften,2023-01-17_09h05.39.987,00_bat_bachelor,2022.2.4,59.95642441382072,
,,,,1,0,1,0,5,0,5,0,,,,,,,,,,,,,,,5,1028.7104015949299,1028.91051543731,0.2,1028.91051543731,X,l,go,l,1,0.4557183278957382,,,,,,,,,,,,,,,,,25,001,22,w,Bildungswissenschaften,2023-01-17_09h05.39.987,00_bat_bachelor,2022.2.4,59.95642441382072,
,,,,1,0,1,0,6,0,6,0,,,,,,,,,,,,,,,6,1030.078186628758,1030.2782277438673,0.2,1030.2782277438673,X,None,nogo,l,0,0.5109556344104931,,,,,,,,,,,,,,,,,25,001,22,w,Bildungswissenschaften,2023-01-17_09h05.39.987,00_bat_bachelor,2022.2.4,59.95642441382072,
,,,,1,0,1,0,7,0,7,0,,,,,,,,,,,,,,,7,1031.8961731412564,1032.096295710886,0.2,1032.096295710886,Y,d,go,d,1,0.6623141064774245,,,,,,,,,,,,,,,,,25,001,22,w,Bildungswissenschaften,2023-01-17_09h05.39.987,00_bat_bachelor,2022.2.4,59.95642441382072,
,,,,1,0,1,0,8,0,8,0,,,,,,,,,,,,,,,8,1033.4639658356318,1033.66398707201,0.2,1033.66398707201,X,l,go,l,1,0.32552978495368734,,,,,,,,,,,,,,,,,25,001,22,w,Bildungswissenschaften,2023-01-17_09h05.39.987,00_bat_bachelor,2022.2.4,59.95642441382072,
,,,,1,0,1,0,9,0,9,0,,,,,,,,,,,,,,,9,1034.6984631764935,1034.898439321958,0.2,1034.898439321958,Y,d,go,d,1,0.35573922481853515,,,,,,,,,,,,,,,,,25,001,22,w,Bildungswissenschaften,2023-01-17_09h05.39.987,00_bat_bachelor,2022.2.4,59.95642441382072,
,,,,1,0,1,0,10,0,10,0,,,,,,,,,,,,,,,10,1035.965916137735,1036.1660328891594,0.2,1036.1660328891594,X,l,go,l,1,0.3843952109455131,,,,,,,,,,,,,,,,,25,001,22,w,Bildungswissenschaften,2023-01-17_09h05.39.987,00_bat_bachelor,2022.2.4,59.95642441382072,
,,,,1,0,1,0,11,0,11,0,,,,,,,,,,,,,,,11,1037.2669079917832,1037.4668778342311,0.2,1037.4668778342311,Y,d,go,d,1,0.3628252819762565,,,,,,,,,,,,,,,,,25,001,22,w,Bildungswissenschaften,2023-01-17_09h05.39.987,00_bat_bachelor,2022.2.4,59.95642441382072,
,,,,1,0,1,0,12,0,12,0,,,,,,,,,,,,,,,12,1038.5344428923563,1038.7346406134893,0.2,1038.7346406134893,Y,None,nogo,None,1,,,,,,,,,,,,,,,,,,25,001,22,w,Bildungswissenschaften,2023-01-17_09h05.39.987,00_bat_bachelor,2022.2.4,59.95642441382072,
,,,,1,0,1,0,13,0,13,0,,,,,,,,,,,,,,,13,1040.136263691471,1040.3364163217484,0.2,1040.3364163217484,X,l,go,l,1,0.3563079518498853,,,,,,,,,,,,,,,,,25,001,22,w,Bildungswissenschaften,2023-01-17_09h05.39.987,00_bat_bachelor,2022.2.4,59.95642441382072,
,,,,1,0,1,0,14,0,14,0,,,,,,,,,,,,,,,14,1041.4205743415514,1041.6207070929813,0.2,1041.6207070929813,Y,d,go,d,1,0.22482583374949172,,,,,,,,,,,,,,,,,25,001,22,w,Bildungswissenschaften,2023-01-17_09h05.39.987,00_bat_bachelor,2022.2.4,59.95642441382072,
,,,,,,,,,,,,,,,,,,,,,,,,,,,,,,,,,,,,,,1042.6378459937405,None,,1042.6378459937405,1042.6378459937405,space,13.626931820588652,,,,,,,,,25,001,22,w,Bildungswissenschaften,2023-01-17_09h05.39.987,00_bat_bachelor,2022.2.4,59.95642441382072,
,,,,,,,,,,,,0,0,0,0,0,0,0,0,,,,,,,0,,,1,1057.29886046116,X,l,go,l,1,0.27471235499251634,,,,,,,,,,,,,,,,,25,001,22,w,Bildungswissenschaften,2023-01-17_09h05.39.987,00_bat_bachelor,2022.2.4,59.95642441382072,
,,,,,,,,,,,,0,0,0,0,1,0,1,0,,,,,,,1,,,1,1058.6826062144828,Y,d,go,d,1,0.29861973732477054,,,,,,,,,,,,,,,,,25,001,22,w,Bildungswissenschaften,2023-01-17_09h05.39.987,00_bat_bachelor,2022.2.4,59.95642441382072,
,,,,,,,,,,,,0,0,0,0,2,0,2,0,,,,,,,2,,,1,1060.08399268653,X,l,go,l,1,0.27413247647928074,,,,,,,,,,,,,,,,,25,001,22,w,Bildungswissenschaften,2023-01-17_09h05.39.987,00_bat_bachelor,2022.2.4,59.95642441382072,
,,,,,,,,,,,,0,0,0,0,3,0,3,0,,,,,,,3,,,1,1061.4681975911371,Y,d,go,d,1,0.23289467830909416,,,,,,,,,,,,,,,,,25,001,22,w,Bildungswissenschaften,2023-01-17_09h05.39.987,00_bat_bachelor,2022.2.4,59.95642441382072,
,,,,,,,,,,,,0,0,0,0,4,0,4,0,,,,,,,4,,,1,1062.8031050651334,X,l,go,l,1,0.24321418849285692,,,,,,,,,,,,,,,,,25,001,22,w,Bildungswissenschaften,2023-01-17_09h05.39.987,00_bat_bachelor,2022.2.4,59.95642441382072,
,,,,,,,,,,,,0,0,0,0,5,0,5,0,,,,,,,5,,,1,1064.1541914403788,Y,d,go,d,1,0.23565976787358522,,,,,,,,,,,,,,,,,25,001,22,w,Bildungswissenschaften,2023-01-17_09h05.39.987,00_bat_bachelor,2022.2.4,59.95642441382072,
,,,,,,,,,,,,0,0,0,0,6,0,6,0,,,,,,,6,,,1,1065.505199755018,X,l,go,l,1,0.37231279257684946,,,,,,,,,,,,,,,,,25,001,22,w,Bildungswissenschaften,2023-01-17_09h05.39.987,00_bat_bachelor,2022.2.4,59.95642441382072,
,,,,,,,,,,,,0,0,0,0,7,0,7,0,,,,,,,7,,,1,1066.9895054596127,X,None,nogo,None,1,,1067.7900980411214,,,,,,,,,,,,,,,,25,001,22,w,Bildungswissenschaften,2023-01-17_09h05.39.987,00_bat_bachelor,2022.2.4,59.95642441382072,
,,,,,,,,,,,,0,0,0,0,8,0,8,0,,,,,,,8,,,1,1068.7910517376731,Y,d,go,d,1,0.2544253345695324,,,,,,,,,,,,,,,,,25,001,22,w,Bildungswissenschaften,2023-01-17_09h05.39.987,00_bat_bachelor,2022.2.4,59.95642441382072,
,,,,,,,,,,,,0,0,0,0,9,0,9,0,,,,,,,9,,,1,1070.1585856200545,X,l,go,l,1,0.26293248194269836,,,,,,,,,,,,,,,,,25,001,22,w,Bildungswissenschaften,2023-01-17_09h05.39.987,00_bat_bachelor,2022.2.4,59.95642441382072,
,,,,,,,,,,,,0,0,0,0,10,0,10,0,,,,,,,10,,,1,1071.5263037448167,X,None,nogo,None,1,,1072.3271610534866,,,,,,,,,,,,,,,,25,001,22,w,Bildungswissenschaften,2023-01-17_09h05.39.987,00_bat_bachelor,2022.2.4,59.95642441382072,
,,,,,,,,,,,,0,0,0,0,11,0,11,0,,,,,,,11,,,1,1073.327696325956,Y,d,go,d,1,0.26185030065244064,,,,,,,,,,,,,,,,,25,001,22,w,Bildungswissenschaften,2023-01-17_09h05.39.987,00_bat_bachelor,2022.2.4,59.95642441382072,
,,,,,,,,,,,,0,0,0,0,12,0,12,0,,,,,,,12,,,1,1074.6953984507127,X,l,go,l,1,0.2861824100255035,,,,,,,,,,,,,,,,,25,001,22,w,Bildungswissenschaften,2023-01-17_09h05.39.987,00_bat_bachelor,2022.2.4,59.95642441382072,
,,,,,,,,,,,,0,0,0,0,13,0,13,0,,,,,,,13,,,1,1076.09638104419,Y,d,go,d,1,0.4045784738846123,,,,,,,,,,,,,,,,,25,001,22,w,Bildungswissenschaften,2023-01-17_09h05.39.987,00_bat_bachelor,2022.2.4,59.95642441382072,
,,,,,,,,,,,,0,0,0,0,14,0,14,0,,,,,,,14,,,1,1077.6145204292843,Y,None,nogo,None,1,,1078.4151450108038,,,,,,,,,,,,,,,,25,001,22,w,Bildungswissenschaften,2023-01-17_09h05.39.987,00_bat_bachelor,2022.2.4,59.95642441382072,
,,,,,,,,,,,,0,0,0,0,15,0,15,0,,,,,,,15,,,1,1079.4155997984926,X,l,go,l,1,0.2214794111205265,,,,,,,,,,,,,,,,,25,001,22,w,Bildungswissenschaften,2023-01-17_09h05.39.987,00_bat_bachelor,2022.2.4,59.95642441382072,
,,,,,,,,,,,,0,0,0,0,16,0,16,0,,,,,,,16,,,1,1080.7501799999154,Y,d,go,d,1,0.36034285894129425,,,,,,,,,,,,,,,,,25,001,22,w,Bildungswissenschaften,2023-01-17_09h05.39.987,00_bat_bachelor,2022.2.4,59.95642441382072,
,,,,,,,,,,,,0,0,0,0,17,0,17,0,,,,,,,17,,,1,1082.2179640154936,X,l,go,l,1,0.2992670097737573,,,,,,,,,,,,,,,,,25,001,22,w,Bildungswissenschaften,2023-01-17_09h05.39.987,00_bat_bachelor,2022.2.4,59.95642441382072,
,,,,,,,,,,,,0,0,0,0,18,0,18,0,,,,,,,18,,,1,1083.6190144877182,Y,d,go,d,1,0.3869459975976497,,,,,,,,,,,,,,,,,25,001,22,w,Bildungswissenschaften,2023-01-17_09h05.39.987,00_bat_bachelor,2022.2.4,59.95642441382072,
,,,,,,,,,,,,0,0,0,0,19,0,19,0,,,,,,,19,,,1,1085.12018515385,Y,None,nogo,None,1,,1085.9207709474722,,,,,,,,,,,,,,,,25,001,22,w,Bildungswissenschaften,2023-01-17_09h05.39.987,00_bat_bachelor,2022.2.4,59.95642441382072,
,,,,,,,,,,,,0,0,0,0,20,0,20,0,,,,,,,20,,,1,1086.921324159368,X,l,go,l,1,0.18890148750506341,,,,,,,,,,,,,,,,,25,001,22,w,Bildungswissenschaften,2023-01-17_09h05.39.987,00_bat_bachelor,2022.2.4,59.95642441382072,
,,,,,,,,,,,,0,0,0,0,21,0,21,0,,,,,,,21,,,1,1088.2219514074968,Y,d,go,d,1,0.29588325385702774,,,,,,,,,,,,,,,,,25,001,22,w,Bildungswissenschaften,2023-01-17_09h05.39.987,00_bat_bachelor,2022.2.4,59.95642441382072,
,,,,,,,,,,,,0,0,0,0,22,0,22,0,,,,,,,22,,,1,1089.6231580008753,X,l,go,l,1,0.3188466366264038,,,,,,,,,,,,,,,,,25,001,22,w,Bildungswissenschaften,2023-01-17_09h05.39.987,00_bat_bachelor,2022.2.4,59.95642441382072,
,,,,,,,,,,,,0,0,0,0,23,0,23,0,,,,,,,23,,,1,1091.0576746386942,Y,d,go,d,1,0.24426485458388925,,,,,,,,,,,,,,,,,25,001,22,w,Bildungswissenschaften,2023-01-17_09h05.39.987,00_bat_bachelor,2022.2.4,59.95642441382072,
,,,,,,,,,,,,0,0,0,0,24,0,24,0,,,,,,,24,,,1,1092.4087411351502,X,l,go,l,1,0.41338719689520076,,,,,,,,,,,,,,,,,25,001,22,w,Bildungswissenschaften,2023-01-17_09h05.39.987,00_bat_bachelor,2022.2.4,59.95642441382072,
,,,,,,,,,,,,0,0,0,0,25,0,25,0,,,,,,,25,,,1,1093.926207066048,Y,d,go,d,1,0.35077680298127234,,,,,,,,,,,,,,,,,25,001,22,w,Bildungswissenschaften,2023-01-17_09h05.39.987,00_bat_bachelor,2022.2.4,59.95642441382072,
,,,,,,,,,,,,0,0,0,0,26,0,26,0,,,,,,,26,,,1,1095.3775925441878,Y,None,nogo,None,1,,,,,,,,,,,,,,,,,,25,001,22,w,Bildungswissenschaften,2023-01-17_09h05.39.987,00_bat_bachelor,2022.2.4,59.95642441382072,
,,,,,,,,,,,,0,0,0,0,27,0,27,0,,,,,,,27,,,1,1097.1787936102482,X,l,go,l,1,0.33183232735609636,,,,,,,,,,,,,,,,,25,001,22,w,Bildungswissenschaften,2023-01-17_09h05.39.987,00_bat_bachelor,2022.2.4,59.95642441382072,
,,,,,,,,,,,,0,0,0,0,28,0,28,0,,,,,,,28,,,1,1098.613065884565,Y,d,go,d,1,0.22511383361415938,,,,,,,,,,,,,,,,,25,001,22,w,Bildungswissenschaften,2023-01-17_09h05.39.987,00_bat_bachelor,2022.2.4,59.95642441382072,
,,,,,,,,,,,,0,0,0,0,29,0,29,0,,,,,,,29,,,1,1099.9477634192444,X,l,go,l,1,0.23413685953710228,,,,,,,,,,,,,,,,,25,001,22,w,Bildungswissenschaften,2023-01-17_09h05.39.987,00_bat_bachelor,2022.2.4,59.95642441382072,
,,,,,,,,,,,,0,0,0,0,30,0,30,0,,,,,,,30,,,1,1101.2987368248287,X,None,nogo,d,0,0.24433176370803267,,,,,,,,,,,,,,,,,25,001,22,w,Bildungswissenschaften,2023-01-17_09h05.39.987,00_bat_bachelor,2022.2.4,59.95642441382072,
,,,,,,,,,,,,0,0,0,0,31,0,31,0,,,,,,,31,,,1,1102.64977859403,Y,d,go,d,1,0.3171103950589895,,,,,,,,,,,,,,,,,25,001,22,w,Bildungswissenschaften,2023-01-17_09h05.39.987,00_bat_bachelor,2022.2.4,59.95642441382072,
,,,,,,,,,,,,0,0,0,0,32,0,32,0,,,,,,,32,,,1,1104.0671829977073,X,l,go,l,1,0.514319026726298,,,,,,,,,,,,,,,,,25,001,22,w,Bildungswissenschaften,2023-01-17_09h05.39.987,00_bat_bachelor,2022.2.4,59.95642441382072,
,,,,,,,,,,,,0,0,0,0,33,0,33,0,,,,,,,33,,,1,1105.6850818496314,Y,d,go,d,1,0.3039831286878325,,,,,,,,,,,,,,,,,25,001,22,w,Bildungswissenschaften,2023-01-17_09h05.39.987,00_bat_bachelor,2022.2.4,59.95642441382072,
,,,,,,,,,,,,0,0,0,0,34,0,34,0,,,,,,,34,,,1,1107.1031369196717,X,l,go,l,1,0.2794784133438952,,,,,,,,,,,,,,,,,25,001,22,w,Bildungswissenschaften,2023-01-17_09h05.39.987,00_bat_bachelor,2022.2.4,59.95642441382072,
,,,,,,,,,,,,0,0,0,0,35,0,35,0,,,,,,,35,,,1,1108.487888733158,X,None,nogo,None,1,,,,,,,,,,,,,,,,,,25,001,22,w,Bildungswissenschaften,2023-01-17_09h05.39.987,00_bat_bachelor,2022.2.4,59.95642441382072,
,,,,,,,,,,,,0,0,0,0,36,0,36,0,,,,,,,36,,,1,1110.2892391324858,Y,d,go,d,1,0.3408820198965259,,,,,,,,,,,,,,,,,25,001,22,w,Bildungswissenschaften,2023-01-17_09h05.39.987,00_bat_bachelor,2022.2.4,59.95642441382072,
,,,,,,,,,,,,0,0,0,0,37,0,37,0,,,,,,,37,,,1,1111.7397829140536,X,l,go,l,1,0.458680750685744,,,,,,,,,,,,,,,,,25,001,22,w,Bildungswissenschaften,2023-01-17_09h05.39.987,00_bat_bachelor,2022.2.4,59.95642441382072,
,,,,,,,,,,,,0,0,0,0,38,0,38,0,,,,,,,38,,,1,1113.307662881096,X,None,nogo,None,1,,,,,,,,,,,,,,,,,,25,001,22,w,Bildungswissenschaften,2023-01-17_09h05.39.987,00_bat_bachelor,2022.2.4,59.95642441382072,
,,,,,,,,,,,,0,0,0,0,39,0,39,0,,,,,,,39,,,1,1115.109135462204,Y,d,go,d,1,0.30451694660587236,,,,,,,,,,,,,,,,,25,001,22,w,Bildungswissenschaften,2023-01-17_09h05.39.987,00_bat_bachelor,2022.2.4,59.95642441382072,
,,,,,,,,,,,,0,0,0,0,40,0,40,0,,,,,,,40,,,1,1116.526718290057,X,l,go,l,1,0.39216926775407046,,,,,,,,,,,,,,,,,25,001,22,w,Bildungswissenschaften,2023-01-17_09h05.39.987,00_bat_bachelor,2022.2.4,59.95642441382072,
,,,,,,,,,,,,0,0,0,0,41,0,41,0,,,,,,,41,,,1,1118.0282307741581,X,None,nogo,None,1,,,,,,,,,,,,,,,,,,25,001,22,w,Bildungswissenschaften,2023-01-17_09h05.39.987,00_bat_bachelor,2022.2.4,59.95642441382072,
,,,,,,,,,,,,0,0,0,0,42,0,42,0,,,,,,,42,,,1,1119.8292839615606,X,None,nogo,None,1,,,,,,,,,,,,,,,,,,25,001,22,w,Bildungswissenschaften,2023-01-17_09h05.39.987,00_bat_bachelor,2022.2.4,59.95642441382072,
,,,,,,,,,,,,0,0,0,0,43,0,43,0,,,,,,,43,,,1,1121.630840906233,Y,d,go,d,1,0.35916952620027587,,,,,,,,,,,,,,,,,25,001,22,w,Bildungswissenschaften,2023-01-17_09h05.39.987,00_bat_bachelor,2022.2.4,59.95642441382072,
,,,,,,,,,,,,0,0,0,0,44,0,44,0,,,,,,,44,,,1,1123.0986511036754,X,l,go,l,1,0.49131491663865745,,,,,,,,,,,,,,,,,25,001,22,w,Bildungswissenschaften,2023-01-17_09h05.39.987,00_bat_bachelor,2022.2.4,59.95642441382072,
,,,,,,,,,,,,0,0,0,0,45,0,45,0,,,,,,,45,,,1,1124.6996457213536,Y,d,go,d,1,0.3943762969574891,,,,,,,,,,,,,,,,,25,001,22,w,Bildungswissenschaften,2023-01-17_09h05.39.987,00_bat_bachelor,2022.2.4,59.95642441382072,
,,,,,,,,,,,,0,0,0,0,46,0,46,0,,,,,,,46,,,1,1126.2011325085186,Y,None,nogo,l,0,0.2843482291791588,,,,,,,,,,,,,,,,,25,001,22,w,Bildungswissenschaften,2023-01-17_09h05.39.987,00_bat_bachelor,2022.2.4,59.95642441382072,
,,,,,,,,,,,,0,0,0,0,47,0,47,0,,,,,,,47,,,1,1127.6017723142868,X,l,go,d,0,0.324302633991465,,,,,,,,,,,,,,,,,25,001,22,w,Bildungswissenschaften,2023-01-17_09h05.39.987,00_bat_bachelor,2022.2.4,59.95642441382072,
,,,,,,,,,,,,0,0,0,0,48,0,48,0,,,,,,,48,,,1,1129.036497921683,Y,d,go,d,1,0.3936582367750816,,,,,,,,,,,,,,,,,25,001,22,w,Bildungswissenschaften,2023-01-17_09h05.39.987,00_bat_bachelor,2022.2.4,59.95642441382072,
,,,,,,,,,,,,0,0,0,0,49,0,49,0,,,,,,,49,,,1,1130.5373592546093,Y,None,nogo,None,1,,,,,,,,,,,,,,,,,,25,001,22,w,Bildungswissenschaften,2023-01-17_09h05.39.987,00_bat_bachelor,2022.2.4,59.95642441382072,
,,,,,,,,,,,,0,0,0,0,50,0,50,0,,,,,,,50,,,1,1132.339212441584,X,l,go,l,1,0.3065785213839263,,,,,,,,,,,,,,,,,25,001,22,w,Bildungswissenschaften,2023-01-17_09h05.39.987,00_bat_bachelor,2022.2.4,59.95642441382072,
,,,,,,,,,,,,0,0,0,0,51,0,51,0,,,,,,,51,,,1,1133.7567894512322,Y,d,go,d,1,0.47262353176483884,,,,,,,,,,,,,,,,,25,001,22,w,Bildungswissenschaften,2023-01-17_09h05.39.987,00_bat_bachelor,2022.2.4,59.95642441382072,
,,,,,,,,,,,,0,0,0,0,52,0,52,0,,,,,,,52,,,1,1135.3413772890344,X,l,go,l,1,0.40779107838170603,,,,,,,,,,,,,,,,,25,001,22,w,Bildungswissenschaften,2023-01-17_09h05.39.987,00_bat_bachelor,2022.2.4,59.95642441382072,
,,,,,,,,,,,,0,0,0,0,53,0,53,0,,,,,,,53,,,1,1136.8588999471976,Y,d,go,d,1,0.28370725974673405,,,,,,,,,,,,,,,,,25,001,22,w,Bildungswissenschaften,2023-01-17_09h05.39.987,00_bat_bachelor,2022.2.4,59.95642441382072,
,,,,,,,,,,,,0,0,0,0,54,0,54,0,,,,,,,54,,,1,1138.243468003173,X,l,go,l,1,0.3071690665674396,,,,,,,,,,,,,,,,,25,001,22,w,Bildungswissenschaften,2023-01-17_09h05.39.987,00_bat_bachelor,2022.2.4,59.95642441382072,
,,,,,,,,,,,,0,0,0,0,55,0,55,0,,,,,,,55,,,1,1139.6610692552058,X,None,nogo,None,1,,,,,,,,,,,,,,,,,,25,001,22,w,Bildungswissenschaften,2023-01-17_09h05.39.987,00_bat_bachelor,2022.2.4,59.95642441382072,
,,,,,,,,,,,,0,0,0,0,56,0,56,0,,,,,,,56,,,1,1141.4625728666433,Y,d,go,d,1,0.44776342262048274,,,,,,,,,,,,,,,,,25,001,22,w,Bildungswissenschaften,2023-01-17_09h05.39.987,00_bat_bachelor,2022.2.4,59.95642441382072,
,,,,,,,,,,,,0,0,0,0,57,0,57,0,,,,,,,57,,,1,1143.0138099326869,X,l,go,l,1,0.431910339393653,,,,,,,,,,,,,,,,,25,001,22,w,Bildungswissenschaften,2023-01-17_09h05.39.987,00_bat_bachelor,2022.2.4,59.95642441382072,
,,,,,,,,,,,,0,0,0,0,58,0,58,0,,,,,,,58,,,1,1144.5484419158893,X,None,nogo,d,0,0.5782603290863335,,,,,,,,,,,,,,,,,25,001,22,w,Bildungswissenschaften,2023-01-17_09h05.39.987,00_bat_bachelor,2022.2.4,59.95642441382072,
,,,,,,,,,,,,0,0,0,0,59,0,59,0,,,,,,,59,,,1,1146.232961341564,Y,d,go,d,1,0.42966452229302377,,,,,,,,,,,,,,,,,25,001,22,w,Bildungswissenschaften,2023-01-17_09h05.39.987,00_bat_bachelor,2022.2.4,59.95642441382072,
,,,,,,,,,,,,0,0,0,0,60,0,60,0,,,,,,,60,,,1,1147.7674396279035,X,l,go,l,1,0.3343869927339256,,,,,,,,,,,,,,,,,25,001,22,w,Bildungswissenschaften,2023-01-17_09h05.39.987,00_bat_bachelor,2022.2.4,59.95642441382072,
,,,,,,,,,,,,0,0,0,0,61,0,61,0,,,,,,,61,,,1,1149.2186636515544,Y,d,go,d,1,0.4509416028740816,,,,,,,,,,,,,,,,,25,001,22,w,Bildungswissenschaften,2023-01-17_09h05.39.987,00_bat_bachelor,2022.2.4,59.95642441382072,
,,,,,,,,,,,,0,0,0,0,62,0,62,0,,,,,,,62,,,1,1150.7863719823654,Y,None,nogo,None,1,,,,,,,,,,,,,,,,,,25,001,22,w,Bildungswissenschaften,2023-01-17_09h05.39.987,00_bat_bachelor,2022.2.4,59.95642441382072,
,,,,,,,,,,,,0,0,0,0,63,0,63,0,,,,,,,63,,,1,1152.5877946240944,X,l,go,l,1,0.2983870101743378,,,,,,,,,,,,,,,,,25,001,22,w,Bildungswissenschaften,2023-01-17_09h05.39.987,00_bat_bachelor,2022.2.4,59.95642441382072,
,,,,,,,,,,,,0,0,0,0,64,0,64,0,,,,,,,64,,,1,1153.9886472782237,Y,d,go,d,1,0.36861776403384283,,,,,,,,,,,,,,,,,25,001,22,w,Bildungswissenschaften,2023-01-17_09h05.39.987,00_bat_bachelor,2022.2.4,59.95642441382072,
,,,,,,,,,,,,0,0,0,0,65,0,65,0,,,,,,,65,,,1,1155.4733248613775,X,l,go,l,1,0.34076808055397123,,,,,,,,,,,,,,,,,25,001,22,w,Bildungswissenschaften,2023-01-17_09h05.39.987,00_bat_bachelor,2022.2.4,59.95642441382072,
,,,,,,,,,,,,0,0,0,0,66,0,66,0,,,,,,,66,,,1,1156.9241910670535,X,None,nogo,d,0,0.2983651920221746,,,,,,,,,,,,,,,,,25,001,22,w,Bildungswissenschaften,2023-01-17_09h05.39.987,00_bat_bachelor,2022.2.4,59.95642441382072,
,,,,,,,,,,,,0,0,0,0,67,0,67,0,,,,,,,67,,,1,1158.3254684482235,Y,d,go,d,1,0.3044548860634677,,,,,,,,,,,,,,,,,25,001,22,w,Bildungswissenschaften,2023-01-17_09h05.39.987,00_bat_bachelor,2022.2.4,59.95642441382072,
,,,,,,,,,,,,0,0,0,0,68,0,68,0,,,,,,,68,,,1,1159.742978063994,X,l,go,l,1,0.4553687523002736,,,,,,,,,,,,,,,,,25,001,22,w,Bildungswissenschaften,2023-01-17_09h05.39.987,00_bat_bachelor,2022.2.4,59.95642441382072,
,,,,,,,,,,,,0,0,0,0,69,0,69,0,,,,,,,69,,,1,1161.3109360916424,X,None,nogo,None,1,,,,,,,,,,,,,,,,,,25,001,22,w,Bildungswissenschaften,2023-01-17_09h05.39.987,00_bat_bachelor,2022.2.4,59.95642441382072,
,,,,,,,,,,,,0,0,0,0,70,0,70,0,,,,,,,70,,,1,1163.1125938848127,X,None,nogo,d,0,0.31761269783601165,,,,,,,,,,,,,,,,,25,001,22,w,Bildungswissenschaften,2023-01-17_09h05.39.987,00_bat_bachelor,2022.2.4,59.95642441382072,
,,,,,,,,,,,,0,0,0,0,71,0,71,0,,,,,,,71,,,1,1164.5468952499796,Y,d,go,d,1,0.4347544592455961,,,,,,,,,,,,,,,,,25,001,22,w,Bildungswissenschaften,2023-01-17_09h05.39.987,00_bat_bachelor,2022.2.4,59.95642441382072,
,,,,,,,,,,,,0,0,0,0,72,0,72,0,,,,,,,72,,,1,1166.098186134186,X,l,go,l,1,0.4678085038322024,,,,,,,,,,,,,,,,,25,001,22,w,Bildungswissenschaften,2023-01-17_09h05.39.987,00_bat_bachelor,2022.2.4,59.95642441382072,
,,,,,,,,,,,,0,0,0,0,73,0,73,0,,,,,,,73,,,1,1167.6824040327338,X,None,nogo,None,1,,,,,,,,,,,,,,,,,,25,001,22,w,Bildungswissenschaften,2023-01-17_09h05.39.987,00_bat_bachelor,2022.2.4,59.95642441382072,
,,,,,,,,,,,,0,0,0,0,74,0,74,0,,,,,,,74,,,1,1169.4840909168124,Y,d,go,d,1,0.44153942563571036,,,,,,,,,,,,,,,,,25,001,22,w,Bildungswissenschaften,2023-01-17_09h05.39.987,00_bat_bachelor,2022.2.4,59.95642441382072,
,,,,,,,,,,,,0,0,0,0,75,0,75,0,,,,,,,75,,,1,1171.0351864071563,X,l,go,l,1,0.46004414395429194,,,,,,,,,,,,,,,,,25,001,22,w,Bildungswissenschaften,2023-01-17_09h05.39.987,00_bat_bachelor,2022.2.4,59.95642441382072,
,,,,,,,,,,,,0,0,0,0,76,0,76,0,,,,,,,76,,,1,1172.6028690410312,X,None,nogo,None,1,,1173.4034218650195,,,,,,,,,,,,,,,,25,001,22,w,Bildungswissenschaften,2023-01-17_09h05.39.987,00_bat_bachelor,2022.2.4,59.95642441382072,
,,,,,,,,,,,,0,0,0,0,77,0,77,0,,,,,,,77,,,1,1174.4044075614656,Y,d,go,d,1,0.433908399019856,,,,,,,,,,,,,,,,,25,001,22,w,Bildungswissenschaften,2023-01-17_09h05.39.987,00_bat_bachelor,2022.2.4,59.95642441382072,
,,,,,,,,,,,,0,0,0,0,78,0,78,0,,,,,,,78,,,1,1175.9389003932592,X,l,go,l,1,0.3872965428745374,,,,,,,,,,,,,,,,,25,001,22,w,Bildungswissenschaften,2023-01-17_09h05.39.987,00_bat_bachelor,2022.2.4,59.95642441382072,
,,,,,,,,,,,,0,0,0,0,79,0,79,0,,,,,,,79,,,1,1177.4405568772927,Y,d,go,d,1,0.4041542316554114,,,,,,,,,,,,,,,,,25,001,22,w,Bildungswissenschaften,2023-01-17_09h05.39.987,00_bat_bachelor,2022.2.4,59.95642441382072,
,,,,,,,,,,,,0,0,0,0,80,0,80,0,,,,,,,80,,,1,1178.9753061937517,X,l,go,l,1,0.5335544113186188,,,,,,,,,,,,,,,,,25,001,22,w,Bildungswissenschaften,2023-01-17_09h05.39.987,00_bat_bachelor,2022.2.4,59.95642441382072,
,,,,,,,,,,,,0,0,0,0,81,0,81,0,,,,,,,81,,,1,1180.6263710902422,X,None,nogo,None,1,,1181.4269762778422,,,,,,,,,,,,,,,,25,001,22,w,Bildungswissenschaften,2023-01-17_09h05.39.987,00_bat_bachelor,2022.2.4,59.95642441382072,
,,,,,,,,,,,,0,0,0,0,82,0,82,0,,,,,,,82,,,1,1182.4277690047165,Y,d,go,d,1,0.41014162270585075,,,,,,,,,,,,,,,,,25,001,22,w,Bildungswissenschaften,2023-01-17_09h05.39.987,00_bat_bachelor,2022.2.4,59.95642441382072,
,,,,,,,,,,,,0,0,0,0,83,0,83,0,,,,,,,83,,,1,1183.9457939656568,X,l,go,l,1,0.5237226585159078,,,,,,,,,,,,,,,,,25,001,22,w,Bildungswissenschaften,2023-01-17_09h05.39.987,00_bat_bachelor,2022.2.4,59.95642441382072,
,,,,,,,,,,,,0,0,0,0,84,0,84,0,,,,,,,84,,,1,1185.5970028620213,X,None,nogo,None,1,,1186.3971425953205,,,,,,,,,,,,,,,,25,001,22,w,Bildungswissenschaften,2023-01-17_09h05.39.987,00_bat_bachelor,2022.2.4,59.95642441382072,
,,,,,,,,,,,,0,0,0,0,85,0,85,0,,,,,,,85,,,1,1187.3980928979,Y,d,go,d,1,0.4162642863811925,,,,,,,,,,,,,,,,,25,001,22,w,Bildungswissenschaften,2023-01-17_09h05.39.987,00_bat_bachelor,2022.2.4,59.95642441382072,
,,,,,,,,,,,,0,0,0,0,86,0,86,0,,,,,,,86,,,1,1188.9159350710688,X,l,go,l,1,0.4343976108939387,,,,,,,,,,,,,,,,,25,001,22,w,Bildungswissenschaften,2023-01-17_09h05.39.987,00_bat_bachelor,2022.2.4,59.95642441382072,
,,,,,,,,,,,,0,0,0,0,87,0,87,0,,,,,,,87,,,1,1190.467244864325,Y,d,go,d,1,0.4183622247655876,,,,,,,,,,,,,,,,,25,001,22,w,Bildungswissenschaften,2023-01-17_09h05.39.987,00_bat_bachelor,2022.2.4,59.95642441382072,
,,,,,,,,,,,,0,0,0,0,88,0,88,0,,,,,,,88,,,1,1192.0183010820183,X,l,go,l,1,0.4834467992768623,,,,,,,,,,,,,,,,,25,001,22,w,Bildungswissenschaften,2023-01-17_09h05.39.987,00_bat_bachelor,2022.2.4,59.95642441382072,
,,,,,,,,,,,,0,0,0,0,89,0,89,0,,,,,,,89,,,1,1193.6030387378996,Y,d,go,d,1,0.3867127855774015,,,,,,,,,,,,,,,,,25,001,22,w,Bildungswissenschaften,2023-01-17_09h05.39.987,00_bat_bachelor,2022.2.4,59.95642441382072,
,,,,,,,,,,,,0,0,0,0,90,0,90,0,,,,,,,90,,,1,1195.1208387292572,X,l,go,l,1,0.43602621619356796,,,,,,,,,,,,,,,,,25,001,22,w,Bildungswissenschaften,2023-01-17_09h05.39.987,00_bat_bachelor,2022.2.4,59.95642441382072,
,,,,,,,,,,,,0,0,0,0,91,0,91,0,,,,,,,91,,,1,1196.6886862115352,X,None,nogo,None,1,,1197.4891217022086,,,,,,,,,,,,,,,,25,001,22,w,Bildungswissenschaften,2023-01-17_09h05.39.987,00_bat_bachelor,2022.2.4,59.95642441382072,
,,,,,,,,,,,,0,0,0,0,92,0,92,0,,,,,,,92,,,1,1198.4897006110405,Y,d,go,d,1,0.3948771452414803,,,,,,,,,,,,,,,,,25,001,22,w,Bildungswissenschaften,2023-01-17_09h05.39.987,00_bat_bachelor,2022.2.4,59.95642441382072,
,,,,,,,,,,,,0,0,0,0,93,0,93,0,,,,,,,93,,,1,1200.0071946631651,X,l,go,l,1,0.31788954621879384,,,,,,,,,,,,,,,,,25,001,22,w,Bildungswissenschaften,2023-01-17_09h05.39.987,00_bat_bachelor,2022.2.4,59.95642441382072,
,,,,,,,,,,,,0,0,0,0,94,0,94,0,,,,,,,94,,,1,1201.4413573617348,Y,d,go,d,1,0.27769611112307757,,,,,,,,,,,,,,,,,25,001,22,w,Bildungswissenschaften,2023-01-17_09h05.39.987,00_bat_bachelor,2022.2.4,59.95642441382072,
,,,,,,,,,,,,0,0,0,0,95,0,95,0,,,,,,,95,,,1,1202.825999599474,X,l,go,l,1,0.3004384031519294,,,,,,,,,,,,,,,,,25,001,22,w,Bildungswissenschaften,2023-01-17_09h05.39.987,00_bat_bachelor,2022.2.4,59.95642441382072,
,,,,,,,,,,,,0,0,0,0,96,0,96,0,,,,,,,96,,,1,1204.22691043542,X,None,nogo,d,0,0.17884428024990484,,,,,,,,,,,,,,,,,25,001,22,w,Bildungswissenschaften,2023-01-17_09h05.39.987,00_bat_bachelor,2022.2.4,59.95642441382072,
,,,,,,,,,,,,0,0,0,0,97,0,97,0,,,,,,,97,,,1,1205.5112584187882,Y,d,go,d,1,0.4464441505842842,,,,,,,,,,,,,,,,,25,001,22,w,Bildungswissenschaften,2023-01-17_09h05.39.987,00_bat_bachelor,2022.2.4,59.95642441382072,
,,,,,,,,,,,,0,0,0,0,98,0,98,0,,,,,,,98,,,1,1207.0624959697016,X,l,go,l,1,0.47917334677185863,,,,,,,,,,,,,,,,,25,001,22,w,Bildungswissenschaften,2023-01-17_09h05.39.987,00_bat_bachelor,2022.2.4,59.95642441382072,
,,,,,,,,,,,,0,0,0,0,99,0,99,0,,,,,,,99,,,1,1208.647216655896,Y,d,go,d,1,0.4154293777537532,,,,,,,,,,,,,,,,,25,001,22,w,Bildungswissenschaften,2023-01-17_09h05.39.987,00_bat_bachelor,2022.2.4,59.95642441382072,
,,,,,,,,,,,,0,0,0,0,100,0,100,0,,,,,,,100,,,1,1210.1647334958543,X,l,go,l,1,0.5452382844523527,,,,,,,,,,,,,,,,,25,001,22,w,Bildungswissenschaften,2023-01-17_09h05.39.987,00_bat_bachelor,2022.2.4,59.95642441382072,
,,,,,,,,,,,,0,0,0,0,101,0,101,0,,,,,,,101,,,1,1211.8162454224075,Y,d,go,d,1,0.44655033230083063,,,,,,,,,,,,,,,,,25,001,22,w,Bildungswissenschaften,2023-01-17_09h05.39.987,00_bat_bachelor,2022.2.4,59.95642441382072,
,,,,,,,,,,,,0,0,0,0,102,0,102,0,,,,,,,102,,,1,1213.3674020036706,X,l,go,l,1,0.47787249891553074,,,,,,,,,,,,,,,,,25,001,22,w,Bildungswissenschaften,2023-01-17_09h05.39.987,00_bat_bachelor,2022.2.4,59.95642441382072,
,,,,,,,,,,,,0,0,0,0,103,0,103,0,,,,,,,103,,,1,1214.9519937202567,Y,d,go,d,1,0.36543182615423575,,,,,,,,,,,,,,,,,25,001,22,w,Bildungswissenschaften,2023-01-17_09h05.39.987,00_bat_bachelor,2022.2.4,59.95642441382072,
,,,,,,,,,,,,0,0,0,0,104,0,104,0,,,,,,,104,,,1,1216.419538705668,X,l,go,l,1,0.3223123319330625,,,,,,,,,,,,,,,,,25,001,22,w,Bildungswissenschaften,2023-01-17_09h05.39.987,00_bat_bachelor,2022.2.4,59.95642441382072,
,,,,,,,,,,,,0,0,0,0,105,0,105,0,,,,,,,105,,,1,1217.8539520708146,X,None,nogo,d,0,0.34438844240503386,,,,,,,,,,,,,,,,,25,001,22,w,Bildungswissenschaften,2023-01-17_09h05.39.987,00_bat_bachelor,2022.2.4,59.95642441382072,
,,,,,,,,,,,,0,0,0,0,106,0,106,0,,,,,,,106,,,1,1219.305414154951,Y,d,go,d,1,0.5405124686076306,,,,,,,,,,,,,,,,,25,001,22,w,Bildungswissenschaften,2023-01-17_09h05.39.987,00_bat_bachelor,2022.2.4,59.95642441382072,
,,,,,,,,,,,,0,0,0,0,107,0,107,0,,,,,,,107,,,1,1220.9566346876672,X,l,go,l,1,0.4096713198814541,,,,,,,,,,,,,,,,,25,001,22,w,Bildungswissenschaften,2023-01-17_09h05.39.987,00_bat_bachelor,2022.2.4,59.95642441382072,
,,,,,,,,,,,,0,0,0,0,108,0,108,0,,,,,,,108,,,1,1222.4742877700482,Y,d,go,d,1,0.38017994025722146,,,,,,,,,,,,,,,,,25,001,22,w,Bildungswissenschaften,2023-01-17_09h05.39.987,00_bat_bachelor,2022.2.4,59.95642441382072,
,,,,,,,,,,,,0,0,0,0,109,0,109,0,,,,,,,109,,,1,1223.9588160199346,X,l,go,l,1,0.3188616669503972,,,,,,,,,,,,,,,,,25,001,22,w,Bildungswissenschaften,2023-01-17_09h05.39.987,00_bat_bachelor,2022.2.4,59.95642441382072,
,,,,,,,,,,,,0,0,0,0,110,0,110,0,,,,,,,110,,,1,1225.393170718453,Y,d,go,d,1,0.3722264895332046,,,,,,,,,,,,,,,,,25,001,22,w,Bildungswissenschaften,2023-01-17_09h05.39.987,00_bat_bachelor,2022.2.4,59.95642441382072,
,,,,,,,,,,,,0,0,0,0,111,0,111,0,,,,,,,111,,,1,1226.8778216349892,Y,None,nogo,None,1,,1227.6780588227557,,,,,,,,,,,,,,,,25,001,22,w,Bildungswissenschaften,2023-01-17_09h05.39.987,00_bat_bachelor,2022.2.4,59.95642441382072,
,,,,,,,,,,,,0,0,0,0,112,0,112,0,,,,,,,112,,,1,1228.679168640403,Y,None,nogo,None,1,,,,,,,,,,,,,,,,,,25,001,22,w,Bildungswissenschaften,2023-01-17_09h05.39.987,00_bat_bachelor,2022.2.4,59.95642441382072,
,,,,,,,,,,,,0,0,0,0,113,0,113,0,,,,,,,113,,,1,1230.480278070143,X,l,go,l,1,0.32537366379983723,,,,,,,,,,,,,,,,,25,001,22,w,Bildungswissenschaften,2023-01-17_09h05.39.987,00_bat_bachelor,2022.2.4,59.95642441382072,
,,,,,,,,,,,,0,0,0,0,114,0,114,0,,,,,,,114,,,1,1231.914849980676,Y,d,go,d,1,0.491165098559577,,,,,,,,,,,,,,,,,25,001,22,w,Bildungswissenschaften,2023-01-17_09h05.39.987,00_bat_bachelor,2022.2.4,59.95642441382072,
,,,,,,,,,,,,0,0,0,0,115,0,115,0,,,,,,,115,,,1,1233.5158862952958,X,l,go,l,1,0.3305809340090491,,,,,,,,,,,,,,,,,25,001,22,w,Bildungswissenschaften,2023-01-17_09h05.39.987,00_bat_bachelor,2022.2.4,59.95642441382072,
,,,,,,,,,,,,0,0,0,0,116,0,116,0,,,,,,,116,,,1,1234.950324387697,X,None,nogo,d,0,0.4476722711697221,,,,,,,,,,,,,,,,,25,001,22,w,Bildungswissenschaften,2023-01-17_09h05.39.987,00_bat_bachelor,2022.2.4,59.95642441382072,
,,,,,,,,,,,,0,0,0,0,117,0,117,0,,,,,,,117,,,1,1236.5017219385481,Y,d,go,d,1,0.2558134550927207,,,,,,,,,,,,,,,,,25,001,22,w,Bildungswissenschaften,2023-01-17_09h05.39.987,00_bat_bachelor,2022.2.4,59.95642441382072,
,,,,,,,,,,,,0,0,0,0,118,0,118,0,,,,,,,118,,,1,1237.8696795783471,X,l,go,l,1,0.34483935130992904,,,,,,,,,,,,,,,,,25,001,22,w,Bildungswissenschaften,2023-01-17_09h05.39.987,00_bat_bachelor,2022.2.4,59.95642441382072,
,,,,,,,,,,,,0,0,0,0,119,0,119,0,,,,,,,119,,,1,1239.3205443294137,Y,d,go,d,1,0.38211836357368156,,,,,,,,,,,,,,,,,25,001,22,w,Bildungswissenschaften,2023-01-17_09h05.39.987,00_bat_bachelor,2022.2.4,59.95642441382072,
,,,,,,,,,,,,0,0,0,0,120,0,120,0,,,,,,,120,,,1,1240.8047390037682,X,l,go,l,1,0.2413261893671006,,,,,,,,,,,,,,,,,25,001,22,w,Bildungswissenschaften,2023-01-17_09h05.39.987,00_bat_bachelor,2022.2.4,59.95642441382072,
,,,,,,,,,,,,0,0,0,0,121,0,121,0,,,,,,,121,,,1,1242.1558976213564,X,None,nogo,d,0,0.2173494737362489,,,,,,,,,,,,,,,,,25,001,22,w,Bildungswissenschaften,2023-01-17_09h05.39.987,00_bat_bachelor,2022.2.4,59.95642441382072,
,,,,,,,,,,,,0,0,0,0,122,0,122,0,,,,,,,122,,,1,1243.4906993984478,Y,d,go,d,1,0.2746328399516642,,,,,,,,,,,,,,,,,25,001,22,w,Bildungswissenschaften,2023-01-17_09h05.39.987,00_bat_bachelor,2022.2.4,59.95642441382072,
,,,,,,,,,,,,0,0,0,0,123,0,123,0,,,,,,,123,,,1,1244.8749067272875,X,l,go,l,1,0.45903614442795515,,,,,,,,,,,,,,,,,25,001,22,w,Bildungswissenschaften,2023-01-17_09h05.39.987,00_bat_bachelor,2022.2.4,59.95642441382072,
,,,,,,,,,,,,0,0,0,0,124,0,124,0,,,,,,,124,,,1,1246.44300196704,X,None,nogo,d,0,0.28261101787211373,,,,,,,,,,,,,,,,,25,001,22,w,Bildungswissenschaften,2023-01-17_09h05.39.987,00_bat_bachelor,2022.2.4,59.95642441382072,
,,,,,,,,,,,,0,0,0,0,125,0,125,0,,,,,,,125,,,1,1247.827171477722,Y,d,go,d,1,0.3059399762423709,,,,,,,,,,,,,,,,,25,001,22,w,Bildungswissenschaften,2023-01-17_09h05.39.987,00_bat_bachelor,2022.2.4,59.95642441382072,
,,,,,,,,,,,,0,0,0,0,126,0,126,0,,,,,,,126,,,1,1249.244926426676,X,l,go,l,1,0.45619008521316573,,,,,,,,,,,,,,,,,25,001,22,w,Bildungswissenschaften,2023-01-17_09h05.39.987,00_bat_bachelor,2022.2.4,59.95642441382072,
,,,,,,,,,,,,0,0,0,0,127,0,127,0,,,,,,,127,,,1,1250.8129494240275,Y,d,go,d,1,0.4571951756370254,,,,,,,,,,,,,,,,,25,001,22,w,Bildungswissenschaften,2023-01-17_09h05.39.987,00_bat_bachelor,2022.2.4,59.95642441382072,
,,,,,,,,,,,,0,0,0,0,128,0,128,0,,,,,,,128,,,1,1252.3805050275987,X,l,go,l,1,0.2823045937693678,,,,,,,,,,,,,,,,,25,001,22,w,Bildungswissenschaften,2023-01-17_09h05.39.987,00_bat_bachelor,2022.2.4,59.95642441382072,
,,,,,,,,,,,,0,0,0,0,129,0,129,0,,,,,,,129,,,1,1253.764852477645,Y,d,go,d,1,0.4328635510755703,,,,,,,,,,,,,,,,,25,001,22,w,Bildungswissenschaften,2023-01-17_09h05.39.987,00_bat_bachelor,2022.2.4,59.95642441382072,
,,,,,,,,,,,,0,0,0,0,130,0,130,0,,,,,,,130,,,1,1255.2990815519588,X,l,go,l,1,0.44968245195923373,,,,,,,,,,,,,,,,,25,001,22,w,Bildungswissenschaften,2023-01-17_09h05.39.987,00_bat_bachelor,2022.2.4,59.95642441382072,
,,,,,,,,,,,,0,0,0,0,131,0,131,0,,,,,,,131,,,1,1256.8506463754456,X,None,nogo,None,1,,,,,,,,,,,,,,,,,,25,001,22,w,Bildungswissenschaften,2023-01-17_09h05.39.987,00_bat_bachelor,2022.2.4,59.95642441382072,
,,,,,,,,,,,,0,0,0,0,132,0,132,0,,,,,,,132,,,1,1258.651654956746,Y,d,go,d,1,0.4584945689421147,,,,,,,,,,,,,,,,,25,001,22,w,Bildungswissenschaften,2023-01-17_09h05.39.987,00_bat_bachelor,2022.2.4,59.95642441382072,
,,,,,,,,,,,,0,0,0,0,133,0,133,0,,,,,,,133,,,1,1260.2195305601927,X,l,go,l,1,0.33121899428078905,,,,,,,,,,,,,,,,,25,001,22,w,Bildungswissenschaften,2023-01-17_09h05.39.987,00_bat_bachelor,2022.2.4,59.95642441382072,
,,,,,,,,,,,,0,0,0,0,134,0,134,0,,,,,,,134,,,1,1261.6539972586324,X,None,nogo,l,0,0.36771788564510643,,,,,,,,,,,,,,,,,25,001,22,w,Bildungswissenschaften,2023-01-17_09h05.39.987,00_bat_bachelor,2022.2.4,59.95642441382072,
,,,,,,,,,,,,0,0,0,0,135,0,135,0,,,,,,,135,,,1,1263.138705387304,Y,d,go,d,1,0.40359956526663154,,,,,,,,,,,,,,,,,25,001,22,w,Bildungswissenschaften,2023-01-17_09h05.39.987,00_bat_bachelor,2022.2.4,59.95642441382072,
,,,,,,,,,,,,0,0,0,0,136,0,136,0,,,,,,,136,,,1,1264.6563254999346,X,l,go,l,1,0.32624833000591025,,,,,,,,,,,,,,,,,25,001,22,w,Bildungswissenschaften,2023-01-17_09h05.39.987,00_bat_bachelor,2022.2.4,59.95642441382072,
,,,,,,,,,,,,0,0,0,0,137,0,137,0,,,,,,,137,,,1,1266.0909260165063,Y,d,go,d,1,0.554653552651871,,,,,,,,,,,,,,,,,25,001,22,w,Bildungswissenschaften,2023-01-17_09h05.39.987,00_bat_bachelor,2022.2.4,59.95642441382072,
,,,,,,,,,,,,0,0,0,0,138,0,138,0,,,,,,,138,,,1,1267.758649329131,Y,None,nogo,None,1,,,,,,,,,,,,,,,,,,25,001,22,w,Bildungswissenschaften,2023-01-17_09h05.39.987,00_bat_bachelor,2022.2.4,59.95642441382072,
,,,,,,,,,,,,0,0,0,0,139,0,139,0,,,,,,,139,,,1,1269.5602363343933,X,l,go,l,1,0.28502362279687077,,,,,,,,,,,,,,,,,25,001,22,w,Bildungswissenschaften,2023-01-17_09h05.39.987,00_bat_bachelor,2022.2.4,59.95642441382072,
,,,,,,,,,,,,0,0,0,0,140,0,140,0,,,,,,,140,,,1,1270.9612906854018,Y,d,go,d,1,0.5167907830909826,,,,,,,,,,,,,,,,,25,001,22,w,Bildungswissenschaften,2023-01-17_09h05.39.987,00_bat_bachelor,2022.2.4,59.95642441382072,
,,,,,,,,,,,,0,0,0,0,141,0,141,0,,,,,,,141,,,1,1272.579309779685,Y,None,nogo,None,1,,,,,,,,,,,,,,,,,,25,001,22,w,Bildungswissenschaften,2023-01-17_09h05.39.987,00_bat_bachelor,2022.2.4,59.95642441382072,
,,,,,,,,,,,,0,0,0,0,142,0,142,0,,,,,,,142,,,1,1274.3803746034391,X,l,go,l,1,0.3935302367899567,,,,,,,,,,,,,,,,,25,001,22,w,Bildungswissenschaften,2023-01-17_09h05.39.987,00_bat_bachelor,2022.2.4,59.95642441382072,
,,,,,,,,,,,,0,0,0,0,143,0,143,0,,,,,,,143,,,1,1275.8816882997635,Y,d,go,d,1,0.44521748449187726,,,,,,,,,,,,,,,,,25,001,22,w,Bildungswissenschaften,2023-01-17_09h05.39.987,00_bat_bachelor,2022.2.4,59.95642441382072,
,,,,,,,,,,,,0,0,0,0,144,0,144,0,,,,,,,144,,,1,1277.4329820930725,Y,None,nogo,None,1,,,,,,,,,,,,,,,,,,25,001,22,w,Bildungswissenschaften,2023-01-17_09h05.39.987,00_bat_bachelor,2022.2.4,59.95642441382072,
,,,,,,,,,,,,0,0,0,0,145,0,145,0,,,,,,,145,,,1,1279.2343043712317,X,l,go,l,1,0.27611017250455916,,,,,,,,,,,,,,,,,25,001,22,w,Bildungswissenschaften,2023-01-17_09h05.39.987,00_bat_bachelor,2022.2.4,59.95642441382072,
,,,,,,,,,,,,0,0,0,0,146,0,146,0,,,,,,,146,,,1,1280.619374729984,Y,d,go,d,1,0.4415602741064504,,,,,,,,,,,,,,,,,25,001,22,w,Bildungswissenschaften,2023-01-17_09h05.39.987,00_bat_bachelor,2022.2.4,59.95642441382072,
,,,,,,,,,,,,0,0,0,0,147,0,147,0,,,,,,,147,,,1,1282.1872120304033,X,l,go,l,1,0.29854652524227276,,,,,,,,,,,,,,,,,25,001,22,w,Bildungswissenschaften,2023-01-17_09h05.39.987,00_bat_bachelor,2022.2.4,59.95642441382072,
,,,,,,,,,,,,0,0,0,0,148,0,148,0,,,,,,,148,,,1,1283.5881063815323,Y,d,go,d,1,0.38491399853955954,,,,,,,,,,,,,,,,,25,001,22,w,Bildungswissenschaften,2023-01-17_09h05.39.987,00_bat_bachelor,2022.2.4,59.95642441382072,
,,,,,,,,,,,,0,0,0,0,149,0,149,0,,,,,,,149,,,1,1285.1062186151394,X,l,go,l,1,0.32359524042112753,,,,,,,,,,,,,,,,,25,001,22,w,Bildungswissenschaften,2023-01-17_09h05.39.987,00_bat_bachelor,2022.2.4,59.95642441382072,
,,,,,,,,,,,,0,0,0,0,150,0,150,0,,,,,,,150,,,1,1286.5571793661802,Y,d,go,d,1,0.6003650455968454,,,,,,,,,,,,,,,,,25,001,22,w,Bildungswissenschaften,2023-01-17_09h05.39.987,00_bat_bachelor,2022.2.4,59.95642441382072,
,,,,,,,,,,,,0,0,0,0,151,0,151,0,,,,,,,151,,,1,1288.2582936929539,Y,None,nogo,None,1,,1289.0589197289664,,,,,,,,,,,,,,,,25,001,22,w,Bildungswissenschaften,2023-01-17_09h05.39.987,00_bat_bachelor,2022.2.4,59.95642441382072,
,,,,,,,,,,,,0,0,0,0,152,0,152,0,,,,,,,152,,,1,1290.0599025163683,X,l,go,l,1,0.2167022013454698,,,,,,,,,,,,,,,,,25,001,22,w,Bildungswissenschaften,2023-01-17_09h05.39.987,00_bat_bachelor,2022.2.4,59.95642441382072,
,,,,,,,,,,,,0,0,0,0,153,0,153,0,,,,,,,153,,,1,1291.394375566335,Y,d,go,d,1,0.46847371564945206,,,,,,,,,,,,,,,,,25,001,22,w,Bildungswissenschaften,2023-01-17_09h05.39.987,00_bat_bachelor,2022.2.4,59.95642441382072,
,,,,,,,,,,,,0,0,0,0,154,0,154,0,,,,,,,154,,,1,1292.978537222487,X,l,go,l,1,0.27531793050002307,,,,,,,,,,,,,,,,,25,001,22,w,Bildungswissenschaften,2023-01-17_09h05.39.987,00_bat_bachelor,2022.2.4,59.95642441382072,
,,,,,,,,,,,,0,0,0,0,155,0,155,0,,,,,,,155,,,1,1294.3797030886053,Y,d,go,d,1,0.5542007043841295,,,,,,,,,,,,,,,,,25,001,22,w,Bildungswissenschaften,2023-01-17_09h05.39.987,00_bat_bachelor,2022.2.4,59.95642441382072,
,,,,,,,,,,,,0,0,0,0,156,0,156,0,,,,,,,156,,,1,1296.0477997343987,X,l,go,l,1,0.40552538249175996,,,,,,,,,,,,,,,,,25,001,22,w,Bildungswissenschaften,2023-01-17_09h05.39.987,00_bat_bachelor,2022.2.4,59.95642441382072,
,,,,,,,,,,,,0,0,0,0,157,0,157,0,,,,,,,157,,,1,1297.5653621501406,Y,d,go,d,1,0.2636161179980263,,,,,,,,,,,,,,,,,25,001,22,w,Bildungswissenschaften,2023-01-17_09h05.39.987,00_bat_bachelor,2022.2.4,59.95642441382072,
,,,,,,,,,,,,0,0,0,0,158,0,158,0,,,,,,,158,,,1,1298.949596145656,Y,None,nogo,None,1,,1299.750100969628,,,,,,,,,,,,,,,,25,001,22,w,Bildungswissenschaften,2023-01-17_09h05.39.987,00_bat_bachelor,2022.2.4,59.95642441382072,
,,,,,,,,,,,,0,0,0,0,159,0,159,0,,,,,,,159,,,1,1300.7507753935643,Y,None,nogo,None,1,,1301.5515822779853,,,,,,,,,,,,,,,,25,001,22,w,Bildungswissenschaften,2023-01-17_09h05.39.987,00_bat_bachelor,2022.2.4,59.95642441382072,
,,,,,,,,,,,,0,0,0,0,160,0,160,0,,,,,,,160,,,1,1302.5523274897714,X,l,go,l,1,0.31679815280949697,,,,,,,,,,,,,,,,,25,001,22,w,Bildungswissenschaften,2023-01-17_09h05.39.987,00_bat_bachelor,2022.2.4,59.95642441382072,
,,,,,,,,,,,,0,0,0,0,161,0,161,0,,,,,,,161,,,1,1303.969745954033,Y,d,go,d,1,0.5322138059418648,,,,,,,,,,,,,,,,,25,001,22,w,Bildungswissenschaften,2023-01-17_09h05.39.987,00_bat_bachelor,2022.2.4,59.95642441382072,
,,,,,,,,,,,,0,0,0,0,162,0,162,0,,,,,,,162,,,1,1305.6041660101037,X,l,go,l,1,0.3061305216397159,,,,,,,,,,,,,,,,,25,001,22,w,Bildungswissenschaften,2023-01-17_09h05.39.987,00_bat_bachelor,2022.2.4,59.95642441382072,
,,,,,,,,,,,,0,0,0,0,163,0,163,0,,,,,,,163,,,1,1307.022098413494,Y,d,go,d,1,0.39179641945520416,,,,,,,,,,,,,,,,,25,001,22,w,Bildungswissenschaften,2023-01-17_09h05.39.987,00_bat_bachelor,2022.2.4,59.95642441382072,
,,,,,,,,,,,,0,0,0,0,164,0,164,0,,,,,,,164,,,1,1308.5230601099902,X,l,go,l,1,0.3310071156010963,,,,,,,,,,,,,,,,,25,001,22,w,Bildungswissenschaften,2023-01-17_09h05.39.987,00_bat_bachelor,2022.2.4,59.95642441382072,
,,,,,,,,,,,,0,0,0,0,165,0,165,0,,,,,,,165,,,1,1309.9576926265727,Y,d,go,d,1,0.30459064355818555,,,,,,,,,,,,,,,,,25,001,22,w,Bildungswissenschaften,2023-01-17_09h05.39.987,00_bat_bachelor,2022.2.4,59.95642441382072,
,,,,,,,,,,,,0,0,0,0,166,0,166,0,,,,,,,166,,,1,1311.3753350907355,X,l,go,l,1,0.29533440561499447,,,,,,,,,,,,,,,,,25,001,22,w,Bildungswissenschaften,2023-01-17_09h05.39.987,00_bat_bachelor,2022.2.4,59.95642441382072,
,,,,,,,,,,,,0,0,0,0,167,0,167,0,,,,,,,167,,,1,1312.776602774975,X,None,nogo,None,1,,,,,,,,,,,,,,,,,,25,001,22,w,Bildungswissenschaften,2023-01-17_09h05.39.987,00_bat_bachelor,2022.2.4,59.95642441382072,
,,,,,,,,,,,,0,0,0,0,168,0,168,0,,,,,,,168,,,1,1314.5778741440736,Y,d,go,d,1,0.483420132601168,,,,,,,,,,,,,,,,,25,001,22,w,Bildungswissenschaften,2023-01-17_09h05.39.987,00_bat_bachelor,2022.2.4,59.95642441382072,
,,,,,,,,,,,,0,0,0,0,169,0,169,0,,,,,,,169,,,1,1316.162133254693,X,l,go,l,1,0.32424251281190664,,,,,,,,,,,,,,,,,25,001,22,w,Bildungswissenschaften,2023-01-17_09h05.39.987,00_bat_bachelor,2022.2.4,59.95642441382072,
,,,,,,,,,,,,0,0,0,0,170,0,170,0,,,,,,,170,,,1,1317.5973926800652,Y,d,go,d,1,0.4387224572710693,,,,,,,,,,,,,,,,,25,001,22,w,Bildungswissenschaften,2023-01-17_09h05.39.987,00_bat_bachelor,2022.2.4,59.95642441382072,
,,,,,,,,,,,,0,0,0,0,171,0,171,0,,,,,,,171,,,1,1319.1652396774152,X,l,go,l,1,0.2795395042048767,,,,,,,,,,,,,,,,,25,001,22,w,Bildungswissenschaften,2023-01-17_09h05.39.987,00_bat_bachelor,2022.2.4,59.95642441382072,
,,,,,,,,,,,,0,0,0,0,172,0,172,0,,,,,,,172,,,1,1320.5664966950426,Y,d,go,d,1,0.36780418863054365,,,,,,,,,,,,,,,,,25,001,22,w,Bildungswissenschaften,2023-01-17_09h05.39.987,00_bat_bachelor,2022.2.4,59.95642441382072,
,,,,,,,,,,,,0,0,0,0,173,0,173,0,,,,,,,173,,,1,1322.050726278394,X,l,go,l,1,0.3704669752623886,,,,,,,,,,,,,,,,,25,001,22,w,Bildungswissenschaften,2023-01-17_09h05.39.987,00_bat_bachelor,2022.2.4,59.95642441382072,
,,,,,,,,,,,,0,0,0,0,174,0,174,0,,,,,,,174,,,1,1323.5354436191847,Y,d,go,d,1,0.32561657280893996,,,,,,,,,,,,,,,,,25,001,22,w,Bildungswissenschaften,2023-01-17_09h05.39.987,00_bat_bachelor,2022.2.4,59.95642441382072,
,,,,,,,,,,,,0,0,0,0,175,0,175,0,,,,,,,175,,,1,1324.9866482488578,Y,None,nogo,None,1,,1325.7872127091978,,,,,,,,,,,,,,,,25,001,22,w,Bildungswissenschaften,2023-01-17_09h05.39.987,00_bat_bachelor,2022.2.4,59.95642441382072,
,,,,,,,,,,,,0,0,0,0,176,0,176,0,,,,,,,176,,,1,1326.7879288300755,X,l,go,l,1,0.30581149144563824,,,,,,,,,,,,,,,,,25,001,22,w,Bildungswissenschaften,2023-01-17_09h05.39.987,00_bat_bachelor,2022.2.4,59.95642441382072,
,,,,,,,,,,,,0,0,0,0,177,0,177,0,,,,,,,177,,,1,1328.2223392861197,Y,d,go,d,1,0.29554289038060233,,,,,,,,,,,,,,,,,25,001,22,w,Bildungswissenschaften,2023-01-17_09h05.39.987,00_bat_bachelor,2022.2.4,59.95642441382072,
,,,,,,,,,,,,0,0,0,0,178,0,178,0,,,,,,,178,,,1,1329.623427091632,X,l,go,l,1,0.2853213195921853,,,,,,,,,,,,,,,,,25,001,22,w,Bildungswissenschaften,2023-01-17_09h05.39.987,00_bat_bachelor,2022.2.4,59.95642441382072,
,,,,,,,,,,,,0,0,0,0,179,0,179,0,,,,,,,179,,,1,1331.0412310102838,X,None,nogo,None,1,,1331.8416345010046,,,,,,,,,,,,,,,,25,001,22,w,Bildungswissenschaften,2023-01-17_09h05.39.987,00_bat_bachelor,2022.2.4,59.95642441382072,
,,,,,,,,,,,,0,0,0,0,180,0,180,0,,,,,,,180,,,1,1332.8423186218715,Y,d,go,d,1,0.20243069308344275,,,,,,,,,,,,,,,,,25,001,22,w,Bildungswissenschaften,2023-01-17_09h05.39.987,00_bat_bachelor,2022.2.4,59.95642441382072,
,,,,,,,,,,,,0,0,0,0,181,0,181,0,,,,,,,181,,,1,1334.1766850052518,X,l,go,l,1,0.43602767074480653,,,,,,,,,,,,,,,,,25,001,22,w,Bildungswissenschaften,2023-01-17_09h05.39.987,00_bat_bachelor,2022.2.4,59.95642441382072,
,,,,,,,,,,,,0,0,0,0,182,0,182,0,,,,,,,182,,,1,1335.7446793965064,X,None,nogo,d,0,0.25997151364572346,,,,,,,,,,,,,,,,,25,001,22,w,Bildungswissenschaften,2023-01-17_09h05.39.987,00_bat_bachelor,2022.2.4,59.95642441382072,
,,,,,,,,,,,,0,0,0,0,183,0,183,0,,,,,,,183,,,1,1337.12912430102,Y,d,go,d,1,0.18841082113794982,,,,,,,,,,,,,,,,,25,001,22,w,Bildungswissenschaften,2023-01-17_09h05.39.987,00_bat_bachelor,2022.2.4,59.95642441382072,
,,,,,,,,,,,,0,0,0,0,184,0,184,0,,,,,,,184,,,1,1338.4464448744548,X,l,go,l,1,0.3272010568762198,,,,,,,,,,,,,,,,,25,001,22,w,Bildungswissenschaften,2023-01-17_09h05.39.987,00_bat_bachelor,2022.2.4,59.95642441382072,
,,,,,,,,,,,,0,0,0,0,185,0,185,0,,,,,,,185,,,1,1339.8807670880924,X,None,nogo,None,1,,1340.6815293665277,,,,,,,,,,,,,,,,25,001,22,w,Bildungswissenschaften,2023-01-17_09h05.39.987,00_bat_bachelor,2022.2.4,59.95642441382072,
,,,,,,,,,,,,0,0,0,0,186,0,186,0,,,,,,,186,,,1,1341.682283305563,Y,d,go,d,1,0.3869886642205529,,,,,,,,,,,,,,,,,25,001,22,w,Bildungswissenschaften,2023-01-17_09h05.39.987,00_bat_bachelor,2022.2.4,59.95642441382072,
,,,,,,,,,,,,0,0,0,0,187,0,187,0,,,,,,,187,,,1,1343.1834394261823,X,l,go,l,1,0.4380150637589395,,,,,,,,,,,,,,,,,25,001,22,w,Bildungswissenschaften,2023-01-17_09h05.39.987,00_bat_bachelor,2022.2.4,59.95642441382072,
,,,,,,,,,,,,0,0,0,0,188,0,188,0,,,,,,,188,,,1,1344.7343972196686,Y,d,go,d,1,0.5188281154260039,,,,,,,,,,,,,,,,,25,001,22,w,Bildungswissenschaften,2023-01-17_09h05.39.987,00_bat_bachelor,2022.2.4,59.95642441382072,
,,,,,,,,,,,,0,0,0,0,189,0,189,0,,,,,,,189,,,1,1346.3689966695383,X,l,go,l,1,0.32497123978100717,,,,,,,,,,,,,,,,,25,001,22,w,Bildungswissenschaften,2023-01-17_09h05.39.987,00_bat_bachelor,2022.2.4,59.95642441382072,
,,,,,,,,,,,,0,0,0,0,190,0,190,0,,,,,,,190,,,1,1347.8036020345753,X,None,nogo,None,1,,1348.6037558284588,,,,,,,,,,,,,,,,25,001,22,w,Bildungswissenschaften,2023-01-17_09h05.39.987,00_bat_bachelor,2022.2.4,59.95642441382072,
,,,,,,,,,,,,0,0,0,0,191,0,191,0,,,,,,,191,,,1,1349.604278494895,Y,d,go,d,1,0.29016543843317777,,,,,,,,,,,,,,,,,25,001,22,w,Bildungswissenschaften,2023-01-17_09h05.39.987,00_bat_bachelor,2022.2.4,59.95642441382072,
,,,,,,,,,,,,0,0,0,0,192,0,192,0,,,,,,,192,,,1,1351.0057149063214,X,l,go,l,1,0.31128251913469285,,,,,,,,,,,,,,,,,25,001,22,w,Bildungswissenschaften,2023-01-17_09h05.39.987,00_bat_bachelor,2022.2.4,59.95642441382072,
,,,,,,,,,,,,0,0,0,0,193,0,193,0,,,,,,,193,,,1,1352.4232647644822,Y,d,go,d,1,0.3178478492773138,,,,,,,,,,,,,,,,,25,001,22,w,Bildungswissenschaften,2023-01-17_09h05.39.987,00_bat_bachelor,2022.2.4,59.95642441382072,
,,,,,,,,,,,,0,0,0,0,194,0,194,0,,,,,,,194,,,1,1353.8575937660062,Y,None,nogo,None,1,,,,,,,,,,,,,,,,,,25,001,22,w,Bildungswissenschaften,2023-01-17_09h05.39.987,00_bat_bachelor,2022.2.4,59.95642441382072,
,,,,,,,,,,,,0,0,0,0,195,0,195,0,,,,,,,195,,,1,1355.6595075590303,X,l,go,l,1,0.34567086602328345,,,,,,,,,,,,,,,,,25,001,22,w,Bildungswissenschaften,2023-01-17_09h05.39.987,00_bat_bachelor,2022.2.4,59.95642441382072,
,,,,,,,,,,,,0,0,0,0,196,0,196,0,,,,,,,196,,,1,1357.1102918253164,Y,d,go,d,1,0.4488586948136799,,,,,,,,,,,,,,,,,25,001,22,w,Bildungswissenschaften,2023-01-17_09h05.39.987,00_bat_bachelor,2022.2.4,59.95642441382072,
,,,,,,,,,,,,0,0,0,0,197,0,197,0,,,,,,,197,,,1,1358.6611953157699,Y,None,nogo,None,1,,,,,,,,,,,,,,,,,,25,001,22,w,Bildungswissenschaften,2023-01-17_09h05.39.987,00_bat_bachelor,2022.2.4,59.95642441382072,
,,,,,,,,,,,,0,0,0,0,198,0,198,0,,,,,,,198,,,1,1360.4629408664186,X,l,go,l,1,0.31195791269419715,,,,,,,,,,,,,,,,,25,001,22,w,Bildungswissenschaften,2023-01-17_09h05.39.987,00_bat_bachelor,2022.2.4,59.95642441382072,
,,,,,,,,,,,,0,0,0,0,199,0,199,0,,,,,,,199,,,1,1361.880495573103,Y,d,go,d,1,0.2692723576328717,,,,,,,,,,,,,,,,,25,001,22,w,Bildungswissenschaften,2023-01-17_09h05.39.987,00_bat_bachelor,2022.2.4,59.95642441382072,
,,,,,,,,,,,,0,0,0,0,200,0,200,0,,,,,,,200,,,1,1363.2649559927522,X,l,go,l,1,0.4049212615354918,,,,,,,,,,,,,,,,,25,001,22,w,Bildungswissenschaften,2023-01-17_09h05.39.987,00_bat_bachelor,2022.2.4,59.95642441382072,
,,,,,,,,,,,,0,0,0,0,201,0,201,0,,,,,,,201,,,1,1364.7825586508843,Y,d,go,d,1,0.2945489514968358,,,,,,,,,,,,,,,,,25,001,22,w,Bildungswissenschaften,2023-01-17_09h05.39.987,00_bat_bachelor,2022.2.4,59.95642441382072,
,,,,,,,,,,,,0,0,0,0,202,0,202,0,,,,,,,202,,,1,1366.1838680320652,Y,None,nogo,l,0,0.28529756201896816,,,,,,,,,,,,,,,,,25,001,22,w,Bildungswissenschaften,2023-01-17_09h05.39.987,00_bat_bachelor,2022.2.4,59.95642441382072,
,,,,,,,,,,,,0,0,0,0,203,0,203,0,,,,,,,203,,,1,1367.5846489286632,X,l,go,l,1,0.21295432437909767,,,,,,,,,,,,,,,,,25,001,22,w,Bildungswissenschaften,2023-01-17_09h05.39.987,00_bat_bachelor,2022.2.4,59.95642441382072,
,,,,,,,,,,,,0,0,0,0,204,0,204,0,,,,,,,204,,,1,1368.902592047234,Y,d,go,d,1,0.3988184766494669,,,,,,,,,,,,,,,,,25,001,22,w,Bildungswissenschaften,2023-01-17_09h05.39.987,00_bat_bachelor,2022.2.4,59.95642441382072,
,,,,,,,,,,,,0,0,0,0,205,0,205,0,,,,,,,205,,,1,1370.403743319388,Y,None,nogo,None,1,,,,,,,,,,,,,,,,,,25,001,22,w,Bildungswissenschaften,2023-01-17_09h05.39.987,00_bat_bachelor,2022.2.4,59.95642441382072,
,,,,,,,,,,,,0,0,0,0,206,0,206,0,,,,,,,206,,,1,1372.204839658225,X,l,go,l,1,0.2965474959346466,,,,,,,,,,,,,,,,,25,001,22,w,Bildungswissenschaften,2023-01-17_09h05.39.987,00_bat_bachelor,2022.2.4,59.95642441382072,
,,,,,,,,,,,,0,0,0,0,207,0,207,0,,,,,,,207,,,1,1373.6062115848763,Y,d,go,d,1,0.350936318107415,,,,,,,,,,,,,,,,,25,001,22,w,Bildungswissenschaften,2023-01-17_09h05.39.987,00_bat_bachelor,2022.2.4,59.95642441382072,
,,,,,,,,,,,,0,0,0,0,208,0,208,0,,,,,,,208,,,1,1375.0738622671925,Y,None,nogo,None,1,,,,,,,,,,,,,,,,,,25,001,22,w,Bildungswissenschaften,2023-01-17_09h05.39.987,00_bat_bachelor,2022.2.4,59.95642441382072,
,,,,,,,,,,,,0,0,0,0,209,0,209,0,,,,,,,209,,,1,1376.875128302956,X,l,go,l,1,0.2823521089158021,,,,,,,,,,,,,,,,,25,001,22,w,Bildungswissenschaften,2023-01-17_09h05.39.987,00_bat_bachelor,2022.2.4,59.95642441382072,
,,,,,,,,,,,,0,0,0,0,210,0,210,0,,,,,,,210,,,1,1378.2594039954129,Y,d,go,d,1,0.3542696497752331,,,,,,,,,,,,,,,,,25,001,22,w,Bildungswissenschaften,2023-01-17_09h05.39.987,00_bat_bachelor,2022.2.4,59.95642441382072,
,,,,,,,,,,,,0,0,0,0,211,0,211,0,,,,,,,211,,,1,1379.7274745563627,Y,None,nogo,None,1,,,,,,,,,,,,,,,,,,25,001,22,w,Bildungswissenschaften,2023-01-17_09h05.39.987,00_bat_bachelor,2022.2.4,59.95642441382072,
,,,,,,,,,,,,0,0,0,0,212,0,212,0,,,,,,,212,,,1,1381.5286644709413,X,l,go,l,1,0.44591324171051383,,,,,,,,,,,,,,,,,25,001,22,w,Bildungswissenschaften,2023-01-17_09h05.39.987,00_bat_bachelor,2022.2.4,59.95642441382072,
,,,,,,,,,,,,0,0,0,0,213,0,213,0,,,,,,,213,,,1,1383.0801895368495,Y,d,go,d,1,0.25366315309656784,,,,,,,,,,,,,,,,,25,001,22,w,Bildungswissenschaften,2023-01-17_09h05.39.987,00_bat_bachelor,2022.2.4,59.95642441382072,
,,,,,,,,,,,,0,0,0,0,214,0,214,0,,,,,,,214,,,1,1384.4477069344139,Y,None,nogo,None,1,,,,,,,,,,,,,,,,,,25,001,22,w,Bildungswissenschaften,2023-01-17_09h05.39.987,00_bat_bachelor,2022.2.4,59.95642441382072,
,,,,,,,,,,,,0,0,0,0,215,0,215,0,,,,,,,215,,,1,1386.248883273278,X,l,go,l,1,0.2838289566570893,,,,,,,,,,,,,,,,,25,001,22,w,Bildungswissenschaften,2023-01-17_09h05.39.987,00_bat_bachelor,2022.2.4,59.95642441382072,
,,,,,,,,,,,,0,0,0,0,216,0,216,0,,,,,,,216,,,1,1387.6502130180597,Y,d,go,d,1,0.3079482177272439,,,,,,,,,,,,,,,,,25,001,22,w,Bildungswissenschaften,2023-01-17_09h05.39.987,00_bat_bachelor,2022.2.4,59.95642441382072,
,,,,,,,,,,,,0,0,0,0,217,0,217,0,,,,,,,217,,,1,1389.0679655427812,X,l,go,l,1,0.3292471164604649,,,,,,,,,,,,,,,,,25,001,22,w,Bildungswissenschaften,2023-01-17_09h05.39.987,00_bat_bachelor,2022.2.4,59.95642441382072,
,,,,,,,,,,,,0,0,0,0,218,0,218,0,,,,,,,218,,,1,1390.50263442297,Y,d,go,d,1,0.28702265210449696,,,,,,,,,,,,,,,,,25,001,22,w,Bildungswissenschaften,2023-01-17_09h05.39.987,00_bat_bachelor,2022.2.4,59.95642441382072,
,,,,,,,,,,,,0,0,0,0,219,0,219,0,,,,,,,219,,,1,1391.903411440726,Y,None,nogo,l,0,0.29526070872088894,,,,,,,,,,,,,,,,,25,001,22,w,Bildungswissenschaften,2023-01-17_09h05.39.987,00_bat_bachelor,2022.2.4,59.95642441382072,
,,,,,,,,,,,,0,0,0,0,220,0,220,0,,,,,,,220,,,1,1393.3045438523404,X,l,go,l,1,0.2206789266783744,,,,,,,,,,,,,,,,,25,001,22,w,Bildungswissenschaften,2023-01-17_09h05.39.987,00_bat_bachelor,2022.2.4,59.95642441382072,
,,,,,,,,,,,,0,0,0,0,221,0,221,0,,,,,,,221,,,1,1394.6388699932722,Y,d,go,d,1,0.3440063819871284,,,,,,,,,,,,,,,,,25,001,22,w,Bildungswissenschaften,2023-01-17_09h05.39.987,00_bat_bachelor,2022.2.4,59.95642441382072,
,,,,,,,,,,,,0,0,0,0,222,0,222,0,,,,,,,222,,,1,1396.089973774564,X,l,go,l,1,0.25153660867363214,,,,,,,,,,,,,,,,,25,001,22,w,Bildungswissenschaften,2023-01-17_09h05.39.987,00_bat_bachelor,2022.2.4,59.95642441382072,
,,,,,,,,,,,,0,0,0,0,223,0,223,0,,,,,,,223,,,1,1397.4580691112205,X,None,nogo,None,1,,1398.2587814502767,,,,,,,,,,,,,,,,25,001,22,w,Bildungswissenschaften,2023-01-17_09h05.39.987,00_bat_bachelor,2022.2.4,59.95642441382072,
,,,,,,,,,,,,0,0,0,0,224,0,224,0,,,,,,,224,,,1,1399.2593812075793,X,None,nogo,None,1,,1400.0600048193592,,,,,,,,,,,,,,,,25,001,22,w,Bildungswissenschaften,2023-01-17_09h05.39.987,00_bat_bachelor,2022.2.4,59.95642441382072,
,,,,,,,,,,,,0,0,0,0,225,0,225,0,,,,,,,225,,,1,1401.0608474856126,Y,d,go,d,1,0.2564873941591941,,,,,,,,,,,,,,,,,25,001,22,w,Bildungswissenschaften,2023-01-17_09h05.39.987,00_bat_bachelor,2022.2.4,59.95642441382072,
,,,,,,,,,,,,0,0,0,0,226,0,226,0,,,,,,,226,,,1,1402.428177731752,X,l,go,None,0,,,,,,,,,,,,,,,,,,25,001,22,w,Bildungswissenschaften,2023-01-17_09h05.39.987,00_bat_bachelor,2022.2.4,59.95642441382072,
,,,,,,,,,,,,0,0,0,0,227,0,227,0,,,,,,,227,,,1,1404.2295111614512,X,None,nogo,None,1,,,,,,,,,,,,,,,,,,25,001,22,w,Bildungswissenschaften,2023-01-17_09h05.39.987,00_bat_bachelor,2022.2.4,59.95642441382072,
,,,,,,,,,,,,0,0,0,0,228,0,228,0,,,,,,,228,,,1,1406.0308683486655,X,None,nogo,None,1,,1406.831567111949,,,,,,,,,,,,,,,,25,001,22,w,Bildungswissenschaften,2023-01-17_09h05.39.987,00_bat_bachelor,2022.2.4,59.95642441382072,
,,,,,,,,,,,,0,0,0,0,229,0,229,0,,,,,,,229,,,1,1407.8321741419495,Y,d,go,d,1,0.3498745003598742,,,,,,,,,,,,,,,,,25,001,22,w,Bildungswissenschaften,2023-01-17_09h05.39.987,00_bat_bachelor,2022.2.4,59.95642441382072,
,,,,,,,,,,,,0,0,0,0,230,0,230,0,,,,,,,230,,,1,1409.2833501656423,X,l,go,l,1,0.3699656421667896,,,,,,,,,,,,,,,,,25,001,22,w,Bildungswissenschaften,2023-01-17_09h05.39.987,00_bat_bachelor,2022.2.4,59.95642441382072,
,,,,,,,,,,,,0,0,0,0,231,0,231,0,,,,,,,231,,,1,1410.7678061731858,X,None,nogo,None,1,,,,,,,,,,,,,,,,,,25,001,22,w,Bildungswissenschaften,2023-01-17_09h05.39.987,00_bat_bachelor,2022.2.4,59.95642441382072,
,,,,,,,,,,,,0,0,0,0,232,0,232,0,,,,,,,232,,,1,1412.5692574209534,Y,d,go,d,1,0.42890864389482886,,,,,,,,,,,,,,,,,25,001,22,w,Bildungswissenschaften,2023-01-17_09h05.39.987,00_bat_bachelor,2022.2.4,59.95642441382072,
,,,,,,,,,,,,0,0,0,0,233,0,233,0,,,,,,,233,,,1,1414.103694010293,X,l,go,l,1,0.23776837292825803,,,,,,,,,,,,,,,,,25,001,22,w,Bildungswissenschaften,2023-01-17_09h05.39.987,00_bat_bachelor,2022.2.4,59.95642441382072,
,,,,,,,,,,,,0,0,0,0,234,0,234,0,,,,,,,234,,,1,1415.4544119008933,X,None,nogo,None,1,,,,,,,,,,,,,,,,,,25,001,22,w,Bildungswissenschaften,2023-01-17_09h05.39.987,00_bat_bachelor,2022.2.4,59.95642441382072,
,,,,,,,,,,,,0,0,0,0,235,0,235,0,,,,,,,235,,,1,1417.2558743001428,Y,d,go,d,1,0.4464315444929525,,,,,,,,,,,,,,,,,25,001,22,w,Bildungswissenschaften,2023-01-17_09h05.39.987,00_bat_bachelor,2022.2.4,59.95642441382072,
,,,,,,,,,,,,0,0,0,0,236,0,236,0,,,,,,,236,,,1,1418.8072563358583,X,l,go,l,1,0.27025320567190647,,,,,,,,,,,,,,,,,25,001,22,w,Bildungswissenschaften,2023-01-17_09h05.39.987,00_bat_bachelor,2022.2.4,59.95642441382072,
,,,,,,,,,,,,0,0,0,0,237,0,237,0,,,,,,,237,,,1,1420.1915746949962,Y,d,go,d,1,0.3267554813064635,,,,,,,,,,,,,,,,,25,001,22,w,Bildungswissenschaften,2023-01-17_09h05.39.987,00_bat_bachelor,2022.2.4,59.95642441382072,
,,,,,,,,,,,,0,0,0,0,238,0,238,0,,,,,,,238,,,1,1421.626048666134,X,l,go,l,1,0.30027549411170185,,,,,,,,,,,,,,,,,25,001,22,w,Bildungswissenschaften,2023-01-17_09h05.39.987,00_bat_bachelor,2022.2.4,59.95642441382072,
,,,,,,,,,,,,0,0,0,0,239,0,239,0,,,,,,,239,,,1,1423.0272775625344,Y,d,go,d,1,0.29125295305857435,,,,,,,,,,,,,,,,,25,001,22,w,Bildungswissenschaften,2023-01-17_09h05.39.987,00_bat_bachelor,2022.2.4,59.95642441382072,
,,,,,,,,,,,,0,0,0,0,240,0,240,0,,,,,,,240,,,1,1424.4281670651399,X,l,go,l,1,0.23304692067904398,,,,,,,,,,,,,,,,,25,001,22,w,Bildungswissenschaften,2023-01-17_09h05.39.987,00_bat_bachelor,2022.2.4,59.95642441382072,
,,,,,,,,,,,,0,0,0,0,241,0,241,0,,,,,,,241,,,1,1425.7626769635244,X,None,nogo,None,1,,,,,,,,,,,,,,,,,,25,001,22,w,Bildungswissenschaften,2023-01-17_09h05.39.987,00_bat_bachelor,2022.2.4,59.95642441382072,
,,,,,,,,,,,,0,0,0,0,242,0,242,0,,,,,,,242,,,1,1427.5636836054618,Y,d,go,d,1,0.3933513277443126,,,,,,,,,,,,,,,,,25,001,22,w,Bildungswissenschaften,2023-01-17_09h05.39.987,00_bat_bachelor,2022.2.4,59.95642441382072,
,,,,,,,,,,,,0,0,0,0,243,0,243,0,,,,,,,243,,,1,1429.0650991199655,X,l,go,l,1,0.26864011550787836,,,,,,,,,,,,,,,,,25,001,22,w,Bildungswissenschaften,2023-01-17_09h05.39.987,00_bat_bachelor,2022.2.4,59.95642441382072,
,,,,,,,,,,,,0,0,0,0,244,0,244,0,,,,,,,244,,,1,1430.4494519032887,Y,d,go,d,1,0.3404335352825001,,,,,,,,,,,,,,,,,25,001,22,w,Bildungswissenschaften,2023-01-17_09h05.39.987,00_bat_bachelor,2022.2.4,59.95642441382072,
,,,,,,,,,,,,0,0,0,0,245,0,245,0,,,,,,,245,,,1,1431.9005789572839,X,l,go,l,1,0.2650949051603675,,,,,,,,,,,,,,,,,25,001,22,w,Bildungswissenschaften,2023-01-17_09h05.39.987,00_bat_bachelor,2022.2.4,59.95642441382072,
,,,,,,,,,,,,0,0,0,0,246,0,246,0,,,,,,,246,,,1,1433.2682180517586,X,None,nogo,None,1,,1434.068913421128,,,,,,,,,,,,,,,,25,001,22,w,Bildungswissenschaften,2023-01-17_09h05.39.987,00_bat_bachelor,2022.2.4,59.95642441382072,
,,,,,,,,,,,,0,0,0,0,247,0,247,0,,,,,,,247,,,1,1435.0697589964839,Y,d,go,d,1,0.29537949652876705,,,,,,,,,,,,,,,,,25,001,22,w,Bildungswissenschaften,2023-01-17_09h05.39.987,00_bat_bachelor,2022.2.4,59.95642441382072,
,,,,,,,,,,,,0,0,0,0,248,0,248,0,,,,,,,248,,,1,1436.4708434080821,X,l,go,l,1,0.2084302052971907,,,,,,,,,,,,,,,,,25,001,22,w,Bildungswissenschaften,2023-01-17_09h05.39.987,00_bat_bachelor,2022.2.4,59.95642441382072,
,,,,,,,,,,,,0,0,0,0,249,0,249,0,,,,,,,249,,,1,1437.7884194965009,Y,d,go,d,1,0.5218855685088784,,,,,,,,,,,,,,,,,25,001,22,w,Bildungswissenschaften,2023-01-17_09h05.39.987,00_bat_bachelor,2022.2.4,59.95642441382072,
,,,,,,,,,,,,1,0,1,0,0,0,0,0,,,,,,,0,,,0.2,1451.2988890671986,X,l,go,l,1,0.6109871010994539,,,,,,,,,1438.4266931264428,space,12.65454635268543,,,,,,25,001,22,w,Bildungswissenschaften,2023-01-17_09h05.39.987,00_bat_bachelor,2022.2.4,59.95642441382072,
,,,,,,,,,,,,1,0,1,0,1,0,1,0,,,,,,,1,,,0.2,1452.2164255920216,Y,d,go,d,1,0.38130430335877463,,,,,,,,,,,,,,,,,25,001,22,w,Bildungswissenschaften,2023-01-17_09h05.39.987,00_bat_bachelor,2022.2.4,59.95642441382072,
,,,,,,,,,,,,1,0,1,0,2,0,2,0,,,,,,,2,,,0.2,1452.9001120484318,X,l,go,l,1,0.27313368913019076,,,,,,,,,,,,,,,,,25,001,22,w,Bildungswissenschaften,2023-01-17_09h05.39.987,00_bat_bachelor,2022.2.4,59.95642441382072,
,,,,,,,,,,,,1,0,1,0,3,0,3,0,,,,,,,3,,,0.2,1453.48401721986,Y,d,go,d,1,0.2815748971188441,,,,,,,,,,,,,,,,,25,001,22,w,Bildungswissenschaften,2023-01-17_09h05.39.987,00_bat_bachelor,2022.2.4,59.95642441382072,
,,,,,,,,,,,,1,0,1,0,4,0,4,0,,,,,,,4,,,0.2,1454.067205785599,Y,None,nogo,l,0,0.2904510140651837,,,,,,,,,,,,,,,,,25,001,22,w,Bildungswissenschaften,2023-01-17_09h05.39.987,00_bat_bachelor,2022.2.4,59.95642441382072,
,,,,,,,,,,,,1,0,1,0,5,0,5,0,,,,,,,5,,,0.2,1454.667998706398,X,l,go,l,1,0.37846309260930866,,,,,,,,,,,,,,,,,25,001,22,w,Bildungswissenschaften,2023-01-17_09h05.39.987,00_bat_bachelor,2022.2.4,59.95642441382072,
,,,,,,,,,,,,1,0,1,0,6,0,6,0,,,,,,,6,,,0.2,1455.3517234658357,Y,d,go,d,1,0.4141110753407702,,,,,,,,,,,,,,,,,25,001,22,w,Bildungswissenschaften,2023-01-17_09h05.39.987,00_bat_bachelor,2022.2.4,59.95642441382072,
,,,,,,,,,,,,1,0,1,0,7,0,7,0,,,,,,,7,,,0.2,1456.0690996028716,X,l,go,l,1,0.4486851191613823,,,,,,,,,,,,,,,,,25,001,22,w,Bildungswissenschaften,2023-01-17_09h05.39.987,00_bat_bachelor,2022.2.4,59.95642441382072,
,,,,,,,,,,,,1,0,1,0,8,0,8,0,,,,,,,8,,,0.2,1456.8194012996973,X,None,nogo,None,1,,,,,,,,,,,,,,,,,,25,001,22,w,Bildungswissenschaften,2023-01-17_09h05.39.987,00_bat_bachelor,2022.2.4,59.95642441382072,
,,,,,,,,,,,,1,0,1,0,9,0,9,0,,,,,,,9,,,0.2,1457.8203404507367,Y,d,go,d,1,0.4102526529459283,,,,,,,,,,,,,,,,,25,001,22,w,Bildungswissenschaften,2023-01-17_09h05.39.987,00_bat_bachelor,2022.2.4,59.95642441382072,
,,,,,,,,,,,,1,0,1,0,10,0,10,0,,,,,,,10,,,0.2,1458.53752119391,X,l,go,l,1,0.3804921825649217,,,,,,,,,,,,,,,,,25,001,22,w,Bildungswissenschaften,2023-01-17_09h05.39.987,00_bat_bachelor,2022.2.4,59.95642441382072,
,,,,,,,,,,,,1,0,1,0,11,0,11,0,,,,,,,11,,,0.2,1459.2213021957432,X,None,nogo,None,1,,,,,,,,,,,,,,,,,,25,001,22,w,Bildungswissenschaften,2023-01-17_09h05.39.987,00_bat_bachelor,2022.2.4,59.95642441382072,
,,,,,,,,,,,,1,0,1,0,12,0,12,0,,,,,,,12,,,0.2,1460.2221419528942,Y,d,go,d,1,0.3118507612380199,,,,,,,,,,,,,,,,,25,001,22,w,Bildungswissenschaften,2023-01-17_09h05.39.987,00_bat_bachelor,2022.2.4,59.95642441382072,
,,,,,,,,,,,,1,0,1,0,13,0,13,0,,,,,,,13,,,0.2,1460.839298017323,X,l,go,l,1,0.3178085765102878,,,,,,,,,,,,,,,,,25,001,22,w,Bildungswissenschaften,2023-01-17_09h05.39.987,00_bat_bachelor,2022.2.4,59.95642441382072,
,,,,,,,,,,,,1,0,1,0,14,0,14,0,,,,,,,14,,,0.2,1461.4730872857617,Y,d,go,d,1,0.37309436791110784,,,,,,,,,,,,,,,,,25,001,22,w,Bildungswissenschaften,2023-01-17_09h05.39.987,00_bat_bachelor,2022.2.4,59.95642441382072,
,,,,,,,,,,,,1,0,1,0,15,0,15,0,,,,,,,15,,,0.2,1462.1570190753555,Y,None,nogo,l,0,0.23353613255312666,,,,,,,,,,,,,,,,,25,001,22,w,Bildungswissenschaften,2023-01-17_09h05.39.987,00_bat_bachelor,2022.2.4,59.95642441382072,
,,,,,,,,,,,,1,0,1,0,16,0,16,0,,,,,,,16,,,0.2,1462.690440392471,X,l,go,l,1,0.5475485863862559,,,,,,,,,,,,,,,,,25,001,22,w,Bildungswissenschaften,2023-01-17_09h05.39.987,00_bat_bachelor,2022.2.4,59.95642441382072,
,,,,,,,,,,,,1,0,1,0,17,0,17,0,,,,,,,17,,,0.2,1463.5410387679585,Y,d,go,d,1,0.4488242706283927,,,,,,,,,,,,,,,,,25,001,22,w,Bildungswissenschaften,2023-01-17_09h05.39.987,00_bat_bachelor,2022.2.4,59.95642441382072,
,,,,,,,,,,,,1,0,1,0,18,0,18,0,,,,,,,18,,,0.2,1464.2921113735065,X,l,go,l,1,0.5461614355444908,,,,,,,,,,,,,,,,,25,001,22,w,Bildungswissenschaften,2023-01-17_09h05.39.987,00_bat_bachelor,2022.2.4,59.95642441382072,
,,,,,,,,,,,,1,0,1,0,19,0,19,0,,,,,,,19,,,0.2,1465.142416900606,Y,d,go,d,1,0.4786875288700685,,,,,,,,,,,,,,,,,25,001,22,w,Bildungswissenschaften,2023-01-17_09h05.39.987,00_bat_bachelor,2022.2.4,59.95642441382072,
,,,,,,,,,,,,1,0,1,0,20,0,20,0,,,,,,,20,,,0.2,1465.9265988234547,Y,None,nogo,l,0,0.527149565925356,,,,,,,,,,,,,,,,,25,001,22,w,Bildungswissenschaften,2023-01-17_09h05.39.987,00_bat_bachelor,2022.2.4,59.95642441382072,
,,,,,,,,,,,,1,0,1,0,21,0,21,0,,,,,,,21,,,0.2,1466.7602430253173,Y,None,nogo,None,1,,,,,,,,,,,,,,,,,,25,001,22,w,Bildungswissenschaften,2023-01-17_09h05.39.987,00_bat_bachelor,2022.2.4,59.95642441382072,
,,,,,,,,,,,,1,0,1,0,22,0,22,0,,,,,,,22,,,0.2,1467.7611729642376,X,l,go,l,1,0.5489236160065047,,,,,,,,,,,,,,,,,25,001,22,w,Bildungswissenschaften,2023-01-17_09h05.39.987,00_bat_bachelor,2022.2.4,59.95642441382072,
,,,,,,,,,,,,1,0,1,0,23,0,23,0,,,,,,,23,,,0.2,1468.6117689154926,Y,d,go,None,0,,,,,,,,,,,,,,,,,,25,001,22,w,Bildungswissenschaften,2023-01-17_09h05.39.987,00_bat_bachelor,2022.2.4,59.95642441382072,
,,,,,,,,,,,,1,0,1,0,24,0,24,0,,,,,,,24,,,0.2,1469.6127163089695,Y,None,nogo,None,1,,1470.413363193511,,,,,,,,,,,,,,,,25,001,22,w,Bildungswissenschaften,2023-01-17_09h05.39.987,00_bat_bachelor,2022.2.4,59.95642441382072,
,,,,,,,,,,,,1,0,1,0,25,0,25,0,,,,,,,25,,,0.2,1470.6133955813712,X,l,go,l,1,0.43226088472874835,,,,,,,,,,,,,,,,,25,001,22,w,Bildungswissenschaften,2023-01-17_09h05.39.987,00_bat_bachelor,2022.2.4,59.95642441382072,
,,,,,,,,,,,,1,0,1,0,26,0,26,0,,,,,,,26,,,0.2,1471.3474058921565,Y,d,go,d,1,0.3860955737181939,,,,,,,,,,,,,,,,,25,001,22,w,Bildungswissenschaften,2023-01-17_09h05.39.987,00_bat_bachelor,2022.2.4,59.95642441382072,
,,,,,,,,,,,,1,0,1,0,27,0,27,0,,,,,,,27,,,0.2,1472.0479000979685,Y,None,nogo,l,0,0.32667693588882685,,,,,,,,,,,,,,,,,25,001,22,w,Bildungswissenschaften,2023-01-17_09h05.39.987,00_bat_bachelor,2022.2.4,59.95642441382072,
,,,,,,,,,,,,1,0,1,0,28,0,28,0,,,,,,,28,,,0.2,1472.6816292452277,X,l,go,l,1,0.5883301423746161,,,,,,,,,,,,,,,,,25,001,22,w,Bildungswissenschaften,2023-01-17_09h05.39.987,00_bat_bachelor,2022.2.4,59.95642441382072,
,,,,,,,,,,,,1,0,1,0,29,0,29,0,,,,,,,29,,,0.2,1473.5820530510973,Y,d,go,d,1,0.45529602508759126,,,,,,,,,,,,,,,,,25,001,22,w,Bildungswissenschaften,2023-01-17_09h05.39.987,00_bat_bachelor,2022.2.4,59.95642441382072,
,,,,,,,,,,,,1,0,1,0,30,0,30,0,,,,,,,30,,,0.2,1474.3496618910576,X,l,go,None,0,,,,,,,,,,,,,,,,,,25,001,22,w,Bildungswissenschaften,2023-01-17_09h05.39.987,00_bat_bachelor,2022.2.4,59.95642441382072,
,,,,,,,,,,,,1,0,1,0,31,0,31,0,,,,,,,31,,,0.2,1475.3504352240125,Y,d,go,d,1,0.5919665042310953,,,,,,,,,,,,,,,,,25,001,22,w,Bildungswissenschaften,2023-01-17_09h05.39.987,00_bat_bachelor,2022.2.4,59.95642441382072,
,,,,,,,,,,,,1,0,1,0,32,0,32,0,,,,,,,32,,,0.2,1476.2511179388384,X,l,go,l,1,0.3946832059882581,,,,,,,,,,,,,,,,,25,001,22,w,Bildungswissenschaften,2023-01-17_09h05.39.987,00_bat_bachelor,2022.2.4,59.95642441382072,
,,,,,,,,,,,,1,0,1,0,33,0,33,0,,,,,,,33,,,0.2,1476.9513474174892,Y,d,go,d,1,0.4308538550394587,,,,,,,,,,,,,,,,,25,001,22,w,Bildungswissenschaften,2023-01-17_09h05.39.987,00_bat_bachelor,2022.2.4,59.95642441382072,
,,,,,,,,,,,,1,0,1,0,34,0,34,0,,,,,,,34,,,0.2,1477.6853397889063,X,l,go,l,1,0.4324974906630814,,,,,,,,,,,,,,,,,25,001,22,w,Bildungswissenschaften,2023-01-17_09h05.39.987,00_bat_bachelor,2022.2.4,59.95642441382072,
,,,,,,,,,,,,1,0,1,0,35,0,35,0,,,,,,,35,,,0.2,1478.4193408875726,Y,d,go,d,1,0.4176388311898336,,,,,,,,,,,,,,,,,25,001,22,w,Bildungswissenschaften,2023-01-17_09h05.39.987,00_bat_bachelor,2022.2.4,59.95642441382072,
,,,,,,,,,,,,1,0,1,0,36,0,36,0,,,,,,,36,,,0.2,1479.1532488953671,Y,None,nogo,None,1,,,,,,,,,,,,,,,,,,25,001,22,w,Bildungswissenschaften,2023-01-17_09h05.39.987,00_bat_bachelor,2022.2.4,59.95642441382072,
,,,,,,,,,,,,1,0,1,0,37,0,37,0,,,,,,,37,,,0.2,1480.1540067131864,X,l,go,l,1,0.3958827205351554,,,,,,,,,,,,,,,,,25,001,22,w,Bildungswissenschaften,2023-01-17_09h05.39.987,00_bat_bachelor,2022.2.4,59.95642441382072,
,,,,,,,,,,,,1,0,1,0,38,0,38,0,,,,,,,38,,,0.2,1480.8542623737012,Y,d,go,d,1,0.5441609516274184,,,,,,,,,,,,,,,,,25,001,22,w,Bildungswissenschaften,2023-01-17_09h05.39.987,00_bat_bachelor,2022.2.4,59.95642441382072,
,,,,,,,,,,,,1,0,1,0,39,0,39,0,,,,,,,39,,,0.2,1481.705204991391,X,l,go,l,1,0.31640784995397553,,,,,,,,,,,,,,,,,25,001,22,w,Bildungswissenschaften,2023-01-17_09h05.39.987,00_bat_bachelor,2022.2.4,59.95642441382072,
,,,,,,,,,,,,1,0,1,0,40,0,40,0,,,,,,,40,,,0.2,1482.3224134194315,Y,d,go,d,1,0.43487664102576673,,,,,,,,,,,,,,,,,25,001,22,w,Bildungswissenschaften,2023-01-17_09h05.39.987,00_bat_bachelor,2022.2.4,59.95642441382072,
,,,,,,,,,,,,1,0,1,0,41,0,41,0,,,,,,,41,,,0.2,1483.0728532979847,X,l,go,l,1,0.43723445798968896,,,,,,,,,,,,,,,,,25,001,22,w,Bildungswissenschaften,2023-01-17_09h05.39.987,00_bat_bachelor,2022.2.4,59.95642441382072,
,,,,,,,,,,,,1,0,1,0,42,0,42,0,,,,,,,42,,,0.2,1483.823224328109,Y,d,go,d,1,0.29496107244631276,,,,,,,,,,,,,,,,,25,001,22,w,Bildungswissenschaften,2023-01-17_09h05.39.987,00_bat_bachelor,2022.2.4,59.95642441382072,
,,,,,,,,,,,,1,0,1,0,43,0,43,0,,,,,,,43,,,0.2,1484.4238834308344,Y,None,nogo,l,0,0.317971485608723,,,,,,,,,,,,,,,,,25,001,22,w,Bildungswissenschaften,2023-01-17_09h05.39.987,00_bat_bachelor,2022.2.4,59.95642441382072,
,,,,,,,,,,,,1,0,1,0,44,0,44,0,,,,,,,44,,,0.2,1485.057734275004,X,l,go,l,1,0.6443078122101724,,,,,,,,,,,,,,,,,25,001,22,w,Bildungswissenschaften,2023-01-17_09h05.39.987,00_bat_bachelor,2022.2.4,59.95642441382072,
,,,,,,,,,,,,1,0,1,0,45,0,45,0,,,,,,,45,,,0.2,1486.0084334504209,Y,d,go,d,1,0.31776251597329974,,,,,,,,,,,,,,,,,25,001,22,w,Bildungswissenschaften,2023-01-17_09h05.39.987,00_bat_bachelor,2022.2.4,59.95642441382072,
,,,,,,,,,,,,1,0,1,0,46,0,46,0,,,,,,,46,,,0.2,1486.6422905976651,X,l,go,l,1,0.3870255126385018,,,,,,,,,,,,,,,,,25,001,22,w,Bildungswissenschaften,2023-01-17_09h05.39.987,00_bat_bachelor,2022.2.4,59.95642441382072,
,,,,,,,,,,,,1,0,1,0,47,0,47,0,,,,,,,47,,,0.2,1487.3427159550483,Y,d,go,d,1,0.4546051162760705,,,,,,,,,,,,,,,,,25,001,22,w,Bildungswissenschaften,2023-01-17_09h05.39.987,00_bat_bachelor,2022.2.4,59.95642441382072,
,,,,,,,,,,,,1,0,1,0,48,0,48,0,,,,,,,48,,,0.2,1488.1098375224974,Y,None,nogo,None,1,,,,,,,,,,,,,,,,,,25,001,22,w,Bildungswissenschaften,2023-01-17_09h05.39.987,00_bat_bachelor,2022.2.4,59.95642441382072,
,,,,,,,,,,,,1,0,1,0,49,0,49,0,,,,,,,49,,,0.2,1489.111111703678,X,l,go,l,1,0.382637151167728,,,,,,,,,,,,,,,,,25,001,22,w,Bildungswissenschaften,2023-01-17_09h05.39.987,00_bat_bachelor,2022.2.4,59.95642441382072,
,,,,,,,,,,,,1,0,1,0,50,0,50,0,,,,,,,50,,,0.2,1489.7948781600571,Y,d,go,d,1,0.65842077502748,,,,,,,,,,,,,,,,,25,001,22,w,Bildungswissenschaften,2023-01-17_09h05.39.987,00_bat_bachelor,2022.2.4,59.95642441382072,
,,,,,,,,,,,,1,0,1,0,51,0,51,0,,,,,,,51,,,0.2,1490.7624020545627,Y,None,nogo,None,1,,1491.5630392421735,,,,,,,,,,,,,,,,25,001,22,w,Bildungswissenschaften,2023-01-17_09h05.39.987,00_bat_bachelor,2022.2.4,59.95642441382072,
,,,,,,,,,,,,1,0,1,0,52,0,52,0,,,,,,,52,,,0.2,1491.7628675089218,Y,None,nogo,None,1,,,,,,,,,,,,,,,,,,25,001,22,w,Bildungswissenschaften,2023-01-17_09h05.39.987,00_bat_bachelor,2022.2.4,59.95642441382072,
,,,,,,,,,,,,1,0,1,0,53,0,53,0,,,,,,,53,,,0.2,1492.7635860540322,X,l,go,l,1,0.47402522806078196,,,,,,,,,,,,,,,,,25,001,22,w,Bildungswissenschaften,2023-01-17_09h05.39.987,00_bat_bachelor,2022.2.4,59.95642441382072,
,,,,,,,,,,,,1,0,1,0,54,0,54,0,,,,,,,54,,,0.2,1493.5475071284454,Y,d,go,d,1,0.39496053918264806,,,,,,,,,,,,,,,,,25,001,22,w,Bildungswissenschaften,2023-01-17_09h05.39.987,00_bat_bachelor,2022.2.4,59.95642441382072,
,,,,,,,,,,,,1,0,1,0,55,0,55,0,,,,,,,55,,,0.2,1494.2482054554275,X,l,go,l,1,0.5895640811650082,,,,,,,,,,,,,,,,,25,001,22,w,Bildungswissenschaften,2023-01-17_09h05.39.987,00_bat_bachelor,2022.2.4,59.95642441382072,
,,,,,,,,,,,,1,0,1,0,56,0,56,0,,,,,,,56,,,0.2,1495.1489012610982,Y,d,go,d,1,0.4256397970020771,,,,,,,,,,,,,,,,,25,001,22,w,Bildungswissenschaften,2023-01-17_09h05.39.987,00_bat_bachelor,2022.2.4,59.95642441382072,
,,,,,,,,,,,,1,0,1,0,57,0,57,0,,,,,,,57,,,0.2,1495.8828325416544,Y,None,nogo,l,0,0.3793367891339585,,,,,,,,,,,,,,,,,25,001,22,w,Bildungswissenschaften,2023-01-17_09h05.39.987,00_bat_bachelor,2022.2.4,59.95642441382072,
,,,,,,,,,,,,1,0,1,0,58,0,58,0,,,,,,,58,,,0.2,1496.5666891797446,X,l,go,l,1,0.3507045606384054,,,,,,,,,,,,,,,,,25,001,22,w,Bildungswissenschaften,2023-01-17_09h05.39.987,00_bat_bachelor,2022.2.4,59.95642441382072,
,,,,,,,,,,,,1,0,1,0,59,0,59,0,,,,,,,59,,,0.2,1497.217153349251,Y,d,go,d,1,0.6120285551296547,,,,,,,,,,,,,,,,,25,001,22,w,Bildungswissenschaften,2023-01-17_09h05.39.987,00_bat_bachelor,2022.2.4,59.95642441382072,
,,,,,,,,,,,,1,0,1,0,60,0,60,0,,,,,,,60,,,0.2,1498.1343679348356,X,l,go,l,1,0.511131149425637,,,,,,,,,,,,,,,,,25,001,22,w,Bildungswissenschaften,2023-01-17_09h05.39.987,00_bat_bachelor,2022.2.4,59.95642441382072,
,,,,,,,,,,,,1,0,1,0,61,0,61,0,,,,,,,61,,,0.2,1498.9516805082676,X,None,nogo,d,0,0.36521073535550386,,,,,,,,,,,,,,,,,25,001,22,w,Bildungswissenschaften,2023-01-17_09h05.39.987,00_bat_bachelor,2022.2.4,59.95642441382072,
,,,,,,,,,,,,1,0,1,0,62,0,62,0,,,,,,,62,,,0.2,1499.6188530332875,Y,d,go,d,1,0.6107102527166717,,,,,,,,,,,,,,,,,25,001,22,w,Bildungswissenschaften,2023-01-17_09h05.39.987,00_bat_bachelor,2022.2.4,59.95642441382072,
,,,,,,,,,,,,1,0,1,0,63,0,63,0,,,,,,,63,,,0.2,1500.5361704066745,X,l,go,None,0,,,,,,,,,,,,,,,,,,25,001,22,w,Bildungswissenschaften,2023-01-17_09h05.39.987,00_bat_bachelor,2022.2.4,59.95642441382072,
,,,,,,,,,,,,1,0,1,0,64,0,64,0,,,,,,,64,,,0.2,1501.5369524669368,Y,d,go,d,1,0.4844572230358608,,,,,,,,,,,,,,,,,25,001,22,w,Bildungswissenschaften,2023-01-17_09h05.39.987,00_bat_bachelor,2022.2.4,59.95642441382072,
,,,,,,,,,,,,1,0,1,0,65,0,65,0,,,,,,,65,,,0.2,1502.3377263816656,Y,None,nogo,d,0,0.5970719563192688,,,,,,,,,,,,,,,,,25,001,22,w,Bildungswissenschaften,2023-01-17_09h05.39.987,00_bat_bachelor,2022.2.4,59.95642441382072,
,,,,,,,,,,,,1,0,1,0,66,0,66,0,,,,,,,66,,,0.2,1503.2382190360222,X,l,go,None,0,,,,,,,,,,,,,,,,,,25,001,22,w,Bildungswissenschaften,2023-01-17_09h05.39.987,00_bat_bachelor,2022.2.4,59.95642441382072,
,,,,,,,,,,,,1,0,1,0,67,0,67,0,,,,,,,67,,,0.2,1504.2390360052814,Y,d,go,d,1,0.5663771833060309,,,,,,,,,,,,,,,,,25,001,22,w,Bildungswissenschaften,2023-01-17_09h05.39.987,00_bat_bachelor,2022.2.4,59.95642441382072,
,,,,,,,,,,,,1,0,1,0,68,0,68,0,,,,,,,68,,,0.2,1505.1067204331048,X,l,go,l,1,0.5320644726743922,,,,,,,,,,,,,,,,,25,001,22,w,Bildungswissenschaften,2023-01-17_09h05.39.987,00_bat_bachelor,2022.2.4,59.95642441382072,
,,,,,,,,,,,,1,0,1,0,69,0,69,0,,,,,,,69,,,0.2,1505.940510089451,X,None,nogo,None,1,,1506.7409053377341,,,,,,,,,,,,,,,,25,001,22,w,Bildungswissenschaften,2023-01-17_09h05.39.987,00_bat_bachelor,2022.2.4,59.95642441382072,
,,,,,,,,,,,,1,0,1,0,70,0,70,0,,,,,,,70,,,0.2,1506.9411675436422,Y,d,go,d,1,0.35989679861813784,,,,,,,,,,,,,,,,,25,001,22,w,Bildungswissenschaften,2023-01-17_09h05.39.987,00_bat_bachelor,2022.2.4,59.95642441382072,
,,,,,,,,,,,,1,0,1,0,71,0,71,0,,,,,,,71,,,0.2,1507.6084055231768,X,l,go,l,1,0.4932053399970755,,,,,,,,,,,,,,,,,25,001,22,w,Bildungswissenschaften,2023-01-17_09h05.39.987,00_bat_bachelor,2022.2.4,59.95642441382072,
,,,,,,,,,,,,1,0,1,0,72,0,72,0,,,,,,,72,,,0.2,1508.4090480440645,Y,d,go,d,1,0.6522248992114328,,,,,,,,,,,,,,,,,25,001,22,w,Bildungswissenschaften,2023-01-17_09h05.39.987,00_bat_bachelor,2022.2.4,59.95642441382072,
,,,,,,,,,,,,1,0,1,0,73,0,73,0,,,,,,,73,,,0.2,1509.3763052721042,X,l,go,l,1,0.43692754907533526,,,,,,,,,,,,,,,,,25,001,22,w,Bildungswissenschaften,2023-01-17_09h05.39.987,00_bat_bachelor,2022.2.4,59.95642441382072,
,,,,,,,,,,,,1,0,1,0,74,0,74,0,,,,,,,74,,,0.2,1510.1270244232728,X,None,nogo,d,0,0.45537747954949737,,,,,,,,,,,,,,,,,25,001,22,w,Bildungswissenschaften,2023-01-17_09h05.39.987,00_bat_bachelor,2022.2.4,59.95642441382072,
,,,,,,,,,,,,1,0,1,0,75,0,75,0,,,,,,,75,,,0.2,1510.8941018694895,Y,d,go,d,1,0.5348363501252607,,,,,,,,,,,,,,,,,25,001,22,w,Bildungswissenschaften,2023-01-17_09h05.39.987,00_bat_bachelor,2022.2.4,59.95642441382072,
,,,,,,,,,,,,1,0,1,0,76,0,76,0,,,,,,,76,,,0.2,1511.7447055783123,X,l,go,l,1,0.5971505016786978,,,,,,,,,,,,,,,,,25,001,22,w,Bildungswissenschaften,2023-01-17_09h05.39.987,00_bat_bachelor,2022.2.4,59.95642441382072,
,,,,,,,,,,,,1,0,1,0,77,0,77,0,,,,,,,77,,,0.2,1512.6453732628142,X,None,nogo,None,1,,1513.4461946927477,,,,,,,,,,,,,,,,25,001,22,w,Bildungswissenschaften,2023-01-17_09h05.39.987,00_bat_bachelor,2022.2.4,59.95642441382072,
,,,,,,,,,,,,1,0,1,0,78,0,78,0,,,,,,,78,,,0.2,1513.6461625957745,Y,d,go,d,1,0.37561897275736555,,,,,,,,,,,,,,,,,25,001,22,w,Bildungswissenschaften,2023-01-17_09h05.39.987,00_bat_bachelor,2022.2.4,59.95642441382072,
,,,,,,,,,,,,1,0,1,0,79,0,79,0,,,,,,,79,,,0.2,1514.3300420217565,X,l,go,l,1,0.4752388032502495,,,,,,,,,,,,,,,,,25,001,22,w,Bildungswissenschaften,2023-01-17_09h05.39.987,00_bat_bachelor,2022.2.4,59.95642441382072,
,,,,,,,,,,,,1,0,1,0,80,0,80,0,,,,,,,80,,,0.2,1515.114150247653,Y,d,go,d,1,0.6028198323328979,,,,,,,,,,,,,,,,,25,001,22,w,Bildungswissenschaften,2023-01-17_09h05.39.987,00_bat_bachelor,2022.2.4,59.95642441382072,
,,,,,,,,,,,,1,0,1,0,81,0,81,0,,,,,,,81,,,0.2,1516.0312794999918,X,l,go,None,0,,,,,,,,,,,,,,,,,,25,001,22,w,Bildungswissenschaften,2023-01-17_09h05.39.987,00_bat_bachelor,2022.2.4,59.95642441382072,
,,,,,,,,,,,,1,0,1,0,82,0,82,0,,,,,,,82,,,0.2,1517.0322807116318,Y,d,go,d,1,0.6533288987120613,,,,,,,,,,,,,,,,,25,001,22,w,Bildungswissenschaften,2023-01-17_09h05.39.987,00_bat_bachelor,2022.2.4,59.95642441382072,
,,,,,,,,,,,,1,0,1,0,83,0,83,0,,,,,,,83,,,0.2,1517.9997042425675,X,l,go,l,1,0.5987349858041853,,,,,,,,,,,,,,,,,25,001,22,w,Bildungswissenschaften,2023-01-17_09h05.39.987,00_bat_bachelor,2022.2.4,59.95642441382072,
,,,,,,,,,,,,1,0,1,0,84,0,84,0,,,,,,,84,,,0.2,1518.9001440483844,Y,d,go,d,1,0.5301391402608715,,,,,,,,,,,,,,,,,25,001,22,w,Bildungswissenschaften,2023-01-17_09h05.39.987,00_bat_bachelor,2022.2.4,59.95642441382072,
,,,,,,,,,,,,1,0,1,0,85,0,85,0,,,,,,,85,,,0.2,1519.734201825806,X,l,go,None,0,,1520.5349340436514,,,,,,,,,,,,,,,,25,001,22,w,Bildungswissenschaften,2023-01-17_09h05.39.987,00_bat_bachelor,2022.2.4,59.95642441382072,
,,,,,,,,,,,,1,0,1,0,86,0,86,0,,,,,,,86,,,0.2,1520.7351094617625,Y,d,go,None,0,,,,,,,,,,,,,,,,,,25,001,22,w,Bildungswissenschaften,2023-01-17_09h05.39.987,00_bat_bachelor,2022.2.4,59.95642441382072,
,,,,,,,,,,,,1,0,1,0,87,0,87,0,,,,,,,87,,,0.2,1521.7358163705212,Y,None,nogo,None,1,,,,,,,,,,,,,,,,,,25,001,22,w,Bildungswissenschaften,2023-01-17_09h05.39.987,00_bat_bachelor,2022.2.4,59.95642441382072,
,,,,,,,,,,,,1,0,1,0,88,0,88,0,,,,,,,88,,,0.2,1522.7366352792014,X,l,go,l,1,0.4048984737601131,,,,,,,,,,,,,,,,,25,001,22,w,Bildungswissenschaften,2023-01-17_09h05.39.987,00_bat_bachelor,2022.2.4,59.95642441382072,
,,,,,,,,,,,,1,0,1,0,89,0,89,0,,,,,,,89,,,0.2,1523.453617234598,Y,d,go,d,1,0.5031166079570539,,,,,,,,,,,,,,,,,25,001,22,w,Bildungswissenschaften,2023-01-17_09h05.39.987,00_bat_bachelor,2022.2.4,59.95642441382072,
,,,,,,,,,,,,1,0,1,0,90,0,90,0,,,,,,,90,,,0.2,1524.2711654442828,X,l,go,l,1,0.5826962057035416,,,,,,,,,,,,,,,,,25,001,22,w,Bildungswissenschaften,2023-01-17_09h05.39.987,00_bat_bachelor,2022.2.4,59.95642441382072,
,,,,,,,,,,,,1,0,1,0,91,0,91,0,,,,,,,91,,,0.2,1525.1549478036468,Y,d,go,d,1,0.4822754058986902,,,,,,,,,,,,,,,,,25,001,22,w,Bildungswissenschaften,2023-01-17_09h05.39.987,00_bat_bachelor,2022.2.4,59.95642441382072,
,,,,,,,,,,,,1,0,1,0,92,0,92,0,,,,,,,92,,,0.2,1525.939232514298,X,l,go,l,1,0.5787025106837973,,,,,,,,,,,,,,,,,25,001,22,w,Bildungswissenschaften,2023-01-17_09h05.39.987,00_bat_bachelor,2022.2.4,59.95642441382072,
,,,,,,,,,,,,1,0,1,0,93,0,93,0,,,,,,,93,,,0.2,1526.823163237248,Y,d,go,None,0,,,,,,,,,,,,,,,,,,25,001,22,w,Bildungswissenschaften,2023-01-17_09h05.39.987,00_bat_bachelor,2022.2.4,59.95642441382072,
,,,,,,,,,,,,1,0,1,0,94,0,94,0,,,,,,,94,,,0.2,1527.823834752082,Y,None,nogo,None,1,,1528.6244578790502,,,,,,,,,,,,,,,,25,001,22,w,Bildungswissenschaften,2023-01-17_09h05.39.987,00_bat_bachelor,2022.2.4,59.95642441382072,
,,,,,,,,,,,,1,0,1,0,95,0,95,0,,,,,,,95,,,0.2,1528.8245920850313,Y,None,nogo,d,0,0.36485243251081556,,,,,,,,,,,,,,,,,25,001,22,w,Bildungswissenschaften,2023-01-17_09h05.39.987,00_bat_bachelor,2022.2.4,59.95642441382072,
,,,,,,,,,,,,1,0,1,0,96,0,96,0,,,,,,,96,,,0.2,1529.491738913057,X,l,go,None,0,,,,,,,,,,,,,,,,,,25,001,22,w,Bildungswissenschaften,2023-01-17_09h05.39.987,00_bat_bachelor,2022.2.4,59.95642441382072,
,,,,,,,,,,,,1,0,1,0,97,0,97,0,,,,,,,97,,,0.2,1530.492335761257,Y,d,go,None,0,,,,,,,,,,,,,,,,,,25,001,22,w,Bildungswissenschaften,2023-01-17_09h05.39.987,00_bat_bachelor,2022.2.4,59.95642441382072,
,,,,,,,,,,,,1,0,1,0,98,0,98,0,,,,,,,98,,,0.2,1531.4931250942172,X,l,go,None,0,,,,,,,,,,,,,,,,,,25,001,22,w,Bildungswissenschaften,2023-01-17_09h05.39.987,00_bat_bachelor,2022.2.4,59.95642441382072,
,,,,,,,,,,,,1,0,1,0,99,0,99,0,,,,,,,99,,,0.2,1532.4939953968278,X,None,nogo,None,1,,,,,,,,,,,,,,,,,,25,001,22,w,Bildungswissenschaften,2023-01-17_09h05.39.987,00_bat_bachelor,2022.2.4,59.95642441382072,
,,,,,,,,,,,,1,0,1,0,100,0,100,0,,,,,,,100,,,0.2,1533.4946174571523,Y,d,go,d,1,0.575828330242075,,,,,,,,,,,,,,,,,25,001,22,w,Bildungswissenschaften,2023-01-17_09h05.39.987,00_bat_bachelor,2022.2.4,59.95642441382072,
,,,,,,,,,,,,1,0,1,0,101,0,101,0,,,,,,,101,,,0.2,1534.3786592103424,X,l,go,l,1,0.3154420322389342,,,,,,,,,,,,,,,,,25,001,22,w,Bildungswissenschaften,2023-01-17_09h05.39.987,00_bat_bachelor,2022.2.4,59.95642441382072,
,,,,,,,,,,,,1,0,1,0,102,0,102,0,,,,,,,102,,,0.2,1534.9957343050628,Y,d,go,d,1,0.5628276093048044,,,,,,,,,,,,,,,,,25,001,22,w,Bildungswissenschaften,2023-01-17_09h05.39.987,00_bat_bachelor,2022.2.4,59.95642441382072,
,,,,,,,,,,,,1,0,1,0,103,0,103,0,,,,,,,103,,,0.2,1535.8630788542214,X,l,go,l,1,0.3343540230416693,,,,,,,,,,,,,,,,,25,001,22,w,Bildungswissenschaften,2023-01-17_09h05.39.987,00_bat_bachelor,2022.2.4,59.95642441382072,
,,,,,,,,,,,,1,0,1,0,104,0,104,0,,,,,,,104,,,0.2,1536.513742781186,Y,d,go,d,1,0.4841663141269237,,,,,,,,,,,,,,,,,25,001,22,w,Bildungswissenschaften,2023-01-17_09h05.39.987,00_bat_bachelor,2022.2.4,59.95642441382072,
,,,,,,,,,,,,1,0,1,0,105,0,105,0,,,,,,,105,,,0.2,1537.3140090598608,Y,None,nogo,None,1,,1538.1147931564483,,,,,,,,,,,,,,,,25,001,22,w,Bildungswissenschaften,2023-01-17_09h05.39.987,00_bat_bachelor,2022.2.4,59.95642441382072,
,,,,,,,,,,,,1,0,1,0,106,0,106,0,,,,,,,106,,,0.2,1538.3150805744808,X,l,go,l,1,0.45839517505373806,,,,,,,,,,,,,,,,,25,001,22,w,Bildungswissenschaften,2023-01-17_09h05.39.987,00_bat_bachelor,2022.2.4,59.95642441382072,
,,,,,,,,,,,,1,0,1,0,107,0,107,0,,,,,,,107,,,0.2,1539.082491111476,Y,d,go,d,1,0.5873677185736597,,,,,,,,,,,,,,,,,25,001,22,w,Bildungswissenschaften,2023-01-17_09h05.39.987,00_bat_bachelor,2022.2.4,59.95642441382072,
,,,,,,,,,,,,1,0,1,0,108,0,108,0,,,,,,,108,,,0.2,1539.9830734627321,X,l,go,l,1,0.5337881082086824,,,,,,,,,,,,,,,,,25,001,22,w,Bildungswissenschaften,2023-01-17_09h05.39.987,00_bat_bachelor,2022.2.4,59.95642441382072,
,,,,,,,,,,,,1,0,1,0,109,0,109,0,,,,,,,109,,,0.2,1540.8173174218973,X,None,nogo,d,0,0.29249464941676706,,,,,,,,,,,,,,,,,25,001,22,w,Bildungswissenschaften,2023-01-17_09h05.39.987,00_bat_bachelor,2022.2.4,59.95642441382072,
,,,,,,,,,,,,1,0,1,0,110,0,110,0,,,,,,,110,,,0.2,1541.4177156762453,Y,d,go,None,0,,1542.2181632881402,,,,,,,,,,,,,,,,25,001,22,w,Bildungswissenschaften,2023-01-17_09h05.39.987,00_bat_bachelor,2022.2.4,59.95642441382072,
,,,,,,,,,,,,1,0,1,0,111,0,111,0,,,,,,,111,,,0.2,1542.4185656151967,X,l,go,None,0,,1543.2191135907196,,,,,,,,,,,,,,,,25,001,22,w,Bildungswissenschaften,2023-01-17_09h05.39.987,00_bat_bachelor,2022.2.4,59.95642441382072,
,,,,,,,,,,,,1,0,1,0,112,0,112,0,,,,,,,112,,,0.2,1543.419217736111,Y,d,go,None,0,,1544.2198704388575,,,,,,,,,,,,,,,,25,001,22,w,Bildungswissenschaften,2023-01-17_09h05.39.987,00_bat_bachelor,2022.2.4,59.95642441382072,
,,,,,,,,,,,,1,0,1,0,113,0,113,0,,,,,,,113,,,0.2,1544.4199765236117,Y,None,nogo,l,0,0.0010659422841854393,,,,,,,,,,,,,,,,,25,001,22,w,Bildungswissenschaften,2023-01-17_09h05.39.987,00_bat_bachelor,2022.2.4,59.95642441382072,
,,,,,,,,,,,,1,0,1,0,114,0,114,0,,,,,,,114,,,0.2,1544.73706776381,X,l,go,None,0,,1545.5373156182468,,,,,,,,,,,,,,,,25,001,22,w,Bildungswissenschaften,2023-01-17_09h05.39.987,00_bat_bachelor,2022.2.4,59.95642441382072,
,,,,,,,,,,,,1,0,1,0,115,0,115,0,,,,,,,115,,,0.2,1545.7370469153393,Y,d,go,d,1,0.2519147903076373,,,,,,,,,,,,,,,,,25,001,22,w,Bildungswissenschaften,2023-01-17_09h05.39.987,00_bat_bachelor,2022.2.4,59.95642441382072,
,,,,,,,,,,,,1,0,1,0,116,0,116,0,,,,,,,116,,,0.2,1546.3044085796573,X,l,go,l,1,0.38961460237624124,,,,,,,,,,,,,,,,,25,001,22,w,Bildungswissenschaften,2023-01-17_09h05.39.987,00_bat_bachelor,2022.2.4,59.95642441382072,
,,,,,,,,,,,,1,0,1,0,117,0,117,0,,,,,,,117,,,0.2,1547.0048581794254,Y,d,go,d,1,0.4729556528618559,,,,,,,,,,,,,,,,,25,001,22,w,Bildungswissenschaften,2023-01-17_09h05.39.987,00_bat_bachelor,2022.2.4,59.95642441382072,
,,,,,,,,,,,,1,0,1,0,118,0,118,0,,,,,,,118,,,0.2,1547.7886536782025,X,l,go,l,1,0.37785800197161734,,,,,,,,,,,,,,,,,25,001,22,w,Bildungswissenschaften,2023-01-17_09h05.39.987,00_bat_bachelor,2022.2.4,59.95642441382072,
,,,,,,,,,,,,1,0,1,0,119,0,119,0,,,,,,,119,,,0.2,1548.4727284980472,Y,d,go,d,1,0.4616514158551581,,,,,,,,,,,,,,,,,25,001,22,w,Bildungswissenschaften,2023-01-17_09h05.39.987,00_bat_bachelor,2022.2.4,59.95642441382072,
,,,,,,,,,,,,1,0,1,0,120,0,120,0,,,,,,,120,,,0.2,1549.240182671405,X,l,go,l,1,0.5739825129276142,,,,,,,,,,,,,,,,,25,001,22,w,Bildungswissenschaften,2023-01-17_09h05.39.987,00_bat_bachelor,2022.2.4,59.95642441382072,
,,,,,,,,,,,,1,0,1,0,121,0,121,0,,,,,,,121,,,0.2,1550.1240998185822,X,None,nogo,d,0,0.3629644334432669,,,,,,,,,,,,,,,,,25,001,22,w,Bildungswissenschaften,2023-01-17_09h05.39.987,00_bat_bachelor,2022.2.4,59.95642441382072,
,,,,,,,,,,,,1,0,1,0,122,0,122,0,,,,,,,122,,,0.2,1550.7910803437117,Y,d,go,d,1,0.5429401037399657,,,,,,,,,,,,,,,,,25,001,22,w,Bildungswissenschaften,2023-01-17_09h05.39.987,00_bat_bachelor,2022.2.4,59.95642441382072,
,,,,,,,,,,,,1,0,1,0,123,0,123,0,,,,,,,123,,,0.2,1551.641812537273,X,l,go,l,1,0.41325143934227526,,,,,,,,,,,,,,,,,25,001,22,w,Bildungswissenschaften,2023-01-17_09h05.39.987,00_bat_bachelor,2022.2.4,59.95642441382072,
,,,,,,,,,,,,1,0,1,0,124,0,124,0,,,,,,,124,,,0.2,1552.358901159314,Y,d,go,d,1,0.27115405368385836,,,,,,,,,,,,,,,,,25,001,22,w,Bildungswissenschaften,2023-01-17_09h05.39.987,00_bat_bachelor,2022.2.4,59.95642441382072,
,,,,,,,,,,,,1,0,1,0,125,0,125,0,,,,,,,125,,,0.2,1552.9425503308885,Y,None,nogo,None,1,,1553.7433688516612,,,,,,,,,,,,,,,,25,001,22,w,Bildungswissenschaften,2023-01-17_09h05.39.987,00_bat_bachelor,2022.2.4,59.95642441382072,
,,,,,,,,,,,,1,0,1,0,126,0,126,0,,,,,,,126,,,0.2,1553.9435408758582,X,l,go,l,1,0.23826679692137986,,,,,,,,,,,,,,,,,25,001,22,w,Bildungswissenschaften,2023-01-17_09h05.39.987,00_bat_bachelor,2022.2.4,59.95642441382072,
,,,,,,,,,,,,1,0,1,0,127,0,127,0,,,,,,,127,,,0.2,1554.4937229120987,Y,d,go,d,1,0.4871617066091858,,,,,,,,,,,,,,,,,25,001,22,w,Bildungswissenschaften,2023-01-17_09h05.39.987,00_bat_bachelor,2022.2.4,59.95642441382072,
,,,,,,,,,,,,1,0,1,0,128,0,128,0,,,,,,,128,,,0.2,1555.294618523796,X,l,go,l,1,0.4710409870604053,,,,,,,,,,,,,,,,,25,001,22,w,Bildungswissenschaften,2023-01-17_09h05.39.987,00_bat_bachelor,2022.2.4,59.95642441382072,
,,,,,,,,,,,,1,0,1,0,129,0,129,0,,,,,,,129,,,0.2,1556.078336446837,Y,d,go,d,1,0.26365539070684463,,,,,,,,,,,,,,,,,25,001,22,w,Bildungswissenschaften,2023-01-17_09h05.39.987,00_bat_bachelor,2022.2.4,59.95642441382072,
,,,,,,,,,,,,1,0,1,0,130,0,130,0,,,,,,,130,,,0.2,1556.645640899078,Y,None,nogo,None,1,,,,,,,,,,,,,,,,,,25,001,22,w,Bildungswissenschaften,2023-01-17_09h05.39.987,00_bat_bachelor,2022.2.4,59.95642441382072,
,,,,,,,,,,,,1,0,1,0,131,0,131,0,,,,,,,131,,,0.2,1557.6463909593294,X,l,go,l,1,0.44009457784704864,,,,,,,,,,,,,,,,,25,001,22,w,Bildungswissenschaften,2023-01-17_09h05.39.987,00_bat_bachelor,2022.2.4,59.95642441382072,
,,,,,,,,,,,,1,0,1,0,132,0,132,0,,,,,,,132,,,0.2,1558.3969476863276,Y,d,go,d,1,0.40910550201078877,,,,,,,,,,,,,,,,,25,001,22,w,Bildungswissenschaften,2023-01-17_09h05.39.987,00_bat_bachelor,2022.2.4,59.95642441382072,
,,,,,,,,,,,,1,0,1,0,133,0,133,0,,,,,,,133,,,0.2,1559.114061520435,Y,None,nogo,None,1,,,,,,,,,,,,,,,,,,25,001,22,w,Bildungswissenschaften,2023-01-17_09h05.39.987,00_bat_bachelor,2022.2.4,59.95642441382072,
,,,,,,,,,,,,1,0,1,0,134,0,134,0,,,,,,,134,,,0.2,1560.114639459527,X,l,go,l,1,0.37033315713051707,,,,,,,,,,,,,,,,,25,001,22,w,Bildungswissenschaften,2023-01-17_09h05.39.987,00_bat_bachelor,2022.2.4,59.95642441382072,
,,,,,,,,,,,,1,0,1,0,135,0,135,0,,,,,,,135,,,0.2,1560.7986774309538,Y,d,go,d,1,0.48653237358666956,,,,,,,,,,,,,,,,,25,001,22,w,Bildungswissenschaften,2023-01-17_09h05.39.987,00_bat_bachelor,2022.2.4,59.95642441382072,
,,,,,,,,,,,,1,0,1,0,136,0,136,0,,,,,,,136,,,0.2,1561.599213285197,Y,None,nogo,None,1,,,,,,,,,,,,,,,,,,25,001,22,w,Bildungswissenschaften,2023-01-17_09h05.39.987,00_bat_bachelor,2022.2.4,59.95642441382072,
,,,,,,,,,,,,1,0,1,0,137,0,137,0,,,,,,,137,,,0.2,1562.6001151029486,X,l,go,None,0,,1563.4004575028084,,,,,,,,,,,,,,,,25,001,22,w,Bildungswissenschaften,2023-01-17_09h05.39.987,00_bat_bachelor,2022.2.4,59.95642441382072,
,,,,,,,,,,,,1,0,1,0,138,0,138,0,,,,,,,138,,,0.2,1563.6009102541138,Y,d,go,d,1,0.06835075811250135,,,,,,,,,,,,,,,,,25,001,22,w,Bildungswissenschaften,2023-01-17_09h05.39.987,00_bat_bachelor,2022.2.4,59.95642441382072,
,,,,,,,,,,,,1,0,1,0,139,0,139,0,,,,,,,139,,,0.2,1563.9845474014292,X,l,go,l,1,0.6606612587929703,,,,,,,,,,,,,,,,,25,001,22,w,Bildungswissenschaften,2023-01-17_09h05.39.987,00_bat_bachelor,2022.2.4,59.95642441382072,
,,,,,,,,,,,,1,0,1,0,140,0,140,0,,,,,,,140,,,0.2,1564.9516645082622,X,None,nogo,None,1,,,,,,,,,,,,,,,,,,25,001,22,w,Bildungswissenschaften,2023-01-17_09h05.39.987,00_bat_bachelor,2022.2.4,59.95642441382072,
,,,,,,,,,,,,1,0,1,0,141,0,141,0,,,,,,,141,,,0.2,1565.9526540835504,Y,d,go,d,1,0.6618864703341387,,,,,,,,,,,,,,,,,25,001,22,w,Bildungswissenschaften,2023-01-17_09h05.39.987,00_bat_bachelor,2022.2.4,59.95642441382072,
,,,,,,,,,,,,1,0,1,0,142,0,142,0,,,,,,,142,,,0.2,1566.9199098569807,X,l,go,l,1,0.38210284837987274,,,,,,,,,,,,,,,,,25,001,22,w,Bildungswissenschaften,2023-01-17_09h05.39.987,00_bat_bachelor,2022.2.4,59.95642441382072,
,,,,,,,,,,,,1,0,1,0,143,0,143,0,,,,,,,143,,,0.2,1567.6037058890797,Y,d,go,d,1,0.29038265044800937,,,,,,,,,,,,,,,,,25,001,22,w,Bildungswissenschaften,2023-01-17_09h05.39.987,00_bat_bachelor,2022.2.4,59.95642441382072,
,,,,,,,,,,,,1,0,1,0,144,0,144,0,,,,,,,144,,,0.2,1568.2043460826972,Y,None,nogo,l,0,0.3618041915469803,,,,,,,,,,,,,,,,,25,001,22,w,Bildungswissenschaften,2023-01-17_09h05.39.987,00_bat_bachelor,2022.2.4,59.95642441382072,
,,,,,,,,,,,,1,0,1,0,145,0,145,0,,,,,,,145,,,0.2,1568.8715772743453,X,l,go,None,0,,,,,,,,,,,,,,,,,,25,001,22,w,Bildungswissenschaften,2023-01-17_09h05.39.987,00_bat_bachelor,2022.2.4,59.95642441382072,
,,,,,,,,,,,,1,0,1,0,146,0,146,0,,,,,,,146,,,0.2,1569.8722730316222,Y,d,go,None,0,,,,,,,,,,,,,,,,,,25,001,22,w,Bildungswissenschaften,2023-01-17_09h05.39.987,00_bat_bachelor,2022.2.4,59.95642441382072,
,,,,,,,,,,,,1,0,1,0,147,0,147,0,,,,,,,147,,,0.2,1570.8731341221137,Y,None,nogo,d,0,0.5411650742753409,,,,,,,,,,,,,,,,,25,001,22,w,Bildungswissenschaften,2023-01-17_09h05.39.987,00_bat_bachelor,2022.2.4,59.95642441382072,
,,,,,,,,,,,,1,0,1,0,148,0,148,0,,,,,,,148,,,0.2,1571.723516255268,X,l,go,l,1,0.6012372876284644,,,,,,,,,,,,,,,,,25,001,22,w,Bildungswissenschaften,2023-01-17_09h05.39.987,00_bat_bachelor,2022.2.4,59.95642441382072,
,,,,,,,,,,,,1,0,1,0,149,0,149,0,,,,,,,149,,,0.2,1572.6411405376275,Y,d,go,d,1,0.37170188379241154,,,,,,,,,,,,,,,,,25,001,22,w,Bildungswissenschaften,2023-01-17_09h05.39.987,00_bat_bachelor,2022.2.4,59.95642441382072,
,,,,,,,,,,,,1,0,1,0,150,0,150,0,,,,,,,150,,,0.2,1573.3247256607283,X,l,go,l,1,0.3134100332390517,,,,,,,,,,,,,,,,,25,001,22,w,Bildungswissenschaften,2023-01-17_09h05.39.987,00_bat_bachelor,2022.2.4,59.95642441382072,
,,,,,,,,,,,,1,0,1,0,151,0,151,0,,,,,,,151,,,0.2,1573.942089725053,X,None,nogo,d,0,0.3191913637565449,,,,,,,,,,,,,,,,,25,001,22,w,Bildungswissenschaften,2023-01-17_09h05.39.987,00_bat_bachelor,2022.2.4,59.95642441382072,
,,,,,,,,,,,,1,0,1,0,152,0,152,0,,,,,,,152,,,0.2,1574.5758678420098,Y,d,go,None,0,,1575.3764788477565,,,,,,,,,,,,,,,,25,001,22,w,Bildungswissenschaften,2023-01-17_09h05.39.987,00_bat_bachelor,2022.2.4,59.95642441382072,
,,,,,,,,,,,,1,0,1,0,153,0,153,0,,,,,,,153,,,0.2,1575.5767657809192,X,l,go,l,1,0.33372323552612215,,,,,,,,,,,,,,,,,25,001,22,w,Bildungswissenschaften,2023-01-17_09h05.39.987,00_bat_bachelor,2022.2.4,59.95642441382072,
,,,,,,,,,,,,1,0,1,0,154,0,154,0,,,,,,,154,,,0.2,1576.2103523828555,X,None,nogo,d,0,0.32367378583876416,,,,,,,,,,,,,,,,,25,001,22,w,Bildungswissenschaften,2023-01-17_09h05.39.987,00_bat_bachelor,2022.2.4,59.95642441382072,
,,,,,,,,,,,,1,0,1,0,155,0,155,0,,,,,,,155,,,0.2,1576.8440951058874,Y,d,go,None,0,,,,,,,,,,,,,,,,,,25,001,22,w,Bildungswissenschaften,2023-01-17_09h05.39.987,00_bat_bachelor,2022.2.4,59.95642441382072,
,,,,,,,,,,,,1,0,1,0,156,0,156,0,,,,,,,156,,,0.2,1577.845063347835,X,l,go,None,0,,,,,,,,,,,,,,,,,,25,001,22,w,Bildungswissenschaften,2023-01-17_09h05.39.987,00_bat_bachelor,2022.2.4,59.95642441382072,
,,,,,,,,,,,,1,0,1,0,157,0,157,0,,,,,,,157,,,0.2,1578.8459801958525,Y,d,go,l,0,0.34501583606470376,,,,,,,,,,,,,,,,,25,001,22,w,Bildungswissenschaften,2023-01-17_09h05.39.987,00_bat_bachelor,2022.2.4,59.95642441382072,
,,,,,,,,,,,,1,0,1,0,158,0,158,0,,,,,,,158,,,0.2,1579.4964492138242,Y,None,nogo,None,1,,,,,,,,,,,,,,,,,,25,001,22,w,Bildungswissenschaften,2023-01-17_09h05.39.987,00_bat_bachelor,2022.2.4,59.95642441382072,
,,,,,,,,,,,,1,0,1,0,159,0,159,0,,,,,,,159,,,0.2,1580.4970863044146,Y,None,nogo,None,1,,,,,,,,,,,,,,,,,,25,001,22,w,Bildungswissenschaften,2023-01-17_09h05.39.987,00_bat_bachelor,2022.2.4,59.95642441382072,
,,,,,,,,,,,,1,0,1,0,160,0,160,0,,,,,,,160,,,0.2,1581.4976967283874,X,l,go,l,1,0.475306197127793,,,,,,,,,,,,,,,,,25,001,22,w,Bildungswissenschaften,2023-01-17_09h05.39.987,00_bat_bachelor,2022.2.4,59.95642441382072,
,,,,,,,,,,,,1,0,1,0,161,0,161,0,,,,,,,161,,,0.2,1582.2815441059065,Y,d,go,d,1,0.29932325216941535,,,,,,,,,,,,,,,,,25,001,22,w,Bildungswissenschaften,2023-01-17_09h05.39.987,00_bat_bachelor,2022.2.4,59.95642441382072,
,,,,,,,,,,,,1,0,1,0,162,0,162,0,,,,,,,162,,,0.2,1582.8819680571905,X,l,go,l,1,0.500132851768285,,,,,,,,,,,,,,,,,25,001,22,w,Bildungswissenschaften,2023-01-17_09h05.39.987,00_bat_bachelor,2022.2.4,59.95642441382072,
,,,,,,,,,,,,1,0,1,0,163,0,163,0,,,,,,,163,,,0.2,1583.6826546993107,Y,d,go,d,1,0.3218706351472065,,,,,,,,,,,,,,,,,25,001,22,w,Bildungswissenschaften,2023-01-17_09h05.39.987,00_bat_bachelor,2022.2.4,59.95642441382072,
,,,,,,,,,,,,1,0,1,0,164,0,164,0,,,,,,,164,,,0.2,1584.3166951191379,X,l,go,l,1,0.297770768054761,,,,,,,,,,,,,,,,,25,001,22,w,Bildungswissenschaften,2023-01-17_09h05.39.987,00_bat_bachelor,2022.2.4,59.95642441382072,
,,,,,,,,,,,,1,0,1,0,165,0,165,0,,,,,,,165,,,0.2,1584.9170807674527,X,None,nogo,None,1,,1585.7176820762688,,,,,,,,,,,,,,,,25,001,22,w,Bildungswissenschaften,2023-01-17_09h05.39.987,00_bat_bachelor,2022.2.4,59.95642441382072,
,,,,,,,,,,,,1,0,1,0,166,0,166,0,,,,,,,166,,,0.2,1585.9179476761492,Y,d,go,d,1,0.39128199545666575,,,,,,,,,,,,,,,,,25,001,22,w,Bildungswissenschaften,2023-01-17_09h05.39.987,00_bat_bachelor,2022.2.4,59.95642441382072,
,,,,,,,,,,,,1,0,1,0,167,0,167,0,,,,,,,167,,,0.2,1586.618215942639,X,l,go,l,1,0.31514239602256566,,,,,,,,,,,,,,,,,25,001,22,w,Bildungswissenschaften,2023-01-17_09h05.39.987,00_bat_bachelor,2022.2.4,59.95642441382072,
,,,,,,,,,,,,1,0,1,0,168,0,168,0,,,,,,,168,,,0.2,1587.2353681282839,Y,d,go,d,1,0.35405971051659435,,,,,,,,,,,,,,,,,25,001,22,w,Bildungswissenschaften,2023-01-17_09h05.39.987,00_bat_bachelor,2022.2.4,59.95642441382072,
,,,,,,,,,,,,1,0,1,0,169,0,169,0,,,,,,,169,,,0.2,1587.9027530168532,X,l,go,l,1,0.2796088375034742,,,,,,,,,,,,,,,,,25,001,22,w,Bildungswissenschaften,2023-01-17_09h05.39.987,00_bat_bachelor,2022.2.4,59.95642441382072,
,,,,,,,,,,,,1,0,1,0,170,0,170,0,,,,,,,170,,,0.2,1588.4863280066056,X,None,nogo,None,1,,,,,,,,,,,,,,,,,,25,001,22,w,Bildungswissenschaften,2023-01-17_09h05.39.987,00_bat_bachelor,2022.2.4,59.95642441382072,
,,,,,,,,,,,,1,0,1,0,171,0,171,0,,,,,,,171,,,0.2,1589.4874237636686,Y,d,go,l,0,0.278963019605726,,,,,,,,,,,,,,,,,25,001,22,w,Bildungswissenschaften,2023-01-17_09h05.39.987,00_bat_bachelor,2022.2.4,59.95642441382072,
,,,,,,,,,,,,1,0,1,0,172,0,172,0,,,,,,,172,,,0.2,1590.0709769352688,X,l,go,None,0,,,,,,,,,,,,,,,,,,25,001,22,w,Bildungswissenschaften,2023-01-17_09h05.39.987,00_bat_bachelor,2022.2.4,59.95642441382072,
,,,,,,,,,,,,1,0,1,0,173,0,173,0,,,,,,,173,,,0.2,1591.0718695409014,Y,d,go,None,0,,,,,,,,,,,,,,,,,,25,001,22,w,Bildungswissenschaften,2023-01-17_09h05.39.987,00_bat_bachelor,2022.2.4,59.95642441382072,
,,,,,,,,,,,,1,0,1,0,174,0,174,0,,,,,,,174,,,0.2,1592.0723369346233,X,l,go,l,1,0.33334408421069384,,,,,,,,,,,,,,,,,25,001,22,w,Bildungswissenschaften,2023-01-17_09h05.39.987,00_bat_bachelor,2022.2.4,59.95642441382072,
,,,,,,,,,,,,1,0,1,0,175,0,175,0,,,,,,,175,,,0.2,1592.7061538394191,Y,d,go,d,1,0.3398594749160111,,,,,,,,,,,,,,,,,25,001,22,w,Bildungswissenschaften,2023-01-17_09h05.39.987,00_bat_bachelor,2022.2.4,59.95642441382072,
,,,,,,,,,,,,1,0,1,0,176,0,176,0,,,,,,,176,,,0.2,1593.3568696451257,Y,None,nogo,l,0,0.409334835188929,,,,,,,,,,,,,,,,,25,001,22,w,Bildungswissenschaften,2023-01-17_09h05.39.987,00_bat_bachelor,2022.2.4,59.95642441382072,
,,,,,,,,,,,,1,0,1,0,177,0,177,0,,,,,,,177,,,0.2,1594.0741085701156,Y,None,nogo,None,1,,1594.8747457576683,,,,,,,,,,,,,,,,25,001,22,w,Bildungswissenschaften,2023-01-17_09h05.39.987,00_bat_bachelor,2022.2.4,59.95642441382072,
