loop_instruction.thisRepN,loop_instruction.thisTrialN,loop_instruction.thisN,loop_instruction.thisIndex,loop_rsi_practice.thisRepN,loop_rsi_practice.thisTrialN,loop_rsi_practice.thisN,loop_rsi_practice.thisIndex,loop_practice.thisRepN,loop_practice.thisTrialN,loop_practice.thisN,loop_practice.thisIndex,loop_exp.thisRepN,loop_exp.thisTrialN,loop_exp.thisN,loop_exp.thisIndex,loop_trials.thisRepN,loop_trials.thisTrialN,loop_trials.thisN,loop_trials.thisIndex,map_condition,map_x_key,map_y_key,key_resp_welcome.started,key_resp_welcome.keys,key_resp_welcome.rt,index,text_empty_rsi_practice.started,text_empty_rsi_practice.stopped,rsi,stimulus.started,stimulus,correct,trial_type,key_resp_trial.keys,key_resp_trial.corr,key_resp_trial.rt,key_resp_instruction_rsi.started,key_resp_instruction_rsi.keys,key_resp_instruction_rsi.rt,stimulus.stopped,key_resp_instruction_rsi.stopped,key_resp_instruction_final.started,key_resp_instruction_final.keys,key_resp_instruction_final.rt,key_resp_break.started,key_resp_break.keys,key_resp_break.rt,key_resp_break.stopped,key_resp_end_screen.started,image_end_screen.started,key_resp_end_screen.stopped,image_end_screen.stopped,key_resp_end_screen.keys,participant,session,Alter,Geschlecht (w/m/d/andere),Studiengang,date,expName,psychopyVersion,frameRate,
,,,,0,0,0,0,0,0,0,0,,,,,,,,,0,d,l,1944.4107236796553,j,20.690680963918567,0,1965.1240673337888,1966.1419233251218,1,1966.1419233251218,X,d,go,d,1,0.41526291563059203,,,,,,,,,,,,,,,,,,26,001,27,m,"75% Bildungswissenschaft, 25% Psychologie",2023-01-17_10h36.36.570,00_bat_bachelor,2022.2.4,59.93011788067668,
,,,,0,0,0,0,1,0,1,0,,,,,,,,,,,,,,,1,1967.2565719968115,1968.257235754063,1,1968.257235754063,Y,l,go,l,1,0.31112090552051086,,,,,,,,,,,,,,,,,,26,001,27,m,"75% Bildungswissenschaft, 25% Psychologie",2023-01-17_10h36.36.570,00_bat_bachelor,2022.2.4,59.93011788067668,
,,,,0,0,0,0,2,0,2,0,,,,,,,,,,,,,,,2,1969.2745351396152,1970.2754796240042,1,1970.2754796240042,X,d,go,d,1,0.4540464119781973,,,,,,,,,,,,,,,,,,26,001,27,m,"75% Bildungswissenschaft, 25% Psychologie",2023-01-17_10h36.36.570,00_bat_bachelor,2022.2.4,59.93011788067668,
,,,,0,0,0,0,3,0,3,0,,,,,,,,,,,,,,,3,1971.44291566404,1972.443666209132,1,1972.443666209132,Y,l,go,l,1,0.36510924297908787,,,,,,,,,,,,,,,,,,26,001,27,m,"75% Bildungswissenschaft, 25% Psychologie",2023-01-17_10h36.36.570,00_bat_bachelor,2022.2.4,59.93011788067668,
,,,,0,0,0,0,4,0,4,0,,,,,,,,,,,,,,,4,1973.5111522370134,1974.5118431457668,1,1974.5118431457668,X,d,go,d,1,0.37745929759694263,,,,,,,,,,,,,,,,,,26,001,27,m,"75% Bildungswissenschaft, 25% Psychologie",2023-01-17_10h36.36.570,00_bat_bachelor,2022.2.4,59.93011788067668,
,,,,0,0,0,0,5,0,5,0,,,,,,,,,,,,,,,5,1975.5960758322035,1976.5966348622314,1,1976.5966348622314,Y,l,go,l,1,0.32429956579289865,,,,,,,,,,,,,,,,,,26,001,27,m,"75% Bildungswissenschaft, 25% Psychologie",2023-01-17_10h36.36.570,00_bat_bachelor,2022.2.4,59.93011788067668,
,,,,0,0,0,0,6,0,6,0,,,,,,,,,,,,,,,6,1977.6309354516707,1978.6316971482738,1,1978.6316971482738,X,d,go,d,1,0.40023989262408577,,,,,,,,,,,,,,,,,,26,001,27,m,"75% Bildungswissenschaft, 25% Psychologie",2023-01-17_10h36.36.570,00_bat_bachelor,2022.2.4,59.93011788067668,
,,,,0,0,0,0,7,0,7,0,,,,,,,,,,,,,,,7,1979.7325615842128,1980.7333097050578,1,1980.7333097050578,Y,l,go,l,1,0.23534009378636256,,,,,,,,,,,,,,,,,,26,001,27,m,"75% Bildungswissenschaft, 25% Psychologie",2023-01-17_10h36.36.570,00_bat_bachelor,2022.2.4,59.93011788067668,
,,,,0,0,0,0,8,0,8,0,,,,,,,,,,,,,,,8,1981.6837359109195,1982.6848694861255,1,1982.6848694861255,Y,None,nogo,d,0,0.3324367739696754,,,,,,,,,,,,,,,,,,26,001,27,m,"75% Bildungswissenschaft, 25% Psychologie",2023-01-17_10h36.36.570,00_bat_bachelor,2022.2.4,59.93011788067668,
,,,,0,0,0,0,9,0,9,0,,,,,,,,,,,,,,,9,1984.118833396933,1985.1198855176335,1,1985.1198855176335,X,d,go,d,1,0.48842409228382166,,,,,,,,,,,,,,,,,,26,001,27,m,"75% Bildungswissenschaft, 25% Psychologie",2023-01-17_10h36.36.570,00_bat_bachelor,2022.2.4,59.93011788067668,
,,,,0,0,0,0,10,0,10,0,,,,,,,,,,,,,,,10,1986.3207620262983,1987.321616328918,1,1987.321616328918,Y,l,go,l,1,0.3345463487057714,,,,,,,,,,,,,,,,,,26,001,27,m,"75% Bildungswissenschaft, 25% Psychologie",2023-01-17_10h36.36.570,00_bat_bachelor,2022.2.4,59.93011788067668,
,,,,0,0,0,0,11,0,11,0,,,,,,,,,,,,,,,11,1988.3720478196192,1989.3731086675834,1,1989.3731086675834,X,d,go,d,1,0.2999878200062085,,,,,,,,,,,,,,,,,,26,001,27,m,"75% Bildungswissenschaft, 25% Psychologie",2023-01-17_10h36.36.570,00_bat_bachelor,2022.2.4,59.93011788067668,
,,,,0,0,0,0,12,0,12,0,,,,,,,,,,,,,,,12,1990.3737001824484,1991.3745244244783,1,1991.3745244244783,Y,l,go,l,1,0.45764495569164865,,,,,,,,,,,,,,,,,,26,001,27,m,"75% Bildungswissenschaft, 25% Psychologie",2023-01-17_10h36.36.570,00_bat_bachelor,2022.2.4,59.93011788067668,
,,,,0,0,0,0,13,0,13,0,,,,,,,,,,,,,,,13,1992.5422213128622,1993.5428588883078,1,1993.5428588883078,X,d,go,d,1,0.4655174367217114,,,,,,,,,,,,,,,,,,26,001,27,m,"75% Bildungswissenschaft, 25% Psychologie",2023-01-17_10h36.36.570,00_bat_bachelor,2022.2.4,59.93011788067668,
,,,,0,0,0,0,14,0,14,0,,,,,,,,,,,,,,,14,1994.710542200948,1995.710982928009,1,1995.710982928009,Y,l,go,l,1,0.34666513070988003,,,,,,,,,,,,,,,,,,26,001,27,m,"75% Bildungswissenschaft, 25% Psychologie",2023-01-17_10h36.36.570,00_bat_bachelor,2022.2.4,59.93011788067668,
,,,,1,0,1,0,0,0,0,0,,,,,,,,,,,,,,,0,2022.5983104977931,2022.798374885635,0.2,2022.798374885635,X,d,go,d,1,0.37829275174590293,1996.7726604738564,j,25.799813032223028,,,,,,,,,,,,,,,26,001,27,m,"75% Bildungswissenschaft, 25% Psychologie",2023-01-17_10h36.36.570,00_bat_bachelor,2022.2.4,59.93011788067668,
,,,,1,0,1,0,1,0,1,0,,,,,,,,,,,,,,,1,2023.8827680568356,2024.0828794749686,0.2,2024.0828794749686,Y,l,go,l,1,0.4697714952635579,,,,,,,,,,,,,,,,,,26,001,27,m,"75% Bildungswissenschaft, 25% Psychologie",2023-01-17_10h36.36.570,00_bat_bachelor,2022.2.4,59.93011788067668,
,,,,1,0,1,0,2,0,2,0,,,,,,,,,,,,,,,2,2025.2670534462814,2025.4672642583027,0.2,2025.4672642583027,X,d,go,d,1,0.317676538717933,,,,,,,,,,,,,,,,,,26,001,27,m,"75% Bildungswissenschaft, 25% Psychologie",2023-01-17_10h36.36.570,00_bat_bachelor,2022.2.4,59.93011788067668,
,,,,1,0,1,0,3,0,3,0,,,,,,,,,,,,,,,3,2026.5013306660258,2026.70129614482,0.2,2026.70129614482,X,None,nogo,l,0,0.3156518124160357,,,,,,,,,,,,,,,,,,26,001,27,m,"75% Bildungswissenschaft, 25% Psychologie",2023-01-17_10h36.36.570,00_bat_bachelor,2022.2.4,59.93011788067668,
,,,,1,0,1,0,4,0,4,0,,,,,,,,,,,,,,,4,2028.1192149724957,2028.3193554815225,0.2,2028.3193554815225,Y,l,go,None,0,,,,,,,,,,,,,,,,,,,26,001,27,m,"75% Bildungswissenschaft, 25% Psychologie",2023-01-17_10h36.36.570,00_bat_bachelor,2022.2.4,59.93011788067668,
,,,,1,0,1,0,5,0,5,0,,,,,,,,,,,,,,,5,2029.7202668022946,2029.920801977787,0.2,2029.920801977787,X,d,go,d,1,0.34495507093379274,,,,,,,,,,,,,,,,,,26,001,27,m,"75% Bildungswissenschaft, 25% Psychologie",2023-01-17_10h36.36.570,00_bat_bachelor,2022.2.4,59.93011788067668,
,,,,1,0,1,0,6,0,6,0,,,,,,,,,,,,,,,6,2030.971341589655,2031.1716304622387,0.2,2031.1716304622387,Y,l,go,l,1,0.40537007195234764,,,,,,,,,,,,,,,,,,26,001,27,m,"75% Bildungswissenschaft, 25% Psychologie",2023-01-17_10h36.36.570,00_bat_bachelor,2022.2.4,59.93011788067668,
,,,,1,0,1,0,7,0,7,0,,,,,,,,,,,,,,,7,2032.2888919811376,2032.488976732624,0.2,2032.488976732624,X,d,go,d,1,0.4967329367500497,,,,,,,,,,,,,,,,,,26,001,27,m,"75% Bildungswissenschaft, 25% Psychologie",2023-01-17_10h36.36.570,00_bat_bachelor,2022.2.4,59.93011788067668,
,,,,1,0,1,0,8,0,8,0,,,,,,,,,,,,,,,8,2033.6899186958035,2033.8902992047078,0.2,2033.8902992047078,Y,l,go,l,1,0.3587436703091953,,,,,,,,,,,,,,,,,,26,001,27,m,"75% Bildungswissenschaft, 25% Psychologie",2023-01-17_10h36.36.570,00_bat_bachelor,2022.2.4,59.93011788067668,
,,,,1,0,1,0,9,0,9,0,,,,,,,,,,,,,,,9,2034.9575786872301,2035.1579330143286,0.2,2035.1579330143286,X,d,go,d,1,0.38660886892466806,,,,,,,,,,,,,,,,,,26,001,27,m,"75% Bildungswissenschaft, 25% Psychologie",2023-01-17_10h36.36.570,00_bat_bachelor,2022.2.4,59.93011788067668,
,,,,1,0,1,0,10,0,10,0,,,,,,,,,,,,,,,10,2036.2585496928223,2036.4590169895673,0.2,2036.4590169895673,Y,l,go,l,1,0.34967118986241985,,,,,,,,,,,,,,,,,,26,001,27,m,"75% Bildungswissenschaft, 25% Psychologie",2023-01-17_10h36.36.570,00_bat_bachelor,2022.2.4,59.93011788067668,
,,,,1,0,1,0,11,0,11,0,,,,,,,,,,,,,,,11,2037.5094504196604,2037.7098934739915,0.2,2037.7098934739915,X,d,go,d,1,0.3795766299153911,,,,,,,,,,,,,,,,,,26,001,27,m,"75% Bildungswissenschaft, 25% Psychologie",2023-01-17_10h36.36.570,00_bat_bachelor,2022.2.4,59.93011788067668,
,,,,1,0,1,0,12,0,12,0,,,,,,,,,,,,,,,12,2038.794079130137,2038.99408436651,0.2,2038.99408436651,X,None,nogo,None,1,,,,,2039.7947210692219,,,,,,,,,,,,,,26,001,27,m,"75% Bildungswissenschaft, 25% Psychologie",2023-01-17_10h36.36.570,00_bat_bachelor,2022.2.4,59.93011788067668,
,,,,1,0,1,0,13,0,13,0,,,,,,,,,,,,,,,13,2040.3952657477494,2040.5951638326515,0.2,2040.5951638326515,Y,l,go,l,1,0.37271020899061114,,,,,,,,,,,,,,,,,,26,001,27,m,"75% Bildungswissenschaft, 25% Psychologie",2023-01-17_10h36.36.570,00_bat_bachelor,2022.2.4,59.93011788067668,
,,,,1,0,1,0,14,0,14,0,,,,,,,,,,,,,,,14,2041.679572034147,2041.879665028042,0.2,2041.879665028042,X,d,go,d,1,0.36888766539050266,,,,,,,,,,,,,,,,,,26,001,27,m,"75% Bildungswissenschaft, 25% Psychologie",2023-01-17_10h36.36.570,00_bat_bachelor,2022.2.4,59.93011788067668,
,,,,,,,,,,,,,,,,,,,,,,,,,,,,,,,,,,,,,2042.9933086093079,None,,,2042.9933086093079,2042.9933086093079,space,6.234833912196336,,,,,,,,,,26,001,27,m,"75% Bildungswissenschaft, 25% Psychologie",2023-01-17_10h36.36.570,00_bat_bachelor,2022.2.4,59.93011788067668,
,,,,,,,,,,,,0,0,0,0,0,0,0,0,,,,,,,0,,,1,2050.252791635008,X,d,go,d,1,0.21966979834542144,,,,,,,,,,,,,,,,,,26,001,27,m,"75% Bildungswissenschaft, 25% Psychologie",2023-01-17_10h36.36.570,00_bat_bachelor,2022.2.4,59.93011788067668,
,,,,,,,,,,,,0,0,0,0,1,0,1,0,,,,,,,1,,,1,2051.5872113516525,Y,l,go,l,1,0.3412261030462105,,,,,,,,,,,,,,,,,,26,001,27,m,"75% Bildungswissenschaft, 25% Psychologie",2023-01-17_10h36.36.570,00_bat_bachelor,2022.2.4,59.93011788067668,
,,,,,,,,,,,,0,0,0,0,2,0,2,0,,,,,,,2,,,1,2053.0382113754167,X,d,go,d,1,0.298422729872982,,,,,,,,,,,,,,,,,,26,001,27,m,"75% Bildungswissenschaft, 25% Psychologie",2023-01-17_10h36.36.570,00_bat_bachelor,2022.2.4,59.93011788067668,
,,,,,,,,,,,,0,0,0,0,3,0,3,0,,,,,,,3,,,1,2054.4394732414657,Y,l,go,l,1,0.4019194069551304,,,,,,,,,,,,,,,,,,26,001,27,m,"75% Bildungswissenschaft, 25% Psychologie",2023-01-17_10h36.36.570,00_bat_bachelor,2022.2.4,59.93011788067668,
,,,,,,,,,,,,0,0,0,0,4,0,4,0,,,,,,,4,,,1,2055.9573217176658,Y,None,nogo,None,1,,,,,,,,,,,,,,,,,,,26,001,27,m,"75% Bildungswissenschaft, 25% Psychologie",2023-01-17_10h36.36.570,00_bat_bachelor,2022.2.4,59.93011788067668,
,,,,,,,,,,,,0,0,0,0,5,0,5,0,,,,,,,5,,,1,2057.7582338141947,X,d,go,d,1,0.2668469875934534,,,,,,,,,,,,,,,,,,26,001,27,m,"75% Bildungswissenschaft, 25% Psychologie",2023-01-17_10h36.36.570,00_bat_bachelor,2022.2.4,59.93011788067668,
,,,,,,,,,,,,0,0,0,0,6,0,6,0,,,,,,,6,,,1,2059.1262539993913,Y,l,go,l,1,0.22716312804550398,,,,,,,,,,,,,,,,,,26,001,27,m,"75% Bildungswissenschaft, 25% Psychologie",2023-01-17_10h36.36.570,00_bat_bachelor,2022.2.4,59.93011788067668,
,,,,,,,,,,,,0,0,0,0,7,0,7,0,,,,,,,7,,,1,2060.460629594847,X,d,go,d,1,0.4924109994462924,,,,,,,,,,,,,,,,,,26,001,27,m,"75% Bildungswissenschaft, 25% Psychologie",2023-01-17_10h36.36.570,00_bat_bachelor,2022.2.4,59.93011788067668,
,,,,,,,,,,,,0,0,0,0,8,0,8,0,,,,,,,8,,,1,2062.0616886973585,X,None,nogo,None,1,,,,,2062.86210818807,,,,,,,,,,,,,,26,001,27,m,"75% Bildungswissenschaft, 25% Psychologie",2023-01-17_10h36.36.570,00_bat_bachelor,2022.2.4,59.93011788067668,
,,,,,,,,,,,,0,0,0,0,9,0,9,0,,,,,,,9,,,1,2063.8628548543784,Y,l,go,l,1,0.4988337842078181,,,,,,,,,,,,,,,,,,26,001,27,m,"75% Bildungswissenschaft, 25% Psychologie",2023-01-17_10h36.36.570,00_bat_bachelor,2022.2.4,59.93011788067668,
,,,,,,,,,,,,0,0,0,0,10,0,10,0,,,,,,,10,,,1,2065.464155896174,X,d,go,d,1,0.27367946913000196,,,,,,,,,,,,,,,,,,26,001,27,m,"75% Bildungswissenschaft, 25% Psychologie",2023-01-17_10h36.36.570,00_bat_bachelor,2022.2.4,59.93011788067668,
,,,,,,,,,,,,0,0,0,0,11,0,11,0,,,,,,,11,,,1,2066.8485154673835,X,None,nogo,None,1,,,,,2067.6493305942713,,,,,,,,,,,,,,26,001,27,m,"75% Bildungswissenschaft, 25% Psychologie",2023-01-17_10h36.36.570,00_bat_bachelor,2022.2.4,59.93011788067668,
,,,,,,,,,,,,0,0,0,0,12,0,12,0,,,,,,,12,,,1,2068.6502154423215,Y,l,go,l,1,0.22215416078688577,,,,,,,,,,,,,,,,,,26,001,27,m,"75% Bildungswissenschaft, 25% Psychologie",2023-01-17_10h36.36.570,00_bat_bachelor,2022.2.4,59.93011788067668,
,,,,,,,,,,,,0,0,0,0,13,0,13,0,,,,,,,13,,,1,2069.984420856039,X,d,go,d,1,0.32922562400926836,,,,,,,,,,,,,,,,,,26,001,27,m,"75% Bildungswissenschaft, 25% Psychologie",2023-01-17_10h36.36.570,00_bat_bachelor,2022.2.4,59.93011788067668,
,,,,,,,,,,,,0,0,0,0,14,0,14,0,,,,,,,14,,,1,2071.4189893726143,Y,l,go,l,1,0.2698414103797404,,,,,,,,,,,,,,,,,,26,001,27,m,"75% Bildungswissenschaft, 25% Psychologie",2023-01-17_10h36.36.570,00_bat_bachelor,2022.2.4,59.93011788067668,
,,,,,,,,,,,,0,0,0,0,15,0,15,0,,,,,,,15,,,1,2072.8032636105345,Y,None,nogo,None,1,,,,,2073.6039657677757,,,,,,,,,,,,,,26,001,27,m,"75% Bildungswissenschaft, 25% Psychologie",2023-01-17_10h36.36.570,00_bat_bachelor,2022.2.4,59.93011788067668,
,,,,,,,,,,,,0,0,0,0,16,0,16,0,,,,,,,16,,,1,2074.6045868583897,X,d,go,d,1,0.21967998016043566,,,,,,,,,,,,,,,,,,26,001,27,m,"75% Bildungswissenschaft, 25% Psychologie",2023-01-17_10h36.36.570,00_bat_bachelor,2022.2.4,59.93011788067668,
,,,,,,,,,,,,0,0,0,0,17,0,17,0,,,,,,,17,,,1,2075.939001241699,Y,l,go,l,1,0.4690030107885832,,,,,,,,,,,,,,,,,,26,001,27,m,"75% Bildungswissenschaft, 25% Psychologie",2023-01-17_10h36.36.570,00_bat_bachelor,2022.2.4,59.93011788067668,
,,,,,,,,,,,,0,0,0,0,18,0,18,0,,,,,,,18,,,1,2077.52378447332,Y,None,nogo,None,1,,,,,,,,,,,,,,,,,,,26,001,27,m,"75% Bildungswissenschaft, 25% Psychologie",2023-01-17_10h36.36.570,00_bat_bachelor,2022.2.4,59.93011788067668,
,,,,,,,,,,,,0,0,0,0,19,0,19,0,,,,,,,19,,,1,2079.3246645698528,X,d,go,d,1,0.18785987437877338,,,,,,,,,,,,,,,,,,26,001,27,m,"75% Bildungswissenschaft, 25% Psychologie",2023-01-17_10h36.36.570,00_bat_bachelor,2022.2.4,59.93011788067668,
,,,,,,,,,,,,0,0,0,0,20,0,20,0,,,,,,,20,,,1,2080.6257301208534,Y,l,go,l,1,0.21566640635137446,,,,,,,,,,,,,,,,,,26,001,27,m,"75% Bildungswissenschaft, 25% Psychologie",2023-01-17_10h36.36.570,00_bat_bachelor,2022.2.4,59.93011788067668,
,,,,,,,,,,,,0,0,0,0,21,0,21,0,,,,,,,21,,,1,2081.943637845514,X,d,go,d,1,0.27356019646686036,,,,,,,,,,,,,,,,,,26,001,27,m,"75% Bildungswissenschaft, 25% Psychologie",2023-01-17_10h36.36.570,00_bat_bachelor,2022.2.4,59.93011788067668,
,,,,,,,,,,,,0,0,0,0,22,0,22,0,,,,,,,22,,,1,2083.3279954773316,Y,l,go,l,1,0.39291965373558924,,,,,,,,,,,,,,,,,,26,001,27,m,"75% Bildungswissenschaft, 25% Psychologie",2023-01-17_10h36.36.570,00_bat_bachelor,2022.2.4,59.93011788067668,
,,,,,,,,,,,,0,0,0,0,23,0,23,0,,,,,,,23,,,1,2084.82916711313,X,d,go,l,0,0.3490384628967149,,,,,,,,,,,,,,,,,,26,001,27,m,"75% Bildungswissenschaft, 25% Psychologie",2023-01-17_10h36.36.570,00_bat_bachelor,2022.2.4,59.93011788067668,
,,,,,,,,,,,,0,0,0,0,24,0,24,0,,,,,,,24,,,1,2086.2799586521433,Y,l,go,l,1,0.4490650810621446,,,,,,,,,,,,,,,,,,26,001,27,m,"75% Bildungswissenschaft, 25% Psychologie",2023-01-17_10h36.36.570,00_bat_bachelor,2022.2.4,59.93011788067668,
,,,,,,,,,,,,0,0,0,0,25,0,25,0,,,,,,,25,,,1,2087.8314245665824,Y,None,nogo,None,1,,,,,,,,,,,,,,,,,,,26,001,27,m,"75% Bildungswissenschaft, 25% Psychologie",2023-01-17_10h36.36.570,00_bat_bachelor,2022.2.4,59.93011788067668,
,,,,,,,,,,,,0,0,0,0,26,0,26,0,,,,,,,26,,,1,2089.632827814392,X,d,go,d,1,0.29626903393364046,,,,,,,,,,,,,,,,,,26,001,27,m,"75% Bildungswissenschaft, 25% Psychologie",2023-01-17_10h36.36.570,00_bat_bachelor,2022.2.4,59.93011788067668,
,,,,,,,,,,,,0,0,0,0,27,0,27,0,,,,,,,27,,,1,2091.033909801743,Y,l,go,l,1,0.3346190759475576,,,,,,,,,,,,,,,,,,26,001,27,m,"75% Bildungswissenschaft, 25% Psychologie",2023-01-17_10h36.36.570,00_bat_bachelor,2022.2.4,59.93011788067668,
,,,,,,,,,,,,0,0,0,0,28,0,28,0,,,,,,,28,,,1,2092.484673704399,Y,None,nogo,None,1,,,,,,,,,,,,,,,,,,,26,001,27,m,"75% Bildungswissenschaft, 25% Psychologie",2023-01-17_10h36.36.570,00_bat_bachelor,2022.2.4,59.93011788067668,
,,,,,,,,,,,,0,0,0,0,29,0,29,0,,,,,,,29,,,1,2094.2860633764503,X,d,go,d,1,0.3309051383548649,,,,,,,,,,,,,,,,,,26,001,27,m,"75% Bildungswissenschaft, 25% Psychologie",2023-01-17_10h36.36.570,00_bat_bachelor,2022.2.4,59.93011788067668,
,,,,,,,,,,,,0,0,0,0,30,0,30,0,,,,,,,30,,,1,2095.720658559687,Y,l,go,l,1,0.31959799231844954,,,,,,,,,,,,,,,,,,26,001,27,m,"75% Bildungswissenschaft, 25% Psychologie",2023-01-17_10h36.36.570,00_bat_bachelor,2022.2.4,59.93011788067668,
,,,,,,,,,,,,0,0,0,0,31,0,31,0,,,,,,,31,,,1,2097.155233864134,X,d,go,d,1,0.518275229333085,,,,,,,,,,,,,,,,,,26,001,27,m,"75% Bildungswissenschaft, 25% Psychologie",2023-01-17_10h36.36.570,00_bat_bachelor,2022.2.4,59.93011788067668,
,,,,,,,,,,,,0,0,0,0,32,0,32,0,,,,,,,32,,,1,2098.7898245867545,Y,l,go,l,1,0.3066961803997401,,,,,,,,,,,,,,,,,,26,001,27,m,"75% Bildungswissenschaft, 25% Psychologie",2023-01-17_10h36.36.570,00_bat_bachelor,2022.2.4,59.93011788067668,
,,,,,,,,,,,,0,0,0,0,33,0,33,0,,,,,,,33,,,1,2100.2074878994026,X,d,go,d,1,0.45644980475481134,,,,,,,,,,,,,,,,,,26,001,27,m,"75% Bildungswissenschaft, 25% Psychologie",2023-01-17_10h36.36.570,00_bat_bachelor,2022.2.4,59.93011788067668,
,,,,,,,,,,,,0,0,0,0,34,0,34,0,,,,,,,34,,,1,2101.7754124725325,Y,l,go,l,1,0.2657197154185269,,,,,,,,,,,,,,,,,,26,001,27,m,"75% Bildungswissenschaft, 25% Psychologie",2023-01-17_10h36.36.570,00_bat_bachelor,2022.2.4,59.93011788067668,
,,,,,,,,,,,,0,0,0,0,35,0,35,0,,,,,,,35,,,1,2103.143011809443,Y,None,nogo,None,1,,,,,,,,,,,,,,,,,,,26,001,27,m,"75% Bildungswissenschaft, 25% Psychologie",2023-01-17_10h36.36.570,00_bat_bachelor,2022.2.4,59.93011788067668,
,,,,,,,,,,,,0,0,0,0,36,0,36,0,,,,,,,36,,,1,2104.944403420901,X,d,go,d,1,0.2170554965850897,,,,,,,,,,,,,,,,,,26,001,27,m,"75% Bildungswissenschaft, 25% Psychologie",2023-01-17_10h36.36.570,00_bat_bachelor,2022.2.4,59.93011788067668,
,,,,,,,,,,,,0,0,0,0,37,0,37,0,,,,,,,37,,,1,2106.2621923577244,Y,l,go,l,1,0.27512868055782747,,,,,,,,,,,,,,,,,,26,001,27,m,"75% Bildungswissenschaft, 25% Psychologie",2023-01-17_10h36.36.570,00_bat_bachelor,2022.2.4,59.93011788067668,
,,,,,,,,,,,,0,0,0,0,38,0,38,0,,,,,,,38,,,1,2107.646456898685,Y,None,nogo,None,1,,,,,,,,,,,,,,,,,,,26,001,27,m,"75% Bildungswissenschaft, 25% Psychologie",2023-01-17_10h36.36.570,00_bat_bachelor,2022.2.4,59.93011788067668,
,,,,,,,,,,,,0,0,0,0,39,0,39,0,,,,,,,39,,,1,2109.4478441465035,X,d,go,d,1,0.22536725013924297,,,,,,,,,,,,,,,,,,26,001,27,m,"75% Bildungswissenschaft, 25% Psychologie",2023-01-17_10h36.36.570,00_bat_bachelor,2022.2.4,59.93011788067668,
,,,,,,,,,,,,0,0,0,0,40,0,40,0,,,,,,,40,,,1,2110.7821363480616,Y,l,go,l,1,0.31555872155877296,,,,,,,,,,,,,,,,,,26,001,27,m,"75% Bildungswissenschaft, 25% Psychologie",2023-01-17_10h36.36.570,00_bat_bachelor,2022.2.4,59.93011788067668,
,,,,,,,,,,,,0,0,0,0,41,0,41,0,,,,,,,41,,,1,2112.1997405092116,Y,None,nogo,None,1,,,,,,,,,,,,,,,,,,,26,001,27,m,"75% Bildungswissenschaft, 25% Psychologie",2023-01-17_10h36.36.570,00_bat_bachelor,2022.2.4,59.93011788067668,
,,,,,,,,,,,,0,0,0,0,42,0,42,0,,,,,,,42,,,1,2114.001365332675,X,d,go,d,1,0.4396110250381753,,,,,,,,,,,,,,,,,,26,001,27,m,"75% Bildungswissenschaft, 25% Psychologie",2023-01-17_10h36.36.570,00_bat_bachelor,2022.2.4,59.93011788067668,
,,,,,,,,,,,,0,0,0,0,43,0,43,0,,,,,,,43,,,1,2115.552475853343,Y,l,go,None,0,,,,,,,,,,,,,,,,,,,26,001,27,m,"75% Bildungswissenschaft, 25% Psychologie",2023-01-17_10h36.36.570,00_bat_bachelor,2022.2.4,59.93011788067668,
,,,,,,,,,,,,0,0,0,0,44,0,44,0,,,,,,,44,,,1,2117.3539600708027,Y,None,nogo,None,1,,,,,2118.154494470553,,,,,,,,,,,,,,26,001,27,m,"75% Bildungswissenschaft, 25% Psychologie",2023-01-17_10h36.36.570,00_bat_bachelor,2022.2.4,59.93011788067668,
,,,,,,,,,,,,0,0,0,0,45,0,45,0,,,,,,,45,,,1,2119.155232894438,X,d,go,d,1,0.5490853962110123,,,,,,,,,,,,,,,,,,26,001,27,m,"75% Bildungswissenschaft, 25% Psychologie",2023-01-17_10h36.36.570,00_bat_bachelor,2022.2.4,59.93011788067668,
,,,,,,,,,,,,0,0,0,0,46,0,46,0,,,,,,,46,,,1,2120.8064490635443,Y,l,go,l,1,0.41736279340693727,,,,,,,,,,,,,,,,,,26,001,27,m,"75% Bildungswissenschaft, 25% Psychologie",2023-01-17_10h36.36.570,00_bat_bachelor,2022.2.4,59.93011788067668,
,,,,,,,,,,,,0,0,0,0,47,0,47,0,,,,,,,47,,,1,2122.341010743752,X,d,go,d,1,0.4671038601954933,,,,,,,,,,,,,,,,,,26,001,27,m,"75% Bildungswissenschaft, 25% Psychologie",2023-01-17_10h36.36.570,00_bat_bachelor,2022.2.4,59.93011788067668,
,,,,,,,,,,,,0,0,0,0,48,0,48,0,,,,,,,48,,,1,2123.9088921653893,Y,l,go,l,1,0.2911897636804497,,,,,,,,,,,,,,,,,,26,001,27,m,"75% Bildungswissenschaft, 25% Psychologie",2023-01-17_10h36.36.570,00_bat_bachelor,2022.2.4,59.93011788067668,
,,,,,,,,,,,,0,0,0,0,49,0,49,0,,,,,,,49,,,1,2125.3099421527586,Y,None,nogo,None,1,,,,,,,,,,,,,,,,,,,26,001,27,m,"75% Bildungswissenschaft, 25% Psychologie",2023-01-17_10h36.36.570,00_bat_bachelor,2022.2.4,59.93011788067668,
,,,,,,,,,,,,0,0,0,0,50,0,50,0,,,,,,,50,,,1,2127.111310491484,X,d,go,d,1,0.3529216125170933,,,,,,,,,,,,,,,,,,26,001,27,m,"75% Bildungswissenschaft, 25% Psychologie",2023-01-17_10h36.36.570,00_bat_bachelor,2022.2.4,59.93011788067668,
,,,,,,,,,,,,0,0,0,0,51,0,51,0,,,,,,,51,,,1,2128.5791202040564,Y,l,go,l,1,0.2628435955994064,,,,,,,,,,,,,,,,,,26,001,27,m,"75% Bildungswissenschaft, 25% Psychologie",2023-01-17_10h36.36.570,00_bat_bachelor,2022.2.4,59.93011788067668,
,,,,,,,,,,,,0,0,0,0,52,0,52,0,,,,,,,52,,,1,2129.946897965143,X,d,go,d,1,0.6222649970877683,,,,,,,,,,,,,,,,,,26,001,27,m,"75% Bildungswissenschaft, 25% Psychologie",2023-01-17_10h36.36.570,00_bat_bachelor,2022.2.4,59.93011788067668,
,,,,,,,,,,,,0,0,0,0,53,0,53,0,,,,,,,53,,,1,2131.681263669685,Y,l,go,l,1,0.23196894390275702,,,,,,,,,,,,,,,,,,26,001,27,m,"75% Bildungswissenschaft, 25% Psychologie",2023-01-17_10h36.36.570,00_bat_bachelor,2022.2.4,59.93011788067668,
,,,,,,,,,,,,0,0,0,0,54,0,54,0,,,,,,,54,,,1,2133.0159932043607,Y,None,nogo,None,1,,,,,,,,,,,,,,,,,,,26,001,27,m,"75% Bildungswissenschaft, 25% Psychologie",2023-01-17_10h36.36.570,00_bat_bachelor,2022.2.4,59.93011788067668,
,,,,,,,,,,,,0,0,0,0,55,0,55,0,,,,,,,55,,,1,2134.816927119071,X,d,go,d,1,0.2152702853345545,,,,,,,,,,,,,,,,,,26,001,27,m,"75% Bildungswissenschaft, 25% Psychologie",2023-01-17_10h36.36.570,00_bat_bachelor,2022.2.4,59.93011788067668,
,,,,,,,,,,,,0,0,0,0,56,0,56,0,,,,,,,56,,,1,2136.134926964878,Y,l,go,l,1,0.30595872621051967,,,,,,,,,,,,,,,,,,26,001,27,m,"75% Bildungswissenschaft, 25% Psychologie",2023-01-17_10h36.36.570,00_bat_bachelor,2022.2.4,59.93011788067668,
,,,,,,,,,,,,0,0,0,0,57,0,57,0,,,,,,,57,,,1,2137.5525946411653,X,d,go,d,1,0.2960038219462149,,,,,,,,,,,,,,,,,,26,001,27,m,"75% Bildungswissenschaft, 25% Psychologie",2023-01-17_10h36.36.570,00_bat_bachelor,2022.2.4,59.93011788067668,
,,,,,,,,,,,,0,0,0,0,58,0,58,0,,,,,,,58,,,1,2138.9537231739523,Y,l,go,l,1,0.25420941796619445,,,,,,,,,,,,,,,,,,26,001,27,m,"75% Bildungswissenschaft, 25% Psychologie",2023-01-17_10h36.36.570,00_bat_bachelor,2022.2.4,59.93011788067668,
,,,,,,,,,,,,0,0,0,0,59,0,59,0,,,,,,,59,,,1,2140.321512086535,X,d,go,d,1,0.3913555332837859,,,,,,,,,,,,,,,,,,26,001,27,m,"75% Bildungswissenschaft, 25% Psychologie",2023-01-17_10h36.36.570,00_bat_bachelor,2022.2.4,59.93011788067668,
,,,,,,,,,,,,0,0,0,0,60,0,60,0,,,,,,,60,,,1,2141.8225833587494,Y,l,go,l,1,0.2976542453834554,,,,,,,,,,,,,,,,,,26,001,27,m,"75% Bildungswissenschaft, 25% Psychologie",2023-01-17_10h36.36.570,00_bat_bachelor,2022.2.4,59.93011788067668,
,,,,,,,,,,,,0,0,0,0,61,0,61,0,,,,,,,61,,,1,2143.2237080127525,X,d,go,d,1,0.6100647605780978,,,,,,,,,,,,,,,,,,26,001,27,m,"75% Bildungswissenschaft, 25% Psychologie",2023-01-17_10h36.36.570,00_bat_bachelor,2022.2.4,59.93011788067668,
,,,,,,,,,,,,0,0,0,0,62,0,62,0,,,,,,,62,,,1,2144.9416460889042,Y,l,go,l,1,0.3792934785160469,,,,,,,,,,,,,,,,,,26,001,27,m,"75% Bildungswissenschaft, 25% Psychologie",2023-01-17_10h36.36.570,00_bat_bachelor,2022.2.4,59.93011788067668,
,,,,,,,,,,,,0,0,0,0,63,0,63,0,,,,,,,63,,,1,2146.4261016115925,Y,None,nogo,None,1,,,,,2147.2265807386284,,,,,,,,,,,,,,26,001,27,m,"75% Bildungswissenschaft, 25% Psychologie",2023-01-17_10h36.36.570,00_bat_bachelor,2022.2.4,59.93011788067668,
,,,,,,,,,,,,0,0,0,0,64,0,64,0,,,,,,,64,,,1,2148.2275305563526,X,d,go,d,1,0.2614627477887552,,,,,,,,,,,,,,,,,,26,001,27,m,"75% Bildungswissenschaft, 25% Psychologie",2023-01-17_10h36.36.570,00_bat_bachelor,2022.2.4,59.93011788067668,
,,,,,,,,,,,,0,0,0,0,65,0,65,0,,,,,,,65,,,1,2149.5951982568804,Y,l,go,l,1,0.28533764529856853,,,,,,,,,,,,,,,,,,26,001,27,m,"75% Bildungswissenschaft, 25% Psychologie",2023-01-17_10h36.36.570,00_bat_bachelor,2022.2.4,59.93011788067668,
,,,,,,,,,,,,0,0,0,0,66,0,66,0,,,,,,,66,,,1,2150.9962550321216,X,d,go,d,1,0.3557696111383848,,,,,,,,,,,,,,,,,,26,001,27,m,"75% Bildungswissenschaft, 25% Psychologie",2023-01-17_10h36.36.570,00_bat_bachelor,2022.2.4,59.93011788067668,
,,,,,,,,,,,,0,0,0,0,67,0,67,0,,,,,,,67,,,1,2152.4640550477343,X,None,nogo,None,1,,,,,,,,,,,,,,,,,,,26,001,27,m,"75% Bildungswissenschaft, 25% Psychologie",2023-01-17_10h36.36.570,00_bat_bachelor,2022.2.4,59.93011788067668,
,,,,,,,,,,,,0,0,0,0,68,0,68,0,,,,,,,68,,,1,2154.265374416791,Y,l,go,l,1,0.24063900030159857,,,,,,,,,,,,,,,,,,26,001,27,m,"75% Bildungswissenschaft, 25% Psychologie",2023-01-17_10h36.36.570,00_bat_bachelor,2022.2.4,59.93011788067668,
,,,,,,,,,,,,0,0,0,0,69,0,69,0,,,,,,,69,,,1,2155.6163148526975,X,d,go,d,1,0.34426707126840483,,,,,,,,,,,,,,,,,,26,001,27,m,"75% Bildungswissenschaft, 25% Psychologie",2023-01-17_10h36.36.570,00_bat_bachelor,2022.2.4,59.93011788067668,
,,,,,,,,,,,,0,0,0,0,70,0,70,0,,,,,,,70,,,1,2157.06743948246,X,None,nogo,None,1,,,,,2157.868144063934,,,,,,,,,,,,,,26,001,27,m,"75% Bildungswissenschaft, 25% Psychologie",2023-01-17_10h36.36.570,00_bat_bachelor,2022.2.4,59.93011788067668,
,,,,,,,,,,,,0,0,0,0,71,0,71,0,,,,,,,71,,,1,2158.8687777605955,Y,l,go,l,1,0.27615849823632743,,,,,,,,,,,,,,,,,,26,001,27,m,"75% Bildungswissenschaft, 25% Psychologie",2023-01-17_10h36.36.570,00_bat_bachelor,2022.2.4,59.93011788067668,
,,,,,,,,,,,,0,0,0,0,72,0,72,0,,,,,,,72,,,1,2160.253085937904,X,d,go,d,1,0.41273103808634914,,,,,,,,,,,,,,,,,,26,001,27,m,"75% Bildungswissenschaft, 25% Psychologie",2023-01-17_10h36.36.570,00_bat_bachelor,2022.2.4,59.93011788067668,
,,,,,,,,,,,,0,0,0,0,73,0,73,0,,,,,,,73,,,1,2161.770991626181,Y,l,go,l,1,0.34994658366485965,,,,,,,,,,,,,,,,,,26,001,27,m,"75% Bildungswissenschaft, 25% Psychologie",2023-01-17_10h36.36.570,00_bat_bachelor,2022.2.4,59.93011788067668,
,,,,,,,,,,,,0,0,0,0,74,0,74,0,,,,,,,74,,,1,2163.2219354075496,Y,None,nogo,None,1,,,,,,,,,,,,,,,,,,,26,001,27,m,"75% Bildungswissenschaft, 25% Psychologie",2023-01-17_10h36.36.570,00_bat_bachelor,2022.2.4,59.93011788067668,
,,,,,,,,,,,,0,0,0,0,75,0,75,0,,,,,,,75,,,1,2165.023284352341,X,d,go,d,1,0.2173342843161663,,,,,,,,,,,,,,,,,,26,001,27,m,"75% Bildungswissenschaft, 25% Psychologie",2023-01-17_10h36.36.570,00_bat_bachelor,2022.2.4,59.93011788067668,
,,,,,,,,,,,,0,0,0,0,76,0,76,0,,,,,,,76,,,1,2166.3578684325475,Y,l,go,l,1,0.2758981347142253,,,,,,,,,,,,,,,,,,26,001,27,m,"75% Bildungswissenschaft, 25% Psychologie",2023-01-17_10h36.36.570,00_bat_bachelor,2022.2.4,59.93011788067668,
,,,,,,,,,,,,0,0,0,0,77,0,77,0,,,,,,,77,,,1,2167.742299761303,X,d,go,d,1,0.5545467268821085,,,,,,,,,,,,,,,,,,26,001,27,m,"75% Bildungswissenschaft, 25% Psychologie",2023-01-17_10h36.36.570,00_bat_bachelor,2022.2.4,59.93011788067668,
,,,,,,,,,,,,0,0,0,0,78,0,78,0,,,,,,,78,,,1,2169.409984770915,X,None,nogo,None,1,,,,,,,,,,,,,,,,,,,26,001,27,m,"75% Bildungswissenschaft, 25% Psychologie",2023-01-17_10h36.36.570,00_bat_bachelor,2022.2.4,59.93011788067668,
,,,,,,,,,,,,0,0,0,0,79,0,79,0,,,,,,,79,,,1,2171.211802079124,Y,l,go,l,1,0.20449792691215407,,,,,,,,,,,,,,,,,,26,001,27,m,"75% Bildungswissenschaft, 25% Psychologie",2023-01-17_10h36.36.570,00_bat_bachelor,2022.2.4,59.93011788067668,
,,,,,,,,,,,,0,0,0,0,80,0,80,0,,,,,,,80,,,1,2172.5290198647126,X,d,go,d,1,0.45627525939198676,,,,,,,,,,,,,,,,,,26,001,27,m,"75% Bildungswissenschaft, 25% Psychologie",2023-01-17_10h36.36.570,00_bat_bachelor,2022.2.4,59.93011788067668,
,,,,,,,,,,,,0,0,0,0,81,0,81,0,,,,,,,81,,,1,2174.0971921953023,Y,l,go,l,1,0.4238088508864166,,,,,,,,,,,,,,,,,,26,001,27,m,"75% Bildungswissenschaft, 25% Psychologie",2023-01-17_10h36.36.570,00_bat_bachelor,2022.2.4,59.93011788067668,
,,,,,,,,,,,,0,0,0,0,82,0,82,0,,,,,,,82,,,1,2175.6315904816583,Y,None,nogo,None,1,,,,,,,,,,,,,,,,,,,26,001,27,m,"75% Bildungswissenschaft, 25% Psychologie",2023-01-17_10h36.36.570,00_bat_bachelor,2022.2.4,59.93011788067668,
,,,,,,,,,,,,0,0,0,0,83,0,83,0,,,,,,,83,,,1,2177.432685365973,X,d,go,d,1,0.24020263687998522,,,,,,,,,,,,,,,,,,26,001,27,m,"75% Bildungswissenschaft, 25% Psychologie",2023-01-17_10h36.36.570,00_bat_bachelor,2022.2.4,59.93011788067668,
,,,,,,,,,,,,0,0,0,0,84,0,84,0,,,,,,,84,,,1,2178.7838609532773,Y,l,go,l,1,0.44056520638696384,,,,,,,,,,,,,,,,,,26,001,27,m,"75% Bildungswissenschaft, 25% Psychologie",2023-01-17_10h36.36.570,00_bat_bachelor,2022.2.4,59.93011788067668,
,,,,,,,,,,,,0,0,0,0,85,0,85,0,,,,,,,85,,,1,2180.3351882011193,X,d,go,d,1,0.3464018581144046,,,,,,,,,,,,,,,,,,26,001,27,m,"75% Bildungswissenschaft, 25% Psychologie",2023-01-17_10h36.36.570,00_bat_bachelor,2022.2.4,59.93011788067668,
,,,,,,,,,,,,0,0,0,0,86,0,86,0,,,,,,,86,,,1,2181.786273558173,Y,l,go,l,1,0.35100064377184026,,,,,,,,,,,,,,,,,,26,001,27,m,"75% Bildungswissenschaft, 25% Psychologie",2023-01-17_10h36.36.570,00_bat_bachelor,2022.2.4,59.93011788067668,
,,,,,,,,,,,,0,0,0,0,87,0,87,0,,,,,,,87,,,1,2183.254168119194,Y,None,nogo,None,1,,,,,,,,,,,,,,,,,,,26,001,27,m,"75% Bildungswissenschaft, 25% Psychologie",2023-01-17_10h36.36.570,00_bat_bachelor,2022.2.4,59.93011788067668,
,,,,,,,,,,,,0,0,0,0,88,0,88,0,,,,,,,88,,,1,2185.055454033718,X,d,go,d,1,0.16920097434194759,,,,,,,,,,,,,,,,,,26,001,27,m,"75% Bildungswissenschaft, 25% Psychologie",2023-01-17_10h36.36.570,00_bat_bachelor,2022.2.4,59.93011788067668,
,,,,,,,,,,,,0,0,0,0,89,0,89,0,,,,,,,89,,,1,2186.33977486557,Y,l,go,None,0,,,,,,,,,,,,,,,,,,,26,001,27,m,"75% Bildungswissenschaft, 25% Psychologie",2023-01-17_10h36.36.570,00_bat_bachelor,2022.2.4,59.93011788067668,
,,,,,,,,,,,,0,0,0,0,90,0,90,0,,,,,,,90,,,1,2188.1409434468223,X,d,go,l,0,0.37947287238785066,,,,,,,,,,,,,,,,,,26,001,27,m,"75% Bildungswissenschaft, 25% Psychologie",2023-01-17_10h36.36.570,00_bat_bachelor,2022.2.4,59.93011788067668,
,,,,,,,,,,,,0,0,0,0,91,0,91,0,,,,,,,91,,,1,2189.625512423998,Y,l,go,None,0,,,,,,,,,,,,,,,,,,,26,001,27,m,"75% Bildungswissenschaft, 25% Psychologie",2023-01-17_10h36.36.570,00_bat_bachelor,2022.2.4,59.93011788067668,
,,,,,,,,,,,,0,0,0,0,92,0,92,0,,,,,,,92,,,1,2191.426920035432,Y,None,nogo,None,1,,,,,,,,,,,,,,,,,,,26,001,27,m,"75% Bildungswissenschaft, 25% Psychologie",2023-01-17_10h36.36.570,00_bat_bachelor,2022.2.4,59.93011788067668,
,,,,,,,,,,,,0,0,0,0,93,0,93,0,,,,,,,93,,,1,2193.2283344347525,X,d,go,d,1,0.41200667480006814,,,,,,,,,,,,,,,,,,26,001,27,m,"75% Bildungswissenschaft, 25% Psychologie",2023-01-17_10h36.36.570,00_bat_bachelor,2022.2.4,59.93011788067668,
,,,,,,,,,,,,0,0,0,0,94,0,94,0,,,,,,,94,,,1,2194.7459196383425,Y,l,go,l,1,0.35095700742385816,,,,,,,,,,,,,,,,,,26,001,27,m,"75% Bildungswissenschaft, 25% Psychologie",2023-01-17_10h36.36.570,00_bat_bachelor,2022.2.4,59.93011788067668,
,,,,,,,,,,,,0,0,0,0,95,0,95,0,,,,,,,95,,,1,2196.213931532635,X,d,go,None,0,,,,,2197.0145609626343,,,,,,,,,,,,,,26,001,27,m,"75% Bildungswissenschaft, 25% Psychologie",2023-01-17_10h36.36.570,00_bat_bachelor,2022.2.4,59.93011788067668,
,,,,,,,,,,,,0,0,0,0,96,0,96,0,,,,,,,96,,,1,2198.015418659197,X,None,nogo,None,1,,,,,,,,,,,,,,,,,,,26,001,27,m,"75% Bildungswissenschaft, 25% Psychologie",2023-01-17_10h36.36.570,00_bat_bachelor,2022.2.4,59.93011788067668,
,,,,,,,,,,,,0,0,0,0,97,0,97,0,,,,,,,97,,,1,2199.8167540282448,Y,l,go,l,1,0.6405306851956993,,,,,,,,,,,,,,,,,,26,001,27,m,"75% Bildungswissenschaft, 25% Psychologie",2023-01-17_10h36.36.570,00_bat_bachelor,2022.2.4,59.93011788067668,
,,,,,,,,,,,,0,0,0,0,98,0,98,0,,,,,,,98,,,1,2201.5679827549175,X,d,go,d,1,0.471842282146099,,,,,,,,,,,,,,,,,,26,001,27,m,"75% Bildungswissenschaft, 25% Psychologie",2023-01-17_10h36.36.570,00_bat_bachelor,2022.2.4,59.93011788067668,
,,,,,,,,,,,,0,0,0,0,99,0,99,0,,,,,,,99,,,1,2203.1525667139067,Y,l,go,l,1,0.31291872283327393,,,,,,,,,,,,,,,,,,26,001,27,m,"75% Bildungswissenschaft, 25% Psychologie",2023-01-17_10h36.36.570,00_bat_bachelor,2022.2.4,59.93011788067668,
,,,,,,,,,,,,0,0,0,0,100,0,100,0,,,,,,,100,,,1,2204.570405056773,Y,None,nogo,None,1,,,,,2205.370957395906,,,,,,,,,,,,,,26,001,27,m,"75% Bildungswissenschaft, 25% Psychologie",2023-01-17_10h36.36.570,00_bat_bachelor,2022.2.4,59.93011788067668,
,,,,,,,,,,,,0,0,0,0,101,0,101,0,,,,,,,101,,,1,2206.3717889106483,X,d,go,d,1,0.23015173265594058,,,,,,,,,,,,,,,,,,26,001,27,m,"75% Bildungswissenschaft, 25% Psychologie",2023-01-17_10h36.36.570,00_bat_bachelor,2022.2.4,59.93011788067668,
,,,,,,,,,,,,0,0,0,0,102,0,102,0,,,,,,,102,,,1,2207.7058658395836,Y,l,go,l,1,0.5428512174112257,,,,,,,,,,,,,,,,,,26,001,27,m,"75% Bildungswissenschaft, 25% Psychologie",2023-01-17_10h36.36.570,00_bat_bachelor,2022.2.4,59.93011788067668,
,,,,,,,,,,,,0,0,0,0,103,0,103,0,,,,,,,103,,,1,2209.357414614584,X,d,go,d,1,0.491596454376122,,,,,,,,,,,,,,,,,,26,001,27,m,"75% Bildungswissenschaft, 25% Psychologie",2023-01-17_10h36.36.570,00_bat_bachelor,2022.2.4,59.93011788067668,
,,,,,,,,,,,,0,0,0,0,104,0,104,0,,,,,,,104,,,1,2210.95858959583,Y,l,go,l,1,0.3632755469006952,,,,,,,,,,,,,,,,,,26,001,27,m,"75% Bildungswissenschaft, 25% Psychologie",2023-01-17_10h36.36.570,00_bat_bachelor,2022.2.4,59.93011788067668,
,,,,,,,,,,,,0,0,0,0,105,0,105,0,,,,,,,105,,,1,2212.426369732668,X,d,go,d,1,0.22186519122624304,,,,,,,,,,,,,,,,,,26,001,27,m,"75% Bildungswissenschaft, 25% Psychologie",2023-01-17_10h36.36.570,00_bat_bachelor,2022.2.4,59.93011788067668,
,,,,,,,,,,,,0,0,0,0,106,0,106,0,,,,,,,106,,,1,2213.7604175707093,Y,l,go,l,1,0.36067191179608926,,,,,,,,,,,,,,,,,,26,001,27,m,"75% Bildungswissenschaft, 25% Psychologie",2023-01-17_10h36.36.570,00_bat_bachelor,2022.2.4,59.93011788067668,
,,,,,,,,,,,,0,0,0,0,107,0,107,0,,,,,,,107,,,1,2215.2284314043936,X,d,go,d,1,0.381079659491661,,,,,,,,,,,,,,,,,,26,001,27,m,"75% Bildungswissenschaft, 25% Psychologie",2023-01-17_10h36.36.570,00_bat_bachelor,2022.2.4,59.93011788067668,
,,,,,,,,,,,,0,0,0,0,108,0,108,0,,,,,,,108,,,1,2216.7129727452266,Y,l,go,l,1,0.31927071974496357,,,,,,,,,,,,,,,,,,26,001,27,m,"75% Bildungswissenschaft, 25% Psychologie",2023-01-17_10h36.36.570,00_bat_bachelor,2022.2.4,59.93011788067668,
,,,,,,,,,,,,0,0,0,0,109,0,109,0,,,,,,,109,,,1,2218.1473788376315,X,d,go,d,1,0.3417284058377845,,,,,,,,,,,,,,,,,,26,001,27,m,"75% Bildungswissenschaft, 25% Psychologie",2023-01-17_10h36.36.570,00_bat_bachelor,2022.2.4,59.93011788067668,
,,,,,,,,,,,,0,0,0,0,110,0,110,0,,,,,,,110,,,1,2219.5982193463133,X,None,nogo,None,1,,,,,,,,,,,,,,,,,,,26,001,27,m,"75% Bildungswissenschaft, 25% Psychologie",2023-01-17_10h36.36.570,00_bat_bachelor,2022.2.4,59.93011788067668,
,,,,,,,,,,,,0,0,0,0,111,0,111,0,,,,,,,111,,,1,2221.399575078991,Y,l,go,l,1,0.4327019374759402,,,,,,,,,,,,,,,,,,26,001,27,m,"75% Bildungswissenschaft, 25% Psychologie",2023-01-17_10h36.36.570,00_bat_bachelor,2022.2.4,59.93011788067668,
,,,,,,,,,,,,0,0,0,0,112,0,112,0,,,,,,,112,,,1,2222.9343845166586,X,d,go,d,1,0.40221419469162356,,,,,,,,,,,,,,,,,,26,001,27,m,"75% Bildungswissenschaft, 25% Psychologie",2023-01-17_10h36.36.570,00_bat_bachelor,2022.2.4,59.93011788067668,
,,,,,,,,,,,,0,0,0,0,113,0,113,0,,,,,,,113,,,1,2224.4522223261883,Y,l,go,l,1,0.29204600567754824,,,,,,,,,,,,,,,,,,26,001,27,m,"75% Bildungswissenschaft, 25% Psychologie",2023-01-17_10h36.36.570,00_bat_bachelor,2022.2.4,59.93011788067668,
,,,,,,,,,,,,0,0,0,0,114,0,114,0,,,,,,,114,,,1,2225.8533057680906,X,d,go,d,1,0.2997095171158435,,,,,,,,,,,,,,,,,,26,001,27,m,"75% Bildungswissenschaft, 25% Psychologie",2023-01-17_10h36.36.570,00_bat_bachelor,2022.2.4,59.93011788067668,
,,,,,,,,,,,,0,0,0,0,115,0,115,0,,,,,,,115,,,1,2227.2540420586447,X,None,nogo,None,1,,,,,,,,,,,,,,,,,,,26,001,27,m,"75% Bildungswissenschaft, 25% Psychologie",2023-01-17_10h36.36.570,00_bat_bachelor,2022.2.4,59.93011788067668,
,,,,,,,,,,,,0,0,0,0,116,0,116,0,,,,,,,116,,,1,2229.0557337911596,Y,l,go,l,1,0.21637767873471603,,,,,,,,,,,,,,,,,,26,001,27,m,"75% Bildungswissenschaft, 25% Psychologie",2023-01-17_10h36.36.570,00_bat_bachelor,2022.2.4,59.93011788067668,
,,,,,,,,,,,,0,0,0,0,117,0,117,0,,,,,,,117,,,1,2230.373370970483,X,d,go,d,1,0.34015895205084234,,,,,,,,,,,,,,,,,,26,001,27,m,"75% Bildungswissenschaft, 25% Psychologie",2023-01-17_10h36.36.570,00_bat_bachelor,2022.2.4,59.93011788067668,
,,,,,,,,,,,,0,0,0,0,118,0,118,0,,,,,,,118,,,1,2231.824306024573,X,None,nogo,None,1,,,,,2232.625068302994,,,,,,,,,,,,,,26,001,27,m,"75% Bildungswissenschaft, 25% Psychologie",2023-01-17_10h36.36.570,00_bat_bachelor,2022.2.4,59.93011788067668,
,,,,,,,,,,,,0,0,0,0,119,0,119,0,,,,,,,119,,,1,2233.625890605632,Y,l,go,l,1,0.19149720594577957,,,,,,,,,,,,,,,,,,26,001,27,m,"75% Bildungswissenschaft, 25% Psychologie",2023-01-17_10h36.36.570,00_bat_bachelor,2022.2.4,59.93011788067668,
,,,,,,,,,,,,0,0,0,0,120,0,120,0,,,,,,,120,,,1,2234.9269091263413,X,d,go,d,1,0.3631155469774967,,,,,,,,,,,,,,,,,,26,001,27,m,"75% Bildungswissenschaft, 25% Psychologie",2023-01-17_10h36.36.570,00_bat_bachelor,2022.2.4,59.93011788067668,
,,,,,,,,,,,,0,0,0,0,121,0,121,0,,,,,,,121,,,1,2236.394399808778,Y,l,go,l,1,0.3022011522698449,,,,,,,,,,,,,,,,,,26,001,27,m,"75% Bildungswissenschaft, 25% Psychologie",2023-01-17_10h36.36.570,00_bat_bachelor,2022.2.4,59.93011788067668,
,,,,,,,,,,,,0,0,0,0,122,0,122,0,,,,,,,122,,,1,2237.8123210606864,X,d,go,d,1,0.2457197251060279,,,,,,,,,,,,,,,,,,26,001,27,m,"75% Bildungswissenschaft, 25% Psychologie",2023-01-17_10h36.36.570,00_bat_bachelor,2022.2.4,59.93011788067668,
,,,,,,,,,,,,0,0,0,0,123,0,123,0,,,,,,,123,,,1,2239.1633754359354,X,None,nogo,None,1,,,,,,,,,,,,,,,,,,,26,001,27,m,"75% Bildungswissenschaft, 25% Psychologie",2023-01-17_10h36.36.570,00_bat_bachelor,2022.2.4,59.93011788067668,
,,,,,,,,,,,,0,0,0,0,124,0,124,0,,,,,,,124,,,1,2240.9648005019117,Y,l,go,l,1,0.21266810478118714,,,,,,,,,,,,,,,,,,26,001,27,m,"75% Bildungswissenschaft, 25% Psychologie",2023-01-17_10h36.36.570,00_bat_bachelor,2022.2.4,59.93011788067668,
,,,,,,,,,,,,0,0,0,0,125,0,125,0,,,,,,,125,,,1,2242.2823882267257,X,d,go,d,1,0.366287909069797,,,,,,,,,,,,,,,,,,26,001,27,m,"75% Bildungswissenschaft, 25% Psychologie",2023-01-17_10h36.36.570,00_bat_bachelor,2022.2.4,59.93011788067668,
,,,,,,,,,,,,0,0,0,0,126,0,126,0,,,,,,,126,,,1,2243.7501698181004,Y,l,go,l,1,0.3065948471194133,,,,,,,,,,,,,,,,,,26,001,27,m,"75% Bildungswissenschaft, 25% Psychologie",2023-01-17_10h36.36.570,00_bat_bachelor,2022.2.4,59.93011788067668,
,,,,,,,,,,,,0,0,0,0,127,0,127,0,,,,,,,127,,,1,2245.168129857877,X,d,go,d,1,0.4080309191340348,,,,,,,,,,,,,,,,,,26,001,27,m,"75% Bildungswissenschaft, 25% Psychologie",2023-01-17_10h36.36.570,00_bat_bachelor,2022.2.4,59.93011788067668,
,,,,,,,,,,,,0,0,0,0,128,0,128,0,,,,,,,128,,,1,2246.6858222129376,X,None,nogo,None,1,,,,,,,,,,,,,,,,,,,26,001,27,m,"75% Bildungswissenschaft, 25% Psychologie",2023-01-17_10h36.36.570,00_bat_bachelor,2022.2.4,59.93011788067668,
,,,,,,,,,,,,0,0,0,0,129,0,129,0,,,,,,,129,,,1,2248.4868996427103,Y,l,go,l,1,0.21000871212163474,,,,,,,,,,,,,,,,,,26,001,27,m,"75% Bildungswissenschaft, 25% Psychologie",2023-01-17_10h36.36.570,00_bat_bachelor,2022.2.4,59.93011788067668,
,,,,,,,,,,,,0,0,0,0,130,0,130,0,,,,,,,130,,,1,2249.8046459128964,X,d,go,d,1,0.3958689856372075,,,,,,,,,,,,,,,,,,26,001,27,m,"75% Bildungswissenschaft, 25% Psychologie",2023-01-17_10h36.36.570,00_bat_bachelor,2022.2.4,59.93011788067668,
,,,,,,,,,,,,0,0,0,0,131,0,131,0,,,,,,,131,,,1,2251.3059276092536,X,None,nogo,None,1,,,,,,,,,,,,,,,,,,,26,001,27,m,"75% Bildungswissenschaft, 25% Psychologie",2023-01-17_10h36.36.570,00_bat_bachelor,2022.2.4,59.93011788067668,
,,,,,,,,,,,,0,0,0,0,132,0,132,0,,,,,,,132,,,1,2253.107305160098,X,None,nogo,l,0,0.1818928469583625,,,,,,,,,,,,,,,,,,26,001,27,m,"75% Bildungswissenschaft, 25% Psychologie",2023-01-17_10h36.36.570,00_bat_bachelor,2022.2.4,59.93011788067668,
,,,,,,,,,,,,0,0,0,0,133,0,133,0,,,,,,,133,,,1,2254.3913922950887,Y,l,go,None,0,,,,,,,,,,,,,,,,,,,26,001,27,m,"75% Bildungswissenschaft, 25% Psychologie",2023-01-17_10h36.36.570,00_bat_bachelor,2022.2.4,59.93011788067668,
,,,,,,,,,,,,0,0,0,0,134,0,134,0,,,,,,,134,,,1,2256.192957967054,X,d,go,d,1,0.6327168708085082,,,,,,,,,,,,,,,,,,26,001,27,m,"75% Bildungswissenschaft, 25% Psychologie",2023-01-17_10h36.36.570,00_bat_bachelor,2022.2.4,59.93011788067668,
,,,,,,,,,,,,0,0,0,0,135,0,135,0,,,,,,,135,,,1,2257.927367307944,Y,l,go,l,1,0.433145088783931,,,,,,,,,,,,,,,,,,26,001,27,m,"75% Bildungswissenschaft, 25% Psychologie",2023-01-17_10h36.36.570,00_bat_bachelor,2022.2.4,59.93011788067668,
,,,,,,,,,,,,0,0,0,0,136,0,136,0,,,,,,,136,,,1,2259.462201957722,X,d,go,d,1,0.3385158013261389,,,,,,,,,,,,,,,,,,26,001,27,m,"75% Bildungswissenschaft, 25% Psychologie",2023-01-17_10h36.36.570,00_bat_bachelor,2022.2.4,59.93011788067668,
,,,,,,,,,,,,0,0,0,0,137,0,137,0,,,,,,,137,,,1,2260.9132344663085,Y,l,go,l,1,0.3595373668940738,,,,,,,,,,,,,,,,,,26,001,27,m,"75% Bildungswissenschaft, 25% Psychologie",2023-01-17_10h36.36.570,00_bat_bachelor,2022.2.4,59.93011788067668,
,,,,,,,,,,,,0,0,0,0,138,0,138,0,,,,,,,138,,,1,2262.380903088051,Y,None,nogo,None,1,,,,,,,,,,,,,,,,,,,26,001,27,m,"75% Bildungswissenschaft, 25% Psychologie",2023-01-17_10h36.36.570,00_bat_bachelor,2022.2.4,59.93011788067668,
,,,,,,,,,,,,0,0,0,0,139,0,139,0,,,,,,,139,,,1,2264.182430941859,X,d,go,d,1,0.4023257097869646,,,,,,,,,,,,,,,,,,26,001,27,m,"75% Bildungswissenschaft, 25% Psychologie",2023-01-17_10h36.36.570,00_bat_bachelor,2022.2.4,59.93011788067668,
,,,,,,,,,,,,0,0,0,0,140,0,140,0,,,,,,,140,,,1,2265.7002464483667,Y,l,go,None,0,,,,,2266.5008409692964,,,,,,,,,,,,,,26,001,27,m,"75% Bildungswissenschaft, 25% Psychologie",2023-01-17_10h36.36.570,00_bat_bachelor,2022.2.4,59.93011788067668,
,,,,,,,,,,,,0,0,0,0,141,0,141,0,,,,,,,141,,,1,2267.5017418173375,X,d,go,d,1,0.44272132657351904,,,,,,,,,,,,,,,,,,26,001,27,m,"75% Bildungswissenschaft, 25% Psychologie",2023-01-17_10h36.36.570,00_bat_bachelor,2022.2.4,59.93011788067668,
,,,,,,,,,,,,0,0,0,0,142,0,142,0,,,,,,,142,,,1,2269.052821792575,Y,l,go,l,1,0.25199657055782154,,,,,,,,,,,,,,,,,,26,001,27,m,"75% Bildungswissenschaft, 25% Psychologie",2023-01-17_10h36.36.570,00_bat_bachelor,2022.2.4,59.93011788067668,
,,,,,,,,,,,,0,0,0,0,143,0,143,0,,,,,,,143,,,1,2270.420497735511,X,d,go,d,1,0.5325423739268444,,,,,,,,,,,,,,,,,,26,001,27,m,"75% Bildungswissenschaft, 25% Psychologie",2023-01-17_10h36.36.570,00_bat_bachelor,2022.2.4,59.93011788067668,
,,,,,,,,,,,,0,0,0,0,144,0,144,0,,,,,,,144,,,1,2272.055089427842,Y,l,go,l,1,0.35344912741857115,,,,,,,,,,,,,,,,,,26,001,27,m,"75% Bildungswissenschaft, 25% Psychologie",2023-01-17_10h36.36.570,00_bat_bachelor,2022.2.4,59.93011788067668,
,,,,,,,,,,,,0,0,0,0,145,0,145,0,,,,,,,145,,,1,2273.5228535646747,X,d,go,d,1,0.34105301222007256,,,,,,,,,,,,,,,,,,26,001,27,m,"75% Bildungswissenschaft, 25% Psychologie",2023-01-17_10h36.36.570,00_bat_bachelor,2022.2.4,59.93011788067668,
,,,,,,,,,,,,0,0,0,0,146,0,146,0,,,,,,,146,,,1,2274.974026679265,X,None,nogo,None,1,,,,,,,,,,,,,,,,,,,26,001,27,m,"75% Bildungswissenschaft, 25% Psychologie",2023-01-17_10h36.36.570,00_bat_bachelor,2022.2.4,59.93011788067668,
,,,,,,,,,,,,0,0,0,0,147,0,147,0,,,,,,,147,,,1,2276.775401805862,Y,l,go,l,1,0.417351641895948,,,,,,,,,,,,,,,,,,26,001,27,m,"75% Bildungswissenschaft, 25% Psychologie",2023-01-17_10h36.36.570,00_bat_bachelor,2022.2.4,59.93011788067668,
,,,,,,,,,,,,0,0,0,0,148,0,148,0,,,,,,,148,,,1,2278.309829183112,X,d,go,d,1,0.2586995976016624,,,,,,,,,,,,,,,,,,26,001,27,m,"75% Bildungswissenschaft, 25% Psychologie",2023-01-17_10h36.36.570,00_bat_bachelor,2022.2.4,59.93011788067668,
,,,,,,,,,,,,0,0,0,0,149,0,149,0,,,,,,,149,,,1,2279.6775987017754,Y,l,go,l,1,0.3155276912730187,,,,,,,,,,,,,,,,,,26,001,27,m,"75% Bildungswissenschaft, 25% Psychologie",2023-01-17_10h36.36.570,00_bat_bachelor,2022.2.4,59.93011788067668,
,,,,,,,,,,,,0,0,0,0,150,0,150,0,,,,,,,150,,,1,2281.0951669841597,X,d,go,d,1,0.2412280909193214,,,,,,,,,,,,,,,,,,26,001,27,m,"75% Bildungswissenschaft, 25% Psychologie",2023-01-17_10h36.36.570,00_bat_bachelor,2022.2.4,59.93011788067668,
,,,,,,,,,,,,0,0,0,0,151,0,151,0,,,,,,,151,,,1,2282.446417722953,Y,l,go,l,1,0.586086105540744,,,,,,,,,,,,,,,,,,26,001,27,m,"75% Bildungswissenschaft, 25% Psychologie",2023-01-17_10h36.36.570,00_bat_bachelor,2022.2.4,59.93011788067668,
,,,,,,,,,,,,0,0,0,0,152,0,152,0,,,,,,,152,,,1,2284.1474278073147,Y,None,nogo,None,1,,,,,,,,,,,,,,,,,,,26,001,27,m,"75% Bildungswissenschaft, 25% Psychologie",2023-01-17_10h36.36.570,00_bat_bachelor,2022.2.4,59.93011788067668,
,,,,,,,,,,,,0,0,0,0,153,0,153,0,,,,,,,153,,,1,2285.9490676610585,X,d,go,d,1,0.36297445614764,,,,,,,,,,,,,,,,,,26,001,27,m,"75% Bildungswissenschaft, 25% Psychologie",2023-01-17_10h36.36.570,00_bat_bachelor,2022.2.4,59.93011788067668,
,,,,,,,,,,,,0,0,0,0,154,0,154,0,,,,,,,154,,,1,2287.416761494911,Y,l,go,l,1,0.25662493193522096,,,,,,,,,,,,,,,,,,26,001,27,m,"75% Bildungswissenschaft, 25% Psychologie",2023-01-17_10h36.36.570,00_bat_bachelor,2022.2.4,59.93011788067668,
,,,,,,,,,,,,0,0,0,0,155,0,155,0,,,,,,,155,,,1,2288.7842265288637,X,d,go,d,1,0.23160676225961652,,,,,,,,,,,,,,,,,,26,001,27,m,"75% Bildungswissenschaft, 25% Psychologie",2023-01-17_10h36.36.570,00_bat_bachelor,2022.2.4,59.93011788067668,
,,,,,,,,,,,,0,0,0,0,156,0,156,0,,,,,,,156,,,1,2290.1188925484166,Y,l,go,l,1,0.3379548319062451,,,,,,,,,,,,,,,,,,26,001,27,m,"75% Bildungswissenschaft, 25% Psychologie",2023-01-17_10h36.36.570,00_bat_bachelor,2022.2.4,59.93011788067668,
,,,,,,,,,,,,0,0,0,0,157,0,157,0,,,,,,,157,,,1,2291.569738875274,Y,None,nogo,None,1,,,,,2292.370490002184,,,,,,,,,,,,,,26,001,27,m,"75% Bildungswissenschaft, 25% Psychologie",2023-01-17_10h36.36.570,00_bat_bachelor,2022.2.4,59.93011788067668,
,,,,,,,,,,,,0,0,0,0,158,0,158,0,,,,,,,158,,,1,2293.3713670926663,X,d,go,d,1,0.20535998709965497,,,,,,,,,,,,,,,,,,26,001,27,m,"75% Bildungswissenschaft, 25% Psychologie",2023-01-17_10h36.36.570,00_bat_bachelor,2022.2.4,59.93011788067668,
,,,,,,,,,,,,0,0,0,0,159,0,159,0,,,,,,,159,,,1,2294.6890246356197,Y,l,go,l,1,0.24885572357743513,,,,,,,,,,,,,,,,,,26,001,27,m,"75% Bildungswissenschaft, 25% Psychologie",2023-01-17_10h36.36.570,00_bat_bachelor,2022.2.4,59.93011788067668,
,,,,,,,,,,,,0,0,0,0,160,0,160,0,,,,,,,160,,,1,2296.0398593746067,X,d,go,d,1,0.6566131016443251,,,,,,,,,,,,,,,,,,26,001,27,m,"75% Bildungswissenschaft, 25% Psychologie",2023-01-17_10h36.36.570,00_bat_bachelor,2022.2.4,59.93011788067668,
,,,,,,,,,,,,0,0,0,0,161,0,161,0,,,,,,,161,,,1,2297.808146517258,Y,l,go,l,1,0.2968319427454844,,,,,,,,,,,,,,,,,,26,001,27,m,"75% Bildungswissenschaft, 25% Psychologie",2023-01-17_10h36.36.570,00_bat_bachelor,2022.2.4,59.93011788067668,
,,,,,,,,,,,,0,0,0,0,162,0,162,0,,,,,,,162,,,1,2299.209140262232,Y,None,nogo,None,1,,,,,,,,,,,,,,,,,,,26,001,27,m,"75% Bildungswissenschaft, 25% Psychologie",2023-01-17_10h36.36.570,00_bat_bachelor,2022.2.4,59.93011788067668,
,,,,,,,,,,,,0,0,0,0,163,0,163,0,,,,,,,163,,,1,2301.010466419175,X,d,go,d,1,0.24628651270177215,,,,,,,,,,,,,,,,,,26,001,27,m,"75% Bildungswissenschaft, 25% Psychologie",2023-01-17_10h36.36.570,00_bat_bachelor,2022.2.4,59.93011788067668,
,,,,,,,,,,,,0,0,0,0,164,0,164,0,,,,,,,164,,,1,2302.36123812788,Y,l,go,l,1,0.544360065163346,,,,,,,,,,,,,,,,,,26,001,27,m,"75% Bildungswissenschaft, 25% Psychologie",2023-01-17_10h36.36.570,00_bat_bachelor,2022.2.4,59.93011788067668,
,,,,,,,,,,,,0,0,0,0,165,0,165,0,,,,,,,165,,,1,2304.012704963534,Y,None,nogo,None,1,,,,,,,,,,,,,,,,,,,26,001,27,m,"75% Bildungswissenschaft, 25% Psychologie",2023-01-17_10h36.36.570,00_bat_bachelor,2022.2.4,59.93011788067668,
,,,,,,,,,,,,0,0,0,0,166,0,166,0,,,,,,,166,,,1,2305.8143065142795,X,d,go,d,1,0.2272382795199519,,,,,,,,,,,,,,,,,,26,001,27,m,"75% Bildungswissenschaft, 25% Psychologie",2023-01-17_10h36.36.570,00_bat_bachelor,2022.2.4,59.93011788067668,
,,,,,,,,,,,,0,0,0,0,167,0,167,0,,,,,,,167,,,1,2307.148442109843,Y,l,go,l,1,0.26731438130082097,,,,,,,,,,,,,,,,,,26,001,27,m,"75% Bildungswissenschaft, 25% Psychologie",2023-01-17_10h36.36.570,00_bat_bachelor,2022.2.4,59.93011788067668,
,,,,,,,,,,,,0,0,0,0,168,0,168,0,,,,,,,168,,,1,2308.532660590223,X,d,go,d,1,0.26080917235231027,,,,,,,,,,,,,,,,,,26,001,27,m,"75% Bildungswissenschaft, 25% Psychologie",2023-01-17_10h36.36.570,00_bat_bachelor,2022.2.4,59.93011788067668,
,,,,,,,,,,,,0,0,0,0,169,0,169,0,,,,,,,169,,,1,2309.9007893814414,X,None,nogo,l,0,0.23596894195361529,,,,,,,,,,,,,,,,,,26,001,27,m,"75% Bildungswissenschaft, 25% Psychologie",2023-01-17_10h36.36.570,00_bat_bachelor,2022.2.4,59.93011788067668,
,,,,,,,,,,,,0,0,0,0,170,0,170,0,,,,,,,170,,,1,2311.251678423432,Y,l,go,None,0,,,,,,,,,,,,,,,,,,,26,001,27,m,"75% Bildungswissenschaft, 25% Psychologie",2023-01-17_10h36.36.570,00_bat_bachelor,2022.2.4,59.93011788067668,
,,,,,,,,,,,,0,0,0,0,171,0,171,0,,,,,,,171,,,1,2313.0531621560367,X,d,go,d,1,0.21961452564573847,,,,,,,,,,,,,,,,,,26,001,27,m,"75% Bildungswissenschaft, 25% Psychologie",2023-01-17_10h36.36.570,00_bat_bachelor,2022.2.4,59.93011788067668,
,,,,,,,,,,,,0,0,0,0,172,0,172,0,,,,,,,172,,,1,2314.3873035697907,X,None,nogo,None,1,,,,,,,,,,,,,,,,,,,26,001,27,m,"75% Bildungswissenschaft, 25% Psychologie",2023-01-17_10h36.36.570,00_bat_bachelor,2022.2.4,59.93011788067668,
,,,,,,,,,,,,0,0,0,0,173,0,173,0,,,,,,,173,,,1,2316.1887979690655,Y,l,go,l,1,0.34905931136745494,,,,,,,,,,,,,,,,,,26,001,27,m,"75% Bildungswissenschaft, 25% Psychologie",2023-01-17_10h36.36.570,00_bat_bachelor,2022.2.4,59.93011788067668,
,,,,,,,,,,,,0,0,0,0,174,0,174,0,,,,,,,174,,,1,2317.639538114163,X,d,go,d,1,0.27366056003666017,,,,,,,,,,,,,,,,,,26,001,27,m,"75% Bildungswissenschaft, 25% Psychologie",2023-01-17_10h36.36.570,00_bat_bachelor,2022.2.4,59.93011788067668,
,,,,,,,,,,,,0,0,0,0,175,0,175,0,,,,,,,175,,,1,2319.0243796245486,Y,l,go,l,1,0.28088819290860556,,,,,,,,,,,,,,,,,,26,001,27,m,"75% Bildungswissenschaft, 25% Psychologie",2023-01-17_10h36.36.570,00_bat_bachelor,2022.2.4,59.93011788067668,
,,,,,,,,,,,,0,0,0,0,176,0,176,0,,,,,,,176,,,1,2320.4083445292927,Y,None,nogo,None,1,,,,,,,,,,,,,,,,,,,26,001,27,m,"75% Bildungswissenschaft, 25% Psychologie",2023-01-17_10h36.36.570,00_bat_bachelor,2022.2.4,59.93011788067668,
,,,,,,,,,,,,0,0,0,0,177,0,177,0,,,,,,,177,,,1,2322.210085231476,X,d,go,d,1,0.29458515596343204,,,,,,,,,,,,,,,,,,26,001,27,m,"75% Bildungswissenschaft, 25% Psychologie",2023-01-17_10h36.36.570,00_bat_bachelor,2022.2.4,59.93011788067668,
,,,,,,,,,,,,0,0,0,0,178,0,178,0,,,,,,,178,,,1,2323.611031946173,Y,l,go,l,1,0.3011863648862345,,,,,,,,,,,,,,,,,,26,001,27,m,"75% Bildungswissenschaft, 25% Psychologie",2023-01-17_10h36.36.570,00_bat_bachelor,2022.2.4,59.93011788067668,
,,,,,,,,,,,,0,0,0,0,179,0,179,0,,,,,,,179,,,1,2325.0455364627705,X,d,go,d,1,0.35449979358236305,,,,,,,,,,,,,,,,,,26,001,27,m,"75% Bildungswissenschaft, 25% Psychologie",2023-01-17_10h36.36.570,00_bat_bachelor,2022.2.4,59.93011788067668,
,,,,,,,,,,,,0,0,0,0,180,0,180,0,,,,,,,180,,,1,2326.51300435733,Y,l,go,None,0,,,,,2327.3137899084686,,,,,,,,,,,,,,26,001,27,m,"75% Bildungswissenschaft, 25% Psychologie",2023-01-17_10h36.36.570,00_bat_bachelor,2022.2.4,59.93011788067668,
,,,,,,,,,,,,0,0,0,0,181,0,181,0,,,,,,,181,,,1,2328.3143780293904,Y,None,nogo,None,1,,,,,,,,,,,,,,,,,,,26,001,27,m,"75% Bildungswissenschaft, 25% Psychologie",2023-01-17_10h36.36.570,00_bat_bachelor,2022.2.4,59.93011788067668,
,,,,,,,,,,,,0,0,0,0,182,0,182,0,,,,,,,182,,,1,2330.1159718225535,X,d,go,d,1,0.3246995656081708,,,,,,,,,,,,,,,,,,26,001,27,m,"75% Bildungswissenschaft, 25% Psychologie",2023-01-17_10h36.36.570,00_bat_bachelor,2022.2.4,59.93011788067668,
,,,,,,,,,,,,0,0,0,0,183,0,183,0,,,,,,,183,,,1,2331.550160218103,Y,l,go,l,1,0.24969499591679778,,,,,,,,,,,,,,,,,,26,001,27,m,"75% Bildungswissenschaft, 25% Psychologie",2023-01-17_10h36.36.570,00_bat_bachelor,2022.2.4,59.93011788067668,
,,,,,,,,,,,,0,0,0,0,184,0,184,0,,,,,,,184,,,1,2332.9011947145773,X,d,go,d,1,0.3707160281483084,,,,,,,,,,,,,,,,,,26,001,27,m,"75% Bildungswissenschaft, 25% Psychologie",2023-01-17_10h36.36.570,00_bat_bachelor,2022.2.4,59.93011788067668,
,,,,,,,,,,,,0,0,0,0,185,0,185,0,,,,,,,185,,,1,2334.3860647825204,X,None,nogo,None,1,,,,,,,,,,,,,,,,,,,26,001,27,m,"75% Bildungswissenschaft, 25% Psychologie",2023-01-17_10h36.36.570,00_bat_bachelor,2022.2.4,59.93011788067668,
,,,,,,,,,,,,0,0,0,0,186,0,186,0,,,,,,,186,,,1,2336.187248394068,Y,l,go,l,1,0.33384428844146896,,,,,,,,,,,,,,,,,,26,001,27,m,"75% Bildungswissenschaft, 25% Psychologie",2023-01-17_10h36.36.570,00_bat_bachelor,2022.2.4,59.93011788067668,
,,,,,,,,,,,,0,0,0,0,187,0,187,0,,,,,,,187,,,1,2337.6216826076707,X,d,go,d,1,0.3874185655004112,,,,,,,,,,,,,,,,,,26,001,27,m,"75% Bildungswissenschaft, 25% Psychologie",2023-01-17_10h36.36.570,00_bat_bachelor,2022.2.4,59.93011788067668,
,,,,,,,,,,,,0,0,0,0,188,0,188,0,,,,,,,188,,,1,2339.1226055163133,Y,l,go,l,1,0.3577957919915207,,,,,,,,,,,,,,,,,,26,001,27,m,"75% Bildungswissenschaft, 25% Psychologie",2023-01-17_10h36.36.570,00_bat_bachelor,2022.2.4,59.93011788067668,
,,,,,,,,,,,,0,0,0,0,189,0,189,0,,,,,,,189,,,1,2340.590365774362,X,d,go,d,1,0.3621351838228293,,,,,,,,,,,,,,,,,,26,001,27,m,"75% Bildungswissenschaft, 25% Psychologie",2023-01-17_10h36.36.570,00_bat_bachelor,2022.2.4,59.93011788067668,
,,,,,,,,,,,,0,0,0,0,190,0,190,0,,,,,,,190,,,1,2342.0584077292588,Y,l,go,None,0,,,,,,,,,,,,,,,,,,,26,001,27,m,"75% Bildungswissenschaft, 25% Psychologie",2023-01-17_10h36.36.570,00_bat_bachelor,2022.2.4,59.93011788067668,
,,,,,,,,,,,,0,0,0,0,191,0,191,0,,,,,,,191,,,1,2343.8597159468045,X,d,go,d,1,0.37274269382760394,,,,,,,,,,,,,,,,,,26,001,27,m,"75% Bildungswissenschaft, 25% Psychologie",2023-01-17_10h36.36.570,00_bat_bachelor,2022.2.4,59.93011788067668,
,,,,,,,,,,,,0,0,0,0,192,0,192,0,,,,,,,192,,,1,2345.344223348249,X,None,nogo,l,0,0.31271799565001857,,,,,,,,,,,,,,,,,,26,001,27,m,"75% Bildungswissenschaft, 25% Psychologie",2023-01-17_10h36.36.570,00_bat_bachelor,2022.2.4,59.93011788067668,
,,,,,,,,,,,,0,0,0,0,193,0,193,0,,,,,,,193,,,1,2346.7620481153717,Y,l,go,None,0,,,,,,,,,,,,,,,,,,,26,001,27,m,"75% Bildungswissenschaft, 25% Psychologie",2023-01-17_10h36.36.570,00_bat_bachelor,2022.2.4,59.93011788067668,
,,,,,,,,,,,,0,0,0,0,194,0,194,0,,,,,,,194,,,1,2348.5633946359303,X,d,go,d,1,0.21365622550365515,,,,,,,,,,,,,,,,,,26,001,27,m,"75% Bildungswissenschaft, 25% Psychologie",2023-01-17_10h36.36.570,00_bat_bachelor,2022.2.4,59.93011788067668,
,,,,,,,,,,,,0,0,0,0,195,0,195,0,,,,,,,195,,,1,2349.8811074515834,Y,l,go,l,1,0.27266225749917794,,,,,,,,,,,,,,,,,,26,001,27,m,"75% Bildungswissenschaft, 25% Psychologie",2023-01-17_10h36.36.570,00_bat_bachelor,2022.2.4,59.93011788067668,
,,,,,,,,,,,,0,0,0,0,196,0,196,0,,,,,,,196,,,1,2351.2654505379614,X,d,go,d,1,0.45551550218078773,,,,,,,,,,,,,,,,,,26,001,27,m,"75% Bildungswissenschaft, 25% Psychologie",2023-01-17_10h36.36.570,00_bat_bachelor,2022.2.4,59.93011788067668,
,,,,,,,,,,,,0,0,0,0,197,0,197,0,,,,,,,197,,,1,2352.8330245658,X,None,nogo,None,1,,,,,2353.633943935056,,,,,,,,,,,,,,26,001,27,m,"75% Bildungswissenschaft, 25% Psychologie",2023-01-17_10h36.36.570,00_bat_bachelor,2022.2.4,59.93011788067668,
,,,,,,,,,,,,0,0,0,0,198,0,198,0,,,,,,,198,,,1,2354.634652783192,Y,l,go,l,1,0.19013138843001798,,,,,,,,,,,,,,,,,,26,001,27,m,"75% Bildungswissenschaft, 25% Psychologie",2023-01-17_10h36.36.570,00_bat_bachelor,2022.2.4,59.93011788067668,
,,,,,,,,,,,,0,0,0,0,199,0,199,0,,,,,,,199,,,1,2355.9356436675735,X,d,go,d,1,0.3298433206800837,,,,,,,,,,,,,,,,,,26,001,27,m,"75% Bildungswissenschaft, 25% Psychologie",2023-01-17_10h36.36.570,00_bat_bachelor,2022.2.4,59.93011788067668,
,,,,,,,,,,,,0,0,0,0,200,0,200,0,,,,,,,200,,,1,2357.3698107297823,Y,l,go,l,1,0.36629760604409967,,,,,,,,,,,,,,,,,,26,001,27,m,"75% Bildungswissenschaft, 25% Psychologie",2023-01-17_10h36.36.570,00_bat_bachelor,2022.2.4,59.93011788067668,
,,,,,,,,,,,,0,0,0,0,201,0,201,0,,,,,,,201,,,1,2358.8379986240034,Y,None,nogo,None,1,,,,,2359.6382130238926,,,,,,,,,,,,,,26,001,27,m,"75% Bildungswissenschaft, 25% Psychologie",2023-01-17_10h36.36.570,00_bat_bachelor,2022.2.4,59.93011788067668,
,,,,,,,,,,,,0,0,0,0,202,0,202,0,,,,,,,202,,,1,2360.6390091447247,X,d,go,d,1,0.2656760790705448,,,,,,,,,,,,,,,,,,26,001,27,m,"75% Bildungswissenschaft, 25% Psychologie",2023-01-17_10h36.36.570,00_bat_bachelor,2022.2.4,59.93011788067668,
,,,,,,,,,,,,0,0,0,0,203,0,203,0,,,,,,,203,,,1,2362.0070104208426,Y,l,go,l,1,0.38482656674750615,,,,,,,,,,,,,,,,,,26,001,27,m,"75% Bildungswissenschaft, 25% Psychologie",2023-01-17_10h36.36.570,00_bat_bachelor,2022.2.4,59.93011788067668,
,,,,,,,,,,,,0,0,0,0,204,0,204,0,,,,,,,204,,,1,2363.5080831475934,Y,None,nogo,None,1,,,,,,,,,,,,,,,,,,,26,001,27,m,"75% Bildungswissenschaft, 25% Psychologie",2023-01-17_10h36.36.570,00_bat_bachelor,2022.2.4,59.93011788067668,
,,,,,,,,,,,,0,0,0,0,205,0,205,0,,,,,,,205,,,1,2365.3093472439505,X,d,go,d,1,0.26759413874242455,,,,,,,,,,,,,,,,,,26,001,27,m,"75% Bildungswissenschaft, 25% Psychologie",2023-01-17_10h36.36.570,00_bat_bachelor,2022.2.4,59.93011788067668,
,,,,,,,,,,,,0,0,0,0,206,0,206,0,,,,,,,206,,,1,2366.693788754521,Y,l,go,l,1,0.29029230956803076,,,,,,,,,,,,,,,,,,26,001,27,m,"75% Bildungswissenschaft, 25% Psychologie",2023-01-17_10h36.36.570,00_bat_bachelor,2022.2.4,59.93011788067668,
,,,,,,,,,,,,0,0,0,0,207,0,207,0,,,,,,,207,,,1,2368.094725287403,Y,None,nogo,None,1,,,,,,,,,,,,,,,,,,,26,001,27,m,"75% Bildungswissenschaft, 25% Psychologie",2023-01-17_10h36.36.570,00_bat_bachelor,2022.2.4,59.93011788067668,
,,,,,,,,,,,,0,0,0,0,208,0,208,0,,,,,,,208,,,1,2369.896028171628,X,d,go,d,1,0.2571534165326739,,,,,,,,,,,,,,,,,,26,001,27,m,"75% Bildungswissenschaft, 25% Psychologie",2023-01-17_10h36.36.570,00_bat_bachelor,2022.2.4,59.93011788067668,
,,,,,,,,,,,,0,0,0,0,209,0,209,0,,,,,,,209,,,1,2371.2637802357494,Y,l,go,l,1,0.32937447243602946,,,,,,,,,,,,,,,,,,26,001,27,m,"75% Bildungswissenschaft, 25% Psychologie",2023-01-17_10h36.36.570,00_bat_bachelor,2022.2.4,59.93011788067668,
,,,,,,,,,,,,0,0,0,0,210,0,210,0,,,,,,,210,,,1,2372.698415176521,X,d,go,None,0,,,,,2373.499125576185,,,,,,,,,,,,,,26,001,27,m,"75% Bildungswissenschaft, 25% Psychologie",2023-01-17_10h36.36.570,00_bat_bachelor,2022.2.4,59.93011788067668,
,,,,,,,,,,,,0,0,0,0,211,0,211,0,,,,,,,211,,,1,2374.499554182039,X,None,nogo,None,1,,,,,,,,,,,,,,,,,,,26,001,27,m,"75% Bildungswissenschaft, 25% Psychologie",2023-01-17_10h36.36.570,00_bat_bachelor,2022.2.4,59.93011788067668,
,,,,,,,,,,,,0,0,0,0,212,0,212,0,,,,,,,212,,,1,2376.301359369041,Y,l,go,l,1,0.348781978173065,,,,,,,,,,,,,,,,,,26,001,27,m,"75% Bildungswissenschaft, 25% Psychologie",2023-01-17_10h36.36.570,00_bat_bachelor,2022.2.4,59.93011788067668,
,,,,,,,,,,,,0,0,0,0,213,0,213,0,,,,,,,213,,,1,2377.7520195141697,X,d,go,d,1,0.4324924830434611,,,,,,,,,,,,,,,,,,26,001,27,m,"75% Bildungswissenschaft, 25% Psychologie",2023-01-17_10h36.36.570,00_bat_bachelor,2022.2.4,59.93011788067668,
,,,,,,,,,,,,0,0,0,0,214,0,214,0,,,,,,,214,,,1,2379.2868643457623,Y,l,go,l,1,0.25866226429934613,,,,,,,,,,,,,,,,,,26,001,27,m,"75% Bildungswissenschaft, 25% Psychologie",2023-01-17_10h36.36.570,00_bat_bachelor,2022.2.4,59.93011788067668,
,,,,,,,,,,,,0,0,0,0,215,0,215,0,,,,,,,215,,,1,2380.6542328949145,X,d,go,d,1,0.2662414121296024,,,,,,,,,,,,,,,,,,26,001,27,m,"75% Bildungswissenschaft, 25% Psychologie",2023-01-17_10h36.36.570,00_bat_bachelor,2022.2.4,59.93011788067668,
,,,,,,,,,,,,0,0,0,0,216,0,216,0,,,,,,,216,,,1,2382.0221750195487,Y,l,go,l,1,0.25825159781379625,,,,,,,,,,,,,,,,,,26,001,27,m,"75% Bildungswissenschaft, 25% Psychologie",2023-01-17_10h36.36.570,00_bat_bachelor,2022.2.4,59.93011788067668,
,,,,,,,,,,,,0,0,0,0,217,0,217,0,,,,,,,217,,,1,2383.3896764171222,Y,None,nogo,None,1,,,,,2384.190261725933,,,,,,,,,,,,,,26,001,27,m,"75% Bildungswissenschaft, 25% Psychologie",2023-01-17_10h36.36.570,00_bat_bachelor,2022.2.4,59.93011788067668,
,,,,,,,,,,,,0,0,0,0,218,0,218,0,,,,,,,218,,,1,2385.191018574056,X,d,go,d,1,0.22466470501967706,,,,,,,,,,,,,,,,,,26,001,27,m,"75% Bildungswissenschaft, 25% Psychologie",2023-01-17_10h36.36.570,00_bat_bachelor,2022.2.4,59.93011788067668,
,,,,,,,,,,,,0,0,0,0,219,0,219,0,,,,,,,219,,,1,2386.525730169349,Y,l,go,l,1,0.2510317225387553,,,,,,,,,,,,,,,,,,26,001,27,m,"75% Bildungswissenschaft, 25% Psychologie",2023-01-17_10h36.36.570,00_bat_bachelor,2022.2.4,59.93011788067668,
,,,,,,,,,,,,0,0,0,0,220,0,220,0,,,,,,,220,,,1,2387.8933295062598,X,d,go,d,1,0.4836910036683548,,,,,,,,,,,,,,,,,,26,001,27,m,"75% Bildungswissenschaft, 25% Psychologie",2023-01-17_10h36.36.570,00_bat_bachelor,2022.2.4,59.93011788067668,
,,,,,,,,,,,,0,0,0,0,221,0,221,0,,,,,,,221,,,1,2389.477904737985,X,None,nogo,None,1,,,,,2390.278249562063,,,,,,,,,,,,,,26,001,27,m,"75% Bildungswissenschaft, 25% Psychologie",2023-01-17_10h36.36.570,00_bat_bachelor,2022.2.4,59.93011788067668,
,,,,,,,,,,,,0,0,0,0,222,0,222,0,,,,,,,222,,,1,2391.2793264100183,Y,l,go,l,1,0.40943697906914167,,,,,,,,,,,,,,,,,,26,001,27,m,"75% Bildungswissenschaft, 25% Psychologie",2023-01-17_10h36.36.570,00_bat_bachelor,2022.2.4,59.93011788067668,
,,,,,,,,,,,,0,0,0,0,223,0,223,0,,,,,,,223,,,1,2392.797058037788,X,d,go,d,1,0.492098757167696,,,,,,,,,,,,,,,,,,26,001,27,m,"75% Bildungswissenschaft, 25% Psychologie",2023-01-17_10h36.36.570,00_bat_bachelor,2022.2.4,59.93011788067668,
,,,,,,,,,,,,0,0,0,0,224,0,224,0,,,,,,,224,,,1,2394.3982480493287,Y,l,go,l,1,0.3143170251714764,,,,,,,,,,,,,,,,,,26,001,27,m,"75% Bildungswissenschaft, 25% Psychologie",2023-01-17_10h36.36.570,00_bat_bachelor,2022.2.4,59.93011788067668,
,,,,,,,,,,,,0,0,0,0,225,0,225,0,,,,,,,225,,,1,2395.816267725444,X,d,go,d,1,0.3202952041028766,,,,,,,,,,,,,,,,,,26,001,27,m,"75% Bildungswissenschaft, 25% Psychologie",2023-01-17_10h36.36.570,00_bat_bachelor,2022.2.4,59.93011788067668,
,,,,,,,,,,,,0,0,0,0,226,0,226,0,,,,,,,226,,,1,2397.2502195150446,X,None,nogo,None,1,,,,,,,,,,,,,,,,,,,26,001,27,m,"75% Bildungswissenschaft, 25% Psychologie",2023-01-17_10h36.36.570,00_bat_bachelor,2022.2.4,59.93011788067668,
,,,,,,,,,,,,0,0,0,0,227,0,227,0,,,,,,,227,,,1,2399.0515742780262,Y,l,go,l,1,0.20511077510309406,,,,,,,,,,,,,,,,,,26,001,27,m,"75% Bildungswissenschaft, 25% Psychologie",2023-01-17_10h36.36.570,00_bat_bachelor,2022.2.4,59.93011788067668,
,,,,,,,,,,,,0,0,0,0,228,0,228,0,,,,,,,228,,,1,2400.3692177603807,X,d,go,None,0,,,,,,,,,,,,,,,,,,,26,001,27,m,"75% Bildungswissenschaft, 25% Psychologie",2023-01-17_10h36.36.570,00_bat_bachelor,2022.2.4,59.93011788067668,
,,,,,,,,,,,,0,0,0,0,229,0,229,0,,,,,,,229,,,1,2402.1706564021006,X,None,nogo,None,1,,,,,,,,,,,,,,,,,,,26,001,27,m,"75% Bildungswissenschaft, 25% Psychologie",2023-01-17_10h36.36.570,00_bat_bachelor,2022.2.4,59.93011788067668,
,,,,,,,,,,,,0,0,0,0,230,0,230,0,,,,,,,230,,,1,2403.9723171043297,Y,l,go,l,1,0.2923369146301411,,,,,,,,,,,,,,,,,,26,001,27,m,"75% Bildungswissenschaft, 25% Psychologie",2023-01-17_10h36.36.570,00_bat_bachelor,2022.2.4,59.93011788067668,
,,,,,,,,,,,,0,0,0,0,231,0,231,0,,,,,,,231,,,1,2405.373414606831,X,d,go,None,0,,,,,,,,,,,,,,,,,,,26,001,27,m,"75% Bildungswissenschaft, 25% Psychologie",2023-01-17_10h36.36.570,00_bat_bachelor,2022.2.4,59.93011788067668,
,,,,,,,,,,,,0,0,0,0,232,0,232,0,,,,,,,232,,,1,2407.17469615773,X,None,nogo,None,1,,,,,2407.975350314984,,,,,,,,,,,,,,26,001,27,m,"75% Bildungswissenschaft, 25% Psychologie",2023-01-17_10h36.36.570,00_bat_bachelor,2022.2.4,59.93011788067668,
,,,,,,,,,,,,0,0,0,0,233,0,233,0,,,,,,,233,,,1,2408.975792981437,Y,l,go,l,1,0.31374005576071795,,,,,,,,,,,,,,,,,,26,001,27,m,"75% Bildungswissenschaft, 25% Psychologie",2023-01-17_10h36.36.570,00_bat_bachelor,2022.2.4,59.93011788067668,
,,,,,,,,,,,,0,0,0,0,234,0,234,0,,,,,,,234,,,1,2410.393725384856,X,d,go,d,1,0.3985531055514002,,,,,,,,,,,,,,,,,,26,001,27,m,"75% Bildungswissenschaft, 25% Psychologie",2023-01-17_10h36.36.570,00_bat_bachelor,2022.2.4,59.93011788067668,
,,,,,,,,,,,,0,0,0,0,235,0,235,0,,,,,,,235,,,1,2411.895010475142,Y,l,go,l,1,0.3375441654352471,,,,,,,,,,,,,,,,,,26,001,27,m,"75% Bildungswissenschaft, 25% Psychologie",2023-01-17_10h36.36.570,00_bat_bachelor,2022.2.4,59.93011788067668,
,,,,,,,,,,,,0,0,0,0,236,0,236,0,,,,,,,236,,,1,2413.346186013965,X,d,go,None,0,,,,,,,,,,,,,,,,,,,26,001,27,m,"75% Bildungswissenschaft, 25% Psychologie",2023-01-17_10h36.36.570,00_bat_bachelor,2022.2.4,59.93011788067668,
,,,,,,,,,,,,0,0,0,0,237,0,237,0,,,,,,,237,,,1,2415.1474418679136,Y,l,go,l,1,0.2055035021767253,,,,,,,,,,,,,,,,,,26,001,27,m,"75% Bildungswissenschaft, 25% Psychologie",2023-01-17_10h36.36.570,00_bat_bachelor,2022.2.4,59.93011788067668,
,,,,,,,,,,,,0,0,0,0,238,0,238,0,,,,,,,238,,,1,2416.4651905623323,X,d,go,d,1,0.37525178350915667,,,,,,,,,,,,,,,,,,26,001,27,m,"75% Bildungswissenschaft, 25% Psychologie",2023-01-17_10h36.36.570,00_bat_bachelor,2022.2.4,59.93011788067668,
,,,,,,,,,,,,0,0,0,0,239,0,239,0,,,,,,,239,,,1,2417.9492717821704,Y,l,go,l,1,0.2988028508989373,,,,,,,,,,,,,,,,,,26,001,27,m,"75% Bildungswissenschaft, 25% Psychologie",2023-01-17_10h36.36.570,00_bat_bachelor,2022.2.4,59.93011788067668,
,,,,,,,,,,,,0,0,0,0,240,0,240,0,,,,,,,240,,,1,2419.350529284595,X,d,go,d,1,0.3539189453877043,,,,,,,,,,,,,,,,,,26,001,27,m,"75% Bildungswissenschaft, 25% Psychologie",2023-01-17_10h36.36.570,00_bat_bachelor,2022.2.4,59.93011788067668,
,,,,,,,,,,,,0,0,0,0,241,0,241,0,,,,,,,241,,,1,2420.818453906206,Y,l,go,l,1,0.2140528313611867,,,,,,,,,,,,,,,,,,26,001,27,m,"75% Bildungswissenschaft, 25% Psychologie",2023-01-17_10h36.36.570,00_bat_bachelor,2022.2.4,59.93011788067668,
,,,,,,,,,,,,0,0,0,0,242,0,242,0,,,,,,,242,,,1,2422.135892782593,X,d,go,d,1,0.304668060169206,,,,,,,,,,,,,,,,,,26,001,27,m,"75% Bildungswissenschaft, 25% Psychologie",2023-01-17_10h36.36.570,00_bat_bachelor,2022.2.4,59.93011788067668,
,,,,,,,,,,,,0,0,0,0,243,0,243,0,,,,,,,243,,,1,2423.553594398254,Y,l,go,l,1,0.26427195854193997,,,,,,,,,,,,,,,,,,26,001,27,m,"75% Bildungswissenschaft, 25% Psychologie",2023-01-17_10h36.36.570,00_bat_bachelor,2022.2.4,59.93011788067668,
,,,,,,,,,,,,0,0,0,0,244,0,244,0,,,,,,,244,,,1,2424.921777007621,Y,None,nogo,d,0,0.25366202428995166,,,,,,,,,,,,,,,,,,26,001,27,m,"75% Bildungswissenschaft, 25% Psychologie",2023-01-17_10h36.36.570,00_bat_bachelor,2022.2.4,59.93011788067668,
,,,,,,,,,,,,0,0,0,0,245,0,245,0,,,,,,,245,,,1,2426.306315002992,X,d,go,d,1,0.6466955306968885,,,,,,,,,,,,,,,,,,26,001,27,m,"75% Bildungswissenschaft, 25% Psychologie",2023-01-17_10h36.36.570,00_bat_bachelor,2022.2.4,59.93011788067668,
,,,,,,,,,,,,0,0,0,0,246,0,246,0,,,,,,,246,,,1,2428.0576562144706,Y,l,go,l,1,0.28628988726995885,,,,,,,,,,,,,,,,,,26,001,27,m,"75% Bildungswissenschaft, 25% Psychologie",2023-01-17_10h36.36.570,00_bat_bachelor,2022.2.4,59.93011788067668,
,,,,,,,,,,,,0,0,0,0,247,0,247,0,,,,,,,247,,,1,2429.4754771027947,X,d,go,d,1,0.40472473892441485,,,,,,,,,,,,,,,,,,26,001,27,m,"75% Bildungswissenschaft, 25% Psychologie",2023-01-17_10h36.36.570,00_bat_bachelor,2022.2.4,59.93011788067668,
,,,,,,,,,,,,0,0,0,0,248,0,248,0,,,,,,,248,,,1,2431.0099815709254,Y,l,go,l,1,0.23165961071208585,,,,,,,,,,,,,,,,,,26,001,27,m,"75% Bildungswissenschaft, 25% Psychologie",2023-01-17_10h36.36.570,00_bat_bachelor,2022.2.4,59.93011788067668,
,,,,,,,,,,,,0,0,0,0,249,0,249,0,,,,,,,249,,,1,2432.344298014883,X,d,go,d,1,0.41594994560000487,,,,,,,,,,,,,,,,,,26,001,27,m,"75% Bildungswissenschaft, 25% Psychologie",2023-01-17_10h36.36.570,00_bat_bachelor,2022.2.4,59.93011788067668,
,,,,,,,,,,,,1,0,1,0,0,0,0,0,,,,,,,0,,,0.2,2468.9219573711744,X,d,go,None,0,,,,,2469.722685710207,,,,,2432.8845910862583,space,35.81607193341188,,,,,,,26,001,27,m,"75% Bildungswissenschaft, 25% Psychologie",2023-01-17_10h36.36.570,00_bat_bachelor,2022.2.4,59.93011788067668,
,,,,,,,,,,,,1,0,1,0,1,0,1,0,,,,,,,1,,,0.2,2469.922650704175,Y,l,go,None,0,,,,,2470.7235691037204,,,,,,,,,,,,,,26,001,27,m,"75% Bildungswissenschaft, 25% Psychologie",2023-01-17_10h36.36.570,00_bat_bachelor,2022.2.4,59.93011788067668,
,,,,,,,,,,,,1,0,1,0,2,0,2,0,,,,,,,2,,,0.2,2470.9236242794577,X,d,go,l,0,0.39799795430735685,,,,,,,,,,,,,,,,,,26,001,27,m,"75% Bildungswissenschaft, 25% Psychologie",2023-01-17_10h36.36.570,00_bat_bachelor,2022.2.4,59.93011788067668,
,,,,,,,,,,,,1,0,1,0,3,0,3,0,,,,,,,3,,,0.2,2471.6240283035004,X,None,nogo,d,0,0.4971673607797129,,,,,,,,,,,,,,,,,,26,001,27,m,"75% Bildungswissenschaft, 25% Psychologie",2023-01-17_10h36.36.570,00_bat_bachelor,2022.2.4,59.93011788067668,
,,,,,,,,,,,,1,0,1,0,4,0,4,0,,,,,,,4,,,0.2,2472.4247270667984,Y,l,go,l,1,0.5768550797074568,,,,,,,,,,,,,,,,,,26,001,27,m,"75% Bildungswissenschaft, 25% Psychologie",2023-01-17_10h36.36.570,00_bat_bachelor,2022.2.4,59.93011788067668,
,,,,,,,,,,,,1,0,1,0,5,0,5,0,,,,,,,5,,,0.2,2473.308475001948,X,d,go,None,0,,,,,,,,,,,,,,,,,,,26,001,27,m,"75% Bildungswissenschaft, 25% Psychologie",2023-01-17_10h36.36.570,00_bat_bachelor,2022.2.4,59.93011788067668,
,,,,,,,,,,,,1,0,1,0,6,0,6,0,,,,,,,6,,,0.2,2474.3093550015183,Y,l,go,None,0,,,,,,,,,,,,,,,,,,,26,001,27,m,"75% Bildungswissenschaft, 25% Psychologie",2023-01-17_10h36.36.570,00_bat_bachelor,2022.2.4,59.93011788067668,
,,,,,,,,,,,,1,0,1,0,7,0,7,0,,,,,,,7,,,0.2,2475.310053667854,Y,None,nogo,l,0,0.49099960619059857,,,,,,,,,,,,,,,,,,26,001,27,m,"75% Bildungswissenschaft, 25% Psychologie",2023-01-17_10h36.36.570,00_bat_bachelor,2022.2.4,59.93011788067668,
,,,,,,,,,,,,1,0,1,0,8,0,8,0,,,,,,,8,,,0.2,2476.110735946306,X,d,go,d,1,0.47411137195013,,,,,,,,,,,,,,,,,,26,001,27,m,"75% Bildungswissenschaft, 25% Psychologie",2023-01-17_10h36.36.570,00_bat_bachelor,2022.2.4,59.93011788067668,
,,,,,,,,,,,,1,0,1,0,9,0,9,0,,,,,,,9,,,0.2,2476.8945925359585,Y,l,go,l,1,0.5059542656090343,,,,,,,,,,,,,,,,,,26,001,27,m,"75% Bildungswissenschaft, 25% Psychologie",2023-01-17_10h36.36.570,00_bat_bachelor,2022.2.4,59.93011788067668,
,,,,,,,,,,,,1,0,1,0,10,0,10,0,,,,,,,10,,,0.2,2477.711905594231,X,d,go,d,1,0.32915726042119786,,,,,,,,,,,,,,,,,,26,001,27,m,"75% Bildungswissenschaft, 25% Psychologie",2023-01-17_10h36.36.570,00_bat_bachelor,2022.2.4,59.93011788067668,
,,,,,,,,,,,,1,0,1,0,11,0,11,0,,,,,,,11,,,0.2,2478.3457457717595,Y,l,go,l,1,0.6076836708234623,,,,,,,,,,,,,,,,,,26,001,27,m,"75% Bildungswissenschaft, 25% Psychologie",2023-01-17_10h36.36.570,00_bat_bachelor,2022.2.4,59.93011788067668,
,,,,,,,,,,,,1,0,1,0,12,0,12,0,,,,,,,12,,,0.2,2479.263120357282,X,d,go,d,1,0.26536674587987363,,,,,,,,,,,,,,,,,,26,001,27,m,"75% Bildungswissenschaft, 25% Psychologie",2023-01-17_10h36.36.570,00_bat_bachelor,2022.2.4,59.93011788067668,
,,,,,,,,,,,,1,0,1,0,13,0,13,0,,,,,,,13,,,0.2,2479.8300209308945,X,None,nogo,None,1,,,,,2480.630819572936,,,,,,,,,,,,,,26,001,27,m,"75% Bildungswissenschaft, 25% Psychologie",2023-01-17_10h36.36.570,00_bat_bachelor,2022.2.4,59.93011788067668,
,,,,,,,,,,,,1,0,1,0,14,0,14,0,,,,,,,14,,,0.2,2480.8307743850746,Y,l,go,l,1,0.31382054057030473,,,,,,,,,,,,,,,,,,26,001,27,m,"75% Bildungswissenschaft, 25% Psychologie",2023-01-17_10h36.36.570,00_bat_bachelor,2022.2.4,59.93011788067668,
,,,,,,,,,,,,1,0,1,0,15,0,15,0,,,,,,,15,,,0.2,2481.44793675252,X,d,go,d,1,0.4654248307197122,,,,,,,,,,,,,,,,,,26,001,27,m,"75% Bildungswissenschaft, 25% Psychologie",2023-01-17_10h36.36.570,00_bat_bachelor,2022.2.4,59.93011788067668,
,,,,,,,,,,,,1,0,1,0,16,0,16,0,,,,,,,16,,,0.2,2482.2153952895023,Y,l,go,l,1,0.28921255251043476,,,,,,,,,,,,,,,,,,26,001,27,m,"75% Bildungswissenschaft, 25% Psychologie",2023-01-17_10h36.36.570,00_bat_bachelor,2022.2.4,59.93011788067668,
,,,,,,,,,,,,1,0,1,0,17,0,17,0,,,,,,,17,,,0.2,2482.8158798468503,Y,None,nogo,d,0,0.2817449197609676,,,,,,,,,,,,,,,,,,26,001,27,m,"75% Bildungswissenschaft, 25% Psychologie",2023-01-17_10h36.36.570,00_bat_bachelor,2022.2.4,59.93011788067668,
,,,,,,,,,,,,1,0,1,0,18,0,18,0,,,,,,,18,,,0.2,2483.3994189578516,X,d,go,None,0,,,,,,,,,,,,,,,,,,,26,001,27,m,"75% Bildungswissenschaft, 25% Psychologie",2023-01-17_10h36.36.570,00_bat_bachelor,2022.2.4,59.93011788067668,
,,,,,,,,,,,,1,0,1,0,19,0,19,0,,,,,,,19,,,0.2,2484.400482230063,Y,l,go,l,1,0.21615513338474557,,,,,,,,,,,,,,,,,,26,001,27,m,"75% Bildungswissenschaft, 25% Psychologie",2023-01-17_10h36.36.570,00_bat_bachelor,2022.2.4,59.93011788067668,
,,,,,,,,,,,,1,0,1,0,20,0,20,0,,,,,,,20,,,0.2,2484.9175365248375,Y,None,nogo,d,0,0.3546064601978287,,,,,,,,,,,,,,,,,,26,001,27,m,"75% Bildungswissenschaft, 25% Psychologie",2023-01-17_10h36.36.570,00_bat_bachelor,2022.2.4,59.93011788067668,
,,,,,,,,,,,,1,0,1,0,21,0,21,0,,,,,,,21,,,0.2,2485.584633413513,X,d,go,None,0,,,,,2486.3849986012065,,,,,,,,,,,,,,26,001,27,m,"75% Bildungswissenschaft, 25% Psychologie",2023-01-17_10h36.36.570,00_bat_bachelor,2022.2.4,59.93011788067668,
,,,,,,,,,,,,1,0,1,0,22,0,22,0,,,,,,,22,,,0.2,2486.585375231327,Y,l,go,None,0,,,,,2487.385874237152,,,,,,,,,,,,,,26,001,27,m,"75% Bildungswissenschaft, 25% Psychologie",2023-01-17_10h36.36.570,00_bat_bachelor,2022.2.4,59.93011788067668,
,,,,,,,,,,,,1,0,1,0,23,0,23,0,,,,,,,23,,,0.2,2487.586153412776,Y,None,nogo,d,0,0.0070308711437974125,,,,,,,,,,,,,,,,,,26,001,27,m,"75% Bildungswissenschaft, 25% Psychologie",2023-01-17_10h36.36.570,00_bat_bachelor,2022.2.4,59.93011788067668,
,,,,,,,,,,,,1,0,1,0,24,0,24,0,,,,,,,24,,,0.2,2487.903034713687,X,d,go,None,0,,,,,2488.7036573558,,,,,,,,,,,,,,26,001,27,m,"75% Bildungswissenschaft, 25% Psychologie",2023-01-17_10h36.36.570,00_bat_bachelor,2022.2.4,59.93011788067668,
,,,,,,,,,,,,1,0,1,0,25,0,25,0,,,,,,,25,,,0.2,2488.9036965315463,Y,l,go,l,1,0.3211979915504344,,,,,,,,,,,,,,,,,,26,001,27,m,"75% Bildungswissenschaft, 25% Psychologie",2023-01-17_10h36.36.570,00_bat_bachelor,2022.2.4,59.93011788067668,
,,,,,,,,,,,,1,0,1,0,26,0,26,0,,,,,,,26,,,0.2,2489.5374091939884,X,d,go,d,1,0.3439630714128725,,,,,,,,,,,,,,,,,,26,001,27,m,"75% Bildungswissenschaft, 25% Psychologie",2023-01-17_10h36.36.570,00_bat_bachelor,2022.2.4,59.93011788067668,
,,,,,,,,,,,,1,0,1,0,27,0,27,0,,,,,,,27,,,0.2,2490.1880779694184,X,None,nogo,d,0,0.5086112340068212,,,,,,,,,,,,,,,,,,26,001,27,m,"75% Bildungswissenschaft, 25% Psychologie",2023-01-17_10h36.36.570,00_bat_bachelor,2022.2.4,59.93011788067668,
,,,,,,,,,,,,1,0,1,0,28,0,28,0,,,,,,,28,,,0.2,2491.005209209601,X,None,nogo,None,1,,,,,2491.8060156092106,,,,,,,,,,,,,,26,001,27,m,"75% Bildungswissenschaft, 25% Psychologie",2023-01-17_10h36.36.570,00_bat_bachelor,2022.2.4,59.93011788067668,
,,,,,,,,,,,,1,0,1,0,29,0,29,0,,,,,,,29,,,0.2,2492.0061730879097,Y,l,go,None,0,,,,,2492.8067360936984,,,,,,,,,,,,,,26,001,27,m,"75% Bildungswissenschaft, 25% Psychologie",2023-01-17_10h36.36.570,00_bat_bachelor,2022.2.4,59.93011788067668,
,,,,,,,,,,,,1,0,1,0,30,0,30,0,,,,,,,30,,,0.2,2493.0069032693864,X,d,go,None,0,,,,,2493.8075191236276,,,,,,,,,,,,,,26,001,27,m,"75% Bildungswissenschaft, 25% Psychologie",2023-01-17_10h36.36.570,00_bat_bachelor,2022.2.4,59.93011788067668,
,,,,,,,,,,,,1,0,1,0,31,0,31,0,,,,,,,31,,,0.2,2494.007710541715,Y,l,go,d,0,0.33695555965823587,,,,,,,,,,,,,,,,,,26,001,27,m,"75% Bildungswissenschaft, 25% Psychologie",2023-01-17_10h36.36.570,00_bat_bachelor,2022.2.4,59.93011788067668,
,,,,,,,,,,,,1,0,1,0,32,0,32,0,,,,,,,32,,,0.2,2494.6581558021135,Y,None,nogo,l,0,0.3750849957141327,,,,,,,,,,,,,,,,,,26,001,27,m,"75% Bildungswissenschaft, 25% Psychologie",2023-01-17_10h36.36.570,00_bat_bachelor,2022.2.4,59.93011788067668,
,,,,,,,,,,,,1,0,1,0,33,0,33,0,,,,,,,33,,,0.2,2495.3420677129325,X,d,go,d,1,0.34680137305986136,,,,,,,,,,,,,,,,,,26,001,27,m,"75% Bildungswissenschaft, 25% Psychologie",2023-01-17_10h36.36.570,00_bat_bachelor,2022.2.4,59.93011788067668,
,,,,,,,,,,,,1,0,1,0,34,0,34,0,,,,,,,34,,,0.2,2495.992451882441,Y,l,go,l,1,0.33537010589498095,,,,,,,,,,,,,,,,,,26,001,27,m,"75% Bildungswissenschaft, 25% Psychologie",2023-01-17_10h36.36.570,00_bat_bachelor,2022.2.4,59.93011788067668,
,,,,,,,,,,,,1,0,1,0,35,0,35,0,,,,,,,35,,,0.2,2496.6430295064056,X,d,go,d,1,0.39074220025213435,,,,,,,,,,,,,,,,,,26,001,27,m,"75% Bildungswissenschaft, 25% Psychologie",2023-01-17_10h36.36.570,00_bat_bachelor,2022.2.4,59.93011788067668,
,,,,,,,,,,,,1,0,1,0,36,0,36,0,,,,,,,36,,,0.2,2497.343704560626,X,None,nogo,None,1,,,,,,,,,,,,,,,,,,,26,001,27,m,"75% Bildungswissenschaft, 25% Psychologie",2023-01-17_10h36.36.570,00_bat_bachelor,2022.2.4,59.93011788067668,
,,,,,,,,,,,,1,0,1,0,37,0,37,0,,,,,,,37,,,0.2,2498.344322257297,Y,l,go,l,1,0.2405871215305524,,,,,,,,,,,,,,,,,,26,001,27,m,"75% Bildungswissenschaft, 25% Psychologie",2023-01-17_10h36.36.570,00_bat_bachelor,2022.2.4,59.93011788067668,
,,,,,,,,,,,,1,0,1,0,38,0,38,0,,,,,,,38,,,0.2,2498.894549384466,X,d,go,d,1,0.3787509333342314,,,,,,,,,,,,,,,,,,26,001,27,m,"75% Bildungswissenschaft, 25% Psychologie",2023-01-17_10h36.36.570,00_bat_bachelor,2022.2.4,59.93011788067668,
,,,,,,,,,,,,1,0,1,0,39,0,39,0,,,,,,,39,,,0.2,2499.5786382649094,Y,l,go,l,1,0.6063973684213124,,,,,,,,,,,,,,,,,,26,001,27,m,"75% Bildungswissenschaft, 25% Psychologie",2023-01-17_10h36.36.570,00_bat_bachelor,2022.2.4,59.93011788067668,
,,,,,,,,,,,,1,0,1,0,40,0,40,0,,,,,,,40,,,0.2,2500.4957786687155,X,d,go,d,1,0.5840812580281636,,,,,,,,,,,,,,,,,,26,001,27,m,"75% Bildungswissenschaft, 25% Psychologie",2023-01-17_10h36.36.570,00_bat_bachelor,2022.2.4,59.93011788067668,
,,,,,,,,,,,,1,0,1,0,41,0,41,0,,,,,,,41,,,0.2,2501.3799818763655,X,None,nogo,None,1,,,,,2502.1803887610295,,,,,,,,,,,,,,26,001,27,m,"75% Bildungswissenschaft, 25% Psychologie",2023-01-17_10h36.36.570,00_bat_bachelor,2022.2.4,59.93011788067668,
,,,,,,,,,,,,1,0,1,0,42,0,42,0,,,,,,,42,,,0.2,2502.380702360868,X,None,nogo,None,1,,,,,2503.1813293666346,,,,,,,,,,,,,,26,001,27,m,"75% Bildungswissenschaft, 25% Psychologie",2023-01-17_10h36.36.570,00_bat_bachelor,2022.2.4,59.93011788067668,
,,,,,,,,,,,,1,0,1,0,43,0,43,0,,,,,,,43,,,0.2,2503.3814970271487,Y,l,go,l,1,0.33960864928667434,,,,,,,,,,,,,,,,,,26,001,27,m,"75% Bildungswissenschaft, 25% Psychologie",2023-01-17_10h36.36.570,00_bat_bachelor,2022.2.4,59.93011788067668,
,,,,,,,,,,,,1,0,1,0,44,0,44,0,,,,,,,44,,,0.2,2504.031957802683,X,d,go,d,1,0.40910437317506876,,,,,,,,,,,,,,,,,,26,001,27,m,"75% Bildungswissenschaft, 25% Psychologie",2023-01-17_10h36.36.570,00_bat_bachelor,2022.2.4,59.93011788067668,
,,,,,,,,,,,,1,0,1,0,45,0,45,0,,,,,,,45,,,0.2,2504.7492486064293,X,None,nogo,None,1,,,,,2505.5499168242823,,,,,,,,,,,,,,26,001,27,m,"75% Bildungswissenschaft, 25% Psychologie",2023-01-17_10h36.36.570,00_bat_bachelor,2022.2.4,59.93011788067668,
,,,,,,,,,,,,1,0,1,0,46,0,46,0,,,,,,,46,,,0.2,2505.7499419394153,Y,l,go,None,0,,,,,,,,,,,,,,,,,,,26,001,27,m,"75% Bildungswissenschaft, 25% Psychologie",2023-01-17_10h36.36.570,00_bat_bachelor,2022.2.4,59.93011788067668,
,,,,,,,,,,,,1,0,1,0,47,0,47,0,,,,,,,47,,,0.2,2506.7507424238865,X,d,go,d,1,0.4589787732256809,,,,,,,,,,,,,,,,,,26,001,27,m,"75% Bildungswissenschaft, 25% Psychologie",2023-01-17_10h36.36.570,00_bat_bachelor,2022.2.4,59.93011788067668,
,,,,,,,,,,,,1,0,1,0,48,0,48,0,,,,,,,48,,,0.2,2507.5177830216853,Y,l,go,l,1,0.36214972926245537,,,,,,,,,,,,,,,,,,26,001,27,m,"75% Bildungswissenschaft, 25% Psychologie",2023-01-17_10h36.36.570,00_bat_bachelor,2022.2.4,59.93011788067668,
,,,,,,,,,,,,1,0,1,0,49,0,49,0,,,,,,,49,,,0.2,2508.1849807588005,Y,None,nogo,d,0,0.38349323406873737,,,,,,,,,,,,,,,,,,26,001,27,m,"75% Bildungswissenschaft, 25% Psychologie",2023-01-17_10h36.36.570,00_bat_bachelor,2022.2.4,59.93011788067668,
,,,,,,,,,,,,1,0,1,0,50,0,50,0,,,,,,,50,,,0.2,2508.8688000636175,X,d,go,None,0,,,,,,,,,,,,,,,,,,,26,001,27,m,"75% Bildungswissenschaft, 25% Psychologie",2023-01-17_10h36.36.570,00_bat_bachelor,2022.2.4,59.93011788067668,
,,,,,,,,,,,,1,0,1,0,51,0,51,0,,,,,,,51,,,0.2,2509.8697809116275,Y,l,go,None,0,,,,,2510.670189735669,,,,,,,,,,,,,,26,001,27,m,"75% Bildungswissenschaft, 25% Psychologie",2023-01-17_10h36.36.570,00_bat_bachelor,2022.2.4,59.93011788067668,
,,,,,,,,,,,,1,0,1,0,52,0,52,0,,,,,,,52,,,0.2,2510.8705382445914,X,d,go,d,1,0.27501231696805917,,,,,,,,,,,,,,,,,,26,001,27,m,"75% Bildungswissenschaft, 25% Psychologie",2023-01-17_10h36.36.570,00_bat_bachelor,2022.2.4,59.93011788067668,
,,,,,,,,,,,,1,0,1,0,53,0,53,0,,,,,,,53,,,0.2,2511.4541209919407,Y,l,go,l,1,0.5547440601221751,,,,,,,,,,,,,,,,,,26,001,27,m,"75% Bildungswissenschaft, 25% Psychologie",2023-01-17_10h36.36.570,00_bat_bachelor,2022.2.4,59.93011788067668,
,,,,,,,,,,,,1,0,1,0,54,0,54,0,,,,,,,54,,,0.2,2512.3214907532238,X,d,go,d,1,0.40776085866673384,,,,,,,,,,,,,,,,,,26,001,27,m,"75% Bildungswissenschaft, 25% Psychologie",2023-01-17_10h36.36.570,00_bat_bachelor,2022.2.4,59.93011788067668,
,,,,,,,,,,,,1,0,1,0,55,0,55,0,,,,,,,55,,,0.2,2513.038845556919,Y,l,go,l,1,0.6496060747449519,,,,,,,,,,,,,,,,,,26,001,27,m,"75% Bildungswissenschaft, 25% Psychologie",2023-01-17_10h36.36.570,00_bat_bachelor,2022.2.4,59.93011788067668,
,,,,,,,,,,,,1,0,1,0,56,0,56,0,,,,,,,56,,,0.2,2513.989460853598,X,d,go,d,1,0.45105489827983547,,,,,,,,,,,,,,,,,,26,001,27,m,"75% Bildungswissenschaft, 25% Psychologie",2023-01-17_10h36.36.570,00_bat_bachelor,2022.2.4,59.93011788067668,
,,,,,,,,,,,,1,0,1,0,57,0,57,0,,,,,,,57,,,0.2,2514.7568519966735,Y,l,go,l,1,0.38726535344903823,,,,,,,,,,,,,,,,,,26,001,27,m,"75% Bildungswissenschaft, 25% Psychologie",2023-01-17_10h36.36.570,00_bat_bachelor,2022.2.4,59.93011788067668,
,,,,,,,,,,,,1,0,1,0,58,0,58,0,,,,,,,58,,,0.2,2515.457332141901,Y,None,nogo,None,1,,,,,,,,,,,,,,,,,,,26,001,27,m,"75% Bildungswissenschaft, 25% Psychologie",2023-01-17_10h36.36.570,00_bat_bachelor,2022.2.4,59.93011788067668,
,,,,,,,,,,,,1,0,1,0,59,0,59,0,,,,,,,59,,,0.2,2516.45814523242,X,d,go,d,1,0.2546928116644267,,,,,,,,,,,,,,,,,,26,001,27,m,"75% Bildungswissenschaft, 25% Psychologie",2023-01-17_10h36.36.570,00_bat_bachelor,2022.2.4,59.93011788067668,
,,,,,,,,,,,,1,0,1,0,60,0,60,0,,,,,,,60,,,0.2,2517.0252227756428,Y,l,go,l,1,0.47147913080698345,,,,,,,,,,,,,,,,,,26,001,27,m,"75% Bildungswissenschaft, 25% Psychologie",2023-01-17_10h36.36.570,00_bat_bachelor,2022.2.4,59.93011788067668,
,,,,,,,,,,,,1,0,1,0,61,0,61,0,,,,,,,61,,,0.2,2517.8090924561984,Y,None,nogo,None,1,,,,,,,,,,,,,,,,,,,26,001,27,m,"75% Bildungswissenschaft, 25% Psychologie",2023-01-17_10h36.36.570,00_bat_bachelor,2022.2.4,59.93011788067668,
,,,,,,,,,,,,1,0,1,0,62,0,62,0,,,,,,,62,,,0.2,2518.809932698219,X,d,go,d,1,0.2864077053818619,,,,,,,,,,,,,,,,,,26,001,27,m,"75% Bildungswissenschaft, 25% Psychologie",2023-01-17_10h36.36.570,00_bat_bachelor,2022.2.4,59.93011788067668,
,,,,,,,,,,,,1,0,1,0,63,0,63,0,,,,,,,63,,,0.2,2519.4101350738783,Y,l,go,l,1,0.43818120755895507,,,,,,,,,,,,,,,,,,26,001,27,m,"75% Bildungswissenschaft, 25% Psychologie",2023-01-17_10h36.36.570,00_bat_bachelor,2022.2.4,59.93011788067668,
,,,,,,,,,,,,1,0,1,0,64,0,64,0,,,,,,,64,,,0.2,2520.1607281644974,Y,None,nogo,None,1,,,,,2520.961513715636,,,,,,,,,,,,,,26,001,27,m,"75% Bildungswissenschaft, 25% Psychologie",2023-01-17_10h36.36.570,00_bat_bachelor,2022.2.4,59.93011788067668,
,,,,,,,,,,,,1,0,1,0,65,0,65,0,,,,,,,65,,,0.2,2521.1615238004742,Y,None,nogo,d,0,0.3020780008082511,,,,,,,,,,,,,,,,,,26,001,27,m,"75% Bildungswissenschaft, 25% Psychologie",2023-01-17_10h36.36.570,00_bat_bachelor,2022.2.4,59.93011788067668,
,,,,,,,,,,,,1,0,1,0,66,0,66,0,,,,,,,66,,,0.2,2521.778800592103,X,d,go,d,1,0.6303212356142467,,,,,,,,,,,,,,,,,,26,001,27,m,"75% Bildungswissenschaft, 25% Psychologie",2023-01-17_10h36.36.570,00_bat_bachelor,2022.2.4,59.93011788067668,
,,,,,,,,,,,,1,0,1,0,67,0,67,0,,,,,,,67,,,0.2,2522.712900017985,Y,l,go,l,1,0.48029173258692026,,,,,,,,,,,,,,,,,,26,001,27,m,"75% Bildungswissenschaft, 25% Psychologie",2023-01-17_10h36.36.570,00_bat_bachelor,2022.2.4,59.93011788067668,
,,,,,,,,,,,,1,0,1,0,68,0,68,0,,,,,,,68,,,0.2,2523.496645577383,Y,None,nogo,None,1,,,,,2524.297411249747,,,,,,,,,,,,,,26,001,27,m,"75% Bildungswissenschaft, 25% Psychologie",2023-01-17_10h36.36.570,00_bat_bachelor,2022.2.4,59.93011788067668,
,,,,,,,,,,,,1,0,1,0,69,0,69,0,,,,,,,69,,,0.2,2524.497579879957,Y,None,nogo,None,1,,,,,,,,,,,,,,,,,,,26,001,27,m,"75% Bildungswissenschaft, 25% Psychologie",2023-01-17_10h36.36.570,00_bat_bachelor,2022.2.4,59.93011788067668,
,,,,,,,,,,,,1,0,1,0,70,0,70,0,,,,,,,70,,,0.2,2525.498157819078,X,d,go,d,1,0.4300832720909966,,,,,,,,,,,,,,,,,,26,001,27,m,"75% Bildungswissenschaft, 25% Psychologie",2023-01-17_10h36.36.570,00_bat_bachelor,2022.2.4,59.93011788067668,
,,,,,,,,,,,,1,0,1,0,71,0,71,0,,,,,,,71,,,0.2,2526.2319979481254,Y,l,go,l,1,0.5132589893328259,,,,,,,,,,,,,,,,,,26,001,27,m,"75% Bildungswissenschaft, 25% Psychologie",2023-01-17_10h36.36.570,00_bat_bachelor,2022.2.4,59.93011788067668,
,,,,,,,,,,,,1,0,1,0,72,0,72,0,,,,,,,72,,,0.2,2527.0495592486986,Y,None,nogo,None,1,,,,,2527.850216799896,,,,,,,,,,,,,,26,001,27,m,"75% Bildungswissenschaft, 25% Psychologie",2023-01-17_10h36.36.570,00_bat_bachelor,2022.2.4,59.93011788067668,
,,,,,,,,,,,,1,0,1,0,73,0,73,0,,,,,,,73,,,0.2,2528.050378642234,X,d,go,d,1,0.4388401163305389,,,,,,,,,,,,,,,,,,26,001,27,m,"75% Bildungswissenschaft, 25% Psychologie",2023-01-17_10h36.36.570,00_bat_bachelor,2022.2.4,59.93011788067668,
,,,,,,,,,,,,1,0,1,0,74,0,74,0,,,,,,,74,,,0.2,2528.800683733003,Y,l,go,l,1,0.4560992594779236,,,,,,,,,,,,,,,,,,26,001,27,m,"75% Bildungswissenschaft, 25% Psychologie",2023-01-17_10h36.36.570,00_bat_bachelor,2022.2.4,59.93011788067668,
,,,,,,,,,,,,1,0,1,0,75,0,75,0,,,,,,,75,,,0.2,2529.567901785267,Y,None,nogo,None,1,,,,,,,,,,,,,,,,,,,26,001,27,m,"75% Bildungswissenschaft, 25% Psychologie",2023-01-17_10h36.36.570,00_bat_bachelor,2022.2.4,59.93011788067668,
,,,,,,,,,,,,1,0,1,0,76,0,76,0,,,,,,,76,,,0.2,2530.5690183907864,X,d,go,d,1,0.38354462798452005,,,,,,,,,,,,,,,,,,26,001,27,m,"75% Bildungswissenschaft, 25% Psychologie",2023-01-17_10h36.36.570,00_bat_bachelor,2022.2.4,59.93011788067668,
,,,,,,,,,,,,1,0,1,0,77,0,77,0,,,,,,,77,,,0.2,2531.2528658167867,Y,l,go,l,1,0.4200163678760873,,,,,,,,,,,,,,,,,,26,001,27,m,"75% Bildungswissenschaft, 25% Psychologie",2023-01-17_10h36.36.570,00_bat_bachelor,2022.2.4,59.93011788067668,
,,,,,,,,,,,,1,0,1,0,78,0,78,0,,,,,,,78,,,0.2,2531.9866356428392,Y,None,nogo,None,1,,,,,2532.7873407091683,,,,,,,,,,,,,,26,001,27,m,"75% Bildungswissenschaft, 25% Psychologie",2023-01-17_10h36.36.570,00_bat_bachelor,2022.2.4,59.93011788067668,
,,,,,,,,,,,,1,0,1,0,79,0,79,0,,,,,,,79,,,0.2,2532.9873692182446,Y,None,nogo,None,1,,,,,2533.7879952543008,,,,,,,,,,,,,,26,001,27,m,"75% Bildungswissenschaft, 25% Psychologie",2023-01-17_10h36.36.570,00_bat_bachelor,2022.2.4,59.93011788067668,
,,,,,,,,,,,,1,0,1,0,80,0,80,0,,,,,,,80,,,0.2,2533.988025702769,X,d,go,d,1,0.32477811102580745,,,,,,,,,,,,,,,,,,26,001,27,m,"75% Bildungswissenschaft, 25% Psychologie",2023-01-17_10h36.36.570,00_bat_bachelor,2022.2.4,59.93011788067668,
,,,,,,,,,,,,1,0,1,0,81,0,81,0,,,,,,,81,,,0.2,2534.621966728737,Y,l,go,l,1,0.47518773506453726,,,,,,,,,,,,,,,,,,26,001,27,m,"75% Bildungswissenschaft, 25% Psychologie",2023-01-17_10h36.36.570,00_bat_bachelor,2022.2.4,59.93011788067668,
,,,,,,,,,,,,1,0,1,0,82,0,82,0,,,,,,,82,,,0.2,2535.4058558032266,Y,None,nogo,None,1,,,,,2536.2062811120995,,,,,,,,,,,,,,26,001,27,m,"75% Bildungswissenschaft, 25% Psychologie",2023-01-17_10h36.36.570,00_bat_bachelor,2022.2.4,59.93011788067668,
,,,,,,,,,,,,1,0,1,0,83,0,83,0,,,,,,,83,,,0.2,2536.4064478029322,X,d,go,d,1,0.44960229292337317,,,,,,,,,,,,,,,,,,26,001,27,m,"75% Bildungswissenschaft, 25% Psychologie",2023-01-17_10h36.36.570,00_bat_bachelor,2022.2.4,59.93011788067668,
,,,,,,,,,,,,1,0,1,0,84,0,84,0,,,,,,,84,,,0.2,2537.1570418632473,Y,l,go,l,1,0.33973810376483016,,,,,,,,,,,,,,,,,,26,001,27,m,"75% Bildungswissenschaft, 25% Psychologie",2023-01-17_10h36.36.570,00_bat_bachelor,2022.2.4,59.93011788067668,
,,,,,,,,,,,,1,0,1,0,85,0,85,0,,,,,,,85,,,0.2,2537.8072854267666,Y,None,nogo,None,1,,,,,,,,,,,,,,,,,,,26,001,27,m,"75% Bildungswissenschaft, 25% Psychologie",2023-01-17_10h36.36.570,00_bat_bachelor,2022.2.4,59.93011788067668,
,,,,,,,,,,,,1,0,1,0,86,0,86,0,,,,,,,86,,,0.2,2538.808254638425,X,d,go,d,1,0.43220205894613173,,,,,,,,,,,,,,,,,,26,001,27,m,"75% Bildungswissenschaft, 25% Psychologie",2023-01-17_10h36.36.570,00_bat_bachelor,2022.2.4,59.93011788067668,
,,,,,,,,,,,,1,0,1,0,87,0,87,0,,,,,,,87,,,0.2,2539.5421592522907,Y,l,go,l,1,0.4180716415430652,,,,,,,,,,,,,,,,,,26,001,27,m,"75% Bildungswissenschaft, 25% Psychologie",2023-01-17_10h36.36.570,00_bat_bachelor,2022.2.4,59.93011788067668,
,,,,,,,,,,,,1,0,1,0,88,0,88,0,,,,,,,88,,,0.2,2540.2761525933747,X,d,go,None,0,,,,,,,,,,,,,,,,,,,26,001,27,m,"75% Bildungswissenschaft, 25% Psychologie",2023-01-17_10h36.36.570,00_bat_bachelor,2022.2.4,59.93011788067668,
,,,,,,,,,,,,1,0,1,0,89,0,89,0,,,,,,,89,,,0.2,2541.2767513809667,X,None,nogo,None,1,,,,,,,,,,,,,,,,,,,26,001,27,m,"75% Bildungswissenschaft, 25% Psychologie",2023-01-17_10h36.36.570,00_bat_bachelor,2022.2.4,59.93011788067668,
,,,,,,,,,,,,1,0,1,0,90,0,90,0,,,,,,,90,,,0.2,2542.277631380537,X,None,nogo,None,1,,,,,,,,,,,,,,,,,,,26,001,27,m,"75% Bildungswissenschaft, 25% Psychologie",2023-01-17_10h36.36.570,00_bat_bachelor,2022.2.4,59.93011788067668,
,,,,,,,,,,,,1,0,1,0,91,0,91,0,,,,,,,91,,,0.2,2543.2785307740414,Y,l,go,l,1,0.6657660669152392,,,,,,,,,,,,,,,,,,26,001,27,m,"75% Bildungswissenschaft, 25% Psychologie",2023-01-17_10h36.36.570,00_bat_bachelor,2022.2.4,59.93011788067668,
,,,,,,,,,,,,1,0,1,0,92,0,92,0,,,,,,,92,,,0.2,2544.245551396103,X,d,go,d,1,0.4344890881329775,,,,,,,,,,,,,,,,,,26,001,27,m,"75% Bildungswissenschaft, 25% Psychologie",2023-01-17_10h36.36.570,00_bat_bachelor,2022.2.4,59.93011788067668,
,,,,,,,,,,,,1,0,1,0,93,0,93,0,,,,,,,93,,,0.2,2544.9962172139494,X,None,nogo,None,1,,,,,,,,,,,,,,,,,,,26,001,27,m,"75% Bildungswissenschaft, 25% Psychologie",2023-01-17_10h36.36.570,00_bat_bachelor,2022.2.4,59.93011788067668,
,,,,,,,,,,,,1,0,1,0,94,0,94,0,,,,,,,94,,,0.2,2545.997141334723,Y,l,go,l,1,0.4117972203530371,,,,,,,,,,,,,,,,,,26,001,27,m,"75% Bildungswissenschaft, 25% Psychologie",2023-01-17_10h36.36.570,00_bat_bachelor,2022.2.4,59.93011788067668,
,,,,,,,,,,,,1,0,1,0,95,0,95,0,,,,,,,95,,,0.2,2546.714229471894,X,d,go,None,0,,,,,,,,,,,,,,,,,,,26,001,27,m,"75% Bildungswissenschaft, 25% Psychologie",2023-01-17_10h36.36.570,00_bat_bachelor,2022.2.4,59.93011788067668,
,,,,,,,,,,,,1,0,1,0,96,0,96,0,,,,,,,96,,,0.2,2547.715124016904,Y,l,go,l,1,0.5979925240098964,,,,,,,,,,,,,,,,,,26,001,27,m,"75% Bildungswissenschaft, 25% Psychologie",2023-01-17_10h36.36.570,00_bat_bachelor,2022.2.4,59.93011788067668,
,,,,,,,,,,,,1,0,1,0,97,0,97,0,,,,,,,97,,,0.2,2548.615838246871,X,d,go,d,1,0.5771736250171671,,,,,,,,,,,,,,,,,,26,001,27,m,"75% Bildungswissenschaft, 25% Psychologie",2023-01-17_10h36.36.570,00_bat_bachelor,2022.2.4,59.93011788067668,
,,,,,,,,,,,,1,0,1,0,98,0,98,0,,,,,,,98,,,0.2,2549.499748121336,Y,l,go,l,1,0.5252071047434583,,,,,,,,,,,,,,,,,,26,001,27,m,"75% Bildungswissenschaft, 25% Psychologie",2023-01-17_10h36.36.570,00_bat_bachelor,2022.2.4,59.93011788067668,
,,,,,,,,,,,,1,0,1,0,99,0,99,0,,,,,,,99,,,0.2,2550.33349511103,Y,None,nogo,None,1,,,,,2551.1344401772367,,,,,,,,,,,,,,26,001,27,m,"75% Bildungswissenschaft, 25% Psychologie",2023-01-17_10h36.36.570,00_bat_bachelor,2022.2.4,59.93011788067668,
,,,,,,,,,,,,1,0,1,0,100,0,100,0,,,,,,,100,,,0.2,2551.3344318378513,X,d,go,d,1,0.40203964931424707,,,,,,,,,,,,,,,,,,26,001,27,m,"75% Bildungswissenschaft, 25% Psychologie",2023-01-17_10h36.36.570,00_bat_bachelor,2022.2.4,59.93011788067668,
,,,,,,,,,,,,1,0,1,0,101,0,101,0,,,,,,,101,,,0.2,2552.0517817930813,Y,l,go,l,1,0.4054941930953646,,,,,,,,,,,,,,,,,,26,001,27,m,"75% Bildungswissenschaft, 25% Psychologie",2023-01-17_10h36.36.570,00_bat_bachelor,2022.2.4,59.93011788067668,
,,,,,,,,,,,,1,0,1,0,102,0,102,0,,,,,,,102,,,0.2,2552.7689765968535,X,d,go,d,1,0.5680783566931495,,,,,,,,,,,,,,,,,,26,001,27,m,"75% Bildungswissenschaft, 25% Psychologie",2023-01-17_10h36.36.570,00_bat_bachelor,2022.2.4,59.93011788067668,
,,,,,,,,,,,,1,0,1,0,103,0,103,0,,,,,,,103,,,0.2,2553.6527245320176,X,None,nogo,d,0,0.5475484272610629,,,,,,,,,,,,,,,,,,26,001,27,m,"75% Bildungswissenschaft, 25% Psychologie",2023-01-17_10h36.36.570,00_bat_bachelor,2022.2.4,59.93011788067668,
,,,,,,,,,,,,1,0,1,0,104,0,104,0,,,,,,,104,,,0.2,2554.5036831497273,Y,l,go,l,1,0.44883429328911006,,,,,,,,,,,,,,,,,,26,001,27,m,"75% Bildungswissenschaft, 25% Psychologie",2023-01-17_10h36.36.570,00_bat_bachelor,2022.2.4,59.93011788067668,
,,,,,,,,,,,,1,0,1,0,105,0,105,0,,,,,,,105,,,0.2,2555.254215634326,X,d,go,None,0,,,,,,,,,,,,,,,,,,,26,001,27,m,"75% Bildungswissenschaft, 25% Psychologie",2023-01-17_10h36.36.570,00_bat_bachelor,2022.2.4,59.93011788067668,
,,,,,,,,,,,,1,0,1,0,106,0,106,0,,,,,,,106,,,0.2,2556.2547344219493,X,None,nogo,None,1,,,,,,,,,,,,,,,,,,,26,001,27,m,"75% Bildungswissenschaft, 25% Psychologie",2023-01-17_10h36.36.570,00_bat_bachelor,2022.2.4,59.93011788067668,
,,,,,,,,,,,,1,0,1,0,107,0,107,0,,,,,,,107,,,0.2,2557.2554597549315,X,None,nogo,None,1,,,,,,,,,,,,,,,,,,,26,001,27,m,"75% Bildungswissenschaft, 25% Psychologie",2023-01-17_10h36.36.570,00_bat_bachelor,2022.2.4,59.93011788067668,
,,,,,,,,,,,,1,0,1,0,108,0,108,0,,,,,,,108,,,0.2,2558.256242784846,Y,l,go,l,1,0.3287315636553103,,,,,,,,,,,,,,,,,,26,001,27,m,"75% Bildungswissenschaft, 25% Psychologie",2023-01-17_10h36.36.570,00_bat_bachelor,2022.2.4,59.93011788067668,
,,,,,,,,,,,,1,0,1,0,109,0,109,0,,,,,,,109,,,0.2,2558.890222113827,X,d,go,None,0,,,,,,,,,,,,,,,,,,,26,001,27,m,"75% Bildungswissenschaft, 25% Psychologie",2023-01-17_10h36.36.570,00_bat_bachelor,2022.2.4,59.93011788067668,
,,,,,,,,,,,,1,0,1,0,110,0,110,0,,,,,,,110,,,0.2,2559.891024052835,X,None,nogo,None,1,,,,,2560.6913693617535,,,,,,,,,,,,,,26,001,27,m,"75% Bildungswissenschaft, 25% Psychologie",2023-01-17_10h36.36.570,00_bat_bachelor,2022.2.4,59.93011788067668,
,,,,,,,,,,,,1,0,1,0,111,0,111,0,,,,,,,111,,,0.2,2560.8918512039527,Y,l,go,l,1,0.33265301630308386,,,,,,,,,,,,,,,,,,26,001,27,m,"75% Bildungswissenschaft, 25% Psychologie",2023-01-17_10h36.36.570,00_bat_bachelor,2022.2.4,59.93011788067668,
,,,,,,,,,,,,1,0,1,0,112,0,112,0,,,,,,,112,,,0.2,2561.525570169426,X,d,go,None,0,,,,,,,,,,,,,,,,,,,26,001,27,m,"75% Bildungswissenschaft, 25% Psychologie",2023-01-17_10h36.36.570,00_bat_bachelor,2022.2.4,59.93011788067668,
,,,,,,,,,,,,1,0,1,0,113,0,113,0,,,,,,,113,,,0.2,2562.52647441141,Y,l,go,d,0,0.26629668482928537,,,,,,,,,,,,,,,,,,26,001,27,m,"75% Bildungswissenschaft, 25% Psychologie",2023-01-17_10h36.36.570,00_bat_bachelor,2022.2.4,59.93011788067668,
,,,,,,,,,,,,1,0,1,0,114,0,114,0,,,,,,,114,,,0.2,2563.0932101366197,X,d,go,None,0,,,,,2563.8941978694784,,,,,,,,,,,,,,26,001,27,m,"75% Bildungswissenschaft, 25% Psychologie",2023-01-17_10h36.36.570,00_bat_bachelor,2022.2.4,59.93011788067668,
,,,,,,,,,,,,1,0,1,0,115,0,115,0,,,,,,,115,,,0.2,2564.0942714694393,Y,l,go,l,1,0.4576876223436557,,,,,,,,,,,,,,,,,,26,001,27,m,"75% Bildungswissenschaft, 25% Psychologie",2023-01-17_10h36.36.570,00_bat_bachelor,2022.2.4,59.93011788067668,
,,,,,,,,,,,,1,0,1,0,116,0,116,0,,,,,,,116,,,0.2,2564.8614589762583,X,d,go,None,0,,,,,,,,,,,,,,,,,,,26,001,27,m,"75% Bildungswissenschaft, 25% Psychologie",2023-01-17_10h36.36.570,00_bat_bachelor,2022.2.4,59.93011788067668,
,,,,,,,,,,,,1,0,1,0,117,0,117,0,,,,,,,117,,,0.2,2565.8618900063593,Y,l,go,None,0,,,,,,,,,,,,,,,,,,,26,001,27,m,"75% Bildungswissenschaft, 25% Psychologie",2023-01-17_10h36.36.570,00_bat_bachelor,2022.2.4,59.93011788067668,
,,,,,,,,,,,,1,0,1,0,118,0,118,0,,,,,,,118,,,0.2,2566.8630386118602,Y,None,nogo,None,1,,,,,,,,,,,,,,,,,,,26,001,27,m,"75% Bildungswissenschaft, 25% Psychologie",2023-01-17_10h36.36.570,00_bat_bachelor,2022.2.4,59.93011788067668,
,,,,,,,,,,,,1,0,1,0,119,0,119,0,,,,,,,119,,,0.2,2567.8635447934357,X,d,go,d,1,0.06516223690414336,,,,,,,,,,,,,,,,,,26,001,27,m,"75% Bildungswissenschaft, 25% Psychologie",2023-01-17_10h36.36.570,00_bat_bachelor,2022.2.4,59.93011788067668,
,,,,,,,,,,,,1,0,1,0,120,0,120,0,,,,,,,120,,,0.2,2568.2308037668845,Y,l,go,None,0,,,,,,,,,,,,,,,,,,,26,001,27,m,"75% Bildungswissenschaft, 25% Psychologie",2023-01-17_10h36.36.570,00_bat_bachelor,2022.2.4,59.93011788067668,
,,,,,,,,,,,,1,0,1,0,121,0,121,0,,,,,,,121,,,0.2,2569.231479160502,X,d,go,None,0,,,,,,,,,,,,,,,,,,,26,001,27,m,"75% Bildungswissenschaft, 25% Psychologie",2023-01-17_10h36.36.570,00_bat_bachelor,2022.2.4,59.93011788067668,
,,,,,,,,,,,,1,0,1,0,122,0,122,0,,,,,,,122,,,0.2,2570.232403281261,Y,l,go,l,1,0.6396375947224442,,,,,,,,,,,,,,,,,,26,001,27,m,"75% Bildungswissenschaft, 25% Psychologie",2023-01-17_10h36.36.570,00_bat_bachelor,2022.2.4,59.93011788067668,
,,,,,,,,,,,,1,0,1,0,123,0,123,0,,,,,,,123,,,0.2,2571.183121850612,X,d,go,None,0,,,,,,,,,,,,,,,,,,,26,001,27,m,"75% Bildungswissenschaft, 25% Psychologie",2023-01-17_10h36.36.570,00_bat_bachelor,2022.2.4,59.93011788067668,
,,,,,,,,,,,,1,0,1,0,124,0,124,0,,,,,,,124,,,0.2,2572.183716759406,Y,l,go,None,0,,,,,,,,,,,,,,,,,,,26,001,27,m,"75% Bildungswissenschaft, 25% Psychologie",2023-01-17_10h36.36.570,00_bat_bachelor,2022.2.4,59.93011788067668,
,,,,,,,,,,,,1,0,1,0,125,0,125,0,,,,,,,125,,,0.2,2573.1844183348294,Y,None,nogo,None,1,,,,,,,,,,,,,,,,,,,26,001,27,m,"75% Bildungswissenschaft, 25% Psychologie",2023-01-17_10h36.36.570,00_bat_bachelor,2022.2.4,59.93011788067668,
,,,,,,,,,,,,1,0,1,0,126,0,126,0,,,,,,,126,,,0.2,2574.185246940484,X,d,go,d,1,0.51077414205065,,,,,,,,,,,,,,,,,,26,001,27,m,"75% Bildungswissenschaft, 25% Psychologie",2023-01-17_10h36.36.570,00_bat_bachelor,2022.2.4,59.93011788067668,
,,,,,,,,,,,,1,0,1,0,127,0,127,0,,,,,,,127,,,0.2,2575.002665695676,Y,l,go,None,0,,,,,2575.803240822672,,,,,,,,,,,,,,26,001,27,m,"75% Bildungswissenschaft, 25% Psychologie",2023-01-17_10h36.36.570,00_bat_bachelor,2022.2.4,59.93011788067668,
,,,,,,,,,,,,1,0,1,0,128,0,128,0,,,,,,,128,,,0.2,2576.003105453041,Y,None,nogo,None,1,,,,,,,,,,,,,,,,,,,26,001,27,m,"75% Bildungswissenschaft, 25% Psychologie",2023-01-17_10h36.36.570,00_bat_bachelor,2022.2.4,59.93011788067668,
,,,,,,,,,,,,1,0,1,0,129,0,129,0,,,,,,,129,,,0.2,2577.004043149558,X,d,go,None,0,,,,,2577.8046483371436,,,,,,,,,,,,,,26,001,27,m,"75% Bildungswissenschaft, 25% Psychologie",2023-01-17_10h36.36.570,00_bat_bachelor,2022.2.4,59.93011788067668,
,,,,,,,,,,,,1,0,1,0,130,0,130,0,,,,,,,130,,,0.2,2578.0049105430808,Y,l,go,l,1,0.3086452703573741,,,,,,,,,,,,,,,,,,26,001,27,m,"75% Bildungswissenschaft, 25% Psychologie",2023-01-17_10h36.36.570,00_bat_bachelor,2022.2.4,59.93011788067668,
,,,,,,,,,,,,1,0,1,0,131,0,131,0,,,,,,,131,,,0.2,2578.621956062081,X,d,go,None,0,,,,,2579.4225743405696,,,,,,,,,,,,,,26,001,27,m,"75% Bildungswissenschaft, 25% Psychologie",2023-01-17_10h36.36.570,00_bat_bachelor,2022.2.4,59.93011788067668,
,,,,,,,,,,,,1,0,1,0,132,0,132,0,,,,,,,132,,,0.2,2579.6227361829224,X,None,nogo,None,1,,,,,,,,,,,,,,,,,,,26,001,27,m,"75% Bildungswissenschaft, 25% Psychologie",2023-01-17_10h36.36.570,00_bat_bachelor,2022.2.4,59.93011788067668,
,,,,,,,,,,,,1,0,1,0,133,0,133,0,,,,,,,133,,,0.2,2580.623564788577,Y,l,go,None,0,,,,,,,,,,,,,,,,,,,26,001,27,m,"75% Bildungswissenschaft, 25% Psychologie",2023-01-17_10h36.36.570,00_bat_bachelor,2022.2.4,59.93011788067668,
,,,,,,,,,,,,1,0,1,0,134,0,134,0,,,,,,,134,,,0.2,2581.624289636704,X,d,go,l,0,0.3676954235561425,,,,,,,,,,,,,,,,,,26,001,27,m,"75% Bildungswissenschaft, 25% Psychologie",2023-01-17_10h36.36.570,00_bat_bachelor,2022.2.4,59.93011788067668,
,,,,,,,,,,,,1,0,1,0,135,0,135,0,,,,,,,135,,,0.2,2582.3078286992386,Y,l,go,l,1,0.46799840521998703,,,,,,,,,,,,,,,,,,26,001,27,m,"75% Bildungswissenschaft, 25% Psychologie",2023-01-17_10h36.36.570,00_bat_bachelor,2022.2.4,59.93011788067668,
,,,,,,,,,,,,1,0,1,0,136,0,136,0,,,,,,,136,,,0.2,2583.09219922802,X,d,go,d,1,0.3407465881173266,,,,,,,,,,,,,,,,,,26,001,27,m,"75% Bildungswissenschaft, 25% Psychologie",2023-01-17_10h36.36.570,00_bat_bachelor,2022.2.4,59.93011788067668,
