loop_instruction.thisRepN,loop_instruction.thisTrialN,loop_instruction.thisN,loop_instruction.thisIndex,loop_rsi_practice.thisRepN,loop_rsi_practice.thisTrialN,loop_rsi_practice.thisN,loop_rsi_practice.thisIndex,loop_practice.thisRepN,loop_practice.thisTrialN,loop_practice.thisN,loop_practice.thisIndex,loop_exp.thisRepN,loop_exp.thisTrialN,loop_exp.thisN,loop_exp.thisIndex,loop_trials.thisRepN,loop_trials.thisTrialN,loop_trials.thisN,loop_trials.thisIndex,map_condition,map_x_key,map_y_key,key_resp_welcome.started,key_resp_welcome.keys,key_resp_welcome.rt,index,text_empty_rsi_practice.started,text_empty_rsi_practice.stopped,rsi,stimulus.started,stimulus,correct,trial_type,key_resp_trial.keys,key_resp_trial.corr,key_resp_trial.rt,stimulus.stopped,key_resp_instruction_rsi.started,key_resp_instruction_rsi.keys,key_resp_instruction_rsi.rt,key_resp_instruction_rsi.stopped,key_resp_instruction_final.started,key_resp_instruction_final.keys,key_resp_instruction_final.rt,key_resp_break.started,key_resp_break.keys,key_resp_break.rt,key_resp_break.stopped,key_resp_end_screen.started,image_end_screen.started,key_resp_end_screen.stopped,image_end_screen.stopped,key_resp_end_screen.keys,participant,session,Alter,Geschlecht (w/m/d/andere),Studiengang,date,expName,psychopyVersion,frameRate,
,,,,0,0,0,0,0,0,0,0,,,,,,,,,1,l,d,7132.4821258268785,j,16.6787534262985,0,7149.187840393803,7150.204625355313,1,7150.204625355313,X,l,go,None,0,,,,,,,,,,,,,,,,,,,27,001,19,w,Psychologie,2023-01-17_12h05.43.029,00_bat_bachelor,2022.2.4,59.97141726525922,
,,,,0,0,0,0,1,0,1,0,,,,,,,,,,,,,,,1,7151.6204898809665,7152.621097395837,1,7152.621097395837,Y,d,go,d,1,0.35971309611340985,,,,,,,,,,,,,,,,,,27,001,19,w,Psychologie,2023-01-17_12h05.43.029,00_bat_bachelor,2022.2.4,59.97141726525922,
,,,,0,0,0,0,2,0,2,0,,,,,,,,,,,,,,,2,7153.688545605575,7154.689122574986,1,7154.689122574986,X,l,go,l,1,0.30665130366105586,,,,,,,,,,,,,,,,,,27,001,19,w,Psychologie,2023-01-17_12h05.43.029,00_bat_bachelor,2022.2.4,59.97141726525922,
,,,,0,0,0,0,3,0,3,0,,,,,,,,,,,,,,,3,7155.706686202844,7156.707506081206,1,7156.707506081206,X,None,nogo,l,0,0.4647011664346792,,,,,,,,,,,,,,,,,,27,001,19,w,Psychologie,2023-01-17_12h05.43.029,00_bat_bachelor,2022.2.4,59.97141726525922,
,,,,0,0,0,0,4,0,4,0,,,,,,,,,,,,,,,4,7158.291753555532,7159.292616585386,1,7159.292616585386,Y,d,go,None,0,,7160.093395833508,,,,,,,,,,,,,,,,,27,001,19,w,Psychologie,2023-01-17_12h05.43.029,00_bat_bachelor,2022.2.4,59.97141726525922,
,,,,0,0,0,0,5,0,5,0,,,,,,,,,,,,,,,5,7160.693370330497,7161.694398208754,1,7161.694398208754,X,l,go,l,1,0.35784836974926293,,,,,,,,,,,,,,,,,,27,001,19,w,Psychologie,2023-01-17_12h05.43.029,00_bat_bachelor,2022.2.4,59.97141726525922,
,,,,0,0,0,0,6,0,6,0,,,,,,,,,,,,,,,6,7162.761497327767,7163.762507751526,1,7163.762507751526,Y,d,go,d,1,0.36983672756468877,,,,,,,,,,,,,,,,,,27,001,19,w,Psychologie,2023-01-17_12h05.43.029,00_bat_bachelor,2022.2.4,59.97141726525922,
,,,,0,0,0,0,7,0,7,0,,,,,,,,,,,,,,,7,7164.84668613493,7165.847410983057,1,7165.847410983057,X,l,go,l,1,0.301226336567197,,,,,,,,,,,,,,,,,,27,001,19,w,Psychologie,2023-01-17_12h05.43.029,00_bat_bachelor,2022.2.4,59.97141726525922,
,,,,0,0,0,0,8,0,8,0,,,,,,,,,,,,,,,8,7166.864942610962,7167.865598610602,1,7167.865598610602,X,None,nogo,None,1,,,,,,,,,,,,,,,,,,,27,001,19,w,Psychologie,2023-01-17_12h05.43.029,00_bat_bachelor,2022.2.4,59.97141726525922,
,,,,0,0,0,0,9,0,9,0,,,,,,,,,,,,,,,9,7169.266615628323,7170.267214900756,1,7170.267214900756,Y,d,go,d,1,0.48838212463306263,,,,,,,,,,,,,,,,,,27,001,19,w,Psychologie,2023-01-17_12h05.43.029,00_bat_bachelor,2022.2.4,59.97141726525922,
,,,,0,0,0,0,10,0,10,0,,,,,,,,,,,,,,,10,7171.468120015459,7172.469258924015,1,7172.469258924015,X,l,go,l,1,0.303205487143714,,,,,,,,,,,,,,,,,,27,001,19,w,Psychologie,2023-01-17_12h05.43.029,00_bat_bachelor,2022.2.4,59.97141726525922,
,,,,0,0,0,0,11,0,11,0,,,,,,,,,,,,,,,11,7173.486340127827,7174.487334551581,1,7174.487334551581,X,None,nogo,None,1,,7175.287749678653,,,,,,,,,,,,,,,,,27,001,19,w,Psychologie,2023-01-17_12h05.43.029,00_bat_bachelor,2022.2.4,59.97141726525922,
,,,,0,0,0,0,12,0,12,0,,,,,,,,,,,,,,,12,7175.888540175278,7176.8893212658,1,7176.8893212658,Y,d,go,d,1,0.34625807229895145,,,,,,,,,,,,,,,,,,27,001,19,w,Psychologie,2023-01-17_12h05.43.029,00_bat_bachelor,2022.2.4,59.97141726525922,
,,,,0,0,0,0,13,0,13,0,,,,,,,,,,,,,,,13,7177.940117847233,7178.940712756012,1,7178.940712756012,X,l,go,l,1,0.3440190431429073,,,,,,,,,,,,,,,,,,27,001,19,w,Psychologie,2023-01-17_12h05.43.029,00_bat_bachelor,2022.2.4,59.97141726525922,
,,,,0,0,0,0,14,0,14,0,,,,,,,,,,,,,,,14,7180.008235632384,7181.008735510928,1,7181.008735510928,Y,d,go,d,1,0.4191176733584143,,,,,,,,,,,,,,,,,,27,001,19,w,Psychologie,2023-01-17_12h05.43.029,00_bat_bachelor,2022.2.4,59.97141726525922,
,,,,1,0,1,0,0,0,0,0,,,,,,,,,,,,,,,0,7197.938645847957,7198.138746114564,0.2,7198.138746114564,X,l,go,l,1,0.6011539486935362,,7182.153125743964,j,15.75786514551146,,,,,,,,,,,,,,27,001,19,w,Psychologie,2023-01-17_12h05.43.029,00_bat_bachelor,2022.2.4,59.97141726525922,
,,,,1,0,1,0,1,0,1,0,,,,,,,,,,,,,,,1,7199.456443899893,7199.656537863484,0.2,7199.656537863484,Y,d,go,d,1,0.2676297468133271,,,,,,,,,,,,,,,,,,27,001,19,w,Psychologie,2023-01-17_12h05.43.029,00_bat_bachelor,2022.2.4,59.97141726525922,
,,,,1,0,1,0,2,0,2,0,,,,,,,,,,,,,,,2,7200.64062756818,7200.840706986317,0.2,7200.840706986317,X,l,go,l,1,0.39670459332410246,,,,,,,,,,,,,,,,,,27,001,19,w,Psychologie,2023-01-17_12h05.43.029,00_bat_bachelor,2022.2.4,59.97141726525922,
,,,,1,0,1,0,3,0,3,0,,,,,,,,,,,,,,,3,7201.941726088873,7202.14191605238,0.2,7202.14191605238,X,None,nogo,d,0,0.375321815838106,,,,,,,,,,,,,,,,,,27,001,19,w,Psychologie,2023-01-17_12h05.43.029,00_bat_bachelor,2022.2.4,59.97141726525922,
,,,,1,0,1,0,4,0,4,0,,,,,,,,,,,,,,,4,7203.62605593889,7203.826457781135,0.2,7203.826457781135,Y,d,go,d,1,0.6411582930013537,,,,,,,,,,,,,,,,,,27,001,19,w,Psychologie,2023-01-17_12h05.43.029,00_bat_bachelor,2022.2.4,59.97141726525922,
,,,,1,0,1,0,5,0,5,0,,,,,,,,,,,,,,,5,7205.177130580763,7205.37732248375,0.2,7205.37732248375,X,l,go,l,1,0.3225935989175923,,,,,,,,,,,,,,,,,,27,001,19,w,Psychologie,2023-01-17_12h05.43.029,00_bat_bachelor,2022.2.4,59.97141726525922,
,,,,1,0,1,0,6,0,6,0,,,,,,,,,,,,,,,6,7206.41182573972,7206.6119657639065,0.2,7206.6119657639065,Y,d,go,d,1,0.35196085745701566,,,,,,,,,,,,,,,,,,27,001,19,w,Psychologie,2023-01-17_12h05.43.029,00_bat_bachelor,2022.2.4,59.97141726525922,
,,,,1,0,1,0,7,0,7,0,,,,,,,,,,,,,,,7,7207.679305367637,7207.879472058441,0.2,7207.879472058441,X,l,go,l,1,0.39814895630115643,,,,,,,,,,,,,,,,,,27,001,19,w,Psychologie,2023-01-17_12h05.43.029,00_bat_bachelor,2022.2.4,59.97141726525922,
,,,,1,0,1,0,8,0,8,0,,,,,,,,,,,,,,,8,7208.980033949076,7209.180288882286,0.2,7209.180288882286,Y,d,go,d,1,0.3926405952661298,,,,,,,,,,,,,,,,,,27,001,19,w,Psychologie,2023-01-17_12h05.43.029,00_bat_bachelor,2022.2.4,59.97141726525922,
,,,,1,0,1,0,9,0,9,0,,,,,,,,,,,,,,,9,7210.281570287712,7210.481565342285,0.2,7210.481565342285,Y,None,nogo,None,1,,7211.282366408559,,,,,,,,,,,,,,,,,27,001,19,w,Psychologie,2023-01-17_12h05.43.029,00_bat_bachelor,2022.2.4,59.97141726525922,
,,,,1,0,1,0,10,0,10,0,,,,,,,,,,,,,,,10,7211.882811208314,7212.082953171921,0.2,7212.082953171921,X,l,go,l,1,0.24135048681637272,,,,,,,,,,,,,,,,,,27,001,19,w,Psychologie,2023-01-17_12h05.43.029,00_bat_bachelor,2022.2.4,59.97141726525922,
,,,,1,0,1,0,11,0,11,0,,,,,,,,,,,,,,,11,7213.033723619999,7213.233815159358,0.2,7213.233815159358,Y,d,go,d,1,0.36993660632288083,,,,,,,,,,,,,,,,,,27,001,19,w,Psychologie,2023-01-17_12h05.43.029,00_bat_bachelor,2022.2.4,59.97141726525922,
,,,,1,0,1,0,12,0,12,0,,,,,,,,,,,,,,,12,7214.317858270137,7214.518129688164,0.2,7214.518129688164,X,l,go,l,1,0.3499477675068192,,,,,,,,,,,,,,,,,,27,001,19,w,Psychologie,2023-01-17_12h05.43.029,00_bat_bachelor,2022.2.4,59.97141726525922,
,,,,1,0,1,0,13,0,13,0,,,,,,,,,,,,,,,13,7215.568976693845,7215.768956233223,0.2,7215.768956233223,Y,d,go,d,1,0.3634139428031631,,,,,,,,,,,,,,,,,,27,001,19,w,Psychologie,2023-01-17_12h05.43.029,00_bat_bachelor,2022.2.4,59.97141726525922,
,,,,1,0,1,0,14,0,14,0,,,,,,,,,,,,,,,14,7216.836424321751,7217.036797557899,0.2,7217.036797557899,Y,None,nogo,l,0,0.31262366444570944,,,,,,,,,,,,,,,,,,27,001,19,w,Psychologie,2023-01-17_12h05.43.029,00_bat_bachelor,2022.2.4,59.97141726525922,
,,,,,,,,,,,,,,,,,,,,,,,,,,,,,,,,,,,,,,7218.500522424001,None,,7218.500522424001,7218.500522424001,space,3.9709860118455254,,,,,,,,,,27,001,19,w,Psychologie,2023-01-17_12h05.43.029,00_bat_bachelor,2022.2.4,59.97141726525922,
,,,,,,,,,,,,0,0,0,0,0,0,0,0,,,,,,,0,,,1,7223.491397095087,X,l,go,l,1,0.25613350997446105,,,,,,,,,,,,,,,,,,27,001,19,w,Psychologie,2023-01-17_12h05.43.029,00_bat_bachelor,2022.2.4,59.97141726525922,
,,,,,,,,,,,,0,0,0,0,1,0,1,0,,,,,,,1,,,1,7224.859409037861,Y,d,go,d,1,0.313333967118524,,,,,,,,,,,,,,,,,,27,001,19,w,Psychologie,2023-01-17_12h05.43.029,00_bat_bachelor,2022.2.4,59.97141726525922,
,,,,,,,,,,,,0,0,0,0,2,0,2,0,,,,,,,2,,,1,7226.276955502108,X,l,go,l,1,0.38249126687878743,,,,,,,,,,,,,,,,,,27,001,19,w,Psychologie,2023-01-17_12h05.43.029,00_bat_bachelor,2022.2.4,59.97141726525922,
,,,,,,,,,,,,0,0,0,0,3,0,3,0,,,,,,,3,,,1,7227.761408600549,X,None,nogo,None,1,,7228.562205303169,,,,,,,,,,,,,,,,,27,001,19,w,Psychologie,2023-01-17_12h05.43.029,00_bat_bachelor,2022.2.4,59.97141726525922,
,,,,,,,,,,,,0,0,0,0,4,0,4,0,,,,,,,4,,,1,7229.562784212001,Y,d,go,d,1,0.377093936142046,,,,,,,,,,,,,,,,,,27,001,19,w,Psychologie,2023-01-17_12h05.43.029,00_bat_bachelor,2022.2.4,59.97141726525922,
,,,,,,,,,,,,0,0,0,0,5,0,5,0,,,,,,,5,,,1,7231.047398764873,X,l,go,l,1,0.33278559398604557,,,,,,,,,,,,,,,,,,27,001,19,w,Psychologie,2023-01-17_12h05.43.029,00_bat_bachelor,2022.2.4,59.97141726525922,
,,,,,,,,,,,,0,0,0,0,6,0,6,0,,,,,,,6,,,1,7232.48186352395,X,None,nogo,None,1,,,,,,,,,,,,,,,,,,,27,001,19,w,Psychologie,2023-01-17_12h05.43.029,00_bat_bachelor,2022.2.4,59.97141726525922,
,,,,,,,,,,,,0,0,0,0,7,0,7,0,,,,,,,7,,,1,7234.282878408325,Y,d,go,d,1,0.3465586782549508,,,,,,,,,,,,,,,,,,27,001,19,w,Psychologie,2023-01-17_12h05.43.029,00_bat_bachelor,2022.2.4,59.97141726525922,
,,,,,,,,,,,,0,0,0,0,8,0,8,0,,,,,,,8,,,1,7235.733965219872,X,l,go,l,1,0.2871870707022026,,,,,,,,,,,,,,,,,,27,001,19,w,Psychologie,2023-01-17_12h05.43.029,00_bat_bachelor,2022.2.4,59.97141726525922,
,,,,,,,,,,,,0,0,0,0,9,0,9,0,,,,,,,9,,,1,7237.13514175266,X,None,nogo,None,1,,,,,,,,,,,,,,,,,,,27,001,19,w,Psychologie,2023-01-17_12h05.43.029,00_bat_bachelor,2022.2.4,59.97141726525922,
,,,,,,,,,,,,0,0,0,0,10,0,10,0,,,,,,,10,,,1,7238.936189606728,Y,d,go,d,1,0.2993843980948441,,,,,,,,,,,,,,,,,,27,001,19,w,Psychologie,2023-01-17_12h05.43.029,00_bat_bachelor,2022.2.4,59.97141726525922,
,,,,,,,,,,,,0,0,0,0,11,0,11,0,,,,,,,11,,,1,7240.33748056367,X,l,go,l,1,0.2913640383630991,,,,,,,,,,,,,,,,,,27,001,19,w,Psychologie,2023-01-17_12h05.43.029,00_bat_bachelor,2022.2.4,59.97141726525922,
,,,,,,,,,,,,0,0,0,0,12,0,12,0,,,,,,,12,,,1,7241.738812247873,Y,d,go,d,1,0.26552550541236997,,,,,,,,,,,,,,,,,,27,001,19,w,Psychologie,2023-01-17_12h05.43.029,00_bat_bachelor,2022.2.4,59.97141726525922,
,,,,,,,,,,,,0,0,0,0,13,0,13,0,,,,,,,13,,,1,7243.106580796826,X,l,go,l,1,0.289744645182509,,,,,,,,,,,,,,,,,,27,001,19,w,Psychologie,2023-01-17_12h05.43.029,00_bat_bachelor,2022.2.4,59.97141726525922,
,,,,,,,,,,,,0,0,0,0,14,0,14,0,,,,,,,14,,,1,7244.507322420715,Y,d,go,d,1,0.3454231636133045,,,,,,,,,,,,,,,,,,27,001,19,w,Psychologie,2023-01-17_12h05.43.029,00_bat_bachelor,2022.2.4,59.97141726525922,
,,,,,,,,,,,,0,0,0,0,15,0,15,0,,,,,,,15,,,1,7245.958225474809,X,l,go,l,1,0.3654134569806047,,,,,,,,,,,,,,,,,,27,001,19,w,Psychologie,2023-01-17_12h05.43.029,00_bat_bachelor,2022.2.4,59.97141726525922,
,,,,,,,,,,,,0,0,0,0,16,0,16,0,,,,,,,16,,,1,7247.426319308463,Y,d,go,d,1,0.4658245598548092,,,,,,,,,,,,,,,,,,27,001,19,w,Psychologie,2023-01-17_12h05.43.029,00_bat_bachelor,2022.2.4,59.97141726525922,
,,,,,,,,,,,,0,0,0,0,17,0,17,0,,,,,,,17,,,1,7248.9945818207925,Y,None,nogo,None,1,,7249.794883978262,,,,,,,,,,,,,,,,,27,001,19,w,Psychologie,2023-01-17_12h05.43.029,00_bat_bachelor,2022.2.4,59.97141726525922,
,,,,,,,,,,,,0,0,0,0,18,0,18,0,,,,,,,18,,,1,7250.795766886906,X,l,go,l,1,0.34521516371751204,,,,,,,,,,,,,,,,,,27,001,19,w,Psychologie,2023-01-17_12h05.43.029,00_bat_bachelor,2022.2.4,59.97141726525922,
,,,,,,,,,,,,0,0,0,0,19,0,19,0,,,,,,,19,,,1,7252.247331274033,Y,d,go,d,1,0.41168107092380524,,,,,,,,,,,,,,,,,,27,001,19,w,Psychologie,2023-01-17_12h05.43.029,00_bat_bachelor,2022.2.4,59.97141726525922,
,,,,,,,,,,,,0,0,0,0,20,0,20,0,,,,,,,20,,,1,7253.7985314916,X,l,go,l,1,0.31644620798761025,,,,,,,,,,,,,,,,,,27,001,19,w,Psychologie,2023-01-17_12h05.43.029,00_bat_bachelor,2022.2.4,59.97141726525922,
,,,,,,,,,,,,0,0,0,0,21,0,21,0,,,,,,,21,,,1,7255.249612485059,Y,d,go,d,1,0.4342236054362729,,,,,,,,,,,,,,,,,,27,001,19,w,Psychologie,2023-01-17_12h05.43.029,00_bat_bachelor,2022.2.4,59.97141726525922,
,,,,,,,,,,,,0,0,0,0,22,0,22,0,,,,,,,22,,,1,7256.800785066269,X,l,go,l,1,0.2910275536123663,,,,,,,,,,,,,,,,,,27,001,19,w,Psychologie,2023-01-17_12h05.43.029,00_bat_bachelor,2022.2.4,59.97141726525922,
,,,,,,,,,,,,0,0,0,0,23,0,23,0,,,,,,,23,,,1,7258.235016613326,X,None,nogo,None,1,,7259.036037315847,,,,,,,,,,,,,,,,,27,001,19,w,Psychologie,2023-01-17_12h05.43.029,00_bat_bachelor,2022.2.4,59.97141726525922,
,,,,,,,,,,,,0,0,0,0,24,0,24,0,,,,,,,24,,,1,7260.0366045883275,Y,d,go,d,1,0.2864811316248961,,,,,,,,,,,,,,,,,,27,001,19,w,Psychologie,2023-01-17_12h05.43.029,00_bat_bachelor,2022.2.4,59.97141726525922,
,,,,,,,,,,,,0,0,0,0,25,0,25,0,,,,,,,25,,,1,7261.454360506963,X,l,go,l,1,0.3091720297234133,,,,,,,,,,,,,,,,,,27,001,19,w,Psychologie,2023-01-17_12h05.43.029,00_bat_bachelor,2022.2.4,59.97141726525922,
,,,,,,,,,,,,0,0,0,0,26,0,26,0,,,,,,,26,,,1,7262.888631811598,X,None,nogo,None,1,,7263.68950027175,,,,,,,,,,,,,,,,,27,001,19,w,Psychologie,2023-01-17_12h05.43.029,00_bat_bachelor,2022.2.4,59.97141726525922,
,,,,,,,,,,,,0,0,0,0,27,0,27,0,,,,,,,27,,,1,7264.690182938124,Y,d,go,d,1,0.3055492435814813,,,,,,,,,,,,,,,,,,27,001,19,w,Psychologie,2023-01-17_12h05.43.029,00_bat_bachelor,2022.2.4,59.97141726525922,
,,,,,,,,,,,,0,0,0,0,28,0,28,0,,,,,,,28,,,1,7266.124385879084,X,l,go,l,1,0.31139796803472564,,,,,,,,,,,,,,,,,,27,001,19,w,Psychologie,2023-01-17_12h05.43.029,00_bat_bachelor,2022.2.4,59.97141726525922,
,,,,,,,,,,,,0,0,0,0,29,0,29,0,,,,,,,29,,,1,7267.5423813128145,X,None,nogo,None,1,,7268.342711106583,,,,,,,,,,,,,,,,,27,001,19,w,Psychologie,2023-01-17_12h05.43.029,00_bat_bachelor,2022.2.4,59.97141726525922,
,,,,,,,,,,,,0,0,0,0,30,0,30,0,,,,,,,30,,,1,7269.3435406819335,Y,d,go,d,1,0.37260181712917984,,,,,,,,,,,,,,,,,,27,001,19,w,Psychologie,2023-01-17_12h05.43.029,00_bat_bachelor,2022.2.4,59.97141726525922,
,,,,,,,,,,,,0,0,0,0,31,0,31,0,,,,,,,31,,,1,7270.844473772391,X,l,go,l,1,0.35958218708401546,,,,,,,,,,,,,,,,,,27,001,19,w,Psychologie,2023-01-17_12h05.43.029,00_bat_bachelor,2022.2.4,59.97141726525922,
,,,,,,,,,,,,0,0,0,0,32,0,32,0,,,,,,,32,,,1,7272.312267969828,Y,d,go,d,1,0.31540572363883257,,,,,,,,,,,,,,,,,,27,001,19,w,Psychologie,2023-01-17_12h05.43.029,00_bat_bachelor,2022.2.4,59.97141726525922,
,,,,,,,,,,,,0,0,0,0,33,0,33,0,,,,,,,33,,,1,7273.746774425788,X,l,go,l,1,0.27311241085408255,,,,,,,,,,,,,,,,,,27,001,19,w,Psychologie,2023-01-17_12h05.43.029,00_bat_bachelor,2022.2.4,59.97141726525922,
,,,,,,,,,,,,0,0,0,0,34,0,34,0,,,,,,,34,,,1,7275.147816170764,Y,d,go,d,1,0.29656258126487955,,,,,,,,,,,,,,,,,,27,001,19,w,Psychologie,2023-01-17_12h05.43.029,00_bat_bachelor,2022.2.4,59.97141726525922,
,,,,,,,,,,,,0,0,0,0,35,0,35,0,,,,,,,35,,,1,7276.565589543956,X,l,go,l,1,0.26991968508809805,,,,,,,,,,,,,,,,,,27,001,19,w,Psychologie,2023-01-17_12h05.43.029,00_bat_bachelor,2022.2.4,59.97141726525922,
,,,,,,,,,,,,0,0,0,0,36,0,36,0,,,,,,,36,,,1,7277.949976751523,Y,d,go,d,1,0.3731055745156482,,,,,,,,,,,,,,,,,,27,001,19,w,Psychologie,2023-01-17_12h05.43.029,00_bat_bachelor,2022.2.4,59.97141726525922,
,,,,,,,,,,,,0,0,0,0,37,0,37,0,,,,,,,37,,,1,7279.451090205519,Y,None,nogo,None,1,,7280.251753574936,,,,,,,,,,,,,,,,,27,001,19,w,Psychologie,2023-01-17_12h05.43.029,00_bat_bachelor,2022.2.4,59.97141726525922,
,,,,,,,,,,,,0,0,0,0,38,0,38,0,,,,,,,38,,,1,7281.252268483746,X,l,go,l,1,0.2559706009342335,,,,,,,,,,,,,,,,,,27,001,19,w,Psychologie,2023-01-17_12h05.43.029,00_bat_bachelor,2022.2.4,59.97141726525922,
,,,,,,,,,,,,0,0,0,0,39,0,39,0,,,,,,,39,,,1,7282.620215456875,Y,d,go,d,1,0.3452699515619315,,,,,,,,,,,,,,,,,,27,001,19,w,Psychologie,2023-01-17_12h05.43.029,00_bat_bachelor,2022.2.4,59.97141726525922,
,,,,,,,,,,,,0,0,0,0,40,0,40,0,,,,,,,40,,,1,7284.071292571491,X,l,go,l,1,0.26862368575530127,,,,,,,,,,,,,,,,,,27,001,19,w,Psychologie,2023-01-17_12h05.43.029,00_bat_bachelor,2022.2.4,59.97141726525922,
,,,,,,,,,,,,0,0,0,0,41,0,41,0,,,,,,,41,,,1,7285.455623536662,Y,d,go,d,1,0.262048173812218,,,,,,,,,,,,,,,,,,27,001,19,w,Psychologie,2023-01-17_12h05.43.029,00_bat_bachelor,2022.2.4,59.97141726525922,
,,,,,,,,,,,,0,0,0,0,42,0,42,0,,,,,,,42,,,1,7286.823410025041,X,l,go,l,1,0.26828914042562246,,,,,,,,,,,,,,,,,,27,001,19,w,Psychologie,2023-01-17_12h05.43.029,00_bat_bachelor,2022.2.4,59.97141726525922,
,,,,,,,,,,,,0,0,0,0,43,0,43,0,,,,,,,43,,,1,7288.2075678993715,Y,d,go,d,1,0.35692279442446306,,,,,,,,,,,,,,,,,,27,001,19,w,Psychologie,2023-01-17_12h05.43.029,00_bat_bachelor,2022.2.4,59.97141726525922,
,,,,,,,,,,,,0,0,0,0,44,0,44,0,,,,,,,44,,,1,7289.675508036104,X,l,go,l,1,0.32847044459776953,,,,,,,,,,,,,,,,,,27,001,19,w,Psychologie,2023-01-17_12h05.43.029,00_bat_bachelor,2022.2.4,59.97141726525922,
,,,,,,,,,,,,0,0,0,0,45,0,45,0,,,,,,,45,,,1,7291.126624908298,X,None,nogo,d,0,0.28493592026643455,,,,,,,,,,,,,,,,,,27,001,19,w,Psychologie,2023-01-17_12h05.43.029,00_bat_bachelor,2022.2.4,59.97141726525922,
,,,,,,,,,,,,0,0,0,0,46,0,46,0,,,,,,,46,,,1,7292.527503744233,Y,d,go,d,1,0.2917296139639802,,,,,,,,,,,,,,,,,,27,001,19,w,Psychologie,2023-01-17_12h05.43.029,00_bat_bachelor,2022.2.4,59.97141726525922,
,,,,,,,,,,,,0,0,0,0,47,0,47,0,,,,,,,47,,,1,7293.928917367826,X,l,go,l,1,0.45979304757202044,,,,,,,,,,,,,,,,,,27,001,19,w,Psychologie,2023-01-17_12h05.43.029,00_bat_bachelor,2022.2.4,59.97141726525922,
,,,,,,,,,,,,0,0,0,0,48,0,48,0,,,,,,,48,,,1,7295.496137941256,Y,d,go,d,1,0.33235553361009806,,,,,,,,,,,,,,,,,,27,001,19,w,Psychologie,2023-01-17_12h05.43.029,00_bat_bachelor,2022.2.4,59.97141726525922,
,,,,,,,,,,,,0,0,0,0,49,0,49,0,,,,,,,49,,,1,7296.930376761011,X,l,go,l,1,0.33827795495744795,,,,,,,,,,,,,,,,,,27,001,19,w,Psychologie,2023-01-17_12h05.43.029,00_bat_bachelor,2022.2.4,59.97141726525922,
,,,,,,,,,,,,0,0,0,0,50,0,50,0,,,,,,,50,,,1,7298.381683693733,Y,d,go,d,1,0.2792956805205904,,,,,,,,,,,,,,,,,,27,001,19,w,Psychologie,2023-01-17_12h05.43.029,00_bat_bachelor,2022.2.4,59.97141726525922,
,,,,,,,,,,,,0,0,0,0,51,0,51,0,,,,,,,51,,,1,7299.76611211343,X,l,go,l,1,0.28544937452534214,,,,,,,,,,,,,,,,,,27,001,19,w,Psychologie,2023-01-17_12h05.43.029,00_bat_bachelor,2022.2.4,59.97141726525922,
,,,,,,,,,,,,0,0,0,0,52,0,52,0,,,,,,,52,,,1,7301.167424403655,Y,d,go,d,1,0.3253533552051522,,,,,,,,,,,,,,,,,,27,001,19,w,Psychologie,2023-01-17_12h05.43.029,00_bat_bachelor,2022.2.4,59.97141726525922,
,,,,,,,,,,,,0,0,0,0,53,0,53,0,,,,,,,53,,,1,7302.60135146603,X,l,go,l,1,0.3475143141695298,,,,,,,,,,,,,,,,,,27,001,19,w,Psychologie,2023-01-17_12h05.43.029,00_bat_bachelor,2022.2.4,59.97141726525922,
,,,,,,,,,,,,0,0,0,0,54,0,54,0,,,,,,,54,,,1,7304.052741307765,Y,d,go,d,1,0.31948669138364494,,,,,,,,,,,,,,,,,,27,001,19,w,Psychologie,2023-01-17_12h05.43.029,00_bat_bachelor,2022.2.4,59.97141726525922,
,,,,,,,,,,,,0,0,0,0,55,0,55,0,,,,,,,55,,,1,7305.487070794159,X,l,go,l,1,0.38896011223550886,,,,,,,,,,,,,,,,,,27,001,19,w,Psychologie,2023-01-17_12h05.43.029,00_bat_bachelor,2022.2.4,59.97141726525922,
,,,,,,,,,,,,0,0,0,0,56,0,56,0,,,,,,,56,,,1,7306.98804655124,Y,d,go,d,1,0.31286899757105857,,,,,,,,,,,,,,,,,,27,001,19,w,Psychologie,2023-01-17_12h05.43.029,00_bat_bachelor,2022.2.4,59.97141726525922,
,,,,,,,,,,,,0,0,0,0,57,0,57,0,,,,,,,57,,,1,7308.406073500111,X,l,go,l,1,0.4144544029259123,,,,,,,,,,,,,,,,,,27,001,19,w,Psychologie,2023-01-17_12h05.43.029,00_bat_bachelor,2022.2.4,59.97141726525922,
,,,,,,,,,,,,0,0,0,0,58,0,58,0,,,,,,,58,,,1,7309.923679067288,X,None,nogo,None,1,,7310.724435042706,,,,,,,,,,,,,,,,,27,001,19,w,Psychologie,2023-01-17_12h05.43.029,00_bat_bachelor,2022.2.4,59.97141726525922,
,,,,,,,,,,,,0,0,0,0,59,0,59,0,,,,,,,59,,,1,7311.725396011956,Y,d,go,d,1,0.39108229300472885,,,,,,,,,,,,,,,,,,27,001,19,w,Psychologie,2023-01-17_12h05.43.029,00_bat_bachelor,2022.2.4,59.97141726525922,
,,,,,,,,,,,,0,0,0,0,60,0,60,0,,,,,,,60,,,1,7313.226693708275,X,l,go,l,1,0.3297596560441889,,,,,,,,,,,,,,,,,,27,001,19,w,Psychologie,2023-01-17_12h05.43.029,00_bat_bachelor,2022.2.4,59.97141726525922,
,,,,,,,,,,,,0,0,0,0,61,0,61,0,,,,,,,61,,,1,7314.661231679434,Y,d,go,d,1,0.35039964609313756,,,,,,,,,,,,,,,,,,27,001,19,w,Psychologie,2023-01-17_12h05.43.029,00_bat_bachelor,2022.2.4,59.97141726525922,
,,,,,,,,,,,,0,0,0,0,62,0,62,0,,,,,,,62,,,1,7316.111698370078,X,l,go,l,1,0.3405989235616289,,,,,,,,,,,,,,,,,,27,001,19,w,Psychologie,2023-01-17_12h05.43.029,00_bat_bachelor,2022.2.4,59.97141726525922,
,,,,,,,,,,,,0,0,0,0,63,0,63,0,,,,,,,63,,,1,7317.563004333118,X,None,nogo,None,1,,,,,,,,,,,,,,,,,,,27,001,19,w,Psychologie,2023-01-17_12h05.43.029,00_bat_bachelor,2022.2.4,59.97141726525922,
,,,,,,,,,,,,0,0,0,0,64,0,64,0,,,,,,,64,,,1,7319.364138974983,Y,d,go,d,1,0.3197436609189026,,,,,,,,,,,,,,,,,,27,001,19,w,Psychologie,2023-01-17_12h05.43.029,00_bat_bachelor,2022.2.4,59.97141726525922,
,,,,,,,,,,,,0,0,0,0,65,0,65,0,,,,,,,65,,,1,7320.798793309659,X,l,go,l,1,0.3413014686666429,,,,,,,,,,,,,,,,,,27,001,19,w,Psychologie,2023-01-17_12h05.43.029,00_bat_bachelor,2022.2.4,59.97141726525922,
,,,,,,,,,,,,0,0,0,0,66,0,66,0,,,,,,,66,,,1,7322.249962545466,Y,d,go,d,1,0.3301538376836106,,,,,,,,,,,,,,,,,,27,001,19,w,Psychologie,2023-01-17_12h05.43.029,00_bat_bachelor,2022.2.4,59.97141726525922,
,,,,,,,,,,,,0,0,0,0,67,0,67,0,,,,,,,67,,,1,7323.6844132439,X,l,go,l,1,0.27181738114450127,,,,,,,,,,,,,,,,,,27,001,19,w,Psychologie,2023-01-17_12h05.43.029,00_bat_bachelor,2022.2.4,59.97141726525922,
,,,,,,,,,,,,0,0,0,0,68,0,68,0,,,,,,,68,,,1,7325.068528936477,Y,d,go,d,1,0.36028036853531376,,,,,,,,,,,,,,,,,,27,001,19,w,Psychologie,2023-01-17_12h05.43.029,00_bat_bachelor,2022.2.4,59.97141726525922,
,,,,,,,,,,,,0,0,0,0,69,0,69,0,,,,,,,69,,,1,7326.536482648982,X,l,go,l,1,0.2514920576941222,,,,,,,,,,,,,,,,,,27,001,19,w,Psychologie,2023-01-17_12h05.43.029,00_bat_bachelor,2022.2.4,59.97141726525922,
,,,,,,,,,,,,0,0,0,0,70,0,70,0,,,,,,,70,,,1,7327.904116410122,X,None,nogo,None,1,,,,,,,,,,,,,,,,,,,27,001,19,w,Psychologie,2023-01-17_12h05.43.029,00_bat_bachelor,2022.2.4,59.97141726525922,
,,,,,,,,,,,,0,0,0,0,71,0,71,0,,,,,,,71,,,1,7329.705367415561,Y,d,go,d,1,0.347334920312278,,,,,,,,,,,,,,,,,,27,001,19,w,Psychologie,2023-01-17_12h05.43.029,00_bat_bachelor,2022.2.4,59.97141726525922,
,,,,,,,,,,,,0,0,0,0,72,0,72,0,,,,,,,72,,,1,7331.156532287772,X,l,go,l,1,0.2708709573489614,,,,,,,,,,,,,,,,,,27,001,19,w,Psychologie,2023-01-17_12h05.43.029,00_bat_bachelor,2022.2.4,59.97141726525922,
,,,,,,,,,,,,0,0,0,0,73,0,73,0,,,,,,,73,,,1,7332.541417434462,Y,d,go,d,1,0.3102416049223393,,,,,,,,,,,,,,,,,,27,001,19,w,Psychologie,2023-01-17_12h05.43.029,00_bat_bachelor,2022.2.4,59.97141726525922,
,,,,,,,,,,,,0,0,0,0,74,0,74,0,,,,,,,74,,,1,7333.958586201887,Y,None,nogo,None,1,,,,,,,,,,,,,,,,,,,27,001,19,w,Psychologie,2023-01-17_12h05.43.029,00_bat_bachelor,2022.2.4,59.97141726525922,
,,,,,,,,,,,,0,0,0,0,75,0,75,0,,,,,,,75,,,1,7335.760057813313,X,l,go,l,1,0.24520454555749893,,,,,,,,,,,,,,,,,,27,001,19,w,Psychologie,2023-01-17_12h05.43.029,00_bat_bachelor,2022.2.4,59.97141726525922,
,,,,,,,,,,,,0,0,0,0,76,0,76,0,,,,,,,76,,,1,7337.111163097608,Y,d,go,d,1,0.36564618413103744,,,,,,,,,,,,,,,,,,27,001,19,w,Psychologie,2023-01-17_12h05.43.029,00_bat_bachelor,2022.2.4,59.97141726525922,
,,,,,,,,,,,,0,0,0,0,77,0,77,0,,,,,,,77,,,1,7338.5789902647375,X,l,go,l,1,0.4330754847615026,,,,,,,,,,,,,,,,,,27,001,19,w,Psychologie,2023-01-17_12h05.43.029,00_bat_bachelor,2022.2.4,59.97141726525922,
,,,,,,,,,,,,0,0,0,0,78,0,78,0,,,,,,,78,,,1,7340.113307581458,Y,d,go,d,1,0.22670225147157907,,,,,,,,,,,,,,,,,,27,001,19,w,Psychologie,2023-01-17_12h05.43.029,00_bat_bachelor,2022.2.4,59.97141726525922,
,,,,,,,,,,,,0,0,0,0,79,0,79,0,,,,,,,79,,,1,7341.4479915403645,X,l,go,l,1,0.2362120650941506,,,,,,,,,,,,,,,,,,27,001,19,w,Psychologie,2023-01-17_12h05.43.029,00_bat_bachelor,2022.2.4,59.97141726525922,
,,,,,,,,,,,,0,0,0,0,80,0,80,0,,,,,,,80,,,1,7342.799062400474,Y,d,go,d,1,0.24398612190270796,,,,,,,,,,,,,,,,,,27,001,19,w,Psychologie,2023-01-17_12h05.43.029,00_bat_bachelor,2022.2.4,59.97141726525922,
,,,,,,,,,,,,0,0,0,0,81,0,81,0,,,,,,,81,,,1,7344.150080412102,X,l,go,l,1,0.2538697534473613,,,,,,,,,,,,,,,,,,27,001,19,w,Psychologie,2023-01-17_12h05.43.029,00_bat_bachelor,2022.2.4,59.97141726525922,
,,,,,,,,,,,,0,0,0,0,82,0,82,0,,,,,,,82,,,1,7345.517868839845,Y,d,go,d,1,0.21422759088454768,,,,,,,,,,,,,,,,,,27,001,19,w,Psychologie,2023-01-17_12h05.43.029,00_bat_bachelor,2022.2.4,59.97141726525922,
,,,,,,,,,,,,0,0,0,0,83,0,83,0,,,,,,,83,,,1,7346.835611231218,Y,None,nogo,l,0,0.2566290249233134,,,,,,,,,,,,,,,,,,27,001,19,w,Psychologie,2023-01-17_12h05.43.029,00_bat_bachelor,2022.2.4,59.97141726525922,
,,,,,,,,,,,,0,0,0,0,84,0,84,0,,,,,,,84,,,1,7348.20339917409,Y,None,nogo,None,1,,,,,,,,,,,,,,,,,,,27,001,19,w,Psychologie,2023-01-17_12h05.43.029,00_bat_bachelor,2022.2.4,59.97141726525922,
,,,,,,,,,,,,0,0,0,0,85,0,85,0,,,,,,,85,,,1,7350.004713209812,X,l,go,l,1,0.31859941908624023,,,,,,,,,,,,,,,,,,27,001,19,w,Psychologie,2023-01-17_12h05.43.029,00_bat_bachelor,2022.2.4,59.97141726525922,
,,,,,,,,,,,,0,0,0,0,86,0,86,0,,,,,,,86,,,1,7351.438756635762,Y,d,go,d,1,0.43781196733471006,,,,,,,,,,,,,,,,,,27,001,19,w,Psychologie,2023-01-17_12h05.43.029,00_bat_bachelor,2022.2.4,59.97141726525922,
,,,,,,,,,,,,0,0,0,0,87,0,87,0,,,,,,,87,,,1,7352.990142550261,Y,None,nogo,None,1,,,,,,,,,,,,,,,,,,,27,001,19,w,Psychologie,2023-01-17_12h05.43.029,00_bat_bachelor,2022.2.4,59.97141726525922,
,,,,,,,,,,,,0,0,0,0,88,0,88,0,,,,,,,88,,,1,7354.791487131384,X,l,go,l,1,0.31666099576978013,,,,,,,,,,,,,,,,,,27,001,19,w,Psychologie,2023-01-17_12h05.43.029,00_bat_bachelor,2022.2.4,59.97141726525922,
,,,,,,,,,,,,0,0,0,0,89,0,89,0,,,,,,,89,,,1,7356.209095656173,Y,d,go,d,1,0.4988790891948156,,,,,,,,,,,,,,,,,,27,001,19,w,Psychologie,2023-01-17_12h05.43.029,00_bat_bachelor,2022.2.4,59.97141726525922,
,,,,,,,,,,,,0,0,0,0,90,0,90,0,,,,,,,90,,,1,7357.810218273837,X,l,go,l,1,0.24128551717149094,,,,,,,,,,,,,,,,,,27,001,19,w,Psychologie,2023-01-17_12h05.43.029,00_bat_bachelor,2022.2.4,59.97141726525922,
,,,,,,,,,,,,0,0,0,0,91,0,91,0,,,,,,,91,,,1,7359.161096164316,Y,d,go,d,1,0.2826173758949153,,,,,,,,,,,,,,,,,,27,001,19,w,Psychologie,2023-01-17_12h05.43.029,00_bat_bachelor,2022.2.4,59.97141726525922,
,,,,,,,,,,,,0,0,0,0,92,0,92,0,,,,,,,92,,,1,7360.545495008235,X,l,go,l,1,0.2420976379653439,,,,,,,,,,,,,,,,,,27,001,19,w,Psychologie,2023-01-17_12h05.43.029,00_bat_bachelor,2022.2.4,59.97141726525922,
,,,,,,,,,,,,0,0,0,0,93,0,93,0,,,,,,,93,,,1,7361.896857262123,Y,d,go,d,1,0.34700037498259917,,,,,,,,,,,,,,,,,,27,001,19,w,Psychologie,2023-01-17_12h05.43.029,00_bat_bachelor,2022.2.4,59.97141726525922,
,,,,,,,,,,,,0,0,0,0,94,0,94,0,,,,,,,94,,,1,7363.3478601949755,Y,None,nogo,None,1,,,,,,,,,,,,,,,,,,,27,001,19,w,Psychologie,2023-01-17_12h05.43.029,00_bat_bachelor,2022.2.4,59.97141726525922,
,,,,,,,,,,,,0,0,0,0,95,0,95,0,,,,,,,95,,,1,7365.14945010934,X,l,go,l,1,0.359063399489969,,,,,,,,,,,,,,,,,,27,001,19,w,Psychologie,2023-01-17_12h05.43.029,00_bat_bachelor,2022.2.4,59.97141726525922,
,,,,,,,,,,,,0,0,0,0,96,0,96,0,,,,,,,96,,,1,7366.617125518969,Y,d,go,d,1,0.2985780954477377,,,,,,,,,,,,,,,,,,27,001,19,w,Psychologie,2023-01-17_12h05.43.029,00_bat_bachelor,2022.2.4,59.97141726525922,
,,,,,,,,,,,,0,0,0,0,97,0,97,0,,,,,,,97,,,1,7368.018108597258,Y,None,nogo,None,1,,,,,,,,,,,,,,,,,,,27,001,19,w,Psychologie,2023-01-17_12h05.43.029,00_bat_bachelor,2022.2.4,59.97141726525922,
,,,,,,,,,,,,0,0,0,0,98,0,98,0,,,,,,,98,,,1,7369.819637905632,X,l,go,l,1,0.24881666502915323,,,,,,,,,,,,,,,,,,27,001,19,w,Psychologie,2023-01-17_12h05.43.029,00_bat_bachelor,2022.2.4,59.97141726525922,
,,,,,,,,,,,,0,0,0,0,99,0,99,0,,,,,,,99,,,1,7371.170470705256,Y,d,go,d,1,0.3063361522508785,,,,,,,,,,,,,,,,,,27,001,19,w,Psychologie,2023-01-17_12h05.43.029,00_bat_bachelor,2022.2.4,59.97141726525922,
,,,,,,,,,,,,0,0,0,0,100,0,100,0,,,,,,,100,,,1,7372.588233411778,X,l,go,l,1,0.40823476953664795,,,,,,,,,,,,,,,,,,27,001,19,w,Psychologie,2023-01-17_12h05.43.029,00_bat_bachelor,2022.2.4,59.97141726525922,
,,,,,,,,,,,,0,0,0,0,101,0,101,0,,,,,,,101,,,1,7374.105841403245,X,None,nogo,d,0,0.2660990808508359,,,,,,,,,,,,,,,,,,27,001,19,w,Psychologie,2023-01-17_12h05.43.029,00_bat_bachelor,2022.2.4,59.97141726525922,
,,,,,,,,,,,,0,0,0,0,102,0,102,0,,,,,,,102,,,1,7375.473656497605,Y,d,go,d,1,0.4819743701373227,,,,,,,,,,,,,,,,,,27,001,19,w,Psychologie,2023-01-17_12h05.43.029,00_bat_bachelor,2022.2.4,59.97141726525922,
,,,,,,,,,,,,0,0,0,0,103,0,103,0,,,,,,,103,,,1,7377.0585303958505,X,l,go,l,1,0.30552839511074126,,,,,,,,,,,,,,,,,,27,001,19,w,Psychologie,2023-01-17_12h05.43.029,00_bat_bachelor,2022.2.4,59.97141726525922,
,,,,,,,,,,,,0,0,0,0,104,0,104,0,,,,,,,104,,,1,7378.476243163052,X,None,nogo,None,1,,,,,,,,,,,,,,,,,,,27,001,19,w,Psychologie,2023-01-17_12h05.43.029,00_bat_bachelor,2022.2.4,59.97141726525922,
,,,,,,,,,,,,0,0,0,0,105,0,105,0,,,,,,,105,,,1,7380.277555744222,Y,d,go,d,1,0.3184980857768096,,,,,,,,,,,,,,,,,,27,001,19,w,Psychologie,2023-01-17_12h05.43.029,00_bat_bachelor,2022.2.4,59.97141726525922,
,,,,,,,,,,,,0,0,0,0,106,0,106,0,,,,,,,106,,,1,7381.711802321544,X,l,go,l,1,0.3556224314379506,,,,,,,,,,,,,,,,,,27,001,19,w,Psychologie,2023-01-17_12h05.43.029,00_bat_bachelor,2022.2.4,59.97141726525922,
,,,,,,,,,,,,0,0,0,0,107,0,107,0,,,,,,,107,,,1,7383.1796275492525,X,None,nogo,None,1,,,,,,,,,,,,,,,,,,,27,001,19,w,Psychologie,2023-01-17_12h05.43.029,00_bat_bachelor,2022.2.4,59.97141726525922,
,,,,,,,,,,,,0,0,0,0,108,0,108,0,,,,,,,108,,,1,7384.9807888577925,Y,d,go,d,1,0.23923024540999904,,,,,,,,,,,,,,,,,,27,001,19,w,Psychologie,2023-01-17_12h05.43.029,00_bat_bachelor,2022.2.4,59.97141726525922,
,,,,,,,,,,,,0,0,0,0,109,0,109,0,,,,,,,109,,,1,7386.331975111796,X,l,go,l,1,0.24861787719419226,,,,,,,,,,,,,,,,,,27,001,19,w,Psychologie,2023-01-17_12h05.43.029,00_bat_bachelor,2022.2.4,59.97141726525922,
,,,,,,,,,,,,0,0,0,0,110,0,110,0,,,,,,,110,,,1,7387.68321178999,X,None,nogo,None,1,,,,,,,,,,,,,,,,,,,27,001,19,w,Psychologie,2023-01-17_12h05.43.029,00_bat_bachelor,2022.2.4,59.97141726525922,
,,,,,,,,,,,,0,0,0,0,111,0,111,0,,,,,,,111,,,1,7389.484446310555,Y,d,go,d,1,0.42311379266902804,,,,,,,,,,,,,,,,,,27,001,19,w,Psychologie,2023-01-17_12h05.43.029,00_bat_bachelor,2022.2.4,59.97141726525922,
,,,,,,,,,,,,0,0,0,0,112,0,112,0,,,,,,,112,,,1,7391.018709809112,X,l,go,l,1,0.34519286069553345,,,,,,,,,,,,,,,,,,27,001,19,w,Psychologie,2023-01-17_12h05.43.029,00_bat_bachelor,2022.2.4,59.97141726525922,
,,,,,,,,,,,,0,0,0,0,113,0,113,0,,,,,,,113,,,1,7392.469886802486,X,None,nogo,None,1,,7393.270678656641,,,,,,,,,,,,,,,,,27,001,19,w,Psychologie,2023-01-17_12h05.43.029,00_bat_bachelor,2022.2.4,59.97141726525922,
,,,,,,,,,,,,0,0,0,0,114,0,114,0,,,,,,,114,,,1,7394.271241565468,X,None,nogo,d,0,0.228647947544232,,,,,,,,,,,,,,,,,,27,001,19,w,Psychologie,2023-01-17_12h05.43.029,00_bat_bachelor,2022.2.4,59.97141726525922,
,,,,,,,,,,,,0,0,0,0,115,0,115,0,,,,,,,115,,,1,7395.605831463821,Y,d,go,d,1,0.3186328735901043,,,,,,,,,,,,,,,,,,27,001,19,w,Psychologie,2023-01-17_12h05.43.029,00_bat_bachelor,2022.2.4,59.97141726525922,
,,,,,,,,,,,,0,0,0,0,116,0,116,0,,,,,,,116,,,1,7397.0403699198505,X,l,go,l,1,0.22915849275887012,,,,,,,,,,,,,,,,,,27,001,19,w,Psychologie,2023-01-17_12h05.43.029,00_bat_bachelor,2022.2.4,59.97141726525922,
,,,,,,,,,,,,0,0,0,0,117,0,117,0,,,,,,,117,,,1,7398.374331454863,Y,d,go,d,1,0.43064639501972124,,,,,,,,,,,,,,,,,,27,001,19,w,Psychologie,2023-01-17_12h05.43.029,00_bat_bachelor,2022.2.4,59.97141726525922,
,,,,,,,,,,,,0,0,0,0,118,0,118,0,,,,,,,118,,,1,7399.909032286552,X,l,go,l,1,0.25454417744185776,,,,,,,,,,,,,,,,,,27,001,19,w,Psychologie,2023-01-17_12h05.43.029,00_bat_bachelor,2022.2.4,59.97141726525922,
,,,,,,,,,,,,0,0,0,0,119,0,119,0,,,,,,,119,,,1,7401.276581684069,X,None,nogo,None,1,,,,,,,,,,,,,,,,,,,27,001,19,w,Psychologie,2023-01-17_12h05.43.029,00_bat_bachelor,2022.2.4,59.97141726525922,
,,,,,,,,,,,,0,0,0,0,120,0,120,0,,,,,,,120,,,1,7403.077897174342,Y,d,go,d,1,0.3174537227023393,,,,,,,,,,,,,,,,,,27,001,19,w,Psychologie,2023-01-17_12h05.43.029,00_bat_bachelor,2022.2.4,59.97141726525922,
,,,,,,,,,,,,0,0,0,0,121,0,121,0,,,,,,,121,,,1,7404.512632478727,X,l,go,l,1,0.35591334040509537,,,,,,,,,,,,,,,,,,27,001,19,w,Psychologie,2023-01-17_12h05.43.029,00_bat_bachelor,2022.2.4,59.97141726525922,
,,,,,,,,,,,,0,0,0,0,122,0,122,0,,,,,,,122,,,1,7405.980122191482,Y,d,go,d,1,0.3449281335924752,,,,,,,,,,,,,,,,,,27,001,19,w,Psychologie,2023-01-17_12h05.43.029,00_bat_bachelor,2022.2.4,59.97141726525922,
,,,,,,,,,,,,0,0,0,0,123,0,123,0,,,,,,,123,,,1,7407.431639548275,X,l,go,None,0,,7408.232192372263,,,,,,,,,,,,,,,,,27,001,19,w,Psychologie,2023-01-17_12h05.43.029,00_bat_bachelor,2022.2.4,59.97141726525922,
,,,,,,,,,,,,0,0,0,0,124,0,124,0,,,,,,,124,,,1,7409.23260546301,X,None,nogo,None,1,,7410.0335825291695,,,,,,,,,,,,,,,,,27,001,19,w,Psychologie,2023-01-17_12h05.43.029,00_bat_bachelor,2022.2.4,59.97141726525922,
,,,,,,,,,,,,0,0,0,0,125,0,125,0,,,,,,,125,,,1,7411.034146407677,Y,d,go,d,1,0.4104456775239669,,,,,,,,,,,,,,,,,,27,001,19,w,Psychologie,2023-01-17_12h05.43.029,00_bat_bachelor,2022.2.4,59.97141726525922,
,,,,,,,,,,,,0,0,0,0,126,0,126,0,,,,,,,126,,,1,7412.552002641431,X,l,go,l,1,0.5084611452184618,,,,,,,,,,,,,,,,,,27,001,19,w,Psychologie,2023-01-17_12h05.43.029,00_bat_bachelor,2022.2.4,59.97141726525922,
,,,,,,,,,,,,0,0,0,0,127,0,127,0,,,,,,,127,,,1,7414.169937857019,Y,d,go,d,1,0.33109153422992676,,,,,,,,,,,,,,,,,,27,001,19,w,Psychologie,2023-01-17_12h05.43.029,00_bat_bachelor,2022.2.4,59.97141726525922,
,,,,,,,,,,,,0,0,0,0,128,0,128,0,,,,,,,128,,,1,7415.604330373637,X,l,go,l,1,0.22414128307718784,,,,,,,,,,,,,,,,,,27,001,19,w,Psychologie,2023-01-17_12h05.43.029,00_bat_bachelor,2022.2.4,59.97141726525922,
,,,,,,,,,,,,0,0,0,0,129,0,129,0,,,,,,,129,,,1,7416.938766090316,X,None,nogo,None,1,,,,,,,,,,,,,,,,,,,27,001,19,w,Psychologie,2023-01-17_12h05.43.029,00_bat_bachelor,2022.2.4,59.97141726525922,
,,,,,,,,,,,,0,0,0,0,130,0,130,0,,,,,,,130,,,1,7418.740132489649,Y,d,go,d,1,0.31985566089861095,,,,,,,,,,,,,,,,,,27,001,19,w,Psychologie,2023-01-17_12h05.43.029,00_bat_bachelor,2022.2.4,59.97141726525922,
,,,,,,,,,,,,0,0,0,0,131,0,131,0,,,,,,,131,,,1,7420.174460521492,X,l,go,l,1,0.2460646663676016,,,,,,,,,,,,,,,,,,27,001,19,w,Psychologie,2023-01-17_12h05.43.029,00_bat_bachelor,2022.2.4,59.97141726525922,
,,,,,,,,,,,,0,0,0,0,132,0,132,0,,,,,,,132,,,1,7421.525637078506,X,None,nogo,None,1,,,,,,,,,,,,,,,,,,,27,001,19,w,Psychologie,2023-01-17_12h05.43.029,00_bat_bachelor,2022.2.4,59.97141726525922,
,,,,,,,,,,,,0,0,0,0,133,0,133,0,,,,,,,133,,,1,7423.32726578071,Y,d,go,d,1,0.26160211337264627,,,,,,,,,,,,,,,,,,27,001,19,w,Psychologie,2023-01-17_12h05.43.029,00_bat_bachelor,2022.2.4,59.97141726525922,
,,,,,,,,,,,,0,0,0,0,134,0,134,0,,,,,,,134,,,1,7424.6948205116205,X,l,go,l,1,0.31779505586018786,,,,,,,,,,,,,,,,,,27,001,19,w,Psychologie,2023-01-17_12h05.43.029,00_bat_bachelor,2022.2.4,59.97141726525922,
,,,,,,,,,,,,0,0,0,0,135,0,135,0,,,,,,,135,,,1,7426.129364785738,X,None,nogo,None,1,,7426.930097003584,,,,,,,,,,,,,,,,,27,001,19,w,Psychologie,2023-01-17_12h05.43.029,00_bat_bachelor,2022.2.4,59.97141726525922,
,,,,,,,,,,,,0,0,0,0,136,0,136,0,,,,,,,136,,,1,7427.930415064038,Y,d,go,d,1,0.37861345056444407,,,,,,,,,,,,,,,,,,27,001,19,w,Psychologie,2023-01-17_12h05.43.029,00_bat_bachelor,2022.2.4,59.97141726525922,
,,,,,,,,,,,,0,0,0,0,137,0,137,0,,,,,,,137,,,1,7429.414760041342,X,l,go,l,1,0.25326708710053936,,,,,,,,,,,,,,,,,,27,001,19,w,Psychologie,2023-01-17_12h05.43.029,00_bat_bachelor,2022.2.4,59.97141726525922,
,,,,,,,,,,,,0,0,0,0,138,0,138,0,,,,,,,138,,,1,7430.7826658023405,Y,d,go,d,1,0.22948237136006355,,,,,,,,,,,,,,,,,,27,001,19,w,Psychologie,2023-01-17_12h05.43.029,00_bat_bachelor,2022.2.4,59.97141726525922,
,,,,,,,,,,,,0,0,0,0,139,0,139,0,,,,,,,139,,,1,7432.116958488768,X,l,go,l,1,0.20727583667030558,,,,,,,,,,,,,,,,,,27,001,19,w,Psychologie,2023-01-17_12h05.43.029,00_bat_bachelor,2022.2.4,59.97141726525922,
,,,,,,,,,,,,0,0,0,0,140,0,140,0,,,,,,,140,,,1,7433.434571425663,X,None,nogo,None,1,,7434.235292007157,,,,,,,,,,,,,,,,,27,001,19,w,Psychologie,2023-01-17_12h05.43.029,00_bat_bachelor,2022.2.4,59.97141726525922,
,,,,,,,,,,,,0,0,0,0,141,0,141,0,,,,,,,141,,,1,7435.236115764303,X,None,nogo,None,1,,7436.036573558056,,,,,,,,,,,,,,,,,27,001,19,w,Psychologie,2023-01-17_12h05.43.029,00_bat_bachelor,2022.2.4,59.97141726525922,
,,,,,,,,,,,,0,0,0,0,142,0,142,0,,,,,,,142,,,1,7437.037464224268,Y,d,go,d,1,0.3418381956871599,,,,,,,,,,,,,,,,,,27,001,19,w,Psychologie,2023-01-17_12h05.43.029,00_bat_bachelor,2022.2.4,59.97141726525922,
,,,,,,,,,,,,0,0,0,0,143,0,143,0,,,,,,,143,,,1,7438.488284369349,X,l,go,l,1,0.25113423966104165,,,,,,,,,,,,,,,,,,27,001,19,w,Psychologie,2023-01-17_12h05.43.029,00_bat_bachelor,2022.2.4,59.97141726525922,
,,,,,,,,,,,,0,0,0,0,144,0,144,0,,,,,,,144,,,1,7439.856188675796,X,None,nogo,None,1,,,,,,,,,,,,,,,,,,,27,001,19,w,Psychologie,2023-01-17_12h05.43.029,00_bat_bachelor,2022.2.4,59.97141726525922,
,,,,,,,,,,,,0,0,0,0,145,0,145,0,,,,,,,145,,,1,7441.657649620553,Y,d,go,d,1,0.25082733074668795,,,,,,,,,,,,,,,,,,27,001,19,w,Psychologie,2023-01-17_12h05.43.029,00_bat_bachelor,2022.2.4,59.97141726525922,
,,,,,,,,,,,,0,0,0,0,146,0,146,0,,,,,,,146,,,1,7443.0253347756225,X,l,go,l,1,0.24405303096864372,,,,,,,,,,,,,,,,,,27,001,19,w,Psychologie,2023-01-17_12h05.43.029,00_bat_bachelor,2022.2.4,59.97141726525922,
,,,,,,,,,,,,0,0,0,0,147,0,147,0,,,,,,,147,,,1,7444.376023575256,Y,d,go,d,1,0.39603889669524506,,,,,,,,,,,,,,,,,,27,001,19,w,Psychologie,2023-01-17_12h05.43.029,00_bat_bachelor,2022.2.4,59.97141726525922,
,,,,,,,,,,,,0,0,0,0,148,0,148,0,,,,,,,148,,,1,7445.87724612013,X,l,go,l,1,0.25413448066683486,,,,,,,,,,,,,,,,,,27,001,19,w,Psychologie,2023-01-17_12h05.43.029,00_bat_bachelor,2022.2.4,59.97141726525922,
,,,,,,,,,,,,0,0,0,0,149,0,149,0,,,,,,,149,,,1,7447.2452023053775,X,None,nogo,None,1,,,,,,,,,,,,,,,,,,,27,001,19,w,Psychologie,2023-01-17_12h05.43.029,00_bat_bachelor,2022.2.4,59.97141726525922,
,,,,,,,,,,,,0,0,0,0,150,0,150,0,,,,,,,150,,,1,7449.046541068354,Y,d,go,d,1,0.2696297458605841,,,,,,,,,,,,,,,,,,27,001,19,w,Psychologie,2023-01-17_12h05.43.029,00_bat_bachelor,2022.2.4,59.97141726525922,
,,,,,,,,,,,,0,0,0,0,151,0,151,0,,,,,,,151,,,1,7450.430904033477,X,l,go,l,1,0.24608745420118794,,,,,,,,,,,,,,,,,,27,001,19,w,Psychologie,2023-01-17_12h05.43.029,00_bat_bachelor,2022.2.4,59.97141726525922,
,,,,,,,,,,,,0,0,0,0,152,0,152,0,,,,,,,152,,,1,7451.781682530069,Y,d,go,d,1,0.3656878810725175,,,,,,,,,,,,,,,,,,27,001,19,w,Psychologie,2023-01-17_12h05.43.029,00_bat_bachelor,2022.2.4,59.97141726525922,
,,,,,,,,,,,,0,0,0,0,153,0,153,0,,,,,,,153,,,1,7453.249721575878,X,l,go,l,1,0.3389247425366193,,,,,,,,,,,,,,,,,,27,001,19,w,Psychologie,2023-01-17_12h05.43.029,00_bat_bachelor,2022.2.4,59.97141726525922,
,,,,,,,,,,,,0,0,0,0,154,0,154,0,,,,,,,154,,,1,7454.700964508636,Y,d,go,d,1,0.4870308525278233,,,,,,,,,,,,,,,,,,27,001,19,w,Psychologie,2023-01-17_12h05.43.029,00_bat_bachelor,2022.2.4,59.97141726525922,
,,,,,,,,,,,,0,0,0,0,155,0,155,0,,,,,,,155,,,1,7456.302080823225,X,l,go,l,1,0.24641133286058903,,,,,,,,,,,,,,,,,,27,001,19,w,Psychologie,2023-01-17_12h05.43.029,00_bat_bachelor,2022.2.4,59.97141726525922,
,,,,,,,,,,,,0,0,0,0,156,0,156,0,,,,,,,156,,,1,7457.653101259086,X,None,nogo,d,0,0.2868651314638555,,,,,,,,,,,,,,,,,,27,001,19,w,Psychologie,2023-01-17_12h05.43.029,00_bat_bachelor,2022.2.4,59.97141726525922,
,,,,,,,,,,,,0,0,0,0,157,0,157,0,,,,,,,157,,,1,7459.054157549515,Y,d,go,d,1,0.2614920528139919,,,,,,,,,,,,,,,,,,27,001,19,w,Psychologie,2023-01-17_12h05.43.029,00_bat_bachelor,2022.2.4,59.97141726525922,
,,,,,,,,,,,,0,0,0,0,158,0,158,0,,,,,,,158,,,1,7460.421894098457,X,l,go,l,1,0.2538930262089707,,,,,,,,,,,,,,,,,,27,001,19,w,Psychologie,2023-01-17_12h05.43.029,00_bat_bachelor,2022.2.4,59.97141726525922,
,,,,,,,,,,,,0,0,0,0,159,0,159,0,,,,,,,159,,,1,7461.789504586894,Y,d,go,d,1,0.4069513762369752,,,,,,,,,,,,,,,,,,27,001,19,w,Psychologie,2023-01-17_12h05.43.029,00_bat_bachelor,2022.2.4,59.97141726525922,
,,,,,,,,,,,,0,0,0,0,160,0,160,0,,,,,,,160,,,1,7463.307184335892,X,l,go,l,1,0.31383045169059187,,,,,,,,,,,,,,,,,,27,001,19,w,Psychologie,2023-01-17_12h05.43.029,00_bat_bachelor,2022.2.4,59.97141726525922,
,,,,,,,,,,,,0,0,0,0,161,0,161,0,,,,,,,161,,,1,7464.725267527159,X,None,nogo,None,1,,,,,,,,,,,,,,,,,,,27,001,19,w,Psychologie,2023-01-17_12h05.43.029,00_bat_bachelor,2022.2.4,59.97141726525922,
,,,,,,,,,,,,0,0,0,0,162,0,162,0,,,,,,,162,,,1,7466.526654774963,Y,d,go,d,1,0.3744452101527713,,,,,,,,,,,,,,,,,,27,001,19,w,Psychologie,2023-01-17_12h05.43.029,00_bat_bachelor,2022.2.4,59.97141726525922,
,,,,,,,,,,,,0,0,0,0,163,0,163,0,,,,,,,163,,,1,7468.010825206875,X,l,go,l,1,0.36125539836939424,,,,,,,,,,,,,,,,,,27,001,19,w,Psychologie,2023-01-17_12h05.43.029,00_bat_bachelor,2022.2.4,59.97141726525922,
,,,,,,,,,,,,0,0,0,0,164,0,164,0,,,,,,,164,,,1,7469.4785011013155,Y,d,go,d,1,0.38145708554657176,,,,,,,,,,,,,,,,,,27,001,19,w,Psychologie,2023-01-17_12h05.43.029,00_bat_bachelor,2022.2.4,59.97141726525922,
,,,,,,,,,,,,0,0,0,0,165,0,165,0,,,,,,,165,,,1,7470.96325238148,Y,None,nogo,None,1,,,,,,,,,,,,,,,,,,,27,001,19,w,Psychologie,2023-01-17_12h05.43.029,00_bat_bachelor,2022.2.4,59.97141726525922,
,,,,,,,,,,,,0,0,0,0,166,0,166,0,,,,,,,166,,,1,7472.764322538511,X,l,go,l,1,0.3113771195639856,,,,,,,,,,,,,,,,,,27,001,19,w,Psychologie,2023-01-17_12h05.43.029,00_bat_bachelor,2022.2.4,59.97141726525922,
,,,,,,,,,,,,0,0,0,0,167,0,167,0,,,,,,,167,,,1,7474.18249833578,Y,d,go,d,1,0.33441225986462086,,,,,,,,,,,,,,,,,,27,001,19,w,Psychologie,2023-01-17_12h05.43.029,00_bat_bachelor,2022.2.4,59.97141726525922,
,,,,,,,,,,,,0,0,0,0,168,0,168,0,,,,,,,168,,,1,7475.633189996006,X,l,go,l,1,0.38624544691992924,,,,,,,,,,,,,,,,,,27,001,19,w,Psychologie,2023-01-17_12h05.43.029,00_bat_bachelor,2022.2.4,59.97141726525922,
,,,,,,,,,,,,0,0,0,0,169,0,169,0,,,,,,,169,,,1,7477.134318480326,X,None,nogo,None,1,,7477.935171425401,,,,,,,,,,,,,,,,,27,001,19,w,Psychologie,2023-01-17_12h05.43.029,00_bat_bachelor,2022.2.4,59.97141726525922,
,,,,,,,,,,,,0,0,0,0,170,0,170,0,,,,,,,170,,,1,7478.935705243319,Y,d,go,d,1,0.34901588916545734,,,,,,,,,,,,,,,,,,27,001,19,w,Psychologie,2023-01-17_12h05.43.029,00_bat_bachelor,2022.2.4,59.97141726525922,
,,,,,,,,,,,,0,0,0,0,171,0,171,0,,,,,,,171,,,1,7480.387219206197,X,l,go,l,1,0.28861737297847867,,,,,,,,,,,,,,,,,,27,001,19,w,Psychologie,2023-01-17_12h05.43.029,00_bat_bachelor,2022.2.4,59.97141726525922,
,,,,,,,,,,,,0,0,0,0,172,0,172,0,,,,,,,172,,,1,7481.78825804207,Y,d,go,d,1,0.3594003689941019,,,,,,,,,,,,,,,,,,27,001,19,w,Psychologie,2023-01-17_12h05.43.029,00_bat_bachelor,2022.2.4,59.97141726525922,
,,,,,,,,,,,,0,0,0,0,173,0,173,0,,,,,,,173,,,1,7483.2559324819595,Y,None,nogo,None,1,,,,,,,,,,,,,,,,,,,27,001,19,w,Psychologie,2023-01-17_12h05.43.029,00_bat_bachelor,2022.2.4,59.97141726525922,
,,,,,,,,,,,,0,0,0,0,174,0,174,0,,,,,,,174,,,1,7485.057320214633,X,l,go,l,1,0.30767239403212443,,,,,,,,,,,,,,,,,,27,001,19,w,Psychologie,2023-01-17_12h05.43.029,00_bat_bachelor,2022.2.4,59.97141726525922,
,,,,,,,,,,,,0,0,0,0,175,0,175,0,,,,,,,175,,,1,7486.475165345357,Y,d,go,d,1,0.3295308076776564,,,,,,,,,,,,,,,,,,27,001,19,w,Psychologie,2023-01-17_12h05.43.029,00_bat_bachelor,2022.2.4,59.97141726525922,
,,,,,,,,,,,,0,0,0,0,176,0,176,0,,,,,,,176,,,1,7487.909486104501,X,l,go,l,1,0.27058538171695545,,,,,,,,,,,,,,,,,,27,001,19,w,Psychologie,2023-01-17_12h05.43.029,00_bat_bachelor,2022.2.4,59.97141726525922,
,,,,,,,,,,,,0,0,0,0,177,0,177,0,,,,,,,177,,,1,7489.2937763424125,Y,d,go,d,1,0.2475846656016074,,,,,,,,,,,,,,,,,,27,001,19,w,Psychologie,2023-01-17_12h05.43.029,00_bat_bachelor,2022.2.4,59.97141726525922,
,,,,,,,,,,,,0,0,0,0,178,0,178,0,,,,,,,178,,,1,7490.644977626682,Y,None,nogo,None,1,,,,,,,,,,,,,,,,,,,27,001,19,w,Psychologie,2023-01-17_12h05.43.029,00_bat_bachelor,2022.2.4,59.97141726525922,
,,,,,,,,,,,,0,0,0,0,179,0,179,0,,,,,,,179,,,1,7492.446616995556,X,l,go,l,1,0.2619885374442674,,,,,,,,,,,,,,,,,,27,001,19,w,Psychologie,2023-01-17_12h05.43.029,00_bat_bachelor,2022.2.4,59.97141726525922,
,,,,,,,,,,,,0,0,0,0,180,0,180,0,,,,,,,180,,,1,7493.814200332505,Y,d,go,d,1,0.3976558655849658,,,,,,,,,,,,,,,,,,27,001,19,w,Psychologie,2023-01-17_12h05.43.029,00_bat_bachelor,2022.2.4,59.97141726525922,
,,,,,,,,,,,,0,0,0,0,181,0,181,0,,,,,,,181,,,1,7495.315459240985,Y,None,nogo,d,0,0.5771835361374542,,,,,,,,,,,,,,,,,,27,001,19,w,Psychologie,2023-01-17_12h05.43.029,00_bat_bachelor,2022.2.4,59.97141726525922,
,,,,,,,,,,,,0,0,0,0,182,0,182,0,,,,,,,182,,,1,7496.9998564849375,X,l,go,l,1,0.5243530162842944,,,,,,,,,,,,,,,,,,27,001,19,w,Psychologie,2023-01-17_12h05.43.029,00_bat_bachelor,2022.2.4,59.97141726525922,
,,,,,,,,,,,,0,0,0,0,183,0,183,0,,,,,,,183,,,1,7498.650951926829,Y,d,go,d,1,0.39362192817498,,,,,,,,,,,,,,,,,,27,001,19,w,Psychologie,2023-01-17_12h05.43.029,00_bat_bachelor,2022.2.4,59.97141726525922,
,,,,,,,,,,,,0,0,0,0,184,0,184,0,,,,,,,184,,,1,7500.152237017115,Y,None,nogo,None,1,,7500.952696265362,,,,,,,,,,,,,,,,,27,001,19,w,Psychologie,2023-01-17_12h05.43.029,00_bat_bachelor,2022.2.4,59.97141726525922,
,,,,,,,,,,,,0,0,0,0,185,0,185,0,,,,,,,185,,,1,7501.953225234814,X,l,go,l,1,0.323140992608387,,,,,,,,,,,,,,,,,,27,001,19,w,Psychologie,2023-01-17_12h05.43.029,00_bat_bachelor,2022.2.4,59.97141726525922,
,,,,,,,,,,,,0,0,0,0,186,0,186,0,,,,,,,186,,,1,7503.3881195693975,Y,d,go,d,1,0.28099071001634,,,,,,,,,,,,,,,,,,27,001,19,w,Psychologie,2023-01-17_12h05.43.029,00_bat_bachelor,2022.2.4,59.97141726525922,
,,,,,,,,,,,,0,0,0,0,187,0,187,0,,,,,,,187,,,1,7504.772049080231,X,l,go,l,1,0.31957105500623584,,,,,,,,,,,,,,,,,,27,001,19,w,Psychologie,2023-01-17_12h05.43.029,00_bat_bachelor,2022.2.4,59.97141726525922,
,,,,,,,,,,,,0,0,0,0,188,0,188,0,,,,,,,188,,,1,7506.206796990649,Y,d,go,d,1,0.3900956268189475,,,,,,,,,,,,,,,,,,27,001,19,w,Psychologie,2023-01-17_12h05.43.029,00_bat_bachelor,2022.2.4,59.97141726525922,
,,,,,,,,,,,,0,0,0,0,189,0,189,0,,,,,,,189,,,1,7507.707624869014,X,l,go,l,1,0.36008642928209156,,,,,,,,,,,,,,,,,,27,001,19,w,Psychologie,2023-01-17_12h05.43.029,00_bat_bachelor,2022.2.4,59.97141726525922,
,,,,,,,,,,,,0,0,0,0,190,0,190,0,,,,,,,190,,,1,7509.175390460412,Y,d,go,d,1,0.31632790504954755,,,,,,,,,,,,,,,,,,27,001,19,w,Psychologie,2023-01-17_12h05.43.029,00_bat_bachelor,2022.2.4,59.97141726525922,
,,,,,,,,,,,,0,0,0,0,191,0,191,0,,,,,,,191,,,1,7510.593405772874,X,l,go,l,1,0.19597644824534655,,,,,,,,,,,,,,,,,,27,001,19,w,Psychologie,2023-01-17_12h05.43.029,00_bat_bachelor,2022.2.4,59.97141726525922,
,,,,,,,,,,,,0,0,0,0,192,0,192,0,,,,,,,192,,,1,7511.894149869506,X,None,nogo,None,1,,,,,,,,,,,,,,,,,,,27,001,19,w,Psychologie,2023-01-17_12h05.43.029,00_bat_bachelor,2022.2.4,59.97141726525922,
,,,,,,,,,,,,0,0,0,0,193,0,193,0,,,,,,,193,,,1,7513.695804268704,Y,d,go,d,1,0.3398609845316969,,,,,,,,,,,,,,,,,,27,001,19,w,Psychologie,2023-01-17_12h05.43.029,00_bat_bachelor,2022.2.4,59.97141726525922,
,,,,,,,,,,,,0,0,0,0,194,0,194,0,,,,,,,194,,,1,7515.147002110549,X,l,go,l,1,0.23295485449489206,,,,,,,,,,,,,,,,,,27,001,19,w,Psychologie,2023-01-17_12h05.43.029,00_bat_bachelor,2022.2.4,59.97141726525922,
,,,,,,,,,,,,0,0,0,0,195,0,195,0,,,,,,,195,,,1,7516.481298190891,Y,d,go,d,1,0.3874003554228693,,,,,,,,,,,,,,,,,,27,001,19,w,Psychologie,2023-01-17_12h05.43.029,00_bat_bachelor,2022.2.4,59.97141726525922,
,,,,,,,,,,,,0,0,0,0,196,0,196,0,,,,,,,196,,,1,7517.982263766171,X,l,go,l,1,0.3099400293431245,,,,,,,,,,,,,,,,,,27,001,19,w,Psychologie,2023-01-17_12h05.43.029,00_bat_bachelor,2022.2.4,59.97141726525922,
,,,,,,,,,,,,0,0,0,0,197,0,197,0,,,,,,,197,,,1,7519.399868897046,Y,d,go,d,1,0.36407770006917417,,,,,,,,,,,,,,,,,,27,001,19,w,Psychologie,2023-01-17_12h05.43.029,00_bat_bachelor,2022.2.4,59.97141726525922,
,,,,,,,,,,,,0,0,0,0,198,0,198,0,,,,,,,198,,,1,7520.8678749731625,X,l,go,l,1,0.23940527567174286,,,,,,,,,,,,,,,,,,27,001,19,w,Psychologie,2023-01-17_12h05.43.029,00_bat_bachelor,2022.2.4,59.97141726525922,
,,,,,,,,,,,,0,0,0,0,199,0,199,0,,,,,,,199,,,1,7522.218666075787,X,None,nogo,None,1,,,,,,,,,,,,,,,,,,,27,001,19,w,Psychologie,2023-01-17_12h05.43.029,00_bat_bachelor,2022.2.4,59.97141726525922,
,,,,,,,,,,,,0,0,0,0,200,0,200,0,,,,,,,200,,,1,7524.020431505225,Y,d,go,None,0,,,,,,,,,,,,,,,,,,,27,001,19,w,Psychologie,2023-01-17_12h05.43.029,00_bat_bachelor,2022.2.4,59.97141726525922,
,,,,,,,,,,,,0,0,0,0,201,0,201,0,,,,,,,201,,,1,7525.82140566234,X,l,go,l,1,0.21524965099524707,,,,,,,,,,,,,,,,,,27,001,19,w,Psychologie,2023-01-17_12h05.43.029,00_bat_bachelor,2022.2.4,59.97141726525922,
,,,,,,,,,,,,0,0,0,0,202,0,202,0,,,,,,,202,,,1,7527.139089387085,Y,d,go,d,1,0.22541788849048316,,,,,,,,,,,,,,,,,,27,001,19,w,Psychologie,2023-01-17_12h05.43.029,00_bat_bachelor,2022.2.4,59.97141726525922,
,,,,,,,,,,,,0,0,0,0,203,0,203,0,,,,,,,203,,,1,7528.47346061893,X,l,go,l,1,0.2986391863669269,,,,,,,,,,,,,,,,,,27,001,19,w,Psychologie,2023-01-17_12h05.43.029,00_bat_bachelor,2022.2.4,59.97141726525922,
,,,,,,,,,,,,0,0,0,0,204,0,204,0,,,,,,,204,,,1,7529.874834484945,X,None,nogo,d,0,0.3047962742857635,,,,,,,,,,,,,,,,,,27,001,19,w,Psychologie,2023-01-17_12h05.43.029,00_bat_bachelor,2022.2.4,59.97141726525922,
,,,,,,,,,,,,0,0,0,0,205,0,205,0,,,,,,,205,,,1,7531.2927305247285,Y,d,go,d,1,0.27947168046375737,,,,,,,,,,,,,,,,,,27,001,19,w,Psychologie,2023-01-17_12h05.43.029,00_bat_bachelor,2022.2.4,59.97141726525922,
,,,,,,,,,,,,0,0,0,0,206,0,206,0,,,,,,,206,,,1,7532.676732762775,X,l,go,l,1,0.19114251114660874,,,,,,,,,,,,,,,,,,27,001,19,w,Psychologie,2023-01-17_12h05.43.029,00_bat_bachelor,2022.2.4,59.97141726525922,
,,,,,,,,,,,,0,0,0,0,207,0,207,0,,,,,,,207,,,1,7533.97792388947,Y,d,go,d,1,0.28187895205337554,,,,,,,,,,,,,,,,,,27,001,19,w,Psychologie,2023-01-17_12h05.43.029,00_bat_bachelor,2022.2.4,59.97141726525922,
,,,,,,,,,,,,0,0,0,0,208,0,208,0,,,,,,,208,,,1,7535.362131218368,Y,None,nogo,l,0,0.2731322896433994,,,,,,,,,,,,,,,,,,27,001,19,w,Psychologie,2023-01-17_12h05.43.029,00_bat_bachelor,2022.2.4,59.97141726525922,
,,,,,,,,,,,,0,0,0,0,209,0,209,0,,,,,,,209,,,1,7536.746489819896,X,l,go,l,1,0.34645879949675873,,,,,,,,,,,,,,,,,,27,001,19,w,Psychologie,2023-01-17_12h05.43.029,00_bat_bachelor,2022.2.4,59.97141726525922,
,,,,,,,,,,,,0,0,0,0,210,0,210,0,,,,,,,210,,,1,7538.197516995133,Y,d,go,d,1,0.2226421322557144,,,,,,,,,,,,,,,,,,27,001,19,w,Psychologie,2023-01-17_12h05.43.029,00_bat_bachelor,2022.2.4,59.97141726525922,
,,,,,,,,,,,,0,0,0,0,211,0,211,0,,,,,,,211,,,1,7539.532087984437,Y,None,nogo,None,1,,,,,,,,,,,,,,,,,,,27,001,19,w,Psychologie,2023-01-17_12h05.43.029,00_bat_bachelor,2022.2.4,59.97141726525922,
,,,,,,,,,,,,0,0,0,0,212,0,212,0,,,,,,,212,,,1,7541.333855838107,Y,None,nogo,None,1,,,,,,,,,,,,,,,,,,,27,001,19,w,Psychologie,2023-01-17_12h05.43.029,00_bat_bachelor,2022.2.4,59.97141726525922,
,,,,,,,,,,,,0,0,0,0,213,0,213,0,,,,,,,213,,,1,7543.1351058738655,X,l,go,l,1,0.2771313179982826,,,,,,,,,,,,,,,,,,27,001,19,w,Psychologie,2023-01-17_12h05.43.029,00_bat_bachelor,2022.2.4,59.97141726525922,
,,,,,,,,,,,,0,0,0,0,214,0,214,0,,,,,,,214,,,1,7544.519282172492,Y,d,go,d,1,0.33236813970142975,,,,,,,,,,,,,,,,,,27,001,19,w,Psychologie,2023-01-17_12h05.43.029,00_bat_bachelor,2022.2.4,59.97141726525922,
,,,,,,,,,,,,0,0,0,0,215,0,215,0,,,,,,,215,,,1,7545.953901598114,Y,None,nogo,None,1,,7546.754517452384,,,,,,,,,,,,,,,,,27,001,19,w,Psychologie,2023-01-17_12h05.43.029,00_bat_bachelor,2022.2.4,59.97141726525922,
,,,,,,,,,,,,0,0,0,0,216,0,216,0,,,,,,,216,,,1,7547.755283997452,X,l,go,l,1,0.24869011965347454,,,,,,,,,,,,,,,,,,27,001,19,w,Psychologie,2023-01-17_12h05.43.029,00_bat_bachelor,2022.2.4,59.97141726525922,
,,,,,,,,,,,,0,0,0,0,217,0,217,0,,,,,,,217,,,1,7549.10582491837,Y,d,go,d,1,0.28995943296467885,,,,,,,,,,,,,,,,,,27,001,19,w,Psychologie,2023-01-17_12h05.43.029,00_bat_bachelor,2022.2.4,59.97141726525922,
,,,,,,,,,,,,0,0,0,0,218,0,218,0,,,,,,,218,,,1,7550.50712460262,X,l,go,l,1,0.2813427098444663,,,,,,,,,,,,,,,,,,27,001,19,w,Psychologie,2023-01-17_12h05.43.029,00_bat_bachelor,2022.2.4,59.97141726525922,
,,,,,,,,,,,,0,0,0,0,219,0,219,0,,,,,,,219,,,1,7551.891286840604,Y,d,go,d,1,0.3364365012967028,,,,,,,,,,,,,,,,,,27,001,19,w,Psychologie,2023-01-17_12h05.43.029,00_bat_bachelor,2022.2.4,59.97141726525922,
,,,,,,,,,,,,0,0,0,0,220,0,220,0,,,,,,,220,,,1,7553.342449288524,Y,None,nogo,None,1,,7554.143103445764,,,,,,,,,,,,,,,,,27,001,19,w,Psychologie,2023-01-17_12h05.43.029,00_bat_bachelor,2022.2.4,59.97141726525922,
,,,,,,,,,,,,0,0,0,0,221,0,221,0,,,,,,,221,,,1,7555.143782718165,Y,None,nogo,None,1,,,,,,,,,,,,,,,,,,,27,001,19,w,Psychologie,2023-01-17_12h05.43.029,00_bat_bachelor,2022.2.4,59.97141726525922,
,,,,,,,,,,,,0,0,0,0,222,0,222,0,,,,,,,222,,,1,7556.9451214811415,X,l,go,l,1,0.25939653866225854,,,,,,,,,,,,,,,,,,27,001,19,w,Psychologie,2023-01-17_12h05.43.029,00_bat_bachelor,2022.2.4,59.97141726525922,
,,,,,,,,,,,,0,0,0,0,223,0,223,0,,,,,,,223,,,1,7558.313127605768,Y,d,go,d,1,0.2990934891276993,,,,,,,,,,,,,,,,,,27,001,19,w,Psychologie,2023-01-17_12h05.43.029,00_bat_bachelor,2022.2.4,59.97141726525922,
,,,,,,,,,,,,0,0,0,0,224,0,224,0,,,,,,,224,,,1,7559.7138988053775,Y,None,nogo,None,1,,,,,,,,,,,,,,,,,,,27,001,19,w,Psychologie,2023-01-17_12h05.43.029,00_bat_bachelor,2022.2.4,59.97141726525922,
,,,,,,,,,,,,0,0,0,0,225,0,225,0,,,,,,,225,,,1,7561.515277810802,X,l,go,l,1,0.34539649699581787,,,,,,,,,,,,,,,,,,27,001,19,w,Psychologie,2023-01-17_12h05.43.029,00_bat_bachelor,2022.2.4,59.97141726525922,
,,,,,,,,,,,,0,0,0,0,226,0,226,0,,,,,,,226,,,1,7562.966663773754,Y,d,go,d,1,0.2540942382183857,,,,,,,,,,,,,,,,,,27,001,19,w,Psychologie,2023-01-17_12h05.43.029,00_bat_bachelor,2022.2.4,59.97141726525922,
,,,,,,,,,,,,0,0,0,0,227,0,227,0,,,,,,,227,,,1,7564.3340837167925,X,l,go,l,1,0.22926467447541654,,,,,,,,,,,,,,,,,,27,001,19,w,Psychologie,2023-01-17_12h05.43.029,00_bat_bachelor,2022.2.4,59.97141726525922,
,,,,,,,,,,,,0,0,0,0,228,0,228,0,,,,,,,228,,,1,7565.668451069854,Y,d,go,d,1,0.24032697215443477,,,,,,,,,,,,,,,,,,27,001,19,w,Psychologie,2023-01-17_12h05.43.029,00_bat_bachelor,2022.2.4,59.97141726525922,
,,,,,,,,,,,,0,0,0,0,229,0,229,0,,,,,,,229,,,1,7567.019613081415,Y,None,nogo,None,1,,,,,,,,,,,,,,,,,,,27,001,19,w,Psychologie,2023-01-17_12h05.43.029,00_bat_bachelor,2022.2.4,59.97141726525922,
,,,,,,,,,,,,0,0,0,0,230,0,230,0,,,,,,,230,,,1,7568.821202026098,X,l,go,l,1,0.2876859795069322,,,,,,,,,,,,,,,,,,27,001,19,w,Psychologie,2023-01-17_12h05.43.029,00_bat_bachelor,2022.2.4,59.97141726525922,
,,,,,,,,,,,,0,0,0,0,231,0,231,0,,,,,,,231,,,1,7570.221931043896,Y,d,go,d,1,0.21288892487064004,,,,,,,,,,,,,,,,,,27,001,19,w,Psychologie,2023-01-17_12h05.43.029,00_bat_bachelor,2022.2.4,59.97141726525922,
,,,,,,,,,,,,0,0,0,0,232,0,232,0,,,,,,,232,,,1,7571.540156828996,X,l,go,l,1,0.38449369015870616,,,,,,,,,,,,,,,,,,27,001,19,w,Psychologie,2023-01-17_12h05.43.029,00_bat_bachelor,2022.2.4,59.97141726525922,
,,,,,,,,,,,,0,0,0,0,233,0,233,0,,,,,,,233,,,1,7573.040913919569,Y,d,go,d,1,0.32400547701399773,,,,,,,,,,,,,,,,,,27,001,19,w,Psychologie,2023-01-17_12h05.43.029,00_bat_bachelor,2022.2.4,59.97141726525922,
,,,,,,,,,,,,0,0,0,0,234,0,234,0,,,,,,,234,,,1,7574.475301587721,Y,None,nogo,None,1,,,,,,,,,,,,,,,,,,,27,001,19,w,Psychologie,2023-01-17_12h05.43.029,00_bat_bachelor,2022.2.4,59.97141726525922,
,,,,,,,,,,,,0,0,0,0,235,0,235,0,,,,,,,235,,,1,7576.276840593026,X,l,go,l,1,0.30327239620964974,,,,,,,,,,,,,,,,,,27,001,19,w,Psychologie,2023-01-17_12h05.43.029,00_bat_bachelor,2022.2.4,59.97141726525922,
,,,,,,,,,,,,0,0,0,0,236,0,236,0,,,,,,,236,,,1,7577.694666814699,Y,d,go,d,1,0.24532090913271531,,,,,,,,,,,,,,,,,,27,001,19,w,Psychologie,2023-01-17_12h05.43.029,00_bat_bachelor,2022.2.4,59.97141726525922,
,,,,,,,,,,,,0,0,0,0,237,0,237,0,,,,,,,237,,,1,7579.045579614292,X,l,go,l,1,0.2542455109069124,,,,,,,,,,,,,,,,,,27,001,19,w,Psychologie,2023-01-17_12h05.43.029,00_bat_bachelor,2022.2.4,59.97141726525922,
,,,,,,,,,,,,0,0,0,0,238,0,238,0,,,,,,,238,,,1,7580.413440769247,X,None,nogo,None,1,,,,,,,,,,,,,,,,,,,27,001,19,w,Psychologie,2023-01-17_12h05.43.029,00_bat_bachelor,2022.2.4,59.97141726525922,
,,,,,,,,,,,,0,0,0,0,239,0,239,0,,,,,,,239,,,1,7582.21460401715,Y,d,go,d,1,0.2535395717713982,,,,,,,,,,,,,,,,,,27,001,19,w,Psychologie,2023-01-17_12h05.43.029,00_bat_bachelor,2022.2.4,59.97141726525922,
,,,,,,,,,,,,0,0,0,0,240,0,240,0,,,,,,,240,,,1,7583.58233038435,X,l,go,None,0,,,,,,,,,,,,,,,,,,,27,001,19,w,Psychologie,2023-01-17_12h05.43.029,00_bat_bachelor,2022.2.4,59.97141726525922,
,,,,,,,,,,,,0,0,0,0,241,0,241,0,,,,,,,241,,,1,7585.383471814101,X,None,nogo,None,1,,,,,,,,,,,,,,,,,,,27,001,19,w,Psychologie,2023-01-17_12h05.43.029,00_bat_bachelor,2022.2.4,59.97141726525922,
,,,,,,,,,,,,0,0,0,0,242,0,242,0,,,,,,,242,,,1,7587.184966213361,Y,d,go,d,1,0.25917496299371123,,,,,,,,,,,,,,,,,,27,001,19,w,Psychologie,2023-01-17_12h05.43.029,00_bat_bachelor,2022.2.4,59.97141726525922,
,,,,,,,,,,,,0,0,0,0,243,0,243,0,,,,,,,243,,,1,7588.552554398775,X,l,go,l,1,0.23442830838030204,,,,,,,,,,,,,,,,,,27,001,19,w,Psychologie,2023-01-17_12h05.43.029,00_bat_bachelor,2022.2.4,59.97141726525922,
,,,,,,,,,,,,0,0,0,0,244,0,244,0,,,,,,,244,,,1,7589.9038890163065,Y,d,go,d,1,0.4045528319547884,,,,,,,,,,,,,,,,,,27,001,19,w,Psychologie,2023-01-17_12h05.43.029,00_bat_bachelor,2022.2.4,59.97141726525922,
,,,,,,,,,,,,0,0,0,0,245,0,245,0,,,,,,,245,,,1,7591.421578462294,X,l,go,l,1,0.502388420922216,,,,,,,,,,,,,,,,,,27,001,19,w,Psychologie,2023-01-17_12h05.43.029,00_bat_bachelor,2022.2.4,59.97141726525922,
,,,,,,,,,,,,0,0,0,0,246,0,246,0,,,,,,,246,,,1,7593.039301799145,Y,d,go,d,1,0.2773334996891208,,,,,,,,,,,,,,,,,,27,001,19,w,Psychologie,2023-01-17_12h05.43.029,00_bat_bachelor,2022.2.4,59.97141726525922,
,,,,,,,,,,,,0,0,0,0,247,0,247,0,,,,,,,247,,,1,7594.423960521701,X,l,go,l,1,0.23581497435225174,,,,,,,,,,,,,,,,,,27,001,19,w,Psychologie,2023-01-17_12h05.43.029,00_bat_bachelor,2022.2.4,59.97141726525922,
,,,,,,,,,,,,0,0,0,0,248,0,248,0,,,,,,,248,,,1,7595.774726897129,X,None,nogo,None,1,,,,,,,,,,,,,,,,,,,27,001,19,w,Psychologie,2023-01-17_12h05.43.029,00_bat_bachelor,2022.2.4,59.97141726525922,
,,,,,,,,,,,,0,0,0,0,249,0,249,0,,,,,,,249,,,1,7597.576106872177,X,None,nogo,d,0,0.21930055815028027,,,,,,,,,,,,,,,,,,27,001,19,w,Psychologie,2023-01-17_12h05.43.029,00_bat_bachelor,2022.2.4,59.97141726525922,
,,,,,,,,,,,,1,0,1,0,0,0,0,0,,,,,,,0,,,0.2,7604.5320346511435,X,l,go,l,1,0.5129527793615125,,,,,,,,,7597.9146749504725,space,6.396378775301855,,,,,,,27,001,19,w,Psychologie,2023-01-17_12h05.43.029,00_bat_bachelor,2022.2.4,59.97141726525922,
,,,,,,,,,,,,1,0,1,0,1,0,1,0,,,,,,,1,,,0.2,7605.348968558072,Y,d,go,d,1,0.3833538119215518,,,,,,,,,,,,,,,,,,27,001,19,w,Psychologie,2023-01-17_12h05.43.029,00_bat_bachelor,2022.2.4,59.97141726525922,
,,,,,,,,,,,,1,0,1,0,2,0,2,0,,,,,,,2,,,0.2,7606.0325182872475,X,l,go,l,1,0.2757393186329864,,,,,,,,,,,,,,,,,,27,001,19,w,Psychologie,2023-01-17_12h05.43.029,00_bat_bachelor,2022.2.4,59.97141726525922,
,,,,,,,,,,,,1,0,1,0,3,0,3,0,,,,,,,3,,,0.2,7606.616506852617,X,None,nogo,d,0,0.26761665591038764,,,,,,,,,,,,,,,,,,27,001,19,w,Psychologie,2023-01-17_12h05.43.029,00_bat_bachelor,2022.2.4,59.97141726525922,
,,,,,,,,,,,,1,0,1,0,4,0,4,0,,,,,,,4,,,0.2,7607.200461478555,Y,d,go,None,0,,,,,,,,,,,,,,,,,,,27,001,19,w,Psychologie,2023-01-17_12h05.43.029,00_bat_bachelor,2022.2.4,59.97141726525922,
,,,,,,,,,,,,1,0,1,0,5,0,5,0,,,,,,,5,,,0.2,7608.20099287224,X,l,go,l,1,0.47486600995762274,,,,,,,,,,,,,,,,,,27,001,19,w,Psychologie,2023-01-17_12h05.43.029,00_bat_bachelor,2022.2.4,59.97141726525922,
,,,,,,,,,,,,1,0,1,0,6,0,6,0,,,,,,,6,,,0.2,7608.985138431424,X,None,nogo,None,1,,,,,,,,,,,,,,,,,,,27,001,19,w,Psychologie,2023-01-17_12h05.43.029,00_bat_bachelor,2022.2.4,59.97141726525922,
,,,,,,,,,,,,1,0,1,0,7,0,7,0,,,,,,,7,,,0.2,7609.985723643273,Y,d,go,d,1,0.3703724849037826,,,,,,,,,,,,,,,,,,27,001,19,w,Psychologie,2023-01-17_12h05.43.029,00_bat_bachelor,2022.2.4,59.97141726525922,
,,,,,,,,,,,,1,0,1,0,8,0,8,0,,,,,,,8,,,0.2,7610.669391675445,X,l,go,l,1,0.3108146955491975,,,,,,,,,,,,,,,,,,27,001,19,w,Psychologie,2023-01-17_12h05.43.029,00_bat_bachelor,2022.2.4,59.97141726525922,
,,,,,,,,,,,,1,0,1,0,9,0,9,0,,,,,,,9,,,0.2,7611.286609800416,X,None,nogo,d,0,0.3331060786731541,,,,,,,,,,,,,,,,,,27,001,19,w,Psychologie,2023-01-17_12h05.43.029,00_bat_bachelor,2022.2.4,59.97141726525922,
,,,,,,,,,,,,1,0,1,0,10,0,10,0,,,,,,,10,,,0.2,7611.920746220276,Y,d,go,d,1,0.5636494820937514,,,,,,,,,,,,,,,,,,27,001,19,w,Psychologie,2023-01-17_12h05.43.029,00_bat_bachelor,2022.2.4,59.97141726525922,
,,,,,,,,,,,,1,0,1,0,11,0,11,0,,,,,,,11,,,0.2,7612.787795981683,X,l,go,l,1,0.3033068204531446,,,,,,,,,,,,,,,,,,27,001,19,w,Psychologie,2023-01-17_12h05.43.029,00_bat_bachelor,2022.2.4,59.97141726525922,
,,,,,,,,,,,,1,0,1,0,12,0,12,0,,,,,,,12,,,0.2,7613.405165864155,X,None,nogo,None,1,,,,,,,,,,,,,,,,,,,27,001,19,w,Psychologie,2023-01-17_12h05.43.029,00_bat_bachelor,2022.2.4,59.97141726525922,
,,,,,,,,,,,,1,0,1,0,13,0,13,0,,,,,,,13,,,0.2,7614.405873742595,Y,d,go,d,1,0.6545076197944582,,,,,,,,,,,,,,,,,,27,001,19,w,Psychologie,2023-01-17_12h05.43.029,00_bat_bachelor,2022.2.4,59.97141726525922,
,,,,,,,,,,,,1,0,1,0,14,0,14,0,,,,,,,14,,,0.2,7615.372971455508,X,l,go,l,1,0.3437950432416983,,,,,,,,,,,,,,,,,,27,001,19,w,Psychologie,2023-01-17_12h05.43.029,00_bat_bachelor,2022.2.4,59.97141726525922,
,,,,,,,,,,,,1,0,1,0,15,0,15,0,,,,,,,15,,,0.2,7616.02387538238,X,None,nogo,None,1,,,,,,,,,,,,,,,,,,,27,001,19,w,Psychologie,2023-01-17_12h05.43.029,00_bat_bachelor,2022.2.4,59.97141726525922,
,,,,,,,,,,,,1,0,1,0,16,0,16,0,,,,,,,16,,,0.2,7617.024596351723,Y,d,go,d,1,0.32388571952469647,,,,,,,,,,,,,,,,,,27,001,19,w,Psychologie,2023-01-17_12h05.43.029,00_bat_bachelor,2022.2.4,59.97141726525922,
,,,,,,,,,,,,1,0,1,0,17,0,17,0,,,,,,,17,,,0.2,7617.658259559656,X,l,go,l,1,0.2978323988500051,,,,,,,,,,,,,,,,,,27,001,19,w,Psychologie,2023-01-17_12h05.43.029,00_bat_bachelor,2022.2.4,59.97141726525922,
,,,,,,,,,,,,1,0,1,0,18,0,18,0,,,,,,,18,,,0.2,7618.25884641998,Y,d,go,d,1,0.29005397838773206,,,,,,,,,,,,,,,,,,27,001,19,w,Psychologie,2023-01-17_12h05.43.029,00_bat_bachelor,2022.2.4,59.97141726525922,
,,,,,,,,,,,,1,0,1,0,19,0,19,0,,,,,,,19,,,0.2,7618.859041522897,Y,None,nogo,l,0,0.2327138849068433,,,,,,,,,,,,,,,,,,27,001,19,w,Psychologie,2023-01-17_12h05.43.029,00_bat_bachelor,2022.2.4,59.97141726525922,
,,,,,,,,,,,,1,0,1,0,20,0,20,0,,,,,,,20,,,0.2,7619.39270235505,X,l,go,None,0,,7620.193615421304,,,,,,,,,,,,,,,,,27,001,19,w,Psychologie,2023-01-17_12h05.43.029,00_bat_bachelor,2022.2.4,59.97141726525922,
,,,,,,,,,,,,1,0,1,0,21,0,21,0,,,,,,,21,,,0.2,7620.393767081841,Y,d,go,d,1,0.29856209544232115,,,,,,,,,,,,,,,,,,27,001,19,w,Psychologie,2023-01-17_12h05.43.029,00_bat_bachelor,2022.2.4,59.97141726525922,
,,,,,,,,,,,,1,0,1,0,22,0,22,0,,,,,,,22,,,0.2,7620.994135760411,X,l,go,l,1,0.3065417279722169,,,,,,,,,,,,,,,,,,27,001,19,w,Psychologie,2023-01-17_12h05.43.029,00_bat_bachelor,2022.2.4,59.97141726525922,
,,,,,,,,,,,,1,0,1,0,23,0,23,0,,,,,,,23,,,0.2,7621.611318006646,Y,d,go,d,1,0.4250890644034371,,,,,,,,,,,,,,,,,,27,001,19,w,Psychologie,2023-01-17_12h05.43.029,00_bat_bachelor,2022.2.4,59.97141726525922,
,,,,,,,,,,,,1,0,1,0,24,0,24,0,,,,,,,24,,,0.2,7622.344945287332,Y,None,nogo,l,0,0.25064939144067466,,,,,,,,,,,,,,,,,,27,001,19,w,Psychologie,2023-01-17_12h05.43.029,00_bat_bachelor,2022.2.4,59.97141726525922,
,,,,,,,,,,,,1,0,1,0,25,0,25,0,,,,,,,25,,,0.2,7622.9120979820145,Y,None,nogo,None,1,,,,,,,,,,,,,,,,,,,27,001,19,w,Psychologie,2023-01-17_12h05.43.029,00_bat_bachelor,2022.2.4,59.97141726525922,
,,,,,,,,,,,,1,0,1,0,26,0,26,0,,,,,,,26,,,0.2,7623.91311519366,X,l,go,l,1,0.6671505228150636,,,,,,,,,,,,,,,,,,27,001,19,w,Psychologie,2023-01-17_12h05.43.029,00_bat_bachelor,2022.2.4,59.97141726525922,
,,,,,,,,,,,,1,0,1,0,27,0,27,0,,,,,,,27,,,0.2,7624.880495088233,Y,d,go,d,1,0.38731065846513957,,,,,,,,,,,,,,,,,,27,001,19,w,Psychologie,2023-01-17_12h05.43.029,00_bat_bachelor,2022.2.4,59.97141726525922,
,,,,,,,,,,,,1,0,1,0,28,0,28,0,,,,,,,28,,,0.2,7625.580741536629,Y,None,nogo,None,1,,,,,,,,,,,,,,,,,,,27,001,19,w,Psychologie,2023-01-17_12h05.43.029,00_bat_bachelor,2022.2.4,59.97141726525922,
,,,,,,,,,,,,1,0,1,0,29,0,29,0,,,,,,,29,,,0.2,7626.581835354271,Y,None,nogo,None,1,,,,,,,,,,,,,,,,,,,27,001,19,w,Psychologie,2023-01-17_12h05.43.029,00_bat_bachelor,2022.2.4,59.97141726525922,
,,,,,,,,,,,,1,0,1,0,30,0,30,0,,,,,,,30,,,0.2,7627.582573293301,X,l,go,l,1,0.5013193304766901,,,,,,,,,,,,,,,,,,27,001,19,w,Psychologie,2023-01-17_12h05.43.029,00_bat_bachelor,2022.2.4,59.97141726525922,
,,,,,,,,,,,,1,0,1,0,31,0,31,0,,,,,,,31,,,0.2,7628.399963927281,Y,d,go,d,1,0.3576718849944882,,,,,,,,,,,,,,,,,,27,001,19,w,Psychologie,2023-01-17_12h05.43.029,00_bat_bachelor,2022.2.4,59.97141726525922,
,,,,,,,,,,,,1,0,1,0,32,0,32,0,,,,,,,32,,,0.2,7629.066986149352,X,l,go,l,1,0.5046158137265593,,,,,,,,,,,,,,,,,,27,001,19,w,Psychologie,2023-01-17_12h05.43.029,00_bat_bachelor,2022.2.4,59.97141726525922,
,,,,,,,,,,,,1,0,1,0,33,0,33,0,,,,,,,33,,,0.2,7629.884038359276,X,None,nogo,d,0,0.3282071719877422,,,,,,,,,,,,,,,,,,27,001,19,w,Psychologie,2023-01-17_12h05.43.029,00_bat_bachelor,2022.2.4,59.97141726525922,
,,,,,,,,,,,,1,0,1,0,34,0,34,0,,,,,,,34,,,0.2,7630.518190294213,Y,d,go,d,1,0.6371340525220148,,,,,,,,,,,,,,,,,,27,001,19,w,Psychologie,2023-01-17_12h05.43.029,00_bat_bachelor,2022.2.4,59.97141726525922,
,,,,,,,,,,,,1,0,1,0,35,0,35,0,,,,,,,35,,,0.2,7631.468567530392,X,l,go,l,1,0.3283264446654357,,,,,,,,,,,,,,,,,,27,001,19,w,Psychologie,2023-01-17_12h05.43.029,00_bat_bachelor,2022.2.4,59.97141726525922,
,,,,,,,,,,,,1,0,1,0,36,0,36,0,,,,,,,36,,,0.2,7632.102384435188,X,None,nogo,d,0,0.365635032649152,,,,,,,,,,,,,,,,,,27,001,19,w,Psychologie,2023-01-17_12h05.43.029,00_bat_bachelor,2022.2.4,59.97141726525922,
,,,,,,,,,,,,1,0,1,0,37,0,37,0,,,,,,,37,,,0.2,7632.76978241466,Y,d,go,d,1,0.5791849896777421,,,,,,,,,,,,,,,,,,27,001,19,w,Psychologie,2023-01-17_12h05.43.029,00_bat_bachelor,2022.2.4,59.97141726525922,
,,,,,,,,,,,,1,0,1,0,38,0,38,0,,,,,,,38,,,0.2,7633.653827561764,X,l,go,l,1,0.3664626685786061,,,,,,,,,,,,,,,,,,27,001,19,w,Psychologie,2023-01-17_12h05.43.029,00_bat_bachelor,2022.2.4,59.97141726525922,
,,,,,,,,,,,,1,0,1,0,39,0,39,0,,,,,,,39,,,0.2,7634.321018511022,X,None,nogo,None,1,,,,,,,,,,,,,,,,,,,27,001,19,w,Psychologie,2023-01-17_12h05.43.029,00_bat_bachelor,2022.2.4,59.97141726525922,
,,,,,,,,,,,,1,0,1,0,40,0,40,0,,,,,,,40,,,0.2,7635.32178602583,Y,d,go,d,1,0.3624815795919858,,,,,,,,,,,,,,,,,,27,001,19,w,Psychologie,2023-01-17_12h05.43.029,00_bat_bachelor,2022.2.4,59.97141726525922,
,,,,,,,,,,,,1,0,1,0,41,0,41,0,,,,,,,41,,,0.2,7635.98899879324,X,l,go,l,1,0.44715402339352295,,,,,,,,,,,,,,,,,,27,001,19,w,Psychologie,2023-01-17_12h05.43.029,00_bat_bachelor,2022.2.4,59.97141726525922,
,,,,,,,,,,,,1,0,1,0,42,0,42,0,,,,,,,42,,,0.2,7636.739528853563,X,None,nogo,None,1,,,,,,,,,,,,,,,,,,,27,001,19,w,Psychologie,2023-01-17_12h05.43.029,00_bat_bachelor,2022.2.4,59.97141726525922,
,,,,,,,,,,,,1,0,1,0,43,0,43,0,,,,,,,43,,,0.2,7637.740310913767,Y,d,go,d,1,0.5356979804928415,,,,,,,,,,,,,,,,,,27,001,19,w,Psychologie,2023-01-17_12h05.43.029,00_bat_bachelor,2022.2.4,59.97141726525922,
,,,,,,,,,,,,1,0,1,0,44,0,44,0,,,,,,,44,,,0.2,7638.59067219845,X,l,go,l,1,0.3098086354439147,,,,,,,,,,,,,,,,,,27,001,19,w,Psychologie,2023-01-17_12h05.43.029,00_bat_bachelor,2022.2.4,59.97141726525922,
,,,,,,,,,,,,1,0,1,0,45,0,45,0,,,,,,,45,,,0.2,7639.207800626522,X,None,nogo,None,1,,,,,,,,,,,,,,,,,,,27,001,19,w,Psychologie,2023-01-17_12h05.43.029,00_bat_bachelor,2022.2.4,59.97141726525922,
,,,,,,,,,,,,1,0,1,0,46,0,46,0,,,,,,,46,,,0.2,7640.208751413971,Y,d,go,d,1,0.3392345606116578,,,,,,,,,,,,,,,,,,27,001,19,w,Psychologie,2023-01-17_12h05.43.029,00_bat_bachelor,2022.2.4,59.97141726525922,
,,,,,,,,,,,,1,0,1,0,47,0,47,0,,,,,,,47,,,0.2,7640.859068674385,X,l,go,l,1,0.3770081180264242,,,,,,,,,,,,,,,,,,27,001,19,w,Psychologie,2023-01-17_12h05.43.029,00_bat_bachelor,2022.2.4,59.97141726525922,
,,,,,,,,,,,,1,0,1,0,48,0,48,0,,,,,,,48,,,0.2,7641.5432375547825,Y,d,go,None,0,,7642.343915954465,,,,,,,,,,,,,,,,,27,001,19,w,Psychologie,2023-01-17_12h05.43.029,00_bat_bachelor,2022.2.4,59.97141726525922,
,,,,,,,,,,,,1,0,1,0,49,0,49,0,,,,,,,49,,,0.2,7642.544051614997,Y,None,nogo,l,0,0.33957540889969096,,,,,,,,,,,,,,,,,,27,001,19,w,Psychologie,2023-01-17_12h05.43.029,00_bat_bachelor,2022.2.4,59.97141726525922,
,,,,,,,,,,,,1,0,1,0,50,0,50,0,,,,,,,50,,,0.2,7643.194443057233,X,l,go,l,1,0.5695011155912653,,,,,,,,,,,,,,,,,,27,001,19,w,Psychologie,2023-01-17_12h05.43.029,00_bat_bachelor,2022.2.4,59.97141726525922,
,,,,,,,,,,,,1,0,1,0,51,0,51,0,,,,,,,51,,,0.2,7644.078347598377,Y,d,go,d,1,0.46945170959224924,,,,,,,,,,,,,,,,,,27,001,19,w,Psychologie,2023-01-17_12h05.43.029,00_bat_bachelor,2022.2.4,59.97141726525922,
,,,,,,,,,,,,1,0,1,0,52,0,52,0,,,,,,,52,,,0.2,7644.862393278861,Y,None,nogo,l,0,0.2768951968755573,,,,,,,,,,,,,,,,,,27,001,19,w,Psychologie,2023-01-17_12h05.43.029,00_bat_bachelor,2022.2.4,59.97141726525922,
,,,,,,,,,,,,1,0,1,0,53,0,53,0,,,,,,,53,,,0.2,7645.446215541218,X,l,go,l,1,0.6070729761850089,,,,,,,,,,,,,,,,,,27,001,19,w,Psychologie,2023-01-17_12h05.43.029,00_bat_bachelor,2022.2.4,59.97141726525922,
,,,,,,,,,,,,1,0,1,0,54,0,54,0,,,,,,,54,,,0.2,7646.363491217722,Y,d,go,None,0,,,,,,,,,,,,,,,,,,,27,001,19,w,Psychologie,2023-01-17_12h05.43.029,00_bat_bachelor,2022.2.4,59.97141726525922,
,,,,,,,,,,,,1,0,1,0,55,0,55,0,,,,,,,55,,,0.2,7647.36401485384,Y,None,nogo,None,1,,,,,,,,,,,,,,,,,,,27,001,19,w,Psychologie,2023-01-17_12h05.43.029,00_bat_bachelor,2022.2.4,59.97141726525922,
,,,,,,,,,,,,1,0,1,0,56,0,56,0,,,,,,,56,,,0.2,7648.365146974451,X,l,go,l,1,0.2634935063542798,,,,,,,,,,,,,,,,,,27,001,19,w,Psychologie,2023-01-17_12h05.43.029,00_bat_bachelor,2022.2.4,59.97141726525922,
,,,,,,,,,,,,1,0,1,0,57,0,57,0,,,,,,,57,,,0.2,7648.93187251786,Y,d,go,d,1,0.20860141183948144,,,,,,,,,,,,,,,,,,27,001,19,w,Psychologie,2023-01-17_12h05.43.029,00_bat_bachelor,2022.2.4,59.97141726525922,
,,,,,,,,,,,,1,0,1,0,58,0,58,0,,,,,,,58,,,0.2,7649.449112024682,Y,None,nogo,l,0,0.2981349441688508,,,,,,,,,,,,,,,,,,27,001,19,w,Psychologie,2023-01-17_12h05.43.029,00_bat_bachelor,2022.2.4,59.97141726525922,
,,,,,,,,,,,,1,0,1,0,59,0,59,0,,,,,,,59,,,0.2,7650.049478279019,Y,None,nogo,None,1,,,,,,,,,,,,,,,,,,,27,001,19,w,Psychologie,2023-01-17_12h05.43.029,00_bat_bachelor,2022.2.4,59.97141726525922,
,,,,,,,,,,,,1,0,1,0,60,0,60,0,,,,,,,60,,,0.2,7651.0503844604245,X,l,go,l,1,0.2651206571026705,,,,,,,,,,,,,,,,,,27,001,19,w,Psychologie,2023-01-17_12h05.43.029,00_bat_bachelor,2022.2.4,59.97141726525922,
,,,,,,,,,,,,1,0,1,0,61,0,61,0,,,,,,,61,,,0.2,7651.617528427858,Y,d,go,None,0,,,,,,,,,,,,,,,,,,,27,001,19,w,Psychologie,2023-01-17_12h05.43.029,00_bat_bachelor,2022.2.4,59.97141726525922,
,,,,,,,,,,,,1,0,1,0,62,0,62,0,,,,,,,62,,,0.2,7652.618141760933,X,l,go,None,0,,,,,,,,,,,,,,,,,,,27,001,19,w,Psychologie,2023-01-17_12h05.43.029,00_bat_bachelor,2022.2.4,59.97141726525922,
,,,,,,,,,,,,1,0,1,0,63,0,63,0,,,,,,,63,,,0.2,7653.619082851335,Y,d,go,None,0,,,,,,,,,,,,,,,,,,,27,001,19,w,Psychologie,2023-01-17_12h05.43.029,00_bat_bachelor,2022.2.4,59.97141726525922,
,,,,,,,,,,,,1,0,1,0,64,0,64,0,,,,,,,64,,,0.2,7654.619907093409,X,l,go,l,1,0.2157771658967249,,,,,,,,,,,,,,,,,,27,001,19,w,Psychologie,2023-01-17_12h05.43.029,00_bat_bachelor,2022.2.4,59.97141726525922,
,,,,,,,,,,,,1,0,1,0,65,0,65,0,,,,,,,65,,,0.2,7655.1366021155845,Y,d,go,d,1,0.30726997001329437,,,,,,,,,,,,,,,,,,27,001,19,w,Psychologie,2023-01-17_12h05.43.029,00_bat_bachelor,2022.2.4,59.97141726525922,
,,,,,,,,,,,,1,0,1,0,66,0,66,0,,,,,,,66,,,0.2,7655.753964725358,X,l,go,l,1,0.37802726903464645,,,,,,,,,,,,,,,,,,27,001,19,w,Psychologie,2023-01-17_12h05.43.029,00_bat_bachelor,2022.2.4,59.97141726525922,
,,,,,,,,,,,,1,0,1,0,67,0,67,0,,,,,,,67,,,0.2,7656.437736999884,X,None,nogo,None,1,,7657.2385613388615,,,,,,,,,,,,,,,,,27,001,19,w,Psychologie,2023-01-17_12h05.43.029,00_bat_bachelor,2022.2.4,59.97141726525922,
,,,,,,,,,,,,1,0,1,0,68,0,68,0,,,,,,,68,,,0.2,7657.438424999535,Y,d,go,d,1,0.2944050065125339,,,,,,,,,,,,,,,,,,27,001,19,w,Psychologie,2023-01-17_12h05.43.029,00_bat_bachelor,2022.2.4,59.97141726525922,
,,,,,,,,,,,,1,0,1,0,69,0,69,0,,,,,,,69,,,0.2,7658.03919561737,X,l,go,l,1,0.3329485030262731,,,,,,,,,,,,,,,,,,27,001,19,w,Psychologie,2023-01-17_12h05.43.029,00_bat_bachelor,2022.2.4,59.97141726525922,
,,,,,,,,,,,,1,0,1,0,70,0,70,0,,,,,,,70,,,0.2,7658.672799188935,X,None,nogo,None,1,,7659.473569709808,,,,,,,,,,,,,,,,,27,001,19,w,Psychologie,2023-01-17_12h05.43.029,00_bat_bachelor,2022.2.4,59.97141726525922,
,,,,,,,,,,,,1,0,1,0,71,0,71,0,,,,,,,71,,,0.2,7659.673719430924,Y,d,go,d,1,0.31425372418016195,,,,,,,,,,,,,,,,,,27,001,19,w,Psychologie,2023-01-17_12h05.43.029,00_bat_bachelor,2022.2.4,59.97141726525922,
,,,,,,,,,,,,1,0,1,0,72,0,72,0,,,,,,,72,,,0.2,7660.290784343844,X,l,go,None,0,,7661.091214501241,,,,,,,,,,,,,,,,,27,001,19,w,Psychologie,2023-01-17_12h05.43.029,00_bat_bachelor,2022.2.4,59.97141726525922,
,,,,,,,,,,,,1,0,1,0,73,0,73,0,,,,,,,73,,,0.2,7661.291308464832,Y,d,go,d,1,0.47351619240362197,,,,,,,,,,,,,,,,,,27,001,19,w,Psychologie,2023-01-17_12h05.43.029,00_bat_bachelor,2022.2.4,59.97141726525922,
,,,,,,,,,,,,1,0,1,0,74,0,74,0,,,,,,,74,,,0.2,7662.075251357455,Y,None,nogo,l,0,0.2159609233494848,,,,,,,,,,,,,,,,,,27,001,19,w,Psychologie,2023-01-17_12h05.43.029,00_bat_bachelor,2022.2.4,59.97141726525922,
,,,,,,,,,,,,1,0,1,0,75,0,75,0,,,,,,,75,,,0.2,7662.592519470316,X,l,go,None,0,,,,,,,,,,,,,,,,,,,27,001,19,w,Psychologie,2023-01-17_12h05.43.029,00_bat_bachelor,2022.2.4,59.97141726525922,
,,,,,,,,,,,,1,0,1,0,76,0,76,0,,,,,,,76,,,0.2,7663.593272924481,Y,d,go,d,1,0.15442446840461344,,,,,,,,,,,,,,,,,,27,001,19,w,Psychologie,2023-01-17_12h05.43.029,00_bat_bachelor,2022.2.4,59.97141726525922,
,,,,,,,,,,,,1,0,1,0,77,0,77,0,,,,,,,77,,,0.2,7664.060355364694,Y,None,nogo,l,0,0.40810143627459183,,,,,,,,,,,,,,,,,,27,001,19,w,Psychologie,2023-01-17_12h05.43.029,00_bat_bachelor,2022.2.4,59.97141726525922,
,,,,,,,,,,,,1,0,1,0,78,0,78,0,,,,,,,78,,,0.2,7664.777277198911,X,l,go,None,0,,7665.577933780383,,,,,,,,,,,,,,,,,27,001,19,w,Psychologie,2023-01-17_12h05.43.029,00_bat_bachelor,2022.2.4,59.97141726525922,
,,,,,,,,,,,,1,0,1,0,79,0,79,0,,,,,,,79,,,0.2,7665.778280834784,Y,d,go,d,1,0.4977159382542595,,,,,,,,,,,,,,,,,,27,001,19,w,Psychologie,2023-01-17_12h05.43.029,00_bat_bachelor,2022.2.4,59.97141726525922,
,,,,,,,,,,,,1,0,1,0,80,0,80,0,,,,,,,80,,,0.2,7666.578658143699,X,l,go,l,1,0.19393911585211754,,,,,,,,,,,,,,,,,,27,001,19,w,Psychologie,2023-01-17_12h05.43.029,00_bat_bachelor,2022.2.4,59.97141726525922,
,,,,,,,,,,,,1,0,1,0,81,0,81,0,,,,,,,81,,,0.2,7667.079039961682,Y,d,go,d,1,0.5250948340981267,,,,,,,,,,,,,,,,,,27,001,19,w,Psychologie,2023-01-17_12h05.43.029,00_bat_bachelor,2022.2.4,59.97141726525922,
,,,,,,,,,,,,1,0,1,0,82,0,82,0,,,,,,,82,,,0.2,7667.913175799651,X,l,go,l,1,0.36302800360135734,,,,,,,,,,,,,,,,,,27,001,19,w,Psychologie,2023-01-17_12h05.43.029,00_bat_bachelor,2022.2.4,59.97141726525922,
,,,,,,,,,,,,1,0,1,0,83,0,83,0,,,,,,,83,,,0.2,7668.5805180215975,X,None,nogo,None,1,,,,,,,,,,,,,,,,,,,27,001,19,w,Psychologie,2023-01-17_12h05.43.029,00_bat_bachelor,2022.2.4,59.97141726525922,
,,,,,,,,,,,,1,0,1,0,84,0,84,0,,,,,,,84,,,0.2,7669.581230748503,Y,d,go,d,1,0.3272675360785797,,,,,,,,,,,,,,,,,,27,001,19,w,Psychologie,2023-01-17_12h05.43.029,00_bat_bachelor,2022.2.4,59.97141726525922,
,,,,,,,,,,,,1,0,1,0,85,0,85,0,,,,,,,85,,,0.2,7670.215109713899,X,l,go,l,1,0.25342660216847435,,,,,,,,,,,,,,,,,,27,001,19,w,Psychologie,2023-01-17_12h05.43.029,00_bat_bachelor,2022.2.4,59.97141726525922,
,,,,,,,,,,,,1,0,1,0,86,0,86,0,,,,,,,86,,,0.2,7670.781942408765,Y,d,go,d,1,0.5174832014017738,,,,,,,,,,,,,,,,,,27,001,19,w,Psychologie,2023-01-17_12h05.43.029,00_bat_bachelor,2022.2.4,59.97141726525922,
,,,,,,,,,,,,1,0,1,0,87,0,87,0,,,,,,,87,,,0.2,7671.6161000649445,X,l,go,l,1,0.2763007729081437,,,,,,,,,,,,,,,,,,27,001,19,w,Psychologie,2023-01-17_12h05.43.029,00_bat_bachelor,2022.2.4,59.97141726525922,
,,,,,,,,,,,,1,0,1,0,88,0,88,0,,,,,,,88,,,0.2,7672.199864145543,Y,d,go,d,1,0.34879479836672544,,,,,,,,,,,,,,,,,,27,001,19,w,Psychologie,2023-01-17_12h05.43.029,00_bat_bachelor,2022.2.4,59.97141726525922,
,,,,,,,,,,,,1,0,1,0,89,0,89,0,,,,,,,89,,,0.2,7672.85029728472,X,l,go,l,1,0.24267121346201748,,,,,,,,,,,,,,,,,,27,001,19,w,Psychologie,2023-01-17_12h05.43.029,00_bat_bachelor,2022.2.4,59.97141726525922,
,,,,,,,,,,,,1,0,1,0,90,0,90,0,,,,,,,90,,,0.2,7673.400880290486,Y,d,go,d,1,0.4915423655183986,,,,,,,,,,,,,,,,,,27,001,19,w,Psychologie,2023-01-17_12h05.43.029,00_bat_bachelor,2022.2.4,59.97141726525922,
,,,,,,,,,,,,1,0,1,0,91,0,91,0,,,,,,,91,,,0.2,7674.201372993295,X,l,go,l,1,0.25133060320513323,,,,,,,,,,,,,,,,,,27,001,19,w,Psychologie,2023-01-17_12h05.43.029,00_bat_bachelor,2022.2.4,59.97141726525922,
,,,,,,,,,,,,1,0,1,0,92,0,92,0,,,,,,,92,,,0.2,7674.768624597054,Y,d,go,d,1,0.3387041366077028,,,,,,,,,,,,,,,,,,27,001,19,w,Psychologie,2023-01-17_12h05.43.029,00_bat_bachelor,2022.2.4,59.97141726525922,
,,,,,,,,,,,,1,0,1,0,93,0,93,0,,,,,,,93,,,0.2,7675.418976281711,Y,None,nogo,l,0,0.28216986096231267,,,,,,,,,,,,,,,,,,27,001,19,w,Psychologie,2023-01-17_12h05.43.029,00_bat_bachelor,2022.2.4,59.97141726525922,
,,,,,,,,,,,,1,0,1,0,94,0,94,0,,,,,,,94,,,0.2,7676.002804847143,X,l,go,None,0,,,,,,,,,,,,,,,,,,,27,001,19,w,Psychologie,2023-01-17_12h05.43.029,00_bat_bachelor,2022.2.4,59.97141726525922,
,,,,,,,,,,,,1,0,1,0,95,0,95,0,,,,,,,95,,,0.2,7677.003495271027,Y,d,go,d,1,0.3616175800561905,,,,,,,,,,,,,,,,,,27,001,19,w,Psychologie,2023-01-17_12h05.43.029,00_bat_bachelor,2022.2.4,59.97141726525922,
,,,,,,,,,,,,1,0,1,0,96,0,96,0,,,,,,,96,,,0.2,7677.67074294755,Y,None,nogo,None,1,,,,,,,,,,,,,,,,,,,27,001,19,w,Psychologie,2023-01-17_12h05.43.029,00_bat_bachelor,2022.2.4,59.97141726525922,
,,,,,,,,,,,,1,0,1,0,97,0,97,0,,,,,,,97,,,0.2,7678.671481371392,X,l,go,l,1,0.27738149964716285,,,,,,,,,,,,,,,,,,27,001,19,w,Psychologie,2023-01-17_12h05.43.029,00_bat_bachelor,2022.2.4,59.97141726525922,
,,,,,,,,,,,,1,0,1,0,98,0,98,0,,,,,,,98,,,0.2,7679.255013694521,Y,d,go,d,1,0.3797227833420038,,,,,,,,,,,,,,,,,,27,001,19,w,Psychologie,2023-01-17_12h05.43.029,00_bat_bachelor,2022.2.4,59.97141726525922,
,,,,,,,,,,,,1,0,1,0,99,0,99,0,,,,,,,99,,,0.2,7679.939169968886,X,l,go,l,1,0.32093735731905326,,,,,,,,,,,,,,,,,,27,001,19,w,Psychologie,2023-01-17_12h05.43.029,00_bat_bachelor,2022.2.4,59.97141726525922,
,,,,,,,,,,,,1,0,1,0,100,0,100,0,,,,,,,100,,,0.2,7680.572871964658,Y,d,go,d,1,0.29513470316305757,,,,,,,,,,,,,,,,,,27,001,19,w,Psychologie,2023-01-17_12h05.43.029,00_bat_bachelor,2022.2.4,59.97141726525922,
,,,,,,,,,,,,1,0,1,0,101,0,101,0,,,,,,,101,,,0.2,7681.1734355522785,Y,None,nogo,None,1,,7681.973734800646,,,,,,,,,,,,,,,,,27,001,19,w,Psychologie,2023-01-17_12h05.43.029,00_bat_bachelor,2022.2.4,59.97141726525922,
,,,,,,,,,,,,1,0,1,0,102,0,102,0,,,,,,,102,,,0.2,7682.1741511882865,X,l,go,l,1,0.24602442397736013,,,,,,,,,,,,,,,,,,27,001,19,w,Psychologie,2023-01-17_12h05.43.029,00_bat_bachelor,2022.2.4,59.97141726525922,
,,,,,,,,,,,,1,0,1,0,103,0,103,0,,,,,,,103,,,0.2,7682.724296860979,Y,d,go,d,1,0.2233393440837972,,,,,,,,,,,,,,,,,,27,001,19,w,Psychologie,2023-01-17_12h05.43.029,00_bat_bachelor,2022.2.4,59.97141726525922,
,,,,,,,,,,,,1,0,1,0,104,0,104,0,,,,,,,104,,,0.2,7683.258294662635,X,l,go,l,1,0.31418584543280303,,,,,,,,,,,,,,,,,,27,001,19,w,Psychologie,2023-01-17_12h05.43.029,00_bat_bachelor,2022.2.4,59.97141726525922,
,,,,,,,,,,,,1,0,1,0,105,0,105,0,,,,,,,105,,,0.2,7683.875239333196,Y,d,go,d,1,0.20821595744928345,,,,,,,,,,,,,,,,,,27,001,19,w,Psychologie,2023-01-17_12h05.43.029,00_bat_bachelor,2022.2.4,59.97141726525922,
,,,,,,,,,,,,1,0,1,0,106,0,106,0,,,,,,,106,,,0.2,7684.392529749079,X,l,go,l,1,0.2841208903118968,,,,,,,,,,,,,,,,,,27,001,19,w,Psychologie,2023-01-17_12h05.43.029,00_bat_bachelor,2022.2.4,59.97141726525922,
,,,,,,,,,,,,1,0,1,0,107,0,107,0,,,,,,,107,,,0.2,7684.992710306542,Y,d,go,d,1,0.19522299407981336,,,,,,,,,,,,,,,,,,27,001,19,w,Psychologie,2023-01-17_12h05.43.029,00_bat_bachelor,2022.2.4,59.97141726525922,
,,,,,,,,,,,,1,0,1,0,108,0,108,0,,,,,,,108,,,0.2,7685.493429094087,X,l,go,l,1,0.3988607134670019,,,,,,,,,,,,,,,,,,27,001,19,w,Psychologie,2023-01-17_12h05.43.029,00_bat_bachelor,2022.2.4,59.97141726525922,
,,,,,,,,,,,,1,0,1,0,109,0,109,0,,,,,,,109,,,0.2,7686.193896633282,Y,d,go,d,1,0.44995402201311663,,,,,,,,,,,,,,,,,,27,001,19,w,Psychologie,2023-01-17_12h05.43.029,00_bat_bachelor,2022.2.4,59.97141726525922,
,,,,,,,,,,,,1,0,1,0,110,0,110,0,,,,,,,110,,,0.2,7686.944415057253,Y,None,nogo,None,1,,7687.745048366021,,,,,,,,,,,,,,,,,27,001,19,w,Psychologie,2023-01-17_12h05.43.029,00_bat_bachelor,2022.2.4,59.97141726525922,
,,,,,,,,,,,,1,0,1,0,111,0,111,0,,,,,,,111,,,0.2,7687.944975541846,X,l,go,l,1,0.2509247852140106,,,,,,,,,,,,,,,,,,27,001,19,w,Psychologie,2023-01-17_12h05.43.029,00_bat_bachelor,2022.2.4,59.97141726525922,
,,,,,,,,,,,,1,0,1,0,112,0,112,0,,,,,,,112,,,0.2,7688.5123570848955,Y,d,go,d,1,0.17991584993433207,,,,,,,,,,,,,,,,,,27,001,19,w,Psychologie,2023-01-17_12h05.43.029,00_bat_bachelor,2022.2.4,59.97141726525922,
,,,,,,,,,,,,1,0,1,0,113,0,113,0,,,,,,,113,,,0.2,7688.995950062585,Y,None,nogo,d,0,0.35204425133997574,,,,,,,,,,,,,,,,,,27,001,19,w,Psychologie,2023-01-17_12h05.43.029,00_bat_bachelor,2022.2.4,59.97141726525922,
,,,,,,,,,,,,1,0,1,0,114,0,114,0,,,,,,,114,,,0.2,7689.6630241633975,X,l,go,l,1,0.42056300601689145,,,,,,,,,,,,,,,,,,27,001,19,w,Psychologie,2023-01-17_12h05.43.029,00_bat_bachelor,2022.2.4,59.97141726525922,
,,,,,,,,,,,,1,0,1,0,115,0,115,0,,,,,,,115,,,0.2,7690.397013625712,Y,d,go,d,1,0.5022371482336894,,,,,,,,,,,,,,,,,,27,001,19,w,Psychologie,2023-01-17_12h05.43.029,00_bat_bachelor,2022.2.4,59.97141726525922,
,,,,,,,,,,,,1,0,1,0,116,0,116,0,,,,,,,116,,,0.2,7691.214324259723,X,l,go,None,0,,7692.0149619321455,,,,,,,,,,,,,,,,,27,001,19,w,Psychologie,2023-01-17_12h05.43.029,00_bat_bachelor,2022.2.4,59.97141726525922,
,,,,,,,,,,,,1,0,1,0,117,0,117,0,,,,,,,117,,,0.2,7692.214847895841,X,None,nogo,None,1,,,,,,,,,,,,,,,,,,,27,001,19,w,Psychologie,2023-01-17_12h05.43.029,00_bat_bachelor,2022.2.4,59.97141726525922,
,,,,,,,,,,,,1,0,1,0,118,0,118,0,,,,,,,118,,,0.2,7693.215873349865,Y,d,go,d,1,0.3247162646148354,,,,,,,,,,,,,,,,,,27,001,19,w,Psychologie,2023-01-17_12h05.43.029,00_bat_bachelor,2022.2.4,59.97141726525922,
,,,,,,,,,,,,1,0,1,0,119,0,119,0,,,,,,,119,,,0.2,7693.849490982073,X,l,go,l,1,0.5063122977735475,,,,,,,,,,,,,,,,,,27,001,19,w,Psychologie,2023-01-17_12h05.43.029,00_bat_bachelor,2022.2.4,59.97141726525922,
,,,,,,,,,,,,1,0,1,0,120,0,120,0,,,,,,,120,,,0.2,7694.6669524039025,X,None,nogo,None,1,,,,,,,,,,,,,,,,,,,27,001,19,w,Psychologie,2023-01-17_12h05.43.029,00_bat_bachelor,2022.2.4,59.97141726525922,
,,,,,,,,,,,,1,0,1,0,121,0,121,0,,,,,,,121,,,0.2,7695.6677756762365,Y,d,go,None,0,,,,,,,,,,,,,,,,,,,27,001,19,w,Psychologie,2023-01-17_12h05.43.029,00_bat_bachelor,2022.2.4,59.97141726525922,
,,,,,,,,,,,,1,0,1,0,122,0,122,0,,,,,,,122,,,0.2,7696.668668766739,X,l,go,None,0,,,,,,,,,,,,,,,,,,,27,001,19,w,Psychologie,2023-01-17_12h05.43.029,00_bat_bachelor,2022.2.4,59.97141726525922,
,,,,,,,,,,,,1,0,1,0,123,0,123,0,,,,,,,123,,,0.2,7697.669305372459,Y,d,go,l,0,0.030808528303168714,,,,,,,,,,,,,,,,,,27,001,19,w,Psychologie,2023-01-17_12h05.43.029,00_bat_bachelor,2022.2.4,59.97141726525922,
,,,,,,,,,,,,1,0,1,0,124,0,124,0,,,,,,,124,,,0.2,7698.002959513746,Y,None,nogo,d,0,0.06504851166391745,,,,,,,,,,,,,,,,,,27,001,19,w,Psychologie,2023-01-17_12h05.43.029,00_bat_bachelor,2022.2.4,59.97141726525922,
,,,,,,,,,,,,1,0,1,0,125,0,125,0,,,,,,,125,,,0.2,7698.369699699571,X,l,go,None,0,,,,,,,,,,,,,,,,,,,27,001,19,w,Psychologie,2023-01-17_12h05.43.029,00_bat_bachelor,2022.2.4,59.97141726525922,
,,,,,,,,,,,,1,0,1,0,126,0,126,0,,,,,,,126,,,0.2,7699.370526850631,Y,d,go,l,0,0.3941576855140738,,,,,,,,,,,,,,,,,,27,001,19,w,Psychologie,2023-01-17_12h05.43.029,00_bat_bachelor,2022.2.4,59.97141726525922,
,,,,,,,,,,,,1,0,1,0,127,0,127,0,,,,,,,127,,,0.2,7700.071050632221,Y,None,nogo,None,1,,,,,,,,,,,,,,,,,,,27,001,19,w,Psychologie,2023-01-17_12h05.43.029,00_bat_bachelor,2022.2.4,59.97141726525922,
,,,,,,,,,,,,1,0,1,0,128,0,128,0,,,,,,,128,,,0.2,7701.071853540896,X,l,go,l,1,0.2918086441932246,,,,,,,,,,,,,,,,,,27,001,19,w,Psychologie,2023-01-17_12h05.43.029,00_bat_bachelor,2022.2.4,59.97141726525922,
,,,,,,,,,,,,1,0,1,0,129,0,129,0,,,,,,,129,,,0.2,7701.67213688622,Y,d,go,d,1,0.2677131407544948,,,,,,,,,,,,,,,,,,27,001,19,w,Psychologie,2023-01-17_12h05.43.029,00_bat_bachelor,2022.2.4,59.97141726525922,
,,,,,,,,,,,,1,0,1,0,130,0,130,0,,,,,,,130,,,0.2,7702.256132239476,X,l,go,l,1,0.35671430971706286,,,,,,,,,,,,,,,,,,27,001,19,w,Psychologie,2023-01-17_12h05.43.029,00_bat_bachelor,2022.2.4,59.97141726525922,
,,,,,,,,,,,,1,0,1,0,131,0,131,0,,,,,,,131,,,0.2,7702.923257734161,Y,d,go,d,1,0.31303723994642496,,,,,,,,,,,,,,,,,,27,001,19,w,Psychologie,2023-01-17_12h05.43.029,00_bat_bachelor,2022.2.4,59.97141726525922,
,,,,,,,,,,,,1,0,1,0,132,0,132,0,,,,,,,132,,,0.2,7703.5404661622015,X,l,go,l,1,0.39981731912121177,,,,,,,,,,,,,,,,,,27,001,19,w,Psychologie,2023-01-17_12h05.43.029,00_bat_bachelor,2022.2.4,59.97141726525922,
,,,,,,,,,,,,1,0,1,0,133,0,133,0,,,,,,,133,,,0.2,7704.240677701484,Y,d,go,d,1,0.5801406255923212,,,,,,,,,,,,,,,,,,27,001,19,w,Psychologie,2023-01-17_12h05.43.029,00_bat_bachelor,2022.2.4,59.97141726525922,
,,,,,,,,,,,,1,0,1,0,134,0,134,0,,,,,,,134,,,0.2,7705.124917272769,X,l,go,l,1,0.6240189073723741,,,,,,,,,,,,,,,,,,27,001,19,w,Psychologie,2023-01-17_12h05.43.029,00_bat_bachelor,2022.2.4,59.97141726525922,
,,,,,,,,,,,,1,0,1,0,135,0,135,0,,,,,,,135,,,0.2,7706.058972577448,Y,d,go,d,1,0.45635353412944824,,,,,,,,,,,,,,,,,,27,001,19,w,Psychologie,2023-01-17_12h05.43.029,00_bat_bachelor,2022.2.4,59.97141726525922,
,,,,,,,,,,,,1,0,1,0,136,0,136,0,,,,,,,136,,,0.2,7706.826282750873,X,l,go,l,1,0.3938018068438396,,,,,,,,,,,,,,,,,,27,001,19,w,Psychologie,2023-01-17_12h05.43.029,00_bat_bachelor,2022.2.4,59.97141726525922,
,,,,,,,,,,,,1,0,1,0,137,0,137,0,,,,,,,137,,,0.2,7707.526844350621,Y,d,go,d,1,0.38175623695133254,,,,,,,,,,,,,,,,,,27,001,19,w,Psychologie,2023-01-17_12h05.43.029,00_bat_bachelor,2022.2.4,59.97141726525922,
,,,,,,,,,,,,1,0,1,0,138,0,138,0,,,,,,,138,,,0.2,7708.210439655522,X,l,go,l,1,0.2900888874428347,,,,,,,,,,,,,,,,,,27,001,19,w,Psychologie,2023-01-17_12h05.43.029,00_bat_bachelor,2022.2.4,59.97141726525922,
,,,,,,,,,,,,1,0,1,0,139,0,139,0,,,,,,,139,,,0.2,7708.811112818832,X,None,nogo,None,1,,,,,,,,,,,,,,,,,,,27,001,19,w,Psychologie,2023-01-17_12h05.43.029,00_bat_bachelor,2022.2.4,59.97141726525922,
,,,,,,,,,,,,1,0,1,0,140,0,140,0,,,,,,,140,,,0.2,7709.811868212419,Y,d,go,d,1,0.3042731229797937,,,,,,,,,,,,,,,,,,27,001,19,w,Psychologie,2023-01-17_12h05.43.029,00_bat_bachelor,2022.2.4,59.97141726525922,
,,,,,,,,,,,,1,0,1,0,141,0,141,0,,,,,,,141,,,0.2,7710.428711549728,X,l,go,l,1,0.3911593838711269,,,,,,,,,,,,,,,,,,27,001,19,w,Psychologie,2023-01-17_12h05.43.029,00_bat_bachelor,2022.2.4,59.97141726525922,
,,,,,,,,,,,,1,0,1,0,142,0,142,0,,,,,,,142,,,0.2,7711.129523815995,Y,d,go,d,1,0.44243014691164717,,,,,,,,,,,,,,,,,,27,001,19,w,Psychologie,2023-01-17_12h05.43.029,00_bat_bachelor,2022.2.4,59.97141726525922,
,,,,,,,,,,,,1,0,1,0,143,0,143,0,,,,,,,143,,,0.2,7711.880204664136,X,l,go,l,1,0.3154600266716443,,,,,,,,,,,,,,,,,,27,001,19,w,Psychologie,2023-01-17_12h05.43.029,00_bat_bachelor,2022.2.4,59.97141726525922,
,,,,,,,,,,,,1,0,1,0,144,0,144,0,,,,,,,144,,,0.2,7712.497272001347,X,None,nogo,d,0,0.24404527340084314,,,,,,,,,,,,,,,,,,27,001,19,w,Psychologie,2023-01-17_12h05.43.029,00_bat_bachelor,2022.2.4,59.97141726525922,
,,,,,,,,,,,,1,0,1,0,145,0,145,0,,,,,,,145,,,0.2,7713.047718279879,Y,d,go,None,0,,,,,,,,,,,,,,,,,,,27,001,19,w,Psychologie,2023-01-17_12h05.43.029,00_bat_bachelor,2022.2.4,59.97141726525922,
,,,,,,,,,,,,1,0,1,0,146,0,146,0,,,,,,,146,,,0.2,7714.048393188685,X,l,go,l,1,0.611718307249248,,,,,,,,,,,,,,,,,,27,001,19,w,Psychologie,2023-01-17_12h05.43.029,00_bat_bachelor,2022.2.4,59.97141726525922,
,,,,,,,,,,,,1,0,1,0,147,0,147,0,,,,,,,147,,,0.2,7714.965672259044,Y,d,go,d,1,0.2541160563705489,,,,,,,,,,,,,,,,,,27,001,19,w,Psychologie,2023-01-17_12h05.43.029,00_bat_bachelor,2022.2.4,59.97141726525922,
,,,,,,,,,,,,1,0,1,0,148,0,148,0,,,,,,,148,,,0.2,7715.532999983989,X,l,go,l,1,0.3438556492328644,,,,,,,,,,,,,,,,,,27,001,19,w,Psychologie,2023-01-17_12h05.43.029,00_bat_bachelor,2022.2.4,59.97141726525922,
,,,,,,,,,,,,1,0,1,0,149,0,149,0,,,,,,,149,,,0.2,7716.183117971814,X,None,nogo,None,1,,,,,,,,,,,,,,,,,,,27,001,19,w,Psychologie,2023-01-17_12h05.43.029,00_bat_bachelor,2022.2.4,59.97141726525922,
,,,,,,,,,,,,1,0,1,0,150,0,150,0,,,,,,,150,,,0.2,7717.184187062201,Y,d,go,d,1,0.38776787038659677,,,,,,,,,,,,,,,,,,27,001,19,w,Psychologie,2023-01-17_12h05.43.029,00_bat_bachelor,2022.2.4,59.97141726525922,
,,,,,,,,,,,,1,0,1,0,151,0,151,0,,,,,,,151,,,0.2,7717.8847675709985,X,l,go,l,1,0.21531219640746713,,,,,,,,,,,,,,,,,,27,001,19,w,Psychologie,2023-01-17_12h05.43.029,00_bat_bachelor,2022.2.4,59.97141726525922,
,,,,,,,,,,,,1,0,1,0,152,0,152,0,,,,,,,152,,,0.2,7718.401648290106,X,None,nogo,None,1,,,,,,,,,,,,,,,,,,,27,001,19,w,Psychologie,2023-01-17_12h05.43.029,00_bat_bachelor,2022.2.4,59.97141726525922,
,,,,,,,,,,,,1,0,1,0,153,0,153,0,,,,,,,153,,,0.2,7719.402505016944,Y,d,go,d,1,0.24978248274419457,,,,,,,,,,,,,,,,,,27,001,19,w,Psychologie,2023-01-17_12h05.43.029,00_bat_bachelor,2022.2.4,59.97141726525922,
,,,,,,,,,,,,1,0,1,0,154,0,154,0,,,,,,,154,,,0.2,7719.952918325842,X,l,go,l,1,0.24336794042028487,,,,,,,,,,,,,,,,,,27,001,19,w,Psychologie,2023-01-17_12h05.43.029,00_bat_bachelor,2022.2.4,59.97141726525922,
,,,,,,,,,,,,1,0,1,0,155,0,155,0,,,,,,,155,,,0.2,7720.503300604469,Y,d,go,d,1,0.23673715576296672,,,,,,,,,,,,,,,,,,27,001,19,w,Psychologie,2023-01-17_12h05.43.029,00_bat_bachelor,2022.2.4,59.97141726525922,
,,,,,,,,,,,,1,0,1,0,156,0,156,0,,,,,,,156,,,0.2,7721.053739610303,X,l,go,l,1,0.24713521130615845,,,,,,,,,,,,,,,,,,27,001,19,w,Psychologie,2023-01-17_12h05.43.029,00_bat_bachelor,2022.2.4,59.97141726525922,
,,,,,,,,,,,,1,0,1,0,157,0,157,0,,,,,,,157,,,0.2,7721.604118979827,X,None,nogo,d,0,0.19271148007828742,,,,,,,,,,,,,,,,,,27,001,19,w,Psychologie,2023-01-17_12h05.43.029,00_bat_bachelor,2022.2.4,59.97141726525922,
,,,,,,,,,,,,1,0,1,0,158,0,158,0,,,,,,,158,,,0.2,7722.104524070513,Y,d,go,d,1,0.5712863268563524,,,,,,,,,,,,,,,,,,27,001,19,w,Psychologie,2023-01-17_12h05.43.029,00_bat_bachelor,2022.2.4,59.97141726525922,
,,,,,,,,,,,,1,0,1,0,159,0,159,0,,,,,,,159,,,0.2,7722.988692853949,X,l,go,l,1,0.28021495282882825,,,,,,,,,,,,,,,,,,27,001,19,w,Psychologie,2023-01-17_12h05.43.029,00_bat_bachelor,2022.2.4,59.97141726525922,
,,,,,,,,,,,,1,0,1,0,160,0,160,0,,,,,,,160,,,0.2,7723.572061783227,Y,d,go,d,1,0.22475413122447208,,,,,,,,,,,,,,,,,,27,001,19,w,Psychologie,2023-01-17_12h05.43.029,00_bat_bachelor,2022.2.4,59.97141726525922,
,,,,,,,,,,,,1,0,1,0,161,0,161,0,,,,,,,161,,,0.2,7724.1060833425145,X,l,go,l,1,0.29865033784881234,,,,,,,,,,,,,,,,,,27,001,19,w,Psychologie,2023-01-17_12h05.43.029,00_bat_bachelor,2022.2.4,59.97141726525922,
,,,,,,,,,,,,1,0,1,0,162,0,162,0,,,,,,,162,,,0.2,7724.706533960474,Y,d,go,d,1,0.43352687847800553,,,,,,,,,,,,,,,,,,27,001,19,w,Psychologie,2023-01-17_12h05.43.029,00_bat_bachelor,2022.2.4,59.97141726525922,
,,,,,,,,,,,,1,0,1,0,163,0,163,0,,,,,,,163,,,0.2,7725.440496756113,Y,None,nogo,l,0,0.27633034862810746,,,,,,,,,,,,,,,,,,27,001,19,w,Psychologie,2023-01-17_12h05.43.029,00_bat_bachelor,2022.2.4,59.97141726525922,
,,,,,,,,,,,,1,0,1,0,164,0,164,0,,,,,,,164,,,0.2,7726.024212351884,X,l,go,l,1,0.6204174545709975,,,,,,,,,,,,,,,,,,27,001,19,w,Psychologie,2023-01-17_12h05.43.029,00_bat_bachelor,2022.2.4,59.97141726525922,
,,,,,,,,,,,,1,0,1,0,165,0,165,0,,,,,,,165,,,0.2,7726.958372868656,Y,d,go,d,1,0.6146521240589209,,,,,,,,,,,,,,,,,,27,001,19,w,Psychologie,2023-01-17_12h05.43.029,00_bat_bachelor,2022.2.4,59.97141726525922,
,,,,,,,,,,,,1,0,1,0,166,0,166,0,,,,,,,166,,,0.2,7727.875837151136,X,l,go,l,1,0.6404630205943249,,,,,,,,,,,,,,,,,,27,001,19,w,Psychologie,2023-01-17_12h05.43.029,00_bat_bachelor,2022.2.4,59.97141726525922,
,,,,,,,,,,,,1,0,1,0,167,0,167,0,,,,,,,167,,,0.2,7728.826333175122,Y,d,go,d,1,0.3461053451173939,,,,,,,,,,,,,,,,,,27,001,19,w,Psychologie,2023-01-17_12h05.43.029,00_bat_bachelor,2022.2.4,59.97141726525922,
,,,,,,,,,,,,1,0,1,0,168,0,168,0,,,,,,,168,,,0.2,7729.476799768803,X,l,go,l,1,0.23918757878709584,,,,,,,,,,,,,,,,,,27,001,19,w,Psychologie,2023-01-17_12h05.43.029,00_bat_bachelor,2022.2.4,59.97141726525922,
,,,,,,,,,,,,1,0,1,0,169,0,169,0,,,,,,,169,,,0.2,7730.027196108014,Y,d,go,d,1,0.296944641682785,,,,,,,,,,,,,,,,,,27,001,19,w,Psychologie,2023-01-17_12h05.43.029,00_bat_bachelor,2022.2.4,59.97141726525922,
,,,,,,,,,,,,1,0,1,0,170,0,170,0,,,,,,,170,,,0.2,7730.62755121087,X,l,go,l,1,0.3997698039165698,,,,,,,,,,,,,,,,,,27,001,19,w,Psychologie,2023-01-17_12h05.43.029,00_bat_bachelor,2022.2.4,59.97141726525922,
,,,,,,,,,,,,1,0,1,0,171,0,171,0,,,,,,,171,,,0.2,7731.328060931875,X,None,nogo,None,1,,,,,,,,,,,,,,,,,,,27,001,19,w,Psychologie,2023-01-17_12h05.43.029,00_bat_bachelor,2022.2.4,59.97141726525922,
,,,,,,,,,,,,1,0,1,0,172,0,172,0,,,,,,,172,,,0.2,7732.328975840472,Y,d,go,d,1,0.34768207161687315,,,,,,,,,,,,,,,,,,27,001,19,w,Psychologie,2023-01-17_12h05.43.029,00_bat_bachelor,2022.2.4,59.97141726525922,
,,,,,,,,,,,,1,0,1,0,173,0,173,0,,,,,,,173,,,0.2,7732.979460858449,X,l,go,l,1,0.28864985780091956,,,,,,,,,,,,,,,,,,27,001,19,w,Psychologie,2023-01-17_12h05.43.029,00_bat_bachelor,2022.2.4,59.97141726525922,
,,,,,,,,,,,,1,0,1,0,174,0,174,0,,,,,,,174,,,0.2,7733.579958506685,Y,d,go,d,1,0.28073907375801355,,,,,,,,,,,,,,,,,,27,001,19,w,Psychologie,2023-01-17_12h05.43.029,00_bat_bachelor,2022.2.4,59.97141726525922,
,,,,,,,,,,,,1,0,1,0,175,0,175,0,,,,,,,175,,,0.2,7734.163846223615,X,l,go,l,1,0.09641286014812067,,,,,,,,,,,,,,,,,,27,001,19,w,Psychologie,2023-01-17_12h05.43.029,00_bat_bachelor,2022.2.4,59.97141726525922,
,,,,,,,,,,,,1,0,1,0,176,0,176,0,,,,,,,176,,,0.2,7734.564053059847,Y,d,go,d,1,0.35197734227404,,,,,,,,,,,,,,,,,,27,001,19,w,Psychologie,2023-01-17_12h05.43.029,00_bat_bachelor,2022.2.4,59.97141726525922,
,,,,,,,,,,,,1,0,1,0,177,0,177,0,,,,,,,177,,,0.2,7735.230959888024,Y,None,nogo,None,1,,7736.03156119684,,,,,,,,,,,,,,,,,27,001,19,w,Psychologie,2023-01-17_12h05.43.029,00_bat_bachelor,2022.2.4,59.97141726525922,
,,,,,,,,,,,,1,0,1,0,178,0,178,0,,,,,,,178,,,0.2,7736.231964493578,X,l,go,l,1,0.2681257465737872,,,,,,,,,,,,,,,,,,27,001,19,w,Psychologie,2023-01-17_12h05.43.029,00_bat_bachelor,2022.2.4,59.97141726525922,
,,,,,,,,,,,,1,0,1,0,179,0,179,0,,,,,,,179,,,0.2,7736.815729543916,Y,d,go,d,1,0.18058057688176632,,,,,,,,,,,,,,,,,,27,001,19,w,Psychologie,2023-01-17_12h05.43.029,00_bat_bachelor,2022.2.4,59.97141726525922,
,,,,,,,,,,,,1,0,1,0,180,0,180,0,,,,,,,180,,,0.2,7737.299412703316,X,l,go,l,1,0.24087048706132919,,,,,,,,,,,,,,,,,,27,001,19,w,Psychologie,2023-01-17_12h05.43.029,00_bat_bachelor,2022.2.4,59.97141726525922,
,,,,,,,,,,,,1,0,1,0,181,0,181,0,,,,,,,181,,,0.2,7737.849601527443,Y,d,go,d,1,0.13719441613648087,,,,,,,,,,,,,,,,,,27,001,19,w,Psychologie,2023-01-17_12h05.43.029,00_bat_bachelor,2022.2.4,59.97141726525922,
,,,,,,,,,,,,1,0,1,0,182,0,182,0,,,,,,,182,,,0.2,7738.300189430243,X,l,go,l,1,0.32853395969141275,,,,,,,,,,,,,,,,,,27,001,19,w,Psychologie,2023-01-17_12h05.43.029,00_bat_bachelor,2022.2.4,59.97141726525922,
,,,,,,,,,,,,1,0,1,0,183,0,183,0,,,,,,,183,,,0.2,7738.934055304679,X,None,nogo,d,0,0.2851041625835933,,,,,,,,,,,,,,,,,,27,001,19,w,Psychologie,2023-01-17_12h05.43.029,00_bat_bachelor,2022.2.4,59.97141726525922,
,,,,,,,,,,,,1,0,1,0,184,0,184,0,,,,,,,184,,,0.2,7739.5344773166,Y,d,go,None,0,,,,,,,,,,,,,,,,,,,27,001,19,w,Psychologie,2023-01-17_12h05.43.029,00_bat_bachelor,2022.2.4,59.97141726525922,
,,,,,,,,,,,,1,0,1,0,185,0,185,0,,,,,,,185,,,0.2,7740.5350062860525,X,l,go,l,1,0.28421204176265746,,,,,,,,,,,,,,,,,,27,001,19,w,Psychologie,2023-01-17_12h05.43.029,00_bat_bachelor,2022.2.4,59.97141726525922,
,,,,,,,,,,,,1,0,1,0,186,0,186,0,,,,,,,186,,,0.2,7741.135585873679,X,None,nogo,None,1,,,,,,,,,,,,,,,,,,,27,001,19,w,Psychologie,2023-01-17_12h05.43.029,00_bat_bachelor,2022.2.4,59.97141726525922,
,,,,,,,,,,,,1,0,1,0,187,0,187,0,,,,,,,187,,,0.2,7742.1365002974635,X,None,nogo,l,0,0.3640500637120567,,,,,,,,,,,,,,,,,,27,001,19,w,Psychologie,2023-01-17_12h05.43.029,00_bat_bachelor,2022.2.4,59.97141726525922,
,,,,,,,,,,,,1,0,1,0,188,0,188,0,,,,,,,188,,,0.2,7742.803699004289,Y,d,go,d,1,0.19298978295410052,,,,,,,,,,,,,,,,,,27,001,19,w,Psychologie,2023-01-17_12h05.43.029,00_bat_bachelor,2022.2.4,59.97141726525922,
,,,,,,,,,,,,1,0,1,0,189,0,189,0,,,,,,,189,,,0.2,7743.303775367851,X,l,go,None,0,,,,,,,,,,,,,,,,,,,27,001,19,w,Psychologie,2023-01-17_12h05.43.029,00_bat_bachelor,2022.2.4,59.97141726525922,
,,,,,,,,,,,,1,0,1,0,190,0,190,0,,,,,,,190,,,0.2,7744.3047790037235,Y,d,go,d,1,0.2282358265365474,,,,,,,,,,,,,,,,,,27,001,19,w,Psychologie,2023-01-17_12h05.43.029,00_bat_bachelor,2022.2.4,59.97141726525922,
,,,,,,,,,,,,1,0,1,0,191,0,191,0,,,,,,,191,,,0.2,7744.8386759569985,Y,None,nogo,l,0,0.510719568352215,,,,,,,,,,,,,,,,,,27,001,19,w,Psychologie,2023-01-17_12h05.43.029,00_bat_bachelor,2022.2.4,59.97141726525922,
,,,,,,,,,,,,1,0,1,0,192,0,192,0,,,,,,,192,,,0.2,7745.655916772899,X,l,go,l,1,0.3962527147377841,,,,,,,,,,,,,,,,,,27,001,19,w,Psychologie,2023-01-17_12h05.43.029,00_bat_bachelor,2022.2.4,59.97141726525922,
,,,,,,,,,,,,1,0,1,0,193,0,193,0,,,,,,,193,,,0.2,7746.356416312046,Y,d,go,d,1,0.23961424524895847,,,,,,,,,,,,,,,,,,27,001,19,w,Psychologie,2023-01-17_12h05.43.029,00_bat_bachelor,2022.2.4,59.97141726525922,
,,,,,,,,,,,,1,0,1,0,194,0,194,0,,,,,,,194,,,0.2,7746.906812166388,X,l,go,l,1,0.2653601721394807,,,,,,,,,,,,,,,,,,27,001,19,w,Psychologie,2023-01-17_12h05.43.029,00_bat_bachelor,2022.2.4,59.97141726525922,
,,,,,,,,,,,,1,0,1,0,195,0,195,0,,,,,,,195,,,0.2,7747.473996861081,X,None,nogo,d,0,0.29100670519983396,,,,,,,,,,,,,,,,,,27,001,19,w,Psychologie,2023-01-17_12h05.43.029,00_bat_bachelor,2022.2.4,59.97141726525922,
,,,,,,,,,,,,1,0,1,0,196,0,196,0,,,,,,,196,,,0.2,7748.074389782094,Y,d,go,d,1,0.6658322204020806,,,,,,,,,,,,,,,,,,27,001,19,w,Psychologie,2023-01-17_12h05.43.029,00_bat_bachelor,2022.2.4,59.97141726525922,
,,,,,,,,,,,,1,0,1,0,197,0,197,0,,,,,,,197,,,0.2,7749.041707616125,X,l,go,l,1,0.4022929542697966,,,,,,,,,,,,,,,,,,27,001,19,w,Psychologie,2023-01-17_12h05.43.029,00_bat_bachelor,2022.2.4,59.97141726525922,
,,,,,,,,,,,,1,0,1,0,198,0,198,0,,,,,,,198,,,0.2,7749.758950419899,X,None,nogo,d,0,0.3252369916299358,,,,,,,,,,,,,,,,,,27,001,19,w,Psychologie,2023-01-17_12h05.43.029,00_bat_bachelor,2022.2.4,59.97141726525922,
,,,,,,,,,,,,1,0,1,0,199,0,199,0,,,,,,,199,,,0.2,7750.392749385326,Y,d,go,d,1,0.5235108349006623,,,,,,,,,,,,,,,,,,27,001,19,w,Psychologie,2023-01-17_12h05.43.029,00_bat_bachelor,2022.2.4,59.97141726525922,
,,,,,,,,,,,,1,0,1,0,200,0,200,0,,,,,,,200,,,0.2,7751.226835768786,X,l,go,l,1,0.37830363254761323,,,,,,,,,,,,,,,,,,27,001,19,w,Psychologie,2023-01-17_12h05.43.029,00_bat_bachelor,2022.2.4,59.97141726525922,
,,,,,,,,,,,,1,0,1,0,201,0,201,0,,,,,,,201,,,0.2,7751.910543558537,Y,d,go,d,1,0.5262405304820277,,,,,,,,,,,,,,,,,,27,001,19,w,Psychologie,2023-01-17_12h05.43.029,00_bat_bachelor,2022.2.4,59.97141726525922,
