loop_instruction.thisRepN,loop_instruction.thisTrialN,loop_instruction.thisN,loop_instruction.thisIndex,loop_rsi_practice.thisRepN,loop_rsi_practice.thisTrialN,loop_rsi_practice.thisN,loop_rsi_practice.thisIndex,loop_practice.thisRepN,loop_practice.thisTrialN,loop_practice.thisN,loop_practice.thisIndex,loop_exp.thisRepN,loop_exp.thisTrialN,loop_exp.thisN,loop_exp.thisIndex,loop_trials.thisRepN,loop_trials.thisTrialN,loop_trials.thisN,loop_trials.thisIndex,map_condition,map_x_key,map_y_key,key_resp_welcome.started,key_resp_welcome.keys,key_resp_welcome.rt,index,text_empty_rsi_practice.started,text_empty_rsi_practice.stopped,rsi,stimulus.started,stimulus.stopped,stimulus,correct,trial_type,key_resp_trial.keys,key_resp_trial.corr,key_resp_trial.rt,key_resp_instruction_rsi.started,key_resp_instruction_rsi.keys,key_resp_instruction_rsi.rt,key_resp_instruction_rsi.stopped,key_resp_instruction_final.started,key_resp_instruction_final.keys,key_resp_instruction_final.rt,key_resp_break.started,key_resp_break.keys,key_resp_break.rt,key_resp_break.stopped,key_resp_end_screen.started,image_end_screen.started,key_resp_end_screen.keys,key_resp_end_screen.rt,participant,session,Alter,Geschlecht (w/m/d/andere),Studiengang,date,expName,psychopyVersion,frameRate,
,,,,0,0,0,0,0,0,0,0,,,,,,,,,1,l,d,157.04710640141275,j,21.055258717067773,0,178.12956890687929,179.14246587033267,1,179.14246587033267,179.94282427015423,X,l,go,None,0,,,,,,,,,,,,,,,,,29,001,27,m,100% B.Sc. Psychologie,2023-01-17_12h07.05.522,00_bat_bachelor,2022.2.4,59.87635719872794,
,,,,0,0,0,0,1,0,1,0,,,,,,,,,,,,,,,1,180.54345622136316,181.54410737256694,1,181.54410737256694,182.34468104501138,Y,d,go,None,0,,,,,,,,,,,,,,,,,29,001,27,m,100% B.Sc. Psychologie,2023-01-17_12h07.05.522,00_bat_bachelor,2022.2.4,59.87635719872794,
,,,,0,0,0,0,2,0,2,0,,,,,,,,,,,,,,,2,182.94514717812126,183.94559323850262,1,183.94559323850262,,X,l,go,l,1,0.5060318318573991,,,,,,,,,,,,,,,,29,001,27,m,100% B.Sc. Psychologie,2023-01-17_12h07.05.522,00_bat_bachelor,2022.2.4,59.87635719872794,
,,,,0,0,0,0,3,0,3,0,,,,,,,,,,,,,,,3,185.16351652677986,186.1639829508058,1,186.1639829508058,,Y,d,go,d,1,0.6235546839598101,,,,,,,,,,,,,,,,29,001,27,m,100% B.Sc. Psychologie,2023-01-17_12h07.05.522,00_bat_bachelor,2022.2.4,59.87635719872794,
,,,,0,0,0,0,4,0,4,0,,,,,,,,,,,,,,,4,187.49835466747754,188.49909454589942,1,188.49909454589942,,Y,None,nogo,None,1,,,,,,,,,,,,,,,,,29,001,27,m,100% B.Sc. Psychologie,2023-01-17_12h07.05.522,00_bat_bachelor,2022.2.4,59.87635719872794,
,,,,0,0,0,0,5,0,5,0,,,,,,,,,,,,,,,5,189.90054113914084,190.9012892599858,1,190.9012892599858,,X,l,go,l,1,0.5427649049524916,,,,,,,,,,,,,,,,29,001,27,m,100% B.Sc. Psychologie,2023-01-17_12h07.05.522,00_bat_bachelor,2022.2.4,59.87635719872794,
,,,,0,0,0,0,6,0,6,0,,,,,,,,,,,,,,,6,192.15212792625243,193.15264525932434,1,193.15264525932434,,Y,d,go,None,0,,,,,,,,,,,,,,,,,29,001,27,m,100% B.Sc. Psychologie,2023-01-17_12h07.05.522,00_bat_bachelor,2022.2.4,59.87635719872794,
,,,,0,0,0,0,7,0,7,0,,,,,,,,,,,,,,,7,194.5539740344393,195.5548259128118,1,195.5548259128118,,X,l,go,l,1,0.5130378890607972,,,,,,,,,,,,,,,,29,001,27,m,100% B.Sc. Psychologie,2023-01-17_12h07.05.522,00_bat_bachelor,2022.2.4,59.87635719872794,
,,,,0,0,0,0,8,0,8,0,,,,,,,,,,,,,,,8,196.77239817097143,197.77311138274672,1,197.77311138274672,,X,None,nogo,None,1,,,,,,,,,,,,,,,,,29,001,27,m,100% B.Sc. Psychologie,2023-01-17_12h07.05.522,00_bat_bachelor,2022.2.4,59.87635719872794,
,,,,0,0,0,0,9,0,9,0,,,,,,,,,,,,,,,9,199.17415506708494,200.17489349097013,1,200.17489349097013,,Y,d,go,d,1,0.42091235796397086,,,,,,,,,,,,,,,,29,001,27,m,100% B.Sc. Psychologie,2023-01-17_12h07.05.522,00_bat_bachelor,2022.2.4,59.87635719872794,
,,,,0,0,0,0,10,0,10,0,,,,,,,,,,,,,,,10,201.30910724407295,202.30984518311743,1,202.30984518311743,,X,l,go,None,0,,,,,,,,,,,,,,,,,29,001,27,m,100% B.Sc. Psychologie,2023-01-17_12h07.05.522,00_bat_bachelor,2022.2.4,59.87635719872794,
,,,,0,0,0,0,11,0,11,0,,,,,,,,,,,,,,,11,203.71105662494665,204.71201662448584,1,204.71201662448584,,Y,d,go,d,1,0.45941852110263426,,,,,,,,,,,,,,,,29,001,27,m,100% B.Sc. Psychologie,2023-01-17_12h07.05.522,00_bat_bachelor,2022.2.4,59.87635719872794,
,,,,0,0,0,0,12,0,12,0,,,,,,,,,,,,,,,12,205.87961266443017,206.88042284586118,1,206.88042284586118,,X,l,go,l,1,0.5476085389673244,,,,,,,,,,,,,,,,29,001,27,m,100% B.Sc. Psychologie,2023-01-17_12h07.05.522,00_bat_bachelor,2022.2.4,59.87635719872794,
,,,,0,0,0,0,13,0,13,0,,,,,,,,,,,,,,,13,208.13129836058943,209.13209351172554,1,209.13209351172554,,Y,d,go,d,1,0.36014584197255317,,,,,,,,,,,,,,,,29,001,27,m,100% B.Sc. Psychologie,2023-01-17_12h07.05.522,00_bat_bachelor,2022.2.4,59.87635719872794,
,,,,0,0,0,0,14,0,14,0,,,,,,,,,,,,,,,14,210.19950584266917,211.20015359992976,1,211.20015359992976,,X,l,go,d,0,0.4510384039749624,,,,,,,,,,,,,,,,29,001,27,m,100% B.Sc. Psychologie,2023-01-17_12h07.05.522,00_bat_bachelor,2022.2.4,59.87635719872794,
,,,,1,0,1,0,0,0,0,0,,,,,,,,,,,,,,,0,228.07973862801737,228.2800148945389,0.2,228.2800148945389,229.07999705213297,X,l,go,None,0,,212.39180102216778,j,15.663481452487758,,,,,,,,,,,,,29,001,27,m,100% B.Sc. Psychologie,2023-01-17_12h07.05.522,00_bat_bachelor,2022.2.4,59.87635719872794,
,,,,1,0,1,0,1,0,1,0,,,,,,,,,,,,,,,1,229.68073809419002,229.8806769063376,0.2,229.8806769063376,,Y,d,go,d,1,0.3298787051317049,,,,,,,,,,,,,,,,29,001,27,m,100% B.Sc. Psychologie,2023-01-17_12h07.05.522,00_bat_bachelor,2022.2.4,59.87635719872794,
,,,,1,0,1,0,2,0,2,0,,,,,,,,,,,,,,,2,230.91502501090872,231.11515533810598,0.2,231.11515533810598,,X,l,go,l,1,0.200497919387999,,,,,,,,,,,,,,,,29,001,27,m,100% B.Sc. Psychologie,2023-01-17_12h07.05.522,00_bat_bachelor,2022.2.4,59.87635719872794,
,,,,1,0,1,0,3,0,3,0,,,,,,,,,,,,,,,3,232.0326142872218,232.23270000838966,0.2,232.23270000838966,,Y,d,go,d,1,0.0262875796033768,,,,,,,,,,,,,,,,29,001,27,m,100% B.Sc. Psychologie,2023-01-17_12h07.05.522,00_bat_bachelor,2022.2.4,59.87635719872794,
,,,,1,0,1,0,4,0,4,0,,,,,,,,,,,,,,,4,232.96675056157983,233.16640379810997,0.2,233.16640379810997,,Y,None,nogo,d,0,0.40486485058499966,,,,,,,,,,,,,,,,29,001,27,m,100% B.Sc. Psychologie,2023-01-17_12h07.05.522,00_bat_bachelor,2022.2.4,59.87635719872794,
,,,,1,0,1,0,5,0,5,0,,,,,,,,,,,,,,,5,234.6842915470188,234.88470890438475,0.2,234.88470890438475,,Y,None,nogo,l,0,0.4783882088813698,,,,,,,,,,,,,,,,29,001,27,m,100% B.Sc. Psychologie,2023-01-17_12h07.05.522,00_bat_bachelor,2022.2.4,59.87635719872794,
,,,,1,0,1,0,6,0,6,0,,,,,,,,,,,,,,,6,236.46911201498006,236.6692074331222,0.2,236.6692074331222,237.4699721357756,X,l,go,None,0,,,,,,,,,,,,,,,,,29,001,27,m,100% B.Sc. Psychologie,2023-01-17_12h07.05.522,00_bat_bachelor,2022.2.4,59.87635719872794,
,,,,1,0,1,0,7,0,7,0,,,,,,,,,,,,,,,7,238.07046687492402,238.27055938397825,0.2,238.27055938397825,,Y,d,go,d,1,0.38905346432875376,,,,,,,,,,,,,,,,29,001,27,m,100% B.Sc. Psychologie,2023-01-17_12h07.05.522,00_bat_bachelor,2022.2.4,59.87635719872794,
,,,,1,0,1,0,8,0,8,0,,,,,,,,,,,,,,,8,239.3715261229081,239.5717131773563,0.2,239.5717131773563,,Y,None,nogo,l,0,0.28728866518940777,,,,,,,,,,,,,,,,29,001,27,m,100% B.Sc. Psychologie,2023-01-17_12h07.05.522,00_bat_bachelor,2022.2.4,59.87635719872794,
,,,,1,0,1,0,9,0,9,0,,,,,,,,,,,,,,,9,240.97274425564683,241.17273688595742,0.2,241.17273688595742,,X,l,go,l,1,0.5267411551467376,,,,,,,,,,,,,,,,29,001,27,m,100% B.Sc. Psychologie,2023-01-17_12h07.05.522,00_bat_bachelor,2022.2.4,59.87635719872794,
,,,,1,0,1,0,10,0,10,0,,,,,,,,,,,,,,,10,242.40716246925876,242.606979584496,0.2,242.606979584496,,Y,d,go,d,1,0.61169578062254,,,,,,,,,,,,,,,,29,001,27,m,100% B.Sc. Psychologie,2023-01-17_12h07.05.522,00_bat_bachelor,2022.2.4,59.87635719872794,
,,,,1,0,1,0,11,0,11,0,,,,,,,,,,,,,,,11,243.92490621823526,244.12490369702573,0.2,244.12490369702573,,X,l,go,l,1,0.48612784150463995,,,,,,,,,,,,,,,,29,001,27,m,100% B.Sc. Psychologie,2023-01-17_12h07.05.522,00_bat_bachelor,2022.2.4,59.87635719872794,
,,,,1,0,1,0,12,0,12,0,,,,,,,,,,,,,,,12,245.32571814511903,245.52616168429086,0.2,245.52616168429086,,X,None,nogo,d,0,0.23748068933491595,,,,,,,,,,,,,,,,29,001,27,m,100% B.Sc. Psychologie,2023-01-17_12h07.05.522,00_bat_bachelor,2022.2.4,59.87635719872794,
,,,,1,0,1,0,13,0,13,0,,,,,,,,,,,,,,,13,246.87727763527073,247.07716505350254,0.2,247.07716505350254,,Y,d,go,l,0,0.558075442982954,,,,,,,,,,,,,,,,29,001,27,m,100% B.Sc. Psychologie,2023-01-17_12h07.05.522,00_bat_bachelor,2022.2.4,59.87635719872794,
,,,,1,0,1,0,14,0,14,0,,,,,,,,,,,,,,,14,248.3450378933194,248.5451391296374,0.2,248.5451391296374,,X,l,go,l,1,0.41759454138809815,,,,,,,,,,,,,,,,29,001,27,m,100% B.Sc. Psychologie,2023-01-17_12h07.05.522,00_bat_bachelor,2022.2.4,59.87635719872794,
,,,,,,,,,,,,,,,,,,,,,,,,,,,,,,,,,,,,,,249.7096622013778,None,,249.7096622013778,249.7096622013778,space,4.456683492142474,,,,,,,,,29,001,27,m,100% B.Sc. Psychologie,2023-01-17_12h07.05.522,00_bat_bachelor,2022.2.4,59.87635719872794,
,,,,,,,,,,,,0,0,0,0,0,0,0,0,,,,,,,0,,,1,255.20018511507078,,X,l,go,l,1,0.4358204719464993,,,,,,,,,,,,,,,,29,001,27,m,100% B.Sc. Psychologie,2023-01-17_12h07.05.522,00_bat_bachelor,2022.2.4,59.87635719872794,
,,,,,,,,,,,,0,0,0,0,1,0,1,0,,,,,,,1,,,1,256.7513979387295,,Y,d,go,d,1,0.37251383598777466,,,,,,,,,,,,,,,,29,001,27,m,100% B.Sc. Psychologie,2023-01-17_12h07.05.522,00_bat_bachelor,2022.2.4,59.87635719872794,
,,,,,,,,,,,,0,0,0,0,2,0,2,0,,,,,,,2,,,1,258.23586800685734,,X,l,go,l,1,0.23126493477320764,,,,,,,,,,,,,,,,29,001,27,m,100% B.Sc. Psychologie,2023-01-17_12h07.05.522,00_bat_bachelor,2022.2.4,59.87635719872794,
,,,,,,,,,,,,0,0,0,0,3,0,3,0,,,,,,,3,,,1,259.5699056630838,,Y,d,go,d,1,0.1938065286813071,,,,,,,,,,,,,,,,29,001,27,m,100% B.Sc. Psychologie,2023-01-17_12h07.05.522,00_bat_bachelor,2022.2.4,59.87635719872794,
,,,,,,,,,,,,0,0,0,0,4,0,4,0,,,,,,,4,,,1,260.8708766686759,,X,l,go,d,0,0.5398572699923534,,,,,,,,,,,,,,,,29,001,27,m,100% B.Sc. Psychologie,2023-01-17_12h07.05.522,00_bat_bachelor,2022.2.4,59.87635719872794,
,,,,,,,,,,,,0,0,0,0,5,0,5,0,,,,,,,5,,,1,262.5225156254601,,X,None,nogo,l,0,0.44099574217398185,,,,,,,,,,,,,,,,29,001,27,m,100% B.Sc. Psychologie,2023-01-17_12h07.05.522,00_bat_bachelor,2022.2.4,59.87635719872794,
,,,,,,,,,,,,0,0,0,0,6,0,6,0,,,,,,,6,,,1,264.0736644491408,,Y,d,go,d,1,0.297903932761983,,,,,,,,,,,,,,,,29,001,27,m,100% B.Sc. Psychologie,2023-01-17_12h07.05.522,00_bat_bachelor,2022.2.4,59.87635719872794,
,,,,,,,,,,,,0,0,0,0,7,0,7,0,,,,,,,7,,,1,265.47468873954494,,X,l,go,l,1,0.4805545108683873,,,,,,,,,,,,,,,,29,001,27,m,100% B.Sc. Psychologie,2023-01-17_12h07.05.522,00_bat_bachelor,2022.2.4,59.87635719872794,
,,,,,,,,,,,,0,0,0,0,8,0,8,0,,,,,,,8,,,1,267.0591912440286,,Y,d,go,d,1,0.3363271868583979,,,,,,,,,,,,,,,,29,001,27,m,100% B.Sc. Psychologie,2023-01-17_12h07.05.522,00_bat_bachelor,2022.2.4,59.87635719872794,
,,,,,,,,,,,,0,0,0,0,9,0,9,0,,,,,,,9,,,1,268.5103929646575,,Y,None,nogo,None,1,,,,,,,,,,,,,,,,,29,001,27,m,100% B.Sc. Psychologie,2023-01-17_12h07.05.522,00_bat_bachelor,2022.2.4,59.87635719872794,
,,,,,,,,,,,,0,0,0,0,10,0,10,0,,,,,,,10,,,1,270.3116551216226,,X,l,go,l,1,0.3476837874040939,,,,,,,,,,,,,,,,29,001,27,m,100% B.Sc. Psychologie,2023-01-17_12h07.05.522,00_bat_bachelor,2022.2.4,59.87635719872794,
,,,,,,,,,,,,0,0,0,0,11,0,11,0,,,,,,,11,,,1,271.76288641800056,,Y,d,go,d,1,0.25620795297436416,,,,,,,,,,,,,,,,29,001,27,m,100% B.Sc. Psychologie,2023-01-17_12h07.05.522,00_bat_bachelor,2022.2.4,59.87635719872794,
,,,,,,,,,,,,0,0,0,0,12,0,12,0,,,,,,,12,,,1,273.1302302398981,,Y,None,nogo,d,0,0.48887402199034113,,,,,,,,,,,,,,,,29,001,27,m,100% B.Sc. Psychologie,2023-01-17_12h07.05.522,00_bat_bachelor,2022.2.4,59.87635719872794,
,,,,,,,,,,,,0,0,0,0,13,0,13,0,,,,,,,13,,,1,274.7481547887728,275.54908094590064,X,l,go,None,0,,,,,,,,,,,,,,,,,29,001,27,m,100% B.Sc. Psychologie,2023-01-17_12h07.05.522,00_bat_bachelor,2022.2.4,59.87635719872794,
,,,,,,,,,,,,0,0,0,0,14,0,14,0,,,,,,,14,,,1,276.54949015783495,,Y,d,go,d,1,0.5256618829298532,,,,,,,,,,,,,,,,29,001,27,m,100% B.Sc. Psychologie,2023-01-17_12h07.05.522,00_bat_bachelor,2022.2.4,59.87635719872794,
,,,,,,,,,,,,0,0,0,0,15,0,15,0,,,,,,,15,,,1,278.1844348196755,,Y,None,nogo,None,1,,,,,,,,,,,,,,,,,29,001,27,m,100% B.Sc. Psychologie,2023-01-17_12h07.05.522,00_bat_bachelor,2022.2.4,59.87635719872794,
,,,,,,,,,,,,0,0,0,0,16,0,16,0,,,,,,,16,,,1,279.9857338251022,,X,l,go,l,1,0.4497065258328803,,,,,,,,,,,,,,,,29,001,27,m,100% B.Sc. Psychologie,2023-01-17_12h07.05.522,00_bat_bachelor,2022.2.4,59.87635719872794,
,,,,,,,,,,,,0,0,0,0,17,0,17,0,,,,,,,17,,,1,281.53658301256655,,Y,d,go,d,1,0.6426043716928689,,,,,,,,,,,,,,,,29,001,27,m,100% B.Sc. Psychologie,2023-01-17_12h07.05.522,00_bat_bachelor,2022.2.4,59.87635719872794,
,,,,,,,,,,,,0,0,0,0,18,0,18,0,,,,,,,18,,,1,283.2885302843497,,X,l,go,l,1,0.4422907718399074,,,,,,,,,,,,,,,,29,001,27,m,100% B.Sc. Psychologie,2023-01-17_12h07.05.522,00_bat_bachelor,2022.2.4,59.87635719872794,
,,,,,,,,,,,,0,0,0,0,19,0,19,0,,,,,,,19,,,1,284.83917050222226,285.64001423514856,X,None,nogo,None,1,,,,,,,,,,,,,,,,,29,001,27,m,100% B.Sc. Psychologie,2023-01-17_12h07.05.522,00_bat_bachelor,2022.2.4,59.87635719872794,
,,,,,,,,,,,,0,0,0,0,20,0,20,0,,,,,,,20,,,1,286.64054514397867,,Y,d,go,l,0,0.5148395851574605,,,,,,,,,,,,,,,,29,001,27,m,100% B.Sc. Psychologie,2023-01-17_12h07.05.522,00_bat_bachelor,2022.2.4,59.87635719872794,
,,,,,,,,,,,,0,0,0,0,21,0,21,0,,,,,,,21,,,1,288.2584425413661,,X,l,go,l,1,0.46449148835381493,,,,,,,,,,,,,,,,29,001,27,m,100% B.Sc. Psychologie,2023-01-17_12h07.05.522,00_bat_bachelor,2022.2.4,59.87635719872794,
,,,,,,,,,,,,0,0,0,0,22,0,22,0,,,,,,,22,,,1,289.82622214486764,,X,None,nogo,None,1,,,,,,,,,,,,,,,,,29,001,27,m,100% B.Sc. Psychologie,2023-01-17_12h07.05.522,00_bat_bachelor,2022.2.4,59.87635719872794,
,,,,,,,,,,,,0,0,0,0,23,0,23,0,,,,,,,23,,,1,291.62781836227805,,Y,d,go,d,1,0.5035944997071056,,,,,,,,,,,,,,,,29,001,27,m,100% B.Sc. Psychologie,2023-01-17_12h07.05.522,00_bat_bachelor,2022.2.4,59.87635719872794,
,,,,,,,,,,,,0,0,0,0,24,0,24,0,,,,,,,24,,,1,293.2458384262718,,X,l,go,l,1,0.32573810109170154,,,,,,,,,,,,,,,,29,001,27,m,100% B.Sc. Psychologie,2023-01-17_12h07.05.522,00_bat_bachelor,2022.2.4,59.87635719872794,
,,,,,,,,,,,,0,0,0,0,25,0,25,0,,,,,,,25,,,1,294.6802425792848,,Y,d,go,d,1,0.5392259975633351,,,,,,,,,,,,,,,,29,001,27,m,100% B.Sc. Psychologie,2023-01-17_12h07.05.522,00_bat_bachelor,2022.2.4,59.87635719872794,
,,,,,,,,,,,,0,0,0,0,26,0,26,0,,,,,,,26,,,1,296.3312560818158,,Y,None,nogo,l,0,0.4086161214945605,,,,,,,,,,,,,,,,29,001,27,m,100% B.Sc. Psychologie,2023-01-17_12h07.05.522,00_bat_bachelor,2022.2.4,59.87635719872794,
,,,,,,,,,,,,0,0,0,0,27,0,27,0,,,,,,,27,,,1,297.84906964894617,,X,l,go,None,0,,,,,,,,,,,,,,,,,29,001,27,m,100% B.Sc. Psychologie,2023-01-17_12h07.05.522,00_bat_bachelor,2022.2.4,59.87635719872794,
,,,,,,,,,,,,0,0,0,0,28,0,28,0,,,,,,,28,,,1,299.65071095724124,,Y,d,go,d,1,0.4804895412089536,,,,,,,,,,,,,,,,29,001,27,m,100% B.Sc. Psychologie,2023-01-17_12h07.05.522,00_bat_bachelor,2022.2.4,59.87635719872794,
,,,,,,,,,,,,0,0,0,0,29,0,29,0,,,,,,,29,,,1,301.2352924919833,,X,l,go,l,1,0.6244206229312113,,,,,,,,,,,,,,,,29,001,27,m,100% B.Sc. Psychologie,2023-01-17_12h07.05.522,00_bat_bachelor,2022.2.4,59.87635719872794,
,,,,,,,,,,,,0,0,0,0,30,0,30,0,,,,,,,30,,,1,302.96999468121794,,Y,d,go,d,1,0.3617424472613493,,,,,,,,,,,,,,,,29,001,27,m,100% B.Sc. Psychologie,2023-01-17_12h07.05.522,00_bat_bachelor,2022.2.4,59.87635719872794,
,,,,,,,,,,,,0,0,0,0,31,0,31,0,,,,,,,31,,,1,304.4374300909549,,X,l,go,l,1,0.4451082250307081,,,,,,,,,,,,,,,,29,001,27,m,100% B.Sc. Psychologie,2023-01-17_12h07.05.522,00_bat_bachelor,2022.2.4,59.87635719872794,
,,,,,,,,,,,,0,0,0,0,32,0,32,0,,,,,,,32,,,1,305.98874085395073,,Y,d,go,d,1,0.3509114222106291,,,,,,,,,,,,,,,,29,001,27,m,100% B.Sc. Psychologie,2023-01-17_12h07.05.522,00_bat_bachelor,2022.2.4,59.87635719872794,
,,,,,,,,,,,,0,0,0,0,33,0,33,0,,,,,,,33,,,1,307.45675371793914,,X,l,go,d,0,0.43512422985804733,,,,,,,,,,,,,,,,29,001,27,m,100% B.Sc. Psychologie,2023-01-17_12h07.05.522,00_bat_bachelor,2022.2.4,59.87635719872794,
,,,,,,,,,,,,0,0,0,0,34,0,34,0,,,,,,,34,,,1,309.0075616933027,,Y,d,go,l,0,0.5629447739484021,,,,,,,,,,,,,,,,29,001,27,m,100% B.Sc. Psychologie,2023-01-17_12h07.05.522,00_bat_bachelor,2022.2.4,59.87635719872794,
,,,,,,,,,,,,0,0,0,0,35,0,35,0,,,,,,,35,,,1,310.67583579354687,,X,l,go,d,0,0.6239697140554199,,,,,,,,,,,,,,,,29,001,27,m,100% B.Sc. Psychologie,2023-01-17_12h07.05.522,00_bat_bachelor,2022.2.4,59.87635719872794,
,,,,,,,,,,,,0,0,0,0,36,0,36,0,,,,,,,36,,,1,312.41037071013125,313.21113104916003,X,None,nogo,None,1,,,,,,,,,,,,,,,,,29,001,27,m,100% B.Sc. Psychologie,2023-01-17_12h07.05.522,00_bat_bachelor,2022.2.4,59.87635719872794,
,,,,,,,,,,,,0,0,0,0,37,0,37,0,,,,,,,37,,,1,314.21153492774465,,Y,d,go,l,0,0.41522557284042705,,,,,,,,,,,,,,,,29,001,27,m,100% B.Sc. Psychologie,2023-01-17_12h07.05.522,00_bat_bachelor,2022.2.4,59.87635719872794,
,,,,,,,,,,,,0,0,0,0,38,0,38,0,,,,,,,38,,,1,315.7294672826829,,X,l,go,d,0,0.4654083363857353,,,,,,,,,,,,,,,,29,001,27,m,100% B.Sc. Psychologie,2023-01-17_12h07.05.522,00_bat_bachelor,2022.2.4,59.87635719872794,
,,,,,,,,,,,,0,0,0,0,39,0,39,0,,,,,,,39,,,1,317.29735500735114,,X,None,nogo,None,1,,,,,,,,,,,,,,,,,29,001,27,m,100% B.Sc. Psychologie,2023-01-17_12h07.05.522,00_bat_bachelor,2022.2.4,59.87635719872794,
,,,,,,,,,,,,0,0,0,0,40,0,40,0,,,,,,,40,,,1,319.09880916422117,,Y,d,go,d,1,0.5204230975941755,,,,,,,,,,,,,,,,29,001,27,m,100% B.Sc. Psychologie,2023-01-17_12h07.05.522,00_bat_bachelor,2022.2.4,59.87635719872794,
,,,,,,,,,,,,0,0,0,0,41,0,41,0,,,,,,,41,,,1,320.7334255838068,,X,l,go,l,1,0.31055216905951966,,,,,,,,,,,,,,,,29,001,27,m,100% B.Sc. Psychologie,2023-01-17_12h07.05.522,00_bat_bachelor,2022.2.4,59.87635719872794,
,,,,,,,,,,,,0,0,0,0,42,0,42,0,,,,,,,42,,,1,322.1512581084826,,Y,d,go,d,1,0.3157550756150158,,,,,,,,,,,,,,,,29,001,27,m,100% B.Sc. Psychologie,2023-01-17_12h07.05.522,00_bat_bachelor,2022.2.4,59.87635719872794,
,,,,,,,,,,,,0,0,0,0,43,0,43,0,,,,,,,43,,,1,323.56900529988343,,X,l,go,l,1,0.6582300610898528,,,,,,,,,,,,,,,,29,001,27,m,100% B.Sc. Psychologie,2023-01-17_12h07.05.522,00_bat_bachelor,2022.2.4,59.87635719872794,
,,,,,,,,,,,,0,0,0,0,44,0,44,0,,,,,,,44,,,1,325.33696080632217,,Y,d,go,d,1,0.39443673443747684,,,,,,,,,,,,,,,,29,001,27,m,100% B.Sc. Psychologie,2023-01-17_12h07.05.522,00_bat_bachelor,2022.2.4,59.87635719872794,
,,,,,,,,,,,,0,0,0,0,45,0,45,0,,,,,,,45,,,1,326.83801801793743,,X,l,go,l,1,0.2695000677340431,,,,,,,,,,,,,,,,29,001,27,m,100% B.Sc. Psychologie,2023-01-17_12h07.05.522,00_bat_bachelor,2022.2.4,59.87635719872794,
,,,,,,,,,,,,0,0,0,0,46,0,46,0,,,,,,,46,,,1,328.22275189201173,,X,None,nogo,d,0,0.2121977924980456,,,,,,,,,,,,,,,,29,001,27,m,100% B.Sc. Psychologie,2023-01-17_12h07.05.522,00_bat_bachelor,2022.2.4,59.87635719872794,
,,,,,,,,,,,,0,0,0,0,47,0,47,0,,,,,,,47,,,1,329.5399948897102,,Y,d,go,l,0,0.3675208687054692,,,,,,,,,,,,,,,,29,001,27,m,100% B.Sc. Psychologie,2023-01-17_12h07.05.522,00_bat_bachelor,2022.2.4,59.87635719872794,
,,,,,,,,,,,,0,0,0,0,48,0,48,0,,,,,,,48,,,1,331.0246230183693,,X,l,go,l,1,0.6590193940355675,,,,,,,,,,,,,,,,29,001,27,m,100% B.Sc. Psychologie,2023-01-17_12h07.05.522,00_bat_bachelor,2022.2.4,59.87635719872794,
,,,,,,,,,,,,0,0,0,0,49,0,49,0,,,,,,,49,,,1,332.79264349448204,,Y,d,go,d,1,0.23536820551089477,,,,,,,,,,,,,,,,29,001,27,m,100% B.Sc. Psychologie,2023-01-17_12h07.05.522,00_bat_bachelor,2022.2.4,59.87635719872794,
,,,,,,,,,,,,0,0,0,0,50,0,50,0,,,,,,,50,,,1,334.1436251424893,,Y,None,nogo,l,0,0.2439015347044915,,,,,,,,,,,,,,,,29,001,27,m,100% B.Sc. Psychologie,2023-01-17_12h07.05.522,00_bat_bachelor,2022.2.4,59.87635719872794,
,,,,,,,,,,,,0,0,0,0,51,0,51,0,,,,,,,51,,,1,335.494780366178,,X,l,go,d,0,0.18880289474327583,,,,,,,,,,,,,,,,29,001,27,m,100% B.Sc. Psychologie,2023-01-17_12h07.05.522,00_bat_bachelor,2022.2.4,59.87635719872794,
,,,,,,,,,,,,0,0,0,0,52,0,52,0,,,,,,,52,,,1,336.795703371783,,Y,d,go,d,1,0.4879435981856659,,,,,,,,,,,,,,,,29,001,27,m,100% B.Sc. Psychologie,2023-01-17_12h07.05.522,00_bat_bachelor,2022.2.4,59.87635719872794,
,,,,,,,,,,,,0,0,0,0,53,0,53,0,,,,,,,53,,,1,338.3968827166682,,X,l,go,l,1,0.2788275783677818,,,,,,,,,,,,,,,,29,001,27,m,100% B.Sc. Psychologie,2023-01-17_12h07.05.522,00_bat_bachelor,2022.2.4,59.87635719872794,
,,,,,,,,,,,,0,0,0,0,54,0,54,0,,,,,,,54,,,1,339.7812616818119,,Y,d,go,d,1,0.5260900039429544,,,,,,,,,,,,,,,,29,001,27,m,100% B.Sc. Psychologie,2023-01-17_12h07.05.522,00_bat_bachelor,2022.2.4,59.87635719872794,
,,,,,,,,,,,,0,0,0,0,55,0,55,0,,,,,,,55,,,1,341.4158320408169,,X,l,go,l,1,0.2349425087304553,,,,,,,,,,,,,,,,29,001,27,m,100% B.Sc. Psychologie,2023-01-17_12h07.05.522,00_bat_bachelor,2022.2.4,59.87635719872794,
,,,,,,,,,,,,0,0,0,0,56,0,56,0,,,,,,,56,,,1,342.7669445978536,,X,None,nogo,d,0,0.2607049204962095,,,,,,,,,,,,,,,,29,001,27,m,100% B.Sc. Psychologie,2023-01-17_12h07.05.522,00_bat_bachelor,2022.2.4,59.87635719872794,
,,,,,,,,,,,,0,0,0,0,57,0,57,0,,,,,,,57,,,1,344.13430587427865,,X,None,nogo,None,1,,,,,,,,,,,,,,,,,29,001,27,m,100% B.Sc. Psychologie,2023-01-17_12h07.05.522,00_bat_bachelor,2022.2.4,59.87635719872794,
,,,,,,,,,,,,0,0,0,0,58,0,58,0,,,,,,,58,,,1,345.93597918255546,,Y,d,go,d,1,0.49948395624232944,,,,,,,,,,,,,,,,29,001,27,m,100% B.Sc. Psychologie,2023-01-17_12h07.05.522,00_bat_bachelor,2022.2.4,59.87635719872794,
,,,,,,,,,,,,0,0,0,0,59,0,59,0,,,,,,,59,,,1,347.53693840633787,,X,l,go,l,1,0.4664531843736768,,,,,,,,,,,,,,,,29,001,27,m,100% B.Sc. Psychologie,2023-01-17_12h07.05.522,00_bat_bachelor,2022.2.4,59.87635719872794,
,,,,,,,,,,,,0,0,0,0,60,0,60,0,,,,,,,60,,,1,349.10495704002096,,X,None,nogo,l,0,0.4986451687582303,,,,,,,,,,,,,,,,29,001,27,m,100% B.Sc. Psychologie,2023-01-17_12h07.05.522,00_bat_bachelor,2022.2.4,59.87635719872794,
,,,,,,,,,,,,0,0,0,0,61,0,61,0,,,,,,,61,,,1,350.7059880213492,,Y,d,go,d,1,0.4818267526861746,,,,,,,,,,,,,,,,29,001,27,m,100% B.Sc. Psychologie,2023-01-17_12h07.05.522,00_bat_bachelor,2022.2.4,59.87635719872794,
,,,,,,,,,,,,0,0,0,0,62,0,62,0,,,,,,,62,,,1,352.2905627682194,353.0913541375339,X,l,go,None,0,,,,,,,,,,,,,,,,,29,001,27,m,100% B.Sc. Psychologie,2023-01-17_12h07.05.522,00_bat_bachelor,2022.2.4,59.87635719872794,
,,,,,,,,,,,,0,0,0,0,63,0,63,0,,,,,,,63,,,1,354.0921924401482,354.89251593091467,X,None,nogo,None,1,,,,,,,,,,,,,,,,,29,001,27,m,100% B.Sc. Psychologie,2023-01-17_12h07.05.522,00_bat_bachelor,2022.2.4,59.87635719872794,
,,,,,,,,,,,,0,0,0,0,64,0,64,0,,,,,,,64,,,1,355.89354671828914,,Y,d,go,d,1,0.5262063675181707,,,,,,,,,,,,,,,,29,001,27,m,100% B.Sc. Psychologie,2023-01-17_12h07.05.522,00_bat_bachelor,2022.2.4,59.87635719872794,
,,,,,,,,,,,,0,0,0,0,65,0,65,0,,,,,,,65,,,1,357.52819901664043,,X,l,go,l,1,0.2831645459664287,,,,,,,,,,,,,,,,29,001,27,m,100% B.Sc. Psychologie,2023-01-17_12h07.05.522,00_bat_bachelor,2022.2.4,59.87635719872794,
,,,,,,,,,,,,0,0,0,0,66,0,66,0,,,,,,,66,,,1,358.9124630727456,,X,None,nogo,None,1,,,,,,,,,,,,,,,,,29,001,27,m,100% B.Sc. Psychologie,2023-01-17_12h07.05.522,00_bat_bachelor,2022.2.4,59.87635719872794,
,,,,,,,,,,,,0,0,0,0,67,0,67,0,,,,,,,67,,,1,360.71353710858966,,Y,d,go,d,1,0.3136736220913008,,,,,,,,,,,,,,,,29,001,27,m,100% B.Sc. Psychologie,2023-01-17_12h07.05.522,00_bat_bachelor,2022.2.4,59.87635719872794,
,,,,,,,,,,,,0,0,0,0,68,0,68,0,,,,,,,68,,,1,362.1313536332891,,X,l,go,l,1,0.32008283110917546,,,,,,,,,,,,,,,,29,001,27,m,100% B.Sc. Psychologie,2023-01-17_12h07.05.522,00_bat_bachelor,2022.2.4,59.87635719872794,
,,,,,,,,,,,,0,0,0,0,69,0,69,0,,,,,,,69,,,1,363.5659463922784,,Y,d,go,d,1,0.22940117809048388,,,,,,,,,,,,,,,,29,001,27,m,100% B.Sc. Psychologie,2023-01-17_12h07.05.522,00_bat_bachelor,2022.2.4,59.87635719872794,
,,,,,,,,,,,,0,0,0,0,70,0,70,0,,,,,,,70,,,1,364.90049362400896,,Y,None,nogo,l,0,0.3032469604659127,,,,,,,,,,,,,,,,29,001,27,m,100% B.Sc. Psychologie,2023-01-17_12h07.05.522,00_bat_bachelor,2022.2.4,59.87635719872794,
,,,,,,,,,,,,0,0,0,0,71,0,71,0,,,,,,,71,,,1,366.3182456638897,,X,l,go,l,1,0.6447580676176585,,,,,,,,,,,,,,,,29,001,27,m,100% B.Sc. Psychologie,2023-01-17_12h07.05.522,00_bat_bachelor,2022.2.4,59.87635719872794,
,,,,,,,,,,,,0,0,0,0,72,0,72,0,,,,,,,72,,,1,368.06924069370143,,Y,d,go,d,1,0.4292793842178071,,,,,,,,,,,,,,,,29,001,27,m,100% B.Sc. Psychologie,2023-01-17_12h07.05.522,00_bat_bachelor,2022.2.4,59.87635719872794,
,,,,,,,,,,,,0,0,0,0,73,0,73,0,,,,,,,73,,,1,369.60402734350646,,X,l,go,l,1,0.4796042082889471,,,,,,,,,,,,,,,,29,001,27,m,100% B.Sc. Psychologie,2023-01-17_12h07.05.522,00_bat_bachelor,2022.2.4,59.87635719872794,
,,,,,,,,,,,,0,0,0,0,74,0,74,0,,,,,,,74,,,1,371.18861566613487,,X,None,nogo,l,0,0.43109998939326033,,,,,,,,,,,,,,,,29,001,27,m,100% B.Sc. Psychologie,2023-01-17_12h07.05.522,00_bat_bachelor,2022.2.4,59.87635719872794,
,,,,,,,,,,,,0,0,0,0,75,0,75,0,,,,,,,75,,,1,372.7230270433938,,Y,d,go,d,1,0.576611191558186,,,,,,,,,,,,,,,,29,001,27,m,100% B.Sc. Psychologie,2023-01-17_12h07.05.522,00_bat_bachelor,2022.2.4,59.87635719872794,
,,,,,,,,,,,,0,0,0,0,76,0,76,0,,,,,,,76,,,1,374.4075062266638,,X,l,go,l,1,0.3156833180837566,,,,,,,,,,,,,,,,29,001,27,m,100% B.Sc. Psychologie,2023-01-17_12h07.05.522,00_bat_bachelor,2022.2.4,59.87635719872794,
,,,,,,,,,,,,0,0,0,0,77,0,77,0,,,,,,,77,,,1,375.82538578163076,,Y,d,go,None,0,,,,,,,,,,,,,,,,,29,001,27,m,100% B.Sc. Psychologie,2023-01-17_12h07.05.522,00_bat_bachelor,2022.2.4,59.87635719872794,
,,,,,,,,,,,,0,0,0,0,78,0,78,0,,,,,,,78,,,1,377.6267618779384,,X,l,go,l,1,0.313195076858392,,,,,,,,,,,,,,,,29,001,27,m,100% B.Sc. Psychologie,2023-01-17_12h07.05.522,00_bat_bachelor,2022.2.4,59.87635719872794,
,,,,,,,,,,,,0,0,0,0,79,0,79,0,,,,,,,79,,,1,379.04458276626247,,Y,d,go,d,1,0.4945331707713194,,,,,,,,,,,,,,,,29,001,27,m,100% B.Sc. Psychologie,2023-01-17_12h07.05.522,00_bat_bachelor,2022.2.4,59.87635719872794,
,,,,,,,,,,,,0,0,0,0,80,0,80,0,,,,,,,80,,,1,380.6457766566018,,X,l,go,l,1,0.6053520261193626,,,,,,,,,,,,,,,,29,001,27,m,100% B.Sc. Psychologie,2023-01-17_12h07.05.522,00_bat_bachelor,2022.2.4,59.87635719872794,
,,,,,,,,,,,,0,0,0,0,81,0,81,0,,,,,,,81,,,1,382.3636744903488,,X,None,nogo,None,1,,,,,,,,,,,,,,,,,29,001,27,m,100% B.Sc. Psychologie,2023-01-17_12h07.05.522,00_bat_bachelor,2022.2.4,59.87635719872794,
,,,,,,,,,,,,0,0,0,0,82,0,82,0,,,,,,,82,,,1,384.1650656169368,,Y,d,go,d,1,0.39784133885405026,,,,,,,,,,,,,,,,29,001,27,m,100% B.Sc. Psychologie,2023-01-17_12h07.05.522,00_bat_bachelor,2022.2.4,59.87635719872794,
,,,,,,,,,,,,0,0,0,0,83,0,83,0,,,,,,,83,,,1,385.6659167680482,,X,l,go,l,1,0.2734244294842938,,,,,,,,,,,,,,,,29,001,27,m,100% B.Sc. Psychologie,2023-01-17_12h07.05.522,00_bat_bachelor,2022.2.4,59.87635719872794,
,,,,,,,,,,,,0,0,0,0,84,0,84,0,,,,,,,84,,,1,387.05061379364633,,X,None,nogo,None,1,,,,,,,,,,,,,,,,,29,001,27,m,100% B.Sc. Psychologie,2023-01-17_12h07.05.522,00_bat_bachelor,2022.2.4,59.87635719872794,
,,,,,,,,,,,,0,0,0,0,85,0,85,0,,,,,,,85,,,1,388.8521188595914,,Y,d,go,d,1,0.3837259517458733,,,,,,,,,,,,,,,,29,001,27,m,100% B.Sc. Psychologie,2023-01-17_12h07.05.522,00_bat_bachelor,2022.2.4,59.87635719872794,
,,,,,,,,,,,,0,0,0,0,86,0,86,0,,,,,,,86,,,1,390.336475473232,,X,l,go,l,1,0.25829134590458125,,,,,,,,,,,,,,,,29,001,27,m,100% B.Sc. Psychologie,2023-01-17_12h07.05.522,00_bat_bachelor,2022.2.4,59.87635719872794,
,,,,,,,,,,,,0,0,0,0,87,0,87,0,,,,,,,87,,,1,391.70388717387686,392.5047313916584,X,None,nogo,None,1,,,,,,,,,,,,,,,,,29,001,27,m,100% B.Sc. Psychologie,2023-01-17_12h07.05.522,00_bat_bachelor,2022.2.4,59.87635719872794,
,,,,,,,,,,,,0,0,0,0,88,0,88,0,,,,,,,88,,,1,393.5054232701077,,Y,d,go,d,1,0.32153834553901106,,,,,,,,,,,,,,,,29,001,27,m,100% B.Sc. Psychologie,2023-01-17_12h07.05.522,00_bat_bachelor,2022.2.4,59.87635719872794,
,,,,,,,,,,,,0,0,0,0,89,0,89,0,,,,,,,89,,,1,394.93995105942304,,X,l,go,l,1,0.21522809404996224,,,,,,,,,,,,,,,,29,001,27,m,100% B.Sc. Psychologie,2023-01-17_12h07.05.522,00_bat_bachelor,2022.2.4,59.87635719872794,
,,,,,,,,,,,,0,0,0,0,90,0,90,0,,,,,,,90,,,1,396.2576081175357,,Y,d,go,d,1,0.5298723051382694,,,,,,,,,,,,,,,,29,001,27,m,100% B.Sc. Psychologie,2023-01-17_12h07.05.522,00_bat_bachelor,2022.2.4,59.87635719872794,
,,,,,,,,,,,,0,0,0,0,91,0,91,0,,,,,,,91,,,1,397.8922206583229,,X,l,go,l,1,0.22368384753644932,,,,,,,,,,,,,,,,29,001,27,m,100% B.Sc. Psychologie,2023-01-17_12h07.05.522,00_bat_bachelor,2022.2.4,59.87635719872794,
,,,,,,,,,,,,0,0,0,0,92,0,92,0,,,,,,,92,,,1,399.226260738782,,X,None,nogo,None,1,,,,,,,,,,,,,,,,,29,001,27,m,100% B.Sc. Psychologie,2023-01-17_12h07.05.522,00_bat_bachelor,2022.2.4,59.87635719872794,
,,,,,,,,,,,,0,0,0,0,93,0,93,0,,,,,,,93,,,1,401.0276164714596,,Y,d,go,d,1,0.2878190891642589,,,,,,,,,,,,,,,,29,001,27,m,100% B.Sc. Psychologie,2023-01-17_12h07.05.522,00_bat_bachelor,2022.2.4,59.87635719872794,
,,,,,,,,,,,,0,0,0,0,94,0,94,0,,,,,,,94,,,1,402.4289951859537,,X,l,go,l,1,0.16622399659536313,,,,,,,,,,,,,,,,29,001,27,m,100% B.Sc. Psychologie,2023-01-17_12h07.05.522,00_bat_bachelor,2022.2.4,59.87635719872794,
,,,,,,,,,,,,0,0,0,0,95,0,95,0,,,,,,,95,,,1,403.69663917738944,,Y,d,go,None,0,,,,,,,,,,,,,,,,,29,001,27,m,100% B.Sc. Psychologie,2023-01-17_12h07.05.522,00_bat_bachelor,2022.2.4,59.87635719872794,
,,,,,,,,,,,,0,0,0,0,96,0,96,0,,,,,,,96,,,1,405.4978591525578,,X,l,go,l,1,0.2819121829379583,,,,,,,,,,,,,,,,29,001,27,m,100% B.Sc. Psychologie,2023-01-17_12h07.05.522,00_bat_bachelor,2022.2.4,59.87635719872794,
,,,,,,,,,,,,0,0,0,0,97,0,97,0,,,,,,,97,,,1,406.8823035722162,,X,None,nogo,None,1,,,,,,,,,,,,,,,,,29,001,27,m,100% B.Sc. Psychologie,2023-01-17_12h07.05.522,00_bat_bachelor,2022.2.4,59.87635719872794,
,,,,,,,,,,,,0,0,0,0,98,0,98,0,,,,,,,98,,,1,408.68374754728575,,Y,d,go,d,1,0.43950434896396473,,,,,,,,,,,,,,,,29,001,27,m,100% B.Sc. Psychologie,2023-01-17_12h07.05.522,00_bat_bachelor,2022.2.4,59.87635719872794,
,,,,,,,,,,,,0,0,0,0,99,0,99,0,,,,,,,99,,,1,410.2350398860435,,X,l,go,l,1,0.21619488147553056,,,,,,,,,,,,,,,,29,001,27,m,100% B.Sc. Psychologie,2023-01-17_12h07.05.522,00_bat_bachelor,2022.2.4,59.87635719872794,
,,,,,,,,,,,,0,0,0,0,100,0,100,0,,,,,,,100,,,1,411.5527614289749,,Y,d,go,d,1,0.5303256382467225,,,,,,,,,,,,,,,,29,001,27,m,100% B.Sc. Psychologie,2023-01-17_12h07.05.522,00_bat_bachelor,2022.2.4,59.87635719872794,
,,,,,,,,,,,,0,0,0,0,101,0,101,0,,,,,,,101,,,1,413.1869303336134,,X,l,go,l,1,0.2234855446004076,,,,,,,,,,,,,,,,29,001,27,m,100% B.Sc. Psychologie,2023-01-17_12h07.05.522,00_bat_bachelor,2022.2.4,59.87635719872794,
,,,,,,,,,,,,0,0,0,0,102,0,102,0,,,,,,,102,,,1,414.5216492016334,,Y,d,go,d,1,0.5380323011922883,,,,,,,,,,,,,,,,29,001,27,m,100% B.Sc. Psychologie,2023-01-17_12h07.05.522,00_bat_bachelor,2022.2.4,59.87635719872794,
,,,,,,,,,,,,0,0,0,0,103,0,103,0,,,,,,,103,,,1,416.17274027988606,,Y,None,nogo,l,0,0.2625827377778478,,,,,,,,,,,,,,,,29,001,27,m,100% B.Sc. Psychologie,2023-01-17_12h07.05.522,00_bat_bachelor,2022.2.4,59.87635719872794,
,,,,,,,,,,,,0,0,0,0,104,0,104,0,,,,,,,104,,,1,417.54042688949266,,X,l,go,l,1,0.5266693976009265,,,,,,,,,,,,,,,,29,001,27,m,100% B.Sc. Psychologie,2023-01-17_12h07.05.522,00_bat_bachelor,2022.2.4,59.87635719872794,
,,,,,,,,,,,,0,0,0,0,105,0,105,0,,,,,,,105,,,1,419.1748222182796,,Y,d,go,d,1,0.36444983989349566,,,,,,,,,,,,,,,,29,001,27,m,100% B.Sc. Psychologie,2023-01-17_12h07.05.522,00_bat_bachelor,2022.2.4,59.87635719872794,
,,,,,,,,,,,,0,0,0,0,106,0,106,0,,,,,,,106,,,1,420.6429538700904,,Y,None,nogo,None,1,,,,,,,,,,,,,,,,,29,001,27,m,100% B.Sc. Psychologie,2023-01-17_12h07.05.522,00_bat_bachelor,2022.2.4,59.87635719872794,
,,,,,,,,,,,,0,0,0,0,107,0,107,0,,,,,,,107,,,1,422.44431154216,,Y,None,nogo,None,1,,,,,,,,,,,,,,,,,29,001,27,m,100% B.Sc. Psychologie,2023-01-17_12h07.05.522,00_bat_bachelor,2022.2.4,59.87635719872794,
,,,,,,,,,,,,0,0,0,0,108,0,108,0,,,,,,,108,,,1,424.2456430324237,,X,l,go,l,1,0.30126829475921113,,,,,,,,,,,,,,,,29,001,27,m,100% B.Sc. Psychologie,2023-01-17_12h07.05.522,00_bat_bachelor,2022.2.4,59.87635719872794,
,,,,,,,,,,,,0,0,0,0,109,0,109,0,,,,,,,109,,,1,425.6631056178885,,Y,d,go,d,1,0.2925492686772486,,,,,,,,,,,,,,,,29,001,27,m,100% B.Sc. Psychologie,2023-01-17_12h07.05.522,00_bat_bachelor,2022.2.4,59.87635719872794,
,,,,,,,,,,,,0,0,0,0,110,0,110,0,,,,,,,110,,,1,427.0644246960437,,X,l,go,d,0,0.4593230060127098,,,,,,,,,,,,,,,,29,001,27,m,100% B.Sc. Psychologie,2023-01-17_12h07.05.522,00_bat_bachelor,2022.2.4,59.87635719872794,
,,,,,,,,,,,,0,0,0,0,111,0,111,0,,,,,,,111,,,1,428.63201666326495,,Y,d,go,None,0,,,,,,,,,,,,,,,,,29,001,27,m,100% B.Sc. Psychologie,2023-01-17_12h07.05.522,00_bat_bachelor,2022.2.4,59.87635719872794,
,,,,,,,,,,,,0,0,0,0,112,0,112,0,,,,,,,112,,,1,430.4334077898675,,Y,None,nogo,d,0,0.5145297671260778,,,,,,,,,,,,,,,,29,001,27,m,100% B.Sc. Psychologie,2023-01-17_12h07.05.522,00_bat_bachelor,2022.2.4,59.87635719872794,
,,,,,,,,,,,,0,0,0,0,113,0,113,0,,,,,,,113,,,1,432.0512979145278,,X,l,go,l,1,0.22413136246905196,,,,,,,,,,,,,,,,29,001,27,m,100% B.Sc. Psychologie,2023-01-17_12h07.05.522,00_bat_bachelor,2022.2.4,59.87635719872794,
,,,,,,,,,,,,0,0,0,0,114,0,114,0,,,,,,,114,,,1,433.38602260072366,,Y,d,go,d,1,0.4573700372566236,,,,,,,,,,,,,,,,29,001,27,m,100% B.Sc. Psychologie,2023-01-17_12h07.05.522,00_bat_bachelor,2022.2.4,59.87635719872794,
,,,,,,,,,,,,0,0,0,0,115,0,115,0,,,,,,,115,,,1,434.9709236504714,,X,l,go,l,1,0.2956290247675497,,,,,,,,,,,,,,,,29,001,27,m,100% B.Sc. Psychologie,2023-01-17_12h07.05.522,00_bat_bachelor,2022.2.4,59.87635719872794,
,,,,,,,,,,,,0,0,0,0,116,0,116,0,,,,,,,116,,,1,436.3886747206416,,Y,d,go,d,1,0.446018285190803,,,,,,,,,,,,,,,,29,001,27,m,100% B.Sc. Psychologie,2023-01-17_12h07.05.522,00_bat_bachelor,2022.2.4,59.87635719872794,
,,,,,,,,,,,,0,0,0,0,117,0,117,0,,,,,,,117,,,1,437.9568228088174,,X,l,go,l,1,0.4938170498935506,,,,,,,,,,,,,,,,29,001,27,m,100% B.Sc. Psychologie,2023-01-17_12h07.05.522,00_bat_bachelor,2022.2.4,59.87635719872794,
,,,,,,,,,,,,0,0,0,0,118,0,118,0,,,,,,,118,,,1,439.57453935781086,,Y,d,go,d,1,0.3639005068253027,,,,,,,,,,,,,,,,29,001,27,m,100% B.Sc. Psychologie,2023-01-17_12h07.05.522,00_bat_bachelor,2022.2.4,59.87635719872794,
,,,,,,,,,,,,0,0,0,0,119,0,119,0,,,,,,,119,,,1,441.0589502744551,,X,l,go,l,1,0.3672779597254703,,,,,,,,,,,,,,,,29,001,27,m,100% B.Sc. Psychologie,2023-01-17_12h07.05.522,00_bat_bachelor,2022.2.4,59.87635719872794,
,,,,,,,,,,,,0,0,0,0,120,0,120,0,,,,,,,120,,,1,442.5436394940043,,X,None,nogo,d,0,0.4035383057926083,,,,,,,,,,,,,,,,29,001,27,m,100% B.Sc. Psychologie,2023-01-17_12h07.05.522,00_bat_bachelor,2022.2.4,59.87635719872794,
,,,,,,,,,,,,0,0,0,0,121,0,121,0,,,,,,,121,,,1,444.07786226528697,,Y,d,go,l,0,0.4045749113429338,,,,,,,,,,,,,,,,29,001,27,m,100% B.Sc. Psychologie,2023-01-17_12h07.05.522,00_bat_bachelor,2022.2.4,59.87635719872794,
,,,,,,,,,,,,0,0,0,0,122,0,122,0,,,,,,,122,,,1,445.6126678241708,,X,l,go,d,0,0.3262277978210477,,,,,,,,,,,,,,,,29,001,27,m,100% B.Sc. Psychologie,2023-01-17_12h07.05.522,00_bat_bachelor,2022.2.4,59.87635719872794,
,,,,,,,,,,,,0,0,0,0,123,0,123,0,,,,,,,123,,,1,447.063782756959,447.8643346112367,Y,d,go,None,0,,,,,,,,,,,,,,,,,29,001,27,m,100% B.Sc. Psychologie,2023-01-17_12h07.05.522,00_bat_bachelor,2022.2.4,59.87635719872794,
,,,,,,,,,,,,0,0,0,0,124,0,124,0,,,,,,,124,,,1,448.864880065521,,X,l,go,l,1,0.41777393524535,,,,,,,,,,,,,,,,29,001,27,m,100% B.Sc. Psychologie,2023-01-17_12h07.05.522,00_bat_bachelor,2022.2.4,59.87635719872794,
,,,,,,,,,,,,0,0,0,0,125,0,125,0,,,,,,,125,,,1,450.39939665484417,,Y,d,go,d,1,0.4031906695890939,,,,,,,,,,,,,,,,29,001,27,m,100% B.Sc. Psychologie,2023-01-17_12h07.05.522,00_bat_bachelor,2022.2.4,59.87635719872794,
,,,,,,,,,,,,0,0,0,0,126,0,126,0,,,,,,,126,,,1,451.93384245633206,,Y,None,nogo,l,0,0.19722713308874518,,,,,,,,,,,,,,,,29,001,27,m,100% B.Sc. Psychologie,2023-01-17_12h07.05.522,00_bat_bachelor,2022.2.4,59.87635719872794,
,,,,,,,,,,,,0,0,0,0,127,0,127,0,,,,,,,127,,,1,453.25155963560974,,X,l,go,d,0,0.5267910945112817,,,,,,,,,,,,,,,,29,001,27,m,100% B.Sc. Psychologie,2023-01-17_12h07.05.522,00_bat_bachelor,2022.2.4,59.87635719872794,
,,,,,,,,,,,,0,0,0,0,128,0,128,0,,,,,,,128,,,1,454.9030705924524,,Y,d,go,d,1,0.5403493909689132,,,,,,,,,,,,,,,,29,001,27,m,100% B.Sc. Psychologie,2023-01-17_12h07.05.522,00_bat_bachelor,2022.2.4,59.87635719872794,
,,,,,,,,,,,,0,0,0,0,129,0,129,0,,,,,,,129,,,1,456.57096942013595,,Y,None,nogo,l,0,0.2952532673662063,,,,,,,,,,,,,,,,29,001,27,m,100% B.Sc. Psychologie,2023-01-17_12h07.05.522,00_bat_bachelor,2022.2.4,59.87635719872794,
,,,,,,,,,,,,0,0,0,0,130,0,130,0,,,,,,,130,,,1,457.9887054600258,458.78906725379056,Y,None,nogo,None,1,,,,,,,,,,,,,,,,,29,001,27,m,100% B.Sc. Psychologie,2023-01-17_12h07.05.522,00_bat_bachelor,2022.2.4,59.87635719872794,
,,,,,,,,,,,,0,0,0,0,131,0,131,0,,,,,,,131,,,1,459.7901062835881,,X,l,go,l,1,0.4045928507403005,,,,,,,,,,,,,,,,29,001,27,m,100% B.Sc. Psychologie,2023-01-17_12h07.05.522,00_bat_bachelor,2022.2.4,59.87635719872794,
,,,,,,,,,,,,0,0,0,0,132,0,132,0,,,,,,,132,,,1,461.3246732971311,,Y,d,go,d,1,0.35791214609344024,,,,,,,,,,,,,,,,29,001,27,m,100% B.Sc. Psychologie,2023-01-17_12h07.05.522,00_bat_bachelor,2022.2.4,59.87635719872794,
,,,,,,,,,,,,0,0,0,0,133,0,133,0,,,,,,,133,,,1,462.8091448198102,,Y,None,nogo,l,0,0.20098470702941995,,,,,,,,,,,,,,,,29,001,27,m,100% B.Sc. Psychologie,2023-01-17_12h07.05.522,00_bat_bachelor,2022.2.4,59.87635719872794,
,,,,,,,,,,,,0,0,0,0,134,0,134,0,,,,,,,134,,,1,464.14339435473084,,X,l,go,d,0,0.48285366127674934,,,,,,,,,,,,,,,,29,001,27,m,100% B.Sc. Psychologie,2023-01-17_12h07.05.522,00_bat_bachelor,2022.2.4,59.87635719872794,
,,,,,,,,,,,,0,0,0,0,135,0,135,0,,,,,,,135,,,1,465.7447167298378,,Y,d,go,d,1,0.5617181078705471,,,,,,,,,,,,,,,,29,001,27,m,100% B.Sc. Psychologie,2023-01-17_12h07.05.522,00_bat_bachelor,2022.2.4,59.87635719872794,
,,,,,,,,,,,,0,0,0,0,136,0,136,0,,,,,,,136,,,1,467.4293268221518,,X,l,go,d,0,0.6049476626794785,,,,,,,,,,,,,,,,29,001,27,m,100% B.Sc. Psychologie,2023-01-17_12h07.05.522,00_bat_bachelor,2022.2.4,59.87635719872794,
,,,,,,,,,,,,0,0,0,0,137,0,137,0,,,,,,,137,,,1,469.1803199125716,469.98126643332944,Y,d,go,None,0,,,,,,,,,,,,,,,,,29,001,27,m,100% B.Sc. Psychologie,2023-01-17_12h07.05.522,00_bat_bachelor,2022.2.4,59.87635719872794,
,,,,,,,,,,,,0,0,0,0,138,0,138,0,,,,,,,138,,,1,470.9816882513114,,X,l,go,l,1,0.3958849761693273,,,,,,,,,,,,,,,,29,001,27,m,100% B.Sc. Psychologie,2023-01-17_12h07.05.522,00_bat_bachelor,2022.2.4,59.87635719872794,
,,,,,,,,,,,,0,0,0,0,139,0,139,0,,,,,,,139,,,1,472.4997466667992,,Y,d,go,d,1,0.5916429418575717,,,,,,,,,,,,,,,,29,001,27,m,100% B.Sc. Psychologie,2023-01-17_12h07.05.522,00_bat_bachelor,2022.2.4,59.87635719872794,
,,,,,,,,,,,,0,0,0,0,140,0,140,0,,,,,,,140,,,1,474.20111069038103,,X,l,go,l,1,0.4730912417580839,,,,,,,,,,,,,,,,29,001,27,m,100% B.Sc. Psychologie,2023-01-17_12h07.05.522,00_bat_bachelor,2022.2.4,59.87635719872794,
,,,,,,,,,,,,0,0,0,0,141,0,141,0,,,,,,,141,,,1,475.80211209594563,,X,None,nogo,l,0,0.6653461788373534,,,,,,,,,,,,,,,,29,001,27,m,100% B.Sc. Psychologie,2023-01-17_12h07.05.522,00_bat_bachelor,2022.2.4,59.87635719872794,
,,,,,,,,,,,,0,0,0,0,142,0,142,0,,,,,,,142,,,1,477.57010978419567,,Y,d,go,d,1,0.5601501086348435,,,,,,,,,,,,,,,,29,001,27,m,100% B.Sc. Psychologie,2023-01-17_12h07.05.522,00_bat_bachelor,2022.2.4,59.87635719872794,
,,,,,,,,,,,,0,0,0,0,143,0,143,0,,,,,,,143,,,1,479.25494096730836,,X,l,go,l,1,0.3643368702469161,,,,,,,,,,,,,,,,29,001,27,m,100% B.Sc. Psychologie,2023-01-17_12h07.05.522,00_bat_bachelor,2022.2.4,59.87635719872794,
,,,,,,,,,,,,0,0,0,0,144,0,144,0,,,,,,,144,,,1,480.73913661132974,481.5400516169466,X,None,nogo,None,1,,,,,,,,,,,,,,,,,29,001,27,m,100% B.Sc. Psychologie,2023-01-17_12h07.05.522,00_bat_bachelor,2022.2.4,59.87635719872794,
,,,,,,,,,,,,0,0,0,0,145,0,145,0,,,,,,,145,,,1,482.54048943491944,,Y,d,go,d,1,0.4074975765979616,,,,,,,,,,,,,,,,29,001,27,m,100% B.Sc. Psychologie,2023-01-17_12h07.05.522,00_bat_bachelor,2022.2.4,59.87635719872794,
,,,,,,,,,,,,0,0,0,0,146,0,146,0,,,,,,,146,,,1,484.05837863836496,,X,l,go,l,1,0.6005491193500347,,,,,,,,,,,,,,,,29,001,27,m,100% B.Sc. Psychologie,2023-01-17_12h07.05.522,00_bat_bachelor,2022.2.4,59.87635719872794,
,,,,,,,,,,,,0,0,0,0,147,0,147,0,,,,,,,147,,,1,485.77641804779705,,X,None,nogo,l,0,0.5785025845834753,,,,,,,,,,,,,,,,29,001,27,m,100% B.Sc. Psychologie,2023-01-17_12h07.05.522,00_bat_bachelor,2022.2.4,59.87635719872794,
,,,,,,,,,,,,0,0,0,0,148,0,148,0,,,,,,,148,,,1,487.4778373440786,488.27841198623355,Y,d,go,None,0,,,,,,,,,,,,,,,,,29,001,27,m,100% B.Sc. Psychologie,2023-01-17_12h07.05.522,00_bat_bachelor,2022.2.4,59.87635719872794,
,,,,,,,,,,,,0,0,0,0,149,0,149,0,,,,,,,149,,,1,489.27926677369396,,X,l,go,l,1,0.6439992801024346,,,,,,,,,,,,,,,,29,001,27,m,100% B.Sc. Psychologie,2023-01-17_12h07.05.522,00_bat_bachelor,2022.2.4,59.87635719872794,
,,,,,,,,,,,,0,0,0,0,150,0,150,0,,,,,,,150,,,1,491.0305459245865,,Y,d,go,d,1,0.460048338980414,,,,,,,,,,,,,,,,29,001,27,m,100% B.Sc. Psychologie,2023-01-17_12h07.05.522,00_bat_bachelor,2022.2.4,59.87635719872794,
,,,,,,,,,,,,0,0,0,0,151,0,151,0,,,,,,,151,,,1,492.61484770190145,,X,l,go,l,1,0.5882606404775288,,,,,,,,,,,,,,,,29,001,27,m,100% B.Sc. Psychologie,2023-01-17_12h07.05.522,00_bat_bachelor,2022.2.4,59.87635719872794,
,,,,,,,,,,,,0,0,0,0,152,0,152,0,,,,,,,152,,,1,494.3498349818983,495.1502821089671,Y,d,go,None,0,,,,,,,,,,,,,,,,,29,001,27,m,100% B.Sc. Psychologie,2023-01-17_12h07.05.522,00_bat_bachelor,2022.2.4,59.87635719872794,
,,,,,,,,,,,,0,0,0,0,153,0,153,0,,,,,,,153,,,1,496.1509230783413,,Y,None,nogo,l,0,0.29993544693570584,,,,,,,,,,,,,,,,29,001,27,m,100% B.Sc. Psychologie,2023-01-17_12h07.05.522,00_bat_bachelor,2022.2.4,59.87635719872794,
,,,,,,,,,,,,0,0,0,0,154,0,154,0,,,,,,,154,,,1,497.56858978493256,,X,l,go,l,1,0.6262397735699778,,,,,,,,,,,,,,,,29,001,27,m,100% B.Sc. Psychologie,2023-01-17_12h07.05.522,00_bat_bachelor,2022.2.4,59.87635719872794,
,,,,,,,,,,,,0,0,0,0,155,0,155,0,,,,,,,155,,,1,499.31997075396066,,Y,d,go,d,1,0.5385889069730183,,,,,,,,,,,,,,,,29,001,27,m,100% B.Sc. Psychologie,2023-01-17_12h07.05.522,00_bat_bachelor,2022.2.4,59.87635719872794,
,,,,,,,,,,,,0,0,0,0,156,0,156,0,,,,,,,156,,,1,500.98822691480746,501.7885887085722,Y,None,nogo,None,1,,,,,,,,,,,,,,,,,29,001,27,m,100% B.Sc. Psychologie,2023-01-17_12h07.05.522,00_bat_bachelor,2022.2.4,59.87635719872794,
,,,,,,,,,,,,0,0,0,0,157,0,157,0,,,,,,,157,,,1,502.78923501128156,,X,l,go,l,1,0.49278189887991175,,,,,,,,,,,,,,,,29,001,27,m,100% B.Sc. Psychologie,2023-01-17_12h07.05.522,00_bat_bachelor,2022.2.4,59.87635719872794,
,,,,,,,,,,,,0,0,0,0,158,0,158,0,,,,,,,158,,,1,504.4075183478708,,Y,d,go,d,1,0.6192880193557357,,,,,,,,,,,,,,,,29,001,27,m,100% B.Sc. Psychologie,2023-01-17_12h07.05.522,00_bat_bachelor,2022.2.4,59.87635719872794,
,,,,,,,,,,,,0,0,0,0,159,0,159,0,,,,,,,159,,,1,506.15851192314585,,X,l,go,l,1,0.4673986384586897,,,,,,,,,,,,,,,,29,001,27,m,100% B.Sc. Psychologie,2023-01-17_12h07.05.522,00_bat_bachelor,2022.2.4,59.87635719872794,
,,,,,,,,,,,,0,0,0,0,160,0,160,0,,,,,,,160,,,1,507.7434057001665,,X,None,nogo,l,0,0.5163115844334243,,,,,,,,,,,,,,,,29,001,27,m,100% B.Sc. Psychologie,2023-01-17_12h07.05.522,00_bat_bachelor,2022.2.4,59.87635719872794,
,,,,,,,,,,,,0,0,0,0,161,0,161,0,,,,,,,161,,,1,509.3773462412937,,Y,d,go,d,1,0.49805268419731874,,,,,,,,,,,,,,,,29,001,27,m,100% B.Sc. Psychologie,2023-01-17_12h07.05.522,00_bat_bachelor,2022.2.4,59.87635719872794,
,,,,,,,,,,,,0,0,0,0,162,0,162,0,,,,,,,162,,,1,510.97873116182745,,X,l,go,l,1,0.4482573144050548,,,,,,,,,,,,,,,,29,001,27,m,100% B.Sc. Psychologie,2023-01-17_12h07.05.522,00_bat_bachelor,2022.2.4,59.87635719872794,
,,,,,,,,,,,,0,0,0,0,163,0,163,0,,,,,,,163,,,1,512.5296855613706,513.330304809555,Y,d,go,None,0,,,,,,,,,,,,,,,,,29,001,27,m,100% B.Sc. Psychologie,2023-01-17_12h07.05.522,00_bat_bachelor,2022.2.4,59.87635719872794,
,,,,,,,,,,,,0,0,0,0,164,0,164,0,,,,,,,164,,,1,514.3310665061581,,X,l,go,l,1,0.6480162478692364,,,,,,,,,,,,,,,,29,001,27,m,100% B.Sc. Psychologie,2023-01-17_12h07.05.522,00_bat_bachelor,2022.2.4,59.87635719872794,
,,,,,,,,,,,,0,0,0,0,165,0,165,0,,,,,,,165,,,1,516.0824242024682,516.882743329581,X,None,nogo,None,1,,,,,,,,,,,,,,,,,29,001,27,m,100% B.Sc. Psychologie,2023-01-17_12h07.05.522,00_bat_bachelor,2022.2.4,59.87635719872794,
,,,,,,,,,,,,0,0,0,0,166,0,166,0,,,,,,,166,,,1,517.8836194503674,,Y,d,go,d,1,0.4559920985484496,,,,,,,,,,,,,,,,29,001,27,m,100% B.Sc. Psychologie,2023-01-17_12h07.05.522,00_bat_bachelor,2022.2.4,59.87635719872794,
,,,,,,,,,,,,0,0,0,0,167,0,167,0,,,,,,,167,,,1,519.4517583264242,,X,l,go,l,1,0.519671097965329,,,,,,,,,,,,,,,,29,001,27,m,100% B.Sc. Psychologie,2023-01-17_12h07.05.522,00_bat_bachelor,2022.2.4,59.87635719872794,
,,,,,,,,,,,,0,0,0,0,168,0,168,0,,,,,,,168,,,1,521.0860581400921,,Y,d,go,d,1,0.5170907355786767,,,,,,,,,,,,,,,,29,001,27,m,100% B.Sc. Psychologie,2023-01-17_12h07.05.522,00_bat_bachelor,2022.2.4,59.87635719872794,
,,,,,,,,,,,,0,0,0,0,169,0,169,0,,,,,,,169,,,1,522.7039041435637,523.5044671493524,X,l,go,None,0,,,,,,,,,,,,,,,,,29,001,27,m,100% B.Sc. Psychologie,2023-01-17_12h07.05.522,00_bat_bachelor,2022.2.4,59.87635719872794,
,,,,,,,,,,,,0,0,0,0,170,0,170,0,,,,,,,170,,,1,524.505356845897,,Y,d,go,d,1,0.37751213659066707,,,,,,,,,,,,,,,,29,001,27,m,100% B.Sc. Psychologie,2023-01-17_12h07.05.522,00_bat_bachelor,2022.2.4,59.87635719872794,
,,,,,,,,,,,,0,0,0,0,171,0,171,0,,,,,,,171,,,1,525.9897992776823,,X,l,go,l,1,0.381027771247318,,,,,,,,,,,,,,,,29,001,27,m,100% B.Sc. Psychologie,2023-01-17_12h07.05.522,00_bat_bachelor,2022.2.4,59.87635719872794,
,,,,,,,,,,,,0,0,0,0,172,0,172,0,,,,,,,172,,,1,527.4742470427882,,X,None,nogo,None,1,,,,,,,,,,,,,,,,,29,001,27,m,100% B.Sc. Psychologie,2023-01-17_12h07.05.522,00_bat_bachelor,2022.2.4,59.87635719872794,
,,,,,,,,,,,,0,0,0,0,173,0,173,0,,,,,,,173,,,1,529.2756885936105,530.076325296337,Y,d,go,None,0,,,,,,,,,,,,,,,,,29,001,27,m,100% B.Sc. Psychologie,2023-01-17_12h07.05.522,00_bat_bachelor,2022.2.4,59.87635719872794,
,,,,,,,,,,,,0,0,0,0,174,0,174,0,,,,,,,174,,,1,531.0767471143045,,X,l,go,None,0,,,,,,,,,,,,,,,,,29,001,27,m,100% B.Sc. Psychologie,2023-01-17_12h07.05.522,00_bat_bachelor,2022.2.4,59.87635719872794,
,,,,,,,,,,,,0,0,0,0,175,0,175,0,,,,,,,175,,,1,532.8787118163891,533.6791637919232,X,None,nogo,None,1,,,,,,,,,,,,,,,,,29,001,27,m,100% B.Sc. Psychologie,2023-01-17_12h07.05.522,00_bat_bachelor,2022.2.4,59.87635719872794,
,,,,,,,,,,,,0,0,0,0,176,0,176,0,,,,,,,176,,,1,534.6800820945064,,Y,d,go,d,1,0.458790157790645,,,,,,,,,,,,,,,,29,001,27,m,100% B.Sc. Psychologie,2023-01-17_12h07.05.522,00_bat_bachelor,2022.2.4,59.87635719872794,
,,,,,,,,,,,,0,0,0,0,177,0,177,0,,,,,,,177,,,1,536.2476115163154,,X,l,go,l,1,0.3317351890873397,,,,,,,,,,,,,,,,29,001,27,m,100% B.Sc. Psychologie,2023-01-17_12h07.05.522,00_bat_bachelor,2022.2.4,59.87635719872794,
,,,,,,,,,,,,0,0,0,0,178,0,178,0,,,,,,,178,,,1,537.6820297299273,,Y,d,go,d,1,0.6248831681587035,,,,,,,,,,,,,,,,29,001,27,m,100% B.Sc. Psychologie,2023-01-17_12h07.05.522,00_bat_bachelor,2022.2.4,59.87635719872794,
,,,,,,,,,,,,0,0,0,0,179,0,179,0,,,,,,,179,,,1,539.4167314343213,,X,l,go,l,1,0.314017379496363,,,,,,,,,,,,,,,,29,001,27,m,100% B.Sc. Psychologie,2023-01-17_12h07.05.522,00_bat_bachelor,2022.2.4,59.87635719872794,
,,,,,,,,,,,,0,0,0,0,180,0,180,0,,,,,,,180,,,1,540.8344538984529,541.6351289041922,Y,d,go,None,0,,,,,,,,,,,,,,,,,29,001,27,m,100% B.Sc. Psychologie,2023-01-17_12h07.05.522,00_bat_bachelor,2022.2.4,59.87635719872794,
,,,,,,,,,,,,0,0,0,0,181,0,181,0,,,,,,,181,,,1,542.6355444191431,,X,l,go,l,1,0.39094388764351606,,,,,,,,,,,,,,,,29,001,27,m,100% B.Sc. Psychologie,2023-01-17_12h07.05.522,00_bat_bachelor,2022.2.4,59.87635719872794,
,,,,,,,,,,,,0,0,0,0,182,0,182,0,,,,,,,182,,,1,544.1370399335574,,Y,d,go,None,0,,,,,,,,,,,,,,,,,29,001,27,m,100% B.Sc. Psychologie,2023-01-17_12h07.05.522,00_bat_bachelor,2022.2.4,59.87635719872794,
,,,,,,,,,,,,0,0,0,0,183,0,183,0,,,,,,,183,,,1,545.938039787623,546.7389067932672,Y,None,nogo,None,1,,,,,,,,,,,,,,,,,29,001,27,m,100% B.Sc. Psychologie,2023-01-17_12h07.05.522,00_bat_bachelor,2022.2.4,59.87635719872794,
,,,,,,,,,,,,0,0,0,0,184,0,184,0,,,,,,,184,,,1,547.7396985504602,,X,l,go,l,1,0.5037908632366452,,,,,,,,,,,,,,,,29,001,27,m,100% B.Sc. Psychologie,2023-01-17_12h07.05.522,00_bat_bachelor,2022.2.4,59.87635719872794,
,,,,,,,,,,,,0,0,0,0,185,0,185,0,,,,,,,185,,,1,549.3577341295895,,Y,d,go,None,0,,,,,,,,,,,,,,,,,29,001,27,m,100% B.Sc. Psychologie,2023-01-17_12h07.05.522,00_bat_bachelor,2022.2.4,59.87635719872794,
,,,,,,,,,,,,0,0,0,0,186,0,186,0,,,,,,,186,,,1,551.1590884077159,,X,l,go,l,1,0.4287639905232936,,,,,,,,,,,,,,,,29,001,27,m,100% B.Sc. Psychologie,2023-01-17_12h07.05.522,00_bat_bachelor,2022.2.4,59.87635719872794,
,,,,,,,,,,,,0,0,0,0,187,0,187,0,,,,,,,187,,,1,552.6934973607276,,X,None,nogo,d,0,0.41473345186386723,,,,,,,,,,,,,,,,29,001,27,m,100% B.Sc. Psychologie,2023-01-17_12h07.05.522,00_bat_bachelor,2022.2.4,59.87635719872794,
,,,,,,,,,,,,0,0,0,0,188,0,188,0,,,,,,,188,,,1,554.2113249884569,,Y,d,go,d,1,0.32030683098128065,,,,,,,,,,,,,,,,29,001,27,m,100% B.Sc. Psychologie,2023-01-17_12h07.05.522,00_bat_bachelor,2022.2.4,59.87635719872794,
,,,,,,,,,,,,0,0,0,0,189,0,189,0,,,,,,,189,,,1,555.6454702324991,,X,l,go,l,1,0.4379121072997805,,,,,,,,,,,,,,,,29,001,27,m,100% B.Sc. Psychologie,2023-01-17_12h07.05.522,00_bat_bachelor,2022.2.4,59.87635719872794,
,,,,,,,,,,,,0,0,0,0,190,0,190,0,,,,,,,190,,,1,557.196631662242,,Y,d,go,None,0,,,,,,,,,,,,,,,,,29,001,27,m,100% B.Sc. Psychologie,2023-01-17_12h07.05.522,00_bat_bachelor,2022.2.4,59.87635719872794,
,,,,,,,,,,,,0,0,0,0,191,0,191,0,,,,,,,191,,,1,558.9983486068668,,X,l,go,l,1,0.38066704414086416,,,,,,,,,,,,,,,,29,001,27,m,100% B.Sc. Psychologie,2023-01-17_12h07.05.522,00_bat_bachelor,2022.2.4,59.87635719872794,
,,,,,,,,,,,,0,0,0,0,192,0,192,0,,,,,,,192,,,1,560.4824972206115,,X,None,nogo,None,1,,,,,,,,,,,,,,,,,29,001,27,m,100% B.Sc. Psychologie,2023-01-17_12h07.05.522,00_bat_bachelor,2022.2.4,59.87635719872794,
,,,,,,,,,,,,0,0,0,0,193,0,193,0,,,,,,,193,,,1,562.2838427714742,,X,None,nogo,None,1,,,,,,,,,,,,,,,,,29,001,27,m,100% B.Sc. Psychologie,2023-01-17_12h07.05.522,00_bat_bachelor,2022.2.4,59.87635719872794,
,,,,,,,,,,,,0,0,0,0,194,0,194,0,,,,,,,194,,,1,564.0854147464706,,Y,d,go,d,1,0.5584846549027134,,,,,,,,,,,,,,,,29,001,27,m,100% B.Sc. Psychologie,2023-01-17_12h07.05.522,00_bat_bachelor,2022.2.4,59.87635719872794,
,,,,,,,,,,,,0,0,0,0,195,0,195,0,,,,,,,195,,,1,565.7533562408062,,X,l,go,l,1,0.4903319606673904,,,,,,,,,,,,,,,,29,001,27,m,100% B.Sc. Psychologie,2023-01-17_12h07.05.522,00_bat_bachelor,2022.2.4,59.87635719872794,
,,,,,,,,,,,,0,0,0,0,196,0,196,0,,,,,,,196,,,1,567.3546514644113,,Y,d,go,d,1,0.44089392403839156,,,,,,,,,,,,,,,,29,001,27,m,100% B.Sc. Psychologie,2023-01-17_12h07.05.522,00_bat_bachelor,2022.2.4,59.87635719872794,
,,,,,,,,,,,,0,0,0,0,197,0,197,0,,,,,,,197,,,1,568.9055559245899,,Y,None,nogo,l,0,0.25036601642204914,,,,,,,,,,,,,,,,29,001,27,m,100% B.Sc. Psychologie,2023-01-17_12h07.05.522,00_bat_bachelor,2022.2.4,59.87635719872794,
,,,,,,,,,,,,0,0,0,0,198,0,198,0,,,,,,,198,,,1,570.2569686026836,,X,l,go,d,0,0.3705807460064534,,,,,,,,,,,,,,,,29,001,27,m,100% B.Sc. Psychologie,2023-01-17_12h07.05.522,00_bat_bachelor,2022.2.4,59.87635719872794,
,,,,,,,,,,,,0,0,0,0,199,0,199,0,,,,,,,199,,,1,571.7410532164649,,Y,d,go,d,1,0.6620283622760326,,,,,,,,,,,,,,,,29,001,27,m,100% B.Sc. Psychologie,2023-01-17_12h07.05.522,00_bat_bachelor,2022.2.4,59.87635719872794,
,,,,,,,,,,,,0,0,0,0,200,0,200,0,,,,,,,200,,,1,573.5097127225745,,X,l,go,l,1,0.4129230285034282,,,,,,,,,,,,,,,,29,001,27,m,100% B.Sc. Psychologie,2023-01-17_12h07.05.522,00_bat_bachelor,2022.2.4,59.87635719872794,
,,,,,,,,,,,,0,0,0,0,201,0,201,0,,,,,,,201,,,1,575.0442133119068,,Y,d,go,d,1,0.30221374885877594,,,,,,,,,,,,,,,,29,001,27,m,100% B.Sc. Psychologie,2023-01-17_12h07.05.522,00_bat_bachelor,2022.2.4,59.87635719872794,
,,,,,,,,,,,,0,0,0,0,202,0,202,0,,,,,,,202,,,1,576.4784550407494,,X,l,go,l,1,0.2607209204870742,,,,,,,,,,,,,,,,29,001,27,m,100% B.Sc. Psychologie,2023-01-17_12h07.05.522,00_bat_bachelor,2022.2.4,59.87635719872794,
,,,,,,,,,,,,0,0,0,0,203,0,203,0,,,,,,,203,,,1,577.8463840744807,,X,None,nogo,d,0,0.34865639300551265,,,,,,,,,,,,,,,,29,001,27,m,100% B.Sc. Psychologie,2023-01-17_12h07.05.522,00_bat_bachelor,2022.2.4,59.87635719872794,
,,,,,,,,,,,,0,0,0,0,204,0,204,0,,,,,,,204,,,1,579.2974224012578,,Y,d,go,d,1,0.5460647821309976,,,,,,,,,,,,,,,,29,001,27,m,100% B.Sc. Psychologie,2023-01-17_12h07.05.522,00_bat_bachelor,2022.2.4,59.87635719872794,
,,,,,,,,,,,,0,0,0,0,205,0,205,0,,,,,,,205,,,1,580.9487229339575,,X,l,go,l,1,0.4939644437545212,,,,,,,,,,,,,,,,29,001,27,m,100% B.Sc. Psychologie,2023-01-17_12h07.05.522,00_bat_bachelor,2022.2.4,59.87635719872794,
,,,,,,,,,,,,0,0,0,0,206,0,206,0,,,,,,,206,,,1,582.5498998545954,583.350541890657,X,None,nogo,None,1,,,,,,,,,,,,,,,,,29,001,27,m,100% B.Sc. Psychologie,2023-01-17_12h07.05.522,00_bat_bachelor,2022.2.4,59.87635719872794,
,,,,,,,,,,,,0,0,0,0,207,0,207,0,,,,,,,207,,,1,584.3513704963116,,Y,d,go,d,1,0.4519877368438756,,,,,,,,,,,,,,,,29,001,27,m,100% B.Sc. Psychologie,2023-01-17_12h07.05.522,00_bat_bachelor,2022.2.4,59.87635719872794,
,,,,,,,,,,,,0,0,0,0,208,0,208,0,,,,,,,208,,,1,585.9189062211371,,X,l,go,l,1,0.29302005634235684,,,,,,,,,,,,,,,,29,001,27,m,100% B.Sc. Psychologie,2023-01-17_12h07.05.522,00_bat_bachelor,2022.2.4,59.87635719872794,
,,,,,,,,,,,,0,0,0,0,209,0,209,0,,,,,,,209,,,1,587.3195979056618,,X,None,nogo,None,1,,,,,,,,,,,,,,,,,29,001,27,m,100% B.Sc. Psychologie,2023-01-17_12h07.05.522,00_bat_bachelor,2022.2.4,59.87635719872794,
,,,,,,,,,,,,0,0,0,0,210,0,210,0,,,,,,,210,,,1,589.1212290321419,,Y,d,go,d,1,0.3382340950338403,,,,,,,,,,,,,,,,29,001,27,m,100% B.Sc. Psychologie,2023-01-17_12h07.05.522,00_bat_bachelor,2022.2.4,59.87635719872794,
,,,,,,,,,,,,0,0,0,0,211,0,211,0,,,,,,,211,,,1,590.572387601278,,X,l,go,l,1,0.24706129074911587,,,,,,,,,,,,,,,,29,001,27,m,100% B.Sc. Psychologie,2023-01-17_12h07.05.522,00_bat_bachelor,2022.2.4,59.87635719872794,
,,,,,,,,,,,,0,0,0,0,212,0,212,0,,,,,,,212,,,1,591.9233411280875,592.7236961339659,X,None,nogo,None,1,,,,,,,,,,,,,,,,,29,001,27,m,100% B.Sc. Psychologie,2023-01-17_12h07.05.522,00_bat_bachelor,2022.2.4,59.87635719872794,
,,,,,,,,,,,,0,0,0,0,213,0,213,0,,,,,,,213,,,1,593.7247443758824,,Y,d,go,d,1,0.4065336982603185,,,,,,,,,,,,,,,,29,001,27,m,100% B.Sc. Psychologie,2023-01-17_12h07.05.522,00_bat_bachelor,2022.2.4,59.87635719872794,
,,,,,,,,,,,,0,0,0,0,214,0,214,0,,,,,,,214,,,1,595.2425734581484,,X,l,go,l,1,0.32802270603133366,,,,,,,,,,,,,,,,29,001,27,m,100% B.Sc. Psychologie,2023-01-17_12h07.05.522,00_bat_bachelor,2022.2.4,59.87635719872794,
,,,,,,,,,,,,0,0,0,0,215,0,215,0,,,,,,,215,,,1,596.6767269446282,597.4774552836607,X,None,nogo,None,1,,,,,,,,,,,,,,,,,29,001,27,m,100% B.Sc. Psychologie,2023-01-17_12h07.05.522,00_bat_bachelor,2022.2.4,59.87635719872794,
,,,,,,,,,,,,0,0,0,0,216,0,216,0,,,,,,,216,,,1,598.4784608589398,,Y,d,go,d,1,0.4369976835005218,,,,,,,,,,,,,,,,29,001,27,m,100% B.Sc. Psychologie,2023-01-17_12h07.05.522,00_bat_bachelor,2022.2.4,59.87635719872794,
,,,,,,,,,,,,0,0,0,0,217,0,217,0,,,,,,,217,,,1,600.0294133190764,,X,l,go,l,1,0.181403625610983,,,,,,,,,,,,,,,,29,001,27,m,100% B.Sc. Psychologie,2023-01-17_12h07.05.522,00_bat_bachelor,2022.2.4,59.87635719872794,
,,,,,,,,,,,,0,0,0,0,218,0,218,0,,,,,,,218,,,1,601.3139276053698,,Y,d,go,d,1,0.44941464716976043,,,,,,,,,,,,,,,,29,001,27,m,100% B.Sc. Psychologie,2023-01-17_12h07.05.522,00_bat_bachelor,2022.2.4,59.87635719872794,
,,,,,,,,,,,,0,0,0,0,219,0,219,0,,,,,,,219,,,1,602.8651089138875,,X,l,go,l,1,0.25813910354918335,,,,,,,,,,,,,,,,29,001,27,m,100% B.Sc. Psychologie,2023-01-17_12h07.05.522,00_bat_bachelor,2022.2.4,59.87635719872794,
,,,,,,,,,,,,0,0,0,0,220,0,220,0,,,,,,,220,,,1,604.2327072811167,,Y,d,go,d,1,0.29874708387069404,,,,,,,,,,,,,,,,29,001,27,m,100% B.Sc. Psychologie,2023-01-17_12h07.05.522,00_bat_bachelor,2022.2.4,59.87635719872794,
,,,,,,,,,,,,0,0,0,0,221,0,221,0,,,,,,,221,,,1,605.6336893897387,,X,l,go,l,1,0.545068903840729,,,,,,,,,,,,,,,,29,001,27,m,100% B.Sc. Psychologie,2023-01-17_12h07.05.522,00_bat_bachelor,2022.2.4,59.87635719872794,
,,,,,,,,,,,,0,0,0,0,222,0,222,0,,,,,,,222,,,1,607.2851780435594,,Y,d,go,None,0,,,,,,,,,,,,,,,,,29,001,27,m,100% B.Sc. Psychologie,2023-01-17_12h07.05.522,00_bat_bachelor,2022.2.4,59.87635719872794,
,,,,,,,,,,,,0,0,0,0,223,0,223,0,,,,,,,223,,,1,609.0865444428928,,Y,None,nogo,None,1,,,,,,,,,,,,,,,,,29,001,27,m,100% B.Sc. Psychologie,2023-01-17_12h07.05.522,00_bat_bachelor,2022.2.4,59.87635719872794,
,,,,,,,,,,,,0,0,0,0,224,0,224,0,,,,,,,224,,,1,610.8877765392681,,X,l,go,d,0,0.5074660129757831,,,,,,,,,,,,,,,,29,001,27,m,100% B.Sc. Psychologie,2023-01-17_12h07.05.522,00_bat_bachelor,2022.2.4,59.87635719872794,
,,,,,,,,,,,,0,0,0,0,225,0,225,0,,,,,,,225,,,1,612.5057001184614,,Y,d,go,d,1,0.6493752774986206,,,,,,,,,,,,,,,,29,001,27,m,100% B.Sc. Psychologie,2023-01-17_12h07.05.522,00_bat_bachelor,2022.2.4,59.87635719872794,
,,,,,,,,,,,,0,0,0,0,226,0,226,0,,,,,,,226,,,1,614.256775148242,,Y,None,nogo,None,1,,,,,,,,,,,,,,,,,29,001,27,m,100% B.Sc. Psychologie,2023-01-17_12h07.05.522,00_bat_bachelor,2022.2.4,59.87635719872794,
,,,,,,,,,,,,0,0,0,0,227,0,227,0,,,,,,,227,,,1,616.05856578979,,X,l,go,l,1,0.24865595664596185,,,,,,,,,,,,,,,,29,001,27,m,100% B.Sc. Psychologie,2023-01-17_12h07.05.522,00_bat_bachelor,2022.2.4,59.87635719872794,
,,,,,,,,,,,,0,0,0,0,228,0,228,0,,,,,,,228,,,1,617.4095227105427,,Y,d,go,d,1,0.4333870185801061,,,,,,,,,,,,,,,,29,001,27,m,100% B.Sc. Psychologie,2023-01-17_12h07.05.522,00_bat_bachelor,2022.2.4,59.87635719872794,
,,,,,,,,,,,,0,0,0,0,229,0,229,0,,,,,,,229,,,1,618.9436519061128,,X,l,go,l,1,0.3232037992711412,,,,,,,,,,,,,,,,29,001,27,m,100% B.Sc. Psychologie,2023-01-17_12h07.05.522,00_bat_bachelor,2022.2.4,59.87635719872794,
,,,,,,,,,,,,0,0,0,0,230,0,230,0,,,,,,,230,,,1,620.3784948467946,,Y,d,go,d,1,0.26519170618848875,,,,,,,,,,,,,,,,29,001,27,m,100% B.Sc. Psychologie,2023-01-17_12h07.05.522,00_bat_bachelor,2022.2.4,59.87635719872794,
,,,,,,,,,,,,0,0,0,0,231,0,231,0,,,,,,,231,,,1,621.74608933524,,X,l,go,l,1,0.19301671089488082,,,,,,,,,,,,,,,,29,001,27,m,100% B.Sc. Psychologie,2023-01-17_12h07.05.522,00_bat_bachelor,2022.2.4,59.87635719872794,
,,,,,,,,,,,,0,0,0,0,232,0,232,0,,,,,,,232,,,1,623.046822280332,,X,None,nogo,d,0,0.2676498868240742,,,,,,,,,,,,,,,,29,001,27,m,100% B.Sc. Psychologie,2023-01-17_12h07.05.522,00_bat_bachelor,2022.2.4,59.87635719872794,
,,,,,,,,,,,,0,0,0,0,233,0,233,0,,,,,,,233,,,1,624.431577002877,,Y,d,go,d,1,0.5003702588292072,,,,,,,,,,,,,,,,29,001,27,m,100% B.Sc. Psychologie,2023-01-17_12h07.05.522,00_bat_bachelor,2022.2.4,59.87635719872794,
,,,,,,,,,,,,0,0,0,0,234,0,234,0,,,,,,,234,,,1,626.0326996205113,,X,l,go,l,1,0.41839454100409057,,,,,,,,,,,,,,,,29,001,27,m,100% B.Sc. Psychologie,2023-01-17_12h07.05.522,00_bat_bachelor,2022.2.4,59.87635719872794,
,,,,,,,,,,,,0,0,0,0,235,0,235,0,,,,,,,235,,,1,627.5671973007557,,Y,d,go,d,1,0.564580167105305,,,,,,,,,,,,,,,,29,001,27,m,100% B.Sc. Psychologie,2023-01-17_12h07.05.522,00_bat_bachelor,2022.2.4,59.87635719872794,
,,,,,,,,,,,,0,0,0,0,236,0,236,0,,,,,,,236,,,1,629.2351368556992,,X,l,go,l,1,0.22483875606849324,,,,,,,,,,,,,,,,29,001,27,m,100% B.Sc. Psychologie,2023-01-17_12h07.05.522,00_bat_bachelor,2022.2.4,59.87635719872794,
,,,,,,,,,,,,0,0,0,0,237,0,237,0,,,,,,,237,,,1,630.5696899056056,,Y,d,go,d,1,0.23487172089517117,,,,,,,,,,,,,,,,29,001,27,m,100% B.Sc. Psychologie,2023-01-17_12h07.05.522,00_bat_bachelor,2022.2.4,59.87635719872794,
,,,,,,,,,,,,0,0,0,0,238,0,238,0,,,,,,,238,,,1,631.9213241593679,,X,l,go,l,1,0.1611936960107414,,,,,,,,,,,,,,,,29,001,27,m,100% B.Sc. Psychologie,2023-01-17_12h07.05.522,00_bat_bachelor,2022.2.4,59.87635719872794,
,,,,,,,,,,,,0,0,0,0,239,0,239,0,,,,,,,239,,,1,633.205536870053,,Y,d,go,d,1,0.20480288699036464,,,,,,,,,,,,,,,,29,001,27,m,100% B.Sc. Psychologie,2023-01-17_12h07.05.522,00_bat_bachelor,2022.2.4,59.87635719872794,
,,,,,,,,,,,,0,0,0,0,240,0,240,0,,,,,,,240,,,1,634.5394998596457,,X,l,go,l,1,0.3273628275783267,,,,,,,,,,,,,,,,29,001,27,m,100% B.Sc. Psychologie,2023-01-17_12h07.05.522,00_bat_bachelor,2022.2.4,59.87635719872794,
,,,,,,,,,,,,0,0,0,0,241,0,241,0,,,,,,,241,,,1,635.9736092249223,,X,None,nogo,d,0,0.3013560523104388,,,,,,,,,,,,,,,,29,001,27,m,100% B.Sc. Psychologie,2023-01-17_12h07.05.522,00_bat_bachelor,2022.2.4,59.87635719872794,
,,,,,,,,,,,,0,0,0,0,242,0,242,0,,,,,,,242,,,1,637.3913966587279,,Y,d,go,l,0,0.6433049774204846,,,,,,,,,,,,,,,,29,001,27,m,100% B.Sc. Psychologie,2023-01-17_12h07.05.522,00_bat_bachelor,2022.2.4,59.87635719872794,
,,,,,,,,,,,,0,0,0,0,243,0,243,0,,,,,,,243,,,1,639.1425473248382,,X,l,go,l,1,0.6044279053603532,,,,,,,,,,,,,,,,29,001,27,m,100% B.Sc. Psychologie,2023-01-17_12h07.05.522,00_bat_bachelor,2022.2.4,59.87635719872794,
,,,,,,,,,,,,0,0,0,0,244,0,244,0,,,,,,,244,,,1,640.8607142493565,,Y,d,go,d,1,0.4862592353747459,,,,,,,,,,,,,,,,29,001,27,m,100% B.Sc. Psychologie,2023-01-17_12h07.05.522,00_bat_bachelor,2022.2.4,59.87635719872794,
,,,,,,,,,,,,0,0,0,0,245,0,245,0,,,,,,,245,,,1,642.46161868528,,Y,None,nogo,d,0,0.45328228166908957,,,,,,,,,,,,,,,,29,001,27,m,100% B.Sc. Psychologie,2023-01-17_12h07.05.522,00_bat_bachelor,2022.2.4,59.87635719872794,
,,,,,,,,,,,,0,0,0,0,246,0,246,0,,,,,,,246,,,1,644.0297241068038,,X,l,go,l,1,0.3899863123515388,,,,,,,,,,,,,,,,29,001,27,m,100% B.Sc. Psychologie,2023-01-17_12h07.05.522,00_bat_bachelor,2022.2.4,59.87635719872794,
,,,,,,,,,,,,0,0,0,0,247,0,247,0,,,,,,,247,,,1,645.5308744092763,,Y,d,go,d,1,0.34478439488157164,,,,,,,,,,,,,,,,29,001,27,m,100% B.Sc. Psychologie,2023-01-17_12h07.05.522,00_bat_bachelor,2022.2.4,59.87635719872794,
,,,,,,,,,,,,0,0,0,0,248,0,248,0,,,,,,,248,,,1,646.9819646148098,,X,l,go,l,1,0.4298107779031852,,,,,,,,,,,,,,,,29,001,27,m,100% B.Sc. Psychologie,2023-01-17_12h07.05.522,00_bat_bachelor,2022.2.4,59.87635719872794,
,,,,,,,,,,,,0,0,0,0,249,0,249,0,,,,,,,249,,,1,648.5165078707942,,X,None,nogo,d,0,0.19028071220964193,,,,,,,,,,,,,,,,29,001,27,m,100% B.Sc. Psychologie,2023-01-17_12h07.05.522,00_bat_bachelor,2022.2.4,59.87635719872794,
,,,,,,,,,,,,1,0,1,0,0,0,0,0,,,,,,,0,,,0.2,665.779386288792,,X,l,go,None,0,,,,,,,,,648.8222803286044,space,16.736201417210395,,,,,,29,001,27,m,100% B.Sc. Psychologie,2023-01-17_12h07.05.522,00_bat_bachelor,2022.2.4,59.87635719872794,
,,,,,,,,,,,,1,0,1,0,1,0,1,0,,,,,,,1,,,0.2,666.7803390156041,,Y,d,go,d,1,0.39084400891442783,,,,,,,,,,,,,,,,29,001,27,m,100% B.Sc. Psychologie,2023-01-17_12h07.05.522,00_bat_bachelor,2022.2.4,59.87635719872794,
,,,,,,,,,,,,1,0,1,0,2,0,2,0,,,,,,,2,,,0.2,667.4809747971158,,X,l,go,None,0,,,,,,,,,,,,,,,,,29,001,27,m,100% B.Sc. Psychologie,2023-01-17_12h07.05.522,00_bat_bachelor,2022.2.4,59.87635719872794,
,,,,,,,,,,,,1,0,1,0,3,0,3,0,,,,,,,3,,,0.2,668.4814426756639,,Y,d,go,l,0,0.35354317851306405,,,,,,,,,,,,,,,,29,001,27,m,100% B.Sc. Psychologie,2023-01-17_12h07.05.522,00_bat_bachelor,2022.2.4,59.87635719872794,
,,,,,,,,,,,,1,0,1,0,4,0,4,0,,,,,,,4,,,0.2,669.1489492611145,,X,l,go,d,0,0.5674965293292189,,,,,,,,,,,,,,,,29,001,27,m,100% B.Sc. Psychologie,2023-01-17_12h07.05.522,00_bat_bachelor,2022.2.4,59.87635719872794,
,,,,,,,,,,,,1,0,1,0,5,0,5,0,,,,,,,5,,,0.2,670.0163393860275,,X,None,nogo,d,0,0.5477205389179289,,,,,,,,,,,,,,,,29,001,27,m,100% B.Sc. Psychologie,2023-01-17_12h07.05.522,00_bat_bachelor,2022.2.4,59.87635719872794,
,,,,,,,,,,,,1,0,1,0,6,0,6,0,,,,,,,6,,,0.2,670.8668660039548,,Y,d,go,l,0,0.06426380362245254,,,,,,,,,,,,,,,,29,001,27,m,100% B.Sc. Psychologie,2023-01-17_12h07.05.522,00_bat_bachelor,2022.2.4,59.87635719872794,
,,,,,,,,,,,,1,0,1,0,7,0,7,0,,,,,,,7,,,0.2,671.2335227958683,,X,l,go,d,0,0.5290146085899323,,,,,,,,,,,,,,,,29,001,27,m,100% B.Sc. Psychologie,2023-01-17_12h07.05.522,00_bat_bachelor,2022.2.4,59.87635719872794,
,,,,,,,,,,,,1,0,1,0,8,0,8,0,,,,,,,8,,,0.2,672.0678346337809,,Y,d,go,l,0,0.07906137220561504,,,,,,,,,,,,,,,,29,001,27,m,100% B.Sc. Psychologie,2023-01-17_12h07.05.522,00_bat_bachelor,2022.2.4,59.87635719872794,
,,,,,,,,,,,,1,0,1,0,9,0,9,0,,,,,,,9,,,0.2,672.4514402659697,,X,l,go,l,1,0.44843282947840635,,,,,,,,,,,,,,,,29,001,27,m,100% B.Sc. Psychologie,2023-01-17_12h07.05.522,00_bat_bachelor,2022.2.4,59.87635719872794,
,,,,,,,,,,,,1,0,1,0,10,0,10,0,,,,,,,10,,,0.2,673.2019708111766,,X,None,nogo,d,0,0.27323049017286394,,,,,,,,,,,,,,,,29,001,27,m,100% B.Sc. Psychologie,2023-01-17_12h07.05.522,00_bat_bachelor,2022.2.4,59.87635719872794,
,,,,,,,,,,,,1,0,1,0,11,0,11,0,,,,,,,11,,,0.2,673.7856883463392,,Y,d,go,None,0,,,,,,,,,,,,,,,,,29,001,27,m,100% B.Sc. Psychologie,2023-01-17_12h07.05.522,00_bat_bachelor,2022.2.4,59.87635719872794,
,,,,,,,,,,,,1,0,1,0,12,0,12,0,,,,,,,12,,,0.2,674.7862168309366,,X,l,go,l,1,0.04892562923487276,,,,,,,,,,,,,,,,29,001,27,m,100% B.Sc. Psychologie,2023-01-17_12h07.05.522,00_bat_bachelor,2022.2.4,59.87635719872794,
,,,,,,,,,,,,1,0,1,0,13,0,13,0,,,,,,,13,,,0.2,675.1368624791066,,Y,d,go,d,1,0.17816580898943357,,,,,,,,,,,,,,,,29,001,27,m,100% B.Sc. Psychologie,2023-01-17_12h07.05.522,00_bat_bachelor,2022.2.4,59.87635719872794,
,,,,,,,,,,,,1,0,1,0,14,0,14,0,,,,,,,14,,,0.2,675.6204661234224,,X,l,go,l,1,0.33496379357529804,,,,,,,,,,,,,,,,29,001,27,m,100% B.Sc. Psychologie,2023-01-17_12h07.05.522,00_bat_bachelor,2022.2.4,59.87635719872794,
,,,,,,,,,,,,1,0,1,0,15,0,15,0,,,,,,,15,,,0.2,676.2707150202623,,Y,d,go,d,1,0.22760530018422287,,,,,,,,,,,,,,,,29,001,27,m,100% B.Sc. Psychologie,2023-01-17_12h07.05.522,00_bat_bachelor,2022.2.4,59.87635719872794,
,,,,,,,,,,,,1,0,1,0,16,0,16,0,,,,,,,16,,,0.2,676.8046769431967,,X,l,go,None,0,,,,,,,,,,,,,,,,,29,001,27,m,100% B.Sc. Psychologie,2023-01-17_12h07.05.522,00_bat_bachelor,2022.2.4,59.87635719872794,
,,,,,,,,,,,,1,0,1,0,17,0,17,0,,,,,,,17,,,0.2,677.8054609428073,,Y,d,go,l,0,0.2782064877683297,,,,,,,,,,,,,,,,29,001,27,m,100% B.Sc. Psychologie,2023-01-17_12h07.05.522,00_bat_bachelor,2022.2.4,59.87635719872794,
,,,,,,,,,,,,1,0,1,0,18,0,18,0,,,,,,,18,,,0.2,678.3892545991548,,X,l,go,d,0,0.1902239849587204,,,,,,,,,,,,,,,,29,001,27,m,100% B.Sc. Psychologie,2023-01-17_12h07.05.522,00_bat_bachelor,2022.2.4,59.87635719872794,
,,,,,,,,,,,,1,0,1,0,19,0,19,0,,,,,,,19,,,0.2,678.8896049020113,,Y,d,go,None,0,,,,,,,,,,,,,,,,,29,001,27,m,100% B.Sc. Psychologie,2023-01-17_12h07.05.522,00_bat_bachelor,2022.2.4,59.87635719872794,
,,,,,,,,,,,,1,0,1,0,20,0,20,0,,,,,,,20,,,0.2,679.8904960530926,,Y,None,nogo,d,0,0.2410831118177157,,,,,,,,,,,,,,,,29,001,27,m,100% B.Sc. Psychologie,2023-01-17_12h07.05.522,00_bat_bachelor,2022.2.4,59.87635719872794,
,,,,,,,,,,,,1,0,1,0,21,0,21,0,,,,,,,21,,,0.2,680.4407658469136,,X,l,go,d,0,0.5065229831379838,,,,,,,,,,,,,,,,29,001,27,m,100% B.Sc. Psychologie,2023-01-17_12h07.05.522,00_bat_bachelor,2022.2.4,59.87635719872794,
,,,,,,,,,,,,1,0,1,0,22,0,22,0,,,,,,,22,,,0.2,681.2581157536479,,Y,d,go,l,0,0.28093472887121607,,,,,,,,,,,,,,,,29,001,27,m,100% B.Sc. Psychologie,2023-01-17_12h07.05.522,00_bat_bachelor,2022.2.4,59.87635719872794,
,,,,,,,,,,,,1,0,1,0,23,0,23,0,,,,,,,23,,,0.2,681.8419719554076,,X,l,go,d,0,0.6092332363623427,,,,,,,,,,,,,,,,29,001,27,m,100% B.Sc. Psychologie,2023-01-17_12h07.05.522,00_bat_bachelor,2022.2.4,59.87635719872794,
,,,,,,,,,,,,1,0,1,0,24,0,24,0,,,,,,,24,,,0.2,682.7592665409611,,X,None,nogo,l,0,0.34772112072096206,,,,,,,,,,,,,,,,29,001,27,m,100% B.Sc. Psychologie,2023-01-17_12h07.05.522,00_bat_bachelor,2022.2.4,59.87635719872794,
,,,,,,,,,,,,1,0,1,0,25,0,25,0,,,,,,,25,,,0.2,683.4097995588963,,Y,d,go,None,0,,,,,,,,,,,,,,,,,29,001,27,m,100% B.Sc. Psychologie,2023-01-17_12h07.05.522,00_bat_bachelor,2022.2.4,59.87635719872794,
,,,,,,,,,,,,1,0,1,0,26,0,26,0,,,,,,,26,,,0.2,684.4105636797321,,X,l,go,d,0,0.37688910658471286,,,,,,,,,,,,,,,,29,001,27,m,100% B.Sc. Psychologie,2023-01-17_12h07.05.522,00_bat_bachelor,2022.2.4,59.87635719872794,
,,,,,,,,,,,,1,0,1,0,27,0,27,0,,,,,,,27,,,0.2,685.0943931663642,,Y,d,go,l,0,0.6372395258076722,,,,,,,,,,,,,,,,29,001,27,m,100% B.Sc. Psychologie,2023-01-17_12h07.05.522,00_bat_bachelor,2022.2.4,59.87635719872794,
,,,,,,,,,,,,1,0,1,0,28,0,28,0,,,,,,,28,,,0.2,686.0451762205339,,Y,None,nogo,d,0,0.5980429387418553,,,,,,,,,,,,,,,,29,001,27,m,100% B.Sc. Psychologie,2023-01-17_12h07.05.522,00_bat_bachelor,2022.2.4,59.87635719872794,
,,,,,,,,,,,,1,0,1,0,29,0,29,0,,,,,,,29,,,0.2,686.9457992990065,,X,l,go,None,0,,,,,,,,,,,,,,,,,29,001,27,m,100% B.Sc. Psychologie,2023-01-17_12h07.05.522,00_bat_bachelor,2022.2.4,59.87635719872794,
,,,,,,,,,,,,1,0,1,0,30,0,30,0,,,,,,,30,,,0.2,687.9462516624335,,Y,d,go,d,1,0.6491435200441629,,,,,,,,,,,,,,,,29,001,27,m,100% B.Sc. Psychologie,2023-01-17_12h07.05.522,00_bat_bachelor,2022.2.4,59.87635719872794,
,,,,,,,,,,,,1,0,1,0,31,0,31,0,,,,,,,31,,,0.2,688.8969707166252,,Y,None,nogo,None,1,,,,,,,,,,,,,,,,,29,001,27,m,100% B.Sc. Psychologie,2023-01-17_12h07.05.522,00_bat_bachelor,2022.2.4,59.87635719872794,
,,,,,,,,,,,,1,0,1,0,32,0,32,0,,,,,,,32,,,0.2,689.8979602918989,,X,l,go,d,0,0.3778452273400035,,,,,,,,,,,,,,,,29,001,27,m,100% B.Sc. Psychologie,2023-01-17_12h07.05.522,00_bat_bachelor,2022.2.4,59.87635719872794,
,,,,,,,,,,,,1,0,1,0,33,0,33,0,,,,,,,33,,,0.2,690.5818503845658,,Y,d,go,l,0,0.31759119594062213,,,,,,,,,,,,,,,,29,001,27,m,100% B.Sc. Psychologie,2023-01-17_12h07.05.522,00_bat_bachelor,2022.2.4,59.87635719872794,
,,,,,,,,,,,,1,0,1,0,34,0,34,0,,,,,,,34,,,0.2,691.2153885016305,,X,l,go,d,0,0.5475217511266237,,,,,,,,,,,,,,,,29,001,27,m,100% B.Sc. Psychologie,2023-01-17_12h07.05.522,00_bat_bachelor,2022.2.4,59.87635719872794,
,,,,,,,,,,,,1,0,1,0,35,0,35,0,,,,,,,35,,,0.2,692.066296695135,,X,None,nogo,l,0,0.38506267838238273,,,,,,,,,,,,,,,,29,001,27,m,100% B.Sc. Psychologie,2023-01-17_12h07.05.522,00_bat_bachelor,2022.2.4,59.87635719872794,
,,,,,,,,,,,,1,0,1,0,36,0,36,0,,,,,,,36,,,0.2,692.7668282342784,,Y,d,go,None,0,,,,,,,,,,,,,,,,,29,001,27,m,100% B.Sc. Psychologie,2023-01-17_12h07.05.522,00_bat_bachelor,2022.2.4,59.87635719872794,
,,,,,,,,,,,,1,0,1,0,37,0,37,0,,,,,,,37,,,0.2,693.7674910218338,,X,l,go,d,0,0.39546461272402667,,,,,,,,,,,,,,,,29,001,27,m,100% B.Sc. Psychologie,2023-01-17_12h07.05.522,00_bat_bachelor,2022.2.4,59.87635719872794,
,,,,,,,,,,,,1,0,1,0,38,0,38,0,,,,,,,38,,,0.2,694.4678989246604,,X,None,nogo,None,1,,,,,,,,,,,,,,,,,29,001,27,m,100% B.Sc. Psychologie,2023-01-17_12h07.05.522,00_bat_bachelor,2022.2.4,59.87635719872794,
,,,,,,,,,,,,1,0,1,0,39,0,39,0,,,,,,,39,,,0.2,695.4689820756466,,Y,d,go,d,1,0.6619973319902783,,,,,,,,,,,,,,,,29,001,27,m,100% B.Sc. Psychologie,2023-01-17_12h07.05.522,00_bat_bachelor,2022.2.4,59.87635719872794,
,,,,,,,,,,,,1,0,1,0,40,0,40,0,,,,,,,40,,,0.2,696.4362970005895,,X,l,go,l,1,0.398324247697019,,,,,,,,,,,,,,,,29,001,27,m,100% B.Sc. Psychologie,2023-01-17_12h07.05.522,00_bat_bachelor,2022.2.4,59.87635719872794,
,,,,,,,,,,,,1,0,1,0,41,0,41,0,,,,,,,41,,,0.2,697.1368450245645,,X,None,nogo,d,0,0.21056385390693322,,,,,,,,,,,,,,,,29,001,27,m,100% B.Sc. Psychologie,2023-01-17_12h07.05.522,00_bat_bachelor,2022.2.4,59.87635719872794,
,,,,,,,,,,,,1,0,1,0,42,0,42,0,,,,,,,42,,,0.2,697.6540016223153,,Y,d,go,l,0,0.6379857072606683,,,,,,,,,,,,,,,,29,001,27,m,100% B.Sc. Psychologie,2023-01-17_12h07.05.522,00_bat_bachelor,2022.2.4,59.87635719872794,
,,,,,,,,,,,,1,0,1,0,43,0,43,0,,,,,,,43,,,0.2,698.6046174038347,,X,l,go,d,0,0.15058667084667832,,,,,,,,,,,,,,,,29,001,27,m,100% B.Sc. Psychologie,2023-01-17_12h07.05.522,00_bat_bachelor,2022.2.4,59.87635719872794,
,,,,,,,,,,,,1,0,1,0,44,0,44,0,,,,,,,44,,,0.2,699.0716634804121,,Y,d,go,None,0,,,,,,,,,,,,,,,,,29,001,27,m,100% B.Sc. Psychologie,2023-01-17_12h07.05.522,00_bat_bachelor,2022.2.4,59.87635719872794,
,,,,,,,,,,,,1,0,1,0,45,0,45,0,,,,,,,45,,,0.2,700.0725279648468,,X,l,go,l,1,0.12353116882150061,,,,,,,,,,,,,,,,29,001,27,m,100% B.Sc. Psychologie,2023-01-17_12h07.05.522,00_bat_bachelor,2022.2.4,59.87635719872794,
,,,,,,,,,,,,1,0,1,0,46,0,46,0,,,,,,,46,,,0.2,700.5061728455039,,X,None,nogo,d,0,0.21663754791370593,,,,,,,,,,,,,,,,29,001,27,m,100% B.Sc. Psychologie,2023-01-17_12h07.05.522,00_bat_bachelor,2022.2.4,59.87635719872794,
,,,,,,,,,,,,1,0,1,0,47,0,47,0,,,,,,,47,,,0.2,701.0231272615201,,Y,d,go,l,0,0.5957185762526933,,,,,,,,,,,,,,,,29,001,27,m,100% B.Sc. Psychologie,2023-01-17_12h07.05.522,00_bat_bachelor,2022.2.4,59.87635719872794,
,,,,,,,,,,,,1,0,1,0,48,0,48,0,,,,,,,48,,,0.2,701.9239772489818,,X,l,go,d,0,0.03192297081113793,,,,,,,,,,,,,,,,29,001,27,m,100% B.Sc. Psychologie,2023-01-17_12h07.05.522,00_bat_bachelor,2022.2.4,59.87635719872794,
,,,,,,,,,,,,1,0,1,0,49,0,49,0,,,,,,,49,,,0.2,702.2575193903031,,Y,d,go,None,0,,,,,,,,,,,,,,,,,29,001,27,m,100% B.Sc. Psychologie,2023-01-17_12h07.05.522,00_bat_bachelor,2022.2.4,59.87635719872794,
,,,,,,,,,,,,1,0,1,0,50,0,50,0,,,,,,,50,,,0.2,703.2579271476716,,Y,None,nogo,d,0,0.617043656820897,,,,,,,,,,,,,,,,29,001,27,m,100% B.Sc. Psychologie,2023-01-17_12h07.05.522,00_bat_bachelor,2022.2.4,59.87635719872794,
,,,,,,,,,,,,1,0,1,0,51,0,51,0,,,,,,,51,,,0.2,704.1755475512618,,X,l,go,l,1,0.5478790842898889,,,,,,,,,,,,,,,,29,001,27,m,100% B.Sc. Psychologie,2023-01-17_12h07.05.522,00_bat_bachelor,2022.2.4,59.87635719872794,
,,,,,,,,,,,,1,0,1,0,52,0,52,0,,,,,,,52,,,0.2,705.0262884721014,,Y,d,go,d,1,0.5137700099148788,,,,,,,,,,,,,,,,29,001,27,m,100% B.Sc. Psychologie,2023-01-17_12h07.05.522,00_bat_bachelor,2022.2.4,59.87635719872794,
,,,,,,,,,,,,1,0,1,0,53,0,53,0,,,,,,,53,,,0.2,705.8432223790442,,Y,None,nogo,l,0,0.3199974978051614,,,,,,,,,,,,,,,,29,001,27,m,100% B.Sc. Psychologie,2023-01-17_12h07.05.522,00_bat_bachelor,2022.2.4,59.87635719872794,
,,,,,,,,,,,,1,0,1,0,54,0,54,0,,,,,,,54,,,0.2,706.4773175867595,,X,l,go,None,0,,,,,,,,,,,,,,,,,29,001,27,m,100% B.Sc. Psychologie,2023-01-17_12h07.05.522,00_bat_bachelor,2022.2.4,59.87635719872794,
,,,,,,,,,,,,1,0,1,0,55,0,55,0,,,,,,,55,,,0.2,707.4777980713698,,Y,d,go,d,1,0.14085285739565734,,,,,,,,,,,,,,,,29,001,27,m,100% B.Sc. Psychologie,2023-01-17_12h07.05.522,00_bat_bachelor,2022.2.4,59.87635719872794,
,,,,,,,,,,,,1,0,1,0,56,0,56,0,,,,,,,56,,,0.2,707.9284756710549,,X,l,go,l,1,0.07453628348594066,,,,,,,,,,,,,,,,29,001,27,m,100% B.Sc. Psychologie,2023-01-17_12h07.05.522,00_bat_bachelor,2022.2.4,59.87635719872794,
,,,,,,,,,,,,1,0,1,0,57,0,57,0,,,,,,,57,,,0.2,708.3117811821721,,Y,d,go,d,1,0.42713247616484296,,,,,,,,,,,,,,,,29,001,27,m,100% B.Sc. Psychologie,2023-01-17_12h07.05.522,00_bat_bachelor,2022.2.4,59.87635719872794,
,,,,,,,,,,,,1,0,1,0,58,0,58,0,,,,,,,58,,,0.2,709.0459160989558,,Y,None,nogo,l,0,0.349643059191294,,,,,,,,,,,,,,,,29,001,27,m,100% B.Sc. Psychologie,2023-01-17_12h07.05.522,00_bat_bachelor,2022.2.4,59.87635719872794,
,,,,,,,,,,,,1,0,1,0,59,0,59,0,,,,,,,59,,,0.2,709.696173723074,,X,l,go,d,0,0.418769328694907,,,,,,,,,,,,,,,,29,001,27,m,100% B.Sc. Psychologie,2023-01-17_12h07.05.522,00_bat_bachelor,2022.2.4,59.87635719872794,
,,,,,,,,,,,,1,0,1,0,60,0,60,0,,,,,,,60,,,0.2,710.430251427766,,Y,d,go,l,0,0.22842566341569182,,,,,,,,,,,,,,,,29,001,27,m,100% B.Sc. Psychologie,2023-01-17_12h07.05.522,00_bat_bachelor,2022.2.4,59.87635719872794,
,,,,,,,,,,,,1,0,1,0,61,0,61,0,,,,,,,61,,,0.2,710.9641202598286,,Y,None,nogo,l,0,0.39884933836583514,,,,,,,,,,,,,,,,29,001,27,m,100% B.Sc. Psychologie,2023-01-17_12h07.05.522,00_bat_bachelor,2022.2.4,59.87635719872794,
,,,,,,,,,,,,1,0,1,0,62,0,62,0,,,,,,,62,,,0.2,711.6646687686443,,X,l,go,d,0,0.06617556026321836,,,,,,,,,,,,,,,,29,001,27,m,100% B.Sc. Psychologie,2023-01-17_12h07.05.522,00_bat_bachelor,2022.2.4,59.87635719872794,
,,,,,,,,,,,,1,0,1,0,63,0,63,0,,,,,,,63,,,0.2,712.0312896818068,,Y,d,go,d,1,0.5633394404285355,,,,,,,,,,,,,,,,29,001,27,m,100% B.Sc. Psychologie,2023-01-17_12h07.05.522,00_bat_bachelor,2022.2.4,59.87635719872794,
,,,,,,,,,,,,1,0,1,0,64,0,64,0,,,,,,,64,,,0.2,712.8988504732843,,Y,None,nogo,l,0,0.09587881859624758,,,,,,,,,,,,,,,,29,001,27,m,100% B.Sc. Psychologie,2023-01-17_12h07.05.522,00_bat_bachelor,2022.2.4,59.87635719872794,
,,,,,,,,,,,,1,0,1,0,65,0,65,0,,,,,,,65,,,0.2,713.2989884611015,,X,l,go,None,0,,,,,,,,,,,,,,,,,29,001,27,m,100% B.Sc. Psychologie,2023-01-17_12h07.05.522,00_bat_bachelor,2022.2.4,59.87635719872794,
,,,,,,,,,,,,1,0,1,0,66,0,66,0,,,,,,,66,,,0.2,714.3000420363533,,Y,d,go,d,1,0.3279819787858287,,,,,,,,,,,,,,,,29,001,27,m,100% B.Sc. Psychologie,2023-01-17_12h07.05.522,00_bat_bachelor,2022.2.4,59.87635719872794,
,,,,,,,,,,,,1,0,1,0,67,0,67,0,,,,,,,67,,,0.2,714.9337537290994,,X,l,go,l,1,0.46172300484613515,,,,,,,,,,,,,,,,29,001,27,m,100% B.Sc. Psychologie,2023-01-17_12h07.05.522,00_bat_bachelor,2022.2.4,59.87635719872794,
,,,,,,,,,,,,1,0,1,0,68,0,68,0,,,,,,,68,,,0.2,715.7009460843983,,Y,d,go,d,1,0.5903144576441264,,,,,,,,,,,,,,,,29,001,27,m,100% B.Sc. Psychologie,2023-01-17_12h07.05.522,00_bat_bachelor,2022.2.4,59.87635719872794,
,,,,,,,,,,,,1,0,1,0,69,0,69,0,,,,,,,69,,,0.2,716.6017054052354,,Y,None,nogo,l,0,0.521593036421109,,,,,,,,,,,,,,,,29,001,27,m,100% B.Sc. Psychologie,2023-01-17_12h07.05.522,00_bat_bachelor,2022.2.4,59.87635719872794,
,,,,,,,,,,,,1,0,1,0,70,0,70,0,,,,,,,70,,,0.2,717.4355435464095,,Y,None,nogo,None,1,,,,,,,,,,,,,,,,,29,001,27,m,100% B.Sc. Psychologie,2023-01-17_12h07.05.522,00_bat_bachelor,2022.2.4,59.87635719872794,
,,,,,,,,,,,,1,0,1,0,71,0,71,0,,,,,,,71,,,0.2,718.4364075459889,,X,l,go,None,0,,,,,,,,,,,,,,,,,29,001,27,m,100% B.Sc. Psychologie,2023-01-17_12h07.05.522,00_bat_bachelor,2022.2.4,59.87635719872794,
,,,,,,,,,,,,1,0,1,0,72,0,72,0,,,,,,,72,,,0.2,719.437180394103,,Y,d,go,d,1,0.5344609089806909,,,,,,,,,,,,,,,,29,001,27,m,100% B.Sc. Psychologie,2023-01-17_12h07.05.522,00_bat_bachelor,2022.2.4,59.87635719872794,
,,,,,,,,,,,,1,0,1,0,73,0,73,0,,,,,,,73,,,0.2,720.2878253149975,,X,l,go,l,1,0.6599231511645485,,,,,,,,,,,,,,,,29,001,27,m,100% B.Sc. Psychologie,2023-01-17_12h07.05.522,00_bat_bachelor,2022.2.4,59.87635719872794,
,,,,,,,,,,,,1,0,1,0,74,0,74,0,,,,,,,74,,,0.2,721.2553046034882,,Y,d,go,d,1,0.5721874361333903,,,,,,,,,,,,,,,,29,001,27,m,100% B.Sc. Psychologie,2023-01-17_12h07.05.522,00_bat_bachelor,2022.2.4,59.87635719872794,
,,,,,,,,,,,,1,0,1,0,75,0,75,0,,,,,,,75,,,0.2,722.1389599326358,,X,l,go,l,1,0.3922767354961252,,,,,,,,,,,,,,,,29,001,27,m,100% B.Sc. Psychologie,2023-01-17_12h07.05.522,00_bat_bachelor,2022.2.4,59.87635719872794,
,,,,,,,,,,,,1,0,1,0,76,0,76,0,,,,,,,76,,,0.2,722.8397266231623,,Y,d,go,d,1,0.39495843116310425,,,,,,,,,,,,,,,,29,001,27,m,100% B.Sc. Psychologie,2023-01-17_12h07.05.522,00_bat_bachelor,2022.2.4,59.87635719872794,
,,,,,,,,,,,,1,0,1,0,77,0,77,0,,,,,,,77,,,0.2,723.540179616888,,X,l,go,l,1,0.17455950772273354,,,,,,,,,,,,,,,,29,001,27,m,100% B.Sc. Psychologie,2023-01-17_12h07.05.522,00_bat_bachelor,2022.2.4,59.87635719872794,
,,,,,,,,,,,,1,0,1,0,78,0,78,0,,,,,,,78,,,0.2,724.0239718671655,,X,None,nogo,None,1,,,,,,,,,,,,,,,,,29,001,27,m,100% B.Sc. Psychologie,2023-01-17_12h07.05.522,00_bat_bachelor,2022.2.4,59.87635719872794,
,,,,,,,,,,,,1,0,1,0,79,0,79,0,,,,,,,79,,,0.2,725.0246414426074,,Y,d,go,d,1,0.38634849594382104,,,,,,,,,,,,,,,,29,001,27,m,100% B.Sc. Psychologie,2023-01-17_12h07.05.522,00_bat_bachelor,2022.2.4,59.87635719872794,
,,,,,,,,,,,,1,0,1,0,80,0,80,0,,,,,,,80,,,0.2,725.7250735878479,,X,l,go,l,1,0.005654377484461293,,,,,,,,,,,,,,,,29,001,27,m,100% B.Sc. Psychologie,2023-01-17_12h07.05.522,00_bat_bachelor,2022.2.4,59.87635719872794,
,,,,,,,,,,,,1,0,1,0,81,0,81,0,,,,,,,81,,,0.2,726.0419796160131,,Y,d,go,d,1,0.6655803605535766,,,,,,,,,,,,,,,,29,001,27,m,100% B.Sc. Psychologie,2023-01-17_12h07.05.522,00_bat_bachelor,2022.2.4,59.87635719872794,
,,,,,,,,,,,,1,0,1,0,82,0,82,0,,,,,,,82,,,0.2,727.0095927226212,,Y,None,nogo,l,0,0.03397242436767556,,,,,,,,,,,,,,,,29,001,27,m,100% B.Sc. Psychologie,2023-01-17_12h07.05.522,00_bat_bachelor,2022.2.4,59.87635719872794,
,,,,,,,,,,,,1,0,1,0,83,0,83,0,,,,,,,83,,,0.2,727.3599018861132,,X,l,go,None,0,,,,,,,,,,,,,,,,,29,001,27,m,100% B.Sc. Psychologie,2023-01-17_12h07.05.522,00_bat_bachelor,2022.2.4,59.87635719872794,
,,,,,,,,,,,,1,0,1,0,84,0,84,0,,,,,,,84,,,0.2,728.3607460069179,,Y,d,go,d,1,0.3304260988079477,,,,,,,,,,,,,,,,29,001,27,m,100% B.Sc. Psychologie,2023-01-17_12h07.05.522,00_bat_bachelor,2022.2.4,59.87635719872794,
,,,,,,,,,,,,1,0,1,0,85,0,85,0,,,,,,,85,,,0.2,728.9945343056897,,Y,None,nogo,d,0,0.5283881846407894,,,,,,,,,,,,,,,,29,001,27,m,100% B.Sc. Psychologie,2023-01-17_12h07.05.522,00_bat_bachelor,2022.2.4,59.87635719872794,
,,,,,,,,,,,,1,0,1,0,86,0,86,0,,,,,,,86,,,0.2,729.82841365895,,X,l,go,l,1,0.046736054529901594,,,,,,,,,,,,,,,,29,001,27,m,100% B.Sc. Psychologie,2023-01-17_12h07.05.522,00_bat_bachelor,2022.2.4,59.87635719872794,
,,,,,,,,,,,,1,0,1,0,87,0,87,0,,,,,,,87,,,0.2,730.178692276997,,Y,d,go,None,0,,,,,,,,,,,,,,,,,29,001,27,m,100% B.Sc. Psychologie,2023-01-17_12h07.05.522,00_bat_bachelor,2022.2.4,59.87635719872794,
,,,,,,,,,,,,1,0,1,0,88,0,88,0,,,,,,,88,,,0.2,731.1792125191714,,Y,None,nogo,l,0,0.24721498764120042,,,,,,,,,,,,,,,,29,001,27,m,100% B.Sc. Psychologie,2023-01-17_12h07.05.522,00_bat_bachelor,2022.2.4,59.87635719872794,
,,,,,,,,,,,,1,0,1,0,89,0,89,0,,,,,,,89,,,0.2,731.7299783127382,,X,l,go,d,0,0.6415430388733512,,,,,,,,,,,,,,,,29,001,27,m,100% B.Sc. Psychologie,2023-01-17_12h07.05.522,00_bat_bachelor,2022.2.4,59.87635719872794,
,,,,,,,,,,,,1,0,1,0,90,0,90,0,,,,,,,90,,,0.2,732.6803351853014,,Y,d,go,l,0,0.20279319099790882,,,,,,,,,,,,,,,,29,001,27,m,100% B.Sc. Psychologie,2023-01-17_12h07.05.522,00_bat_bachelor,2022.2.4,59.87635719872794,
,,,,,,,,,,,,1,0,1,0,91,0,91,0,,,,,,,91,,,0.2,733.1976687526476,,X,l,go,None,0,,,,,,,,,,,,,,,,,29,001,27,m,100% B.Sc. Psychologie,2023-01-17_12h07.05.522,00_bat_bachelor,2022.2.4,59.87635719872794,
,,,,,,,,,,,,1,0,1,0,92,0,92,0,,,,,,,92,,,0.2,734.1981700857432,,Y,d,go,None,0,,,,,,,,,,,,,,,,,29,001,27,m,100% B.Sc. Psychologie,2023-01-17_12h07.05.522,00_bat_bachelor,2022.2.4,59.87635719872794,
,,,,,,,,,,,,1,0,1,0,93,0,93,0,,,,,,,93,,,0.2,735.1991960246378,,Y,None,nogo,None,1,,,,,,,,,,,,,,,,,29,001,27,m,100% B.Sc. Psychologie,2023-01-17_12h07.05.522,00_bat_bachelor,2022.2.4,59.87635719872794,
,,,,,,,,,,,,1,0,1,0,94,0,94,0,,,,,,,94,,,0.2,736.1996677819843,,X,l,go,d,0,0.39600861245708074,,,,,,,,,,,,,,,,29,001,27,m,100% B.Sc. Psychologie,2023-01-17_12h07.05.522,00_bat_bachelor,2022.2.4,59.87635719872794,
,,,,,,,,,,,,1,0,1,0,95,0,95,0,,,,,,,95,,,0.2,736.9004010179924,737.7011119024974,Y,d,go,None,0,,,,,,,,,,,,,,,,,29,001,27,m,100% B.Sc. Psychologie,2023-01-17_12h07.05.522,00_bat_bachelor,2022.2.4,59.87635719872794,
,,,,,,,,,,,,1,0,1,0,96,0,96,0,,,,,,,96,,,0.2,737.9012465933483,,X,l,go,l,1,0.5658761664672056,,,,,,,,,,,,,,,,29,001,27,m,100% B.Sc. Psychologie,2023-01-17_12h07.05.522,00_bat_bachelor,2022.2.4,59.87635719872794,
,,,,,,,,,,,,1,0,1,0,97,0,97,0,,,,,,,97,,,0.2,738.7686997485143,,X,None,nogo,l,0,0.6420569780166261,,,,,,,,,,,,,,,,29,001,27,m,100% B.Sc. Psychologie,2023-01-17_12h07.05.522,00_bat_bachelor,2022.2.4,59.87635719872794,
,,,,,,,,,,,,1,0,1,0,98,0,98,0,,,,,,,98,,,0.2,739.7193116512499,,Y,d,go,d,1,0.22054784905049019,,,,,,,,,,,,,,,,29,001,27,m,100% B.Sc. Psychologie,2023-01-17_12h07.05.522,00_bat_bachelor,2022.2.4,59.87635719872794,
,,,,,,,,,,,,1,0,1,0,99,0,99,0,,,,,,,99,,,0.2,740.2531121197098,,X,l,go,None,0,,,,,,,,,,,,,,,,,29,001,27,m,100% B.Sc. Psychologie,2023-01-17_12h07.05.522,00_bat_bachelor,2022.2.4,59.87635719872794,
,,,,,,,,,,,,1,0,1,0,100,0,100,0,,,,,,,100,,,0.2,741.253808846639,,Y,d,go,d,1,0.3335228245705366,,,,,,,,,,,,,,,,29,001,27,m,100% B.Sc. Psychologie,2023-01-17_12h07.05.522,00_bat_bachelor,2022.2.4,59.87635719872794,
,,,,,,,,,,,,1,0,1,0,101,0,101,0,,,,,,,101,,,0.2,741.8876087817771,,X,l,go,None,0,,,,,,,,,,,,,,,,,29,001,27,m,100% B.Sc. Psychologie,2023-01-17_12h07.05.522,00_bat_bachelor,2022.2.4,59.87635719872794,
,,,,,,,,,,,,1,0,1,0,102,0,102,0,,,,,,,102,,,0.2,742.8882589632703,,Y,d,go,None,0,,,,,,,,,,,,,,,,,29,001,27,m,100% B.Sc. Psychologie,2023-01-17_12h07.05.522,00_bat_bachelor,2022.2.4,59.87635719872794,
,,,,,,,,,,,,1,0,1,0,103,0,103,0,,,,,,,103,,,0.2,743.8891627204139,,X,l,go,l,1,0.29079896649636794,,,,,,,,,,,,,,,,29,001,27,m,100% B.Sc. Psychologie,2023-01-17_12h07.05.522,00_bat_bachelor,2022.2.4,59.87635719872794,
,,,,,,,,,,,,1,0,1,0,104,0,104,0,,,,,,,104,,,0.2,744.4895638838498,745.2901690714352,Y,d,go,None,0,,,,,,,,,,,,,,,,,29,001,27,m,100% B.Sc. Psychologie,2023-01-17_12h07.05.522,00_bat_bachelor,2022.2.4,59.87635719872794,
,,,,,,,,,,,,1,0,1,0,105,0,105,0,,,,,,,105,,,0.2,745.4904341864603,,X,l,go,l,1,0.32138270925497636,,,,,,,,,,,,,,,,29,001,27,m,100% B.Sc. Psychologie,2023-01-17_12h07.05.522,00_bat_bachelor,2022.2.4,59.87635719872794,
,,,,,,,,,,,,1,0,1,0,106,0,106,0,,,,,,,106,,,0.2,746.124052303494,,Y,d,go,None,0,,,,,,,,,,,,,,,,,29,001,27,m,100% B.Sc. Psychologie,2023-01-17_12h07.05.522,00_bat_bachelor,2022.2.4,59.87635719872794,
,,,,,,,,,,,,1,0,1,0,107,0,107,0,,,,,,,107,,,0.2,747.1246811516758,,Y,None,nogo,d,0,0.43045805030851625,,,,,,,,,,,,,,,,29,001,27,m,100% B.Sc. Psychologie,2023-01-17_12h07.05.522,00_bat_bachelor,2022.2.4,59.87635719872794,
,,,,,,,,,,,,1,0,1,0,108,0,108,0,,,,,,,108,,,0.2,747.8587215230509,748.6594493772427,Y,None,nogo,None,1,,,,,,,,,,,,,,,,,29,001,27,m,100% B.Sc. Psychologie,2023-01-17_12h07.05.522,00_bat_bachelor,2022.2.4,59.87635719872794,
,,,,,,,,,,,,1,0,1,0,109,0,109,0,,,,,,,109,,,0.2,748.8596184923081,,X,l,go,None,0,,,,,,,,,,,,,,,,,29,001,27,m,100% B.Sc. Psychologie,2023-01-17_12h07.05.522,00_bat_bachelor,2022.2.4,59.87635719872794,
,,,,,,,,,,,,1,0,1,0,110,0,110,0,,,,,,,110,,,0.2,749.8603433404496,750.6610527704033,Y,d,go,None,0,,,,,,,,,,,,,,,,,29,001,27,m,100% B.Sc. Psychologie,2023-01-17_12h07.05.522,00_bat_bachelor,2022.2.4,59.87635719872794,
,,,,,,,,,,,,1,0,1,0,111,0,111,0,,,,,,,111,,,0.2,750.8611360673385,,X,l,go,d,0,0.08610330817464273,,,,,,,,,,,,,,,,29,001,27,m,100% B.Sc. Psychologie,2023-01-17_12h07.05.522,00_bat_bachelor,2022.2.4,59.87635719872794,
,,,,,,,,,,,,1,0,1,0,112,0,112,0,,,,,,,112,,,0.2,751.2613409642072,,X,None,nogo,l,0,0.1491524897282943,,,,,,,,,,,,,,,,29,001,27,m,100% B.Sc. Psychologie,2023-01-17_12h07.05.522,00_bat_bachelor,2022.2.4,59.87635719872794,
,,,,,,,,,,,,1,0,1,0,113,0,113,0,,,,,,,113,,,0.2,751.7116253519489,,Y,d,go,d,1,0.4198646008881042,,,,,,,,,,,,,,,,29,001,27,m,100% B.Sc. Psychologie,2023-01-17_12h07.05.522,00_bat_bachelor,2022.2.4,59.87635719872794,
,,,,,,,,,,,,1,0,1,0,114,0,114,0,,,,,,,114,,,0.2,752.4457631778205,,X,l,go,l,1,0.230001420219196,,,,,,,,,,,,,,,,29,001,27,m,100% B.Sc. Psychologie,2023-01-17_12h07.05.522,00_bat_bachelor,2022.2.4,59.87635719872794,
,,,,,,,,,,,,1,0,1,0,115,0,115,0,,,,,,,115,,,0.2,752.9794191614928,,Y,d,go,d,1,0.6241995321179274,,,,,,,,,,,,,,,,29,001,27,m,100% B.Sc. Psychologie,2023-01-17_12h07.05.522,00_bat_bachelor,2022.2.4,59.87635719872794,
,,,,,,,,,,,,1,0,1,0,116,0,116,0,,,,,,,116,,,0.2,753.9134701025614,,Y,None,nogo,None,1,,,,,,,,,,,,,,,,,29,001,27,m,100% B.Sc. Psychologie,2023-01-17_12h07.05.522,00_bat_bachelor,2022.2.4,59.87635719872794,
,,,,,,,,,,,,1,0,1,0,117,0,117,0,,,,,,,117,,,0.2,754.9141081628622,,X,l,go,d,0,0.0651418638008181,,,,,,,,,,,,,,,,29,001,27,m,100% B.Sc. Psychologie,2023-01-17_12h07.05.522,00_bat_bachelor,2022.2.4,59.87635719872794,
,,,,,,,,,,,,1,0,1,0,118,0,118,0,,,,,,,118,,,0.2,755.2811324697541,,Y,d,go,l,0,0.09746524205547757,,,,,,,,,,,,,,,,29,001,27,m,100% B.Sc. Psychologie,2023-01-17_12h07.05.522,00_bat_bachelor,2022.2.4,59.87635719872794,
,,,,,,,,,,,,1,0,1,0,119,0,119,0,,,,,,,119,,,0.2,755.6814566393004,,X,l,go,None,0,,,,,,,,,,,,,,,,,29,001,27,m,100% B.Sc. Psychologie,2023-01-17_12h07.05.522,00_bat_bachelor,2022.2.4,59.87635719872794,
,,,,,,,,,,,,1,0,1,0,120,0,120,0,,,,,,,120,,,0.2,756.6819671845005,757.4829418264562,Y,d,go,None,0,,,,,,,,,,,,,,,,,29,001,27,m,100% B.Sc. Psychologie,2023-01-17_12h07.05.522,00_bat_bachelor,2022.2.4,59.87635719872794,
,,,,,,,,,,,,1,0,1,0,121,0,121,0,,,,,,,121,,,0.2,757.6830231839995,,X,l,go,None,0,,,,,,,,,,,,,,,,,29,001,27,m,100% B.Sc. Psychologie,2023-01-17_12h07.05.522,00_bat_bachelor,2022.2.4,59.87635719872794,
,,,,,,,,,,,,1,0,1,0,122,0,122,0,,,,,,,122,,,0.2,758.6837271836557,,Y,d,go,None,0,,,,,,,,,,,,,,,,,29,001,27,m,100% B.Sc. Psychologie,2023-01-17_12h07.05.522,00_bat_bachelor,2022.2.4,59.87635719872794,
,,,,,,,,,,,,1,0,1,0,123,0,123,0,,,,,,,123,,,0.2,759.6841940925224,760.484737704377,X,l,go,None,0,,,,,,,,,,,,,,,,,29,001,27,m,100% B.Sc. Psychologie,2023-01-17_12h07.05.522,00_bat_bachelor,2022.2.4,59.87635719872794,
,,,,,,,,,,,,1,0,1,0,124,0,124,0,,,,,,,124,,,0.2,760.6852743344207,761.485916855323,X,None,nogo,None,1,,,,,,,,,,,,,,,,,29,001,27,m,100% B.Sc. Psychologie,2023-01-17_12h07.05.522,00_bat_bachelor,2022.2.4,59.87635719872794,
,,,,,,,,,,,,1,0,1,0,125,0,125,0,,,,,,,125,,,0.2,761.6859890007327,,Y,d,go,l,0,0.1572964857914485,,,,,,,,,,,,,,,,29,001,27,m,100% B.Sc. Psychologie,2023-01-17_12h07.05.522,00_bat_bachelor,2022.2.4,59.87635719872794,
,,,,,,,,,,,,1,0,1,0,126,0,126,0,,,,,,,126,,,0.2,762.1531422287808,,X,l,go,d,0,0.09033118492516223,,,,,,,,,,,,,,,,29,001,27,m,100% B.Sc. Psychologie,2023-01-17_12h07.05.522,00_bat_bachelor,2022.2.4,59.87635719872794,
,,,,,,,,,,,,1,0,1,0,127,0,127,0,,,,,,,127,,,0.2,762.5530882166931,,X,None,nogo,None,1,,,,,,,,,,,,,,,,,29,001,27,m,100% B.Sc. Psychologie,2023-01-17_12h07.05.522,00_bat_bachelor,2022.2.4,59.87635719872794,
,,,,,,,,,,,,1,0,1,0,128,0,128,0,,,,,,,128,,,0.2,763.5538702769118,,Y,d,go,d,1,0.3685817166697234,,,,,,,,,,,,,,,,29,001,27,m,100% B.Sc. Psychologie,2023-01-17_12h07.05.522,00_bat_bachelor,2022.2.4,59.87635719872794,
,,,,,,,,,,,,1,0,1,0,129,0,129,0,,,,,,,129,,,0.2,764.2379785512894,,X,l,go,l,1,0.16583126952173188,,,,,,,,,,,,,,,,29,001,27,m,100% B.Sc. Psychologie,2023-01-17_12h07.05.522,00_bat_bachelor,2022.2.4,59.87635719872794,
,,,,,,,,,,,,1,0,1,0,130,0,130,0,,,,,,,130,,,0.2,764.7051085066196,,Y,d,go,d,1,0.6257607434963575,,,,,,,,,,,,,,,,29,001,27,m,100% B.Sc. Psychologie,2023-01-17_12h07.05.522,00_bat_bachelor,2022.2.4,59.87635719872794,
,,,,,,,,,,,,1,0,1,0,131,0,131,0,,,,,,,131,,,0.2,765.6390964174207,,Y,None,nogo,l,0,0.10852366095059551,,,,,,,,,,,,,,,,29,001,27,m,100% B.Sc. Psychologie,2023-01-17_12h07.05.522,00_bat_bachelor,2022.2.4,59.87635719872794,
,,,,,,,,,,,,1,0,1,0,132,0,132,0,,,,,,,132,,,0.2,766.056053791006,,X,l,go,d,0,0.05973144217568915,,,,,,,,,,,,,,,,29,001,27,m,100% B.Sc. Psychologie,2023-01-17_12h07.05.522,00_bat_bachelor,2022.2.4,59.87635719872794,
,,,,,,,,,,,,1,0,1,0,133,0,133,0,,,,,,,133,,,0.2,766.4228390677163,,Y,d,go,None,0,,,,,,,,,,,,,,,,,29,001,27,m,100% B.Sc. Psychologie,2023-01-17_12h07.05.522,00_bat_bachelor,2022.2.4,59.87635719872794,
,,,,,,,,,,,,1,0,1,0,134,0,134,0,,,,,,,134,,,0.2,767.4234174916783,,Y,None,nogo,l,0,0.11525626374350395,,,,,,,,,,,,,,,,29,001,27,m,100% B.Sc. Psychologie,2023-01-17_12h07.05.522,00_bat_bachelor,2022.2.4,59.87635719872794,
,,,,,,,,,,,,1,0,1,0,135,0,135,0,,,,,,,135,,,0.2,767.8408112286997,,X,l,go,d,0,0.05013484077062458,,,,,,,,,,,,,,,,29,001,27,m,100% B.Sc. Psychologie,2023-01-17_12h07.05.522,00_bat_bachelor,2022.2.4,59.87635719872794,
,,,,,,,,,,,,1,0,1,0,136,0,136,0,,,,,,,136,,,0.2,768.1909371195507,,Y,d,go,None,0,,,,,,,,,,,,,,,,,29,001,27,m,100% B.Sc. Psychologie,2023-01-17_12h07.05.522,00_bat_bachelor,2022.2.4,59.87635719872794,
,,,,,,,,,,,,1,0,1,0,137,0,137,0,,,,,,,137,,,0.2,769.1917269373516,,X,l,go,d,0,0.05909386673010886,,,,,,,,,,,,,,,,29,001,27,m,100% B.Sc. Psychologie,2023-01-17_12h07.05.522,00_bat_bachelor,2022.2.4,59.87635719872794,
,,,,,,,,,,,,1,0,1,0,138,0,138,0,,,,,,,138,,,0.2,769.5584162141022,,X,None,nogo,l,0,0.12509044079342857,,,,,,,,,,,,,,,,29,001,27,m,100% B.Sc. Psychologie,2023-01-17_12h07.05.522,00_bat_bachelor,2022.2.4,59.87635719872794,
,,,,,,,,,,,,1,0,1,0,139,0,139,0,,,,,,,139,,,0.2,769.9922419431678,,Y,d,go,d,1,0.13880146444716956,,,,,,,,,,,,,,,,29,001,27,m,100% B.Sc. Psychologie,2023-01-17_12h07.05.522,00_bat_bachelor,2022.2.4,59.87635719872794,
,,,,,,,,,,,,1,0,1,0,140,0,140,0,,,,,,,140,,,0.2,770.4425694824022,,X,l,go,None,0,,,,,,,,,,,,,,,,,29,001,27,m,100% B.Sc. Psychologie,2023-01-17_12h07.05.522,00_bat_bachelor,2022.2.4,59.87635719872794,
,,,,,,,,,,,,1,0,1,0,141,0,141,0,,,,,,,141,,,0.2,771.4435173607199,,Y,d,go,None,0,,,,,,,,,,,,,,,,,29,001,27,m,100% B.Sc. Psychologie,2023-01-17_12h07.05.522,00_bat_bachelor,2022.2.4,59.87635719872794,
,,,,,,,,,,,,1,0,1,0,142,0,142,0,,,,,,,142,,,0.2,772.4442160270555,,Y,None,nogo,None,1,,,,,,,,,,,,,,,,,29,001,27,m,100% B.Sc. Psychologie,2023-01-17_12h07.05.522,00_bat_bachelor,2022.2.4,59.87635719872794,
,,,,,,,,,,,,1,0,1,0,143,0,143,0,,,,,,,143,,,0.2,773.4450708145159,,X,l,go,l,1,0.47832517861388624,,,,,,,,,,,,,,,,29,001,27,m,100% B.Sc. Psychologie,2023-01-17_12h07.05.522,00_bat_bachelor,2022.2.4,59.87635719872794,
,,,,,,,,,,,,1,0,1,0,144,0,144,0,,,,,,,144,,,0.2,774.2289395253756,,Y,d,go,d,1,0.446325678989524,,,,,,,,,,,,,,,,29,001,27,m,100% B.Sc. Psychologie,2023-01-17_12h07.05.522,00_bat_bachelor,2022.2.4,59.87635719872794,
,,,,,,,,,,,,1,0,1,0,145,0,145,0,,,,,,,145,,,0.2,774.9791699494963,,Y,None,nogo,l,0,0.4800468747562263,,,,,,,,,,,,,,,,29,001,27,m,100% B.Sc. Psychologie,2023-01-17_12h07.05.522,00_bat_bachelor,2022.2.4,59.87635719872794,
,,,,,,,,,,,,1,0,1,0,146,0,146,0,,,,,,,146,,,0.2,775.7634144177428,,X,l,go,None,0,,,,,,,,,,,,,,,,,29,001,27,m,100% B.Sc. Psychologie,2023-01-17_12h07.05.522,00_bat_bachelor,2022.2.4,59.87635719872794,
,,,,,,,,,,,,1,0,1,0,147,0,147,0,,,,,,,147,,,0.2,776.7642721143056,,Y,d,go,d,1,0.34318633504153695,,,,,,,,,,,,,,,,29,001,27,m,100% B.Sc. Psychologie,2023-01-17_12h07.05.522,00_bat_bachelor,2022.2.4,59.87635719872794,
,,,,,,,,,,,,1,0,1,0,148,0,148,0,,,,,,,148,,,0.2,777.4146829504607,,X,l,go,l,1,0.620558321767021,,,,,,,,,,,,,,,,29,001,27,m,100% B.Sc. Psychologie,2023-01-17_12h07.05.522,00_bat_bachelor,2022.2.4,59.87635719872794,
,,,,,,,,,,,,1,0,1,0,149,0,149,0,,,,,,,149,,,0.2,778.3488153460348,,Y,d,go,d,1,0.470563727823901,,,,,,,,,,,,,,,,29,001,27,m,100% B.Sc. Psychologie,2023-01-17_12h07.05.522,00_bat_bachelor,2022.2.4,59.87635719872794,
,,,,,,,,,,,,1,0,1,0,150,0,150,0,,,,,,,150,,,0.2,779.1326491478103,,X,l,go,l,1,0.47126142446359154,,,,,,,,,,,,,,,,29,001,27,m,100% B.Sc. Psychologie,2023-01-17_12h07.05.522,00_bat_bachelor,2022.2.4,59.87635719872794,
,,,,,,,,,,,,1,0,1,0,151,0,151,0,,,,,,,151,,,0.2,779.9167035555438,,Y,d,go,d,1,0.4548672505916329,,,,,,,,,,,,,,,,29,001,27,m,100% B.Sc. Psychologie,2023-01-17_12h07.05.522,00_bat_bachelor,2022.2.4,59.87635719872794,
,,,,,,,,,,,,1,0,1,0,152,0,152,0,,,,,,,152,,,0.2,780.6838483957108,,X,l,go,l,1,0.3434850015619304,,,,,,,,,,,,,,,,29,001,27,m,100% B.Sc. Psychologie,2023-01-17_12h07.05.522,00_bat_bachelor,2022.2.4,59.87635719872794,
,,,,,,,,,,,,1,0,1,0,153,0,153,0,,,,,,,153,,,0.2,781.3342165652284,,Y,d,go,d,1,0.42930217208049726,,,,,,,,,,,,,,,,29,001,27,m,100% B.Sc. Psychologie,2023-01-17_12h07.05.522,00_bat_bachelor,2022.2.4,59.87635719872794,
,,,,,,,,,,,,1,0,1,0,154,0,154,0,,,,,,,154,,,0.2,782.068007724607,,Y,None,nogo,l,0,0.4157210877601756,,,,,,,,,,,,,,,,29,001,27,m,100% B.Sc. Psychologie,2023-01-17_12h07.05.522,00_bat_bachelor,2022.2.4,59.87635719872794,
,,,,,,,,,,,,1,0,1,0,155,0,155,0,,,,,,,155,,,0.2,782.7854318616155,,X,l,go,d,0,0.3696648676559562,,,,,,,,,,,,,,,,29,001,27,m,100% B.Sc. Psychologie,2023-01-17_12h07.05.522,00_bat_bachelor,2022.2.4,59.87635719872794,
,,,,,,,,,,,,1,0,1,0,156,0,156,0,,,,,,,156,,,0.2,783.4693311663868,,Y,d,go,None,0,,,,,,,,,,,,,,,,,29,001,27,m,100% B.Sc. Psychologie,2023-01-17_12h07.05.522,00_bat_bachelor,2022.2.4,59.87635719872794,
,,,,,,,,,,,,1,0,1,0,157,0,157,0,,,,,,,157,,,0.2,784.4700060751493,,X,l,go,None,0,,,,,,,,,,,,,,,,,29,001,27,m,100% B.Sc. Psychologie,2023-01-17_12h07.05.522,00_bat_bachelor,2022.2.4,59.87635719872794,
,,,,,,,,,,,,1,0,1,0,158,0,158,0,,,,,,,158,,,0.2,785.4707697111444,,Y,d,go,d,1,0.6442126133333659,,,,,,,,,,,,,,,,29,001,27,m,100% B.Sc. Psychologie,2023-01-17_12h07.05.522,00_bat_bachelor,2022.2.4,59.87635719872794,
,,,,,,,,,,,,1,0,1,0,159,0,159,0,,,,,,,159,,,0.2,786.4212831896875,787.2219063166558,Y,None,nogo,None,1,,,,,,,,,,,,,,,,,29,001,27,m,100% B.Sc. Psychologie,2023-01-17_12h07.05.522,00_bat_bachelor,2022.2.4,59.87635719872794,
,,,,,,,,,,,,1,0,1,0,160,0,160,0,,,,,,,160,,,0.2,787.4223842800566,788.2226442557003,X,l,go,None,0,,,,,,,,,,,,,,,,,29,001,27,m,100% B.Sc. Psychologie,2023-01-17_12h07.05.522,00_bat_bachelor,2022.2.4,59.87635719872794,
,,,,,,,,,,,,1,0,1,0,161,0,161,0,,,,,,,161,,,0.2,788.4231469463557,,Y,d,go,d,1,0.6365175867686048,,,,,,,,,,,,,,,,29,001,27,m,100% B.Sc. Psychologie,2023-01-17_12h07.05.522,00_bat_bachelor,2022.2.4,59.87635719872794,
,,,,,,,,,,,,1,0,1,0,162,0,162,0,,,,,,,162,,,0.2,789.3738155763422,,X,l,go,None,0,,,,,,,,,,,,,,,,,29,001,27,m,100% B.Sc. Psychologie,2023-01-17_12h07.05.522,00_bat_bachelor,2022.2.4,59.87635719872794,
,,,,,,,,,,,,1,0,1,0,163,0,163,0,,,,,,,163,,,0.2,790.3743120609433,,Y,d,go,d,1,0.6213626850221772,,,,,,,,,,,,,,,,29,001,27,m,100% B.Sc. Psychologie,2023-01-17_12h07.05.522,00_bat_bachelor,2022.2.4,59.87635719872794,
,,,,,,,,,,,,1,0,1,0,164,0,164,0,,,,,,,164,,,0.2,791.30833585051,,Y,None,nogo,l,0,0.5665680449164938,,,,,,,,,,,,,,,,29,001,27,m,100% B.Sc. Psychologie,2023-01-17_12h07.05.522,00_bat_bachelor,2022.2.4,59.87635719872794,
,,,,,,,,,,,,1,0,1,0,165,0,165,0,,,,,,,165,,,0.2,792.1757220966247,792.9765008598915,X,l,go,None,0,,,,,,,,,,,,,,,,,29,001,27,m,100% B.Sc. Psychologie,2023-01-17_12h07.05.522,00_bat_bachelor,2022.2.4,59.87635719872794,
,,,,,,,,,,,,1,0,1,0,166,0,166,0,,,,,,,166,,,0.2,793.1766200355778,,Y,d,go,d,1,0.45823840047523845,,,,,,,,,,,,,,,,29,001,27,m,100% B.Sc. Psychologie,2023-01-17_12h07.05.522,00_bat_bachelor,2022.2.4,59.87635719872794,
,,,,,,,,,,,,1,0,1,0,167,0,167,0,,,,,,,167,,,0.2,793.9436955424608,,Y,None,nogo,None,1,,,,,,,,,,,,,,,,,29,001,27,m,100% B.Sc. Psychologie,2023-01-17_12h07.05.522,00_bat_bachelor,2022.2.4,59.87635719872794,
,,,,,,,,,,,,1,0,1,0,168,0,168,0,,,,,,,168,,,0.2,794.9444325117947,,X,l,go,l,1,0.6580729702545796,,,,,,,,,,,,,,,,29,001,27,m,100% B.Sc. Psychologie,2023-01-17_12h07.05.522,00_bat_bachelor,2022.2.4,59.87635719872794,
,,,,,,,,,,,,1,0,1,0,169,0,169,0,,,,,,,169,,,0.2,795.9121105880768,796.7124272909568,Y,d,go,None,0,,,,,,,,,,,,,,,,,29,001,27,m,100% B.Sc. Psychologie,2023-01-17_12h07.05.522,00_bat_bachelor,2022.2.4,59.87635719872794,
,,,,,,,,,,,,1,0,1,0,170,0,170,0,,,,,,,170,,,0.2,796.9125634363445,,X,l,go,l,1,0.6578261824906804,,,,,,,,,,,,,,,,29,001,27,m,100% B.Sc. Psychologie,2023-01-17_12h07.05.522,00_bat_bachelor,2022.2.4,59.87635719872794,
,,,,,,,,,,,,1,0,1,0,171,0,171,0,,,,,,,171,,,0.2,797.8802318156522,,X,None,nogo,None,1,,,,,,,,,,,,,,,,,29,001,27,m,100% B.Sc. Psychologie,2023-01-17_12h07.05.522,00_bat_bachelor,2022.2.4,59.87635719872794,
,,,,,,,,,,,,1,0,1,0,172,0,172,0,,,,,,,172,,,0.2,798.8807724214566,,Y,d,go,None,0,,,,,,,,,,,,,,,,,29,001,27,m,100% B.Sc. Psychologie,2023-01-17_12h07.05.522,00_bat_bachelor,2022.2.4,59.87635719872794,
,,,,,,,,,,,,1,0,1,0,173,0,173,0,,,,,,,173,,,0.2,799.8818812693935,,X,l,go,None,0,,,,,,,,,,,,,,,,,29,001,27,m,100% B.Sc. Psychologie,2023-01-17_12h07.05.522,00_bat_bachelor,2022.2.4,59.87635719872794,
,,,,,,,,,,,,1,0,1,0,174,0,174,0,,,,,,,174,,,0.2,800.8822638146667,,Y,d,go,d,1,0.592955910920864,,,,,,,,,,,,,,,,29,001,27,m,100% B.Sc. Psychologie,2023-01-17_12h07.05.522,00_bat_bachelor,2022.2.4,59.87635719872794,
,,,,,,,,,,,,1,0,1,0,175,0,175,0,,,,,,,175,,,0.2,801.782980953707,,X,l,go,l,1,0.46020542983023915,,,,,,,,,,,,,,,,29,001,27,m,100% B.Sc. Psychologie,2023-01-17_12h07.05.522,00_bat_bachelor,2022.2.4,59.87635719872794,
,,,,,,,,,,,,1,0,1,0,176,0,176,0,,,,,,,176,,,0.2,802.5505320967204,,X,None,nogo,d,0,0.5251217619952513,,,,,,,,,,,,,,,,29,001,27,m,100% B.Sc. Psychologie,2023-01-17_12h07.05.522,00_bat_bachelor,2022.2.4,59.87635719872794,
,,,,,,,,,,,,1,0,1,0,177,0,177,0,,,,,,,177,,,0.2,803.3843586015282,,Y,d,go,l,0,0.5231140053801937,,,,,,,,,,,,,,,,29,001,27,m,100% B.Sc. Psychologie,2023-01-17_12h07.05.522,00_bat_bachelor,2022.2.4,59.87635719872794,
,,,,,,,,,,,,1,0,1,0,178,0,178,0,,,,,,,178,,,0.2,804.218451288034,,X,l,go,d,0,0.5043615296308417,,,,,,,,,,,,,,,,29,001,27,m,100% B.Sc. Psychologie,2023-01-17_12h07.05.522,00_bat_bachelor,2022.2.4,59.87635719872794,
,,,,,,,,,,,,1,0,1,0,179,0,179,0,,,,,,,179,,,0.2,805.035467134323,,X,None,nogo,l,0,0.471860212055617,,,,,,,,,,,,,,,,29,001,27,m,100% B.Sc. Psychologie,2023-01-17_12h07.05.522,00_bat_bachelor,2022.2.4,59.87635719872794,
