loop_instruction.thisRepN,loop_instruction.thisTrialN,loop_instruction.thisN,loop_instruction.thisIndex,loop_rsi_practice.thisRepN,loop_rsi_practice.thisTrialN,loop_rsi_practice.thisN,loop_rsi_practice.thisIndex,loop_practice.thisRepN,loop_practice.thisTrialN,loop_practice.thisN,loop_practice.thisIndex,loop_exp.thisRepN,loop_exp.thisTrialN,loop_exp.thisN,loop_exp.thisIndex,loop_trials.thisRepN,loop_trials.thisTrialN,loop_trials.thisN,loop_trials.thisIndex,map_condition,map_x_key,map_y_key,key_resp_welcome.started,key_resp_welcome.keys,key_resp_welcome.rt,index,text_empty_rsi_practice.started,text_empty_rsi_practice.stopped,rsi,stimulus.started,stimulus,correct,trial_type,key_resp_trial.keys,key_resp_trial.corr,key_resp_trial.rt,stimulus.stopped,key_resp_instruction_rsi.started,key_resp_instruction_rsi.keys,key_resp_instruction_rsi.rt,key_resp_instruction_rsi.stopped,key_resp_instruction_final.started,key_resp_instruction_final.keys,key_resp_instruction_final.rt,key_resp_break.started,key_resp_break.keys,key_resp_break.rt,key_resp_break.stopped,key_resp_end_screen.started,image_end_screen.started,key_resp_end_screen.stopped,image_end_screen.stopped,key_resp_end_screen.keys,participant,session,Alter,Geschlecht (w/m/d/andere),Studiengang,date,expName,psychopyVersion,frameRate,
,,,,0,0,0,0,0,0,0,0,,,,,,,,,0,d,l,188.4932254578307,j,20.907863447762793,0,209.435383061631,210.4499643878953,1,210.4499643878953,X,d,go,d,1,0.5162330921884859,,,,,,,,,,,,,,,,,,30,001,19,w,Bachelor Psychologie,2023-01-17_13h32.04.326,00_bat_bachelor,2022.2.4,60.05488649954915,
,,,,0,0,0,0,1,0,1,0,,,,,,,,,,,,,,,1,211.66746294911718,212.66820234269835,1,212.66820234269835,Y,l,go,None,0,,,,,,,,,,,,,,,,,,,30,001,19,w,Bachelor Psychologie,2023-01-17_13h32.04.326,00_bat_bachelor,2022.2.4,60.05488649954915,
,,,,0,0,0,0,2,0,2,0,,,,,,,,,,,,,,,2,214.0690486937965,215.06973863285384,1,215.06973863285384,X,d,go,None,0,,,,,,,,,,,,,,,,,,,30,001,19,w,Bachelor Psychologie,2023-01-17_13h32.04.326,00_bat_bachelor,2022.2.4,60.05488649954915,
,,,,0,0,0,0,3,0,3,0,,,,,,,,,,,,,,,3,216.47159104408638,217.4723265588691,1,217.4723265588691,Y,l,go,l,1,0.46796935801103245,,,,,,,,,,,,,,,,,,30,001,19,w,Bachelor Psychologie,2023-01-17_13h32.04.326,00_bat_bachelor,2022.2.4,60.05488649954915,
,,,,0,0,0,0,4,0,4,0,,,,,,,,,,,,,,,4,218.69010730176524,219.69081857414858,1,219.69081857414858,X,d,go,d,1,0.47451529423415195,,,,,,,,,,,,,,,,,,30,001,19,w,Bachelor Psychologie,2023-01-17_13h32.04.326,00_bat_bachelor,2022.2.4,60.05488649954915,
,,,,0,0,0,0,5,0,5,0,,,,,,,,,,,,,,,5,220.89163641618507,221.89387835448724,1,221.89387835448724,Y,l,go,l,1,0.4647989353106823,,,,,,,,,,,,,,,,,,30,001,19,w,Bachelor Psychologie,2023-01-17_13h32.04.326,00_bat_bachelor,2022.2.4,60.05488649954915,
,,,,0,0,0,0,6,0,6,0,,,,,,,,,,,,,,,6,223.07683050820197,224.0773260231217,1,224.0773260231217,X,d,go,d,1,0.48752765156677924,,,,,,,,,,,,,,,,,,30,001,19,w,Bachelor Psychologie,2023-01-17_13h32.04.326,00_bat_bachelor,2022.2.4,60.05488649954915,
,,,,0,0,0,0,7,0,7,0,,,,,,,,,,,,,,,7,225.29487452370813,226.29564882635896,1,226.29564882635896,Y,l,go,l,1,0.4452270660112845,,,,,,,,,,,,,,,,,,30,001,19,w,Bachelor Psychologie,2023-01-17_13h32.04.326,00_bat_bachelor,2022.2.4,60.05488649954915,
,,,,0,0,0,0,8,0,8,0,,,,,,,,,,,,,,,8,227.46346741165326,228.4639857144357,1,228.4639857144357,X,d,go,d,1,0.469467539107427,,,,,,,,,,,,,,,,,,30,001,19,w,Bachelor Psychologie,2023-01-17_13h32.04.326,00_bat_bachelor,2022.2.4,60.05488649954915,
,,,,0,0,0,0,9,0,9,0,,,,,,,,,,,,,,,9,229.64822610995907,230.64894320051826,1,230.64894320051826,Y,l,go,l,1,0.507453944941517,,,,,,,,,,,,,,,,,,30,001,19,w,Bachelor Psychologie,2023-01-17_13h32.04.326,00_bat_bachelor,2022.2.4,60.05488649954915,
,,,,0,0,0,0,10,0,10,0,,,,,,,,,,,,,,,10,231.88354575342964,232.88408151075419,1,232.88408151075419,Y,None,nogo,None,1,,233.68468815287633,,,,,,,,,,,,,,,,,30,001,19,w,Bachelor Psychologie,2023-01-17_13h32.04.326,00_bat_bachelor,2022.2.4,60.05488649954915,
,,,,0,0,0,0,11,0,11,0,,,,,,,,,,,,,,,11,234.28536034649005,235.2860565885785,1,235.2860565885785,X,d,go,None,0,,236.0870273517503,,,,,,,,,,,,,,,,,30,001,19,w,Bachelor Psychologie,2023-01-17_13h32.04.326,00_bat_bachelor,2022.2.4,60.05488649954915,
,,,,0,0,0,0,12,0,12,0,,,,,,,,,,,,,,,12,236.68720839408343,237.6876777271973,1,237.6876777271973,Y,l,go,l,1,0.5572614359261934,,,,,,,,,,,,,,,,,,30,001,19,w,Bachelor Psychologie,2023-01-17_13h32.04.326,00_bat_bachelor,2022.2.4,60.05488649954915,
,,,,0,0,0,0,13,0,13,0,,,,,,,,,,,,,,,13,238.98895079323847,239.98966109592584,1,239.98966109592584,X,d,go,d,1,0.3836780049459776,,,,,,,,,,,,,,,,,,30,001,19,w,Bachelor Psychologie,2023-01-17_13h32.04.326,00_bat_bachelor,2022.2.4,60.05488649954915,
,,,,0,0,0,0,14,0,14,0,,,,,,,,,,,,,,,14,241.09036262285372,242.09135462237464,1,242.09135462237464,X,None,nogo,l,0,0.4734665674768621,,,,,,,,,,,,,,,,,,30,001,19,w,Bachelor Psychologie,2023-01-17_13h32.04.326,00_bat_bachelor,2022.2.4,60.05488649954915,
,,,,1,0,1,0,0,0,0,0,,,,,,,,,,,,,,,0,256.2350394012028,256.43538500102295,0.2,256.43538500102295,X,d,go,d,1,0.6424963036988629,,243.7332355232793,j,12.483364744490245,,,,,,,,,,,,,,30,001,19,w,Bachelor Psychologie,2023-01-17_13h32.04.326,00_bat_bachelor,2022.2.4,60.05488649954915,
,,,,1,0,1,0,1,0,1,0,,,,,,,,,,,,,,,1,257.78638749751553,257.9863781884196,0.2,257.9863781884196,Y,l,go,l,1,0.5619455548730912,,,,,,,,,,,,,,,,,,30,001,19,w,Bachelor Psychologie,2023-01-17_13h32.04.326,00_bat_bachelor,2022.2.4,60.05488649954915,
,,,,1,0,1,0,2,0,2,0,,,,,,,,,,,,,,,2,259.2706165960699,259.4709864383185,0.2,259.4709864383185,X,d,go,d,1,0.5503392574755708,,,,,,,,,,,,,,,,,,30,001,19,w,Bachelor Psychologie,2023-01-17_13h32.04.326,00_bat_bachelor,2022.2.4,60.05488649954915,
,,,,1,0,1,0,3,0,3,0,,,,,,,,,,,,,,,3,260.7219400136091,260.922089734755,0.2,260.922089734755,X,None,nogo,None,1,,261.72269880112435,,,,,,,,,,,,,,,,,30,001,19,w,Bachelor Psychologie,2023-01-17_13h32.04.326,00_bat_bachelor,2022.2.4,60.05488649954915,
,,,,1,0,1,0,4,0,4,0,,,,,,,,,,,,,,,4,262.3229661464429,262.52334374625934,0.2,262.52334374625934,Y,l,go,None,0,,263.32394457020564,,,,,,,,,,,,,,,,,30,001,19,w,Bachelor Psychologie,2023-01-17_13h32.04.326,00_bat_bachelor,2022.2.4,60.05488649954915,
,,,,1,0,1,0,5,0,5,0,,,,,,,,,,,,,,,5,263.92438937000406,264.12458369717933,0.2,264.12458369717933,X,d,go,None,0,,264.9247059759073,,,,,,,,,,,,,,,,,30,001,19,w,Bachelor Psychologie,2023-01-17_13h32.04.326,00_bat_bachelor,2022.2.4,60.05488649954915,
,,,,1,0,1,0,6,0,6,0,,,,,,,,,,,,,,,6,265.5251095635904,265.72540086042136,0.2,265.72540086042136,X,None,nogo,d,0,0.504668006877182,,,,,,,,,,,,,,,,,,30,001,19,w,Bachelor Psychologie,2023-01-17_13h32.04.326,00_bat_bachelor,2022.2.4,60.05488649954915,
,,,,1,0,1,0,7,0,7,0,,,,,,,,,,,,,,,7,267.34321728814393,267.5433170699107,0.2,267.5433170699107,Y,l,go,None,0,,268.34418795433885,,,,,,,,,,,,,,,,,30,001,19,w,Bachelor Psychologie,2023-01-17_13h32.04.326,00_bat_bachelor,2022.2.4,60.05488649954915,
,,,,1,0,1,0,8,0,8,0,,,,,,,,,,,,,,,8,268.9444072996848,269.1448115661624,0.2,269.1448115661624,X,d,go,d,1,0.5732163372886134,,,,,,,,,,,,,,,,,,30,001,19,w,Bachelor Psychologie,2023-01-17_13h32.04.326,00_bat_bachelor,2022.2.4,60.05488649954915,
,,,,1,0,1,0,9,0,9,0,,,,,,,,,,,,,,,9,270.4290160344244,270.6291691494989,0.2,270.6291691494989,Y,l,go,l,1,0.3361153613368515,,,,,,,,,,,,,,,,,,30,001,19,w,Bachelor Psychologie,2023-01-17_13h32.04.326,00_bat_bachelor,2022.2.4,60.05488649954915,
,,,,1,0,1,0,10,0,10,0,,,,,,,,,,,,,,,10,271.67983482190175,271.8799908460642,0.2,271.8799908460642,X,d,go,d,1,0.34928723373741377,,,,,,,,,,,,,,,,,,30,001,19,w,Bachelor Psychologie,2023-01-17_13h32.04.326,00_bat_bachelor,2022.2.4,60.05488649954915,
,,,,1,0,1,0,11,0,11,0,,,,,,,,,,,,,,,11,272.9307622153865,273.1310826031113,0.2,273.1310826031113,X,None,nogo,l,0,0.37859728012699634,,,,,,,,,,,,,,,,,,30,001,19,w,Bachelor Psychologie,2023-01-17_13h32.04.326,00_bat_bachelor,2022.2.4,60.05488649954915,
,,,,1,0,1,0,12,0,12,0,,,,,,,,,,,,,,,12,274.6322479358787,274.8324155964074,0.2,274.8324155964074,Y,l,go,d,0,0.5174616976582911,,,,,,,,,,,,,,,,,,30,001,19,w,Bachelor Psychologie,2023-01-17_13h32.04.326,00_bat_bachelor,2022.2.4,60.05488649954915,
,,,,1,0,1,0,13,0,13,0,,,,,,,,,,,,,,,13,276.06663948284404,276.2668192645797,0.2,276.2668192645797,X,d,go,d,1,0.6182587396906456,,,,,,,,,,,,,,,,,,30,001,19,w,Bachelor Psychologie,2023-01-17_13h32.04.326,00_bat_bachelor,2022.2.4,60.05488649954915,
,,,,1,0,1,0,14,0,14,0,,,,,,,,,,,,,,,14,277.60073279964854,277.8008059147687,0.2,277.8008059147687,X,None,nogo,d,0,0.4930563761590747,,,,,,,,,,,,,,,,,,30,001,19,w,Bachelor Psychologie,2023-01-17_13h32.04.326,00_bat_bachelor,2022.2.4,60.05488649954915,
,,,,,,,,,,,,,,,,,,,,,,,,,,,,,,,,,,,,,,279.43054330640007,None,,279.43054330640007,279.43054330640007,space,8.3226026406046,,,,,,,,,,30,001,19,w,Bachelor Psychologie,2023-01-17_13h32.04.326,00_bat_bachelor,2022.2.4,60.05488649954915,
,,,,,,,,,,,,0,0,0,0,0,0,0,0,,,,,,,0,,,1,288.77641416901315,X,d,go,d,1,0.2697236359526869,,,,,,,,,,,,,,,,,,30,001,19,w,Bachelor Psychologie,2023-01-17_13h32.04.326,00_bat_bachelor,2022.2.4,60.05488649954915,
,,,,,,,,,,,,0,0,0,0,1,0,1,0,,,,,,,1,,,1,290.1605938615394,Y,l,go,l,1,0.37321740394691005,,,,,,,,,,,,,,,,,,30,001,19,w,Bachelor Psychologie,2023-01-17_13h32.04.326,00_bat_bachelor,2022.2.4,60.05488649954915,
,,,,,,,,,,,,0,0,0,0,2,0,2,0,,,,,,,2,,,1,291.64508526299323,X,d,go,d,1,0.37783655323437415,,,,,,,,,,,,,,,,,,30,001,19,w,Bachelor Psychologie,2023-01-17_13h32.04.326,00_bat_bachelor,2022.2.4,60.05488649954915,
,,,,,,,,,,,,0,0,0,0,3,0,3,0,,,,,,,3,,,1,293.1293502403132,X,None,nogo,d,0,0.5085826716531301,,,,,,,,,,,,,,,,,,30,001,19,w,Bachelor Psychologie,2023-01-17_13h32.04.326,00_bat_bachelor,2022.2.4,60.05488649954915,
,,,,,,,,,,,,0,0,0,0,4,0,4,0,,,,,,,4,,,1,294.7473717588582,Y,l,go,l,1,0.5546088311530184,,,,,,,,,,,,,,,,,,30,001,19,w,Bachelor Psychologie,2023-01-17_13h32.04.326,00_bat_bachelor,2022.2.4,60.05488649954915,
,,,,,,,,,,,,0,0,0,0,5,0,5,0,,,,,,,5,,,1,296.41501652605075,X,d,go,d,1,0.502531280653784,,,,,,,,,,,,,,,,,,30,001,19,w,Bachelor Psychologie,2023-01-17_13h32.04.326,00_bat_bachelor,2022.2.4,60.05488649954915,
,,,,,,,,,,,,0,0,0,0,6,0,6,0,,,,,,,6,,,1,298.03316943846585,X,None,nogo,None,1,,,,,,,,,,,,,,,,,,,30,001,19,w,Bachelor Psychologie,2023-01-17_13h32.04.326,00_bat_bachelor,2022.2.4,60.05488649954915,
,,,,,,,,,,,,0,0,0,0,7,0,7,0,,,,,,,7,,,1,299.8342585046048,Y,l,go,l,1,0.4115194459882332,,,,,,,,,,,,,,,,,,30,001,19,w,Bachelor Psychologie,2023-01-17_13h32.04.326,00_bat_bachelor,2022.2.4,60.05488649954915,
,,,,,,,,,,,,0,0,0,0,8,0,8,0,,,,,,,8,,,1,301.35235037462553,X,d,go,d,1,0.47806874706293456,,,,,,,,,,,,,,,,,,30,001,19,w,Bachelor Psychologie,2023-01-17_13h32.04.326,00_bat_bachelor,2022.2.4,60.05488649954915,
,,,,,,,,,,,,0,0,0,0,9,0,9,0,,,,,,,9,,,1,302.9367180912959,X,None,nogo,None,1,,,,,,,,,,,,,,,,,,,30,001,19,w,Bachelor Psychologie,2023-01-17_13h32.04.326,00_bat_bachelor,2022.2.4,60.05488649954915,
,,,,,,,,,,,,0,0,0,0,10,0,10,0,,,,,,,10,,,1,304.73828230871004,Y,l,go,l,1,0.27627199642302,,,,,,,,,,,,,,,,,,30,001,19,w,Bachelor Psychologie,2023-01-17_13h32.04.326,00_bat_bachelor,2022.2.4,60.05488649954915,
,,,,,,,,,,,,0,0,0,0,11,0,11,0,,,,,,,11,,,1,306.1224135164084,X,d,go,d,1,0.5714800957066473,,,,,,,,,,,,,,,,,,30,001,19,w,Bachelor Psychologie,2023-01-17_13h32.04.326,00_bat_bachelor,2022.2.4,60.05488649954915,
,,,,,,,,,,,,0,0,0,0,12,0,12,0,,,,,,,12,,,1,307.8070405784092,X,None,nogo,d,0,0.40687023612554185,,,,,,,,,,,,,,,,,,30,001,19,w,Bachelor Psychologie,2023-01-17_13h32.04.326,00_bat_bachelor,2022.2.4,60.05488649954915,
,,,,,,,,,,,,0,0,0,0,13,0,13,0,,,,,,,13,,,1,309.3251237211516,Y,l,go,None,0,,,,,,,,,,,,,,,,,,,30,001,19,w,Bachelor Psychologie,2023-01-17_13h32.04.326,00_bat_bachelor,2022.2.4,60.05488649954915,
,,,,,,,,,,,,0,0,0,0,14,0,14,0,,,,,,,14,,,1,311.12658175680554,X,d,go,None,0,,311.9268039142771,,,,,,,,,,,,,,,,,30,001,19,w,Bachelor Psychologie,2023-01-17_13h32.04.326,00_bat_bachelor,2022.2.4,60.05488649954915,
,,,,,,,,,,,,0,0,0,0,15,0,15,0,,,,,,,15,,,1,312.9278051259171,Y,l,go,l,1,0.4693986906495411,,,,,,,,,,,,,,,,,,30,001,19,w,Bachelor Psychologie,2023-01-17_13h32.04.326,00_bat_bachelor,2022.2.4,60.05488649954915,
,,,,,,,,,,,,0,0,0,0,16,0,16,0,,,,,,,16,,,1,314.51225720618095,Y,None,nogo,None,1,,315.3130592421512,,,,,,,,,,,,,,,,,30,001,19,w,Bachelor Psychologie,2023-01-17_13h32.04.326,00_bat_bachelor,2022.2.4,60.05488649954915,
,,,,,,,,,,,,0,0,0,0,17,0,17,0,,,,,,,17,,,1,316.31361681764247,X,d,go,d,1,0.41194853669730946,,,,,,,,,,,,,,,,,,30,001,19,w,Bachelor Psychologie,2023-01-17_13h32.04.326,00_bat_bachelor,2022.2.4,60.05488649954915,
,,,,,,,,,,,,0,0,0,0,18,0,18,0,,,,,,,18,,,1,317.83133147572516,Y,l,go,l,1,0.462121603282867,,,,,,,,,,,,,,,,,,30,001,19,w,Bachelor Psychologie,2023-01-17_13h32.04.326,00_bat_bachelor,2022.2.4,60.05488649954915,
,,,,,,,,,,,,0,0,0,0,19,0,19,0,,,,,,,19,,,1,319.3994645335915,Y,None,nogo,None,1,,,,,,,,,,,,,,,,,,,30,001,19,w,Bachelor Psychologie,2023-01-17_13h32.04.326,00_bat_bachelor,2022.2.4,60.05488649954915,
,,,,,,,,,,,,0,0,0,0,20,0,20,0,,,,,,,20,,,1,321.20076984204934,X,d,go,d,1,0.38887121455627494,,,,,,,,,,,,,,,,,,30,001,19,w,Bachelor Psychologie,2023-01-17_13h32.04.326,00_bat_bachelor,2022.2.4,60.05488649954915,
,,,,,,,,,,,,0,0,0,0,21,0,21,0,,,,,,,21,,,1,322.70202293235343,Y,l,go,l,1,0.6479731495201122,,,,,,,,,,,,,,,,,,30,001,19,w,Bachelor Psychologie,2023-01-17_13h32.04.326,00_bat_bachelor,2022.2.4,60.05488649954915,
,,,,,,,,,,,,0,0,0,0,22,0,22,0,,,,,,,22,,,1,324.4530155379325,X,d,go,d,1,0.368746133390232,,,,,,,,,,,,,,,,,,30,001,19,w,Bachelor Psychologie,2023-01-17_13h32.04.326,00_bat_bachelor,2022.2.4,60.05488649954915,
,,,,,,,,,,,,0,0,0,0,23,0,23,0,,,,,,,23,,,1,325.9377488786704,X,None,nogo,d,0,0.46773420661338605,,,,,,,,,,,,,,,,,,30,001,19,w,Bachelor Psychologie,2023-01-17_13h32.04.326,00_bat_bachelor,2022.2.4,60.05488649954915,
,,,,,,,,,,,,0,0,0,0,24,0,24,0,,,,,,,24,,,1,327.52223344377126,Y,l,go,l,1,0.48356789590616245,,,,,,,,,,,,,,,,,,30,001,19,w,Bachelor Psychologie,2023-01-17_13h32.04.326,00_bat_bachelor,2022.2.4,60.05488649954915,
,,,,,,,,,,,,0,0,0,0,25,0,25,0,,,,,,,25,,,1,329.1067000694893,X,d,go,d,1,0.4990854641509941,,,,,,,,,,,,,,,,,,30,001,19,w,Bachelor Psychologie,2023-01-17_13h32.04.326,00_bat_bachelor,2022.2.4,60.05488649954915,
,,,,,,,,,,,,0,0,0,0,26,0,26,0,,,,,,,26,,,1,330.7087487472745,Y,l,go,l,1,0.5285201165243052,,,,,,,,,,,,,,,,,,30,001,19,w,Bachelor Psychologie,2023-01-17_13h32.04.326,00_bat_bachelor,2022.2.4,60.05488649954915,
,,,,,,,,,,,,0,0,0,0,27,0,27,0,,,,,,,27,,,1,332.34311450031237,X,d,go,d,1,0.4299727703764802,,,,,,,,,,,,,,,,,,30,001,19,w,Bachelor Psychologie,2023-01-17_13h32.04.326,00_bat_bachelor,2022.2.4,60.05488649954915,
,,,,,,,,,,,,0,0,0,0,28,0,28,0,,,,,,,28,,,1,333.8945358087076,Y,l,go,l,1,0.39853860379662365,,,,,,,,,,,,,,,,,,30,001,19,w,Bachelor Psychologie,2023-01-17_13h32.04.326,00_bat_bachelor,2022.2.4,60.05488649954915,
,,,,,,,,,,,,0,0,0,0,29,0,29,0,,,,,,,29,,,1,335.41233919402293,Y,None,nogo,None,1,,336.21276110896724,,,,,,,,,,,,,,,,,30,001,19,w,Bachelor Psychologie,2023-01-17_13h32.04.326,00_bat_bachelor,2022.2.4,60.05488649954915,
,,,,,,,,,,,,0,0,0,0,30,0,30,0,,,,,,,30,,,1,337.2137191691145,X,d,go,d,1,0.40865981101524085,,,,,,,,,,,,,,,,,,30,001,19,w,Bachelor Psychologie,2023-01-17_13h32.04.326,00_bat_bachelor,2022.2.4,60.05488649954915,
,,,,,,,,,,,,0,0,0,0,31,0,31,0,,,,,,,31,,,1,338.73150800897565,Y,l,go,l,1,0.6650543533760356,,,,,,,,,,,,,,,,,,30,001,19,w,Bachelor Psychologie,2023-01-17_13h32.04.326,00_bat_bachelor,2022.2.4,60.05488649954915,
,,,,,,,,,,,,0,0,0,0,32,0,32,0,,,,,,,32,,,1,340.51584653777536,X,d,go,d,1,0.417109261470614,,,,,,,,,,,,,,,,,,30,001,19,w,Bachelor Psychologie,2023-01-17_13h32.04.326,00_bat_bachelor,2022.2.4,60.05488649954915,
,,,,,,,,,,,,0,0,0,0,33,0,33,0,,,,,,,33,,,1,342.03330422627914,X,None,nogo,None,1,,,,,,,,,,,,,,,,,,,30,001,19,w,Bachelor Psychologie,2023-01-17_13h32.04.326,00_bat_bachelor,2022.2.4,60.05488649954915,
,,,,,,,,,,,,0,0,0,0,34,0,34,0,,,,,,,34,,,1,343.83484953462903,Y,l,go,l,1,0.3949836964311544,,,,,,,,,,,,,,,,,,30,001,19,w,Bachelor Psychologie,2023-01-17_13h32.04.326,00_bat_bachelor,2022.2.4,60.05488649954915,
,,,,,,,,,,,,0,0,0,0,35,0,35,0,,,,,,,35,,,1,345.3358922007901,X,d,go,d,1,0.46299190587888006,,,,,,,,,,,,,,,,,,30,001,19,w,Bachelor Psychologie,2023-01-17_13h32.04.326,00_bat_bachelor,2022.2.4,60.05488649954915,
,,,,,,,,,,,,0,0,0,0,36,0,36,0,,,,,,,36,,,1,346.90355204677326,Y,l,go,l,1,0.47760814121284056,,,,,,,,,,,,,,,,,,30,001,19,w,Bachelor Psychologie,2023-01-17_13h32.04.326,00_bat_bachelor,2022.2.4,60.05488649954915,
,,,,,,,,,,,,0,0,0,0,37,0,37,0,,,,,,,37,,,1,348.48837600564,X,d,go,d,1,0.4948163752997061,,,,,,,,,,,,,,,,,,30,001,19,w,Bachelor Psychologie,2023-01-17_13h32.04.326,00_bat_bachelor,2022.2.4,60.05488649954915,
,,,,,,,,,,,,0,0,0,0,38,0,38,0,,,,,,,38,,,1,350.08949813843356,X,None,nogo,d,0,0.6195518299791729,,,,,,,,,,,,,,,,,,30,001,19,w,Bachelor Psychologie,2023-01-17_13h32.04.326,00_bat_bachelor,2022.2.4,60.05488649954915,
,,,,,,,,,,,,0,0,0,0,39,0,39,0,,,,,,,39,,,1,351.82408687318093,Y,l,go,l,1,0.32671366892463993,,,,,,,,,,,,,,,,,,30,001,19,w,Bachelor Psychologie,2023-01-17_13h32.04.326,00_bat_bachelor,2022.2.4,60.05488649954915,
,,,,,,,,,,,,0,0,0,0,40,0,40,0,,,,,,,40,,,1,353.2585700564523,X,d,go,None,0,,,,,,,,,,,,,,,,,,,30,001,19,w,Bachelor Psychologie,2023-01-17_13h32.04.326,00_bat_bachelor,2022.2.4,60.05488649954915,
,,,,,,,,,,,,0,0,0,0,41,0,41,0,,,,,,,41,,,1,355.0596581528953,X,None,nogo,None,1,,,,,,,,,,,,,,,,,,,30,001,19,w,Bachelor Psychologie,2023-01-17_13h32.04.326,00_bat_bachelor,2022.2.4,60.05488649954915,
,,,,,,,,,,,,0,0,0,0,42,0,42,0,,,,,,,42,,,1,356.86136976418493,Y,l,go,l,1,0.29654592598672025,,,,,,,,,,,,,,,,,,30,001,19,w,Bachelor Psychologie,2023-01-17_13h32.04.326,00_bat_bachelor,2022.2.4,60.05488649954915,
,,,,,,,,,,,,0,0,0,0,43,0,43,0,,,,,,,43,,,1,358.26308981183683,X,d,go,d,1,0.5270384202740388,,,,,,,,,,,,,,,,,,30,001,19,w,Bachelor Psychologie,2023-01-17_13h32.04.326,00_bat_bachelor,2022.2.4,60.05488649954915,
,,,,,,,,,,,,0,0,0,0,44,0,44,0,,,,,,,44,,,1,359.89744489821896,Y,l,go,None,0,,360.6983511765575,,,,,,,,,,,,,,,,,30,001,19,w,Bachelor Psychologie,2023-01-17_13h32.04.326,00_bat_bachelor,2022.2.4,60.05488649954915,
,,,,,,,,,,,,0,0,0,0,45,0,45,0,,,,,,,45,,,1,361.6988185702794,X,d,go,d,1,0.4348110710561741,,,,,,,,,,,,,,,,,,30,001,19,w,Bachelor Psychologie,2023-01-17_13h32.04.326,00_bat_bachelor,2022.2.4,60.05488649954915,
,,,,,,,,,,,,0,0,0,0,46,0,46,0,,,,,,,46,,,1,363.2502655756398,Y,l,go,l,1,0.3070375572424382,,,,,,,,,,,,,,,,,,30,001,19,w,Bachelor Psychologie,2023-01-17_13h32.04.326,00_bat_bachelor,2022.2.4,60.05488649954915,
,,,,,,,,,,,,0,0,0,0,47,0,47,0,,,,,,,47,,,1,364.66772670655337,X,d,go,d,1,0.40905399264011066,,,,,,,,,,,,,,,,,,30,001,19,w,Bachelor Psychologie,2023-01-17_13h32.04.326,00_bat_bachelor,2022.2.4,60.05488649954915,
,,,,,,,,,,,,0,0,0,0,48,0,48,0,,,,,,,48,,,1,366.21900934836594,X,None,nogo,None,1,,367.0195452026528,,,,,,,,,,,,,,,,,30,001,19,w,Bachelor Psychologie,2023-01-17_13h32.04.326,00_bat_bachelor,2022.2.4,60.05488649954915,
,,,,,,,,,,,,0,0,0,0,49,0,49,0,,,,,,,49,,,1,368.02049356582575,Y,l,go,l,1,0.33716748203733005,,,,,,,,,,,,,,,,,,30,001,19,w,Bachelor Psychologie,2023-01-17_13h32.04.326,00_bat_bachelor,2022.2.4,60.05488649954915,
,,,,,,,,,,,,0,0,0,0,50,0,50,0,,,,,,,50,,,1,369.48791006646934,X,d,go,None,0,,370.2885147692141,,,,,,,,,,,,,,,,,30,001,19,w,Bachelor Psychologie,2023-01-17_13h32.04.326,00_bat_bachelor,2022.2.4,60.05488649954915,
,,,,,,,,,,,,0,0,0,0,51,0,51,0,,,,,,,51,,,1,371.2892711324821,X,None,nogo,None,1,,372.0896314716956,,,,,,,,,,,,,,,,,30,001,19,w,Bachelor Psychologie,2023-01-17_13h32.04.326,00_bat_bachelor,2022.2.4,60.05488649954915,
,,,,,,,,,,,,0,0,0,0,52,0,52,0,,,,,,,52,,,1,373.0904052895057,Y,l,go,l,1,0.4189095030014869,,,,,,,,,,,,,,,,,,30,001,19,w,Bachelor Psychologie,2023-01-17_13h32.04.326,00_bat_bachelor,2022.2.4,60.05488649954915,
,,,,,,,,,,,,0,0,0,0,53,0,53,0,,,,,,,53,,,1,374.6245679396088,X,d,go,d,1,0.4367160398251144,,,,,,,,,,,,,,,,,,30,001,19,w,Bachelor Psychologie,2023-01-17_13h32.04.326,00_bat_bachelor,2022.2.4,60.05488649954915,
,,,,,,,,,,,,0,0,0,0,54,0,54,0,,,,,,,54,,,1,376.17609785401146,Y,l,go,l,1,0.5011266752699157,,,,,,,,,,,,,,,,,,30,001,19,w,Bachelor Psychologie,2023-01-17_13h32.04.326,00_bat_bachelor,2022.2.4,60.05488649954915,
,,,,,,,,,,,,0,0,0,0,55,0,55,0,,,,,,,55,,,1,377.79388373630354,Y,None,nogo,None,1,,,,,,,,,,,,,,,,,,,30,001,19,w,Bachelor Psychologie,2023-01-17_13h32.04.326,00_bat_bachelor,2022.2.4,60.05488649954915,
,,,,,,,,,,,,0,0,0,0,56,0,56,0,,,,,,,56,,,1,379.59526080230717,X,d,go,d,1,0.3792178859002888,,,,,,,,,,,,,,,,,,30,001,19,w,Bachelor Psychologie,2023-01-17_13h32.04.326,00_bat_bachelor,2022.2.4,60.05488649954915,
,,,,,,,,,,,,0,0,0,0,57,0,57,0,,,,,,,57,,,1,381.07981717342045,Y,l,go,l,1,0.6072851692588301,,,,,,,,,,,,,,,,,,30,001,19,w,Bachelor Psychologie,2023-01-17_13h32.04.326,00_bat_bachelor,2022.2.4,60.05488649954915,
,,,,,,,,,,,,0,0,0,0,58,0,58,0,,,,,,,58,,,1,382.7977407041326,Y,None,nogo,None,1,,,,,,,,,,,,,,,,,,,30,001,19,w,Bachelor Psychologie,2023-01-17_13h32.04.326,00_bat_bachelor,2022.2.4,60.05488649954915,
,,,,,,,,,,,,0,0,0,0,59,0,59,0,,,,,,,59,,,1,384.59904843682307,Y,None,nogo,None,1,,,,,,,,,,,,,,,,,,,30,001,19,w,Bachelor Psychologie,2023-01-17_13h32.04.326,00_bat_bachelor,2022.2.4,60.05488649954915,
,,,,,,,,,,,,0,0,0,0,60,0,60,0,,,,,,,60,,,1,386.40061216941103,X,d,go,d,1,0.4056324185366975,,,,,,,,,,,,,,,,,,30,001,19,w,Bachelor Psychologie,2023-01-17_13h32.04.326,00_bat_bachelor,2022.2.4,60.05488649954915,
,,,,,,,,,,,,0,0,0,0,61,0,61,0,,,,,,,61,,,1,387.91837046382716,Y,l,go,l,1,0.5192347877018619,,,,,,,,,,,,,,,,,,30,001,19,w,Bachelor Psychologie,2023-01-17_13h32.04.326,00_bat_bachelor,2022.2.4,60.05488649954915,
,,,,,,,,,,,,0,0,0,0,62,0,62,0,,,,,,,62,,,1,389.5529994894605,X,d,go,d,1,0.48500934975163545,,,,,,,,,,,,,,,,,,30,001,19,w,Bachelor Psychologie,2023-01-17_13h32.04.326,00_bat_bachelor,2022.2.4,60.05488649954915,
,,,,,,,,,,,,0,0,0,0,63,0,63,0,,,,,,,63,,,1,391.1538724102429,X,None,nogo,None,1,,,,,,,,,,,,,,,,,,,30,001,19,w,Bachelor Psychologie,2023-01-17_13h32.04.326,00_bat_bachelor,2022.2.4,60.05488649954915,
,,,,,,,,,,,,0,0,0,0,64,0,64,0,,,,,,,64,,,1,392.9554366276716,Y,l,go,l,1,0.44226512806199025,,,,,,,,,,,,,,,,,,30,001,19,w,Bachelor Psychologie,2023-01-17_13h32.04.326,00_bat_bachelor,2022.2.4,60.05488649954915,
,,,,,,,,,,,,0,0,0,0,65,0,65,0,,,,,,,65,,,1,394.50666399676993,X,d,go,d,1,0.5070384299760917,,,,,,,,,,,,,,,,,,30,001,19,w,Bachelor Psychologie,2023-01-17_13h32.04.326,00_bat_bachelor,2022.2.4,60.05488649954915,
,,,,,,,,,,,,0,0,0,0,66,0,66,0,,,,,,,66,,,1,396.12466369713366,Y,l,go,l,1,0.44242706736258697,,,,,,,,,,,,,,,,,,30,001,19,w,Bachelor Psychologie,2023-01-17_13h32.04.326,00_bat_bachelor,2022.2.4,60.05488649954915,
,,,,,,,,,,,,0,0,0,0,67,0,67,0,,,,,,,67,,,1,397.67570391480695,X,d,go,d,1,0.4579402719682548,,,,,,,,,,,,,,,,,,30,001,19,w,Bachelor Psychologie,2023-01-17_13h32.04.326,00_bat_bachelor,2022.2.4,60.05488649954915,
,,,,,,,,,,,,0,0,0,0,68,0,68,0,,,,,,,68,,,1,399.2436672758049,X,None,nogo,None,1,,400.04399513018143,,,,,,,,,,,,,,,,,30,001,19,w,Bachelor Psychologie,2023-01-17_13h32.04.326,00_bat_bachelor,2022.2.4,60.05488649954915,
,,,,,,,,,,,,0,0,0,0,69,0,69,0,,,,,,,69,,,1,401.04506664481596,Y,l,go,l,1,0.46544766226725187,,,,,,,,,,,,,,,,,,30,001,19,w,Bachelor Psychologie,2023-01-17_13h32.04.326,00_bat_bachelor,2022.2.4,60.05488649954915,
,,,,,,,,,,,,0,0,0,0,70,0,70,0,,,,,,,70,,,1,402.6128346119658,X,d,go,d,1,0.43299143557669595,,,,,,,,,,,,,,,,,,30,001,19,w,Bachelor Psychologie,2023-01-17_13h32.04.326,00_bat_bachelor,2022.2.4,60.05488649954915,
,,,,,,,,,,,,0,0,0,0,71,0,71,0,,,,,,,71,,,1,404.1470879286935,Y,l,go,l,1,0.5145487293775659,,,,,,,,,,,,,,,,,,30,001,19,w,Bachelor Psychologie,2023-01-17_13h32.04.326,00_bat_bachelor,2022.2.4,60.05488649954915,
,,,,,,,,,,,,0,0,0,0,72,0,72,0,,,,,,,72,,,1,405.76567768937093,X,d,go,d,1,0.4154496258997824,,,,,,,,,,,,,,,,,,30,001,19,w,Bachelor Psychologie,2023-01-17_13h32.04.326,00_bat_bachelor,2022.2.4,60.05488649954915,
,,,,,,,,,,,,0,0,0,0,73,0,73,0,,,,,,,73,,,1,407.2836410745949,X,None,nogo,None,1,,408.08443826209987,,,,,,,,,,,,,,,,,30,001,19,w,Bachelor Psychologie,2023-01-17_13h32.04.326,00_bat_bachelor,2022.2.4,60.05488649954915,
,,,,,,,,,,,,0,0,0,0,74,0,74,0,,,,,,,74,,,1,409.08519559506385,Y,l,go,l,1,0.26379588125564624,,,,,,,,,,,,,,,,,,30,001,19,w,Bachelor Psychologie,2023-01-17_13h32.04.326,00_bat_bachelor,2022.2.4,60.05488649954915,
,,,,,,,,,,,,0,0,0,0,75,0,75,0,,,,,,,75,,,1,410.48595515833586,X,d,go,d,1,0.47945201910624746,,,,,,,,,,,,,,,,,,30,001,19,w,Bachelor Psychologie,2023-01-17_13h32.04.326,00_bat_bachelor,2022.2.4,60.05488649954915,
,,,,,,,,,,,,0,0,0,0,76,0,76,0,,,,,,,76,,,1,412.08749862424156,X,None,nogo,d,0,0.44615167162555736,,,,,,,,,,,,,,,,,,30,001,19,w,Bachelor Psychologie,2023-01-17_13h32.04.326,00_bat_bachelor,2022.2.4,60.05488649954915,
,,,,,,,,,,,,0,0,0,0,77,0,77,0,,,,,,,77,,,1,413.6386741145834,Y,l,go,l,1,0.3823626116354717,,,,,,,,,,,,,,,,,,30,001,19,w,Bachelor Psychologie,2023-01-17_13h32.04.326,00_bat_bachelor,2022.2.4,60.05488649954915,
,,,,,,,,,,,,0,0,0,0,78,0,78,0,,,,,,,78,,,1,415.1395165384165,X,d,go,d,1,0.3856164282478858,,,,,,,,,,,,,,,,,,30,001,19,w,Bachelor Psychologie,2023-01-17_13h32.04.326,00_bat_bachelor,2022.2.4,60.05488649954915,
,,,,,,,,,,,,0,0,0,0,79,0,79,0,,,,,,,79,,,1,416.64091605290014,Y,l,go,l,1,0.388007214962272,,,,,,,,,,,,,,,,,,30,001,19,w,Bachelor Psychologie,2023-01-17_13h32.04.326,00_bat_bachelor,2022.2.4,60.05488649954915,
,,,,,,,,,,,,0,0,0,0,80,0,80,0,,,,,,,80,,,1,418.15876646847755,X,d,go,d,1,0.5023669170914218,,,,,,,,,,,,,,,,,,30,001,19,w,Bachelor Psychologie,2023-01-17_13h32.04.326,00_bat_bachelor,2022.2.4,60.05488649954915,
,,,,,,,,,,,,0,0,0,0,81,0,81,0,,,,,,,81,,,1,419.80956712263287,Y,l,go,l,1,0.4516353053331841,,,,,,,,,,,,,,,,,,30,001,19,w,Bachelor Psychologie,2023-01-17_13h32.04.326,00_bat_bachelor,2022.2.4,60.05488649954915,
,,,,,,,,,,,,0,0,0,0,82,0,82,0,,,,,,,82,,,1,421.3774853927316,X,d,go,d,1,0.5633656753925607,,,,,,,,,,,,,,,,,,30,001,19,w,Bachelor Psychologie,2023-01-17_13h32.04.326,00_bat_bachelor,2022.2.4,60.05488649954915,
,,,,,,,,,,,,0,0,0,0,83,0,83,0,,,,,,,83,,,1,423.0617444549134,Y,l,go,l,1,0.5907276015204843,,,,,,,,,,,,,,,,,,30,001,19,w,Bachelor Psychologie,2023-01-17_13h32.04.326,00_bat_bachelor,2022.2.4,60.05488649954915,
,,,,,,,,,,,,0,0,0,0,84,0,84,0,,,,,,,84,,,1,424.77974265224475,X,d,go,d,1,0.5217414531653048,,,,,,,,,,,,,,,,,,30,001,19,w,Bachelor Psychologie,2023-01-17_13h32.04.326,00_bat_bachelor,2022.2.4,60.05488649954915,
,,,,,,,,,,,,0,0,0,0,85,0,85,0,,,,,,,85,,,1,426.41456755658146,X,None,nogo,None,1,,427.214894441262,,,,,,,,,,,,,,,,,30,001,19,w,Bachelor Psychologie,2023-01-17_13h32.04.326,00_bat_bachelor,2022.2.4,60.05488649954915,
,,,,,,,,,,,,0,0,0,0,86,0,86,0,,,,,,,86,,,1,428.2158166226436,Y,l,go,l,1,0.2546899462759029,,,,,,,,,,,,,,,,,,30,001,19,w,Bachelor Psychologie,2023-01-17_13h32.04.326,00_bat_bachelor,2022.2.4,60.05488649954915,
,,,,,,,,,,,,0,0,0,0,87,0,87,0,,,,,,,87,,,1,429.58353668676864,X,d,go,d,1,0.48626365218660794,,,,,,,,,,,,,,,,,,30,001,19,w,Bachelor Psychologie,2023-01-17_13h32.04.326,00_bat_bachelor,2022.2.4,60.05488649954915,
,,,,,,,,,,,,0,0,0,0,88,0,88,0,,,,,,,88,,,1,431.1846069408057,Y,l,go,None,0,,,,,,,,,,,,,,,,,,,30,001,19,w,Bachelor Psychologie,2023-01-17_13h32.04.326,00_bat_bachelor,2022.2.4,60.05488649954915,
,,,,,,,,,,,,0,0,0,0,89,0,89,0,,,,,,,89,,,1,432.98595346136426,X,d,go,d,1,0.3488266279018717,,,,,,,,,,,,,,,,,,30,001,19,w,Bachelor Psychologie,2023-01-17_13h32.04.326,00_bat_bachelor,2022.2.4,60.05488649954915,
,,,,,,,,,,,,0,0,0,0,90,0,90,0,,,,,,,90,,,1,434.4368269397237,Y,l,go,l,1,0.3844372773019131,,,,,,,,,,,,,,,,,,30,001,19,w,Bachelor Psychologie,2023-01-17_13h32.04.326,00_bat_bachelor,2022.2.4,60.05488649954915,
,,,,,,,,,,,,0,0,0,0,91,0,91,0,,,,,,,91,,,1,435.93832827232836,X,d,go,d,1,0.48274656297871843,,,,,,,,,,,,,,,,,,30,001,19,w,Bachelor Psychologie,2023-01-17_13h32.04.326,00_bat_bachelor,2022.2.4,60.05488649954915,
,,,,,,,,,,,,0,0,0,0,92,0,92,0,,,,,,,92,,,1,437.52288895859965,Y,l,go,l,1,0.40209932935249526,,,,,,,,,,,,,,,,,,30,001,19,w,Bachelor Psychologie,2023-01-17_13h32.04.326,00_bat_bachelor,2022.2.4,60.05488649954915,
,,,,,,,,,,,,0,0,0,0,93,0,93,0,,,,,,,93,,,1,439.0404125864734,X,d,go,d,1,0.37391655512328725,,,,,,,,,,,,,,,,,,30,001,19,w,Bachelor Psychologie,2023-01-17_13h32.04.326,00_bat_bachelor,2022.2.4,60.05488649954915,
,,,,,,,,,,,,0,0,0,0,94,0,94,0,,,,,,,94,,,1,440.52509307874425,X,None,nogo,None,1,,,,,,,,,,,,,,,,,,,30,001,19,w,Bachelor Psychologie,2023-01-17_13h32.04.326,00_bat_bachelor,2022.2.4,60.05488649954915,
,,,,,,,,,,,,0,0,0,0,95,0,95,0,,,,,,,95,,,1,442.3265385083505,Y,l,go,l,1,0.30327222574851476,,,,,,,,,,,,,,,,,,30,001,19,w,Bachelor Psychologie,2023-01-17_13h32.04.326,00_bat_bachelor,2022.2.4,60.05488649954915,
,,,,,,,,,,,,0,0,0,0,96,0,96,0,,,,,,,96,,,1,443.743898790839,X,d,go,d,1,0.31043828288966324,,,,,,,,,,,,,,,,,,30,001,19,w,Bachelor Psychologie,2023-01-17_13h32.04.326,00_bat_bachelor,2022.2.4,60.05488649954915,
,,,,,,,,,,,,0,0,0,0,97,0,97,0,,,,,,,97,,,1,445.1621371335059,Y,l,go,l,1,0.5237065431138035,,,,,,,,,,,,,,,,,,30,001,19,w,Bachelor Psychologie,2023-01-17_13h32.04.326,00_bat_bachelor,2022.2.4,60.05488649954915,
,,,,,,,,,,,,0,0,0,0,98,0,98,0,,,,,,,98,,,1,446.79680009852746,X,d,go,d,1,0.4081696294306312,,,,,,,,,,,,,,,,,,30,001,19,w,Bachelor Psychologie,2023-01-17_13h32.04.326,00_bat_bachelor,2022.2.4,60.05488649954915,
,,,,,,,,,,,,0,0,0,0,99,0,99,0,,,,,,,99,,,1,448.3146485747129,Y,l,go,l,1,0.29926204586809035,,,,,,,,,,,,,,,,,,30,001,19,w,Bachelor Psychologie,2023-01-17_13h32.04.326,00_bat_bachelor,2022.2.4,60.05488649954915,
,,,,,,,,,,,,0,0,0,0,100,0,100,0,,,,,,,100,,,1,449.7153349259024,X,d,go,d,1,0.3537570497574052,,,,,,,,,,,,,,,,,,30,001,19,w,Bachelor Psychologie,2023-01-17_13h32.04.326,00_bat_bachelor,2022.2.4,60.05488649954915,
,,,,,,,,,,,,0,0,0,0,101,0,101,0,,,,,,,101,,,1,451.1832803959842,Y,l,go,l,1,0.4066224786656676,,,,,,,,,,,,,,,,,,30,001,19,w,Bachelor Psychologie,2023-01-17_13h32.04.326,00_bat_bachelor,2022.2.4,60.05488649954915,
,,,,,,,,,,,,0,0,0,0,102,0,102,0,,,,,,,102,,,1,452.70092766016023,X,d,go,d,1,0.45662003017787356,,,,,,,,,,,,,,,,,,30,001,19,w,Bachelor Psychologie,2023-01-17_13h32.04.326,00_bat_bachelor,2022.2.4,60.05488649954915,
,,,,,,,,,,,,0,0,0,0,103,0,103,0,,,,,,,103,,,1,454.26883574844396,Y,l,go,l,1,0.40887362910143565,,,,,,,,,,,,,,,,,,30,001,19,w,Bachelor Psychologie,2023-01-17_13h32.04.326,00_bat_bachelor,2022.2.4,60.05488649954915,
,,,,,,,,,,,,0,0,0,0,104,0,104,0,,,,,,,104,,,1,455.78642677022435,X,d,go,d,1,0.42729737774061505,,,,,,,,,,,,,,,,,,30,001,19,w,Bachelor Psychologie,2023-01-17_13h32.04.326,00_bat_bachelor,2022.2.4,60.05488649954915,
,,,,,,,,,,,,0,0,0,0,105,0,105,0,,,,,,,105,,,1,457.3212090563902,X,None,nogo,d,0,0.46053178585134447,,,,,,,,,,,,,,,,,,30,001,19,w,Bachelor Psychologie,2023-01-17_13h32.04.326,00_bat_bachelor,2022.2.4,60.05488649954915,
,,,,,,,,,,,,0,0,0,0,106,0,106,0,,,,,,,106,,,1,458.8891505992069,Y,l,go,l,1,0.5087935806513997,,,,,,,,,,,,,,,,,,30,001,19,w,Bachelor Psychologie,2023-01-17_13h32.04.326,00_bat_bachelor,2022.2.4,60.05488649954915,
,,,,,,,,,,,,0,0,0,0,107,0,107,0,,,,,,,107,,,1,460.5070465420431,X,d,go,d,1,0.5715256714465795,,,,,,,,,,,,,,,,,,30,001,19,w,Bachelor Psychologie,2023-01-17_13h32.04.326,00_bat_bachelor,2022.2.4,60.05488649954915,
,,,,,,,,,,,,0,0,0,0,108,0,108,0,,,,,,,108,,,1,462.1912808769557,Y,l,go,l,1,0.3913390921370592,,,,,,,,,,,,,,,,,,30,001,19,w,Bachelor Psychologie,2023-01-17_13h32.04.326,00_bat_bachelor,2022.2.4,60.05488649954915,
,,,,,,,,,,,,0,0,0,0,109,0,109,0,,,,,,,109,,,1,463.69262317933317,X,d,go,d,1,0.4561759091884596,,,,,,,,,,,,,,,,,,30,001,19,w,Bachelor Psychologie,2023-01-17_13h32.04.326,00_bat_bachelor,2022.2.4,60.05488649954915,
,,,,,,,,,,,,0,0,0,0,110,0,110,0,,,,,,,110,,,1,465.26057296457293,Y,l,go,l,1,0.4249618637113599,,,,,,,,,,,,,,,,,,30,001,19,w,Bachelor Psychologie,2023-01-17_13h32.04.326,00_bat_bachelor,2022.2.4,60.05488649954915,
,,,,,,,,,,,,0,0,0,0,111,0,111,0,,,,,,,111,,,1,466.7951181599492,X,d,go,d,1,0.6178092853660928,,,,,,,,,,,,,,,,,,30,001,19,w,Bachelor Psychologie,2023-01-17_13h32.04.326,00_bat_bachelor,2022.2.4,60.05488649954915,
,,,,,,,,,,,,0,0,0,0,112,0,112,0,,,,,,,112,,,1,468.5296705310757,Y,l,go,l,1,0.4676032975985436,,,,,,,,,,,,,,,,,,30,001,19,w,Bachelor Psychologie,2023-01-17_13h32.04.326,00_bat_bachelor,2022.2.4,60.05488649954915,
,,,,,,,,,,,,0,0,0,0,113,0,113,0,,,,,,,113,,,1,470.11401400533214,X,d,go,d,1,0.4186350789095741,,,,,,,,,,,,,,,,,,30,001,19,w,Bachelor Psychologie,2023-01-17_13h32.04.326,00_bat_bachelor,2022.2.4,60.05488649954915,
,,,,,,,,,,,,0,0,0,0,114,0,114,0,,,,,,,114,,,1,471.6487822308991,X,None,nogo,None,1,,,,,,,,,,,,,,,,,,,30,001,19,w,Bachelor Psychologie,2023-01-17_13h32.04.326,00_bat_bachelor,2022.2.4,60.05488649954915,
,,,,,,,,,,,,0,0,0,0,115,0,115,0,,,,,,,115,,,1,473.45005166059127,Y,l,go,l,1,0.2676625460444484,,,,,,,,,,,,,,,,,,30,001,19,w,Bachelor Psychologie,2023-01-17_13h32.04.326,00_bat_bachelor,2022.2.4,60.05488649954915,
,,,,,,,,,,,,0,0,0,0,116,0,116,0,,,,,,,116,,,1,474.83455135294935,X,d,go,d,1,0.24363540617923718,,,,,,,,,,,,,,,,,,30,001,19,w,Bachelor Psychologie,2023-01-17_13h32.04.326,00_bat_bachelor,2022.2.4,60.05488649954915,
,,,,,,,,,,,,0,0,0,0,117,0,117,0,,,,,,,117,,,1,476.1852614859381,X,None,nogo,l,0,0.2519229173049098,,,,,,,,,,,,,,,,,,30,001,19,w,Bachelor Psychologie,2023-01-17_13h32.04.326,00_bat_bachelor,2022.2.4,60.05488649954915,
,,,,,,,,,,,,0,0,0,0,118,0,118,0,,,,,,,118,,,1,477.5533810650377,Y,l,go,l,1,0.4677948126482079,,,,,,,,,,,,,,,,,,30,001,19,w,Bachelor Psychologie,2023-01-17_13h32.04.326,00_bat_bachelor,2022.2.4,60.05488649954915,
,,,,,,,,,,,,0,0,0,0,119,0,119,0,,,,,,,119,,,1,479.1378796907229,X,d,go,d,1,0.46801687314291485,,,,,,,,,,,,,,,,,,30,001,19,w,Bachelor Psychologie,2023-01-17_13h32.04.326,00_bat_bachelor,2022.2.4,60.05488649954915,
,,,,,,,,,,,,0,0,0,0,120,0,120,0,,,,,,,120,,,1,480.7223589225032,X,None,nogo,None,1,,,,,,,,,,,,,,,,,,,30,001,19,w,Bachelor Psychologie,2023-01-17_13h32.04.326,00_bat_bachelor,2022.2.4,60.05488649954915,
,,,,,,,,,,,,0,0,0,0,121,0,121,0,,,,,,,121,,,1,482.5238426551077,Y,l,go,l,1,0.3302976671839133,,,,,,,,,,,,,,,,,,30,001,19,w,Bachelor Psychologie,2023-01-17_13h32.04.326,00_bat_bachelor,2022.2.4,60.05488649954915,
,,,,,,,,,,,,0,0,0,0,122,0,122,0,,,,,,,122,,,1,483.9581566263514,X,d,go,d,1,0.4639082690846408,,,,,,,,,,,,,,,,,,30,001,19,w,Bachelor Psychologie,2023-01-17_13h32.04.326,00_bat_bachelor,2022.2.4,60.05488649954915,
,,,,,,,,,,,,0,0,0,0,123,0,123,0,,,,,,,123,,,1,485.526080714626,Y,l,go,l,1,0.4154762925609248,,,,,,,,,,,,,,,,,,30,001,19,w,Bachelor Psychologie,2023-01-17_13h32.04.326,00_bat_bachelor,2022.2.4,60.05488649954915,
,,,,,,,,,,,,0,0,0,0,124,0,124,0,,,,,,,124,,,1,487.04355343343923,Y,None,nogo,None,1,,,,,,,,,,,,,,,,,,,30,001,19,w,Bachelor Psychologie,2023-01-17_13h32.04.326,00_bat_bachelor,2022.2.4,60.05488649954915,
,,,,,,,,,,,,0,0,0,0,125,0,125,0,,,,,,,125,,,1,488.845195226575,X,d,go,d,1,0.3456324476428563,,,,,,,,,,,,,,,,,,30,001,19,w,Bachelor Psychologie,2023-01-17_13h32.04.326,00_bat_bachelor,2022.2.4,60.05488649954915,
,,,,,,,,,,,,0,0,0,0,126,0,126,0,,,,,,,126,,,1,490.2961487049033,Y,l,go,l,1,0.42962610386894085,,,,,,,,,,,,,,,,,,30,001,19,w,Bachelor Psychologie,2023-01-17_13h32.04.326,00_bat_bachelor,2022.2.4,60.05488649954915,
,,,,,,,,,,,,0,0,0,0,127,0,127,0,,,,,,,127,,,1,491.8308257789904,X,d,go,d,1,0.3987679370184196,,,,,,,,,,,,,,,,,,30,001,19,w,Bachelor Psychologie,2023-01-17_13h32.04.326,00_bat_bachelor,2022.2.4,60.05488649954915,
,,,,,,,,,,,,0,0,0,0,128,0,128,0,,,,,,,128,,,1,493.33196008147206,Y,l,go,l,1,0.4976905557268765,,,,,,,,,,,,,,,,,,30,001,19,w,Bachelor Psychologie,2023-01-17_13h32.04.326,00_bat_bachelor,2022.2.4,60.05488649954915,
,,,,,,,,,,,,0,0,0,0,129,0,129,0,,,,,,,129,,,1,494.93291785070323,X,d,go,d,1,0.6570039330254076,,,,,,,,,,,,,,,,,,30,001,19,w,Bachelor Psychologie,2023-01-17_13h32.04.326,00_bat_bachelor,2022.2.4,60.05488649954915,
,,,,,,,,,,,,0,0,0,0,130,0,130,0,,,,,,,130,,,1,496.70090632683423,Y,l,go,l,1,0.45598196987702977,,,,,,,,,,,,,,,,,,30,001,19,w,Bachelor Psychologie,2023-01-17_13h32.04.326,00_bat_bachelor,2022.2.4,60.05488649954915,
,,,,,,,,,,,,0,0,0,0,131,0,131,0,,,,,,,131,,,1,498.26905393015477,X,d,go,d,1,0.5843629985465668,,,,,,,,,,,,,,,,,,30,001,19,w,Bachelor Psychologie,2023-01-17_13h32.04.326,00_bat_bachelor,2022.2.4,60.05488649954915,
,,,,,,,,,,,,0,0,0,0,132,0,132,0,,,,,,,132,,,1,499.97037625679513,X,None,nogo,d,0,0.48336910812940914,,,,,,,,,,,,,,,,,,30,001,19,w,Bachelor Psychologie,2023-01-17_13h32.04.326,00_bat_bachelor,2022.2.4,60.05488649954915,
,,,,,,,,,,,,0,0,0,0,133,0,133,0,,,,,,,133,,,1,501.554997064246,Y,l,go,l,1,0.5311193879897473,,,,,,,,,,,,,,,,,,30,001,19,w,Bachelor Psychologie,2023-01-17_13h32.04.326,00_bat_bachelor,2022.2.4,60.05488649954915,
,,,,,,,,,,,,0,0,0,0,134,0,134,0,,,,,,,134,,,1,503.18920572644856,X,d,go,d,1,0.5917501464864472,,,,,,,,,,,,,,,,,,30,001,19,w,Bachelor Psychologie,2023-01-17_13h32.04.326,00_bat_bachelor,2022.2.4,60.05488649954915,
,,,,,,,,,,,,0,0,0,0,135,0,135,0,,,,,,,135,,,1,504.89085871959105,X,None,nogo,None,1,,,,,,,,,,,,,,,,,,,30,001,19,w,Bachelor Psychologie,2023-01-17_13h32.04.326,00_bat_bachelor,2022.2.4,60.05488649954915,
,,,,,,,,,,,,0,0,0,0,136,0,136,0,,,,,,,136,,,1,506.6922188158933,Y,l,go,l,1,0.4496740941540338,,,,,,,,,,,,,,,,,,30,001,19,w,Bachelor Psychologie,2023-01-17_13h32.04.326,00_bat_bachelor,2022.2.4,60.05488649954915,
,,,,,,,,,,,,0,0,0,0,137,0,137,0,,,,,,,137,,,1,508.2435033970978,X,d,go,d,1,0.6585045383544639,,,,,,,,,,,,,,,,,,30,001,19,w,Bachelor Psychologie,2023-01-17_13h32.04.326,00_bat_bachelor,2022.2.4,60.05488649954915,
,,,,,,,,,,,,0,0,0,0,138,0,138,0,,,,,,,138,,,1,510.01139975205297,Y,l,go,l,1,0.4742137186258333,,,,,,,,,,,,,,,,,,30,001,19,w,Bachelor Psychologie,2023-01-17_13h32.04.326,00_bat_bachelor,2022.2.4,60.05488649954915,
,,,,,,,,,,,,0,0,0,0,139,0,139,0,,,,,,,139,,,1,511.59598565043416,X,d,go,d,1,0.5383877481217496,,,,,,,,,,,,,,,,,,30,001,19,w,Bachelor Psychologie,2023-01-17_13h32.04.326,00_bat_bachelor,2022.2.4,60.05488649954915,
,,,,,,,,,,,,0,0,0,0,140,0,140,0,,,,,,,140,,,1,513.2471809710696,Y,l,go,l,1,0.5180716367467539,,,,,,,,,,,,,,,,,,30,001,19,w,Bachelor Psychologie,2023-01-17_13h32.04.326,00_bat_bachelor,2022.2.4,60.05488649954915,
,,,,,,,,,,,,0,0,0,0,141,0,141,0,,,,,,,141,,,1,514.8816916937358,X,d,go,d,1,0.38752333640877623,,,,,,,,,,,,,,,,,,30,001,19,w,Bachelor Psychologie,2023-01-17_13h32.04.326,00_bat_bachelor,2022.2.4,60.05488649954915,
,,,,,,,,,,,,0,0,0,0,142,0,142,0,,,,,,,142,,,1,516.3829583597835,X,None,nogo,None,1,,,,,,,,,,,,,,,,,,,30,001,19,w,Bachelor Psychologie,2023-01-17_13h32.04.326,00_bat_bachelor,2022.2.4,60.05488649954915,
,,,,,,,,,,,,0,0,0,0,143,0,143,0,,,,,,,143,,,1,518.1843005167029,Y,l,go,l,1,0.31747197643562686,,,,,,,,,,,,,,,,,,30,001,19,w,Bachelor Psychologie,2023-01-17_13h32.04.326,00_bat_bachelor,2022.2.4,60.05488649954915,
,,,,,,,,,,,,0,0,0,0,144,0,144,0,,,,,,,144,,,1,519.6187056394265,X,d,go,d,1,0.547681319367257,,,,,,,,,,,,,,,,,,30,001,19,w,Bachelor Psychologie,2023-01-17_13h32.04.326,00_bat_bachelor,2022.2.4,60.05488649954915,
,,,,,,,,,,,,0,0,0,0,145,0,145,0,,,,,,,145,,,1,521.2700182933331,Y,l,go,l,1,0.38354127774073277,,,,,,,,,,,,,,,,,,30,001,19,w,Bachelor Psychologie,2023-01-17_13h32.04.326,00_bat_bachelor,2022.2.4,60.05488649954915,
,,,,,,,,,,,,0,0,0,0,146,0,146,0,,,,,,,146,,,1,522.7540864222683,Y,None,nogo,None,1,,,,,,,,,,,,,,,,,,,30,001,19,w,Bachelor Psychologie,2023-01-17_13h32.04.326,00_bat_bachelor,2022.2.4,60.05488649954915,
,,,,,,,,,,,,0,0,0,0,147,0,147,0,,,,,,,147,,,1,524.5558130638528,Y,None,nogo,None,1,,,,,,,,,,,,,,,,,,,30,001,19,w,Bachelor Psychologie,2023-01-17_13h32.04.326,00_bat_bachelor,2022.2.4,60.05488649954915,
,,,,,,,,,,,,0,0,0,0,148,0,148,0,,,,,,,148,,,1,526.3571358268528,X,d,go,d,1,0.44933906401274726,,,,,,,,,,,,,,,,,,30,001,19,w,Bachelor Psychologie,2023-01-17_13h32.04.326,00_bat_bachelor,2022.2.4,60.05488649954915,
,,,,,,,,,,,,0,0,0,0,149,0,149,0,,,,,,,149,,,1,527.9084044080519,Y,l,go,l,1,0.4488605187943904,,,,,,,,,,,,,,,,,,30,001,19,w,Bachelor Psychologie,2023-01-17_13h32.04.326,00_bat_bachelor,2022.2.4,60.05488649954915,
,,,,,,,,,,,,0,0,0,0,150,0,150,0,,,,,,,150,,,1,529.4591963834246,X,d,go,d,1,0.4187747151881922,,,,,,,,,,,,,,,,,,30,001,19,w,Bachelor Psychologie,2023-01-17_13h32.04.326,00_bat_bachelor,2022.2.4,60.05488649954915,
,,,,,,,,,,,,0,0,0,0,151,0,151,0,,,,,,,151,,,1,530.9944218208839,Y,l,go,l,1,0.4982107979012653,,,,,,,,,,,,,,,,,,30,001,19,w,Bachelor Psychologie,2023-01-17_13h32.04.326,00_bat_bachelor,2022.2.4,60.05488649954915,
,,,,,,,,,,,,0,0,0,0,152,0,152,0,,,,,,,152,,,1,532.6123681879399,X,d,go,d,1,0.48066559428116307,,,,,,,,,,,,,,,,,,30,001,19,w,Bachelor Psychologie,2023-01-17_13h32.04.326,00_bat_bachelor,2022.2.4,60.05488649954915,
,,,,,,,,,,,,0,0,0,0,153,0,153,0,,,,,,,153,,,1,534.2300585551275,Y,l,go,l,1,0.4316173756378703,,,,,,,,,,,,,,,,,,30,001,19,w,Bachelor Psychologie,2023-01-17_13h32.04.326,00_bat_bachelor,2022.2.4,60.05488649954915,
,,,,,,,,,,,,0,0,0,0,154,0,154,0,,,,,,,154,,,1,535.7645799929305,X,d,go,d,1,0.3360067553294357,,,,,,,,,,,,,,,,,,30,001,19,w,Bachelor Psychologie,2023-01-17_13h32.04.326,00_bat_bachelor,2022.2.4,60.05488649954915,
,,,,,,,,,,,,0,0,0,0,155,0,155,0,,,,,,,155,,,1,537.2322010995413,Y,l,go,l,1,0.3568978967232397,,,,,,,,,,,,,,,,,,30,001,19,w,Bachelor Psychologie,2023-01-17_13h32.04.326,00_bat_bachelor,2022.2.4,60.05488649954915,
,,,,,,,,,,,,0,0,0,0,156,0,156,0,,,,,,,156,,,1,538.7001843877952,X,d,go,d,1,0.4418947039957857,,,,,,,,,,,,,,,,,,30,001,19,w,Bachelor Psychologie,2023-01-17_13h32.04.326,00_bat_bachelor,2022.2.4,60.05488649954915,
,,,,,,,,,,,,0,0,0,0,157,0,157,0,,,,,,,157,,,1,540.2515048477653,Y,l,go,l,1,0.37773861388268415,,,,,,,,,,,,,,,,,,30,001,19,w,Bachelor Psychologie,2023-01-17_13h32.04.326,00_bat_bachelor,2022.2.4,60.05488649954915,
,,,,,,,,,,,,0,0,0,0,158,0,158,0,,,,,,,158,,,1,541.7355564918544,X,d,go,d,1,0.38119412735977676,,,,,,,,,,,,,,,,,,30,001,19,w,Bachelor Psychologie,2023-01-17_13h32.04.326,00_bat_bachelor,2022.2.4,60.05488649954915,
,,,,,,,,,,,,0,0,0,0,159,0,159,0,,,,,,,159,,,1,543.2367460670357,X,None,nogo,l,0,0.5131921239662915,,,,,,,,,,,,,,,,,,30,001,19,w,Bachelor Psychologie,2023-01-17_13h32.04.326,00_bat_bachelor,2022.2.4,60.05488649954915,
,,,,,,,,,,,,0,0,0,0,160,0,160,0,,,,,,,160,,,1,544.8542594645987,X,None,nogo,d,0,0.5915416617353912,,,,,,,,,,,,,,,,,,30,001,19,w,Bachelor Psychologie,2023-01-17_13h32.04.326,00_bat_bachelor,2022.2.4,60.05488649954915,
,,,,,,,,,,,,0,0,0,0,161,0,161,0,,,,,,,161,,,1,546.5556787608803,Y,l,go,None,0,,,,,,,,,,,,,,,,,,,30,001,19,w,Bachelor Psychologie,2023-01-17_13h32.04.326,00_bat_bachelor,2022.2.4,60.05488649954915,
,,,,,,,,,,,,0,0,0,0,162,0,162,0,,,,,,,162,,,1,548.357263341939,X,d,go,d,1,0.4479936101270141,,,,,,,,,,,,,,,,,,30,001,19,w,Bachelor Psychologie,2023-01-17_13h32.04.326,00_bat_bachelor,2022.2.4,60.05488649954915,
,,,,,,,,,,,,0,0,0,0,163,0,163,0,,,,,,,163,,,1,549.9085333776893,Y,l,go,None,0,,550.7089320199157,,,,,,,,,,,,,,,,,30,001,19,w,Bachelor Psychologie,2023-01-17_13h32.04.326,00_bat_bachelor,2022.2.4,60.05488649954915,
,,,,,,,,,,,,0,0,0,0,164,0,164,0,,,,,,,164,,,1,551.7096888680389,Y,None,nogo,None,1,,,,,,,,,,,,,,,,,,,30,001,19,w,Bachelor Psychologie,2023-01-17_13h32.04.326,00_bat_bachelor,2022.2.4,60.05488649954915,
,,,,,,,,,,,,0,0,0,0,165,0,165,0,,,,,,,165,,,1,553.5108695704985,X,d,go,d,1,0.4297734977444634,,,,,,,,,,,,,,,,,,30,001,19,w,Bachelor Psychologie,2023-01-17_13h32.04.326,00_bat_bachelor,2022.2.4,60.05488649954915,
,,,,,,,,,,,,0,0,0,0,166,0,166,0,,,,,,,166,,,1,555.0453560992319,Y,l,go,None,0,,,,,,,,,,,,,,,,,,,30,001,19,w,Bachelor Psychologie,2023-01-17_13h32.04.326,00_bat_bachelor,2022.2.4,60.05488649954915,
,,,,,,,,,,,,0,0,0,0,167,0,167,0,,,,,,,167,,,1,556.8470919529354,X,d,go,d,1,0.5350505376118235,,,,,,,,,,,,,,,,,,30,001,19,w,Bachelor Psychologie,2023-01-17_13h32.04.326,00_bat_bachelor,2022.2.4,60.05488649954915,
,,,,,,,,,,,,0,0,0,0,168,0,168,0,,,,,,,168,,,1,558.4982547887339,X,None,nogo,None,1,,,,,,,,,,,,,,,,,,,30,001,19,w,Bachelor Psychologie,2023-01-17_13h32.04.326,00_bat_bachelor,2022.2.4,60.05488649954915,
,,,,,,,,,,,,0,0,0,0,169,0,169,0,,,,,,,169,,,1,560.2997196122597,Y,l,go,l,1,0.36298128770431504,,,,,,,,,,,,,,,,,,30,001,19,w,Bachelor Psychologie,2023-01-17_13h32.04.326,00_bat_bachelor,2022.2.4,60.05488649954915,
,,,,,,,,,,,,0,0,0,0,170,0,170,0,,,,,,,170,,,1,561.7674852036434,X,d,go,d,1,0.46301808768475894,,,,,,,,,,,,,,,,,,30,001,19,w,Bachelor Psychologie,2023-01-17_13h32.04.326,00_bat_bachelor,2022.2.4,60.05488649954915,
,,,,,,,,,,,,0,0,0,0,171,0,171,0,,,,,,,171,,,1,563.3353113525809,X,None,nogo,None,1,,,,,,,,,,,,,,,,,,,30,001,19,w,Bachelor Psychologie,2023-01-17_13h32.04.326,00_bat_bachelor,2022.2.4,60.05488649954915,
,,,,,,,,,,,,0,0,0,0,172,0,172,0,,,,,,,172,,,1,565.1366787216102,Y,l,go,l,1,0.37322564636997413,,,,,,,,,,,,,,,,,,30,001,19,w,Bachelor Psychologie,2023-01-17_13h32.04.326,00_bat_bachelor,2022.2.4,60.05488649954915,
,,,,,,,,,,,,0,0,0,0,173,0,173,0,,,,,,,173,,,1,566.6212355775933,X,d,go,d,1,0.4889080145221669,,,,,,,,,,,,,,,,,,30,001,19,w,Bachelor Psychologie,2023-01-17_13h32.04.326,00_bat_bachelor,2022.2.4,60.05488649954915,
,,,,,,,,,,,,0,0,0,0,174,0,174,0,,,,,,,174,,,1,568.2223557709804,Y,l,go,l,1,0.5347974468168104,,,,,,,,,,,,,,,,,,30,001,19,w,Bachelor Psychologie,2023-01-17_13h32.04.326,00_bat_bachelor,2022.2.4,60.05488649954915,
,,,,,,,,,,,,0,0,0,0,175,0,175,0,,,,,,,175,,,1,569.8735302431451,X,d,go,d,1,0.6129346210655058,,,,,,,,,,,,,,,,,,30,001,19,w,Bachelor Psychologie,2023-01-17_13h32.04.326,00_bat_bachelor,2022.2.4,60.05488649954915,
,,,,,,,,,,,,0,0,0,0,176,0,176,0,,,,,,,176,,,1,571.5923841976328,Y,l,go,l,1,0.3014603478368372,,,,,,,,,,,,,,,,,,30,001,19,w,Bachelor Psychologie,2023-01-17_13h32.04.326,00_bat_bachelor,2022.2.4,60.05488649954915,
,,,,,,,,,,,,0,0,0,0,177,0,177,0,,,,,,,177,,,1,573.0101284799457,X,d,go,d,1,0.2744543003209401,,,,,,,,,,,,,,,,,,30,001,19,w,Bachelor Psychologie,2023-01-17_13h32.04.326,00_bat_bachelor,2022.2.4,60.05488649954915,
,,,,,,,,,,,,0,0,0,0,178,0,178,0,,,,,,,178,,,1,574.4110000431538,Y,l,go,l,1,0.26549381981021725,,,,,,,,,,,,,,,,,,30,001,19,w,Bachelor Psychologie,2023-01-17_13h32.04.326,00_bat_bachelor,2022.2.4,60.05488649954915,
,,,,,,,,,,,,0,0,0,0,179,0,179,0,,,,,,,179,,,1,575.7955409476272,X,d,go,d,1,0.46481154137291014,,,,,,,,,,,,,,,,,,30,001,19,w,Bachelor Psychologie,2023-01-17_13h32.04.326,00_bat_bachelor,2022.2.4,60.05488649954915,
,,,,,,,,,,,,0,0,0,0,180,0,180,0,,,,,,,180,,,1,577.379814118889,Y,l,go,l,1,0.4816638968331972,,,,,,,,,,,,,,,,,,30,001,19,w,Bachelor Psychologie,2023-01-17_13h32.04.326,00_bat_bachelor,2022.2.4,60.05488649954915,
,,,,,,,,,,,,0,0,0,0,181,0,181,0,,,,,,,181,,,1,578.9807932214317,Y,None,nogo,None,1,,579.7815870149934,,,,,,,,,,,,,,,,,30,001,19,w,Bachelor Psychologie,2023-01-17_13h32.04.326,00_bat_bachelor,2022.2.4,60.05488649954915,
,,,,,,,,,,,,0,0,0,0,182,0,182,0,,,,,,,182,,,1,580.7823356206936,X,d,go,d,1,0.29519853269448504,,,,,,,,,,,,,,,,,,30,001,19,w,Bachelor Psychologie,2023-01-17_13h32.04.326,00_bat_bachelor,2022.2.4,60.05488649954915,
,,,,,,,,,,,,0,0,0,0,183,0,183,0,,,,,,,183,,,1,582.2001080241898,Y,l,go,l,1,0.3013735600106884,,,,,,,,,,,,,,,,,,30,001,19,w,Bachelor Psychologie,2023-01-17_13h32.04.326,00_bat_bachelor,2022.2.4,60.05488649954915,
,,,,,,,,,,,,0,0,0,0,184,0,184,0,,,,,,,184,,,1,583.6179400640394,Y,None,nogo,None,1,,584.4183401608025,,,,,,,,,,,,,,,,,30,001,19,w,Bachelor Psychologie,2023-01-17_13h32.04.326,00_bat_bachelor,2022.2.4,60.05488649954915,
,,,,,,,,,,,,0,0,0,0,185,0,185,0,,,,,,,185,,,1,585.4191435543617,Y,None,nogo,None,1,,586.2198292267567,,,,,,,,,,,,,,,,,30,001,19,w,Bachelor Psychologie,2023-01-17_13h32.04.326,00_bat_bachelor,2022.2.4,60.05488649954915,
,,,,,,,,,,,,0,0,0,0,186,0,186,0,,,,,,,186,,,1,587.2205642566987,X,d,go,d,1,0.3367049368098378,,,,,,,,,,,,,,,,,,30,001,19,w,Bachelor Psychologie,2023-01-17_13h32.04.326,00_bat_bachelor,2022.2.4,60.05488649954915,
,,,,,,,,,,,,0,0,0,0,187,0,187,0,,,,,,,187,,,1,588.6716670682799,Y,l,go,l,1,0.550139984843554,,,,,,,,,,,,,,,,,,30,001,19,w,Bachelor Psychologie,2023-01-17_13h32.04.326,00_bat_bachelor,2022.2.4,60.05488649954915,
,,,,,,,,,,,,0,0,0,0,188,0,188,0,,,,,,,188,,,1,590.3228633586114,X,d,go,d,1,0.41845520021161065,,,,,,,,,,,,,,,,,,30,001,19,w,Bachelor Psychologie,2023-01-17_13h32.04.326,00_bat_bachelor,2022.2.4,60.05488649954915,
,,,,,,,,,,,,0,0,0,0,189,0,189,0,,,,,,,189,,,1,591.8572723116231,Y,l,go,l,1,0.5800042127957568,,,,,,,,,,,,,,,,,,30,001,19,w,Bachelor Psychologie,2023-01-17_13h32.04.326,00_bat_bachelor,2022.2.4,60.05488649954915,
,,,,,,,,,,,,0,0,0,0,190,0,190,0,,,,,,,190,,,1,593.5419468887558,X,d,go,d,1,0.3832324294053251,,,,,,,,,,,,,,,,,,30,001,19,w,Bachelor Psychologie,2023-01-17_13h32.04.326,00_bat_bachelor,2022.2.4,60.05488649954915,
,,,,,,,,,,,,0,0,0,0,191,0,191,0,,,,,,,191,,,1,595.0265187750192,X,None,nogo,d,0,0.43445567729941104,,,,,,,,,,,,,,,,,,30,001,19,w,Bachelor Psychologie,2023-01-17_13h32.04.326,00_bat_bachelor,2022.2.4,60.05488649954915,
,,,,,,,,,,,,0,0,0,0,192,0,192,0,,,,,,,192,,,1,596.5943837118248,Y,l,go,l,1,0.2908169590664329,,,,,,,,,,,,,,,,,,30,001,19,w,Bachelor Psychologie,2023-01-17_13h32.04.326,00_bat_bachelor,2022.2.4,60.05488649954915,
,,,,,,,,,,,,0,0,0,0,193,0,193,0,,,,,,,193,,,1,598.0121056911012,X,d,go,d,1,0.5219232712406665,,,,,,,,,,,,,,,,,,30,001,19,w,Bachelor Psychologie,2023-01-17_13h32.04.326,00_bat_bachelor,2022.2.4,60.05488649954915,
,,,,,,,,,,,,0,0,0,0,194,0,194,0,,,,,,,194,,,1,599.646505868368,Y,l,go,l,1,0.2792785404017195,,,,,,,,,,,,,,,,,,30,001,19,w,Bachelor Psychologie,2023-01-17_13h32.04.326,00_bat_bachelor,2022.2.4,60.05488649954915,
,,,,,,,,,,,,0,0,0,0,195,0,195,0,,,,,,,195,,,1,601.0471025226143,X,d,go,d,1,0.5103038829402067,,,,,,,,,,,,,,,,,,30,001,19,w,Bachelor Psychologie,2023-01-17_13h32.04.326,00_bat_bachelor,2022.2.4,60.05488649954915,
,,,,,,,,,,,,0,0,0,0,196,0,196,0,,,,,,,196,,,1,602.6653383440862,Y,l,go,l,1,0.4294694978889311,,,,,,,,,,,,,,,,,,30,001,19,w,Bachelor Psychologie,2023-01-17_13h32.04.326,00_bat_bachelor,2022.2.4,60.05488649954915,
,,,,,,,,,,,,0,0,0,0,197,0,197,0,,,,,,,197,,,1,604.1994641457131,X,d,go,d,1,0.5416784131812165,,,,,,,,,,,,,,,,,,30,001,19,w,Bachelor Psychologie,2023-01-17_13h32.04.326,00_bat_bachelor,2022.2.4,60.05488649954915,
,,,,,,,,,,,,0,0,0,0,198,0,198,0,,,,,,,198,,,1,605.8510754661547,Y,l,go,l,1,0.41191605186031666,,,,,,,,,,,,,,,,,,30,001,19,w,Bachelor Psychologie,2023-01-17_13h32.04.326,00_bat_bachelor,2022.2.4,60.05488649954915,
,,,,,,,,,,,,0,0,0,0,199,0,199,0,,,,,,,199,,,1,607.3685477000981,Y,None,nogo,None,1,,,,,,,,,,,,,,,,,,,30,001,19,w,Bachelor Psychologie,2023-01-17_13h32.04.326,00_bat_bachelor,2022.2.4,60.05488649954915,
,,,,,,,,,,,,0,0,0,0,200,0,200,0,,,,,,,200,,,1,609.1703058568237,X,d,go,None,0,,,,,,,,,,,,,,,,,,,30,001,19,w,Bachelor Psychologie,2023-01-17_13h32.04.326,00_bat_bachelor,2022.2.4,60.05488649954915,
,,,,,,,,,,,,0,0,0,0,201,0,201,0,,,,,,,201,,,1,610.9715563774371,Y,l,go,l,1,0.361540803569369,,,,,,,,,,,,,,,,,,30,001,19,w,Bachelor Psychologie,2023-01-17_13h32.04.326,00_bat_bachelor,2022.2.4,60.05488649954915,
,,,,,,,,,,,,0,0,0,0,202,0,202,0,,,,,,,202,,,1,612.4392162719014,X,d,go,d,1,0.3019553779013222,,,,,,,,,,,,,,,,,,30,001,19,w,Bachelor Psychologie,2023-01-17_13h32.04.326,00_bat_bachelor,2022.2.4,60.05488649954915,
,,,,,,,,,,,,0,0,0,0,203,0,203,0,,,,,,,203,,,1,613.8571016450442,Y,l,go,l,1,0.42026901750068646,,,,,,,,,,,,,,,,,,30,001,19,w,Bachelor Psychologie,2023-01-17_13h32.04.326,00_bat_bachelor,2022.2.4,60.05488649954915,
,,,,,,,,,,,,0,0,0,0,204,0,204,0,,,,,,,204,,,1,615.3913564163231,X,d,go,d,1,0.4067194483068306,,,,,,,,,,,,,,,,,,30,001,19,w,Bachelor Psychologie,2023-01-17_13h32.04.326,00_bat_bachelor,2022.2.4,60.05488649954915,
,,,,,,,,,,,,0,0,0,0,205,0,205,0,,,,,,,205,,,1,616.9095200438751,Y,l,go,l,1,0.3764503720740322,,,,,,,,,,,,,,,,,,30,001,19,w,Bachelor Psychologie,2023-01-17_13h32.04.326,00_bat_bachelor,2022.2.4,60.05488649954915,
,,,,,,,,,,,,0,0,0,0,206,0,206,0,,,,,,,206,,,1,618.3939585968765,X,d,go,d,1,0.36316310580878053,,,,,,,,,,,,,,,,,,30,001,19,w,Bachelor Psychologie,2023-01-17_13h32.04.326,00_bat_bachelor,2022.2.4,60.05488649954915,
,,,,,,,,,,,,0,0,0,0,207,0,207,0,,,,,,,207,,,1,619.8617086731101,Y,l,go,l,1,0.3355621494993102,,,,,,,,,,,,,,,,,,30,001,19,w,Bachelor Psychologie,2023-01-17_13h32.04.326,00_bat_bachelor,2022.2.4,60.05488649954915,
,,,,,,,,,,,,0,0,0,0,208,0,208,0,,,,,,,208,,,1,621.3125084545463,X,d,go,None,0,,,,,,,,,,,,,,,,,,,30,001,19,w,Bachelor Psychologie,2023-01-17_13h32.04.326,00_bat_bachelor,2022.2.4,60.05488649954915,
,,,,,,,,,,,,0,0,0,0,209,0,209,0,,,,,,,209,,,1,623.1141230961803,Y,l,go,l,1,0.36291243924642913,,,,,,,,,,,,,,,,,,30,001,19,w,Bachelor Psychologie,2023-01-17_13h32.04.326,00_bat_bachelor,2022.2.4,60.05488649954915,
,,,,,,,,,,,,0,0,0,0,210,0,210,0,,,,,,,210,,,1,624.5816637179814,Y,None,nogo,None,1,,,,,,,,,,,,,,,,,,,30,001,19,w,Bachelor Psychologie,2023-01-17_13h32.04.326,00_bat_bachelor,2022.2.4,60.05488649954915,
,,,,,,,,,,,,0,0,0,0,211,0,211,0,,,,,,,211,,,1,626.3833506020164,X,d,go,d,1,0.40704769059084356,,,,,,,,,,,,,,,,,,30,001,19,w,Bachelor Psychologie,2023-01-17_13h32.04.326,00_bat_bachelor,2022.2.4,60.05488649954915,
,,,,,,,,,,,,0,0,0,0,212,0,212,0,,,,,,,212,,,1,627.9009227147035,Y,l,go,l,1,0.39240963707561605,,,,,,,,,,,,,,,,,,30,001,19,w,Bachelor Psychologie,2023-01-17_13h32.04.326,00_bat_bachelor,2022.2.4,60.05488649954915,
,,,,,,,,,,,,0,0,0,0,213,0,213,0,,,,,,,213,,,1,629.4020332596265,X,d,go,d,1,0.6669452615460614,,,,,,,,,,,,,,,,,,30,001,19,w,Bachelor Psychologie,2023-01-17_13h32.04.326,00_bat_bachelor,2022.2.4,60.05488649954915,
,,,,,,,,,,,,0,0,0,0,214,0,214,0,,,,,,,214,,,1,631.1702428265562,Y,l,go,l,1,0.5635906449897448,,,,,,,,,,,,,,,,,,30,001,19,w,Bachelor Psychologie,2023-01-17_13h32.04.326,00_bat_bachelor,2022.2.4,60.05488649954915,
,,,,,,,,,,,,0,0,0,0,215,0,215,0,,,,,,,215,,,1,632.8383341389999,X,d,go,None,0,,,,,,,,,,,,,,,,,,,30,001,19,w,Bachelor Psychologie,2023-01-17_13h32.04.326,00_bat_bachelor,2022.2.4,60.05488649954915,
,,,,,,,,,,,,0,0,0,0,216,0,216,0,,,,,,,216,,,1,634.6396379929065,X,None,nogo,None,1,,635.4400361502921,,,,,,,,,,,,,,,,,30,001,19,w,Bachelor Psychologie,2023-01-17_13h32.04.326,00_bat_bachelor,2022.2.4,60.05488649954915,
,,,,,,,,,,,,0,0,0,0,217,0,217,0,,,,,,,217,,,1,636.4410911800805,Y,l,go,l,1,0.4612435430899495,,,,,,,,,,,,,,,,,,30,001,19,w,Bachelor Psychologie,2023-01-17_13h32.04.326,00_bat_bachelor,2022.2.4,60.05488649954915,
,,,,,,,,,,,,0,0,0,0,218,0,218,0,,,,,,,218,,,1,638.0088053290674,X,d,go,d,1,0.33307730220258236,,,,,,,,,,,,,,,,,,30,001,19,w,Bachelor Psychologie,2023-01-17_13h32.04.326,00_bat_bachelor,2022.2.4,60.05488649954915,
,,,,,,,,,,,,0,0,0,0,219,0,219,0,,,,,,,219,,,1,639.4430300882377,Y,l,go,l,1,0.4496900941594504,,,,,,,,,,,,,,,,,,30,001,19,w,Bachelor Psychologie,2023-01-17_13h32.04.326,00_bat_bachelor,2022.2.4,60.05488649954915,
,,,,,,,,,,,,0,0,0,0,220,0,220,0,,,,,,,220,,,1,640.9944024269644,Y,None,nogo,None,1,,,,,,,,,,,,,,,,,,,30,001,19,w,Bachelor Psychologie,2023-01-17_13h32.04.326,00_bat_bachelor,2022.2.4,60.05488649954915,
,,,,,,,,,,,,0,0,0,0,221,0,221,0,,,,,,,221,,,1,642.7955996142555,X,d,go,d,1,0.4111941128212493,,,,,,,,,,,,,,,,,,30,001,19,w,Bachelor Psychologie,2023-01-17_13h32.04.326,00_bat_bachelor,2022.2.4,60.05488649954915,
,,,,,,,,,,,,0,0,0,0,222,0,222,0,,,,,,,222,,,1,644.3141933022125,Y,l,go,l,1,0.4269875597092323,,,,,,,,,,,,,,,,,,30,001,19,w,Bachelor Psychologie,2023-01-17_13h32.04.326,00_bat_bachelor,2022.2.4,60.05488649954915,
,,,,,,,,,,,,0,0,0,0,223,0,223,0,,,,,,,223,,,1,645.8818609057635,Y,None,nogo,None,1,,646.6825887599553,,,,,,,,,,,,,,,,,30,001,19,w,Bachelor Psychologie,2023-01-17_13h32.04.326,00_bat_bachelor,2022.2.4,60.05488649954915,
,,,,,,,,,,,,0,0,0,0,224,0,224,0,,,,,,,224,,,1,647.6830493658053,X,d,go,d,1,0.43442610155034345,,,,,,,,,,,,,,,,,,30,001,19,w,Bachelor Psychologie,2023-01-17_13h32.04.326,00_bat_bachelor,2022.2.4,60.05488649954915,
,,,,,,,,,,,,0,0,0,0,225,0,225,0,,,,,,,225,,,1,649.2344100681657,Y,l,go,None,0,,650.0350598617952,,,,,,,,,,,,,,,,,30,001,19,w,Bachelor Psychologie,2023-01-17_13h32.04.326,00_bat_bachelor,2022.2.4,60.05488649954915,
,,,,,,,,,,,,0,0,0,0,226,0,226,0,,,,,,,226,,,1,651.0359854371054,Y,None,nogo,None,1,,651.8364393520314,,,,,,,,,,,,,,,,,30,001,19,w,Bachelor Psychologie,2023-01-17_13h32.04.326,00_bat_bachelor,2022.2.4,60.05488649954915,
,,,,,,,,,,,,0,0,0,0,227,0,227,0,,,,,,,227,,,1,652.8371743819735,X,d,go,d,1,0.3686084364890121,,,,,,,,,,,,,,,,,,30,001,19,w,Bachelor Psychologie,2023-01-17_13h32.04.326,00_bat_bachelor,2022.2.4,60.05488649954915,
,,,,,,,,,,,,0,0,0,0,228,0,228,0,,,,,,,228,,,1,654.3214257835498,Y,l,go,l,1,0.5490025308536133,,,,,,,,,,,,,,,,,,30,001,19,w,Bachelor Psychologie,2023-01-17_13h32.04.326,00_bat_bachelor,2022.2.4,60.05488649954915,
,,,,,,,,,,,,0,0,0,0,229,0,229,0,,,,,,,229,,,1,655.9728892252751,Y,None,nogo,None,1,,656.7733101705235,,,,,,,,,,,,,,,,,30,001,19,w,Bachelor Psychologie,2023-01-17_13h32.04.326,00_bat_bachelor,2022.2.4,60.05488649954915,
,,,,,,,,,,,,0,0,0,0,230,0,230,0,,,,,,,230,,,1,657.7742968367093,X,d,go,d,1,0.5032570984767517,,,,,,,,,,,,,,,,,,30,001,19,w,Bachelor Psychologie,2023-01-17_13h32.04.326,00_bat_bachelor,2022.2.4,60.05488649954915,
,,,,,,,,,,,,0,0,0,0,231,0,231,0,,,,,,,231,,,1,659.3920065978164,Y,l,go,l,1,0.5329147810698487,,,,,,,,,,,,,,,,,,30,001,19,w,Bachelor Psychologie,2023-01-17_13h32.04.326,00_bat_bachelor,2022.2.4,60.05488649954915,
,,,,,,,,,,,,0,0,0,0,232,0,232,0,,,,,,,232,,,1,661.0266031386273,X,d,go,None,0,,661.8269285687711,,,,,,,,,,,,,,,,,30,001,19,w,Bachelor Psychologie,2023-01-17_13h32.04.326,00_bat_bachelor,2022.2.4,60.05488649954915,
,,,,,,,,,,,,0,0,0,0,233,0,233,0,,,,,,,233,,,1,662.8277169320208,Y,l,go,None,0,,663.6283463620202,,,,,,,,,,,,,,,,,30,001,19,w,Bachelor Psychologie,2023-01-17_13h32.04.326,00_bat_bachelor,2022.2.4,60.05488649954915,
,,,,,,,,,,,,0,0,0,0,234,0,234,0,,,,,,,234,,,1,664.6291255131509,X,d,go,d,1,0.3843005500966683,,,,,,,,,,,,,,,,,,30,001,19,w,Bachelor Psychologie,2023-01-17_13h32.04.326,00_bat_bachelor,2022.2.4,60.05488649954915,
,,,,,,,,,,,,0,0,0,0,235,0,235,0,,,,,,,235,,,1,666.1302690277516,Y,l,go,l,1,0.5473244710592553,,,,,,,,,,,,,,,,,,30,001,19,w,Bachelor Psychologie,2023-01-17_13h32.04.326,00_bat_bachelor,2022.2.4,60.05488649954915,
,,,,,,,,,,,,0,0,0,0,236,0,236,0,,,,,,,236,,,1,667.7815074998798,Y,None,nogo,None,1,,668.5821005662583,,,,,,,,,,,,,,,,,30,001,19,w,Bachelor Psychologie,2023-01-17_13h32.04.326,00_bat_bachelor,2022.2.4,60.05488649954915,
,,,,,,,,,,,,0,0,0,0,237,0,237,0,,,,,,,237,,,1,669.5830513536785,X,d,go,d,1,0.5663445830432465,,,,,,,,,,,,,,,,,,30,001,19,w,Bachelor Psychologie,2023-01-17_13h32.04.326,00_bat_bachelor,2022.2.4,60.05488649954915,
,,,,,,,,,,,,0,0,0,0,238,0,238,0,,,,,,,238,,,1,671.2510073934536,Y,l,go,l,1,0.38649788236944005,,,,,,,,,,,,,,,,,,30,001,19,w,Bachelor Psychologie,2023-01-17_13h32.04.326,00_bat_bachelor,2022.2.4,60.05488649954915,
,,,,,,,,,,,,0,0,0,0,239,0,239,0,,,,,,,239,,,1,672.7519259384571,Y,None,nogo,None,1,,673.5527808228944,,,,,,,,,,,,,,,,,30,001,19,w,Bachelor Psychologie,2023-01-17_13h32.04.326,00_bat_bachelor,2022.2.4,60.05488649954915,
,,,,,,,,,,,,0,0,0,0,240,0,240,0,,,,,,,240,,,1,674.5533645801916,X,d,go,d,1,0.4442379755782895,,,,,,,,,,,,,,,,,,30,001,19,w,Bachelor Psychologie,2023-01-17_13h32.04.326,00_bat_bachelor,2022.2.4,60.05488649954915,
,,,,,,,,,,,,0,0,0,0,241,0,241,0,,,,,,,241,,,1,676.1048120703927,Y,l,go,l,1,0.46117711887927726,,,,,,,,,,,,,,,,,,30,001,19,w,Bachelor Psychologie,2023-01-17_13h32.04.326,00_bat_bachelor,2022.2.4,60.05488649954915,
,,,,,,,,,,,,0,0,0,0,242,0,242,0,,,,,,,242,,,1,677.6725451284728,X,d,go,d,1,0.44477955107868183,,,,,,,,,,,,,,,,,,30,001,19,w,Bachelor Psychologie,2023-01-17_13h32.04.326,00_bat_bachelor,2022.2.4,60.05488649954915,
,,,,,,,,,,,,0,0,0,0,243,0,243,0,,,,,,,243,,,1,679.2237463157653,Y,l,go,l,1,0.30179828706604894,,,,,,,,,,,,,,,,,,30,001,19,w,Bachelor Psychologie,2023-01-17_13h32.04.326,00_bat_bachelor,2022.2.4,60.05488649954915,
,,,,,,,,,,,,0,0,0,0,244,0,244,0,,,,,,,244,,,1,680.6414838101919,X,d,go,d,1,0.5487281067325966,,,,,,,,,,,,,,,,,,30,001,19,w,Bachelor Psychologie,2023-01-17_13h32.04.326,00_bat_bachelor,2022.2.4,60.05488649954915,
,,,,,,,,,,,,0,0,0,0,245,0,245,0,,,,,,,245,,,1,682.292766888364,Y,l,go,l,1,0.27364508860046044,,,,,,,,,,,,,,,,,,30,001,19,w,Bachelor Psychologie,2023-01-17_13h32.04.326,00_bat_bachelor,2022.2.4,60.05488649954915,
,,,,,,,,,,,,0,0,0,0,246,0,246,0,,,,,,,246,,,1,683.6769679142017,X,d,go,d,1,0.40928235616593156,,,,,,,,,,,,,,,,,,30,001,19,w,Bachelor Psychologie,2023-01-17_13h32.04.326,00_bat_bachelor,2022.2.4,60.05488649954915,
,,,,,,,,,,,,0,0,0,0,247,0,247,0,,,,,,,247,,,1,685.1949841478927,X,None,nogo,None,1,,685.9954249719158,,,,,,,,,,,,,,,,,30,001,19,w,Bachelor Psychologie,2023-01-17_13h32.04.326,00_bat_bachelor,2022.2.4,60.05488649954915,
,,,,,,,,,,,,0,0,0,0,248,0,248,0,,,,,,,248,,,1,686.9963316381472,Y,l,go,None,0,,687.7969295530056,,,,,,,,,,,,,,,,,30,001,19,w,Bachelor Psychologie,2023-01-17_13h32.04.326,00_bat_bachelor,2022.2.4,60.05488649954915,
,,,,,,,,,,,,0,0,0,0,249,0,249,0,,,,,,,249,,,1,688.7976965829439,X,d,go,d,1,0.48829080270661507,,,,,,,,,,,,,,,,,,30,001,19,w,Bachelor Psychologie,2023-01-17_13h32.04.326,00_bat_bachelor,2022.2.4,60.05488649954915,
,,,,,,,,,,,,1,0,1,0,0,0,0,0,,,,,,,0,,,0.2,694.7352287344402,X,d,go,None,0,,695.5360390128335,,,,,,,,689.4131193148496,space,5.092150873562787,,,,,,,30,001,19,w,Bachelor Psychologie,2023-01-17_13h32.04.326,00_bat_bachelor,2022.2.4,60.05488649954915,
,,,,,,,,,,,,1,0,1,0,1,0,1,0,,,,,,,1,,,0.2,695.7361237643054,Y,l,go,None,0,,,,,,,,,,,,,,,,,,,30,001,19,w,Bachelor Psychologie,2023-01-17_13h32.04.326,00_bat_bachelor,2022.2.4,60.05488649954915,
,,,,,,,,,,,,1,0,1,0,2,0,2,0,,,,,,,2,,,0.2,696.7368665518297,X,d,go,None,0,,,,,,,,,,,,,,,,,,,30,001,19,w,Bachelor Psychologie,2023-01-17_13h32.04.326,00_bat_bachelor,2022.2.4,60.05488649954915,
,,,,,,,,,,,,1,0,1,0,3,0,3,0,,,,,,,3,,,0.2,697.7378061877389,X,None,nogo,None,1,,698.5383929510863,,,,,,,,,,,,,,,,,30,001,19,w,Bachelor Psychologie,2023-01-17_13h32.04.326,00_bat_bachelor,2022.2.4,60.05488649954915,
,,,,,,,,,,,,1,0,1,0,4,0,4,0,,,,,,,4,,,0.2,698.7384277631936,Y,l,go,l,1,0.4511703358584782,,,,,,,,,,,,,,,,,,30,001,19,w,Bachelor Psychologie,2023-01-17_13h32.04.326,00_bat_bachelor,2022.2.4,60.05488649954915,
,,,,,,,,,,,,1,0,1,0,5,0,5,0,,,,,,,5,,,0.2,699.5054363610107,X,d,go,d,1,0.3398889352683909,,,,,,,,,,,,,,,,,,30,001,19,w,Bachelor Psychologie,2023-01-17_13h32.04.326,00_bat_bachelor,2022.2.4,60.05488649954915,
,,,,,,,,,,,,1,0,1,0,6,0,6,0,,,,,,,6,,,0.2,700.1561764091311,Y,l,go,l,1,0.3143548870430095,,,,,,,,,,,,,,,,,,30,001,19,w,Bachelor Psychologie,2023-01-17_13h32.04.326,00_bat_bachelor,2022.2.4,60.05488649954915,
,,,,,,,,,,,,1,0,1,0,7,0,7,0,,,,,,,7,,,0.2,700.7732432614575,Y,None,nogo,None,1,,701.5740166913893,,,,,,,,,,,,,,,,,30,001,19,w,Bachelor Psychologie,2023-01-17_13h32.04.326,00_bat_bachelor,2022.2.4,60.05488649954915,
,,,,,,,,,,,,1,0,1,0,8,0,8,0,,,,,,,8,,,0.2,701.7739380490093,X,d,go,d,1,0.024318179188412614,,,,,,,,,,,,,,,,,,30,001,19,w,Bachelor Psychologie,2023-01-17_13h32.04.326,00_bat_bachelor,2022.2.4,60.05488649954915,
,,,,,,,,,,,,1,0,1,0,9,0,9,0,,,,,,,9,,,0.2,702.1078190992412,Y,l,go,None,0,,,,,,,,,,,,,,,,,,,30,001,19,w,Bachelor Psychologie,2023-01-17_13h32.04.326,00_bat_bachelor,2022.2.4,60.05488649954915,
,,,,,,,,,,,,1,0,1,0,10,0,10,0,,,,,,,10,,,0.2,703.1083281899046,X,d,go,d,1,0.48120571523031686,,,,,,,,,,,,,,,,,,30,001,19,w,Bachelor Psychologie,2023-01-17_13h32.04.326,00_bat_bachelor,2022.2.4,60.05488649954915,
,,,,,,,,,,,,1,0,1,0,11,0,11,0,,,,,,,11,,,0.2,703.8921130220115,Y,l,go,None,0,,,,,,,,,,,,,,,,,,,30,001,19,w,Bachelor Psychologie,2023-01-17_13h32.04.326,00_bat_bachelor,2022.2.4,60.05488649954915,
,,,,,,,,,,,,1,0,1,0,12,0,12,0,,,,,,,12,,,0.2,704.8928504762007,X,d,go,None,0,,,,,,,,,,,,,,,,,,,30,001,19,w,Bachelor Psychologie,2023-01-17_13h32.04.326,00_bat_bachelor,2022.2.4,60.05488649954915,
,,,,,,,,,,,,1,0,1,0,13,0,13,0,,,,,,,13,,,0.2,705.8936892636702,X,None,nogo,l,0,0.23989140798221342,,,,,,,,,,,,,,,,,,30,001,19,w,Bachelor Psychologie,2023-01-17_13h32.04.326,00_bat_bachelor,2022.2.4,60.05488649954915,
,,,,,,,,,,,,1,0,1,0,14,0,14,0,,,,,,,14,,,0.2,706.4444114208891,Y,l,go,None,0,,,,,,,,,,,,,,,,,,,30,001,19,w,Bachelor Psychologie,2023-01-17_13h32.04.326,00_bat_bachelor,2022.2.4,60.05488649954915,
,,,,,,,,,,,,1,0,1,0,15,0,15,0,,,,,,,15,,,0.2,707.444824996448,X,d,go,d,1,0.27192387731338385,,,,,,,,,,,,,,,,,,30,001,19,w,Bachelor Psychologie,2023-01-17_13h32.04.326,00_bat_bachelor,2022.2.4,60.05488649954915,
,,,,,,,,,,,,1,0,1,0,16,0,16,0,,,,,,,16,,,0.2,708.0288557435852,Y,l,go,None,0,,708.8294216584618,,,,,,,,,,,,,,,,,30,001,19,w,Bachelor Psychologie,2023-01-17_13h32.04.326,00_bat_bachelor,2022.2.4,60.05488649954915,
,,,,,,,,,,,,1,0,1,0,17,0,17,0,,,,,,,17,,,0.2,709.0293745312229,X,d,go,None,0,,,,,,,,,,,,,,,,,,,30,001,19,w,Bachelor Psychologie,2023-01-17_13h32.04.326,00_bat_bachelor,2022.2.4,60.05488649954915,
,,,,,,,,,,,,1,0,1,0,18,0,18,0,,,,,,,18,,,0.2,710.0308470153541,Y,l,go,None,0,,710.8314439605165,,,,,,,,,,,,,,,,,30,001,19,w,Bachelor Psychologie,2023-01-17_13h32.04.326,00_bat_bachelor,2022.2.4,60.05488649954915,
,,,,,,,,,,,,1,0,1,0,19,0,19,0,,,,,,,19,,,0.2,711.0319282269484,X,d,go,None,0,,711.8321823844017,,,,,,,,,,,,,,,,,30,001,19,w,Bachelor Psychologie,2023-01-17_13h32.04.326,00_bat_bachelor,2022.2.4,60.05488649954915,
,,,,,,,,,,,,1,0,1,0,20,0,20,0,,,,,,,20,,,0.2,712.0326661659783,Y,l,go,l,1,0.3557153518340783,,,,,,,,,,,,,,,,,,30,001,19,w,Bachelor Psychologie,2023-01-17_13h32.04.326,00_bat_bachelor,2022.2.4,60.05488649954915,
,,,,,,,,,,,,1,0,1,0,21,0,21,0,,,,,,,21,,,0.2,712.733174917259,X,d,go,d,1,0.423947561183013,,,,,,,,,,,,,,,,,,30,001,19,w,Bachelor Psychologie,2023-01-17_13h32.04.326,00_bat_bachelor,2022.2.4,60.05488649954915,
,,,,,,,,,,,,1,0,1,0,22,0,22,0,,,,,,,22,,,0.2,713.4837534624239,Y,l,go,l,1,0.31267973633657675,,,,,,,,,,,,,,,,,,30,001,19,w,Bachelor Psychologie,2023-01-17_13h32.04.326,00_bat_bachelor,2022.2.4,60.05488649954915,
,,,,,,,,,,,,1,0,1,0,23,0,23,0,,,,,,,23,,,0.2,714.1343029651907,X,d,go,d,1,0.2866768398525892,,,,,,,,,,,,,,,,,,30,001,19,w,Bachelor Psychologie,2023-01-17_13h32.04.326,00_bat_bachelor,2022.2.4,60.05488649954915,
,,,,,,,,,,,,1,0,1,0,24,0,24,0,,,,,,,24,,,0.2,714.7679899306822,Y,l,go,l,1,0.27700654150976334,,,,,,,,,,,,,,,,,,30,001,19,w,Bachelor Psychologie,2023-01-17_13h32.04.326,00_bat_bachelor,2022.2.4,60.05488649954915,
,,,,,,,,,,,,1,0,1,0,25,0,25,0,,,,,,,25,,,0.2,715.3851615102321,X,d,go,d,1,0.3311160910234321,,,,,,,,,,,,,,,,,,30,001,19,w,Bachelor Psychologie,2023-01-17_13h32.04.326,00_bat_bachelor,2022.2.4,60.05488649954915,
,,,,,,,,,,,,1,0,1,0,26,0,26,0,,,,,,,26,,,0.2,716.0522360958857,X,None,nogo,l,0,0.2894138082192512,,,,,,,,,,,,,,,,,,30,001,19,w,Bachelor Psychologie,2023-01-17_13h32.04.326,00_bat_bachelor,2022.2.4,60.05488649954915,
,,,,,,,,,,,,1,0,1,0,27,0,27,0,,,,,,,27,,,0.2,716.686300758156,Y,l,go,None,0,,717.4866596428328,,,,,,,,,,,,,,,,,30,001,19,w,Bachelor Psychologie,2023-01-17_13h32.04.326,00_bat_bachelor,2022.2.4,60.05488649954915,
,,,,,,,,,,,,1,0,1,0,28,0,28,0,,,,,,,28,,,0.2,717.6870624547591,X,d,go,d,1,0.3012644691480091,,,,,,,,,,,,,,,,,,30,001,19,w,Bachelor Psychologie,2023-01-17_13h32.04.326,00_bat_bachelor,2022.2.4,60.05488649954915,
,,,,,,,,,,,,1,0,1,0,29,0,29,0,,,,,,,29,,,0.2,718.3207411778276,Y,l,go,l,1,0.34008675334916916,,,,,,,,,,,,,,,,,,30,001,19,w,Bachelor Psychologie,2023-01-17_13h32.04.326,00_bat_bachelor,2022.2.4,60.05488649954915,
,,,,,,,,,,,,1,0,1,0,30,0,30,0,,,,,,,30,,,0.2,718.9874414606311,X,d,go,d,1,0.28180993313435465,,,,,,,,,,,,,,,,,,30,001,19,w,Bachelor Psychologie,2023-01-17_13h32.04.326,00_bat_bachelor,2022.2.4,60.05488649954915,
,,,,,,,,,,,,1,0,1,0,31,0,31,0,,,,,,,31,,,0.2,719.5712370563706,X,None,nogo,None,1,,720.37184612274,,,,,,,,,,,,,,,,,30,001,19,w,Bachelor Psychologie,2023-01-17_13h32.04.326,00_bat_bachelor,2022.2.4,60.05488649954915,
,,,,,,,,,,,,1,0,1,0,32,0,32,0,,,,,,,32,,,0.2,720.571954631785,Y,l,go,l,1,0.3773599474079674,,,,,,,,,,,,,,,,,,30,001,19,w,Bachelor Psychologie,2023-01-17_13h32.04.326,00_bat_bachelor,2022.2.4,60.05488649954915,
,,,,,,,,,,,,1,0,1,0,33,0,33,0,,,,,,,33,,,0.2,721.2561162394559,X,d,go,d,1,0.3493594761384884,,,,,,,,,,,,,,,,,,30,001,19,w,Bachelor Psychologie,2023-01-17_13h32.04.326,00_bat_bachelor,2022.2.4,60.05488649954915,
,,,,,,,,,,,,1,0,1,0,34,0,34,0,,,,,,,34,,,0.2,721.9231971281552,Y,l,go,l,1,0.3371156032808358,,,,,,,,,,,,,,,,,,30,001,19,w,Bachelor Psychologie,2023-01-17_13h32.04.326,00_bat_bachelor,2022.2.4,60.05488649954915,
,,,,,,,,,,,,1,0,1,0,35,0,35,0,,,,,,,35,,,0.2,722.590397289503,Y,None,nogo,None,1,,723.3908095074876,,,,,,,,,,,,,,,,,30,001,19,w,Bachelor Psychologie,2023-01-17_13h32.04.326,00_bat_bachelor,2022.2.4,60.05488649954915,
,,,,,,,,,,,,1,0,1,0,36,0,36,0,,,,,,,36,,,0.2,723.5910746225127,X,d,go,d,1,0.317912703496404,,,,,,,,,,,,,,,,,,30,001,19,w,Bachelor Psychologie,2023-01-17_13h32.04.326,00_bat_bachelor,2022.2.4,60.05488649954915,
,,,,,,,,,,,,1,0,1,0,37,0,37,0,,,,,,,37,,,0.2,724.2416207313363,Y,l,go,None,0,,725.0422462825518,,,,,,,,,,,,,,,,,30,001,19,w,Bachelor Psychologie,2023-01-17_13h32.04.326,00_bat_bachelor,2022.2.4,60.05488649954915,
,,,,,,,,,,,,1,0,1,0,38,0,38,0,,,,,,,38,,,0.2,725.2423475188698,Y,None,nogo,None,1,,726.042963373111,,,,,,,,,,,,,,,,,30,001,19,w,Bachelor Psychologie,2023-01-17_13h32.04.326,00_bat_bachelor,2022.2.4,60.05488649954915,
,,,,,,,,,,,,1,0,1,0,39,0,39,0,,,,,,,39,,,0.2,726.2431756396691,X,d,go,d,1,0.4180682912992779,,,,,,,,,,,,,,,,,,30,001,19,w,Bachelor Psychologie,2023-01-17_13h32.04.326,00_bat_bachelor,2022.2.4,60.05488649954915,
,,,,,,,,,,,,1,0,1,0,40,0,40,0,,,,,,,40,,,0.2,726.9768722536392,Y,l,go,l,1,0.6274577655422036,,,,,,,,,,,,,,,,,,30,001,19,w,Bachelor Psychologie,2023-01-17_13h32.04.326,00_bat_bachelor,2022.2.4,60.05488649954915,
,,,,,,,,,,,,1,0,1,0,41,0,41,0,,,,,,,41,,,0.2,727.9277096108126,Y,None,nogo,None,1,,728.728372495345,,,,,,,,,,,,,,,,,30,001,19,w,Bachelor Psychologie,2023-01-17_13h32.04.326,00_bat_bachelor,2022.2.4,60.05488649954915,
,,,,,,,,,,,,1,0,1,0,42,0,42,0,,,,,,,42,,,0.2,728.9286027012859,X,d,go,d,1,0.32466906384797767,,,,,,,,,,,,,,,,,,30,001,19,w,Bachelor Psychologie,2023-01-17_13h32.04.326,00_bat_bachelor,2022.2.4,60.05488649954915,
,,,,,,,,,,,,1,0,1,0,43,0,43,0,,,,,,,43,,,0.2,729.5621985152975,Y,l,go,l,1,0.6190616483945632,,,,,,,,,,,,,,,,,,30,001,19,w,Bachelor Psychologie,2023-01-17_13h32.04.326,00_bat_bachelor,2022.2.4,60.05488649954915,
,,,,,,,,,,,,1,0,1,0,44,0,44,0,,,,,,,44,,,0.2,730.496432244152,Y,None,nogo,None,1,,731.2968687045504,,,,,,,,,,,,,,,,,30,001,19,w,Bachelor Psychologie,2023-01-17_13h32.04.326,00_bat_bachelor,2022.2.4,60.05488649954915,
,,,,,,,,,,,,1,0,1,0,45,0,45,0,,,,,,,45,,,0.2,731.4971556377423,X,d,go,d,1,0.2684383032465121,,,,,,,,,,,,,,,,,,30,001,19,w,Bachelor Psychologie,2023-01-17_13h32.04.326,00_bat_bachelor,2022.2.4,60.05488649954915,
,,,,,,,,,,,,1,0,1,0,46,0,46,0,,,,,,,46,,,0.2,732.0807500214578,Y,l,go,l,1,0.2439602545055095,,,,,,,,,,,,,,,,,,30,001,19,w,Bachelor Psychologie,2023-01-17_13h32.04.326,00_bat_bachelor,2022.2.4,60.05488649954915,
,,,,,,,,,,,,1,0,1,0,47,0,47,0,,,,,,,47,,,0.2,732.6313184817845,X,d,go,d,1,0.5739402157341829,,,,,,,,,,,,,,,,,,30,001,19,w,Bachelor Psychologie,2023-01-17_13h32.04.326,00_bat_bachelor,2022.2.4,60.05488649954915,
,,,,,,,,,,,,1,0,1,0,48,0,48,0,,,,,,,48,,,0.2,733.5151527199341,X,None,nogo,d,0,0.5374951424746541,,,,,,,,,,,,,,,,,,30,001,19,w,Bachelor Psychologie,2023-01-17_13h32.04.326,00_bat_bachelor,2022.2.4,60.05488649954915,
,,,,,,,,,,,,1,0,1,0,49,0,49,0,,,,,,,49,,,0.2,734.3827915719885,Y,l,go,None,0,,735.1832503353944,,,,,,,,,,,,,,,,,30,001,19,w,Bachelor Psychologie,2023-01-17_13h32.04.326,00_bat_bachelor,2022.2.4,60.05488649954915,
,,,,,,,,,,,,1,0,1,0,50,0,50,0,,,,,,,50,,,0.2,735.3834849049745,X,d,go,d,1,0.5262699357990641,,,,,,,,,,,,,,,,,,30,001,19,w,Bachelor Psychologie,2023-01-17_13h32.04.326,00_bat_bachelor,2022.2.4,60.05488649954915,
,,,,,,,,,,,,1,0,1,0,51,0,51,0,,,,,,,51,,,0.2,736.2174912884948,Y,l,go,l,1,0.6035629892430734,,,,,,,,,,,,,,,,,,30,001,19,w,Bachelor Psychologie,2023-01-17_13h32.04.326,00_bat_bachelor,2022.2.4,60.05488649954915,
,,,,,,,,,,,,1,0,1,0,52,0,52,0,,,,,,,52,,,0.2,737.1347383589164,X,d,go,None,0,,737.9354123949597,,,,,,,,,,,,,,,,,30,001,19,w,Bachelor Psychologie,2023-01-17_13h32.04.326,00_bat_bachelor,2022.2.4,60.05488649954915,
,,,,,,,,,,,,1,0,1,0,53,0,53,0,,,,,,,53,,,0.2,738.1354743585689,Y,l,go,None,0,,738.93613578855,,,,,,,,,,,,,,,,,30,001,19,w,Bachelor Psychologie,2023-01-17_13h32.04.326,00_bat_bachelor,2022.2.4,60.05488649954915,
,,,,,,,,,,,,1,0,1,0,54,0,54,0,,,,,,,54,,,0.2,739.1361560552032,Y,None,nogo,l,0,0.5496910153742647,,,,,,,,,,,,,,,,,,30,001,19,w,Bachelor Psychologie,2023-01-17_13h32.04.326,00_bat_bachelor,2022.2.4,60.05488649954915,
,,,,,,,,,,,,1,0,1,0,55,0,55,0,,,,,,,55,,,0.2,739.9865061883611,X,d,go,d,1,0.5792037283245008,,,,,,,,,,,,,,,,,,30,001,19,w,Bachelor Psychologie,2023-01-17_13h32.04.326,00_bat_bachelor,2022.2.4,60.05488649954915,
,,,,,,,,,,,,1,0,1,0,56,0,56,0,,,,,,,56,,,0.2,740.8705687900365,Y,l,go,l,1,0.5920245706074638,,,,,,,,,,,,,,,,,,30,001,19,w,Bachelor Psychologie,2023-01-17_13h32.04.326,00_bat_bachelor,2022.2.4,60.05488649954915,
,,,,,,,,,,,,1,0,1,0,57,0,57,0,,,,,,,57,,,0.2,741.7714197471942,X,d,go,None,0,,742.5718261470029,,,,,,,,,,,,,,,,,30,001,19,w,Bachelor Psychologie,2023-01-17_13h32.04.326,00_bat_bachelor,2022.2.4,60.05488649954915,
,,,,,,,,,,,,1,0,1,0,58,0,58,0,,,,,,,58,,,0.2,742.7719797469181,X,None,nogo,d,0,0.017372728005284443,,,,,,,,,,,,,,,,,,30,001,19,w,Bachelor Psychologie,2023-01-17_13h32.04.326,00_bat_bachelor,2022.2.4,60.05488649954915,
,,,,,,,,,,,,1,0,1,0,59,0,59,0,,,,,,,59,,,0.2,743.1057260093512,Y,l,go,None,0,,743.9062046515464,,,,,,,,,,,,,,,,,30,001,19,w,Bachelor Psychologie,2023-01-17_13h32.04.326,00_bat_bachelor,2022.2.4,60.05488649954915,
,,,,,,,,,,,,1,0,1,0,60,0,60,0,,,,,,,60,,,0.2,744.10652358472,X,d,go,d,1,0.5391412023018347,,,,,,,,,,,,,,,,,,30,001,19,w,Bachelor Psychologie,2023-01-17_13h32.04.326,00_bat_bachelor,2022.2.4,60.05488649954915,
,,,,,,,,,,,,1,0,1,0,61,0,61,0,,,,,,,61,,,0.2,744.9572630510229,Y,l,go,l,1,0.473408385674702,,,,,,,,,,,,,,,,,,30,001,19,w,Bachelor Psychologie,2023-01-17_13h32.04.326,00_bat_bachelor,2022.2.4,60.05488649954915,
,,,,,,,,,,,,1,0,1,0,62,0,62,0,,,,,,,62,,,0.2,745.7411366103624,Y,None,nogo,None,1,,,,,,,,,,,,,,,,,,,30,001,19,w,Bachelor Psychologie,2023-01-17_13h32.04.326,00_bat_bachelor,2022.2.4,60.05488649954915,
,,,,,,,,,,,,1,0,1,0,63,0,63,0,,,,,,,63,,,0.2,746.7416878828226,X,d,go,d,1,0.3196324602467939,,,,,,,,,,,,,,,,,,30,001,19,w,Bachelor Psychologie,2023-01-17_13h32.04.326,00_bat_bachelor,2022.2.4,60.05488649954915,
,,,,,,,,,,,,1,0,1,0,64,0,64,0,,,,,,,64,,,0.2,747.3756861208822,Y,l,go,None,0,,748.1762888842204,,,,,,,,,,,,,,,,,30,001,19,w,Bachelor Psychologie,2023-01-17_13h32.04.326,00_bat_bachelor,2022.2.4,60.05488649954915,
,,,,,,,,,,,,1,0,1,0,65,0,65,0,,,,,,,65,,,0.2,748.3764211508242,X,d,go,d,1,0.6212463746051071,,,,,,,,,,,,,,,,,,30,001,19,w,Bachelor Psychologie,2023-01-17_13h32.04.326,00_bat_bachelor,2022.2.4,60.05488649954915,
,,,,,,,,,,,,1,0,1,0,66,0,66,0,,,,,,,66,,,0.2,749.3102897889476,X,None,nogo,None,1,,750.1106234615145,,,,,,,,,,,,,,,,,30,001,19,w,Bachelor Psychologie,2023-01-17_13h32.04.326,00_bat_bachelor,2022.2.4,60.05488649954915,
,,,,,,,,,,,,1,0,1,0,67,0,67,0,,,,,,,67,,,0.2,750.3111576673255,Y,l,go,l,1,0.22280147689161822,,,,,,,,,,,,,,,,,,30,001,19,w,Bachelor Psychologie,2023-01-17_13h32.04.326,00_bat_bachelor,2022.2.4,60.05488649954915,
,,,,,,,,,,,,1,0,1,0,68,0,68,0,,,,,,,68,,,0.2,750.8449067418696,X,d,go,None,0,,,,,,,,,,,,,,,,,,,30,001,19,w,Bachelor Psychologie,2023-01-17_13h32.04.326,00_bat_bachelor,2022.2.4,60.05488649954915,
,,,,,,,,,,,,1,0,1,0,69,0,69,0,,,,,,,69,,,0.2,751.8455593476101,X,None,nogo,None,1,,,,,,,,,,,,,,,,,,,30,001,19,w,Bachelor Psychologie,2023-01-17_13h32.04.326,00_bat_bachelor,2022.2.4,60.05488649954915,
,,,,,,,,,,,,1,0,1,0,70,0,70,0,,,,,,,70,,,0.2,752.8460543776746,Y,l,go,l,1,0.4873506819421891,,,,,,,,,,,,,,,,,,30,001,19,w,Bachelor Psychologie,2023-01-17_13h32.04.326,00_bat_bachelor,2022.2.4,60.05488649954915,
,,,,,,,,,,,,1,0,1,0,71,0,71,0,,,,,,,71,,,0.2,753.6469015045295,X,d,go,None,0,,754.4476613587176,,,,,,,,,,,,,,,,,30,001,19,w,Bachelor Psychologie,2023-01-17_13h32.04.326,00_bat_bachelor,2022.2.4,60.05488649954915,
,,,,,,,,,,,,1,0,1,0,72,0,72,0,,,,,,,72,,,0.2,754.647430958823,Y,l,go,d,0,0.18992343221907504,,,,,,,,,,,,,,,,,,30,001,19,w,Bachelor Psychologie,2023-01-17_13h32.04.326,00_bat_bachelor,2022.2.4,60.05488649954915,
,,,,,,,,,,,,1,0,1,0,73,0,73,0,,,,,,,73,,,0.2,755.1481240494031,X,d,go,l,0,0.31419731135247275,,,,,,,,,,,,,,,,,,30,001,19,w,Bachelor Psychologie,2023-01-17_13h32.04.326,00_bat_bachelor,2022.2.4,60.05488649954915,
,,,,,,,,,,,,1,0,1,0,74,0,74,0,,,,,,,74,,,0.2,755.7653339319659,Y,l,go,d,0,0.3362603309651604,,,,,,,,,,,,,,,,,,30,001,19,w,Bachelor Psychologie,2023-01-17_13h32.04.326,00_bat_bachelor,2022.2.4,60.05488649954915,
,,,,,,,,,,,,1,0,1,0,75,0,75,0,,,,,,,75,,,0.2,756.4155556773039,Y,None,nogo,None,1,,,,,,,,,,,,,,,,,,,30,001,19,w,Bachelor Psychologie,2023-01-17_13h32.04.326,00_bat_bachelor,2022.2.4,60.05488649954915,
,,,,,,,,,,,,1,0,1,0,76,0,76,0,,,,,,,76,,,0.2,757.4165675556142,X,d,go,None,0,,,,,,,,,,,,,,,,,,,30,001,19,w,Bachelor Psychologie,2023-01-17_13h32.04.326,00_bat_bachelor,2022.2.4,60.05488649954915,
,,,,,,,,,,,,1,0,1,0,77,0,77,0,,,,,,,77,,,0.2,758.4172827067814,Y,l,go,l,1,0.292649200593587,,,,,,,,,,,,,,,,,,30,001,19,w,Bachelor Psychologie,2023-01-17_13h32.04.326,00_bat_bachelor,2022.2.4,60.05488649954915,
,,,,,,,,,,,,1,0,1,0,78,0,78,0,,,,,,,78,,,0.2,759.0176838702173,Y,None,nogo,d,0,0.5080299446563004,,,,,,,,,,,,,,,,,,30,001,19,w,Bachelor Psychologie,2023-01-17_13h32.04.326,00_bat_bachelor,2022.2.4,60.05488649954915,
,,,,,,,,,,,,1,0,1,0,79,0,79,0,,,,,,,79,,,0.2,759.8350943829864,Y,None,nogo,l,0,0.2183282669284381,,,,,,,,,,,,,,,,,,30,001,19,w,Bachelor Psychologie,2023-01-17_13h32.04.326,00_bat_bachelor,2022.2.4,60.05488649954915,
,,,,,,,,,,,,1,0,1,0,80,0,80,0,,,,,,,80,,,0.2,760.3684361850028,X,d,go,d,1,0.3259248208196368,,,,,,,,,,,,,,,,,,30,001,19,w,Bachelor Psychologie,2023-01-17_13h32.04.326,00_bat_bachelor,2022.2.4,60.05488649954915,
,,,,,,,,,,,,1,0,1,0,81,0,81,0,,,,,,,81,,,0.2,761.0025609684526,Y,l,go,None,0,,,,,,,,,,,,,,,,,,,30,001,19,w,Bachelor Psychologie,2023-01-17_13h32.04.326,00_bat_bachelor,2022.2.4,60.05488649954915,
,,,,,,,,,,,,1,0,1,0,82,0,82,0,,,,,,,82,,,0.2,762.0032106651197,X,d,go,None,0,,,,,,,,,,,,,,,,,,,30,001,19,w,Bachelor Psychologie,2023-01-17_13h32.04.326,00_bat_bachelor,2022.2.4,60.05488649954915,
,,,,,,,,,,,,1,0,1,0,83,0,83,0,,,,,,,83,,,0.2,763.003879270851,X,None,nogo,None,1,,,,,,,,,,,,,,,,,,,30,001,19,w,Bachelor Psychologie,2023-01-17_13h32.04.326,00_bat_bachelor,2022.2.4,60.05488649954915,
,,,,,,,,,,,,1,0,1,0,84,0,84,0,,,,,,,84,,,0.2,764.0048620582529,Y,l,go,d,0,0.20803590829018503,,,,,,,,,,,,,,,,,,30,001,19,w,Bachelor Psychologie,2023-01-17_13h32.04.326,00_bat_bachelor,2022.2.4,60.05488649954915,
,,,,,,,,,,,,1,0,1,0,85,0,85,0,,,,,,,85,,,0.2,764.521928959075,X,d,go,None,0,,,,,,,,,,,,,,,,,,,30,001,19,w,Bachelor Psychologie,2023-01-17_13h32.04.326,00_bat_bachelor,2022.2.4,60.05488649954915,
,,,,,,,,,,,,1,0,1,0,86,0,86,0,,,,,,,86,,,0.2,765.5226082314621,Y,l,go,None,0,,,,,,,,,,,,,,,,,,,30,001,19,w,Bachelor Psychologie,2023-01-17_13h32.04.326,00_bat_bachelor,2022.2.4,60.05488649954915,
,,,,,,,,,,,,1,0,1,0,87,0,87,0,,,,,,,87,,,0.2,766.5232380493399,Y,None,nogo,None,1,,,,,,,,,,,,,,,,,,,30,001,19,w,Bachelor Psychologie,2023-01-17_13h32.04.326,00_bat_bachelor,2022.2.4,60.05488649954915,
,,,,,,,,,,,,1,0,1,0,88,0,88,0,,,,,,,88,,,0.2,767.524199018575,X,d,go,None,0,,,,,,,,,,,,,,,,,,,30,001,19,w,Bachelor Psychologie,2023-01-17_13h32.04.326,00_bat_bachelor,2022.2.4,60.05488649954915,
,,,,,,,,,,,,1,0,1,0,89,0,89,0,,,,,,,89,,,0.2,768.5250251999969,Y,l,go,None,0,,,,,,,,,,,,,,,,,,,30,001,19,w,Bachelor Psychologie,2023-01-17_13h32.04.326,00_bat_bachelor,2022.2.4,60.05488649954915,
,,,,,,,,,,,,1,0,1,0,90,0,90,0,,,,,,,90,,,0.2,769.5254387755558,X,d,go,d,1,0.432413981310674,,,,,,,,,,,,,,,,,,30,001,19,w,Bachelor Psychologie,2023-01-17_13h32.04.326,00_bat_bachelor,2022.2.4,60.05488649954915,
,,,,,,,,,,,,1,0,1,0,91,0,91,0,,,,,,,91,,,0.2,770.2595431468944,X,None,nogo,None,1,,,,,,,,,,,,,,,,,,,30,001,19,w,Bachelor Psychologie,2023-01-17_13h32.04.326,00_bat_bachelor,2022.2.4,60.05488649954915,
,,,,,,,,,,,,1,0,1,0,92,0,92,0,,,,,,,92,,,0.2,771.2604871464282,Y,l,go,l,1,0.5367819307139143,,,,,,,,,,,,,,,,,,30,001,19,w,Bachelor Psychologie,2023-01-17_13h32.04.326,00_bat_bachelor,2022.2.4,60.05488649954915,
,,,,,,,,,,,,1,0,1,0,93,0,93,0,,,,,,,93,,,0.2,772.1107083099632,X,d,go,None,0,,772.9113343460194,,,,,,,,,,,,,,,,,30,001,19,w,Bachelor Psychologie,2023-01-17_13h32.04.326,00_bat_bachelor,2022.2.4,60.05488649954915,
,,,,,,,,,,,,1,0,1,0,94,0,94,0,,,,,,,94,,,0.2,773.1118127942755,X,None,nogo,d,0,0.07787451684998814,,,,,,,,,,,,,,,,,,30,001,19,w,Bachelor Psychologie,2023-01-17_13h32.04.326,00_bat_bachelor,2022.2.4,60.05488649954915,
,,,,,,,,,,,,1,0,1,0,95,0,95,0,,,,,,,95,,,0.2,773.4954058204166,Y,l,go,l,1,0.44624864126672037,,,,,,,,,,,,,,,,,,30,001,19,w,Bachelor Psychologie,2023-01-17_13h32.04.326,00_bat_bachelor,2022.2.4,60.05488649954915,
,,,,,,,,,,,,1,0,1,0,96,0,96,0,,,,,,,96,,,0.2,774.2459591534716,X,d,go,d,1,0.27186521067051217,,,,,,,,,,,,,,,,,,30,001,19,w,Bachelor Psychologie,2023-01-17_13h32.04.326,00_bat_bachelor,2022.2.4,60.05488649954915,
,,,,,,,,,,,,1,0,1,0,97,0,97,0,,,,,,,97,,,0.2,774.829601052319,X,None,nogo,l,0,0.3443340240191901,,,,,,,,,,,,,,,,,,30,001,19,w,Bachelor Psychologie,2023-01-17_13h32.04.326,00_bat_bachelor,2022.2.4,60.05488649954915,
,,,,,,,,,,,,1,0,1,0,98,0,98,0,,,,,,,98,,,0.2,775.4802252217196,Y,l,go,d,0,0.47807262584683485,,,,,,,,,,,,,,,,,,30,001,19,w,Bachelor Psychologie,2023-01-17_13h32.04.326,00_bat_bachelor,2022.2.4,60.05488649954915,
,,,,,,,,,,,,1,0,1,0,99,0,99,0,,,,,,,99,,,0.2,776.2639116296195,X,d,go,None,0,,,,,,,,,,,,,,,,,,,30,001,19,w,Bachelor Psychologie,2023-01-17_13h32.04.326,00_bat_bachelor,2022.2.4,60.05488649954915,
,,,,,,,,,,,,1,0,1,0,100,0,100,0,,,,,,,100,,,0.2,777.2649404776021,X,None,nogo,d,0,0.3731010403862456,,,,,,,,,,,,,,,,,,30,001,19,w,Bachelor Psychologie,2023-01-17_13h32.04.326,00_bat_bachelor,2022.2.4,60.05488649954915,
,,,,,,,,,,,,1,0,1,0,101,0,101,0,,,,,,,101,,,0.2,777.9485057219426,Y,l,go,l,1,0.5372144153516274,,,,,,,,,,,,,,,,,,30,001,19,w,Bachelor Psychologie,2023-01-17_13h32.04.326,00_bat_bachelor,2022.2.4,60.05488649954915,
,,,,,,,,,,,,1,0,1,0,102,0,102,0,,,,,,,102,,,0.2,778.7991457943572,X,d,go,d,1,0.5656425227789441,,,,,,,,,,,,,,,,,,30,001,19,w,Bachelor Psychologie,2023-01-17_13h32.04.326,00_bat_bachelor,2022.2.4,60.05488649954915,
,,,,,,,,,,,,1,0,1,0,103,0,103,0,,,,,,,103,,,0.2,779.6668006464024,X,None,nogo,None,1,,,,,,,,,,,,,,,,,,,30,001,19,w,Bachelor Psychologie,2023-01-17_13h32.04.326,00_bat_bachelor,2022.2.4,60.05488649954915,
,,,,,,,,,,,,1,0,1,0,104,0,104,0,,,,,,,104,,,0.2,780.6676132520661,Y,l,go,l,1,0.39466951476060785,,,,,,,,,,,,,,,,,,30,001,19,w,Bachelor Psychologie,2023-01-17_13h32.04.326,00_bat_bachelor,2022.2.4,60.05488649954915,
,,,,,,,,,,,,1,0,1,0,105,0,105,0,,,,,,,105,,,0.2,781.3677918216854,X,d,go,None,0,,,,,,,,,,,,,,,,,,,30,001,19,w,Bachelor Psychologie,2023-01-17_13h32.04.326,00_bat_bachelor,2022.2.4,60.05488649954915,
,,,,,,,,,,,,1,0,1,0,106,0,106,0,,,,,,,106,,,0.2,782.3686980030616,Y,l,go,None,0,,,,,,,,,,,,,,,,,,,30,001,19,w,Bachelor Psychologie,2023-01-17_13h32.04.326,00_bat_bachelor,2022.2.4,60.05488649954915,
,,,,,,,,,,,,1,0,1,0,107,0,107,0,,,,,,,107,,,0.2,783.3693418815383,Y,None,nogo,None,1,,784.1701759174903,,,,,,,,,,,,,,,,,30,001,19,w,Bachelor Psychologie,2023-01-17_13h32.04.326,00_bat_bachelor,2022.2.4,60.05488649954915,
,,,,,,,,,,,,1,0,1,0,108,0,108,0,,,,,,,108,,,0.2,784.3704080628377,X,d,go,d,1,0.40289351077808533,,,,,,,,,,,,,,,,,,30,001,19,w,Bachelor Psychologie,2023-01-17_13h32.04.326,00_bat_bachelor,2022.2.4,60.05488649954915,
,,,,,,,,,,,,1,0,1,0,109,0,109,0,,,,,,,109,,,0.2,785.0872993516095,Y,l,go,l,1,0.48545201620436274,,,,,,,,,,,,,,,,,,30,001,19,w,Bachelor Psychologie,2023-01-17_13h32.04.326,00_bat_bachelor,2022.2.4,60.05488649954915,
,,,,,,,,,,,,1,0,1,0,110,0,110,0,,,,,,,110,,,0.2,785.887902599803,X,d,go,None,0,,,,,,,,,,,,,,,,,,,30,001,19,w,Bachelor Psychologie,2023-01-17_13h32.04.326,00_bat_bachelor,2022.2.4,60.05488649954915,
,,,,,,,,,,,,1,0,1,0,111,0,111,0,,,,,,,111,,,0.2,786.8886880539794,X,None,nogo,None,1,,,,,,,,,,,,,,,,,,,30,001,19,w,Bachelor Psychologie,2023-01-17_13h32.04.326,00_bat_bachelor,2022.2.4,60.05488649954915,
,,,,,,,,,,,,1,0,1,0,112,0,112,0,,,,,,,112,,,0.2,787.8894158111943,Y,l,go,l,1,0.30829282937338576,,,,,,,,,,,,,,,,,,30,001,19,w,Bachelor Psychologie,2023-01-17_13h32.04.326,00_bat_bachelor,2022.2.4,60.05488649954915,
,,,,,,,,,,,,1,0,1,0,113,0,113,0,,,,,,,113,,,0.2,788.5065495725867,X,d,go,d,1,0.5078544295975007,,,,,,,,,,,,,,,,,,30,001,19,w,Bachelor Psychologie,2023-01-17_13h32.04.326,00_bat_bachelor,2022.2.4,60.05488649954915,
,,,,,,,,,,,,1,0,1,0,114,0,114,0,,,,,,,114,,,0.2,789.3241923276655,X,None,nogo,None,1,,,,,,,,,,,,,,,,,,,30,001,19,w,Bachelor Psychologie,2023-01-17_13h32.04.326,00_bat_bachelor,2022.2.4,60.05488649954915,
,,,,,,,,,,,,1,0,1,0,115,0,115,0,,,,,,,115,,,0.2,790.3248556000763,Y,l,go,l,1,0.33684166401508264,,,,,,,,,,,,,,,,,,30,001,19,w,Bachelor Psychologie,2023-01-17_13h32.04.326,00_bat_bachelor,2022.2.4,60.05488649954915,
,,,,,,,,,,,,1,0,1,0,116,0,116,0,,,,,,,116,,,0.2,790.975365345279,X,d,go,d,1,0.5503494392760331,,,,,,,,,,,,,,,,,,30,001,19,w,Bachelor Psychologie,2023-01-17_13h32.04.326,00_bat_bachelor,2022.2.4,60.05488649954915,
,,,,,,,,,,,,1,0,1,0,117,0,117,0,,,,,,,117,,,0.2,791.8259365692502,X,None,nogo,None,1,,,,,,,,,,,,,,,,,,,30,001,19,w,Bachelor Psychologie,2023-01-17_13h32.04.326,00_bat_bachelor,2022.2.4,60.05488649954915,
,,,,,,,,,,,,1,0,1,0,118,0,118,0,,,,,,,118,,,0.2,792.8267680839926,Y,l,go,l,1,0.31558834099269006,,,,,,,,,,,,,,,,,,30,001,19,w,Bachelor Psychologie,2023-01-17_13h32.04.326,00_bat_bachelor,2022.2.4,60.05488649954915,
,,,,,,,,,,,,1,0,1,0,119,0,119,0,,,,,,,119,,,0.2,793.4436662091321,X,d,go,d,1,0.5931004488520557,,,,,,,,,,,,,,,,,,30,001,19,w,Bachelor Psychologie,2023-01-17_13h32.04.326,00_bat_bachelor,2022.2.4,60.05488649954915,
,,,,,,,,,,,,1,0,1,0,120,0,120,0,,,,,,,120,,,0.2,794.3446461359272,Y,l,go,l,1,0.5416085950419074,,,,,,,,,,,,,,,,,,30,001,19,w,Bachelor Psychologie,2023-01-17_13h32.04.326,00_bat_bachelor,2022.2.4,60.05488649954915,
,,,,,,,,,,,,1,0,1,0,121,0,121,0,,,,,,,121,,,0.2,795.1949565115356,X,d,go,d,1,0.4414258557371795,,,,,,,,,,,,,,,,,,30,001,19,w,Bachelor Psychologie,2023-01-17_13h32.04.326,00_bat_bachelor,2022.2.4,60.05488649954915,
,,,,,,,,,,,,1,0,1,0,122,0,122,0,,,,,,,122,,,0.2,795.945755662673,X,None,nogo,None,1,,,,,,,,,,,,,,,,,,,30,001,19,w,Bachelor Psychologie,2023-01-17_13h32.04.326,00_bat_bachelor,2022.2.4,60.05488649954915,
,,,,,,,,,,,,1,0,1,0,123,0,123,0,,,,,,,123,,,0.2,796.9466569955694,Y,l,go,l,1,0.2434356487065088,,,,,,,,,,,,,,,,,,30,001,19,w,Bachelor Psychologie,2023-01-17_13h32.04.326,00_bat_bachelor,2022.2.4,60.05488649954915,
,,,,,,,,,,,,1,0,1,0,124,0,124,0,,,,,,,124,,,0.2,797.4971226680645,X,d,go,None,0,,798.2973593709758,,,,,,,,,,,,,,,,,30,001,19,w,Bachelor Psychologie,2023-01-17_13h32.04.326,00_bat_bachelor,2022.2.4,60.05488649954915,
,,,,,,,,,,,,1,0,1,0,125,0,125,0,,,,,,,125,,,0.2,798.4975231527205,X,None,nogo,d,0,0.5158064257266233,,,,,,,,,,,,,,,,,,30,001,19,w,Bachelor Psychologie,2023-01-17_13h32.04.326,00_bat_bachelor,2022.2.4,60.05488649954915,
,,,,,,,,,,,,1,0,1,0,126,0,126,0,,,,,,,126,,,0.2,799.3150762108708,Y,l,go,l,1,0.6115581368794665,,,,,,,,,,,,,,,,,,30,001,19,w,Bachelor Psychologie,2023-01-17_13h32.04.326,00_bat_bachelor,2022.2.4,60.05488649954915,
,,,,,,,,,,,,1,0,1,0,127,0,127,0,,,,,,,127,,,0.2,800.2323514025047,X,d,go,None,0,,801.0330419233796,,,,,,,,,,,,,,,,,30,001,19,w,Bachelor Psychologie,2023-01-17_13h32.04.326,00_bat_bachelor,2022.2.4,60.05488649954915,
,,,,,,,,,,,,1,0,1,0,128,0,128,0,,,,,,,128,,,0.2,801.2329453416023,Y,l,go,None,0,,,,,,,,,,,,,,,,,,,30,001,19,w,Bachelor Psychologie,2023-01-17_13h32.04.326,00_bat_bachelor,2022.2.4,60.05488649954915,
,,,,,,,,,,,,1,0,1,0,129,0,129,0,,,,,,,129,,,0.2,802.2339329774841,Y,None,nogo,None,1,,,,,,,,,,,,,,,,,,,30,001,19,w,Bachelor Psychologie,2023-01-17_13h32.04.326,00_bat_bachelor,2022.2.4,60.05488649954915,
,,,,,,,,,,,,1,0,1,0,130,0,130,0,,,,,,,130,,,0.2,803.2348173406936,X,d,go,l,0,0.2435301941150101,,,,,,,,,,,,,,,,,,30,001,19,w,Bachelor Psychologie,2023-01-17_13h32.04.326,00_bat_bachelor,2022.2.4,60.05488649954915,
,,,,,,,,,,,,1,0,1,0,131,0,131,0,,,,,,,131,,,0.2,803.7850386496866,Y,l,go,None,0,,,,,,,,,,,,,,,,,,,30,001,19,w,Bachelor Psychologie,2023-01-17_13h32.04.326,00_bat_bachelor,2022.2.4,60.05488649954915,
,,,,,,,,,,,,1,0,1,0,132,0,132,0,,,,,,,132,,,0.2,804.785884225028,X,d,go,d,1,0.26012897393957246,,,,,,,,,,,,,,,,,,30,001,19,w,Bachelor Psychologie,2023-01-17_13h32.04.326,00_bat_bachelor,2022.2.4,60.05488649954915,
,,,,,,,,,,,,1,0,1,0,133,0,133,0,,,,,,,133,,,0.2,805.3527096471807,X,None,nogo,None,1,,806.1536033194716,,,,,,,,,,,,,,,,,30,001,19,w,Bachelor Psychologie,2023-01-17_13h32.04.326,00_bat_bachelor,2022.2.4,60.05488649954915,
,,,,,,,,,,,,1,0,1,0,134,0,134,0,,,,,,,134,,,0.2,806.3537966769509,Y,l,go,l,1,0.19571882335003465,,,,,,,,,,,,,,,,,,30,001,19,w,Bachelor Psychologie,2023-01-17_13h32.04.326,00_bat_bachelor,2022.2.4,60.05488649954915,
,,,,,,,,,,,,1,0,1,0,135,0,135,0,,,,,,,135,,,0.2,806.8538875859958,X,d,go,d,1,0.49617007160850335,,,,,,,,,,,,,,,,,,30,001,19,w,Bachelor Psychologie,2023-01-17_13h32.04.326,00_bat_bachelor,2022.2.4,60.05488649954915,
,,,,,,,,,,,,1,0,1,0,136,0,136,0,,,,,,,136,,,0.2,807.6546808947023,Y,l,go,l,1,0.623856312740827,,,,,,,,,,,,,,,,,,30,001,19,w,Bachelor Psychologie,2023-01-17_13h32.04.326,00_bat_bachelor,2022.2.4,60.05488649954915,
,,,,,,,,,,,,1,0,1,0,137,0,137,0,,,,,,,137,,,0.2,808.5887551084888,X,d,go,d,1,0.2813182969985064,,,,,,,,,,,,,,,,,,30,001,19,w,Bachelor Psychologie,2023-01-17_13h32.04.326,00_bat_bachelor,2022.2.4,60.05488649954915,
,,,,,,,,,,,,1,0,1,0,138,0,138,0,,,,,,,138,,,0.2,809.1725943405618,Y,l,go,l,1,0.3853327920223819,,,,,,,,,,,,,,,,,,30,001,19,w,Bachelor Psychologie,2023-01-17_13h32.04.326,00_bat_bachelor,2022.2.4,60.05488649954915,
,,,,,,,,,,,,1,0,1,0,139,0,139,0,,,,,,,139,,,0.2,809.8731666069507,Y,None,nogo,None,1,,,,,,,,,,,,,,,,,,,30,001,19,w,Bachelor Psychologie,2023-01-17_13h32.04.326,00_bat_bachelor,2022.2.4,60.05488649954915,
,,,,,,,,,,,,1,0,1,0,140,0,140,0,,,,,,,140,,,0.2,810.8737164248741,X,d,go,d,1,0.26763539454259444,,,,,,,,,,,,,,,,,,30,001,19,w,Bachelor Psychologie,2023-01-17_13h32.04.326,00_bat_bachelor,2022.2.4,60.05488649954915,
,,,,,,,,,,,,1,0,1,0,141,0,141,0,,,,,,,141,,,0.2,811.4576822023373,Y,l,go,l,1,0.4678738429065561,,,,,,,,,,,,,,,,,,30,001,19,w,Bachelor Psychologie,2023-01-17_13h32.04.326,00_bat_bachelor,2022.2.4,60.05488649954915,
,,,,,,,,,,,,1,0,1,0,142,0,142,0,,,,,,,142,,,0.2,812.2415989131696,Y,None,nogo,None,1,,,,,,,,,,,,,,,,,,,30,001,19,w,Bachelor Psychologie,2023-01-17_13h32.04.326,00_bat_bachelor,2022.2.4,60.05488649954915,
,,,,,,,,,,,,1,0,1,0,143,0,143,0,,,,,,,143,,,0.2,813.2420570947579,X,d,go,d,1,0.3470700226898771,,,,,,,,,,,,,,,,,,30,001,19,w,Bachelor Psychologie,2023-01-17_13h32.04.326,00_bat_bachelor,2022.2.4,60.05488649954915,
,,,,,,,,,,,,1,0,1,0,144,0,144,0,,,,,,,144,,,0.2,813.8928722943674,Y,l,go,l,1,0.4163916860561585,,,,,,,,,,,,,,,,,,30,001,19,w,Bachelor Psychologie,2023-01-17_13h32.04.326,00_bat_bachelor,2022.2.4,60.05488649954915,
,,,,,,,,,,,,1,0,1,0,145,0,145,0,,,,,,,145,,,0.2,814.6101233405498,X,d,go,d,1,0.6433089093625313,,,,,,,,,,,,,,,,,,30,001,19,w,Bachelor Psychologie,2023-01-17_13h32.04.326,00_bat_bachelor,2022.2.4,60.05488649954915,
,,,,,,,,,,,,1,0,1,0,146,0,146,0,,,,,,,146,,,0.2,815.5608040917286,Y,l,go,l,1,0.44474609654571395,,,,,,,,,,,,,,,,,,30,001,19,w,Bachelor Psychologie,2023-01-17_13h32.04.326,00_bat_bachelor,2022.2.4,60.05488649954915,
,,,,,,,,,,,,1,0,1,0,147,0,147,0,,,,,,,147,,,0.2,816.3111804551882,Y,None,nogo,None,1,,,,,,,,,,,,,,,,,,,30,001,19,w,Bachelor Psychologie,2023-01-17_13h32.04.326,00_bat_bachelor,2022.2.4,60.05488649954915,
,,,,,,,,,,,,1,0,1,0,148,0,148,0,,,,,,,148,,,0.2,817.312027969936,X,d,go,d,1,0.39025400174432434,,,,,,,,,,,,,,,,,,30,001,19,w,Bachelor Psychologie,2023-01-17_13h32.04.326,00_bat_bachelor,2022.2.4,60.05488649954915,
,,,,,,,,,,,,1,0,1,0,149,0,149,0,,,,,,,149,,,0.2,818.0126521150814,Y,l,go,l,1,0.2820285996858729,,,,,,,,,,,,,,,,,,30,001,19,w,Bachelor Psychologie,2023-01-17_13h32.04.326,00_bat_bachelor,2022.2.4,60.05488649954915,
,,,,,,,,,,,,1,0,1,0,150,0,150,0,,,,,,,150,,,0.2,818.596446741125,Y,None,nogo,None,1,,,,,,,,,,,,,,,,,,,30,001,19,w,Bachelor Psychologie,2023-01-17_13h32.04.326,00_bat_bachelor,2022.2.4,60.05488649954915,
,,,,,,,,,,,,1,0,1,0,151,0,151,0,,,,,,,151,,,0.2,819.5972816498106,X,d,go,d,1,0.2809066608315334,,,,,,,,,,,,,,,,,,30,001,19,w,Bachelor Psychologie,2023-01-17_13h32.04.326,00_bat_bachelor,2022.2.4,60.05488649954915,
,,,,,,,,,,,,1,0,1,0,152,0,152,0,,,,,,,152,,,0.2,820.1810500940337,Y,l,go,l,1,0.32096530808485113,,,,,,,,,,,,,,,,,,30,001,19,w,Bachelor Psychologie,2023-01-17_13h32.04.326,00_bat_bachelor,2022.2.4,60.05488649954915,
,,,,,,,,,,,,1,0,1,0,153,0,153,0,,,,,,,153,,,0.2,820.8148490594758,Y,None,nogo,None,1,,,,,,,,,,,,,,,,,,,30,001,19,w,Bachelor Psychologie,2023-01-17_13h32.04.326,00_bat_bachelor,2022.2.4,60.05488649954915,
,,,,,,,,,,,,1,0,1,0,154,0,154,0,,,,,,,154,,,0.2,821.8155627560918,X,d,go,d,1,0.4785046256292844,,,,,,,,,,,,,,,,,,30,001,19,w,Bachelor Psychologie,2023-01-17_13h32.04.326,00_bat_bachelor,2022.2.4,60.05488649954915,
,,,,,,,,,,,,1,0,1,0,155,0,155,0,,,,,,,155,,,0.2,822.5994775275321,Y,l,go,l,1,0.25380073457199614,,,,,,,,,,,,,,,,,,30,001,19,w,Bachelor Psychologie,2023-01-17_13h32.04.326,00_bat_bachelor,2022.2.4,60.05488649954915,
,,,,,,,,,,,,1,0,1,0,156,0,156,0,,,,,,,156,,,0.2,823.1666370101157,X,d,go,None,0,,823.9668974706001,,,,,,,,,,,,,,,,,30,001,19,w,Bachelor Psychologie,2023-01-17_13h32.04.326,00_bat_bachelor,2022.2.4,60.05488649954915,
,,,,,,,,,,,,1,0,1,0,157,0,157,0,,,,,,,157,,,0.2,824.1670714341453,Y,l,go,d,0,0.28624047643097583,,,,,,,,,,,,,,,,,,30,001,19,w,Bachelor Psychologie,2023-01-17_13h32.04.326,00_bat_bachelor,2022.2.4,60.05488649954915,
,,,,,,,,,,,,1,0,1,0,158,0,158,0,,,,,,,158,,,0.2,824.7678759913397,X,d,go,l,0,0.005928854763624258,,,,,,,,,,,,,,,,,,30,001,19,w,Bachelor Psychologie,2023-01-17_13h32.04.326,00_bat_bachelor,2022.2.4,60.05488649954915,
,,,,,,,,,,,,1,0,1,0,159,0,159,0,,,,,,,159,,,0.2,825.0847282013419,X,None,nogo,None,1,,,,,,,,,,,,,,,,,,,30,001,19,w,Bachelor Psychologie,2023-01-17_13h32.04.326,00_bat_bachelor,2022.2.4,60.05488649954915,
,,,,,,,,,,,,1,0,1,0,160,0,160,0,,,,,,,160,,,0.2,826.0855762009305,Y,l,go,None,0,,,,,,,,,,,,,,,,,,,30,001,19,w,Bachelor Psychologie,2023-01-17_13h32.04.326,00_bat_bachelor,2022.2.4,60.05488649954915,
,,,,,,,,,,,,1,0,1,0,161,0,161,0,,,,,,,161,,,0.2,827.0861420188448,X,d,go,d,1,0.5353496889729286,,,,,,,,,,,,,,,,,,30,001,19,w,Bachelor Psychologie,2023-01-17_13h32.04.326,00_bat_bachelor,2022.2.4,60.05488649954915,
,,,,,,,,,,,,1,0,1,0,162,0,162,0,,,,,,,162,,,0.2,827.9365900913544,Y,l,go,l,1,0.40429811616195366,,,,,,,,,,,,,,,,,,30,001,19,w,Bachelor Psychologie,2023-01-17_13h32.04.326,00_bat_bachelor,2022.2.4,60.05488649954915,
,,,,,,,,,,,,1,0,1,0,163,0,163,0,,,,,,,163,,,0.2,828.6540578646964,X,d,go,d,1,0.2636111540632555,,,,,,,,,,,,,,,,,,30,001,19,w,Bachelor Psychologie,2023-01-17_13h32.04.326,00_bat_bachelor,2022.2.4,60.05488649954915,
,,,,,,,,,,,,1,0,1,0,164,0,164,0,,,,,,,164,,,0.2,829.2209123777429,X,None,nogo,None,1,,,,,,,,,,,,,,,,,,,30,001,19,w,Bachelor Psychologie,2023-01-17_13h32.04.326,00_bat_bachelor,2022.2.4,60.05488649954915,
,,,,,,,,,,,,1,0,1,0,165,0,165,0,,,,,,,165,,,0.2,830.2216619531391,Y,l,go,l,1,0.039556474817800336,,,,,,,,,,,,,,,,,,30,001,19,w,Bachelor Psychologie,2023-01-17_13h32.04.326,00_bat_bachelor,2022.2.4,60.05488649954915,
,,,,,,,,,,,,1,0,1,0,166,0,166,0,,,,,,,166,,,0.2,830.5723085710051,X,d,go,d,1,0.4096905983897159,,,,,,,,,,,,,,,,,,30,001,19,w,Bachelor Psychologie,2023-01-17_13h32.04.326,00_bat_bachelor,2022.2.4,60.05488649954915,
,,,,,,,,,,,,1,0,1,0,167,0,167,0,,,,,,,167,,,0.2,831.2892633748997,Y,l,go,l,1,0.25197964455583133,,,,,,,,,,,,,,,,,,30,001,19,w,Bachelor Psychologie,2023-01-17_13h32.04.326,00_bat_bachelor,2022.2.4,60.05488649954915,
,,,,,,,,,,,,1,0,1,0,168,0,168,0,,,,,,,168,,,0.2,831.8565222513862,Y,None,nogo,d,0,0.1334444293024717,,,,,,,,,,,,,,,,,,30,001,19,w,Bachelor Psychologie,2023-01-17_13h32.04.326,00_bat_bachelor,2022.2.4,60.05488649954915,
,,,,,,,,,,,,1,0,1,0,169,0,169,0,,,,,,,169,,,0.2,832.2901574350835,X,d,go,None,0,,,,,,,,,,,,,,,,,,,30,001,19,w,Bachelor Psychologie,2023-01-17_13h32.04.326,00_bat_bachelor,2022.2.4,60.05488649954915,
,,,,,,,,,,,,1,0,1,0,170,0,170,0,,,,,,,170,,,0.2,833.291029677086,Y,l,go,l,1,0.042113564486498944,,,,,,,,,,,,,,,,,,30,001,19,w,Bachelor Psychologie,2023-01-17_13h32.04.326,00_bat_bachelor,2022.2.4,60.05488649954915,
,,,,,,,,,,,,1,0,1,0,171,0,171,0,,,,,,,171,,,0.2,833.6412646587851,X,d,go,d,1,0.36462880205363035,,,,,,,,,,,,,,,,,,30,001,19,w,Bachelor Psychologie,2023-01-17_13h32.04.326,00_bat_bachelor,2022.2.4,60.05488649954915,
,,,,,,,,,,,,1,0,1,0,172,0,172,0,,,,,,,172,,,0.2,834.308486153459,Y,l,go,l,1,0.14610672618437093,,,,,,,,,,,,,,,,,,30,001,19,w,Bachelor Psychologie,2023-01-17_13h32.04.326,00_bat_bachelor,2022.2.4,60.05488649954915,
,,,,,,,,,,,,1,0,1,0,173,0,173,0,,,,,,,173,,,0.2,834.7588199957245,X,d,go,d,1,0.20772463570756372,,,,,,,,,,,,,,,,,,30,001,19,w,Bachelor Psychologie,2023-01-17_13h32.04.326,00_bat_bachelor,2022.2.4,60.05488649954915,
,,,,,,,,,,,,1,0,1,0,174,0,174,0,,,,,,,174,,,0.2,835.2755344118632,Y,l,go,l,1,0.24918497924227268,,,,,,,,,,,,,,,,,,30,001,19,w,Bachelor Psychologie,2023-01-17_13h32.04.326,00_bat_bachelor,2022.2.4,60.05488649954915,
,,,,,,,,,,,,1,0,1,0,175,0,175,0,,,,,,,175,,,0.2,835.8262929327175,X,d,go,d,1,0.26046642832807265,,,,,,,,,,,,,,,,,,30,001,19,w,Bachelor Psychologie,2023-01-17_13h32.04.326,00_bat_bachelor,2022.2.4,60.05488649954915,
,,,,,,,,,,,,1,0,1,0,176,0,176,0,,,,,,,176,,,0.2,836.3930897488026,Y,l,go,l,1,0.15651932719629258,,,,,,,,,,,,,,,,,,30,001,19,w,Bachelor Psychologie,2023-01-17_13h32.04.326,00_bat_bachelor,2022.2.4,60.05488649954915,
,,,,,,,,,,,,1,0,1,0,177,0,177,0,,,,,,,177,,,0.2,836.8603278252995,X,d,go,d,1,0.26485285043600015,,,,,,,,,,,,,,,,,,30,001,19,w,Bachelor Psychologie,2023-01-17_13h32.04.326,00_bat_bachelor,2022.2.4,60.05488649954915,
,,,,,,,,,,,,1,0,1,0,178,0,178,0,,,,,,,178,,,0.2,837.427516883632,X,None,nogo,l,0,0.28998544430942275,,,,,,,,,,,,,,,,,,30,001,19,w,Bachelor Psychologie,2023-01-17_13h32.04.326,00_bat_bachelor,2022.2.4,60.05488649954915,
,,,,,,,,,,,,1,0,1,0,179,0,179,0,,,,,,,179,,,0.2,838.0279481076723,Y,l,go,d,0,0.2976077436323976,,,,,,,,,,,,,,,,,,30,001,19,w,Bachelor Psychologie,2023-01-17_13h32.04.326,00_bat_bachelor,2022.2.4,60.05488649954915,
,,,,,,,,,,,,1,0,1,0,180,0,180,0,,,,,,,180,,,0.2,838.6282813923463,X,d,go,l,0,0.3853904889692785,,,,,,,,,,,,,,,,,,30,001,19,w,Bachelor Psychologie,2023-01-17_13h32.04.326,00_bat_bachelor,2022.2.4,60.05488649954915,
,,,,,,,,,,,,1,0,1,0,181,0,181,0,,,,,,,181,,,0.2,839.3462926805951,Y,l,go,d,0,0.3705037082982017,,,,,,,,,,,,,,,,,,30,001,19,w,Bachelor Psychologie,2023-01-17_13h32.04.326,00_bat_bachelor,2022.2.4,60.05488649954915,
