loop_instruction.thisRepN,loop_instruction.thisTrialN,loop_instruction.thisN,loop_instruction.thisIndex,loop_rsi_practice.thisRepN,loop_rsi_practice.thisTrialN,loop_rsi_practice.thisN,loop_rsi_practice.thisIndex,loop_practice.thisRepN,loop_practice.thisTrialN,loop_practice.thisN,loop_practice.thisIndex,loop_exp.thisRepN,loop_exp.thisTrialN,loop_exp.thisN,loop_exp.thisIndex,loop_trials.thisRepN,loop_trials.thisTrialN,loop_trials.thisN,loop_trials.thisIndex,map_condition,map_x_key,map_y_key,key_resp_welcome.started,key_resp_welcome.keys,key_resp_welcome.rt,index,text_empty_rsi_practice.started,text_empty_rsi_practice.stopped,rsi,stimulus.started,stimulus,correct,trial_type,key_resp_trial.keys,key_resp_trial.corr,key_resp_trial.rt,stimulus.stopped,key_resp_instruction_rsi.started,key_resp_instruction_rsi.keys,key_resp_instruction_rsi.rt,key_resp_instruction_rsi.stopped,key_resp_instruction_final.started,key_resp_instruction_final.keys,key_resp_instruction_final.rt,key_resp_break.started,key_resp_break.keys,key_resp_break.rt,key_resp_break.stopped,key_resp_end_screen.started,image_end_screen.started,key_resp_end_screen.stopped,image_end_screen.stopped,key_resp_end_screen.keys,participant,session,Alter,Geschlecht (w/m/d/andere),Studiengang,date,expName,psychopyVersion,frameRate,
,,,,0,0,0,0,0,0,0,0,,,,,,,,,1,l,d,169.57874590117717,j,14.368309568264522,0,183.97567710268777,184.99039806524524,1,184.99039806524524,X,l,go,None,0,,,,,,,,,,,,,,,,,,,31,001,20,w,psychologie,2023-01-17_13h31.53.219,00_bat_bachelor,2022.2.4,59.954855841401894,
,,,,0,0,0,0,1,0,1,0,,,,,,,,,,,,,,,1,186.39137871930143,187.39216514315922,1,187.39216514315922,Y,d,go,d,1,0.664582394354511,,,,,,,,,,,,,,,,,,31,001,20,w,psychologie,2023-01-17_13h31.53.219,00_bat_bachelor,2022.2.4,59.954855841401894,
,,,,0,0,0,0,2,0,2,0,,,,,,,,,,,,,,,2,188.75992060120916,189.76036326767644,1,189.76036326767644,X,l,go,l,1,0.3916957387700677,,,,,,,,,,,,,,,,,,31,001,20,w,psychologie,2023-01-17_13h31.53.219,00_bat_bachelor,2022.2.4,59.954855841401894,
,,,,0,0,0,0,3,0,3,0,,,,,,,,,,,,,,,3,190.86153412773274,191.86219449102646,1,191.86219449102646,Y,d,go,d,1,0.33787370420759544,,,,,,,,,,,,,,,,,,31,001,20,w,psychologie,2023-01-17_13h31.53.219,00_bat_bachelor,2022.2.4,59.954855841401894,
,,,,0,0,0,0,4,0,4,0,,,,,,,,,,,,,,,4,192.91302064823685,193.91348707221914,1,193.91348707221914,Y,None,nogo,None,1,,,,,,,,,,,,,,,,,,,31,001,20,w,psychologie,2023-01-17_13h31.53.219,00_bat_bachelor,2022.2.4,59.954855841401894,
,,,,0,0,0,0,5,0,5,0,,,,,,,,,,,,,,,5,195.31459863530472,196.3157045741682,1,196.3157045741682,X,l,go,l,1,0.26777822308940813,,,,,,,,,,,,,,,,,,31,001,20,w,psychologie,2023-01-17_13h31.53.219,00_bat_bachelor,2022.2.4,59.954855841401894,
,,,,0,0,0,0,6,0,6,0,,,,,,,,,,,,,,,6,197.29961052141152,198.30054046033183,1,198.30054046033183,Y,d,go,d,1,0.3636579341837205,,,,,,,,,,,,,,,,,,31,001,20,w,psychologie,2023-01-17_13h31.53.219,00_bat_bachelor,2022.2.4,59.954855841401894,
,,,,0,0,0,0,7,0,7,0,,,,,,,,,,,,,,,7,199.3676386096049,200.368706245441,1,200.368706245441,X,l,go,l,1,0.19858940812991932,,,,,,,,,,,,,,,,,,31,001,20,w,psychologie,2023-01-17_13h31.53.219,00_bat_bachelor,2022.2.4,59.954855841401894,
,,,,0,0,0,0,8,0,8,0,,,,,,,,,,,,,,,8,201.26933029363863,202.27013611141592,1,202.27013611141592,Y,d,go,d,1,0.3299115262343548,,,,,,,,,,,,,,,,,,31,001,20,w,psychologie,2023-01-17_13h31.53.219,00_bat_bachelor,2022.2.4,59.954855841401894,
,,,,0,0,0,0,9,0,9,0,,,,,,,,,,,,,,,9,203.30429803428706,204.30481585219968,1,204.30481585219968,X,l,go,l,1,0.27966233855113387,,,,,,,,,,,,,,,,,,31,001,20,w,psychologie,2023-01-17_13h31.53.219,00_bat_bachelor,2022.2.4,59.954855841401894,
,,,,0,0,0,0,10,0,10,0,,,,,,,,,,,,,,,10,205.28921246581012,206.28962749592029,1,206.28962749592029,X,None,nogo,l,0,0.5170527689042501,,,,,,,,,,,,,,,,,,31,001,20,w,psychologie,2023-01-17_13h31.53.219,00_bat_bachelor,2022.2.4,59.954855841401894,
,,,,0,0,0,0,11,0,11,0,,,,,,,,,,,,,,,11,207.92514767264947,208.9259083995712,1,208.9259083995712,Y,d,go,d,1,0.5853087357827462,,,,,,,,,,,,,,,,,,31,001,20,w,psychologie,2023-01-17_13h31.53.219,00_bat_bachelor,2022.2.4,59.954855841401894,
,,,,0,0,0,0,12,0,12,0,,,,,,,,,,,,,,,12,210.24333660927368,211.2443441239302,1,211.2443441239302,X,l,go,l,1,0.37940144166350365,,,,,,,,,,,,,,,,,,31,001,20,w,psychologie,2023-01-17_13h31.53.219,00_bat_bachelor,2022.2.4,59.954855841401894,
,,,,0,0,0,0,13,0,13,0,,,,,,,,,,,,,,,13,212.32829608325846,213.32929196156329,1,213.32929196156329,Y,d,go,d,1,0.4539686782518402,,,,,,,,,,,,,,,,,,31,001,20,w,psychologie,2023-01-17_13h31.53.219,00_bat_bachelor,2022.2.4,59.954855841401894,
,,,,0,0,0,0,14,0,14,0,,,,,,,,,,,,,,,14,214.513310781389,215.51407247799216,1,215.51407247799216,Y,None,nogo,None,1,,216.31491912005004,,,,,,,,,,,,,,,,,31,001,20,w,psychologie,2023-01-17_13h31.53.219,00_bat_bachelor,2022.2.4,59.954855841401894,
,,,,1,0,1,0,0,0,0,0,,,,,,,,,,,,,,,0,232.29312906996347,232.49311297299573,0.2,232.49311297299573,X,l,go,None,0,,,216.94657505617943,j,15.319986197748221,,,,,,,,,,,,,,31,001,20,w,psychologie,2023-01-17_13h31.53.219,00_bat_bachelor,2022.2.4,59.954855841401894,
,,,,1,0,1,0,1,0,1,0,,,,,,,,,,,,,,,1,233.89435980876442,234.09410662105074,0.2,234.09410662105074,Y,d,go,d,1,0.4740515776211396,,,,,,,,,,,,,,,,,,31,001,20,w,psychologie,2023-01-17_13h31.53.219,00_bat_bachelor,2022.2.4,59.954855841401894,
,,,,1,0,1,0,2,0,2,0,,,,,,,,,,,,,,,2,235.2784003498382,235.4788836466032,0.2,235.4788836466032,X,l,go,l,1,0.25591738033108413,,,,,,,,,,,,,,,,,,31,001,20,w,psychologie,2023-01-17_13h31.53.219,00_bat_bachelor,2022.2.4,59.954855841401894,
,,,,1,0,1,0,3,0,3,0,,,,,,,,,,,,,,,3,236.4467047530925,236.64688501966884,0.2,236.64688501966884,Y,d,go,d,1,0.2731551901670173,,,,,,,,,,,,,,,,,,31,001,20,w,psychologie,2023-01-17_13h31.53.219,00_bat_bachelor,2022.2.4,59.954855841401894,
,,,,1,0,1,0,4,0,4,0,,,,,,,,,,,,,,,4,237.63097666372778,237.8309513546992,0.2,237.8309513546992,X,l,go,l,1,0.36776702309725806,,,,,,,,,,,,,,,,,,31,001,20,w,psychologie,2023-01-17_13h31.53.219,00_bat_bachelor,2022.2.4,59.954855841401894,
,,,,1,0,1,0,5,0,5,0,,,,,,,,,,,,,,,5,238.9319680329645,239.13223896618,0.2,239.13223896618,X,None,nogo,None,1,,239.9325425781426,,,,,,,,,,,,,,,,,31,001,20,w,psychologie,2023-01-17_13h31.53.219,00_bat_bachelor,2022.2.4,59.954855841401894,
,,,,1,0,1,0,6,0,6,0,,,,,,,,,,,,,,,6,240.53299901430728,240.73316328087822,0.2,240.73316328087822,X,None,nogo,l,0,0.41009282070444897,,,,,,,,,,,,,,,,,,31,001,20,w,psychologie,2023-01-17_13h31.53.219,00_bat_bachelor,2022.2.4,59.954855841401894,
,,,,1,0,1,0,7,0,7,0,,,,,,,,,,,,,,,7,242.2843591348501,242.48466788622318,0.2,242.48466788622318,Y,d,go,d,1,0.46631339949090034,,,,,,,,,,,,,,,,,,31,001,20,w,psychologie,2023-01-17_13h31.53.219,00_bat_bachelor,2022.2.4,59.954855841401894,
,,,,1,0,1,0,8,0,8,0,,,,,,,,,,,,,,,8,243.66907264530892,243.86895182111766,0.2,243.86895182111766,X,l,go,l,1,0.5211962820612825,,,,,,,,,,,,,,,,,,31,001,20,w,psychologie,2023-01-17_13h31.53.219,00_bat_bachelor,2022.2.4,59.954855841401894,
,,,,1,0,1,0,9,0,9,0,,,,,,,,,,,,,,,9,245.12000769935548,245.32016614777967,0.2,245.32016614777967,Y,d,go,d,1,0.511288408015389,,,,,,,,,,,,,,,,,,31,001,20,w,psychologie,2023-01-17_13h31.53.219,00_bat_bachelor,2022.2.4,59.954855841401894,
,,,,1,0,1,0,10,0,10,0,,,,,,,,,,,,,,,10,246.53761379991192,246.737868733122,0.2,246.737868733122,X,l,go,l,1,0.35746884625405073,,,,,,,,,,,,,,,,,,31,001,20,w,psychologie,2023-01-17_13h31.53.219,00_bat_bachelor,2022.2.4,59.954855841401894,
,,,,1,0,1,0,11,0,11,0,,,,,,,,,,,,,,,11,247.82207766198553,248.02224920131266,0.2,248.02224920131266,Y,d,go,d,1,0.36940290103666484,,,,,,,,,,,,,,,,,,31,001,20,w,psychologie,2023-01-17_13h31.53.219,00_bat_bachelor,2022.2.4,59.954855841401894,
,,,,1,0,1,0,12,0,12,0,,,,,,,,,,,,,,,12,249.1061851606355,249.30639112414792,0.2,249.30639112414792,X,l,go,l,1,0.3967134333215654,,,,,,,,,,,,,,,,,,31,001,20,w,psychologie,2023-01-17_13h31.53.219,00_bat_bachelor,2022.2.4,59.954855841401894,
,,,,1,0,1,0,13,0,13,0,,,,,,,,,,,,,,,13,250.423913976294,250.62429497000994,0.2,250.62429497000994,X,None,nogo,None,1,,251.42486185458256,,,,,,,,,,,,,,,,,31,001,20,w,psychologie,2023-01-17_13h31.53.219,00_bat_bachelor,2022.2.4,59.954855841401894,
,,,,1,0,1,0,14,0,14,0,,,,,,,,,,,,,,,14,252.02524071501102,252.22542292100843,0.2,252.22542292100843,X,None,nogo,None,1,,253.02555101789767,,,,,,,,,,,,,,,,,31,001,20,w,psychologie,2023-01-17_13h31.53.219,00_bat_bachelor,2022.2.4,59.954855841401894,
,,,,,,,,,,,,,,,,,,,,,,,,,,,,,,,,,,,,,,253.65593422739767,None,,253.65593422739767,253.65593422739767,space,4.242807568516582,,,,,,,,,,31,001,20,w,psychologie,2023-01-17_13h31.53.219,00_bat_bachelor,2022.2.4,59.954855841401894,
,,,,,,,,,,,,0,0,0,0,0,0,0,0,,,,,,,0,,,1,258.9301323975087,X,l,go,l,1,0.6136461765854619,,,,,,,,,,,,,,,,,,31,001,20,w,psychologie,2023-01-17_13h31.53.219,00_bat_bachelor,2022.2.4,59.954855841401894,
,,,,,,,,,,,,0,0,0,0,1,0,1,0,,,,,,,1,,,1,260.6477019889862,Y,d,go,d,1,0.5108932566945441,,,,,,,,,,,,,,,,,,31,001,20,w,psychologie,2023-01-17_13h31.53.219,00_bat_bachelor,2022.2.4,59.954855841401894,
,,,,,,,,,,,,0,0,0,0,2,0,2,0,,,,,,,2,,,1,262.2658117499086,X,l,go,l,1,0.4138804552494548,,,,,,,,,,,,,,,,,,31,001,20,w,psychologie,2023-01-17_13h31.53.219,00_bat_bachelor,2022.2.4,59.954855841401894,
,,,,,,,,,,,,0,0,0,0,3,0,3,0,,,,,,,3,,,1,263.7837305290741,Y,d,go,d,1,0.33551249327138066,,,,,,,,,,,,,,,,,,31,001,20,w,psychologie,2023-01-17_13h31.53.219,00_bat_bachelor,2022.2.4,59.954855841401894,
,,,,,,,,,,,,0,0,0,0,4,0,4,0,,,,,,,4,,,1,265.23448667419143,Y,None,nogo,None,1,,,,,,,,,,,,,,,,,,,31,001,20,w,psychologie,2023-01-17_13h31.53.219,00_bat_bachelor,2022.2.4,59.954855841401894,
,,,,,,,,,,,,0,0,0,0,5,0,5,0,,,,,,,5,,,1,267.0358918613638,X,l,go,l,1,0.21988054929533973,,,,,,,,,,,,,,,,,,31,001,20,w,psychologie,2023-01-17_13h31.53.219,00_bat_bachelor,2022.2.4,59.954855841401894,
,,,,,,,,,,,,0,0,0,0,6,0,6,0,,,,,,,6,,,1,268.3704613961163,Y,d,go,d,1,0.3254921344923787,,,,,,,,,,,,,,,,,,31,001,20,w,psychologie,2023-01-17_13h31.53.219,00_bat_bachelor,2022.2.4,59.954855841401894,
,,,,,,,,,,,,0,0,0,0,7,0,7,0,,,,,,,7,,,1,269.8048403370194,X,l,go,l,1,0.3479178205598146,,,,,,,,,,,,,,,,,,31,001,20,w,psychologie,2023-01-17_13h31.53.219,00_bat_bachelor,2022.2.4,59.954855841401894,
,,,,,,,,,,,,0,0,0,0,8,0,8,0,,,,,,,8,,,1,271.25611381517956,X,None,nogo,None,1,,,,,,,,,,,,,,,,,,,31,001,20,w,psychologie,2023-01-17_13h31.53.219,00_bat_bachelor,2022.2.4,59.954855841401894,
,,,,,,,,,,,,0,0,0,0,9,0,9,0,,,,,,,9,,,1,273.0573798509431,Y,d,go,d,1,0.35771127039333805,,,,,,,,,,,,,,,,,,31,001,20,w,psychologie,2023-01-17_13h31.53.219,00_bat_bachelor,2022.2.4,59.954855841401894,
,,,,,,,,,,,,0,0,0,0,10,0,10,0,,,,,,,10,,,1,274.52525356347905,X,l,go,l,1,0.39571222162339836,,,,,,,,,,,,,,,,,,31,001,20,w,psychologie,2023-01-17_13h31.53.219,00_bat_bachelor,2022.2.4,59.954855841401894,
,,,,,,,,,,,,0,0,0,0,11,0,11,0,,,,,,,11,,,1,276.0264208356384,X,None,nogo,l,0,0.3486678808112629,,,,,,,,,,,,,,,,,,31,001,20,w,psychologie,2023-01-17_13h31.53.219,00_bat_bachelor,2022.2.4,59.954855841401894,
,,,,,,,,,,,,0,0,0,0,12,0,12,0,,,,,,,12,,,1,277.4774480109336,Y,d,go,d,1,0.5145160428364761,,,,,,,,,,,,,,,,,,31,001,20,w,psychologie,2023-01-17_13h31.53.219,00_bat_bachelor,2022.2.4,59.954855841401894,
,,,,,,,,,,,,0,0,0,0,13,0,13,0,,,,,,,13,,,1,279.0952736507752,X,l,go,None,0,,,,,,,,,,,,,,,,,,,31,001,20,w,psychologie,2023-01-17_13h31.53.219,00_bat_bachelor,2022.2.4,59.954855841401894,
,,,,,,,,,,,,0,0,0,0,14,0,14,0,,,,,,,14,,,1,280.89673701976426,Y,d,go,d,1,0.3266135884914547,,,,,,,,,,,,,,,,,,31,001,20,w,psychologie,2023-01-17_13h31.53.219,00_bat_bachelor,2022.2.4,59.954855841401894,
,,,,,,,,,,,,0,0,0,0,15,0,15,0,,,,,,,15,,,1,282.331919354212,X,l,go,l,1,0.6505373102263547,,,,,,,,,,,,,,,,,,31,001,20,w,psychologie,2023-01-17_13h31.53.219,00_bat_bachelor,2022.2.4,59.954855841401894,
,,,,,,,,,,,,0,0,0,0,16,0,16,0,,,,,,,16,,,1,284.0996358304401,Y,d,go,d,1,0.37055053684161976,,,,,,,,,,,,,,,,,,31,001,20,w,psychologie,2023-01-17_13h31.53.219,00_bat_bachelor,2022.2.4,59.954855841401894,
,,,,,,,,,,,,0,0,0,0,17,0,17,0,,,,,,,17,,,1,285.6010600721929,X,l,go,l,1,0.3112429292523302,,,,,,,,,,,,,,,,,,31,001,20,w,psychologie,2023-01-17_13h31.53.219,00_bat_bachelor,2022.2.4,59.954855841401894,
,,,,,,,,,,,,0,0,0,0,18,0,18,0,,,,,,,18,,,1,287.0185202334542,Y,d,go,d,1,0.3959759791032411,,,,,,,,,,,,,,,,,,31,001,20,w,psychologie,2023-01-17_13h31.53.219,00_bat_bachelor,2022.2.4,59.954855841401894,
,,,,,,,,,,,,0,0,0,0,19,0,19,0,,,,,,,19,,,1,288.53661113377893,Y,None,nogo,None,1,,289.3369748669211,,,,,,,,,,,,,,,,,31,001,20,w,psychologie,2023-01-17_13h31.53.219,00_bat_bachelor,2022.2.4,59.954855841401894,
,,,,,,,,,,,,0,0,0,0,20,0,20,0,,,,,,,20,,,1,290.3376963210758,X,l,go,l,1,0.21290115878218785,,,,,,,,,,,,,,,,,,31,001,20,w,psychologie,2023-01-17_13h31.53.219,00_bat_bachelor,2022.2.4,59.954855841401894,
,,,,,,,,,,,,0,0,0,0,21,0,21,0,,,,,,,21,,,1,291.68839384801686,Y,d,go,d,1,0.23921096418052912,,,,,,,,,,,,,,,,,,31,001,20,w,psychologie,2023-01-17_13h31.53.219,00_bat_bachelor,2022.2.4,59.954855841401894,
,,,,,,,,,,,,0,0,0,0,22,0,22,0,,,,,,,22,,,1,293.0394957383978,Y,None,nogo,None,1,,293.84007862297585,,,,,,,,,,,,,,,,,31,001,20,w,psychologie,2023-01-17_13h31.53.219,00_bat_bachelor,2022.2.4,59.954855841401894,
,,,,,,,,,,,,0,0,0,0,23,0,23,0,,,,,,,23,,,1,294.8409915922093,X,l,go,l,1,0.27047446416690946,,,,,,,,,,,,,,,,,,31,001,20,w,psychologie,2023-01-17_13h31.53.219,00_bat_bachelor,2022.2.4,59.954855841401894,
,,,,,,,,,,,,0,0,0,0,24,0,24,0,,,,,,,24,,,1,296.22540013311664,Y,d,go,d,1,0.29431105870753527,,,,,,,,,,,,,,,,,,31,001,20,w,psychologie,2023-01-17_13h31.53.219,00_bat_bachelor,2022.2.4,59.954855841401894,
,,,,,,,,,,,,0,0,0,0,25,0,25,0,,,,,,,25,,,1,297.62608890852425,X,l,go,l,1,0.44641813641646877,,,,,,,,,,,,,,,,,,31,001,20,w,psychologie,2023-01-17_13h31.53.219,00_bat_bachelor,2022.2.4,59.954855841401894,
,,,,,,,,,,,,0,0,0,0,26,0,26,0,,,,,,,26,,,1,299.17718924739165,Y,d,go,d,1,0.23914453998440877,,,,,,,,,,,,,,,,,,31,001,20,w,psychologie,2023-01-17_13h31.53.219,00_bat_bachelor,2022.2.4,59.954855841401894,
,,,,,,,,,,,,0,0,0,0,27,0,27,0,,,,,,,27,,,1,300.52843853167724,X,l,go,l,1,0.2636754371924326,,,,,,,,,,,,,,,,,,31,001,20,w,psychologie,2023-01-17_13h31.53.219,00_bat_bachelor,2022.2.4,59.954855841401894,
,,,,,,,,,,,,0,0,0,0,28,0,28,0,,,,,,,28,,,1,301.8960907170549,X,None,nogo,None,1,,,,,,,,,,,,,,,,,,,31,001,20,w,psychologie,2023-01-17_13h31.53.219,00_bat_bachelor,2022.2.4,59.954855841401894,
,,,,,,,,,,,,0,0,0,0,29,0,29,0,,,,,,,29,,,1,303.6979376010131,Y,d,go,d,1,0.3573064220836386,,,,,,,,,,,,,,,,,,31,001,20,w,psychologie,2023-01-17_13h31.53.219,00_bat_bachelor,2022.2.4,59.954855841401894,
,,,,,,,,,,,,0,0,0,0,30,0,30,0,,,,,,,30,,,1,305.165933495271,X,l,go,l,1,0.3614630260854028,,,,,,,,,,,,,,,,,,31,001,20,w,psychologie,2023-01-17_13h31.53.219,00_bat_bachelor,2022.2.4,59.954855841401894,
,,,,,,,,,,,,0,0,0,0,31,0,31,0,,,,,,,31,,,1,306.65036041190615,Y,d,go,d,1,0.3170038961688988,,,,,,,,,,,,,,,,,,31,001,20,w,psychologie,2023-01-17_13h31.53.219,00_bat_bachelor,2022.2.4,59.954855841401894,
,,,,,,,,,,,,0,0,0,0,32,0,32,0,,,,,,,32,,,1,308.0845827468438,Y,None,nogo,None,1,,308.88539302523714,,,,,,,,,,,,,,,,,31,001,20,w,psychologie,2023-01-17_13h31.53.219,00_bat_bachelor,2022.2.4,59.954855841401894,
,,,,,,,,,,,,0,0,0,0,33,0,33,0,,,,,,,33,,,1,309.8861445400398,X,l,go,l,1,0.15229852148331702,,,,,,,,,,,,,,,,,,31,001,20,w,psychologie,2023-01-17_13h31.53.219,00_bat_bachelor,2022.2.4,59.954855841401894,
,,,,,,,,,,,,0,0,0,0,34,0,34,0,,,,,,,34,,,1,311.1705715536373,Y,d,go,d,1,0.19600904575781897,,,,,,,,,,,,,,,,,,31,001,20,w,psychologie,2023-01-17_13h31.53.219,00_bat_bachelor,2022.2.4,59.954855841401894,
,,,,,,,,,,,,0,0,0,0,35,0,35,0,,,,,,,35,,,1,312.4879808542901,Y,None,nogo,None,1,,313.28890022356063,,,,,,,,,,,,,,,,,31,001,20,w,psychologie,2023-01-17_13h31.53.219,00_bat_bachelor,2022.2.4,59.954855841401894,
,,,,,,,,,,,,0,0,0,0,36,0,36,0,,,,,,,36,,,1,314.28929779911414,Y,None,nogo,l,0,0.1826694158371538,,,,,,,,,,,,,,,,,,31,001,20,w,psychologie,2023-01-17_13h31.53.219,00_bat_bachelor,2022.2.4,59.954855841401894,
,,,,,,,,,,,,0,0,0,0,37,0,37,0,,,,,,,37,,,1,315.573801903578,X,l,go,l,1,0.24085653916699812,,,,,,,,,,,,,,,,,,31,001,20,w,psychologie,2023-01-17_13h31.53.219,00_bat_bachelor,2022.2.4,59.954855841401894,
,,,,,,,,,,,,0,0,0,0,38,0,38,0,,,,,,,38,,,1,316.94153117982205,Y,d,go,d,1,0.36183296533999965,,,,,,,,,,,,,,,,,,31,001,20,w,psychologie,2023-01-17_13h31.53.219,00_bat_bachelor,2022.2.4,59.954855841401894,
,,,,,,,,,,,,0,0,0,0,39,0,39,0,,,,,,,39,,,1,318.42602597526275,Y,None,nogo,None,1,,319.2267611021525,,,,,,,,,,,,,,,,,31,001,20,w,psychologie,2023-01-17_13h31.53.219,00_bat_bachelor,2022.2.4,59.954855841401894,
,,,,,,,,,,,,0,0,0,0,40,0,40,0,,,,,,,40,,,1,320.22712134441826,X,l,go,l,1,0.22827278764452785,,,,,,,,,,,,,,,,,,31,001,20,w,psychologie,2023-01-17_13h31.53.219,00_bat_bachelor,2022.2.4,59.954855841401894,
,,,,,,,,,,,,0,0,0,0,41,0,41,0,,,,,,,41,,,1,321.56173257611226,Y,d,go,d,1,0.26865531358635053,,,,,,,,,,,,,,,,,,31,001,20,w,psychologie,2023-01-17_13h31.53.219,00_bat_bachelor,2022.2.4,59.954855841401894,
,,,,,,,,,,,,0,0,0,0,42,0,42,0,,,,,,,42,,,1,322.9627951695584,Y,None,nogo,None,1,,323.76319478149526,,,,,,,,,,,,,,,,,31,001,20,w,psychologie,2023-01-17_13h31.53.219,00_bat_bachelor,2022.2.4,59.954855841401894,
,,,,,,,,,,,,0,0,0,0,43,0,43,0,,,,,,,43,,,1,324.7641693264595,X,l,go,l,1,0.2184536408749409,,,,,,,,,,,,,,,,,,31,001,20,w,psychologie,2023-01-17_13h31.53.219,00_bat_bachelor,2022.2.4,59.954855841401894,
,,,,,,,,,,,,0,0,0,0,44,0,44,0,,,,,,,44,,,1,326.1151907320018,Y,d,go,d,1,0.25939228769857436,,,,,,,,,,,,,,,,,,31,001,20,w,psychologie,2023-01-17_13h31.53.219,00_bat_bachelor,2022.2.4,59.954855841401894,
,,,,,,,,,,,,0,0,0,0,45,0,45,0,,,,,,,45,,,1,327.49936606088886,X,l,go,None,0,,328.3003809452639,,,,,,,,,,,,,,,,,31,001,20,w,psychologie,2023-01-17_13h31.53.219,00_bat_bachelor,2022.2.4,59.954855841401894,
,,,,,,,,,,,,0,0,0,0,46,0,46,0,,,,,,,46,,,1,329.30071791476803,Y,d,go,d,1,0.20955716038588434,,,,,,,,,,,,,,,,,,31,001,20,w,psychologie,2023-01-17_13h31.53.219,00_bat_bachelor,2022.2.4,59.954855841401894,
,,,,,,,,,,,,0,0,0,0,47,0,47,0,,,,,,,47,,,1,330.63557690393645,Y,None,nogo,None,1,,331.4360982127837,,,,,,,,,,,,,,,,,31,001,20,w,psychologie,2023-01-17_13h31.53.219,00_bat_bachelor,2022.2.4,59.954855841401894,
,,,,,,,,,,,,0,0,0,0,48,0,48,0,,,,,,,48,,,1,332.43679445487214,X,l,go,l,1,0.1780682059470564,,,,,,,,,,,,,,,,,,31,001,20,w,psychologie,2023-01-17_13h31.53.219,00_bat_bachelor,2022.2.4,59.954855841401894,
,,,,,,,,,,,,0,0,0,0,49,0,49,0,,,,,,,49,,,1,333.73744255152997,Y,d,go,d,1,0.2537709571188316,,,,,,,,,,,,,,,,,,31,001,20,w,psychologie,2023-01-17_13h31.53.219,00_bat_bachelor,2022.2.4,59.954855841401894,
,,,,,,,,,,,,0,0,0,0,50,0,50,0,,,,,,,50,,,1,335.1221832134761,Y,None,nogo,None,1,,335.92286015860736,,,,,,,,,,,,,,,,,31,001,20,w,psychologie,2023-01-17_13h31.53.219,00_bat_bachelor,2022.2.4,59.954855841401894,
,,,,,,,,,,,,0,0,0,0,51,0,51,0,,,,,,,51,,,1,336.9234400371206,X,l,go,l,1,0.2201792158302851,,,,,,,,,,,,,,,,,,31,001,20,w,psychologie,2023-01-17_13h31.53.219,00_bat_bachelor,2022.2.4,59.954855841401894,
,,,,,,,,,,,,0,0,0,0,52,0,52,0,,,,,,,52,,,1,338.2575766023947,Y,d,go,d,1,0.34212582337204367,,,,,,,,,,,,,,,,,,31,001,20,w,psychologie,2023-01-17_13h31.53.219,00_bat_bachelor,2022.2.4,59.954855841401894,
,,,,,,,,,,,,0,0,0,0,53,0,53,0,,,,,,,53,,,1,339.70888159569586,X,l,go,l,1,0.36247199529316276,,,,,,,,,,,,,,,,,,31,001,20,w,psychologie,2023-01-17_13h31.53.219,00_bat_bachelor,2022.2.4,59.954855841401894,
,,,,,,,,,,,,0,0,0,0,54,0,54,0,,,,,,,54,,,1,341.1764513083617,X,None,nogo,d,0,0.25436295685358346,,,,,,,,,,,,,,,,,,31,001,20,w,psychologie,2023-01-17_13h31.53.219,00_bat_bachelor,2022.2.4,59.954855841401894,
,,,,,,,,,,,,0,0,0,0,55,0,55,0,,,,,,,55,,,1,342.54437646333827,Y,d,go,d,1,0.2794354295474477,,,,,,,,,,,,,,,,,,31,001,20,w,psychologie,2023-01-17_13h31.53.219,00_bat_bachelor,2022.2.4,59.954855841401894,
,,,,,,,,,,,,0,0,0,0,56,0,56,0,,,,,,,56,,,1,343.9455219657975,X,l,go,l,1,0.397819856996648,,,,,,,,,,,,,,,,,,31,001,20,w,psychologie,2023-01-17_13h31.53.219,00_bat_bachelor,2022.2.4,59.954855841401894,
,,,,,,,,,,,,0,0,0,0,57,0,57,0,,,,,,,57,,,1,345.4466014804202,Y,d,go,d,1,0.3682504167663865,,,,,,,,,,,,,,,,,,31,001,20,w,psychologie,2023-01-17_13h31.53.219,00_bat_bachelor,2022.2.4,59.954855841401894,
,,,,,,,,,,,,0,0,0,0,58,0,58,0,,,,,,,58,,,1,346.9310230637202,Y,None,nogo,None,1,,347.73195358447265,,,,,,,,,,,,,,,,,31,001,20,w,psychologie,2023-01-17_13h31.53.219,00_bat_bachelor,2022.2.4,59.954855841401894,
,,,,,,,,,,,,0,0,0,0,59,0,59,0,,,,,,,59,,,1,348.7324568569893,X,l,go,l,1,0.1876977770589292,,,,,,,,,,,,,,,,,,31,001,20,w,psychologie,2023-01-17_13h31.53.219,00_bat_bachelor,2022.2.4,59.954855841401894,
,,,,,,,,,,,,0,0,0,0,60,0,60,0,,,,,,,60,,,1,350.0334191353177,Y,d,go,d,1,0.24578502163058147,,,,,,,,,,,,,,,,,,31,001,20,w,psychologie,2023-01-17_13h31.53.219,00_bat_bachelor,2022.2.4,59.954855841401894,
,,,,,,,,,,,,0,0,0,0,61,0,61,0,,,,,,,61,,,1,351.40122210851405,Y,None,nogo,None,1,,352.2017317809514,,,,,,,,,,,,,,,,,31,001,20,w,psychologie,2023-01-17_13h31.53.219,00_bat_bachelor,2022.2.4,59.954855841401894,
,,,,,,,,,,,,0,0,0,0,62,0,62,0,,,,,,,62,,,1,353.20233250793535,X,l,go,l,1,0.1815571739571169,,,,,,,,,,,,,,,,,,31,001,20,w,psychologie,2023-01-17_13h31.53.219,00_bat_bachelor,2022.2.4,59.954855841401894,
,,,,,,,,,,,,0,0,0,0,63,0,63,0,,,,,,,63,,,1,354.48659176408546,Y,d,go,d,1,0.2401312062283978,,,,,,,,,,,,,,,,,,31,001,20,w,psychologie,2023-01-17_13h31.53.219,00_bat_bachelor,2022.2.4,59.954855841401894,
,,,,,,,,,,,,0,0,0,0,64,0,64,0,,,,,,,64,,,1,355.85437243420165,Y,None,nogo,None,1,,356.65498440968804,,,,,,,,,,,,,,,,,31,001,20,w,psychologie,2023-01-17_13h31.53.219,00_bat_bachelor,2022.2.4,59.954855841401894,
,,,,,,,,,,,,0,0,0,0,65,0,65,0,,,,,,,65,,,1,357.65587653045077,X,l,go,l,1,0.1914839570526965,,,,,,,,,,,,,,,,,,31,001,20,w,psychologie,2023-01-17_13h31.53.219,00_bat_bachelor,2022.2.4,59.954855841401894,
,,,,,,,,,,,,0,0,0,0,66,0,66,0,,,,,,,66,,,1,358.9735689825029,Y,d,go,d,1,0.20187231566524133,,,,,,,,,,,,,,,,,,31,001,20,w,psychologie,2023-01-17_13h31.53.219,00_bat_bachelor,2022.2.4,59.954855841401894,
,,,,,,,,,,,,0,0,0,0,67,0,67,0,,,,,,,67,,,1,360.30800033552805,Y,None,nogo,None,1,,361.1083761898917,,,,,,,,,,,,,,,,,31,001,20,w,psychologie,2023-01-17_13h31.53.219,00_bat_bachelor,2022.2.4,59.954855841401894,
,,,,,,,,,,,,0,0,0,0,68,0,68,0,,,,,,,68,,,1,362.10936915909406,Y,None,nogo,l,0,0.1692522102384828,,,,,,,,,,,,,,,,,,31,001,20,w,psychologie,2023-01-17_13h31.53.219,00_bat_bachelor,2022.2.4,59.954855841401894,
,,,,,,,,,,,,0,0,0,0,69,0,69,0,,,,,,,69,,,1,363.41028974048095,X,l,go,l,1,0.18025826546363533,,,,,,,,,,,,,,,,,,31,001,20,w,psychologie,2023-01-17_13h31.53.219,00_bat_bachelor,2022.2.4,59.954855841401894,
,,,,,,,,,,,,0,0,0,0,70,0,70,0,,,,,,,70,,,1,364.7110973522067,Y,d,go,d,1,0.3678392654983327,,,,,,,,,,,,,,,,,,31,001,20,w,psychologie,2023-01-17_13h31.53.219,00_bat_bachelor,2022.2.4,59.954855841401894,
,,,,,,,,,,,,0,0,0,0,71,0,71,0,,,,,,,71,,,1,366.2125317757018,Y,None,nogo,None,1,,367.013021569408,,,,,,,,,,,,,,,,,31,001,20,w,psychologie,2023-01-17_13h31.53.219,00_bat_bachelor,2022.2.4,59.954855841401894,
,,,,,,,,,,,,0,0,0,0,72,0,72,0,,,,,,,72,,,1,368.013777932676,X,l,go,l,1,0.2979057236225344,,,,,,,,,,,,,,,,,,31,001,20,w,psychologie,2023-01-17_13h31.53.219,00_bat_bachelor,2022.2.4,59.954855841401894,
,,,,,,,,,,,,0,0,0,0,73,0,73,0,,,,,,,73,,,1,369.41464464744786,Y,d,go,d,1,0.495929385186173,,,,,,,,,,,,,,,,,,31,001,20,w,psychologie,2023-01-17_13h31.53.219,00_bat_bachelor,2022.2.4,59.954855841401894,
,,,,,,,,,,,,0,0,0,0,74,0,74,0,,,,,,,74,,,1,371.0325226509012,Y,None,nogo,None,1,,371.83334747474873,,,,,,,,,,,,,,,,,31,001,20,w,psychologie,2023-01-17_13h31.53.219,00_bat_bachelor,2022.2.4,59.954855841401894,
,,,,,,,,,,,,0,0,0,0,75,0,75,0,,,,,,,75,,,1,372.8340548683191,X,l,go,l,1,0.38888167950790375,,,,,,,,,,,,,,,,,,31,001,20,w,psychologie,2023-01-17_13h31.53.219,00_bat_bachelor,2022.2.4,59.954855841401894,
,,,,,,,,,,,,0,0,0,0,76,0,76,0,,,,,,,76,,,1,374.3517331627663,Y,d,go,d,1,0.19899425643961877,,,,,,,,,,,,,,,,,,31,001,20,w,psychologie,2023-01-17_13h31.53.219,00_bat_bachelor,2022.2.4,59.954855841401894,
,,,,,,,,,,,,0,0,0,0,77,0,77,0,,,,,,,77,,,1,375.6694188269321,Y,None,nogo,None,1,,376.4703604992246,,,,,,,,,,,,,,,,,31,001,20,w,psychologie,2023-01-17_13h31.53.219,00_bat_bachelor,2022.2.4,59.954855841401894,
,,,,,,,,,,,,0,0,0,0,78,0,78,0,,,,,,,78,,,1,377.4709922564798,X,l,go,l,1,0.3115498381666839,,,,,,,,,,,,,,,,,,31,001,20,w,psychologie,2023-01-17_13h31.53.219,00_bat_bachelor,2022.2.4,59.954855841401894,
,,,,,,,,,,,,0,0,0,0,79,0,79,0,,,,,,,79,,,1,378.9054133791942,Y,d,go,d,1,0.28513142676092684,,,,,,,,,,,,,,,,,,31,001,20,w,psychologie,2023-01-17_13h31.53.219,00_bat_bachelor,2022.2.4,59.954855841401894,
,,,,,,,,,,,,0,0,0,0,80,0,80,0,,,,,,,80,,,1,380.3231799645,Y,None,nogo,None,1,,381.12388260656735,,,,,,,,,,,,,,,,,31,001,20,w,psychologie,2023-01-17_13h31.53.219,00_bat_bachelor,2022.2.4,59.954855841401894,
,,,,,,,,,,,,0,0,0,0,81,0,81,0,,,,,,,81,,,1,382.1245371517143,X,l,go,l,1,0.2827236703597009,,,,,,,,,,,,,,,,,,31,001,20,w,psychologie,2023-01-17_13h31.53.219,00_bat_bachelor,2022.2.4,59.954855841401894,
,,,,,,,,,,,,0,0,0,0,82,0,82,0,,,,,,,82,,,1,383.5253936846275,Y,d,go,d,1,0.20898455462884158,,,,,,,,,,,,,,,,,,31,001,20,w,psychologie,2023-01-17_13h31.53.219,00_bat_bachelor,2022.2.4,59.954855841401894,
,,,,,,,,,,,,0,0,0,0,83,0,83,0,,,,,,,83,,,1,384.8599675830337,X,l,go,l,1,0.3950125856208615,,,,,,,,,,,,,,,,,,31,001,20,w,psychologie,2023-01-17_13h31.53.219,00_bat_bachelor,2022.2.4,59.954855841401894,
,,,,,,,,,,,,0,0,0,0,84,0,84,0,,,,,,,84,,,1,386.39446526329266,Y,d,go,d,1,0.3814416831010021,,,,,,,,,,,,,,,,,,31,001,20,w,psychologie,2023-01-17_13h31.53.219,00_bat_bachelor,2022.2.4,59.954855841401894,
,,,,,,,,,,,,0,0,0,0,85,0,85,0,,,,,,,85,,,1,387.87894163443707,X,l,go,l,1,0.43150662851985544,,,,,,,,,,,,,,,,,,31,001,20,w,psychologie,2023-01-17_13h31.53.219,00_bat_bachelor,2022.2.4,59.954855841401894,
,,,,,,,,,,,,0,0,0,0,86,0,86,0,,,,,,,86,,,1,389.429909124854,X,None,nogo,None,1,,390.23051431245403,,,,,,,,,,,,,,,,,31,001,20,w,psychologie,2023-01-17_13h31.53.219,00_bat_bachelor,2022.2.4,59.954855841401894,
,,,,,,,,,,,,0,0,0,0,87,0,87,0,,,,,,,87,,,1,391.23147188773146,Y,d,go,d,1,0.263675922062248,,,,,,,,,,,,,,,,,,31,001,20,w,psychologie,2023-01-17_13h31.53.219,00_bat_bachelor,2022.2.4,59.954855841401894,
,,,,,,,,,,,,0,0,0,0,88,0,88,0,,,,,,,88,,,1,392.61593764071586,X,l,go,l,1,0.3036152966087684,,,,,,,,,,,,,,,,,,31,001,20,w,psychologie,2023-01-17_13h31.53.219,00_bat_bachelor,2022.2.4,59.954855841401894,
,,,,,,,,,,,,0,0,0,0,89,0,89,0,,,,,,,89,,,1,394.0336819230579,X,None,nogo,None,1,,394.8341712318943,,,,,,,,,,,,,,,,,31,001,20,w,psychologie,2023-01-17_13h31.53.219,00_bat_bachelor,2022.2.4,59.954855841401894,
,,,,,,,,,,,,0,0,0,0,90,0,90,0,,,,,,,90,,,1,395.8349731708877,X,None,nogo,None,1,,396.63576260081027,,,,,,,,,,,,,,,,,31,001,20,w,psychologie,2023-01-17_13h31.53.219,00_bat_bachelor,2022.2.4,59.954855841401894,
,,,,,,,,,,,,0,0,0,0,91,0,91,0,,,,,,,91,,,1,397.63635120663093,Y,d,go,d,1,0.25906259095063433,,,,,,,,,,,,,,,,,,31,001,20,w,psychologie,2023-01-17_13h31.53.219,00_bat_bachelor,2022.2.4,59.954855841401894,
,,,,,,,,,,,,0,0,0,0,92,0,92,0,,,,,,,92,,,1,399.00383902841713,X,l,go,l,1,0.2681457380531356,,,,,,,,,,,,,,,,,,31,001,20,w,psychologie,2023-01-17_13h31.53.219,00_bat_bachelor,2022.2.4,59.954855841401894,
,,,,,,,,,,,,0,0,0,0,93,0,93,0,,,,,,,93,,,1,400.3882344784215,X,None,nogo,None,1,,401.18909178709146,,,,,,,,,,,,,,,,,31,001,20,w,psychologie,2023-01-17_13h31.53.219,00_bat_bachelor,2022.2.4,59.954855841401894,
,,,,,,,,,,,,0,0,0,0,94,0,94,0,,,,,,,94,,,1,402.189637726231,Y,d,go,d,1,0.29796778422314674,,,,,,,,,,,,,,,,,,31,001,20,w,psychologie,2023-01-17_13h31.53.219,00_bat_bachelor,2022.2.4,59.954855841401894,
,,,,,,,,,,,,0,0,0,0,95,0,95,0,,,,,,,95,,,1,403.60737182671437,X,l,go,l,1,0.27208706946112216,,,,,,,,,,,,,,,,,,31,001,20,w,psychologie,2023-01-17_13h31.53.219,00_bat_bachelor,2022.2.4,59.954855841401894,
,,,,,,,,,,,,0,0,0,0,96,0,96,0,,,,,,,96,,,1,404.991714913107,X,None,nogo,None,1,,405.7923899188172,,,,,,,,,,,,,,,,,31,001,20,w,psychologie,2023-01-17_13h31.53.219,00_bat_bachelor,2022.2.4,59.954855841401894,
,,,,,,,,,,,,0,0,0,0,97,0,97,0,,,,,,,97,,,1,406.79314288817113,Y,d,go,d,1,0.3817253193119541,,,,,,,,,,,,,,,,,,31,001,20,w,psychologie,2023-01-17_13h31.53.219,00_bat_bachelor,2022.2.4,59.954855841401894,
,,,,,,,,,,,,0,0,0,0,98,0,98,0,,,,,,,98,,,1,408.29447840264766,X,l,go,l,1,0.2887416068697348,,,,,,,,,,,,,,,,,,31,001,20,w,psychologie,2023-01-17_13h31.53.219,00_bat_bachelor,2022.2.4,59.954855841401894,
,,,,,,,,,,,,0,0,0,0,99,0,99,0,,,,,,,99,,,1,409.71221056376817,Y,d,go,d,1,0.37464605004061013,,,,,,,,,,,,,,,,,,31,001,20,w,psychologie,2023-01-17_13h31.53.219,00_bat_bachelor,2022.2.4,59.954855841401894,
,,,,,,,,,,,,0,0,0,0,100,0,100,0,,,,,,,100,,,1,411.1966529955389,Y,None,nogo,None,1,,411.997285819496,,,,,,,,,,,,,,,,,31,001,20,w,psychologie,2023-01-17_13h31.53.219,00_bat_bachelor,2022.2.4,59.954855841401894,
,,,,,,,,,,,,0,0,0,0,101,0,101,0,,,,,,,101,,,1,412.9978356374195,X,l,go,l,1,0.24152805394260213,,,,,,,,,,,,,,,,,,31,001,20,w,psychologie,2023-01-17_13h31.53.219,00_bat_bachelor,2022.2.4,59.954855841401894,
,,,,,,,,,,,,0,0,0,0,102,0,102,0,,,,,,,102,,,1,414.3658412771765,Y,d,go,d,1,0.2656453756499104,,,,,,,,,,,,,,,,,,31,001,20,w,psychologie,2023-01-17_13h31.53.219,00_bat_bachelor,2022.2.4,59.954855841401894,
,,,,,,,,,,,,0,0,0,0,103,0,103,0,,,,,,,103,,,1,415.73326946265297,Y,None,nogo,None,1,,416.5339371956652,,,,,,,,,,,,,,,,,31,001,20,w,psychologie,2023-01-17_13h31.53.219,00_bat_bachelor,2022.2.4,59.954855841401894,
,,,,,,,,,,,,0,0,0,0,104,0,104,0,,,,,,,104,,,1,417.5348438618821,X,l,go,l,1,0.23287739150691777,,,,,,,,,,,,,,,,,,31,001,20,w,psychologie,2023-01-17_13h31.53.219,00_bat_bachelor,2022.2.4,59.954855841401894,
,,,,,,,,,,,,0,0,0,0,105,0,105,0,,,,,,,105,,,1,418.86897509382106,Y,d,go,d,1,0.24112902383785695,,,,,,,,,,,,,,,,,,31,001,20,w,psychologie,2023-01-17_13h31.53.219,00_bat_bachelor,2022.2.4,59.954855841401894,
,,,,,,,,,,,,0,0,0,0,106,0,106,0,,,,,,,106,,,1,420.23671261250274,X,l,go,l,1,0.2657777391723357,,,,,,,,,,,,,,,,,,31,001,20,w,psychologie,2023-01-17_13h31.53.219,00_bat_bachelor,2022.2.4,59.954855841401894,
,,,,,,,,,,,,0,0,0,0,107,0,107,0,,,,,,,107,,,1,421.62133254721994,Y,d,go,d,1,0.2583023488987237,,,,,,,,,,,,,,,,,,31,001,20,w,psychologie,2023-01-17_13h31.53.219,00_bat_bachelor,2022.2.4,59.954855841401894,
,,,,,,,,,,,,0,0,0,0,108,0,108,0,,,,,,,108,,,1,422.98904776287964,X,l,go,l,1,0.23390090616885573,,,,,,,,,,,,,,,,,,31,001,20,w,psychologie,2023-01-17_13h31.53.219,00_bat_bachelor,2022.2.4,59.954855841401894,
,,,,,,,,,,,,0,0,0,0,109,0,109,0,,,,,,,109,,,1,424.3564075847389,X,None,nogo,d,0,0.21203134104143828,,,,,,,,,,,,,,,,,,31,001,20,w,psychologie,2023-01-17_13h31.53.219,00_bat_bachelor,2022.2.4,59.954855841401894,
,,,,,,,,,,,,0,0,0,0,110,0,110,0,,,,,,,110,,,1,425.6741179761593,Y,d,go,d,1,0.22104951849905774,,,,,,,,,,,,,,,,,,31,001,20,w,psychologie,2023-01-17_13h31.53.219,00_bat_bachelor,2022.2.4,59.954855841401894,
,,,,,,,,,,,,0,0,0,0,111,0,111,0,,,,,,,111,,,1,427.00854545040056,X,l,go,l,1,0.5344496089383028,,,,,,,,,,,,,,,,,,31,001,20,w,psychologie,2023-01-17_13h31.53.219,00_bat_bachelor,2022.2.4,59.954855841401894,
,,,,,,,,,,,,0,0,0,0,112,0,112,0,,,,,,,112,,,1,428.6595444075065,Y,d,go,d,1,0.3725985359051265,,,,,,,,,,,,,,,,,,31,001,20,w,psychologie,2023-01-17_13h31.53.219,00_bat_bachelor,2022.2.4,59.954855841401894,
,,,,,,,,,,,,0,0,0,0,113,0,113,0,,,,,,,113,,,1,430.1439756877371,X,l,go,l,1,0.3763279886334203,,,,,,,,,,,,,,,,,,31,001,20,w,psychologie,2023-01-17_13h31.53.219,00_bat_bachelor,2022.2.4,59.954855841401894,
,,,,,,,,,,,,0,0,0,0,114,0,114,0,,,,,,,114,,,1,431.6284903619089,Y,d,go,d,1,0.3149268062552437,,,,,,,,,,,,,,,,,,31,001,20,w,psychologie,2023-01-17_13h31.53.219,00_bat_bachelor,2022.2.4,59.954855841401894,
,,,,,,,,,,,,0,0,0,0,115,0,115,0,,,,,,,115,,,1,433.0461444624816,X,l,go,l,1,0.4179090593243018,,,,,,,,,,,,,,,,,,31,001,20,w,psychologie,2023-01-17_13h31.53.219,00_bat_bachelor,2022.2.4,59.954855841401894,
,,,,,,,,,,,,0,0,0,0,116,0,116,0,,,,,,,116,,,1,434.58066202147165,X,None,nogo,None,1,,435.3814349665772,,,,,,,,,,,,,,,,,31,001,20,w,psychologie,2023-01-17_13h31.53.219,00_bat_bachelor,2022.2.4,59.954855841401894,
,,,,,,,,,,,,0,0,0,0,117,0,117,0,,,,,,,117,,,1,436.38222672377015,X,None,nogo,d,0,0.3128288678708486,,,,,,,,,,,,,,,,,,31,001,20,w,psychologie,2023-01-17_13h31.53.219,00_bat_bachelor,2022.2.4,59.954855841401894,
,,,,,,,,,,,,0,0,0,0,118,0,118,0,,,,,,,118,,,1,437.79979985463433,Y,d,go,d,1,0.19086916948435828,,,,,,,,,,,,,,,,,,31,001,20,w,psychologie,2023-01-17_13h31.53.219,00_bat_bachelor,2022.2.4,59.954855841401894,
,,,,,,,,,,,,0,0,0,0,119,0,119,0,,,,,,,119,,,1,439.10112625401234,X,l,go,l,1,0.5070435616071336,,,,,,,,,,,,,,,,,,31,001,20,w,psychologie,2023-01-17_13h31.53.219,00_bat_bachelor,2022.2.4,59.954855841401894,
,,,,,,,,,,,,0,0,0,0,120,0,120,0,,,,,,,120,,,1,440.71888304536697,X,None,nogo,None,1,,441.5196196268662,,,,,,,,,,,,,,,,,31,001,20,w,psychologie,2023-01-17_13h31.53.219,00_bat_bachelor,2022.2.4,59.954855841401894,
,,,,,,,,,,,,0,0,0,0,121,0,121,0,,,,,,,121,,,1,442.5200826569344,Y,d,go,d,1,0.30292729689972475,,,,,,,,,,,,,,,,,,31,001,20,w,psychologie,2023-01-17_13h31.53.219,00_bat_bachelor,2022.2.4,59.954855841401894,
,,,,,,,,,,,,0,0,0,0,122,0,122,0,,,,,,,122,,,1,443.9378409998026,X,l,go,l,1,0.2941762708942406,,,,,,,,,,,,,,,,,,31,001,20,w,psychologie,2023-01-17_13h31.53.219,00_bat_bachelor,2022.2.4,59.954855841401894,
,,,,,,,,,,,,0,0,0,0,123,0,123,0,,,,,,,123,,,1,445.33890941145364,X,None,nogo,None,1,,446.13977641705424,,,,,,,,,,,,,,,,,31,001,20,w,psychologie,2023-01-17_13h31.53.219,00_bat_bachelor,2022.2.4,59.954855841401894,
,,,,,,,,,,,,0,0,0,0,124,0,124,0,,,,,,,124,,,1,447.14052211365197,Y,d,go,d,1,0.3070242646499537,,,,,,,,,,,,,,,,,,31,001,20,w,psychologie,2023-01-17_13h31.53.219,00_bat_bachelor,2022.2.4,59.954855841401894,
,,,,,,,,,,,,0,0,0,0,125,0,125,0,,,,,,,125,,,1,448.5581543960143,X,l,go,l,1,0.2815993073163554,,,,,,,,,,,,,,,,,,31,001,20,w,psychologie,2023-01-17_13h31.53.219,00_bat_bachelor,2022.2.4,59.954855841401894,
,,,,,,,,,,,,0,0,0,0,126,0,126,0,,,,,,,126,,,1,449.94257311872207,Y,d,go,d,1,0.32050401566084474,,,,,,,,,,,,,,,,,,31,001,20,w,psychologie,2023-01-17_13h31.53.219,00_bat_bachelor,2022.2.4,59.954855841401894,
,,,,,,,,,,,,0,0,0,0,127,0,127,0,,,,,,,127,,,1,451.37697775661945,X,l,go,l,1,0.32626401289599016,,,,,,,,,,,,,,,,,,31,001,20,w,psychologie,2023-01-17_13h31.53.219,00_bat_bachelor,2022.2.4,59.954855841401894,
,,,,,,,,,,,,0,0,0,0,128,0,128,0,,,,,,,128,,,1,452.81146045506466,X,None,nogo,None,1,,453.61186103668297,,,,,,,,,,,,,,,,,31,001,20,w,psychologie,2023-01-17_13h31.53.219,00_bat_bachelor,2022.2.4,59.954855841401894,
,,,,,,,,,,,,0,0,0,0,129,0,129,0,,,,,,,129,,,1,454.61290927859955,Y,d,go,d,1,0.3548089687246829,,,,,,,,,,,,,,,,,,31,001,20,w,psychologie,2023-01-17_13h31.53.219,00_bat_bachelor,2022.2.4,59.954855841401894,
,,,,,,,,,,,,0,0,0,0,130,0,130,0,,,,,,,130,,,1,456.0806128093973,X,l,go,l,1,0.3430392775335349,,,,,,,,,,,,,,,,,,31,001,20,w,psychologie,2023-01-17_13h31.53.219,00_bat_bachelor,2022.2.4,59.954855841401894,
,,,,,,,,,,,,0,0,0,0,131,0,131,0,,,,,,,131,,,1,457.53172531793825,Y,d,go,d,1,0.2843149423133582,,,,,,,,,,,,,,,,,,31,001,20,w,psychologie,2023-01-17_13h31.53.219,00_bat_bachelor,2022.2.4,59.954855841401894,
,,,,,,,,,,,,0,0,0,0,132,0,132,0,,,,,,,132,,,1,458.93280294165015,Y,None,nogo,None,1,,459.7332946747774,,,,,,,,,,,,,,,,,31,001,20,w,psychologie,2023-01-17_13h31.53.219,00_bat_bachelor,2022.2.4,59.954855841401894,
,,,,,,,,,,,,0,0,0,0,133,0,133,0,,,,,,,133,,,1,460.7338677654043,X,l,go,l,1,0.2176822473993525,,,,,,,,,,,,,,,,,,31,001,20,w,psychologie,2023-01-17_13h31.53.219,00_bat_bachelor,2022.2.4,59.954855841401894,
,,,,,,,,,,,,0,0,0,0,134,0,134,0,,,,,,,134,,,1,462.06819633056875,Y,d,go,d,1,0.3880176799139008,,,,,,,,,,,,,,,,,,31,001,20,w,psychologie,2023-01-17_13h31.53.219,00_bat_bachelor,2022.2.4,59.954855841401894,
,,,,,,,,,,,,0,0,0,0,135,0,135,0,,,,,,,135,,,1,463.5694329360267,Y,None,nogo,None,1,,464.3700182448374,,,,,,,,,,,,,,,,,31,001,20,w,psychologie,2023-01-17_13h31.53.219,00_bat_bachelor,2022.2.4,59.954855841401894,
,,,,,,,,,,,,0,0,0,0,136,0,136,0,,,,,,,136,,,1,465.370795941446,X,l,go,l,1,0.1894248065073043,,,,,,,,,,,,,,,,,,31,001,20,w,psychologie,2023-01-17_13h31.53.219,00_bat_bachelor,2022.2.4,59.954855841401894,
,,,,,,,,,,,,0,0,0,0,137,0,137,0,,,,,,,137,,,1,466.67186731059337,Y,d,go,d,1,0.2479018690646626,,,,,,,,,,,,,,,,,,31,001,20,w,psychologie,2023-01-17_13h31.53.219,00_bat_bachelor,2022.2.4,59.954855841401894,
,,,,,,,,,,,,0,0,0,0,138,0,138,0,,,,,,,138,,,1,468.02281550405314,Y,None,nogo,None,1,,468.8234522067942,,,,,,,,,,,,,,,,,31,001,20,w,psychologie,2023-01-17_13h31.53.219,00_bat_bachelor,2022.2.4,59.954855841401894,
,,,,,,,,,,,,0,0,0,0,139,0,139,0,,,,,,,139,,,1,469.8240975398221,X,l,go,l,1,0.28030718670925125,,,,,,,,,,,,,,,,,,31,001,20,w,psychologie,2023-01-17_13h31.53.219,00_bat_bachelor,2022.2.4,59.954855841401894,
,,,,,,,,,,,,0,0,0,0,140,0,140,0,,,,,,,140,,,1,471.20832135353703,Y,d,go,d,1,0.3989427655469626,,,,,,,,,,,,,,,,,,31,001,20,w,psychologie,2023-01-17_13h31.53.219,00_bat_bachelor,2022.2.4,59.954855841401894,
,,,,,,,,,,,,0,0,0,0,141,0,141,0,,,,,,,141,,,1,472.70947456511203,X,l,go,l,1,0.25811034900834784,,,,,,,,,,,,,,,,,,31,001,20,w,psychologie,2023-01-17_13h31.53.219,00_bat_bachelor,2022.2.4,59.954855841401894,
,,,,,,,,,,,,0,0,0,0,142,0,142,0,,,,,,,142,,,1,474.0774205685011,Y,d,go,d,1,0.18577486893627793,,,,,,,,,,,,,,,,,,31,001,20,w,psychologie,2023-01-17_13h31.53.219,00_bat_bachelor,2022.2.4,59.954855841401894,
,,,,,,,,,,,,0,0,0,0,143,0,143,0,,,,,,,143,,,1,475.3782446651021,Y,None,nogo,None,1,,,,,,,,,,,,,,,,,,,31,001,20,w,psychologie,2023-01-17_13h31.53.219,00_bat_bachelor,2022.2.4,59.954855841401894,
,,,,,,,,,,,,0,0,0,0,144,0,144,0,,,,,,,144,,,1,477.1798287612619,X,l,go,l,1,0.21987473114859313,,,,,,,,,,,,,,,,,,31,001,20,w,psychologie,2023-01-17_13h31.53.219,00_bat_bachelor,2022.2.4,59.954855841401894,
,,,,,,,,,,,,0,0,0,0,145,0,145,0,,,,,,,145,,,1,478.5139309023507,Y,d,go,d,1,0.3261461947695352,,,,,,,,,,,,,,,,,,31,001,20,w,psychologie,2023-01-17_13h31.53.219,00_bat_bachelor,2022.2.4,59.954855841401894,
,,,,,,,,,,,,0,0,0,0,146,0,146,0,,,,,,,146,,,1,479.9483898431645,X,l,go,l,1,0.23513096617534757,,,,,,,,,,,,,,,,,,31,001,20,w,psychologie,2023-01-17_13h31.53.219,00_bat_bachelor,2022.2.4,59.954855841401894,
,,,,,,,,,,,,0,0,0,0,147,0,147,0,,,,,,,147,,,1,481.2996255516773,Y,d,go,d,1,0.24477896152529866,,,,,,,,,,,,,,,,,,31,001,20,w,psychologie,2023-01-17_13h31.53.219,00_bat_bachelor,2022.2.4,59.954855841401894,
,,,,,,,,,,,,0,0,0,0,148,0,148,0,,,,,,,148,,,1,482.6504132603877,X,l,go,l,1,0.2846819724654779,,,,,,,,,,,,,,,,,,31,001,20,w,psychologie,2023-01-17_13h31.53.219,00_bat_bachelor,2022.2.4,59.954855841401894,
,,,,,,,,,,,,0,0,0,0,149,0,149,0,,,,,,,149,,,1,484.0514700356289,Y,d,go,d,1,0.24511011288268492,,,,,,,,,,,,,,,,,,31,001,20,w,psychologie,2023-01-17_13h31.53.219,00_bat_bachelor,2022.2.4,59.954855841401894,
,,,,,,,,,,,,0,0,0,0,150,0,150,0,,,,,,,150,,,1,485.4027430774295,Y,None,nogo,None,1,,,,,,,,,,,,,,,,,,,31,001,20,w,psychologie,2023-01-17_13h31.53.219,00_bat_bachelor,2022.2.4,59.954855841401894,
,,,,,,,,,,,,0,0,0,0,151,0,151,0,,,,,,,151,,,1,487.2040842646966,X,l,go,l,1,0.1956769246608019,,,,,,,,,,,,,,,,,,31,001,20,w,psychologie,2023-01-17_13h31.53.219,00_bat_bachelor,2022.2.4,59.954855841401894,
,,,,,,,,,,,,0,0,0,0,152,0,152,0,,,,,,,152,,,1,488.50504363392247,Y,d,go,d,1,0.2861854868824594,,,,,,,,,,,,,,,,,,31,001,20,w,psychologie,2023-01-17_13h31.53.219,00_bat_bachelor,2022.2.4,59.954855841401894,
,,,,,,,,,,,,0,0,0,0,153,0,153,0,,,,,,,153,,,1,489.905906954722,Y,None,nogo,None,1,,490.70672111189924,,,,,,,,,,,,,,,,,31,001,20,w,psychologie,2023-01-17_13h31.53.219,00_bat_bachelor,2022.2.4,59.954855841401894,
,,,,,,,,,,,,0,0,0,0,154,0,154,0,,,,,,,154,,,1,491.7073645055061,X,l,go,l,1,0.1883106252644211,,,,,,,,,,,,,,,,,,31,001,20,w,psychologie,2023-01-17_13h31.53.219,00_bat_bachelor,2022.2.4,59.954855841401894,
,,,,,,,,,,,,0,0,0,0,155,0,155,0,,,,,,,155,,,1,493.00831369293155,Y,d,go,d,1,0.3274766184040345,,,,,,,,,,,,,,,,,,31,001,20,w,psychologie,2023-01-17_13h31.53.219,00_bat_bachelor,2022.2.4,59.954855841401894,
,,,,,,,,,,,,0,0,0,0,156,0,156,0,,,,,,,156,,,1,494.44295008823974,X,l,go,l,1,0.28385094250552356,,,,,,,,,,,,,,,,,,31,001,20,w,psychologie,2023-01-17_13h31.53.219,00_bat_bachelor,2022.2.4,59.954855841401894,
,,,,,,,,,,,,0,0,0,0,157,0,157,0,,,,,,,157,,,1,495.82711862924043,Y,d,go,d,1,0.22886575711891055,,,,,,,,,,,,,,,,,,31,001,20,w,psychologie,2023-01-17_13h31.53.219,00_bat_bachelor,2022.2.4,59.954855841401894,
,,,,,,,,,,,,0,0,0,0,158,0,158,0,,,,,,,158,,,1,497.1616702246247,X,l,go,l,1,0.1895183821907267,,,,,,,,,,,,,,,,,,31,001,20,w,psychologie,2023-01-17_13h31.53.219,00_bat_bachelor,2022.2.4,59.954855841401894,
,,,,,,,,,,,,0,0,0,0,159,0,159,0,,,,,,,159,,,1,498.46247104846407,Y,d,go,d,1,0.20083328580949455,,,,,,,,,,,,,,,,,,31,001,20,w,psychologie,2023-01-17_13h31.53.219,00_bat_bachelor,2022.2.4,59.954855841401894,
,,,,,,,,,,,,0,0,0,0,160,0,160,0,,,,,,,160,,,1,499.7802895610803,X,l,go,l,1,0.37095829425379634,,,,,,,,,,,,,,,,,,31,001,20,w,psychologie,2023-01-17_13h31.53.219,00_bat_bachelor,2022.2.4,59.954855841401894,
,,,,,,,,,,,,0,0,0,0,161,0,161,0,,,,,,,161,,,1,501.2646112656221,X,None,nogo,d,0,0.21497630927478895,,,,,,,,,,,,,,,,,,31,001,20,w,psychologie,2023-01-17_13h31.53.219,00_bat_bachelor,2022.2.4,59.954855841401894,
,,,,,,,,,,,,0,0,0,0,162,0,162,0,,,,,,,162,,,1,502.58243608125485,Y,d,go,d,1,0.3043648719904013,,,,,,,,,,,,,,,,,,31,001,20,w,psychologie,2023-01-17_13h31.53.219,00_bat_bachelor,2022.2.4,59.954855841401894,
,,,,,,,,,,,,0,0,0,0,163,0,163,0,,,,,,,163,,,1,504.0000111514819,X,l,go,l,1,0.2641365278977901,,,,,,,,,,,,,,,,,,31,001,20,w,psychologie,2023-01-17_13h31.53.219,00_bat_bachelor,2022.2.4,59.954855841401894,
,,,,,,,,,,,,0,0,0,0,164,0,164,0,,,,,,,164,,,1,505.36788248829544,X,None,nogo,d,0,0.2560415014741011,,,,,,,,,,,,,,,,,,31,001,20,w,psychologie,2023-01-17_13h31.53.219,00_bat_bachelor,2022.2.4,59.954855841401894,
,,,,,,,,,,,,0,0,0,0,165,0,165,0,,,,,,,165,,,1,506.7354546737042,Y,d,go,d,1,0.31289480725536123,,,,,,,,,,,,,,,,,,31,001,20,w,psychologie,2023-01-17_13h31.53.219,00_bat_bachelor,2022.2.4,59.954855841401894,
,,,,,,,,,,,,0,0,0,0,166,0,166,0,,,,,,,166,,,1,508.1533080468653,X,l,go,l,1,0.3988957352703437,,,,,,,,,,,,,,,,,,31,001,20,w,psychologie,2023-01-17_13h31.53.219,00_bat_bachelor,2022.2.4,59.954855841401894,
,,,,,,,,,,,,0,0,0,0,167,0,167,0,,,,,,,167,,,1,509.65438319783425,Y,d,go,d,1,0.2888739703921601,,,,,,,,,,,,,,,,,,31,001,20,w,psychologie,2023-01-17_13h31.53.219,00_bat_bachelor,2022.2.4,59.954855841401894,
,,,,,,,,,,,,0,0,0,0,168,0,168,0,,,,,,,168,,,1,511.0555902760825,Y,None,nogo,None,1,,,,,,,,,,,,,,,,,,,31,001,20,w,psychologie,2023-01-17_13h31.53.219,00_bat_bachelor,2022.2.4,59.954855841401894,
,,,,,,,,,,,,0,0,0,0,169,0,169,0,,,,,,,169,,,1,512.8567627361044,X,l,go,l,1,0.20709897979395464,,,,,,,,,,,,,,,,,,31,001,20,w,psychologie,2023-01-17_13h31.53.219,00_bat_bachelor,2022.2.4,59.954855841401894,
,,,,,,,,,,,,0,0,0,0,170,0,170,0,,,,,,,170,,,1,514.1744231881457,Y,d,go,d,1,0.3609161173226312,,,,,,,,,,,,,,,,,,31,001,20,w,psychologie,2023-01-17_13h31.53.219,00_bat_bachelor,2022.2.4,59.954855841401894,
,,,,,,,,,,,,0,0,0,0,171,0,171,0,,,,,,,171,,,1,515.6423909612349,X,l,go,l,1,0.30114257050445303,,,,,,,,,,,,,,,,,,31,001,20,w,psychologie,2023-01-17_13h31.53.219,00_bat_bachelor,2022.2.4,59.954855841401894,
,,,,,,,,,,,,0,0,0,0,172,0,172,0,,,,,,,172,,,1,517.0596557286335,Y,d,go,d,1,0.2270611518761143,,,,,,,,,,,,,,,,,,31,001,20,w,psychologie,2023-01-17_13h31.53.219,00_bat_bachelor,2022.2.4,59.954855841401894,
,,,,,,,,,,,,0,0,0,0,173,0,173,0,,,,,,,173,,,1,518.3949733842164,X,l,go,l,1,0.3000919044134207,,,,,,,,,,,,,,,,,,31,001,20,w,psychologie,2023-01-17_13h31.53.219,00_bat_bachelor,2022.2.4,59.954855841401894,
,,,,,,,,,,,,0,0,0,0,174,0,174,0,,,,,,,174,,,1,519.812484939408,X,None,nogo,None,1,,520.6131933996221,,,,,,,,,,,,,,,,,31,001,20,w,psychologie,2023-01-17_13h31.53.219,00_bat_bachelor,2022.2.4,59.954855841401894,
,,,,,,,,,,,,0,0,0,0,175,0,175,0,,,,,,,175,,,1,521.6141320658498,Y,d,go,d,1,0.33015928376698866,,,,,,,,,,,,,,,,,,31,001,20,w,psychologie,2023-01-17_13h31.53.219,00_bat_bachelor,2022.2.4,59.954855841401894,
,,,,,,,,,,,,0,0,0,0,176,0,176,0,,,,,,,176,,,1,523.0485396127915,X,l,go,l,1,0.2067891617771238,,,,,,,,,,,,,,,,,,31,001,20,w,psychologie,2023-01-17_13h31.53.219,00_bat_bachelor,2022.2.4,59.954855841401894,
,,,,,,,,,,,,0,0,0,0,177,0,177,0,,,,,,,177,,,1,524.3829161779722,X,None,nogo,None,1,,525.1833250020281,,,,,,,,,,,,,,,,,31,001,20,w,psychologie,2023-01-17_13h31.53.219,00_bat_bachelor,2022.2.4,59.954855841401894,
,,,,,,,,,,,,0,0,0,0,178,0,178,0,,,,,,,178,,,1,526.184429971152,Y,d,go,d,1,0.3190363800385967,,,,,,,,,,,,,,,,,,31,001,20,w,psychologie,2023-01-17_13h31.53.219,00_bat_bachelor,2022.2.4,59.954855841401894,
,,,,,,,,,,,,0,0,0,0,179,0,179,0,,,,,,,179,,,1,527.6186925484799,X,l,go,l,1,0.40448312647640705,,,,,,,,,,,,,,,,,,31,001,20,w,psychologie,2023-01-17_13h31.53.219,00_bat_bachelor,2022.2.4,59.954855841401894,
,,,,,,,,,,,,0,0,0,0,180,0,180,0,,,,,,,180,,,1,529.136310236936,X,None,nogo,d,0,0.26272416493156925,,,,,,,,,,,,,,,,,,31,001,20,w,psychologie,2023-01-17_13h31.53.219,00_bat_bachelor,2022.2.4,59.954855841401894,
,,,,,,,,,,,,0,0,0,0,181,0,181,0,,,,,,,181,,,1,530.5042732100119,Y,d,go,d,1,0.3186960165621713,,,,,,,,,,,,,,,,,,31,001,20,w,psychologie,2023-01-17_13h31.53.219,00_bat_bachelor,2022.2.4,59.954855841401894,
,,,,,,,,,,,,0,0,0,0,182,0,182,0,,,,,,,182,,,1,531.9553391731461,X,l,go,l,1,0.24365023477002978,,,,,,,,,,,,,,,,,,31,001,20,w,psychologie,2023-01-17_13h31.53.219,00_bat_bachelor,2022.2.4,59.954855841401894,
,,,,,,,,,,,,0,0,0,0,183,0,183,0,,,,,,,183,,,1,533.3230582675897,Y,d,go,d,1,0.46026200853521004,,,,,,,,,,,,,,,,,,31,001,20,w,psychologie,2023-01-17_13h31.53.219,00_bat_bachelor,2022.2.4,59.954855841401894,
,,,,,,,,,,,,0,0,0,0,184,0,184,0,,,,,,,184,,,1,534.8907098711352,X,l,go,l,1,0.3163008661940694,,,,,,,,,,,,,,,,,,31,001,20,w,psychologie,2023-01-17_13h31.53.219,00_bat_bachelor,2022.2.4,59.954855841401894,
,,,,,,,,,,,,0,0,0,0,185,0,185,0,,,,,,,185,,,1,536.3253554786206,Y,d,go,d,1,0.3212535911006853,,,,,,,,,,,,,,,,,,31,001,20,w,psychologie,2023-01-17_13h31.53.219,00_bat_bachelor,2022.2.4,59.954855841401894,
,,,,,,,,,,,,0,0,0,0,186,0,186,0,,,,,,,186,,,1,537.7762648357311,Y,None,nogo,None,1,,538.576840447553,,,,,,,,,,,,,,,,,31,001,20,w,psychologie,2023-01-17_13h31.53.219,00_bat_bachelor,2022.2.4,59.954855841401894,
,,,,,,,,,,,,0,0,0,0,187,0,187,0,,,,,,,187,,,1,539.5778198410408,X,l,go,l,1,0.2212856395635754,,,,,,,,,,,,,,,,,,31,001,20,w,psychologie,2023-01-17_13h31.53.219,00_bat_bachelor,2022.2.4,59.954855841401894,
,,,,,,,,,,,,0,0,0,0,188,0,188,0,,,,,,,188,,,1,540.912148891075,Y,d,go,d,1,0.29491420986596495,,,,,,,,,,,,,,,,,,31,001,20,w,psychologie,2023-01-17_13h31.53.219,00_bat_bachelor,2022.2.4,59.954855841401894,
,,,,,,,,,,,,0,0,0,0,189,0,189,0,,,,,,,189,,,1,542.3132240905543,Y,None,nogo,d,0,0.5099051359575242,,,,,,,,,,,,,,,,,,31,001,20,w,psychologie,2023-01-17_13h31.53.219,00_bat_bachelor,2022.2.4,59.954855841401894,
,,,,,,,,,,,,0,0,0,0,190,0,190,0,,,,,,,190,,,1,543.9312082757824,X,l,go,l,1,0.2362931474344805,,,,,,,,,,,,,,,,,,31,001,20,w,psychologie,2023-01-17_13h31.53.219,00_bat_bachelor,2022.2.4,59.954855841401894,
,,,,,,,,,,,,0,0,0,0,191,0,191,0,,,,,,,191,,,1,545.2819363481249,Y,d,go,d,1,0.22799206053605303,,,,,,,,,,,,,,,,,,31,001,20,w,psychologie,2023-01-17_13h31.53.219,00_bat_bachelor,2022.2.4,59.954855841401894,
,,,,,,,,,,,,0,0,0,0,192,0,192,0,,,,,,,192,,,1,546.6331929051084,X,l,go,l,1,0.2855963962501846,,,,,,,,,,,,,,,,,,31,001,20,w,psychologie,2023-01-17_13h31.53.219,00_bat_bachelor,2022.2.4,59.954855841401894,
,,,,,,,,,,,,0,0,0,0,193,0,193,0,,,,,,,193,,,1,548.0509817934362,Y,d,go,d,1,0.32488122570794076,,,,,,,,,,,,,,,,,,31,001,20,w,psychologie,2023-01-17_13h31.53.219,00_bat_bachelor,2022.2.4,59.954855841401894,
,,,,,,,,,,,,0,0,0,0,194,0,194,0,,,,,,,194,,,1,549.4854509161087,X,l,go,l,1,0.2813035498256795,,,,,,,,,,,,,,,,,,31,001,20,w,psychologie,2023-01-17_13h31.53.219,00_bat_bachelor,2022.2.4,59.954855841401894,
,,,,,,,,,,,,0,0,0,0,195,0,195,0,,,,,,,195,,,1,550.9031248954707,Y,d,go,d,1,0.28763081948272884,,,,,,,,,,,,,,,,,,31,001,20,w,psychologie,2023-01-17_13h31.53.219,00_bat_bachelor,2022.2.4,59.954855841401894,
,,,,,,,,,,,,0,0,0,0,196,0,196,0,,,,,,,196,,,1,552.3375280787586,Y,None,nogo,l,0,0.22905581758823246,,,,,,,,,,,,,,,,,,31,001,20,w,psychologie,2023-01-17_13h31.53.219,00_bat_bachelor,2022.2.4,59.954855841401894,
,,,,,,,,,,,,0,0,0,0,197,0,197,0,,,,,,,197,,,1,553.68856984796,Y,None,nogo,l,0,0.2068124344223179,,,,,,,,,,,,,,,,,,31,001,20,w,psychologie,2023-01-17_13h31.53.219,00_bat_bachelor,2022.2.4,59.954855841401894,
,,,,,,,,,,,,0,0,0,0,198,0,198,0,,,,,,,198,,,1,555.0062555121258,X,l,go,l,1,0.2980506932362914,,,,,,,,,,,,,,,,,,31,001,20,w,psychologie,2023-01-17_13h31.53.219,00_bat_bachelor,2022.2.4,59.954855841401894,
,,,,,,,,,,,,0,0,0,0,199,0,199,0,,,,,,,199,,,1,556.4070873177843,Y,d,go,d,1,0.28787760727573186,,,,,,,,,,,,,,,,,,31,001,20,w,psychologie,2023-01-17_13h31.53.219,00_bat_bachelor,2022.2.4,59.954855841401894,
,,,,,,,,,,,,0,0,0,0,200,0,200,0,,,,,,,200,,,1,557.8083685777383,Y,None,nogo,None,1,,558.6090028562467,,,,,,,,,,,,,,,,,31,001,20,w,psychologie,2023-01-17_13h31.53.219,00_bat_bachelor,2022.2.4,59.954855841401894,
,,,,,,,,,,,,0,0,0,0,201,0,201,0,,,,,,,201,,,1,559.6096632195404,X,l,go,l,1,0.25372538139345124,,,,,,,,,,,,,,,,,,31,001,20,w,psychologie,2023-01-17_13h31.53.219,00_bat_bachelor,2022.2.4,59.954855841401894,
,,,,,,,,,,,,0,0,0,0,202,0,202,0,,,,,,,202,,,1,560.9774671624182,Y,d,go,d,1,0.31064171745674685,,,,,,,,,,,,,,,,,,31,001,20,w,psychologie,2023-01-17_13h31.53.219,00_bat_bachelor,2022.2.4,59.954855841401894,
,,,,,,,,,,,,0,0,0,0,203,0,203,0,,,,,,,203,,,1,562.411434951995,X,l,go,l,1,0.2513210189063102,,,,,,,,,,,,,,,,,,31,001,20,w,psychologie,2023-01-17_13h31.53.219,00_bat_bachelor,2022.2.4,59.954855841401894,
,,,,,,,,,,,,0,0,0,0,204,0,204,0,,,,,,,204,,,1,563.7792306524934,Y,d,go,d,1,0.26065725687658414,,,,,,,,,,,,,,,,,,31,001,20,w,psychologie,2023-01-17_13h31.53.219,00_bat_bachelor,2022.2.4,59.954855841401894,
,,,,,,,,,,,,0,0,0,0,205,0,205,0,,,,,,,205,,,1,565.1466607773909,Y,None,nogo,None,1,,565.9474458436598,,,,,,,,,,,,,,,,,31,001,20,w,psychologie,2023-01-17_13h31.53.219,00_bat_bachelor,2022.2.4,59.954855841401894,
,,,,,,,,,,,,0,0,0,0,206,0,206,0,,,,,,,206,,,1,566.947677116259,X,l,go,l,1,0.21068588708294556,,,,,,,,,,,,,,,,,,31,001,20,w,psychologie,2023-01-17_13h31.53.219,00_bat_bachelor,2022.2.4,59.954855841401894,
,,,,,,,,,,,,0,0,0,0,207,0,207,0,,,,,,,207,,,1,568.26581271959,Y,d,go,d,1,0.3170426840079017,,,,,,,,,,,,,,,,,,31,001,20,w,psychologie,2023-01-17_13h31.53.219,00_bat_bachelor,2022.2.4,59.954855841401894,
,,,,,,,,,,,,0,0,0,0,208,0,208,0,,,,,,,208,,,1,569.6833567595459,X,l,go,l,1,0.24491132504772395,,,,,,,,,,,,,,,,,,31,001,20,w,psychologie,2023-01-17_13h31.53.219,00_bat_bachelor,2022.2.4,59.954855841401894,
,,,,,,,,,,,,0,0,0,0,209,0,209,0,,,,,,,209,,,1,571.034358286357,Y,d,go,d,1,0.237485874153208,,,,,,,,,,,,,,,,,,31,001,20,w,psychologie,2023-01-17_13h31.53.219,00_bat_bachelor,2022.2.4,59.954855841401894,
,,,,,,,,,,,,0,0,0,0,210,0,210,0,,,,,,,210,,,1,572.385532419139,X,l,go,l,1,0.24642114248126745,,,,,,,,,,,,,,,,,,31,001,20,w,psychologie,2023-01-17_13h31.53.219,00_bat_bachelor,2022.2.4,59.954855841401894,
,,,,,,,,,,,,0,0,0,0,211,0,211,0,,,,,,,211,,,1,573.7365625519305,Y,d,go,d,1,0.3667837508255616,,,,,,,,,,,,,,,,,,31,001,20,w,psychologie,2023-01-17_13h31.53.219,00_bat_bachelor,2022.2.4,59.954855841401894,
,,,,,,,,,,,,0,0,0,0,212,0,212,0,,,,,,,212,,,1,575.2043291130685,X,l,go,l,1,0.38653404428623617,,,,,,,,,,,,,,,,,,31,001,20,w,psychologie,2023-01-17_13h31.53.219,00_bat_bachelor,2022.2.4,59.954855841401894,
,,,,,,,,,,,,0,0,0,0,213,0,213,0,,,,,,,213,,,1,576.7055375972996,Y,d,go,d,1,0.23035084729781374,,,,,,,,,,,,,,,,,,31,001,20,w,psychologie,2023-01-17_13h31.53.219,00_bat_bachelor,2022.2.4,59.954855841401894,
,,,,,,,,,,,,0,0,0,0,214,0,214,0,,,,,,,214,,,1,578.0400547684403,Y,None,nogo,None,1,,578.8406890469487,,,,,,,,,,,,,,,,,31,001,20,w,psychologie,2023-01-17_13h31.53.219,00_bat_bachelor,2022.2.4,59.954855841401894,
,,,,,,,,,,,,0,0,0,0,215,0,215,0,,,,,,,215,,,1,579.8413368042093,X,l,go,l,1,0.1662936662323773,,,,,,,,,,,,,,,,,,31,001,20,w,psychologie,2023-01-17_13h31.53.219,00_bat_bachelor,2022.2.4,59.954855841401894,
,,,,,,,,,,,,0,0,0,0,216,0,216,0,,,,,,,216,,,1,581.1089066138375,Y,d,go,d,1,0.37024556734832004,,,,,,,,,,,,,,,,,,31,001,20,w,psychologie,2023-01-17_13h31.53.219,00_bat_bachelor,2022.2.4,59.954855841401894,
,,,,,,,,,,,,0,0,0,0,217,0,217,0,,,,,,,217,,,1,582.5932768032653,Y,None,nogo,l,0,0.19852637784788385,,,,,,,,,,,,,,,,,,31,001,20,w,psychologie,2023-01-17_13h31.53.219,00_bat_bachelor,2022.2.4,59.954855841401894,
,,,,,,,,,,,,0,0,0,0,218,0,218,0,,,,,,,218,,,1,583.8942177482531,Y,None,nogo,None,1,,,,,,,,,,,,,,,,,,,31,001,20,w,psychologie,2023-01-17_13h31.53.219,00_bat_bachelor,2022.2.4,59.954855841401894,
,,,,,,,,,,,,0,0,0,0,219,0,219,0,,,,,,,219,,,1,585.6955463294289,X,l,go,l,1,0.2320812707184814,,,,,,,,,,,,,,,,,,31,001,20,w,psychologie,2023-01-17_13h31.53.219,00_bat_bachelor,2022.2.4,59.954855841401894,
,,,,,,,,,,,,0,0,0,0,220,0,220,0,,,,,,,220,,,1,587.0299364703242,Y,d,go,d,1,0.3854314993368462,,,,,,,,,,,,,,,,,,31,001,20,w,psychologie,2023-01-17_13h31.53.219,00_bat_bachelor,2022.2.4,59.954855841401894,
,,,,,,,,,,,,0,0,0,0,221,0,221,0,,,,,,,221,,,1,588.5311847121338,Y,None,nogo,None,1,,,,,,,,,,,,,,,,,,,31,001,20,w,psychologie,2023-01-17_13h31.53.219,00_bat_bachelor,2022.2.4,59.954855841401894,
,,,,,,,,,,,,0,0,0,0,222,0,222,0,,,,,,,222,,,1,590.3324686872656,X,l,go,l,1,0.18659232300706208,,,,,,,,,,,,,,,,,,31,001,20,w,psychologie,2023-01-17_13h31.53.219,00_bat_bachelor,2022.2.4,59.954855841401894,
,,,,,,,,,,,,0,0,0,0,223,0,223,0,,,,,,,223,,,1,591.6333800565335,Y,d,go,d,1,0.4375827467883937,,,,,,,,,,,,,,,,,,31,001,20,w,psychologie,2023-01-17_13h31.53.219,00_bat_bachelor,2022.2.4,59.954855841401894,
,,,,,,,,,,,,0,0,0,0,224,0,224,0,,,,,,,224,,,1,593.1845696074888,Y,None,nogo,None,1,,,,,,,,,,,,,,,,,,,31,001,20,w,psychologie,2023-01-17_13h31.53.219,00_bat_bachelor,2022.2.4,59.954855841401894,
,,,,,,,,,,,,0,0,0,0,225,0,225,0,,,,,,,225,,,1,594.9859927340294,X,l,go,l,1,0.23748393467394635,,,,,,,,,,,,,,,,,,31,001,20,w,psychologie,2023-01-17_13h31.53.219,00_bat_bachelor,2022.2.4,59.954855841401894,
,,,,,,,,,,,,0,0,0,0,226,0,226,0,,,,,,,226,,,1,596.337019472965,Y,d,go,None,0,,,,,,,,,,,,,,,,,,,31,001,20,w,psychologie,2023-01-17_13h31.53.219,00_bat_bachelor,2022.2.4,59.954855841401894,
,,,,,,,,,,,,0,0,0,0,227,0,227,0,,,,,,,227,,,1,598.138430963154,X,l,go,l,1,0.26836682885186747,,,,,,,,,,,,,,,,,,31,001,20,w,psychologie,2023-01-17_13h31.53.219,00_bat_bachelor,2022.2.4,59.954855841401894,
,,,,,,,,,,,,0,0,0,0,228,0,228,0,,,,,,,228,,,1,599.5226014435757,X,None,nogo,d,0,0.2286310905474238,,,,,,,,,,,,,,,,,,31,001,20,w,psychologie,2023-01-17_13h31.53.219,00_bat_bachelor,2022.2.4,59.954855841401894,
,,,,,,,,,,,,0,0,0,0,229,0,229,0,,,,,,,229,,,1,600.8568315845332,Y,d,go,d,1,0.33444582705851644,,,,,,,,,,,,,,,,,,31,001,20,w,psychologie,2023-01-17_13h31.53.219,00_bat_bachelor,2022.2.4,59.954855841401894,
,,,,,,,,,,,,0,0,0,0,230,0,230,0,,,,,,,230,,,1,602.3081341536017,X,l,go,l,1,0.27554112841608003,,,,,,,,,,,,,,,,,,31,001,20,w,psychologie,2023-01-17_13h31.53.219,00_bat_bachelor,2022.2.4,59.954855841401894,
,,,,,,,,,,,,0,0,0,0,231,0,231,0,,,,,,,231,,,1,603.6925160278333,X,None,nogo,None,1,,,,,,,,,,,,,,,,,,,31,001,20,w,psychologie,2023-01-17_13h31.53.219,00_bat_bachelor,2022.2.4,59.954855841401894,
,,,,,,,,,,,,0,0,0,0,232,0,232,0,,,,,,,232,,,1,605.4940041241352,Y,d,go,d,1,0.33723952271975577,,,,,,,,,,,,,,,,,,31,001,20,w,psychologie,2023-01-17_13h31.53.219,00_bat_bachelor,2022.2.4,59.954855841401894,
,,,,,,,,,,,,0,0,0,0,233,0,233,0,,,,,,,233,,,1,606.9455723899882,X,l,go,l,1,0.26153580186655745,,,,,,,,,,,,,,,,,,31,001,20,w,psychologie,2023-01-17_13h31.53.219,00_bat_bachelor,2022.2.4,59.954855841401894,
,,,,,,,,,,,,0,0,0,0,234,0,234,0,,,,,,,234,,,1,608.3132982723182,Y,d,go,d,1,0.22272272972622886,,,,,,,,,,,,,,,,,,31,001,20,w,psychologie,2023-01-17_13h31.53.219,00_bat_bachelor,2022.2.4,59.954855841401894,
,,,,,,,,,,,,0,0,0,0,235,0,235,0,,,,,,,235,,,1,609.6474644133123,X,l,go,l,1,0.23183739196974784,,,,,,,,,,,,,,,,,,31,001,20,w,psychologie,2023-01-17_13h31.53.219,00_bat_bachelor,2022.2.4,59.954855841401894,
,,,,,,,,,,,,0,0,0,0,236,0,236,0,,,,,,,236,,,1,610.9812436454231,Y,d,go,d,1,0.24230187176726758,,,,,,,,,,,,,,,,,,31,001,20,w,psychologie,2023-01-17_13h31.53.219,00_bat_bachelor,2022.2.4,59.954855841401894,
,,,,,,,,,,,,0,0,0,0,237,0,237,0,,,,,,,237,,,1,612.3323227479705,X,l,go,l,1,0.21891230740584433,,,,,,,,,,,,,,,,,,31,001,20,w,psychologie,2023-01-17_13h31.53.219,00_bat_bachelor,2022.2.4,59.954855841401894,
,,,,,,,,,,,,0,0,0,0,238,0,238,0,,,,,,,238,,,1,613.666577131371,X,None,nogo,None,1,,,,,,,,,,,,,,,,,,,31,001,20,w,psychologie,2023-01-17_13h31.53.219,00_bat_bachelor,2022.2.4,59.954855841401894,
,,,,,,,,,,,,0,0,0,0,239,0,239,0,,,,,,,239,,,1,615.4679798943107,Y,d,go,d,1,0.3154678969294764,,,,,,,,,,,,,,,,,,31,001,20,w,psychologie,2023-01-17_13h31.53.219,00_bat_bachelor,2022.2.4,59.954855841401894,
,,,,,,,,,,,,0,0,0,0,240,0,240,0,,,,,,,240,,,1,616.885914237122,X,l,go,l,1,0.27310137200402096,,,,,,,,,,,,,,,,,,31,001,20,w,psychologie,2023-01-17_13h31.53.219,00_bat_bachelor,2022.2.4,59.954855841401894,
,,,,,,,,,,,,0,0,0,0,241,0,241,0,,,,,,,241,,,1,618.2705220506177,Y,d,go,d,1,0.21725461119785905,,,,,,,,,,,,,,,,,,31,001,20,w,psychologie,2023-01-17_13h31.53.219,00_bat_bachelor,2022.2.4,59.954855841401894,
,,,,,,,,,,,,0,0,0,0,242,0,242,0,,,,,,,242,,,1,619.6048666157876,X,l,go,l,1,0.40178155206376687,,,,,,,,,,,,,,,,,,31,001,20,w,psychologie,2023-01-17_13h31.53.219,00_bat_bachelor,2022.2.4,59.954855841401894,
,,,,,,,,,,,,0,0,0,0,243,0,243,0,,,,,,,243,,,1,621.122848910105,X,None,nogo,None,1,,621.9232751887175,,,,,,,,,,,,,,,,,31,001,20,w,psychologie,2023-01-17_13h31.53.219,00_bat_bachelor,2022.2.4,59.954855841401894,
,,,,,,,,,,,,0,0,0,0,244,0,244,0,,,,,,,244,,,1,622.9241639155662,Y,d,go,d,1,0.3320133434026502,,,,,,,,,,,,,,,,,,31,001,20,w,psychologie,2023-01-17_13h31.53.219,00_bat_bachelor,2022.2.4,59.954855841401894,
,,,,,,,,,,,,0,0,0,0,245,0,245,0,,,,,,,245,,,1,624.3590795834898,X,l,go,l,1,0.2402024788898416,,,,,,,,,,,,,,,,,,31,001,20,w,psychologie,2023-01-17_13h31.53.219,00_bat_bachelor,2022.2.4,59.954855841401894,
,,,,,,,,,,,,0,0,0,0,246,0,246,0,,,,,,,246,,,1,625.7268238899997,X,None,nogo,None,1,,626.5274135624641,,,,,,,,,,,,,,,,,31,001,20,w,psychologie,2023-01-17_13h31.53.219,00_bat_bachelor,2022.2.4,59.954855841401894,
,,,,,,,,,,,,0,0,0,0,247,0,247,0,,,,,,,247,,,1,627.5281548954081,Y,d,go,d,1,0.33482837240444496,,,,,,,,,,,,,,,,,,31,001,20,w,psychologie,2023-01-17_13h31.53.219,00_bat_bachelor,2022.2.4,59.954855841401894,
,,,,,,,,,,,,0,0,0,0,248,0,248,0,,,,,,,248,,,1,628.9790531010367,X,l,go,l,1,0.2109287960920483,,,,,,,,,,,,,,,,,,31,001,20,w,psychologie,2023-01-17_13h31.53.219,00_bat_bachelor,2022.2.4,59.954855841401894,
,,,,,,,,,,,,0,0,0,0,249,0,249,0,,,,,,,249,,,1,630.3136124539888,X,None,nogo,d,0,0.30150523700285703,,,,,,,,,,,,,,,,,,31,001,20,w,psychologie,2023-01-17_13h31.53.219,00_bat_bachelor,2022.2.4,59.954855841401894,
,,,,,,,,,,,,1,0,1,0,0,0,0,0,,,,,,,0,,,0.2,642.4893364899908,X,l,go,l,1,0.413396576710511,,,,,,,,,630.7796471371548,space,11.487736419425346,,,,,,,31,001,20,w,psychologie,2023-01-17_13h31.53.219,00_bat_bachelor,2022.2.4,59.954855841401894,
,,,,,,,,,,,,1,0,1,0,1,0,1,0,,,,,,,1,,,0.2,643.24014727748,Y,d,go,d,1,0.23949217615881935,,,,,,,,,,,,,,,,,,31,001,20,w,psychologie,2023-01-17_13h31.53.219,00_bat_bachelor,2022.2.4,59.954855841401894,
,,,,,,,,,,,,1,0,1,0,2,0,2,0,,,,,,,2,,,0.2,643.8072519722045,X,l,go,l,1,0.2637966492329724,,,,,,,,,,,,,,,,,,31,001,20,w,psychologie,2023-01-17_13h31.53.219,00_bat_bachelor,2022.2.4,59.954855841401894,
,,,,,,,,,,,,1,0,1,0,3,0,3,0,,,,,,,3,,,0.2,644.4076739841257,X,None,nogo,l,0,0.47952696890570223,,,,,,,,,,,,,,,,,,31,001,20,w,psychologie,2023-01-17_13h31.53.219,00_bat_bachelor,2022.2.4,59.954855841401894,
,,,,,,,,,,,,1,0,1,0,4,0,4,0,,,,,,,4,,,0.2,645.2247620728449,Y,d,go,d,1,0.46307121933205053,,,,,,,,,,,,,,,,,,31,001,20,w,psychologie,2023-01-17_13h31.53.219,00_bat_bachelor,2022.2.4,59.954855841401894,
,,,,,,,,,,,,1,0,1,0,5,0,5,0,,,,,,,5,,,0.2,646.0089056926663,X,l,go,l,1,0.31812971382169053,,,,,,,,,,,,,,,,,,31,001,20,w,psychologie,2023-01-17_13h31.53.219,00_bat_bachelor,2022.2.4,59.954855841401894,
,,,,,,,,,,,,1,0,1,0,6,0,6,0,,,,,,,6,,,0.2,646.6594440438785,Y,d,go,d,1,0.3396836427273229,,,,,,,,,,,,,,,,,,31,001,20,w,psychologie,2023-01-17_13h31.53.219,00_bat_bachelor,2022.2.4,59.954855841401894,
,,,,,,,,,,,,1,0,1,0,7,0,7,0,,,,,,,7,,,0.2,647.3267023870139,X,l,go,l,1,0.3924797383369878,,,,,,,,,,,,,,,,,,31,001,20,w,psychologie,2023-01-17_13h31.53.219,00_bat_bachelor,2022.2.4,59.954855841401894,
,,,,,,,,,,,,1,0,1,0,8,0,8,0,,,,,,,8,,,0.2,648.0435577970347,X,None,nogo,None,1,,648.8442134088255,,,,,,,,,,,,,,,,,31,001,20,w,psychologie,2023-01-17_13h31.53.219,00_bat_bachelor,2022.2.4,59.954855841401894,
,,,,,,,,,,,,1,0,1,0,9,0,9,0,,,,,,,9,,,0.2,649.0445449480903,Y,d,go,d,1,0.33838667371310294,,,,,,,,,,,,,,,,,,31,001,20,w,psychologie,2023-01-17_13h31.53.219,00_bat_bachelor,2022.2.4,59.954855841401894,
,,,,,,,,,,,,1,0,1,0,10,0,10,0,,,,,,,10,,,0.2,649.7115652307402,X,l,go,l,1,0.42366808687802404,,,,,,,,,,,,,,,,,,31,001,20,w,psychologie,2023-01-17_13h31.53.219,00_bat_bachelor,2022.2.4,59.954855841401894,
,,,,,,,,,,,,1,0,1,0,11,0,11,0,,,,,,,11,,,0.2,650.4622868061415,X,None,nogo,None,1,,651.2630961148534,,,,,,,,,,,,,,,,,31,001,20,w,psychologie,2023-01-17_13h31.53.219,00_bat_bachelor,2022.2.4,59.954855841401894,
,,,,,,,,,,,,1,0,1,0,12,0,12,0,,,,,,,12,,,0.2,651.4630741996807,Y,d,go,d,1,0.2878393042483367,,,,,,,,,,,,,,,,,,31,001,20,w,psychologie,2023-01-17_13h31.53.219,00_bat_bachelor,2022.2.4,59.954855841401894,
,,,,,,,,,,,,1,0,1,0,13,0,13,0,,,,,,,13,,,0.2,652.0968784984434,X,l,go,l,1,0.27800609689438716,,,,,,,,,,,,,,,,,,31,001,20,w,psychologie,2023-01-17_13h31.53.219,00_bat_bachelor,2022.2.4,59.954855841401894,
,,,,,,,,,,,,1,0,1,0,14,0,14,0,,,,,,,14,,,0.2,652.6973005103646,X,None,nogo,None,1,,653.4977403646917,,,,,,,,,,,,,,,,,31,001,20,w,psychologie,2023-01-17_13h31.53.219,00_bat_bachelor,2022.2.4,59.954855841401894,
,,,,,,,,,,,,1,0,1,0,15,0,15,0,,,,,,,15,,,0.2,653.697885722213,Y,d,go,d,1,0.3094586877268739,,,,,,,,,,,,,,,,,,31,001,20,w,psychologie,2023-01-17_13h31.53.219,00_bat_bachelor,2022.2.4,59.954855841401894,
,,,,,,,,,,,,1,0,1,0,16,0,16,0,,,,,,,16,,,0.2,654.3150369381765,X,l,go,l,1,0.4285214178962633,,,,,,,,,,,,,,,,,,31,001,20,w,psychologie,2023-01-17_13h31.53.219,00_bat_bachelor,2022.2.4,59.954855841401894,
,,,,,,,,,,,,1,0,1,0,17,0,17,0,,,,,,,17,,,0.2,655.0655960894073,Y,d,go,d,1,0.5890954006463289,,,,,,,,,,,,,,,,,,31,001,20,w,psychologie,2023-01-17_13h31.53.219,00_bat_bachelor,2022.2.4,59.954855841401894,
,,,,,,,,,,,,1,0,1,0,18,0,18,0,,,,,,,18,,,0.2,655.9829595233896,X,l,go,None,0,,656.7835962261306,,,,,,,,,,,,,,,,,31,001,20,w,psychologie,2023-01-17_13h31.53.219,00_bat_bachelor,2022.2.4,59.954855841401894,
,,,,,,,,,,,,1,0,1,0,19,0,19,0,,,,,,,19,,,0.2,656.983739159361,Y,d,go,None,0,,657.7843196197064,,,,,,,,,,,,,,,,,31,001,20,w,psychologie,2023-01-17_13h31.53.219,00_bat_bachelor,2022.2.4,59.954855841401894,
,,,,,,,,,,,,1,0,1,0,20,0,20,0,,,,,,,20,,,0.2,657.9844644923578,Y,None,nogo,l,0,0.2458533852477558,,,,,,,,,,,,,,,,,,31,001,20,w,psychologie,2023-01-17_13h31.53.219,00_bat_bachelor,2022.2.4,59.954855841401894,
,,,,,,,,,,,,1,0,1,0,21,0,21,0,,,,,,,21,,,0.2,658.5518979142071,X,l,go,l,1,0.6074275129358284,,,,,,,,,,,,,,,,,,31,001,20,w,psychologie,2023-01-17_13h31.53.219,00_bat_bachelor,2022.2.4,59.954855841401894,
,,,,,,,,,,,,1,0,1,0,22,0,22,0,,,,,,,22,,,0.2,659.4858819462243,Y,d,go,d,1,0.601313091639895,,,,,,,,,,,,,,,,,,31,001,20,w,psychologie,2023-01-17_13h31.53.219,00_bat_bachelor,2022.2.4,59.954855841401894,
,,,,,,,,,,,,1,0,1,0,23,0,23,0,,,,,,,23,,,0.2,660.4032594408491,Y,None,nogo,None,1,,661.2036372345756,,,,,,,,,,,,,,,,,31,001,20,w,psychologie,2023-01-17_13h31.53.219,00_bat_bachelor,2022.2.4,59.954855841401894,
,,,,,,,,,,,,1,0,1,0,24,0,24,0,,,,,,,24,,,0.2,661.4040720465127,X,l,go,l,1,0.29979420750169083,,,,,,,,,,,,,,,,,,31,001,20,w,psychologie,2023-01-17_13h31.53.219,00_bat_bachelor,2022.2.4,59.954855841401894,
,,,,,,,,,,,,1,0,1,0,25,0,25,0,,,,,,,25,,,0.2,662.021106413973,Y,d,go,d,1,0.5301955503528006,,,,,,,,,,,,,,,,,,31,001,20,w,psychologie,2023-01-17_13h31.53.219,00_bat_bachelor,2022.2.4,59.954855841401894,
,,,,,,,,,,,,1,0,1,0,26,0,26,0,,,,,,,26,,,0.2,662.8717775166733,X,l,go,l,1,0.41483996994793415,,,,,,,,,,,,,,,,,,31,001,20,w,psychologie,2023-01-17_13h31.53.219,00_bat_bachelor,2022.2.4,59.954855841401894,
,,,,,,,,,,,,1,0,1,0,27,0,27,0,,,,,,,27,,,0.2,663.6221495165373,X,None,nogo,None,1,,664.4227508252952,,,,,,,,,,,,,,,,,31,001,20,w,psychologie,2023-01-17_13h31.53.219,00_bat_bachelor,2022.2.4,59.954855841401894,
,,,,,,,,,,,,1,0,1,0,28,0,28,0,,,,,,,28,,,0.2,664.6228704858804,Y,d,go,d,1,0.5840903121279553,,,,,,,,,,,,,,,,,,31,001,20,w,psychologie,2023-01-17_13h31.53.219,00_bat_bachelor,2022.2.4,59.954855841401894,
,,,,,,,,,,,,1,0,1,0,29,0,29,0,,,,,,,29,,,0.2,665.5238184126792,X,l,go,l,1,0.27535155275836587,,,,,,,,,,,,,,,,,,31,001,20,w,psychologie,2023-01-17_13h31.53.219,00_bat_bachelor,2022.2.4,59.954855841401894,
,,,,,,,,,,,,1,0,1,0,30,0,30,0,,,,,,,30,,,0.2,666.1409303558758,Y,d,go,d,1,0.2499285347876139,,,,,,,,,,,,,,,,,,31,001,20,w,psychologie,2023-01-17_13h31.53.219,00_bat_bachelor,2022.2.4,59.954855841401894,
,,,,,,,,,,,,1,0,1,0,31,0,31,0,,,,,,,31,,,0.2,666.7245034062653,X,l,go,l,1,0.257732167316135,,,,,,,,,,,,,,,,,,31,001,20,w,psychologie,2023-01-17_13h31.53.219,00_bat_bachelor,2022.2.4,59.954855841401894,
,,,,,,,,,,,,1,0,1,0,32,0,32,0,,,,,,,32,,,0.2,667.3249351151753,Y,d,go,d,1,0.24909314123215154,,,,,,,,,,,,,,,,,,31,001,20,w,psychologie,2023-01-17_13h31.53.219,00_bat_bachelor,2022.2.4,59.954855841401894,
,,,,,,,,,,,,1,0,1,0,33,0,33,0,,,,,,,33,,,0.2,667.9089159229188,Y,None,nogo,None,1,,668.7094275348354,,,,,,,,,,,,,,,,,31,001,20,w,psychologie,2023-01-17_13h31.53.219,00_bat_bachelor,2022.2.4,59.954855841401894,
,,,,,,,,,,,,1,0,1,0,34,0,34,0,,,,,,,34,,,0.2,668.9094579832745,X,l,go,l,1,0.15334579371847212,,,,,,,,,,,,,,,,,,31,001,20,w,psychologie,2023-01-17_13h31.53.219,00_bat_bachelor,2022.2.4,59.954855841401894,
,,,,,,,,,,,,1,0,1,0,35,0,35,0,,,,,,,35,,,0.2,669.4102257404593,Y,d,go,d,1,0.30911347578512505,,,,,,,,,,,,,,,,,,31,001,20,w,psychologie,2023-01-17_13h31.53.219,00_bat_bachelor,2022.2.4,59.954855841401894,
,,,,,,,,,,,,1,0,1,0,36,0,36,0,,,,,,,36,,,0.2,670.0438714938937,X,l,go,l,1,0.4104157296824269,,,,,,,,,,,,,,,,,,31,001,20,w,psychologie,2023-01-17_13h31.53.219,00_bat_bachelor,2022.2.4,59.954855841401894,
,,,,,,,,,,,,1,0,1,0,37,0,37,0,,,,,,,37,,,0.2,670.7944767057197,Y,d,go,d,1,0.38052192598115653,,,,,,,,,,,,,,,,,,31,001,20,w,psychologie,2023-01-17_13h31.53.219,00_bat_bachelor,2022.2.4,59.954855841401894,
,,,,,,,,,,,,1,0,1,0,38,0,38,0,,,,,,,38,,,0.2,671.5116710246075,X,l,go,l,1,0.33564728108467534,,,,,,,,,,,,,,,,,,31,001,20,w,psychologie,2023-01-17_13h31.53.219,00_bat_bachelor,2022.2.4,59.954855841401894,
,,,,,,,,,,,,1,0,1,0,39,0,39,0,,,,,,,39,,,0.2,672.1621279213578,Y,d,go,d,1,0.405311732145492,,,,,,,,,,,,,,,,,,31,001,20,w,psychologie,2023-01-17_13h31.53.219,00_bat_bachelor,2022.2.4,59.954855841401894,
,,,,,,,,,,,,1,0,1,0,40,0,40,0,,,,,,,40,,,0.2,672.8958439292619,X,l,go,l,1,0.34302279265830293,,,,,,,,,,,,,,,,,,31,001,20,w,psychologie,2023-01-17_13h31.53.219,00_bat_bachelor,2022.2.4,59.954855841401894,
,,,,,,,,,,,,1,0,1,0,41,0,41,0,,,,,,,41,,,0.2,673.5632559693186,Y,d,go,d,1,0.3317883738782257,,,,,,,,,,,,,,,,,,31,001,20,w,psychologie,2023-01-17_13h31.53.219,00_bat_bachelor,2022.2.4,59.954855841401894,
,,,,,,,,,,,,1,0,1,0,42,0,42,0,,,,,,,42,,,0.2,674.2302025550161,Y,None,nogo,l,0,0.4009209463838488,,,,,,,,,,,,,,,,,,31,001,20,w,psychologie,2023-01-17_13h31.53.219,00_bat_bachelor,2022.2.4,59.954855841401894,
,,,,,,,,,,,,1,0,1,0,43,0,43,0,,,,,,,43,,,0.2,674.9474056012696,X,l,go,None,0,,675.7480195161188,,,,,,,,,,,,,,,,,31,001,20,w,psychologie,2023-01-17_13h31.53.219,00_bat_bachelor,2022.2.4,59.954855841401894,
,,,,,,,,,,,,1,0,1,0,44,0,44,0,,,,,,,44,,,0.2,675.9483466916718,Y,d,go,None,0,,676.7490003640996,,,,,,,,,,,,,,,,,31,001,20,w,psychologie,2023-01-17_13h31.53.219,00_bat_bachelor,2022.2.4,59.954855841401894,
,,,,,,,,,,,,1,0,1,0,45,0,45,0,,,,,,,45,,,0.2,676.9489032974816,Y,None,nogo,l,0,0.19413656182587147,,,,,,,,,,,,,,,,,,31,001,20,w,psychologie,2023-01-17_13h31.53.219,00_bat_bachelor,2022.2.4,59.954855841401894,
,,,,,,,,,,,,1,0,1,0,46,0,46,0,,,,,,,46,,,0.2,677.4826877659652,X,l,go,None,0,,678.2834931958932,,,,,,,,,,,,,,,,,31,001,20,w,psychologie,2023-01-17_13h31.53.219,00_bat_bachelor,2022.2.4,59.954855841401894,
,,,,,,,,,,,,1,0,1,0,47,0,47,0,,,,,,,47,,,0.2,678.4834378262167,Y,d,go,d,1,0.3069597798748873,,,,,,,,,,,,,,,,,,31,001,20,w,psychologie,2023-01-17_13h31.53.219,00_bat_bachelor,2022.2.4,59.954855841401894,
,,,,,,,,,,,,1,0,1,0,48,0,48,0,,,,,,,48,,,0.2,679.1341007834417,Y,None,nogo,l,0,0.29700245131971315,,,,,,,,,,,,,,,,,,31,001,20,w,psychologie,2023-01-17_13h31.53.219,00_bat_bachelor,2022.2.4,59.954855841401894,
,,,,,,,,,,,,1,0,1,0,49,0,49,0,,,,,,,49,,,0.2,679.7679637488327,X,l,go,l,1,0.49445544654736295,,,,,,,,,,,,,,,,,,31,001,20,w,psychologie,2023-01-17_13h31.53.219,00_bat_bachelor,2022.2.4,59.954855841401894,
,,,,,,,,,,,,1,0,1,0,50,0,50,0,,,,,,,50,,,0.2,680.6019914656645,Y,d,go,d,1,0.4126402134425007,,,,,,,,,,,,,,,,,,31,001,20,w,psychologie,2023-01-17_13h31.53.219,00_bat_bachelor,2022.2.4,59.954855841401894,
,,,,,,,,,,,,1,0,1,0,51,0,51,0,,,,,,,51,,,0.2,681.3357908675098,Y,None,nogo,None,1,,682.1364086611429,,,,,,,,,,,,,,,,,31,001,20,w,psychologie,2023-01-17_13h31.53.219,00_bat_bachelor,2022.2.4,59.954855841401894,
,,,,,,,,,,,,1,0,1,0,52,0,52,0,,,,,,,52,,,0.2,682.3365268671187,X,l,go,l,1,0.2782795513048768,,,,,,,,,,,,,,,,,,31,001,20,w,psychologie,2023-01-17_13h31.53.219,00_bat_bachelor,2022.2.4,59.954855841401894,
,,,,,,,,,,,,1,0,1,0,53,0,53,0,,,,,,,53,,,0.2,682.9535011134576,Y,d,go,None,0,,683.7543162403163,,,,,,,,,,,,,,,,,31,001,20,w,psychologie,2023-01-17_13h31.53.219,00_bat_bachelor,2022.2.4,59.954855841401894,
,,,,,,,,,,,,1,0,1,0,54,0,54,0,,,,,,,54,,,0.2,683.9542759009637,X,l,go,None,0,,684.7549431491061,,,,,,,,,,,,,,,,,31,001,20,w,psychologie,2023-01-17_13h31.53.219,00_bat_bachelor,2022.2.4,59.954855841401894,
,,,,,,,,,,,,1,0,1,0,55,0,55,0,,,,,,,55,,,0.2,684.9552339611109,Y,d,go,None,0,,685.755664603319,,,,,,,,,,,,,,,,,31,001,20,w,psychologie,2023-01-17_13h31.53.219,00_bat_bachelor,2022.2.4,59.954855841401894,
,,,,,,,,,,,,1,0,1,0,56,0,56,0,,,,,,,56,,,0.2,685.956014081894,X,l,go,l,1,0.03431021503638476,,,,,,,,,,,,,,,,,,31,001,20,w,psychologie,2023-01-17_13h31.53.219,00_bat_bachelor,2022.2.4,59.954855841401894,
,,,,,,,,,,,,1,0,1,0,57,0,57,0,,,,,,,57,,,0.2,686.3229821464047,Y,d,go,d,1,0.38814810413168743,,,,,,,,,,,,,,,,,,31,001,20,w,psychologie,2023-01-17_13h31.53.219,00_bat_bachelor,2022.2.4,59.954855841401894,
,,,,,,,,,,,,1,0,1,0,58,0,58,0,,,,,,,58,,,0.2,687.0568222754519,X,l,go,l,1,0.42248020868282765,,,,,,,,,,,,,,,,,,31,001,20,w,psychologie,2023-01-17_13h31.53.219,00_bat_bachelor,2022.2.4,59.954855841401894,
,,,,,,,,,,,,1,0,1,0,59,0,59,0,,,,,,,59,,,0.2,687.8074274872779,Y,d,go,d,1,0.5036947147455066,,,,,,,,,,,,,,,,,,31,001,20,w,psychologie,2023-01-17_13h31.53.219,00_bat_bachelor,2022.2.4,59.954855841401894,
,,,,,,,,,,,,1,0,1,0,60,0,60,0,,,,,,,60,,,0.2,688.6246901213308,X,l,go,l,1,0.501404776412528,,,,,,,,,,,,,,,,,,31,001,20,w,psychologie,2023-01-17_13h31.53.219,00_bat_bachelor,2022.2.4,59.954855841401894,
,,,,,,,,,,,,1,0,1,0,61,0,61,0,,,,,,,61,,,0.2,689.4584831716493,Y,d,go,d,1,0.35658884671283886,,,,,,,,,,,,,,,,,,31,001,20,w,psychologie,2023-01-17_13h31.53.219,00_bat_bachelor,2022.2.4,59.954855841401894,
,,,,,,,,,,,,1,0,1,0,62,0,62,0,,,,,,,62,,,0.2,690.1423383551883,X,l,go,l,1,0.39264313224703074,,,,,,,,,,,,,,,,,,31,001,20,w,psychologie,2023-01-17_13h31.53.219,00_bat_bachelor,2022.2.4,59.954855841401894,
,,,,,,,,,,,,1,0,1,0,63,0,63,0,,,,,,,63,,,0.2,690.8595200681011,X,None,nogo,d,0,0.3645296912873164,,,,,,,,,,,,,,,,,,31,001,20,w,psychologie,2023-01-17_13h31.53.219,00_bat_bachelor,2022.2.4,59.954855841401894,
,,,,,,,,,,,,1,0,1,0,64,0,64,0,,,,,,,64,,,0.2,691.5434465243598,Y,d,go,d,1,0.47969084756914526,,,,,,,,,,,,,,,,,,31,001,20,w,psychologie,2023-01-17_13h31.53.219,00_bat_bachelor,2022.2.4,59.954855841401894,
,,,,,,,,,,,,1,0,1,0,65,0,65,0,,,,,,,65,,,0.2,692.3441675906652,X,l,go,l,1,0.2704662217875011,,,,,,,,,,,,,,,,,,31,001,20,w,psychologie,2023-01-17_13h31.53.219,00_bat_bachelor,2022.2.4,59.954855841401894,
,,,,,,,,,,,,1,0,1,0,66,0,66,0,,,,,,,66,,,0.2,692.9279365197872,Y,d,go,d,1,0.37578301917528734,,,,,,,,,,,,,,,,,,31,001,20,w,psychologie,2023-01-17_13h31.53.219,00_bat_bachelor,2022.2.4,59.954855841401894,
,,,,,,,,,,,,1,0,1,0,67,0,67,0,,,,,,,67,,,0.2,693.6280520590954,X,l,go,l,1,0.39521670673275366,,,,,,,,,,,,,,,,,,31,001,20,w,psychologie,2023-01-17_13h31.53.219,00_bat_bachelor,2022.2.4,59.954855841401894,
,,,,,,,,,,,,1,0,1,0,68,0,68,0,,,,,,,68,,,0.2,694.328639840649,Y,d,go,d,1,0.3506203647120856,,,,,,,,,,,,,,,,,,31,001,20,w,psychologie,2023-01-17_13h31.53.219,00_bat_bachelor,2022.2.4,59.954855841401894,
,,,,,,,,,,,,1,0,1,0,69,0,69,0,,,,,,,69,,,0.2,694.9789619495859,Y,None,nogo,l,0,0.30887977889506146,,,,,,,,,,,,,,,,,,31,001,20,w,psychologie,2023-01-17_13h31.53.219,00_bat_bachelor,2022.2.4,59.954855841401894,
,,,,,,,,,,,,1,0,1,0,70,0,70,0,,,,,,,70,,,0.2,695.596032195841,X,l,go,None,0,,,,,,,,,,,,,,,,,,,31,001,20,w,psychologie,2023-01-17_13h31.53.219,00_bat_bachelor,2022.2.4,59.954855841401894,
,,,,,,,,,,,,1,0,1,0,71,0,71,0,,,,,,,71,,,0.2,696.5967541348655,Y,d,go,None,0,,,,,,,,,,,,,,,,,,,31,001,20,w,psychologie,2023-01-17_13h31.53.219,00_bat_bachelor,2022.2.4,59.954855841401894,
,,,,,,,,,,,,1,0,1,0,72,0,72,0,,,,,,,72,,,0.2,697.5975206799922,X,l,go,l,1,0.23424999689450487,,,,,,,,,,,,,,,,,,31,001,20,w,psychologie,2023-01-17_13h31.53.219,00_bat_bachelor,2022.2.4,59.954855841401894,
,,,,,,,,,,,,1,0,1,0,73,0,73,0,,,,,,,73,,,0.2,698.1479611403774,Y,d,go,d,1,0.596220730454661,,,,,,,,,,,,,,,,,,31,001,20,w,psychologie,2023-01-17_13h31.53.219,00_bat_bachelor,2022.2.4,59.954855841401894,
,,,,,,,,,,,,1,0,1,0,74,0,74,0,,,,,,,74,,,0.2,699.04835730989,X,l,go,l,1,0.2863595473463647,,,,,,,,,,,,,,,,,,31,001,20,w,psychologie,2023-01-17_13h31.53.219,00_bat_bachelor,2022.2.4,59.954855841401894,
,,,,,,,,,,,,1,0,1,0,75,0,75,0,,,,,,,75,,,0.2,699.6487672005896,Y,d,go,d,1,0.27964052034076303,,,,,,,,,,,,,,,,,,31,001,20,w,psychologie,2023-01-17_13h31.53.219,00_bat_bachelor,2022.2.4,59.954855841401894,
,,,,,,,,,,,,1,0,1,0,76,0,76,0,,,,,,,76,,,0.2,700.2329361294978,X,l,go,l,1,0.5274765213835053,,,,,,,,,,,,,,,,,,31,001,20,w,psychologie,2023-01-17_13h31.53.219,00_bat_bachelor,2022.2.4,59.954855841401894,
,,,,,,,,,,,,1,0,1,0,77,0,77,0,,,,,,,77,,,0.2,701.066532816214,Y,d,go,d,1,0.4939012649701908,,,,,,,,,,,,,,,,,,31,001,20,w,psychologie,2023-01-17_13h31.53.219,00_bat_bachelor,2022.2.4,59.954855841401894,
,,,,,,,,,,,,1,0,1,0,78,0,78,0,,,,,,,78,,,0.2,701.8674342460581,Y,None,nogo,None,1,,,,,,,,,,,,,,,,,,,31,001,20,w,psychologie,2023-01-17_13h31.53.219,00_bat_bachelor,2022.2.4,59.954855841401894,
,,,,,,,,,,,,1,0,1,0,79,0,79,0,,,,,,,79,,,0.2,702.8682197002345,X,l,go,l,1,0.25958913611248136,,,,,,,,,,,,,,,,,,31,001,20,w,psychologie,2023-01-17_13h31.53.219,00_bat_bachelor,2022.2.4,59.954855841401894,
,,,,,,,,,,,,1,0,1,0,80,0,80,0,,,,,,,80,,,0.2,703.4526237805258,Y,d,go,d,1,0.36220387427601963,,,,,,,,,,,,,,,,,,31,001,20,w,psychologie,2023-01-17_13h31.53.219,00_bat_bachelor,2022.2.4,59.954855841401894,
,,,,,,,,,,,,1,0,1,0,81,0,81,0,,,,,,,81,,,0.2,704.1532052590628,X,l,go,l,1,0.43037353816907853,,,,,,,,,,,,,,,,,,31,001,20,w,psychologie,2023-01-17_13h31.53.219,00_bat_bachelor,2022.2.4,59.954855841401894,
,,,,,,,,,,,,1,0,1,0,82,0,82,0,,,,,,,82,,,0.2,704.920454341569,X,None,nogo,None,1,,705.7210333473631,,,,,,,,,,,,,,,,,31,001,20,w,psychologie,2023-01-17_13h31.53.219,00_bat_bachelor,2022.2.4,59.954855841401894,
,,,,,,,,,,,,1,0,1,0,83,0,83,0,,,,,,,83,,,0.2,705.9210521594505,Y,d,go,d,1,0.5337577305035666,,,,,,,,,,,,,,,,,,31,001,20,w,psychologie,2023-01-17_13h31.53.219,00_bat_bachelor,2022.2.4,59.954855841401894,
,,,,,,,,,,,,1,0,1,0,84,0,84,0,,,,,,,84,,,0.2,706.7884122238029,X,l,go,l,1,0.16297342540929094,,,,,,,,,,,,,,,,,,31,001,20,w,psychologie,2023-01-17_13h31.53.219,00_bat_bachelor,2022.2.4,59.954855841401894,
,,,,,,,,,,,,1,0,1,0,85,0,85,0,,,,,,,85,,,0.2,707.2722209588974,Y,d,go,d,1,0.3991022806148976,,,,,,,,,,,,,,,,,,31,001,20,w,psychologie,2023-01-17_13h31.53.219,00_bat_bachelor,2022.2.4,59.954855841401894,
,,,,,,,,,,,,1,0,1,0,86,0,86,0,,,,,,,86,,,0.2,707.9892921263818,Y,None,nogo,None,1,,708.7900810714345,,,,,,,,,,,,,,,,,31,001,20,w,psychologie,2023-01-17_13h31.53.219,00_bat_bachelor,2022.2.4,59.954855841401894,
,,,,,,,,,,,,1,0,1,0,87,0,87,0,,,,,,,87,,,0.2,708.9900518836221,X,l,go,l,1,0.10562072595348582,,,,,,,,,,,,,,,,,,31,001,20,w,psychologie,2023-01-17_13h31.53.219,00_bat_bachelor,2022.2.4,59.954855841401894,
,,,,,,,,,,,,1,0,1,0,88,0,88,0,,,,,,,88,,,0.2,709.4238911884022,Y,d,go,d,1,0.24699520284775645,,,,,,,,,,,,,,,,,,31,001,20,w,psychologie,2023-01-17_13h31.53.219,00_bat_bachelor,2022.2.4,59.954855841401894,
,,,,,,,,,,,,1,0,1,0,89,0,89,0,,,,,,,89,,,0.2,710.0076669053524,X,l,go,l,1,0.43160359817557037,,,,,,,,,,,,,,,,,,31,001,20,w,psychologie,2023-01-17_13h31.53.219,00_bat_bachelor,2022.2.4,59.954855841401894,
,,,,,,,,,,,,1,0,1,0,90,0,90,0,,,,,,,90,,,0.2,710.7582401172258,Y,d,go,d,1,0.24019666068488732,,,,,,,,,,,,,,,,,,31,001,20,w,psychologie,2023-01-17_13h31.53.219,00_bat_bachelor,2022.2.4,59.954855841401894,
,,,,,,,,,,,,1,0,1,0,91,0,91,0,,,,,,,91,,,0.2,711.3417928039562,Y,None,nogo,None,1,,712.1425167793641,,,,,,,,,,,,,,,,,31,001,20,w,psychologie,2023-01-17_13h31.53.219,00_bat_bachelor,2022.2.4,59.954855841401894,
,,,,,,,,,,,,1,0,1,0,92,0,92,0,,,,,,,92,,,0.2,712.342547712673,X,l,go,l,1,0.11218508635647595,,,,,,,,,,,,,,,,,,31,001,20,w,psychologie,2023-01-17_13h31.53.219,00_bat_bachelor,2022.2.4,59.954855841401894,
,,,,,,,,,,,,1,0,1,0,93,0,93,0,,,,,,,93,,,0.2,712.792913070065,Y,d,go,d,1,0.30095154035370797,,,,,,,,,,,,,,,,,,31,001,20,w,psychologie,2023-01-17_13h31.53.219,00_bat_bachelor,2022.2.4,59.954855841401894,
,,,,,,,,,,,,1,0,1,0,94,0,94,0,,,,,,,94,,,0.2,713.4269074293552,Y,None,nogo,None,1,,714.2273094655247,,,,,,,,,,,,,,,,,31,001,20,w,psychologie,2023-01-17_13h31.53.219,00_bat_bachelor,2022.2.4,59.954855841401894,
,,,,,,,,,,,,1,0,1,0,95,0,95,0,,,,,,,95,,,0.2,714.4277011259692,X,l,go,l,1,0.2351193298236467,,,,,,,,,,,,,,,,,,31,001,20,w,psychologie,2023-01-17_13h31.53.219,00_bat_bachelor,2022.2.4,59.954855841401894,
,,,,,,,,,,,,1,0,1,0,96,0,96,0,,,,,,,96,,,0.2,714.994816487364,Y,d,go,d,1,0.34027806675294414,,,,,,,,,,,,,,,,,,31,001,20,w,psychologie,2023-01-17_13h31.53.219,00_bat_bachelor,2022.2.4,59.954855841401894,
,,,,,,,,,,,,1,0,1,0,97,0,97,0,,,,,,,97,,,0.2,715.6617611336987,Y,None,nogo,None,1,,716.4624211091432,,,,,,,,,,,,,,,,,31,001,20,w,psychologie,2023-01-17_13h31.53.219,00_bat_bachelor,2022.2.4,59.954855841401894,
,,,,,,,,,,,,1,0,1,0,98,0,98,0,,,,,,,98,,,0.2,716.6625053757452,Y,None,nogo,l,0,0.272411432932131,,,,,,,,,,,,,,,,,,31,001,20,w,psychologie,2023-01-17_13h31.53.219,00_bat_bachelor,2022.2.4,59.954855841401894,
,,,,,,,,,,,,1,0,1,0,99,0,99,0,,,,,,,99,,,0.2,717.2631955087418,X,l,go,None,0,,718.064016938617,,,,,,,,,,,,,,,,,31,001,20,w,psychologie,2023-01-17_13h31.53.219,00_bat_bachelor,2022.2.4,59.954855841401894,
,,,,,,,,,,,,1,0,1,0,100,0,100,0,,,,,,,100,,,0.2,718.2639615689986,Y,d,go,d,1,0.335151766135823,,,,,,,,,,,,,,,,,,31,001,20,w,psychologie,2023-01-17_13h31.53.219,00_bat_bachelor,2022.2.4,59.954855841401894,
,,,,,,,,,,,,1,0,1,0,101,0,101,0,,,,,,,101,,,0.2,718.9312325181672,X,l,go,l,1,0.2911968783591874,,,,,,,,,,,,,,,,,,31,001,20,w,psychologie,2023-01-17_13h31.53.219,00_bat_bachelor,2022.2.4,59.954855841401894,
,,,,,,,,,,,,1,0,1,0,102,0,102,0,,,,,,,102,,,0.2,719.5649442109279,Y,d,go,d,1,0.26635470864130184,,,,,,,,,,,,,,,,,,31,001,20,w,psychologie,2023-01-17_13h31.53.219,00_bat_bachelor,2022.2.4,59.954855841401894,
,,,,,,,,,,,,1,0,1,0,103,0,103,0,,,,,,,103,,,0.2,720.1654947076458,X,l,go,l,1,0.24243811413180083,,,,,,,,,,,,,,,,,,31,001,20,w,psychologie,2023-01-17_13h31.53.219,00_bat_bachelor,2022.2.4,59.954855841401894,
,,,,,,,,,,,,1,0,1,0,104,0,104,0,,,,,,,104,,,0.2,720.7325412205537,X,None,nogo,d,0,0.058354809414595366,,,,,,,,,,,,,,,,,,31,001,20,w,psychologie,2023-01-17_13h31.53.219,00_bat_bachelor,2022.2.4,59.954855841401894,
,,,,,,,,,,,,1,0,1,0,105,0,105,0,,,,,,,105,,,0.2,721.0994312245166,X,None,nogo,l,0,0.5555080230114982,,,,,,,,,,,,,,,,,,31,001,20,w,psychologie,2023-01-17_13h31.53.219,00_bat_bachelor,2022.2.4,59.954855841401894,
,,,,,,,,,,,,1,0,1,0,106,0,106,0,,,,,,,106,,,0.2,721.9999083636794,Y,d,go,d,1,0.6480287053855136,,,,,,,,,,,,,,,,,,31,001,20,w,psychologie,2023-01-17_13h31.53.219,00_bat_bachelor,2022.2.4,59.954855841401894,
,,,,,,,,,,,,1,0,1,0,107,0,107,0,,,,,,,107,,,0.2,722.9675432884251,X,l,go,l,1,0.4002697952091694,,,,,,,,,,,,,,,,,,31,001,20,w,psychologie,2023-01-17_13h31.53.219,00_bat_bachelor,2022.2.4,59.954855841401894,
,,,,,,,,,,,,1,0,1,0,108,0,108,0,,,,,,,108,,,0.2,723.6847700921935,X,None,nogo,None,1,,724.4851682495791,,,,,,,,,,,,,,,,,31,001,20,w,psychologie,2023-01-17_13h31.53.219,00_bat_bachelor,2022.2.4,59.954855841401894,
,,,,,,,,,,,,1,0,1,0,109,0,109,0,,,,,,,109,,,0.2,724.6855051221792,X,None,nogo,None,1,,725.4860880067572,,,,,,,,,,,,,,,,,31,001,20,w,psychologie,2023-01-17_13h31.53.219,00_bat_bachelor,2022.2.4,59.954855841401894,
,,,,,,,,,,,,1,0,1,0,110,0,110,0,,,,,,,110,,,0.2,725.6862716672476,Y,d,go,d,1,0.3844816816272214,,,,,,,,,,,,,,,,,,31,001,20,w,psychologie,2023-01-17_13h31.53.219,00_bat_bachelor,2022.2.4,59.954855841401894,
,,,,,,,,,,,,1,0,1,0,111,0,111,0,,,,,,,111,,,0.2,726.4032526529627,X,l,go,l,1,0.3563469073851593,,,,,,,,,,,,,,,,,,31,001,20,w,psychologie,2023-01-17_13h31.53.219,00_bat_bachelor,2022.2.4,59.954855841401894,
,,,,,,,,,,,,1,0,1,0,112,0,112,0,,,,,,,112,,,0.2,727.087142745615,Y,d,go,d,1,0.3763003522763029,,,,,,,,,,,,,,,,,,31,001,20,w,psychologie,2023-01-17_13h31.53.219,00_bat_bachelor,2022.2.4,59.954855841401894,
,,,,,,,,,,,,1,0,1,0,113,0,113,0,,,,,,,113,,,0.2,727.7878696785774,X,l,go,l,1,0.4431633501662873,,,,,,,,,,,,,,,,,,31,001,20,w,psychologie,2023-01-17_13h31.53.219,00_bat_bachelor,2022.2.4,59.954855841401894,
,,,,,,,,,,,,1,0,1,0,114,0,114,0,,,,,,,114,,,0.2,728.5551090641529,Y,d,go,d,1,0.3645471458439715,,,,,,,,,,,,,,,,,,31,001,20,w,psychologie,2023-01-17_13h31.53.219,00_bat_bachelor,2022.2.4,59.954855841401894,
,,,,,,,,,,,,1,0,1,0,115,0,115,0,,,,,,,115,,,0.2,729.2389579447336,X,l,go,l,1,0.4802013927837834,,,,,,,,,,,,,,,,,,31,001,20,w,psychologie,2023-01-17_13h31.53.219,00_bat_bachelor,2022.2.4,59.954855841401894,
,,,,,,,,,,,,1,0,1,0,116,0,116,0,,,,,,,116,,,0.2,730.0560363364639,Y,d,go,d,1,0.30181699444074184,,,,,,,,,,,,,,,,,,31,001,20,w,psychologie,2023-01-17_13h31.53.219,00_bat_bachelor,2022.2.4,59.954855841401894,
,,,,,,,,,,,,1,0,1,0,117,0,117,0,,,,,,,117,,,0.2,730.6901887562708,Y,None,nogo,None,1,,731.4905209742719,,,,,,,,,,,,,,,,,31,001,20,w,psychologie,2023-01-17_13h31.53.219,00_bat_bachelor,2022.2.4,59.954855841401894,
,,,,,,,,,,,,1,0,1,0,118,0,118,0,,,,,,,118,,,0.2,731.6905732409214,Y,None,nogo,None,1,,732.4912841254263,,,,,,,,,,,,,,,,,31,001,20,w,psychologie,2023-01-17_13h31.53.219,00_bat_bachelor,2022.2.4,59.954855841401894,
,,,,,,,,,,,,1,0,1,0,119,0,119,0,,,,,,,119,,,0.2,732.691615664633,X,l,go,l,1,0.29132584802573547,,,,,,,,,,,,,,,,,,31,001,20,w,psychologie,2023-01-17_13h31.53.219,00_bat_bachelor,2022.2.4,59.954855841401894,
,,,,,,,,,,,,1,0,1,0,120,0,120,0,,,,,,,120,,,0.2,733.3254432361573,Y,d,go,d,1,0.34598812455078587,,,,,,,,,,,,,,,,,,31,001,20,w,psychologie,2023-01-17_13h31.53.219,00_bat_bachelor,2022.2.4,59.954855841401894,
,,,,,,,,,,,,1,0,1,0,121,0,121,0,,,,,,,121,,,0.2,733.9757207390503,X,l,go,l,1,0.3839178031194024,,,,,,,,,,,,,,,,,,31,001,20,w,psychologie,2023-01-17_13h31.53.219,00_bat_bachelor,2022.2.4,59.954855841401894,
,,,,,,,,,,,,1,0,1,0,122,0,122,0,,,,,,,122,,,0.2,734.6762474296847,X,None,nogo,d,0,0.35485502937808633,,,,,,,,,,,,,,,,,,31,001,20,w,psychologie,2023-01-17_13h31.53.219,00_bat_bachelor,2022.2.4,59.954855841401894,
,,,,,,,,,,,,1,0,1,0,123,0,123,0,,,,,,,123,,,0.2,735.34343595471,Y,d,go,d,1,0.5192311920691282,,,,,,,,,,,,,,,,,,31,001,20,w,psychologie,2023-01-17_13h31.53.219,00_bat_bachelor,2022.2.4,59.954855841401894,
,,,,,,,,,,,,1,0,1,0,124,0,124,0,,,,,,,124,,,0.2,736.1773957927362,X,l,go,l,1,0.35764096735510975,,,,,,,,,,,,,,,,,,31,001,20,w,psychologie,2023-01-17_13h31.53.219,00_bat_bachelor,2022.2.4,59.954855841401894,
,,,,,,,,,,,,1,0,1,0,125,0,125,0,,,,,,,125,,,0.2,736.8615026125917,Y,d,go,d,1,0.5860141899902374,,,,,,,,,,,,,,,,,,31,001,20,w,psychologie,2023-01-17_13h31.53.219,00_bat_bachelor,2022.2.4,59.954855841401894,
,,,,,,,,,,,,1,0,1,0,126,0,126,0,,,,,,,126,,,0.2,737.7619715093169,Y,None,nogo,l,0,0.45372722385218367,,,,,,,,,,,,,,,,,,31,001,20,w,psychologie,2023-01-17_13h31.53.219,00_bat_bachelor,2022.2.4,59.954855841401894,
,,,,,,,,,,,,1,0,1,0,127,0,127,0,,,,,,,127,,,0.2,738.5291478646686,Y,None,nogo,None,1,,739.3297821431188,,,,,,,,,,,,,,,,,31,001,20,w,psychologie,2023-01-17_13h31.53.219,00_bat_bachelor,2022.2.4,59.954855841401894,
,,,,,,,,,,,,1,0,1,0,128,0,128,0,,,,,,,128,,,0.2,739.5301161066163,X,l,go,l,1,0.26858791965059936,,,,,,,,,,,,,,,,,,31,001,20,w,psychologie,2023-01-17_13h31.53.219,00_bat_bachelor,2022.2.4,59.954855841401894,
,,,,,,,,,,,,1,0,1,0,129,0,129,0,,,,,,,129,,,0.2,740.1139252780704,Y,d,go,d,1,0.38891028554644436,,,,,,,,,,,,,,,,,,31,001,20,w,psychologie,2023-01-17_13h31.53.219,00_bat_bachelor,2022.2.4,59.954855841401894,
,,,,,,,,,,,,1,0,1,0,130,0,130,0,,,,,,,130,,,0.2,740.830905294104,X,l,go,l,1,0.36030860245227814,,,,,,,,,,,,,,,,,,31,001,20,w,psychologie,2023-01-17_13h31.53.219,00_bat_bachelor,2022.2.4,59.954855841401894,
,,,,,,,,,,,,1,0,1,0,131,0,131,0,,,,,,,131,,,0.2,741.5147779321996,Y,d,go,d,1,0.2517142308643088,,,,,,,,,,,,,,,,,,31,001,20,w,psychologie,2023-01-17_13h31.53.219,00_bat_bachelor,2022.2.4,59.954855841401894,
,,,,,,,,,,,,1,0,1,0,132,0,132,0,,,,,,,132,,,0.2,742.0819083239185,Y,None,nogo,None,1,,742.8827743598376,,,,,,,,,,,,,,,,,31,001,20,w,psychologie,2023-01-17_13h31.53.219,00_bat_bachelor,2022.2.4,59.954855841401894,
,,,,,,,,,,,,1,0,1,0,133,0,133,0,,,,,,,133,,,0.2,743.0826574144303,X,l,go,l,1,0.17198820895282552,,,,,,,,,,,,,,,,,,31,001,20,w,psychologie,2023-01-17_13h31.53.219,00_bat_bachelor,2022.2.4,59.954855841401894,
,,,,,,,,,,,,1,0,1,0,134,0,134,0,,,,,,,134,,,0.2,743.5998857697123,Y,d,go,d,1,0.4547245566500351,,,,,,,,,,,,,,,,,,31,001,20,w,psychologie,2023-01-17_13h31.53.219,00_bat_bachelor,2022.2.4,59.954855841401894,
,,,,,,,,,,,,1,0,1,0,135,0,135,0,,,,,,,135,,,0.2,744.4005273209186,Y,None,nogo,None,1,,745.201124266081,,,,,,,,,,,,,,,,,31,001,20,w,psychologie,2023-01-17_13h31.53.219,00_bat_bachelor,2022.2.4,59.954855841401894,
,,,,,,,,,,,,1,0,1,0,136,0,136,0,,,,,,,136,,,0.2,745.4012895023916,Y,None,nogo,l,0,0.15796397329540923,,,,,,,,,,,,,,,,,,31,001,20,w,psychologie,2023-01-17_13h31.53.219,00_bat_bachelor,2022.2.4,59.954855841401894,
,,,,,,,,,,,,1,0,1,0,137,0,137,0,,,,,,,137,,,0.2,745.8847491467604,X,l,go,l,1,0.6018076368491165,,,,,,,,,,,,,,,,,,31,001,20,w,psychologie,2023-01-17_13h31.53.219,00_bat_bachelor,2022.2.4,59.954855841401894,
,,,,,,,,,,,,1,0,1,0,138,0,138,0,,,,,,,138,,,0.2,746.8188349968987,Y,d,go,d,1,0.0679737139143981,,,,,,,,,,,,,,,,,,31,001,20,w,psychologie,2023-01-17_13h31.53.219,00_bat_bachelor,2022.2.4,59.954855841401894,
,,,,,,,,,,,,1,0,1,0,139,0,139,0,,,,,,,139,,,0.2,747.2026529926225,Y,None,nogo,None,1,,748.0032761195907,,,,,,,,,,,,,,,,,31,001,20,w,psychologie,2023-01-17_13h31.53.219,00_bat_bachelor,2022.2.4,59.954855841401894,
,,,,,,,,,,,,1,0,1,0,140,0,140,0,,,,,,,140,,,0.2,748.2034331134637,X,l,go,l,1,0.2836967608309351,,,,,,,,,,,,,,,,,,31,001,20,w,psychologie,2023-01-17_13h31.53.219,00_bat_bachelor,2022.2.4,59.954855841401894,
,,,,,,,,,,,,1,0,1,0,141,0,141,0,,,,,,,141,,,0.2,748.8036863981979,Y,d,go,d,1,0.4670993385370821,,,,,,,,,,,,,,,,,,31,001,20,w,psychologie,2023-01-17_13h31.53.219,00_bat_bachelor,2022.2.4,59.954855841401894,
,,,,,,,,,,,,1,0,1,0,142,0,142,0,,,,,,,142,,,0.2,749.5878004422411,X,l,go,None,0,,750.3881748421118,,,,,,,,,,,,,,,,,31,001,20,w,psychologie,2023-01-17_13h31.53.219,00_bat_bachelor,2022.2.4,59.954855841401894,
,,,,,,,,,,,,1,0,1,0,143,0,143,0,,,,,,,143,,,0.2,750.5886009267415,X,None,nogo,None,1,,751.3889821144403,,,,,,,,,,,,,,,,,31,001,20,w,psychologie,2023-01-17_13h31.53.219,00_bat_bachelor,2022.2.4,59.954855841401894,
,,,,,,,,,,,,1,0,1,0,144,0,144,0,,,,,,,144,,,0.2,751.5893834718154,Y,d,go,d,1,0.40186833986081183,,,,,,,,,,,,,,,,,,31,001,20,w,psychologie,2023-01-17_13h31.53.219,00_bat_bachelor,2022.2.4,59.954855841401894,
,,,,,,,,,,,,1,0,1,0,145,0,145,0,,,,,,,145,,,0.2,752.3233389947563,X,l,go,None,0,,753.1236392127466,,,,,,,,,,,,,,,,,31,001,20,w,psychologie,2023-01-17_13h31.53.219,00_bat_bachelor,2022.2.4,59.954855841401894,
,,,,,,,,,,,,1,0,1,0,146,0,146,0,,,,,,,146,,,0.2,753.3240134186344,Y,d,go,l,0,0.2030398302595131,,,,,,,,,,,,,,,,,,31,001,20,w,psychologie,2023-01-17_13h31.53.219,00_bat_bachelor,2022.2.4,59.954855841401894,
,,,,,,,,,,,,1,0,1,0,147,0,147,0,,,,,,,147,,,0.2,753.8744829699281,X,l,go,l,1,0.46813012595521286,,,,,,,,,,,,,,,,,,31,001,20,w,psychologie,2023-01-17_13h31.53.219,00_bat_bachelor,2022.2.4,59.954855841401894,
,,,,,,,,,,,,1,0,1,0,148,0,148,0,,,,,,,148,,,0.2,754.6748680364108,X,None,nogo,d,0,0.03603918390581384,,,,,,,,,,,,,,,,,,31,001,20,w,psychologie,2023-01-17_13h31.53.219,00_bat_bachelor,2022.2.4,59.954855841401894,
,,,,,,,,,,,,1,0,1,0,149,0,149,0,,,,,,,149,,,0.2,755.0252950180438,Y,d,go,None,0,,755.8256849329919,,,,,,,,,,,,,,,,,31,001,20,w,psychologie,2023-01-17_13h31.53.219,00_bat_bachelor,2022.2.4,59.954855841401894,
,,,,,,,,,,,,1,0,1,0,150,0,150,0,,,,,,,150,,,0.2,756.0258453207789,X,l,go,l,1,0.2685229500057176,,,,,,,,,,,,,,,,,,31,001,20,w,psychologie,2023-01-17_13h31.53.219,00_bat_bachelor,2022.2.4,59.954855841401894,
,,,,,,,,,,,,1,0,1,0,151,0,151,0,,,,,,,151,,,0.2,756.626295453927,Y,d,go,d,1,0.45267704251455143,,,,,,,,,,,,,,,,,,31,001,20,w,psychologie,2023-01-17_13h31.53.219,00_bat_bachelor,2022.2.4,59.954855841401894,
,,,,,,,,,,,,1,0,1,0,152,0,152,0,,,,,,,152,,,0.2,757.3937612636364,X,l,go,l,1,0.3413044904009439,,,,,,,,,,,,,,,,,,31,001,20,w,psychologie,2023-01-17_13h31.53.219,00_bat_bachelor,2022.2.4,59.954855841401894,
,,,,,,,,,,,,1,0,1,0,153,0,153,0,,,,,,,153,,,0.2,758.0608179098926,Y,d,go,d,1,0.3614698140299879,,,,,,,,,,,,,,,,,,31,001,20,w,psychologie,2023-01-17_13h31.53.219,00_bat_bachelor,2022.2.4,59.954855841401894,
,,,,,,,,,,,,1,0,1,0,154,0,154,0,,,,,,,154,,,0.2,758.7614299338311,X,l,go,l,1,0.5407516664708965,,,,,,,,,,,,,,,,,,31,001,20,w,psychologie,2023-01-17_13h31.53.219,00_bat_bachelor,2022.2.4,59.954855841401894,
,,,,,,,,,,,,1,0,1,0,155,0,155,0,,,,,,,155,,,0.2,759.6284055134747,Y,d,go,d,1,0.6351967115770094,,,,,,,,,,,,,,,,,,31,001,20,w,psychologie,2023-01-17_13h31.53.219,00_bat_bachelor,2022.2.4,59.954855841401894,
,,,,,,,,,,,,1,0,1,0,156,0,156,0,,,,,,,156,,,0.2,760.5790736586205,X,l,go,l,1,0.4684942470048554,,,,,,,,,,,,,,,,,,31,001,20,w,psychologie,2023-01-17_13h31.53.219,00_bat_bachelor,2022.2.4,59.954855841401894,
,,,,,,,,,,,,1,0,1,0,157,0,157,0,,,,,,,157,,,0.2,761.3629583694856,Y,d,go,d,1,0.4516210430301726,,,,,,,,,,,,,,,,,,31,001,20,w,psychologie,2023-01-17_13h31.53.219,00_bat_bachelor,2022.2.4,59.954855841401894,
,,,,,,,,,,,,1,0,1,0,158,0,158,0,,,,,,,158,,,0.2,762.1470825953293,Y,None,nogo,None,1,,762.9478211161913,,,,,,,,,,,,,,,,,31,001,20,w,psychologie,2023-01-17_13h31.53.219,00_bat_bachelor,2022.2.4,59.954855841401894,
,,,,,,,,,,,,1,0,1,0,159,0,159,0,,,,,,,159,,,0.2,763.1477036859724,X,l,go,None,0,,763.9482836614479,,,,,,,,,,,,,,,,,31,001,20,w,psychologie,2023-01-17_13h31.53.219,00_bat_bachelor,2022.2.4,59.954855841401894,
,,,,,,,,,,,,1,0,1,0,160,0,160,0,,,,,,,160,,,0.2,764.1485836855136,Y,d,go,d,1,0.24264320492511615,,,,,,,,,,,,,,,,,,31,001,20,w,psychologie,2023-01-17_13h31.53.219,00_bat_bachelor,2022.2.4,59.954855841401894,
,,,,,,,,,,,,1,0,1,0,161,0,161,0,,,,,,,161,,,0.2,764.6988937217393,Y,None,nogo,l,0,0.3968244635616429,,,,,,,,,,,,,,,,,,31,001,20,w,psychologie,2023-01-17_13h31.53.219,00_bat_bachelor,2022.2.4,59.954855841401894,
,,,,,,,,,,,,1,0,1,0,162,0,162,0,,,,,,,162,,,0.2,765.3993932608864,X,l,go,None,0,,766.2001477817539,,,,,,,,,,,,,,,,,31,001,20,w,psychologie,2023-01-17_13h31.53.219,00_bat_bachelor,2022.2.4,59.954855841401894,
,,,,,,,,,,,,1,0,1,0,163,0,163,0,,,,,,,163,,,0.2,766.4002975028707,Y,d,go,d,1,0.3755207163048908,,,,,,,,,,,,,,,,,,31,001,20,w,psychologie,2023-01-17_13h31.53.219,00_bat_bachelor,2022.2.4,59.954855841401894,
,,,,,,,,,,,,1,0,1,0,164,0,164,0,,,,,,,164,,,0.2,767.0841764440411,X,l,go,l,1,0.3952593734138645,,,,,,,,,,,,,,,,,,31,001,20,w,psychologie,2023-01-17_13h31.53.219,00_bat_bachelor,2022.2.4,59.954855841401894,
,,,,,,,,,,,,1,0,1,0,165,0,165,0,,,,,,,165,,,0.2,767.7847443468054,X,None,nogo,d,0,0.15828785189660266,,,,,,,,,,,,,,,,,,31,001,20,w,psychologie,2023-01-17_13h31.53.219,00_bat_bachelor,2022.2.4,59.954855841401894,
,,,,,,,,,,,,1,0,1,0,166,0,166,0,,,,,,,166,,,0.2,768.2515766053111,Y,d,go,d,1,0.6516466430621222,,,,,,,,,,,,,,,,,,31,001,20,w,psychologie,2023-01-17_13h31.53.219,00_bat_bachelor,2022.2.4,59.954855841401894,
,,,,,,,,,,,,1,0,1,0,167,0,167,0,,,,,,,167,,,0.2,769.2189710453385,X,l,go,l,1,0.5490372382337227,,,,,,,,,,,,,,,,,,31,001,20,w,psychologie,2023-01-17_13h31.53.219,00_bat_bachelor,2022.2.4,59.954855841401894,
,,,,,,,,,,,,1,0,1,0,168,0,168,0,,,,,,,168,,,0.2,770.0698491782532,X,None,nogo,None,1,,770.870354487095,,,,,,,,,,,,,,,,,31,001,20,w,psychologie,2023-01-17_13h31.53.219,00_bat_bachelor,2022.2.4,59.954855841401894,
,,,,,,,,,,,,1,0,1,0,169,0,169,0,,,,,,,169,,,0.2,771.0705769354827,Y,d,go,d,1,0.29760075407102704,,,,,,,,,,,,,,,,,,31,001,20,w,psychologie,2023-01-17_13h31.53.219,00_bat_bachelor,2022.2.4,59.954855841401894,
,,,,,,,,,,,,1,0,1,0,170,0,170,0,,,,,,,170,,,0.2,771.6711065836716,X,l,go,l,1,0.5441155435983092,,,,,,,,,,,,,,,,,,31,001,20,w,psychologie,2023-01-17_13h31.53.219,00_bat_bachelor,2022.2.4,59.954855841401894,
,,,,,,,,,,,,1,0,1,0,171,0,171,0,,,,,,,171,,,0.2,772.5216288379743,Y,d,go,d,1,0.3492695775348693,,,,,,,,,,,,,,,,,,31,001,20,w,psychologie,2023-01-17_13h31.53.219,00_bat_bachelor,2022.2.4,59.954855841401894,
,,,,,,,,,,,,1,0,1,0,172,0,172,0,,,,,,,172,,,0.2,773.1721817346988,Y,None,nogo,None,1,,773.9727568617091,,,,,,,,,,,,,,,,,31,001,20,w,psychologie,2023-01-17_13h31.53.219,00_bat_bachelor,2022.2.4,59.954855841401894,
,,,,,,,,,,,,1,0,1,0,173,0,173,0,,,,,,,173,,,0.2,774.1729594313074,X,l,go,l,1,0.21827521675731987,,,,,,,,,,,,,,,,,,31,001,20,w,psychologie,2023-01-17_13h31.53.219,00_bat_bachelor,2022.2.4,59.954855841401894,
,,,,,,,,,,,,1,0,1,0,174,0,174,0,,,,,,,174,,,0.2,774.7064762635273,Y,d,go,d,1,0.3724346571834758,,,,,,,,,,,,,,,,,,31,001,20,w,psychologie,2023-01-17_13h31.53.219,00_bat_bachelor,2022.2.4,59.954855841401894,
,,,,,,,,,,,,1,0,1,0,175,0,175,0,,,,,,,175,,,0.2,775.3905055076466,X,l,go,l,1,0.4728593357722275,,,,,,,,,,,,,,,,,,31,001,20,w,psychologie,2023-01-17_13h31.53.219,00_bat_bachelor,2022.2.4,59.954855841401894,
,,,,,,,,,,,,1,0,1,0,176,0,176,0,,,,,,,176,,,0.2,776.1744527638657,X,None,nogo,None,1,,776.9750356484437,,,,,,,,,,,,,,,,,31,001,20,w,psychologie,2023-01-17_13h31.53.219,00_bat_bachelor,2022.2.4,59.954855841401894,
,,,,,,,,,,,,1,0,1,0,177,0,177,0,,,,,,,177,,,0.2,777.1752183392528,Y,d,go,d,1,0.27294525085017085,,,,,,,,,,,,,,,,,,31,001,20,w,psychologie,2023-01-17_13h31.53.219,00_bat_bachelor,2022.2.4,59.954855841401894,
,,,,,,,,,,,,1,0,1,0,178,0,178,0,,,,,,,178,,,0.2,777.7589315107907,X,l,go,l,1,0.6319908949662931,,,,,,,,,,,,,,,,,,31,001,20,w,psychologie,2023-01-17_13h31.53.219,00_bat_bachelor,2022.2.4,59.954855841401894,
,,,,,,,,,,,,1,0,1,0,179,0,179,0,,,,,,,179,,,0.2,778.6930018457933,Y,d,go,d,1,0.3866858017863706,,,,,,,,,,,,,,,,,,31,001,20,w,psychologie,2023-01-17_13h31.53.219,00_bat_bachelor,2022.2.4,59.954855841401894,
,,,,,,,,,,,,1,0,1,0,180,0,180,0,,,,,,,180,,,0.2,779.3935251425137,X,l,go,l,1,0.4219056635047309,,,,,,,,,,,,,,,,,,31,001,20,w,psychologie,2023-01-17_13h31.53.219,00_bat_bachelor,2022.2.4,59.954855841401894,
,,,,,,,,,,,,1,0,1,0,181,0,181,0,,,,,,,181,,,0.2,780.127322604938,X,None,nogo,None,1,,780.9280674288166,,,,,,,,,,,,,,,,,31,001,20,w,psychologie,2023-01-17_13h31.53.219,00_bat_bachelor,2022.2.4,59.954855841401894,
,,,,,,,,,,,,1,0,1,0,182,0,182,0,,,,,,,182,,,0.2,781.1282089074957,Y,d,go,d,1,0.2868870623060502,,,,,,,,,,,,,,,,,,31,001,20,w,psychologie,2023-01-17_13h31.53.219,00_bat_bachelor,2022.2.4,59.954855841401894,
,,,,,,,,,,,,1,0,1,0,183,0,183,0,,,,,,,183,,,0.2,781.7286731012282,X,l,go,None,0,,782.5292642282438,,,,,,,,,,,,,,,,,31,001,20,w,psychologie,2023-01-17_13h31.53.219,00_bat_bachelor,2022.2.4,59.954855841401894,
,,,,,,,,,,,,1,0,1,0,184,0,184,0,,,,,,,184,,,0.2,782.7292723736609,X,None,nogo,d,0,0.15827912464737892,,,,,,,,,,,,,,,,,,31,001,20,w,psychologie,2023-01-17_13h31.53.219,00_bat_bachelor,2022.2.4,59.954855841401894,
,,,,,,,,,,,,1,0,1,0,185,0,185,0,,,,,,,185,,,0.2,783.1964527532109,Y,d,go,d,1,0.49090635729953647,,,,,,,,,,,,,,,,,,31,001,20,w,psychologie,2023-01-17_13h31.53.219,00_bat_bachelor,2022.2.4,59.954855841401894,
,,,,,,,,,,,,1,0,1,0,186,0,186,0,,,,,,,186,,,0.2,783.9970380620216,X,l,go,l,1,0.4266610551276244,,,,,,,,,,,,,,,,,,31,001,20,w,psychologie,2023-01-17_13h31.53.219,00_bat_bachelor,2022.2.4,59.954855841401894,
,,,,,,,,,,,,1,0,1,0,187,0,187,0,,,,,,,187,,,0.2,784.730772009294,Y,d,go,d,1,0.5410425754380412,,,,,,,,,,,,,,,,,,31,001,20,w,psychologie,2023-01-17_13h31.53.219,00_bat_bachelor,2022.2.4,59.954855841401894,
,,,,,,,,,,,,1,0,1,0,188,0,188,0,,,,,,,188,,,0.2,785.5814799604705,Y,None,nogo,l,0,0.29796342056943104,,,,,,,,,,,,,,,,,,31,001,20,w,psychologie,2023-01-17_13h31.53.219,00_bat_bachelor,2022.2.4,59.954855841401894,
,,,,,,,,,,,,1,0,1,0,189,0,189,0,,,,,,,189,,,0.2,786.1820527602104,X,l,go,l,1,0.44945474102860317,,,,,,,,,,,,,,,,,,31,001,20,w,psychologie,2023-01-17_13h31.53.219,00_bat_bachelor,2022.2.4,59.954855841401894,
,,,,,,,,,,,,1,0,1,0,190,0,190,0,,,,,,,190,,,0.2,786.9326225781115,Y,d,go,None,0,,787.7332830383675,,,,,,,,,,,,,,,,,31,001,20,w,psychologie,2023-01-17_13h31.53.219,00_bat_bachelor,2022.2.4,59.954855841401894,
,,,,,,,,,,,,1,0,1,0,191,0,191,0,,,,,,,191,,,0.2,787.9334380928776,Y,None,nogo,None,1,,788.7339123714482,,,,,,,,,,,,,,,,,31,001,20,w,psychologie,2023-01-17_13h31.53.219,00_bat_bachelor,2022.2.4,59.954855841401894,
,,,,,,,,,,,,1,0,1,0,192,0,192,0,,,,,,,192,,,0.2,788.9342463348876,Y,None,nogo,l,0,0.3051377201336436,,,,,,,,,,,,,,,,,,31,001,20,w,psychologie,2023-01-17_13h31.53.219,00_bat_bachelor,2022.2.4,59.954855841401894,
,,,,,,,,,,,,1,0,1,0,193,0,193,0,,,,,,,193,,,0.2,789.5511110055377,X,l,go,None,0,,790.3519712232519,,,,,,,,,,,,,,,,,31,001,20,w,psychologie,2023-01-17_13h31.53.219,00_bat_bachelor,2022.2.4,59.954855841401894,
,,,,,,,,,,,,1,0,1,0,194,0,194,0,,,,,,,194,,,0.2,790.5516511264723,Y,d,go,d,1,0.36770108371274546,,,,,,,,,,,,,,,,,,31,001,20,w,psychologie,2023-01-17_13h31.53.219,00_bat_bachelor,2022.2.4,59.954855841401894,
