loop_instruction.thisRepN,loop_instruction.thisTrialN,loop_instruction.thisN,loop_instruction.thisIndex,loop_rsi_practice.thisRepN,loop_rsi_practice.thisTrialN,loop_rsi_practice.thisN,loop_rsi_practice.thisIndex,loop_practice.thisRepN,loop_practice.thisTrialN,loop_practice.thisN,loop_practice.thisIndex,loop_exp.thisRepN,loop_exp.thisTrialN,loop_exp.thisN,loop_exp.thisIndex,loop_trials.thisRepN,loop_trials.thisTrialN,loop_trials.thisN,loop_trials.thisIndex,map_condition,map_x_key,map_y_key,key_resp_welcome.started,key_resp_welcome.keys,key_resp_welcome.rt,index,text_empty_rsi_practice.started,text_empty_rsi_practice.stopped,rsi,stimulus.started,stimulus,correct,trial_type,key_resp_trial.keys,key_resp_trial.corr,key_resp_trial.rt,stimulus.stopped,key_resp_instruction_rsi.started,key_resp_instruction_rsi.keys,key_resp_instruction_rsi.rt,key_resp_instruction_rsi.stopped,key_resp_instruction_final.started,key_resp_instruction_final.keys,key_resp_instruction_final.rt,key_resp_break.started,key_resp_break.keys,key_resp_break.rt,key_resp_break.stopped,key_resp_end_screen.started,image_end_screen.started,key_resp_end_screen.keys,key_resp_end_screen.rt,participant,session,Alter,Geschlecht (w/m/d/andere),Studiengang,date,expName,psychopyVersion,frameRate,
,,,,0,0,0,0,0,0,0,0,,,,,,,,,0,d,l,159.61750370060327,j,16.03421288507525,0,175.67140767446836,176.6852772435086,1,176.6852772435086,X,d,go,d,1,0.5316453711711802,,,,,,,,,,,,,,,,,32,001,19,w,B. Sc. Psychologie,2023-01-17_13h31.49.531,00_bat_bachelor,2022.2.4,60.04771789228216,
,,,,0,0,0,0,1,0,1,0,,,,,,,,,,,,,,,1,177.91839713047375,178.9182662214589,1,178.9182662214589,Y,l,go,l,1,0.298503181169508,,,,,,,,,,,,,,,,,32,001,19,w,B. Sc. Psychologie,2023-01-17_13h31.49.531,00_bat_bachelor,2022.2.4,60.04771789228216,
,,,,0,0,0,0,2,0,2,0,,,,,,,,,,,,,,,2,179.9179515549331,180.91812028213462,1,180.91812028213462,X,d,go,d,1,0.34716546059644315,,,,,,,,,,,,,,,,,32,001,19,w,B. Sc. Psychologie,2023-01-17_13h31.49.531,00_bat_bachelor,2022.2.4,60.04771789228216,
,,,,0,0,0,0,3,0,3,0,,,,,,,,,,,,,,,3,181.96850280315266,182.9683078941598,1,182.9683078941598,Y,l,go,l,1,0.24826175098132808,,,,,,,,,,,,,,,,,32,001,19,w,B. Sc. Psychologie,2023-01-17_13h31.49.531,00_bat_bachelor,2022.2.4,60.04771789228216,
,,,,0,0,0,0,4,0,4,0,,,,,,,,,,,,,,,4,183.91794913070044,184.91826185781974,1,184.91826185781974,Y,None,nogo,d,0,0.23404406091140117,,,,,,,,,,,,,,,,,32,001,19,w,B. Sc. Psychologie,2023-01-17_13h31.49.531,00_bat_bachelor,2022.2.4,60.04771789228216,
,,,,0,0,0,0,5,0,5,0,,,,,,,,,,,,,,,5,186.26836883959186,187.26829368810286,1,187.26829368810286,X,d,go,d,1,0.6202790251554688,,,,,,,,,,,,,,,,,32,001,19,w,B. Sc. Psychologie,2023-01-17_13h31.49.531,00_bat_bachelor,2022.2.4,60.04771789228216,
,,,,0,0,0,0,6,0,6,0,,,,,,,,,,,,,,,6,188.6013233448175,189.60132916299335,1,189.60132916299335,Y,l,go,l,1,0.36718436000228394,,,,,,,,,,,,,,,,,32,001,19,w,B. Sc. Psychologie,2023-01-17_13h31.49.531,00_bat_bachelor,2022.2.4,60.04771789228216,
,,,,0,0,0,0,7,0,7,0,,,,,,,,,,,,,,,7,190.66816500938148,191.66836670624616,1,191.66836670624616,X,d,go,d,1,0.3004091196344234,,,,,,,,,,,,,,,,,32,001,19,w,B. Sc. Psychologie,2023-01-17_13h31.49.531,00_bat_bachelor,2022.2.4,60.04771789228216,
,,,,0,0,0,0,8,0,8,0,,,,,,,,,,,,,,,8,192.68461348625715,193.68480645585805,1,193.68480645585805,X,None,nogo,None,1,,194.48485843159142,,,,,,,,,,,,,,,,32,001,19,w,B. Sc. Psychologie,2023-01-17_13h31.49.531,00_bat_bachelor,2022.2.4,60.04771789228216,
,,,,0,0,0,0,9,0,9,0,,,,,,,,,,,,,,,9,195.0849502618512,196.08508989814436,1,196.08508989814436,Y,l,go,l,1,0.47645412519341335,,,,,,,,,,,,,,,,,32,001,19,w,B. Sc. Psychologie,2023-01-17_13h31.49.531,00_bat_bachelor,2022.2.4,60.04771789228216,
,,,,0,0,0,0,10,0,10,0,,,,,,,,,,,,,,,10,197.26837514260842,198.26818411239947,1,198.26818411239947,X,d,go,d,1,0.42083572791307233,,,,,,,,,,,,,,,,,32,001,19,w,B. Sc. Psychologie,2023-01-17_13h31.49.531,00_bat_bachelor,2022.2.4,60.04771789228216,
,,,,0,0,0,0,11,0,11,0,,,,,,,,,,,,,,,11,199.40129289634933,200.4013074418035,1,200.4013074418035,Y,l,go,l,1,0.25478295994980726,,,,,,,,,,,,,,,,,32,001,19,w,B. Sc. Psychologie,2023-01-17_13h31.49.531,00_bat_bachelor,2022.2.4,60.04771789228216,
,,,,0,0,0,0,12,0,12,0,,,,,,,,,,,,,,,12,201.36828442750266,202.36796830644016,1,202.36796830644016,Y,None,nogo,None,1,,203.16827240327257,,,,,,,,,,,,,,,,32,001,19,w,B. Sc. Psychologie,2023-01-17_13h31.49.531,00_bat_bachelor,2022.2.4,60.04771789228216,
,,,,0,0,0,0,13,0,13,0,,,,,,,,,,,,,,,13,203.76828520325944,204.76794241555035,1,204.76794241555035,X,d,go,d,1,0.3368697080295533,,,,,,,,,,,,,,,,,32,001,19,w,B. Sc. Psychologie,2023-01-17_13h31.49.531,00_bat_bachelor,2022.2.4,60.04771789228216,
,,,,0,0,0,0,14,0,14,0,,,,,,,,,,,,,,,14,205.81825366387784,206.818258027517,1,206.818258027517,Y,l,go,l,1,0.3186772319895681,,,,,,,,,,,,,,,,,32,001,19,w,B. Sc. Psychologie,2023-01-17_13h31.49.531,00_bat_bachelor,2022.2.4,60.04771789228216,
,,,,1,0,1,0,0,0,0,0,,,,,,,,,,,,,,,0,223.93505603149242,224.1351616314496,0.2,224.1351616314496,X,d,go,None,0,,224.9349081527762,207.86314042999584,j,16.04516463734035,,,,,,,,,,,,,32,001,19,w,B. Sc. Psychologie,2023-01-17_13h31.49.531,00_bat_bachelor,2022.2.4,60.04771789228216,
,,,,1,0,1,0,1,0,1,0,,,,,,,,,,,,,,,1,225.5350668921019,225.73504934058292,0.2,225.73504934058292,Y,l,go,l,1,0.3945491952181328,,,,,,,,,,,,,,,,,32,001,19,w,B. Sc. Psychologie,2023-01-17_13h31.49.531,00_bat_bachelor,2022.2.4,60.04771789228216,
,,,,1,0,1,0,2,0,2,0,,,,,,,,,,,,,,,2,226.83508226177946,227.03507925572922,0.2,227.03507925572922,X,d,go,d,1,0.4054500384081621,,,,,,,,,,,,,,,,,32,001,19,w,B. Sc. Psychologie,2023-01-17_13h31.49.531,00_bat_bachelor,2022.2.4,60.04771789228216,
,,,,1,0,1,0,3,0,3,0,,,,,,,,,,,,,,,3,228.1515441689553,228.35183546578628,0.2,228.35183546578628,Y,l,go,l,1,0.2411000574938953,,,,,,,,,,,,,,,,,32,001,19,w,B. Sc. Psychologie,2023-01-17_13h31.49.531,00_bat_bachelor,2022.2.4,60.04771789228216,
,,,,1,0,1,0,4,0,4,0,,,,,,,,,,,,,,,4,229.30168276283075,229.50173502946564,0.2,229.50173502946564,Y,None,nogo,None,1,,230.30178215671913,,,,,,,,,,,,,,,,32,001,19,w,B. Sc. Psychologie,2023-01-17_13h31.49.531,00_bat_bachelor,2022.2.4,60.04771789228216,
,,,,1,0,1,0,5,0,5,0,,,,,,,,,,,,,,,5,230.90179010822612,231.10144382961153,0.2,231.10144382961153,X,d,go,d,1,0.3549487295676954,,,,,,,,,,,,,,,,,32,001,19,w,B. Sc. Psychologie,2023-01-17_13h31.49.531,00_bat_bachelor,2022.2.4,60.04771789228216,
,,,,1,0,1,0,6,0,6,0,,,,,,,,,,,,,,,6,232.16829470629455,232.3681510942406,0.2,232.3681510942406,Y,l,go,l,1,0.2557739897602005,,,,,,,,,,,,,,,,,32,001,19,w,B. Sc. Psychologie,2023-01-17_13h31.49.531,00_bat_bachelor,2022.2.4,60.04771789228216,
,,,,1,0,1,0,7,0,7,0,,,,,,,,,,,,,,,7,233.3350340193865,233.5349146497465,0.2,233.5349146497465,X,d,go,d,1,0.2418384813790908,,,,,,,,,,,,,,,,,32,001,19,w,B. Sc. Psychologie,2023-01-17_13h31.49.531,00_bat_bachelor,2022.2.4,60.04771789228216,
,,,,1,0,1,0,8,0,8,0,,,,,,,,,,,,,,,8,234.48506206784805,234.6849470618472,0.2,234.6849470618472,Y,l,go,l,1,0.16397330700419843,,,,,,,,,,,,,,,,,32,001,19,w,B. Sc. Psychologie,2023-01-17_13h31.49.531,00_bat_bachelor,2022.2.4,60.04771789228216,
,,,,1,0,1,0,9,0,9,0,,,,,,,,,,,,,,,9,235.5516055507469,235.75169999917853,0.2,235.75169999917853,X,d,go,d,1,0.23317133406817447,,,,,,,,,,,,,,,,,32,001,19,w,B. Sc. Psychologie,2023-01-17_13h31.49.531,00_bat_bachelor,2022.2.4,60.04771789228216,
,,,,1,0,1,0,10,0,10,0,,,,,,,,,,,,,,,10,236.68509251633077,236.88489120732993,0.2,236.88489120732993,X,None,nogo,l,0,0.26803725655190647,,,,,,,,,,,,,,,,,32,001,19,w,B. Sc. Psychologie,2023-01-17_13h31.49.531,00_bat_bachelor,2022.2.4,60.04771789228216,
,,,,1,0,1,0,11,0,11,0,,,,,,,,,,,,,,,11,238.26792326403665,238.46790813677944,0.2,238.46790813677944,Y,l,go,l,1,0.4936521774652647,,,,,,,,,,,,,,,,,32,001,19,w,B. Sc. Psychologie,2023-01-17_13h31.49.531,00_bat_bachelor,2022.2.4,60.04771789228216,
,,,,1,0,1,0,12,0,12,0,,,,,,,,,,,,,,,12,239.66792307009746,239.86799957916082,0.2,239.86799957916082,X,d,go,d,1,0.3882524709770223,,,,,,,,,,,,,,,,,32,001,19,w,B. Sc. Psychologie,2023-01-17_13h31.49.531,00_bat_bachelor,2022.2.4,60.04771789228216,
,,,,1,0,1,0,13,0,13,0,,,,,,,,,,,,,,,13,240.96793165191775,241.16792961554893,0.2,241.16792961554893,X,None,nogo,None,1,,241.96799807612842,,,,,,,,,,,,,,,,32,001,19,w,B. Sc. Psychologie,2023-01-17_13h31.49.531,00_bat_bachelor,2022.2.4,60.04771789228216,
,,,,1,0,1,0,14,0,14,0,,,,,,,,,,,,,,,14,242.56791148222692,242.76792787009617,0.2,242.76792787009617,Y,l,go,l,1,0.43285511602880433,,,,,,,,,,,,,,,,,32,001,19,w,B. Sc. Psychologie,2023-01-17_13h31.49.531,00_bat_bachelor,2022.2.4,60.04771789228216,
,,,,,,,,,,,,,,,,,,,,,,,,,,,,,,,,,,,,,,243.93430500155955,None,,243.93430500155955,243.93430500155955,space,6.453760318021523,,,,,,,,,32,001,19,w,B. Sc. Psychologie,2023-01-17_13h31.49.531,00_bat_bachelor,2022.2.4,60.04771789228216,
,,,,,,,,,,,,0,0,0,0,0,0,0,0,,,,,,,0,,,1,251.41819373663748,X,d,go,d,1,0.2791271905734902,,,,,,,,,,,,,,,,,32,001,19,w,B. Sc. Psychologie,2023-01-17_13h31.49.531,00_bat_bachelor,2022.2.4,60.04771789228216,
,,,,,,,,,,,,0,0,0,0,1,0,1,0,,,,,,,1,,,1,252.80124615697423,Y,l,go,l,1,0.3504309135605581,,,,,,,,,,,,,,,,,32,001,19,w,B. Sc. Psychologie,2023-01-17_13h31.49.531,00_bat_bachelor,2022.2.4,60.04771789228216,
,,,,,,,,,,,,0,0,0,0,2,0,2,0,,,,,,,2,,,1,254.26821174875658,X,d,go,d,1,0.37284593300137203,,,,,,,,,,,,,,,,,32,001,19,w,B. Sc. Psychologie,2023-01-17_13h31.49.531,00_bat_bachelor,2022.2.4,60.04771789228216,
,,,,,,,,,,,,0,0,0,0,3,0,3,0,,,,,,,3,,,1,255.75157199923706,X,None,nogo,None,1,,256.55126858121366,,,,,,,,,,,,,,,,32,001,19,w,B. Sc. Psychologie,2023-01-17_13h31.49.531,00_bat_bachelor,2022.2.4,60.04771789228216,
,,,,,,,,,,,,0,0,0,0,4,0,4,0,,,,,,,4,,,1,257.5514717326296,X,None,nogo,None,1,,258.3516647991928,,,,,,,,,,,,,,,,32,001,19,w,B. Sc. Psychologie,2023-01-17_13h31.49.531,00_bat_bachelor,2022.2.4,60.04771789228216,
,,,,,,,,,,,,0,0,0,0,5,0,5,0,,,,,,,5,,,1,259.3515610416798,Y,l,go,l,1,0.26464671273424756,,,,,,,,,,,,,,,,,32,001,19,w,B. Sc. Psychologie,2023-01-17_13h31.49.531,00_bat_bachelor,2022.2.4,60.04771789228216,
,,,,,,,,,,,,0,0,0,0,6,0,6,0,,,,,,,6,,,1,260.71799577309866,X,d,go,d,1,0.29075336674577557,,,,,,,,,,,,,,,,,32,001,19,w,B. Sc. Psychologie,2023-01-17_13h31.49.531,00_bat_bachelor,2022.2.4,60.04771789228216,
,,,,,,,,,,,,0,0,0,0,7,0,7,0,,,,,,,7,,,1,262.11824333661934,X,None,nogo,None,1,,262.9183981001697,,,,,,,,,,,,,,,,32,001,19,w,B. Sc. Psychologie,2023-01-17_13h31.49.531,00_bat_bachelor,2022.2.4,60.04771789228216,
,,,,,,,,,,,,0,0,0,0,8,0,8,0,,,,,,,8,,,1,263.91837773655425,Y,l,go,l,1,0.4343159638083307,,,,,,,,,,,,,,,,,32,001,19,w,B. Sc. Psychologie,2023-01-17_13h31.49.531,00_bat_bachelor,2022.2.4,60.04771789228216,
,,,,,,,,,,,,0,0,0,0,9,0,9,0,,,,,,,9,,,1,265.46792704585823,X,d,go,d,1,0.5325476737634744,,,,,,,,,,,,,,,,,32,001,19,w,B. Sc. Psychologie,2023-01-17_13h31.49.531,00_bat_bachelor,2022.2.4,60.04771789228216,
,,,,,,,,,,,,0,0,0,0,10,0,10,0,,,,,,,10,,,1,267.10156989016104,Y,l,go,l,1,0.4351605694537284,,,,,,,,,,,,,,,,,32,001,19,w,B. Sc. Psychologie,2023-01-17_13h31.49.531,00_bat_bachelor,2022.2.4,60.04771789228216,
,,,,,,,,,,,,0,0,0,0,11,0,11,0,,,,,,,11,,,1,268.6514304720331,X,d,go,d,1,0.26264331977290567,,,,,,,,,,,,,,,,,32,001,19,w,B. Sc. Psychologie,2023-01-17_13h31.49.531,00_bat_bachelor,2022.2.4,60.04771789228216,
,,,,,,,,,,,,0,0,0,0,12,0,12,0,,,,,,,12,,,1,270.0182695669064,Y,l,go,l,1,0.3345361333922483,,,,,,,,,,,,,,,,,32,001,19,w,B. Sc. Psychologie,2023-01-17_13h31.49.531,00_bat_bachelor,2022.2.4,60.04771789228216,
,,,,,,,,,,,,0,0,0,0,13,0,13,0,,,,,,,13,,,1,271.46808995486936,Y,None,nogo,None,1,,272.2680444761063,,,,,,,,,,,,,,,,32,001,19,w,B. Sc. Psychologie,2023-01-17_13h31.49.531,00_bat_bachelor,2022.2.4,60.04771789228216,
,,,,,,,,,,,,0,0,0,0,14,0,14,0,,,,,,,14,,,1,273.2682374457072,X,d,go,d,1,0.2680799231893616,,,,,,,,,,,,,,,,,32,001,19,w,B. Sc. Psychologie,2023-01-17_13h31.49.531,00_bat_bachelor,2022.2.4,60.04771789228216,
,,,,,,,,,,,,0,0,0,0,15,0,15,0,,,,,,,15,,,1,274.651310229674,Y,l,go,l,1,0.26117616896226536,,,,,,,,,,,,,,,,,32,001,19,w,B. Sc. Psychologie,2023-01-17_13h31.49.531,00_bat_bachelor,2022.2.4,60.04771789228216,
,,,,,,,,,,,,0,0,0,0,16,0,16,0,,,,,,,16,,,1,276.0179519913072,X,d,go,d,1,0.254911444731988,,,,,,,,,,,,,,,,,32,001,19,w,B. Sc. Psychologie,2023-01-17_13h31.49.531,00_bat_bachelor,2022.2.4,60.04771789228216,
,,,,,,,,,,,,0,0,0,0,17,0,17,0,,,,,,,17,,,1,277.40158041135874,Y,l,go,l,1,0.36018896944005974,,,,,,,,,,,,,,,,,32,001,19,w,B. Sc. Psychologie,2023-01-17_13h31.49.531,00_bat_bachelor,2022.2.4,60.04771789228216,
,,,,,,,,,,,,0,0,0,0,18,0,18,0,,,,,,,18,,,1,278.86823182147054,X,d,go,d,1,0.34819430859351996,,,,,,,,,,,,,,,,,32,001,19,w,B. Sc. Psychologie,2023-01-17_13h31.49.531,00_bat_bachelor,2022.2.4,60.04771789228216,
,,,,,,,,,,,,0,0,0,0,19,0,19,0,,,,,,,19,,,1,280.3182451790344,X,None,nogo,None,1,,281.11803921550745,,,,,,,,,,,,,,,,32,001,19,w,B. Sc. Psychologie,2023-01-17_13h31.49.531,00_bat_bachelor,2022.2.4,60.04771789228216,
,,,,,,,,,,,,0,0,0,0,20,0,20,0,,,,,,,20,,,1,282.118234609341,Y,l,go,l,1,0.4274626337864902,,,,,,,,,,,,,,,,,32,001,19,w,B. Sc. Psychologie,2023-01-17_13h31.49.531,00_bat_bachelor,2022.2.4,60.04771789228216,
,,,,,,,,,,,,0,0,0,0,21,0,21,0,,,,,,,21,,,1,283.65178392641246,X,d,go,d,1,0.3647911490261322,,,,,,,,,,,,,,,,,32,001,19,w,B. Sc. Psychologie,2023-01-17_13h31.49.531,00_bat_bachelor,2022.2.4,60.04771789228216,
,,,,,,,,,,,,0,0,0,0,22,0,22,0,,,,,,,22,,,1,285.11821812450944,X,None,nogo,None,1,,285.91790646404843,,,,,,,,,,,,,,,,32,001,19,w,B. Sc. Psychologie,2023-01-17_13h31.49.531,00_bat_bachelor,2022.2.4,60.04771789228216,
,,,,,,,,,,,,0,0,0,0,23,0,23,0,,,,,,,23,,,1,286.91799276703387,Y,l,go,l,1,0.4268827552878065,,,,,,,,,,,,,,,,,32,001,19,w,B. Sc. Psychologie,2023-01-17_13h31.49.531,00_bat_bachelor,2022.2.4,60.04771789228216,
,,,,,,,,,,,,0,0,0,0,24,0,24,0,,,,,,,24,,,1,288.4515532356163,X,d,go,d,1,0.333989224571269,,,,,,,,,,,,,,,,,32,001,19,w,B. Sc. Psychologie,2023-01-17_13h31.49.531,00_bat_bachelor,2022.2.4,60.04771789228216,
,,,,,,,,,,,,0,0,0,0,25,0,25,0,,,,,,,25,,,1,289.90155980530835,Y,l,go,l,1,0.35465103274327703,,,,,,,,,,,,,,,,,32,001,19,w,B. Sc. Psychologie,2023-01-17_13h31.49.531,00_bat_bachelor,2022.2.4,60.04771789228216,
,,,,,,,,,,,,0,0,0,0,26,0,26,0,,,,,,,26,,,1,291.36833194263454,X,d,go,d,1,0.26508598525833804,,,,,,,,,,,,,,,,,32,001,19,w,B. Sc. Psychologie,2023-01-17_13h31.49.531,00_bat_bachelor,2022.2.4,60.04771789228216,
,,,,,,,,,,,,0,0,0,0,27,0,27,0,,,,,,,27,,,1,292.73477346193977,X,None,nogo,None,1,,,,,,,,,,,,,,,,,,32,001,19,w,B. Sc. Psychologie,2023-01-17_13h31.49.531,00_bat_bachelor,2022.2.4,60.04771789228216,
,,,,,,,,,,,,0,0,0,0,28,0,28,0,,,,,,,28,,,1,294.5352569526149,Y,l,go,l,1,0.3462326125736581,,,,,,,,,,,,,,,,,32,001,19,w,B. Sc. Psychologie,2023-01-17_13h31.49.531,00_bat_bachelor,2022.2.4,60.04771789228216,
,,,,,,,,,,,,0,0,0,0,29,0,29,0,,,,,,,29,,,1,295.98527031017875,X,d,go,d,1,0.3513438828231301,,,,,,,,,,,,,,,,,32,001,19,w,B. Sc. Psychologie,2023-01-17_13h31.49.531,00_bat_bachelor,2022.2.4,60.04771789228216,
,,,,,,,,,,,,0,0,0,0,30,0,30,0,,,,,,,30,,,1,297.451955174809,X,None,nogo,None,1,,298.251705574934,,,,,,,,,,,,,,,,32,001,19,w,B. Sc. Psychologie,2023-01-17_13h31.49.531,00_bat_bachelor,2022.2.4,60.04771789228216,
,,,,,,,,,,,,0,0,0,0,31,0,31,0,,,,,,,31,,,1,299.251916968773,Y,l,go,l,1,0.36486096717999317,,,,,,,,,,,,,,,,,32,001,19,w,B. Sc. Psychologie,2023-01-17_13h31.49.531,00_bat_bachelor,2022.2.4,60.04771789228216,
,,,,,,,,,,,,0,0,0,0,32,0,32,0,,,,,,,32,,,1,300.7184859546833,X,d,go,d,1,0.24160429967741948,,,,,,,,,,,,,,,,,32,001,19,w,B. Sc. Psychologie,2023-01-17_13h31.49.531,00_bat_bachelor,2022.2.4,60.04771789228216,
,,,,,,,,,,,,0,0,0,0,33,0,33,0,,,,,,,33,,,1,302.08527995865734,X,None,nogo,None,1,,302.8850482981652,,,,,,,,,,,,,,,,32,001,19,w,B. Sc. Psychologie,2023-01-17_13h31.49.531,00_bat_bachelor,2022.2.4,60.04771789228216,
,,,,,,,,,,,,0,0,0,0,34,0,34,0,,,,,,,34,,,1,303.88521411626425,Y,l,go,l,1,0.26014877553097904,,,,,,,,,,,,,,,,,32,001,19,w,B. Sc. Psychologie,2023-01-17_13h31.49.531,00_bat_bachelor,2022.2.4,60.04771789228216,
,,,,,,,,,,,,0,0,0,0,35,0,35,0,,,,,,,35,,,1,305.26860593038145,X,d,go,d,1,0.2675097416504286,,,,,,,,,,,,,,,,,32,001,19,w,B. Sc. Psychologie,2023-01-17_13h31.49.531,00_bat_bachelor,2022.2.4,60.04771789228216,
,,,,,,,,,,,,0,0,0,0,36,0,36,0,,,,,,,36,,,1,306.6683458577754,Y,l,go,l,1,0.2760498587304028,,,,,,,,,,,,,,,,,32,001,19,w,B. Sc. Psychologie,2023-01-17_13h31.49.531,00_bat_bachelor,2022.2.4,60.04771789228216,
,,,,,,,,,,,,0,0,0,0,37,0,37,0,,,,,,,37,,,1,308.05174445976445,X,d,go,d,1,0.33243674047116656,,,,,,,,,,,,,,,,,32,001,19,w,B. Sc. Psychologie,2023-01-17_13h31.49.531,00_bat_bachelor,2022.2.4,60.04771789228216,
,,,,,,,,,,,,0,0,0,0,38,0,38,0,,,,,,,38,,,1,309.48498109819775,Y,l,go,l,1,0.29171724505431484,,,,,,,,,,,,,,,,,32,001,19,w,B. Sc. Psychologie,2023-01-17_13h31.49.531,00_bat_bachelor,2022.2.4,60.04771789228216,
,,,,,,,,,,,,0,0,0,0,39,0,39,0,,,,,,,39,,,1,310.88503908604616,X,d,go,d,1,0.2844493698066799,,,,,,,,,,,,,,,,,32,001,19,w,B. Sc. Psychologie,2023-01-17_13h31.49.531,00_bat_bachelor,2022.2.4,60.04771789228216,
,,,,,,,,,,,,0,0,0,0,40,0,40,0,,,,,,,40,,,1,312.2852207101969,X,None,nogo,None,1,,313.08522080717376,,,,,,,,,,,,,,,,32,001,19,w,B. Sc. Psychologie,2023-01-17_13h31.49.531,00_bat_bachelor,2022.2.4,60.04771789228216,
,,,,,,,,,,,,0,0,0,0,41,0,41,0,,,,,,,41,,,1,314.0851800799137,Y,l,go,l,1,0.3958204673253931,,,,,,,,,,,,,,,,,32,001,19,w,B. Sc. Psychologie,2023-01-17_13h31.49.531,00_bat_bachelor,2022.2.4,60.04771789228216,
,,,,,,,,,,,,0,0,0,0,42,0,42,0,,,,,,,42,,,1,315.6017679506622,X,d,go,d,1,0.2072266193717951,,,,,,,,,,,,,,,,,32,001,19,w,B. Sc. Psychologie,2023-01-17_13h31.49.531,00_bat_bachelor,2022.2.4,60.04771789228216,
,,,,,,,,,,,,0,0,0,0,43,0,43,0,,,,,,,43,,,1,316.91863373642263,Y,l,go,l,1,0.1856843267887598,,,,,,,,,,,,,,,,,32,001,19,w,B. Sc. Psychologie,2023-01-17_13h31.49.531,00_bat_bachelor,2022.2.4,60.04771789228216,
,,,,,,,,,,,,0,0,0,0,44,0,44,0,,,,,,,44,,,1,318.2348992800544,Y,None,nogo,None,1,,319.03510398298386,,,,,,,,,,,,,,,,32,001,19,w,B. Sc. Psychologie,2023-01-17_13h31.49.531,00_bat_bachelor,2022.2.4,60.04771789228216,
,,,,,,,,,,,,0,0,0,0,45,0,45,0,,,,,,,45,,,1,320.0350254375662,X,d,go,d,1,0.25345350604038686,,,,,,,,,,,,,,,,,32,001,19,w,B. Sc. Psychologie,2023-01-17_13h31.49.531,00_bat_bachelor,2022.2.4,60.04771789228216,
,,,,,,,,,,,,0,0,0,0,46,0,46,0,,,,,,,46,,,1,321.40153241138614,Y,l,go,l,1,0.2468154486559797,,,,,,,,,,,,,,,,,32,001,19,w,B. Sc. Psychologie,2023-01-17_13h31.49.531,00_bat_bachelor,2022.2.4,60.04771789228216,
,,,,,,,,,,,,0,0,0,0,47,0,47,0,,,,,,,47,,,1,322.7683041123382,X,d,go,d,1,0.3043475419690367,,,,,,,,,,,,,,,,,32,001,19,w,B. Sc. Psychologie,2023-01-17_13h31.49.531,00_bat_bachelor,2022.2.4,60.04771789228216,
,,,,,,,,,,,,0,0,0,0,48,0,48,0,,,,,,,48,,,1,324.1849773648719,X,None,nogo,None,1,,324.9850497042207,,,,,,,,,,,,,,,,32,001,19,w,B. Sc. Psychologie,2023-01-17_13h31.49.531,00_bat_bachelor,2022.2.4,60.04771789228216,
,,,,,,,,,,,,0,0,0,0,49,0,49,0,,,,,,,49,,,1,325.9850050981913,Y,l,go,l,1,0.40027864697913174,,,,,,,,,,,,,,,,,32,001,19,w,B. Sc. Psychologie,2023-01-17_13h31.49.531,00_bat_bachelor,2022.2.4,60.04771789228216,
,,,,,,,,,,,,0,0,0,0,50,0,50,0,,,,,,,50,,,1,327.4848836437013,X,d,go,d,1,0.34000376710901037,,,,,,,,,,,,,,,,,32,001,19,w,B. Sc. Psychologie,2023-01-17_13h31.49.531,00_bat_bachelor,2022.2.4,60.04771789228216,
,,,,,,,,,,,,0,0,0,0,51,0,51,0,,,,,,,51,,,1,328.9349033042963,Y,l,go,l,1,0.3302214688301319,,,,,,,,,,,,,,,,,32,001,19,w,B. Sc. Psychologie,2023-01-17_13h31.49.531,00_bat_bachelor,2022.2.4,60.04771789228216,
,,,,,,,,,,,,0,0,0,0,52,0,52,0,,,,,,,52,,,1,330.3680710942717,X,d,go,d,1,0.32027335242310073,,,,,,,,,,,,,,,,,32,001,19,w,B. Sc. Psychologie,2023-01-17_13h31.49.531,00_bat_bachelor,2022.2.4,60.04771789228216,
,,,,,,,,,,,,0,0,0,0,53,0,53,0,,,,,,,53,,,1,331.80153221744695,Y,l,go,l,1,0.3446893405925948,,,,,,,,,,,,,,,,,32,001,19,w,B. Sc. Psychologie,2023-01-17_13h31.49.531,00_bat_bachelor,2022.2.4,60.04771789228216,
,,,,,,,,,,,,0,0,0,0,54,0,54,0,,,,,,,54,,,1,333.25148254474334,Y,None,nogo,None,1,,334.0515859143925,,,,,,,,,,,,,,,,32,001,19,w,B. Sc. Psychologie,2023-01-17_13h31.49.531,00_bat_bachelor,2022.2.4,60.04771789228216,
,,,,,,,,,,,,0,0,0,0,55,0,55,0,,,,,,,55,,,1,335.05153403562144,X,d,go,d,1,0.35795672809763346,,,,,,,,,,,,,,,,,32,001,19,w,B. Sc. Psychologie,2023-01-17_13h31.49.531,00_bat_bachelor,2022.2.4,60.04771789228216,
,,,,,,,,,,,,0,0,0,0,56,0,56,0,,,,,,,56,,,1,336.51827271841466,Y,l,go,l,1,0.33127165013866033,,,,,,,,,,,,,,,,,32,001,19,w,B. Sc. Psychologie,2023-01-17_13h31.49.531,00_bat_bachelor,2022.2.4,60.04771789228216,
,,,,,,,,,,,,0,0,0,0,57,0,57,0,,,,,,,57,,,1,337.95134499330015,X,d,go,d,1,0.36915817721455824,,,,,,,,,,,,,,,,,32,001,19,w,B. Sc. Psychologie,2023-01-17_13h31.49.531,00_bat_bachelor,2022.2.4,60.04771789228216,
,,,,,,,,,,,,0,0,0,0,58,0,58,0,,,,,,,58,,,1,339.4348710618797,X,None,nogo,None,1,,340.23457637112006,,,,,,,,,,,,,,,,32,001,19,w,B. Sc. Psychologie,2023-01-17_13h31.49.531,00_bat_bachelor,2022.2.4,60.04771789228216,
,,,,,,,,,,,,0,0,0,0,59,0,59,0,,,,,,,59,,,1,341.23486000734556,Y,l,go,l,1,0.38232180720660836,,,,,,,,,,,,,,,,,32,001,19,w,B. Sc. Psychologie,2023-01-17_13h31.49.531,00_bat_bachelor,2022.2.4,60.04771789228216,
,,,,,,,,,,,,0,0,0,0,60,0,60,0,,,,,,,60,,,1,342.71819601542666,X,d,go,d,1,0.27510198039817624,,,,,,,,,,,,,,,,,32,001,19,w,B. Sc. Psychologie,2023-01-17_13h31.49.531,00_bat_bachelor,2022.2.4,60.04771789228216,
,,,,,,,,,,,,0,0,0,0,61,0,61,0,,,,,,,61,,,1,344.10163243557326,Y,l,go,l,1,0.3471097030560486,,,,,,,,,,,,,,,,,32,001,19,w,B. Sc. Psychologie,2023-01-17_13h31.49.531,00_bat_bachelor,2022.2.4,60.04771789228216,
,,,,,,,,,,,,0,0,0,0,62,0,62,0,,,,,,,62,,,1,345.5515352477523,X,d,go,d,1,0.2580513219872955,,,,,,,,,,,,,,,,,32,001,19,w,B. Sc. Psychologie,2023-01-17_13h31.49.531,00_bat_bachelor,2022.2.4,60.04771789228216,
,,,,,,,,,,,,0,0,0,0,63,0,63,0,,,,,,,63,,,1,346.9184970092174,Y,l,go,l,1,0.29984233203867916,,,,,,,,,,,,,,,,,32,001,19,w,B. Sc. Psychologie,2023-01-17_13h31.49.531,00_bat_bachelor,2022.2.4,60.04771789228216,
,,,,,,,,,,,,0,0,0,0,64,0,64,0,,,,,,,64,,,1,348.3179082095012,X,d,go,d,1,0.32288910874922294,,,,,,,,,,,,,,,,,32,001,19,w,B. Sc. Psychologie,2023-01-17_13h31.49.531,00_bat_bachelor,2022.2.4,60.04771789228216,
,,,,,,,,,,,,0,0,0,0,65,0,65,0,,,,,,,65,,,1,349.7515695750044,X,None,nogo,l,0,0.2662636816530721,,,,,,,,,,,,,,,,,32,001,19,w,B. Sc. Psychologie,2023-01-17_13h31.49.531,00_bat_bachelor,2022.2.4,60.04771789228216,
,,,,,,,,,,,,0,0,0,0,66,0,66,0,,,,,,,66,,,1,351.1180013973353,X,None,nogo,None,1,,351.91818767604127,,,,,,,,,,,,,,,,32,001,19,w,B. Sc. Psychologie,2023-01-17_13h31.49.531,00_bat_bachelor,2022.2.4,60.04771789228216,
,,,,,,,,,,,,0,0,0,0,67,0,67,0,,,,,,,67,,,1,352.91818913057796,Y,l,go,l,1,0.4739678233745508,,,,,,,,,,,,,,,,,32,001,19,w,B. Sc. Psychologie,2023-01-17_13h31.49.531,00_bat_bachelor,2022.2.4,60.04771789228216,
,,,,,,,,,,,,0,0,0,0,68,0,68,0,,,,,,,68,,,1,354.5015139386669,X,d,go,d,1,0.39608277022489347,,,,,,,,,,,,,,,,,32,001,19,w,B. Sc. Psychologie,2023-01-17_13h31.49.531,00_bat_bachelor,2022.2.4,60.04771789228216,
,,,,,,,,,,,,0,0,0,0,69,0,69,0,,,,,,,69,,,1,356.00155296895537,Y,l,go,l,1,0.33514995127916336,,,,,,,,,,,,,,,,,32,001,19,w,B. Sc. Psychologie,2023-01-17_13h31.49.531,00_bat_bachelor,2022.2.4,60.04771789228216,
,,,,,,,,,,,,0,0,0,0,70,0,70,0,,,,,,,70,,,1,357.4515105689643,Y,None,nogo,None,1,,358.2515009689814,,,,,,,,,,,,,,,,32,001,19,w,B. Sc. Psychologie,2023-01-17_13h31.49.531,00_bat_bachelor,2022.2.4,60.04771789228216,
,,,,,,,,,,,,0,0,0,0,71,0,71,0,,,,,,,71,,,1,359.2512730902963,X,d,go,d,1,0.2535907181008952,,,,,,,,,,,,,,,,,32,001,19,w,B. Sc. Psychologie,2023-01-17_13h31.49.531,00_bat_bachelor,2022.2.4,60.04771789228216,
,,,,,,,,,,,,0,0,0,0,72,0,72,0,,,,,,,72,,,1,360.6184326698567,Y,l,go,l,1,0.2639897433691658,,,,,,,,,,,,,,,,,32,001,19,w,B. Sc. Psychologie,2023-01-17_13h31.49.531,00_bat_bachelor,2022.2.4,60.04771789228216,
,,,,,,,,,,,,0,0,0,0,73,0,73,0,,,,,,,73,,,1,361.9845158863027,X,d,go,d,1,0.2568236862280173,,,,,,,,,,,,,,,,,32,001,19,w,B. Sc. Psychologie,2023-01-17_13h31.49.531,00_bat_bachelor,2022.2.4,60.04771789228216,
,,,,,,,,,,,,0,0,0,0,74,0,74,0,,,,,,,74,,,1,363.35131619330787,Y,l,go,l,1,0.24917568993987516,,,,,,,,,,,,,,,,,32,001,19,w,B. Sc. Psychologie,2023-01-17_13h31.49.531,00_bat_bachelor,2022.2.4,60.04771789228216,
,,,,,,,,,,,,0,0,0,0,75,0,75,0,,,,,,,75,,,1,364.7015400234959,Y,None,nogo,d,0,0.2909763969510095,,,,,,,,,,,,,,,,,32,001,19,w,B. Sc. Psychologie,2023-01-17_13h31.49.531,00_bat_bachelor,2022.2.4,60.04771789228216,
,,,,,,,,,,,,0,0,0,0,76,0,76,0,,,,,,,76,,,1,366.1011572842981,X,d,go,d,1,0.29896621125226375,,,,,,,,,,,,,,,,,32,001,19,w,B. Sc. Psychologie,2023-01-17_13h31.49.531,00_bat_bachelor,2022.2.4,60.04771789228216,
,,,,,,,,,,,,0,0,0,0,77,0,77,0,,,,,,,77,,,1,367.5014848477731,Y,l,go,l,1,0.32373662348254584,,,,,,,,,,,,,,,,,32,001,19,w,B. Sc. Psychologie,2023-01-17_13h31.49.531,00_bat_bachelor,2022.2.4,60.04771789228216,
,,,,,,,,,,,,0,0,0,0,78,0,78,0,,,,,,,78,,,1,368.9345411226532,X,d,go,d,1,0.45750916468387004,,,,,,,,,,,,,,,,,32,001,19,w,B. Sc. Psychologie,2023-01-17_13h31.49.531,00_bat_bachelor,2022.2.4,60.04771789228216,
,,,,,,,,,,,,0,0,0,0,79,0,79,0,,,,,,,79,,,1,370.5015027871559,Y,l,go,l,1,0.3150083852815442,,,,,,,,,,,,,,,,,32,001,19,w,B. Sc. Psychologie,2023-01-17_13h31.49.531,00_bat_bachelor,2022.2.4,60.04771789228216,
,,,,,,,,,,,,0,0,0,0,80,0,80,0,,,,,,,80,,,1,371.91784003983776,X,d,go,d,1,0.3232517752185231,,,,,,,,,,,,,,,,,32,001,19,w,B. Sc. Psychologie,2023-01-17_13h31.49.531,00_bat_bachelor,2022.2.4,60.04771789228216,
,,,,,,,,,,,,0,0,0,0,81,0,81,0,,,,,,,81,,,1,373.35156298107177,Y,l,go,l,1,0.329476257058559,,,,,,,,,,,,,,,,,32,001,19,w,B. Sc. Psychologie,2023-01-17_13h31.49.531,00_bat_bachelor,2022.2.4,60.04771789228216,
,,,,,,,,,,,,0,0,0,0,82,0,82,0,,,,,,,82,,,1,374.78464204381453,X,d,go,d,1,0.30354172417719383,,,,,,,,,,,,,,,,,32,001,19,w,B. Sc. Psychologie,2023-01-17_13h31.49.531,00_bat_bachelor,2022.2.4,60.04771789228216,
,,,,,,,,,,,,0,0,0,0,83,0,83,0,,,,,,,83,,,1,376.201500993222,Y,l,go,l,1,0.3114733567053918,,,,,,,,,,,,,,,,,32,001,19,w,B. Sc. Psychologie,2023-01-17_13h31.49.531,00_bat_bachelor,2022.2.4,60.04771789228216,
,,,,,,,,,,,,0,0,0,0,84,0,84,0,,,,,,,84,,,1,377.6178149731859,Y,None,nogo,None,1,,378.417931433738,,,,,,,,,,,,,,,,32,001,19,w,B. Sc. Psychologie,2023-01-17_13h31.49.531,00_bat_bachelor,2022.2.4,60.04771789228216,
,,,,,,,,,,,,0,0,0,0,85,0,85,0,,,,,,,85,,,1,379.4182107063243,X,d,go,d,1,0.3278539548191475,,,,,,,,,,,,,,,,,32,001,19,w,B. Sc. Psychologie,2023-01-17_13h31.49.531,00_bat_bachelor,2022.2.4,60.04771789228216,
,,,,,,,,,,,,0,0,0,0,86,0,86,0,,,,,,,86,,,1,380.8515210416954,Y,l,go,l,1,0.3490810960502131,,,,,,,,,,,,,,,,,32,001,19,w,B. Sc. Psychologie,2023-01-17_13h31.49.531,00_bat_bachelor,2022.2.4,60.04771789228216,
,,,,,,,,,,,,0,0,0,0,87,0,87,0,,,,,,,87,,,1,382.30162749013107,X,d,go,d,1,0.29123966954648495,,,,,,,,,,,,,,,,,32,001,19,w,B. Sc. Psychologie,2023-01-17_13h31.49.531,00_bat_bachelor,2022.2.4,60.04771789228216,
,,,,,,,,,,,,0,0,0,0,88,0,88,0,,,,,,,88,,,1,383.70150899321015,X,None,nogo,None,1,,384.50148436291784,,,,,,,,,,,,,,,,32,001,19,w,B. Sc. Psychologie,2023-01-17_13h31.49.531,00_bat_bachelor,2022.2.4,60.04771789228216,
,,,,,,,,,,,,0,0,0,0,89,0,89,0,,,,,,,89,,,1,385.50144896900747,Y,l,go,l,1,0.4678824929869734,,,,,,,,,,,,,,,,,32,001,19,w,B. Sc. Psychologie,2023-01-17_13h31.49.531,00_bat_bachelor,2022.2.4,60.04771789228216,
,,,,,,,,,,,,0,0,0,0,90,0,90,0,,,,,,,90,,,1,387.0845968074718,X,d,go,d,1,0.37138266098918393,,,,,,,,,,,,,,,,,32,001,19,w,B. Sc. Psychologie,2023-01-17_13h31.49.531,00_bat_bachelor,2022.2.4,60.04771789228216,
,,,,,,,,,,,,0,0,0,0,91,0,91,0,,,,,,,91,,,1,388.568141300304,Y,l,go,l,1,0.3620561200514203,,,,,,,,,,,,,,,,,32,001,19,w,B. Sc. Psychologie,2023-01-17_13h31.49.531,00_bat_bachelor,2022.2.4,60.04771789228216,
,,,,,,,,,,,,0,0,0,0,92,0,92,0,,,,,,,92,,,1,390.0356727099861,X,d,go,d,1,0.26824816553562414,,,,,,,,,,,,,,,,,32,001,19,w,B. Sc. Psychologie,2023-01-17_13h31.49.531,00_bat_bachelor,2022.2.4,60.04771789228216,
,,,,,,,,,,,,0,0,0,0,93,0,93,0,,,,,,,93,,,1,391.4524051139888,Y,l,go,l,1,0.37187429711048026,,,,,,,,,,,,,,,,,32,001,19,w,B. Sc. Psychologie,2023-01-17_13h31.49.531,00_bat_bachelor,2022.2.4,60.04771789228216,
,,,,,,,,,,,,0,0,0,0,94,0,94,0,,,,,,,94,,,1,392.96897553019517,X,d,go,d,1,0.3586073944461532,,,,,,,,,,,,,,,,,32,001,19,w,B. Sc. Psychologie,2023-01-17_13h31.49.531,00_bat_bachelor,2022.2.4,60.04771789228216,
,,,,,,,,,,,,0,0,0,0,95,0,95,0,,,,,,,95,,,1,394.4688118939084,X,None,nogo,None,1,,395.26877368787245,,,,,,,,,,,,,,,,32,001,19,w,B. Sc. Psychologie,2023-01-17_13h31.49.531,00_bat_bachelor,2022.2.4,60.04771789228216,
,,,,,,,,,,,,0,0,0,0,96,0,96,0,,,,,,,96,,,1,396.26862386976427,Y,l,go,l,1,0.29146076034521684,,,,,,,,,,,,,,,,,32,001,19,w,B. Sc. Psychologie,2023-01-17_13h31.49.531,00_bat_bachelor,2022.2.4,60.04771789228216,
,,,,,,,,,,,,0,0,0,0,97,0,97,0,,,,,,,97,,,1,397.6853945767798,X,d,go,d,1,0.2987431810470298,,,,,,,,,,,,,,,,,32,001,19,w,B. Sc. Psychologie,2023-01-17_13h31.49.531,00_bat_bachelor,2022.2.4,60.04771789228216,
,,,,,,,,,,,,0,0,0,0,98,0,98,0,,,,,,,98,,,1,399.10206879900943,Y,l,go,l,1,0.4017841008026153,,,,,,,,,,,,,,,,,32,001,19,w,B. Sc. Psychologie,2023-01-17_13h31.49.531,00_bat_bachelor,2022.2.4,60.04771789228216,
,,,,,,,,,,,,0,0,0,0,99,0,99,0,,,,,,,99,,,1,400.6354881767329,X,d,go,d,1,0.2603892602637643,,,,,,,,,,,,,,,,,32,001,19,w,B. Sc. Psychologie,2023-01-17_13h31.49.531,00_bat_bachelor,2022.2.4,60.04771789228216,
,,,,,,,,,,,,0,0,0,0,100,0,100,0,,,,,,,100,,,1,402.01878059696173,Y,l,go,l,1,0.25293956689711194,,,,,,,,,,,,,,,,,32,001,19,w,B. Sc. Psychologie,2023-01-17_13h31.49.531,00_bat_bachelor,2022.2.4,60.04771789228216,
,,,,,,,,,,,,0,0,0,0,101,0,101,0,,,,,,,101,,,1,403.40229992616514,X,d,go,d,1,0.27802852443710435,,,,,,,,,,,,,,,,,32,001,19,w,B. Sc. Psychologie,2023-01-17_13h31.49.531,00_bat_bachelor,2022.2.4,60.04771789228216,
,,,,,,,,,,,,0,0,0,0,102,0,102,0,,,,,,,102,,,1,404.7854192555533,X,None,nogo,l,0,0.25441059649165254,,,,,,,,,,,,,,,,,32,001,19,w,B. Sc. Psychologie,2023-01-17_13h31.49.531,00_bat_bachelor,2022.2.4,60.04771789228216,
,,,,,,,,,,,,0,0,0,0,103,0,103,0,,,,,,,103,,,1,406.1687999181595,Y,l,go,l,1,0.311900508007966,,,,,,,,,,,,,,,,,32,001,19,w,B. Sc. Psychologie,2023-01-17_13h31.49.531,00_bat_bachelor,2022.2.4,60.04771789228216,
,,,,,,,,,,,,0,0,0,0,104,0,104,0,,,,,,,104,,,1,407.58543292828836,X,d,go,d,1,0.3031373607373098,,,,,,,,,,,,,,,,,32,001,19,w,B. Sc. Psychologie,2023-01-17_13h31.49.531,00_bat_bachelor,2022.2.4,60.04771789228216,
,,,,,,,,,,,,0,0,0,0,105,0,105,0,,,,,,,105,,,1,409.00210230202356,Y,l,go,l,1,0.32625444044242613,,,,,,,,,,,,,,,,,32,001,19,w,B. Sc. Psychologie,2023-01-17_13h31.49.531,00_bat_bachelor,2022.2.4,60.04771789228216,
,,,,,,,,,,,,0,0,0,0,106,0,106,0,,,,,,,106,,,1,410.4353893646621,Y,None,nogo,None,1,,411.2352255829319,,,,,,,,,,,,,,,,32,001,19,w,B. Sc. Psychologie,2023-01-17_13h31.49.531,00_bat_bachelor,2022.2.4,60.04771789228216,
,,,,,,,,,,,,0,0,0,0,107,0,107,0,,,,,,,107,,,1,412.23523140110774,X,d,go,d,1,0.2923106993257534,,,,,,,,,,,,,,,,,32,001,19,w,B. Sc. Psychologie,2023-01-17_13h31.49.531,00_bat_bachelor,2022.2.4,60.04771789228216,
,,,,,,,,,,,,0,0,0,0,108,0,108,0,,,,,,,108,,,1,413.652065623246,Y,l,go,l,1,0.21986758292769082,,,,,,,,,,,,,,,,,32,001,19,w,B. Sc. Psychologie,2023-01-17_13h31.49.531,00_bat_bachelor,2022.2.4,60.04771789228216,
,,,,,,,,,,,,0,0,0,0,109,0,109,0,,,,,,,109,,,1,415.0018661809154,Y,None,nogo,None,1,,415.802043732343,,,,,,,,,,,,,,,,32,001,19,w,B. Sc. Psychologie,2023-01-17_13h31.49.531,00_bat_bachelor,2022.2.4,60.04771789228216,
,,,,,,,,,,,,0,0,0,0,110,0,110,0,,,,,,,110,,,1,416.8019089445297,X,d,go,d,1,0.27050852807587944,,,,,,,,,,,,,,,,,32,001,19,w,B. Sc. Psychologie,2023-01-17_13h31.49.531,00_bat_bachelor,2022.2.4,60.04771789228216,
,,,,,,,,,,,,0,0,0,0,111,0,111,0,,,,,,,111,,,1,418.1854505767551,Y,l,go,l,1,0.23121981984877493,,,,,,,,,,,,,,,,,32,001,19,w,B. Sc. Psychologie,2023-01-17_13h31.49.531,00_bat_bachelor,2022.2.4,60.04771789228216,
,,,,,,,,,,,,0,0,0,0,112,0,112,0,,,,,,,112,,,1,419.53546495251067,Y,None,nogo,None,1,,420.33543256465055,,,,,,,,,,,,,,,,32,001,19,w,B. Sc. Psychologie,2023-01-17_13h31.49.531,00_bat_bachelor,2022.2.4,60.04771789228216,
,,,,,,,,,,,,0,0,0,0,113,0,113,0,,,,,,,113,,,1,421.335485413103,X,d,go,d,1,0.26391507672087755,,,,,,,,,,,,,,,,,32,001,19,w,B. Sc. Psychologie,2023-01-17_13h31.49.531,00_bat_bachelor,2022.2.4,60.04771789228216,
,,,,,,,,,,,,0,0,0,0,114,0,114,0,,,,,,,114,,,1,422.7188127424015,Y,l,go,l,1,0.2897366399556631,,,,,,,,,,,,,,,,,32,001,19,w,B. Sc. Psychologie,2023-01-17_13h31.49.531,00_bat_bachelor,2022.2.4,60.04771789228216,
,,,,,,,,,,,,0,0,0,0,115,0,115,0,,,,,,,115,,,1,424.1186166697735,X,d,go,d,1,0.2966316669335356,,,,,,,,,,,,,,,,,32,001,19,w,B. Sc. Psychologie,2023-01-17_13h31.49.531,00_bat_bachelor,2022.2.4,60.04771789228216,
,,,,,,,,,,,,0,0,0,0,116,0,116,0,,,,,,,116,,,1,425.5352525889757,Y,l,go,l,1,0.27255507254449185,,,,,,,,,,,,,,,,,32,001,19,w,B. Sc. Psychologie,2023-01-17_13h31.49.531,00_bat_bachelor,2022.2.4,60.04771789228216,
,,,,,,,,,,,,0,0,0,0,117,0,117,0,,,,,,,117,,,1,426.9352533647325,Y,None,nogo,None,1,,427.7354352797993,,,,,,,,,,,,,,,,32,001,19,w,B. Sc. Psychologie,2023-01-17_13h31.49.531,00_bat_bachelor,2022.2.4,60.04771789228216,
,,,,,,,,,,,,0,0,0,0,118,0,118,0,,,,,,,118,,,1,428.73541491616925,X,d,go,d,1,0.25710829214949626,,,,,,,,,,,,,,,,,32,001,19,w,B. Sc. Psychologie,2023-01-17_13h31.49.531,00_bat_bachelor,2022.2.4,60.04771789228216,
,,,,,,,,,,,,0,0,0,0,119,0,119,0,,,,,,,119,,,1,430.1185696394823,Y,l,go,l,1,0.26555919714155607,,,,,,,,,,,,,,,,,32,001,19,w,B. Sc. Psychologie,2023-01-17_13h31.49.531,00_bat_bachelor,2022.2.4,60.04771789228216,
,,,,,,,,,,,,0,0,0,0,120,0,120,0,,,,,,,120,,,1,431.5021035141399,Y,None,nogo,None,1,,432.302143853507,,,,,,,,,,,,,,,,32,001,19,w,B. Sc. Psychologie,2023-01-17_13h31.49.531,00_bat_bachelor,2022.2.4,60.04771789228216,
,,,,,,,,,,,,0,0,0,0,121,0,121,0,,,,,,,121,,,1,433.30193730816245,X,d,go,d,1,0.2821807648433605,,,,,,,,,,,,,,,,,32,001,19,w,B. Sc. Psychologie,2023-01-17_13h31.49.531,00_bat_bachelor,2022.2.4,60.04771789228216,
,,,,,,,,,,,,0,0,0,0,122,0,122,0,,,,,,,122,,,1,434.7019177202892,Y,l,go,l,1,0.32128813982126303,,,,,,,,,,,,,,,,,32,001,19,w,B. Sc. Psychologie,2023-01-17_13h31.49.531,00_bat_bachelor,2022.2.4,60.04771789228216,
,,,,,,,,,,,,0,0,0,0,123,0,123,0,,,,,,,123,,,1,436.15202998690074,Y,None,nogo,None,1,,436.95214984138147,,,,,,,,,,,,,,,,32,001,19,w,B. Sc. Psychologie,2023-01-17_13h31.49.531,00_bat_bachelor,2022.2.4,60.04771789228216,
,,,,,,,,,,,,0,0,0,0,124,0,124,0,,,,,,,124,,,1,437.95192147785565,X,d,go,d,1,0.2085226187336957,,,,,,,,,,,,,,,,,32,001,19,w,B. Sc. Psychologie,2023-01-17_13h31.49.531,00_bat_bachelor,2022.2.4,60.04771789228216,
,,,,,,,,,,,,0,0,0,0,125,0,125,0,,,,,,,125,,,1,439.285427255556,Y,l,go,l,1,0.2344159395142924,,,,,,,,,,,,,,,,,32,001,19,w,B. Sc. Psychologie,2023-01-17_13h31.49.531,00_bat_bachelor,2022.2.4,60.04771789228216,
,,,,,,,,,,,,0,0,0,0,126,0,126,0,,,,,,,126,,,1,440.6520617444621,X,d,go,d,1,0.24472090421477333,,,,,,,,,,,,,,,,,32,001,19,w,B. Sc. Psychologie,2023-01-17_13h31.49.531,00_bat_bachelor,2022.2.4,60.04771789228216,
,,,,,,,,,,,,0,0,0,0,127,0,127,0,,,,,,,127,,,1,442.0187742939306,Y,l,go,l,1,0.23726684723806102,,,,,,,,,,,,,,,,,32,001,19,w,B. Sc. Psychologie,2023-01-17_13h31.49.531,00_bat_bachelor,2022.2.4,60.04771789228216,
,,,,,,,,,,,,0,0,0,0,128,0,128,0,,,,,,,128,,,1,443.3853273283312,Y,None,nogo,None,1,,444.18536427376966,,,,,,,,,,,,,,,,32,001,19,w,B. Sc. Psychologie,2023-01-17_13h31.49.531,00_bat_bachelor,2022.2.4,60.04771789228216,
,,,,,,,,,,,,0,0,0,0,129,0,129,0,,,,,,,129,,,1,445.1853235465096,X,d,go,d,1,0.3029555426473962,,,,,,,,,,,,,,,,,32,001,19,w,B. Sc. Psychologie,2023-01-17_13h31.49.531,00_bat_bachelor,2022.2.4,60.04771789228216,
,,,,,,,,,,,,0,0,0,0,130,0,130,0,,,,,,,130,,,1,446.6019454051275,Y,l,go,l,1,0.24617447928176261,,,,,,,,,,,,,,,,,32,001,19,w,B. Sc. Psychologie,2023-01-17_13h31.49.531,00_bat_bachelor,2022.2.4,60.04771789228216,
,,,,,,,,,,,,0,0,0,0,131,0,131,0,,,,,,,131,,,1,447.96862353036704,X,d,go,d,1,0.25595047454407904,,,,,,,,,,,,,,,,,32,001,19,w,B. Sc. Psychologie,2023-01-17_13h31.49.531,00_bat_bachelor,2022.2.4,60.04771789228216,
,,,,,,,,,,,,0,0,0,0,132,0,132,0,,,,,,,132,,,1,449.35199401115824,X,None,nogo,None,1,,450.1520130172139,,,,,,,,,,,,,,,,32,001,19,w,B. Sc. Psychologie,2023-01-17_13h31.49.531,00_bat_bachelor,2022.2.4,60.04771789228216,
,,,,,,,,,,,,0,0,0,0,133,0,133,0,,,,,,,133,,,1,451.1518704718328,Y,l,go,l,1,0.28822585281159263,,,,,,,,,,,,,,,,,32,001,19,w,B. Sc. Psychologie,2023-01-17_13h31.49.531,00_bat_bachelor,2022.2.4,60.04771789228216,
,,,,,,,,,,,,0,0,0,0,134,0,134,0,,,,,,,134,,,1,452.56881184542726,X,d,go,d,1,0.24730756963253953,,,,,,,,,,,,,,,,,32,001,19,w,B. Sc. Psychologie,2023-01-17_13h31.49.531,00_bat_bachelor,2022.2.4,60.04771789228216,
,,,,,,,,,,,,0,0,0,0,135,0,135,0,,,,,,,135,,,1,453.935368273771,Y,l,go,l,1,0.2881652467767708,,,,,,,,,,,,,,,,,32,001,19,w,B. Sc. Psychologie,2023-01-17_13h31.49.531,00_bat_bachelor,2022.2.4,60.04771789228216,
,,,,,,,,,,,,0,0,0,0,136,0,136,0,,,,,,,136,,,1,455.35193582937063,X,d,go,d,1,0.23246636470139492,,,,,,,,,,,,,,,,,32,001,19,w,B. Sc. Psychologie,2023-01-17_13h31.49.531,00_bat_bachelor,2022.2.4,60.04771789228216,
,,,,,,,,,,,,0,0,0,0,137,0,137,0,,,,,,,137,,,1,456.7020651141502,X,None,nogo,None,1,,457.5020492111362,,,,,,,,,,,,,,,,32,001,19,w,B. Sc. Psychologie,2023-01-17_13h31.49.531,00_bat_bachelor,2022.2.4,60.04771789228216,
,,,,,,,,,,,,0,0,0,0,138,0,138,0,,,,,,,138,,,1,458.5018741809181,Y,l,go,l,1,0.3304571050684899,,,,,,,,,,,,,,,,,32,001,19,w,B. Sc. Psychologie,2023-01-17_13h31.49.531,00_bat_bachelor,2022.2.4,60.04771789228216,
,,,,,,,,,,,,0,0,0,0,139,0,139,0,,,,,,,139,,,1,459.93540075859346,X,d,go,d,1,0.24076502735260874,,,,,,,,,,,,,,,,,32,001,19,w,B. Sc. Psychologie,2023-01-17_13h31.49.531,00_bat_bachelor,2022.2.4,60.04771789228216,
,,,,,,,,,,,,0,0,0,0,140,0,140,0,,,,,,,140,,,1,461.3018742778804,X,None,nogo,None,1,,462.10185740517045,,,,,,,,,,,,,,,,32,001,19,w,B. Sc. Psychologie,2023-01-17_13h31.49.531,00_bat_bachelor,2022.2.4,60.04771789228216,
,,,,,,,,,,,,0,0,0,0,141,0,141,0,,,,,,,141,,,1,463.1018205566943,Y,l,go,l,1,0.29120282108488027,,,,,,,,,,,,,,,,,32,001,19,w,B. Sc. Psychologie,2023-01-17_13h31.49.531,00_bat_bachelor,2022.2.4,60.04771789228216,
,,,,,,,,,,,,0,0,0,0,142,0,142,0,,,,,,,142,,,1,464.5019580596563,X,d,go,d,1,0.20159898571728263,,,,,,,,,,,,,,,,,32,001,19,w,B. Sc. Psychologie,2023-01-17_13h31.49.531,00_bat_bachelor,2022.2.4,60.04771789228216,
,,,,,,,,,,,,0,0,0,0,143,0,143,0,,,,,,,143,,,1,465.8354885646113,Y,l,go,l,1,0.22912915419146884,,,,,,,,,,,,,,,,,32,001,19,w,B. Sc. Psychologie,2023-01-17_13h31.49.531,00_bat_bachelor,2022.2.4,60.04771789228216,
,,,,,,,,,,,,0,0,0,0,144,0,144,0,,,,,,,144,,,1,467.1847688801208,X,d,go,d,1,0.22314855104195885,,,,,,,,,,,,,,,,,32,001,19,w,B. Sc. Psychologie,2023-01-17_13h31.49.531,00_bat_bachelor,2022.2.4,60.04771789228216,
,,,,,,,,,,,,0,0,0,0,145,0,145,0,,,,,,,145,,,1,468.5181330821215,X,None,nogo,None,1,,469.31810166395735,,,,,,,,,,,,,,,,32,001,19,w,B. Sc. Psychologie,2023-01-17_13h31.49.531,00_bat_bachelor,2022.2.4,60.04771789228216,
,,,,,,,,,,,,0,0,0,0,146,0,146,0,,,,,,,146,,,1,470.31777390654315,Y,l,go,l,1,0.2268309734936338,,,,,,,,,,,,,,,,,32,001,19,w,B. Sc. Psychologie,2023-01-17_13h31.49.531,00_bat_bachelor,2022.2.4,60.04771789228216,
,,,,,,,,,,,,0,0,0,0,147,0,147,0,,,,,,,147,,,1,471.6516515628464,X,d,go,d,1,0.28524403608753346,,,,,,,,,,,,,,,,,32,001,19,w,B. Sc. Psychologie,2023-01-17_13h31.49.531,00_bat_bachelor,2022.2.4,60.04771789228216,
,,,,,,,,,,,,0,0,0,0,148,0,148,0,,,,,,,148,,,1,473.05148603564885,X,None,nogo,None,1,,473.8514221326477,,,,,,,,,,,,,,,,32,001,19,w,B. Sc. Psychologie,2023-01-17_13h31.49.531,00_bat_bachelor,2022.2.4,60.04771789228216,
,,,,,,,,,,,,0,0,0,0,149,0,149,0,,,,,,,149,,,1,474.8514298902155,Y,l,go,l,1,0.20476940843218472,,,,,,,,,,,,,,,,,32,001,19,w,B. Sc. Psychologie,2023-01-17_13h31.49.531,00_bat_bachelor,2022.2.4,60.04771789228216,
,,,,,,,,,,,,0,0,0,0,150,0,150,0,,,,,,,150,,,1,476.16778222168796,X,d,go,d,1,0.3449220677575795,,,,,,,,,,,,,,,,,32,001,19,w,B. Sc. Psychologie,2023-01-17_13h31.49.531,00_bat_bachelor,2022.2.4,60.04771789228216,
,,,,,,,,,,,,0,0,0,0,151,0,151,0,,,,,,,151,,,1,477.6180690336769,X,None,nogo,None,1,,478.41794258524897,,,,,,,,,,,,,,,,32,001,19,w,B. Sc. Psychologie,2023-01-17_13h31.49.531,00_bat_bachelor,2022.2.4,60.04771789228216,
,,,,,,,,,,,,0,0,0,0,152,0,152,0,,,,,,,152,,,1,479.4179421003937,Y,l,go,l,1,0.35958630306413397,,,,,,,,,,,,,,,,,32,001,19,w,B. Sc. Psychologie,2023-01-17_13h31.49.531,00_bat_bachelor,2022.2.4,60.04771789228216,
,,,,,,,,,,,,0,0,0,0,153,0,153,0,,,,,,,153,,,1,480.88457751051465,X,d,go,d,1,0.2681526504311478,,,,,,,,,,,,,,,,,32,001,19,w,B. Sc. Psychologie,2023-01-17_13h31.49.531,00_bat_bachelor,2022.2.4,60.04771789228216,
,,,,,,,,,,,,0,0,0,0,154,0,154,0,,,,,,,154,,,1,482.2680701730569,Y,l,go,l,1,0.2777550700120628,,,,,,,,,,,,,,,,,32,001,19,w,B. Sc. Psychologie,2023-01-17_13h31.49.531,00_bat_bachelor,2022.2.4,60.04771789228216,
,,,,,,,,,,,,0,0,0,0,155,0,155,0,,,,,,,155,,,1,483.6514527750551,X,d,go,d,1,0.2216940062789945,,,,,,,,,,,,,,,,,32,001,19,w,B. Sc. Psychologie,2023-01-17_13h31.49.531,00_bat_bachelor,2022.2.4,60.04771789228216,
,,,,,,,,,,,,0,0,0,0,156,0,156,0,,,,,,,156,,,1,484.9845764923375,Y,l,go,l,1,0.2315655166603392,,,,,,,,,,,,,,,,,32,001,19,w,B. Sc. Psychologie,2023-01-17_13h31.49.531,00_bat_bachelor,2022.2.4,60.04771789228216,
,,,,,,,,,,,,0,0,0,0,157,0,157,0,,,,,,,157,,,1,486.3181123306131,Y,None,nogo,None,1,,487.11821327602956,,,,,,,,,,,,,,,,32,001,19,w,B. Sc. Psychologie,2023-01-17_13h31.49.531,00_bat_bachelor,2022.2.4,60.04771789228216,
,,,,,,,,,,,,0,0,0,0,158,0,158,0,,,,,,,158,,,1,488.1178123065183,X,d,go,d,1,0.25046829537313897,,,,,,,,,,,,,,,,,32,001,19,w,B. Sc. Psychologie,2023-01-17_13h31.49.531,00_bat_bachelor,2022.2.4,60.04771789228216,
,,,,,,,,,,,,0,0,0,0,159,0,159,0,,,,,,,159,,,1,489.4684152880509,Y,l,go,l,1,0.19582589762285352,,,,,,,,,,,,,,,,,32,001,19,w,B. Sc. Psychologie,2023-01-17_13h31.49.531,00_bat_bachelor,2022.2.4,60.04771789228216,
,,,,,,,,,,,,0,0,0,0,160,0,160,0,,,,,,,160,,,1,490.76813635484723,Y,None,nogo,None,1,,491.5683269971778,,,,,,,,,,,,,,,,32,001,19,w,B. Sc. Psychologie,2023-01-17_13h31.49.531,00_bat_bachelor,2022.2.4,60.04771789228216,
,,,,,,,,,,,,0,0,0,0,161,0,161,0,,,,,,,161,,,1,492.5678053004667,X,d,go,d,1,0.2803814929939108,,,,,,,,,,,,,,,,,32,001,19,w,B. Sc. Psychologie,2023-01-17_13h31.49.531,00_bat_bachelor,2022.2.4,60.04771789228216,
,,,,,,,,,,,,0,0,0,0,162,0,162,0,,,,,,,162,,,1,493.95124075091735,Y,l,go,l,1,0.24141375430917833,,,,,,,,,,,,,,,,,32,001,19,w,B. Sc. Psychologie,2023-01-17_13h31.49.531,00_bat_bachelor,2022.2.4,60.04771789228216,
,,,,,,,,,,,,0,0,0,0,163,0,163,0,,,,,,,163,,,1,495.30145730839286,Y,None,nogo,None,1,,496.1011466176278,,,,,,,,,,,,,,,,32,001,19,w,B. Sc. Psychologie,2023-01-17_13h31.49.531,00_bat_bachelor,2022.2.4,60.04771789228216,
,,,,,,,,,,,,0,0,0,0,164,0,164,0,,,,,,,164,,,1,497.1014258902287,Y,None,nogo,None,1,,497.9013828356983,,,,,,,,,,,,,,,,32,001,19,w,B. Sc. Psychologie,2023-01-17_13h31.49.531,00_bat_bachelor,2022.2.4,60.04771789228216,
,,,,,,,,,,,,0,0,0,0,165,0,165,0,,,,,,,165,,,1,498.90126598726783,X,d,go,d,1,0.29902390818460844,,,,,,,,,,,,,,,,,32,001,19,w,B. Sc. Psychologie,2023-01-17_13h31.49.531,00_bat_bachelor,2022.2.4,60.04771789228216,
,,,,,,,,,,,,0,0,0,0,166,0,166,0,,,,,,,166,,,1,500.3014262781071,Y,l,go,l,1,0.26010853311163373,,,,,,,,,,,,,,,,,32,001,19,w,B. Sc. Psychologie,2023-01-17_13h31.49.531,00_bat_bachelor,2022.2.4,60.04771789228216,
,,,,,,,,,,,,0,0,0,0,167,0,167,0,,,,,,,167,,,1,501.6681994336104,X,d,go,d,1,0.3001696045976132,,,,,,,,,,,,,,,,,32,001,19,w,B. Sc. Psychologie,2023-01-17_13h31.49.531,00_bat_bachelor,2022.2.4,60.04771789228216,
,,,,,,,,,,,,0,0,0,0,168,0,168,0,,,,,,,168,,,1,503.0680959669844,X,None,nogo,None,1,,503.8678187307669,,,,,,,,,,,,,,,,32,001,19,w,B. Sc. Psychologie,2023-01-17_13h31.49.531,00_bat_bachelor,2022.2.4,60.04771789228216,
,,,,,,,,,,,,0,0,0,0,169,0,169,0,,,,,,,169,,,1,504.8683312153589,X,None,nogo,None,1,,,,,,,,,,,,,,,,,,32,001,19,w,B. Sc. Psychologie,2023-01-17_13h31.49.531,00_bat_bachelor,2022.2.4,60.04771789228216,
,,,,,,,,,,,,0,0,0,0,170,0,170,0,,,,,,,170,,,1,506.6678023428831,Y,l,go,l,1,0.21382734343933407,,,,,,,,,,,,,,,,,32,001,19,w,B. Sc. Psychologie,2023-01-17_13h31.49.531,00_bat_bachelor,2022.2.4,60.04771789228216,
,,,,,,,,,,,,0,0,0,0,171,0,171,0,,,,,,,171,,,1,507.9857600069081,X,d,go,d,1,0.33396255792467855,,,,,,,,,,,,,,,,,32,001,19,w,B. Sc. Psychologie,2023-01-17_13h31.49.531,00_bat_bachelor,2022.2.4,60.04771789228216,
,,,,,,,,,,,,0,0,0,0,172,0,172,0,,,,,,,172,,,1,509.45236147765536,Y,l,go,l,1,0.3074268132040743,,,,,,,,,,,,,,,,,32,001,19,w,B. Sc. Psychologie,2023-01-17_13h31.49.531,00_bat_bachelor,2022.2.4,60.04771789228216,
,,,,,,,,,,,,0,0,0,0,173,0,173,0,,,,,,,173,,,1,510.90202138083987,X,d,go,d,1,0.2505749619740527,,,,,,,,,,,,,,,,,32,001,19,w,B. Sc. Psychologie,2023-01-17_13h31.49.531,00_bat_bachelor,2022.2.4,60.04771789228216,
,,,,,,,,,,,,0,0,0,0,174,0,174,0,,,,,,,174,,,1,512.2683382941468,Y,l,go,l,1,0.24313011711637955,,,,,,,,,,,,,,,,,32,001,19,w,B. Sc. Psychologie,2023-01-17_13h31.49.531,00_bat_bachelor,2022.2.4,60.04771789228216,
,,,,,,,,,,,,0,0,0,0,175,0,175,0,,,,,,,175,,,1,513.6352714495733,X,d,go,d,1,0.22124600650568027,,,,,,,,,,,,,,,,,32,001,19,w,B. Sc. Psychologie,2023-01-17_13h31.49.531,00_bat_bachelor,2022.2.4,60.04771789228216,
,,,,,,,,,,,,0,0,0,0,176,0,176,0,,,,,,,176,,,1,514.9686429243011,X,None,nogo,l,0,0.2322758193477057,,,,,,,,,,,,,,,,,32,001,19,w,B. Sc. Psychologie,2023-01-17_13h31.49.531,00_bat_bachelor,2022.2.4,60.04771789228216,
,,,,,,,,,,,,0,0,0,0,177,0,177,0,,,,,,,177,,,1,516.3019334293786,Y,l,go,None,0,,517.101950980883,,,,,,,,,,,,,,,,32,001,19,w,B. Sc. Psychologie,2023-01-17_13h31.49.531,00_bat_bachelor,2022.2.4,60.04771789228216,
,,,,,,,,,,,,0,0,0,0,178,0,178,0,,,,,,,178,,,1,518.1017201931099,X,d,go,d,1,0.3784919908794109,,,,,,,,,,,,,,,,,32,001,19,w,B. Sc. Psychologie,2023-01-17_13h31.49.531,00_bat_bachelor,2022.2.4,60.04771789228216,
,,,,,,,,,,,,0,0,0,0,179,0,179,0,,,,,,,179,,,1,519.5849858981965,Y,l,go,l,1,0.4000294349825708,,,,,,,,,,,,,,,,,32,001,19,w,B. Sc. Psychologie,2023-01-17_13h31.49.531,00_bat_bachelor,2022.2.4,60.04771789228216,
,,,,,,,,,,,,0,0,0,0,180,0,180,0,,,,,,,180,,,1,521.0850103830307,X,d,go,d,1,0.32427577473572455,,,,,,,,,,,,,,,,,32,001,19,w,B. Sc. Psychologie,2023-01-17_13h31.49.531,00_bat_bachelor,2022.2.4,60.04771789228216,
,,,,,,,,,,,,0,0,0,0,181,0,181,0,,,,,,,181,,,1,522.5185039910284,Y,l,go,l,1,0.3135761435551103,,,,,,,,,,,,,,,,,32,001,19,w,B. Sc. Psychologie,2023-01-17_13h31.49.531,00_bat_bachelor,2022.2.4,60.04771789228216,
,,,,,,,,,,,,0,0,0,0,182,0,182,0,,,,,,,182,,,1,523.9350094860565,X,d,go,d,1,0.3051693597517442,,,,,,,,,,,,,,,,,32,001,19,w,B. Sc. Psychologie,2023-01-17_13h31.49.531,00_bat_bachelor,2022.2.4,60.04771789228216,
,,,,,,,,,,,,0,0,0,0,183,0,183,0,,,,,,,183,,,1,525.3684662455926,Y,l,go,l,1,0.24790829660196323,,,,,,,,,,,,,,,,,32,001,19,w,B. Sc. Psychologie,2023-01-17_13h31.49.531,00_bat_bachelor,2022.2.4,60.04771789228216,
,,,,,,,,,,,,0,0,0,0,184,0,184,0,,,,,,,184,,,1,526.7183516517107,Y,None,nogo,None,1,,527.5183231426345,,,,,,,,,,,,,,,,32,001,19,w,B. Sc. Psychologie,2023-01-17_13h31.49.531,00_bat_bachelor,2022.2.4,60.04771789228216,
,,,,,,,,,,,,0,0,0,0,185,0,185,0,,,,,,,185,,,1,528.5184734455979,X,d,go,d,1,0.2665439239353873,,,,,,,,,,,,,,,,,32,001,19,w,B. Sc. Psychologie,2023-01-17_13h31.49.531,00_bat_bachelor,2022.2.4,60.04771789228216,
,,,,,,,,,,,,0,0,0,0,186,0,186,0,,,,,,,186,,,1,529.8851695102203,Y,l,go,l,1,0.3880211983778281,,,,,,,,,,,,,,,,,32,001,19,w,B. Sc. Psychologie,2023-01-17_13h31.49.531,00_bat_bachelor,2022.2.4,60.04771789228216,
,,,,,,,,,,,,0,0,0,0,187,0,187,0,,,,,,,187,,,1,531.3853074495564,X,d,go,d,1,0.39016762157552876,,,,,,,,,,,,,,,,,32,001,19,w,B. Sc. Psychologie,2023-01-17_13h31.49.531,00_bat_bachelor,2022.2.4,60.04771789228216,
,,,,,,,,,,,,0,0,0,0,188,0,188,0,,,,,,,188,,,1,532.9018856233306,Y,l,go,l,1,0.3779111426702002,,,,,,,,,,,,,,,,,32,001,19,w,B. Sc. Psychologie,2023-01-17_13h31.49.531,00_bat_bachelor,2022.2.4,60.04771789228216,
,,,,,,,,,,,,0,0,0,0,189,0,189,0,,,,,,,189,,,1,534.4018514415366,X,d,go,d,1,0.28610658111574594,,,,,,,,,,,,,,,,,32,001,19,w,B. Sc. Psychologie,2023-01-17_13h31.49.531,00_bat_bachelor,2022.2.4,60.04771789228216,
,,,,,,,,,,,,0,0,0,0,190,0,190,0,,,,,,,190,,,1,535.8016897931229,X,None,nogo,None,1,,536.6018494051677,,,,,,,,,,,,,,,,32,001,19,w,B. Sc. Psychologie,2023-01-17_13h31.49.531,00_bat_bachelor,2022.2.4,60.04771789228216,
,,,,,,,,,,,,0,0,0,0,191,0,191,0,,,,,,,191,,,1,537.6016409204167,X,None,nogo,l,0,0.3029123911546776,,,,,,,,,,,,,,,,,32,001,19,w,B. Sc. Psychologie,2023-01-17_13h31.49.531,00_bat_bachelor,2022.2.4,60.04771789228216,
,,,,,,,,,,,,0,0,0,0,192,0,192,0,,,,,,,192,,,1,539.0183219305181,Y,l,go,l,1,0.2465807821135968,,,,,,,,,,,,,,,,,32,001,19,w,B. Sc. Psychologie,2023-01-17_13h31.49.531,00_bat_bachelor,2022.2.4,60.04771789228216,
,,,,,,,,,,,,0,0,0,0,193,0,193,0,,,,,,,193,,,1,540.3680458821618,X,d,go,d,1,0.40043767719180323,,,,,,,,,,,,,,,,,32,001,19,w,B. Sc. Psychologie,2023-01-17_13h31.49.531,00_bat_bachelor,2022.2.4,60.04771789228216,
,,,,,,,,,,,,0,0,0,0,194,0,194,0,,,,,,,194,,,1,541.885045873918,X,None,nogo,None,1,,542.6848762740119,,,,,,,,,,,,,,,,32,001,19,w,B. Sc. Psychologie,2023-01-17_13h31.49.531,00_bat_bachelor,2022.2.4,60.04771789228216,
,,,,,,,,,,,,0,0,0,0,195,0,195,0,,,,,,,195,,,1,543.6847225771053,Y,l,go,l,1,0.33134583190258127,,,,,,,,,,,,,,,,,32,001,19,w,B. Sc. Psychologie,2023-01-17_13h31.49.531,00_bat_bachelor,2022.2.4,60.04771789228216,
,,,,,,,,,,,,0,0,0,0,196,0,196,0,,,,,,,196,,,1,545.1180440639873,X,d,go,d,1,0.3700580555596389,,,,,,,,,,,,,,,,,32,001,19,w,B. Sc. Psychologie,2023-01-17_13h31.49.531,00_bat_bachelor,2022.2.4,60.04771789228216,
,,,,,,,,,,,,0,0,0,0,197,0,197,0,,,,,,,197,,,1,546.6010760722129,Y,l,go,l,1,0.43991887017909903,,,,,,,,,,,,,,,,,32,001,19,w,B. Sc. Psychologie,2023-01-17_13h31.49.531,00_bat_bachelor,2022.2.4,60.04771789228216,
,,,,,,,,,,,,0,0,0,0,198,0,198,0,,,,,,,198,,,1,548.151389987208,Y,None,nogo,None,1,,548.951105963104,,,,,,,,,,,,,,,,32,001,19,w,B. Sc. Psychologie,2023-01-17_13h31.49.531,00_bat_bachelor,2022.2.4,60.04771789228216,
,,,,,,,,,,,,0,0,0,0,199,0,199,0,,,,,,,199,,,1,549.9513459629961,X,d,go,d,1,0.36957466187595855,,,,,,,,,,,,,,,,,32,001,19,w,B. Sc. Psychologie,2023-01-17_13h31.49.531,00_bat_bachelor,2022.2.4,60.04771789228216,
,,,,,,,,,,,,0,0,0,0,200,0,200,0,,,,,,,200,,,1,551.4346451226011,Y,l,go,l,1,0.3579955159511883,,,,,,,,,,,,,,,,,32,001,19,w,B. Sc. Psychologie,2023-01-17_13h31.49.531,00_bat_bachelor,2022.2.4,60.04771789228216,
,,,,,,,,,,,,0,0,0,0,201,0,201,0,,,,,,,201,,,1,552.901407562953,Y,None,nogo,None,1,,553.701435296287,,,,,,,,,,,,,,,,32,001,19,w,B. Sc. Psychologie,2023-01-17_13h31.49.531,00_bat_bachelor,2022.2.4,60.04771789228216,
,,,,,,,,,,,,0,0,0,0,202,0,202,0,,,,,,,202,,,1,554.701378569036,X,d,go,d,1,0.35576618371123914,,,,,,,,,,,,,,,,,32,001,19,w,B. Sc. Psychologie,2023-01-17_13h31.49.531,00_bat_bachelor,2022.2.4,60.04771789228216,
,,,,,,,,,,,,0,0,0,0,203,0,203,0,,,,,,,203,,,1,556.1682593123696,Y,l,go,l,1,0.2809065836336231,,,,,,,,,,,,,,,,,32,001,19,w,B. Sc. Psychologie,2023-01-17_13h31.49.531,00_bat_bachelor,2022.2.4,60.04771789228216,
,,,,,,,,,,,,0,0,0,0,204,0,204,0,,,,,,,204,,,1,557.5514062781149,X,d,go,d,1,0.2733473145781318,,,,,,,,,,,,,,,,,32,001,19,w,B. Sc. Psychologie,2023-01-17_13h31.49.531,00_bat_bachelor,2022.2.4,60.04771789228216,
,,,,,,,,,,,,0,0,0,0,205,0,205,0,,,,,,,205,,,1,558.934767546787,X,None,nogo,None,1,,559.7348263103922,,,,,,,,,,,,,,,,32,001,19,w,B. Sc. Psychologie,2023-01-17_13h31.49.531,00_bat_bachelor,2022.2.4,60.04771789228216,
,,,,,,,,,,,,0,0,0,0,206,0,206,0,,,,,,,206,,,1,560.7343773409084,Y,l,go,l,1,0.3063320258661406,,,,,,,,,,,,,,,,,32,001,19,w,B. Sc. Psychologie,2023-01-17_13h31.49.531,00_bat_bachelor,2022.2.4,60.04771789228216,
,,,,,,,,,,,,0,0,0,0,207,0,207,0,,,,,,,207,,,1,562.1514370174846,X,d,go,d,1,0.3135407496301923,,,,,,,,,,,,,,,,,32,001,19,w,B. Sc. Psychologie,2023-01-17_13h31.49.531,00_bat_bachelor,2022.2.4,60.04771789228216,
,,,,,,,,,,,,0,0,0,0,208,0,208,0,,,,,,,208,,,1,563.5681000882032,X,None,nogo,None,1,,564.3678587307368,,,,,,,,,,,,,,,,32,001,19,w,B. Sc. Psychologie,2023-01-17_13h31.49.531,00_bat_bachelor,2022.2.4,60.04771789228216,
,,,,,,,,,,,,0,0,0,0,209,0,209,0,,,,,,,209,,,1,565.3677268520114,Y,l,go,l,1,0.3137652343721129,,,,,,,,,,,,,,,,,32,001,19,w,B. Sc. Psychologie,2023-01-17_13h31.49.531,00_bat_bachelor,2022.2.4,60.04771789228216,
,,,,,,,,,,,,0,0,0,0,210,0,210,0,,,,,,,210,,,1,566.7846866498585,X,d,go,d,1,0.3037414816644741,,,,,,,,,,,,,,,,,32,001,19,w,B. Sc. Psychologie,2023-01-17_13h31.49.531,00_bat_bachelor,2022.2.4,60.04771789228216,
,,,,,,,,,,,,0,0,0,0,211,0,211,0,,,,,,,211,,,1,568.2010408722272,Y,l,go,l,1,0.24786514512379654,,,,,,,,,,,,,,,,,32,001,19,w,B. Sc. Psychologie,2023-01-17_13h31.49.531,00_bat_bachelor,2022.2.4,60.04771789228216,
,,,,,,,,,,,,0,0,0,0,212,0,212,0,,,,,,,212,,,1,569.5513582781423,X,d,go,d,1,0.25708308003959246,,,,,,,,,,,,,,,,,32,001,19,w,B. Sc. Psychologie,2023-01-17_13h31.49.531,00_bat_bachelor,2022.2.4,60.04771789228216,
,,,,,,,,,,,,0,0,0,0,213,0,213,0,,,,,,,213,,,1,570.9177314338303,Y,l,go,l,1,0.2825041586183943,,,,,,,,,,,,,,,,,32,001,19,w,B. Sc. Psychologie,2023-01-17_13h31.49.531,00_bat_bachelor,2022.2.4,60.04771789228216,
,,,,,,,,,,,,0,0,0,0,214,0,214,0,,,,,,,214,,,1,572.3013807023672,Y,None,nogo,None,1,,573.1014729205053,,,,,,,,,,,,,,,,32,001,19,w,B. Sc. Psychologie,2023-01-17_13h31.49.531,00_bat_bachelor,2022.2.4,60.04771789228216,
,,,,,,,,,,,,0,0,0,0,215,0,215,0,,,,,,,215,,,1,574.101382738736,X,d,go,d,1,0.25113884049642365,,,,,,,,,,,,,,,,,32,001,19,w,B. Sc. Psychologie,2023-01-17_13h31.49.531,00_bat_bachelor,2022.2.4,60.04771789228216,
,,,,,,,,,,,,0,0,0,0,216,0,216,0,,,,,,,216,,,1,575.4679861973418,Y,l,go,l,1,0.30810899469361175,,,,,,,,,,,,,,,,,32,001,19,w,B. Sc. Psychologie,2023-01-17_13h31.49.531,00_bat_bachelor,2022.2.4,60.04771789228216,
,,,,,,,,,,,,0,0,0,0,217,0,217,0,,,,,,,217,,,1,576.8849741163867,X,d,go,d,1,0.26801980200980324,,,,,,,,,,,,,,,,,32,001,19,w,B. Sc. Psychologie,2023-01-17_13h31.49.531,00_bat_bachelor,2022.2.4,60.04771789228216,
,,,,,,,,,,,,0,0,0,0,218,0,218,0,,,,,,,218,,,1,578.2680604760972,X,None,nogo,None,1,,579.0681202093983,,,,,,,,,,,,,,,,32,001,19,w,B. Sc. Psychologie,2023-01-17_13h31.49.531,00_bat_bachelor,2022.2.4,60.04771789228216,
,,,,,,,,,,,,0,0,0,0,219,0,219,0,,,,,,,219,,,1,580.0680465124751,X,None,nogo,l,0,0.2522350823855959,,,,,,,,,,,,,,,,,32,001,19,w,B. Sc. Psychologie,2023-01-17_13h31.49.531,00_bat_bachelor,2022.2.4,60.04771789228216,
,,,,,,,,,,,,0,0,0,0,220,0,220,0,,,,,,,220,,,1,581.434490456013,Y,l,go,l,1,0.3750345380103681,,,,,,,,,,,,,,,,,32,001,19,w,B. Sc. Psychologie,2023-01-17_13h31.49.531,00_bat_bachelor,2022.2.4,60.04771789228216,
,,,,,,,,,,,,0,0,0,0,221,0,221,0,,,,,,,221,,,1,582.9177610095794,X,d,go,d,1,0.3791174451180268,,,,,,,,,,,,,,,,,32,001,19,w,B. Sc. Psychologie,2023-01-17_13h31.49.531,00_bat_bachelor,2022.2.4,60.04771789228216,
,,,,,,,,,,,,0,0,0,0,222,0,222,0,,,,,,,222,,,1,584.4010562904004,Y,l,go,l,1,0.30271845185779966,,,,,,,,,,,,,,,,,32,001,19,w,B. Sc. Psychologie,2023-01-17_13h31.49.531,00_bat_bachelor,2022.2.4,60.04771789228216,
,,,,,,,,,,,,0,0,0,0,223,0,223,0,,,,,,,223,,,1,585.8180359670223,Y,None,nogo,None,1,,586.6178372762079,,,,,,,,,,,,,,,,32,001,19,w,B. Sc. Psychologie,2023-01-17_13h31.49.531,00_bat_bachelor,2022.2.4,60.04771789228216,
,,,,,,,,,,,,0,0,0,0,224,0,224,0,,,,,,,224,,,1,587.6180564276146,X,d,go,d,1,0.2390491493861191,,,,,,,,,,,,,,,,,32,001,19,w,B. Sc. Psychologie,2023-01-17_13h31.49.531,00_bat_bachelor,2022.2.4,60.04771789228216,
,,,,,,,,,,,,0,0,0,0,225,0,225,0,,,,,,,225,,,1,588.968033954894,Y,l,go,l,1,0.2649167732015485,,,,,,,,,,,,,,,,,32,001,19,w,B. Sc. Psychologie,2023-01-17_13h31.49.531,00_bat_bachelor,2022.2.4,60.04771789228216,
,,,,,,,,,,,,0,0,0,0,226,0,226,0,,,,,,,226,,,1,590.3347455346811,X,d,go,d,1,0.29012063978007063,,,,,,,,,,,,,,,,,32,001,19,w,B. Sc. Psychologie,2023-01-17_13h31.49.531,00_bat_bachelor,2022.2.4,60.04771789228216,
,,,,,,,,,,,,0,0,0,0,227,0,227,0,,,,,,,227,,,1,591.7344234015036,X,None,nogo,None,1,,592.5347061649954,,,,,,,,,,,,,,,,32,001,19,w,B. Sc. Psychologie,2023-01-17_13h31.49.531,00_bat_bachelor,2022.2.4,60.04771789228216,
,,,,,,,,,,,,0,0,0,0,228,0,228,0,,,,,,,228,,,1,593.5343599833432,Y,l,go,l,1,0.2749191926122876,,,,,,,,,,,,,,,,,32,001,19,w,B. Sc. Psychologie,2023-01-17_13h31.49.531,00_bat_bachelor,2022.2.4,60.04771789228216,
,,,,,,,,,,,,0,0,0,0,229,0,229,0,,,,,,,229,,,1,594.9180567670119,X,d,go,d,1,0.31458996125729755,,,,,,,,,,,,,,,,,32,001,19,w,B. Sc. Psychologie,2023-01-17_13h31.49.531,00_bat_bachelor,2022.2.4,60.04771789228216,
,,,,,,,,,,,,0,0,0,0,230,0,230,0,,,,,,,230,,,1,596.3347237164999,X,None,nogo,None,1,,597.1346971468156,,,,,,,,,,,,,,,,32,001,19,w,B. Sc. Psychologie,2023-01-17_13h31.49.531,00_bat_bachelor,2022.2.4,60.04771789228216,
,,,,,,,,,,,,0,0,0,0,231,0,231,0,,,,,,,231,,,1,598.1347131468065,X,None,nogo,None,1,,598.9346967589372,,,,,,,,,,,,,,,,32,001,19,w,B. Sc. Psychologie,2023-01-17_13h31.49.531,00_bat_bachelor,2022.2.4,60.04771789228216,
,,,,,,,,,,,,0,0,0,0,232,0,232,0,,,,,,,232,,,1,599.934747183157,Y,l,go,l,1,0.33837467698322143,,,,,,,,,,,,,,,,,32,001,19,w,B. Sc. Psychologie,2023-01-17_13h31.49.531,00_bat_bachelor,2022.2.4,60.04771789228216,
,,,,,,,,,,,,0,0,0,0,233,0,233,0,,,,,,,233,,,1,601.3846975104534,X,d,go,d,1,0.34514121916436125,,,,,,,,,,,,,,,,,32,001,19,w,B. Sc. Psychologie,2023-01-17_13h31.49.531,00_bat_bachelor,2022.2.4,60.04771789228216,
,,,,,,,,,,,,0,0,0,0,234,0,234,0,,,,,,,234,,,1,602.8349082012573,X,None,nogo,None,1,,603.6345373893273,,,,,,,,,,,,,,,,32,001,19,w,B. Sc. Psychologie,2023-01-17_13h31.49.531,00_bat_bachelor,2022.2.4,60.04771789228216,
,,,,,,,,,,,,0,0,0,0,235,0,235,0,,,,,,,235,,,1,604.6345092681295,Y,l,go,l,1,0.3423974629113218,,,,,,,,,,,,,,,,,32,001,19,w,B. Sc. Psychologie,2023-01-17_13h31.49.531,00_bat_bachelor,2022.2.4,60.04771789228216,
,,,,,,,,,,,,0,0,0,0,236,0,236,0,,,,,,,236,,,1,606.0846666256257,X,d,go,d,1,0.37913441480486654,,,,,,,,,,,,,,,,,32,001,19,w,B. Sc. Psychologie,2023-01-17_13h31.49.531,00_bat_bachelor,2022.2.4,60.04771789228216,
,,,,,,,,,,,,0,0,0,0,237,0,237,0,,,,,,,237,,,1,607.5680200882343,X,None,nogo,None,1,,608.368017760964,,,,,,,,,,,,,,,,32,001,19,w,B. Sc. Psychologie,2023-01-17_13h31.49.531,00_bat_bachelor,2022.2.4,60.04771789228216,
,,,,,,,,,,,,0,0,0,0,238,0,238,0,,,,,,,238,,,1,609.3677452762495,Y,l,go,l,1,0.3135761435551103,,,,,,,,,,,,,,,,,32,001,19,w,B. Sc. Psychologie,2023-01-17_13h31.49.531,00_bat_bachelor,2022.2.4,60.04771789228216,
,,,,,,,,,,,,0,0,0,0,239,0,239,0,,,,,,,239,,,1,610.7845445893181,X,d,go,d,1,0.31917953478114214,,,,,,,,,,,,,,,,,32,001,19,w,B. Sc. Psychologie,2023-01-17_13h31.49.531,00_bat_bachelor,2022.2.4,60.04771789228216,
,,,,,,,,,,,,0,0,0,0,240,0,240,0,,,,,,,240,,,1,612.2182534699386,Y,l,go,l,1,0.3591625457047485,,,,,,,,,,,,,,,,,32,001,19,w,B. Sc. Psychologie,2023-01-17_13h31.49.531,00_bat_bachelor,2022.2.4,60.04771789228216,
,,,,,,,,,,,,0,0,0,0,241,0,241,0,,,,,,,241,,,1,613.6845203953853,X,d,go,d,1,0.25220841573900543,,,,,,,,,,,,,,,,,32,001,19,w,B. Sc. Psychologie,2023-01-17_13h31.49.531,00_bat_bachelor,2022.2.4,60.04771789228216,
,,,,,,,,,,,,0,0,0,0,242,0,242,0,,,,,,,242,,,1,615.0511742782255,X,None,nogo,None,1,,615.8513406781422,,,,,,,,,,,,,,,,32,001,19,w,B. Sc. Psychologie,2023-01-17_13h31.49.531,00_bat_bachelor,2022.2.4,60.04771789228216,
,,,,,,,,,,,,0,0,0,0,243,0,243,0,,,,,,,243,,,1,616.8513178902795,Y,l,go,l,1,0.2532120516116265,,,,,,,,,,,,,,,,,32,001,19,w,B. Sc. Psychologie,2023-01-17_13h31.49.531,00_bat_bachelor,2022.2.4,60.04771789228216,
,,,,,,,,,,,,0,0,0,0,244,0,244,0,,,,,,,244,,,1,618.218008136726,X,d,go,d,1,0.2469502364692744,,,,,,,,,,,,,,,,,32,001,19,w,B. Sc. Psychologie,2023-01-17_13h31.49.531,00_bat_bachelor,2022.2.4,60.04771789228216,
,,,,,,,,,,,,0,0,0,0,245,0,245,0,,,,,,,245,,,1,619.5678625125583,X,None,nogo,None,1,,620.3680206700519,,,,,,,,,,,,,,,,32,001,19,w,B. Sc. Psychologie,2023-01-17_13h31.49.531,00_bat_bachelor,2022.2.4,60.04771789228216,
,,,,,,,,,,,,0,0,0,0,246,0,246,0,,,,,,,246,,,1,621.3677312156506,Y,l,go,l,1,0.3454481281078188,,,,,,,,,,,,,,,,,32,001,19,w,B. Sc. Psychologie,2023-01-17_13h31.49.531,00_bat_bachelor,2022.2.4,60.04771789228216,
,,,,,,,,,,,,0,0,0,0,247,0,247,0,,,,,,,247,,,1,622.818013179145,X,d,go,d,1,0.31829614128218964,,,,,,,,,,,,,,,,,32,001,19,w,B. Sc. Psychologie,2023-01-17_13h31.49.531,00_bat_bachelor,2022.2.4,60.04771789228216,
,,,,,,,,,,,,0,0,0,0,248,0,248,0,,,,,,,248,,,1,624.2510466661624,X,None,nogo,None,1,,625.0514239750773,,,,,,,,,,,,,,,,32,001,19,w,B. Sc. Psychologie,2023-01-17_13h31.49.531,00_bat_bachelor,2022.2.4,60.04771789228216,
,,,,,,,,,,,,0,0,0,0,249,0,249,0,,,,,,,249,,,1,626.0513497932843,Y,l,go,l,1,0.36548496688192245,,,,,,,,,,,,,,,,,32,001,19,w,B. Sc. Psychologie,2023-01-17_13h31.49.531,00_bat_bachelor,2022.2.4,60.04771789228216,
,,,,,,,,,,,,1,0,1,0,0,0,0,0,,,,,,,0,,,0.2,638.0346613165311,X,d,go,None,0,,638.8346822619787,,,,,,,,626.5235236249573,space,11.288432883025962,,,,,,32,001,19,w,B. Sc. Psychologie,2023-01-17_13h31.49.531,00_bat_bachelor,2022.2.4,60.04771789228216,
,,,,,,,,,,,,1,0,1,0,1,0,1,0,,,,,,,1,,,0.2,639.0346627710824,Y,l,go,l,1,0.4069710073672468,,,,,,,,,,,,,,,,,32,001,19,w,B. Sc. Psychologie,2023-01-17_13h31.49.531,00_bat_bachelor,2022.2.4,60.04771789228216,
,,,,,,,,,,,,1,0,1,0,2,0,2,0,,,,,,,2,,,0.2,639.7513460599585,X,d,go,None,0,,640.5515623992542,,,,,,,,,,,,,,,,32,001,19,w,B. Sc. Psychologie,2023-01-17_13h31.49.531,00_bat_bachelor,2022.2.4,60.04771789228216,
,,,,,,,,,,,,1,0,1,0,3,0,3,0,,,,,,,3,,,0.2,640.7513310296636,Y,l,go,l,1,0.44939813831297215,,,,,,,,,,,,,,,,,32,001,19,w,B. Sc. Psychologie,2023-01-17_13h31.49.531,00_bat_bachelor,2022.2.4,60.04771789228216,
,,,,,,,,,,,,1,0,1,0,4,0,4,0,,,,,,,4,,,0.2,641.5014232720423,X,d,go,d,1,0.435344326950144,,,,,,,,,,,,,,,,,32,001,19,w,B. Sc. Psychologie,2023-01-17_13h31.49.531,00_bat_bachelor,2022.2.4,60.04771789228216,
,,,,,,,,,,,,1,0,1,0,5,0,5,0,,,,,,,5,,,0.2,642.2513356357231,X,None,nogo,d,0,0.5654266881174408,,,,,,,,,,,,,,,,,32,001,19,w,B. Sc. Psychologie,2023-01-17_13h31.49.531,00_bat_bachelor,2022.2.4,60.04771789228216,
,,,,,,,,,,,,1,0,1,0,6,0,6,0,,,,,,,6,,,0.2,643.117688670216,Y,l,go,l,1,0.4990121748560341,,,,,,,,,,,,,,,,,32,001,19,w,B. Sc. Psychologie,2023-01-17_13h31.49.531,00_bat_bachelor,2022.2.4,60.04771789228216,
,,,,,,,,,,,,1,0,1,0,7,0,7,0,,,,,,,7,,,0.2,643.9177076762717,X,d,go,d,1,0.4827043039840646,,,,,,,,,,,,,,,,,32,001,19,w,B. Sc. Psychologie,2023-01-17_13h31.49.531,00_bat_bachelor,2022.2.4,60.04771789228216,
,,,,,,,,,,,,1,0,1,0,8,0,8,0,,,,,,,8,,,0.2,644.7013184478565,Y,l,go,l,1,0.4508735315321246,,,,,,,,,,,,,,,,,32,001,19,w,B. Sc. Psychologie,2023-01-17_13h31.49.531,00_bat_bachelor,2022.2.4,60.04771789228216,
,,,,,,,,,,,,1,0,1,0,9,0,9,0,,,,,,,9,,,0.2,645.467956136752,Y,None,nogo,None,1,,646.2680464154982,,,,,,,,,,,,,,,,32,001,19,w,B. Sc. Psychologie,2023-01-17_13h31.49.531,00_bat_bachelor,2022.2.4,60.04771789228216,
,,,,,,,,,,,,1,0,1,0,10,0,10,0,,,,,,,10,,,0.2,646.4680351670249,X,d,go,d,1,0.3483024297602242,,,,,,,,,,,,,,,,,32,001,19,w,B. Sc. Psychologie,2023-01-17_13h31.49.531,00_bat_bachelor,2022.2.4,60.04771789228216,
,,,,,,,,,,,,1,0,1,0,11,0,11,0,,,,,,,11,,,0.2,647.1180363064195,Y,l,go,l,1,0.41778166878793854,,,,,,,,,,,,,,,,,32,001,19,w,B. Sc. Psychologie,2023-01-17_13h31.49.531,00_bat_bachelor,2022.2.4,60.04771789228216,
,,,,,,,,,,,,1,0,1,0,12,0,12,0,,,,,,,12,,,0.2,647.851209284272,X,d,go,d,1,0.43713632607250474,,,,,,,,,,,,,,,,,32,001,19,w,B. Sc. Psychologie,2023-01-17_13h31.49.531,00_bat_bachelor,2022.2.4,60.04771789228216,
,,,,,,,,,,,,1,0,1,0,13,0,13,0,,,,,,,13,,,0.2,648.6013466175355,X,None,nogo,None,1,,649.4010010177008,,,,,,,,,,,,,,,,32,001,19,w,B. Sc. Psychologie,2023-01-17_13h31.49.531,00_bat_bachelor,2022.2.4,60.04771789228216,
,,,,,,,,,,,,1,0,1,0,14,0,14,0,,,,,,,14,,,0.2,649.6010198298172,Y,l,go,l,1,0.4795784873131197,,,,,,,,,,,,,,,,,32,001,19,w,B. Sc. Psychologie,2023-01-17_13h31.49.531,00_bat_bachelor,2022.2.4,60.04771789228216,
,,,,,,,,,,,,1,0,1,0,15,0,15,0,,,,,,,15,,,0.2,650.3846626013838,X,d,go,d,1,0.4313753591704881,,,,,,,,,,,,,,,,,32,001,19,w,B. Sc. Psychologie,2023-01-17_13h31.49.531,00_bat_bachelor,2022.2.4,60.04771789228216,
,,,,,,,,,,,,1,0,1,0,16,0,16,0,,,,,,,16,,,0.2,651.1178826095129,Y,l,go,l,1,0.4825549707165919,,,,,,,,,,,,,,,,,32,001,19,w,B. Sc. Psychologie,2023-01-17_13h31.49.531,00_bat_bachelor,2022.2.4,60.04771789228216,
,,,,,,,,,,,,1,0,1,0,17,0,17,0,,,,,,,17,,,0.2,651.9013265933027,Y,None,nogo,None,1,,652.7009965086181,,,,,,,,,,,,,,,,32,001,19,w,B. Sc. Psychologie,2023-01-17_13h31.49.531,00_bat_bachelor,2022.2.4,60.04771789228216,
,,,,,,,,,,,,1,0,1,0,18,0,18,0,,,,,,,18,,,0.2,652.9010647752439,X,d,go,d,1,0.3642810886813095,,,,,,,,,,,,,,,,,32,001,19,w,B. Sc. Psychologie,2023-01-17_13h31.49.531,00_bat_bachelor,2022.2.4,60.04771789228216,
,,,,,,,,,,,,1,0,1,0,19,0,19,0,,,,,,,19,,,0.2,653.5680811791244,Y,l,go,l,1,0.46494625198829453,,,,,,,,,,,,,,,,,32,001,19,w,B. Sc. Psychologie,2023-01-17_13h31.49.531,00_bat_bachelor,2022.2.4,60.04771789228216,
,,,,,,,,,,,,1,0,1,0,20,0,20,0,,,,,,,20,,,0.2,654.3343338985142,Y,None,nogo,None,1,,655.1345725408173,,,,,,,,,,,,,,,,32,001,19,w,B. Sc. Psychologie,2023-01-17_13h31.49.531,00_bat_bachelor,2022.2.4,60.04771789228216,
,,,,,,,,,,,,1,0,1,0,21,0,21,0,,,,,,,21,,,0.2,655.3346718377434,X,d,go,d,1,0.2972619696520269,,,,,,,,,,,,,,,,,32,001,19,w,B. Sc. Psychologie,2023-01-17_13h31.49.531,00_bat_bachelor,2022.2.4,60.04771789228216,
,,,,,,,,,,,,1,0,1,0,22,0,22,0,,,,,,,22,,,0.2,655.9346977286332,Y,l,go,l,1,0.40146555549290497,,,,,,,,,,,,,,,,,32,001,19,w,B. Sc. Psychologie,2023-01-17_13h31.49.531,00_bat_bachelor,2022.2.4,60.04771789228216,
,,,,,,,,,,,,1,0,1,0,23,0,23,0,,,,,,,23,,,0.2,656.6512961690751,Y,None,nogo,None,1,,657.4514232962829,,,,,,,,,,,,,,,,32,001,19,w,B. Sc. Psychologie,2023-01-17_13h31.49.531,00_bat_bachelor,2022.2.4,60.04771789228216,
,,,,,,,,,,,,1,0,1,0,24,0,24,0,,,,,,,24,,,0.2,657.6513063508901,Y,None,nogo,None,1,,658.4513175993634,,,,,,,,,,,,,,,,32,001,19,w,B. Sc. Psychologie,2023-01-17_13h31.49.531,00_bat_bachelor,2022.2.4,60.04771789228216,
,,,,,,,,,,,,1,0,1,0,25,0,25,0,,,,,,,25,,,0.2,658.6510047752818,X,d,go,d,1,0.3413065543572884,,,,,,,,,,,,,,,,,32,001,19,w,B. Sc. Psychologie,2023-01-17_13h31.49.531,00_bat_bachelor,2022.2.4,60.04771789228216,
,,,,,,,,,,,,1,0,1,0,26,0,26,0,,,,,,,26,,,0.2,659.3010985206929,Y,l,go,l,1,0.36412933116662316,,,,,,,,,,,,,,,,,32,001,19,w,B. Sc. Psychologie,2023-01-17_13h31.49.531,00_bat_bachelor,2022.2.4,60.04771789228216,
,,,,,,,,,,,,1,0,1,0,27,0,27,0,,,,,,,27,,,0.2,659.9680131064233,Y,None,nogo,None,1,,660.7680699306366,,,,,,,,,,,,,,,,32,001,19,w,B. Sc. Psychologie,2023-01-17_13h31.49.531,00_bat_bachelor,2022.2.4,60.04771789228216,
,,,,,,,,,,,,1,0,1,0,28,0,28,0,,,,,,,28,,,0.2,660.9677352883737,X,d,go,d,1,0.408854157969472,,,,,,,,,,,,,,,,,32,001,19,w,B. Sc. Psychologie,2023-01-17_13h31.49.531,00_bat_bachelor,2022.2.4,60.04771789228216,
,,,,,,,,,,,,1,0,1,0,29,0,29,0,,,,,,,29,,,0.2,661.6844326378632,Y,l,go,l,1,0.39707913337042555,,,,,,,,,,,,,,,,,32,001,19,w,B. Sc. Psychologie,2023-01-17_13h31.49.531,00_bat_bachelor,2022.2.4,60.04771789228216,
,,,,,,,,,,,,1,0,1,0,30,0,30,0,,,,,,,30,,,0.2,662.3843319348816,X,d,go,d,1,0.49643908519647084,,,,,,,,,,,,,,,,,32,001,19,w,B. Sc. Psychologie,2023-01-17_13h31.49.531,00_bat_bachelor,2022.2.4,60.04771789228216,
,,,,,,,,,,,,1,0,1,0,31,0,31,0,,,,,,,31,,,0.2,663.1846505771391,X,None,nogo,None,1,,663.9843064318557,,,,,,,,,,,,,,,,32,001,19,w,B. Sc. Psychologie,2023-01-17_13h31.49.531,00_bat_bachelor,2022.2.4,60.04771789228216,
,,,,,,,,,,,,1,0,1,0,32,0,32,0,,,,,,,32,,,0.2,664.1845933650475,Y,l,go,l,1,0.5359799145226134,,,,,,,,,,,,,,,,,32,001,19,w,B. Sc. Psychologie,2023-01-17_13h31.49.531,00_bat_bachelor,2022.2.4,60.04771789228216,
,,,,,,,,,,,,1,0,1,0,33,0,33,0,,,,,,,33,,,0.2,665.0343209530693,X,d,go,d,1,0.3574776980240131,,,,,,,,,,,,,,,,,32,001,19,w,B. Sc. Psychologie,2023-01-17_13h31.49.531,00_bat_bachelor,2022.2.4,60.04771789228216,
,,,,,,,,,,,,1,0,1,0,34,0,34,0,,,,,,,34,,,0.2,665.7009499631822,Y,l,go,l,1,0.5557486322068144,,,,,,,,,,,,,,,,,32,001,19,w,B. Sc. Psychologie,2023-01-17_13h31.49.531,00_bat_bachelor,2022.2.4,60.04771789228216,
,,,,,,,,,,,,1,0,1,0,35,0,35,0,,,,,,,35,,,0.2,666.5677345126169,X,d,go,d,1,0.5358814903156599,,,,,,,,,,,,,,,,,32,001,19,w,B. Sc. Psychologie,2023-01-17_13h31.49.531,00_bat_bachelor,2022.2.4,60.04771789228216,
,,,,,,,,,,,,1,0,1,0,36,0,36,0,,,,,,,36,,,0.2,667.4180099791556,X,None,nogo,None,1,,668.217828258028,,,,,,,,,,,,,,,,32,001,19,w,B. Sc. Psychologie,2023-01-17_13h31.49.531,00_bat_bachelor,2022.2.4,60.04771789228216,
,,,,,,,,,,,,1,0,1,0,37,0,37,0,,,,,,,37,,,0.2,668.4179716761428,Y,l,go,l,1,0.350562307445216,,,,,,,,,,,,,,,,,32,001,19,w,B. Sc. Psychologie,2023-01-17_13h31.49.531,00_bat_bachelor,2022.2.4,60.04771789228216,
,,,,,,,,,,,,1,0,1,0,38,0,38,0,,,,,,,38,,,0.2,669.0846675953217,X,d,go,d,1,0.4991624778340338,,,,,,,,,,,,,,,,,32,001,19,w,B. Sc. Psychologie,2023-01-17_13h31.49.531,00_bat_bachelor,2022.2.4,60.04771789228216,
,,,,,,,,,,,,1,0,1,0,39,0,39,0,,,,,,,39,,,0.2,669.884657510469,Y,l,go,l,1,0.4360463871998945,,,,,,,,,,,,,,,,,32,001,19,w,B. Sc. Psychologie,2023-01-17_13h31.49.531,00_bat_bachelor,2022.2.4,60.04771789228216,
,,,,,,,,,,,,1,0,1,0,40,0,40,0,,,,,,,40,,,0.2,670.6346198135288,X,d,go,d,1,0.4544090449780924,,,,,,,,,,,,,,,,,32,001,19,w,B. Sc. Psychologie,2023-01-17_13h31.49.531,00_bat_bachelor,2022.2.4,60.04771789228216,
,,,,,,,,,,,,1,0,1,0,41,0,41,0,,,,,,,41,,,0.2,671.4013088963402,Y,l,go,l,1,0.39077222734340467,,,,,,,,,,,,,,,,,32,001,19,w,B. Sc. Psychologie,2023-01-17_13h31.49.531,00_bat_bachelor,2022.2.4,60.04771789228216,
,,,,,,,,,,,,1,0,1,0,42,0,42,0,,,,,,,42,,,0.2,672.1012770418165,X,d,go,d,1,0.4287494210584555,,,,,,,,,,,,,,,,,32,001,19,w,B. Sc. Psychologie,2023-01-17_13h31.49.531,00_bat_bachelor,2022.2.4,60.04771789228216,
,,,,,,,,,,,,1,0,1,0,43,0,43,0,,,,,,,43,,,0.2,672.8346580195648,X,None,nogo,None,1,,673.6344312075526,,,,,,,,,,,,,,,,32,001,19,w,B. Sc. Psychologie,2023-01-17_13h31.49.531,00_bat_bachelor,2022.2.4,60.04771789228216,
,,,,,,,,,,,,1,0,1,0,44,0,44,0,,,,,,,44,,,0.2,673.8347385043744,Y,l,go,l,1,0.3906771970796399,,,,,,,,,,,,,,,,,32,001,19,w,B. Sc. Psychologie,2023-01-17_13h31.49.531,00_bat_bachelor,2022.2.4,60.04771789228216,
,,,,,,,,,,,,1,0,1,0,45,0,45,0,,,,,,,45,,,0.2,674.5347735589021,X,d,go,d,1,0.42716736120928545,,,,,,,,,,,,,,,,,32,001,19,w,B. Sc. Psychologie,2023-01-17_13h31.49.531,00_bat_bachelor,2022.2.4,60.04771789228216,
,,,,,,,,,,,,1,0,1,0,46,0,46,0,,,,,,,46,,,0.2,675.2680226579396,Y,l,go,l,1,0.46105195084237494,,,,,,,,,,,,,,,,,32,001,19,w,B. Sc. Psychologie,2023-01-17_13h31.49.531,00_bat_bachelor,2022.2.4,60.04771789228216,
,,,,,,,,,,,,1,0,1,0,47,0,47,0,,,,,,,47,,,0.2,676.0343170742708,X,d,go,d,1,0.41515524582064245,,,,,,,,,,,,,,,,,32,001,19,w,B. Sc. Psychologie,2023-01-17_13h31.49.531,00_bat_bachelor,2022.2.4,60.04771789228216,
,,,,,,,,,,,,1,0,1,0,48,0,48,0,,,,,,,48,,,0.2,676.7514003629622,Y,l,go,l,1,0.4980235692783026,,,,,,,,,,,,,,,,,32,001,19,w,B. Sc. Psychologie,2023-01-17_13h31.49.531,00_bat_bachelor,2022.2.4,60.04771789228216,
,,,,,,,,,,,,1,0,1,0,49,0,49,0,,,,,,,49,,,0.2,677.5509728237812,Y,None,nogo,None,1,,678.3509700116556,,,,,,,,,,,,,,,,32,001,19,w,B. Sc. Psychologie,2023-01-17_13h31.49.531,00_bat_bachelor,2022.2.4,60.04771789228216,
,,,,,,,,,,,,1,0,1,0,50,0,50,0,,,,,,,50,,,0.2,678.5509757328691,X,d,go,d,1,0.32886631797009613,,,,,,,,,,,,,,,,,32,001,19,w,B. Sc. Psychologie,2023-01-17_13h31.49.531,00_bat_bachelor,2022.2.4,60.04771789228216,
,,,,,,,,,,,,1,0,1,0,51,0,51,0,,,,,,,51,,,0.2,679.1843761530326,Y,l,go,l,1,0.38432907895185053,,,,,,,,,,,,,,,,,32,001,19,w,B. Sc. Psychologie,2023-01-17_13h31.49.531,00_bat_bachelor,2022.2.4,60.04771789228216,
,,,,,,,,,,,,1,0,1,0,52,0,52,0,,,,,,,52,,,0.2,679.8846405407821,X,d,go,d,1,0.4845336364232935,,,,,,,,,,,,,,,,,32,001,19,w,B. Sc. Psychologie,2023-01-17_13h31.49.531,00_bat_bachelor,2022.2.4,60.04771789228216,
,,,,,,,,,,,,1,0,1,0,53,0,53,0,,,,,,,53,,,0.2,680.6844481529988,X,None,nogo,None,1,,681.484308613668,,,,,,,,,,,,,,,,32,001,19,w,B. Sc. Psychologie,2023-01-17_13h31.49.531,00_bat_bachelor,2022.2.4,60.04771789228216,
,,,,,,,,,,,,1,0,1,0,54,0,54,0,,,,,,,54,,,0.2,681.6844156681618,Y,l,go,l,1,0.4275819064641837,,,,,,,,,,,,,,,,,32,001,19,w,B. Sc. Psychologie,2023-01-17_13h31.49.531,00_bat_bachelor,2022.2.4,60.04771789228216,
,,,,,,,,,,,,1,0,1,0,55,0,55,0,,,,,,,55,,,0.2,682.4178543428716,X,d,go,d,1,0.31818220192508306,,,,,,,,,,,,,,,,,32,001,19,w,B. Sc. Psychologie,2023-01-17_13h31.49.531,00_bat_bachelor,2022.2.4,60.04771789228216,
,,,,,,,,,,,,1,0,1,0,56,0,56,0,,,,,,,56,,,0.2,683.0509885813517,X,None,nogo,None,1,,683.8512917084736,,,,,,,,,,,,,,,,32,001,19,w,B. Sc. Psychologie,2023-01-17_13h31.49.531,00_bat_bachelor,2022.2.4,60.04771789228216,
,,,,,,,,,,,,1,0,1,0,57,0,57,0,,,,,,,57,,,0.2,684.0513449448044,Y,l,go,l,1,0.3814607167005306,,,,,,,,,,,,,,,,,32,001,19,w,B. Sc. Psychologie,2023-01-17_13h31.49.531,00_bat_bachelor,2022.2.4,60.04771789228216,
,,,,,,,,,,,,1,0,1,0,58,0,58,0,,,,,,,58,,,0.2,684.7343080076098,X,d,go,d,1,0.4658601909322897,,,,,,,,,,,,,,,,,32,001,19,w,B. Sc. Psychologie,2023-01-17_13h31.49.531,00_bat_bachelor,2022.2.4,60.04771789228216,
,,,,,,,,,,,,1,0,1,0,59,0,59,0,,,,,,,59,,,0.2,685.501108605531,X,None,nogo,None,1,,686.3009676116635,,,,,,,,,,,,,,,,32,001,19,w,B. Sc. Psychologie,2023-01-17_13h31.49.531,00_bat_bachelor,2022.2.4,60.04771789228216,
,,,,,,,,,,,,1,0,1,0,60,0,60,0,,,,,,,60,,,0.2,686.5011900600366,Y,l,go,l,1,0.23519751489220653,,,,,,,,,,,,,,,,,32,001,19,w,B. Sc. Psychologie,2023-01-17_13h31.49.531,00_bat_bachelor,2022.2.4,60.04771789228216,
,,,,,,,,,,,,1,0,1,0,61,0,61,0,,,,,,,61,,,0.2,687.0513386417879,X,d,go,d,1,0.30936620621650945,,,,,,,,,,,,,,,,,32,001,19,w,B. Sc. Psychologie,2023-01-17_13h31.49.531,00_bat_bachelor,2022.2.4,60.04771789228216,
,,,,,,,,,,,,1,0,1,0,62,0,62,0,,,,,,,62,,,0.2,687.6677635550295,Y,l,go,l,1,0.33181468017573934,,,,,,,,,,,,,,,,,32,001,19,w,B. Sc. Psychologie,2023-01-17_13h31.49.531,00_bat_bachelor,2022.2.4,60.04771789228216,
,,,,,,,,,,,,1,0,1,0,63,0,63,0,,,,,,,63,,,0.2,688.3186000879505,Y,None,nogo,None,1,,689.1188876999367,,,,,,,,,,,,,,,,32,001,19,w,B. Sc. Psychologie,2023-01-17_13h31.49.531,00_bat_bachelor,2022.2.4,60.04771789228216,
,,,,,,,,,,,,1,0,1,0,64,0,64,0,,,,,,,64,,,0.2,689.3188851787272,X,d,go,d,1,0.3941511347948108,,,,,,,,,,,,,,,,,32,001,19,w,B. Sc. Psychologie,2023-01-17_13h31.49.531,00_bat_bachelor,2022.2.4,60.04771789228216,
,,,,,,,,,,,,1,0,1,0,65,0,65,0,,,,,,,65,,,0.2,690.0519306414935,Y,l,go,l,1,0.36429999776009936,,,,,,,,,,,,,,,,,32,001,19,w,B. Sc. Psychologie,2023-01-17_13h31.49.531,00_bat_bachelor,2022.2.4,60.04771789228216,
,,,,,,,,,,,,1,0,1,0,66,0,66,0,,,,,,,66,,,0.2,690.7520961201953,X,d,go,d,1,0.40003137437452096,,,,,,,,,,,,,,,,,32,001,19,w,B. Sc. Psychologie,2023-01-17_13h31.49.531,00_bat_bachelor,2022.2.4,60.04771789228216,
,,,,,,,,,,,,1,0,1,0,67,0,67,0,,,,,,,67,,,0.2,691.4684516516718,Y,l,go,l,1,0.4996390836458886,,,,,,,,,,,,,,,,,32,001,19,w,B. Sc. Psychologie,2023-01-17_13h31.49.531,00_bat_bachelor,2022.2.4,60.04771789228216,
,,,,,,,,,,,,1,0,1,0,68,0,68,0,,,,,,,68,,,0.2,692.2684430213703,Y,None,nogo,None,1,,693.0682579062996,,,,,,,,,,,,,,,,32,001,19,w,B. Sc. Psychologie,2023-01-17_13h31.49.531,00_bat_bachelor,2022.2.4,60.04771789228216,
,,,,,,,,,,,,1,0,1,0,69,0,69,0,,,,,,,69,,,0.2,693.2683387789875,X,d,go,d,1,0.508182109813788,,,,,,,,,,,,,,,,,32,001,19,w,B. Sc. Psychologie,2023-01-17_13h31.49.531,00_bat_bachelor,2022.2.4,60.04771789228216,
,,,,,,,,,,,,1,0,1,0,70,0,70,0,,,,,,,70,,,0.2,694.0851088072232,Y,l,go,l,1,0.5231314358970849,,,,,,,,,,,,,,,,,32,001,19,w,B. Sc. Psychologie,2023-01-17_13h31.49.531,00_bat_bachelor,2022.2.4,60.04771789228216,
,,,,,,,,,,,,1,0,1,0,71,0,71,0,,,,,,,71,,,0.2,694.9182967668894,X,d,go,d,1,0.5226325270486996,,,,,,,,,,,,,,,,,32,001,19,w,B. Sc. Psychologie,2023-01-17_13h31.49.531,00_bat_bachelor,2022.2.4,60.04771789228216,
,,,,,,,,,,,,1,0,1,0,72,0,72,0,,,,,,,72,,,0.2,695.7518444839661,Y,l,go,l,1,0.3769918703910662,,,,,,,,,,,,,,,,,32,001,19,w,B. Sc. Psychologie,2023-01-17_13h31.49.531,00_bat_bachelor,2022.2.4,60.04771789228216,
,,,,,,,,,,,,1,0,1,0,73,0,73,0,,,,,,,73,,,0.2,696.4349646375922,X,d,go,d,1,0.3642398765659891,,,,,,,,,,,,,,,,,32,001,19,w,B. Sc. Psychologie,2023-01-17_13h31.49.531,00_bat_bachelor,2022.2.4,60.04771789228216,
,,,,,,,,,,,,1,0,1,0,74,0,74,0,,,,,,,74,,,0.2,697.117900064055,X,None,nogo,None,1,,697.9179627064441,,,,,,,,,,,,,,,,32,001,19,w,B. Sc. Psychologie,2023-01-17_13h31.49.531,00_bat_bachelor,2022.2.4,60.04771789228216,
,,,,,,,,,,,,1,0,1,0,75,0,75,0,,,,,,,75,,,0.2,698.1176809126482,Y,l,go,l,1,0.3624216956377495,,,,,,,,,,,,,,,,,32,001,19,w,B. Sc. Psychologie,2023-01-17_13h31.49.531,00_bat_bachelor,2022.2.4,60.04771789228216,
,,,,,,,,,,,,1,0,1,0,76,0,76,0,,,,,,,76,,,0.2,698.7845877408108,X,d,go,d,1,0.46401776759012137,,,,,,,,,,,,,,,,,32,001,19,w,B. Sc. Psychologie,2023-01-17_13h31.49.531,00_bat_bachelor,2022.2.4,60.04771789228216,
,,,,,,,,,,,,1,0,1,0,77,0,77,0,,,,,,,77,,,0.2,699.5513291872339,X,None,nogo,None,1,,700.3512938902859,,,,,,,,,,,,,,,,32,001,19,w,B. Sc. Psychologie,2023-01-17_13h31.49.531,00_bat_bachelor,2022.2.4,60.04771789228216,
,,,,,,,,,,,,1,0,1,0,78,0,78,0,,,,,,,78,,,0.2,700.5513015508914,Y,l,go,l,1,0.37731574902136344,,,,,,,,,,,,,,,,,32,001,19,w,B. Sc. Psychologie,2023-01-17_13h31.49.531,00_bat_bachelor,2022.2.4,60.04771789228216,
,,,,,,,,,,,,1,0,1,0,79,0,79,0,,,,,,,79,,,0.2,701.2346238862519,X,d,go,d,1,0.3819169589114608,,,,,,,,,,,,,,,,,32,001,19,w,B. Sc. Psychologie,2023-01-17_13h31.49.531,00_bat_bachelor,2022.2.4,60.04771789228216,
,,,,,,,,,,,,1,0,1,0,80,0,80,0,,,,,,,80,,,0.2,701.9179641609953,Y,l,go,l,1,0.418463850277476,,,,,,,,,,,,,,,,,32,001,19,w,B. Sc. Psychologie,2023-01-17_13h31.49.531,00_bat_bachelor,2022.2.4,60.04771789228216,
,,,,,,,,,,,,1,0,1,0,81,0,81,0,,,,,,,81,,,0.2,702.6514726538444,X,d,go,d,1,0.4372463866166072,,,,,,,,,,,,,,,,,32,001,19,w,B. Sc. Psychologie,2023-01-17_13h31.49.531,00_bat_bachelor,2022.2.4,60.04771789228216,
,,,,,,,,,,,,1,0,1,0,82,0,82,0,,,,,,,82,,,0.2,703.4015081689722,Y,l,go,l,1,0.48697096858813893,,,,,,,,,,,,,,,,,32,001,19,w,B. Sc. Psychologie,2023-01-17_13h31.49.531,00_bat_bachelor,2022.2.4,60.04771789228216,
,,,,,,,,,,,,1,0,1,0,83,0,83,0,,,,,,,83,,,0.2,704.2013356599637,X,d,go,d,1,0.4400211731699528,,,,,,,,,,,,,,,,,32,001,19,w,B. Sc. Psychologie,2023-01-17_13h31.49.531,00_bat_bachelor,2022.2.4,60.04771789228216,
,,,,,,,,,,,,1,0,1,0,84,0,84,0,,,,,,,84,,,0.2,704.9512911751372,X,None,nogo,None,1,,705.7510983024986,,,,,,,,,,,,,,,,32,001,19,w,B. Sc. Psychologie,2023-01-17_13h31.49.531,00_bat_bachelor,2022.2.4,60.04771789228216,
,,,,,,,,,,,,1,0,1,0,85,0,85,0,,,,,,,85,,,0.2,705.9511340843019,Y,l,go,l,1,0.3849176847288618,,,,,,,,,,,,,,,,,32,001,19,w,B. Sc. Psychologie,2023-01-17_13h31.49.531,00_bat_bachelor,2022.2.4,60.04771789228216,
,,,,,,,,,,,,1,0,1,0,86,0,86,0,,,,,,,86,,,0.2,706.6512821084762,X,d,go,d,1,0.4206951219239272,,,,,,,,,,,,,,,,,32,001,19,w,B. Sc. Psychologie,2023-01-17_13h31.49.531,00_bat_bachelor,2022.2.4,60.04771789228216,
,,,,,,,,,,,,1,0,1,0,87,0,87,0,,,,,,,87,,,0.2,707.3846383589698,X,None,nogo,None,1,,708.1846903347032,,,,,,,,,,,,,,,,32,001,19,w,B. Sc. Psychologie,2023-01-17_13h31.49.531,00_bat_bachelor,2022.2.4,60.04771789228216,
,,,,,,,,,,,,1,0,1,0,88,0,88,0,,,,,,,88,,,0.2,708.384621389283,Y,l,go,l,1,0.3040857239102479,,,,,,,,,,,,,,,,,32,001,19,w,B. Sc. Psychologie,2023-01-17_13h31.49.531,00_bat_bachelor,2022.2.4,60.04771789228216,
,,,,,,,,,,,,1,0,1,0,89,0,89,0,,,,,,,89,,,0.2,709.0012804842409,X,d,go,d,1,0.31200959885609336,,,,,,,,,,,,,,,,,32,001,19,w,B. Sc. Psychologie,2023-01-17_13h31.49.531,00_bat_bachelor,2022.2.4,60.04771789228216,
,,,,,,,,,,,,1,0,1,0,90,0,90,0,,,,,,,90,,,0.2,709.6176258823689,X,None,nogo,None,1,,710.4176235550985,,,,,,,,,,,,,,,,32,001,19,w,B. Sc. Psychologie,2023-01-17_13h31.49.531,00_bat_bachelor,2022.2.4,60.04771789228216,
,,,,,,,,,,,,1,0,1,0,91,0,91,0,,,,,,,91,,,0.2,710.6179604276549,Y,l,go,l,1,0.3270428037067177,,,,,,,,,,,,,,,,,32,001,19,w,B. Sc. Psychologie,2023-01-17_13h31.49.531,00_bat_bachelor,2022.2.4,60.04771789228216,
,,,,,,,,,,,,1,0,1,0,92,0,92,0,,,,,,,92,,,0.2,711.2514723629283,X,d,go,d,1,0.4297845720575424,,,,,,,,,,,,,,,,,32,001,19,w,B. Sc. Psychologie,2023-01-17_13h31.49.531,00_bat_bachelor,2022.2.4,60.04771789228216,
,,,,,,,,,,,,1,0,1,0,93,0,93,0,,,,,,,93,,,0.2,711.9843961287843,Y,l,go,l,1,0.5754698347591329,,,,,,,,,,,,,,,,,32,001,19,w,B. Sc. Psychologie,2023-01-17_13h31.49.531,00_bat_bachelor,2022.2.4,60.04771789228216,
,,,,,,,,,,,,1,0,1,0,94,0,94,0,,,,,,,94,,,0.2,712.8678938822413,X,d,go,d,1,0.4455232311011059,,,,,,,,,,,,,,,,,32,001,19,w,B. Sc. Psychologie,2023-01-17_13h31.49.531,00_bat_bachelor,2022.2.4,60.04771789228216,
,,,,,,,,,,,,1,0,1,0,95,0,95,0,,,,,,,95,,,0.2,713.6180321852007,Y,l,go,l,1,0.3186020805151202,,,,,,,,,,,,,,,,,32,001,19,w,B. Sc. Psychologie,2023-01-17_13h31.49.531,00_bat_bachelor,2022.2.4,60.04771789228216,
,,,,,,,,,,,,1,0,1,0,96,0,96,0,,,,,,,96,,,0.2,714.2509642419609,Y,None,nogo,None,1,,715.0510365813243,,,,,,,,,,,,,,,,32,001,19,w,B. Sc. Psychologie,2023-01-17_13h31.49.531,00_bat_bachelor,2022.2.4,60.04771789228216,
,,,,,,,,,,,,1,0,1,0,97,0,97,0,,,,,,,97,,,0.2,715.2513346660271,X,d,go,d,1,0.3343266789452173,,,,,,,,,,,,,,,,,32,001,19,w,B. Sc. Psychologie,2023-01-17_13h31.49.531,00_bat_bachelor,2022.2.4,60.04771789228216,
,,,,,,,,,,,,1,0,1,0,98,0,98,0,,,,,,,98,,,0.2,715.9012461084931,Y,l,go,l,1,0.33967455514357425,,,,,,,,,,,,,,,,,32,001,19,w,B. Sc. Psychologie,2023-01-17_13h31.49.531,00_bat_bachelor,2022.2.4,60.04771789228216,
,,,,,,,,,,,,1,0,1,0,99,0,99,0,,,,,,,99,,,0.2,716.5512981569482,X,d,go,d,1,0.5218136183539173,,,,,,,,,,,,,,,,,32,001,19,w,B. Sc. Psychologie,2023-01-17_13h31.49.531,00_bat_bachelor,2022.2.4,60.04771789228216,
,,,,,,,,,,,,1,0,1,0,100,0,100,0,,,,,,,100,,,0.2,717.3845952074771,Y,l,go,l,1,0.3124362653325079,,,,,,,,,,,,,,,,,32,001,19,w,B. Sc. Psychologie,2023-01-17_13h31.49.531,00_bat_bachelor,2022.2.4,60.04771789228216,
,,,,,,,,,,,,1,0,1,0,101,0,101,0,,,,,,,101,,,0.2,718.0012969690724,Y,None,nogo,None,1,,718.8012543993973,,,,,,,,,,,,,,,,32,001,19,w,B. Sc. Psychologie,2023-01-17_13h31.49.531,00_bat_bachelor,2022.2.4,60.04771789228216,
,,,,,,,,,,,,1,0,1,0,102,0,102,0,,,,,,,102,,,0.2,719.0009527268121,X,d,go,d,1,0.3752158712595701,,,,,,,,,,,,,,,,,32,001,19,w,B. Sc. Psychologie,2023-01-17_13h31.49.531,00_bat_bachelor,2022.2.4,60.04771789228216,
,,,,,,,,,,,,1,0,1,0,103,0,103,0,,,,,,,103,,,0.2,719.684285728843,Y,l,go,l,1,0.33188304376380984,,,,,,,,,,,,,,,,,32,001,19,w,B. Sc. Psychologie,2023-01-17_13h31.49.531,00_bat_bachelor,2022.2.4,60.04771789228216,
,,,,,,,,,,,,1,0,1,0,104,0,104,0,,,,,,,104,,,0.2,720.3183930577507,Y,None,nogo,None,1,,721.1186016394786,,,,,,,,,,,,,,,,32,001,19,w,B. Sc. Psychologie,2023-01-17_13h31.49.531,00_bat_bachelor,2022.2.4,60.04771789228216,
,,,,,,,,,,,,1,0,1,0,105,0,105,0,,,,,,,105,,,0.2,721.3186476030824,X,d,go,d,1,0.28225931024644524,,,,,,,,,,,,,,,,,32,001,19,w,B. Sc. Psychologie,2023-01-17_13h31.49.531,00_bat_bachelor,2022.2.4,60.04771789228216,
,,,,,,,,,,,,1,0,1,0,106,0,106,0,,,,,,,106,,,0.2,721.9019564111804,Y,l,go,l,1,0.4021045854751719,,,,,,,,,,,,,,,,,32,001,19,w,B. Sc. Psychologie,2023-01-17_13h31.49.531,00_bat_bachelor,2022.2.4,60.04771789228216,
,,,,,,,,,,,,1,0,1,0,107,0,107,0,,,,,,,107,,,0.2,722.6355516918557,Y,None,nogo,None,1,,723.4351323950978,,,,,,,,,,,,,,,,32,001,19,w,B. Sc. Psychologie,2023-01-17_13h31.49.531,00_bat_bachelor,2022.2.4,60.04771789228216,
,,,,,,,,,,,,1,0,1,0,108,0,108,0,,,,,,,108,,,0.2,723.6352132677857,X,d,go,d,1,0.28437809711613227,,,,,,,,,,,,,,,,,32,001,19,w,B. Sc. Psychologie,2023-01-17_13h31.49.531,00_bat_bachelor,2022.2.4,60.04771789228216,
,,,,,,,,,,,,1,0,1,0,109,0,109,0,,,,,,,109,,,0.2,724.2518689688004,Y,l,go,l,1,0.43665778085414786,,,,,,,,,,,,,,,,,32,001,19,w,B. Sc. Psychologie,2023-01-17_13h31.49.531,00_bat_bachelor,2022.2.4,60.04771789228216,
,,,,,,,,,,,,1,0,1,0,110,0,110,0,,,,,,,110,,,0.2,725.0184882334725,X,d,go,d,1,0.46918091661063954,,,,,,,,,,,,,,,,,32,001,19,w,B. Sc. Psychologie,2023-01-17_13h31.49.531,00_bat_bachelor,2022.2.4,60.04771789228216,
,,,,,,,,,,,,1,0,1,0,111,0,111,0,,,,,,,111,,,0.2,725.8186396030942,Y,l,go,l,1,0.309875296879909,,,,,,,,,,,,,,,,,32,001,19,w,B. Sc. Psychologie,2023-01-17_13h31.49.531,00_bat_bachelor,2022.2.4,60.04771789228216,
,,,,,,,,,,,,1,0,1,0,112,0,112,0,,,,,,,112,,,0.2,726.4519226899865,Y,None,nogo,None,1,,727.2519489687547,,,,,,,,,,,,,,,,32,001,19,w,B. Sc. Psychologie,2023-01-17_13h31.49.531,00_bat_bachelor,2022.2.4,60.04771789228216,
,,,,,,,,,,,,1,0,1,0,113,0,113,0,,,,,,,113,,,0.2,727.4517495991604,X,d,go,d,1,0.3724056907813065,,,,,,,,,,,,,,,,,32,001,19,w,B. Sc. Psychologie,2023-01-17_13h31.49.531,00_bat_bachelor,2022.2.4,60.04771789228216,
,,,,,,,,,,,,1,0,1,0,114,0,114,0,,,,,,,114,,,0.2,728.1517613809701,Y,l,go,l,1,0.37570702252560295,,,,,,,,,,,,,,,,,32,001,19,w,B. Sc. Psychologie,2023-01-17_13h31.49.531,00_bat_bachelor,2022.2.4,60.04771789228216,
,,,,,,,,,,,,1,0,1,0,115,0,115,0,,,,,,,115,,,0.2,728.8519467384613,Y,None,nogo,None,1,,729.6517858658044,,,,,,,,,,,,,,,,32,001,19,w,B. Sc. Psychologie,2023-01-17_13h31.49.531,00_bat_bachelor,2022.2.4,60.04771789228216,
,,,,,,,,,,,,1,0,1,0,116,0,116,0,,,,,,,116,,,0.2,729.8519205566554,Y,None,nogo,None,1,,730.6517315628007,,,,,,,,,,,,,,,,32,001,19,w,B. Sc. Psychologie,2023-01-17_13h31.49.531,00_bat_bachelor,2022.2.4,60.04771789228216,
,,,,,,,,,,,,1,0,1,0,117,0,117,0,,,,,,,117,,,0.2,730.8517431021901,X,d,go,d,1,0.31553153654385824,,,,,,,,,,,,,,,,,32,001,19,w,B. Sc. Psychologie,2023-01-17_13h31.49.531,00_bat_bachelor,2022.2.4,60.04771789228216,
,,,,,,,,,,,,1,0,1,0,118,0,118,0,,,,,,,118,,,0.2,731.4850712799671,Y,l,go,l,1,0.3385981920437189,,,,,,,,,,,,,,,,,32,001,19,w,B. Sc. Psychologie,2023-01-17_13h31.49.531,00_bat_bachelor,2022.2.4,60.04771789228216,
,,,,,,,,,,,,1,0,1,0,119,0,119,0,,,,,,,119,,,0.2,732.1517647749133,X,d,go,d,1,0.39255889314517844,,,,,,,,,,,,,,,,,32,001,19,w,B. Sc. Psychologie,2023-01-17_13h31.49.531,00_bat_bachelor,2022.2.4,60.04771789228216,
,,,,,,,,,,,,1,0,1,0,120,0,120,0,,,,,,,120,,,0.2,732.8686138818885,X,None,nogo,None,1,,733.6684341001528,,,,,,,,,,,,,,,,32,001,19,w,B. Sc. Psychologie,2023-01-17_13h31.49.531,00_bat_bachelor,2022.2.4,60.04771789228216,
,,,,,,,,,,,,1,0,1,0,121,0,121,0,,,,,,,121,,,0.2,733.8684150941117,Y,l,go,l,1,0.27559458621544763,,,,,,,,,,,,,,,,,32,001,19,w,B. Sc. Psychologie,2023-01-17_13h31.49.531,00_bat_bachelor,2022.2.4,60.04771789228216,
,,,,,,,,,,,,1,0,1,0,122,0,122,0,,,,,,,122,,,0.2,734.4685748031188,X,d,go,d,1,0.426798876535031,,,,,,,,,,,,,,,,,32,001,19,w,B. Sc. Psychologie,2023-01-17_13h31.49.531,00_bat_bachelor,2022.2.4,60.04771789228216,
,,,,,,,,,,,,1,0,1,0,123,0,123,0,,,,,,,123,,,0.2,735.2352420677635,X,None,nogo,l,0,0.6538329482864356,,,,,,,,,,,,,,,,,32,001,19,w,B. Sc. Psychologie,2023-01-17_13h31.49.531,00_bat_bachelor,2022.2.4,60.04771789228216,
,,,,,,,,,,,,1,0,1,0,124,0,124,0,,,,,,,124,,,0.2,736.2017482658266,Y,l,go,None,0,,737.001797332472,,,,,,,,,,,,,,,,32,001,19,w,B. Sc. Psychologie,2023-01-17_13h31.49.531,00_bat_bachelor,2022.2.4,60.04771789228216,
,,,,,,,,,,,,1,0,1,0,125,0,125,0,,,,,,,125,,,0.2,737.2017429324915,X,d,go,d,1,0.4302000870084157,,,,,,,,,,,,,,,,,32,001,19,w,B. Sc. Psychologie,2023-01-17_13h31.49.531,00_bat_bachelor,2022.2.4,60.04771789228216,
,,,,,,,,,,,,1,0,1,0,126,0,126,0,,,,,,,126,,,0.2,737.9686118940153,Y,l,go,l,1,0.4163280937500531,,,,,,,,,,,,,,,,,32,001,19,w,B. Sc. Psychologie,2023-01-17_13h31.49.531,00_bat_bachelor,2022.2.4,60.04771789228216,
,,,,,,,,,,,,1,0,1,0,127,0,127,0,,,,,,,127,,,0.2,738.7018929930346,Y,None,nogo,None,1,,739.5019827869255,,,,,,,,,,,,,,,,32,001,19,w,B. Sc. Psychologie,2023-01-17_13h31.49.531,00_bat_bachelor,2022.2.4,60.04771789228216,
,,,,,,,,,,,,1,0,1,0,128,0,128,0,,,,,,,128,,,0.2,739.7018609930383,Y,None,nogo,None,1,,740.5018101809401,,,,,,,,,,,,,,,,32,001,19,w,B. Sc. Psychologie,2023-01-17_13h31.49.531,00_bat_bachelor,2022.2.4,60.04771789228216,
,,,,,,,,,,,,1,0,1,0,129,0,129,0,,,,,,,129,,,0.2,740.7019288718002,X,d,go,d,1,0.2582050188793801,,,,,,,,,,,,,,,,,32,001,19,w,B. Sc. Psychologie,2023-01-17_13h31.49.531,00_bat_bachelor,2022.2.4,60.04771789228216,
,,,,,,,,,,,,1,0,1,0,130,0,130,0,,,,,,,130,,,0.2,741.2851019223745,Y,l,go,l,1,0.3948832556634443,,,,,,,,,,,,,,,,,32,001,19,w,B. Sc. Psychologie,2023-01-17_13h31.49.531,00_bat_bachelor,2022.2.4,60.04771789228216,
,,,,,,,,,,,,1,0,1,0,131,0,131,0,,,,,,,131,,,0.2,741.9851888556732,X,d,go,d,1,0.4632967982470291,,,,,,,,,,,,,,,,,32,001,19,w,B. Sc. Psychologie,2023-01-17_13h31.49.531,00_bat_bachelor,2022.2.4,60.04771789228216,
,,,,,,,,,,,,1,0,1,0,132,0,132,0,,,,,,,132,,,0.2,742.7517402415833,Y,l,go,l,1,0.4324216616951162,,,,,,,,,,,,,,,,,32,001,19,w,B. Sc. Psychologie,2023-01-17_13h31.49.531,00_bat_bachelor,2022.2.4,60.04771789228216,
,,,,,,,,,,,,1,0,1,0,133,0,133,0,,,,,,,133,,,0.2,743.5186087182519,X,d,go,d,1,0.35326970006281044,,,,,,,,,,,,,,,,,32,001,19,w,B. Sc. Psychologie,2023-01-17_13h31.49.531,00_bat_bachelor,2022.2.4,60.04771789228216,
,,,,,,,,,,,,1,0,1,0,134,0,134,0,,,,,,,134,,,0.2,744.2018762657681,X,None,nogo,None,1,,745.0017439991643,,,,,,,,,,,,,,,,32,001,19,w,B. Sc. Psychologie,2023-01-17_13h31.49.531,00_bat_bachelor,2022.2.4,60.04771789228216,
,,,,,,,,,,,,1,0,1,0,135,0,135,0,,,,,,,135,,,0.2,745.2017269325006,Y,l,go,l,1,0.3020459673280129,,,,,,,,,,,,,,,,,32,001,19,w,B. Sc. Psychologie,2023-01-17_13h31.49.531,00_bat_bachelor,2022.2.4,60.04771789228216,
,,,,,,,,,,,,1,0,1,0,136,0,136,0,,,,,,,136,,,0.2,745.8183991183614,X,d,go,d,1,0.40474458420067094,,,,,,,,,,,,,,,,,32,001,19,w,B. Sc. Psychologie,2023-01-17_13h31.49.531,00_bat_bachelor,2022.2.4,60.04771789228216,
,,,,,,,,,,,,1,0,1,0,137,0,137,0,,,,,,,137,,,0.2,746.55175003552,X,None,nogo,None,1,,747.3517758294474,,,,,,,,,,,,,,,,32,001,19,w,B. Sc. Psychologie,2023-01-17_13h31.49.531,00_bat_bachelor,2022.2.4,60.04771789228216,
,,,,,,,,,,,,1,0,1,0,138,0,138,0,,,,,,,138,,,0.2,747.5517679749028,Y,l,go,l,1,0.1604935511131771,,,,,,,,,,,,,,,,,32,001,19,w,B. Sc. Psychologie,2023-01-17_13h31.49.531,00_bat_bachelor,2022.2.4,60.04771789228216,
,,,,,,,,,,,,1,0,1,0,139,0,139,0,,,,,,,139,,,0.2,748.035475376746,X,d,go,d,1,0.541030093896552,,,,,,,,,,,,,,,,,32,001,19,w,B. Sc. Psychologie,2023-01-17_13h31.49.531,00_bat_bachelor,2022.2.4,60.04771789228216,
,,,,,,,,,,,,1,0,1,0,140,0,140,0,,,,,,,140,,,0.2,748.901868168803,Y,l,go,l,1,0.3140522645408055,,,,,,,,,,,,,,,,,32,001,19,w,B. Sc. Psychologie,2023-01-17_13h31.49.531,00_bat_bachelor,2022.2.4,60.04771789228216,
,,,,,,,,,,,,1,0,1,0,141,0,141,0,,,,,,,141,,,0.2,749.5350644678547,Y,None,nogo,None,1,,750.3351212920679,,,,,,,,,,,,,,,,32,001,19,w,B. Sc. Psychologie,2023-01-17_13h31.49.531,00_bat_bachelor,2022.2.4,60.04771789228216,
,,,,,,,,,,,,1,0,1,0,142,0,142,0,,,,,,,142,,,0.2,750.5350935587485,X,d,go,d,1,0.21653376636095345,,,,,,,,,,,,,,,,,32,001,19,w,B. Sc. Psychologie,2023-01-17_13h31.49.531,00_bat_bachelor,2022.2.4,60.04771789228216,
,,,,,,,,,,,,1,0,1,0,143,0,143,0,,,,,,,143,,,0.2,751.0685032395268,Y,l,go,l,1,0.4198093041777611,,,,,,,,,,,,,,,,,32,001,19,w,B. Sc. Psychologie,2023-01-17_13h31.49.531,00_bat_bachelor,2022.2.4,60.04771789228216,
,,,,,,,,,,,,1,0,1,0,144,0,144,0,,,,,,,144,,,0.2,751.801888096059,X,d,go,d,1,0.35845321271335706,,,,,,,,,,,,,,,,,32,001,19,w,B. Sc. Psychologie,2023-01-17_13h31.49.531,00_bat_bachelor,2022.2.4,60.04771789228216,
,,,,,,,,,,,,1,0,1,0,145,0,145,0,,,,,,,145,,,0.2,752.4853185525863,X,None,nogo,None,1,,753.2851436193305,,,,,,,,,,,,,,,,32,001,19,w,B. Sc. Psychologie,2023-01-17_13h31.49.531,00_bat_bachelor,2022.2.4,60.04771789228216,
,,,,,,,,,,,,1,0,1,0,146,0,146,0,,,,,,,146,,,0.2,753.4849466739688,Y,l,go,l,1,0.22704188247735146,,,,,,,,,,,,,,,,,32,001,19,w,B. Sc. Psychologie,2023-01-17_13h31.49.531,00_bat_bachelor,2022.2.4,60.04771789228216,
,,,,,,,,,,,,1,0,1,0,147,0,147,0,,,,,,,147,,,0.2,754.0350540436193,X,d,go,d,1,0.46193534435587935,,,,,,,,,,,,,,,,,32,001,19,w,B. Sc. Psychologie,2023-01-17_13h31.49.531,00_bat_bachelor,2022.2.4,60.04771789228216,
,,,,,,,,,,,,1,0,1,0,148,0,148,0,,,,,,,148,,,0.2,754.8013169448241,X,None,nogo,None,1,,755.6015643144056,,,,,,,,,,,,,,,,32,001,19,w,B. Sc. Psychologie,2023-01-17_13h31.49.531,00_bat_bachelor,2022.2.4,60.04771789228216,
,,,,,,,,,,,,1,0,1,0,149,0,149,0,,,,,,,149,,,0.2,755.8017988839856,Y,l,go,l,1,0.29583942488534376,,,,,,,,,,,,,,,,,32,001,19,w,B. Sc. Psychologie,2023-01-17_13h31.49.531,00_bat_bachelor,2022.2.4,60.04771789228216,
,,,,,,,,,,,,1,0,1,0,150,0,150,0,,,,,,,150,,,0.2,756.401593017421,X,d,go,d,1,0.4634917072398821,,,,,,,,,,,,,,,,,32,001,19,w,B. Sc. Psychologie,2023-01-17_13h31.49.531,00_bat_bachelor,2022.2.4,60.04771789228216,
,,,,,,,,,,,,1,0,1,0,151,0,151,0,,,,,,,151,,,0.2,757.16820403967,Y,l,go,l,1,0.5447556678409455,,,,,,,,,,,,,,,,,32,001,19,w,B. Sc. Psychologie,2023-01-17_13h31.49.531,00_bat_bachelor,2022.2.4,60.04771789228216,
,,,,,,,,,,,,1,0,1,0,152,0,152,0,,,,,,,152,,,0.2,758.0182530820603,X,d,go,d,1,0.3823673829465406,,,,,,,,,,,,,,,,,32,001,19,w,B. Sc. Psychologie,2023-01-17_13h31.49.531,00_bat_bachelor,2022.2.4,60.04771789228216,
,,,,,,,,,,,,1,0,1,0,153,0,153,0,,,,,,,153,,,0.2,758.7012786902924,X,None,nogo,None,1,,759.501088241901,,,,,,,,,,,,,,,,32,001,19,w,B. Sc. Psychologie,2023-01-17_13h31.49.531,00_bat_bachelor,2022.2.4,60.04771789228216,
,,,,,,,,,,,,1,0,1,0,154,0,154,0,,,,,,,154,,,0.2,759.7012534781825,X,None,nogo,None,1,,760.5012506660714,,,,,,,,,,,,,,,,32,001,19,w,B. Sc. Psychologie,2023-01-17_13h31.49.531,00_bat_bachelor,2022.2.4,60.04771789228216,
,,,,,,,,,,,,1,0,1,0,155,0,155,0,,,,,,,155,,,0.2,760.7012597812136,Y,l,go,l,1,0.2123480714217294,,,,,,,,,,,,,,,,,32,001,19,w,B. Sc. Psychologie,2023-01-17_13h31.49.531,00_bat_bachelor,2022.2.4,60.04771789228216,
,,,,,,,,,,,,1,0,1,0,156,0,156,0,,,,,,,156,,,0.2,761.2176677732641,X,d,go,d,1,0.36700254189781845,,,,,,,,,,,,,,,,,32,001,19,w,B. Sc. Psychologie,2023-01-17_13h31.49.531,00_bat_bachelor,2022.2.4,60.04771789228216,
,,,,,,,,,,,,1,0,1,0,157,0,157,0,,,,,,,157,,,0.2,761.8845818741538,Y,l,go,l,1,0.35720763755671214,,,,,,,,,,,,,,,,,32,001,19,w,B. Sc. Psychologie,2023-01-17_13h31.49.531,00_bat_bachelor,2022.2.4,60.04771789228216,
,,,,,,,,,,,,1,0,1,0,158,0,158,0,,,,,,,158,,,0.2,762.5512690660544,Y,None,nogo,None,1,,763.351078617663,,,,,,,,,,,,,,,,32,001,19,w,B. Sc. Psychologie,2023-01-17_13h31.49.531,00_bat_bachelor,2022.2.4,60.04771789228216,
,,,,,,,,,,,,1,0,1,0,159,0,159,0,,,,,,,159,,,0.2,763.5512705206056,Y,None,nogo,None,1,,764.35133364785,,,,,,,,,,,,,,,,32,001,19,w,B. Sc. Psychologie,2023-01-17_13h31.49.531,00_bat_bachelor,2022.2.4,60.04771789228216,
,,,,,,,,,,,,1,0,1,0,160,0,160,0,,,,,,,160,,,0.2,764.5509863995248,X,d,go,d,1,0.2334127884969348,,,,,,,,,,,,,,,,,32,001,19,w,B. Sc. Psychologie,2023-01-17_13h31.49.531,00_bat_bachelor,2022.2.4,60.04771789228216,
,,,,,,,,,,,,1,0,1,0,161,0,161,0,,,,,,,161,,,0.2,765.0844004439277,Y,l,go,l,1,0.2928566384507576,,,,,,,,,,,,,,,,,32,001,19,w,B. Sc. Psychologie,2023-01-17_13h31.49.531,00_bat_bachelor,2022.2.4,60.04771789228216,
,,,,,,,,,,,,1,0,1,0,162,0,162,0,,,,,,,162,,,0.2,765.6848908194515,Y,None,nogo,None,1,,766.4846577044082,,,,,,,,,,,,,,,,32,001,19,w,B. Sc. Psychologie,2023-01-17_13h31.49.531,00_bat_bachelor,2022.2.4,60.04771789228216,
,,,,,,,,,,,,1,0,1,0,163,0,163,0,,,,,,,163,,,0.2,766.6844360317918,Y,None,nogo,None,1,,767.4844196439226,,,,,,,,,,,,,,,,32,001,19,w,B. Sc. Psychologie,2023-01-17_13h31.49.531,00_bat_bachelor,2022.2.4,60.04771789228216,
,,,,,,,,,,,,1,0,1,0,164,0,164,0,,,,,,,164,,,0.2,767.684587789292,X,d,go,d,1,0.219752673903713,,,,,,,,,,,,,,,,,32,001,19,w,B. Sc. Psychologie,2023-01-17_13h31.49.531,00_bat_bachelor,2022.2.4,60.04771789228216,
,,,,,,,,,,,,1,0,1,0,165,0,165,0,,,,,,,165,,,0.2,768.2181123791088,Y,l,go,l,1,0.29527457668154966,,,,,,,,,,,,,,,,,32,001,19,w,B. Sc. Psychologie,2023-01-17_13h31.49.531,00_bat_bachelor,2022.2.4,60.04771789228216,
,,,,,,,,,,,,1,0,1,0,166,0,166,0,,,,,,,166,,,0.2,768.8179884518904,Y,None,nogo,None,1,,769.6179226094973,,,,,,,,,,,,,,,,32,001,19,w,B. Sc. Psychologie,2023-01-17_13h31.49.531,00_bat_bachelor,2022.2.4,60.04771789228216,
,,,,,,,,,,,,1,0,1,0,167,0,167,0,,,,,,,167,,,0.2,769.8179147549527,Y,None,nogo,None,1,,770.6178993367794,,,,,,,,,,,,,,,,32,001,19,w,B. Sc. Psychologie,2023-01-17_13h31.49.531,00_bat_bachelor,2022.2.4,60.04771789228216,
,,,,,,,,,,,,1,0,1,0,168,0,168,0,,,,,,,168,,,0.2,770.8178774216358,X,d,go,d,1,0.3676061779697193,,,,,,,,,,,,,,,,,32,001,19,w,B. Sc. Psychologie,2023-01-17_13h31.49.531,00_bat_bachelor,2022.2.4,60.04771789228216,
,,,,,,,,,,,,1,0,1,0,169,0,169,0,,,,,,,169,,,0.2,771.5013549084397,Y,l,go,l,1,0.33904376756981947,,,,,,,,,,,,,,,,,32,001,19,w,B. Sc. Psychologie,2023-01-17_13h31.49.531,00_bat_bachelor,2022.2.4,60.04771789228216,
,,,,,,,,,,,,1,0,1,0,170,0,170,0,,,,,,,170,,,0.2,772.1512469569716,X,d,go,d,1,0.40954458188207354,,,,,,,,,,,,,,,,,32,001,19,w,B. Sc. Psychologie,2023-01-17_13h31.49.531,00_bat_bachelor,2022.2.4,60.04771789228216,
,,,,,,,,,,,,1,0,1,0,171,0,171,0,,,,,,,171,,,0.2,772.8680330336938,Y,l,go,l,1,0.41254773193213623,,,,,,,,,,,,,,,,,32,001,19,w,B. Sc. Psychologie,2023-01-17_13h31.49.531,00_bat_bachelor,2022.2.4,60.04771789228216,
,,,,,,,,,,,,1,0,1,0,172,0,172,0,,,,,,,172,,,0.2,773.5845417771925,X,d,go,d,1,0.3676881173159927,,,,,,,,,,,,,,,,,32,001,19,w,B. Sc. Psychologie,2023-01-17_13h31.49.531,00_bat_bachelor,2022.2.4,60.04771789228216,
,,,,,,,,,,,,1,0,1,0,173,0,173,0,,,,,,,173,,,0.2,774.2679169610201,X,None,nogo,None,1,,775.0679073610227,,,,,,,,,,,,,,,,32,001,19,w,B. Sc. Psychologie,2023-01-17_13h31.49.531,00_bat_bachelor,2022.2.4,60.04771789228216,
,,,,,,,,,,,,1,0,1,0,174,0,174,0,,,,,,,174,,,0.2,775.2680692033609,Y,l,go,l,1,0.4447886859998107,,,,,,,,,,,,,,,,,32,001,19,w,B. Sc. Psychologie,2023-01-17_13h31.49.531,00_bat_bachelor,2022.2.4,60.04771789228216,
,,,,,,,,,,,,1,0,1,0,175,0,175,0,,,,,,,175,,,0.2,776.0179146579903,X,d,go,d,1,0.43162651057355106,,,,,,,,,,,,,,,,,32,001,19,w,B. Sc. Psychologie,2023-01-17_13h31.49.531,00_bat_bachelor,2022.2.4,60.04771789228216,
,,,,,,,,,,,,1,0,1,0,176,0,176,0,,,,,,,176,,,0.2,776.7508616965642,X,None,nogo,None,1,,777.5508753692848,,,,,,,,,,,,,,,,32,001,19,w,B. Sc. Psychologie,2023-01-17_13h31.49.531,00_bat_bachelor,2022.2.4,60.04771789228216,
,,,,,,,,,,,,1,0,1,0,177,0,177,0,,,,,,,177,,,0.2,777.751027029808,Y,l,go,l,1,0.2814927651634207,,,,,,,,,,,,,,,,,32,001,19,w,B. Sc. Psychologie,2023-01-17_13h31.49.531,00_bat_bachelor,2022.2.4,60.04771789228216,
,,,,,,,,,,,,1,0,1,0,178,0,178,0,,,,,,,178,,,0.2,778.3343576560728,X,d,go,d,1,0.4501457743172068,,,,,,,,,,,,,,,,,32,001,19,w,B. Sc. Psychologie,2023-01-17_13h31.49.531,00_bat_bachelor,2022.2.4,60.04771789228216,
,,,,,,,,,,,,1,0,1,0,179,0,179,0,,,,,,,179,,,0.2,779.0843606863782,Y,l,go,l,1,0.45154504635138437,,,,,,,,,,,,,,,,,32,001,19,w,B. Sc. Psychologie,2023-01-17_13h31.49.531,00_bat_bachelor,2022.2.4,60.04771789228216,
,,,,,,,,,,,,1,0,1,0,180,0,180,0,,,,,,,180,,,0.2,779.8509251631913,X,d,go,d,1,0.3420818267040886,,,,,,,,,,,,,,,,,32,001,19,w,B. Sc. Psychologie,2023-01-17_13h31.49.531,00_bat_bachelor,2022.2.4,60.04771789228216,
,,,,,,,,,,,,1,0,1,0,181,0,181,0,,,,,,,181,,,0.2,780.5011871509487,X,None,nogo,None,1,,781.301252217585,,,,,,,,,,,,,,,,32,001,19,w,B. Sc. Psychologie,2023-01-17_13h31.49.531,00_bat_bachelor,2022.2.4,60.04771789228216,
