loop_instruction.thisRepN;loop_instruction.thisTrialN;loop_instruction.thisN;loop_instruction.thisIndex;loop_rsi_practice.thisRepN;loop_rsi_practice.thisTrialN;loop_rsi_practice.thisN;loop_rsi_practice.thisIndex;loop_practice.thisRepN;loop_practice.thisTrialN;loop_practice.thisN;loop_practice.thisIndex;loop_exp.thisRepN;loop_exp.thisTrialN;loop_exp.thisN;loop_exp.thisIndex;loop_trials.thisRepN;loop_trials.thisTrialN;loop_trials.thisN;loop_trials.thisIndex;map_condition;map_x_key;map_y_key;key_resp_welcome.started;key_resp_welcome.keys;key_resp_welcome.rt;index;text_empty_rsi_practice.started;text_empty_rsi_practice.stopped;rsi;stimulus.started;stimulus.stopped;stimulus;correct;trial_type;key_resp_trial.keys;key_resp_trial.corr;key_resp_trial.rt;key_resp_instruction_rsi.started;key_resp_instruction_rsi.keys;key_resp_instruction_rsi.rt;key_resp_instruction_rsi.stopped;key_resp_instruction_final.started;key_resp_instruction_final.keys;key_resp_instruction_final.rt;key_resp_break.started;key_resp_break.keys;key_resp_break.rt;key_resp_break.stopped;key_resp_end_screen.started;image_end_screen.started;key_resp_end_screen.keys;participant;session;Alter;Geschlecht (w/m/d/andere);Studiengang;date;expName;psychopyVersion;frameRate
;;;;0;0;0;0;0;0;0;0;;;;;;;;;1;l;d;11.378.298.429.915.800;j;4.104.886.479.806.730;0;11.419.708.247.414.000;11.429.846.181.892.600;1;11.429.846.181.892.600;11.437.843.554.984.800;X;l;go;None;0;;;;;;;;;;;;;;;;34;1;23;w;Medizin;2023-01-17_14h59.27.512;00_bat_bachelor;04/02/2022;5.999.845.822.345.510
;;;;0;0;0;0;1;0;1;0;;;;;;;;;;;;;;;1;11.443.842.267.227.800;11.453.843.513.288.000;1;11.453.843.513.288.000;;Y;d;go;d;1;0.5967243019404123;;;;;;;;;;;;;;;34;1;23;w;Medizin;2023-01-17_14h59.27.512;00_bat_bachelor;04/02/2022;5.999.845.822.345.510
;;;;0;0;0;0;2;0;2;0;;;;;;;;;;;;;;;2;11.466.845.577.286.800;11.476.844.505.772.300;1;11.476.844.505.772.300;11.484.841.709.167.600;X;l;go;None;0;;;;;;;;;;;;;;;;34;1;23;w;Medizin;2023-01-17_14h59.27.512;00_bat_bachelor;04/02/2022;5.999.845.822.345.510
;;;;0;0;0;0;3;0;3;0;;;;;;;;;;;;;;;3;11.490.843.805.651.300;11.500.841.880.803.900;1;11.500.841.880.803.900;;Y;d;go;d;1;0.4875650821340969;;;;;;;;;;;;;;;34;1;23;w;Medizin;2023-01-17_14h59.27.512;00_bat_bachelor;04/02/2022;5.999.845.822.345.510
;;;;0;0;0;0;4;0;4;0;;;;;;;;;;;;;;;4;11.512.843.654.378.800;11.522.843.596.197.000;1;11.522.843.596.197.000;;X;l;go;l;1;0.5433163278212305;;;;;;;;;;;;;;;34;1;23;w;Medizin;2023-01-17_14h59.27.512;00_bat_bachelor;04/02/2022;5.999.845.822.345.510
;;;;0;0;0;0;5;0;5;0;;;;;;;;;;;;;;;5;11.535.344.133.166.300;11.545.344.816.802.500;1;11.545.344.816.802.500;;Y;d;go;d;1;0.46951612120028585;;;;;;;;;;;;;;;34;1;23;w;Medizin;2023-01-17_14h59.27.512;00_bat_bachelor;04/02/2022;5.999.845.822.345.510
;;;;0;0;0;0;6;0;6;0;;;;;;;;;;;;;;;6;11.557.177.179.550.300;1.156.717.706.803.530;1;1.156.717.706.803.530;;X;l;go;l;1;0.5584576538240071;;;;;;;;;;;;;;;34;1;23;w;Medizin;2023-01-17_14h59.27.512;00_bat_bachelor;04/02/2022;5.999.845.822.345.510
;;;;0;0;0;0;7;0;7;0;;;;;;;;;;;;;;;7;1.157.984.600.734.730;11.589.840.586.743.900;1;11.589.840.586.743.900;;Y;d;go;d;1;0.4042734861577628;;;;;;;;;;;;;;;34;1;23;w;Medizin;2023-01-17_14h59.27.512;00_bat_bachelor;04/02/2022;5.999.845.822.345.510
;;;;0;0;0;0;8;0;8;0;;;;;;;;;;;;;;;8;11.601.008.508.601.900;11.611.010.457.691.800;1;11.611.010.457.691.800;;X;l;go;l;1;0.43084947326860856;;;;;;;;;;;;;;;34;1;23;w;Medizin;2023-01-17_14h59.27.512;00_bat_bachelor;04/02/2022;5.999.845.822.345.510
;;;;0;0;0;0;9;0;9;0;;;;;;;;;;;;;;;9;1.162.234.369.825.760;1.163.234.380.007.570;1;1.163.234.380.007.570;;Y;d;go;d;1;0.45911564138077665;;;;;;;;;;;;;;;34;1;23;w;Medizin;2023-01-17_14h59.27.512;00_bat_bachelor;04/02/2022;5.999.845.822.345.510
;;;;0;0;0;0;10;0;10;0;;;;;;;;;;;;;;;10;11.644.008.458.662.500;11.654.006.839.269.400;1;11.654.006.839.269.400;11.662.007.363.875.100;Y;None;nogo;None;1;;;;;;;;;;;;;;;;34;1;23;w;Medizin;2023-01-17_14h59.27.512;00_bat_bachelor;04/02/2022;5.999.845.822.345.510
;;;;0;0;0;0;11;0;11;0;;;;;;;;;;;;;;;11;11.668.006.808.239.000;11.678.012.379.145.500;1;11.678.012.379.145.500;;X;l;go;l;1;0.3391937601263635;;;;;;;;;;;;;;;34;1;23;w;Medizin;2023-01-17_14h59.27.512;00_bat_bachelor;04/02/2022;5.999.845.822.345.510
;;;;0;0;0;0;12;0;12;0;;;;;;;;;;;;;;;12;11.688.510.284.358.600;11.698.512.597.084.700;1;11.698.512.597.084.700;;Y;d;go;d;1;0.3205135267635342;;;;;;;;;;;;;;;34;1;23;w;Medizin;2023-01-17_14h59.27.512;00_bat_bachelor;04/02/2022;5.999.845.822.345.510
;;;;0;0;0;0;13;0;13;0;;;;;;;;;;;;;;;13;11.708.845.062.378.000;11.718.843.186.015.400;1;11.718.843.186.015.400;;X;l;go;l;1;0.3355961861234391;;;;;;;;;;;;;;;34;1;23;w;Medizin;2023-01-17_14h59.27.512;00_bat_bachelor;04/02/2022;5.999.845.822.345.510
;;;;0;0;0;0;14;0;14;0;;;;;;;;;;;;;;;14;1.172.934.347.668.190;11.739.343.462.136.400;1;11.739.343.462.136.400;;Y;d;go;d;1;0.4139971177937696;;;;;;;;;;;;;;;34;1;23;w;Medizin;2023-01-17_14h59.27.512;00_bat_bachelor;04/02/2022;5.999.845.822.345.510
;;;;1;0;1;0;0;0;0;0;;;;;;;;;;;;;;;0;11.788.011.399.751.900;11.790.010.307.873.700;0.2;11.790.010.307.873.700;;X;l;go;l;1;0.6110302344022784;11.750.626.603.332.400;j;3.720.179.757.234.290;;;;;;;;;;;;34;1;23;w;Medizin;2023-01-17_14h59.27.512;00_bat_bachelor;04/02/2022;5.999.845.822.345.510
;;;;1;0;1;0;1;0;1;0;;;;;;;;;;;;;;;1;11.803.178.548.761.900;11.805.178.305.368.000;0.2;11.805.178.305.368.000;;Y;d;go;d;1;0.35761459967761766;;;;;;;;;;;;;;;34;1;23;w;Medizin;2023-01-17_14h59.27.512;00_bat_bachelor;04/02/2022;5.999.845.822.345.510
;;;;1;0;1;0;2;0;2;0;;;;;;;;;;;;;;;2;11.815.844.957.165.900;11.817.844.980.438.800;0.2;11.817.844.980.438.800;11.825.844.530.499.500;X;l;go;None;0;;;;;;;;;;;;;;;;34;1;23;w;Medizin;2023-01-17_14h59.27.512;00_bat_bachelor;04/02/2022;5.999.845.822.345.510
;;;;1;0;1;0;3;0;3;0;;;;;;;;;;;;;;;3;11.831.843.349.409.100;1.183.384.346.965.160;0.2;1.183.384.346.965.160;11.841.841.574.864.600;X;None;nogo;None;1;;;;;;;;;;;;;;;;34;1;23;w;Medizin;2023-01-17_14h59.27.512;00_bat_bachelor;04/02/2022;5.999.845.822.345.510
;;;;1;0;1;0;4;0;4;0;;;;;;;;;;;;;;;4;11.847.843.540.439.400;11.849.843.554.015.200;0.2;11.849.843.554.015.200;;Y;d;go;d;1;0.33945218425651547;;;;;;;;;;;;;;;34;1;23;w;Medizin;2023-01-17_14h59.27.512;00_bat_bachelor;04/02/2022;5.999.845.822.345.510
;;;;1;0;1;0;5;0;5;0;;;;;;;;;;;;;;;5;11.860.352.479.829.000;11.862.353.530.980.000;0.2;11.862.353.530.980.000;;X;l;go;l;1;0.33646018568833824;;;;;;;;;;;;;;;34;1;23;w;Medizin;2023-01-17_14h59.27.512;00_bat_bachelor;04/02/2022;5.999.845.822.345.510
;;;;1;0;1;0;6;0;6;0;;;;;;;;;;;;;;;6;11.873.017.816.718.600;118.750.158.763.559;0.2;118.750.158.763.559;;X;None;nogo;l;0;0.3332708539091982;;;;;;;;;;;;;;;34;1;23;w;Medizin;2023-01-17_14h59.27.512;00_bat_bachelor;04/02/2022;5.999.845.822.345.510
;;;;1;0;1;0;7;0;7;0;;;;;;;;;;;;;;;7;11.889.847.490.982.900;11.891.845.298.499.200;0.2;11.891.845.298.499.200;1.189.984.739.401.330;Y;d;go;None;0;;;;;;;;;;;;;;;;34;1;23;w;Medizin;2023-01-17_14h59.27.512;00_bat_bachelor;04/02/2022;5.999.845.822.345.510
;;;;1;0;1;0;8;0;8;0;;;;;;;;;;;;;;;8;11.905.849.000.800.300;11.907.845.668.923.200;0.2;11.907.845.668.923.200;;X;l;go;l;1;0.36462889931863174;;;;;;;;;;;;;;;34;1;23;w;Medizin;2023-01-17_14h59.27.512;00_bat_bachelor;04/02/2022;5.999.845.822.345.510
;;;;1;0;1;0;9;0;9;0;;;;;;;;;;;;;;;9;11.918.514.177.690.000;11.920.512.639.751.300;0.2;11.920.512.639.751.300;11.928.514.410.417.200;X;None;nogo;None;1;;;;;;;;;;;;;;;;34;1;23;w;Medizin;2023-01-17_14h59.27.512;00_bat_bachelor;04/02/2022;5.999.845.822.345.510
;;;;1;0;1;0;10;0;10;0;;;;;;;;;;;;;;;10;1.193.451.301.599.350;11.936.513.349.569.200;0.2;11.936.513.349.569.200;;Y;d;go;d;1;0.39182549218821805;;;;;;;;;;;;;;;34;1;23;w;Medizin;2023-01-17_14h59.27.512;00_bat_bachelor;04/02/2022;5.999.845.822.345.510
;;;;1;0;1;0;11;0;11;0;;;;;;;;;;;;;;;11;1.194.768.110.657.880;11.949.680.771.063.800;0.2;11.949.680.771.063.800;;X;l;go;l;1;0.3866696159093408;;;;;;;;;;;;;;;34;1;23;w;Medizin;2023-01-17_14h59.27.512;00_bat_bachelor;04/02/2022;5.999.845.822.345.510
;;;;1;0;1;0;12;0;12;0;;;;;;;;;;;;;;;12;119.608.474.662.558;1.196.284.541.922.630;0.2;1.196.284.541.922.630;;X;None;nogo;l;0;0.4144630569644505;;;;;;;;;;;;;;;34;1;23;w;Medizin;2023-01-17_14h59.27.512;00_bat_bachelor;04/02/2022;5.999.845.822.345.510
;;;;1;0;1;0;13;0;13;0;;;;;;;;;;;;;;;13;119.783.453.632.264;11.980.346.147.710.900;0.2;11.980.346.147.710.900;;Y;d;go;d;1;0.48875150580715854;;;;;;;;;;;;;;;34;1;23;w;Medizin;2023-01-17_14h59.27.512;00_bat_bachelor;04/02/2022;5.999.845.822.345.510
;;;;1;0;1;0;14;0;14;0;;;;;;;;;;;;;;;14;11.992.347.373.407.200;11.994.345.762.741.400;0.2;11.994.345.762.741.400;;X;l;go;l;1;0.41770038873073645;;;;;;;;;;;;;;;34;1;23;w;Medizin;2023-01-17_14h59.27.512;00_bat_bachelor;04/02/2022;5.999.845.822.345.510
;;;;;;;;;;;;;;;;;;;;;;;;;;;;;;;;;;;;;;12.006.160.797.012.800;None;;12.006.160.797.012.800;12.006.160.797.012.800;space;29.673.103.040.840.900;;;;;;;;34;1;23;w;Medizin;2023-01-17_14h59.27.512;00_bat_bachelor;04/02/2022;5.999.845.822.345.510
;;;;;;;;;;;;0;0;0;0;0;0;0;0;;;;;;;0;;;1;12.046.011.803.145.800;;X;l;go;l;1;0.3067045637726551;;;;;;;;;;;;;;;34;1;23;w;Medizin;2023-01-17_14h59.27.512;00_bat_bachelor;04/02/2022;5.999.845.822.345.510
;;;;;;;;;;;;0;0;0;0;1;0;1;0;;;;;;;1;;;1;12.060.181.750.214.800;;Y;d;go;d;1;0.41046984678541776;;;;;;;;;;;;;;;34;1;23;w;Medizin;2023-01-17_14h59.27.512;00_bat_bachelor;04/02/2022;5.999.845.822.345.510
;;;;;;;;;;;;0;0;0;0;2;0;2;0;;;;;;;2;;;1;12.075.348.157.406.800;;X;l;go;l;1;0.3814497396379011;;;;;;;;;;;;;;;34;1;23;w;Medizin;2023-01-17_14h59.27.512;00_bat_bachelor;04/02/2022;5.999.845.822.345.510
;;;;;;;;;;;;0;0;0;0;3;0;3;0;;;;;;;3;;;1;12.090.348.867.709.500;;Y;d;go;d;1;0.433000260105473;;;;;;;;;;;;;;;34;1;23;w;Medizin;2023-01-17_14h59.27.512;00_bat_bachelor;04/02/2022;5.999.845.822.345.510
;;;;;;;;;;;;0;0;0;0;4;0;4;0;;;;;;;4;;;1;12.105.680.899.063.700;;X;l;go;l;1;0.37236513798416127;;;;;;;;;;;;;;;34;1;23;w;Medizin;2023-01-17_14h59.27.512;00_bat_bachelor;04/02/2022;5.999.845.822.345.510
;;;;;;;;;;;;0;0;0;0;5;0;5;0;;;;;;;5;;;1;1.212.051.403.126.590;1.212.851.499.223.510;X;None;nogo;None;1;;;;;;;;;;;;;;;;34;1;23;w;Medizin;2023-01-17_14h59.27.512;00_bat_bachelor;04/02/2022;5.999.845.822.345.510
;;;;;;;;;;;;0;0;0;0;6;0;6;0;;;;;;;6;;;1;1.213.851.473.526.540;;Y;d;go;d;1;0.40120003309857566;;;;;;;;;;;;;;;34;1;23;w;Medizin;2023-01-17_14h59.27.512;00_bat_bachelor;04/02/2022;5.999.845.822.345.510
;;;;;;;;;;;;0;0;0;0;7;0;7;0;;;;;;;7;;;1;12.153.680.609.124.500;;X;l;go;l;1;0.45157043292419985;;;;;;;;;;;;;;;34;1;23;w;Medizin;2023-01-17_14h59.27.512;00_bat_bachelor;04/02/2022;5.999.845.822.345.510
;;;;;;;;;;;;0;0;0;0;8;0;8;0;;;;;;;8;;;1;12.169.347.292.437.500;12.177.348.694.618.700;X;None;nogo;None;1;;;;;;;;;;;;;;;;34;1;23;w;Medizin;2023-01-17_14h59.27.512;00_bat_bachelor;04/02/2022;5.999.845.822.345.510
;;;;;;;;;;;;0;0;0;0;9;0;9;0;;;;;;;9;;;1;12.187.348.849.770.200;;Y;d;go;d;1;0.46201454907713924;;;;;;;;;;;;;;;34;1;23;w;Medizin;2023-01-17_14h59.27.512;00_bat_bachelor;04/02/2022;5.999.845.822.345.510
;;;;;;;;;;;;0;0;0;0;10;0;10;0;;;;;;;10;;;1;1.220.300.959.369.220;;X;l;go;l;1;0.47997284338634927;;;;;;;;;;;;;;;34;1;23;w;Medizin;2023-01-17_14h59.27.512;00_bat_bachelor;04/02/2022;5.999.845.822.345.510
;;;;;;;;;;;;0;0;0;0;11;0;11;0;;;;;;;11;;;1;12.218.843.142.379.000;;Y;d;go;d;1;0.46356363921950106;;;;;;;;;;;;;;;34;1;23;w;Medizin;2023-01-17_14h59.27.512;00_bat_bachelor;04/02/2022;5.999.845.822.345.510
;;;;;;;;;;;;0;0;0;0;12;0;12;0;;;;;;;12;;;1;12.234.512.235.387.900;;X;l;go;l;1;0.5287917288078461;;;;;;;;;;;;;;;34;1;23;w;Medizin;2023-01-17_14h59.27.512;00_bat_bachelor;04/02/2022;5.999.845.822.345.510
;;;;;;;;;;;;0;0;0;0;13;0;13;0;;;;;;;13;;;1;12.250.844.586.257.100;;Y;d;go;d;1;0.43123056399053894;;;;;;;;;;;;;;;34;1;23;w;Medizin;2023-01-17_14h59.27.512;00_bat_bachelor;04/02/2022;5.999.845.822.345.510
;;;;;;;;;;;;0;0;0;0;14;0;14;0;;;;;;;14;;;1;12.266.177.558.216.800;;X;l;go;l;1;0.49905307656445075;;;;;;;;;;;;;;;34;1;23;w;Medizin;2023-01-17_14h59.27.512;00_bat_bachelor;04/02/2022;5.999.845.822.345.510
;;;;;;;;;;;;0;0;0;0;15;0;15;0;;;;;;;15;;;1;12.282.175.960.157.000;;X;None;nogo;l;0;0.3541716922627529;;;;;;;;;;;;;;;34;1;23;w;Medizin;2023-01-17_14h59.27.512;00_bat_bachelor;04/02/2022;5.999.845.822.345.510
;;;;;;;;;;;;0;0;0;0;16;0;16;0;;;;;;;16;;;1;12.296.846.726.377.200;;Y;d;go;d;1;0.3117217734543374;;;;;;;;;;;;;;;34;1;23;w;Medizin;2023-01-17_14h59.27.512;00_bat_bachelor;04/02/2022;5.999.845.822.345.510
;;;;;;;;;;;;0;0;0;0;17;0;17;0;;;;;;;17;;;1;1.231.101.120.435.820;;X;l;go;l;1;0.41469384473748505;;;;;;;;;;;;;;;34;1;23;w;Medizin;2023-01-17_14h59.27.512;00_bat_bachelor;04/02/2022;5.999.845.822.345.510
;;;;;;;;;;;;0;0;0;0;18;0;18;0;;;;;;;18;;;1;1.232.617.724.791.400;;Y;d;go;d;1;0.49824095574149396;;;;;;;;;;;;;;;34;1;23;w;Medizin;2023-01-17_14h59.27.512;00_bat_bachelor;04/02/2022;5.999.845.822.345.510
;;;;;;;;;;;;0;0;0;0;19;0;19;0;;;;;;;19;;;1;12.342.177.264.398.900;;X;l;go;l;1;0.4021222144656349;;;;;;;;;;;;;;;34;1;23;w;Medizin;2023-01-17_14h59.27.512;00_bat_bachelor;04/02/2022;5.999.845.822.345.510
;;;;;;;;;;;;0;0;0;0;20;0;20;0;;;;;;;20;;;1;12.357.342.866.742.800;;Y;d;go;d;1;0.39074912907381076;;;;;;;;;;;;;;;34;1;23;w;Medizin;2023-01-17_14h59.27.512;00_bat_bachelor;04/02/2022;5.999.845.822.345.510
;;;;;;;;;;;;0;0;0;0;21;0;21;0;;;;;;;21;;;1;12.372.345.501.892.900;;X;l;go;l;1;0.3785474380274536;;;;;;;;;;;;;;;34;1;23;w;Medizin;2023-01-17_14h59.27.512;00_bat_bachelor;04/02/2022;5.999.845.822.345.510
;;;;;;;;;;;;0;0;0;0;22;0;22;0;;;;;;;22;;;1;12.387.177.737.125.800;;Y;d;go;d;1;0.49421768497268204;;;;;;;;;;;;;;;34;1;23;w;Medizin;2023-01-17_14h59.27.512;00_bat_bachelor;04/02/2022;5.999.845.822.345.510
;;;;;;;;;;;;0;0;0;0;23;0;23;0;;;;;;;23;;;1;12.403.178.320.883.100;;X;l;go;l;1;0.30209802053286694;;;;;;;;;;;;;;;34;1;23;w;Medizin;2023-01-17_14h59.27.512;00_bat_bachelor;04/02/2022;5.999.845.822.345.510
;;;;;;;;;;;;0;0;0;0;24;0;24;0;;;;;;;24;;;1;12.417.344.752.802.400;;Y;d;go;d;1;0.469983999748365;;;;;;;;;;;;;;;34;1;23;w;Medizin;2023-01-17_14h59.27.512;00_bat_bachelor;04/02/2022;5.999.845.822.345.510
;;;;;;;;;;;;0;0;0;0;25;0;25;0;;;;;;;25;;;1;12.433.176.706.338.500;124.411.777.836.713;Y;None;nogo;None;1;;;;;;;;;;;;;;;;34;1;23;w;Medizin;2023-01-17_14h59.27.512;00_bat_bachelor;04/02/2022;5.999.845.822.345.510
;;;;;;;;;;;;0;0;0;0;26;0;26;0;;;;;;;26;;;1;12.451.177.400.641.100;;X;l;go;l;1;0.2550628918252187;;;;;;;;;;;;;;;34;1;23;w;Medizin;2023-01-17_14h59.27.512;00_bat_bachelor;04/02/2022;5.999.845.822.345.510
;;;;;;;;;;;;0;0;0;0;27;0;27;0;;;;;;;27;;;1;12.464.842.373.409.700;;Y;d;go;d;1;0.32874818943673745;;;;;;;;;;;;;;;34;1;23;w;Medizin;2023-01-17_14h59.27.512;00_bat_bachelor;04/02/2022;5.999.845.822.345.510
;;;;;;;;;;;;0;0;0;0;28;0;28;0;;;;;;;28;;;1;12.479.175.990.702.400;12.487.176.122.581.200;Y;None;nogo;None;1;;;;;;;;;;;;;;;;34;1;23;w;Medizin;2023-01-17_14h59.27.512;00_bat_bachelor;04/02/2022;5.999.845.822.345.510
;;;;;;;;;;;;0;0;0;0;29;0;29;0;;;;;;;29;;;1;12.497.177.577.125.900;;X;l;go;l;1;0.3583307205408346;;;;;;;;;;;;;;;34;1;23;w;Medizin;2023-01-17_14h59.27.512;00_bat_bachelor;04/02/2022;5.999.845.822.345.510
;;;;;;;;;;;;0;0;0;0;30;0;30;0;;;;;;;30;;;1;1.251.184.253.971.260;;Y;d;go;d;1;0.42847420170437545;;;;;;;;;;;;;;;34;1;23;w;Medizin;2023-01-17_14h59.27.512;00_bat_bachelor;04/02/2022;5.999.845.822.345.510
;;;;;;;;;;;;0;0;0;0;31;0;31;0;;;;;;;31;;;1;1.252.718.006.924.590;;X;l;go;l;1;0.44741964705463033;;;;;;;;;;;;;;;34;1;23;w;Medizin;2023-01-17_14h59.27.512;00_bat_bachelor;04/02/2022;5.999.845.822.345.510
;;;;;;;;;;;;0;0;0;0;32;0;32;0;;;;;;;32;;;1;12.542.676.997.489.900;;X;None;nogo;l;0;0.4325474118377315;;;;;;;;;;;;;;;34;1;23;w;Medizin;2023-01-17_14h59.27.512;00_bat_bachelor;04/02/2022;5.999.845.822.345.510
;;;;;;;;;;;;0;0;0;0;33;0;33;0;;;;;;;33;;;1;12.558.010.832.479.400;;Y;d;go;d;1;0.4822753877379;;;;;;;;;;;;;;;34;1;23;w;Medizin;2023-01-17_14h59.27.512;00_bat_bachelor;04/02/2022;5.999.845.822.345.510
;;;;;;;;;;;;0;0;0;0;34;0;34;0;;;;;;;34;;;1;12.573.841.627.228.200;;X;l;go;l;1;0.2761125785909826;;;;;;;;;;;;;;;34;1;23;w;Medizin;2023-01-17_14h59.27.512;00_bat_bachelor;04/02/2022;5.999.845.822.345.510
;;;;;;;;;;;;0;0;0;0;35;0;35;0;;;;;;;35;;;1;12.587.673.315.067.300;;Y;d;go;d;1;0.39692173214280047;;;;;;;;;;;;;;;34;1;23;w;Medizin;2023-01-17_14h59.27.512;00_bat_bachelor;04/02/2022;5.999.845.822.345.510
;;;;;;;;;;;;0;0;0;0;36;0;36;0;;;;;;;36;;;1;12.602.676.396.278.100;12.610.676.445.732.500;Y;None;nogo;None;1;;;;;;;;;;;;;;;;34;1;23;w;Medizin;2023-01-17_14h59.27.512;00_bat_bachelor;04/02/2022;5.999.845.822.345.510
;;;;;;;;;;;;0;0;0;0;37;0;37;0;;;;;;;37;;;1;12.620.676.436.035.500;;X;l;go;l;1;0.3137746209395118;;;;;;;;;;;;;;;34;1;23;w;Medizin;2023-01-17_14h59.27.512;00_bat_bachelor;04/02/2022;5.999.845.822.345.510
;;;;;;;;;;;;0;0;0;0;38;0;38;0;;;;;;;38;;;1;12.634.843.090.985.000;;Y;d;go;d;1;0.49706762298592366;;;;;;;;;;;;;;;34;1;23;w;Medizin;2023-01-17_14h59.27.512;00_bat_bachelor;04/02/2022;5.999.845.822.345.510
;;;;;;;;;;;;0;0;0;0;39;0;39;0;;;;;;;39;;;1;1.265.084.302.504.570;12.658.843.137.530.400;Y;None;nogo;None;1;;;;;;;;;;;;;;;;34;1;23;w;Medizin;2023-01-17_14h59.27.512;00_bat_bachelor;04/02/2022;5.999.845.822.345.510
;;;;;;;;;;;;0;0;0;0;40;0;40;0;;;;;;;40;;;1;12.668.839.598.138.200;;X;l;go;l;1;0.28045730375743005;;;;;;;;;;;;;;;34;1;23;w;Medizin;2023-01-17_14h59.27.512;00_bat_bachelor;04/02/2022;5.999.845.822.345.510
;;;;;;;;;;;;0;0;0;0;41;0;41;0;;;;;;;41;;;1;12.682.673.225.370.500;;Y;d;go;d;1;0.3842715564533137;;;;;;;;;;;;;;;34;1;23;w;Medizin;2023-01-17_14h59.27.512;00_bat_bachelor;04/02/2022;5.999.845.822.345.510
;;;;;;;;;;;;0;0;0;0;42;0;42;0;;;;;;;42;;;1;12.697.680.122.336.800;;X;l;go;l;1;0.4203796601650538;;;;;;;;;;;;;;;34;1;23;w;Medizin;2023-01-17_14h59.27.512;00_bat_bachelor;04/02/2022;5.999.845.822.345.510
;;;;;;;;;;;;0;0;0;0;43;0;43;0;;;;;;;43;;;1;1.271.300.957.429.830;12.721.009.512.237.700;X;None;nogo;None;1;;;;;;;;;;;;;;;;34;1;23;w;Medizin;2023-01-17_14h59.27.512;00_bat_bachelor;04/02/2022;5.999.845.822.345.510
;;;;;;;;;;;;0;0;0;0;44;0;44;0;;;;;;;44;;;1;127.310.203.340.507;;Y;d;go;d;1;0.31783377050305717;;;;;;;;;;;;;;;34;1;23;w;Medizin;2023-01-17_14h59.27.512;00_bat_bachelor;04/02/2022;5.999.845.822.345.510
;;;;;;;;;;;;0;0;0;0;45;0;45;0;;;;;;;45;;;1;12.745.686.513.606.400;;X;l;go;l;1;0.41896487298072316;;;;;;;;;;;;;;;34;1;23;w;Medizin;2023-01-17_14h59.27.512;00_bat_bachelor;04/02/2022;5.999.845.822.345.510
;;;;;;;;;;;;0;0;0;0;46;0;46;0;;;;;;;46;;;1;12.761.348.653.891.400;12.769.353.256.071.000;X;None;nogo;None;1;;;;;;;;;;;;;;;;34;1;23;w;Medizin;2023-01-17_14h59.27.512;00_bat_bachelor;04/02/2022;5.999.845.822.345.510
;;;;;;;;;;;;0;0;0;0;47;0;47;0;;;;;;;47;;;1;1.277.935.328.516.200;;Y;d;go;d;1;0.3324660058133304;;;;;;;;;;;;;;;34;1;23;w;Medizin;2023-01-17_14h59.27.512;00_bat_bachelor;04/02/2022;5.999.845.822.345.510
;;;;;;;;;;;;0;0;0;0;48;0;48;0;;;;;;;48;;;1;12.794.019.590.778.300;;X;l;go;l;1;0.38513555604731664;;;;;;;;;;;;;;;34;1;23;w;Medizin;2023-01-17_14h59.27.512;00_bat_bachelor;04/02/2022;5.999.845.822.345.510
;;;;;;;;;;;;0;0;0;0;49;0;49;0;;;;;;;49;;;1;12.809.352.873.040.900;;Y;d;go;d;1;0.4199694785493193;;;;;;;;;;;;;;;34;1;23;w;Medizin;2023-01-17_14h59.27.512;00_bat_bachelor;04/02/2022;5.999.845.822.345.510
;;;;;;;;;;;;0;0;0;0;50;0;50;0;;;;;;;50;;;1;1.282.484.711.037.710;;X;l;go;l;1;0.3748635610245401;;;;;;;;;;;;;;;34;1;23;w;Medizin;2023-01-17_14h59.27.512;00_bat_bachelor;04/02/2022;5.999.845.822.345.510
;;;;;;;;;;;;0;0;0;0;51;0;51;0;;;;;;;51;;;1;12.839.680.552.882.000;;Y;d;go;d;1;0.3158914684026968;;;;;;;;;;;;;;;34;1;23;w;Medizin;2023-01-17_14h59.27.512;00_bat_bachelor;04/02/2022;5.999.845.822.345.510
;;;;;;;;;;;;0;0;0;0;52;0;52;0;;;;;;;52;;;1;12.854.015.998.052.700;;X;l;go;l;1;0.32302891949075274;;;;;;;;;;;;;;;34;1;23;w;Medizin;2023-01-17_14h59.27.512;00_bat_bachelor;04/02/2022;5.999.845.822.345.510
;;;;;;;;;;;;0;0;0;0;53;0;53;0;;;;;;;53;;;1;12.868.347.603.225.400;1.287.634.698.358.930;X;None;nogo;None;1;;;;;;;;;;;;;;;;34;1;23;w;Medizin;2023-01-17_14h59.27.512;00_bat_bachelor;04/02/2022;5.999.845.822.345.510
;;;;;;;;;;;;0;0;0;0;54;0;54;0;;;;;;;54;;;1;12.886.348.302.376.500;;Y;d;go;d;1;0.30518795843818225;;;;;;;;;;;;;;;34;1;23;w;Medizin;2023-01-17_14h59.27.512;00_bat_bachelor;04/02/2022;5.999.845.822.345.510
;;;;;;;;;;;;0;0;0;0;55;0;55;0;;;;;;;55;;;1;1.290.051.564.581.050;;X;l;go;l;1;0.44083298358600587;;;;;;;;;;;;;;;34;1;23;w;Medizin;2023-01-17_14h59.27.512;00_bat_bachelor;04/02/2022;5.999.845.822.345.510
;;;;;;;;;;;;0;0;0;0;56;0;56;0;;;;;;;56;;;1;12.916.181.897.608.700;;X;None;nogo;l;0;0.48977695986104663;;;;;;;;;;;;;;;34;1;23;w;Medizin;2023-01-17_14h59.27.512;00_bat_bachelor;04/02/2022;5.999.845.822.345.510
;;;;;;;;;;;;0;0;0;0;57;0;57;0;;;;;;;57;;;1;1.293.234.917.704.270;;Y;d;go;d;1;0.3935738549771486;;;;;;;;;;;;;;;34;1;23;w;Medizin;2023-01-17_14h59.27.512;00_bat_bachelor;04/02/2022;5.999.845.822.345.510
;;;;;;;;;;;;0;0;0;0;58;0;58;0;;;;;;;58;;;1;1.294.734.845.219.470;;X;l;go;l;1;0.39717142898007296;;;;;;;;;;;;;;;34;1;23;w;Medizin;2023-01-17_14h59.27.512;00_bat_bachelor;04/02/2022;5.999.845.822.345.510
;;;;;;;;;;;;0;0;0;0;59;0;59;0;;;;;;;59;;;1;1.296.234.684.977.110;;X;None;nogo;l;0;0.4319893515057629;;;;;;;;;;;;;;;34;1;23;w;Medizin;2023-01-17_14h59.27.512;00_bat_bachelor;04/02/2022;5.999.845.822.345.510
;;;;;;;;;;;;0;0;0;0;60;0;60;0;;;;;;;60;;;1;12.977.845.363.468.800;;Y;d;go;d;1;0.30676371525623836;;;;;;;;;;;;;;;34;1;23;w;Medizin;2023-01-17_14h59.27.512;00_bat_bachelor;04/02/2022;5.999.845.822.345.510
;;;;;;;;;;;;0;0;0;0;61;0;61;0;;;;;;;61;;;1;1.299.200.950.205.580;;X;l;go;l;1;0.3962744597229175;;;;;;;;;;;;;;;34;1;23;w;Medizin;2023-01-17_14h59.27.512;00_bat_bachelor;04/02/2022;5.999.845.822.345.510
;;;;;;;;;;;;0;0;0;0;62;0;62;0;;;;;;;62;;;1;13.007.009.072.965.300;;Y;d;go;d;1;0.38274379962240346;;;;;;;;;;;;;;;34;1;23;w;Medizin;2023-01-17_14h59.27.512;00_bat_bachelor;04/02/2022;5.999.845.822.345.510
;;;;;;;;;;;;0;0;0;0;63;0;63;0;;;;;;;63;;;1;1.302.184.277.243.980;;X;l;go;l;1;0.387752282054862;;;;;;;;;;;;;;;34;1;23;w;Medizin;2023-01-17_14h59.27.512;00_bat_bachelor;04/02/2022;5.999.845.822.345.510
;;;;;;;;;;;;0;0;0;0;64;0;64;0;;;;;;;64;;;1;13.036.839.356.683.900;;Y;d;go;d;1;0.40824584786605556;;;;;;;;;;;;;;;34;1;23;w;Medizin;2023-01-17_14h59.27.512;00_bat_bachelor;04/02/2022;5.999.845.822.345.510
;;;;;;;;;;;;0;0;0;0;65;0;65;0;;;;;;;65;;;1;1.305.200.950.205.580;;X;l;go;l;1;0.33160588503233157;;;;;;;;;;;;;;;34;1;23;w;Medizin;2023-01-17_14h59.27.512;00_bat_bachelor;04/02/2022;5.999.845.822.345.510
;;;;;;;;;;;;0;0;0;0;66;0;66;0;;;;;;;66;;;1;1.306.634.064.177.410;;Y;d;go;d;1;0.4012354270234937;;;;;;;;;;;;;;;34;1;23;w;Medizin;2023-01-17_14h59.27.512;00_bat_bachelor;04/02/2022;5.999.845.822.345.510
;;;;;;;;;;;;0;0;0;0;67;0;67;0;;;;;;;67;;;1;13.081.507.693.814.300;;X;l;go;l;1;0.3414749711519107;;;;;;;;;;;;;;;34;1;23;w;Medizin;2023-01-17_14h59.27.512;00_bat_bachelor;04/02/2022;5.999.845.822.345.510
;;;;;;;;;;;;0;0;0;0;68;0;68;0;;;;;;;68;;;1;1.309.600.761.405.680;13.104.006.465.936.200;X;None;nogo;None;1;;;;;;;;;;;;;;;;34;1;23;w;Medizin;2023-01-17_14h59.27.512;00_bat_bachelor;04/02/2022;5.999.845.822.345.510
;;;;;;;;;;;;0;0;0;0;69;0;69;0;;;;;;;69;;;1;13.114.009.408.965.000;;Y;d;go;d;1;0.6279218625713838;;;;;;;;;;;;;;;34;1;23;w;Medizin;2023-01-17_14h59.27.512;00_bat_bachelor;04/02/2022;5.999.845.822.345.510
;;;;;;;;;;;;0;0;0;0;70;0;70;0;;;;;;;70;;;1;13.131.340.978.743.600;;X;l;go;l;1;0.36578283814014867;;;;;;;;;;;;;;;34;1;23;w;Medizin;2023-01-17_14h59.27.512;00_bat_bachelor;04/02/2022;5.999.845.822.345.510
;;;;;;;;;;;;0;0;0;0;71;0;71;0;;;;;;;71;;;1;1.314.600.998.981.330;;Y;d;go;d;1;0.5149173113022698;;;;;;;;;;;;;;;34;1;23;w;Medizin;2023-01-17_14h59.27.512;00_bat_bachelor;04/02/2022;5.999.845.822.345.510
;;;;;;;;;;;;0;0;0;0;72;0;72;0;;;;;;;72;;;1;13.162.173.215.915.900;;X;l;go;l;1;0.43415468379680533;;;;;;;;;;;;;;;34;1;23;w;Medizin;2023-01-17_14h59.27.512;00_bat_bachelor;04/02/2022;5.999.845.822.345.510
;;;;;;;;;;;;0;0;0;0;73;0;73;0;;;;;;;73;;;1;13.177.676.655.671.800;;Y;d;go;d;1;0.43679031888314057;;;;;;;;;;;;;;;34;1;23;w;Medizin;2023-01-17_14h59.27.512;00_bat_bachelor;04/02/2022;5.999.845.822.345.510
;;;;;;;;;;;;0;0;0;0;74;0;74;0;;;;;;;74;;;1;13.193.176.046.944.800;13.201.173.429.734.000;Y;None;nogo;None;1;;;;;;;;;;;;;;;;34;1;23;w;Medizin;2023-01-17_14h59.27.512;00_bat_bachelor;04/02/2022;5.999.845.822.345.510
;;;;;;;;;;;;0;0;0;0;75;0;75;0;;;;;;;75;;;1;1.321.117.435.579.420;;X;l;go;l;1;0.5428877219819697;;;;;;;;;;;;;;;34;1;23;w;Medizin;2023-01-17_14h59.27.512;00_bat_bachelor;04/02/2022;5.999.845.822.345.510
;;;;;;;;;;;;0;0;0;0;76;0;76;0;;;;;;;76;;;1;13.227.673.121.128.100;;Y;d;go;d;1;0.5249488215777092;;;;;;;;;;;;;;;34;1;23;w;Medizin;2023-01-17_14h59.27.512;00_bat_bachelor;04/02/2022;5.999.845.822.345.510
;;;;;;;;;;;;0;0;0;0;77;0;77;0;;;;;;;77;;;1;13.244.007.173.814.600;;X;l;go;l;1;0.3315947335213423;;;;;;;;;;;;;;;34;1;23;w;Medizin;2023-01-17_14h59.27.512;00_bat_bachelor;04/02/2022;5.999.845.822.345.510
;;;;;;;;;;;;0;0;0;0;78;0;78;0;;;;;;;78;;;1;1.325.834.133.898.590;;Y;d;go;d;1;0.370132896641735;;;;;;;;;;;;;;;34;1;23;w;Medizin;2023-01-17_14h59.27.512;00_bat_bachelor;04/02/2022;5.999.845.822.345.510
;;;;;;;;;;;;0;0;0;0;79;0;79;0;;;;;;;79;;;1;13.273.175.373.005.700;;X;l;go;l;1;0.42316705276607536;;;;;;;;;;;;;;;34;1;23;w;Medizin;2023-01-17_14h59.27.512;00_bat_bachelor;04/02/2022;5.999.845.822.345.510
;;;;;;;;;;;;0;0;0;0;80;0;80;0;;;;;;;80;;;1;13.288.510.303.752.500;;Y;d;go;d;1;0.4094356654823059;;;;;;;;;;;;;;;34;1;23;w;Medizin;2023-01-17_14h59.27.512;00_bat_bachelor;04/02/2022;5.999.845.822.345.510
;;;;;;;;;;;;0;0;0;0;81;0;81;0;;;;;;;81;;;1;13.303.672.803.067.700;13.311.675.941.005.500;Y;None;nogo;None;1;;;;;;;;;;;;;;;;34;1;23;w;Medizin;2023-01-17_14h59.27.512;00_bat_bachelor;04/02/2022;5.999.845.822.345.510
;;;;;;;;;;;;0;0;0;0;82;0;82;0;;;;;;;82;;;1;13.321.672.774.946.400;;X;l;go;l;1;0.2932398430129979;;;;;;;;;;;;;;;34;1;23;w;Medizin;2023-01-17_14h59.27.512;00_bat_bachelor;04/02/2022;5.999.845.822.345.510
;;;;;;;;;;;;0;0;0;0;83;0;83;0;;;;;;;83;;;1;13.335.676.002.096.400;;Y;d;go;d;1;0.508715617339476;;;;;;;;;;;;;;;34;1;23;w;Medizin;2023-01-17_14h59.27.512;00_bat_bachelor;04/02/2022;5.999.845.822.345.510
;;;;;;;;;;;;0;0;0;0;84;0;84;0;;;;;;;84;;;1;13.351.840.430.622.800;13.359.842.598.864.100;Y;None;nogo;None;1;;;;;;;;;;;;;;;;34;1;23;w;Medizin;2023-01-17_14h59.27.512;00_bat_bachelor;04/02/2022;5.999.845.822.345.510
;;;;;;;;;;;;0;0;0;0;85;0;85;0;;;;;;;85;;;1;13.369.842.710.379.300;;X;l;go;l;1;0.2602066469116835;;;;;;;;;;;;;;;34;1;23;w;Medizin;2023-01-17_14h59.27.512;00_bat_bachelor;04/02/2022;5.999.845.822.345.510
;;;;;;;;;;;;0;0;0;0;86;0;86;0;;;;;;;86;;;1;13.383.509.239.510.600;;Y;d;go;d;1;0.42920583770319354;;;;;;;;;;;;;;;34;1;23;w;Medizin;2023-01-17_14h59.27.512;00_bat_bachelor;04/02/2022;5.999.845.822.345.510
;;;;;;;;;;;;0;0;0;0;87;0;87;0;;;;;;;87;;;1;13.398.839.389.653.500;;X;l;go;l;1;0.2875171791383764;;;;;;;;;;;;;;;34;1;23;w;Medizin;2023-01-17_14h59.27.512;00_bat_bachelor;04/02/2022;5.999.845.822.345.510
;;;;;;;;;;;;0;0;0;0;88;0;88;0;;;;;;;88;;;1;13.412.840.793.774.000;13.420.839.626.259.500;X;None;nogo;None;1;;;;;;;;;;;;;;;;34;1;23;w;Medizin;2023-01-17_14h59.27.512;00_bat_bachelor;04/02/2022;5.999.845.822.345.510
;;;;;;;;;;;;0;0;0;0;89;0;89;0;;;;;;;89;;;1;13.430.842.535.349.000;1.343.884.070.844.080;X;None;nogo;None;1;;;;;;;;;;;;;;;;34;1;23;w;Medizin;2023-01-17_14h59.27.512;00_bat_bachelor;04/02/2022;5.999.845.822.345.510
;;;;;;;;;;;;0;0;0;0;90;0;90;0;;;;;;;90;;;1;13.448.839.535.108.100;;Y;d;go;d;1;0.26442870547180064;;;;;;;;;;;;;;;34;1;23;w;Medizin;2023-01-17_14h59.27.512;00_bat_bachelor;04/02/2022;5.999.845.822.345.510
;;;;;;;;;;;;0;0;0;0;91;0;91;0;;;;;;;91;;;1;1.346.250.916.726.820;;X;l;go;l;1;0.369589866604656;;;;;;;;;;;;;;;34;1;23;w;Medizin;2023-01-17_14h59.27.512;00_bat_bachelor;04/02/2022;5.999.845.822.345.510
;;;;;;;;;;;;0;0;0;0;92;0;92;0;;;;;;;92;;;1;1.347.734.469.946.920;1.348.533.968.225.950;X;None;nogo;None;1;;;;;;;;;;;;;;;;34;1;23;w;Medizin;2023-01-17_14h59.27.512;00_bat_bachelor;04/02/2022;5.999.845.822.345.510
;;;;;;;;;;;;0;0;0;0;93;0;93;0;;;;;;;93;;;1;13.495.342.547.712.600;;Y;d;go;d;1;0.28614408888097387;;;;;;;;;;;;;;;34;1;23;w;Medizin;2023-01-17_14h59.27.512;00_bat_bachelor;04/02/2022;5.999.845.822.345.510
;;;;;;;;;;;;0;0;0;0;94;0;94;0;;;;;;;94;;;1;13.509.342.487.591.400;;X;l;go;l;1;0.30998068339249585;;;;;;;;;;;;;;;34;1;23;w;Medizin;2023-01-17_14h59.27.512;00_bat_bachelor;04/02/2022;5.999.845.822.345.510
;;;;;;;;;;;;0;0;0;0;95;0;95;0;;;;;;;95;;;1;1.352.350.694.132.990;13.531.509.065.934.900;X;None;nogo;None;1;;;;;;;;;;;;;;;;34;1;23;w;Medizin;2023-01-17_14h59.27.512;00_bat_bachelor;04/02/2022;5.999.845.822.345.510
;;;;;;;;;;;;0;0;0;0;96;0;96;0;;;;;;;96;;;1;13.541.506.016.239.400;;Y;d;go;d;1;0.34170236496720463;;;;;;;;;;;;;;;34;1;23;w;Medizin;2023-01-17_14h59.27.512;00_bat_bachelor;04/02/2022;5.999.845.822.345.510
;;;;;;;;;;;;0;0;0;0;97;0;97;0;;;;;;;97;;;1;13.556.007.963.147.500;;X;l;go;l;1;0.6030006625369424;;;;;;;;;;;;;;;34;1;23;w;Medizin;2023-01-17_14h59.27.512;00_bat_bachelor;04/02/2022;5.999.845.822.345.510
;;;;;;;;;;;;0;0;0;0;98;0;98;0;;;;;;;98;;;1;13.573.175.756.035.900;13.581.175.301.248.200;X;None;nogo;None;1;;;;;;;;;;;;;;;;34;1;23;w;Medizin;2023-01-17_14h59.27.512;00_bat_bachelor;04/02/2022;5.999.845.822.345.510
;;;;;;;;;;;;0;0;0;0;99;0;99;0;;;;;;;99;;;1;13.591.173.977.612.600;;Y;d;go;d;1;0.33373679307987913;;;;;;;;;;;;;;;34;1;23;w;Medizin;2023-01-17_14h59.27.512;00_bat_bachelor;04/02/2022;5.999.845.822.345.510
;;;;;;;;;;;;0;0;0;0;100;0;100;0;;;;;;;100;;;1;13.605.675.628.763.200;;X;l;go;l;1;0.4845730835804716;;;;;;;;;;;;;;;34;1;23;w;Medizin;2023-01-17_14h59.27.512;00_bat_bachelor;04/02/2022;5.999.845.822.345.510
;;;;;;;;;;;;0;0;0;0;101;0;101;0;;;;;;;101;;;1;13.621.672.668.279.900;;Y;d;go;d;1;0.5011747725075111;;;;;;;;;;;;;;;34;1;23;w;Medizin;2023-01-17_14h59.27.512;00_bat_bachelor;04/02/2022;5.999.845.822.345.510
;;;;;;;;;;;;0;0;0;0;102;0;102;0;;;;;;;102;;;1;13.637.843.113.772.900;;X;l;go;l;1;0.308659956761403;;;;;;;;;;;;;;;34;1;23;w;Medizin;2023-01-17_14h59.27.512;00_bat_bachelor;04/02/2022;5.999.845.822.345.510
;;;;;;;;;;;;0;0;0;0;103;0;103;0;;;;;;;103;;;1;13.652.008.992.965.200;;Y;d;go;d;1;0.34737848343502264;;;;;;;;;;;;;;;34;1;23;w;Medizin;2023-01-17_14h59.27.512;00_bat_bachelor;04/02/2022;5.999.845.822.345.510
;;;;;;;;;;;;0;0;0;0;104;0;104;0;;;;;;;104;;;1;13.666.509.087.753.000;13.674.507.605.087.100;Y;None;nogo;None;1;;;;;;;;;;;;;;;;34;1;23;w;Medizin;2023-01-17_14h59.27.512;00_bat_bachelor;04/02/2022;5.999.845.822.345.510
;;;;;;;;;;;;0;0;0;0;105;0;105;0;;;;;;;105;;;1;13.684.510.596.600.800;;X;l;go;l;1;0.2649363415839616;;;;;;;;;;;;;;;34;1;23;w;Medizin;2023-01-17_14h59.27.512;00_bat_bachelor;04/02/2022;5.999.845.822.345.510
;;;;;;;;;;;;0;0;0;0;106;0;106;0;;;;;;;106;;;1;1.369.817.382.876.410;;Y;d;go;d;1;0.38628658578090835;;;;;;;;;;;;;;;34;1;23;w;Medizin;2023-01-17_14h59.27.512;00_bat_bachelor;04/02/2022;5.999.845.822.345.510
;;;;;;;;;;;;0;0;0;0;107;0;107;0;;;;;;;107;;;1;13.713.175.843.308.500;1.372.117.679.458.090;Y;None;nogo;None;1;;;;;;;;;;;;;;;;34;1;23;w;Medizin;2023-01-17_14h59.27.512;00_bat_bachelor;04/02/2022;5.999.845.822.345.510
;;;;;;;;;;;;0;0;0;0;108;0;108;0;;;;;;;108;;;1;13.731.175.805.490.400;;X;l;go;l;1;0.2379215668188408;;;;;;;;;;;;;;;34;1;23;w;Medizin;2023-01-17_14h59.27.512;00_bat_bachelor;04/02/2022;5.999.845.822.345.510
;;;;;;;;;;;;0;0;0;0;109;0;109;0;;;;;;;109;;;1;13.744.675.668.035.900;;Y;d;go;d;1;0.36156756746640895;;;;;;;;;;;;;;;34;1;23;w;Medizin;2023-01-17_14h59.27.512;00_bat_bachelor;04/02/2022;5.999.845.822.345.510
;;;;;;;;;;;;0;0;0;0;110;0;110;0;;;;;;;110;;;1;1.375.934.319.062.140;;X;l;go;l;1;0.3985750646679662;;;;;;;;;;;;;;;34;1;23;w;Medizin;2023-01-17_14h59.27.512;00_bat_bachelor;04/02/2022;5.999.845.822.345.510
;;;;;;;;;;;;0;0;0;0;111;0;111;0;;;;;;;111;;;1;13.774.342.378.500.500;13.782.342.272.803.600;X;None;nogo;None;1;;;;;;;;;;;;;;;;34;1;23;w;Medizin;2023-01-17_14h59.27.512;00_bat_bachelor;04/02/2022;5.999.845.822.345.510
;;;;;;;;;;;;0;0;0;0;112;0;112;0;;;;;;;112;;;1;13.792.339.528.562.500;;Y;d;go;d;1;0.2809479701973032;;;;;;;;;;;;;;;34;1;23;w;Medizin;2023-01-17_14h59.27.512;00_bat_bachelor;04/02/2022;5.999.845.822.345.510
;;;;;;;;;;;;0;0;0;0;113;0;113;0;;;;;;;113;;;1;13.806.175.604.278.300;;X;l;go;l;1;0.3863539797021076;;;;;;;;;;;;;;;34;1;23;w;Medizin;2023-01-17_14h59.27.512;00_bat_bachelor;04/02/2022;5.999.845.822.345.510
;;;;;;;;;;;;0;0;0;0;114;0;114;0;;;;;;;114;;;1;13.821.176.537.611.300;;Y;d;go;d;1;0.3915709468565183;;;;;;;;;;;;;;;34;1;23;w;Medizin;2023-01-17_14h59.27.512;00_bat_bachelor;04/02/2022;5.999.845.822.345.510
;;;;;;;;;;;;0;0;0;0;115;0;115;0;;;;;;;115;;;1;1.383.617.572.064.200;13.844.175.391.914.900;Y;None;nogo;None;1;;;;;;;;;;;;;;;;34;1;23;w;Medizin;2023-01-17_14h59.27.512;00_bat_bachelor;04/02/2022;5.999.845.822.345.510
;;;;;;;;;;;;0;0;0;0;116;0;116;0;;;;;;;116;;;1;13.854.175.692.520.800;;X;l;go;l;1;0.24217659505666234;;;;;;;;;;;;;;;34;1;23;w;Medizin;2023-01-17_14h59.27.512;00_bat_bachelor;04/02/2022;5.999.845.822.345.510
;;;;;;;;;;;;0;0;0;0;117;0;117;0;;;;;;;117;;;1;13.867.672.466.583.000;;Y;d;go;d;1;0.3322720665310044;;;;;;;;;;;;;;;34;1;23;w;Medizin;2023-01-17_14h59.27.512;00_bat_bachelor;04/02/2022;5.999.845.822.345.510
;;;;;;;;;;;;0;0;0;0;118;0;118;0;;;;;;;118;;;1;13.882.007.029.329.800;;X;l;go;l;1;0.38699397938034963;;;;;;;;;;;;;;;34;1;23;w;Medizin;2023-01-17_14h59.27.512;00_bat_bachelor;04/02/2022;5.999.845.822.345.510
;;;;;;;;;;;;0;0;0;0;119;0;119;0;;;;;;;119;;;1;13.897.009.000.238.000;1.390.500.602.423.940;X;None;nogo;None;1;;;;;;;;;;;;;;;;34;1;23;w;Medizin;2023-01-17_14h59.27.512;00_bat_bachelor;04/02/2022;5.999.845.822.345.510
;;;;;;;;;;;;0;0;0;0;120;0;120;0;;;;;;;120;;;1;1.391.500.703.757.230;;X;None;nogo;d;0;0.20668958195892628;;;;;;;;;;;;;;;34;1;23;w;Medizin;2023-01-17_14h59.27.512;00_bat_bachelor;04/02/2022;5.999.845.822.345.510
;;;;;;;;;;;;0;0;0;0;121;0;121;0;;;;;;;121;;;1;13.928.175.525.733.000;;Y;d;go;d;1;0.36242962765390985;;;;;;;;;;;;;;;34;1;23;w;Medizin;2023-01-17_14h59.27.512;00_bat_bachelor;04/02/2022;5.999.845.822.345.510
;;;;;;;;;;;;0;0;0;0;122;0;122;0;;;;;;;122;;;1;13.942.840.599.834.700;;X;l;go;l;1;0.28761511847551446;;;;;;;;;;;;;;;34;1;23;w;Medizin;2023-01-17_14h59.27.512;00_bat_bachelor;04/02/2022;5.999.845.822.345.510
;;;;;;;;;;;;0;0;0;0;123;0;123;0;;;;;;;123;;;1;13.956.839.022.138.500;;Y;d;go;d;1;0.40791275711671915;;;;;;;;;;;;;;;34;1;23;w;Medizin;2023-01-17_14h59.27.512;00_bat_bachelor;04/02/2022;5.999.845.822.345.510
;;;;;;;;;;;;0;0;0;0;124;0;124;0;;;;;;;124;;;1;13.972.005.967.512.200;;Y;None;nogo;l;0;0.2672636131901527;;;;;;;;;;;;;;;34;1;23;w;Medizin;2023-01-17_14h59.27.512;00_bat_bachelor;04/02/2022;5.999.845.822.345.510
;;;;;;;;;;;;0;0;0;0;125;0;125;0;;;;;;;125;;;1;13.985.840.210.501.600;;X;l;go;l;1;0.3711030779959401;;;;;;;;;;;;;;;34;1;23;w;Medizin;2023-01-17_14h59.27.512;00_bat_bachelor;04/02/2022;5.999.845.822.345.510
;;;;;;;;;;;;0;0;0;0;126;0;126;0;;;;;;;126;;;1;14.000.675.597.248.100;;Y;d;go;d;1;0.23201029695337638;;;;;;;;;;;;;;;34;1;23;w;Medizin;2023-01-17_14h59.27.512;00_bat_bachelor;04/02/2022;5.999.845.822.345.510
;;;;;;;;;;;;0;0;0;0;127;0;127;0;;;;;;;127;;;1;14.014.008.778.662.300;;X;l;go;l;1;0.4353139559534611;;;;;;;;;;;;;;;34;1;23;w;Medizin;2023-01-17_14h59.27.512;00_bat_bachelor;04/02/2022;5.999.845.822.345.510
;;;;;;;;;;;;0;0;0;0;128;0;128;0;;;;;;;128;;;1;14.029.508.916.601.600;;Y;d;go;d;1;0.3101237136288546;;;;;;;;;;;;;;;34;1;23;w;Medizin;2023-01-17_14h59.27.512;00_bat_bachelor;04/02/2022;5.999.845.822.345.510
;;;;;;;;;;;;0;0;0;0;129;0;129;0;;;;;;;129;;;1;1.404.367.550.367.240;1.405.167.270.221.920;Y;None;nogo;None;1;;;;;;;;;;;;;;;;34;1;23;w;Medizin;2023-01-17_14h59.27.512;00_bat_bachelor;04/02/2022;5.999.845.822.345.510
;;;;;;;;;;;;0;0;0;0;130;0;130;0;;;;;;;130;;;1;14.061.675.480.399.700;;X;l;go;l;1;0.26033852563705295;;;;;;;;;;;;;;;34;1;23;w;Medizin;2023-01-17_14h59.27.512;00_bat_bachelor;04/02/2022;5.999.845.822.345.510
;;;;;;;;;;;;0;0;0;0;131;0;131;0;;;;;;;131;;;1;1.407.533.914.407.780;;Y;d;go;d;1;0.4468315261328826;;;;;;;;;;;;;;;34;1;23;w;Medizin;2023-01-17_14h59.27.512;00_bat_bachelor;04/02/2022;5.999.845.822.345.510
;;;;;;;;;;;;0;0;0;0;132;0;132;0;;;;;;;132;;;1;14.090.843.029.894.300;;X;l;go;l;1;0.3039772923657438;;;;;;;;;;;;;;;34;1;23;w;Medizin;2023-01-17_14h59.27.512;00_bat_bachelor;04/02/2022;5.999.845.822.345.510
;;;;;;;;;;;;0;0;0;0;133;0;133;0;;;;;;;133;;;1;14.105.005.704.239.500;;Y;d;go;d;1;0.4239719008473912;;;;;;;;;;;;;;;34;1;23;w;Medizin;2023-01-17_14h59.27.512;00_bat_bachelor;04/02/2022;5.999.845.822.345.510
;;;;;;;;;;;;0;0;0;0;134;0;134;0;;;;;;;134;;;1;14.120.342.298.015.700;;X;l;go;l;1;0.28185609096544795;;;;;;;;;;;;;;;34;1;23;w;Medizin;2023-01-17_14h59.27.512;00_bat_bachelor;04/02/2022;5.999.845.822.345.510
;;;;;;;;;;;;0;0;0;0;135;0;135;0;;;;;;;135;;;1;14.134.175.357.975.400;;Y;d;go;d;1;0.2114701856917236;;;;;;;;;;;;;;;34;1;23;w;Medizin;2023-01-17_14h59.27.512;00_bat_bachelor;04/02/2022;5.999.845.822.345.510
;;;;;;;;;;;;0;0;0;0;136;0;136;0;;;;;;;136;;;1;14.147.342.711.591.300;;X;l;go;l;1;0.2696068847726565;;;;;;;;;;;;;;;34;1;23;w;Medizin;2023-01-17_14h59.27.512;00_bat_bachelor;04/02/2022;5.999.845.822.345.510
;;;;;;;;;;;;0;0;0;0;137;0;137;0;;;;;;;137;;;1;1.416.117.599.458.120;;Y;d;go;d;1;0.4871689611172769;;;;;;;;;;;;;;;34;1;23;w;Medizin;2023-01-17_14h59.27.512;00_bat_bachelor;04/02/2022;5.999.845.822.345.510
;;;;;;;;;;;;0;0;0;0;138;0;138;0;;;;;;;138;;;1;14.177.177.615.913.800;;X;l;go;l;1;0.262749191140756;;;;;;;;;;;;;;;34;1;23;w;Medizin;2023-01-17_14h59.27.512;00_bat_bachelor;04/02/2022;5.999.845.822.345.510
;;;;;;;;;;;;0;0;0;0;139;0;139;0;;;;;;;139;;;1;14.190.841.968.076.500;1.419.884.022.359.250;X;None;nogo;None;1;;;;;;;;;;;;;;;;34;1;23;w;Medizin;2023-01-17_14h59.27.512;00_bat_bachelor;04/02/2022;5.999.845.822.345.510
;;;;;;;;;;;;0;0;0;0;140;0;140;0;;;;;;;140;;;1;14.208.843.016.318.400;;Y;d;go;d;1;0.2638536754529923;;;;;;;;;;;;;;;34;1;23;w;Medizin;2023-01-17_14h59.27.512;00_bat_bachelor;04/02/2022;5.999.845.822.345.510
;;;;;;;;;;;;0;0;0;0;141;0;141;0;;;;;;;141;;;1;14.222.508.895.753.200;;X;l;go;l;1;0.2572248301730724;;;;;;;;;;;;;;;34;1;23;w;Medizin;2023-01-17_14h59.27.512;00_bat_bachelor;04/02/2022;5.999.845.822.345.510
;;;;;;;;;;;;0;0;0;0;142;0;142;0;;;;;;;142;;;1;14.236.173.044.279.700;;Y;d;go;d;1;0.25024980325542856;;;;;;;;;;;;;;;34;1;23;w;Medizin;2023-01-17_14h59.27.512;00_bat_bachelor;04/02/2022;5.999.845.822.345.510
;;;;;;;;;;;;0;0;0;0;143;0;143;0;;;;;;;143;;;1;14.249.840.150.380.400;14.257.839.884.683.600;Y;None;nogo;None;1;;;;;;;;;;;;;;;;34;1;23;w;Medizin;2023-01-17_14h59.27.512;00_bat_bachelor;04/02/2022;5.999.845.822.345.510
;;;;;;;;;;;;0;0;0;0;144;0;144;0;;;;;;;144;;;1;14.267.841.382.864.700;;X;l;go;l;1;0.23586629508645274;;;;;;;;;;;;;;;34;1;23;w;Medizin;2023-01-17_14h59.27.512;00_bat_bachelor;04/02/2022;5.999.845.822.345.510
;;;;;;;;;;;;0;0;0;0;145;0;145;0;;;;;;;145;;;1;1.428.134.014.965.320;;Y;d;go;d;1;0.3104820164880948;;;;;;;;;;;;;;;34;1;23;w;Medizin;2023-01-17_14h59.27.512;00_bat_bachelor;04/02/2022;5.999.845.822.345.510
;;;;;;;;;;;;0;0;0;0;146;0;146;0;;;;;;;146;;;1;14.295.508.613.086.700;;X;l;go;l;1;0.3649416264379397;;;;;;;;;;;;;;;34;1;23;w;Medizin;2023-01-17_14h59.27.512;00_bat_bachelor;04/02/2022;5.999.845.822.345.510
;;;;;;;;;;;;0;0;0;0;147;0;147;0;;;;;;;147;;;1;14.310.175.359.914.800;;Y;d;go;d;1;0.24261295846372377;;;;;;;;;;;;;;;34;1;23;w;Medizin;2023-01-17_14h59.27.512;00_bat_bachelor;04/02/2022;5.999.845.822.345.510
;;;;;;;;;;;;0;0;0;0;148;0;148;0;;;;;;;148;;;1;14.323.675.508.520.900;;X;l;go;l;1;0.37991131615126505;;;;;;;;;;;;;;;34;1;23;w;Medizin;2023-01-17_14h59.27.512;00_bat_bachelor;04/02/2022;5.999.845.822.345.510
;;;;;;;;;;;;0;0;0;0;149;0;149;0;;;;;;;149;;;1;14.338.508.296.480.700;;Y;d;go;d;1;0.24233126164472196;;;;;;;;;;;;;;;34;1;23;w;Medizin;2023-01-17_14h59.27.512;00_bat_bachelor;04/02/2022;5.999.845.822.345.510
;;;;;;;;;;;;0;0;0;0;150;0;150;0;;;;;;;150;;;1;14.352.008.711.753.200;;Y;None;nogo;l;0;0.2508287120726891;;;;;;;;;;;;;;;34;1;23;w;Medizin;2023-01-17_14h59.27.512;00_bat_bachelor;04/02/2022;5.999.845.822.345.510
;;;;;;;;;;;;0;0;0;0;151;0;151;0;;;;;;;151;;;1;14.365.675.192.399.700;;X;l;go;l;1;0.29391184268752113;;;;;;;;;;;;;;;34;1;23;w;Medizin;2023-01-17_14h59.27.512;00_bat_bachelor;04/02/2022;5.999.845.822.345.510
;;;;;;;;;;;;0;0;0;0;152;0;152;0;;;;;;;152;;;1;1.437.967.249.955.260;;Y;d;go;d;1;0.33245000583701767;;;;;;;;;;;;;;;34;1;23;w;Medizin;2023-01-17_14h59.27.512;00_bat_bachelor;04/02/2022;5.999.845.822.345.510
;;;;;;;;;;;;0;0;0;0;153;0;153;0;;;;;;;153;;;1;14.394.008.575.026.000;;Y;None;nogo;l;0;0.24417465468286537;;;;;;;;;;;;;;;34;1;23;w;Medizin;2023-01-17_14h59.27.512;00_bat_bachelor;04/02/2022;5.999.845.822.345.510
;;;;;;;;;;;;0;0;0;0;154;0;154;0;;;;;;;154;;;1;14.407.506.750.299.600;;X;l;go;l;1;0.429845352540724;;;;;;;;;;;;;;;34;1;23;w;Medizin;2023-01-17_14h59.27.512;00_bat_bachelor;04/02/2022;5.999.845.822.345.510
;;;;;;;;;;;;0;0;0;0;155;0;155;0;;;;;;;155;;;1;1.442.284.206.407.650;;Y;d;go;d;1;0.38383810211962555;;;;;;;;;;;;;;;34;1;23;w;Medizin;2023-01-17_14h59.27.512;00_bat_bachelor;04/02/2022;5.999.845.822.345.510
;;;;;;;;;;;;0;0;0;0;156;0;156;0;;;;;;;156;;;1;14.437.676.098.096.400;;X;l;go;l;1;0.30872735066805035;;;;;;;;;;;;;;;34;1;23;w;Medizin;2023-01-17_14h59.27.512;00_bat_bachelor;04/02/2022;5.999.845.822.345.510
;;;;;;;;;;;;0;0;0;0;157;0;157;0;;;;;;;157;;;1;14.451.839.994.259.300;14.459.838.860.684.100;X;None;nogo;None;1;;;;;;;;;;;;;;;;34;1;23;w;Medizin;2023-01-17_14h59.27.512;00_bat_bachelor;04/02/2022;5.999.845.822.345.510
;;;;;;;;;;;;0;0;0;0;158;0;158;0;;;;;;;158;;;1;14.469.842.007.349.200;;X;None;nogo;l;0;0.4672746677242685;;;;;;;;;;;;;;;34;1;23;w;Medizin;2023-01-17_14h59.27.512;00_bat_bachelor;04/02/2022;5.999.845.822.345.510
;;;;;;;;;;;;0;0;0;0;159;0;159;0;;;;;;;159;;;1;14.485.675.420.278.500;;Y;d;go;d;1;0.34143375905114226;;;;;;;;;;;;;;;34;1;23;w;Medizin;2023-01-17_14h59.27.512;00_bat_bachelor;04/02/2022;5.999.845.822.345.510
;;;;;;;;;;;;0;0;0;0;160;0;160;0;;;;;;;160;;;1;1.450.017.330.415.830;;X;l;go;l;1;0.31483159013441764;;;;;;;;;;;;;;;34;1;23;w;Medizin;2023-01-17_14h59.27.512;00_bat_bachelor;04/02/2022;5.999.845.822.345.510
;;;;;;;;;;;;0;0;0;0;161;0;161;0;;;;;;;161;;;1;14.514.342.102.137.100;;Y;d;go;d;1;0.4818336909665959;;;;;;;;;;;;;;;34;1;23;w;Medizin;2023-01-17_14h59.27.512;00_bat_bachelor;04/02/2022;5.999.845.822.345.510
;;;;;;;;;;;;0;0;0;0;162;0;162;0;;;;;;;162;;;1;14.530.175.161.127.100;;X;l;go;l;1;0.2427826553612249;;;;;;;;;;;;;;;34;1;23;w;Medizin;2023-01-17_14h59.27.512;00_bat_bachelor;04/02/2022;5.999.845.822.345.510
;;;;;;;;;;;;0;0;0;0;163;0;163;0;;;;;;;163;;;1;14.543.675.154.581.700;1.455.167.479.676.360;X;None;nogo;None;1;;;;;;;;;;;;;;;;34;1;23;w;Medizin;2023-01-17_14h59.27.512;00_bat_bachelor;04/02/2022;5.999.845.822.345.510
;;;;;;;;;;;;0;0;0;0;164;0;164;0;;;;;;;164;;;1;1.456.167.517.009.680;;Y;d;go;d;1;0.27730675984639674;;;;;;;;;;;;;;;34;1;23;w;Medizin;2023-01-17_14h59.27.512;00_bat_bachelor;04/02/2022;5.999.845.822.345.510
;;;;;;;;;;;;0;0;0;0;165;0;165;0;;;;;;;165;;;1;1.457.550.928.702.570;;X;l;go;l;1;0.364778717426816;;;;;;;;;;;;;;;34;1;23;w;Medizin;2023-01-17_14h59.27.512;00_bat_bachelor;04/02/2022;5.999.845.822.345.510
;;;;;;;;;;;;0;0;0;0;166;0;166;0;;;;;;;166;;;1;14.590.175.262.945.200;;Y;d;go;d;1;0.45027346385177225;;;;;;;;;;;;;;;34;1;23;w;Medizin;2023-01-17_14h59.27.512;00_bat_bachelor;04/02/2022;5.999.845.822.345.510
;;;;;;;;;;;;0;0;0;0;167;0;167;0;;;;;;;167;;;1;14.605.839.682.017.100;;X;l;go;l;1;0.3083273508527782;;;;;;;;;;;;;;;34;1;23;w;Medizin;2023-01-17_14h59.27.512;00_bat_bachelor;04/02/2022;5.999.845.822.345.510
;;;;;;;;;;;;0;0;0;0;168;0;168;0;;;;;;;168;;;1;14.620.006.555.148.200;14.628.007.259.147.900;X;None;nogo;None;1;;;;;;;;;;;;;;;;34;1;23;w;Medizin;2023-01-17_14h59.27.512;00_bat_bachelor;04/02/2022;5.999.845.822.345.510
;;;;;;;;;;;;0;0;0;0;169;0;169;0;;;;;;;169;;;1;1.463.800.843.248.070;;Y;d;go;d;1;0.3395331539068138;;;;;;;;;;;;;;;34;1;23;w;Medizin;2023-01-17_14h59.27.512;00_bat_bachelor;04/02/2022;5.999.845.822.345.510
;;;;;;;;;;;;0;0;0;0;170;0;170;0;;;;;;;170;;;1;14.652.507.848.481.000;;X;l;go;l;1;0.3459132720308844;;;;;;;;;;;;;;;34;1;23;w;Medizin;2023-01-17_14h59.27.512;00_bat_bachelor;04/02/2022;5.999.845.822.345.510
;;;;;;;;;;;;0;0;0;0;171;0;171;0;;;;;;;171;;;1;14.667.005.232.967.000;;Y;d;go;d;1;0.3028965656121727;;;;;;;;;;;;;;;34;1;23;w;Medizin;2023-01-17_14h59.27.512;00_bat_bachelor;04/02/2022;5.999.845.822.345.510
;;;;;;;;;;;;0;0;0;0;172;0;172;0;;;;;;;172;;;1;14.681.175.194.581.700;;X;l;go;l;1;0.3269338872778462;;;;;;;;;;;;;;;34;1;23;w;Medizin;2023-01-17_14h59.27.512;00_bat_bachelor;04/02/2022;5.999.845.822.345.510
;;;;;;;;;;;;0;0;0;0;173;0;173;0;;;;;;;173;;;1;14.695.508.346.420.100;;Y;d;go;d;1;0.25275016568775754;;;;;;;;;;;;;;;34;1;23;w;Medizin;2023-01-17_14h59.27.512;00_bat_bachelor;04/02/2022;5.999.845.822.345.510
;;;;;;;;;;;;0;0;0;0;174;0;174;0;;;;;;;174;;;1;147.091.758.937.329;;X;l;go;l;1;0.26296543345961254;;;;;;;;;;;;;;;34;1;23;w;Medizin;2023-01-17_14h59.27.512;00_bat_bachelor;04/02/2022;5.999.845.822.345.510
;;;;;;;;;;;;0;0;0;0;175;0;175;0;;;;;;;175;;;1;14.722.838.335.593.500;;Y;d;go;d;1;0.22437830065609887;;;;;;;;;;;;;;;34;1;23;w;Medizin;2023-01-17_14h59.27.512;00_bat_bachelor;04/02/2022;5.999.845.822.345.510
;;;;;;;;;;;;0;0;0;0;176;0;176;0;;;;;;;176;;;1;14.736.175.342.460.300;;X;l;go;l;1;0.266020947121433;;;;;;;;;;;;;;;34;1;23;w;Medizin;2023-01-17_14h59.27.512;00_bat_bachelor;04/02/2022;5.999.845.822.345.510
;;;;;;;;;;;;0;0;0;0;177;0;177;0;;;;;;;177;;;1;14.749.838.409.775.200;;Y;d;go;d;1;0.22837538961903192;;;;;;;;;;;;;;;34;1;23;w;Medizin;2023-01-17_14h59.27.512;00_bat_bachelor;04/02/2022;5.999.845.822.345.510
;;;;;;;;;;;;0;0;0;0;178;0;178;0;;;;;;;178;;;1;14.763.175.465.126.900;;X;l;go;l;1;0.3985605192283401;;;;;;;;;;;;;;;34;1;23;w;Medizin;2023-01-17_14h59.27.512;00_bat_bachelor;04/02/2022;5.999.845.822.345.510
;;;;;;;;;;;;0;0;0;0;179;0;179;0;;;;;;;179;;;1;14.778.174.638.460.700;;X;None;nogo;d;0;0.24298435222590342;;;;;;;;;;;;;;;34;1;23;w;Medizin;2023-01-17_14h59.27.512;00_bat_bachelor;04/02/2022;5.999.845.822.345.510
;;;;;;;;;;;;0;0;0;0;180;0;180;0;;;;;;;180;;;1;14.791.677.187.065.500;;Y;d;go;d;1;0.5729909801157191;;;;;;;;;;;;;;;34;1;23;w;Medizin;2023-01-17_14h59.27.512;00_bat_bachelor;04/02/2022;5.999.845.822.345.510
;;;;;;;;;;;;0;0;0;0;181;0;181;0;;;;;;;181;;;1;14.808.508.262.541.400;;X;l;go;l;1;0.3132776514830766;;;;;;;;;;;;;;;34;1;23;w;Medizin;2023-01-17_14h59.27.512;00_bat_bachelor;04/02/2022;5.999.845.822.345.510
;;;;;;;;;;;;0;0;0;0;182;0;182;0;;;;;;;182;;;1;1.482.267.590.658.120;;Y;d;go;d;1;0.4171990556496894;;;;;;;;;;;;;;;34;1;23;w;Medizin;2023-01-17_14h59.27.512;00_bat_bachelor;04/02/2022;5.999.845.822.345.510
;;;;;;;;;;;;0;0;0;0;183;0;183;0;;;;;;;183;;;1;14.838.005.673.694.100;;X;l;go;l;1;0.2594236169825308;;;;;;;;;;;;;;;34;1;23;w;Medizin;2023-01-17_14h59.27.512;00_bat_bachelor;04/02/2022;5.999.845.822.345.510
;;;;;;;;;;;;0;0;0;0;184;0;184;0;;;;;;;184;;;1;14.851.675.082.824.200;14.859.671.908.037.800;X;None;nogo;None;1;;;;;;;;;;;;;;;;34;1;23;w;Medizin;2023-01-17_14h59.27.512;00_bat_bachelor;04/02/2022;5.999.845.822.345.510
;;;;;;;;;;;;0;0;0;0;185;0;185;0;;;;;;;185;;;1;14.869.674.962.581.700;;Y;d;go;d;1;0.3088446839392418;;;;;;;;;;;;;;;34;1;23;w;Medizin;2023-01-17_14h59.27.512;00_bat_bachelor;04/02/2022;5.999.845.822.345.510
;;;;;;;;;;;;0;0;0;0;186;0;186;0;;;;;;;186;;;1;14.883.838.509.654.000;;X;l;go;l;1;0.3482570284686517;;;;;;;;;;;;;;;34;1;23;w;Medizin;2023-01-17_14h59.27.512;00_bat_bachelor;04/02/2022;5.999.845.822.345.510
;;;;;;;;;;;;0;0;0;0;187;0;187;0;;;;;;;187;;;1;14.898.341.566.864.600;;Y;d;go;d;1;0.3855025861703325;;;;;;;;;;;;;;;34;1;23;w;Medizin;2023-01-17_14h59.27.512;00_bat_bachelor;04/02/2022;5.999.845.822.345.510
;;;;;;;;;;;;0;0;0;0;188;0;188;0;;;;;;;188;;;1;14.913.341.991.106.800;;X;l;go;l;1;0.26263816088612657;;;;;;;;;;;;;;;34;1;23;w;Medizin;2023-01-17_14h59.27.512;00_bat_bachelor;04/02/2022;5.999.845.822.345.510
;;;;;;;;;;;;0;0;0;0;189;0;189;0;;;;;;;189;;;1;1.492.700.543.175.490;;Y;d;go;d;1;0.3993837915622862;;;;;;;;;;;;;;;34;1;23;w;Medizin;2023-01-17_14h59.27.512;00_bat_bachelor;04/02/2022;5.999.845.822.345.510
;;;;;;;;;;;;0;0;0;0;190;0;190;0;;;;;;;190;;;1;14.942.011.029.327.900;;X;l;go;l;1;0.29173487405932974;;;;;;;;;;;;;;;34;1;23;w;Medizin;2023-01-17_14h59.27.512;00_bat_bachelor;04/02/2022;5.999.845.822.345.510
;;;;;;;;;;;;0;0;0;0;191;0;191;0;;;;;;;191;;;1;14.956.005.330.421.600;;Y;d;go;d;1;0.28402287779317703;;;;;;;;;;;;;;;34;1;23;w;Medizin;2023-01-17_14h59.27.512;00_bat_bachelor;04/02/2022;5.999.845.822.345.510
;;;;;;;;;;;;0;0;0;0;192;0;192;0;;;;;;;192;;;1;14.970.005.076.361.100;;X;l;go;l;1;0.3238066160847666;;;;;;;;;;;;;;;34;1;23;w;Medizin;2023-01-17_14h59.27.512;00_bat_bachelor;04/02/2022;5.999.845.822.345.510
;;;;;;;;;;;;0;0;0;0;193;0;193;0;;;;;;;193;;;1;1.498.434.149.122.820;;Y;d;go;d;1;0.2658599775022594;;;;;;;;;;;;;;;34;1;23;w;Medizin;2023-01-17_14h59.27.512;00_bat_bachelor;04/02/2022;5.999.845.822.345.510
;;;;;;;;;;;;0;0;0;0;194;0;194;0;;;;;;;194;;;1;1.499.800.788.460.210;;X;l;go;l;1;0.48363538706325926;;;;;;;;;;;;;;;34;1;23;w;Medizin;2023-01-17_14h59.27.512;00_bat_bachelor;04/02/2022;5.999.845.822.345.510
;;;;;;;;;;;;0;0;0;0;195;0;195;0;;;;;;;195;;;1;15.013.841.986.015.900;15.021.839.776.077.600;X;None;nogo;None;1;;;;;;;;;;;;;;;;34;1;23;w;Medizin;2023-01-17_14h59.27.512;00_bat_bachelor;04/02/2022;5.999.845.822.345.510
;;;;;;;;;;;;0;0;0;0;196;0;196;0;;;;;;;196;;;1;15.031.839.490.017.100;;Y;d;go;d;1;0.2514716208388563;;;;;;;;;;;;;;;34;1;23;w;Medizin;2023-01-17_14h59.27.512;00_bat_bachelor;04/02/2022;5.999.845.822.345.510
;;;;;;;;;;;;0;0;0;0;197;0;197;0;;;;;;;197;;;1;15.045.507.808.238.600;;X;l;go;l;1;0.24629344153800048;;;;;;;;;;;;;;;34;1;23;w;Medizin;2023-01-17_14h59.27.512;00_bat_bachelor;04/02/2022;5.999.845.822.345.510
;;;;;;;;;;;;0;0;0;0;198;0;198;0;;;;;;;198;;;1;15.059.007.830.784.100;;X;None;nogo;d;0;0.2875375427538529;;;;;;;;;;;;;;;34;1;23;w;Medizin;2023-01-17_14h59.27.512;00_bat_bachelor;04/02/2022;5.999.845.822.345.510
;;;;;;;;;;;;0;0;0;0;199;0;199;0;;;;;;;199;;;1;15.073.006.825.208.700;;Y;d;go;d;1;0.2479981679789489;;;;;;;;;;;;;;;34;1;23;w;Medizin;2023-01-17_14h59.27.512;00_bat_bachelor;04/02/2022;5.999.845.822.345.510
;;;;;;;;;;;;0;0;0;0;200;0;200;0;;;;;;;200;;;1;15.086.504.345.937.200;;X;l;go;l;1;0.20921467163134366;;;;;;;;;;;;;;;34;1;23;w;Medizin;2023-01-17_14h59.27.512;00_bat_bachelor;04/02/2022;5.999.845.822.345.510
;;;;;;;;;;;;0;0;0;0;201;0;201;0;;;;;;;201;;;1;15.099.673.188.037.200;;Y;d;go;d;1;0.3639743541716598;;;;;;;;;;;;;;;34;1;23;w;Medizin;2023-01-17_14h59.27.512;00_bat_bachelor;04/02/2022;5.999.845.822.345.510
;;;;;;;;;;;;0;0;0;0;202;0;202;0;;;;;;;202;;;1;1.511.433.961.001.700;;Y;None;nogo;l;0;0.2421445950603811;;;;;;;;;;;;;;;34;1;23;w;Medizin;2023-01-17_14h59.27.512;00_bat_bachelor;04/02/2022;5.999.845.822.345.510
;;;;;;;;;;;;0;0;0;0;203;0;203;0;;;;;;;203;;;1;15.127.838.701.653.900;;X;l;go;l;1;0.26735912829462904;;;;;;;;;;;;;;;34;1;23;w;Medizin;2023-01-17_14h59.27.512;00_bat_bachelor;04/02/2022;5.999.845.822.345.510
;;;;;;;;;;;;0;0;0;0;204;0;204;0;;;;;;;204;;;1;15.141.677.734.944.000;;Y;d;go;d;1;0.2126473972457461;;;;;;;;;;;;;;;34;1;23;w;Medizin;2023-01-17_14h59.27.512;00_bat_bachelor;04/02/2022;5.999.845.822.345.510
;;;;;;;;;;;;0;0;0;0;205;0;205;0;;;;;;;205;;;1;15.154.843.570.984.900;;X;l;go;l;1;0.27240979252383113;;;;;;;;;;;;;;;34;1;23;w;Medizin;2023-01-17_14h59.27.512;00_bat_bachelor;04/02/2022;5.999.845.822.345.510
;;;;;;;;;;;;0;0;0;0;206;0;206;0;;;;;;;206;;;1;1.516.867.465.276.370;;Y;d;go;d;1;0.3451244239258813;;;;;;;;;;;;;;;34;1;23;w;Medizin;2023-01-17_14h59.27.512;00_bat_bachelor;04/02/2022;5.999.845.822.345.510
;;;;;;;;;;;;0;0;0;0;207;0;207;0;;;;;;;207;;;1;1.518.317.475.724.840;;X;l;go;l;1;0.2715113687008852;;;;;;;;;;;;;;;34;1;23;w;Medizin;2023-01-17_14h59.27.512;00_bat_bachelor;04/02/2022;5.999.845.822.345.510
;;;;;;;;;;;;0;0;0;0;208;0;208;0;;;;;;;208;;;1;151.970.047.190.279;15.205.008.181.814.100;X;None;nogo;None;1;;;;;;;;;;;;;;;;34;1;23;w;Medizin;2023-01-17_14h59.27.512;00_bat_bachelor;04/02/2022;5.999.845.822.345.510
;;;;;;;;;;;;0;0;0;0;209;0;209;0;;;;;;;209;;;1;152.150.079.345.415;;Y;d;go;d;1;0.23921368739684112;;;;;;;;;;;;;;;34;1;23;w;Medizin;2023-01-17_14h59.27.512;00_bat_bachelor;04/02/2022;5.999.845.822.345.510
;;;;;;;;;;;;0;0;0;0;210;0;210;0;;;;;;;210;;;1;15.228.505.125.573.200;;X;l;go;l;1;0.26532615958421957;;;;;;;;;;;;;;;34;1;23;w;Medizin;2023-01-17_14h59.27.512;00_bat_bachelor;04/02/2022;5.999.845.822.345.510
;;;;;;;;;;;;0;0;0;0;211;0;211;0;;;;;;;211;;;1;15.242.171.315.310.800;;Y;d;go;d;1;0.25826240543392487;;;;;;;;;;;;;;;34;1;23;w;Medizin;2023-01-17_14h59.27.512;00_bat_bachelor;04/02/2022;5.999.845.822.345.510
;;;;;;;;;;;;0;0;0;0;212;0;212;0;;;;;;;212;;;1;15.255.841.306.258.600;;X;l;go;l;1;0.25172422679315787;;;;;;;;;;;;;;;34;1;23;w;Medizin;2023-01-17_14h59.27.512;00_bat_bachelor;04/02/2022;5.999.845.822.345.510
;;;;;;;;;;;;0;0;0;0;213;0;213;0;;;;;;;213;;;1;15.269.506.002.663.600;;Y;d;go;d;1;0.27711088114301674;;;;;;;;;;;;;;;34;1;23;w;Medizin;2023-01-17_14h59.27.512;00_bat_bachelor;04/02/2022;5.999.845.822.345.510
;;;;;;;;;;;;0;0;0;0;214;0;214;0;;;;;;;214;;;1;15.283.339.140.199.000;;X;l;go;l;1;0.22254605911439285;;;;;;;;;;;;;;;34;1;23;w;Medizin;2023-01-17_14h59.27.512;00_bat_bachelor;04/02/2022;5.999.845.822.345.510
;;;;;;;;;;;;0;0;0;0;215;0;215;0;;;;;;;215;;;1;15.296.674.988.278.600;;Y;d;go;d;1;0.28082675812765956;;;;;;;;;;;;;;;34;1;23;w;Medizin;2023-01-17_14h59.27.512;00_bat_bachelor;04/02/2022;5.999.845.822.345.510
;;;;;;;;;;;;0;0;0;0;216;0;216;0;;;;;;;216;;;1;15.310.505.100.361.100;;Y;None;nogo;l;0;0.22474872470775153;;;;;;;;;;;;;;;34;1;23;w;Medizin;2023-01-17_14h59.27.512;00_bat_bachelor;04/02/2022;5.999.845.822.345.510
;;;;;;;;;;;;0;0;0;0;217;0;217;0;;;;;;;217;;;1;15.323.841.312.076.800;;X;l;go;l;1;0.29986383981304243;;;;;;;;;;;;;;;34;1;23;w;Medizin;2023-01-17_14h59.27.512;00_bat_bachelor;04/02/2022;5.999.845.822.345.510
;;;;;;;;;;;;0;0;0;0;218;0;218;0;;;;;;;218;;;1;15.337.838.066.502.700;;Y;d;go;d;1;0.2281727230438264;;;;;;;;;;;;;;;34;1;23;w;Medizin;2023-01-17_14h59.27.512;00_bat_bachelor;04/02/2022;5.999.845.822.345.510
;;;;;;;;;;;;0;0;0;0;219;0;219;0;;;;;;;219;;;1;1.535.117.493.276.360;;Y;None;nogo;l;0;0.25428277099854313;;;;;;;;;;;;;;;34;1;23;w;Medizin;2023-01-17_14h59.27.512;00_bat_bachelor;04/02/2022;5.999.845.822.345.510
;;;;;;;;;;;;0;0;0;0;220;0;220;0;;;;;;;220;;;1;1.536.484.444.856.010;;X;l;go;l;1;0.47152969596209005;;;;;;;;;;;;;;;34;1;23;w;Medizin;2023-01-17_14h59.27.512;00_bat_bachelor;04/02/2022;5.999.845.822.345.510
;;;;;;;;;;;;0;0;0;0;221;0;221;0;;;;;;;221;;;1;15.380.675.093.005.900;;Y;d;go;d;1;0.23248253914061934;;;;;;;;;;;;;;;34;1;23;w;Medizin;2023-01-17_14h59.27.512;00_bat_bachelor;04/02/2022;5.999.845.822.345.510
;;;;;;;;;;;;0;0;0;0;222;0;222;0;;;;;;;222;;;1;1.539.400.518.593.680;;X;l;go;l;1;0.258612465870101;;;;;;;;;;;;;;;34;1;23;w;Medizin;2023-01-17_14h59.27.512;00_bat_bachelor;04/02/2022;5.999.845.822.345.510
;;;;;;;;;;;;0;0;0;0;223;0;223;0;;;;;;;223;;;1;15.407.673.363.552.300;;Y;d;go;d;1;0.33229388468316756;;;;;;;;;;;;;;;34;1;23;w;Medizin;2023-01-17_14h59.27.512;00_bat_bachelor;04/02/2022;5.999.845.822.345.510
;;;;;;;;;;;;0;0;0;0;224;0;224;0;;;;;;;224;;;1;154.220.079.069.052;;X;l;go;l;1;0.2427579281065846;;;;;;;;;;;;;;;34;1;23;w;Medizin;2023-01-17_14h59.27.512;00_bat_bachelor;04/02/2022;5.999.845.822.345.510
;;;;;;;;;;;;0;0;0;0;225;0;225;0;;;;;;;225;;;1;15.435.507.890.662.800;;Y;d;go;d;1;0.17295481043402106;;;;;;;;;;;;;;;34;1;23;w;Medizin;2023-01-17_14h59.27.512;00_bat_bachelor;04/02/2022;5.999.845.822.345.510
;;;;;;;;;;;;0;0;0;0;226;0;226;0;;;;;;;226;;;1;15.448.341.382.622.300;;Y;None;nogo;l;0;0.2173247283208184;;;;;;;;;;;;;;;34;1;23;w;Medizin;2023-01-17_14h59.27.512;00_bat_bachelor;04/02/2022;5.999.845.822.345.510
;;;;;;;;;;;;0;0;0;0;227;0;227;0;;;;;;;227;;;1;15.461.672.707.067.700;;X;l;go;l;1;0.21321854848065414;;;;;;;;;;;;;;;34;1;23;w;Medizin;2023-01-17_14h59.27.512;00_bat_bachelor;04/02/2022;5.999.845.822.345.510
;;;;;;;;;;;;0;0;0;0;228;0;228;0;;;;;;;228;;;1;15.474.839.726.138.300;;Y;d;go;d;1;0.2564461638976354;;;;;;;;;;;;;;;34;1;23;w;Medizin;2023-01-17_14h59.27.512;00_bat_bachelor;04/02/2022;5.999.845.822.345.510
;;;;;;;;;;;;0;0;0;0;229;0;229;0;;;;;;;229;;;1;15.488.510.129.207.100;;X;l;go;l;1;0.2651297960546799;;;;;;;;;;;;;;;34;1;23;w;Medizin;2023-01-17_14h59.27.512;00_bat_bachelor;04/02/2022;5.999.845.822.345.510
;;;;;;;;;;;;0;0;0;0;230;0;230;0;;;;;;;230;;;1;15.502.174.636.521.300;;X;None;nogo;l;0;0.3382507302885642;;;;;;;;;;;;;;;34;1;23;w;Medizin;2023-01-17_14h59.27.512;00_bat_bachelor;04/02/2022;5.999.845.822.345.510
;;;;;;;;;;;;0;0;0;0;231;0;231;0;;;;;;;231;;;1;15.516.671.642.825.800;;Y;d;go;d;1;0.26403064506303053;;;;;;;;;;;;;;;34;1;23;w;Medizin;2023-01-17_14h59.27.512;00_bat_bachelor;04/02/2022;5.999.845.822.345.510
;;;;;;;;;;;;0;0;0;0;232;0;232;0;;;;;;;232;;;1;15.530.341.352.561.600;;X;l;go;l;1;0.32221679866779596;;;;;;;;;;;;;;;34;1;23;w;Medizin;2023-01-17_14h59.27.512;00_bat_bachelor;04/02/2022;5.999.845.822.345.510
;;;;;;;;;;;;0;0;0;0;233;0;233;0;;;;;;;233;;;1;1.554.467.481.470.300;;Y;d;go;d;1;0.29707353812409565;;;;;;;;;;;;;;;34;1;23;w;Medizin;2023-01-17_14h59.27.512;00_bat_bachelor;04/02/2022;5.999.845.822.345.510
;;;;;;;;;;;;0;0;0;0;234;0;234;0;;;;;;;234;;;1;1.555.867.449.276.380;;X;l;go;l;1;0.2410798682976747;;;;;;;;;;;;;;;34;1;23;w;Medizin;2023-01-17_14h59.27.512;00_bat_bachelor;04/02/2022;5.999.845.822.345.510
;;;;;;;;;;;;0;0;0;0;235;0;235;0;;;;;;;235;;;1;15.572.174.461.975.900;;X;None;nogo;l;0;0.2510202271223534;;;;;;;;;;;;;;;34;1;23;w;Medizin;2023-01-17_14h59.27.512;00_bat_bachelor;04/02/2022;5.999.845.822.345.510
;;;;;;;;;;;;0;0;0;0;236;0;236;0;;;;;;;236;;;1;15.585.841.141.410.300;;X;None;nogo;l;0;0.2442027758806944;;;;;;;;;;;;;;;34;1;23;w;Medizin;2023-01-17_14h59.27.512;00_bat_bachelor;04/02/2022;5.999.845.822.345.510
;;;;;;;;;;;;0;0;0;0;237;0;237;0;;;;;;;237;;;1;15.599.339.224.562.700;;Y;d;go;d;1;0.30157680867705494;;;;;;;;;;;;;;;34;1;23;w;Medizin;2023-01-17_14h59.27.512;00_bat_bachelor;04/02/2022;5.999.845.822.345.510
;;;;;;;;;;;;0;0;0;0;238;0;238;0;;;;;;;238;;;1;1.561.350.433.284.630;;X;l;go;l;1;0.2614711311616702;;;;;;;;;;;;;;;34;1;23;w;Medizin;2023-01-17_14h59.27.512;00_bat_bachelor;04/02/2022;5.999.845.822.345.510
;;;;;;;;;;;;0;0;0;0;239;0;239;0;;;;;;;239;;;1;15.627.175.477.733.100;;X;None;nogo;l;0;0.41441942063102033;;;;;;;;;;;;;;;34;1;23;w;Medizin;2023-01-17_14h59.27.512;00_bat_bachelor;04/02/2022;5.999.845.822.345.510
;;;;;;;;;;;;0;0;0;0;240;0;240;0;;;;;;;240;;;1;15.642.340.120.077.400;;Y;d;go;d;1;0.22666339045099448;;;;;;;;;;;;;;;34;1;23;w;Medizin;2023-01-17_14h59.27.512;00_bat_bachelor;04/02/2022;5.999.845.822.345.510
;;;;;;;;;;;;0;0;0;0;241;0;241;0;;;;;;;241;;;1;1.565.567.094.512.920;;X;l;go;l;1;0.2838095445622457;;;;;;;;;;;;;;;34;1;23;w;Medizin;2023-01-17_14h59.27.512;00_bat_bachelor;04/02/2022;5.999.845.822.345.510
;;;;;;;;;;;;0;0;0;0;242;0;242;0;;;;;;;242;;;1;15.669.671.394.098.600;;X;None;nogo;d;0;0.22905805596383289;;;;;;;;;;;;;;;34;1;23;w;Medizin;2023-01-17_14h59.27.512;00_bat_bachelor;04/02/2022;5.999.845.822.345.510
;;;;;;;;;;;;0;0;0;0;243;0;243;0;;;;;;;243;;;1;15.683.004.759.755.200;;Y;d;go;d;1;0.22332424056367017;;;;;;;;;;;;;;;34;1;23;w;Medizin;2023-01-17_14h59.27.512;00_bat_bachelor;04/02/2022;5.999.845.822.345.510
;;;;;;;;;;;;0;0;0;0;244;0;244;0;;;;;;;244;;;1;1.569.634.329.389.410;;X;l;go;l;1;0.2012844936689362;;;;;;;;;;;;;;;34;1;23;w;Medizin;2023-01-17_14h59.27.512;00_bat_bachelor;04/02/2022;5.999.845.822.345.510
;;;;;;;;;;;;0;0;0;0;245;0;245;0;;;;;;;245;;;1;1.570.950.471.781.580;;Y;d;go;d;1;0.2621959792886628;;;;;;;;;;;;;;;34;1;23;w;Medizin;2023-01-17_14h59.27.512;00_bat_bachelor;04/02/2022;5.999.845.822.345.510
;;;;;;;;;;;;0;0;0;0;246;0;246;0;;;;;;;246;;;1;15.723.174.602.097.100;;X;l;go;l;1;0.2067972182558151;;;;;;;;;;;;;;;34;1;23;w;Medizin;2023-01-17_14h59.27.512;00_bat_bachelor;04/02/2022;5.999.845.822.345.510
;;;;;;;;;;;;0;0;0;0;247;0;247;0;;;;;;;247;;;1;15.736.341.669.652.400;;Y;d;go;d;1;0.18536934985604603;;;;;;;;;;;;;;;34;1;23;w;Medizin;2023-01-17_14h59.27.512;00_bat_bachelor;04/02/2022;5.999.845.822.345.510
;;;;;;;;;;;;0;0;0;0;248;0;248;0;;;;;;;248;;;1;15.749.338.570.017.500;;X;l;go;l;1;0.24566022973158397;;;;;;;;;;;;;;;34;1;23;w;Medizin;2023-01-17_14h59.27.512;00_bat_bachelor;04/02/2022;5.999.845.822.345.510
;;;;;;;;;;;;0;0;0;0;249;0;249;0;;;;;;;249;;;1;15.762.841.031.349.800;;X;None;nogo;d;0;0.20706243025779258;;;;;;;;;;;;;;;34;1;23;w;Medizin;2023-01-17_14h59.27.512;00_bat_bachelor;04/02/2022;5.999.845.822.345.510
;;;;;;;;;;;;1;0;1;0;0;0;0;0;;;;;;;0;;;0.2;15.812.682.742.941.600;;X;l;go;l;1;0.262839857765357;;;;;;;;15.766.067.129.179.500;space;4.416.506.692.345.130;;;;;34;1;23;w;Medizin;2023-01-17_14h59.27.512;00_bat_bachelor;04/02/2022;5.999.845.822.345.510
;;;;;;;;;;;;1;0;1;0;1;0;1;0;;;;;;;1;;;0.2;158.186.809.460.941;;Y;d;go;d;1;0.39925094314094167;;;;;;;;;;;;;;;34;1;23;w;Medizin;2023-01-17_14h59.27.512;00_bat_bachelor;04/02/2022;5.999.845.822.345.510
;;;;;;;;;;;;1;0;1;0;2;0;2;0;;;;;;;2;;;0.2;1.582.601.322.375.100;;X;l;go;l;1;0.1942779516102746;;;;;;;;;;;;;;;34;1;23;w;Medizin;2023-01-17_14h59.27.512;00_bat_bachelor;04/02/2022;5.999.845.822.345.510
;;;;;;;;;;;;1;0;1;0;3;0;3;0;;;;;;;3;;;0.2;15.831.348.013.891.800;;X;None;nogo;d;0;0.2040844923176337;;;;;;;;;;;;;;;34;1;23;w;Medizin;2023-01-17_14h59.27.512;00_bat_bachelor;04/02/2022;5.999.845.822.345.510
;;;;;;;;;;;;1;0;1;0;4;0;4;0;;;;;;;4;;;0.2;15.836.847.773.649.400;;Y;d;go;l;0;0.23010144938598387;;;;;;;;;;;;;;;34;1;23;w;Medizin;2023-01-17_14h59.27.512;00_bat_bachelor;04/02/2022;5.999.845.822.345.510
;;;;;;;;;;;;1;0;1;0;5;0;5;0;;;;;;;5;;;0.2;15.842.513.976.962.900;;X;l;go;l;1;0.35282963230565656;;;;;;;;;;;;;;;34;1;23;w;Medizin;2023-01-17_14h59.27.512;00_bat_bachelor;04/02/2022;5.999.845.822.345.510
;;;;;;;;;;;;1;0;1;0;6;0;6;0;;;;;;;6;;;0.2;15.849.347.961.528.200;;X;None;nogo;l;0;0.38870646340365056;;;;;;;;;;;;;;;34;1;23;w;Medizin;2023-01-17_14h59.27.512;00_bat_bachelor;04/02/2022;5.999.845.822.345.510
;;;;;;;;;;;;1;0;1;0;7;0;7;0;;;;;;;7;;;0.2;15.856.680.505.851.800;;Y;d;go;d;1;0.3436378791957395;;;;;;;;;;;;;;;34;1;23;w;Medizin;2023-01-17_14h59.27.512;00_bat_bachelor;04/02/2022;5.999.845.822.345.510
;;;;;;;;;;;;1;0;1;0;8;0;8;0;;;;;;;8;;;0.2;15.863.514.543.750.400;;X;l;go;l;1;0.236363264528336;;;;;;;;;;;;;;;34;1;23;w;Medizin;2023-01-17_14h59.27.512;00_bat_bachelor;04/02/2022;5.999.845.822.345.510
;;;;;;;;;;;;1;0;1;0;9;0;9;0;;;;;;;9;;;0.2;158.693.465.360.743;;Y;d;go;d;1;0.2600825257541146;;;;;;;;;;;;;;;34;1;23;w;Medizin;2023-01-17_14h59.27.512;00_bat_bachelor;04/02/2022;5.999.845.822.345.510
;;;;;;;;;;;;1;0;1;0;10;0;10;0;;;;;;;10;;;0.2;15.875.347.735.588.800;;X;l;go;l;1;0.18825177270628046;;;;;;;;;;;;;;;34;1;23;w;Medizin;2023-01-17_14h59.27.512;00_bat_bachelor;04/02/2022;5.999.845.822.345.510
;;;;;;;;;;;;1;0;1;0;11;0;11;0;;;;;;;11;;;0.2;15.880.681.594.820.900;;X;None;nogo;d;0;0.21552594131208025;;;;;;;;;;;;;;;34;1;23;w;Medizin;2023-01-17_14h59.27.512;00_bat_bachelor;04/02/2022;5.999.845.822.345.510
;;;;;;;;;;;;1;0;1;0;12;0;12;0;;;;;;;12;;;0.2;15.886.181.301.245.300;;Y;d;go;l;0;0.30554238251352217;;;;;;;;;;;;;;;34;1;23;w;Medizin;2023-01-17_14h59.27.512;00_bat_bachelor;04/02/2022;5.999.845.822.345.510
;;;;;;;;;;;;1;0;1;0;13;0;13;0;;;;;;;13;;;0.2;15.892.681.429.002.800;;X;l;go;l;1;0.26412809955945704;;;;;;;;;;;;;;;34;1;23;w;Medizin;2023-01-17_14h59.27.512;00_bat_bachelor;04/02/2022;5.999.845.822.345.510
;;;;;;;;;;;;1;0;1;0;14;0;14;0;;;;;;;14;;;0.2;15.898.679.423.670.500;;Y;d;go;d;1;0.22321369516430423;;;;;;;;;;;;;;;34;1;23;w;Medizin;2023-01-17_14h59.27.512;00_bat_bachelor;04/02/2022;5.999.845.822.345.510
;;;;;;;;;;;;1;0;1;0;15;0;15;0;;;;;;;15;;;0.2;15.904.179.396.761.400;;X;l;go;l;1;0.1850740772788413;;;;;;;;;;;;;;;34;1;23;w;Medizin;2023-01-17_14h59.27.512;00_bat_bachelor;04/02/2022;5.999.845.822.345.510
;;;;;;;;;;;;1;0;1;0;16;0;16;0;;;;;;;16;;;0.2;15.909.343.277.894.000;;X;None;nogo;d;0;0.24624350215890445;;;;;;;;;;;;;;;34;1;23;w;Medizin;2023-01-17_14h59.27.512;00_bat_bachelor;04/02/2022;5.999.845.822.345.510
;;;;;;;;;;;;1;0;1;0;17;0;17;0;;;;;;;17;;;0.2;15.914.844.889.772.000;;Y;d;go;l;0;0.3194803151418455;;;;;;;;;;;;;;;34;1;23;w;Medizin;2023-01-17_14h59.27.512;00_bat_bachelor;04/02/2022;5.999.845.822.345.510
;;;;;;;;;;;;1;0;1;0;18;0;18;0;;;;;;;18;;;0.2;15.921.176.110.944.700;;X;l;go;l;1;0.229735388973495;;;;;;;;;;;;;;;34;1;23;w;Medizin;2023-01-17_14h59.27.512;00_bat_bachelor;04/02/2022;5.999.845.822.345.510
;;;;;;;;;;;;1;0;1;0;19;0;19;0;;;;;;;19;;;0.2;1.592.650.635.320.890;;X;None;nogo;l;0;0.2412321106676245;;;;;;;;;;;;;;;34;1;23;w;Medizin;2023-01-17_14h59.27.512;00_bat_bachelor;04/02/2022;5.999.845.822.345.510
;;;;;;;;;;;;1;0;1;0;20;0;20;0;;;;;;;20;;;0.2;15.932.010.432.964.500;;Y;d;go;d;1;0.4104068165033823;;;;;;;;;;;;;;;34;1;23;w;Medizin;2023-01-17_14h59.27.512;00_bat_bachelor;04/02/2022;5.999.845.822.345.510
;;;;;;;;;;;;1;0;1;0;21;0;21;0;;;;;;;21;;;0.2;15.939.176.039.187.200;;X;l;go;l;1;0.2698783998057479;;;;;;;;;;;;;;;34;1;23;w;Medizin;2023-01-17_14h59.27.512;00_bat_bachelor;04/02/2022;5.999.845.822.345.510
;;;;;;;;;;;;1;0;1;0;22;0;22;0;;;;;;;22;;;0.2;159.450.079.345.415;;X;None;nogo;d;0;0.2795074860478053;;;;;;;;;;;;;;;34;1;23;w;Medizin;2023-01-17_14h59.27.512;00_bat_bachelor;04/02/2022;5.999.845.822.345.510
;;;;;;;;;;;;1;0;1;0;23;0;23;0;;;;;;;23;;;0.2;15.950.841.231.107.100;;Y;d;go;l;0;0.23974847501085605;;;;;;;;;;;;;;;34;1;23;w;Medizin;2023-01-17_14h59.27.512;00_bat_bachelor;04/02/2022;5.999.845.822.345.510
;;;;;;;;;;;;1;0;1;0;24;0;24;0;;;;;;;24;;;0.2;15.956.342.329.046.100;;X;l;go;l;1;0.4422181950212689;;;;;;;;;;;;;;;34;1;23;w;Medizin;2023-01-17_14h59.27.512;00_bat_bachelor;04/02/2022;5.999.845.822.345.510
;;;;;;;;;;;;1;0;1;0;25;0;25;0;;;;;;;25;;;0.2;15.963.840.119.350.200;;X;None;nogo;l;0;0.3469629684841493;;;;;;;;;;;;;;;34;1;23;w;Medizin;2023-01-17_14h59.27.512;00_bat_bachelor;04/02/2022;5.999.845.822.345.510
;;;;;;;;;;;;1;0;1;0;26;0;26;0;;;;;;;26;;;0.2;1.597.034.035.862.270;;Y;d;go;d;1;0.37014841179188807;;;;;;;;;;;;;;;34;1;23;w;Medizin;2023-01-17_14h59.27.512;00_bat_bachelor;04/02/2022;5.999.845.822.345.510
;;;;;;;;;;;;1;0;1;0;27;0;27;0;;;;;;;27;;;0.2;15.977.176.505.611.200;;X;l;go;l;1;0.23040981288067997;;;;;;;;;;;;;;;34;1;23;w;Medizin;2023-01-17_14h59.27.512;00_bat_bachelor;04/02/2022;5.999.845.822.345.510
;;;;;;;;;;;;1;0;1;0;28;0;28;0;;;;;;;28;;;0.2;15.982.507.819.390.100;;X;None;nogo;d;0;0.20966751991363708;;;;;;;;;;;;;;;34;1;23;w;Medizin;2023-01-17_14h59.27.512;00_bat_bachelor;04/02/2022;5.999.845.822.345.510
;;;;;;;;;;;;1;0;1;0;29;0;29;0;;;;;;;29;;;0.2;1.598.767.559.385.420;;Y;d;go;l;0;0.20433321945893113;;;;;;;;;;;;;;;34;1;23;w;Medizin;2023-01-17_14h59.27.512;00_bat_bachelor;04/02/2022;5.999.845.822.345.510
;;;;;;;;;;;;1;0;1;0;30;0;30;0;;;;;;;30;;;0.2;15.992.842.321.046.000;16.000.840.741.410.500;X;l;go;None;0;;;;;;;;;;;;;;;;34;1;23;w;Medizin;2023-01-17_14h59.27.512;00_bat_bachelor;04/02/2022;5.999.845.822.345.510
;;;;;;;;;;;;1;0;1;0;31;0;31;0;;;;;;;31;;;0.2;1.600.284.238.892.490;;Y;d;go;l;0;0.22360496770124882;;;;;;;;;;;;;;;34;1;23;w;Medizin;2023-01-17_14h59.27.512;00_bat_bachelor;04/02/2022;5.999.845.822.345.510
;;;;;;;;;;;;1;0;1;0;32;0;32;0;;;;;;;32;;;0.2;16.008.175.564.520.900;;X;l;go;l;1;0.48962132356246;;;;;;;;;;;;;;;34;1;23;w;Medizin;2023-01-17_14h59.27.512;00_bat_bachelor;04/02/2022;5.999.845.822.345.510
;;;;;;;;;;;;1;0;1;0;33;0;33;0;;;;;;;33;;;0.2;16.016.175.686.702.600;;X;None;nogo;d;0;0.4756145424762508;;;;;;;;;;;;;;;34;1;23;w;Medizin;2023-01-17_14h59.27.512;00_bat_bachelor;04/02/2022;5.999.845.822.345.510
;;;;;;;;;;;;1;0;1;0;34;0;34;0;;;;;;;34;;;0.2;16.024.007.275.632.700;;Y;d;go;l;0;0.21923600010632072;;;;;;;;;;;;;;;34;1;23;w;Medizin;2023-01-17_14h59.27.512;00_bat_bachelor;04/02/2022;5.999.845.822.345.510
;;;;;;;;;;;;1;0;1;0;35;0;35;0;;;;;;;35;;;0.2;16.029.339.384.562.600;;X;l;go;d;0;0.4063210003077984;;;;;;;;;;;;;;;34;1;23;w;Medizin;2023-01-17_14h59.27.512;00_bat_bachelor;04/02/2022;5.999.845.822.345.510
;;;;;;;;;;;;1;0;1;0;36;0;36;0;;;;;;;36;;;0.2;16.036.509.611.389.100;;Y;d;go;l;0;0.4561362488893792;;;;;;;;;;;;;;;34;1;23;w;Medizin;2023-01-17_14h59.27.512;00_bat_bachelor;04/02/2022;5.999.845.822.345.510
;;;;;;;;;;;;1;0;1;0;37;0;37;0;;;;;;;37;;;0.2;16.044.175.396.763.400;16.052.173.817.127.700;Y;None;nogo;None;1;;;;;;;;;;;;;;;;34;1;23;w;Medizin;2023-01-17_14h59.27.512;00_bat_bachelor;04/02/2022;5.999.845.822.345.510
;;;;;;;;;;;;1;0;1;0;38;0;38;0;;;;;;;38;;;0.2;16.054.175.702.217.700;;X;l;go;l;1;0.3542948437243467;;;;;;;;;;;;;;;34;1;23;w;Medizin;2023-01-17_14h59.27.512;00_bat_bachelor;04/02/2022;5.999.845.822.345.510
;;;;;;;;;;;;1;0;1;0;39;0;39;0;;;;;;;39;;;0.2;16.060.842.515.955.100;;Y;d;go;d;1;0.3758245302597061;;;;;;;;;;;;;;;34;1;23;w;Medizin;2023-01-17_14h59.27.512;00_bat_bachelor;04/02/2022;5.999.845.822.345.510
;;;;;;;;;;;;1;0;1;0;40;0;40;0;;;;;;;40;;;0.2;1.606.767.563.749.060;16.075.675.352.399.800;Y;None;nogo;None;1;;;;;;;;;;;;;;;;34;1;23;w;Medizin;2023-01-17_14h59.27.512;00_bat_bachelor;04/02/2022;5.999.845.822.345.510
;;;;;;;;;;;;1;0;1;0;41;0;41;0;;;;;;;41;;;0.2;16.077.675.831.429.800;;Y;None;nogo;l;0;0.3084277144371299;;;;;;;;;;;;;;;34;1;23;w;Medizin;2023-01-17_14h59.27.512;00_bat_bachelor;04/02/2022;5.999.845.822.345.510
;;;;;;;;;;;;1;0;1;0;42;0;42;0;;;;;;;42;;;0.2;16.083.842.325.409.700;;X;l;go;l;1;0.3482424830144737;;;;;;;;;;;;;;;34;1;23;w;Medizin;2023-01-17_14h59.27.512;00_bat_bachelor;04/02/2022;5.999.845.822.345.510
;;;;;;;;;;;;1;0;1;0;43;0;43;0;;;;;;;43;;;0.2;16.090.342.011.955.300;;Y;d;go;d;1;0.35360926829162054;;;;;;;;;;;;;;;34;1;23;w;Medizin;2023-01-17_14h59.27.512;00_bat_bachelor;04/02/2022;5.999.845.822.345.510
;;;;;;;;;;;;1;0;1;0;44;0;44;0;;;;;;;44;;;0.2;1.609.700.949.478.320;;X;l;go;l;1;0.40742451493861154;;;;;;;;;;;;;;;34;1;23;w;Medizin;2023-01-17_14h59.27.512;00_bat_bachelor;04/02/2022;5.999.845.822.345.510
;;;;;;;;;;;;1;0;1;0;45;0;45;0;;;;;;;45;;;0.2;16.104.175.168.884.600;1.611.217.396.258.230;X;None;nogo;None;1;;;;;;;;;;;;;;;;34;1;23;w;Medizin;2023-01-17_14h59.27.512;00_bat_bachelor;04/02/2022;5.999.845.822.345.510
;;;;;;;;;;;;1;0;1;0;46;0;46;0;;;;;;;46;;;0.2;16.114.175.517.975.500;;Y;d;go;d;1;0.29245438885118347;;;;;;;;;;;;;;;34;1;23;w;Medizin;2023-01-17_14h59.27.512;00_bat_bachelor;04/02/2022;5.999.845.822.345.510
;;;;;;;;;;;;1;0;1;0;47;0;47;0;;;;;;;47;;;0.2;16.120.174.235.066.900;;X;l;go;l;1;0.33181679401604924;;;;;;;;;;;;;;;34;1;23;w;Medizin;2023-01-17_14h59.27.512;00_bat_bachelor;04/02/2022;5.999.845.822.345.510
;;;;;;;;;;;;1;0;1;0;48;0;48;0;;;;;;;48;;;0.2;16.126.507.536.238.700;;Y;d;go;d;1;0.40112439676886424;;;;;;;;;;;;;;;34;1;23;w;Medizin;2023-01-17_14h59.27.512;00_bat_bachelor;04/02/2022;5.999.845.822.345.510
;;;;;;;;;;;;1;0;1;0;49;0;49;0;;;;;;;49;;;0.2;16.133.671.251.553.300;;X;l;go;l;1;0.2779642140521901;;;;;;;;;;;;;;;34;1;23;w;Medizin;2023-01-17_14h59.27.512;00_bat_bachelor;04/02/2022;5.999.845.822.345.510
;;;;;;;;;;;;1;0;1;0;50;0;50;0;;;;;;;50;;;0.2;16.139.504.567.512.900;;X;None;nogo;l;0;0.34913508864701726;;;;;;;;;;;;;;;34;1;23;w;Medizin;2023-01-17_14h59.27.512;00_bat_bachelor;04/02/2022;5.999.845.822.345.510
;;;;;;;;;;;;1;0;1;0;51;0;51;0;;;;;;;51;;;0.2;16.146.005.563.148.700;;Y;d;go;d;1;0.46708169813791756;;;;;;;;;;;;;;;34;1;23;w;Medizin;2023-01-17_14h59.27.512;00_bat_bachelor;04/02/2022;5.999.845.822.345.510
;;;;;;;;;;;;1;0;1;0;52;0;52;0;;;;;;;52;;;0.2;16.153.840.846.622.600;;X;l;go;l;1;0.4196989332267549;;;;;;;;;;;;;;;34;1;23;w;Medizin;2023-01-17_14h59.27.512;00_bat_bachelor;04/02/2022;5.999.845.822.345.510
;;;;;;;;;;;;1;0;1;0;53;0;53;0;;;;;;;53;;;0.2;16.161.171.126.704.800;16.169.172.431.916.300;Y;d;go;None;0;;;;;;;;;;;;;;;;34;1;23;w;Medizin;2023-01-17_14h59.27.512;00_bat_bachelor;04/02/2022;5.999.845.822.345.510
;;;;;;;;;;;;1;0;1;0;54;0;54;0;;;;;;;54;;;0.2;16.171.171.160.644.200;;X;l;go;l;1;0.3988776099868119;;;;;;;;;;;;;;;34;1;23;w;Medizin;2023-01-17_14h59.27.512;00_bat_bachelor;04/02/2022;5.999.845.822.345.510
;;;;;;;;;;;;1;0;1;0;55;0;55;0;;;;;;;55;;;0.2;1.617.817.215.118.920;16.186.171.022.462.500;X;None;nogo;None;1;;;;;;;;;;;;;;;;34;1;23;w;Medizin;2023-01-17_14h59.27.512;00_bat_bachelor;04/02/2022;5.999.845.822.345.510
;;;;;;;;;;;;1;0;1;0;56;0;56;0;;;;;;;56;;;0.2;16.188.170.628.765.600;;Y;d;go;d;1;0.4107433011959074;;;;;;;;;;;;;;;34;1;23;w;Medizin;2023-01-17_14h59.27.512;00_bat_bachelor;04/02/2022;5.999.845.822.345.510
;;;;;;;;;;;;1;0;1;0;57;0;57;0;;;;;;;57;;;0.2;16.195.340.816.804.300;;X;l;go;l;1;0.4296358981082449;;;;;;;;;;;;;;;34;1;23;w;Medizin;2023-01-17_14h59.27.512;00_bat_bachelor;04/02/2022;5.999.845.822.345.510
;;;;;;;;;;;;1;0;1;0;58;0;58;0;;;;;;;58;;;0.2;1.620.267.103.385.640;;Y;d;go;d;1;0.5771931598865194;;;;;;;;;;;;;;;34;1;23;w;Medizin;2023-01-17_14h59.27.512;00_bat_bachelor;04/02/2022;5.999.845.822.345.510
;;;;;;;;;;;;1;0;1;0;59;0;59;0;;;;;;;59;;;0.2;16.211.507.398.057.000;;X;l;go;l;1;0.3817639213084476;;;;;;;;;;;;;;;34;1;23;w;Medizin;2023-01-17_14h59.27.512;00_bat_bachelor;04/02/2022;5.999.845.822.345.510
;;;;;;;;;;;;1;0;1;0;60;0;60;0;;;;;;;60;;;0.2;16.218.337.702.624.100;;X;None;nogo;d;0;0.46508460817858577;;;;;;;;;;;;;;;34;1;23;w;Medizin;2023-01-17_14h59.27.512;00_bat_bachelor;04/02/2022;5.999.845.822.345.510
;;;;;;;;;;;;1;0;1;0;61;0;61;0;;;;;;;61;;;0.2;16.226.010.838.297.600;;Y;d;go;l;0;0.4672892131784465;;;;;;;;;;;;;;;34;1;23;w;Medizin;2023-01-17_14h59.27.512;00_bat_bachelor;04/02/2022;5.999.845.822.345.510
;;;;;;;;;;;;1;0;1;0;62;0;62;0;;;;;;;62;;;0.2;1.623.383.753.510.900;16.241.841.065.773.900;X;l;go;None;0;;;;;;;;;;;;;;;;34;1;23;w;Medizin;2023-01-17_14h59.27.512;00_bat_bachelor;04/02/2022;5.999.845.822.345.510
;;;;;;;;;;;;1;0;1;0;63;0;63;0;;;;;;;63;;;0.2;16.243.840.730.258.900;;X;None;nogo;l;0;0.23601902228256222;;;;;;;;;;;;;;;34;1;23;w;Medizin;2023-01-17_14h59.27.512;00_bat_bachelor;04/02/2022;5.999.845.822.345.510
;;;;;;;;;;;;1;0;1;0;64;0;64;0;;;;;;;64;;;0.2;16.249.340.645.168.100;;Y;d;go;l;0;0.3571035696368199;;;;;;;;;;;;;;;34;1;23;w;Medizin;2023-01-17_14h59.27.512;00_bat_bachelor;04/02/2022;5.999.845.822.345.510
;;;;;;;;;;;;1;0;1;0;65;0;65;0;;;;;;;65;;;0.2;1.625.600.732.799.630;;X;l;go;l;1;0.4446555271715624;;;;;;;;;;;;;;;34;1;23;w;Medizin;2023-01-17_14h59.27.512;00_bat_bachelor;04/02/2022;5.999.845.822.345.510
;;;;;;;;;;;;1;0;1;0;66;0;66;0;;;;;;;66;;;0.2;16.263.506.757.087.500;;X;None;nogo;l;0;0.5736687979660928;;;;;;;;;;;;;;;34;1;23;w;Medizin;2023-01-17_14h59.27.512;00_bat_bachelor;04/02/2022;5.999.845.822.345.510
;;;;;;;;;;;;1;0;1;0;67;0;67;0;;;;;;;67;;;0.2;16.272.343.402.500.100;;Y;d;go;d;1;0.3939001578546595;;;;;;;;;;;;;;;34;1;23;w;Medizin;2023-01-17_14h59.27.512;00_bat_bachelor;04/02/2022;5.999.845.822.345.510
;;;;;;;;;;;;1;0;1;0;68;0;68;0;;;;;;;68;;;0.2;16.279.342.885.166.900;;X;l;go;l;1;0.2538527106080437;;;;;;;;;;;;;;;34;1;23;w;Medizin;2023-01-17_14h59.27.512;00_bat_bachelor;04/02/2022;5.999.845.822.345.510
;;;;;;;;;;;;1;0;1;0;69;0;69;0;;;;;;;69;;;0.2;1.628.500.432.727.050;;Y;d;go;d;1;0.4713318778813118;;;;;;;;;;;;;;;34;1;23;w;Medizin;2023-01-17_14h59.27.512;00_bat_bachelor;04/02/2022;5.999.845.822.345.510
;;;;;;;;;;;;1;0;1;0;70;0;70;0;;;;;;;70;;;0.2;16.292.837.792.563.500;;X;l;go;l;1;0.6323397998203291;;;;;;;;;;;;;;;34;1;23;w;Medizin;2023-01-17_14h59.27.512;00_bat_bachelor;04/02/2022;5.999.845.822.345.510
;;;;;;;;;;;;1;0;1;0;71;0;71;0;;;;;;;71;;;0.2;1.630.217.219.288.620;;Y;d;go;d;1;0.30702795754768886;;;;;;;;;;;;;;;34;1;23;w;Medizin;2023-01-17_14h59.27.512;00_bat_bachelor;04/02/2022;5.999.845.822.345.510
;;;;;;;;;;;;1;0;1;0;72;0;72;0;;;;;;;72;;;0.2;16.308.337.227.472.800;;X;l;go;l;1;0.33071570363244973;;;;;;;;;;;;;;;34;1;23;w;Medizin;2023-01-17_14h59.27.512;00_bat_bachelor;04/02/2022;5.999.845.822.345.510
;;;;;;;;;;;;1;0;1;0;73;0;73;0;;;;;;;73;;;0.2;16.314.671.008.644.300;16.322.672.076.280.100;X;None;nogo;None;1;;;;;;;;;;;;;;;;34;1;23;w;Medizin;2023-01-17_14h59.27.512;00_bat_bachelor;04/02/2022;5.999.845.822.345.510
;;;;;;;;;;;;1;0;1;0;74;0;74;0;;;;;;;74;;;0.2;16.324.676.996.520.100;;Y;d;go;l;0;0.2650415536627406;;;;;;;;;;;;;;;34;1;23;w;Medizin;2023-01-17_14h59.27.512;00_bat_bachelor;04/02/2022;5.999.845.822.345.510
;;;;;;;;;;;;1;0;1;0;75;0;75;0;;;;;;;75;;;0.2;16.330.341.013.167.900;;X;l;go;l;1;0.5618758339842316;;;;;;;;;;;;;;;34;1;23;w;Medizin;2023-01-17_14h59.27.512;00_bat_bachelor;04/02/2022;5.999.845.822.345.510
;;;;;;;;;;;;1;0;1;0;76;0;76;0;;;;;;;76;;;0.2;16.339.007.307.147.900;;X;None;nogo;d;0;0.35059545157128014;;;;;;;;;;;;;;;34;1;23;w;Medizin;2023-01-17_14h59.27.512;00_bat_bachelor;04/02/2022;5.999.845.822.345.510
;;;;;;;;;;;;1;0;1;0;77;0;77;0;;;;;;;77;;;0.2;16.345.673.902.703.500;16.353.670.601.856.500;Y;d;go;None;0;;;;;;;;;;;;;;;;34;1;23;w;Medizin;2023-01-17_14h59.27.512;00_bat_bachelor;04/02/2022;5.999.845.822.345.510
;;;;;;;;;;;;1;0;1;0;78;0;78;0;;;;;;;78;;;0.2;16.355.673.873.612.600;;X;l;go;l;1;0.3162638318608515;;;;;;;;;;;;;;;34;1;23;w;Medizin;2023-01-17_14h59.27.512;00_bat_bachelor;04/02/2022;5.999.845.822.345.510
;;;;;;;;;;;;1;0;1;0;79;0;79;0;;;;;;;79;;;0.2;16.361.839.068.199.100;;Y;d;go;d;1;0.43596801624516957;;;;;;;;;;;;;;;34;1;23;w;Medizin;2023-01-17_14h59.27.512;00_bat_bachelor;04/02/2022;5.999.845.822.345.510
;;;;;;;;;;;;1;0;1;0;80;0;80;0;;;;;;;80;;;0.2;16.369.337.634.260.400;;X;l;go;l;1;0.310504804350785;;;;;;;;;;;;;;;34;1;23;w;Medizin;2023-01-17_14h59.27.512;00_bat_bachelor;04/02/2022;5.999.845.822.345.510
;;;;;;;;;;;;1;0;1;0;81;0;81;0;;;;;;;81;;;0.2;16.375.504.574.300.700;;Y;d;go;d;1;0.3175816494040191;;;;;;;;;;;;;;;34;1;23;w;Medizin;2023-01-17_14h59.27.512;00_bat_bachelor;04/02/2022;5.999.845.822.345.510
;;;;;;;;;;;;1;0;1;0;82;0;82;0;;;;;;;82;;;0.2;16.381.837.545.775.600;;X;l;go;l;1;0.25954919267678633;;;;;;;;;;;;;;;34;1;23;w;Medizin;2023-01-17_14h59.27.512;00_bat_bachelor;04/02/2022;5.999.845.822.345.510
;;;;;;;;;;;;1;0;1;0;83;0;83;0;;;;;;;83;;;0.2;16.387.507.278.784.300;;Y;d;go;d;1;0.28422069587395526;;;;;;;;;;;;;;;34;1;23;w;Medizin;2023-01-17_14h59.27.512;00_bat_bachelor;04/02/2022;5.999.845.822.345.510
;;;;;;;;;;;;1;0;1;0;84;0;84;0;;;;;;;84;;;0.2;16.393.504.487.997.700;;Y;None;nogo;l;0;0.32639328148798086;;;;;;;;;;;;;;;34;1;23;w;Medizin;2023-01-17_14h59.27.512;00_bat_bachelor;04/02/2022;5.999.845.822.345.510
;;;;;;;;;;;;1;0;1;0;85;0;85;0;;;;;;;85;;;0.2;16.399.838.012.199.700;;X;l;go;l;1;0.412576027578325;;;;;;;;;;;;;;;34;1;23;w;Medizin;2023-01-17_14h59.27.512;00_bat_bachelor;04/02/2022;5.999.845.822.345.510
;;;;;;;;;;;;1;0;1;0;86;0;86;0;;;;;;;86;;;0.2;16.407.004.243.876.700;;Y;d;go;d;1;0.3991690037801163;;;;;;;;;;;;;;;34;1;23;w;Medizin;2023-01-17_14h59.27.512;00_bat_bachelor;04/02/2022;5.999.845.822.345.510
;;;;;;;;;;;;1;0;1;0;87;0;87;0;;;;;;;87;;;0.2;16.414.007.348.360.000;;X;l;go;l;1;0.2757426393800415;;;;;;;;;;;;;;;34;1;23;w;Medizin;2023-01-17_14h59.27.512;00_bat_bachelor;04/02/2022;5.999.845.822.345.510
;;;;;;;;;;;;1;0;1;0;88;0;88;0;;;;;;;88;;;0.2;16.419.840.572.198.400;;Y;d;go;d;1;0.38041458863881417;;;;;;;;;;;;;;;34;1;23;w;Medizin;2023-01-17_14h59.27.512;00_bat_bachelor;04/02/2022;5.999.845.822.345.510
;;;;;;;;;;;;1;0;1;0;89;0;89;0;;;;;;;89;;;0.2;16.426.674.997.975.600;;Y;None;nogo;l;0;0.3202090420672903;;;;;;;;;;;;;;;34;1;23;w;Medizin;2023-01-17_14h59.27.512;00_bat_bachelor;04/02/2022;5.999.845.822.345.510
;;;;;;;;;;;;1;0;1;0;90;0;90;0;;;;;;;90;;;0.2;16.433.004.817.937.000;;X;l;go;d;0;0.3115578947472386;;;;;;;;;;;;;;;34;1;23;w;Medizin;2023-01-17_14h59.27.512;00_bat_bachelor;04/02/2022;5.999.845.822.345.510
;;;;;;;;;;;;1;0;1;0;91;0;91;0;;;;;;;91;;;0.2;16.439.172.208.886.100;;Y;d;go;l;0;0.4629963667684933;;;;;;;;;;;;;;;34;1;23;w;Medizin;2023-01-17_14h59.27.512;00_bat_bachelor;04/02/2022;5.999.845.822.345.510
;;;;;;;;;;;;1;0;1;0;92;0;92;0;;;;;;;92;;;0.2;16.446.840.704.562.000;16.454.837.486.139.200;X;l;go;None;0;;;;;;;;;;;;;;;;34;1;23;w;Medizin;2023-01-17_14h59.27.512;00_bat_bachelor;04/02/2022;5.999.845.822.345.510
;;;;;;;;;;;;1;0;1;0;93;0;93;0;;;;;;;93;;;0.2;1.645.683.755.304.830;16.464.840.560.077.200;Y;d;go;None;0;;;;;;;;;;;;;;;;34;1;23;w;Medizin;2023-01-17_14h59.27.512;00_bat_bachelor;04/02/2022;5.999.845.822.345.510
;;;;;;;;;;;;1;0;1;0;94;0;94;0;;;;;;;94;;;0.2;16.466.841.155.470.900;;X;l;go;l;1;0.3514046633063117;;;;;;;;;;;;;;;34;1;23;w;Medizin;2023-01-17_14h59.27.512;00_bat_bachelor;04/02/2022;5.999.845.822.345.510
;;;;;;;;;;;;1;0;1;0;95;0;95;0;;;;;;;95;;;0.2;16.473.504.216.482.600;;Y;d;go;d;1;0.4370070460427087;;;;;;;;;;;;;;;34;1;23;w;Medizin;2023-01-17_14h59.27.512;00_bat_bachelor;04/02/2022;5.999.845.822.345.510
;;;;;;;;;;;;1;0;1;0;96;0;96;0;;;;;;;96;;;0.2;16.481.004.959.512.600;;X;l;go;l;1;0.34421630315773655;;;;;;;;;;;;;;;34;1;23;w;Medizin;2023-01-17_14h59.27.512;00_bat_bachelor;04/02/2022;5.999.845.822.345.510
;;;;;;;;;;;;1;0;1;0;97;0;97;0;;;;;;;97;;;0.2;16.487.508.190.298.900;;X;None;nogo;l;0;0.349311573401792;;;;;;;;;;;;;;;34;1;23;w;Medizin;2023-01-17_14h59.27.512;00_bat_bachelor;04/02/2022;5.999.845.822.345.510
;;;;;;;;;;;;1;0;1;0;98;0;98;0;;;;;;;98;;;0.2;16.494.007.222.299.500;;Y;d;go;d;1;0.4666021832090337;;;;;;;;;;;;;;;34;1;23;w;Medizin;2023-01-17_14h59.27.512;00_bat_bachelor;04/02/2022;5.999.845.822.345.510
;;;;;;;;;;;;1;0;1;0;99;0;99;0;;;;;;;99;;;0.2;1.650.167.172.282.580;;X;l;go;l;1;0.4525207354890881;;;;;;;;;;;;;;;34;1;23;w;Medizin;2023-01-17_14h59.27.512;00_bat_bachelor;04/02/2022;5.999.845.822.345.510
;;;;;;;;;;;;1;0;1;0;100;0;100;0;;;;;;;100;;;0.2;1.650.934.070.334.980;;Y;d;go;d;1;0.5182710066437721;;;;;;;;;;;;;;;34;1;23;w;Medizin;2023-01-17_14h59.27.512;00_bat_bachelor;04/02/2022;5.999.845.822.345.510
;;;;;;;;;;;;1;0;1;0;101;0;101;0;;;;;;;101;;;0.2;16.517.673.940.521.600;16.525.673.839.673.200;Y;None;nogo;None;1;;;;;;;;;;;;;;;;34;1;23;w;Medizin;2023-01-17_14h59.27.512;00_bat_bachelor;04/02/2022;5.999.845.822.345.510
;;;;;;;;;;;;1;0;1;0;102;0;102;0;;;;;;;102;;;0.2;16.527.670.692.038.300;;X;l;go;l;1;0.2209169689886039;;;;;;;;;;;;;;;34;1;23;w;Medizin;2023-01-17_14h59.27.512;00_bat_bachelor;04/02/2022;5.999.845.822.345.510
;;;;;;;;;;;;1;0;1;0;103;0;103;0;;;;;;;103;;;0.2;1.653.300.529.793.670;;Y;d;go;d;1;0.4225159015477402;;;;;;;;;;;;;;;34;1;23;w;Medizin;2023-01-17_14h59.27.512;00_bat_bachelor;04/02/2022;5.999.845.822.345.510
;;;;;;;;;;;;1;0;1;0;104;0;104;0;;;;;;;104;;;0.2;16.540.340.062.865.400;;X;l;go;l;1;0.2984621435170993;;;;;;;;;;;;;;;34;1;23;w;Medizin;2023-01-17_14h59.27.512;00_bat_bachelor;04/02/2022;5.999.845.822.345.510
;;;;;;;;;;;;1;0;1;0;105;0;105;0;;;;;;;105;;;0.2;16.546.341.572.682.800;;Y;d;go;d;1;0.2747079732216662;;;;;;;;;;;;;;;34;1;23;w;Medizin;2023-01-17_14h59.27.512;00_bat_bachelor;04/02/2022;5.999.845.822.345.510
;;;;;;;;;;;;1;0;1;0;106;0;106;0;;;;;;;106;;;0.2;16.552.174.059.551.900;;X;l;go;l;1;0.26705124965519644;;;;;;;;;;;;;;;34;1;23;w;Medizin;2023-01-17_14h59.27.512;00_bat_bachelor;04/02/2022;5.999.845.822.345.510
;;;;;;;;;;;;1;0;1;0;107;0;107;0;;;;;;;107;;;0.2;16.558.005.343.997.300;1.656.600.757.042.040;X;None;nogo;None;1;;;;;;;;;;;;;;;;34;1;23;w;Medizin;2023-01-17_14h59.27.512;00_bat_bachelor;04/02/2022;5.999.845.822.345.510
;;;;;;;;;;;;1;0;1;0;108;0;108;0;;;;;;;108;;;0.2;16.568.004.917.330.800;;Y;d;go;d;1;0.44395540629921015;;;;;;;;;;;;;;;34;1;23;w;Medizin;2023-01-17_14h59.27.512;00_bat_bachelor;04/02/2022;5.999.845.822.345.510
;;;;;;;;;;;;1;0;1;0;109;0;109;0;;;;;;;109;;;0.2;1.657.550.733.793.580;;X;l;go;l;1;0.2848141501308419;;;;;;;;;;;;;;;34;1;23;w;Medizin;2023-01-17_14h59.27.512;00_bat_bachelor;04/02/2022;5.999.845.822.345.510
;;;;;;;;;;;;1;0;1;0;110;0;110;0;;;;;;;110;;;0.2;16.581.504.333.815.900;;Y;d;go;d;1;0.32513316089170985;;;;;;;;;;;;;;;34;1;23;w;Medizin;2023-01-17_14h59.27.512;00_bat_bachelor;04/02/2022;5.999.845.822.345.510
;;;;;;;;;;;;1;0;1;0;111;0;111;0;;;;;;;111;;;0.2;16.587.837.630.139.200;;Y;None;nogo;l;0;0.2831826357723912;;;;;;;;;;;;;;;34;1;23;w;Medizin;2023-01-17_14h59.27.512;00_bat_bachelor;04/02/2022;5.999.845.822.345.510
;;;;;;;;;;;;1;0;1;0;112;0;112;0;;;;;;;112;;;0.2;16.593.671.755.795.500;16.601.673.822.218.700;X;l;go;None;0;;;;;;;;;;;;;;;;34;1;23;w;Medizin;2023-01-17_14h59.27.512;00_bat_bachelor;04/02/2022;5.999.845.822.345.510
;;;;;;;;;;;;1;0;1;0;113;0;113;0;;;;;;;113;;;0.2;16.603.670.941.250.400;;Y;d;go;d;1;0.3966599140840117;;;;;;;;;;;;;;;34;1;23;w;Medizin;2023-01-17_14h59.27.512;00_bat_bachelor;04/02/2022;5.999.845.822.345.510
;;;;;;;;;;;;1;0;1;0;114;0;114;0;;;;;;;114;;;0.2;16.610.680.639.669.800;;Y;None;nogo;l;0;0.2229639982979279;;;;;;;;;;;;;;;34;1;23;w;Medizin;2023-01-17_14h59.27.512;00_bat_bachelor;04/02/2022;5.999.845.822.345.510
;;;;;;;;;;;;1;0;1;0;115;0;115;0;;;;;;;115;;;0.2;16.616.346.469.650.100;;X;l;go;l;1;0.360635689139599;;;;;;;;;;;;;;;34;1;23;w;Medizin;2023-01-17_14h59.27.512;00_bat_bachelor;04/02/2022;5.999.845.822.345.510
;;;;;;;;;;;;1;0;1;0;116;0;116;0;;;;;;;116;;;0.2;16.623.345.913.529.100;;Y;d;go;d;1;0.4128300880693132;;;;;;;;;;;;;;;34;1;23;w;Medizin;2023-01-17_14h59.27.512;00_bat_bachelor;04/02/2022;5.999.845.822.345.510
;;;;;;;;;;;;1;0;1;0;117;0;117;0;;;;;;;117;;;0.2;16.630.849.250.497.200;;X;l;go;l;1;0.20633079424442258;;;;;;;;;;;;;;;34;1;23;w;Medizin;2023-01-17_14h59.27.512;00_bat_bachelor;04/02/2022;5.999.845.822.345.510
;;;;;;;;;;;;1;0;1;0;118;0;118;0;;;;;;;118;;;0.2;1.663.634.606.237.750;;Y;d;go;d;1;0.36011496210994665;;;;;;;;;;;;;;;34;1;23;w;Medizin;2023-01-17_14h59.27.512;00_bat_bachelor;04/02/2022;5.999.845.822.345.510
;;;;;;;;;;;;1;0;1;0;119;0;119;0;;;;;;;119;;;0.2;16.643.347.697.770.800;;Y;None;nogo;l;0;0.31691304365813266;;;;;;;;;;;;;;;34;1;23;w;Medizin;2023-01-17_14h59.27.512;00_bat_bachelor;04/02/2022;5.999.845.822.345.510
;;;;;;;;;;;;1;0;1;0;120;0;120;0;;;;;;;120;;;0.2;1.664.984.711.764.970;16.657.850.076.193.800;X;l;go;None;0;;;;;;;;;;;;;;;;34;1;23;w;Medizin;2023-01-17_14h59.27.512;00_bat_bachelor;04/02/2022;5.999.845.822.345.510
;;;;;;;;;;;;1;0;1;0;121;0;121;0;;;;;;;121;;;0.2;166.598.472.485.588;;Y;d;go;d;1;0.346764180707396;;;;;;;;;;;;;;;34;1;23;w;Medizin;2023-01-17_14h59.27.512;00_bat_bachelor;04/02/2022;5.999.845.822.345.510
;;;;;;;;;;;;1;0;1;0;122;0;122;0;;;;;;;122;;;0.2;16.666.680.583.427.500;;X;l;go;l;1;0.43113310949411243;;;;;;;;;;;;;;;34;1;23;w;Medizin;2023-01-17_14h59.27.512;00_bat_bachelor;04/02/2022;5.999.845.822.345.510
;;;;;;;;;;;;1;0;1;0;123;0;123;0;;;;;;;123;;;0.2;16.674.350.688.799.600;;Y;d;go;d;1;0.47971587382198777;;;;;;;;;;;;;;;34;1;23;w;Medizin;2023-01-17_14h59.27.512;00_bat_bachelor;04/02/2022;5.999.845.822.345.510
;;;;;;;;;;;;1;0;1;0;124;0;124;0;;;;;;;124;;;0.2;16.682.513.972.114.300;;X;l;go;l;1;0.4477474044688279;;;;;;;;;;;;;;;34;1;23;w;Medizin;2023-01-17_14h59.27.512;00_bat_bachelor;04/02/2022;5.999.845.822.345.510
;;;;;;;;;;;;1;0;1;0;125;0;125;0;;;;;;;125;;;0.2;16.690.348.877.406.500;;Y;d;go;d;1;0.40029870020225644;;;;;;;;;;;;;;;34;1;23;w;Medizin;2023-01-17_14h59.27.512;00_bat_bachelor;04/02/2022;5.999.845.822.345.510
;;;;;;;;;;;;1;0;1;0;126;0;126;0;;;;;;;126;;;0.2;16.697.682.061.729.800;;Y;None;nogo;d;0;0.4834758720098762;;;;;;;;;;;;;;;34;1;23;w;Medizin;2023-01-17_14h59.27.512;00_bat_bachelor;04/02/2022;5.999.845.822.345.510
;;;;;;;;;;;;1;0;1;0;127;0;127;0;;;;;;;127;;;0.2;1.670.584.764.322.520;;X;l;go;l;1;0.4023079113540007;;;;;;;;;;;;;;;34;1;23;w;Medizin;2023-01-17_14h59.27.512;00_bat_bachelor;04/02/2022;5.999.845.822.345.510
;;;;;;;;;;;;1;0;1;0;128;0;128;0;;;;;;;128;;;0.2;16.713.346.451.710.800;;Y;d;go;d;1;0.4041542134946212;;;;;;;;;;;;;;;34;1;23;w;Medizin;2023-01-17_14h59.27.512;00_bat_bachelor;04/02/2022;5.999.845.822.345.510
;;;;;;;;;;;;1;0;1;0;129;0;129;0;;;;;;;129;;;0.2;16.720.849.764.436.400;;X;l;go;l;1;0.5177890674822265;;;;;;;;;;;;;;;34;1;23;w;Medizin;2023-01-17_14h59.27.512;00_bat_bachelor;04/02/2022;5.999.845.822.345.510
;;;;;;;;;;;;1;0;1;0;130;0;130;0;;;;;;;130;;;0.2;16.729.346.540.922.800;;X;None;nogo;l;0;0.45216437202179804;;;;;;;;;;;;;;;34;1;23;w;Medizin;2023-01-17_14h59.27.512;00_bat_bachelor;04/02/2022;5.999.845.822.345.510
;;;;;;;;;;;;1;0;1;0;131;0;131;0;;;;;;;131;;;0.2;16.737.178.406.216.500;;Y;d;go;d;1;0.5813924305839464;;;;;;;;;;;;;;;34;1;23;w;Medizin;2023-01-17_14h59.27.512;00_bat_bachelor;04/02/2022;5.999.845.822.345.510
;;;;;;;;;;;;1;0;1;0;132;0;132;0;;;;;;;132;;;0.2;16.746.176.918.217.200;;X;l;go;l;1;0.2740665189776337;;;;;;;;;;;;;;;34;1;23;w;Medizin;2023-01-17_14h59.27.512;00_bat_bachelor;04/02/2022;5.999.845.822.345.510
;;;;;;;;;;;;1;0;1;0;133;0;133;0;;;;;;;133;;;0.2;16.752.011.431.752.000;;Y;d;go;d;1;0.4422046192921698;;;;;;;;;;;;;;;34;1;23;w;Medizin;2023-01-17_14h59.27.512;00_bat_bachelor;04/02/2022;5.999.845.822.345.510
;;;;;;;;;;;;1;0;1;0;134;0;134;0;;;;;;;134;;;0.2;16.759.513.202.660.100;;X;l;go;l;1;0.3645469599578064;;;;;;;;;;;;;;;34;1;23;w;Medizin;2023-01-17_14h59.27.512;00_bat_bachelor;04/02/2022;5.999.845.822.345.510
;;;;;;;;;;;;1;0;1;0;135;0;135;0;;;;;;;135;;;0.2;16.766.178.406.701.300;;Y;d;go;d;1;0.4021333659766242;;;;;;;;;;;;;;;34;1;23;w;Medizin;2023-01-17_14h59.27.512;00_bat_bachelor;04/02/2022;5.999.845.822.345.510
;;;;;;;;;;;;1;0;1;0;136;0;136;0;;;;;;;136;;;0.2;1.677.334.312.080.330;;Y;None;nogo;l;0;0.2769169418461388;;;;;;;;;;;;;;;34;1;23;w;Medizin;2023-01-17_14h59.27.512;00_bat_bachelor;04/02/2022;5.999.845.822.345.510
;;;;;;;;;;;;1;0;1;0;137;0;137;0;;;;;;;137;;;0.2;16.779.178.206.459.000;1.678.717.823.651.950;X;l;go;None;0;;;;;;;;;;;;;;;;34;1;23;w;Medizin;2023-01-17_14h59.27.512;00_bat_bachelor;04/02/2022;5.999.845.822.345.510
;;;;;;;;;;;;1;0;1;0;138;0;138;0;;;;;;;138;;;0.2;16.789.178.759.186.000;;Y;d;go;d;1;0.3259903725993354;;;;;;;;;;;;;;;34;1;23;w;Medizin;2023-01-17_14h59.27.512;00_bat_bachelor;04/02/2022;5.999.845.822.345.510
;;;;;;;;;;;;1;0;1;0;139;0;139;0;;;;;;;139;;;0.2;1.679.551.151.247.920;;X;l;go;l;1;0.3486080586008029;;;;;;;;;;;;;;;34;1;23;w;Medizin;2023-01-17_14h59.27.512;00_bat_bachelor;04/02/2022;5.999.845.822.345.510
;;;;;;;;;;;;1;0;1;0;140;0;140;0;;;;;;;140;;;0.2;1.680.201.189.235.780;;X;None;nogo;l;0;0.4175573585089296;;;;;;;;;;;;;;;34;1;23;w;Medizin;2023-01-17_14h59.27.512;00_bat_bachelor;04/02/2022;5.999.845.822.345.510
;;;;;;;;;;;;1;0;1;0;141;0;141;0;;;;;;;141;;;0.2;16.809.511.408.721.700;;Y;d;go;d;1;0.5324222725030268;;;;;;;;;;;;;;;34;1;23;w;Medizin;2023-01-17_14h59.27.512;00_bat_bachelor;04/02/2022;5.999.845.822.345.510
;;;;;;;;;;;;1;0;1;0;142;0;142;0;;;;;;;142;;;0.2;16.817.844.573.166.200;;X;l;go;l;1;0.41890281239466276;;;;;;;;;;;;;;;34;1;23;w;Medizin;2023-01-17_14h59.27.512;00_bat_bachelor;04/02/2022;5.999.845.822.345.510
;;;;;;;;;;;;1;0;1;0;143;0;143;0;;;;;;;143;;;0.2;16.825.178.683.549.700;16.833.179.203.306.900;X;None;nogo;None;1;;;;;;;;;;;;;;;;34;1;23;w;Medizin;2023-01-17_14h59.27.512;00_bat_bachelor;04/02/2022;5.999.845.822.345.510
;;;;;;;;;;;;1;0;1;0;144;0;144;0;;;;;;;144;;;0.2;16.835.177.849.610.600;;Y;d;go;d;1;0.3497809065156616;;;;;;;;;;;;;;;34;1;23;w;Medizin;2023-01-17_14h59.27.512;00_bat_bachelor;04/02/2022;5.999.845.822.345.510
;;;;;;;;;;;;1;0;1;0;145;0;145;0;;;;;;;145;;;0.2;16.841.676.682.823.300;;X;l;go;l;1;0.45131297850457486;;;;;;;;;;;;;;;34;1;23;w;Medizin;2023-01-17_14h59.27.512;00_bat_bachelor;04/02/2022;5.999.845.822.345.510
;;;;;;;;;;;;1;0;1;0;146;0;146;0;;;;;;;146;;;0.2;168.493.456.294.082;1.685.734.281.825.800;X;None;nogo;None;1;;;;;;;;;;;;;;;;34;1;23;w;Medizin;2023-01-17_14h59.27.512;00_bat_bachelor;04/02/2022;5.999.845.822.345.510
;;;;;;;;;;;;1;0;1;0;147;0;147;0;;;;;;;147;;;0.2;16.859.344.553.045.000;;Y;d;go;d;1;0.31724710410344414;;;;;;;;;;;;;;;34;1;23;w;Medizin;2023-01-17_14h59.27.512;00_bat_bachelor;04/02/2022;5.999.845.822.345.510
;;;;;;;;;;;;1;0;1;0;148;0;148;0;;;;;;;148;;;0.2;1.686.567.865.906.480;;X;l;go;l;1;0.3871433126332704;;;;;;;;;;;;;;;34;1;23;w;Medizin;2023-01-17_14h59.27.512;00_bat_bachelor;04/02/2022;5.999.845.822.345.510
;;;;;;;;;;;;1;0;1;0;149;0;149;0;;;;;;;149;;;0.2;168.728.451.574.083;;Y;d;go;d;1;0.598259816353675;;;;;;;;;;;;;;;34;1;23;w;Medizin;2023-01-17_14h59.27.512;00_bat_bachelor;04/02/2022;5.999.845.822.345.510
;;;;;;;;;;;;1;0;1;0;150;0;150;0;;;;;;;150;;;0.2;1.688.201.004.993.440;;X;l;go;l;1;0.38637385846232064;;;;;;;;;;;;;;;34;1;23;w;Medizin;2023-01-17_14h59.27.512;00_bat_bachelor;04/02/2022;5.999.845.822.345.510
;;;;;;;;;;;;1;0;1;0;151;0;151;0;;;;;;;151;;;0.2;16.889.011.874.418.500;;Y;d;go;d;1;0.47068896910059266;;;;;;;;;;;;;;;34;1;23;w;Medizin;2023-01-17_14h59.27.512;00_bat_bachelor;04/02/2022;5.999.845.822.345.510
;;;;;;;;;;;;1;0;1;0;152;0;152;0;;;;;;;152;;;0.2;1.689.684.311.425.770;;X;l;go;l;1;0.40782548443530686;;;;;;;;;;;;;;;34;1;23;w;Medizin;2023-01-17_14h59.27.512;00_bat_bachelor;04/02/2022;5.999.845.822.345.510
;;;;;;;;;;;;1;0;1;0;153;0;153;0;;;;;;;153;;;0.2;16.904.009.748.358.800;16.912.009.468.116.500;X;None;nogo;None;1;;;;;;;;;;;;;;;;34;1;23;w;Medizin;2023-01-17_14h59.27.512;00_bat_bachelor;04/02/2022;5.999.845.822.345.510
;;;;;;;;;;;;1;0;1;0;154;0;154;0;;;;;;;154;;;0.2;16.914.009.627.146.700;;Y;d;go;d;1;0.3867932522116462;;;;;;;;;;;;;;;34;1;23;w;Medizin;2023-01-17_14h59.27.512;00_bat_bachelor;04/02/2022;5.999.845.822.345.510
;;;;;;;;;;;;1;0;1;0;155;0;155;0;;;;;;;155;;;0.2;16.921.009.381.328.700;1.692.901.231.563.030;X;l;go;None;0;;;;;;;;;;;;;;;;34;1;23;w;Medizin;2023-01-17_14h59.27.512;00_bat_bachelor;04/02/2022;5.999.845.822.345.510
;;;;;;;;;;;;1;0;1;0;156;0;156;0;;;;;;;156;;;0.2;16.931.009.725.571.000;;Y;d;go;d;1;0.43032438261434436;;;;;;;;;;;;;;;34;1;23;w;Medizin;2023-01-17_14h59.27.512;00_bat_bachelor;04/02/2022;5.999.845.822.345.510
;;;;;;;;;;;;1;0;1;0;157;0;157;0;;;;;;;157;;;0.2;16.938.346.507.468.300;;Y;None;nogo;d;0;0.5933255156996893;;;;;;;;;;;;;;;34;1;23;w;Medizin;2023-01-17_14h59.27.512;00_bat_bachelor;04/02/2022;5.999.845.822.345.510
;;;;;;;;;;;;1;0;1;0;158;0;158;0;;;;;;;158;;;0.2;16.947.345.528.559.600;;X;l;go;l;1;0.5098889501095982;;;;;;;;;;;;;;;34;1;23;w;Medizin;2023-01-17_14h59.27.512;00_bat_bachelor;04/02/2022;5.999.845.822.345.510
;;;;;;;;;;;;1;0;1;0;159;0;159;0;;;;;;;159;;;0.2;16.955.511.173.085.300;;Y;d;go;d;1;0.4758206029800931;;;;;;;;;;;;;;;34;1;23;w;Medizin;2023-01-17_14h59.27.512;00_bat_bachelor;04/02/2022;5.999.845.822.345.510
;;;;;;;;;;;;1;0;1;0;160;0;160;0;;;;;;;160;;;0.2;16.963.511.474.661.000;16.971.508.726.541.200;Y;None;nogo;None;1;;;;;;;;;;;;;;;;34;1;23;w;Medizin;2023-01-17_14h59.27.512;00_bat_bachelor;04/02/2022;5.999.845.822.345.510
;;;;;;;;;;;;1;0;1;0;161;0;161;0;;;;;;;161;;;0.2;1.697.351.028.678.280;;X;l;go;l;1;0.3248155852779746;;;;;;;;;;;;;;;34;1;23;w;Medizin;2023-01-17_14h59.27.512;00_bat_bachelor;04/02/2022;5.999.845.822.345.510
;;;;;;;;;;;;1;0;1;0;162;0;162;0;;;;;;;162;;;0.2;16.979.841.047.349.700;;Y;d;go;d;1;0.4287263227888616;;;;;;;;;;;;;;;34;1;23;w;Medizin;2023-01-17_14h59.27.512;00_bat_bachelor;04/02/2022;5.999.845.822.345.510
;;;;;;;;;;;;1;0;1;0;163;0;163;0;;;;;;;163;;;0.2;16.987.173.654.703.600;16.995.173.650.824.800;Y;None;nogo;None;1;;;;;;;;;;;;;;;;34;1;23;w;Medizin;2023-01-17_14h59.27.512;00_bat_bachelor;04/02/2022;5.999.845.822.345.510
;;;;;;;;;;;;1;0;1;0;164;0;164;0;;;;;;;164;;;0.2;16.997.170.061.978.100;;X;l;go;l;1;0.5661948622000637;;;;;;;;;;;;;;;34;1;23;w;Medizin;2023-01-17_14h59.27.512;00_bat_bachelor;04/02/2022;5.999.845.822.345.510
;;;;;;;;;;;;1;0;1;0;165;0;165;0;;;;;;;165;;;0.2;17.005.840.452.925.700;17.013.837.074.503.200;Y;d;go;None;0;;;;;;;;;;;;;;;;34;1;23;w;Medizin;2023-01-17_14h59.27.512;00_bat_bachelor;04/02/2022;5.999.845.822.345.510
;;;;;;;;;;;;1;0;1;0;166;0;166;0;;;;;;;166;;;0.2;1.701.584.033.656.220;;Y;None;nogo;d;0;0.5249754882388515;;;;;;;;;;;;;;;34;1;23;w;Medizin;2023-01-17_14h59.27.512;00_bat_bachelor;04/02/2022;5.999.845.822.345.510
;;;;;;;;;;;;1;0;1;0;167;0;167;0;;;;;;;167;;;0.2;1.702.417.053.373.540;;X;l;go;l;1;0.5699791027873289;;;;;;;;;;;;;;;34;1;23;w;Medizin;2023-01-17_14h59.27.512;00_bat_bachelor;04/02/2022;5.999.845.822.345.510
;;;;;;;;;;;;1;0;1;0;168;0;168;0;;;;;;;168;;;0.2;17.033.006.728.239.100;;Y;d;go;d;1;0.5349798470269889;;;;;;;;;;;;;;;34;1;23;w;Medizin;2023-01-17_14h59.27.512;00_bat_bachelor;04/02/2022;5.999.845.822.345.510
;;;;;;;;;;;;1;0;1;0;169;0;169;0;;;;;;;169;;;0.2;1.704.150.386.836.170;17.049.506.914.178.400;Y;None;nogo;None;1;;;;;;;;;;;;;;;;34;1;23;w;Medizin;2023-01-17_14h59.27.512;00_bat_bachelor;04/02/2022;5.999.845.822.345.510
;;;;;;;;;;;;1;0;1;0;170;0;170;0;;;;;;;170;;;0.2;17.051.506.806.542.100;;X;l;go;l;1;0.5898554567829706;;;;;;;;;;;;;;;34;1;23;w;Medizin;2023-01-17_14h59.27.512;00_bat_bachelor;04/02/2022;5.999.845.822.345.510
;;;;;;;;;;;;1;0;1;0;171;0;171;0;;;;;;;171;;;0.2;17.060.506.196.118.200;;Y;d;go;d;1;0.41004366517881863;;;;;;;;;;;;;;;34;1;23;w;Medizin;2023-01-17_14h59.27.512;00_bat_bachelor;04/02/2022;5.999.845.822.345.510
;;;;;;;;;;;;1;0;1;0;172;0;172;0;;;;;;;172;;;0.2;170.676.736.011.279;1.707.567.464.452.130;X;l;go;None;0;;;;;;;;;;;;;;;;34;1;23;w;Medizin;2023-01-17_14h59.27.512;00_bat_bachelor;04/02/2022;5.999.845.822.345.510
;;;;;;;;;;;;1;0;1;0;173;0;173;0;;;;;;;173;;;0.2;17.077.673.445.976.300;;X;None;nogo;l;0;0.5003471365489531;;;;;;;;;;;;;;;34;1;23;w;Medizin;2023-01-17_14h59.27.512;00_bat_bachelor;04/02/2022;5.999.845.822.345.510
;;;;;;;;;;;;1;0;1;0;174;0;174;0;;;;;;;174;;;0.2;17.085.673.296.643.200;;Y;d;go;d;1;0.6615475432336098;;;;;;;;;;;;;;;34;1;23;w;Medizin;2023-01-17_14h59.27.512;00_bat_bachelor;04/02/2022;5.999.845.822.345.510
;;;;;;;;;;;;1;0;1;0;175;0;175;0;;;;;;;175;;;0.2;17.095.340.147.713.800;;X;l;go;l;1;0.4462686173210386;;;;;;;;;;;;;;;34;1;23;w;Medizin;2023-01-17_14h59.27.512;00_bat_bachelor;04/02/2022;5.999.845.822.345.510
;;;;;;;;;;;;1;0;1;0;176;0;176;0;;;;;;;176;;;0.2;17.102.837.307.715.200;;X;None;nogo;d;0;0.5121027671993943;;;;;;;;;;;;;;;34;1;23;w;Medizin;2023-01-17_14h59.27.512;00_bat_bachelor;04/02/2022;5.999.845.822.345.510
;;;;;;;;;;;;1;0;1;0;177;0;177;0;;;;;;;177;;;0.2;17.111.004.353.452.400;17.119.007.050.178.300;Y;d;go;None;0;;;;;;;;;;;;;;;;34;1;23;w;Medizin;2023-01-17_14h59.27.512;00_bat_bachelor;04/02/2022;5.999.845.822.345.510
;;;;;;;;;;;;1;0;1;0;178;0;178;0;;;;;;;178;;;0.2;17.121.003.660.119.400;1.712.900.774.351.130;X;l;go;None;0;;;;;;;;;;;;;;;;34;1;23;w;Medizin;2023-01-17_14h59.27.512;00_bat_bachelor;04/02/2022;5.999.845.822.345.510
;;;;;;;;;;;;1;0;1;0;179;0;179;0;;;;;;;179;;;0.2;17.131.006.801.936.000;;X;None;nogo;l;0;0.527601426365436;;;;;;;;;;;;;;;34;1;23;w;Medizin;2023-01-17_14h59.27.512;00_bat_bachelor;04/02/2022;5.999.845.822.345.510
;;;;;;;;;;;;1;0;1;0;180;0;180;0;;;;;;;180;;;0.2;17.139.340.223.350.100;1.714.734.010.795.620;X;None;nogo;None;1;;;;;;;;;;;;;;;;34;1;23;w;Medizin;2023-01-17_14h59.27.512;00_bat_bachelor;04/02/2022;5.999.845.822.345.510
;;;;;;;;;;;;1;0;1;0;181;0;181;0;;;;;;;181;;;0.2;1.714.934.087.304.670;;Y;d;go;d;1;0.45420703770651016;;;;;;;;;;;;;;;34;1;23;w;Medizin;2023-01-17_14h59.27.512;00_bat_bachelor;04/02/2022;5.999.845.822.345.510
;;;;;;;;;;;;1;0;1;0;182;0;182;0;;;;;;;182;;;0.2;17.157.005.009.936.900;;X;l;go;l;1;0.3443666061211843;;;;;;;;;;;;;;;34;1;23;w;Medizin;2023-01-17_14h59.27.512;00_bat_bachelor;04/02/2022;5.999.845.822.345.510
;;;;;;;;;;;;1;0;1;0;183;0;183;0;;;;;;;183;;;0.2;17.163.505.137.694.400;;Y;d;go;d;1;0.5244533066725126;;;;;;;;;;;;;;;34;1;23;w;Medizin;2023-01-17_14h59.27.512;00_bat_bachelor;04/02/2022;5.999.845.822.345.510
;;;;;;;;;;;;1;0;1;0;184;0;184;0;;;;;;;184;;;0.2;1.717.184.075.062.260;17.179.841.134.622.400;Y;None;nogo;None;1;;;;;;;;;;;;;;;;34;1;23;w;Medizin;2023-01-17_14h59.27.512;00_bat_bachelor;04/02/2022;5.999.845.822.345.510
;;;;;;;;;;;;1;0;1;0;185;0;185;0;;;;;;;185;;;0.2;17.181.838.297.290.500;;X;l;go;l;1;0.26020470753428526;;;;;;;;;;;;;;;34;1;23;w;Medizin;2023-01-17_14h59.27.512;00_bat_bachelor;04/02/2022;5.999.845.822.345.510
;;;;;;;;;;;;1;0;1;0;186;0;186;0;;;;;;;186;;;0.2;17.187.506.929.693.600;17.195.506.775.511.700;Y;d;go;None;0;;;;;;;;;;;;;;;;34;1;23;w;Medizin;2023-01-17_14h59.27.512;00_bat_bachelor;04/02/2022;5.999.845.822.345.510
;;;;;;;;;;;;1;0;1;0;187;0;187;0;;;;;;;187;;;0.2;17.197.504.117.573.600;17.205.505.025.209.500;Y;None;nogo;None;1;;;;;;;;;;;;;;;;34;1;23;w;Medizin;2023-01-17_14h59.27.512;00_bat_bachelor;04/02/2022;5.999.845.822.345.510
;;;;;;;;;;;;1;0;1;0;188;0;188;0;;;;;;;188;;;0.2;17.207.506.624.239.100;;X;l;go;l;1;0.36565386851725634;;;;;;;;;;;;;;;34;1;23;w;Medizin;2023-01-17_14h59.27.512;00_bat_bachelor;04/02/2022;5.999.845.822.345.510
;;;;;;;;;;;;1;0;1;0;189;0;189;0;;;;;;;189;;;0.2;17.214.171.595.553.000;;Y;d;go;d;1;0.3385964270855766;;;;;;;;;;;;;;;34;1;23;w;Medizin;2023-01-17_14h59.27.512;00_bat_bachelor;04/02/2022;5.999.845.822.345.510
