loop_instruction.thisRepN,loop_instruction.thisTrialN,loop_instruction.thisN,loop_instruction.thisIndex,loop_rsi_practice.thisRepN,loop_rsi_practice.thisTrialN,loop_rsi_practice.thisN,loop_rsi_practice.thisIndex,loop_practice.thisRepN,loop_practice.thisTrialN,loop_practice.thisN,loop_practice.thisIndex,loop_exp.thisRepN,loop_exp.thisTrialN,loop_exp.thisN,loop_exp.thisIndex,loop_trials.thisRepN,loop_trials.thisTrialN,loop_trials.thisN,loop_trials.thisIndex,map_condition,map_x_key,map_y_key,key_resp_welcome.started,key_resp_welcome.keys,key_resp_welcome.rt,index,text_empty_rsi_practice.started,text_empty_rsi_practice.stopped,rsi,stimulus.started,stimulus,correct,trial_type,key_resp_trial.keys,key_resp_trial.corr,stimulus.stopped,key_resp_trial.rt,key_resp_instruction_rsi.started,key_resp_instruction_rsi.keys,key_resp_instruction_rsi.rt,key_resp_instruction_rsi.stopped,key_resp_instruction_final.started,key_resp_instruction_final.keys,key_resp_instruction_final.rt,key_resp_break.started,key_resp_break.keys,key_resp_break.rt,key_resp_break.stopped,key_resp_end_screen.started,image_end_screen.started,key_resp_end_screen.stopped,image_end_screen.stopped,key_resp_end_screen.keys,participant,session,Alter,Geschlecht (w/m/d/andere),Studiengang,date,expName,psychopyVersion,frameRate,
,,,,0,0,0,0,0,0,0,0,,,,,,,,,1,l,d,1199.814302635481,j,17.360700187899056,0,1217.2035223255662,1218.2181492275558,1,1218.2181492275558,X,l,go,None,0,,,,,,,,,,,,,,,,,,,35 ,001,22,w,Psychologie 100% Bachelor,2023-01-17_14h59.50.571,00_bat_bachelor,2022.2.4,59.991477578276815,
,,,,0,0,0,0,1,0,1,0,,,,,,,,,,,,,,,1,1219.6196869722626,1220.621925516636,1,1220.621925516636,Y,d,go,None,0,1221.4208313111012,,,,,,,,,,,,,,,,,,35 ,001,22,w,Psychologie 100% Bachelor,2023-01-17_14h59.50.571,00_bat_bachelor,2022.2.4,59.991477578276815,
,,,,0,0,0,0,2,0,2,0,,,,,,,,,,,,,,,2,1222.0216208380007,1223.0220523529424,1,1223.0220523529424,X,l,go,l,1,,0.35578576603438705,,,,,,,,,,,,,,,,,35 ,001,22,w,Psychologie 100% Bachelor,2023-01-17_14h59.50.571,00_bat_bachelor,2022.2.4,59.991477578276815,
,,,,0,0,0,0,3,0,3,0,,,,,,,,,,,,,,,3,1224.1231150918175,1225.123782243012,1,1225.123782243012,Y,d,go,d,1,,0.3505023746693041,,,,,,,,,,,,,,,,,35 ,001,22,w,Psychologie 100% Bachelor,2023-01-17_14h59.50.571,00_bat_bachelor,2022.2.4,59.991477578276815,
,,,,0,0,0,0,4,0,4,0,,,,,,,,,,,,,,,4,1226.1911693618458,1227.1919111796742,1,1227.1919111796742,Y,None,nogo,None,1,1227.992517821811,,,,,,,,,,,,,,,,,,35 ,001,22,w,Psychologie 100% Bachelor,2023-01-17_14h59.50.571,00_bat_bachelor,2022.2.4,59.991477578276815,
,,,,0,0,0,0,5,0,5,0,,,,,,,,,,,,,,,5,1228.5932035911683,1229.5938421363098,1,1229.5938421363098,Y,None,nogo,None,1,1230.3946305965364,,,,,,,,,,,,,,,,,,35 ,001,22,w,Psychologie 100% Bachelor,2023-01-17_14h59.50.571,00_bat_bachelor,2022.2.4,59.991477578276815,
,,,,0,0,0,0,6,0,6,0,,,,,,,,,,,,,,,6,1230.9948654570326,1231.9957541838667,1,1231.9957541838667,X,l,go,l,1,,0.5998569204239175,,,,,,,,,,,,,,,,,35 ,001,22,w,Psychologie 100% Bachelor,2023-01-17_14h59.50.571,00_bat_bachelor,2022.2.4,59.991477578276815,
,,,,0,0,0,0,7,0,7,0,,,,,,,,,,,,,,,7,1233.2964502805116,1234.2972880982852,1,1234.2972880982852,Y,d,go,d,1,,0.4727529820520431,,,,,,,,,,,,,,,,,35 ,001,22,w,Psychologie 100% Bachelor,2023-01-17_14h59.50.571,00_bat_bachelor,2022.2.4,59.991477578276815,
,,,,0,0,0,0,8,0,8,0,,,,,,,,,,,,,,,8,1235.4982271523768,1236.4987890914927,1,1236.4987890914927,Y,None,nogo,None,1,1237.2995397335471,,,,,,,,,,,,,,,,,,35 ,001,22,w,Psychologie 100% Bachelor,2023-01-17_14h59.50.571,00_bat_bachelor,2022.2.4,59.991477578276815,
,,,,0,0,0,0,9,0,9,0,,,,,,,,,,,,,,,9,1237.8998201697832,1238.9006303511997,1,1238.9006303511997,X,l,go,l,1,,0.4464683887345018,,,,,,,,,,,,,,,,,35 ,001,22,w,Psychologie 100% Bachelor,2023-01-17_14h59.50.571,00_bat_bachelor,2022.2.4,59.991477578276815,
,,,,0,0,0,0,10,0,10,0,,,,,,,,,,,,,,,10,1240.068325785047,1241.068894027194,1,1241.068894027194,Y,d,go,d,1,,0.45370474887022283,,,,,,,,,,,,,,,,,35 ,001,22,w,Psychologie 100% Bachelor,2023-01-17_14h59.50.571,00_bat_bachelor,2022.2.4,59.991477578276815,
,,,,0,0,0,0,11,0,11,0,,,,,,,,,,,,,,,11,1242.2533642407943,1243.2540619374195,1,1243.2540619374195,X,l,go,l,1,,0.5086249646556098,,,,,,,,,,,,,,,,,35 ,001,22,w,Psychologie 100% Bachelor,2023-01-17_14h59.50.571,00_bat_bachelor,2022.2.4,59.991477578276815,
,,,,0,0,0,0,12,0,12,0,,,,,,,,,,,,,,,12,1244.4717088621983,1245.4722586801072,1,1245.4722586801072,X,None,nogo,l,0,,0.4022342283715261,,,,,,,,,,,,,,,,,35 ,001,22,w,Psychologie 100% Bachelor,2023-01-17_14h59.50.571,00_bat_bachelor,2022.2.4,59.991477578276815,
,,,,0,0,0,0,13,0,13,0,,,,,,,,,,,,,,,13,1247.006708360379,1248.0076329659933,1,1248.0076329659933,Y,d,go,None,0,1248.8082488202344,,,,,,,,,,,,,,,,,,35 ,001,22,w,Psychologie 100% Bachelor,2023-01-17_14h59.50.571,00_bat_bachelor,2022.2.4,59.991477578276815,
,,,,0,0,0,0,14,0,14,0,,,,,,,,,,,,,,,14,1249.4083202868642,1250.4088356805587,1,1250.4088356805587,X,l,go,l,1,,0.4909546701965155,,,,,,,,,,,,,,,,,35 ,001,22,w,Psychologie 100% Bachelor,2023-01-17_14h59.50.571,00_bat_bachelor,2022.2.4,59.991477578276815,
,,,,1,0,1,0,0,0,0,0,,,,,,,,,,,,,,,0,1267.572524813324,1267.77253780725,0.2,1267.77253780725,X,l,go,l,1,,0.40577507512352895,1251.6195473359694,j,15.92231591559539,,,,,,,,,,,,,,35 ,001,22,w,Psychologie 100% Bachelor,2023-01-17_14h59.50.571,00_bat_bachelor,2022.2.4,59.991477578276815,
,,,,1,0,1,0,1,0,1,0,,,,,,,,,,,,,,,1,1268.8902138714038,1269.0901817744598,0.2,1269.0901817744598,Y,d,go,d,1,,0.46450183453271165,,,,,,,,,,,,,,,,,35 ,001,22,w,Psychologie 100% Bachelor,2023-01-17_14h59.50.571,00_bat_bachelor,2022.2.4,59.991477578276815,
,,,,1,0,1,0,2,0,2,0,,,,,,,,,,,,,,,2,1270.2578728446679,1270.4580778384989,0.2,1270.4580778384989,X,l,go,l,1,,0.4726972244970966,,,,,,,,,,,,,,,,,35 ,001,22,w,Psychologie 100% Bachelor,2023-01-17_14h59.50.571,00_bat_bachelor,2022.2.4,59.991477578276815,
,,,,1,0,1,0,3,0,3,0,,,,,,,,,,,,,,,3,1271.6422726582823,1271.8423249249317,0.2,1271.8423249249317,Y,d,go,d,1,,0.3848209034767933,,,,,,,,,,,,,,,,,35 ,001,22,w,Psychologie 100% Bachelor,2023-01-17_14h59.50.571,00_bat_bachelor,2022.2.4,59.991477578276815,
,,,,1,0,1,0,4,0,4,0,,,,,,,,,,,,,,,4,1272.94312778514,1273.1432552032638,0.2,1273.1432552032638,X,l,go,l,1,,0.38025460265635047,,,,,,,,,,,,,,,,,35 ,001,22,w,Psychologie 100% Bachelor,2023-01-17_14h59.50.571,00_bat_bachelor,2022.2.4,59.991477578276815,
,,,,1,0,1,0,5,0,5,0,,,,,,,,,,,,,,,5,1274.2274200109387,1274.427461126077,0.2,1274.427461126077,Y,d,go,d,1,,0.3753125444491161,,,,,,,,,,,,,,,,,35 ,001,22,w,Psychologie 100% Bachelor,2023-01-17_14h59.50.571,00_bat_bachelor,2022.2.4,59.991477578276815,
,,,,1,0,1,0,6,0,6,0,,,,,,,,,,,,,,,6,1275.5118106609298,1275.7118944427202,0.2,1275.7118944427202,X,l,go,l,1,,0.30826287998934276,,,,,,,,,,,,,,,,,35 ,001,22,w,Psychologie 100% Bachelor,2023-01-17_14h59.50.571,00_bat_bachelor,2022.2.4,59.991477578276815,
,,,,1,0,1,0,7,0,7,0,,,,,,,,,,,,,,,7,1276.7291540707083,1276.929319791845,0.2,1276.929319791845,Y,d,go,d,1,,0.30618772948218975,,,,,,,,,,,,,,,,,35 ,001,22,w,Psychologie 100% Bachelor,2023-01-17_14h59.50.571,00_bat_bachelor,2022.2.4,59.991477578276815,
,,,,1,0,1,0,8,0,8,0,,,,,,,,,,,,,,,8,1277.9469425711723,1278.1469036863418,0.2,1278.1469036863418,X,l,go,l,1,,0.3036219125351636,,,,,,,,,,,,,,,,,35 ,001,22,w,Psychologie 100% Bachelor,2023-01-17_14h59.50.571,00_bat_bachelor,2022.2.4,59.991477578276815,
,,,,1,0,1,0,9,0,9,0,,,,,,,,,,,,,,,9,1279.1645109505334,1279.3646451565291,0.2,1279.3646451565291,Y,d,go,d,1,,0.2385038835054729,,,,,,,,,,,,,,,,,35 ,001,22,w,Psychologie 100% Bachelor,2023-01-17_14h59.50.571,00_bat_bachelor,2022.2.4,59.991477578276815,
,,,,1,0,1,0,10,0,10,0,,,,,,,,,,,,,,,10,1280.315427241003,1280.5153447198245,0.2,1280.5153447198245,X,l,go,l,1,,0.22381055729056243,,,,,,,,,,,,,,,,,35 ,001,22,w,Psychologie 100% Bachelor,2023-01-17_14h59.50.571,00_bat_bachelor,2022.2.4,59.991477578276815,
,,,,1,0,1,0,11,0,11,0,,,,,,,,,,,,,,,11,1281.449566327472,1281.6497509576875,0.2,1281.6497509576875,X,None,nogo,d,0,,0.28943719214294106,,,,,,,,,,,,,,,,,35 ,001,22,w,Psychologie 100% Bachelor,2023-01-17_14h59.50.571,00_bat_bachelor,2022.2.4,59.991477578276815,
,,,,1,0,1,0,12,0,12,0,,,,,,,,,,,,,,,12,1283.050433430093,1283.250874060177,0.2,1283.250874060177,Y,d,go,d,1,,0.5127277505525853,,,,,,,,,,,,,,,,,35 ,001,22,w,Psychologie 100% Bachelor,2023-01-17_14h59.50.571,00_bat_bachelor,2022.2.4,59.991477578276815,
,,,,1,0,1,0,13,0,13,0,,,,,,,,,,,,,,,13,1284.4683910456224,1284.6685417364642,0.2,1284.6685417364642,X,l,go,l,1,,0.2468001219094731,,,,,,,,,,,,,,,,,35 ,001,22,w,Psychologie 100% Bachelor,2023-01-17_14h59.50.571,00_bat_bachelor,2022.2.4,59.991477578276815,
,,,,1,0,1,0,14,0,14,0,,,,,,,,,,,,,,,14,1285.6193504875846,1285.8195050572103,0.2,1285.8195050572103,Y,d,go,d,1,,0.2804548934655031,,,,,,,,,,,,,,,,,35 ,001,22,w,Psychologie 100% Bachelor,2023-01-17_14h59.50.571,00_bat_bachelor,2022.2.4,59.991477578276815,
,,,,,,,,,,,,,,,,,,,,,,,,,,,,,,,,,,,,,,1286.8568049179012,None,,1286.8568049179012,1286.8568049179012,space,8.68528669718944,,,,,,,,,,35 ,001,22,w,Psychologie 100% Bachelor,2023-01-17_14h59.50.571,00_bat_bachelor,2022.2.4,59.991477578276815,
,,,,,,,,,,,,0,0,0,0,0,0,0,0,,,,,,,0,,,1,1296.560910758344,X,l,go,l,1,,0.40232295558962505,,,,,,,,,,,,,,,,,35 ,001,22,w,Psychologie 100% Bachelor,2023-01-17_14h59.50.571,00_bat_bachelor,2022.2.4,59.991477578276815,
,,,,,,,,,,,,0,0,0,0,1,0,1,0,,,,,,,1,,,1,1298.0788111133006,Y,d,go,d,1,,0.46847225686360616,,,,,,,,,,,,,,,,,35 ,001,22,w,Psychologie 100% Bachelor,2023-01-17_14h59.50.571,00_bat_bachelor,2022.2.4,59.991477578276815,
,,,,,,,,,,,,0,0,0,0,2,0,2,0,,,,,,,2,,,1,1299.6634062238008,X,l,go,l,1,,0.26027017598971725,,,,,,,,,,,,,,,,,35 ,001,22,w,Psychologie 100% Bachelor,2023-01-17_14h59.50.571,00_bat_bachelor,2022.2.4,59.991477578276815,
,,,,,,,,,,,,0,0,0,0,3,0,3,0,,,,,,,3,,,1,1301.0307369547954,X,None,nogo,l,0,,0.3329149892524583,,,,,,,,,,,,,,,,,35 ,001,22,w,Psychologie 100% Bachelor,2023-01-17_14h59.50.571,00_bat_bachelor,2022.2.4,59.991477578276815,
,,,,,,,,,,,,0,0,0,0,4,0,4,0,,,,,,,4,,,1,1302.4651590471913,Y,d,go,d,1,,0.5464668857166544,,,,,,,,,,,,,,,,,35 ,001,22,w,Psychologie 100% Bachelor,2023-01-17_14h59.50.571,00_bat_bachelor,2022.2.4,59.991477578276815,
,,,,,,,,,,,,0,0,0,0,5,0,5,0,,,,,,,5,,,1,1304.1164081859752,X,l,go,l,1,,0.3027695493219653,,,,,,,,,,,,,,,,,35 ,001,22,w,Psychologie 100% Bachelor,2023-01-17_14h59.50.571,00_bat_bachelor,2022.2.4,59.991477578276815,
,,,,,,,,,,,,0,0,0,0,6,0,6,0,,,,,,,6,,,1,1305.5345136802352,X,None,nogo,None,1,,,,,,,,,,,,,,,,,,,35 ,001,22,w,Psychologie 100% Bachelor,2023-01-17_14h59.50.571,00_bat_bachelor,2022.2.4,59.991477578276815,
,,,,,,,,,,,,0,0,0,0,7,0,7,0,,,,,,,7,,,1,1307.3358805644239,Y,d,go,d,1,,0.4117353146721143,,,,,,,,,,,,,,,,,35 ,001,22,w,Psychologie 100% Bachelor,2023-01-17_14h59.50.571,00_bat_bachelor,2022.2.4,59.991477578276815,
,,,,,,,,,,,,0,0,0,0,8,0,8,0,,,,,,,8,,,1,1308.8533896468434,X,l,go,l,1,,0.41474137382465415,,,,,,,,,,,,,,,,,35 ,001,22,w,Psychologie 100% Bachelor,2023-01-17_14h59.50.571,00_bat_bachelor,2022.2.4,59.991477578276815,
,,,,,,,,,,,,0,0,0,0,9,0,9,0,,,,,,,9,,,1,1310.371402001736,X,None,nogo,None,1,,,,,,,,,,,,,,,,,,,35 ,001,22,w,Psychologie 100% Bachelor,2023-01-17_14h59.50.571,00_bat_bachelor,2022.2.4,59.991477578276815,
,,,,,,,,,,,,0,0,0,0,10,0,10,0,,,,,,,10,,,1,1312.172873613148,Y,d,go,d,1,,0.48631661183026154,,,,,,,,,,,,,,,,,35 ,001,22,w,Psychologie 100% Bachelor,2023-01-17_14h59.50.571,00_bat_bachelor,2022.2.4,59.991477578276815,
,,,,,,,,,,,,0,0,0,0,11,0,11,0,,,,,,,11,,,1,1313.774094170134,X,l,go,l,1,,0.4042332576937042,,,,,,,,,,,,,,,,,35 ,001,22,w,Psychologie 100% Bachelor,2023-01-17_14h59.50.571,00_bat_bachelor,2022.2.4,59.991477578276815,
,,,,,,,,,,,,0,0,0,0,12,0,12,0,,,,,,,12,,,1,1315.29208470686,Y,d,go,d,1,,0.3591094007861102,,,,,,,,,,,,,,,,,35 ,001,22,w,Psychologie 100% Bachelor,2023-01-17_14h59.50.571,00_bat_bachelor,2022.2.4,59.991477578276815,
,,,,,,,,,,,,0,0,0,0,13,0,13,0,,,,,,,13,,,1,1316.7601213284215,X,l,go,l,1,,0.3791811486444203,,,,,,,,,,,,,,,,,35 ,001,22,w,Psychologie 100% Bachelor,2023-01-17_14h59.50.571,00_bat_bachelor,2022.2.4,59.991477578276815,
,,,,,,,,,,,,0,0,0,0,14,0,14,0,,,,,,,14,,,1,1318.2613482369197,Y,d,go,d,1,,0.44485384406289086,,,,,,,,,,,,,,,,,35 ,001,22,w,Psychologie 100% Bachelor,2023-01-17_14h59.50.571,00_bat_bachelor,2022.2.4,59.991477578276815,
,,,,,,,,,,,,0,0,0,0,15,0,15,0,,,,,,,15,,,1,1319.829184082817,X,l,go,l,1,,0.33409559473511763,,,,,,,,,,,,,,,,,35 ,001,22,w,Psychologie 100% Bachelor,2023-01-17_14h59.50.571,00_bat_bachelor,2022.2.4,59.991477578276815,
,,,,,,,,,,,,0,0,0,0,16,0,16,0,,,,,,,16,,,1,1321.263568841896,Y,d,go,d,1,,0.33822747152589727,,,,,,,,,,,,,,,,,35 ,001,22,w,Psychologie 100% Bachelor,2023-01-17_14h59.50.571,00_bat_bachelor,2022.2.4,59.991477578276815,
,,,,,,,,,,,,0,0,0,0,17,0,17,0,,,,,,,17,,,1,1322.7480098191445,X,l,go,l,1,,0.4392625740438234,,,,,,,,,,,,,,,,,35 ,001,22,w,Psychologie 100% Bachelor,2023-01-17_14h59.50.571,00_bat_bachelor,2022.2.4,59.991477578276815,
,,,,,,,,,,,,0,0,0,0,18,0,18,0,,,,,,,18,,,1,1324.3161579073203,Y,d,go,d,1,,0.4862104300846113,,,,,,,,,,,,,,,,,35 ,001,22,w,Psychologie 100% Bachelor,2023-01-17_14h59.50.571,00_bat_bachelor,2022.2.4,59.991477578276815,
,,,,,,,,,,,,0,0,0,0,19,0,19,0,,,,,,,19,,,1,1325.9337595472607,Y,None,nogo,l,0,,0.17961712417309172,,,,,,,,,,,,,,,,,35 ,001,22,w,Psychologie 100% Bachelor,2023-01-17_14h59.50.571,00_bat_bachelor,2022.2.4,59.991477578276815,
,,,,,,,,,,,,0,0,0,0,20,0,20,0,,,,,,,20,,,1,1327.2347916437284,X,l,go,l,1,,0.47948073636507615,,,,,,,,,,,,,,,,,35 ,001,22,w,Psychologie 100% Bachelor,2023-01-17_14h59.50.571,00_bat_bachelor,2022.2.4,59.991477578276815,
,,,,,,,,,,,,0,0,0,0,21,0,21,0,,,,,,,21,,,1,1328.8359913522436,Y,d,go,d,1,,0.3345421399717452,,,,,,,,,,,,,,,,,35 ,001,22,w,Psychologie 100% Bachelor,2023-01-17_14h59.50.571,00_bat_bachelor,2022.2.4,59.991477578276815,
,,,,,,,,,,,,0,0,0,0,22,0,22,0,,,,,,,22,,,1,1330.3038975496165,X,l,go,l,1,,0.38588466052897274,,,,,,,,,,,,,,,,,35 ,001,22,w,Psychologie 100% Bachelor,2023-01-17_14h59.50.571,00_bat_bachelor,2022.2.4,59.991477578276815,
,,,,,,,,,,,,0,0,0,0,23,0,23,0,,,,,,,23,,,1,1331.821654389496,Y,d,go,d,1,,0.4846506732428679,,,,,,,,,,,,,,,,,35 ,001,22,w,Psychologie 100% Bachelor,2023-01-17_14h59.50.571,00_bat_bachelor,2022.2.4,59.991477578276815,
,,,,,,,,,,,,0,0,0,0,24,0,24,0,,,,,,,24,,,1,1333.4398814836895,X,l,go,l,1,,0.29090870657819323,,,,,,,,,,,,,,,,,35 ,001,22,w,Psychologie 100% Bachelor,2023-01-17_14h59.50.571,00_bat_bachelor,2022.2.4,59.991477578276815,
,,,,,,,,,,,,0,0,0,0,25,0,25,0,,,,,,,25,,,1,1334.8574657660793,X,None,nogo,d,0,,0.233226795156952,,,,,,,,,,,,,,,,,35 ,001,22,w,Psychologie 100% Bachelor,2023-01-17_14h59.50.571,00_bat_bachelor,2022.2.4,59.991477578276815,
,,,,,,,,,,,,0,0,0,0,26,0,26,0,,,,,,,26,,,1,1336.2084886261873,Y,d,go,d,1,,0.449452144865063,,,,,,,,,,,,,,,,,35 ,001,22,w,Psychologie 100% Bachelor,2023-01-17_14h59.50.571,00_bat_bachelor,2022.2.4,59.991477578276815,
,,,,,,,,,,,,0,0,0,0,27,0,27,0,,,,,,,27,,,1,1337.792826282268,X,l,go,l,1,,0.43287081956805196,,,,,,,,,,,,,,,,,35 ,001,22,w,Psychologie 100% Bachelor,2023-01-17_14h59.50.571,00_bat_bachelor,2022.2.4,59.991477578276815,
,,,,,,,,,,,,0,0,0,0,28,0,28,0,,,,,,,28,,,1,1339.3445627420297,Y,d,go,d,1,,0.33825753211567644,,,,,,,,,,,,,,,,,35 ,001,22,w,Psychologie 100% Bachelor,2023-01-17_14h59.50.571,00_bat_bachelor,2022.2.4,59.991477578276815,
,,,,,,,,,,,,0,0,0,0,29,0,29,0,,,,,,,29,,,1,1340.8288543860108,Y,None,nogo,d,0,,0.3411137731454801,,,,,,,,,,,,,,,,,35 ,001,22,w,Psychologie 100% Bachelor,2023-01-17_14h59.50.571,00_bat_bachelor,2022.2.4,59.991477578276815,
,,,,,,,,,,,,0,0,0,0,30,0,30,0,,,,,,,30,,,1,1342.296522038043,X,l,go,l,1,,0.4424150573759107,,,,,,,,,,,,,,,,,35 ,001,22,w,Psychologie 100% Bachelor,2023-01-17_14h59.50.571,00_bat_bachelor,2022.2.4,59.991477578276815,
,,,,,,,,,,,,0,0,0,0,31,0,31,0,,,,,,,31,,,1,1343.8641173992073,Y,d,go,d,1,,0.3314168081560638,,,,,,,,,,,,,,,,,35 ,001,22,w,Psychologie 100% Bachelor,2023-01-17_14h59.50.571,00_bat_bachelor,2022.2.4,59.991477578276815,
,,,,,,,,,,,,0,0,0,0,32,0,32,0,,,,,,,32,,,1,1345.2985603400884,X,l,go,l,1,,0.35137122272863053,,,,,,,,,,,,,,,,,35 ,001,22,w,Psychologie 100% Bachelor,2023-01-17_14h59.50.571,00_bat_bachelor,2022.2.4,59.991477578276815,
,,,,,,,,,,,,0,0,0,0,33,0,33,0,,,,,,,33,,,1,1346.7832485899416,X,None,nogo,None,1,1347.5839643229265,,,,,,,,,,,,,,,,,,35 ,001,22,w,Psychologie 100% Bachelor,2023-01-17_14h59.50.571,00_bat_bachelor,2022.2.4,59.991477578276815,
,,,,,,,,,,,,0,0,0,0,34,0,34,0,,,,,,,34,,,1,1348.584425898458,X,None,nogo,l,0,,0.5530923370388336,,,,,,,,,,,,,,,,,35 ,001,22,w,Psychologie 100% Bachelor,2023-01-17_14h59.50.571,00_bat_bachelor,2022.2.4,59.991477578276815,
,,,,,,,,,,,,0,0,0,0,35,0,35,0,,,,,,,35,,,1,1350.2692793845927,Y,d,go,d,1,,0.3564950990257785,,,,,,,,,,,,,,,,,35 ,001,22,w,Psychologie 100% Bachelor,2023-01-17_14h59.50.571,00_bat_bachelor,2022.2.4,59.991477578276815,
,,,,,,,,,,,,0,0,0,0,36,0,36,0,,,,,,,36,,,1,1351.753684483061,X,l,go,l,1,,0.3138909984700149,,,,,,,,,,,,,,,,,35 ,001,22,w,Psychologie 100% Bachelor,2023-01-17_14h59.50.571,00_bat_bachelor,2022.2.4,59.991477578276815,
,,,,,,,,,,,,0,0,0,0,37,0,37,0,,,,,,,37,,,1,1353.1714719168522,Y,d,go,d,1,,0.33489220042247325,,,,,,,,,,,,,,,,,35 ,001,22,w,Psychologie 100% Bachelor,2023-01-17_14h59.50.571,00_bat_bachelor,2022.2.4,59.991477578276815,
,,,,,,,,,,,,0,0,0,0,38,0,38,0,,,,,,,38,,,1,1354.6225204254442,X,l,go,l,1,,0.1796583362884121,,,,,,,,,,,,,,,,,35 ,001,22,w,Psychologie 100% Bachelor,2023-01-17_14h59.50.571,00_bat_bachelor,2022.2.4,59.991477578276815,
,,,,,,,,,,,,0,0,0,0,39,0,39,0,,,,,,,39,,,1,1355.9400451199763,Y,d,go,d,1,,0.28687622369034216,,,,,,,,,,,,,,,,,35 ,001,22,w,Psychologie 100% Bachelor,2023-01-17_14h59.50.571,00_bat_bachelor,2022.2.4,59.991477578276815,
,,,,,,,,,,,,0,0,0,0,40,0,40,0,,,,,,,40,,,1,1357.3413831072103,Y,None,nogo,None,1,1358.141699325235,,,,,,,,,,,,,,,,,,35 ,001,22,w,Psychologie 100% Bachelor,2023-01-17_14h59.50.571,00_bat_bachelor,2022.2.4,59.991477578276815,
,,,,,,,,,,,,0,0,0,0,41,0,41,0,,,,,,,41,,,1,1359.142705385355,X,l,go,l,1,,0.39570768608246,,,,,,,,,,,,,,,,,35 ,001,22,w,Psychologie 100% Bachelor,2023-01-17_14h59.50.571,00_bat_bachelor,2022.2.4,59.991477578276815,
,,,,,,,,,,,,0,0,0,0,42,0,42,0,,,,,,,42,,,1,1360.660312891967,Y,d,go,d,1,,0.43152730507426895,,,,,,,,,,,,,,,,,35 ,001,22,w,Psychologie 100% Bachelor,2023-01-17_14h59.50.571,00_bat_bachelor,2022.2.4,59.991477578276815,
,,,,,,,,,,,,0,0,0,0,43,0,43,0,,,,,,,43,,,1,1362.1947310570977,X,l,go,l,1,,0.22359673921891954,,,,,,,,,,,,,,,,,35 ,001,22,w,Psychologie 100% Bachelor,2023-01-17_14h59.50.571,00_bat_bachelor,2022.2.4,59.991477578276815,
,,,,,,,,,,,,0,0,0,0,44,0,44,0,,,,,,,44,,,1,1363.5460933109862,Y,d,go,d,1,,0.1843962733692024,,,,,,,,,,,,,,,,,35 ,001,22,w,Psychologie 100% Bachelor,2023-01-17_14h59.50.571,00_bat_bachelor,2022.2.4,59.991477578276815,
,,,,,,,,,,,,0,0,0,0,45,0,45,0,,,,,,,45,,,1,1364.8631670966424,X,l,go,l,1,,0.4189343414909672,,,,,,,,,,,,,,,,,35 ,001,22,w,Psychologie 100% Bachelor,2023-01-17_14h59.50.571,00_bat_bachelor,2022.2.4,59.991477578276815,
,,,,,,,,,,,,0,0,0,0,46,0,46,0,,,,,,,46,,,1,1366.4144167687627,Y,d,go,d,1,,0.37226139441190753,,,,,,,,,,,,,,,,,35 ,001,22,w,Psychologie 100% Bachelor,2023-01-17_14h59.50.571,00_bat_bachelor,2022.2.4,59.991477578276815,
,,,,,,,,,,,,0,0,0,0,47,0,47,0,,,,,,,47,,,1,1367.8987995642092,X,l,go,l,1,,0.2963937948370585,,,,,,,,,,,,,,,,,35 ,001,22,w,Psychologie 100% Bachelor,2023-01-17_14h59.50.571,00_bat_bachelor,2022.2.4,59.991477578276815,
,,,,,,,,,,,,0,0,0,0,48,0,48,0,,,,,,,48,,,1,1369.299630885027,Y,d,go,d,1,,0.19086317933397368,,,,,,,,,,,,,,,,,35 ,001,22,w,Psychologie 100% Bachelor,2023-01-17_14h59.50.571,00_bat_bachelor,2022.2.4,59.991477578276815,
,,,,,,,,,,,,0,0,0,0,49,0,49,0,,,,,,,49,,,1,1370.6006600724068,X,l,go,l,1,,0.21799625708081294,,,,,,,,,,,,,,,,,35 ,001,22,w,Psychologie 100% Bachelor,2023-01-17_14h59.50.571,00_bat_bachelor,2022.2.4,59.991477578276815,
,,,,,,,,,,,,0,0,0,0,50,0,50,0,,,,,,,50,,,1,1371.935037122399,Y,d,go,d,1,,0.34004322822147515,,,,,,,,,,,,,,,,,35 ,001,22,w,Psychologie 100% Bachelor,2023-01-17_14h59.50.571,00_bat_bachelor,2022.2.4,59.991477578276815,
,,,,,,,,,,,,0,0,0,0,51,0,51,0,,,,,,,51,,,1,1373.3860332673794,X,l,go,l,1,,0.23266728027374484,,,,,,,,,,,,,,,,,35 ,001,22,w,Psychologie 100% Bachelor,2023-01-17_14h59.50.571,00_bat_bachelor,2022.2.4,59.991477578276815,
,,,,,,,,,,,,0,0,0,0,52,0,52,0,,,,,,,52,,,1,1374.7203211052984,X,None,nogo,d,0,,0.17834391267388128,,,,,,,,,,,,,,,,,35 ,001,22,w,Psychologie 100% Bachelor,2023-01-17_14h59.50.571,00_bat_bachelor,2022.2.4,59.991477578276815,
,,,,,,,,,,,,0,0,0,0,53,0,53,0,,,,,,,53,,,1,1376.0045852098992,Y,d,go,d,1,,0.39876610884675756,,,,,,,,,,,,,,,,,35 ,001,22,w,Psychologie 100% Bachelor,2023-01-17_14h59.50.571,00_bat_bachelor,2022.2.4,59.991477578276815,
,,,,,,,,,,,,0,0,0,0,54,0,54,0,,,,,,,54,,,1,1377.5059241183335,X,l,go,l,1,,0.3045814272336429,,,,,,,,,,,,,,,,,35 ,001,22,w,Psychologie 100% Bachelor,2023-01-17_14h59.50.571,00_bat_bachelor,2022.2.4,59.991477578276815,
,,,,,,,,,,,,0,0,0,0,55,0,55,0,,,,,,,55,,,1,1378.9235704612947,Y,d,go,d,1,,0.2963031282124575,,,,,,,,,,,,,,,,,35 ,001,22,w,Psychologie 100% Bachelor,2023-01-17_14h59.50.571,00_bat_bachelor,2022.2.4,59.991477578276815,
,,,,,,,,,,,,0,0,0,0,56,0,56,0,,,,,,,56,,,1,1380.3247038425616,X,l,go,l,1,,0.2544762393954443,,,,,,,,,,,,,,,,,35 ,001,22,w,Psychologie 100% Bachelor,2023-01-17_14h59.50.571,00_bat_bachelor,2022.2.4,59.991477578276815,
,,,,,,,,,,,,0,0,0,0,57,0,57,0,,,,,,,57,,,1,1381.6921858462156,Y,d,go,d,1,,0.27979792408586945,,,,,,,,,,,,,,,,,35 ,001,22,w,Psychologie 100% Bachelor,2023-01-17_14h59.50.571,00_bat_bachelor,2022.2.4,59.991477578276815,
,,,,,,,,,,,,0,0,0,0,58,0,58,0,,,,,,,58,,,1,1383.076955599041,Y,None,nogo,l,0,,0.2697557471401524,,,,,,,,,,,,,,,,,35 ,001,22,w,Psychologie 100% Bachelor,2023-01-17_14h59.50.571,00_bat_bachelor,2022.2.4,59.991477578276815,
,,,,,,,,,,,,0,0,0,0,59,0,59,0,,,,,,,59,,,1,1384.461339412679,X,l,go,l,1,,0.5497080962522887,,,,,,,,,,,,,,,,,35 ,001,22,w,Psychologie 100% Bachelor,2023-01-17_14h59.50.571,00_bat_bachelor,2022.2.4,59.991477578276815,
,,,,,,,,,,,,0,0,0,0,60,0,60,0,,,,,,,60,,,1,1386.113026854291,Y,d,go,d,1,,0.38444223698752467,,,,,,,,,,,,,,,,,35 ,001,22,w,Psychologie 100% Bachelor,2023-01-17_14h59.50.571,00_bat_bachelor,2022.2.4,59.991477578276815,
,,,,,,,,,,,,0,0,0,0,61,0,61,0,,,,,,,61,,,1,1387.6308966638026,X,l,go,l,1,,0.4996518781117629,,,,,,,,,,,,,,,,,35 ,001,22,w,Psychologie 100% Bachelor,2023-01-17_14h59.50.571,00_bat_bachelor,2022.2.4,59.991477578276815,
,,,,,,,,,,,,0,0,0,0,62,0,62,0,,,,,,,62,,,1,1389.2318490996986,X,None,nogo,d,0,,0.16167822378338315,,,,,,,,,,,,,,,,,35 ,001,22,w,Psychologie 100% Bachelor,2023-01-17_14h59.50.571,00_bat_bachelor,2022.2.4,59.991477578276815,
,,,,,,,,,,,,0,0,0,0,63,0,63,0,,,,,,,63,,,1,1390.5163852041733,Y,d,go,None,0,1391.3168396039546,,,,,,,,,,,,,,,,,,35 ,001,22,w,Psychologie 100% Bachelor,2023-01-17_14h59.50.571,00_bat_bachelor,2022.2.4,59.991477578276815,
,,,,,,,,,,,,0,0,0,0,64,0,64,0,,,,,,,64,,,1,1392.3177632398729,X,l,go,l,1,,0.6456813830591273,,,,,,,,,,,,,,,,,35 ,001,22,w,Psychologie 100% Bachelor,2023-01-17_14h59.50.571,00_bat_bachelor,2022.2.4,59.991477578276815,
,,,,,,,,,,,,0,0,0,0,65,0,65,0,,,,,,,65,,,1,1394.06926929974,Y,d,go,d,1,,0.3974822306772694,,,,,,,,,,,,,,,,,35 ,001,22,w,Psychologie 100% Bachelor,2023-01-17_14h59.50.571,00_bat_bachelor,2022.2.4,59.991477578276815,
,,,,,,,,,,,,0,0,0,0,66,0,66,0,,,,,,,66,,,1,1395.5868685639434,X,l,go,l,1,,0.32045632861263584,,,,,,,,,,,,,,,,,35 ,001,22,w,Psychologie 100% Bachelor,2023-01-17_14h59.50.571,00_bat_bachelor,2022.2.4,59.991477578276815,
,,,,,,,,,,,,0,0,0,0,67,0,67,0,,,,,,,67,,,1,1397.0213638684218,X,None,nogo,None,1,1397.8217886924685,,,,,,,,,,,,,,,,,,35 ,001,22,w,Psychologie 100% Bachelor,2023-01-17_14h59.50.571,00_bat_bachelor,2022.2.4,59.991477578276815,
,,,,,,,,,,,,0,0,0,0,68,0,68,0,,,,,,,68,,,1,1398.822777782887,Y,d,go,d,1,,0.3160592398344306,,,,,,,,,,,,,,,,,35 ,001,22,w,Psychologie 100% Bachelor,2023-01-17_14h59.50.571,00_bat_bachelor,2022.2.4,59.991477578276815,
,,,,,,,,,,,,0,0,0,0,69,0,69,0,,,,,,,69,,,1,1400.2570956329146,X,l,go,l,1,,0.4016761680250056,,,,,,,,,,,,,,,,,35 ,001,22,w,Psychologie 100% Bachelor,2023-01-17_14h59.50.571,00_bat_bachelor,2022.2.4,59.991477578276815,
,,,,,,,,,,,,0,0,0,0,70,0,70,0,,,,,,,70,,,1,1401.7749542909296,Y,d,go,d,1,,0.340306015976239,,,,,,,,,,,,,,,,,35 ,001,22,w,Psychologie 100% Bachelor,2023-01-17_14h59.50.571,00_bat_bachelor,2022.2.4,59.991477578276815,
,,,,,,,,,,,,0,0,0,0,71,0,71,0,,,,,,,71,,,1,1403.2259034056187,X,l,go,l,1,,0.26505465850641485,,,,,,,,,,,,,,,,,35 ,001,22,w,Psychologie 100% Bachelor,2023-01-17_14h59.50.571,00_bat_bachelor,2022.2.4,59.991477578276815,
,,,,,,,,,,,,0,0,0,0,72,0,72,0,,,,,,,72,,,1,1404.5937824999855,Y,d,go,l,0,,0.35271813115105033,,,,,,,,,,,,,,,,,35 ,001,22,w,Psychologie 100% Bachelor,2023-01-17_14h59.50.571,00_bat_bachelor,2022.2.4,59.991477578276815,
,,,,,,,,,,,,0,0,0,0,73,0,73,0,,,,,,,73,,,1,1406.061608212549,X,l,go,l,1,,0.3244829933391884,,,,,,,,,,,,,,,,,35 ,001,22,w,Psychologie 100% Bachelor,2023-01-17_14h59.50.571,00_bat_bachelor,2022.2.4,59.991477578276815,
,,,,,,,,,,,,0,0,0,0,74,0,74,0,,,,,,,74,,,1,1407.5126790241484,Y,d,go,d,1,,0.394439323048573,,,,,,,,,,,,,,,,,35 ,001,22,w,Psychologie 100% Bachelor,2023-01-17_14h59.50.571,00_bat_bachelor,2022.2.4,59.991477578276815,
,,,,,,,,,,,,0,0,0,0,75,0,75,0,,,,,,,75,,,1,1409.0304824094637,Y,None,nogo,d,0,,0.4922763665235834,,,,,,,,,,,,,,,,,35 ,001,22,w,Psychologie 100% Bachelor,2023-01-17_14h59.50.571,00_bat_bachelor,2022.2.4,59.991477578276815,
,,,,,,,,,,,,0,0,0,0,76,0,76,0,,,,,,,76,,,1,1410.6481848978437,X,l,go,l,1,,0.4098201640736079,,,,,,,,,,,,,,,,,35 ,001,22,w,Psychologie 100% Bachelor,2023-01-17_14h59.50.571,00_bat_bachelor,2022.2.4,59.991477578276815,
,,,,,,,,,,,,0,0,0,0,77,0,77,0,,,,,,,77,,,1,1412.1827640325937,Y,d,go,d,1,,0.3953023529466009,,,,,,,,,,,,,,,,,35 ,001,22,w,Psychologie 100% Bachelor,2023-01-17_14h59.50.571,00_bat_bachelor,2022.2.4,59.991477578276815,
,,,,,,,,,,,,0,0,0,0,78,0,78,0,,,,,,,78,,,1,1413.7006920239073,X,l,go,l,1,,0.3828068438451737,,,,,,,,,,,,,,,,,35 ,001,22,w,Psychologie 100% Bachelor,2023-01-17_14h59.50.571,00_bat_bachelor,2022.2.4,59.991477578276815,
,,,,,,,,,,,,0,0,0,0,79,0,79,0,,,,,,,79,,,1,1415.1852066980791,Y,d,go,d,1,,0.3846594490169082,,,,,,,,,,,,,,,,,35 ,001,22,w,Psychologie 100% Bachelor,2023-01-17_14h59.50.571,00_bat_bachelor,2022.2.4,59.991477578276815,
,,,,,,,,,,,,0,0,0,0,80,0,80,0,,,,,,,80,,,1,1416.7030149318743,Y,None,nogo,None,1,1417.5034722407436,,,,,,,,,,,,,,,,,,35 ,001,22,w,Psychologie 100% Bachelor,2023-01-17_14h59.50.571,00_bat_bachelor,2022.2.4,59.991477578276815,
,,,,,,,,,,,,0,0,0,0,81,0,81,0,,,,,,,81,,,1,1418.5044210887572,X,l,go,l,1,,0.2830565891781589,,,,,,,,,,,,,,,,,35 ,001,22,w,Psychologie 100% Bachelor,2023-01-17_14h59.50.571,00_bat_bachelor,2022.2.4,59.991477578276815,
,,,,,,,,,,,,0,0,0,0,82,0,82,0,,,,,,,82,,,1,1419.8885775085655,Y,d,go,d,1,,0.2584127223381074,,,,,,,,,,,,,,,,,35 ,001,22,w,Psychologie 100% Bachelor,2023-01-17_14h59.50.571,00_bat_bachelor,2022.2.4,59.991477578276815,
,,,,,,,,,,,,0,0,0,0,83,0,83,0,,,,,,,83,,,1,1421.2563189060165,Y,None,nogo,l,0,,0.23509491546428762,,,,,,,,,,,,,,,,,35 ,001,22,w,Psychologie 100% Bachelor,2023-01-17_14h59.50.571,00_bat_bachelor,2022.2.4,59.991477578276815,
,,,,,,,,,,,,0,0,0,0,84,0,84,0,,,,,,,84,,,1,1422.607544917555,X,l,go,l,1,,0.3554725540743675,,,,,,,,,,,,,,,,,35 ,001,22,w,Psychologie 100% Bachelor,2023-01-17_14h59.50.571,00_bat_bachelor,2022.2.4,59.991477578276815,
,,,,,,,,,,,,0,0,0,0,85,0,85,0,,,,,,,85,,,1,1424.0753342664975,Y,d,go,d,1,,0.3588786130276276,,,,,,,,,,,,,,,,,35 ,001,22,w,Psychologie 100% Bachelor,2023-01-17_14h59.50.571,00_bat_bachelor,2022.2.4,59.991477578276815,
,,,,,,,,,,,,0,0,0,0,86,0,86,0,,,,,,,86,,,1,1425.5597999710008,X,l,go,l,1,,0.33016396027232986,,,,,,,,,,,,,,,,,35 ,001,22,w,Psychologie 100% Bachelor,2023-01-17_14h59.50.571,00_bat_bachelor,2022.2.4,59.991477578276815,
,,,,,,,,,,,,0,0,0,0,87,0,87,0,,,,,,,87,,,1,1427.0106812069425,Y,d,go,d,1,,0.4315985777648166,,,,,,,,,,,,,,,,,35 ,001,22,w,Psychologie 100% Bachelor,2023-01-17_14h59.50.571,00_bat_bachelor,2022.2.4,59.991477578276815,
,,,,,,,,,,,,0,0,0,0,88,0,88,0,,,,,,,88,,,1,1428.545153675077,X,l,go,l,1,,0.27375671490153763,,,,,,,,,,,,,,,,,35 ,001,22,w,Psychologie 100% Bachelor,2023-01-17_14h59.50.571,00_bat_bachelor,2022.2.4,59.991477578276815,
,,,,,,,,,,,,0,0,0,0,89,0,89,0,,,,,,,89,,,1,1429.929536034164,X,None,nogo,None,1,1430.730334676191,,,,,,,,,,,,,,,,,,35 ,001,22,w,Psychologie 100% Bachelor,2023-01-17_14h59.50.571,00_bat_bachelor,2022.2.4,59.991477578276815,
,,,,,,,,,,,,0,0,0,0,90,0,90,0,,,,,,,90,,,1,1431.7311385545909,X,None,nogo,None,1,1432.5317616815591,,,,,,,,,,,,,,,,,,35 ,001,22,w,Psychologie 100% Bachelor,2023-01-17_14h59.50.571,00_bat_bachelor,2022.2.4,59.991477578276815,
,,,,,,,,,,,,0,0,0,0,91,0,91,0,,,,,,,91,,,1,1433.5325209539296,Y,d,go,d,1,,0.5819582624390023,,,,,,,,,,,,,,,,,35 ,001,22,w,Psychologie 100% Bachelor,2023-01-17_14h59.50.571,00_bat_bachelor,2022.2.4,59.991477578276815,
,,,,,,,,,,,,0,0,0,0,92,0,92,0,,,,,,,92,,,1,1435.233376856544,X,l,go,l,1,,0.3065004566014977,,,,,,,,,,,,,,,,,35 ,001,22,w,Psychologie 100% Bachelor,2023-01-17_14h59.50.571,00_bat_bachelor,2022.2.4,59.991477578276815,
,,,,,,,,,,,,0,0,0,0,93,0,93,0,,,,,,,93,,,1,1436.6509776237654,Y,d,go,d,1,,0.39118114281154703,,,,,,,,,,,,,,,,,35 ,001,22,w,Psychologie 100% Bachelor,2023-01-17_14h59.50.571,00_bat_bachelor,2022.2.4,59.991477578276815,
,,,,,,,,,,,,0,0,0,0,94,0,94,0,,,,,,,94,,,1,1438.1522151989193,Y,None,nogo,None,1,,,,,,,,,,,,,,,,,,,35 ,001,22,w,Psychologie 100% Bachelor,2023-01-17_14h59.50.571,00_bat_bachelor,2022.2.4,59.991477578276815,
,,,,,,,,,,,,0,0,0,0,95,0,95,0,,,,,,,95,,,1,1439.9535258407122,X,l,go,l,1,,0.593951953589567,,,,,,,,,,,,,,,,,35 ,001,22,w,Psychologie 100% Bachelor,2023-01-17_14h59.50.571,00_bat_bachelor,2022.2.4,59.991477578276815,
,,,,,,,,,,,,0,0,0,0,96,0,96,0,,,,,,,96,,,1,1441.6545553189935,Y,d,go,d,1,,0.4125770112295868,,,,,,,,,,,,,,,,,35 ,001,22,w,Psychologie 100% Bachelor,2023-01-17_14h59.50.571,00_bat_bachelor,2022.2.4,59.991477578276815,
,,,,,,,,,,,,0,0,0,0,97,0,97,0,,,,,,,97,,,1,1443.1726389465912,X,l,go,l,1,,0.28655816323589534,,,,,,,,,,,,,,,,,35 ,001,22,w,Psychologie 100% Bachelor,2023-01-17_14h59.50.571,00_bat_bachelor,2022.2.4,59.991477578276815,
,,,,,,,,,,,,0,0,0,0,98,0,98,0,,,,,,,98,,,1,1444.5737665096822,X,None,nogo,l,0,,0.4377353020681767,,,,,,,,,,,,,,,,,35 ,001,22,w,Psychologie 100% Bachelor,2023-01-17_14h59.50.571,00_bat_bachelor,2022.2.4,59.991477578276815,
,,,,,,,,,,,,0,0,0,0,99,0,99,0,,,,,,,99,,,1,1446.1249914545479,Y,d,go,d,1,,0.4380233019182924,,,,,,,,,,,,,,,,,35 ,001,22,w,Psychologie 100% Bachelor,2023-01-17_14h59.50.571,00_bat_bachelor,2022.2.4,59.991477578276815,
,,,,,,,,,,,,0,0,0,0,100,0,100,0,,,,,,,100,,,1,1447.6760229449574,X,l,go,l,1,,0.5190685959678376,,,,,,,,,,,,,,,,,35 ,001,22,w,Psychologie 100% Bachelor,2023-01-17_14h59.50.571,00_bat_bachelor,2022.2.4,59.991477578276815,
,,,,,,,,,,,,0,0,0,0,101,0,101,0,,,,,,,101,,,1,1449.3103809404129,Y,d,go,d,1,,0.37323109091084916,,,,,,,,,,,,,,,,,35 ,001,22,w,Psychologie 100% Bachelor,2023-01-17_14h59.50.571,00_bat_bachelor,2022.2.4,59.991477578276815,
,,,,,,,,,,,,0,0,0,0,102,0,102,0,,,,,,,102,,,1,1450.7948422812915,Y,None,nogo,None,1,,,,,,,,,,,,,,,,,,,35 ,001,22,w,Psychologie 100% Bachelor,2023-01-17_14h59.50.571,00_bat_bachelor,2022.2.4,59.991477578276815,
,,,,,,,,,,,,0,0,0,0,103,0,103,0,,,,,,,103,,,1,1452.5965184986562,X,l,go,l,1,,0.5909696520102443,,,,,,,,,,,,,,,,,35 ,001,22,w,Psychologie 100% Bachelor,2023-01-17_14h59.50.571,00_bat_bachelor,2022.2.4,59.991477578276815,
,,,,,,,,,,,,0,0,0,0,104,0,104,0,,,,,,,104,,,1,1454.2977516132087,Y,d,go,d,1,,0.45787735290650744,,,,,,,,,,,,,,,,,35 ,001,22,w,Psychologie 100% Bachelor,2023-01-17_14h59.50.571,00_bat_bachelor,2022.2.4,59.991477578276815,
,,,,,,,,,,,,0,0,0,0,105,0,105,0,,,,,,,105,,,1,1455.8656407924136,Y,None,nogo,None,1,,,,,,,,,,,,,,,,,,,35 ,001,22,w,Psychologie 100% Bachelor,2023-01-17_14h59.50.571,00_bat_bachelor,2022.2.4,59.991477578276815,
,,,,,,,,,,,,0,0,0,0,106,0,106,0,,,,,,,106,,,1,1457.6670018584118,X,l,go,l,1,,0.3679874570952961,,,,,,,,,,,,,,,,,35 ,001,22,w,Psychologie 100% Bachelor,2023-01-17_14h59.50.571,00_bat_bachelor,2022.2.4,59.991477578276815,
,,,,,,,,,,,,0,0,0,0,107,0,107,0,,,,,,,107,,,1,1459.1515722901386,Y,d,go,d,1,,0.5156038703717059,,,,,,,,,,,,,,,,,35 ,001,22,w,Psychologie 100% Bachelor,2023-01-17_14h59.50.571,00_bat_bachelor,2022.2.4,59.991477578276815,
,,,,,,,,,,,,0,0,0,0,108,0,108,0,,,,,,,108,,,1,1460.7695045965957,Y,None,nogo,None,1,1461.5700486933056,,,,,,,,,,,,,,,,,,35 ,001,22,w,Psychologie 100% Bachelor,2023-01-17_14h59.50.571,00_bat_bachelor,2022.2.4,59.991477578276815,
,,,,,,,,,,,,0,0,0,0,109,0,109,0,,,,,,,109,,,1,1462.5707842081029,X,l,go,l,1,,0.39332174783339724,,,,,,,,,,,,,,,,,35 ,001,22,w,Psychologie 100% Bachelor,2023-01-17_14h59.50.571,00_bat_bachelor,2022.2.4,59.991477578276815,
,,,,,,,,,,,,0,0,0,0,110,0,110,0,,,,,,,110,,,1,1464.071974268125,Y,d,go,d,1,,0.3799413906963309,,,,,,,,,,,,,,,,,35 ,001,22,w,Psychologie 100% Bachelor,2023-01-17_14h59.50.571,00_bat_bachelor,2022.2.4,59.991477578276815,
,,,,,,,,,,,,0,0,0,0,111,0,111,0,,,,,,,111,,,1,1465.5561863969924,X,l,go,l,1,,0.3343065037333872,,,,,,,,,,,,,,,,,35 ,001,22,w,Psychologie 100% Bachelor,2023-01-17_14h59.50.571,00_bat_bachelor,2022.2.4,59.991477578276815,
,,,,,,,,,,,,0,0,0,0,112,0,112,0,,,,,,,112,,,1,1467.0074298145773,Y,d,go,d,1,,0.37198212182556745,,,,,,,,,,,,,,,,,35 ,001,22,w,Psychologie 100% Bachelor,2023-01-17_14h59.50.571,00_bat_bachelor,2022.2.4,59.991477578276815,
,,,,,,,,,,,,0,0,0,0,113,0,113,0,,,,,,,113,,,1,1468.4916598828277,Y,None,nogo,None,1,,,,,,,,,,,,,,,,,,,35 ,001,22,w,Psychologie 100% Bachelor,2023-01-17_14h59.50.571,00_bat_bachelor,2022.2.4,59.991477578276815,
,,,,,,,,,,,,0,0,0,0,114,0,114,0,,,,,,,114,,,1,1470.2933438577747,X,l,go,l,1,,0.6218990915513132,,,,,,,,,,,,,,,,,35 ,001,22,w,Psychologie 100% Bachelor,2023-01-17_14h59.50.571,00_bat_bachelor,2022.2.4,59.991477578276815,
,,,,,,,,,,,,0,0,0,0,115,0,115,0,,,,,,,115,,,1,1472.0279398652347,Y,d,go,d,1,,0.455100142135052,,,,,,,,,,,,,,,,,35 ,001,22,w,Psychologie 100% Bachelor,2023-01-17_14h59.50.571,00_bat_bachelor,2022.2.4,59.991477578276815,
,,,,,,,,,,,,0,0,0,0,116,0,116,0,,,,,,,116,,,1,1473.5955357112543,X,l,go,l,1,,0.359656794462353,,,,,,,,,,,,,,,,,35 ,001,22,w,Psychologie 100% Bachelor,2023-01-17_14h59.50.571,00_bat_bachelor,2022.2.4,59.991477578276815,
,,,,,,,,,,,,0,0,0,0,117,0,117,0,,,,,,,117,,,1,1475.0636339085322,Y,d,go,d,1,,0.2836388919240562,,,,,,,,,,,,,,,,,35 ,001,22,w,Psychologie 100% Bachelor,2023-01-17_14h59.50.571,00_bat_bachelor,2022.2.4,59.991477578276815,
,,,,,,,,,,,,0,0,0,0,118,0,118,0,,,,,,,118,,,1,1476.4478048737801,Y,None,nogo,d,0,,0.6434278083906975,,,,,,,,,,,,,,,,,35 ,001,22,w,Psychologie 100% Bachelor,2023-01-17_14h59.50.571,00_bat_bachelor,2022.2.4,59.991477578276815,
,,,,,,,,,,,,0,0,0,0,119,0,119,0,,,,,,,119,,,1,1478.1993613578816,X,l,go,l,1,,0.4599331094796071,,,,,,,,,,,,,,,,,35 ,001,22,w,Psychologie 100% Bachelor,2023-01-17_14h59.50.571,00_bat_bachelor,2022.2.4,59.991477578276815,
,,,,,,,,,,,,0,0,0,0,120,0,120,0,,,,,,,120,,,1,1479.7672141734656,Y,d,go,d,1,,0.3156582703377353,,,,,,,,,,,,,,,,,35 ,001,22,w,Psychologie 100% Bachelor,2023-01-17_14h59.50.571,00_bat_bachelor,2022.2.4,59.991477578276815,
,,,,,,,,,,,,0,0,0,0,121,0,121,0,,,,,,,121,,,1,1481.184651546835,X,l,go,l,1,,0.2422823059168877,,,,,,,,,,,,,,,,,35 ,001,22,w,Psychologie 100% Bachelor,2023-01-17_14h59.50.571,00_bat_bachelor,2022.2.4,59.991477578276815,
,,,,,,,,,,,,0,0,0,0,122,0,122,0,,,,,,,122,,,1,1482.5359493159049,X,None,nogo,None,1,,,,,,,,,,,,,,,,,,,35 ,001,22,w,Psychologie 100% Bachelor,2023-01-17_14h59.50.571,00_bat_bachelor,2022.2.4,59.991477578276815,
,,,,,,,,,,,,0,0,0,0,123,0,123,0,,,,,,,123,,,1,1484.3372585031466,Y,d,go,d,1,,0.6568236806779169,,,,,,,,,,,,,,,,,35 ,001,22,w,Psychologie 100% Bachelor,2023-01-17_14h59.50.571,00_bat_bachelor,2022.2.4,59.991477578276815,
,,,,,,,,,,,,0,0,0,0,124,0,124,0,,,,,,,124,,,1,1486.1060261304083,X,l,go,l,1,,0.5681803297193255,,,,,,,,,,,,,,,,,35 ,001,22,w,Psychologie 100% Bachelor,2023-01-17_14h59.50.571,00_bat_bachelor,2022.2.4,59.991477578276815,
,,,,,,,,,,,,0,0,0,0,125,0,125,0,,,,,,,125,,,1,1487.8071933056053,Y,d,go,d,1,,0.3085663949896116,,,,,,,,,,,,,,,,,35 ,001,22,w,Psychologie 100% Bachelor,2023-01-17_14h59.50.571,00_bat_bachelor,2022.2.4,59.991477578276815,
,,,,,,,,,,,,0,0,0,0,126,0,126,0,,,,,,,126,,,1,1489.2247746788926,Y,None,nogo,None,1,1490.0253934422362,,,,,,,,,,,,,,,,,,35 ,001,22,w,Psychologie 100% Bachelor,2023-01-17_14h59.50.571,00_bat_bachelor,2022.2.4,59.991477578276815,
,,,,,,,,,,,,0,0,0,0,127,0,127,0,,,,,,,127,,,1,1491.0260091995005,X,l,go,l,1,,0.4327854862785898,,,,,,,,,,,,,,,,,35 ,001,22,w,Psychologie 100% Bachelor,2023-01-17_14h59.50.571,00_bat_bachelor,2022.2.4,59.991477578276815,
,,,,,,,,,,,,0,0,0,0,128,0,128,0,,,,,,,128,,,1,1492.5606731826992,Y,d,go,d,1,,0.3550783724349458,,,,,,,,,,,,,,,,,35 ,001,22,w,Psychologie 100% Bachelor,2023-01-17_14h59.50.571,00_bat_bachelor,2022.2.4,59.991477578276815,
,,,,,,,,,,,,0,0,0,0,129,0,129,0,,,,,,,129,,,1,1494.0285415619146,X,l,go,l,1,,0.40724222593416926,,,,,,,,,,,,,,,,,35 ,001,22,w,Psychologie 100% Bachelor,2023-01-17_14h59.50.571,00_bat_bachelor,2022.2.4,59.991477578276815,
,,,,,,,,,,,,0,0,0,0,130,0,130,0,,,,,,,130,,,1,1495.5465684622613,Y,d,go,d,1,,0.4082143466803245,,,,,,,,,,,,,,,,,35 ,001,22,w,Psychologie 100% Bachelor,2023-01-17_14h59.50.571,00_bat_bachelor,2022.2.4,59.991477578276815,
,,,,,,,,,,,,0,0,0,0,131,0,131,0,,,,,,,131,,,1,1497.081069536449,X,l,go,l,1,,0.3456490436801687,,,,,,,,,,,,,,,,,35 ,001,22,w,Psychologie 100% Bachelor,2023-01-17_14h59.50.571,00_bat_bachelor,2022.2.4,59.991477578276815,
,,,,,,,,,,,,0,0,0,0,132,0,132,0,,,,,,,132,,,1,1498.5321704086382,Y,d,go,d,1,,0.4943088503932813,,,,,,,,,,,,,,,,,35 ,001,22,w,Psychologie 100% Bachelor,2023-01-17_14h59.50.571,00_bat_bachelor,2022.2.4,59.991477578276815,
,,,,,,,,,,,,0,0,0,0,133,0,133,0,,,,,,,133,,,1,1500.1500561696594,Y,None,nogo,None,1,1500.9504417209973,,,,,,,,,,,,,,,,,,35 ,001,22,w,Psychologie 100% Bachelor,2023-01-17_14h59.50.571,00_bat_bachelor,2022.2.4,59.991477578276815,
,,,,,,,,,,,,0,0,0,0,134,0,134,0,,,,,,,134,,,1,1501.951455538685,X,l,go,l,1,,0.4669304394192295,,,,,,,,,,,,,,,,,35 ,001,22,w,Psychologie 100% Bachelor,2023-01-17_14h59.50.571,00_bat_bachelor,2022.2.4,59.991477578276815,
,,,,,,,,,,,,0,0,0,0,135,0,135,0,,,,,,,135,,,1,1503.535687497846,Y,d,go,d,1,,0.32398941781139,,,,,,,,,,,,,,,,,35 ,001,22,w,Psychologie 100% Bachelor,2023-01-17_14h59.50.571,00_bat_bachelor,2022.2.4,59.991477578276815,
,,,,,,,,,,,,0,0,0,0,136,0,136,0,,,,,,,136,,,1,1504.970083408436,X,l,go,l,1,,0.4728213456692174,,,,,,,,,,,,,,,,,35 ,001,22,w,Psychologie 100% Bachelor,2023-01-17_14h59.50.571,00_bat_bachelor,2022.2.4,59.991477578276815,
,,,,,,,,,,,,0,0,0,0,137,0,137,0,,,,,,,137,,,1,1506.5546062765497,X,None,nogo,None,1,1507.3553409186134,,,,,,,,,,,,,,,,,,35 ,001,22,w,Psychologie 100% Bachelor,2023-01-17_14h59.50.571,00_bat_bachelor,2022.2.4,59.991477578276815,
,,,,,,,,,,,,0,0,0,0,138,0,138,0,,,,,,,138,,,1,1508.3553651610273,Y,d,go,d,1,,0.39920004802115727,,,,,,,,,,,,,,,,,35 ,001,22,w,Psychologie 100% Bachelor,2023-01-17_14h59.50.571,00_bat_bachelor,2022.2.4,59.991477578276815,
,,,,,,,,,,,,0,0,0,0,139,0,139,0,,,,,,,139,,,1,1509.8567700088315,X,l,go,l,1,,0.5465042190335225,,,,,,,,,,,,,,,,,35 ,001,22,w,Psychologie 100% Bachelor,2023-01-17_14h59.50.571,00_bat_bachelor,2022.2.4,59.991477578276815,
,,,,,,,,,,,,0,0,0,0,140,0,140,0,,,,,,,140,,,1,1511.5079003598075,X,None,nogo,None,1,,,,,,,,,,,,,,,,,,,35 ,001,22,w,Psychologie 100% Bachelor,2023-01-17_14h59.50.571,00_bat_bachelor,2022.2.4,59.991477578276815,
,,,,,,,,,,,,0,0,0,0,141,0,141,0,,,,,,,141,,,1,1513.3094495469268,Y,d,go,d,1,,0.4531631733698305,,,,,,,,,,,,,,,,,35 ,001,22,w,Psychologie 100% Bachelor,2023-01-17_14h59.50.571,00_bat_bachelor,2022.2.4,59.991477578276815,
,,,,,,,,,,,,0,0,0,0,142,0,142,0,,,,,,,142,,,1,1514.8773387261317,X,l,go,l,1,,0.3899680524918949,,,,,,,,,,,,,,,,,35 ,001,22,w,Psychologie 100% Bachelor,2023-01-17_14h59.50.571,00_bat_bachelor,2022.2.4,59.991477578276815,
,,,,,,,,,,,,0,0,0,0,143,0,143,0,,,,,,,143,,,1,1516.3784483013587,Y,d,go,d,1,,0.36023085478518624,,,,,,,,,,,,,,,,,35 ,001,22,w,Psychologie 100% Bachelor,2023-01-17_14h59.50.571,00_bat_bachelor,2022.2.4,59.991477578276815,
,,,,,,,,,,,,0,0,0,0,144,0,144,0,,,,,,,144,,,1,1517.8459195898467,X,l,go,l,1,,0.38110260224493686,,,,,,,,,,,,,,,,,35 ,001,22,w,Psychologie 100% Bachelor,2023-01-17_14h59.50.571,00_bat_bachelor,2022.2.4,59.991477578276815,
,,,,,,,,,,,,0,0,0,0,145,0,145,0,,,,,,,145,,,1,1519.3305840821413,X,None,nogo,None,1,,,,,,,,,,,,,,,,,,,35 ,001,22,w,Psychologie 100% Bachelor,2023-01-17_14h59.50.571,00_bat_bachelor,2022.2.4,59.991477578276815,
,,,,,,,,,,,,0,0,0,0,146,0,146,0,,,,,,,146,,,1,1521.132140057147,Y,d,go,d,1,,0.3746468478057068,,,,,,,,,,,,,,,,,35 ,001,22,w,Psychologie 100% Bachelor,2023-01-17_14h59.50.571,00_bat_bachelor,2022.2.4,59.991477578276815,
,,,,,,,,,,,,0,0,0,0,147,0,147,0,,,,,,,147,,,1,1522.616555822271,X,l,go,l,1,,0.28195404425787274,,,,,,,,,,,,,,,,,35 ,001,22,w,Psychologie 100% Bachelor,2023-01-17_14h59.50.571,00_bat_bachelor,2022.2.4,59.991477578276815,
,,,,,,,,,,,,0,0,0,0,148,0,148,0,,,,,,,148,,,1,1524.000755393572,X,None,nogo,None,1,,,,,,,,,,,,,,,,,,,35 ,001,22,w,Psychologie 100% Bachelor,2023-01-17_14h59.50.571,00_bat_bachelor,2022.2.4,59.991477578276815,
,,,,,,,,,,,,0,0,0,0,149,0,149,0,,,,,,,149,,,1,1525.8022808231326,Y,d,go,d,1,,0.3772761798463762,,,,,,,,,,,,,,,,,35 ,001,22,w,Psychologie 100% Bachelor,2023-01-17_14h59.50.571,00_bat_bachelor,2022.2.4,59.991477578276815,
,,,,,,,,,,,,0,0,0,0,150,0,150,0,,,,,,,150,,,1,1527.2868818002898,X,l,go,l,1,,0.47755734335805755,,,,,,,,,,,,,,,,,35 ,001,22,w,Psychologie 100% Bachelor,2023-01-17_14h59.50.571,00_bat_bachelor,2022.2.4,59.991477578276815,
,,,,,,,,,,,,0,0,0,0,151,0,151,0,,,,,,,151,,,1,1528.8713503653998,Y,d,go,d,1,,0.5250860475935042,,,,,,,,,,,,,,,,,35 ,001,22,w,Psychologie 100% Bachelor,2023-01-17_14h59.50.571,00_bat_bachelor,2022.2.4,59.991477578276815,
,,,,,,,,,,,,0,0,0,0,152,0,152,0,,,,,,,152,,,1,1530.5055255730695,X,l,go,l,1,,0.2816864080232335,,,,,,,,,,,,,,,,,35 ,001,22,w,Psychologie 100% Bachelor,2023-01-17_14h59.50.571,00_bat_bachelor,2022.2.4,59.991477578276815,
,,,,,,,,,,,,0,0,0,0,153,0,153,0,,,,,,,153,,,1,1531.8903006592445,Y,d,go,d,1,,0.3046139120706357,,,,,,,,,,,,,,,,,35 ,001,22,w,Psychologie 100% Bachelor,2023-01-17_14h59.50.571,00_bat_bachelor,2022.2.4,59.991477578276815,
,,,,,,,,,,,,0,0,0,0,154,0,154,0,,,,,,,154,,,1,1533.3085603352374,Y,None,nogo,None,1,1534.1089114623464,,,,,,,,,,,,,,,,,,35 ,001,22,w,Psychologie 100% Bachelor,2023-01-17_14h59.50.571,00_bat_bachelor,2022.2.4,59.991477578276815,
,,,,,,,,,,,,0,0,0,0,155,0,155,0,,,,,,,155,,,1,1535.1095238256821,X,l,go,l,1,,0.26943380790180527,,,,,,,,,,,,,,,,,35 ,001,22,w,Psychologie 100% Bachelor,2023-01-17_14h59.50.571,00_bat_bachelor,2022.2.4,59.991477578276815,
,,,,,,,,,,,,0,0,0,0,156,0,156,0,,,,,,,156,,,1,1536.4940584271244,Y,d,go,d,1,,0.5165381729457295,,,,,,,,,,,,,,,,,35 ,001,22,w,Psychologie 100% Bachelor,2023-01-17_14h59.50.571,00_bat_bachelor,2022.2.4,59.991477578276815,
,,,,,,,,,,,,0,0,0,0,157,0,157,0,,,,,,,157,,,1,1538.1119630972244,Y,None,nogo,l,0,,0.33947789516241755,,,,,,,,,,,,,,,,,35 ,001,22,w,Psychologie 100% Bachelor,2023-01-17_14h59.50.571,00_bat_bachelor,2022.2.4,59.991477578276815,
,,,,,,,,,,,,0,0,0,0,158,0,158,0,,,,,,,158,,,1,1539.5628535452852,X,l,go,l,1,,0.4093149521941086,,,,,,,,,,,,,,,,,35 ,001,22,w,Psychologie 100% Bachelor,2023-01-17_14h59.50.571,00_bat_bachelor,2022.2.4,59.991477578276815,
,,,,,,,,,,,,0,0,0,0,159,0,159,0,,,,,,,159,,,1,1541.0805837185035,Y,d,go,d,1,,0.5708096617890988,,,,,,,,,,,,,,,,,35 ,001,22,w,Psychologie 100% Bachelor,2023-01-17_14h59.50.571,00_bat_bachelor,2022.2.4,59.991477578276815,
,,,,,,,,,,,,0,0,0,0,160,0,160,0,,,,,,,160,,,1,1542.7651477502222,X,l,go,l,1,,0.46974401381157804,,,,,,,,,,,,,,,,,35 ,001,22,w,Psychologie 100% Bachelor,2023-01-17_14h59.50.571,00_bat_bachelor,2022.2.4,59.991477578276815,
,,,,,,,,,,,,0,0,0,0,161,0,161,0,,,,,,,161,,,1,1544.3497064971016,Y,d,go,d,1,,0.46927322616102174,,,,,,,,,,,,,,,,,35 ,001,22,w,Psychologie 100% Bachelor,2023-01-17_14h59.50.571,00_bat_bachelor,2022.2.4,59.991477578276815,
,,,,,,,,,,,,0,0,0,0,162,0,162,0,,,,,,,162,,,1,1545.9339869410906,X,l,go,l,1,,0.42089846174349077,,,,,,,,,,,,,,,,,35 ,001,22,w,Psychologie 100% Bachelor,2023-01-17_14h59.50.571,00_bat_bachelor,2022.2.4,59.991477578276815,
,,,,,,,,,,,,0,0,0,0,163,0,163,0,,,,,,,163,,,1,1547.4693563784967,X,None,nogo,None,1,1548.270317929535,,,,,,,,,,,,,,,,,,35 ,001,22,w,Psychologie 100% Bachelor,2023-01-17_14h59.50.571,00_bat_bachelor,2022.2.4,59.991477578276815,
,,,,,,,,,,,,0,0,0,0,164,0,164,0,,,,,,,164,,,1,1549.2703833840496,Y,d,go,d,1,,0.55655221415509,,,,,,,,,,,,,,,,,35 ,001,22,w,Psychologie 100% Bachelor,2023-01-17_14h59.50.571,00_bat_bachelor,2022.2.4,59.991477578276815,
,,,,,,,,,,,,0,0,0,0,165,0,165,0,,,,,,,165,,,1,1550.9384407571197,X,l,go,l,1,,0.5203510195860872,,,,,,,,,,,,,,,,,35 ,001,22,w,Psychologie 100% Bachelor,2023-01-17_14h59.50.571,00_bat_bachelor,2022.2.4,59.991477578276815,
,,,,,,,,,,,,0,0,0,0,166,0,166,0,,,,,,,166,,,1,1552.5730993584875,Y,d,go,d,1,,0.32535717473365366,,,,,,,,,,,,,,,,,35 ,001,22,w,Psychologie 100% Bachelor,2023-01-17_14h59.50.571,00_bat_bachelor,2022.2.4,59.991477578276815,
,,,,,,,,,,,,0,0,0,0,167,0,167,0,,,,,,,167,,,1,1554.024281685197,Y,None,nogo,None,1,1554.8247695394966,,,,,,,,,,,,,,,,,,35 ,001,22,w,Psychologie 100% Bachelor,2023-01-17_14h59.50.571,00_bat_bachelor,2022.2.4,59.991477578276815,
,,,,,,,,,,,,0,0,0,0,168,0,168,0,,,,,,,168,,,1,1555.8255259027646,X,l,go,l,1,,0.33679280553769786,,,,,,,,,,,,,,,,,35 ,001,22,w,Psychologie 100% Bachelor,2023-01-17_14h59.50.571,00_bat_bachelor,2022.2.4,59.991477578276815,
,,,,,,,,,,,,0,0,0,0,169,0,169,0,,,,,,,169,,,1,1557.2933361001924,Y,d,go,d,1,,0.22851310047553852,,,,,,,,,,,,,,,,,35 ,001,22,w,Psychologie 100% Bachelor,2023-01-17_14h59.50.571,00_bat_bachelor,2022.2.4,59.991477578276815,
,,,,,,,,,,,,0,0,0,0,170,0,170,0,,,,,,,170,,,1,1558.6444792026741,Y,None,nogo,None,1,1559.4446727540926,,,,,,,,,,,,,,,,,,35 ,001,22,w,Psychologie 100% Bachelor,2023-01-17_14h59.50.571,00_bat_bachelor,2022.2.4,59.991477578276815,
,,,,,,,,,,,,0,0,0,0,171,0,171,0,,,,,,,171,,,1,1560.4454902082362,X,l,go,l,1,,0.27772616750735324,,,,,,,,,,,,,,,,,35 ,001,22,w,Psychologie 100% Bachelor,2023-01-17_14h59.50.571,00_bat_bachelor,2022.2.4,59.991477578276815,
,,,,,,,,,,,,0,0,0,0,172,0,172,0,,,,,,,172,,,1,1561.8298880824732,Y,d,go,d,1,,0.38095375383272767,,,,,,,,,,,,,,,,,35 ,001,22,w,Psychologie 100% Bachelor,2023-01-17_14h59.50.571,00_bat_bachelor,2022.2.4,59.991477578276815,
,,,,,,,,,,,,0,0,0,0,173,0,173,0,,,,,,,173,,,1,1563.3143891809013,Y,None,nogo,None,1,1564.114746611027,,,,,,,,,,,,,,,,,,35 ,001,22,w,Psychologie 100% Bachelor,2023-01-17_14h59.50.571,00_bat_bachelor,2022.2.4,59.991477578276815,
,,,,,,,,,,,,0,0,0,0,174,0,174,0,,,,,,,174,,,1,1565.1155272167089,X,l,go,l,1,,0.37448490849055815,,,,,,,,,,,,,,,,,35 ,001,22,w,Psychologie 100% Bachelor,2023-01-17_14h59.50.571,00_bat_bachelor,2022.2.4,59.991477578276815,
,,,,,,,,,,,,0,0,0,0,175,0,175,0,,,,,,,175,,,1,1566.600174739302,Y,d,go,d,1,,0.47538328380323946,,,,,,,,,,,,,,,,,35 ,001,22,w,Psychologie 100% Bachelor,2023-01-17_14h59.50.571,00_bat_bachelor,2022.2.4,59.991477578276815,
,,,,,,,,,,,,0,0,0,0,176,0,176,0,,,,,,,176,,,1,1568.1847456073883,X,l,go,l,1,,0.33100129320519045,,,,,,,,,,,,,,,,,35 ,001,22,w,Psychologie 100% Bachelor,2023-01-17_14h59.50.571,00_bat_bachelor,2022.2.4,59.991477578276815,
,,,,,,,,,,,,0,0,0,0,177,0,177,0,,,,,,,177,,,1,1569.6191206695075,Y,d,go,d,1,,0.4322536077525001,,,,,,,,,,,,,,,,,35 ,001,22,w,Psychologie 100% Bachelor,2023-01-17_14h59.50.571,00_bat_bachelor,2022.2.4,59.991477578276815,
,,,,,,,,,,,,0,0,0,0,178,0,178,0,,,,,,,178,,,1,1571.1534966528416,Y,None,nogo,d,0,,0.4655045007239096,,,,,,,,,,,,,,,,,35 ,001,22,w,Psychologie 100% Bachelor,2023-01-17_14h59.50.571,00_bat_bachelor,2022.2.4,59.991477578276815,
,,,,,,,,,,,,0,0,0,0,179,0,179,0,,,,,,,179,,,1,1572.7214769835264,X,l,go,l,1,,0.2727875032433076,,,,,,,,,,,,,,,,,35 ,001,22,w,Psychologie 100% Bachelor,2023-01-17_14h59.50.571,00_bat_bachelor,2022.2.4,59.991477578276815,
,,,,,,,,,,,,0,0,0,0,180,0,180,0,,,,,,,180,,,1,1574.105894251683,Y,d,go,d,1,,0.40838404356327374,,,,,,,,,,,,,,,,,35 ,001,22,w,Psychologie 100% Bachelor,2023-01-17_14h59.50.571,00_bat_bachelor,2022.2.4,59.991477578276815,
,,,,,,,,,,,,0,0,0,0,181,0,181,0,,,,,,,181,,,1,1575.6234993340622,X,l,go,l,1,,0.3153576644253917,,,,,,,,,,,,,,,,,35 ,001,22,w,Psychologie 100% Bachelor,2023-01-17_14h59.50.571,00_bat_bachelor,2022.2.4,59.991477578276815,
,,,,,,,,,,,,0,0,0,0,182,0,182,0,,,,,,,182,,,1,1577.0414719798864,Y,d,go,d,1,,0.4327816074946895,,,,,,,,,,,,,,,,,35 ,001,22,w,Psychologie 100% Bachelor,2023-01-17_14h59.50.571,00_bat_bachelor,2022.2.4,59.991477578276815,
,,,,,,,,,,,,0,0,0,0,183,0,183,0,,,,,,,183,,,1,1578.5760540237243,Y,None,nogo,None,1,1579.3765632113646,,,,,,,,,,,,,,,,,,35 ,001,22,w,Psychologie 100% Bachelor,2023-01-17_14h59.50.571,00_bat_bachelor,2022.2.4,59.991477578276815,
,,,,,,,,,,,,0,0,0,0,184,0,184,0,,,,,,,184,,,1,1580.3773365443194,X,l,go,l,1,,0.3465353462670464,,,,,,,,,,,,,,,,,35 ,001,22,w,Psychologie 100% Bachelor,2023-01-17_14h59.50.571,00_bat_bachelor,2022.2.4,59.991477578276815,
,,,,,,,,,,,,0,0,0,0,185,0,185,0,,,,,,,185,,,1,1581.8284509922669,Y,d,go,d,1,,0.3345101399900159,,,,,,,,,,,,,,,,,35 ,001,22,w,Psychologie 100% Bachelor,2023-01-17_14h59.50.571,00_bat_bachelor,2022.2.4,59.991477578276815,
,,,,,,,,,,,,0,0,0,0,186,0,186,0,,,,,,,186,,,1,1583.2793821675732,Y,None,nogo,l,0,,0.211897835804848,,,,,,,,,,,,,,,,,35 ,001,22,w,Psychologie 100% Bachelor,2023-01-17_14h59.50.571,00_bat_bachelor,2022.2.4,59.991477578276815,
,,,,,,,,,,,,0,0,0,0,187,0,187,0,,,,,,,187,,,1,1584.5970144984167,X,l,go,l,1,,0.2698755046585575,,,,,,,,,,,,,,,,,35 ,001,22,w,Psychologie 100% Bachelor,2023-01-17_14h59.50.571,00_bat_bachelor,2022.2.4,59.991477578276815,
,,,,,,,,,,,,0,0,0,0,188,0,188,0,,,,,,,188,,,1,1585.981462796859,Y,d,go,d,1,,0.35799861344275996,,,,,,,,,,,,,,,,,35 ,001,22,w,Psychologie 100% Bachelor,2023-01-17_14h59.50.571,00_bat_bachelor,2022.2.4,59.991477578276815,
,,,,,,,,,,,,0,0,0,0,189,0,189,0,,,,,,,189,,,1,1587.4489481459605,X,l,go,l,1,,0.21683746976486873,,,,,,,,,,,,,,,,,35 ,001,22,w,Psychologie 100% Bachelor,2023-01-17_14h59.50.571,00_bat_bachelor,2022.2.4,59.991477578276815,
,,,,,,,,,,,,0,0,0,0,190,0,190,0,,,,,,,190,,,1,1588.766979991764,Y,d,go,d,1,,0.35639085665752646,,,,,,,,,,,,,,,,,35 ,001,22,w,Psychologie 100% Bachelor,2023-01-17_14h59.50.571,00_bat_bachelor,2022.2.4,59.991477578276815,
,,,,,,,,,,,,0,0,0,0,191,0,191,0,,,,,,,191,,,1,1590.2345511589956,Y,None,nogo,d,0,,0.4555849903845228,,,,,,,,,,,,,,,,,35 ,001,22,w,Psychologie 100% Bachelor,2023-01-17_14h59.50.571,00_bat_bachelor,2022.2.4,59.991477578276815,
,,,,,,,,,,,,0,0,0,0,192,0,192,0,,,,,,,192,,,1,1591.8030119742907,X,l,go,l,1,,0.2947744016710203,,,,,,,,,,,,,,,,,35 ,001,22,w,Psychologie 100% Bachelor,2023-01-17_14h59.50.571,00_bat_bachelor,2022.2.4,59.991477578276815,
,,,,,,,,,,,,0,0,0,0,193,0,193,0,,,,,,,193,,,1,1593.2208173474792,Y,d,go,d,1,,0.33253680761845317,,,,,,,,,,,,,,,,,35 ,001,22,w,Psychologie 100% Bachelor,2023-01-17_14h59.50.571,00_bat_bachelor,2022.2.4,59.991477578276815,
,,,,,,,,,,,,0,0,0,0,194,0,194,0,,,,,,,194,,,1,1594.6720947044378,X,l,go,l,1,,0.273642775558983,,,,,,,,,,,,,,,,,35 ,001,22,w,Psychologie 100% Bachelor,2023-01-17_14h59.50.571,00_bat_bachelor,2022.2.4,59.991477578276815,
,,,,,,,,,,,,0,0,0,0,195,0,195,0,,,,,,,195,,,1,1596.0729861464206,Y,d,go,d,1,,0.3287210518901702,,,,,,,,,,,,,,,,,35 ,001,22,w,Psychologie 100% Bachelor,2023-01-17_14h59.50.571,00_bat_bachelor,2022.2.4,59.991477578276815,
,,,,,,,,,,,,0,0,0,0,196,0,196,0,,,,,,,196,,,1,1597.5241956246318,Y,None,nogo,l,0,,0.19021639176935423,,,,,,,,,,,,,,,,,35 ,001,22,w,Psychologie 100% Bachelor,2023-01-17_14h59.50.571,00_bat_bachelor,2022.2.4,59.991477578276815,
,,,,,,,,,,,,0,0,0,0,197,0,197,0,,,,,,,197,,,1,1598.8415763192315,X,l,go,l,1,,0.3600514609424863,,,,,,,,,,,,,,,,,35 ,001,22,w,Psychologie 100% Bachelor,2023-01-17_14h59.50.571,00_bat_bachelor,2022.2.4,59.991477578276815,
,,,,,,,,,,,,0,0,0,0,198,0,198,0,,,,,,,198,,,1,1600.3258863874507,Y,d,go,d,1,,0.18912451351934578,,,,,,,,,,,,,,,,,35 ,001,22,w,Psychologie 100% Bachelor,2023-01-17_14h59.50.571,00_bat_bachelor,2022.2.4,59.991477578276815,
,,,,,,,,,,,,0,0,0,0,199,0,199,0,,,,,,,199,,,1,1601.6268593324203,X,l,go,l,1,,0.23157685656042304,,,,,,,,,,,,,,,,,35 ,001,22,w,Psychologie 100% Bachelor,2023-01-17_14h59.50.571,00_bat_bachelor,2022.2.4,59.991477578276815,
,,,,,,,,,,,,0,0,0,0,200,0,200,0,,,,,,,200,,,1,1602.9610162613244,Y,d,go,d,1,,0.22600788956333417,,,,,,,,,,,,,,,,,35 ,001,22,w,Psychologie 100% Bachelor,2023-01-17_14h59.50.571,00_bat_bachelor,2022.2.4,59.991477578276815,
,,,,,,,,,,,,0,0,0,0,201,0,201,0,,,,,,,201,,,1,1604.2952454326005,Y,None,nogo,None,1,1605.0957449232665,,,,,,,,,,,,,,,,,,35 ,001,22,w,Psychologie 100% Bachelor,2023-01-17_14h59.50.571,00_bat_bachelor,2022.2.4,59.991477578276815,
,,,,,,,,,,,,0,0,0,0,202,0,202,0,,,,,,,202,,,1,1606.0968401954742,X,l,go,l,1,,0.24225951805419754,,,,,,,,,,,,,,,,,35 ,001,22,w,Psychologie 100% Bachelor,2023-01-17_14h59.50.571,00_bat_bachelor,2022.2.4,59.991477578276815,
,,,,,,,,,,,,0,0,0,0,203,0,203,0,,,,,,,203,,,1,1607.4478916616208,Y,d,go,d,1,,0.25136593787465245,,,,,,,,,,,,,,,,,35 ,001,22,w,Psychologie 100% Bachelor,2023-01-17_14h59.50.571,00_bat_bachelor,2022.2.4,59.991477578276815,
,,,,,,,,,,,,0,0,0,0,204,0,204,0,,,,,,,204,,,1,1608.8154289379745,Y,None,nogo,l,0,,0.24436327461444307,,,,,,,,,,,,,,,,,35 ,001,22,w,Psychologie 100% Bachelor,2023-01-17_14h59.50.571,00_bat_bachelor,2022.2.4,59.991477578276815,
,,,,,,,,,,,,0,0,0,0,205,0,205,0,,,,,,,205,,,1,1610.1662602830183,X,l,go,l,1,,0.29976155077747535,,,,,,,,,,,,,,,,,35 ,001,22,w,Psychologie 100% Bachelor,2023-01-17_14h59.50.571,00_bat_bachelor,2022.2.4,59.991477578276815,
,,,,,,,,,,,,0,0,0,0,206,0,206,0,,,,,,,206,,,1,1611.5676802095986,Y,d,go,d,1,,0.3876102354552131,,,,,,,,,,,,,,,,,35 ,001,22,w,Psychologie 100% Bachelor,2023-01-17_14h59.50.571,00_bat_bachelor,2022.2.4,59.991477578276815,
,,,,,,,,,,,,0,0,0,0,207,0,207,0,,,,,,,207,,,1,1613.068468330428,X,l,go,l,1,,0.2306876448710682,,,,,,,,,,,,,,,,,35 ,001,22,w,Psychologie 100% Bachelor,2023-01-17_14h59.50.571,00_bat_bachelor,2022.2.4,59.991477578276815,
,,,,,,,,,,,,0,0,0,0,208,0,208,0,,,,,,,208,,,1,1614.4028143501491,X,None,nogo,d,0,,0.2565479959739605,,,,,,,,,,,,,,,,,35 ,001,22,w,Psychologie 100% Bachelor,2023-01-17_14h59.50.571,00_bat_bachelor,2022.2.4,59.991477578276815,
,,,,,,,,,,,,0,0,0,0,209,0,209,0,,,,,,,209,,,1,1615.7706604748237,Y,d,go,d,1,,0.5513449439458782,,,,,,,,,,,,,,,,,35 ,001,22,w,Psychologie 100% Bachelor,2023-01-17_14h59.50.571,00_bat_bachelor,2022.2.4,59.991477578276815,
,,,,,,,,,,,,0,0,0,0,210,0,210,0,,,,,,,210,,,1,1617.4388264539011,X,l,go,l,1,,0.5802331723680254,,,,,,,,,,,,,,,,,35 ,001,22,w,Psychologie 100% Bachelor,2023-01-17_14h59.50.571,00_bat_bachelor,2022.2.4,59.991477578276815,
,,,,,,,,,,,,0,0,0,0,211,0,211,0,,,,,,,211,,,1,1619.1231024857698,X,None,nogo,None,1,,,,,,,,,,,,,,,,,,,35 ,001,22,w,Psychologie 100% Bachelor,2023-01-17_14h59.50.571,00_bat_bachelor,2022.2.4,59.991477578276815,
,,,,,,,,,,,,0,0,0,0,212,0,212,0,,,,,,,212,,,1,1620.9247370061785,X,None,nogo,None,1,,,,,,,,,,,,,,,,,,,35 ,001,22,w,Psychologie 100% Bachelor,2023-01-17_14h59.50.571,00_bat_bachelor,2022.2.4,59.991477578276815,
,,,,,,,,,,,,0,0,0,0,213,0,213,0,,,,,,,213,,,1,1622.7260452237242,Y,d,go,d,1,,0.3657203066832153,,,,,,,,,,,,,,,,,35 ,001,22,w,Psychologie 100% Bachelor,2023-01-17_14h59.50.571,00_bat_bachelor,2022.2.4,59.991477578276815,
,,,,,,,,,,,,0,0,0,0,214,0,214,0,,,,,,,214,,,1,1624.193922330218,X,l,go,None,0,,,,,,,,,,,,,,,,,,,35 ,001,22,w,Psychologie 100% Bachelor,2023-01-17_14h59.50.571,00_bat_bachelor,2022.2.4,59.991477578276815,
,,,,,,,,,,,,0,0,0,0,215,0,215,0,,,,,,,215,,,1,1625.9952441235073,Y,d,go,d,1,,0.5510162168357056,,,,,,,,,,,,,,,,,35 ,001,22,w,Psychologie 100% Bachelor,2023-01-17_14h59.50.571,00_bat_bachelor,2022.2.4,59.991477578276815,
,,,,,,,,,,,,0,0,0,0,216,0,216,0,,,,,,,216,,,1,1627.663235557222,Y,None,nogo,l,0,,0.40342113688529935,,,,,,,,,,,,,,,,,35 ,001,22,w,Psychologie 100% Bachelor,2023-01-17_14h59.50.571,00_bat_bachelor,2022.2.4,59.991477578276815,
,,,,,,,,,,,,0,0,0,0,217,0,217,0,,,,,,,217,,,1,1629.1809933667828,X,l,go,None,0,1629.9816271604213,,,,,,,,,,,,,,,,,,35 ,001,22,w,Psychologie 100% Bachelor,2023-01-17_14h59.50.571,00_bat_bachelor,2022.2.4,59.991477578276815,
,,,,,,,,,,,,0,0,0,0,218,0,218,0,,,,,,,218,,,1,1630.9821275238064,Y,d,go,d,1,,0.39726307925593574,,,,,,,,,,,,,,,,,35 ,001,22,w,Psychologie 100% Bachelor,2023-01-17_14h59.50.571,00_bat_bachelor,2022.2.4,59.991477578276815,
,,,,,,,,,,,,0,0,0,0,219,0,219,0,,,,,,,219,,,1,1632.4832632808393,X,l,go,l,1,,0.4322346986591583,,,,,,,,,,,,,,,,,35 ,001,22,w,Psychologie 100% Bachelor,2023-01-17_14h59.50.571,00_bat_bachelor,2022.2.4,59.991477578276815,
,,,,,,,,,,,,0,0,0,0,220,0,220,0,,,,,,,220,,,1,1634.0177473853255,Y,d,go,d,1,,0.6570321654289728,,,,,,,,,,,,,,,,,35 ,001,22,w,Psychologie 100% Bachelor,2023-01-17_14h59.50.571,00_bat_bachelor,2022.2.4,59.991477578276815,
,,,,,,,,,,,,0,0,0,0,221,0,221,0,,,,,,,221,,,1,1635.7860902855318,X,l,go,l,1,,0.42592294415226206,,,,,,,,,,,,,,,,,35 ,001,22,w,Psychologie 100% Bachelor,2023-01-17_14h59.50.571,00_bat_bachelor,2022.2.4,59.991477578276815,
,,,,,,,,,,,,0,0,0,0,222,0,222,0,,,,,,,222,,,1,1637.3205336627725,X,None,nogo,None,1,,,,,,,,,,,,,,,,,,,35 ,001,22,w,Psychologie 100% Bachelor,2023-01-17_14h59.50.571,00_bat_bachelor,2022.2.4,59.991477578276815,
,,,,,,,,,,,,0,0,0,0,223,0,223,0,,,,,,,223,,,1,1639.1219984862983,Y,d,go,d,1,,0.6247732719784835,,,,,,,,,,,,,,,,,35 ,001,22,w,Psychologie 100% Bachelor,2023-01-17_14h59.50.571,00_bat_bachelor,2022.2.4,59.991477578276815,
,,,,,,,,,,,,0,0,0,0,224,0,224,0,,,,,,,224,,,1,1640.856309402996,X,l,go,l,1,,0.474770920467563,,,,,,,,,,,,,,,,,35 ,001,22,w,Psychologie 100% Bachelor,2023-01-17_14h59.50.571,00_bat_bachelor,2022.2.4,59.991477578276815,
,,,,,,,,,,,,0,0,0,0,225,0,225,0,,,,,,,225,,,1,1642.441174573978,Y,d,go,None,0,,,,,,,,,,,,,,,,,,,35 ,001,22,w,Psychologie 100% Bachelor,2023-01-17_14h59.50.571,00_bat_bachelor,2022.2.4,59.991477578276815,
,,,,,,,,,,,,0,0,0,0,226,0,226,0,,,,,,,226,,,1,1644.242976367037,Y,None,nogo,None,1,1645.0437648272637,,,,,,,,,,,,,,,,,,35 ,001,22,w,Psychologie 100% Bachelor,2023-01-17_14h59.50.571,00_bat_bachelor,2022.2.4,59.991477578276815,
,,,,,,,,,,,,0,0,0,0,227,0,227,0,,,,,,,227,,,1,1646.0446525844018,X,l,go,l,1,,0.5336140434519621,,,,,,,,,,,,,,,,,35 ,001,22,w,Psychologie 100% Bachelor,2023-01-17_14h59.50.571,00_bat_bachelor,2022.2.4,59.991477578276815,
,,,,,,,,,,,,0,0,0,0,228,0,228,0,,,,,,,228,,,1,1647.712515048479,Y,d,go,d,1,,0.4659020762774162,,,,,,,,,,,,,,,,,35 ,001,22,w,Psychologie 100% Bachelor,2023-01-17_14h59.50.571,00_bat_bachelor,2022.2.4,59.991477578276815,
,,,,,,,,,,,,0,0,0,0,229,0,229,0,,,,,,,229,,,1,1649.3138291811629,Y,None,nogo,None,1,1650.114174490096,,,,,,,,,,,,,,,,,,35 ,001,22,w,Psychologie 100% Bachelor,2023-01-17_14h59.50.571,00_bat_bachelor,2022.2.4,59.991477578276815,
,,,,,,,,,,,,0,0,0,0,230,0,230,0,,,,,,,230,,,1,1651.11509327752,X,l,go,l,1,,0.5843180188676342,,,,,,,,,,,,,,,,,35 ,001,22,w,Psychologie 100% Bachelor,2023-01-17_14h59.50.571,00_bat_bachelor,2022.2.4,59.991477578276815,
,,,,,,,,,,,,0,0,0,0,231,0,231,0,,,,,,,231,,,1,1652.8160650588688,Y,d,go,d,1,,0.5145018103066832,,,,,,,,,,,,,,,,,35 ,001,22,w,Psychologie 100% Bachelor,2023-01-17_14h59.50.571,00_bat_bachelor,2022.2.4,59.991477578276815,
,,,,,,,,,,,,0,0,0,0,232,0,232,0,,,,,,,232,,,1,1654.4335634261515,Y,None,nogo,l,0,,0.4014051378471777,,,,,,,,,,,,,,,,,35 ,001,22,w,Psychologie 100% Bachelor,2023-01-17_14h59.50.571,00_bat_bachelor,2022.2.4,59.991477578276815,
,,,,,,,,,,,,0,0,0,0,233,0,233,0,,,,,,,233,,,1,1655.951500144729,Y,None,nogo,d,0,,0.6595301036140881,,,,,,,,,,,,,,,,,35 ,001,22,w,Psychologie 100% Bachelor,2023-01-17_14h59.50.571,00_bat_bachelor,2022.2.4,59.991477578276815,
,,,,,,,,,,,,0,0,0,0,234,0,234,0,,,,,,,234,,,1,1657.719371772415,X,l,go,l,1,,0.5717556007148232,,,,,,,,,,,,,,,,,35 ,001,22,w,Psychologie 100% Bachelor,2023-01-17_14h59.50.571,00_bat_bachelor,2022.2.4,59.991477578276815,
,,,,,,,,,,,,0,0,0,0,235,0,235,0,,,,,,,235,,,1,1659.4039978647197,Y,d,go,d,1,,0.5029900583031122,,,,,,,,,,,,,,,,,35 ,001,22,w,Psychologie 100% Bachelor,2023-01-17_14h59.50.571,00_bat_bachelor,2022.2.4,59.991477578276815,
,,,,,,,,,,,,0,0,0,0,236,0,236,0,,,,,,,236,,,1,1661.0218705348525,Y,None,nogo,None,1,,,,,,,,,,,,,,,,,,,35 ,001,22,w,Psychologie 100% Bachelor,2023-01-17_14h59.50.571,00_bat_bachelor,2022.2.4,59.991477578276815,
,,,,,,,,,,,,0,0,0,0,237,0,237,0,,,,,,,237,,,1,1662.8233862674388,X,l,go,l,1,,0.5718166915903566,,,,,,,,,,,,,,,,,35 ,001,22,w,Psychologie 100% Bachelor,2023-01-17_14h59.50.571,00_bat_bachelor,2022.2.4,59.991477578276815,
,,,,,,,,,,,,0,0,0,0,238,0,238,0,,,,,,,238,,,1,1664.5076482387085,Y,d,go,d,1,,0.5027815735520562,,,,,,,,,,,,,,,,,35 ,001,22,w,Psychologie 100% Bachelor,2023-01-17_14h59.50.571,00_bat_bachelor,2022.2.4,59.991477578276815,
,,,,,,,,,,,,0,0,0,0,239,0,239,0,,,,,,,239,,,1,1666.1265744840784,Y,None,nogo,None,1,1666.9269047627022,,,,,,,,,,,,,,,,,,35 ,001,22,w,Psychologie 100% Bachelor,2023-01-17_14h59.50.571,00_bat_bachelor,2022.2.4,59.991477578276815,
,,,,,,,,,,,,0,0,0,0,240,0,240,0,,,,,,,240,,,1,1667.9276940956624,X,l,go,None,0,1668.7286047376401,,,,,,,,,,,,,,,,,,35 ,001,22,w,Psychologie 100% Bachelor,2023-01-17_14h59.50.571,00_bat_bachelor,2022.2.4,59.991477578276815,
,,,,,,,,,,,,0,0,0,0,241,0,241,0,,,,,,,241,,,1,1669.729033343494,Y,d,go,None,0,1670.5299963490834,,,,,,,,,,,,,,,,,,35 ,001,22,w,Psychologie 100% Bachelor,2023-01-17_14h59.50.571,00_bat_bachelor,2022.2.4,59.991477578276815,
,,,,,,,,,,,,0,0,0,0,242,0,242,0,,,,,,,242,,,1,1671.5306586517981,Y,None,nogo,None,1,1672.3312972939166,,,,,,,,,,,,,,,,,,35 ,001,22,w,Psychologie 100% Bachelor,2023-01-17_14h59.50.571,00_bat_bachelor,2022.2.4,59.991477578276815,
,,,,,,,,,,,,0,0,0,0,243,0,243,0,,,,,,,243,,,1,1673.3321302632103,X,l,go,l,1,,0.5736445694928989,,,,,,,,,,,,,,,,,35 ,001,22,w,Psychologie 100% Bachelor,2023-01-17_14h59.50.571,00_bat_bachelor,2022.2.4,59.991477578276815,
,,,,,,,,,,,,0,0,0,0,244,0,244,0,,,,,,,244,,,1,1675.0333493171638,Y,d,go,d,1,,0.6007776472542901,,,,,,,,,,,,,,,,,35 ,001,22,w,Psychologie 100% Bachelor,2023-01-17_14h59.50.571,00_bat_bachelor,2022.2.4,59.991477578276815,
,,,,,,,,,,,,0,0,0,0,245,0,245,0,,,,,,,245,,,1,1676.7512888478523,Y,None,nogo,None,1,1677.5519919747894,,,,,,,,,,,,,,,,,,35 ,001,22,w,Psychologie 100% Bachelor,2023-01-17_14h59.50.571,00_bat_bachelor,2022.2.4,59.991477578276815,
,,,,,,,,,,,,0,0,0,0,246,0,246,0,,,,,,,246,,,1,1678.55268530779,X,l,go,l,1,,0.47416582984442357,,,,,,,,,,,,,,,,,35 ,001,22,w,Psychologie 100% Bachelor,2023-01-17_14h59.50.571,00_bat_bachelor,2022.2.4,59.991477578276815,
,,,,,,,,,,,,0,0,0,0,247,0,247,0,,,,,,,247,,,1,1680.1536789557867,Y,d,go,d,1,,0.4406206339917844,,,,,,,,,,,,,,,,,35 ,001,22,w,Psychologie 100% Bachelor,2023-01-17_14h59.50.571,00_bat_bachelor,2022.2.4,59.991477578276815,
,,,,,,,,,,,,0,0,0,0,248,0,248,0,,,,,,,248,,,1,1681.7212175897148,X,l,go,l,1,,0.5055262995010708,,,,,,,,,,,,,,,,,35 ,001,22,w,Psychologie 100% Bachelor,2023-01-17_14h59.50.571,00_bat_bachelor,2022.2.4,59.991477578276815,
,,,,,,,,,,,,0,0,0,0,249,0,249,0,,,,,,,249,,,1,1683.3389438356535,Y,d,go,d,1,,0.3608078242104966,,,,,,,,,,,,,,,,,35 ,001,22,w,Psychologie 100% Bachelor,2023-01-17_14h59.50.571,00_bat_bachelor,2022.2.4,59.991477578276815,
,,,,,,,,,,,,1,0,1,0,0,0,0,0,,,,,,,0,,,0.2,1712.1612508309045,X,l,go,l,1,,0.6091621280356776,,,,,,,,1683.8113091823907,space,28.131264662762987,,,,,,,35 ,001,22,w,Psychologie 100% Bachelor,2023-01-17_14h59.50.571,00_bat_bachelor,2022.2.4,59.991477578276815,
,,,,,,,,,,,,1,0,1,0,1,0,1,0,,,,,,,1,,,0.2,1713.078197780269,Y,d,go,d,1,,0.4928242450405378,,,,,,,,,,,,,,,,,35 ,001,22,w,Psychologie 100% Bachelor,2023-01-17_14h59.50.571,00_bat_bachelor,2022.2.4,59.991477578276815,
,,,,,,,,,,,,1,0,1,0,2,0,2,0,,,,,,,2,,,0.2,1713.8785993315832,X,l,go,l,1,,0.41288198078109417,,,,,,,,,,,,,,,,,35 ,001,22,w,Psychologie 100% Bachelor,2023-01-17_14h59.50.571,00_bat_bachelor,2022.2.4,59.991477578276815,
,,,,,,,,,,,,1,0,1,0,3,0,3,0,,,,,,,3,,,0.2,1714.595781044467,X,None,nogo,None,1,,,,,,,,,,,,,,,,,,,35 ,001,22,w,Psychologie 100% Bachelor,2023-01-17_14h59.50.571,00_bat_bachelor,2022.2.4,59.991477578276815,
,,,,,,,,,,,,1,0,1,0,4,0,4,0,,,,,,,4,,,0.2,1715.5968220136565,Y,d,go,d,1,,0.3896131435758434,,,,,,,,,,,,,,,,,35 ,001,22,w,Psychologie 100% Bachelor,2023-01-17_14h59.50.571,00_bat_bachelor,2022.2.4,59.991477578276815,
,,,,,,,,,,,,1,0,1,0,5,0,5,0,,,,,,,5,,,0.2,1716.2971053104848,X,l,go,None,0,1717.0980872251675,,,,,,,,,,,,,,,,,,35 ,001,22,w,Psychologie 100% Bachelor,2023-01-17_14h59.50.571,00_bat_bachelor,2022.2.4,59.991477578276815,
,,,,,,,,,,,,1,0,1,0,6,0,6,0,,,,,,,6,,,0.2,1717.2981744008866,Y,d,go,d,1,,0.48252412883448415,,,,,,,,,,,,,,,,,35 ,001,22,w,Psychologie 100% Bachelor,2023-01-17_14h59.50.571,00_bat_bachelor,2022.2.4,59.991477578276815,
,,,,,,,,,,,,1,0,1,0,7,0,7,0,,,,,,,7,,,0.2,1718.082350505516,Y,None,nogo,None,1,,,,,,,,,,,,,,,,,,,35 ,001,22,w,Psychologie 100% Bachelor,2023-01-17_14h59.50.571,00_bat_bachelor,2022.2.4,59.991477578276815,
,,,,,,,,,,,,1,0,1,0,8,0,8,0,,,,,,,8,,,0.2,1719.083204323295,X,l,go,l,1,,0.5037847245839657,,,,,,,,,,,,,,,,,35 ,001,22,w,Psychologie 100% Bachelor,2023-01-17_14h59.50.571,00_bat_bachelor,2022.2.4,59.991477578276815,
,,,,,,,,,,,,1,0,1,0,9,0,9,0,,,,,,,9,,,0.2,1719.9006332602876,Y,d,go,d,1,,0.42289506683300715,,,,,,,,,,,,,,,,,35 ,001,22,w,Psychologie 100% Bachelor,2023-01-17_14h59.50.571,00_bat_bachelor,2022.2.4,59.991477578276815,
,,,,,,,,,,,,1,0,1,0,10,0,10,0,,,,,,,10,,,0.2,1720.6343929045397,X,l,go,None,0,1721.4350819708634,,,,,,,,,,,,,,,,,,35 ,001,22,w,Psychologie 100% Bachelor,2023-01-17_14h59.50.571,00_bat_bachelor,2022.2.4,59.991477578276815,
,,,,,,,,,,,,1,0,1,0,11,0,11,0,,,,,,,11,,,0.2,1721.6351735102216,Y,d,go,None,0,1722.43577627356,,,,,,,,,,,,,,,,,,35 ,001,22,w,Psychologie 100% Bachelor,2023-01-17_14h59.50.571,00_bat_bachelor,2022.2.4,59.991477578276815,
,,,,,,,,,,,,1,0,1,0,12,0,12,0,,,,,,,12,,,0.2,1722.6358842977497,Y,None,nogo,None,1,1723.4366523943463,,,,,,,,,,,,,,,,,,35 ,001,22,w,Psychologie 100% Bachelor,2023-01-17_14h59.50.571,00_bat_bachelor,2022.2.4,59.991477578276815,
,,,,,,,,,,,,1,0,1,0,13,0,13,0,,,,,,,13,,,0.2,1723.6364826004865,X,l,go,l,1,,0.5268135619116947,,,,,,,,,,,,,,,,,35 ,001,22,w,Psychologie 100% Bachelor,2023-01-17_14h59.50.571,00_bat_bachelor,2022.2.4,59.991477578276815,
,,,,,,,,,,,,1,0,1,0,14,0,14,0,,,,,,,14,,,0.2,1724.4704860749043,Y,d,go,d,1,,0.4285037913941778,,,,,,,,,,,,,,,,,35 ,001,22,w,Psychologie 100% Bachelor,2023-01-17_14h59.50.571,00_bat_bachelor,2022.2.4,59.991477578276815,
,,,,,,,,,,,,1,0,1,0,15,0,15,0,,,,,,,15,,,0.2,1725.2043664463563,X,l,go,l,1,,0.6214268493640702,,,,,,,,,,,,,,,,,35 ,001,22,w,Psychologie 100% Bachelor,2023-01-17_14h59.50.571,00_bat_bachelor,2022.2.4,59.991477578276815,
,,,,,,,,,,,,1,0,1,0,16,0,16,0,,,,,,,16,,,0.2,1726.1552469550224,X,None,nogo,l,0,,0.6478661092696711,,,,,,,,,,,,,,,,,35 ,001,22,w,Psychologie 100% Bachelor,2023-01-17_14h59.50.571,00_bat_bachelor,2022.2.4,59.991477578276815,
,,,,,,,,,,,,1,0,1,0,17,0,17,0,,,,,,,17,,,0.2,1727.1058069790015,Y,d,go,d,1,,0.4652979553648038,,,,,,,,,,,,,,,,,35 ,001,22,w,Psychologie 100% Bachelor,2023-01-17_14h59.50.571,00_bat_bachelor,2022.2.4,59.991477578276815,
,,,,,,,,,,,,1,0,1,0,18,0,18,0,,,,,,,18,,,0.2,1727.8732228493463,X,l,go,l,1,,0.5609682120120851,,,,,,,,,,,,,,,,,35 ,001,22,w,Psychologie 100% Bachelor,2023-01-17_14h59.50.571,00_bat_bachelor,2022.2.4,59.991477578276815,
,,,,,,,,,,,,1,0,1,0,19,0,19,0,,,,,,,19,,,0.2,1728.7407186711644,Y,d,go,d,1,,0.6216523038019659,,,,,,,,,,,,,,,,,35 ,001,22,w,Psychologie 100% Bachelor,2023-01-17_14h59.50.571,00_bat_bachelor,2022.2.4,59.991477578276815,
,,,,,,,,,,,,1,0,1,0,20,0,20,0,,,,,,,20,,,0.2,1729.6745965214068,X,l,go,l,1,,0.6643252528010635,,,,,,,,,,,,,,,,,35 ,001,22,w,Psychologie 100% Bachelor,2023-01-17_14h59.50.571,00_bat_bachelor,2022.2.4,59.991477578276815,
,,,,,,,,,,,,1,0,1,0,21,0,21,0,,,,,,,21,,,0.2,1730.6420607796026,Y,d,go,d,1,,0.4963767281733453,,,,,,,,,,,,,,,,,35 ,001,22,w,Psychologie 100% Bachelor,2023-01-17_14h59.50.571,00_bat_bachelor,2022.2.4,59.991477578276815,
,,,,,,,,,,,,1,0,1,0,22,0,22,0,,,,,,,22,,,0.2,1731.4424540885084,X,l,go,l,1,,0.6087407949089538,,,,,,,,,,,,,,,,,35 ,001,22,w,Psychologie 100% Bachelor,2023-01-17_14h59.50.571,00_bat_bachelor,2022.2.4,59.991477578276815,
,,,,,,,,,,,,1,0,1,0,23,0,23,0,,,,,,,23,,,0.2,1732.3598281891755,X,None,nogo,None,1,1733.1604430737207,,,,,,,,,,,,,,,,,,35 ,001,22,w,Psychologie 100% Bachelor,2023-01-17_14h59.50.571,00_bat_bachelor,2022.2.4,59.991477578276815,
,,,,,,,,,,,,1,0,1,0,24,0,24,0,,,,,,,24,,,0.2,1733.3607469765993,Y,d,go,d,1,,0.22647576812596526,,,,,,,,,,,,,,,,,35 ,001,22,w,Psychologie 100% Bachelor,2023-01-17_14h59.50.571,00_bat_bachelor,2022.2.4,59.991477578276815,
,,,,,,,,,,,,1,0,1,0,25,0,25,0,,,,,,,25,,,0.2,1733.8944810208486,X,l,go,l,1,,0.5406307673256379,,,,,,,,,,,,,,,,,35 ,001,22,w,Psychologie 100% Bachelor,2023-01-17_14h59.50.571,00_bat_bachelor,2022.2.4,59.991477578276815,
,,,,,,,,,,,,1,0,1,0,26,0,26,0,,,,,,,26,,,0.2,1734.7451254569023,Y,d,go,d,1,,0.473748375516152,,,,,,,,,,,,,,,,,35 ,001,22,w,Psychologie 100% Bachelor,2023-01-17_14h59.50.571,00_bat_bachelor,2022.2.4,59.991477578276815,
,,,,,,,,,,,,1,0,1,0,27,0,27,0,,,,,,,27,,,0.2,1735.5290790161962,Y,None,nogo,None,1,1736.329651234104,,,,,,,,,,,,,,,,,,35 ,001,22,w,Psychologie 100% Bachelor,2023-01-17_14h59.50.571,00_bat_bachelor,2022.2.4,59.991477578276815,
,,,,,,,,,,,,1,0,1,0,28,0,28,0,,,,,,,28,,,0.2,1736.5298683491565,X,l,go,l,1,,0.4970768490456976,,,,,,,,,,,,,,,,,35 ,001,22,w,Psychologie 100% Bachelor,2023-01-17_14h59.50.571,00_bat_bachelor,2022.2.4,59.991477578276815,
,,,,,,,,,,,,1,0,1,0,29,0,29,0,,,,,,,29,,,0.2,1737.3304459003848,Y,d,go,d,1,,0.3678541238186881,,,,,,,,,,,,,,,,,35 ,001,22,w,Psychologie 100% Bachelor,2023-01-17_14h59.50.571,00_bat_bachelor,2022.2.4,59.991477578276815,
,,,,,,,,,,,,1,0,1,0,30,0,30,0,,,,,,,30,,,0.2,1738.0143165991176,Y,None,nogo,None,1,1738.8148825139942,,,,,,,,,,,,,,,,,,35 ,001,22,w,Psychologie 100% Bachelor,2023-01-17_14h59.50.571,00_bat_bachelor,2022.2.4,59.991477578276815,
,,,,,,,,,,,,1,0,1,0,31,0,31,0,,,,,,,31,,,0.2,1739.0150647199625,X,l,go,l,1,,0.3311986264307052,,,,,,,,,,,,,,,,,35 ,001,22,w,Psychologie 100% Bachelor,2023-01-17_14h59.50.571,00_bat_bachelor,2022.2.4,59.991477578276815,
,,,,,,,,,,,,1,0,1,0,32,0,32,0,,,,,,,32,,,0.2,1739.665658343918,Y,d,go,d,1,,0.3693207897740649,,,,,,,,,,,,,,,,,35 ,001,22,w,Psychologie 100% Bachelor,2023-01-17_14h59.50.571,00_bat_bachelor,2022.2.4,59.991477578276815,
,,,,,,,,,,,,1,0,1,0,33,0,33,0,,,,,,,33,,,0.2,1740.349483466911,X,l,go,l,1,,0.5496028841880616,,,,,,,,,,,,,,,,,35 ,001,22,w,Psychologie 100% Bachelor,2023-01-17_14h59.50.571,00_bat_bachelor,2022.2.4,59.991477578276815,
,,,,,,,,,,,,1,0,1,0,34,0,34,0,,,,,,,34,,,0.2,1741.2001148120617,X,None,nogo,None,1,1742.0006191512075,,,,,,,,,,,,,,,,,,35 ,001,22,w,Psychologie 100% Bachelor,2023-01-17_14h59.50.571,00_bat_bachelor,2022.2.4,59.991477578276815,
,,,,,,,,,,,,1,0,1,0,35,0,35,0,,,,,,,35,,,0.2,1742.2007247511647,Y,d,go,d,1,,0.29779791536566336,,,,,,,,,,,,,,,,,35 ,001,22,w,Psychologie 100% Bachelor,2023-01-17_14h59.50.571,00_bat_bachelor,2022.2.4,59.991477578276815,
,,,,,,,,,,,,1,0,1,0,36,0,36,0,,,,,,,36,,,0.2,1742.8009770661884,X,l,go,l,1,,0.5614477269264171,,,,,,,,,,,,,,,,,35 ,001,22,w,Psychologie 100% Bachelor,2023-01-17_14h59.50.571,00_bat_bachelor,2022.2.4,59.991477578276815,
,,,,,,,,,,,,1,0,1,0,37,0,37,0,,,,,,,37,,,0.2,1743.6683924031968,X,None,nogo,None,1,1744.4689588029287,,,,,,,,,,,,,,,,,,35 ,001,22,w,Psychologie 100% Bachelor,2023-01-17_14h59.50.571,00_bat_bachelor,2022.2.4,59.991477578276815,
,,,,,,,,,,,,1,0,1,0,38,0,38,0,,,,,,,38,,,0.2,1744.668948039296,Y,d,go,d,1,,0.5332203466823557,,,,,,,,,,,,,,,,,35 ,001,22,w,Psychologie 100% Bachelor,2023-01-17_14h59.50.571,00_bat_bachelor,2022.2.4,59.991477578276815,
,,,,,,,,,,,,1,0,1,0,39,0,39,0,,,,,,,39,,,0.2,1745.5031381802983,X,l,go,l,1,,0.3882381139410427,,,,,,,,,,,,,,,,,35 ,001,22,w,Psychologie 100% Bachelor,2023-01-17_14h59.50.571,00_bat_bachelor,2022.2.4,59.991477578276815,
,,,,,,,,,,,,1,0,1,0,40,0,40,0,,,,,,,40,,,0.2,1746.203502931632,Y,d,go,d,1,,0.632231207753648,,,,,,,,,,,,,,,,,35 ,001,22,w,Psychologie 100% Bachelor,2023-01-17_14h59.50.571,00_bat_bachelor,2022.2.4,59.991477578276815,
,,,,,,,,,,,,1,0,1,0,41,0,41,0,,,,,,,41,,,0.2,1747.1377095089847,X,l,go,l,1,,0.4820848563249456,,,,,,,,,,,,,,,,,35 ,001,22,w,Psychologie 100% Bachelor,2023-01-17_14h59.50.571,00_bat_bachelor,2022.2.4,59.991477578276815,
,,,,,,,,,,,,1,0,1,0,42,0,42,0,,,,,,,42,,,0.2,1747.9215791895258,X,None,nogo,None,1,1748.7221800134866,,,,,,,,,,,,,,,,,,35 ,001,22,w,Psychologie 100% Bachelor,2023-01-17_14h59.50.571,00_bat_bachelor,2022.2.4,59.991477578276815,
,,,,,,,,,,,,1,0,1,0,43,0,43,0,,,,,,,43,,,0.2,1748.922359310367,Y,d,go,d,1,,0.44093093687843066,,,,,,,,,,,,,,,,,35 ,001,22,w,Psychologie 100% Bachelor,2023-01-17_14h59.50.571,00_bat_bachelor,2022.2.4,59.991477578276815,
,,,,,,,,,,,,1,0,1,0,44,0,44,0,,,,,,,44,,,0.2,1749.672776401072,X,l,go,None,0,1750.4735992855276,,,,,,,,,,,,,,,,,,35 ,001,22,w,Psychologie 100% Bachelor,2023-01-17_14h59.50.571,00_bat_bachelor,2022.2.4,59.991477578276815,
,,,,,,,,,,,,1,0,1,0,45,0,45,0,,,,,,,45,,,0.2,1750.6736903400306,X,None,nogo,l,0,,0.5621022720588371,,,,,,,,,,,,,,,,,35 ,001,22,w,Psychologie 100% Bachelor,2023-01-17_14h59.50.571,00_bat_bachelor,2022.2.4,59.991477578276815,
,,,,,,,,,,,,1,0,1,0,46,0,46,0,,,,,,,46,,,0.2,1751.540903495319,Y,d,go,d,1,,0.5421207059989683,,,,,,,,,,,,,,,,,35 ,001,22,w,Psychologie 100% Bachelor,2023-01-17_14h59.50.571,00_bat_bachelor,2022.2.4,59.991477578276815,
,,,,,,,,,,,,1,0,1,0,47,0,47,0,,,,,,,47,,,0.2,1752.3917423555104,X,l,go,l,1,,0.5385677380254492,,,,,,,,,,,,,,,,,35 ,001,22,w,Psychologie 100% Bachelor,2023-01-17_14h59.50.571,00_bat_bachelor,2022.2.4,59.991477578276815,
,,,,,,,,,,,,1,0,1,0,48,0,48,0,,,,,,,48,,,0.2,1753.2423412158241,X,None,nogo,None,1,1754.0427941610687,,,,,,,,,,,,,,,,,,35 ,001,22,w,Psychologie 100% Bachelor,2023-01-17_14h59.50.571,00_bat_bachelor,2022.2.4,59.991477578276815,
,,,,,,,,,,,,1,0,1,0,49,0,49,0,,,,,,,49,,,0.2,1754.2432042457076,Y,d,go,d,1,,0.4480756606790237,,,,,,,,,,,,,,,,,35 ,001,22,w,Psychologie 100% Bachelor,2023-01-17_14h59.50.571,00_bat_bachelor,2022.2.4,59.991477578276815,
,,,,,,,,,,,,1,0,1,0,50,0,50,0,,,,,,,50,,,0.2,1754.9934884880058,X,l,go,l,1,,0.5294748939486453,,,,,,,,,,,,,,,,,35 ,001,22,w,Psychologie 100% Bachelor,2023-01-17_14h59.50.571,00_bat_bachelor,2022.2.4,59.991477578276815,
,,,,,,,,,,,,1,0,1,0,51,0,51,0,,,,,,,51,,,0.2,1755.8274623866746,Y,d,go,None,0,1756.6282552105404,,,,,,,,,,,,,,,,,,35 ,001,22,w,Psychologie 100% Bachelor,2023-01-17_14h59.50.571,00_bat_bachelor,2022.2.4,59.991477578276815,
,,,,,,,,,,,,1,0,1,0,52,0,52,0,,,,,,,52,,,0.2,1756.828201295415,X,l,go,None,0,1757.6289989677607,,,,,,,,,,,,,,,,,,35 ,001,22,w,Psychologie 100% Bachelor,2023-01-17_14h59.50.571,00_bat_bachelor,2022.2.4,59.991477578276815,
,,,,,,,,,,,,1,0,1,0,53,0,53,0,,,,,,,53,,,0.2,1757.828994992,Y,d,go,d,1,,0.494226911032456,,,,,,,,,,,,,,,,,35 ,001,22,w,Psychologie 100% Bachelor,2023-01-17_14h59.50.571,00_bat_bachelor,2022.2.4,59.991477578276815,
,,,,,,,,,,,,1,0,1,0,54,0,54,0,,,,,,,54,,,0.2,1758.6295492705103,X,l,go,l,1,,0.6365943571581738,,,,,,,,,,,,,,,,,35 ,001,22,w,Psychologie 100% Bachelor,2023-01-17_14h59.50.571,00_bat_bachelor,2022.2.4,59.991477578276815,
,,,,,,,,,,,,1,0,1,0,55,0,55,0,,,,,,,55,,,0.2,1759.5805044458102,Y,d,go,d,1,,0.5666317244031234,,,,,,,,,,,,,,,,,35 ,001,22,w,Psychologie 100% Bachelor,2023-01-17_14h59.50.571,00_bat_bachelor,2022.2.4,59.991477578276815,
,,,,,,,,,,,,1,0,1,0,56,0,56,0,,,,,,,56,,,0.2,1760.447851419216,X,l,go,l,1,,0.48329940118128434,,,,,,,,,,,,,,,,,35 ,001,22,w,Psychologie 100% Bachelor,2023-01-17_14h59.50.571,00_bat_bachelor,2022.2.4,59.991477578276815,
,,,,,,,,,,,,1,0,1,0,57,0,57,0,,,,,,,57,,,0.2,1761.2317467967223,Y,d,go,d,1,,0.4345857278385665,,,,,,,,,,,,,,,,,35 ,001,22,w,Psychologie 100% Bachelor,2023-01-17_14h59.50.571,00_bat_bachelor,2022.2.4,59.991477578276815,
,,,,,,,,,,,,1,0,1,0,58,0,58,0,,,,,,,58,,,0.2,1761.9823277661344,Y,None,nogo,l,0,,0.4688625597045757,,,,,,,,,,,,,,,,,35 ,001,22,w,Psychologie 100% Bachelor,2023-01-17_14h59.50.571,00_bat_bachelor,2022.2.4,59.991477578276815,
,,,,,,,,,,,,1,0,1,0,59,0,59,0,,,,,,,59,,,0.2,1762.7661232649116,X,l,go,None,0,,,,,,,,,,,,,,,,,,,35 ,001,22,w,Psychologie 100% Bachelor,2023-01-17_14h59.50.571,00_bat_bachelor,2022.2.4,59.991477578276815,
,,,,,,,,,,,,1,0,1,0,60,0,60,0,,,,,,,60,,,0.2,1763.7670376887108,Y,d,go,None,0,1764.567497906668,,,,,,,,,,,,,,,,,,35 ,001,22,w,Psychologie 100% Bachelor,2023-01-17_14h59.50.571,00_bat_bachelor,2022.2.4,59.991477578276815,
,,,,,,,,,,,,1,0,1,0,61,0,61,0,,,,,,,61,,,0.2,1764.7677998701547,X,l,go,l,1,,0.3392083195212763,,,,,,,,,,,,,,,,,35 ,001,22,w,Psychologie 100% Bachelor,2023-01-17_14h59.50.571,00_bat_bachelor,2022.2.4,59.991477578276815,
,,,,,,,,,,,,1,0,1,0,62,0,62,0,,,,,,,62,,,0.2,1765.4181219790917,Y,d,go,d,1,,0.5048959967680275,,,,,,,,,,,,,,,,,35 ,001,22,w,Psychologie 100% Bachelor,2023-01-17_14h59.50.571,00_bat_bachelor,2022.2.4,59.991477578276815,
,,,,,,,,,,,,1,0,1,0,63,0,63,0,,,,,,,63,,,0.2,1766.2353783101134,X,l,go,None,0,,,,,,,,,,,,,,,,,,,35 ,001,22,w,Psychologie 100% Bachelor,2023-01-17_14h59.50.571,00_bat_bachelor,2022.2.4,59.991477578276815,
,,,,,,,,,,,,1,0,1,0,64,0,64,0,,,,,,,64,,,0.2,1767.2363387944933,X,None,nogo,None,1,,,,,,,,,,,,,,,,,,,35 ,001,22,w,Psychologie 100% Bachelor,2023-01-17_14h59.50.571,00_bat_bachelor,2022.2.4,59.991477578276815,
,,,,,,,,,,,,1,0,1,0,65,0,65,0,,,,,,,65,,,0.2,1768.2371150365507,Y,d,go,None,0,1769.037456951526,,,,,,,,,,,,,,,,,,35 ,001,22,w,Psychologie 100% Bachelor,2023-01-17_14h59.50.571,00_bat_bachelor,2022.2.4,59.991477578276815,
,,,,,,,,,,,,1,0,1,0,66,0,66,0,,,,,,,66,,,0.2,1769.2379063088883,X,l,go,l,1,,0.46205674481461756,,,,,,,,,,,,,,,,,35 ,001,22,w,Psychologie 100% Bachelor,2023-01-17_14h59.50.571,00_bat_bachelor,2022.2.4,59.991477578276815,
,,,,,,,,,,,,1,0,1,0,67,0,67,0,,,,,,,67,,,0.2,1770.0051001187385,Y,d,go,d,1,,0.5265784104994964,,,,,,,,,,,,,,,,,35 ,001,22,w,Psychologie 100% Bachelor,2023-01-17_14h59.50.571,00_bat_bachelor,2022.2.4,59.991477578276815,
,,,,,,,,,,,,1,0,1,0,68,0,68,0,,,,,,,68,,,0.2,1770.8390643204475,X,l,go,l,1,,0.5880537746415939,,,,,,,,,,,,,,,,,35 ,001,22,w,Psychologie 100% Bachelor,2023-01-17_14h59.50.571,00_bat_bachelor,2022.2.4,59.991477578276815,
,,,,,,,,,,,,1,0,1,0,69,0,69,0,,,,,,,69,,,0.2,1771.7397606110171,Y,d,go,d,1,,0.5517910043417942,,,,,,,,,,,,,,,,,35 ,001,22,w,Psychologie 100% Bachelor,2023-01-17_14h59.50.571,00_bat_bachelor,2022.2.4,59.991477578276815,
,,,,,,,,,,,,1,0,1,0,70,0,70,0,,,,,,,70,,,0.2,1772.6070969177672,X,l,go,None,0,1773.407678347794,,,,,,,,,,,,,,,,,,35 ,001,22,w,Psychologie 100% Bachelor,2023-01-17_14h59.50.571,00_bat_bachelor,2022.2.4,59.991477578276815,
,,,,,,,,,,,,1,0,1,0,71,0,71,0,,,,,,,71,,,0.2,1773.607880432537,X,None,nogo,None,1,1774.4084831958899,,,,,,,,,,,,,,,,,,35 ,001,22,w,Psychologie 100% Bachelor,2023-01-17_14h59.50.571,00_bat_bachelor,2022.2.4,59.991477578276815,
,,,,,,,,,,,,1,0,1,0,72,0,72,0,,,,,,,72,,,0.2,1774.6086183715815,Y,d,go,d,1,,0.46641795482719317,,,,,,,,,,,,,,,,,35 ,001,22,w,Psychologie 100% Bachelor,2023-01-17_14h59.50.571,00_bat_bachelor,2022.2.4,59.991477578276815,
,,,,,,,,,,,,1,0,1,0,73,0,73,0,,,,,,,73,,,0.2,1775.3758015147614,X,l,go,None,0,1776.1764571265667,,,,,,,,,,,,,,,,,,35 ,001,22,w,Psychologie 100% Bachelor,2023-01-17_14h59.50.571,00_bat_bachelor,2022.2.4,59.991477578276815,
,,,,,,,,,,,,1,0,1,0,74,0,74,0,,,,,,,74,,,0.2,1776.3763624841813,X,None,nogo,None,1,1777.1772527625435,,,,,,,,,,,,,,,,,,35 ,001,22,w,Psychologie 100% Bachelor,2023-01-17_14h59.50.571,00_bat_bachelor,2022.2.4,59.991477578276815,
,,,,,,,,,,,,1,0,1,0,75,0,75,0,,,,,,,75,,,0.2,1777.3771678171324,Y,d,go,d,1,,0.5449832500598859,,,,,,,,,,,,,,,,,35 ,001,22,w,Psychologie 100% Bachelor,2023-01-17_14h59.50.571,00_bat_bachelor,2022.2.4,59.991477578276815,
,,,,,,,,,,,,1,0,1,0,76,0,76,0,,,,,,,76,,,0.2,1778.2280018288438,X,l,go,l,1,,0.4477168729790719,,,,,,,,,,,,,,,,,35 ,001,22,w,Psychologie 100% Bachelor,2023-01-17_14h59.50.571,00_bat_bachelor,2022.2.4,59.991477578276815,
,,,,,,,,,,,,1,0,1,0,77,0,77,0,,,,,,,77,,,0.2,1778.9786109194538,X,None,nogo,None,1,,,,,,,,,,,,,,,,,,,35 ,001,22,w,Psychologie 100% Bachelor,2023-01-17_14h59.50.571,00_bat_bachelor,2022.2.4,59.991477578276815,
,,,,,,,,,,,,1,0,1,0,78,0,78,0,,,,,,,78,,,0.2,1779.9791781919048,X,None,nogo,None,1,,,,,,,,,,,,,,,,,,,35 ,001,22,w,Psychologie 100% Bachelor,2023-01-17_14h59.50.571,00_bat_bachelor,2022.2.4,59.991477578276815,
,,,,,,,,,,,,1,0,1,0,79,0,79,0,,,,,,,79,,,0.2,1780.98013916114,Y,d,go,d,1,,0.44696244910301175,,,,,,,,,,,,,,,,,35 ,001,22,w,Psychologie 100% Bachelor,2023-01-17_14h59.50.571,00_bat_bachelor,2022.2.4,59.991477578276815,
,,,,,,,,,,,,1,0,1,0,80,0,80,0,,,,,,,80,,,0.2,1781.7306498275575,X,l,go,l,1,,0.6408993247750914,,,,,,,,,,,,,,,,,35 ,001,22,w,Psychologie 100% Bachelor,2023-01-17_14h59.50.571,00_bat_bachelor,2022.2.4,59.991477578276815,
,,,,,,,,,,,,1,0,1,0,81,0,81,0,,,,,,,81,,,0.2,1782.6816311846633,Y,d,go,None,0,1783.4818431603198,,,,,,,,,,,,,,,,,,35 ,001,22,w,Psychologie 100% Bachelor,2023-01-17_14h59.50.571,00_bat_bachelor,2022.2.4,59.991477578276815,
,,,,,,,,,,,,1,0,1,0,82,0,82,0,,,,,,,82,,,0.2,1783.6821771237883,X,l,go,None,0,1784.4827973416686,,,,,,,,,,,,,,,,,,35 ,001,22,w,Psychologie 100% Bachelor,2023-01-17_14h59.50.571,00_bat_bachelor,2022.2.4,59.991477578276815,
,,,,,,,,,,,,1,0,1,0,83,0,83,0,,,,,,,83,,,0.2,1784.6830571233586,Y,d,go,d,1,,0.5355379212996922,,,,,,,,,,,,,,,,,35 ,001,22,w,Psychologie 100% Bachelor,2023-01-17_14h59.50.571,00_bat_bachelor,2022.2.4,59.991477578276815,
,,,,,,,,,,,,1,0,1,0,84,0,84,0,,,,,,,84,,,0.2,1785.5336283473298,X,l,go,None,0,,,,,,,,,,,,,,,,,,,35 ,001,22,w,Psychologie 100% Bachelor,2023-01-17_14h59.50.571,00_bat_bachelor,2022.2.4,59.991477578276815,
,,,,,,,,,,,,1,0,1,0,85,0,85,0,,,,,,,85,,,0.2,1786.534346407585,Y,d,go,d,1,,0.4776208584808046,,,,,,,,,,,,,,,,,35 ,001,22,w,Psychologie 100% Bachelor,2023-01-17_14h59.50.571,00_bat_bachelor,2022.2.4,59.991477578276815,
,,,,,,,,,,,,1,0,1,0,86,0,86,0,,,,,,,86,,,0.2,1787.3181166942377,Y,None,nogo,None,1,1788.1188949726493,,,,,,,,,,,,,,,,,,35 ,001,22,w,Psychologie 100% Bachelor,2023-01-17_14h59.50.571,00_bat_bachelor,2022.2.4,59.991477578276815,
,,,,,,,,,,,,1,0,1,0,87,0,87,0,,,,,,,87,,,0.2,1788.3189889362402,X,l,go,l,1,,0.4512742045772029,,,,,,,,,,,,,,,,,35 ,001,22,w,Psychologie 100% Bachelor,2023-01-17_14h59.50.571,00_bat_bachelor,2022.2.4,59.991477578276815,
,,,,,,,,,,,,1,0,1,0,88,0,88,0,,,,,,,88,,,0.2,1789.0861163218797,Y,d,go,d,1,,0.5804833540605614,,,,,,,,,,,,,,,,,35 ,001,22,w,Psychologie 100% Bachelor,2023-01-17_14h59.50.571,00_bat_bachelor,2022.2.4,59.991477578276815,
,,,,,,,,,,,,1,0,1,0,89,0,89,0,,,,,,,89,,,0.2,1789.9704785597569,X,l,go,None,0,1790.770972232247,,,,,,,,,,,,,,,,,,35 ,001,22,w,Psychologie 100% Bachelor,2023-01-17_14h59.50.571,00_bat_bachelor,2022.2.4,59.991477578276815,
,,,,,,,,,,,,1,0,1,0,90,0,90,0,,,,,,,90,,,0.2,1790.9709895898122,Y,d,go,None,0,,,,,,,,,,,,,,,,,,,35 ,001,22,w,Psychologie 100% Bachelor,2023-01-17_14h59.50.571,00_bat_bachelor,2022.2.4,59.991477578276815,
,,,,,,,,,,,,1,0,1,0,91,0,91,0,,,,,,,91,,,0.2,1791.9718933469558,Y,None,nogo,None,1,1792.7724636254716,,,,,,,,,,,,,,,,,,35 ,001,22,w,Psychologie 100% Bachelor,2023-01-17_14h59.50.571,00_bat_bachelor,2022.2.4,59.991477578276815,
,,,,,,,,,,,,1,0,1,0,92,0,92,0,,,,,,,92,,,0.2,1792.9726332253922,X,l,go,l,1,,0.40615616586001124,,,,,,,,,,,,,,,,,35 ,001,22,w,Psychologie 100% Bachelor,2023-01-17_14h59.50.571,00_bat_bachelor,2022.2.4,59.991477578276815,
,,,,,,,,,,,,1,0,1,0,93,0,93,0,,,,,,,93,,,0.2,1793.6896185747319,Y,d,go,d,1,,0.5690787535277195,,,,,,,,,,,,,,,,,35 ,001,22,w,Psychologie 100% Bachelor,2023-01-17_14h59.50.571,00_bat_bachelor,2022.2.4,59.991477578276815,
,,,,,,,,,,,,1,0,1,0,94,0,94,0,,,,,,,94,,,0.2,1794.573829055109,Y,None,nogo,d,0,,0.5811815355409635,,,,,,,,,,,,,,,,,35 ,001,22,w,Psychologie 100% Bachelor,2023-01-17_14h59.50.571,00_bat_bachelor,2022.2.4,59.991477578276815,
,,,,,,,,,,,,1,0,1,0,95,0,95,0,,,,,,,95,,,0.2,1795.4578805052588,X,l,go,l,1,,0.4812654627748998,,,,,,,,,,,,,,,,,35 ,001,22,w,Psychologie 100% Bachelor,2023-01-17_14h59.50.571,00_bat_bachelor,2022.2.4,59.991477578276815,
,,,,,,,,,,,,1,0,1,0,96,0,96,0,,,,,,,96,,,0.2,1796.2417346706643,Y,d,go,d,1,,0.5293575606774539,,,,,,,,,,,,,,,,,35 ,001,22,w,Psychologie 100% Bachelor,2023-01-17_14h59.50.571,00_bat_bachelor,2022.2.4,59.991477578276815,
,,,,,,,,,,,,1,0,1,0,97,0,97,0,,,,,,,97,,,0.2,1797.0757769329502,X,l,go,None,0,1797.8761755751766,,,,,,,,,,,,,,,,,,35 ,001,22,w,Psychologie 100% Bachelor,2023-01-17_14h59.50.571,00_bat_bachelor,2022.2.4,59.991477578276815,
,,,,,,,,,,,,1,0,1,0,98,0,98,0,,,,,,,98,,,0.2,1798.0764954780607,X,None,nogo,None,1,1798.8770652717212,,,,,,,,,,,,,,,,,,35 ,001,22,w,Psychologie 100% Bachelor,2023-01-17_14h59.50.571,00_bat_bachelor,2022.2.4,59.991477578276815,
,,,,,,,,,,,,1,0,1,0,99,0,99,0,,,,,,,99,,,0.2,1799.0771131747315,Y,d,go,d,1,,0.49448097152344417,,,,,,,,,,,,,,,,,35 ,001,22,w,Psychologie 100% Bachelor,2023-01-17_14h59.50.571,00_bat_bachelor,2022.2.4,59.991477578276815,
,,,,,,,,,,,,1,0,1,0,100,0,100,0,,,,,,,100,,,0.2,1799.8776761805202,X,l,go,None,0,,,,,,,,,,,,,,,,,,,35 ,001,22,w,Psychologie 100% Bachelor,2023-01-17_14h59.50.571,00_bat_bachelor,2022.2.4,59.991477578276815,
,,,,,,,,,,,,1,0,1,0,101,0,101,0,,,,,,,101,,,0.2,1800.8786439376272,X,None,nogo,None,1,1801.6792151858244,,,,,,,,,,,,,,,,,,35 ,001,22,w,Psychologie 100% Bachelor,2023-01-17_14h59.50.571,00_bat_bachelor,2022.2.4,59.991477578276815,
,,,,,,,,,,,,1,0,1,0,102,0,102,0,,,,,,,102,,,0.2,1801.879201513104,Y,d,go,d,1,,0.45989820040995255,,,,,,,,,,,,,,,,,35 ,001,22,w,Psychologie 100% Bachelor,2023-01-17_14h59.50.571,00_bat_bachelor,2022.2.4,59.991477578276815,
,,,,,,,,,,,,1,0,1,0,103,0,103,0,,,,,,,103,,,0.2,1802.646636292542,X,l,go,l,1,,0.4121566477988381,,,,,,,,,,,,,,,,,35 ,001,22,w,Psychologie 100% Bachelor,2023-01-17_14h59.50.571,00_bat_bachelor,2022.2.4,59.991477578276815,
,,,,,,,,,,,,1,0,1,0,104,0,104,0,,,,,,,104,,,0.2,1803.3638180054113,X,None,nogo,None,1,,,,,,,,,,,,,,,,,,,35 ,001,22,w,Psychologie 100% Bachelor,2023-01-17_14h59.50.571,00_bat_bachelor,2022.2.4,59.991477578276815,
,,,,,,,,,,,,1,0,1,0,105,0,105,0,,,,,,,105,,,0.2,1804.364650005009,Y,d,go,None,0,,,,,,,,,,,,,,,,,,,35 ,001,22,w,Psychologie 100% Bachelor,2023-01-17_14h59.50.571,00_bat_bachelor,2022.2.4,59.991477578276815,
,,,,,,,,,,,,1,0,1,0,106,0,106,0,,,,,,,106,,,0.2,1805.3651843077823,X,l,go,l,1,,0.46123104824800976,,,,,,,,,,,,,,,,,35 ,001,22,w,Psychologie 100% Bachelor,2023-01-17_14h59.50.571,00_bat_bachelor,2022.2.4,59.991477578276815,
,,,,,,,,,,,,1,0,1,0,107,0,107,0,,,,,,,107,,,0.2,1806.1326229659899,Y,d,go,None,0,1806.9330754263792,,,,,,,,,,,,,,,,,,35 ,001,22,w,Psychologie 100% Bachelor,2023-01-17_14h59.50.571,00_bat_bachelor,2022.2.4,59.991477578276815,
,,,,,,,,,,,,1,0,1,0,108,0,108,0,,,,,,,108,,,0.2,1807.1336241776298,Y,None,nogo,None,1,1807.9339864562498,,,,,,,,,,,,,,,,,,35 ,001,22,w,Psychologie 100% Bachelor,2023-01-17_14h59.50.571,00_bat_bachelor,2022.2.4,59.991477578276815,
,,,,,,,,,,,,1,0,1,0,109,0,109,0,,,,,,,109,,,0.2,1808.1341206622456,Y,None,nogo,None,1,1808.9347757891956,,,,,,,,,,,,,,,,,,35 ,001,22,w,Psychologie 100% Bachelor,2023-01-17_14h59.50.571,00_bat_bachelor,2022.2.4,59.991477578276815,
,,,,,,,,,,,,1,0,1,0,110,0,110,0,,,,,,,110,,,0.2,1809.134941995173,X,l,go,l,1,,0.41996464401017874,,,,,,,,,,,,,,,,,35 ,001,22,w,Psychologie 100% Bachelor,2023-01-17_14h59.50.571,00_bat_bachelor,2022.2.4,59.991477578276815,
,,,,,,,,,,,,1,0,1,0,111,0,111,0,,,,,,,111,,,0.2,1809.8686357000552,Y,d,go,d,1,,0.45410135472775437,,,,,,,,,,,,,,,,,35 ,001,22,w,Psychologie 100% Bachelor,2023-01-17_14h59.50.571,00_bat_bachelor,2022.2.4,59.991477578276815,
,,,,,,,,,,,,1,0,1,0,112,0,112,0,,,,,,,112,,,0.2,1810.6356893887569,X,l,go,None,0,,,,,,,,,,,,,,,,,,,35 ,001,22,w,Psychologie 100% Bachelor,2023-01-17_14h59.50.571,00_bat_bachelor,2022.2.4,59.991477578276815,
,,,,,,,,,,,,1,0,1,0,113,0,113,0,,,,,,,113,,,0.2,1811.636757994289,Y,d,go,d,1,,0.49537600138864946,,,,,,,,,,,,,,,,,35 ,001,22,w,Psychologie 100% Bachelor,2023-01-17_14h59.50.571,00_bat_bachelor,2022.2.4,59.991477578276815,
,,,,,,,,,,,,1,0,1,0,114,0,114,0,,,,,,,114,,,0.2,1812.4374485151784,X,l,go,l,1,,0.4945231533201877,,,,,,,,,,,,,,,,,35 ,001,22,w,Psychologie 100% Bachelor,2023-01-17_14h59.50.571,00_bat_bachelor,2022.2.4,59.991477578276815,
,,,,,,,,,,,,1,0,1,0,115,0,115,0,,,,,,,115,,,0.2,1813.2378660664835,X,None,nogo,None,1,,,,,,,,,,,,,,,,,,,35 ,001,22,w,Psychologie 100% Bachelor,2023-01-17_14h59.50.571,00_bat_bachelor,2022.2.4,59.991477578276815,
,,,,,,,,,,,,1,0,1,0,116,0,116,0,,,,,,,116,,,0.2,1814.2387223084952,Y,d,go,d,1,,0.46797916617651936,,,,,,,,,,,,,,,,,35 ,001,22,w,Psychologie 100% Bachelor,2023-01-17_14h59.50.571,00_bat_bachelor,2022.2.4,59.991477578276815,
,,,,,,,,,,,,1,0,1,0,117,0,117,0,,,,,,,117,,,0.2,1815.0225759890454,X,l,go,l,1,,0.4358119090611581,,,,,,,,,,,,,,,,,35 ,001,22,w,Psychologie 100% Bachelor,2023-01-17_14h59.50.571,00_bat_bachelor,2022.2.4,59.991477578276815,
,,,,,,,,,,,,1,0,1,0,118,0,118,0,,,,,,,118,,,0.2,1815.7732602311444,X,None,nogo,None,1,,,,,,,,,,,,,,,,,,,35 ,001,22,w,Psychologie 100% Bachelor,2023-01-17_14h59.50.571,00_bat_bachelor,2022.2.4,59.991477578276815,
,,,,,,,,,,,,1,0,1,0,119,0,119,0,,,,,,,119,,,0.2,1816.7740296853153,Y,d,go,d,1,,0.4936387901107082,,,,,,,,,,,,,,,,,35 ,001,22,w,Psychologie 100% Bachelor,2023-01-17_14h59.50.571,00_bat_bachelor,2022.2.4,59.991477578276815,
,,,,,,,,,,,,1,0,1,0,120,0,120,0,,,,,,,120,,,0.2,1817.574592691104,X,l,go,l,1,,0.5560140325833345,,,,,,,,,,,,,,,,,35 ,001,22,w,Psychologie 100% Bachelor,2023-01-17_14h59.50.571,00_bat_bachelor,2022.2.4,59.991477578276815,
,,,,,,,,,,,,1,0,1,0,121,0,121,0,,,,,,,121,,,0.2,1818.4418645130354,X,None,nogo,None,1,,,,,,,,,,,,,,,,,,,35 ,001,22,w,Psychologie 100% Bachelor,2023-01-17_14h59.50.571,00_bat_bachelor,2022.2.4,59.991477578276815,
,,,,,,,,,,,,1,0,1,0,122,0,122,0,,,,,,,122,,,0.2,1819.4426339672063,Y,d,go,d,1,,0.448894569373806,,,,,,,,,,,,,,,,,35 ,001,22,w,Psychologie 100% Bachelor,2023-01-17_14h59.50.571,00_bat_bachelor,2022.2.4,59.991477578276815,
,,,,,,,,,,,,1,0,1,0,123,0,123,0,,,,,,,123,,,0.2,1820.1932449972082,X,l,go,None,0,,,,,,,,,,,,,,,,,,,35 ,001,22,w,Psychologie 100% Bachelor,2023-01-17_14h59.50.571,00_bat_bachelor,2022.2.4,59.991477578276815,
,,,,,,,,,,,,1,0,1,0,124,0,124,0,,,,,,,124,,,0.2,1821.1939955423004,X,None,nogo,None,1,1821.9946807298402,,,,,,,,,,,,,,,,,,35 ,001,22,w,Psychologie 100% Bachelor,2023-01-17_14h59.50.571,00_bat_bachelor,2022.2.4,59.991477578276815,
,,,,,,,,,,,,1,0,1,0,125,0,125,0,,,,,,,125,,,0.2,1822.1947218449786,Y,d,go,d,1,,0.4811010992125375,,,,,,,,,,,,,,,,,35 ,001,22,w,Psychologie 100% Bachelor,2023-01-17_14h59.50.571,00_bat_bachelor,2022.2.4,59.991477578276815,
,,,,,,,,,,,,1,0,1,0,126,0,126,0,,,,,,,126,,,0.2,1822.9786797679117,X,l,go,None,0,,,,,,,,,,,,,,,,,,,35 ,001,22,w,Psychologie 100% Bachelor,2023-01-17_14h59.50.571,00_bat_bachelor,2022.2.4,59.991477578276815,
,,,,,,,,,,,,1,0,1,0,127,0,127,0,,,,,,,127,,,0.2,1823.9791437676904,Y,d,go,d,1,,0.48761261120671406,,,,,,,,,,,,,,,,,35 ,001,22,w,Psychologie 100% Bachelor,2023-01-17_14h59.50.571,00_bat_bachelor,2022.2.4,59.991477578276815,
,,,,,,,,,,,,1,0,1,0,128,0,128,0,,,,,,,128,,,0.2,1824.780043258157,Y,None,nogo,None,1,,,,,,,,,,,,,,,,,,,35 ,001,22,w,Psychologie 100% Bachelor,2023-01-17_14h59.50.571,00_bat_bachelor,2022.2.4,59.991477578276815,
,,,,,,,,,,,,1,0,1,0,129,0,129,0,,,,,,,129,,,0.2,1825.7811215606635,X,l,go,None,0,,,,,,,,,,,,,,,,,,,35 ,001,22,w,Psychologie 100% Bachelor,2023-01-17_14h59.50.571,00_bat_bachelor,2022.2.4,59.991477578276815,
,,,,,,,,,,,,1,0,1,0,130,0,130,0,,,,,,,130,,,0.2,1826.7817106512812,Y,d,go,None,0,1827.5824380206323,,,,,,,,,,,,,,,,,,35 ,001,22,w,Psychologie 100% Bachelor,2023-01-17_14h59.50.571,00_bat_bachelor,2022.2.4,59.991477578276815,
,,,,,,,,,,,,1,0,1,0,131,0,131,0,,,,,,,131,,,0.2,1827.7824456812377,X,l,go,l,1,,0.2843239825015189,,,,,,,,,,,,,,,,,35 ,001,22,w,Psychologie 100% Bachelor,2023-01-17_14h59.50.571,00_bat_bachelor,2022.2.4,59.991477578276815,
,,,,,,,,,,,,1,0,1,0,132,0,132,0,,,,,,,132,,,0.2,1828.3995343517308,X,None,nogo,None,1,,,,,,,,,,,,,,,,,,,35 ,001,22,w,Psychologie 100% Bachelor,2023-01-17_14h59.50.571,00_bat_bachelor,2022.2.4,59.991477578276815,
,,,,,,,,,,,,1,0,1,0,133,0,133,0,,,,,,,133,,,0.2,1829.4002999271179,Y,d,go,d,1,,0.36284273231285624,,,,,,,,,,,,,,,,,35 ,001,22,w,Psychologie 100% Bachelor,2023-01-17_14h59.50.571,00_bat_bachelor,2022.2.4,59.991477578276815,
,,,,,,,,,,,,1,0,1,0,134,0,134,0,,,,,,,134,,,0.2,1830.0674506339565,X,l,go,l,1,,0.41571252486028243,,,,,,,,,,,,,,,,,35 ,001,22,w,Psychologie 100% Bachelor,2023-01-17_14h59.50.571,00_bat_bachelor,2022.2.4,59.991477578276815,
,,,,,,,,,,,,1,0,1,0,135,0,135,0,,,,,,,135,,,0.2,1830.784316710633,Y,d,go,d,1,,0.37068709214509,,,,,,,,,,,,,,,,,35 ,001,22,w,Psychologie 100% Bachelor,2023-01-17_14h59.50.571,00_bat_bachelor,2022.2.4,59.991477578276815,
,,,,,,,,,,,,1,0,1,0,136,0,136,0,,,,,,,136,,,0.2,1831.4684094698605,X,l,go,l,1,,0.2944742806139402,,,,,,,,,,,,,,,,,35 ,001,22,w,Psychologie 100% Bachelor,2023-01-17_14h59.50.571,00_bat_bachelor,2022.2.4,59.991477578276815,
,,,,,,,,,,,,1,0,1,0,137,0,137,0,,,,,,,137,,,0.2,1832.0692101482564,Y,d,go,d,1,,0.3173179059085669,,,,,,,,,,,,,,,,,35 ,001,22,w,Psychologie 100% Bachelor,2023-01-17_14h59.50.571,00_bat_bachelor,2022.2.4,59.991477578276815,
,,,,,,,,,,,,1,0,1,0,138,0,138,0,,,,,,,138,,,0.2,1832.7028559016471,X,l,go,l,1,,0.24539648623613175,,,,,,,,,,,,,,,,,35 ,001,22,w,Psychologie 100% Bachelor,2023-01-17_14h59.50.571,00_bat_bachelor,2022.2.4,59.991477578276815,
,,,,,,,,,,,,1,0,1,0,139,0,139,0,,,,,,,139,,,0.2,1833.2530932106165,Y,d,go,d,1,,0.30157924686500337,,,,,,,,,,,,,,,,,35 ,001,22,w,Psychologie 100% Bachelor,2023-01-17_14h59.50.571,00_bat_bachelor,2022.2.4,59.991477578276815,
,,,,,,,,,,,,1,0,1,0,140,0,140,0,,,,,,,140,,,0.2,1833.8700063660508,X,l,go,l,1,,0.4680208631325513,,,,,,,,,,,,,,,,,35 ,001,22,w,Psychologie 100% Bachelor,2023-01-17_14h59.50.571,00_bat_bachelor,2022.2.4,59.991477578276815,
,,,,,,,,,,,,1,0,1,0,141,0,141,0,,,,,,,141,,,0.2,1834.6541873191745,X,None,nogo,None,1,,,,,,,,,,,,,,,,,,,35 ,001,22,w,Psychologie 100% Bachelor,2023-01-17_14h59.50.571,00_bat_bachelor,2022.2.4,59.991477578276815,
,,,,,,,,,,,,1,0,1,0,142,0,142,0,,,,,,,142,,,0.2,1835.6547216219478,X,None,nogo,None,1,1836.4553127489344,,,,,,,,,,,,,,,,,,35 ,001,22,w,Psychologie 100% Bachelor,2023-01-17_14h59.50.571,00_bat_bachelor,2022.2.4,59.991477578276815,
,,,,,,,,,,,,1,0,1,0,143,0,143,0,,,,,,,143,,,0.2,1836.6557810153754,Y,d,go,d,1,,0.33936153157264926,,,,,,,,,,,,,,,,,35 ,001,22,w,Psychologie 100% Bachelor,2023-01-17_14h59.50.571,00_bat_bachelor,2022.2.4,59.991477578276815,
,,,,,,,,,,,,1,0,1,0,144,0,144,0,,,,,,,144,,,0.2,1837.3062209424388,X,l,go,l,1,,0.29755937002482824,,,,,,,,,,,,,,,,,35 ,001,22,w,Psychologie 100% Bachelor,2023-01-17_14h59.50.571,00_bat_bachelor,2022.2.4,59.991477578276815,
,,,,,,,,,,,,1,0,1,0,145,0,145,0,,,,,,,145,,,0.2,1837.9067297421861,X,None,nogo,None,1,,,,,,,,,,,,,,,,,,,35 ,001,22,w,Psychologie 100% Bachelor,2023-01-17_14h59.50.571,00_bat_bachelor,2022.2.4,59.991477578276815,
,,,,,,,,,,,,1,0,1,0,146,0,146,0,,,,,,,146,,,0.2,1838.9074356812343,Y,d,go,d,1,,0.4558894750807667,,,,,,,,,,,,,,,,,35 ,001,22,w,Psychologie 100% Bachelor,2023-01-17_14h59.50.571,00_bat_bachelor,2022.2.4,59.991477578276815,
,,,,,,,,,,,,1,0,1,0,147,0,147,0,,,,,,,147,,,0.2,1839.6744355517876,X,l,go,l,1,,0.29652761295437813,,,,,,,,,,,,,,,,,35 ,001,22,w,Psychologie 100% Bachelor,2023-01-17_14h59.50.571,00_bat_bachelor,2022.2.4,59.991477578276815,
,,,,,,,,,,,,1,0,1,0,148,0,148,0,,,,,,,148,,,0.2,1840.2748973212583,X,None,nogo,None,1,,,,,,,,,,,,,,,,,,,35 ,001,22,w,Psychologie 100% Bachelor,2023-01-17_14h59.50.571,00_bat_bachelor,2022.2.4,59.991477578276815,
,,,,,,,,,,,,1,0,1,0,149,0,149,0,,,,,,,149,,,0.2,1841.2760556237336,Y,d,go,d,1,,0.3590541280864272,,,,,,,,,,,,,,,,,35 ,001,22,w,Psychologie 100% Bachelor,2023-01-17_14h59.50.571,00_bat_bachelor,2022.2.4,59.991477578276815,
,,,,,,,,,,,,1,0,1,0,150,0,150,0,,,,,,,150,,,0.2,1841.9432184517646,X,l,go,l,1,,0.42883203364908695,,,,,,,,,,,,,,,,,35 ,001,22,w,Psychologie 100% Bachelor,2023-01-17_14h59.50.571,00_bat_bachelor,2022.2.4,59.991477578276815,
,,,,,,,,,,,,1,0,1,0,151,0,151,0,,,,,,,151,,,0.2,1842.6767269446136,X,None,nogo,None,1,,,,,,,,,,,,,,,,,,,35 ,001,22,w,Psychologie 100% Bachelor,2023-01-17_14h59.50.571,00_bat_bachelor,2022.2.4,59.991477578276815,
,,,,,,,,,,,,1,0,1,0,152,0,152,0,,,,,,,152,,,0.2,1843.677746580477,Y,d,go,d,1,,0.46874668095551897,,,,,,,,,,,,,,,,,35 ,001,22,w,Psychologie 100% Bachelor,2023-01-17_14h59.50.571,00_bat_bachelor,2022.2.4,59.991477578276815,
,,,,,,,,,,,,1,0,1,0,153,0,153,0,,,,,,,153,,,0.2,1844.461783533683,X,l,go,l,1,,0.29390458391571883,,,,,,,,,,,,,,,,,35 ,001,22,w,Psychologie 100% Bachelor,2023-01-17_14h59.50.571,00_bat_bachelor,2022.2.4,59.991477578276815,
,,,,,,,,,,,,1,0,1,0,154,0,154,0,,,,,,,154,,,0.2,1845.0618724548403,Y,d,go,d,1,,0.5081284800398862,,,,,,,,,,,,,,,,,35 ,001,22,w,Psychologie 100% Bachelor,2023-01-17_14h59.50.571,00_bat_bachelor,2022.2.4,59.991477578276815,
,,,,,,,,,,,,1,0,1,0,155,0,155,0,,,,,,,155,,,0.2,1845.8793086645746,Y,None,nogo,l,0,,0.4438162688020384,,,,,,,,,,,,,,,,,35 ,001,22,w,Psychologie 100% Bachelor,2023-01-17_14h59.50.571,00_bat_bachelor,2022.2.4,59.991477578276815,
,,,,,,,,,,,,1,0,1,0,156,0,156,0,,,,,,,156,,,0.2,1846.6300297551352,X,l,go,None,0,,,,,,,,,,,,,,,,,,,35 ,001,22,w,Psychologie 100% Bachelor,2023-01-17_14h59.50.571,00_bat_bachelor,2022.2.4,59.991477578276815,
,,,,,,,,,,,,1,0,1,0,157,0,157,0,,,,,,,157,,,0.2,1847.63058539122,Y,d,go,None,0,,,,,,,,,,,,,,,,,,,35 ,001,22,w,Psychologie 100% Bachelor,2023-01-17_14h59.50.571,00_bat_bachelor,2022.2.4,59.991477578276815,
,,,,,,,,,,,,1,0,1,0,158,0,158,0,,,,,,,158,,,0.2,1848.6315085422975,X,l,go,l,1,,0.12288503047602717,,,,,,,,,,,,,,,,,35 ,001,22,w,Psychologie 100% Bachelor,2023-01-17_14h59.50.571,00_bat_bachelor,2022.2.4,59.991477578276815,
,,,,,,,,,,,,1,0,1,0,159,0,159,0,,,,,,,159,,,0.2,1849.0651417865884,Y,d,go,None,0,1849.8656621257396,,,,,,,,,,,,,,,,,,35 ,001,22,w,Psychologie 100% Bachelor,2023-01-17_14h59.50.571,00_bat_bachelor,2022.2.4,59.991477578276815,
,,,,,,,,,,,,1,0,1,0,160,0,160,0,,,,,,,160,,,0.2,1850.0657822711364,X,l,go,l,1,,0.6415572638361482,,,,,,,,,,,,,,,,,35 ,001,22,w,Psychologie 100% Bachelor,2023-01-17_14h59.50.571,00_bat_bachelor,2022.2.4,59.991477578276815,
,,,,,,,,,,,,1,0,1,0,161,0,161,0,,,,,,,161,,,0.2,1851.016720476735,Y,d,go,d,1,,0.569725541092339,,,,,,,,,,,,,,,,,35 ,001,22,w,Psychologie 100% Bachelor,2023-01-17_14h59.50.571,00_bat_bachelor,2022.2.4,59.991477578276815,
,,,,,,,,,,,,1,0,1,0,162,0,162,0,,,,,,,162,,,0.2,1851.9005585936684,X,l,go,l,1,,0.6631257382396143,,,,,,,,,,,,,,,,,35 ,001,22,w,Psychologie 100% Bachelor,2023-01-17_14h59.50.571,00_bat_bachelor,2022.2.4,59.991477578276815,
,,,,,,,,,,,,1,0,1,0,163,0,163,0,,,,,,,163,,,0.2,1852.8679467306938,X,None,nogo,None,1,1853.6687613727117,,,,,,,,,,,,,,,,,,35 ,001,22,w,Psychologie 100% Bachelor,2023-01-17_14h59.50.571,00_bat_bachelor,2022.2.4,59.991477578276815,
