loop_instruction.thisRepN,loop_instruction.thisTrialN,loop_instruction.thisN,loop_instruction.thisIndex,loop_rsi_practice.thisRepN,loop_rsi_practice.thisTrialN,loop_rsi_practice.thisN,loop_rsi_practice.thisIndex,loop_practice.thisRepN,loop_practice.thisTrialN,loop_practice.thisN,loop_practice.thisIndex,loop_exp.thisRepN,loop_exp.thisTrialN,loop_exp.thisN,loop_exp.thisIndex,loop_trials.thisRepN,loop_trials.thisTrialN,loop_trials.thisN,loop_trials.thisIndex,map_condition,map_x_key,map_y_key,key_resp_welcome.started,key_resp_welcome.keys,key_resp_welcome.rt,index,text_empty_rsi_practice.started,text_empty_rsi_practice.stopped,rsi,stimulus.started,stimulus.stopped,stimulus,correct,trial_type,key_resp_trial.keys,key_resp_trial.corr,key_resp_trial.rt,key_resp_instruction_rsi.started,key_resp_instruction_rsi.keys,key_resp_instruction_rsi.rt,key_resp_instruction_rsi.stopped,key_resp_instruction_final.started,key_resp_instruction_final.keys,key_resp_instruction_final.rt,key_resp_break.started,key_resp_break.keys,key_resp_break.rt,key_resp_break.stopped,key_resp_end_screen.started,image_end_screen.started,key_resp_end_screen.stopped,image_end_screen.stopped,key_resp_end_screen.keys,participant,session,Alter,Geschlecht (w/m/d/andere),Studiengang,date,expName,psychopyVersion,frameRate,
,,,,0,0,0,0,0,0,0,0,,,,,,,,,0,d,l,681.9936921242625,j,15.731050765141845,0,697.7487933339144,698.7629688422021,1,698.7629688422021,699.5635958479543,X,d,go,None,0,,,,,,,,,,,,,,,,,,36,001,19,w,B. Sc. Psychologie,2023-01-18_09h00.09.922,00_bat_bachelor,2022.2.4,60.00753548443612,
,,,,0,0,0,0,1,0,1,0,,,,,,,,,,,,,,,1,700.1640338598518,701.1647339807241,1,701.1647339807241,,Y,l,go,None,0,,,,,,,,,,,,,,,,,,36,001,19,w,B. Sc. Psychologie,2023-01-18_09h00.09.922,00_bat_bachelor,2022.2.4,60.00753548443612,
,,,,0,0,0,0,2,0,2,0,,,,,,,,,,,,,,,2,702.5658906347235,703.5670261493069,1,703.5670261493069,,X,d,go,None,0,,,,,,,,,,,,,,,,,,36,001,19,w,B. Sc. Psychologie,2023-01-18_09h00.09.922,00_bat_bachelor,2022.2.4,60.00753548443612,
,,,,0,0,0,0,3,0,3,0,,,,,,,,,,,,,,,3,704.968214803288,705.9692106815928,1,705.9692106815928,,Y,l,go,l,1,0.5835478063381743,,,,,,,,,,,,,,,,,36,001,19,w,B. Sc. Psychologie,2023-01-18_09h00.09.922,00_bat_bachelor,2022.2.4,60.00753548443612,
,,,,0,0,0,0,4,0,4,0,,,,,,,,,,,,,,,4,707.286665557971,708.2875140424003,1,708.2875140424003,,X,d,go,d,1,0.3611149445059709,,,,,,,,,,,,,,,,,36,001,19,w,B. Sc. Psychologie,2023-01-18_09h00.09.922,00_bat_bachelor,2022.2.4,60.00753548443612,
,,,,0,0,0,0,5,0,5,0,,,,,,,,,,,,,,,5,709.3717632136832,710.3724090315518,1,710.3724090315518,,Y,l,go,l,1,0.43604048393899575,,,,,,,,,,,,,,,,,36,001,19,w,B. Sc. Psychologie,2023-01-18_09h00.09.922,00_bat_bachelor,2022.2.4,60.00753548443612,
,,,,0,0,0,0,6,0,6,0,,,,,,,,,,,,,,,6,711.5402285865566,712.5409238589345,1,712.5409238589345,,Y,None,nogo,l,0,0.46045986603712663,,,,,,,,,,,,,,,,,36,001,19,w,B. Sc. Psychologie,2023-01-18_09h00.09.922,00_bat_bachelor,2022.2.4,60.00753548443612,
,,,,0,0,0,0,7,0,7,0,,,,,,,,,,,,,,,7,714.1253293937771,715.1262084236369,1,715.1262084236369,,X,d,go,d,1,0.48359440025524236,,,,,,,,,,,,,,,,,36,001,19,w,B. Sc. Psychologie,2023-01-18_09h00.09.922,00_bat_bachelor,2022.2.4,60.00753548443612,
,,,,0,0,0,0,8,0,8,0,,,,,,,,,,,,,,,8,716.3268764475652,717.3275707502617,1,717.3275707502617,,Y,l,go,l,1,0.4094310422951821,,,,,,,,,,,,,,,,,36,001,19,w,B. Sc. Psychologie,2023-01-18_09h00.09.922,00_bat_bachelor,2022.2.4,60.00753548443612,
,,,,0,0,0,0,9,0,9,0,,,,,,,,,,,,,,,9,718.4621020789782,719.462679048389,1,719.462679048389,,X,d,go,d,1,0.5297165597148705,,,,,,,,,,,,,,,,,36,001,19,w,B. Sc. Psychologie,2023-01-18_09h00.09.922,00_bat_bachelor,2022.2.4,60.00753548443612,
,,,,0,0,0,0,10,0,10,0,,,,,,,,,,,,,,,10,720.7137417145423,721.7144418354146,1,721.7144418354146,722.5150678714854,X,None,nogo,None,1,,,,,,,,,,,,,,,,,,36,001,19,w,B. Sc. Psychologie,2023-01-18_09h00.09.922,00_bat_bachelor,2022.2.4,60.00753548443612,
,,,,0,0,0,0,11,0,11,0,,,,,,,,,,,,,,,11,723.1153822470806,724.1162893981673,1,724.1162893981673,,X,None,nogo,d,0,0.5814741103968117,,,,,,,,,,,,,,,,,36,001,19,w,B. Sc. Psychologie,2023-01-18_09h00.09.922,00_bat_bachelor,2022.2.4,60.00753548443612,
,,,,0,0,0,0,12,0,12,0,,,,,,,,,,,,,,,12,725.8337673533242,726.8345096559788,1,726.8345096559788,,Y,l,go,l,1,0.45488798993756063,,,,,,,,,,,,,,,,,36,001,19,w,B. Sc. Psychologie,2023-01-18_09h00.09.922,00_bat_bachelor,2022.2.4,60.00753548443612,
,,,,0,0,0,0,13,0,13,0,,,,,,,,,,,,,,,13,728.0020223020401,729.0028935743612,1,729.0028935743612,,X,d,go,d,1,0.5906774998584297,,,,,,,,,,,,,,,,,36,001,19,w,B. Sc. Psychologie,2023-01-18_09h00.09.922,00_bat_bachelor,2022.2.4,60.00753548443612,
,,,,0,0,0,0,14,0,14,0,,,,,,,,,,,,,,,14,730.3037865193619,731.3045617917087,1,731.3045617917087,,Y,l,go,l,1,0.46516386372968554,,,,,,,,,,,,,,,,,36,001,19,w,B. Sc. Psychologie,2023-01-18_09h00.09.922,00_bat_bachelor,2022.2.4,60.00753548443612,
,,,,1,0,1,0,0,0,0,0,,,,,,,,,,,,,,,0,755.9566225664748,756.15706465111,0.2,756.15706465111,,X,d,go,d,1,0.46090786581044085,732.495139153878,j,23.437172604579246,,,,,,,,,,,,,,36,001,19,w,B. Sc. Psychologie,2023-01-18_09h00.09.922,00_bat_bachelor,2022.2.4,60.00753548443612,
,,,,1,0,1,0,1,0,1,0,,,,,,,,,,,,,,,1,757.3245312365761,757.5248676243064,0.2,757.5248676243064,,Y,l,go,l,1,0.38812729503843,,,,,,,,,,,,,,,,,36,001,19,w,B. Sc. Psychologie,2023-01-18_09h00.09.922,00_bat_bachelor,2022.2.4,60.00753548443612,
,,,,1,0,1,0,2,0,2,0,,,,,,,,,,,,,,,2,758.6255390906299,758.8257712359773,0.2,758.8257712359773,,X,d,go,d,1,0.3359513203322422,,,,,,,,,,,,,,,,,36,001,19,w,B. Sc. Psychologie,2023-01-18_09h00.09.922,00_bat_bachelor,2022.2.4,60.00753548443612,
,,,,1,0,1,0,3,0,3,0,,,,,,,,,,,,,,,3,759.8763554538891,760.0764843265351,0.2,760.0764843265351,760.877052665659,X,None,nogo,None,1,,,,,,,,,,,,,,,,,,36,001,19,w,B. Sc. Psychologie,2023-01-18_09h00.09.922,00_bat_bachelor,2022.2.4,60.00753548443612,
,,,,1,0,1,0,4,0,4,0,,,,,,,,,,,,,,,4,761.4775648593495,761.6776117926638,0.2,761.6776117926638,,Y,l,go,l,1,0.3808458440180402,,,,,,,,,,,,,,,,,36,001,19,w,B. Sc. Psychologie,2023-01-18_09h00.09.922,00_bat_bachelor,2022.2.4,60.00753548443612,
,,,,1,0,1,0,5,0,5,0,,,,,,,,,,,,,,,5,762.7619807214651,762.9621619577229,0.2,762.9621619577229,,X,d,go,d,1,0.42371564140194096,,,,,,,,,,,,,,,,,36,001,19,w,B. Sc. Psychologie,2023-01-18_09h00.09.922,00_bat_bachelor,2022.2.4,60.00753548443612,
,,,,1,0,1,0,6,0,6,0,,,,,,,,,,,,,,,6,764.096195347287,764.2965336744091,0.2,764.2965336744091,765.0970991044305,X,None,nogo,None,1,,,,,,,,,,,,,,,,,,36,001,19,w,B. Sc. Psychologie,2023-01-18_09h00.09.922,00_bat_bachelor,2022.2.4,60.00753548443612,
,,,,1,0,1,0,7,0,7,0,,,,,,,,,,,,,,,7,765.6975104496814,765.8977556859318,0.2,765.8977556859318,,Y,l,go,l,1,0.38382523649488576,,,,,,,,,,,,,,,,,36,001,19,w,B. Sc. Psychologie,2023-01-18_09h00.09.922,00_bat_bachelor,2022.2.4,60.00753548443612,
,,,,1,0,1,0,8,0,8,0,,,,,,,,,,,,,,,8,766.9820135844639,767.1820939723111,0.2,767.1820939723111,,X,d,go,d,1,0.37912414787570015,,,,,,,,,,,,,,,,,36,001,19,w,B. Sc. Psychologie,2023-01-18_09h00.09.922,00_bat_bachelor,2022.2.4,60.00753548443612,
,,,,1,0,1,0,9,0,9,0,,,,,,,,,,,,,,,9,768.2661749012477,768.466466682934,0.2,768.466466682934,,Y,l,go,l,1,0.3578950672817882,,,,,,,,,,,,,,,,,36,001,19,w,B. Sc. Psychologie,2023-01-18_09h00.09.922,00_bat_bachelor,2022.2.4,60.00753548443612,
,,,,1,0,1,0,10,0,10,0,,,,,,,,,,,,,,,10,769.5504525816068,769.7506250906154,0.2,769.7506250906154,,X,d,go,d,1,0.4190300679183565,,,,,,,,,,,,,,,,,36,001,19,w,B. Sc. Psychologie,2023-01-18_09h00.09.922,00_bat_bachelor,2022.2.4,60.00753548443612,
,,,,1,0,1,0,11,0,11,0,,,,,,,,,,,,,,,11,770.8847069649782,771.0850302618055,0.2,771.0850302618055,771.885636419087,X,None,nogo,None,1,,,,,,,,,,,,,,,,,,36,001,19,w,B. Sc. Psychologie,2023-01-18_09h00.09.922,00_bat_bachelor,2022.2.4,60.00753548443612,
,,,,1,0,1,0,12,0,12,0,,,,,,,,,,,,,,,12,772.4860545522242,772.686059788568,0.2,772.686059788568,,Y,l,go,l,1,0.29862333842902444,,,,,,,,,,,,,,,,,36,001,19,w,B. Sc. Psychologie,2023-01-18_09h00.09.922,00_bat_bachelor,2022.2.4,60.00753548443612,
,,,,1,0,1,0,13,0,13,0,,,,,,,,,,,,,,,13,773.7033092347556,773.9036645315646,0.2,773.9036645315646,,X,d,go,d,1,0.3780211181147024,,,,,,,,,,,,,,,,,36,001,19,w,B. Sc. Psychologie,2023-01-18_09h00.09.922,00_bat_bachelor,2022.2.4,60.00753548443612,
,,,,1,0,1,0,14,0,14,0,,,,,,,,,,,,,,,14,774.9878278846736,775.1879189391911,0.2,775.1879189391911,,Y,l,go,l,1,0.4056865592428949,,,,,,,,,,,,,,,,,36,001,19,w,B. Sc. Psychologie,2023-01-18_09h00.09.922,00_bat_bachelor,2022.2.4,60.00753548443612,
,,,,,,,,,,,,,,,,,,,,,,,,,,,,,,,,,,,,,,776.3460900140053,None,,776.3460900140053,776.3460900140053,space,12.305954728799406,,,,,,,,,,36,001,19,w,B. Sc. Psychologie,2023-01-18_09h00.09.922,00_bat_bachelor,2022.2.4,60.00753548443612,
,,,,,,,,,,,,0,0,0,0,0,0,0,0,,,,,,,0,,,1,789.6820927601948,,X,d,go,d,1,0.34243568082456477,,,,,,,,,,,,,,,,,36,001,19,w,B. Sc. Psychologie,2023-01-18_09h00.09.922,00_bat_bachelor,2022.2.4,60.00753548443612,
,,,,,,,,,,,,0,0,0,0,1,0,1,0,,,,,,,1,,,1,791.1332653899153,,Y,l,go,l,1,0.31667423876933753,,,,,,,,,,,,,,,,,36,001,19,w,B. Sc. Psychologie,2023-01-18_09h00.09.922,00_bat_bachelor,2022.2.4,60.00753548443612,
,,,,,,,,,,,,0,0,0,0,2,0,2,0,,,,,,,2,,,1,792.5507386420504,,X,d,go,d,1,0.4021922578976955,,,,,,,,,,,,,,,,,36,001,19,w,B. Sc. Psychologie,2023-01-18_09h00.09.922,00_bat_bachelor,2022.2.4,60.00753548443612,
,,,,,,,,,,,,0,0,0,0,3,0,3,0,,,,,,,3,,,1,794.068690875778,,X,None,nogo,None,1,,,,,,,,,,,,,,,,,,36,001,19,w,B. Sc. Psychologie,2023-01-18_09h00.09.922,00_bat_bachelor,2022.2.4,60.00753548443612,
,,,,,,,,,,,,0,0,0,0,4,0,4,0,,,,,,,4,,,1,795.870890244405,,Y,l,go,l,1,0.36205215615336783,,,,,,,,,,,,,,,,,36,001,19,w,B. Sc. Psychologie,2023-01-18_09h00.09.922,00_bat_bachelor,2022.2.4,60.00753548443612,
,,,,,,,,,,,,0,0,0,0,5,0,5,0,,,,,,,5,,,1,797.3387557145325,,X,d,go,d,1,0.5098091754480265,,,,,,,,,,,,,,,,,36,001,19,w,B. Sc. Psychologie,2023-01-18_09h00.09.922,00_bat_bachelor,2022.2.4,60.00753548443612,
,,,,,,,,,,,,0,0,0,0,6,0,6,0,,,,,,,6,,,1,798.9731437705923,,Y,l,go,l,1,0.38021069281967357,,,,,,,,,,,,,,,,,36,001,19,w,B. Sc. Psychologie,2023-01-18_09h00.09.922,00_bat_bachelor,2022.2.4,60.00753548443612,
,,,,,,,,,,,,0,0,0,0,7,0,7,0,,,,,,,7,,,1,800.4574262024544,,X,d,go,d,1,0.46297525873524137,,,,,,,,,,,,,,,,,36,001,19,w,B. Sc. Psychologie,2023-01-18_09h00.09.922,00_bat_bachelor,2022.2.4,60.00753548443612,
,,,,,,,,,,,,0,0,0,0,8,0,8,0,,,,,,,8,,,1,802.059313910635,802.8599050376215,X,None,nogo,None,1,,,,,,,,,,,,,,,,,,36,001,19,w,B. Sc. Psychologie,2023-01-18_09h00.09.922,00_bat_bachelor,2022.2.4,60.00753548443612,
,,,,,,,,,,,,0,0,0,0,9,0,9,0,,,,,,,9,,,1,803.8603215222538,,Y,l,go,l,1,0.3884759009233676,,,,,,,,,,,,,,,,,36,001,19,w,B. Sc. Psychologie,2023-01-18_09h00.09.922,00_bat_bachelor,2022.2.4,60.00753548443612,
,,,,,,,,,,,,0,0,0,0,10,0,10,0,,,,,,,10,,,1,805.3778131501458,,X,d,go,d,1,0.35858888510847464,,,,,,,,,,,,,,,,,36,001,19,w,B. Sc. Psychologie,2023-01-18_09h00.09.922,00_bat_bachelor,2022.2.4,60.00753548443612,
,,,,,,,,,,,,0,0,0,0,11,0,11,0,,,,,,,11,,,1,806.8458114686946,,Y,l,go,l,1,0.3473074360517785,,,,,,,,,,,,,,,,,36,001,19,w,B. Sc. Psychologie,2023-01-18_09h00.09.922,00_bat_bachelor,2022.2.4,60.00753548443612,
,,,,,,,,,,,,0,0,0,0,12,0,12,0,,,,,,,12,,,1,808.2966277349624,809.0973919527605,Y,None,nogo,None,1,,,,,,,,,,,,,,,,,,36,001,19,w,B. Sc. Psychologie,2023-01-18_09h00.09.922,00_bat_bachelor,2022.2.4,60.00753548443612,
,,,,,,,,,,,,0,0,0,0,13,0,13,0,,,,,,,13,,,1,810.0981977705669,,X,d,go,d,1,0.4070470434089657,,,,,,,,,,,,,,,,,36,001,19,w,B. Sc. Psychologie,2023-01-18_09h00.09.922,00_bat_bachelor,2022.2.4,60.00753548443612,
,,,,,,,,,,,,0,0,0,0,14,0,14,0,,,,,,,14,,,1,811.6162149739393,,Y,l,go,l,1,0.3767100884579122,,,,,,,,,,,,,,,,,36,001,19,w,B. Sc. Psychologie,2023-01-18_09h00.09.922,00_bat_bachelor,2022.2.4,60.00753548443612,
,,,,,,,,,,,,0,0,0,0,15,0,15,0,,,,,,,15,,,1,813.1170089129591,813.9175617369474,Y,None,nogo,None,1,,,,,,,,,,,,,,,,,,36,001,19,w,B. Sc. Psychologie,2023-01-18_09h00.09.922,00_bat_bachelor,2022.2.4,60.00753548443612,
,,,,,,,,,,,,0,0,0,0,16,0,16,0,,,,,,,16,,,1,814.9182414941897,,X,d,go,d,1,0.41855443178792484,,,,,,,,,,,,,,,,,36,001,19,w,B. Sc. Psychologie,2023-01-18_09h00.09.922,00_bat_bachelor,2022.2.4,60.00753548443612,
,,,,,,,,,,,,0,0,0,0,17,0,17,0,,,,,,,17,,,1,816.45267905324,,Y,l,go,l,1,0.3881772343884222,,,,,,,,,,,,,,,,,36,001,19,w,B. Sc. Psychologie,2023-01-18_09h00.09.922,00_bat_bachelor,2022.2.4,60.00753548443612,
,,,,,,,,,,,,0,0,0,0,18,0,18,0,,,,,,,18,,,1,817.9537464466703,818.7543632705929,Y,None,nogo,None,1,,,,,,,,,,,,,,,,,,36,001,19,w,B. Sc. Psychologie,2023-01-18_09h00.09.922,00_bat_bachelor,2022.2.4,60.00753548443612,
,,,,,,,,,,,,0,0,0,0,19,0,19,0,,,,,,,19,,,1,819.7551259369066,,X,d,go,d,1,0.2545365719415713,,,,,,,,,,,,,,,,,36,001,19,w,B. Sc. Psychologie,2023-01-18_09h00.09.922,00_bat_bachelor,2022.2.4,60.00753548443612,
,,,,,,,,,,,,0,0,0,0,20,0,20,0,,,,,,,20,,,1,821.122839698015,,Y,l,go,l,1,0.5021272397425491,,,,,,,,,,,,,,,,,36,001,19,w,B. Sc. Psychologie,2023-01-18_09h00.09.922,00_bat_bachelor,2022.2.4,60.00753548443612,
,,,,,,,,,,,,0,0,0,0,21,0,21,0,,,,,,,21,,,1,822.7407186711498,,X,d,go,d,1,0.3718456059577875,,,,,,,,,,,,,,,,,36,001,19,w,B. Sc. Psychologie,2023-01-18_09h00.09.922,00_bat_bachelor,2022.2.4,60.00753548443612,
,,,,,,,,,,,,0,0,0,0,22,0,22,0,,,,,,,22,,,1,824.2248774667096,,Y,l,go,l,1,0.29768709643394686,,,,,,,,,,,,,,,,,36,001,19,w,B. Sc. Psychologie,2023-01-18_09h00.09.922,00_bat_bachelor,2022.2.4,60.00753548443612,
,,,,,,,,,,,,0,0,0,0,23,0,23,0,,,,,,,23,,,1,825.6261815145845,,X,d,go,d,1,0.3187329044449143,,,,,,,,,,,,,,,,,36,001,19,w,B. Sc. Psychologie,2023-01-18_09h00.09.922,00_bat_bachelor,2022.2.4,60.00753548443612,
,,,,,,,,,,,,0,0,0,0,24,0,24,0,,,,,,,24,,,1,827.0607325766177,,X,None,nogo,None,1,,,,,,,,,,,,,,,,,,36,001,19,w,B. Sc. Psychologie,2023-01-18_09h00.09.922,00_bat_bachelor,2022.2.4,60.00753548443612,
,,,,,,,,,,,,0,0,0,0,25,0,25,0,,,,,,,25,,,1,828.8617460064124,,Y,l,go,l,1,0.31565654228325,,,,,,,,,,,,,,,,,36,001,19,w,B. Sc. Psychologie,2023-01-18_09h00.09.922,00_bat_bachelor,2022.2.4,60.00753548443612,
,,,,,,,,,,,,0,0,0,0,26,0,26,0,,,,,,,26,,,1,830.2794679857034,,X,d,go,d,1,0.4655032575246878,,,,,,,,,,,,,,,,,36,001,19,w,B. Sc. Psychologie,2023-01-18_09h00.09.922,00_bat_bachelor,2022.2.4,60.00753548443612,
,,,,,,,,,,,,0,0,0,0,27,0,27,0,,,,,,,27,,,1,831.8476374071906,,X,None,nogo,None,1,,,,,,,,,,,,,,,,,,36,001,19,w,B. Sc. Psychologie,2023-01-18_09h00.09.922,00_bat_bachelor,2022.2.4,60.00753548443612,
,,,,,,,,,,,,0,0,0,0,28,0,28,0,,,,,,,28,,,1,833.6489703520201,,Y,l,go,l,1,0.3448221039143391,,,,,,,,,,,,,,,,,36,001,19,w,B. Sc. Psychologie,2023-01-18_09h00.09.922,00_bat_bachelor,2022.2.4,60.00753548443612,
,,,,,,,,,,,,0,0,0,0,29,0,29,0,,,,,,,29,,,1,835.0998995879199,,X,d,go,d,1,0.3486907081096433,,,,,,,,,,,,,,,,,36,001,19,w,B. Sc. Psychologie,2023-01-18_09h00.09.922,00_bat_bachelor,2022.2.4,60.00753548443612,
,,,,,,,,,,,,0,0,0,0,30,0,30,0,,,,,,,30,,,1,836.5511657933821,,Y,l,go,l,1,0.3859275385038927,,,,,,,,,,,,,,,,,36,001,19,w,B. Sc. Psychologie,2023-01-18_09h00.09.922,00_bat_bachelor,2022.2.4,60.00753548443612,
,,,,,,,,,,,,0,0,0,0,31,0,31,0,,,,,,,31,,,1,838.0524295503274,,X,d,go,d,1,0.29271691702888347,,,,,,,,,,,,,,,,,36,001,19,w,B. Sc. Psychologie,2023-01-18_09h00.09.922,00_bat_bachelor,2022.2.4,60.00753548443612,
,,,,,,,,,,,,0,0,0,0,32,0,32,0,,,,,,,32,,,1,839.4534805073927,,X,None,nogo,None,1,,,,,,,,,,,,,,,,,,36,001,19,w,B. Sc. Psychologie,2023-01-18_09h00.09.922,00_bat_bachelor,2022.2.4,60.00753548443612,
,,,,,,,,,,,,0,0,0,0,33,0,33,0,,,,,,,33,,,1,841.2547863007057,,Y,l,go,l,1,0.2744526834867429,,,,,,,,,,,,,,,,,36,001,19,w,B. Sc. Psychologie,2023-01-18_09h00.09.922,00_bat_bachelor,2022.2.4,60.00753548443612,
,,,,,,,,,,,,0,0,0,0,34,0,34,0,,,,,,,34,,,1,842.6389756901772,,X,d,go,d,1,0.3627387012820691,,,,,,,,,,,,,,,,,36,001,19,w,B. Sc. Psychologie,2023-01-18_09h00.09.922,00_bat_bachelor,2022.2.4,60.00753548443612,
,,,,,,,,,,,,0,0,0,0,35,0,35,0,,,,,,,35,,,1,844.1069895238907,,X,None,nogo,None,1,,,,,,,,,,,,,,,,,,36,001,19,w,B. Sc. Psychologie,2023-01-18_09h00.09.922,00_bat_bachelor,2022.2.4,60.00753548443612,
,,,,,,,,,,,,0,0,0,0,36,0,36,0,,,,,,,36,,,1,845.9083767716947,,Y,l,go,l,1,0.3581117944268044,,,,,,,,,,,,,,,,,36,001,19,w,B. Sc. Psychologie,2023-01-18_09h00.09.922,00_bat_bachelor,2022.2.4,60.00753548443612,
,,,,,,,,,,,,0,0,0,0,37,0,37,0,,,,,,,37,,,1,847.3758238177688,,X,d,go,d,1,0.36229506513336673,,,,,,,,,,,,,,,,,36,001,19,w,B. Sc. Psychologie,2023-01-18_09h00.09.922,00_bat_bachelor,2022.2.4,60.00753548443612,
,,,,,,,,,,,,0,0,0,0,38,0,38,0,,,,,,,38,,,1,848.8439186211326,849.6445727783721,X,None,nogo,None,1,,,,,,,,,,,,,,,,,,36,001,19,w,B. Sc. Psychologie,2023-01-18_09h00.09.922,00_bat_bachelor,2022.2.4,60.00753548443612,
,,,,,,,,,,,,0,0,0,0,39,0,39,0,,,,,,,39,,,1,850.6453504749807,,Y,l,go,l,1,0.309013151563704,,,,,,,,,,,,,,,,,36,001,19,w,B. Sc. Psychologie,2023-01-18_09h00.09.922,00_bat_bachelor,2022.2.4,60.00753548443612,
,,,,,,,,,,,,0,0,0,0,40,0,40,0,,,,,,,40,,,1,852.0627160907898,,X,d,go,d,1,0.28190140714286827,,,,,,,,,,,,,,,,,36,001,19,w,B. Sc. Psychologie,2023-01-18_09h00.09.922,00_bat_bachelor,2022.2.4,60.00753548443612,
,,,,,,,,,,,,0,0,0,0,41,0,41,0,,,,,,,41,,,1,853.4474489951681,,Y,l,go,l,1,0.41802109871059656,,,,,,,,,,,,,,,,,36,001,19,w,B. Sc. Psychologie,2023-01-18_09h00.09.922,00_bat_bachelor,2022.2.4,60.00753548443612,
,,,,,,,,,,,,0,0,0,0,42,0,42,0,,,,,,,42,,,1,854.981937463308,,Y,None,nogo,None,1,,,,,,,,,,,,,,,,,,36,001,19,w,B. Sc. Psychologie,2023-01-18_09h00.09.922,00_bat_bachelor,2022.2.4,60.00753548443612,
,,,,,,,,,,,,0,0,0,0,43,0,43,0,,,,,,,43,,,1,856.7833159838337,,X,d,go,d,1,0.3785825723898597,,,,,,,,,,,,,,,,,36,001,19,w,B. Sc. Psychologie,2023-01-18_09h00.09.922,00_bat_bachelor,2022.2.4,60.00753548443612,
,,,,,,,,,,,,0,0,0,0,44,0,44,0,,,,,,,44,,,1,858.2677933246887,,Y,l,go,l,1,0.3014223673962988,,,,,,,,,,,,,,,,,36,001,19,w,B. Sc. Psychologie,2023-01-18_09h00.09.922,00_bat_bachelor,2022.2.4,60.00753548443612,
,,,,,,,,,,,,0,0,0,0,45,0,45,0,,,,,,,45,,,1,859.685577849421,,X,d,go,d,1,0.43549696903210133,,,,,,,,,,,,,,,,,36,001,19,w,B. Sc. Psychologie,2023-01-18_09h00.09.922,00_bat_bachelor,2022.2.4,60.00753548443612,
,,,,,,,,,,,,0,0,0,0,46,0,46,0,,,,,,,46,,,1,861.2367358852061,,X,None,nogo,None,1,,,,,,,,,,,,,,,,,,36,001,19,w,B. Sc. Psychologie,2023-01-18_09h00.09.922,00_bat_bachelor,2022.2.4,60.00753548443612,
,,,,,,,,,,,,0,0,0,0,47,0,47,0,,,,,,,47,,,1,863.0380557391327,,Y,l,go,l,1,0.4275192759523634,,,,,,,,,,,,,,,,,36,001,19,w,B. Sc. Psychologie,2023-01-18_09h00.09.922,00_bat_bachelor,2022.2.4,60.00753548443612,
,,,,,,,,,,,,0,0,0,0,48,0,48,0,,,,,,,48,,,1,864.572361419443,,X,d,go,d,1,0.3326732613204513,,,,,,,,,,,,,,,,,36,001,19,w,B. Sc. Psychologie,2023-01-18_09h00.09.922,00_bat_bachelor,2022.2.4,60.00753548443612,
,,,,,,,,,,,,0,0,0,0,49,0,49,0,,,,,,,49,,,1,866.007009451132,,Y,l,go,l,1,0.35458597796969116,,,,,,,,,,,,,,,,,36,001,19,w,B. Sc. Psychologie,2023-01-18_09h00.09.922,00_bat_bachelor,2022.2.4,60.00753548443612,
,,,,,,,,,,,,0,0,0,0,50,0,50,0,,,,,,,50,,,1,867.474759042525,,Y,None,nogo,None,1,,,,,,,,,,,,,,,,,,36,001,19,w,B. Sc. Psychologie,2023-01-18_09h00.09.922,00_bat_bachelor,2022.2.4,60.00753548443612,
,,,,,,,,,,,,0,0,0,0,51,0,51,0,,,,,,,51,,,1,869.2767062900821,,X,d,go,d,1,0.3005103678442538,,,,,,,,,,,,,,,,,36,001,19,w,B. Sc. Psychologie,2023-01-18_09h00.09.922,00_bat_bachelor,2022.2.4,60.00753548443612,
,,,,,,,,,,,,0,0,0,0,52,0,52,0,,,,,,,52,,,1,870.7113121399598,,Y,l,go,l,1,0.3367013805836905,,,,,,,,,,,,,,,,,36,001,19,w,B. Sc. Psychologie,2023-01-18_09h00.09.922,00_bat_bachelor,2022.2.4,60.00753548443612,
,,,,,,,,,,,,0,0,0,0,53,0,53,0,,,,,,,53,,,1,872.1793191857869,,X,d,go,d,1,0.30902236368274316,,,,,,,,,,,,,,,,,36,001,19,w,B. Sc. Psychologie,2023-01-18_09h00.09.922,00_bat_bachelor,2022.2.4,60.00753548443612,
,,,,,,,,,,,,0,0,0,0,54,0,54,0,,,,,,,54,,,1,873.6303347246721,,Y,l,go,l,1,0.3309113227878697,,,,,,,,,,,,,,,,,36,001,19,w,B. Sc. Psychologie,2023-01-18_09h00.09.922,00_bat_bachelor,2022.2.4,60.00753548443612,
,,,,,,,,,,,,0,0,0,0,55,0,55,0,,,,,,,55,,,1,875.0812886878557,,X,d,go,d,1,0.2707726852677297,,,,,,,,,,,,,,,,,36,001,19,w,B. Sc. Psychologie,2023-01-18_09h00.09.922,00_bat_bachelor,2022.2.4,60.00753548443612,
,,,,,,,,,,,,0,0,0,0,56,0,56,0,,,,,,,56,,,1,876.4987483642471,877.2993448245688,X,None,nogo,None,1,,,,,,,,,,,,,,,,,,36,001,19,w,B. Sc. Psychologie,2023-01-18_09h00.09.922,00_bat_bachelor,2022.2.4,60.00753548443612,
,,,,,,,,,,,,0,0,0,0,57,0,57,0,,,,,,,57,,,1,878.3001540362893,,Y,l,go,l,1,0.25359645116259344,,,,,,,,,,,,,,,,,36,001,19,w,B. Sc. Psychologie,2023-01-18_09h00.09.922,00_bat_bachelor,2022.2.4,60.00753548443612,
,,,,,,,,,,,,0,0,0,0,58,0,58,0,,,,,,,58,,,1,879.6678891307092,,X,d,go,d,1,0.31000175717053935,,,,,,,,,,,,,,,,,36,001,19,w,B. Sc. Psychologie,2023-01-18_09h00.09.922,00_bat_bachelor,2022.2.4,60.00753548443612,
,,,,,,,,,,,,0,0,0,0,59,0,59,0,,,,,,,59,,,1,881.0857197160076,,Y,l,go,l,1,0.2995406713162083,,,,,,,,,,,,,,,,,36,001,19,w,B. Sc. Psychologie,2023-01-18_09h00.09.922,00_bat_bachelor,2022.2.4,60.00753548443612,
,,,,,,,,,,,,0,0,0,0,60,0,60,0,,,,,,,60,,,1,882.4866567337303,,X,d,go,d,1,0.3549127656733617,,,,,,,,,,,,,,,,,36,001,19,w,B. Sc. Psychologie,2023-01-18_09h00.09.922,00_bat_bachelor,2022.2.4,60.00753548443612,
,,,,,,,,,,,,0,0,0,0,61,0,61,0,,,,,,,61,,,1,883.9544320220884,,Y,l,go,l,1,0.29499812808353454,,,,,,,,,,,,,,,,,36,001,19,w,B. Sc. Psychologie,2023-01-18_09h00.09.922,00_bat_bachelor,2022.2.4,60.00753548443612,
,,,,,,,,,,,,0,0,0,0,62,0,62,0,,,,,,,62,,,1,885.355628918478,886.1561768939719,Y,None,nogo,None,1,,,,,,,,,,,,,,,,,,36,001,19,w,B. Sc. Psychologie,2023-01-18_09h00.09.922,00_bat_bachelor,2022.2.4,60.00753548443612,
,,,,,,,,,,,,0,0,0,0,63,0,63,0,,,,,,,63,,,1,887.1566617422213,,X,d,go,d,1,0.27741656082798727,,,,,,,,,,,,,,,,,36,001,19,w,B. Sc. Psychologie,2023-01-18_09h00.09.922,00_bat_bachelor,2022.2.4,60.00753548443612,
,,,,,,,,,,,,0,0,0,0,64,0,64,0,,,,,,,64,,,1,888.5412380406051,,Y,l,go,l,1,0.3483435567468405,,,,,,,,,,,,,,,,,36,001,19,w,B. Sc. Psychologie,2023-01-18_09h00.09.922,00_bat_bachelor,2022.2.4,60.00753548443612,
,,,,,,,,,,,,0,0,0,0,65,0,65,0,,,,,,,65,,,1,889.9921978219645,890.7930284639879,Y,None,nogo,None,1,,,,,,,,,,,,,,,,,,36,001,19,w,B. Sc. Psychologie,2023-01-18_09h00.09.922,00_bat_bachelor,2022.2.4,60.00753548443612,
,,,,,,,,,,,,0,0,0,0,66,0,66,0,,,,,,,66,,,1,891.7937731909042,,X,d,go,d,1,0.32752223350689746,,,,,,,,,,,,,,,,,36,001,19,w,B. Sc. Psychologie,2023-01-18_09h00.09.922,00_bat_bachelor,2022.2.4,60.00753548443612,
,,,,,,,,,,,,0,0,0,0,67,0,67,0,,,,,,,67,,,1,893.2281589196646,,Y,l,go,l,1,0.33287592788110487,,,,,,,,,,,,,,,,,36,001,19,w,B. Sc. Psychologie,2023-01-18_09h00.09.922,00_bat_bachelor,2022.2.4,60.00753548443612,
,,,,,,,,,,,,0,0,0,0,68,0,68,0,,,,,,,68,,,1,894.6625567696756,,X,d,go,d,1,0.3703454854548909,,,,,,,,,,,,,,,,,36,001,19,w,B. Sc. Psychologie,2023-01-18_09h00.09.922,00_bat_bachelor,2022.2.4,60.00753548443612,
,,,,,,,,,,,,0,0,0,0,69,0,69,0,,,,,,,69,,,1,896.1470520498988,,Y,l,go,l,1,0.27788201515795663,,,,,,,,,,,,,,,,,36,001,19,w,B. Sc. Psychologie,2023-01-18_09h00.09.922,00_bat_bachelor,2022.2.4,60.00753548443612,
,,,,,,,,,,,,0,0,0,0,70,0,70,0,,,,,,,70,,,1,897.5312171969854,,X,d,go,d,1,0.23717221672995947,,,,,,,,,,,,,,,,,36,001,19,w,B. Sc. Psychologie,2023-01-18_09h00.09.922,00_bat_bachelor,2022.2.4,60.00753548443612,
,,,,,,,,,,,,0,0,0,0,71,0,71,0,,,,,,,71,,,1,898.8991583519091,,Y,l,go,l,1,0.37357505966792814,,,,,,,,,,,,,,,,,36,001,19,w,B. Sc. Psychologie,2023-01-18_09h00.09.922,00_bat_bachelor,2022.2.4,60.00753548443612,
,,,,,,,,,,,,0,0,0,0,72,0,72,0,,,,,,,72,,,1,900.38338938987,,X,d,go,d,1,0.23356494572362863,,,,,,,,,,,,,,,,,36,001,19,w,B. Sc. Psychologie,2023-01-18_09h00.09.922,00_bat_bachelor,2022.2.4,60.00753548443612,
,,,,,,,,,,,,0,0,0,0,73,0,73,0,,,,,,,73,,,1,901.7177480156242,902.5185830213013,X,None,nogo,None,1,,,,,,,,,,,,,,,,,,36,001,19,w,B. Sc. Psychologie,2023-01-18_09h00.09.922,00_bat_bachelor,2022.2.4,60.00753548443612,
,,,,,,,,,,,,0,0,0,0,74,0,74,0,,,,,,,74,,,1,903.5191852028074,,Y,l,go,l,1,0.3298029596917331,,,,,,,,,,,,,,,,,36,001,19,w,B. Sc. Psychologie,2023-01-18_09h00.09.922,00_bat_bachelor,2022.2.4,60.00753548443612,
,,,,,,,,,,,,0,0,0,0,75,0,75,0,,,,,,,75,,,1,904.9702647416852,,X,d,go,d,1,0.44628338803886436,,,,,,,,,,,,,,,,,36,001,19,w,B. Sc. Psychologie,2023-01-18_09h00.09.922,00_bat_bachelor,2022.2.4,60.00753548443612,
,,,,,,,,,,,,0,0,0,0,76,0,76,0,,,,,,,76,,,1,906.5215745349997,907.3222563285963,X,None,nogo,None,1,,,,,,,,,,,,,,,,,,36,001,19,w,B. Sc. Psychologie,2023-01-18_09h00.09.922,00_bat_bachelor,2022.2.4,60.00753548443612,
,,,,,,,,,,,,0,0,0,0,77,0,77,0,,,,,,,77,,,1,908.3230854191061,,Y,l,go,l,1,0.43794981634709984,,,,,,,,,,,,,,,,,36,001,19,w,B. Sc. Psychologie,2023-01-18_09h00.09.922,00_bat_bachelor,2022.2.4,60.00753548443612,
,,,,,,,,,,,,0,0,0,0,78,0,78,0,,,,,,,78,,,1,909.8742114549095,,X,d,go,d,1,0.4543313841568306,,,,,,,,,,,,,,,,,36,001,19,w,B. Sc. Psychologie,2023-01-18_09h00.09.922,00_bat_bachelor,2022.2.4,60.00753548443612,
,,,,,,,,,,,,0,0,0,0,79,0,79,0,,,,,,,79,,,1,911.4586194139847,912.259140722832,X,None,nogo,None,1,,,,,,,,,,,,,,,,,,36,001,19,w,B. Sc. Psychologie,2023-01-18_09h00.09.922,00_bat_bachelor,2022.2.4,60.00753548443612,
,,,,,,,,,,,,0,0,0,0,80,0,80,0,,,,,,,80,,,1,913.2599145406566,914.0605851827422,X,None,nogo,None,1,,,,,,,,,,,,,,,,,,36,001,19,w,B. Sc. Psychologie,2023-01-18_09h00.09.922,00_bat_bachelor,2022.2.4,60.00753548443612,
,,,,,,,,,,,,0,0,0,0,81,0,81,0,,,,,,,81,,,1,915.0611679703288,,Y,l,go,l,1,0.29279546247562394,,,,,,,,,,,,,,,,,36,001,19,w,B. Sc. Psychologie,2023-01-18_09h00.09.922,00_bat_bachelor,2022.2.4,60.00753548443612,
,,,,,,,,,,,,0,0,0,0,82,0,82,0,,,,,,,82,,,1,916.4621030486596,,X,d,go,d,1,0.2828890430100728,,,,,,,,,,,,,,,,,36,001,19,w,B. Sc. Psychologie,2023-01-18_09h00.09.922,00_bat_bachelor,2022.2.4,60.00753548443612,
,,,,,,,,,,,,0,0,0,0,83,0,83,0,,,,,,,83,,,1,917.8463569229643,,Y,l,go,l,1,0.27543595572933555,,,,,,,,,,,,,,,,,36,001,19,w,B. Sc. Psychologie,2023-01-18_09h00.09.922,00_bat_bachelor,2022.2.4,60.00753548443612,
,,,,,,,,,,,,0,0,0,0,84,0,84,0,,,,,,,84,,,1,919.2308794032142,,Y,None,nogo,d,0,0.23419185451348312,,,,,,,,,,,,,,,,,36,001,19,w,B. Sc. Psychologie,2023-01-18_09h00.09.922,00_bat_bachelor,2022.2.4,60.00753548443612,
,,,,,,,,,,,,0,0,0,0,85,0,85,0,,,,,,,85,,,1,920.5819512329763,,X,d,go,d,1,0.3715687576041091,,,,,,,,,,,,,,,,,36,001,19,w,B. Sc. Psychologie,2023-01-18_09h00.09.922,00_bat_bachelor,2022.2.4,60.00753548443612,
,,,,,,,,,,,,0,0,0,0,86,0,86,0,,,,,,,86,,,1,922.0663951193274,,Y,l,go,l,1,0.471096951776417,,,,,,,,,,,,,,,,,36,001,19,w,B. Sc. Psychologie,2023-01-18_09h00.09.922,00_bat_bachelor,2022.2.4,60.00753548443612,
,,,,,,,,,,,,0,0,0,0,87,0,87,0,,,,,,,87,,,1,923.6506508360326,,X,d,go,d,1,0.470203861274058,,,,,,,,,,,,,,,,,36,001,19,w,B. Sc. Psychologie,2023-01-18_09h00.09.922,00_bat_bachelor,2022.2.4,60.00753548443612,
,,,,,,,,,,,,0,0,0,0,88,0,88,0,,,,,,,88,,,1,925.2354243707086,,Y,l,go,l,1,0.34252295349142514,,,,,,,,,,,,,,,,,36,001,19,w,B. Sc. Psychologie,2023-01-18_09h00.09.922,00_bat_bachelor,2022.2.4,60.00753548443612,
,,,,,,,,,,,,0,0,0,0,89,0,89,0,,,,,,,89,,,1,926.6864913035242,,X,d,go,d,1,0.39466111004003324,,,,,,,,,,,,,,,,,36,001,19,w,B. Sc. Psychologie,2023-01-18_09h00.09.922,00_bat_bachelor,2022.2.4,60.00753548443612,
,,,,,,,,,,,,0,0,0,0,90,0,90,0,,,,,,,90,,,1,928.1873153031047,,X,None,nogo,None,1,,,,,,,,,,,,,,,,,,36,001,19,w,B. Sc. Psychologie,2023-01-18_09h00.09.922,00_bat_bachelor,2022.2.4,60.00753548443612,
,,,,,,,,,,,,0,0,0,0,91,0,91,0,,,,,,,91,,,1,929.9888150357292,,Y,l,go,l,1,0.4044613477308303,,,,,,,,,,,,,,,,,36,001,19,w,B. Sc. Psychologie,2023-01-18_09h00.09.922,00_bat_bachelor,2022.2.4,60.00753548443612,
,,,,,,,,,,,,0,0,0,0,92,0,92,0,,,,,,,92,,,1,931.5069122390705,,X,d,go,d,1,0.3112235747394152,,,,,,,,,,,,,,,,,36,001,19,w,B. Sc. Psychologie,2023-01-18_09h00.09.922,00_bat_bachelor,2022.2.4,60.00753548443612,
,,,,,,,,,,,,0,0,0,0,93,0,93,0,,,,,,,93,,,1,932.9247079152847,,X,None,nogo,None,1,,,,,,,,,,,,,,,,,,36,001,19,w,B. Sc. Psychologie,2023-01-18_09h00.09.922,00_bat_bachelor,2022.2.4,60.00753548443612,
,,,,,,,,,,,,0,0,0,0,94,0,94,0,,,,,,,94,,,1,934.7260675267607,,Y,l,go,l,1,0.3401190758740995,,,,,,,,,,,,,,,,,36,001,19,w,B. Sc. Psychologie,2023-01-18_09h00.09.922,00_bat_bachelor,2022.2.4,60.00753548443612,
,,,,,,,,,,,,0,0,0,0,95,0,95,0,,,,,,,95,,,1,936.1771882777102,,X,d,go,d,1,0.42425236842245795,,,,,,,,,,,,,,,,,36,001,19,w,B. Sc. Psychologie,2023-01-18_09h00.09.922,00_bat_bachelor,2022.2.4,60.00753548443612,
,,,,,,,,,,,,0,0,0,0,96,0,96,0,,,,,,,96,,,1,937.711608382233,,Y,l,go,l,1,0.32963617189670913,,,,,,,,,,,,,,,,,36,001,19,w,B. Sc. Psychologie,2023-01-18_09h00.09.922,00_bat_bachelor,2022.2.4,60.00753548443612,
,,,,,,,,,,,,0,0,0,0,97,0,97,0,,,,,,,97,,,1,939.1467805348802,,X,d,go,d,1,0.36649579036748037,,,,,,,,,,,,,,,,,36,001,19,w,B. Sc. Psychologie,2023-01-18_09h00.09.922,00_bat_bachelor,2022.2.4,60.00753548443612,
,,,,,,,,,,,,0,0,0,0,98,0,98,0,,,,,,,98,,,1,940.6145364293188,,Y,l,go,l,1,0.3377908346010372,,,,,,,,,,,,,,,,,36,001,19,w,B. Sc. Psychologie,2023-01-18_09h00.09.922,00_bat_bachelor,2022.2.4,60.00753548443612,
,,,,,,,,,,,,0,0,0,0,99,0,99,0,,,,,,,99,,,1,942.0821793540963,942.883003693074,Y,None,nogo,None,1,,,,,,,,,,,,,,,,,,36,001,19,w,B. Sc. Psychologie,2023-01-18_09h00.09.922,00_bat_bachelor,2022.2.4,60.00753548443612,
,,,,,,,,,,,,0,0,0,0,100,0,100,0,,,,,,,100,,,1,943.8838259957265,,X,d,go,d,1,0.25236639118520543,,,,,,,,,,,,,,,,,36,001,19,w,B. Sc. Psychologie,2023-01-18_09h00.09.922,00_bat_bachelor,2022.2.4,60.00753548443612,
,,,,,,,,,,,,0,0,0,0,101,0,101,0,,,,,,,101,,,1,945.2681104154617,,Y,l,go,l,1,0.340231075824704,,,,,,,,,,,,,,,,,36,001,19,w,B. Sc. Psychologie,2023-01-18_09h00.09.922,00_bat_bachelor,2022.2.4,60.00753548443612,
,,,,,,,,,,,,0,0,0,0,102,0,102,0,,,,,,,102,,,1,946.7356980675249,,X,d,go,d,1,0.24922263508778997,,,,,,,,,,,,,,,,,36,001,19,w,B. Sc. Psychologie,2023-01-18_09h00.09.922,00_bat_bachelor,2022.2.4,60.00753548443612,
,,,,,,,,,,,,0,0,0,0,103,0,103,0,,,,,,,103,,,1,948.1035272225272,948.9045038038748,X,None,nogo,None,1,,,,,,,,,,,,,,,,,,36,001,19,w,B. Sc. Psychologie,2023-01-18_09h00.09.922,00_bat_bachelor,2022.2.4,60.00753548443612,
,,,,,,,,,,,,0,0,0,0,104,0,104,0,,,,,,,104,,,1,949.9047612582799,950.705266082281,X,None,nogo,None,1,,,,,,,,,,,,,,,,,,36,001,19,w,B. Sc. Psychologie,2023-01-18_09h00.09.922,00_bat_bachelor,2022.2.4,60.00753548443612,
,,,,,,,,,,,,0,0,0,0,105,0,105,0,,,,,,,105,,,1,951.7060500819061,,Y,l,go,l,1,0.27144759404473007,,,,,,,,,,,,,,,,,36,001,19,w,B. Sc. Psychologie,2023-01-18_09h00.09.922,00_bat_bachelor,2022.2.4,60.00753548443612,
,,,,,,,,,,,,0,0,0,0,106,0,106,0,,,,,,,106,,,1,953.0904736531083,,X,d,go,d,1,0.35927349084522575,,,,,,,,,,,,,,,,,36,001,19,w,B. Sc. Psychologie,2023-01-18_09h00.09.922,00_bat_bachelor,2022.2.4,60.00753548443612,
,,,,,,,,,,,,0,0,0,0,107,0,107,0,,,,,,,107,,,1,954.5582615474996,,Y,l,go,l,1,0.3153792090888601,,,,,,,,,,,,,,,,,36,001,19,w,B. Sc. Psychologie,2023-01-18_09h00.09.922,00_bat_bachelor,2022.2.4,60.00753548443612,
,,,,,,,,,,,,0,0,0,0,108,0,108,0,,,,,,,108,,,1,955.9758080117172,,X,d,go,d,1,0.30448369920486584,,,,,,,,,,,,,,,,,36,001,19,w,B. Sc. Psychologie,2023-01-18_09h00.09.922,00_bat_bachelor,2022.2.4,60.00753548443612,
,,,,,,,,,,,,0,0,0,0,109,0,109,0,,,,,,,109,,,1,957.39371374849,,Y,l,go,l,1,0.26260493166046217,,,,,,,,,,,,,,,,,36,001,19,w,B. Sc. Psychologie,2023-01-18_09h00.09.922,00_bat_bachelor,2022.2.4,60.00753548443612,
,,,,,,,,,,,,0,0,0,0,110,0,110,0,,,,,,,110,,,1,958.7780786530348,959.5784579013416,Y,None,nogo,None,1,,,,,,,,,,,,,,,,,,36,001,19,w,B. Sc. Psychologie,2023-01-18_09h00.09.922,00_bat_bachelor,2022.2.4,60.00753548443612,
,,,,,,,,,,,,0,0,0,0,111,0,111,0,,,,,,,111,,,1,960.5797471128462,,X,d,go,d,1,0.42141212735441513,,,,,,,,,,,,,,,,,36,001,19,w,B. Sc. Psychologie,2023-01-18_09h00.09.922,00_bat_bachelor,2022.2.4,60.00753548443612,
,,,,,,,,,,,,0,0,0,0,112,0,112,0,,,,,,,112,,,1,962.1139437023376,,Y,l,go,l,1,0.27969292338821106,,,,,,,,,,,,,,,,,36,001,19,w,B. Sc. Psychologie,2023-01-18_09h00.09.922,00_bat_bachelor,2022.2.4,60.00753548443612,
,,,,,,,,,,,,0,0,0,0,113,0,113,0,,,,,,,113,,,1,963.4983503038238,,X,d,go,d,1,0.31843326819944195,,,,,,,,,,,,,,,,,36,001,19,w,B. Sc. Psychologie,2023-01-18_09h00.09.922,00_bat_bachelor,2022.2.4,60.00753548443612,
,,,,,,,,,,,,0,0,0,0,114,0,114,0,,,,,,,114,,,1,964.9325571235968,,Y,l,go,l,1,0.2602897812612355,,,,,,,,,,,,,,,,,36,001,19,w,B. Sc. Psychologie,2023-01-18_09h00.09.922,00_bat_bachelor,2022.2.4,60.00753548443612,
,,,,,,,,,,,,0,0,0,0,115,0,115,0,,,,,,,115,,,1,966.3171411795483,967.1177759428974,Y,None,nogo,None,1,,,,,,,,,,,,,,,,,,36,001,19,w,B. Sc. Psychologie,2023-01-18_09h00.09.922,00_bat_bachelor,2022.2.4,60.00753548443612,
,,,,,,,,,,,,0,0,0,0,116,0,116,0,,,,,,,116,,,1,968.118603578856,968.9191922816099,Y,None,nogo,None,1,,,,,,,,,,,,,,,,,,36,001,19,w,B. Sc. Psychologie,2023-01-18_09h00.09.922,00_bat_bachelor,2022.2.4,60.00753548443612,
,,,,,,,,,,,,0,0,0,0,117,0,117,0,,,,,,,117,,,1,969.9199355539749,,X,d,go,d,1,0.32958089918247424,,,,,,,,,,,,,,,,,36,001,19,w,B. Sc. Psychologie,2023-01-18_09h00.09.922,00_bat_bachelor,2022.2.4,60.00753548443612,
,,,,,,,,,,,,0,0,0,0,118,0,118,0,,,,,,,118,,,1,971.3543896463525,,Y,l,go,l,1,0.31836926826508716,,,,,,,,,,,,,,,,,36,001,19,w,B. Sc. Psychologie,2023-01-18_09h00.09.922,00_bat_bachelor,2022.2.4,60.00753548443612,
,,,,,,,,,,,,0,0,0,0,119,0,119,0,,,,,,,119,,,1,972.7887496781768,,X,d,go,d,1,0.43640945345396176,,,,,,,,,,,,,,,,,36,001,19,w,B. Sc. Psychologie,2023-01-18_09h00.09.922,00_bat_bachelor,2022.2.4,60.00753548443612,
,,,,,,,,,,,,0,0,0,0,120,0,120,0,,,,,,,120,,,1,974.3399542593979,,Y,l,go,l,1,0.2445288192247972,,,,,,,,,,,,,,,,,36,001,19,w,B. Sc. Psychologie,2023-01-18_09h00.09.922,00_bat_bachelor,2022.2.4,60.00753548443612,
,,,,,,,,,,,,0,0,0,0,121,0,121,0,,,,,,,121,,,1,975.707466808497,,X,d,go,d,1,0.3014257613103837,,,,,,,,,,,,,,,,,36,001,19,w,B. Sc. Psychologie,2023-01-18_09h00.09.922,00_bat_bachelor,2022.2.4,60.00753548443612,
,,,,,,,,,,,,0,0,0,0,122,0,122,0,,,,,,,122,,,1,977.1253812725481,977.9259782177105,X,None,nogo,None,1,,,,,,,,,,,,,,,,,,36,001,19,w,B. Sc. Psychologie,2023-01-18_09h00.09.922,00_bat_bachelor,2022.2.4,60.00753548443612,
,,,,,,,,,,,,0,0,0,0,123,0,123,0,,,,,,,123,,,1,978.9267995506234,,Y,l,go,l,1,0.36277894367231056,,,,,,,,,,,,,,,,,36,001,19,w,B. Sc. Psychologie,2023-01-18_09h00.09.922,00_bat_bachelor,2022.2.4,60.00753548443612,
,,,,,,,,,,,,0,0,0,0,124,0,124,0,,,,,,,124,,,1,980.3945195662964,,X,d,go,d,1,0.46187950170133263,,,,,,,,,,,,,,,,,36,001,19,w,B. Sc. Psychologie,2023-01-18_09h00.09.922,00_bat_bachelor,2022.2.4,60.00753548443612,
,,,,,,,,,,,,0,0,0,0,125,0,125,0,,,,,,,125,,,1,981.9791146767966,,Y,l,go,l,1,0.2215586485399399,,,,,,,,,,,,,,,,,36,001,19,w,B. Sc. Psychologie,2023-01-18_09h00.09.922,00_bat_bachelor,2022.2.4,60.00753548443612,
,,,,,,,,,,,,0,0,0,0,126,0,126,0,,,,,,,126,,,1,983.3134602116479,984.1141463688982,Y,None,nogo,None,1,,,,,,,,,,,,,,,,,,36,001,19,w,B. Sc. Psychologie,2023-01-18_09h00.09.922,00_bat_bachelor,2022.2.4,60.00753548443612,
,,,,,,,,,,,,0,0,0,0,127,0,127,0,,,,,,,127,,,1,985.114788307983,,X,d,go,d,1,0.28676298054051585,,,,,,,,,,,,,,,,,36,001,19,w,B. Sc. Psychologie,2023-01-18_09h00.09.922,00_bat_bachelor,2022.2.4,60.00753548443612,
,,,,,,,,,,,,0,0,0,0,128,0,128,0,,,,,,,128,,,1,986.5158528407919,,Y,l,go,l,1,0.3091484242468141,,,,,,,,,,,,,,,,,36,001,19,w,B. Sc. Psychologie,2023-01-18_09h00.09.922,00_bat_bachelor,2022.2.4,60.00753548443612,
,,,,,,,,,,,,0,0,0,0,129,0,129,0,,,,,,,129,,,1,987.9336824563798,,Y,None,nogo,d,0,0.3641767611843534,,,,,,,,,,,,,,,,,36,001,19,w,B. Sc. Psychologie,2023-01-18_09h00.09.922,00_bat_bachelor,2022.2.4,60.00753548443612,
,,,,,,,,,,,,0,0,0,0,130,0,130,0,,,,,,,130,,,1,989.4014693810896,,X,d,go,d,1,0.2879818890360184,,,,,,,,,,,,,,,,,36,001,19,w,B. Sc. Psychologie,2023-01-18_09h00.09.922,00_bat_bachelor,2022.2.4,60.00753548443612,
,,,,,,,,,,,,0,0,0,0,131,0,131,0,,,,,,,131,,,1,990.8022604595171,,Y,l,go,l,1,0.2958359458425548,,,,,,,,,,,,,,,,,36,001,19,w,B. Sc. Psychologie,2023-01-18_09h00.09.922,00_bat_bachelor,2022.2.4,60.00753548443612,
,,,,,,,,,,,,0,0,0,0,132,0,132,0,,,,,,,132,,,1,992.2032847499067,993.0041566040309,Y,None,nogo,None,1,,,,,,,,,,,,,,,,,,36,001,19,w,B. Sc. Psychologie,2023-01-18_09h00.09.922,00_bat_bachelor,2022.2.4,60.00753548443612,
,,,,,,,,,,,,0,0,0,0,133,0,133,0,,,,,,,133,,,1,994.004870300676,,X,d,go,d,1,0.4839284606860019,,,,,,,,,,,,,,,,,36,001,19,w,B. Sc. Psychologie,2023-01-18_09h00.09.922,00_bat_bachelor,2022.2.4,60.00753548443612,
,,,,,,,,,,,,0,0,0,0,134,0,134,0,,,,,,,134,,,1,995.5895585020189,,Y,l,go,l,1,0.4839725818892475,,,,,,,,,,,,,,,,,36,001,19,w,B. Sc. Psychologie,2023-01-18_09h00.09.922,00_bat_bachelor,2022.2.4,60.00753548443612,
,,,,,,,,,,,,0,0,0,0,135,0,135,0,,,,,,,135,,,1,997.1738471884455,997.974651648663,Y,None,nogo,None,1,,,,,,,,,,,,,,,,,,36,001,19,w,B. Sc. Psychologie,2023-01-18_09h00.09.922,00_bat_bachelor,2022.2.4,60.00753548443612,
,,,,,,,,,,,,0,0,0,0,136,0,136,0,,,,,,,136,,,1,998.9754598906729,,X,d,go,d,1,0.3933466864400543,,,,,,,,,,,,,,,,,36,001,19,w,B. Sc. Psychologie,2023-01-18_09h00.09.922,00_bat_bachelor,2022.2.4,60.00753548443612,
,,,,,,,,,,,,0,0,0,0,137,0,137,0,,,,,,,137,,,1,1000.4764952841215,,Y,l,go,l,1,0.33288465515943244,,,,,,,,,,,,,,,,,36,001,19,w,B. Sc. Psychologie,2023-01-18_09h00.09.922,00_bat_bachelor,2022.2.4,60.00753548443612,
,,,,,,,,,,,,0,0,0,0,138,0,138,0,,,,,,,138,,,1,1001.9110216189001,1002.7113654732821,Y,None,nogo,None,1,,,,,,,,,,,,,,,,,,36,001,19,w,B. Sc. Psychologie,2023-01-18_09h00.09.922,00_bat_bachelor,2022.2.4,60.00753548443612,
,,,,,,,,,,,,0,0,0,0,139,0,139,0,,,,,,,139,,,1,1003.7123177152243,,X,d,go,d,1,0.4722528300189879,,,,,,,,,,,,,,,,,36,001,19,w,B. Sc. Psychologie,2023-01-18_09h00.09.922,00_bat_bachelor,2022.2.4,60.00753548443612,
,,,,,,,,,,,,0,0,0,0,140,0,140,0,,,,,,,140,,,1,1005.2968604621128,,Y,l,go,l,1,0.29691279379767366,,,,,,,,,,,,,,,,,36,001,19,w,B. Sc. Psychologie,2023-01-18_09h00.09.922,00_bat_bachelor,2022.2.4,60.00753548443612,
,,,,,,,,,,,,0,0,0,0,141,0,141,0,,,,,,,141,,,1,1006.6977552980534,1007.4985006067727,Y,None,nogo,None,1,,,,,,,,,,,,,,,,,,36,001,19,w,B. Sc. Psychologie,2023-01-18_09h00.09.922,00_bat_bachelor,2022.2.4,60.00753548443612,
,,,,,,,,,,,,0,0,0,0,142,0,142,0,,,,,,,142,,,1,1008.4994407275517,,X,d,go,d,1,0.45393380857422017,,,,,,,,,,,,,,,,,36,001,19,w,B. Sc. Psychologie,2023-01-18_09h00.09.922,00_bat_bachelor,2022.2.4,60.00753548443612,
,,,,,,,,,,,,0,0,0,0,143,0,143,0,,,,,,,143,,,1,1010.0671907553042,,Y,l,go,l,1,0.3590756727498956,,,,,,,,,,,,,,,,,36,001,19,w,B. Sc. Psychologie,2023-01-18_09h00.09.922,00_bat_bachelor,2022.2.4,60.00753548443612,
,,,,,,,,,,,,0,0,0,0,144,0,144,0,,,,,,,144,,,1,1011.5346707710705,1012.3355217767239,X,d,go,None,0,,,,,,,,,,,,,,,,,,36,001,19,w,B. Sc. Psychologie,2023-01-18_09h00.09.922,00_bat_bachelor,2022.2.4,60.00753548443612,
,,,,,,,,,,,,0,0,0,0,145,0,145,0,,,,,,,145,,,1,1013.3364172914298,,Y,l,go,l,1,0.288714979600627,,,,,,,,,,,,,,,,,36,001,19,w,B. Sc. Psychologie,2023-01-18_09h00.09.922,00_bat_bachelor,2022.2.4,60.00753548443612,
,,,,,,,,,,,,0,0,0,0,146,0,146,0,,,,,,,146,,,1,1014.7372883697972,,X,d,go,d,1,0.376058937254129,,,,,,,,,,,,,,,,,36,001,19,w,B. Sc. Psychologie,2023-01-18_09h00.09.922,00_bat_bachelor,2022.2.4,60.00753548443612,
,,,,,,,,,,,,0,0,0,0,147,0,147,0,,,,,,,147,,,1,1016.2218171045824,,Y,l,go,l,1,0.33115568629000336,,,,,,,,,,,,,,,,,36,001,19,w,B. Sc. Psychologie,2023-01-18_09h00.09.922,00_bat_bachelor,2022.2.4,60.00753548443612,
,,,,,,,,,,,,0,0,0,0,148,0,148,0,,,,,,,148,,,1,1017.6727511889767,1018.4735323764617,Y,None,nogo,None,1,,,,,,,,,,,,,,,,,,36,001,19,w,B. Sc. Psychologie,2023-01-18_09h00.09.922,00_bat_bachelor,2022.2.4,60.00753548443612,
,,,,,,,,,,,,0,0,0,0,149,0,149,0,,,,,,,149,,,1,1019.4742998912407,,X,d,go,d,1,0.4222140663769096,,,,,,,,,,,,,,,,,36,001,19,w,B. Sc. Psychologie,2023-01-18_09h00.09.922,00_bat_bachelor,2022.2.4,60.00753548443612,
,,,,,,,,,,,,0,0,0,0,150,0,150,0,,,,,,,150,,,1,1021.008609450364,,Y,l,go,l,1,0.23220203732489608,,,,,,,,,,,,,,,,,36,001,19,w,B. Sc. Psychologie,2023-01-18_09h00.09.922,00_bat_bachelor,2022.2.4,60.00753548443612,
,,,,,,,,,,,,0,0,0,0,151,0,151,0,,,,,,,151,,,1,1022.3431794699572,1023.143594112189,Y,None,nogo,None,1,,,,,,,,,,,,,,,,,,36,001,19,w,B. Sc. Psychologie,2023-01-18_09h00.09.922,00_bat_bachelor,2022.2.4,60.00753548443612,
,,,,,,,,,,,,0,0,0,0,152,0,152,0,,,,,,,152,,,1,1024.1445439298986,,X,d,go,d,1,0.3917253538966179,,,,,,,,,,,,,,,,,36,001,19,w,B. Sc. Psychologie,2023-01-18_09h00.09.922,00_bat_bachelor,2022.2.4,60.00753548443612,
,,,,,,,,,,,,0,0,0,0,153,0,153,0,,,,,,,153,,,1,1025.6623492546205,,Y,l,go,l,1,0.23414046058314852,,,,,,,,,,,,,,,,,36,001,19,w,B. Sc. Psychologie,2023-01-18_09h00.09.922,00_bat_bachelor,2022.2.4,60.00753548443612,
,,,,,,,,,,,,0,0,0,0,154,0,154,0,,,,,,,154,,,1,1027.0134123571333,,X,d,go,d,1,0.27470431971596554,,,,,,,,,,,,,,,,,36,001,19,w,B. Sc. Psychologie,2023-01-18_09h00.09.922,00_bat_bachelor,2022.2.4,60.00753548443612,
,,,,,,,,,,,,0,0,0,0,155,0,155,0,,,,,,,155,,,1,1028.414457011153,,Y,l,go,l,1,0.2023693244846072,,,,,,,,,,,,,,,,,36,001,19,w,B. Sc. Psychologie,2023-01-18_09h00.09.922,00_bat_bachelor,2022.2.4,60.00753548443612,
,,,,,,,,,,,,0,0,0,0,156,0,156,0,,,,,,,156,,,1,1029.7321930995386,,X,d,go,d,1,0.26138796255690977,,,,,,,,,,,,,,,,,36,001,19,w,B. Sc. Psychologie,2023-01-18_09h00.09.922,00_bat_bachelor,2022.2.4,60.00753548443612,
,,,,,,,,,,,,0,0,0,0,157,0,157,0,,,,,,,157,,,1,1031.0992639518809,,Y,l,go,l,1,0.25382093590451404,,,,,,,,,,,,,,,,,36,001,19,w,B. Sc. Psychologie,2023-01-18_09h00.09.922,00_bat_bachelor,2022.2.4,60.00753548443612,
,,,,,,,,,,,,0,0,0,0,158,0,158,0,,,,,,,158,,,1,1032.4669214705646,,Y,None,nogo,d,0,0.27858698449563235,,,,,,,,,,,,,,,,,36,001,19,w,B. Sc. Psychologie,2023-01-18_09h00.09.922,00_bat_bachelor,2022.2.4,60.00753548443612,
,,,,,,,,,,,,0,0,0,0,159,0,159,0,,,,,,,159,,,1,1033.8515685567982,,X,d,go,d,1,0.5110789929749444,,,,,,,,,,,,,,,,,36,001,19,w,B. Sc. Psychologie,2023-01-18_09h00.09.922,00_bat_bachelor,2022.2.4,60.00753548443612,
,,,,,,,,,,,,0,0,0,0,160,0,160,0,,,,,,,160,,,1,1035.4693374694034,,Y,l,go,l,1,0.2995847925194539,,,,,,,,,,,,,,,,,36,001,19,w,B. Sc. Psychologie,2023-01-18_09h00.09.922,00_bat_bachelor,2022.2.4,60.00753548443612,
,,,,,,,,,,,,0,0,0,0,161,0,161,0,,,,,,,161,,,1,1036.8705760627345,,X,d,go,d,1,0.29153049338492565,,,,,,,,,,,,,,,,,36,001,19,w,B. Sc. Psychologie,2023-01-18_09h00.09.922,00_bat_bachelor,2022.2.4,60.00753548443612,
,,,,,,,,,,,,0,0,0,0,162,0,162,0,,,,,,,162,,,1,1038.271563504677,,Y,l,go,l,1,0.21721343850367703,,,,,,,,,,,,,,,,,36,001,19,w,B. Sc. Psychologie,2023-01-18_09h00.09.922,00_bat_bachelor,2022.2.4,60.00753548443612,
,,,,,,,,,,,,0,0,0,0,163,0,163,0,,,,,,,163,,,1,1039.5889277144452,,X,d,go,d,1,0.32551399208023213,,,,,,,,,,,,,,,,,36,001,19,w,B. Sc. Psychologie,2023-01-18_09h00.09.922,00_bat_bachelor,2022.2.4,60.00753548443612,
,,,,,,,,,,,,0,0,0,0,164,0,164,0,,,,,,,164,,,1,1041.0237148976012,,Y,l,go,l,1,0.2653060212614946,,,,,,,,,,,,,,,,,36,001,19,w,B. Sc. Psychologie,2023-01-18_09h00.09.922,00_bat_bachelor,2022.2.4,60.00753548443612,
,,,,,,,,,,,,0,0,0,0,165,0,165,0,,,,,,,165,,,1,1042.3913913253928,,Y,None,nogo,None,1,,,,,,,,,,,,,,,,,,36,001,19,w,B. Sc. Psychologie,2023-01-18_09h00.09.922,00_bat_bachelor,2022.2.4,60.00753548443612,
,,,,,,,,,,,,0,0,0,0,166,0,166,0,,,,,,,166,,,1,1044.1928066943947,,X,d,go,d,1,0.34452537677134387,,,,,,,,,,,,,,,,,36,001,19,w,B. Sc. Psychologie,2023-01-18_09h00.09.922,00_bat_bachelor,2022.2.4,60.00753548443612,
,,,,,,,,,,,,0,0,0,0,167,0,167,0,,,,,,,167,,,1,1045.6435308395012,,Y,l,go,l,1,0.3013573977223132,,,,,,,,,,,,,,,,,36,001,19,w,B. Sc. Psychologie,2023-01-18_09h00.09.922,00_bat_bachelor,2022.2.4,60.00753548443612,
,,,,,,,,,,,,0,0,0,0,168,0,168,0,,,,,,,168,,,1,1047.0616678488732,,X,d,go,d,1,0.32443762896582484,,,,,,,,,,,,,,,,,36,001,19,w,B. Sc. Psychologie,2023-01-18_09h00.09.922,00_bat_bachelor,2022.2.4,60.00753548443612,
,,,,,,,,,,,,0,0,0,0,169,0,169,0,,,,,,,169,,,1,1048.4960836382525,,Y,l,go,l,1,0.21653949946630746,,,,,,,,,,,,,,,,,36,001,19,w,B. Sc. Psychologie,2023-01-18_09h00.09.922,00_bat_bachelor,2022.2.4,60.00753548443612,
,,,,,,,,,,,,0,0,0,0,170,0,170,0,,,,,,,170,,,1,1049.8134997267916,,Y,None,nogo,None,1,,,,,,,,,,,,,,,,,,36,001,19,w,B. Sc. Psychologie,2023-01-18_09h00.09.922,00_bat_bachelor,2022.2.4,60.00753548443612,
,,,,,,,,,,,,0,0,0,0,171,0,171,0,,,,,,,171,,,1,1051.6150411563285,,X,d,go,d,1,0.3298514445195906,,,,,,,,,,,,,,,,,36,001,19,w,B. Sc. Psychologie,2023-01-18_09h00.09.922,00_bat_bachelor,2022.2.4,60.00753548443612,
,,,,,,,,,,,,0,0,0,0,172,0,172,0,,,,,,,172,,,1,1053.049191248865,,Y,l,go,l,1,0.2881263738090638,,,,,,,,,,,,,,,,,36,001,19,w,B. Sc. Psychologie,2023-01-18_09h00.09.922,00_bat_bachelor,2022.2.4,60.00753548443612,
,,,,,,,,,,,,0,0,0,0,173,0,173,0,,,,,,,173,,,1,1054.4505277815624,,X,d,go,d,1,0.2793244386848528,,,,,,,,,,,,,,,,,36,001,19,w,B. Sc. Psychologie,2023-01-18_09h00.09.922,00_bat_bachelor,2022.2.4,60.00753548443612,
,,,,,,,,,,,,0,0,0,0,174,0,174,0,,,,,,,174,,,1,1055.8350880799408,,X,None,nogo,l,0,0.27058068534824997,,,,,,,,,,,,,,,,,36,001,19,w,B. Sc. Psychologie,2023-01-18_09h00.09.922,00_bat_bachelor,2022.2.4,60.00753548443612,
,,,,,,,,,,,,0,0,0,0,175,0,175,0,,,,,,,175,,,1,1057.2193463178992,,Y,l,go,l,1,0.2950810370966792,,,,,,,,,,,,,,,,,36,001,19,w,B. Sc. Psychologie,2023-01-18_09h00.09.922,00_bat_bachelor,2022.2.4,60.00753548443612,
,,,,,,,,,,,,0,0,0,0,176,0,176,0,,,,,,,176,,,1,1058.6203512143693,,X,d,go,d,1,0.49385136499768123,,,,,,,,,,,,,,,,,36,001,19,w,B. Sc. Psychologie,2023-01-18_09h00.09.922,00_bat_bachelor,2022.2.4,60.00753548443612,
,,,,,,,,,,,,0,0,0,0,177,0,177,0,,,,,,,177,,,1,1060.2217487409653,,Y,l,go,l,1,0.3002597012964543,,,,,,,,,,,,,,,,,36,001,19,w,B. Sc. Psychologie,2023-01-18_09h00.09.922,00_bat_bachelor,2022.2.4,60.00753548443612,
,,,,,,,,,,,,0,0,0,0,178,0,178,0,,,,,,,178,,,1,1061.6226862435287,,Y,None,nogo,None,1,,,,,,,,,,,,,,,,,,36,001,19,w,B. Sc. Psychologie,2023-01-18_09h00.09.922,00_bat_bachelor,2022.2.4,60.00753548443612,
,,,,,,,,,,,,0,0,0,0,179,0,179,0,,,,,,,179,,,1,1063.424106945895,,X,d,go,d,1,0.31416999755310826,,,,,,,,,,,,,,,,,36,001,19,w,B. Sc. Psychologie,2023-01-18_09h00.09.922,00_bat_bachelor,2022.2.4,60.00753548443612,
,,,,,,,,,,,,0,0,0,0,180,0,180,0,,,,,,,180,,,1,1064.8416049252846,,Y,l,go,l,1,0.30276103341020644,,,,,,,,,,,,,,,,,36,001,19,w,B. Sc. Psychologie,2023-01-18_09h00.09.922,00_bat_bachelor,2022.2.4,60.00753548443612,
,,,,,,,,,,,,0,0,0,0,181,0,181,0,,,,,,,181,,,1,1066.2595906619972,,X,d,go,d,1,0.3738737261737697,,,,,,,,,,,,,,,,,36,001,19,w,B. Sc. Psychologie,2023-01-18_09h00.09.922,00_bat_bachelor,2022.2.4,60.00753548443612,
,,,,,,,,,,,,0,0,0,0,182,0,182,0,,,,,,,182,,,1,1067.743966184731,,Y,l,go,l,1,0.2172357415256556,,,,,,,,,,,,,,,,,36,001,19,w,B. Sc. Psychologie,2023-01-18_09h00.09.922,00_bat_bachelor,2022.2.4,60.00753548443612,
,,,,,,,,,,,,0,0,0,0,183,0,183,0,,,,,,,183,,,1,1069.061729424604,,X,d,go,d,1,0.3080104854016099,,,,,,,,,,,,,,,,,36,001,19,w,B. Sc. Psychologie,2023-01-18_09h00.09.922,00_bat_bachelor,2022.2.4,60.00753548443612,
,,,,,,,,,,,,0,0,0,0,184,0,184,0,,,,,,,184,,,1,1070.4794082524022,,Y,l,go,l,1,0.2651571728347335,,,,,,,,,,,,,,,,,36,001,19,w,B. Sc. Psychologie,2023-01-18_09h00.09.922,00_bat_bachelor,2022.2.4,60.00753548443612,
,,,,,,,,,,,,0,0,0,0,185,0,185,0,,,,,,,185,,,1,1071.8470827408019,,Y,None,nogo,None,1,,,,,,,,,,,,,,,,,,36,001,19,w,B. Sc. Psychologie,2023-01-18_09h00.09.922,00_bat_bachelor,2022.2.4,60.00753548443612,
,,,,,,,,,,,,0,0,0,0,186,0,186,0,,,,,,,186,,,1,1073.6483342311112,,X,d,go,d,1,0.29786212666658685,,,,,,,,,,,,,,,,,36,001,19,w,B. Sc. Psychologie,2023-01-18_09h00.09.922,00_bat_bachelor,2022.2.4,60.00753548443612,
,,,,,,,,,,,,0,0,0,0,187,0,187,0,,,,,,,187,,,1,1075.0493420366838,,Y,l,go,l,1,0.3037423662317451,,,,,,,,,,,,,,,,,36,001,19,w,B. Sc. Psychologie,2023-01-18_09h00.09.922,00_bat_bachelor,2022.2.4,60.00753548443612,
,,,,,,,,,,,,0,0,0,0,188,0,188,0,,,,,,,188,,,1,1076.4672977128066,,X,d,go,d,1,0.32590284035541117,,,,,,,,,,,,,,,,,36,001,19,w,B. Sc. Psychologie,2023-01-18_09h00.09.922,00_bat_bachelor,2022.2.4,60.00753548443612,
,,,,,,,,,,,,0,0,0,0,189,0,189,0,,,,,,,189,,,1,1077.9014439265593,,Y,l,go,l,1,0.2518621489580255,,,,,,,,,,,,,,,,,36,001,19,w,B. Sc. Psychologie,2023-01-18_09h00.09.922,00_bat_bachelor,2022.2.4,60.00753548443612,
,,,,,,,,,,,,0,0,0,0,190,0,190,0,,,,,,,190,,,1,1079.2694505360269,1080.0698734206671,Y,None,nogo,None,1,,,,,,,,,,,,,,,,,,36,001,19,w,B. Sc. Psychologie,2023-01-18_09h00.09.922,00_bat_bachelor,2022.2.4,60.00753548443612,
,,,,,,,,,,,,0,0,0,0,191,0,191,0,,,,,,,191,,,1,1081.070557541534,,X,d,go,d,1,0.34643519402015954,,,,,,,,,,,,,,,,,36,001,19,w,B. Sc. Psychologie,2023-01-18_09h00.09.922,00_bat_bachelor,2022.2.4,60.00753548443612,
,,,,,,,,,,,,0,0,0,0,192,0,192,0,,,,,,,192,,,1,1082.521926049958,,Y,l,go,l,1,0.23980639723595232,,,,,,,,,,,,,,,,,36,001,19,w,B. Sc. Psychologie,2023-01-18_09h00.09.922,00_bat_bachelor,2022.2.4,60.00753548443612,
,,,,,,,,,,,,0,0,0,0,193,0,193,0,,,,,,,193,,,1,1083.8730027282436,,X,d,go,d,1,0.29584564283140935,,,,,,,,,,,,,,,,,36,001,19,w,B. Sc. Psychologie,2023-01-18_09h00.09.922,00_bat_bachelor,2022.2.4,60.00753548443612,
,,,,,,,,,,,,0,0,0,0,194,0,194,0,,,,,,,194,,,1,1085.274142412527,,Y,l,go,l,1,0.31917363149113953,,,,,,,,,,,,,,,,,36,001,19,w,B. Sc. Psychologie,2023-01-18_09h00.09.922,00_bat_bachelor,2022.2.4,60.00753548443612,
,,,,,,,,,,,,0,0,0,0,195,0,195,0,,,,,,,195,,,1,1086.7090338380367,,X,d,go,d,1,0.35568076532217674,,,,,,,,,,,,,,,,,36,001,19,w,B. Sc. Psychologie,2023-01-18_09h00.09.922,00_bat_bachelor,2022.2.4,60.00753548443612,
,,,,,,,,,,,,0,0,0,0,196,0,196,0,,,,,,,196,,,1,1088.1934651183255,1088.9944872753986,X,None,nogo,None,1,,,,,,,,,,,,,,,,,,36,001,19,w,B. Sc. Psychologie,2023-01-18_09h00.09.922,00_bat_bachelor,2022.2.4,60.00753548443612,
,,,,,,,,,,,,0,0,0,0,197,0,197,0,,,,,,,197,,,1,1089.9950395175547,,X,None,nogo,d,0,0.44515417647198774,,,,,,,,,,,,,,,,,36,001,19,w,B. Sc. Psychologie,2023-01-18_09h00.09.922,00_bat_bachelor,2022.2.4,60.00753548443612,
,,,,,,,,,,,,0,0,0,0,198,0,198,0,,,,,,,198,,,1,1091.5630722118367,,Y,l,go,l,1,0.36584415432298556,,,,,,,,,,,,,,,,,36,001,19,w,B. Sc. Psychologie,2023-01-18_09h00.09.922,00_bat_bachelor,2022.2.4,60.00753548443612,
,,,,,,,,,,,,0,0,0,0,199,0,199,0,,,,,,,199,,,1,1093.0640586356167,,X,d,go,d,1,0.24035766971064731,,,,,,,,,,,,,,,,,36,001,19,w,B. Sc. Psychologie,2023-01-18_09h00.09.922,00_bat_bachelor,2022.2.4,60.00753548443612,
,,,,,,,,,,,,0,0,0,0,200,0,200,0,,,,,,,200,,,1,1094.4484274189454,,Y,l,go,l,1,0.29685849079396576,,,,,,,,,,,,,,,,,36,001,19,w,B. Sc. Psychologie,2023-01-18_09h00.09.922,00_bat_bachelor,2022.2.4,60.00753548443612,
,,,,,,,,,,,,0,0,0,0,201,0,201,0,,,,,,,201,,,1,1095.8660204285989,1096.6670954341243,Y,None,nogo,None,1,,,,,,,,,,,,,,,,,,36,001,19,w,B. Sc. Psychologie,2023-01-18_09h00.09.922,00_bat_bachelor,2022.2.4,60.00753548443612,
,,,,,,,,,,,,0,0,0,0,202,0,202,0,,,,,,,202,,,1,1097.6673848885403,,X,d,go,d,1,0.4212400062533561,,,,,,,,,,,,,,,,,36,001,19,w,B. Sc. Psychologie,2023-01-18_09h00.09.922,00_bat_bachelor,2022.2.4,60.00753548443612,
,,,,,,,,,,,,0,0,0,0,203,0,203,0,,,,,,,203,,,1,1099.2185608637228,,Y,l,go,l,1,0.2772599548334256,,,,,,,,,,,,,,,,,36,001,19,w,B. Sc. Psychologie,2023-01-18_09h00.09.922,00_bat_bachelor,2022.2.4,60.00753548443612,
,,,,,,,,,,,,0,0,0,0,204,0,204,0,,,,,,,204,,,1,1100.6195851541415,1101.420604886982,Y,None,nogo,None,1,,,,,,,,,,,,,,,,,,36,001,19,w,B. Sc. Psychologie,2023-01-18_09h00.09.922,00_bat_bachelor,2022.2.4,60.00753548443612,
,,,,,,,,,,,,0,0,0,0,205,0,205,0,,,,,,,205,,,1,1102.421337007836,,X,d,go,d,1,0.4685345287725795,,,,,,,,,,,,,,,,,36,001,19,w,B. Sc. Psychologie,2023-01-18_09h00.09.922,00_bat_bachelor,2022.2.4,60.00753548443612,
,,,,,,,,,,,,0,0,0,0,206,0,206,0,,,,,,,206,,,1,1104.0054904215795,,Y,l,go,l,1,0.30682163749588653,,,,,,,,,,,,,,,,,36,001,19,w,B. Sc. Psychologie,2023-01-18_09h00.09.922,00_bat_bachelor,2022.2.4,60.00753548443612,
,,,,,,,,,,,,0,0,0,0,207,0,207,0,,,,,,,207,,,1,1105.4403236653015,,X,d,go,d,1,0.39244147477438673,,,,,,,,,,,,,,,,,36,001,19,w,B. Sc. Psychologie,2023-01-18_09h00.09.922,00_bat_bachelor,2022.2.4,60.00753548443612,
,,,,,,,,,,,,0,0,0,0,208,0,208,0,,,,,,,208,,,1,1106.9578157780343,,X,None,nogo,None,1,,,,,,,,,,,,,,,,,,36,001,19,w,B. Sc. Psychologie,2023-01-18_09h00.09.922,00_bat_bachelor,2022.2.4,60.00753548443612,
,,,,,,,,,,,,0,0,0,0,209,0,209,0,,,,,,,209,,,1,1108.7593096924538,,X,None,nogo,d,0,0.4494484774477314,,,,,,,,,,,,,,,,,36,001,19,w,B. Sc. Psychologie,2023-01-18_09h00.09.922,00_bat_bachelor,2022.2.4,60.00753548443612,
,,,,,,,,,,,,0,0,0,0,210,0,210,0,,,,,,,210,,,1,1110.3273089322029,,Y,l,go,l,1,0.3693176071974449,,,,,,,,,,,,,,,,,36,001,19,w,B. Sc. Psychologie,2023-01-18_09h00.09.922,00_bat_bachelor,2022.2.4,60.00753548443612,
,,,,,,,,,,,,0,0,0,0,211,0,211,0,,,,,,,211,,,1,1111.8445532874903,,X,d,go,d,1,0.3890305673412513,,,,,,,,,,,,,,,,,36,001,19,w,B. Sc. Psychologie,2023-01-18_09h00.09.922,00_bat_bachelor,2022.2.4,60.00753548443612,
,,,,,,,,,,,,0,0,0,0,212,0,212,0,,,,,,,212,,,1,1113.3456832263328,,X,None,nogo,d,0,0.5831715641252231,,,,,,,,,,,,,,,,,36,001,19,w,B. Sc. Psychologie,2023-01-18_09h00.09.922,00_bat_bachelor,2022.2.4,60.00753548443612,
,,,,,,,,,,,,0,0,0,0,213,0,213,0,,,,,,,213,,,1,1115.030298167112,,Y,l,go,l,1,0.4505010829598177,,,,,,,,,,,,,,,,,36,001,19,w,B. Sc. Psychologie,2023-01-18_09h00.09.922,00_bat_bachelor,2022.2.4,60.00753548443612,
,,,,,,,,,,,,0,0,0,0,214,0,214,0,,,,,,,214,,,1,1116.5814135362743,,X,d,go,d,1,0.4033820755139459,,,,,,,,,,,,,,,,,36,001,19,w,B. Sc. Psychologie,2023-01-18_09h00.09.922,00_bat_bachelor,2022.2.4,60.00753548443612,
,,,,,,,,,,,,0,0,0,0,215,0,215,0,,,,,,,215,,,1,1118.1157313378353,,X,None,nogo,None,1,,,,,,,,,,,,,,,,,,36,001,19,w,B. Sc. Psychologie,2023-01-18_09h00.09.922,00_bat_bachelor,2022.2.4,60.00753548443612,
,,,,,,,,,,,,0,0,0,0,216,0,216,0,,,,,,,216,,,1,1119.917063797795,,Y,l,go,l,1,0.4288181843876373,,,,,,,,,,,,,,,,,36,001,19,w,B. Sc. Psychologie,2023-01-18_09h00.09.922,00_bat_bachelor,2022.2.4,60.00753548443612,
,,,,,,,,,,,,0,0,0,0,217,0,217,0,,,,,,,217,,,1,1121.4515774780302,,X,d,go,d,1,0.4464448425278533,,,,,,,,,,,,,,,,,36,001,19,w,B. Sc. Psychologie,2023-01-18_09h00.09.922,00_bat_bachelor,2022.2.4,60.00753548443612,
,,,,,,,,,,,,0,0,0,0,218,0,218,0,,,,,,,218,,,1,1123.0028174531762,,Y,l,go,l,1,0.3501821013051085,,,,,,,,,,,,,,,,,36,001,19,w,B. Sc. Psychologie,2023-01-18_09h00.09.922,00_bat_bachelor,2022.2.4,60.00753548443612,
,,,,,,,,,,,,0,0,0,0,219,0,219,0,,,,,,,219,,,1,1124.4539023253892,,X,d,go,d,1,0.38755856806528755,,,,,,,,,,,,,,,,,36,001,19,w,B. Sc. Psychologie,2023-01-18_09h00.09.922,00_bat_bachelor,2022.2.4,60.00753548443612,
,,,,,,,,,,,,0,0,0,0,220,0,220,0,,,,,,,220,,,1,1125.954977961228,,X,None,nogo,None,1,,,,,,,,,,,,,,,,,,36,001,19,w,B. Sc. Psychologie,2023-01-18_09h00.09.922,00_bat_bachelor,2022.2.4,60.00753548443612,
,,,,,,,,,,,,0,0,0,0,221,0,221,0,,,,,,,221,,,1,1127.7561586636875,,X,None,nogo,None,1,,,,,,,,,,,,,,,,,,36,001,19,w,B. Sc. Psychologie,2023-01-18_09h00.09.922,00_bat_bachelor,2022.2.4,60.00753548443612,
,,,,,,,,,,,,0,0,0,0,222,0,222,0,,,,,,,222,,,1,1129.557800941664,,Y,l,go,l,1,0.27547813751152717,,,,,,,,,,,,,,,,,36,001,19,w,B. Sc. Psychologie,2023-01-18_09h00.09.922,00_bat_bachelor,2022.2.4,60.00753548443612,
,,,,,,,,,,,,0,0,0,0,223,0,223,0,,,,,,,223,,,1,1130.941865240311,,X,d,go,d,1,0.4602746539749205,,,,,,,,,,,,,,,,,36,001,19,w,B. Sc. Psychologie,2023-01-18_09h00.09.922,00_bat_bachelor,2022.2.4,60.00753548443612,
,,,,,,,,,,,,0,0,0,0,224,0,224,0,,,,,,,224,,,1,1132.51006666178,,Y,l,go,l,1,0.3474664662498981,,,,,,,,,,,,,,,,,36,001,19,w,B. Sc. Psychologie,2023-01-18_09h00.09.922,00_bat_bachelor,2022.2.4,60.00753548443612,
,,,,,,,,,,,,0,0,0,0,225,0,225,0,,,,,,,225,,,1,1133.9613968672056,1134.761539509549,Y,None,nogo,None,1,,,,,,,,,,,,,,,,,,36,001,19,w,B. Sc. Psychologie,2023-01-18_09h00.09.922,00_bat_bachelor,2022.2.4,60.00753548443612,
,,,,,,,,,,,,0,0,0,0,226,0,226,0,,,,,,,226,,,1,1135.7625877514656,,Y,None,nogo,None,1,,,,,,,,,,,,,,,,,,36,001,19,w,B. Sc. Psychologie,2023-01-18_09h00.09.922,00_bat_bachelor,2022.2.4,60.00753548443612,
,,,,,,,,,,,,0,0,0,0,227,0,227,0,,,,,,,227,,,1,1137.5640389992623,,X,d,go,d,1,0.34867082932032645,,,,,,,,,,,,,,,,,36,001,19,w,B. Sc. Psychologie,2023-01-18_09h00.09.922,00_bat_bachelor,2022.2.4,60.00753548443612,
,,,,,,,,,,,,0,0,0,0,228,0,228,0,,,,,,,228,,,1,1139.0150545381475,,Y,l,go,l,1,0.38674499266198836,,,,,,,,,,,,,,,,,36,001,19,w,B. Sc. Psychologie,2023-01-18_09h00.09.922,00_bat_bachelor,2022.2.4,60.00753548443612,
,,,,,,,,,,,,0,0,0,0,229,0,229,0,,,,,,,229,,,1,1140.515900840779,,Y,None,nogo,None,1,,,,,,,,,,,,,,,,,,36,001,19,w,B. Sc. Psychologie,2023-01-18_09h00.09.922,00_bat_bachelor,2022.2.4,60.00753548443612,
,,,,,,,,,,,,0,0,0,0,230,0,230,0,,,,,,,230,,,1,1142.3173894218635,,X,d,go,d,1,0.4445689646236133,,,,,,,,,,,,,,,,,36,001,19,w,B. Sc. Psychologie,2023-01-18_09h00.09.922,00_bat_bachelor,2022.2.4,60.00753548443612,
,,,,,,,,,,,,0,0,0,0,231,0,231,0,,,,,,,231,,,1,1143.8687166697055,,Y,l,go,l,1,0.5078634794044774,,,,,,,,,,,,,,,,,36,001,19,w,B. Sc. Psychologie,2023-01-18_09h00.09.922,00_bat_bachelor,2022.2.4,60.00753548443612,
,,,,,,,,,,,,0,0,0,0,232,0,232,0,,,,,,,232,,,1,1145.4865195216844,,X,d,go,d,1,0.3468002847803291,,,,,,,,,,,,,,,,,36,001,19,w,B. Sc. Psychologie,2023-01-18_09h00.09.922,00_bat_bachelor,2022.2.4,60.00753548443612,
,,,,,,,,,,,,0,0,0,0,233,0,233,0,,,,,,,233,,,1,1146.9377212423133,,Y,l,go,l,1,0.3840497212659102,,,,,,,,,,,,,,,,,36,001,19,w,B. Sc. Psychologie,2023-01-18_09h00.09.922,00_bat_bachelor,2022.2.4,60.00753548443612,
,,,,,,,,,,,,0,0,0,0,234,0,234,0,,,,,,,234,,,1,1148.4221801589301,,X,d,go,d,1,0.4030174696526956,,,,,,,,,,,,,,,,,36,001,19,w,B. Sc. Psychologie,2023-01-18_09h00.09.922,00_bat_bachelor,2022.2.4,60.00753548443612,
,,,,,,,,,,,,0,0,0,0,235,0,235,0,,,,,,,235,,,1,1149.9399510594085,,X,None,nogo,None,1,,,,,,,,,,,,,,,,,,36,001,19,w,B. Sc. Psychologie,2023-01-18_09h00.09.922,00_bat_bachelor,2022.2.4,60.00753548443612,
,,,,,,,,,,,,0,0,0,0,236,0,236,0,,,,,,,236,,,1,1151.7411841254798,,Y,l,go,l,1,0.39569626105367206,,,,,,,,,,,,,,,,,36,001,19,w,B. Sc. Psychologie,2023-01-18_09h00.09.922,00_bat_bachelor,2022.2.4,60.00753548443612,
,,,,,,,,,,,,0,0,0,0,237,0,237,0,,,,,,,237,,,1,1153.242509458185,,X,d,go,d,1,0.3506722828897182,,,,,,,,,,,,,,,,,36,001,19,w,B. Sc. Psychologie,2023-01-18_09h00.09.922,00_bat_bachelor,2022.2.4,60.00753548443612,
,,,,,,,,,,,,0,0,0,0,238,0,238,0,,,,,,,238,,,1,1154.6932854820334,,X,None,nogo,None,1,,,,,,,,,,,,,,,,,,36,001,19,w,B. Sc. Psychologie,2023-01-18_09h00.09.922,00_bat_bachelor,2022.2.4,60.00753548443612,
,,,,,,,,,,,,0,0,0,0,239,0,239,0,,,,,,,239,,,1,1156.4949030327552,,Y,l,go,l,1,0.49024554854258895,,,,,,,,,,,,,,,,,36,001,19,w,B. Sc. Psychologie,2023-01-18_09h00.09.922,00_bat_bachelor,2022.2.4,60.00753548443612,
,,,,,,,,,,,,0,0,0,0,240,0,240,0,,,,,,,240,,,1,1158.096226862428,,X,d,go,d,1,0.4729791326681152,,,,,,,,,,,,,,,,,36,001,19,w,B. Sc. Psychologie,2023-01-18_09h00.09.922,00_bat_bachelor,2022.2.4,60.00753548443612,
,,,,,,,,,,,,0,0,0,0,241,0,241,0,,,,,,,241,,,1,1159.6812379727198,1160.4823454630969,X,None,nogo,None,1,,,,,,,,,,,,,,,,,,36,001,19,w,B. Sc. Psychologie,2023-01-18_09h00.09.922,00_bat_bachelor,2022.2.4,60.00753548443612,
,,,,,,,,,,,,0,0,0,0,242,0,242,0,,,,,,,242,,,1,1161.4828797658847,,Y,l,go,l,1,0.4306489714072086,,,,,,,,,,,,,,,,,36,001,19,w,B. Sc. Psychologie,2023-01-18_09h00.09.922,00_bat_bachelor,2022.2.4,60.00753548443612,
,,,,,,,,,,,,0,0,0,0,243,0,243,0,,,,,,,243,,,1,1163.0173590218765,,X,d,go,d,1,0.5277873485174496,,,,,,,,,,,,,,,,,36,001,19,w,B. Sc. Psychologie,2023-01-18_09h00.09.922,00_bat_bachelor,2022.2.4,60.00753548443612,
,,,,,,,,,,,,0,0,0,0,244,0,244,0,,,,,,,244,,,1,1164.651708774938,1165.4520885080856,X,None,nogo,None,1,,,,,,,,,,,,,,,,,,36,001,19,w,B. Sc. Psychologie,2023-01-18_09h00.09.922,00_bat_bachelor,2022.2.4,60.00753548443612,
,,,,,,,,,,,,0,0,0,0,245,0,245,0,,,,,,,245,,,1,1166.4530955379014,,Y,l,go,l,1,0.43560993869323283,,,,,,,,,,,,,,,,,36,001,19,w,B. Sc. Psychologie,2023-01-18_09h00.09.922,00_bat_bachelor,2022.2.4,60.00753548443612,
,,,,,,,,,,,,0,0,0,0,246,0,246,0,,,,,,,246,,,1,1168.0207781717472,,X,d,go,d,1,0.5484438233834226,,,,,,,,,,,,,,,,,36,001,19,w,B. Sc. Psychologie,2023-01-18_09h00.09.922,00_bat_bachelor,2022.2.4,60.00753548443612,
,,,,,,,,,,,,0,0,0,0,247,0,247,0,,,,,,,247,,,1,1169.67213688622,,Y,l,go,l,1,0.5136937795905396,,,,,,,,,,,,,,,,,36,001,19,w,B. Sc. Psychologie,2023-01-18_09h00.09.922,00_bat_bachelor,2022.2.4,60.00753548443612,
,,,,,,,,,,,,0,0,0,0,248,0,248,0,,,,,,,248,,,1,1171.2897210716328,1172.0901880774763,Y,None,nogo,None,1,,,,,,,,,,,,,,,,,,36,001,19,w,B. Sc. Psychologie,2023-01-18_09h00.09.922,00_bat_bachelor,2022.2.4,60.00753548443612,
,,,,,,,,,,,,0,0,0,0,249,0,249,0,,,,,,,249,,,1,1173.0909997134586,,X,d,go,d,1,0.48535585394711234,,,,,,,,,,,,,,,,,36,001,19,w,B. Sc. Psychologie,2023-01-18_09h00.09.922,00_bat_bachelor,2022.2.4,60.00753548443612,
,,,,,,,,,,,,1,0,1,0,0,0,0,0,,,,,,,0,,,0.2,1181.7809062880406,,X,d,go,d,1,0.41984073421917856,,,,,,,,1173.7135991691612,space,7.8348713208397385,,,,,,,36,001,19,w,B. Sc. Psychologie,2023-01-18_09h00.09.922,00_bat_bachelor,2022.2.4,60.00753548443612,
,,,,,,,,,,,,1,0,1,0,1,0,1,0,,,,,,,1,,,0.2,1182.5148584170383,,Y,l,go,l,1,0.3415353176242206,,,,,,,,,,,,,,,,,36,001,19,w,B. Sc. Psychologie,2023-01-18_09h00.09.922,00_bat_bachelor,2022.2.4,60.00753548443612,
,,,,,,,,,,,,1,0,1,0,2,0,2,0,,,,,,,2,,,0.2,1183.1650486472354,,X,d,go,d,1,0.3804346927208826,,,,,,,,,,,,,,,,,36,001,19,w,B. Sc. Psychologie,2023-01-18_09h00.09.922,00_bat_bachelor,2022.2.4,60.00753548443612,
,,,,,,,,,,,,1,0,1,0,3,0,3,0,,,,,,,3,,,0.2,1183.8663360647915,,Y,l,go,l,1,0.33349604878458194,,,,,,,,,,,,,,,,,36,001,19,w,B. Sc. Psychologie,2023-01-18_09h00.09.922,00_bat_bachelor,2022.2.4,60.00753548443612,
,,,,,,,,,,,,1,0,1,0,4,0,4,0,,,,,,,4,,,0.2,1184.5335124685953,,Y,None,nogo,d,0,0.2751848043408245,,,,,,,,,,,,,,,,,36,001,19,w,B. Sc. Psychologie,2023-01-18_09h00.09.922,00_bat_bachelor,2022.2.4,60.00753548443612,
,,,,,,,,,,,,1,0,1,0,5,0,5,0,,,,,,,5,,,0.2,1185.150770835986,,X,d,go,d,1,0.5217437150713522,,,,,,,,,,,,,,,,,36,001,19,w,B. Sc. Psychologie,2023-01-18_09h00.09.922,00_bat_bachelor,2022.2.4,60.00753548443612,
,,,,,,,,,,,,1,0,1,0,6,0,6,0,,,,,,,6,,,0.2,1186.0014642417082,,Y,l,go,l,1,0.3594567634863779,,,,,,,,,,,,,,,,,36,001,19,w,B. Sc. Psychologie,2023-01-18_09h00.09.922,00_bat_bachelor,2022.2.4,60.00753548443612,
,,,,,,,,,,,,1,0,1,0,7,0,7,0,,,,,,,7,,,0.2,1186.6852064556442,1187.486253340001,Y,None,nogo,None,1,,,,,,,,,,,,,,,,,,36,001,19,w,B. Sc. Psychologie,2023-01-18_09h00.09.922,00_bat_bachelor,2022.2.4,60.00753548443612,
,,,,,,,,,,,,1,0,1,0,8,0,8,0,,,,,,,8,,,0.2,1187.685933728033,,X,d,go,d,1,0.49836384764057584,,,,,,,,,,,,,,,,,36,001,19,w,B. Sc. Psychologie,2023-01-18_09h00.09.922,00_bat_bachelor,2022.2.4,60.00753548443612,
,,,,,,,,,,,,1,0,1,0,9,0,9,0,,,,,,,9,,,0.2,1188.5199551418482,1189.3210568140203,Y,l,go,None,0,,,,,,,,,,,,,,,,,,36,001,19,w,B. Sc. Psychologie,2023-01-18_09h00.09.922,00_bat_bachelor,2022.2.4,60.00753548443612,
,,,,,,,,,,,,1,0,1,0,10,0,10,0,,,,,,,10,,,0.2,1189.5205917475978,,X,d,go,d,1,0.36033142972155474,,,,,,,,,,,,,,,,,36,001,19,w,B. Sc. Psychologie,2023-01-18_09h00.09.922,00_bat_bachelor,2022.2.4,60.00753548443612,
,,,,,,,,,,,,1,0,1,0,11,0,11,0,,,,,,,11,,,0.2,1190.205028749071,,Y,l,go,l,1,0.34790282970061526,,,,,,,,,,,,,,,,,36,001,19,w,B. Sc. Psychologie,2023-01-18_09h00.09.922,00_bat_bachelor,2022.2.4,60.00753548443612,
,,,,,,,,,,,,1,0,1,0,12,0,12,0,,,,,,,12,,,0.2,1190.8887409024173,,X,d,go,d,1,0.23968663971754722,,,,,,,,,,,,,,,,,36,001,19,w,B. Sc. Psychologie,2023-01-18_09h00.09.922,00_bat_bachelor,2022.2.4,60.00753548443612,
,,,,,,,,,,,,1,0,1,0,13,0,13,0,,,,,,,13,,,0.2,1191.4723478921806,1192.2730670191231,X,None,nogo,None,1,,,,,,,,,,,,,,,,,,36,001,19,w,B. Sc. Psychologie,2023-01-18_09h00.09.922,00_bat_bachelor,2022.2.4,60.00753548443612,
,,,,,,,,,,,,1,0,1,0,14,0,14,0,,,,,,,14,,,0.2,1192.4730518918368,,Y,l,go,l,1,0.27115523055545054,,,,,,,,,,,,,,,,,36,001,19,w,B. Sc. Psychologie,2023-01-18_09h00.09.922,00_bat_bachelor,2022.2.4,60.00753548443612,
,,,,,,,,,,,,1,0,1,0,15,0,15,0,,,,,,,15,,,0.2,1193.0903378955845,,X,d,go,d,1,0.19864811416482553,,,,,,,,,,,,,,,,,36,001,19,w,B. Sc. Psychologie,2023-01-18_09h00.09.922,00_bat_bachelor,2022.2.4,60.00753548443612,
,,,,,,,,,,,,1,0,1,0,16,0,16,0,,,,,,,16,,,0.2,1193.606725524005,,Y,l,go,l,1,0.2428977896925062,,,,,,,,,,,,,,,,,36,001,19,w,B. Sc. Psychologie,2023-01-18_09h00.09.922,00_bat_bachelor,2022.2.4,60.00753548443612,
,,,,,,,,,,,,1,0,1,0,17,0,17,0,,,,,,,17,,,0.2,1194.1571485298628,,X,d,go,d,1,0.2355324599193409,,,,,,,,,,,,,,,,,36,001,19,w,B. Sc. Psychologie,2023-01-18_09h00.09.922,00_bat_bachelor,2022.2.4,60.00753548443612,
,,,,,,,,,,,,1,0,1,0,18,0,18,0,,,,,,,18,,,0.2,1194.7077887477353,,X,None,nogo,l,0,0.18159018305595964,,,,,,,,,,,,,,,,,36,001,19,w,B. Sc. Psychologie,2023-01-18_09h00.09.922,00_bat_bachelor,2022.2.4,60.00753548443612,
,,,,,,,,,,,,1,0,1,0,19,0,19,0,,,,,,,19,,,0.2,1195.1912639072689,1195.9918812160613,Y,l,go,None,0,,,,,,,,,,,,,,,,,,36,001,19,w,B. Sc. Psychologie,2023-01-18_09h00.09.922,00_bat_bachelor,2022.2.4,60.00753548443612,
,,,,,,,,,,,,1,0,1,0,20,0,20,0,,,,,,,20,,,0.2,1196.1920532402,,X,d,go,None,0,,,,,,,,,,,,,,,,,,36,001,19,w,B. Sc. Psychologie,2023-01-18_09h00.09.922,00_bat_bachelor,2022.2.4,60.00753548443612,
,,,,,,,,,,,,1,0,1,0,21,0,21,0,,,,,,,21,,,0.2,1197.1926563914458,,X,None,nogo,l,0,0.28869316141935997,,,,,,,,,,,,,,,,,36,001,19,w,B. Sc. Psychologie,2023-01-18_09h00.09.922,00_bat_bachelor,2022.2.4,60.00753548443612,
,,,,,,,,,,,,1,0,1,0,22,0,22,0,,,,,,,22,,,0.2,1197.7931065245357,1198.5939323180937,Y,l,go,None,0,,,,,,,,,,,,,,,,,,36,001,19,w,B. Sc. Psychologie,2023-01-18_09h00.09.922,00_bat_bachelor,2022.2.4,60.00753548443612,
,,,,,,,,,,,,1,0,1,0,23,0,23,0,,,,,,,23,,,0.2,1198.7939705241297,,X,d,go,d,1,0.33471010881476104,,,,,,,,,,,,,,,,,36,001,19,w,B. Sc. Psychologie,2023-01-18_09h00.09.922,00_bat_bachelor,2022.2.4,60.00753548443612,
,,,,,,,,,,,,1,0,1,0,24,0,24,0,,,,,,,24,,,0.2,1199.4445321481035,,X,None,nogo,l,0,0.21236010754364543,,,,,,,,,,,,,,,,,36,001,19,w,B. Sc. Psychologie,2023-01-18_09h00.09.922,00_bat_bachelor,2022.2.4,60.00753548443612,
,,,,,,,,,,,,1,0,1,0,25,0,25,0,,,,,,,25,,,0.2,1199.9615379580355,,Y,l,go,d,0,0.16081492038210854,,,,,,,,,,,,,,,,,36,001,19,w,B. Sc. Psychologie,2023-01-18_09h00.09.922,00_bat_bachelor,2022.2.4,60.00753548443612,
,,,,,,,,,,,,1,0,1,0,26,0,26,0,,,,,,,26,,,0.2,1200.4283580953488,,X,d,go,l,0,0.12542584666516632,,,,,,,,,,,,,,,,,36,001,19,w,B. Sc. Psychologie,2023-01-18_09h00.09.922,00_bat_bachelor,2022.2.4,60.00753548443612,
,,,,,,,,,,,,1,0,1,0,27,0,27,0,,,,,,,27,,,0.2,1200.8622546122351,,Y,l,go,d,0,0.17104570331866853,,,,,,,,,,,,,,,,,36,001,19,w,B. Sc. Psychologie,2023-01-18_09h00.09.922,00_bat_bachelor,2022.2.4,60.00753548443612,
,,,,,,,,,,,,1,0,1,0,28,0,28,0,,,,,,,28,,,0.2,1201.3459382565052,,X,d,go,l,0,0.1504178345494438,,,,,,,,,,,,,,,,,36,001,19,w,B. Sc. Psychologie,2023-01-18_09h00.09.922,00_bat_bachelor,2022.2.4,60.00753548443612,
,,,,,,,,,,,,1,0,1,0,29,0,29,0,,,,,,,29,,,0.2,1201.7963007048238,,Y,l,go,d,0,0.1818229102063924,,,,,,,,,,,,,,,,,36,001,19,w,B. Sc. Psychologie,2023-01-18_09h00.09.922,00_bat_bachelor,2022.2.4,60.00753548443612,
,,,,,,,,,,,,1,0,1,0,30,0,30,0,,,,,,,30,,,0.2,1202.2799984096782,,Y,None,nogo,l,0,0.12961202644510195,,,,,,,,,,,,,,,,,36,001,19,w,B. Sc. Psychologie,2023-01-18_09h00.09.922,00_bat_bachelor,2022.2.4,60.00753548443612,
,,,,,,,,,,,,1,0,1,0,31,0,31,0,,,,,,,31,,,0.2,1202.7136767448683,,X,d,go,d,1,0.11243530749925412,,,,,,,,,,,,,,,,,36,001,19,w,B. Sc. Psychologie,2023-01-18_09h00.09.922,00_bat_bachelor,2022.2.4,60.00753548443612,
,,,,,,,,,,,,1,0,1,0,32,0,32,0,,,,,,,32,,,0.2,1203.1306467245158,,Y,l,go,l,1,0.09494780079694465,,,,,,,,,,,,,,,,,36,001,19,w,B. Sc. Psychologie,2023-01-18_09h00.09.922,00_bat_bachelor,2022.2.4,60.00753548443612,
,,,,,,,,,,,,1,0,1,0,33,0,33,0,,,,,,,33,,,0.2,1203.5309611971024,,X,d,go,d,1,0.09412743759457953,,,,,,,,,,,,,,,,,36,001,19,w,B. Sc. Psychologie,2023-01-18_09h00.09.922,00_bat_bachelor,2022.2.4,60.00753548443612,
,,,,,,,,,,,,1,0,1,0,34,0,34,0,,,,,,,34,,,0.2,1203.9312873060408,,Y,l,go,l,1,0.12641590676503256,,,,,,,,,,,,,,,,,36,001,19,w,B. Sc. Psychologie,2023-01-18_09h00.09.922,00_bat_bachelor,2022.2.4,60.00753548443612,
,,,,,,,,,,,,1,0,1,0,35,0,35,0,,,,,,,35,,,0.2,1204.3649205503461,,X,d,go,d,1,0.10932161202072166,,,,,,,,,,,,,,,,,36,001,19,w,B. Sc. Psychologie,2023-01-18_09h00.09.922,00_bat_bachelor,2022.2.4,60.00753548443612,
,,,,,,,,,,,,1,0,1,0,36,0,36,0,,,,,,,36,,,0.2,1204.781699014915,,Y,l,go,l,1,0.05857496996759437,,,,,,,,,,,,,,,,,36,001,19,w,B. Sc. Psychologie,2023-01-18_09h00.09.922,00_bat_bachelor,2022.2.4,60.00753548443612,
,,,,,,,,,,,,1,0,1,0,37,0,37,0,,,,,,,37,,,0.2,1205.1485870794568,,X,d,go,d,1,0.10778949156519957,,,,,,,,,,,,,,,,,36,001,19,w,B. Sc. Psychologie,2023-01-18_09h00.09.922,00_bat_bachelor,2022.2.4,60.00753548443612,
,,,,,,,,,,,,1,0,1,0,38,0,38,0,,,,,,,38,,,0.2,1205.5657907559653,,Y,l,go,l,1,0.10737155238166451,,,,,,,,,,,,,,,,,36,001,19,w,B. Sc. Psychologie,2023-01-18_09h00.09.922,00_bat_bachelor,2022.2.4,60.00753548443612,
,,,,,,,,,,,,1,0,1,0,39,0,39,0,,,,,,,39,,,0.2,1205.9828121295432,,Y,None,nogo,d,0,0.08987580327084288,,,,,,,,,,,,,,,,,36,001,19,w,B. Sc. Psychologie,2023-01-18_09h00.09.922,00_bat_bachelor,2022.2.4,60.00753548443612,
,,,,,,,,,,,,1,0,1,0,40,0,40,0,,,,,,,40,,,0.2,1206.383148420282,,X,d,go,l,0,0.12256718135904521,,,,,,,,,,,,,,,,,36,001,19,w,B. Sc. Psychologie,2023-01-18_09h00.09.922,00_bat_bachelor,2022.2.4,60.00753548443612,
,,,,,,,,,,,,1,0,1,0,41,0,41,0,,,,,,,41,,,0.2,1206.816563482862,,Y,l,go,d,0,0.07332647795556113,,,,,,,,,,,,,,,,,36,001,19,w,B. Sc. Psychologie,2023-01-18_09h00.09.922,00_bat_bachelor,2022.2.4,60.00753548443612,
,,,,,,,,,,,,1,0,1,0,42,0,42,0,,,,,,,42,,,0.2,1207.2003926300968,,Y,None,nogo,l,0,0.07301423570606858,,,,,,,,,,,,,,,,,36,001,19,w,B. Sc. Psychologie,2023-01-18_09h00.09.922,00_bat_bachelor,2022.2.4,60.00753548443612,
,,,,,,,,,,,,1,0,1,0,43,0,43,0,,,,,,,43,,,0.2,1207.5840317168331,,X,d,go,d,1,0.10560961384908296,,,,,,,,,,,,,,,,,36,001,19,w,B. Sc. Psychologie,2023-01-18_09h00.09.922,00_bat_bachelor,2022.2.4,60.00753548443612,
,,,,,,,,,,,,1,0,1,0,44,0,44,0,,,,,,,44,,,0.2,1208.0010312722297,,Y,l,go,l,1,0.10344088761485182,,,,,,,,,,,,,,,,,36,001,19,w,B. Sc. Psychologie,2023-01-18_09h00.09.922,00_bat_bachelor,2022.2.4,60.00753548443612,
,,,,,,,,,,,,1,0,1,0,45,0,45,0,,,,,,,45,,,0.2,1208.4178858579835,,X,d,go,d,1,0.05531291093211621,,,,,,,,,,,,,,,,,36,001,19,w,B. Sc. Psychologie,2023-01-18_09h00.09.922,00_bat_bachelor,2022.2.4,60.00753548443612,
,,,,,,,,,,,,1,0,1,0,46,0,46,0,,,,,,,46,,,0.2,1208.7848917406518,,Y,l,go,l,1,0.056926970748463646,,,,,,,,,,,,,,,,,36,001,19,w,B. Sc. Psychologie,2023-01-18_09h00.09.922,00_bat_bachelor,2022.2.4,60.00753548443612,
,,,,,,,,,,,,1,0,1,0,47,0,47,0,,,,,,,47,,,0.2,1209.1518059869995,,Y,None,nogo,d,0,0.08952913677785546,,,,,,,,,,,,,,,,,36,001,19,w,B. Sc. Psychologie,2023-01-18_09h00.09.922,00_bat_bachelor,2022.2.4,60.00753548443612,
,,,,,,,,,,,,1,0,1,0,48,0,48,0,,,,,,,48,,,0.2,1209.5522125807474,,X,d,go,l,0,0.07342296277056448,,,,,,,,,,,,,,,,,36,001,19,w,B. Sc. Psychologie,2023-01-18_09h00.09.922,00_bat_bachelor,2022.2.4,60.00753548443612,
,,,,,,,,,,,,1,0,1,0,49,0,49,0,,,,,,,49,,,0.2,1209.9357988190022,,Y,l,go,d,0,0.1369012350041885,,,,,,,,,,,,,,,,,36,001,19,w,B. Sc. Psychologie,2023-01-18_09h00.09.922,00_bat_bachelor,2022.2.4,60.00753548443612,
,,,,,,,,,,,,1,0,1,0,50,0,50,0,,,,,,,50,,,0.2,1210.38617047944,1211.1865890004265,X,d,go,None,0,,,,,,,,,,,,,,,,,,36,001,19,w,B. Sc. Psychologie,2023-01-18_09h00.09.922,00_bat_bachelor,2022.2.4,60.00753548443612,
,,,,,,,,,,,,1,0,1,0,51,0,51,0,,,,,,,51,,,0.2,1211.3869452669169,1212.187396272784,X,None,nogo,None,1,,,,,,,,,,,,,,,,,,36,001,19,w,B. Sc. Psychologie,2023-01-18_09h00.09.922,00_bat_bachelor,2022.2.4,60.00753548443612,
,,,,,,,,,,,,1,0,1,0,52,0,52,0,,,,,,,52,,,0.2,1212.3877530241152,1213.188245242054,X,None,nogo,None,1,,,,,,,,,,,,,,,,,,36,001,19,w,B. Sc. Psychologie,2023-01-18_09h00.09.922,00_bat_bachelor,2022.2.4,60.00753548443612,
,,,,,,,,,,,,1,0,1,0,53,0,53,0,,,,,,,53,,,0.2,1213.3884352055902,,Y,l,go,None,0,,,,,,,,,,,,,,,,,,36,001,19,w,B. Sc. Psychologie,2023-01-18_09h00.09.922,00_bat_bachelor,2022.2.4,60.00753548443612,
,,,,,,,,,,,,1,0,1,0,54,0,54,0,,,,,,,54,,,0.2,1214.3889302356692,,X,d,go,d,1,0.1480551690037828,,,,,,,,,,,,,,,,,36,001,19,w,B. Sc. Psychologie,2023-01-18_09h00.09.922,00_bat_bachelor,2022.2.4,60.00753548443612,
,,,,,,,,,,,,1,0,1,0,55,0,55,0,,,,,,,55,,,0.2,1214.8395360778086,1215.6400016290718,Y,l,go,None,0,,,,,,,,,,,,,,,,,,36,001,19,w,B. Sc. Psychologie,2023-01-18_09h00.09.922,00_bat_bachelor,2022.2.4,60.00753548443612,
,,,,,,,,,,,,1,0,1,0,56,0,56,0,,,,,,,56,,,0.2,1215.8403302592342,,Y,None,nogo,None,1,,,,,,,,,,,,,,,,,,36,001,19,w,B. Sc. Psychologie,2023-01-18_09h00.09.922,00_bat_bachelor,2022.2.4,60.00753548443612,
,,,,,,,,,,,,1,0,1,0,57,0,57,0,,,,,,,57,,,0.2,1216.841022137669,,X,d,go,l,0,0.22520276796421967,,,,,,,,,,,,,,,,,36,001,19,w,B. Sc. Psychologie,2023-01-18_09h00.09.922,00_bat_bachelor,2022.2.4,60.00753548443612,
,,,,,,,,,,,,1,0,1,0,58,0,58,0,,,,,,,58,,,0.2,1217.374820666737,1218.1753880361794,Y,l,go,None,0,,,,,,,,,,,,,,,,,,36,001,19,w,B. Sc. Psychologie,2023-01-18_09h00.09.922,00_bat_bachelor,2022.2.4,60.00753548443612,
,,,,,,,,,,,,1,0,1,0,59,0,59,0,,,,,,,59,,,0.2,1218.3755595754774,,X,d,go,d,1,0.22634022193960845,,,,,,,,,,,,,,,,,36,001,19,w,B. Sc. Psychologie,2023-01-18_09h00.09.922,00_bat_bachelor,2022.2.4,60.00753548443612,
,,,,,,,,,,,,1,0,1,0,60,0,60,0,,,,,,,60,,,0.2,1218.9092805288383,,X,None,nogo,l,0,0.2198306493810378,,,,,,,,,,,,,,,,,36,001,19,w,B. Sc. Psychologie,2023-01-18_09h00.09.922,00_bat_bachelor,2022.2.4,60.00753548443612,
,,,,,,,,,,,,1,0,1,0,61,0,61,0,,,,,,,61,,,0.2,1219.4428245125746,1220.2434258213616,Y,l,go,None,0,,,,,,,,,,,,,,,,,,36,001,19,w,B. Sc. Psychologie,2023-01-18_09h00.09.922,00_bat_bachelor,2022.2.4,60.00753548443612,
,,,,,,,,,,,,1,0,1,0,62,0,62,0,,,,,,,62,,,0.2,1220.4437733606028,,X,d,go,None,0,,,,,,,,,,,,,,,,,,36,001,19,w,B. Sc. Psychologie,2023-01-18_09h00.09.922,00_bat_bachelor,2022.2.4,60.00753548443612,
,,,,,,,,,,,,1,0,1,0,63,0,63,0,,,,,,,63,,,0.2,1221.4443687542516,,Y,l,go,d,0,0.16531334246974438,,,,,,,,,,,,,,,,,36,001,19,w,B. Sc. Psychologie,2023-01-18_09h00.09.922,00_bat_bachelor,2022.2.4,60.00753548443612,
,,,,,,,,,,,,1,0,1,0,64,0,64,0,,,,,,,64,,,0.2,1221.9115864671185,1222.712205230433,X,d,go,None,0,,,,,,,,,,,,,,,,,,36,001,19,w,B. Sc. Psychologie,2023-01-18_09h00.09.922,00_bat_bachelor,2022.2.4,60.00753548443612,
,,,,,,,,,,,,1,0,1,0,65,0,65,0,,,,,,,65,,,0.2,1222.912297254632,1223.7127918968326,Y,l,go,None,0,,,,,,,,,,,,,,,,,,36,001,19,w,B. Sc. Psychologie,2023-01-18_09h00.09.922,00_bat_bachelor,2022.2.4,60.00753548443612,
,,,,,,,,,,,,1,0,1,0,66,0,66,0,,,,,,,66,,,0.2,1223.9131452542206,,X,d,go,None,0,,,,,,,,,,,,,,,,,,36,001,19,w,B. Sc. Psychologie,2023-01-18_09h00.09.922,00_bat_bachelor,2022.2.4,60.00753548443612,
,,,,,,,,,,,,1,0,1,0,67,0,67,0,,,,,,,67,,,0.2,1224.913919556886,,X,None,nogo,d,0,0.2630349920655135,,,,,,,,,,,,,,,,,36,001,19,w,B. Sc. Psychologie,2023-01-18_09h00.09.922,00_bat_bachelor,2022.2.4,60.00753548443612,
,,,,,,,,,,,,1,0,1,0,68,0,68,0,,,,,,,68,,,0.2,1225.4809461910627,,Y,l,go,l,1,0.1922020566998981,,,,,,,,,,,,,,,,,36,001,19,w,B. Sc. Psychologie,2023-01-18_09h00.09.922,00_bat_bachelor,2022.2.4,60.00753548443612,
,,,,,,,,,,,,1,0,1,0,69,0,69,0,,,,,,,69,,,0.2,1225.9814012211282,,X,d,go,d,1,0.060743696201825514,,,,,,,,,,,,,,,,,36,001,19,w,B. Sc. Psychologie,2023-01-18_09h00.09.922,00_bat_bachelor,2022.2.4,60.00753548443612,
,,,,,,,,,,,,1,0,1,0,70,0,70,0,,,,,,,70,,,0.2,1226.3489249217382,,X,None,nogo,l,0,0.10717034034314565,,,,,,,,,,,,,,,,,36,001,19,w,B. Sc. Psychologie,2023-01-18_09h00.09.922,00_bat_bachelor,2022.2.4,60.00753548443612,
,,,,,,,,,,,,1,0,1,0,71,0,71,0,,,,,,,71,,,0.2,1226.7991744003957,,Y,l,go,d,0,0.20198823377722874,,,,,,,,,,,,,,,,,36,001,19,w,B. Sc. Psychologie,2023-01-18_09h00.09.922,00_bat_bachelor,2022.2.4,60.00753548443612,
,,,,,,,,,,,,1,0,1,0,72,0,72,0,,,,,,,72,,,0.2,1227.3494393457077,,X,d,go,l,0,0.29142285708803684,,,,,,,,,,,,,,,,,36,001,19,w,B. Sc. Psychologie,2023-01-18_09h00.09.922,00_bat_bachelor,2022.2.4,60.00753548443612,
,,,,,,,,,,,,1,0,1,0,73,0,73,0,,,,,,,73,,,0.2,1227.9833590383641,1228.7842493167263,Y,l,go,None,0,,,,,,,,,,,,,,,,,,36,001,19,w,B. Sc. Psychologie,2023-01-18_09h00.09.922,00_bat_bachelor,2022.2.4,60.00753548443612,
,,,,,,,,,,,,1,0,1,0,74,0,74,0,,,,,,,74,,,0.2,1228.984262310667,,X,d,go,l,0,0.32122647899086587,,,,,,,,,,,,,,,,,36,001,19,w,B. Sc. Psychologie,2023-01-18_09h00.09.922,00_bat_bachelor,2022.2.4,60.00753548443612,
,,,,,,,,,,,,1,0,1,0,75,0,75,0,,,,,,,75,,,0.2,1229.6345480559685,1230.435602697893,X,None,nogo,None,1,,,,,,,,,,,,,,,,,,36,001,19,w,B. Sc. Psychologie,2023-01-18_09h00.09.922,00_bat_bachelor,2022.2.4,60.00753548443612,
,,,,,,,,,,,,1,0,1,0,76,0,76,0,,,,,,,76,,,0.2,1230.6353994495003,,X,None,nogo,d,0,0.17328327801078558,,,,,,,,,,,,,,,,,36,001,19,w,B. Sc. Psychologie,2023-01-18_09h00.09.922,00_bat_bachelor,2022.2.4,60.00753548443612,
,,,,,,,,,,,,1,0,1,0,77,0,77,0,,,,,,,77,,,0.2,1231.1525657442107,,Y,l,go,l,1,0.2320992494642269,,,,,,,,,,,,,,,,,36,001,19,w,B. Sc. Psychologie,2023-01-18_09h00.09.922,00_bat_bachelor,2022.2.4,60.00753548443612,
,,,,,,,,,,,,1,0,1,0,78,0,78,0,,,,,,,78,,,0.2,1231.702922810713,,X,d,go,d,1,0.19348932878347114,,,,,,,,,,,,,,,,,36,001,19,w,B. Sc. Psychologie,2023-01-18_09h00.09.922,00_bat_bachelor,2022.2.4,60.00753548443612,
,,,,,,,,,,,,1,0,1,0,79,0,79,0,,,,,,,79,,,0.2,1232.2365865519387,,X,None,nogo,l,0,0.4604390175372828,,,,,,,,,,,,,,,,,36,001,19,w,B. Sc. Psychologie,2023-01-18_09h00.09.922,00_bat_bachelor,2022.2.4,60.00753548443612,
,,,,,,,,,,,,1,0,1,0,80,0,80,0,,,,,,,80,,,0.2,1233.0207127172325,1233.8214202077943,Y,l,go,None,0,,,,,,,,,,,,,,,,,,36,001,19,w,B. Sc. Psychologie,2023-01-18_09h00.09.922,00_bat_bachelor,2022.2.4,60.00753548443612,
,,,,,,,,,,,,1,0,1,0,81,0,81,0,,,,,,,81,,,0.2,1234.021483141085,,X,d,go,d,1,0.16313346472452395,,,,,,,,,,,,,,,,,36,001,19,w,B. Sc. Psychologie,2023-01-18_09h00.09.922,00_bat_bachelor,2022.2.4,60.00753548443612,
,,,,,,,,,,,,1,0,1,0,82,0,82,0,,,,,,,82,,,0.2,1234.5220395044598,,Y,l,go,l,1,0.2070068980101496,,,,,,,,,,,,,,,,,36,001,19,w,B. Sc. Psychologie,2023-01-18_09h00.09.922,00_bat_bachelor,2022.2.4,60.00753548443612,
,,,,,,,,,,,,1,0,1,0,83,0,83,0,,,,,,,83,,,0.2,1235.072220571048,,X,d,go,d,1,0.04173812965746038,,,,,,,,,,,,,,,,,36,001,19,w,B. Sc. Psychologie,2023-01-18_09h00.09.922,00_bat_bachelor,2022.2.4,60.00753548443612,
,,,,,,,,,,,,1,0,1,0,84,0,84,0,,,,,,,84,,,0.2,1235.4221510680509,,Y,l,go,l,1,0.12334439312689938,,,,,,,,,,,,,,,,,36,001,19,w,B. Sc. Psychologie,2023-01-18_09h00.09.922,00_bat_bachelor,2022.2.4,60.00753548443612,
,,,,,,,,,,,,1,0,1,0,85,0,85,0,,,,,,,85,,,0.2,1235.8558206759626,,X,d,go,d,1,0.07392138676368631,,,,,,,,,,,,,,,,,36,001,19,w,B. Sc. Psychologie,2023-01-18_09h00.09.922,00_bat_bachelor,2022.2.4,60.00753548443612,
,,,,,,,,,,,,1,0,1,0,86,0,86,0,,,,,,,86,,,0.2,1236.2395407323493,,X,None,nogo,l,0,0.10536379576660693,,,,,,,,,,,,,,,,,36,001,19,w,B. Sc. Psychologie,2023-01-18_09h00.09.922,00_bat_bachelor,2022.2.4,60.00753548443612,
,,,,,,,,,,,,1,0,1,0,87,0,87,0,,,,,,,87,,,0.2,1236.6562590757385,,Y,l,go,d,0,0.10507676561246626,,,,,,,,,,,,,,,,,36,001,19,w,B. Sc. Psychologie,2023-01-18_09h00.09.922,00_bat_bachelor,2022.2.4,60.00753548443612,
,,,,,,,,,,,,1,0,1,0,88,0,88,0,,,,,,,88,,,0.2,1237.073420085595,,X,d,go,l,0,0.05616188023122959,,,,,,,,,,,,,,,,,36,001,19,w,B. Sc. Psychologie,2023-01-18_09h00.09.922,00_bat_bachelor,2022.2.4,60.00753548443612,
,,,,,,,,,,,,1,0,1,0,89,0,89,0,,,,,,,89,,,0.2,1237.4403973622248,,Y,l,go,d,0,0.24806966597680002,,,,,,,,,,,,,,,,,36,001,19,w,B. Sc. Psychologie,2023-01-18_09h00.09.922,00_bat_bachelor,2022.2.4,60.00753548443612,
,,,,,,,,,,,,1,0,1,0,90,0,90,0,,,,,,,90,,,0.2,1238.0073609661194,1238.808041305194,Y,None,nogo,None,1,,,,,,,,,,,,,,,,,,36,001,19,w,B. Sc. Psychologie,2023-01-18_09h00.09.922,00_bat_bachelor,2022.2.4,60.00753548443612,
,,,,,,,,,,,,1,0,1,0,91,0,91,0,,,,,,,91,,,0.2,1239.0083064202045,,X,d,go,d,1,0.3460754366533365,,,,,,,,,,,,,,,,,36,001,19,w,B. Sc. Psychologie,2023-01-18_09h00.09.922,00_bat_bachelor,2022.2.4,60.00753548443612,
,,,,,,,,,,,,1,0,1,0,92,0,92,0,,,,,,,92,,,0.2,1239.6585136201174,,Y,l,go,l,1,0.2224241026560776,,,,,,,,,,,,,,,,,36,001,19,w,B. Sc. Psychologie,2023-01-18_09h00.09.922,00_bat_bachelor,2022.2.4,60.00753548443612,
,,,,,,,,,,,,1,0,1,0,93,0,93,0,,,,,,,93,,,0.2,1240.1925177248486,,X,d,go,d,1,0.15232813660986722,,,,,,,,,,,,,,,,,36,001,19,w,B. Sc. Psychologie,2023-01-18_09h00.09.922,00_bat_bachelor,2022.2.4,60.00753548443612,
,,,,,,,,,,,,1,0,1,0,94,0,94,0,,,,,,,94,,,0.2,1240.6593238015485,,X,None,nogo,l,0,0.10154367642826401,,,,,,,,,,,,,,,,,36,001,19,w,B. Sc. Psychologie,2023-01-18_09h00.09.922,00_bat_bachelor,2022.2.4,60.00753548443612,
,,,,,,,,,,,,1,0,1,0,95,0,95,0,,,,,,,95,,,0.2,1241.0928557125444,,Y,l,go,d,0,0.08436986655578949,,,,,,,,,,,,,,,,,36,001,19,w,B. Sc. Psychologie,2023-01-18_09h00.09.922,00_bat_bachelor,2022.2.4,60.00753548443612,
,,,,,,,,,,,,1,0,1,0,96,0,96,0,,,,,,,96,,,0.2,1241.4927280035336,,X,d,go,l,0,0.004100329737411812,,,,,,,,,,,,,,,,,36,001,19,w,B. Sc. Psychologie,2023-01-18_09h00.09.922,00_bat_bachelor,2022.2.4,60.00753548443612,
,,,,,,,,,,,,1,0,1,0,97,0,97,0,,,,,,,97,,,0.2,1241.809987486049,,Y,l,go,d,0,0.03967897911206819,,,,,,,,,,,,,,,,,36,001,19,w,B. Sc. Psychologie,2023-01-18_09h00.09.922,00_bat_bachelor,2022.2.4,60.00753548443612,
,,,,,,,,,,,,1,0,1,0,98,0,98,0,,,,,,,98,,,0.2,1242.1602520435117,,X,d,go,l,0,0.008394145814236253,,,,,,,,,,,,,,,,,36,001,19,w,B. Sc. Psychologie,2023-01-18_09h00.09.922,00_bat_bachelor,2022.2.4,60.00753548443612,
,,,,,,,,,,,,1,0,1,0,99,0,99,0,,,,,,,99,,,0.2,1242.4770795262593,,Y,l,go,l,1,0.2193409526371397,,,,,,,,,,,,,,,,,36,001,19,w,B. Sc. Psychologie,2023-01-18_09h00.09.922,00_bat_bachelor,2022.2.4,60.00753548443612,
,,,,,,,,,,,,1,0,1,0,100,0,100,0,,,,,,,100,,,0.2,1243.0108829038218,,X,d,go,None,0,,,,,,,,,,,,,,,,,,36,001,19,w,B. Sc. Psychologie,2023-01-18_09h00.09.922,00_bat_bachelor,2022.2.4,60.00753548443612,
,,,,,,,,,,,,1,0,1,0,101,0,101,0,,,,,,,101,,,0.2,1244.0116959943261,,Y,l,go,l,1,0.30095109486137517,,,,,,,,,,,,,,,,,36,001,19,w,B. Sc. Psychologie,2023-01-18_09h00.09.922,00_bat_bachelor,2022.2.4,60.00753548443612,
,,,,,,,,,,,,1,0,1,0,102,0,102,0,,,,,,,102,,,0.2,1244.628692543658,,Y,None,nogo,d,0,0.213765682594385,,,,,,,,,,,,,,,,,36,001,19,w,B. Sc. Psychologie,2023-01-18_09h00.09.922,00_bat_bachelor,2022.2.4,60.00753548443612,
,,,,,,,,,,,,1,0,1,0,103,0,103,0,,,,,,,103,,,0.2,1245.1455912021338,,X,d,go,None,0,,,,,,,,,,,,,,,,,,36,001,19,w,B. Sc. Psychologie,2023-01-18_09h00.09.922,00_bat_bachelor,2022.2.4,60.00753548443612,
,,,,,,,,,,,,1,0,1,0,104,0,104,0,,,,,,,104,,,0.2,1246.1466835652536,,Y,l,go,l,1,0.6154183363541961,,,,,,,,,,,,,,,,,36,001,19,w,B. Sc. Psychologie,2023-01-18_09h00.09.922,00_bat_bachelor,2022.2.4,60.00753548443612,
,,,,,,,,,,,,1,0,1,0,105,0,105,0,,,,,,,105,,,0.2,1247.0639815447212,,Y,None,nogo,None,1,,,,,,,,,,,,,,,,,,36,001,19,w,B. Sc. Psychologie,2023-01-18_09h00.09.922,00_bat_bachelor,2022.2.4,60.00753548443612,
,,,,,,,,,,,,1,0,1,0,106,0,106,0,,,,,,,106,,,0.2,1248.0647543928353,,X,d,go,d,1,0.42526715580606833,,,,,,,,,,,,,,,,,36,001,19,w,B. Sc. Psychologie,2023-01-18_09h00.09.922,00_bat_bachelor,2022.2.4,60.00753548443612,
,,,,,,,,,,,,1,0,1,0,107,0,107,0,,,,,,,107,,,0.2,1248.7986968248733,,Y,l,go,l,1,0.34702234526048414,,,,,,,,,,,,,,,,,36,001,19,w,B. Sc. Psychologie,2023-01-18_09h00.09.922,00_bat_bachelor,2022.2.4,60.00753548443612,
,,,,,,,,,,,,1,0,1,0,108,0,108,0,,,,,,,108,,,0.2,1249.4492453579442,,X,d,go,d,1,0.2712798365391791,,,,,,,,,,,,,,,,,36,001,19,w,B. Sc. Psychologie,2023-01-18_09h00.09.922,00_bat_bachelor,2022.2.4,60.00753548443612,
,,,,,,,,,,,,1,0,1,0,109,0,109,0,,,,,,,109,,,0.2,1250.0326394993172,,Y,l,go,l,1,0.2651503849774599,,,,,,,,,,,,,,,,,36,001,19,w,B. Sc. Psychologie,2023-01-18_09h00.09.922,00_bat_bachelor,2022.2.4,60.00753548443612,
,,,,,,,,,,,,1,0,1,0,110,0,110,0,,,,,,,110,,,0.2,1250.5999410424556,,X,d,go,d,1,0.24102385120932013,,,,,,,,,,,,,,,,,36,001,19,w,B. Sc. Psychologie,2023-01-18_09h00.09.922,00_bat_bachelor,2022.2.4,60.00753548443612,
,,,,,,,,,,,,1,0,1,0,111,0,111,0,,,,,,,111,,,0.2,1251.1504581088666,,Y,l,go,l,1,0.2666631114843767,,,,,,,,,,,,,,,,,36,001,19,w,B. Sc. Psychologie,2023-01-18_09h00.09.922,00_bat_bachelor,2022.2.4,60.00753548443612,
,,,,,,,,,,,,1,0,1,0,112,0,112,0,,,,,,,112,,,0.2,1251.717377591558,,X,d,go,d,1,0.22807597869541496,,,,,,,,,,,,,,,,,36,001,19,w,B. Sc. Psychologie,2023-01-18_09h00.09.922,00_bat_bachelor,2022.2.4,60.00753548443612,
,,,,,,,,,,,,1,0,1,0,113,0,113,0,,,,,,,113,,,0.2,1252.2512343024136,,Y,l,go,l,1,0.318373631889699,,,,,,,,,,,,,,,,,36,001,19,w,B. Sc. Psychologie,2023-01-18_09h00.09.922,00_bat_bachelor,2022.2.4,60.00753548443612,
,,,,,,,,,,,,1,0,1,0,114,0,114,0,,,,,,,114,,,0.2,1252.8847588437493,,Y,None,nogo,d,0,0.21330847070203163,,,,,,,,,,,,,,,,,36,001,19,w,B. Sc. Psychologie,2023-01-18_09h00.09.922,00_bat_bachelor,2022.2.4,60.00753548443612,
,,,,,,,,,,,,1,0,1,0,115,0,115,0,,,,,,,115,,,0.2,1253.4021864716487,,X,d,go,None,0,,,,,,,,,,,,,,,,,,36,001,19,w,B. Sc. Psychologie,2023-01-18_09h00.09.922,00_bat_bachelor,2022.2.4,60.00753548443612,
,,,,,,,,,,,,1,0,1,0,116,0,116,0,,,,,,,116,,,0.2,1254.4029753197683,,Y,l,go,l,1,0.2953840672853403,,,,,,,,,,,,,,,,,36,001,19,w,B. Sc. Psychologie,2023-01-18_09h00.09.922,00_bat_bachelor,2022.2.4,60.00753548443612,
,,,,,,,,,,,,1,0,1,0,117,0,117,0,,,,,,,117,,,0.2,1255.003148119693,,X,d,go,d,1,0.18966484582051635,,,,,,,,,,,,,,,,,36,001,19,w,B. Sc. Psychologie,2023-01-18_09h00.09.922,00_bat_bachelor,2022.2.4,60.00753548443612,
,,,,,,,,,,,,1,0,1,0,118,0,118,0,,,,,,,118,,,0.2,1255.5037195133336,,Y,l,go,l,1,0.16986703721340746,,,,,,,,,,,,,,,,,36,001,19,w,B. Sc. Psychologie,2023-01-18_09h00.09.922,00_bat_bachelor,2022.2.4,60.00753548443612,
,,,,,,,,,,,,1,0,1,0,119,0,119,0,,,,,,,119,,,0.2,1255.9873769757978,,Y,None,nogo,d,0,0.1986781747546047,,,,,,,,,,,,,,,,,36,001,19,w,B. Sc. Psychologie,2023-01-18_09h00.09.922,00_bat_bachelor,2022.2.4,60.00753548443612,
,,,,,,,,,,,,1,0,1,0,120,0,120,0,,,,,,,120,,,0.2,1256.4875488545222,,X,d,go,l,0,0.22561585868243128,,,,,,,,,,,,,,,,,36,001,19,w,B. Sc. Psychologie,2023-01-18_09h00.09.922,00_bat_bachelor,2022.2.4,60.00753548443612,
,,,,,,,,,,,,1,0,1,0,121,0,121,0,,,,,,,121,,,0.2,1257.0215742925648,,Y,l,go,None,0,,,,,,,,,,,,,,,,,,36,001,19,w,B. Sc. Psychologie,2023-01-18_09h00.09.922,00_bat_bachelor,2022.2.4,60.00753548443612,
,,,,,,,,,,,,1,0,1,0,122,0,122,0,,,,,,,122,,,0.2,1258.0223490800709,,X,d,go,d,1,0.5637024826428387,,,,,,,,,,,,,,,,,36,001,19,w,B. Sc. Psychologie,2023-01-18_09h00.09.922,00_bat_bachelor,2022.2.4,60.00753548443612,
,,,,,,,,,,,,1,0,1,0,123,0,123,0,,,,,,,123,,,0.2,1258.8896218716982,,Y,l,go,l,1,0.31903496489394456,,,,,,,,,,,,,,,,,36,001,19,w,B. Sc. Psychologie,2023-01-18_09h00.09.922,00_bat_bachelor,2022.2.4,60.00753548443612,
,,,,,,,,,,,,1,0,1,0,124,0,124,0,,,,,,,124,,,0.2,1259.5234843522485,,Y,None,nogo,d,0,0.19856423541205004,,,,,,,,,,,,,,,,,36,001,19,w,B. Sc. Psychologie,2023-01-18_09h00.09.922,00_bat_bachelor,2022.2.4,60.00753548443612,
,,,,,,,,,,,,1,0,1,0,125,0,125,0,,,,,,,125,,,0.2,1260.0238753823505,1260.8241785094724,X,d,go,None,0,,,,,,,,,,,,,,,,,,36,001,19,w,B. Sc. Psychologie,2023-01-18_09h00.09.922,00_bat_bachelor,2022.2.4,60.00753548443612,
,,,,,,,,,,,,1,0,1,0,126,0,126,0,,,,,,,126,,,0.2,1261.0248116243165,,Y,l,go,l,1,0.6653077666996978,,,,,,,,,,,,,,,,,36,001,19,w,B. Sc. Psychologie,2023-01-18_09h00.09.922,00_bat_bachelor,2022.2.4,60.00753548443612,
,,,,,,,,,,,,1,0,1,0,127,0,127,0,,,,,,,127,,,0.2,1261.991696488869,,Y,None,nogo,d,0,0.3211275699432008,,,,,,,,,,,,,,,,,36,001,19,w,B. Sc. Psychologie,2023-01-18_09h00.09.922,00_bat_bachelor,2022.2.4,60.00753548443612,
,,,,,,,,,,,,1,0,1,0,128,0,128,0,,,,,,,128,,,0.2,1262.6257994541666,,Y,None,nogo,None,1,,,,,,,,,,,,,,,,,,36,001,19,w,B. Sc. Psychologie,2023-01-18_09h00.09.922,00_bat_bachelor,2022.2.4,60.00753548443612,
,,,,,,,,,,,,1,0,1,0,129,0,129,0,,,,,,,129,,,0.2,1263.6262891508813,,X,d,go,d,1,0.5592578787181992,,,,,,,,,,,,,,,,,36,001,19,w,B. Sc. Psychologie,2023-01-18_09h00.09.922,00_bat_bachelor,2022.2.4,60.00753548443612,
,,,,,,,,,,,,1,0,1,0,130,0,130,0,,,,,,,130,,,0.2,1264.4939158817288,,Y,l,go,l,1,0.4116627987823449,,,,,,,,,,,,,,,,,36,001,19,w,B. Sc. Psychologie,2023-01-18_09h00.09.922,00_bat_bachelor,2022.2.4,60.00753548443612,
,,,,,,,,,,,,1,0,1,0,131,0,131,0,,,,,,,131,,,0.2,1265.2111916551657,,X,d,go,d,1,0.3018921853217762,,,,,,,,,,,,,,,,,36,001,19,w,B. Sc. Psychologie,2023-01-18_09h00.09.922,00_bat_bachelor,2022.2.4,60.00753548443612,
,,,,,,,,,,,,1,0,1,0,132,0,132,0,,,,,,,132,,,0.2,1265.8283452953328,,Y,l,go,l,1,0.2613671140570659,,,,,,,,,,,,,,,,,36,001,19,w,B. Sc. Psychologie,2023-01-18_09h00.09.922,00_bat_bachelor,2022.2.4,60.00753548443612,
,,,,,,,,,,,,1,0,1,0,133,0,133,0,,,,,,,133,,,0.2,1266.3950592023903,,X,d,go,d,1,0.20654483762336895,,,,,,,,,,,,,,,,,36,001,19,w,B. Sc. Psychologie,2023-01-18_09h00.09.922,00_bat_bachelor,2022.2.4,60.00753548443612,
,,,,,,,,,,,,1,0,1,0,134,0,134,0,,,,,,,134,,,0.2,1266.9124708303134,,X,None,nogo,l,0,0.312767331575742,,,,,,,,,,,,,,,,,36,001,19,w,B. Sc. Psychologie,2023-01-18_09h00.09.922,00_bat_bachelor,2022.2.4,60.00753548443612,
,,,,,,,,,,,,1,0,1,0,135,0,135,0,,,,,,,135,,,0.2,1267.5292715009418,,Y,l,go,None,0,,,,,,,,,,,,,,,,,,36,001,19,w,B. Sc. Psychologie,2023-01-18_09h00.09.922,00_bat_bachelor,2022.2.4,60.00753548443612,
,,,,,,,,,,,,1,0,1,0,136,0,136,0,,,,,,,136,,,0.2,1268.5300356218067,,X,d,go,d,1,0.27967837793403305,,,,,,,,,,,,,,,,,36,001,19,w,B. Sc. Psychologie,2023-01-18_09h00.09.922,00_bat_bachelor,2022.2.4,60.00753548443612,
,,,,,,,,,,,,1,0,1,0,137,0,137,0,,,,,,,137,,,0.2,1269.1139975204715,,Y,l,go,l,1,0.31874599534785375,,,,,,,,,,,,,,,,,36,001,19,w,B. Sc. Psychologie,2023-01-18_09h00.09.922,00_bat_bachelor,2022.2.4,60.00753548443612,
,,,,,,,,,,,,1,0,1,0,138,0,138,0,,,,,,,138,,,0.2,1269.747972485813,1270.5485078552738,Y,None,nogo,None,1,,,,,,,,,,,,,,,,,,36,001,19,w,B. Sc. Psychologie,2023-01-18_09h00.09.922,00_bat_bachelor,2022.2.4,60.00753548443612,
,,,,,,,,,,,,1,0,1,0,139,0,139,0,,,,,,,139,,,0.2,1270.7484791522438,,X,d,go,d,1,0.07738029418396764,,,,,,,,,,,,,,,,,36,001,19,w,B. Sc. Psychologie,2023-01-18_09h00.09.922,00_bat_bachelor,2022.2.4,60.00753548443612,
,,,,,,,,,,,,1,0,1,0,140,0,140,0,,,,,,,140,,,0.2,1271.1322845419054,,Y,l,go,l,1,0.17348303546896204,,,,,,,,,,,,,,,,,36,001,19,w,B. Sc. Psychologie,2023-01-18_09h00.09.922,00_bat_bachelor,2022.2.4,60.00753548443612,
,,,,,,,,,,,,1,0,1,0,141,0,141,0,,,,,,,141,,,0.2,1271.616028307384,,X,d,go,d,1,0.009337175666587427,,,,,,,,,,,,,,,,,36,001,19,w,B. Sc. Psychologie,2023-01-18_09h00.09.922,00_bat_bachelor,2022.2.4,60.00753548443612,
,,,,,,,,,,,,1,0,1,0,142,0,142,0,,,,,,,142,,,0.2,1271.9327127598808,,Y,l,go,l,1,0.12496427111909725,,,,,,,,,,,,,,,,,36,001,19,w,B. Sc. Psychologie,2023-01-18_09h00.09.922,00_bat_bachelor,2022.2.4,60.00753548443612,
,,,,,,,,,,,,1,0,1,0,143,0,143,0,,,,,,,143,,,0.2,1272.3663358223857,,Y,None,nogo,d,0,0.027054985257564113,,,,,,,,,,,,,,,,,36,001,19,w,B. Sc. Psychologie,2023-01-18_09h00.09.922,00_bat_bachelor,2022.2.4,60.00753548443612,
,,,,,,,,,,,,1,0,1,0,144,0,144,0,,,,,,,144,,,0.2,1272.7003710543504,,X,d,go,l,0,0.029355105332797393,,,,,,,,,,,,,,,,,36,001,19,w,B. Sc. Psychologie,2023-01-18_09h00.09.922,00_bat_bachelor,2022.2.4,60.00753548443612,
,,,,,,,,,,,,1,0,1,0,145,0,145,0,,,,,,,145,,,0.2,1273.0337842260487,,Y,l,go,d,0,0.06508308803313412,,,,,,,,,,,,,,,,,36,001,19,w,B. Sc. Psychologie,2023-01-18_09h00.09.922,00_bat_bachelor,2022.2.4,60.00753548443612,
,,,,,,,,,,,,1,0,1,0,146,0,146,0,,,,,,,146,,,0.2,1273.4007154420833,,X,d,go,l,0,0.11318051925627515,,,,,,,,,,,,,,,,,36,001,19,w,B. Sc. Psychologie,2023-01-18_09h00.09.922,00_bat_bachelor,2022.2.4,60.00753548443612,
,,,,,,,,,,,,1,0,1,0,147,0,147,0,,,,,,,147,,,0.2,1273.817405179434,,Y,l,go,l,1,0.5602188479679171,,,,,,,,,,,,,,,,,36,001,19,w,B. Sc. Psychologie,2023-01-18_09h00.09.922,00_bat_bachelor,2022.2.4,60.00753548443612,
,,,,,,,,,,,,1,0,1,0,148,0,148,0,,,,,,,148,,,0.2,1274.6850522739114,,X,d,go,d,1,0.23586409611743875,,,,,,,,,,,,,,,,,36,001,19,w,B. Sc. Psychologie,2023-01-18_09h00.09.922,00_bat_bachelor,2022.2.4,60.00753548443612,
,,,,,,,,,,,,1,0,1,0,149,0,149,0,,,,,,,149,,,0.2,1275.2353206131666,,X,None,nogo,l,0,0.24682699990808032,,,,,,,,,,,,,,,,,36,001,19,w,B. Sc. Psychologie,2023-01-18_09h00.09.922,00_bat_bachelor,2022.2.4,60.00753548443612,
,,,,,,,,,,,,1,0,1,0,150,0,150,0,,,,,,,150,,,0.2,1275.7858948916837,,Y,l,go,None,0,,,,,,,,,,,,,,,,,,36,001,19,w,B. Sc. Psychologie,2023-01-18_09h00.09.922,00_bat_bachelor,2022.2.4,60.00753548443612,
,,,,,,,,,,,,1,0,1,0,151,0,151,0,,,,,,,151,,,0.2,1276.7866139216349,,X,d,go,d,1,0.2785428633214906,,,,,,,,,,,,,,,,,36,001,19,w,B. Sc. Psychologie,2023-01-18_09h00.09.922,00_bat_bachelor,2022.2.4,60.00753548443612,
,,,,,,,,,,,,1,0,1,0,152,0,152,0,,,,,,,152,,,0.2,1277.3702941234806,,X,None,nogo,d,0,0.526973773172358,,,,,,,,,,,,,,,,,36,001,19,w,B. Sc. Psychologie,2023-01-18_09h00.09.922,00_bat_bachelor,2022.2.4,60.00753548443612,
,,,,,,,,,,,,1,0,1,0,153,0,153,0,,,,,,,153,,,0.2,1278.20416862829,,Y,l,go,d,0,0.39773359341779724,,,,,,,,,,,,,,,,,36,001,19,w,B. Sc. Psychologie,2023-01-18_09h00.09.922,00_bat_bachelor,2022.2.4,60.00753548443612,
,,,,,,,,,,,,1,0,1,0,154,0,154,0,,,,,,,154,,,0.2,1278.9047947128129,,X,d,go,d,1,0.5444947343494277,,,,,,,,,,,,,,,,,36,001,19,w,B. Sc. Psychologie,2023-01-18_09h00.09.922,00_bat_bachelor,2022.2.4,60.00753548443612,
,,,,,,,,,,,,1,0,1,0,155,0,155,0,,,,,,,155,,,0.2,1279.7555535730498,,Y,l,go,l,1,0.3330461096193176,,,,,,,,,,,,,,,,,36,001,19,w,B. Sc. Psychologie,2023-01-18_09h00.09.922,00_bat_bachelor,2022.2.4,60.00753548443612,
,,,,,,,,,,,,1,0,1,0,156,0,156,0,,,,,,,156,,,0.2,1280.3892802961054,,X,d,go,d,1,0.2597792360757012,,,,,,,,,,,,,,,,,36,001,19,w,B. Sc. Psychologie,2023-01-18_09h00.09.922,00_bat_bachelor,2022.2.4,60.00753548443612,
,,,,,,,,,,,,1,0,1,0,157,0,157,0,,,,,,,157,,,0.2,1280.956201233348,,Y,l,go,l,1,0.25282166368560866,,,,,,,,,,,,,,,,,36,001,19,w,B. Sc. Psychologie,2023-01-18_09h00.09.922,00_bat_bachelor,2022.2.4,60.00753548443612,
,,,,,,,,,,,,1,0,1,0,158,0,158,0,,,,,,,158,,,0.2,1281.5232438675012,,X,d,go,d,1,0.18193781925947405,,,,,,,,,,,,,,,,,36,001,19,w,B. Sc. Psychologie,2023-01-18_09h00.09.922,00_bat_bachelor,2022.2.4,60.00753548443612,
,,,,,,,,,,,,1,0,1,0,159,0,159,0,,,,,,,159,,,0.2,1282.0072373298171,,Y,l,go,l,1,0.21060980533366092,,,,,,,,,,,,,,,,,36,001,19,w,B. Sc. Psychologie,2023-01-18_09h00.09.922,00_bat_bachelor,2022.2.4,60.00753548443612,
,,,,,,,,,,,,1,0,1,0,160,0,160,0,,,,,,,160,,,0.2,1282.524336230621,,X,d,go,d,1,0.17357467178953812,,,,,,,,,,,,,,,,,36,001,19,w,B. Sc. Psychologie,2023-01-18_09h00.09.922,00_bat_bachelor,2022.2.4,60.00753548443612,
,,,,,,,,,,,,1,0,1,0,161,0,161,0,,,,,,,161,,,0.2,1283.0080596324406,,Y,l,go,l,1,0.3137763007543981,,,,,,,,,,,,,,,,,36,001,19,w,B. Sc. Psychologie,2023-01-18_09h00.09.922,00_bat_bachelor,2022.2.4,60.00753548443612,
,,,,,,,,,,,,1,0,1,0,162,0,162,0,,,,,,,162,,,0.2,1283.6251546059793,,X,d,go,d,1,0.241398154059425,,,,,,,,,,,,,,,,,36,001,19,w,B. Sc. Psychologie,2023-01-18_09h00.09.922,00_bat_bachelor,2022.2.4,60.00753548443612,
,,,,,,,,,,,,1,0,1,0,163,0,163,0,,,,,,,163,,,0.2,1284.1753056119778,,Y,l,go,l,1,0.18499769654590636,,,,,,,,,,,,,,,,,36,001,19,w,B. Sc. Psychologie,2023-01-18_09h00.09.922,00_bat_bachelor,2022.2.4,60.00753548443612,
,,,,,,,,,,,,1,0,1,0,164,0,164,0,,,,,,,164,,,0.2,1284.6759851267852,,X,d,go,d,1,0.13278826730675064,,,,,,,,,,,,,,,,,36,001,19,w,B. Sc. Psychologie,2023-01-18_09h00.09.922,00_bat_bachelor,2022.2.4,60.00753548443612,
,,,,,,,,,,,,1,0,1,0,165,0,165,0,,,,,,,165,,,0.2,1285.109521401435,,X,None,nogo,l,0,0.22852155423606746,,,,,,,,,,,,,,,,,36,001,19,w,B. Sc. Psychologie,2023-01-18_09h00.09.922,00_bat_bachelor,2022.2.4,60.00753548443612,
,,,,,,,,,,,,1,0,1,0,166,0,166,0,,,,,,,166,,,0.2,1285.6434333850048,,Y,l,go,None,0,,,,,,,,,,,,,,,,,,36,001,19,w,B. Sc. Psychologie,2023-01-18_09h00.09.922,00_bat_bachelor,2022.2.4,60.00753548443612,
,,,,,,,,,,,,1,0,1,0,167,0,167,0,,,,,,,167,,,0.2,1286.6441451422288,,X,d,go,d,1,0.24430724352714606,,,,,,,,,,,,,,,,,36,001,19,w,B. Sc. Psychologie,2023-01-18_09h00.09.922,00_bat_bachelor,2022.2.4,60.00753548443612,
,,,,,,,,,,,,1,0,1,0,168,0,168,0,,,,,,,168,,,0.2,1287.1945603905187,,Y,l,go,l,1,0.366385729808826,,,,,,,,,,,,,,,,,36,001,19,w,B. Sc. Psychologie,2023-01-18_09h00.09.922,00_bat_bachelor,2022.2.4,60.00753548443612,
,,,,,,,,,,,,1,0,1,0,169,0,169,0,,,,,,,169,,,0.2,1287.861630127678,,Y,None,nogo,d,0,0.3715047576406505,,,,,,,,,,,,,,,,,36,001,19,w,B. Sc. Psychologie,2023-01-18_09h00.09.922,00_bat_bachelor,2022.2.4,60.00753548443612,
,,,,,,,,,,,,1,0,1,0,170,0,170,0,,,,,,,170,,,0.2,1288.5456268869748,,X,d,go,None,0,,,,,,,,,,,,,,,,,,36,001,19,w,B. Sc. Psychologie,2023-01-18_09h00.09.922,00_bat_bachelor,2022.2.4,60.00753548443612,
,,,,,,,,,,,,1,0,1,0,171,0,171,0,,,,,,,171,,,0.2,1289.546336704807,,Y,l,go,d,0,0.590382227266673,,,,,,,,,,,,,,,,,36,001,19,w,B. Sc. Psychologie,2023-01-18_09h00.09.922,00_bat_bachelor,2022.2.4,60.00753548443612,
,,,,,,,,,,,,1,0,1,0,172,0,172,0,,,,,,,172,,,0.2,1290.4470737226366,,X,d,go,d,1,0.6502648649038747,,,,,,,,,,,,,,,,,36,001,19,w,B. Sc. Psychologie,2023-01-18_09h00.09.922,00_bat_bachelor,2022.2.4,60.00753548443612,
,,,,,,,,,,,,1,0,1,0,173,0,173,0,,,,,,,173,,,0.2,1291.3978010192513,,Y,l,go,l,1,0.38730741664767265,,,,,,,,,,,,,,,,,36,001,19,w,B. Sc. Psychologie,2023-01-18_09h00.09.922,00_bat_bachelor,2022.2.4,60.00753548443612,
,,,,,,,,,,,,1,0,1,0,174,0,174,0,,,,,,,174,,,0.2,1292.0982816493197,,X,d,go,d,1,0.3123697560222354,,,,,,,,,,,,,,,,,36,001,19,w,B. Sc. Psychologie,2023-01-18_09h00.09.922,00_bat_bachelor,2022.2.4,60.00753548443612,
,,,,,,,,,,,,1,0,1,0,175,0,175,0,,,,,,,175,,,0.2,1292.7156568651262,,X,None,nogo,l,0,0.2690257770300377,,,,,,,,,,,,,,,,,36,001,19,w,B. Sc. Psychologie,2023-01-18_09h00.09.922,00_bat_bachelor,2022.2.4,60.00753548443612,
,,,,,,,,,,,,1,0,1,0,176,0,176,0,,,,,,,176,,,0.2,1293.2992691882246,1294.0998559515865,Y,l,go,None,0,,,,,,,,,,,,,,,,,,36,001,19,w,B. Sc. Psychologie,2023-01-18_09h00.09.922,00_bat_bachelor,2022.2.4,60.00753548443612,
,,,,,,,,,,,,1,0,1,0,177,0,177,0,,,,,,,177,,,0.2,1294.3001719756576,1295.1006147390872,X,d,go,None,0,,,,,,,,,,,,,,,,,,36,001,19,w,B. Sc. Psychologie,2023-01-18_09h00.09.922,00_bat_bachelor,2022.2.4,60.00753548443612,
,,,,,,,,,,,,1,0,1,0,178,0,178,0,,,,,,,178,,,0.2,1295.3009690661856,,Y,l,go,l,1,0.34107762086205184,,,,,,,,,,,,,,,,,36,001,19,w,B. Sc. Psychologie,2023-01-18_09h00.09.922,00_bat_bachelor,2022.2.4,60.00753548443612,
,,,,,,,,,,,,1,0,1,0,179,0,179,0,,,,,,,179,,,0.2,1295.950927054102,,Y,None,nogo,d,0,0.297546005633194,,,,,,,,,,,,,,,,,36,001,19,w,B. Sc. Psychologie,2023-01-18_09h00.09.922,00_bat_bachelor,2022.2.4,60.00753548443612,
,,,,,,,,,,,,1,0,1,0,180,0,180,0,,,,,,,180,,,0.2,1296.551369914494,,X,d,go,None,0,,,,,,,,,,,,,,,,,,36,001,19,w,B. Sc. Psychologie,2023-01-18_09h00.09.922,00_bat_bachelor,2022.2.4,60.00753548443612,
,,,,,,,,,,,,1,0,1,0,181,0,181,0,,,,,,,181,,,0.2,1297.5525131866452,1298.3531915863277,Y,l,go,None,0,,,,,,,,,,,,,,,,,,36,001,19,w,B. Sc. Psychologie,2023-01-18_09h00.09.922,00_bat_bachelor,2022.2.4,60.00753548443612,
,,,,,,,,,,,,1,0,1,0,182,0,182,0,,,,,,,182,,,0.2,1298.5531803378544,,X,d,go,d,1,0.4807638561760541,,,,,,,,,,,,,,,,,36,001,19,w,B. Sc. Psychologie,2023-01-18_09h00.09.922,00_bat_bachelor,2022.2.4,60.00753548443612,
