loop_instruction.thisRepN,loop_instruction.thisTrialN,loop_instruction.thisN,loop_instruction.thisIndex,loop_rsi_practice.thisRepN,loop_rsi_practice.thisTrialN,loop_rsi_practice.thisN,loop_rsi_practice.thisIndex,loop_practice.thisRepN,loop_practice.thisTrialN,loop_practice.thisN,loop_practice.thisIndex,loop_exp.thisRepN,loop_exp.thisTrialN,loop_exp.thisN,loop_exp.thisIndex,loop_trials.thisRepN,loop_trials.thisTrialN,loop_trials.thisN,loop_trials.thisIndex,map_condition,map_x_key,map_y_key,key_resp_welcome.started,key_resp_welcome.keys,key_resp_welcome.rt,index,text_empty_rsi_practice.started,text_empty_rsi_practice.stopped,rsi,stimulus.started,stimulus,correct,trial_type,key_resp_trial.keys,key_resp_trial.corr,key_resp_trial.rt,stimulus.stopped,key_resp_instruction_rsi.started,key_resp_instruction_rsi.keys,key_resp_instruction_rsi.rt,key_resp_instruction_rsi.stopped,key_resp_instruction_final.started,key_resp_instruction_final.keys,key_resp_instruction_final.rt,key_resp_break.started,key_resp_break.keys,key_resp_break.rt,key_resp_break.stopped,key_resp_end_screen.started,image_end_screen.started,key_resp_end_screen.stopped,image_end_screen.stopped,key_resp_end_screen.keys,participant,session,Alter,Geschlecht (w/m/d/andere),Studiengang,date,expName,psychopyVersion,frameRate,
,,,,0,0,0,0,0,0,0,0,,,,,,,,,1,l,d,1352.8290517192509,j,15.842722075787606,0,1368.7001349332568,1369.7141960173612,1,1369.7141960173612,X,l,go,l,1,0.48883909586584195,,,,,,,,,,,,,,,,,,39,001,20,w,Psychologie,2023-01-18_10h27.07.238,00_bat_bachelor,2022.2.4,60.01940990441768,
,,,,0,0,0,0,1,0,1,0,,,,,,,,,,,,,,,1,1370.9153813743615,1371.9160795558419,1,1371.9160795558419,Y,d,go,None,0,,1372.7163846223557,,,,,,,,,,,,,,,,,39,001,20,w,Psychologie,2023-01-18_10h27.07.238,00_bat_bachelor,2022.2.4,60.01940990441768,
,,,,0,0,0,0,2,0,2,0,,,,,,,,,,,,,,,2,1373.3168391190993,1374.317885421624,1,1374.317885421624,X,l,go,l,1,0.6536821674962994,,,,,,,,,,,,,,,,,,39,001,20,w,Psychologie,2023-01-18_10h27.07.238,00_bat_bachelor,2022.2.4,60.01940990441768,
,,,,0,0,0,0,3,0,3,0,,,,,,,,,,,,,,,3,1375.6855730009265,1376.6860680310056,1,1376.6860680310056,Y,d,go,None,0,,1377.4866916428145,,,,,,,,,,,,,,,,,39,001,20,w,Psychologie,2023-01-18_10h27.07.238,00_bat_bachelor,2022.2.4,60.01940990441768,
,,,,0,0,0,0,4,0,4,0,,,,,,,,,,,,,,,4,1378.0873861394357,1379.088077048189,1,1379.088077048189,X,l,go,l,1,0.3645443682617042,,,,,,,,,,,,,,,,,,39,001,20,w,Psychologie,2023-01-18_10h27.07.238,00_bat_bachelor,2022.2.4,60.01940990441768,
,,,,0,0,0,0,5,0,5,0,,,,,,,,,,,,,,,5,1380.1555858639476,1381.1563519241754,1,1381.1563519241754,X,None,nogo,l,0,0.5510567626915872,,,,,,,,,,,,,,,,,,39,001,20,w,Psychologie,2023-01-18_10h27.07.238,00_bat_bachelor,2022.2.4,60.01940990441768,
,,,,0,0,0,0,6,0,6,0,,,,,,,,,,,,,,,6,1382.824077661062,1383.8251947514073,1,1383.8251947514073,Y,d,go,None,0,,,,,,,,,,,,,,,,,,,39,001,20,w,Psychologie,2023-01-18_10h27.07.238,00_bat_bachelor,2022.2.4,60.01940990441768,
,,,,0,0,0,0,7,0,7,0,,,,,,,,,,,,,,,7,1385.2262093448662,1386.2269501929986,1,1386.2269501929986,X,l,go,l,1,0.4245860360970255,,,,,,,,,,,,,,,,,,39,001,20,w,Psychologie,2023-01-18_10h27.07.238,00_bat_bachelor,2022.2.4,60.01940990441768,
,,,,0,0,0,0,8,0,8,0,,,,,,,,,,,,,,,8,1387.3778902410122,1388.3785816346353,1,1388.3785816346353,Y,d,go,d,1,0.6098363705386873,,,,,,,,,,,,,,,,,,39,001,20,w,Psychologie,2023-01-18_10h27.07.238,00_bat_bachelor,2022.2.4,60.01940990441768,
,,,,0,0,0,0,9,0,9,0,,,,,,,,,,,,,,,9,1389.6960054807132,1390.6970832983789,1,1390.6970832983789,X,l,go,l,1,0.2905366465856787,,,,,,,,,,,,,,,,,,39,001,20,w,Psychologie,2023-01-18_10h27.07.238,00_bat_bachelor,2022.2.4,60.01940990441768,
,,,,0,0,0,0,10,0,10,0,,,,,,,,,,,,,,,10,1391.6978711767879,1392.698556752206,1,1392.698556752206,X,None,nogo,l,0,0.4497200845507905,,,,,,,,,,,,,,,,,,39,001,20,w,Psychologie,2023-01-18_10h27.07.238,00_bat_bachelor,2022.2.4,60.01940990441768,
,,,,0,0,0,0,11,0,11,0,,,,,,,,,,,,,,,11,1394.2498112728063,1395.2502796362096,1,1395.2502796362096,Y,d,go,d,1,0.6010756475443486,,,,,,,,,,,,,,,,,,39,001,20,w,Psychologie,2023-01-18_10h27.07.238,00_bat_bachelor,2022.2.4,60.01940990441768,
,,,,0,0,0,0,12,0,12,0,,,,,,,,,,,,,,,12,1396.5682668759837,1397.569150754338,1,1397.569150754338,X,l,go,l,1,0.42762458010111004,,,,,,,,,,,,,,,,,,39,001,20,w,Psychologie,2023-01-18_10h27.07.238,00_bat_bachelor,2022.2.4,60.01940990441768,
,,,,0,0,0,0,13,0,13,0,,,,,,,,,,,,,,,13,1398.7033523862483,1399.7038992950693,1,1399.7038992950693,Y,d,go,d,1,0.4674970456107985,,,,,,,,,,,,,,,,,,39,001,20,w,Psychologie,2023-01-18_10h27.07.238,00_bat_bachelor,2022.2.4,60.01940990441768,
,,,,0,0,0,0,14,0,14,0,,,,,,,,,,,,,,,14,1400.8715675774147,1401.8724461224338,1,1401.8724461224338,X,l,go,l,1,0.26698029434191994,,,,,,,,,,,,,,,,,,39,001,20,w,Psychologie,2023-01-18_10h27.07.238,00_bat_bachelor,2022.2.4,60.01940990441768,
,,,,1,0,1,0,0,0,0,0,,,,,,,,,,,,,,,0,1419.1350762981456,1419.3352512313868,0.2,1419.3352512313868,X,l,go,l,1,0.4847256433276925,,1402.8602366738196,j,16.258221995580243,,,,,,,,,,,,,,39,001,20,w,Psychologie,2023-01-18_10h27.07.238,00_bat_bachelor,2022.2.4,60.01940990441768,
,,,,1,0,1,0,1,0,1,0,,,,,,,,,,,,,,,1,1420.5364758610958,1420.7365659459028,0.2,1420.7365659459028,Y,d,go,d,1,0.28201010526390746,,,,,,,,,,,,,,,,,,39,001,20,w,Psychologie,2023-01-18_10h27.07.238,00_bat_bachelor,2022.2.4,60.01940990441768,
,,,,1,0,1,0,2,0,2,0,,,,,,,,,,,,,,,2,1421.7373019455408,1421.9375811211648,0.2,1421.9375811211648,X,l,go,l,1,0.28199119615601376,,,,,,,,,,,,,,,,,,39,001,20,w,Psychologie,2023-01-18_10h27.07.238,00_bat_bachelor,2022.2.4,60.01940990441768,
,,,,1,0,1,0,3,0,3,0,,,,,,,,,,,,,,,3,1422.9215699774213,1423.1218796984758,0.2,1423.1218796984758,X,None,nogo,None,1,,,,,,,,,,,,,,,,,,,39,001,20,w,Psychologie,2023-01-18_10h27.07.238,00_bat_bachelor,2022.2.4,60.01940990441768,
,,,,1,0,1,0,4,0,4,0,,,,,,,,,,,,,,,4,1424.5225495648338,1424.7226852253661,0.2,1424.7226852253661,Y,d,go,d,1,0.3932124755810946,,,,,,,,,,,,,,,,,,39,001,20,w,Psychologie,2023-01-18_10h27.07.238,00_bat_bachelor,2022.2.4,60.01940990441768,
,,,,1,0,1,0,5,0,5,0,,,,,,,,,,,,,,,5,1425.8238842065912,1426.0239204732352,0.2,1426.0239204732352,X,l,go,l,1,0.3410035312117543,,,,,,,,,,,,,,,,,,39,001,20,w,Psychologie,2023-01-18_10h27.07.238,00_bat_bachelor,2022.2.4,60.01940990441768,
,,,,1,0,1,0,6,0,6,0,,,,,,,,,,,,,,,6,1427.0746860243962,1427.2748759879323,0.2,1427.2748759879323,X,None,nogo,l,0,0.46505098618217744,,,,,,,,,,,,,,,,,,39,001,20,w,Psychologie,2023-01-18_10h27.07.238,00_bat_bachelor,2022.2.4,60.01940990441768,
,,,,1,0,1,0,7,0,7,0,,,,,,,,,,,,,,,7,1428.8428563186026,1429.0426225247793,0.2,1429.0426225247793,Y,d,go,d,1,0.4569142628752161,,,,,,,,,,,,,,,,,,39,001,20,w,Psychologie,2023-01-18_10h27.07.238,00_bat_bachelor,2022.2.4,60.01940990441768,
,,,,1,0,1,0,8,0,8,0,,,,,,,,,,,,,,,8,1430.210158443544,1430.4106078009063,0.2,1430.4106078009063,X,l,go,l,1,0.4819624931551516,,,,,,,,,,,,,,,,,,39,001,20,w,Psychologie,2023-01-18_10h27.07.238,00_bat_bachelor,2022.2.4,60.01940990441768,
,,,,1,0,1,0,9,0,9,0,,,,,,,,,,,,,,,9,1431.5948797115707,1431.7946944025753,0.2,1431.7946944025753,Y,d,go,d,1,0.42502627833164297,,,,,,,,,,,,,,,,,,39,001,20,w,Psychologie,2023-01-18_10h27.07.238,00_bat_bachelor,2022.2.4,60.01940990441768,
,,,,1,0,1,0,10,0,10,0,,,,,,,,,,,,,,,10,1432.9293968827114,1433.12899290715,0.2,1433.12899290715,X,l,go,l,1,0.3378665630298201,,,,,,,,,,,,,,,,,,39,001,20,w,Psychologie,2023-01-18_10h27.07.238,00_bat_bachelor,2022.2.4,60.01940990441768,
,,,,1,0,1,0,11,0,11,0,,,,,,,,,,,,,,,11,1434.180240397458,1434.3805205427634,0.2,1434.3805205427634,Y,d,go,d,1,0.35162316242349334,,,,,,,,,,,,,,,,,,39,001,20,w,Psychologie,2023-01-18_10h27.07.238,00_bat_bachelor,2022.2.4,60.01940990441768,
,,,,1,0,1,0,12,0,12,0,,,,,,,,,,,,,,,12,1435.447853358608,1435.6479516858235,0.2,1435.6479516858235,Y,None,nogo,None,1,,,,,,,,,,,,,,,,,,,39,001,20,w,Psychologie,2023-01-18_10h27.07.238,00_bat_bachelor,2022.2.4,60.01940990441768,
,,,,1,0,1,0,13,0,13,0,,,,,,,,,,,,,,,13,1437.049100582255,1437.2492275155091,0.2,1437.2492275155091,X,l,go,l,1,0.28197810528217815,,,,,,,,,,,,,,,,,,39,001,20,w,Psychologie,2023-01-18_10h27.07.238,00_bat_bachelor,2022.2.4,60.01940990441768,
,,,,1,0,1,0,14,0,14,0,,,,,,,,,,,,,,,14,1438.2333278868755,1438.4334223353071,0.2,1438.4334223353071,Y,d,go,d,1,0.3629395205352921,,,,,,,,,,,,,,,,,,39,001,20,w,Psychologie,2023-01-18_10h27.07.238,00_bat_bachelor,2022.2.4,60.01940990441768,
,,,,,,,,,,,,,,,,,,,,,,,,,,,,,,,,,,,,,,1439.5295153796324,None,,1439.5295153796324,1439.5295153796324,space,9.396665564825526,,,,,,,,,,39,001,20,w,Psychologie,2023-01-18_10h27.07.238,00_bat_bachelor,2022.2.4,60.01940990441768,
,,,,,,,,,,,,0,0,0,0,0,0,0,0,,,,,,,0,,,1,1449.9587685048464,X,l,go,l,1,0.30925033445237204,,,,,,,,,,,,,,,,,,39,001,20,w,Psychologie,2023-01-18_10h27.07.238,00_bat_bachelor,2022.2.4,60.01940990441768,
,,,,,,,,,,,,0,0,0,0,1,0,1,0,,,,,,,1,,,1,1451.3766664840223,Y,d,go,d,1,0.39602701968397014,,,,,,,,,,,,,,,,,,39,001,20,w,Psychologie,2023-01-18_10h27.07.238,00_bat_bachelor,2022.2.4,60.01940990441768,
,,,,,,,,,,,,0,0,0,0,2,0,2,0,,,,,,,2,,,1,1452.8777159380843,X,l,go,l,1,0.3024357923131902,,,,,,,,,,,,,,,,,,39,001,20,w,Psychologie,2023-01-18_10h27.07.238,00_bat_bachelor,2022.2.4,60.01940990441768,
,,,,,,,,,,,,0,0,0,0,3,0,3,0,,,,,,,3,,,1,1454.2954728264303,X,None,nogo,None,1,,1455.0960925594554,,,,,,,,,,,,,,,,,39,001,20,w,Psychologie,2023-01-18_10h27.07.238,00_bat_bachelor,2022.2.4,60.01940990441768,
,,,,,,,,,,,,0,0,0,0,4,0,4,0,,,,,,,4,,,1,1456.09678492276,Y,d,go,d,1,0.39594605000456795,,,,,,,,,,,,,,,,,,39,001,20,w,Psychologie,2023-01-18_10h27.07.238,00_bat_bachelor,2022.2.4,60.01940990441768,
,,,,,,,,,,,,0,0,0,0,5,0,5,0,,,,,,,5,,,1,1457.5980748615402,X,l,go,l,1,0.3017235502193216,,,,,,,,,,,,,,,,,,39,001,20,w,Psychologie,2023-01-18_10h27.07.238,00_bat_bachelor,2022.2.4,60.01940990441768,
,,,,,,,,,,,,0,0,0,0,6,0,6,0,,,,,,,6,,,1,1459.0157905377855,Y,d,go,d,1,0.3087814862083178,,,,,,,,,,,,,,,,,,39,001,20,w,Psychologie,2023-01-18_10h27.07.238,00_bat_bachelor,2022.2.4,60.01940990441768,
,,,,,,,,,,,,0,0,0,0,7,0,7,0,,,,,,,7,,,1,1460.4332696080965,X,l,go,l,1,0.6182693361479323,,,,,,,,,,,,,,,,,,39,001,20,w,Psychologie,2023-01-18_10h27.07.238,00_bat_bachelor,2022.2.4,60.01940990441768,
,,,,,,,,,,,,0,0,0,0,8,0,8,0,,,,,,,8,,,1,1462.1682612517616,Y,d,go,d,1,0.4514475988398772,,,,,,,,,,,,,,,,,,39,001,20,w,Psychologie,2023-01-18_10h27.07.238,00_bat_bachelor,2022.2.4,60.01940990441768,
,,,,,,,,,,,,0,0,0,0,9,0,9,0,,,,,,,9,,,1,1463.735985582549,Y,None,nogo,None,1,,,,,,,,,,,,,,,,,,,39,001,20,w,Psychologie,2023-01-18_10h27.07.238,00_bat_bachelor,2022.2.4,60.01940990441768,
,,,,,,,,,,,,0,0,0,0,10,0,10,0,,,,,,,10,,,1,1465.5371944062063,X,l,go,l,1,0.2987970061949454,,,,,,,,,,,,,,,,,,39,001,20,w,Psychologie,2023-01-18_10h27.07.238,00_bat_bachelor,2022.2.4,60.01940990441768,
,,,,,,,,,,,,0,0,0,0,11,0,11,0,,,,,,,11,,,1,1466.9384509389347,Y,d,go,d,1,0.2894161622680258,,,,,,,,,,,,,,,,,,39,001,20,w,Psychologie,2023-01-18_10h27.07.238,00_bat_bachelor,2022.2.4,60.01940990441768,
,,,,,,,,,,,,0,0,0,0,12,0,12,0,,,,,,,12,,,1,1468.3392172900785,Y,None,nogo,None,1,,,,,,,,,,,,,,,,,,,39,001,20,w,Psychologie,2023-01-18_10h27.07.238,00_bat_bachelor,2022.2.4,60.01940990441768,
,,,,,,,,,,,,0,0,0,0,13,0,13,0,,,,,,,13,,,1,1470.1409798104432,X,l,go,l,1,0.27066417134483345,,,,,,,,,,,,,,,,,,39,001,20,w,Psychologie,2023-01-18_10h27.07.238,00_bat_bachelor,2022.2.4,60.01940990441768,
,,,,,,,,,,,,0,0,0,0,14,0,14,0,,,,,,,14,,,1,1471.525283624098,Y,d,go,d,1,0.3425875304383226,,,,,,,,,,,,,,,,,,39,001,20,w,Psychologie,2023-01-18_10h27.07.238,00_bat_bachelor,2022.2.4,60.01940990441768,
,,,,,,,,,,,,0,0,0,0,15,0,15,0,,,,,,,15,,,1,1472.9762337084976,Y,None,nogo,None,1,,,,,,,,,,,,,,,,,,,39,001,20,w,Psychologie,2023-01-18_10h27.07.238,00_bat_bachelor,2022.2.4,60.01940990441768,
,,,,,,,,,,,,0,0,0,0,16,0,16,0,,,,,,,16,,,1,1474.7776490774995,X,l,go,l,1,0.24120624622446485,,,,,,,,,,,,,,,,,,39,001,20,w,Psychologie,2023-01-18_10h27.07.238,00_bat_bachelor,2022.2.4,60.01940990441768,
,,,,,,,,,,,,0,0,0,0,17,0,17,0,,,,,,,17,,,1,1476.128486725589,Y,d,go,d,1,0.34784473999752663,,,,,,,,,,,,,,,,,,39,001,20,w,Psychologie,2023-01-18_10h27.07.238,00_bat_bachelor,2022.2.4,60.01940990441768,
,,,,,,,,,,,,0,0,0,0,18,0,18,0,,,,,,,18,,,1,1477.5796360826062,X,l,go,l,1,0.23943315620999783,,,,,,,,,,,,,,,,,,39,001,20,w,Psychologie,2023-01-18_10h27.07.238,00_bat_bachelor,2022.2.4,60.01940990441768,
,,,,,,,,,,,,0,0,0,0,19,0,19,0,,,,,,,19,,,1,1478.9308635486814,Y,d,go,d,1,0.2164343794574961,,,,,,,,,,,,,,,,,,39,001,20,w,Psychologie,2023-01-18_10h27.07.238,00_bat_bachelor,2022.2.4,60.01940990441768,
,,,,,,,,,,,,0,0,0,0,20,0,20,0,,,,,,,20,,,1,1480.2486200006679,Y,None,nogo,None,1,,,,,,,,,,,,,,,,,,,39,001,20,w,Psychologie,2023-01-18_10h27.07.238,00_bat_bachelor,2022.2.4,60.01940990441768,
,,,,,,,,,,,,0,0,0,0,21,0,21,0,,,,,,,21,,,1,1482.0499485818436,X,l,go,l,1,0.21790007571689785,,,,,,,,,,,,,,,,,,39,001,20,w,Psychologie,2023-01-18_10h27.07.238,00_bat_bachelor,2022.2.4,60.01940990441768,
,,,,,,,,,,,,0,0,0,0,22,0,22,0,,,,,,,22,,,1,1483.3845438135613,Y,d,go,d,1,0.30662342664436437,,,,,,,,,,,,,,,,,,39,001,20,w,Psychologie,2023-01-18_10h27.07.238,00_bat_bachelor,2022.2.4,60.01940990441768,
,,,,,,,,,,,,0,0,0,0,23,0,23,0,,,,,,,23,,,1,1484.8020078535774,Y,None,nogo,None,1,,,,,,,,,,,,,,,,,,,39,001,20,w,Psychologie,2023-01-18_10h27.07.238,00_bat_bachelor,2022.2.4,60.01940990441768,
,,,,,,,,,,,,0,0,0,0,24,0,24,0,,,,,,,24,,,1,1486.603462495288,X,l,go,l,1,0.351903889561072,,,,,,,,,,,,,,,,,,39,001,20,w,Psychologie,2023-01-18_10h27.07.238,00_bat_bachelor,2022.2.4,60.01940990441768,
,,,,,,,,,,,,0,0,0,0,25,0,25,0,,,,,,,25,,,1,1488.0713279654155,Y,d,go,d,1,0.37220060697291046,,,,,,,,,,,,,,,,,,39,001,20,w,Psychologie,2023-01-18_10h27.07.238,00_bat_bachelor,2022.2.4,60.01940990441768,
,,,,,,,,,,,,0,0,0,0,26,0,26,0,,,,,,,26,,,1,1489.5556647002813,X,l,go,l,1,0.2809943481697701,,,,,,,,,,,,,,,,,,39,001,20,w,Psychologie,2023-01-18_10h27.07.238,00_bat_bachelor,2022.2.4,60.01940990441768,
,,,,,,,,,,,,0,0,0,0,27,0,27,0,,,,,,,27,,,1,1490.9397968776757,X,None,nogo,None,1,,,,,,,,,,,,,,,,,,,39,001,20,w,Psychologie,2023-01-18_10h27.07.238,00_bat_bachelor,2022.2.4,60.01940990441768,
,,,,,,,,,,,,0,0,0,0,28,0,28,0,,,,,,,28,,,1,1492.7412360042508,Y,d,go,d,1,0.295740522822598,,,,,,,,,,,,,,,,,,39,001,20,w,Psychologie,2023-01-18_10h27.07.238,00_bat_bachelor,2022.2.4,60.01940990441768,
,,,,,,,,,,,,0,0,0,0,29,0,29,0,,,,,,,29,,,1,1494.1426699914155,X,l,go,l,1,0.34865637597977184,,,,,,,,,,,,,,,,,,39,001,20,w,Psychologie,2023-01-18_10h27.07.238,00_bat_bachelor,2022.2.4,60.01940990441768,
,,,,,,,,,,,,0,0,0,0,30,0,30,0,,,,,,,30,,,1,1495.593362621381,Y,d,go,d,1,0.29037373754545115,,,,,,,,,,,,,,,,,,39,001,20,w,Psychologie,2023-01-18_10h27.07.238,00_bat_bachelor,2022.2.4,60.01940990441768,
,,,,,,,,,,,,0,0,0,0,31,0,31,0,,,,,,,31,,,1,1496.9946555177448,Y,None,nogo,None,1,,,,,,,,,,,,,,,,,,,39,001,20,w,Psychologie,2023-01-18_10h27.07.238,00_bat_bachelor,2022.2.4,60.01940990441768,
,,,,,,,,,,,,0,0,0,0,32,0,32,0,,,,,,,32,,,1,1498.7961436139885,X,l,go,l,1,0.22442516346927732,,,,,,,,,,,,,,,,,,39,001,20,w,Psychologie,2023-01-18_10h27.07.238,00_bat_bachelor,2022.2.4,60.01940990441768,
,,,,,,,,,,,,0,0,0,0,33,0,33,0,,,,,,,33,,,1,1500.1303548458964,Y,d,go,d,1,0.26500987107283436,,,,,,,,,,,,,,,,,,39,001,20,w,Psychologie,2023-01-18_10h27.07.238,00_bat_bachelor,2022.2.4,60.01940990441768,
,,,,,,,,,,,,0,0,0,0,34,0,34,0,,,,,,,34,,,1,1501.4981694554153,Y,None,nogo,None,1,,,,,,,,,,,,,,,,,,,39,001,20,w,Psychologie,2023-01-18_10h27.07.238,00_bat_bachelor,2022.2.4,60.01940990441768,
,,,,,,,,,,,,0,0,0,0,35,0,35,0,,,,,,,35,,,1,1503.2995693092817,X,l,go,l,1,0.23215267490013503,,,,,,,,,,,,,,,,,,39,001,20,w,Psychologie,2023-01-18_10h27.07.238,00_bat_bachelor,2022.2.4,60.01940990441768,
,,,,,,,,,,,,0,0,0,0,36,0,36,0,,,,,,,36,,,1,1504.6335652685666,Y,d,go,d,1,0.2420988518570084,,,,,,,,,,,,,,,,,,39,001,20,w,Psychologie,2023-01-18_10h27.07.238,00_bat_bachelor,2022.2.4,60.01940990441768,
,,,,,,,,,,,,0,0,0,0,37,0,37,0,,,,,,,37,,,1,1505.9848824315704,X,l,go,l,1,0.21925522657693364,,,,,,,,,,,,,,,,,,39,001,20,w,Psychologie,2023-01-18_10h27.07.238,00_bat_bachelor,2022.2.4,60.01940990441768,
,,,,,,,,,,,,0,0,0,0,38,0,38,0,,,,,,,38,,,1,1507.3189205726376,X,None,nogo,d,0,0.2618278120062314,,,,,,,,,,,,,,,,,,39,001,20,w,Psychologie,2023-01-18_10h27.07.238,00_bat_bachelor,2022.2.4,60.01940990441768,
,,,,,,,,,,,,0,0,0,0,39,0,39,0,,,,,,,39,,,1,1508.6869654851034,Y,d,go,d,1,0.2850544674147386,,,,,,,,,,,,,,,,,,39,001,20,w,Psychologie,2023-01-18_10h27.07.238,00_bat_bachelor,2022.2.4,60.01940990441768,
,,,,,,,,,,,,0,0,0,0,40,0,40,0,,,,,,,40,,,1,1510.0879320785752,X,l,go,l,1,0.35575213009724393,,,,,,,,,,,,,,,,,,39,001,20,w,Psychologie,2023-01-18_10h27.07.238,00_bat_bachelor,2022.2.4,60.01940990441768,
,,,,,,,,,,,,0,0,0,0,41,0,41,0,,,,,,,41,,,1,1511.55582470019,Y,d,go,d,1,0.2800299850059673,,,,,,,,,,,,,,,,,,39,001,20,w,Psychologie,2023-01-18_10h27.07.238,00_bat_bachelor,2022.2.4,60.01940990441768,
,,,,,,,,,,,,0,0,0,0,42,0,42,0,,,,,,,42,,,1,1512.9402191804838,X,l,go,l,1,0.24021085278945975,,,,,,,,,,,,,,,,,,39,001,20,w,Psychologie,2023-01-18_10h27.07.238,00_bat_bachelor,2022.2.4,60.01940990441768,
,,,,,,,,,,,,0,0,0,0,43,0,43,0,,,,,,,43,,,1,1514.2909113740898,Y,d,go,d,1,0.3937089601822663,,,,,,,,,,,,,,,,,,39,001,20,w,Psychologie,2023-01-18_10h27.07.238,00_bat_bachelor,2022.2.4,60.01940990441768,
,,,,,,,,,,,,0,0,0,0,44,0,44,0,,,,,,,44,,,1,1515.792069919,Y,None,nogo,None,1,,,,,,,,,,,,,,,,,,,39,001,20,w,Psychologie,2023-01-18_10h27.07.238,00_bat_bachelor,2022.2.4,60.01940990441768,
,,,,,,,,,,,,0,0,0,0,45,0,45,0,,,,,,,45,,,1,1517.5934353486227,X,l,go,l,1,0.27337689729756676,,,,,,,,,,,,,,,,,,39,001,20,w,Psychologie,2023-01-18_10h27.07.238,00_bat_bachelor,2022.2.4,60.01940990441768,
,,,,,,,,,,,,0,0,0,0,46,0,46,0,,,,,,,46,,,1,1518.9782477681292,Y,d,go,d,1,0.31432960473466665,,,,,,,,,,,,,,,,,,39,001,20,w,Psychologie,2023-01-18_10h27.07.238,00_bat_bachelor,2022.2.4,60.01940990441768,
,,,,,,,,,,,,0,0,0,0,47,0,47,0,,,,,,,47,,,1,1520.3958349595778,Y,None,nogo,None,1,,1521.1965982076945,,,,,,,,,,,,,,,,,39,001,20,w,Psychologie,2023-01-18_10h27.07.238,00_bat_bachelor,2022.2.4,60.01940990441768,
,,,,,,,,,,,,0,0,0,0,48,0,48,0,,,,,,,48,,,1,1522.196932752995,X,l,go,l,1,0.21504868316696957,,,,,,,,,,,,,,,,,,39,001,20,w,Psychologie,2023-01-18_10h27.07.238,00_bat_bachelor,2022.2.4,60.01940990441768,
,,,,,,,,,,,,0,0,0,0,49,0,49,0,,,,,,,49,,,1,1523.514632962586,Y,d,go,d,1,0.3040770036459435,,,,,,,,,,,,,,,,,,39,001,20,w,Psychologie,2023-01-18_10h27.07.238,00_bat_bachelor,2022.2.4,60.01940990441768,
,,,,,,,,,,,,0,0,0,0,50,0,50,0,,,,,,,50,,,1,1524.9325217296719,Y,None,nogo,None,1,,1525.7332689778123,,,,,,,,,,,,,,,,,39,001,20,w,Psychologie,2023-01-18_10h27.07.238,00_bat_bachelor,2022.2.4,60.01940990441768,
,,,,,,,,,,,,0,0,0,0,51,0,51,0,,,,,,,51,,,1,1526.7339778259338,X,l,go,l,1,0.25371484624338336,,,,,,,,,,,,,,,,,,39,001,20,w,Psychologie,2023-01-18_10h27.07.238,00_bat_bachelor,2022.2.4,60.01940990441768,
,,,,,,,,,,,,0,0,0,0,52,0,52,0,,,,,,,52,,,1,1528.1014292841428,Y,d,go,d,1,0.2948644020652864,,,,,,,,,,,,,,,,,,39,001,20,w,Psychologie,2023-01-18_10h27.07.238,00_bat_bachelor,2022.2.4,60.01940990441768,
,,,,,,,,,,,,0,0,0,0,53,0,53,0,,,,,,,53,,,1,1529.5027648471296,X,l,go,l,1,0.28427967990865,,,,,,,,,,,,,,,,,,39,001,20,w,Psychologie,2023-01-18_10h27.07.238,00_bat_bachelor,2022.2.4,60.01940990441768,
,,,,,,,,,,,,0,0,0,0,54,0,54,0,,,,,,,54,,,1,1530.9039423495997,X,None,nogo,d,0,0.29273543338058516,,,,,,,,,,,,,,,,,,39,001,20,w,Psychologie,2023-01-18_10h27.07.238,00_bat_bachelor,2022.2.4,60.01940990441768,
,,,,,,,,,,,,0,0,0,0,55,0,55,0,,,,,,,55,,,1,1532.3051411853812,Y,d,go,d,1,0.33093177850241773,,,,,,,,,,,,,,,,,,39,001,20,w,Psychologie,2023-01-18_10h27.07.238,00_bat_bachelor,2022.2.4,60.01940990441768,
,,,,,,,,,,,,0,0,0,0,56,0,56,0,,,,,,,56,,,1,1533.739139035577,X,l,go,l,1,0.28804840534576215,,,,,,,,,,,,,,,,,,39,001,20,w,Psychologie,2023-01-18_10h27.07.238,00_bat_bachelor,2022.2.4,60.01940990441768,
,,,,,,,,,,,,0,0,0,0,57,0,57,0,,,,,,,57,,,1,1535.1404076894978,Y,d,go,d,1,0.2485589699645061,,,,,,,,,,,,,,,,,,39,001,20,w,Psychologie,2023-01-18_10h27.07.238,00_bat_bachelor,2022.2.4,60.01940990441768,
,,,,,,,,,,,,0,0,0,0,58,0,58,0,,,,,,,58,,,1,1536.491153216397,Y,None,nogo,None,1,,,,,,,,,,,,,,,,,,,39,001,20,w,Psychologie,2023-01-18_10h27.07.238,00_bat_bachelor,2022.2.4,60.01940990441768,
,,,,,,,,,,,,0,0,0,0,59,0,59,0,,,,,,,59,,,1,1538.2926088278182,Y,None,nogo,l,0,0.24700212222523987,,,,,,,,,,,,,,,,,,39,001,20,w,Psychologie,2023-01-18_10h27.07.238,00_bat_bachelor,2022.2.4,60.01940990441768,
,,,,,,,,,,,,0,0,0,0,60,0,60,0,,,,,,,60,,,1,1539.643864899932,X,l,go,l,1,0.3355950489640236,,,,,,,,,,,,,,,,,,39,001,20,w,Psychologie,2023-01-18_10h27.07.238,00_bat_bachelor,2022.2.4,60.01940990441768,
,,,,,,,,,,,,0,0,0,0,61,0,61,0,,,,,,,61,,,1,1541.0949381357932,Y,d,go,d,1,0.4365060303534847,,,,,,,,,,,,,,,,,,39,001,20,w,Psychologie,2023-01-18_10h27.07.238,00_bat_bachelor,2022.2.4,60.01940990441768,
,,,,,,,,,,,,0,0,0,0,62,0,62,0,,,,,,,62,,,1,1542.6460942321864,Y,None,nogo,None,1,,,,,,,,,,,,,,,,,,,39,001,20,w,Psychologie,2023-01-18_10h27.07.238,00_bat_bachelor,2022.2.4,60.01940990441768,
,,,,,,,,,,,,0,0,0,0,63,0,63,0,,,,,,,63,,,1,1544.4472123892338,X,l,go,l,1,0.2682728997897357,,,,,,,,,,,,,,,,,,39,001,20,w,Psychologie,2023-01-18_10h27.07.238,00_bat_bachelor,2022.2.4,60.01940990441768,
,,,,,,,,,,,,0,0,0,0,64,0,64,0,,,,,,,64,,,1,1545.8318105057988,Y,d,go,d,1,0.45205365915899165,,,,,,,,,,,,,,,,,,39,001,20,w,Psychologie,2023-01-18_10h27.07.238,00_bat_bachelor,2022.2.4,60.01940990441768,
,,,,,,,,,,,,0,0,0,0,65,0,65,0,,,,,,,65,,,1,1547.3997152001248,X,l,go,l,1,0.3878262963553425,,,,,,,,,,,,,,,,,,39,001,20,w,Psychologie,2023-01-18_10h27.07.238,00_bat_bachelor,2022.2.4,60.01940990441768,
,,,,,,,,,,,,0,0,0,0,66,0,66,0,,,,,,,66,,,1,1548.9009474419581,X,None,nogo,None,1,,,,,,,,,,,,,,,,,,,39,001,20,w,Psychologie,2023-01-18_10h27.07.238,00_bat_bachelor,2022.2.4,60.01940990441768,
,,,,,,,,,,,,0,0,0,0,67,0,67,0,,,,,,,67,,,1,1550.7022493564873,X,None,nogo,None,1,,,,,,,,,,,,,,,,,,,39,001,20,w,Psychologie,2023-01-18_10h27.07.238,00_bat_bachelor,2022.2.4,60.01940990441768,
,,,,,,,,,,,,0,0,0,0,68,0,68,0,,,,,,,68,,,1,1552.5037253315095,Y,d,go,d,1,0.30800572902080603,,,,,,,,,,,,,,,,,,39,001,20,w,Psychologie,2023-01-18_10h27.07.238,00_bat_bachelor,2022.2.4,60.01940990441768,
,,,,,,,,,,,,0,0,0,0,69,0,69,0,,,,,,,69,,,1,1553.92115349276,X,l,go,l,1,0.34642025583889335,,,,,,,,,,,,,,,,,,39,001,20,w,Psychologie,2023-01-18_10h27.07.238,00_bat_bachelor,2022.2.4,60.01940990441768,
,,,,,,,,,,,,0,0,0,0,70,0,70,0,,,,,,,70,,,1,1555.3722272134619,X,None,nogo,None,1,,,,,,,,,,,,,,,,,,,39,001,20,w,Psychologie,2023-01-18_10h27.07.238,00_bat_bachelor,2022.2.4,60.01940990441768,
,,,,,,,,,,,,0,0,0,0,71,0,71,0,,,,,,,71,,,1,1557.1738292490481,Y,d,go,d,1,0.29390973583213054,,,,,,,,,,,,,,,,,,39,001,20,w,Psychologie,2023-01-18_10h27.07.238,00_bat_bachelor,2022.2.4,60.01940990441768,
,,,,,,,,,,,,0,0,0,0,72,0,72,0,,,,,,,72,,,1,1558.5748520849156,X,l,go,l,1,0.34872813351103105,,,,,,,,,,,,,,,,,,39,001,20,w,Psychologie,2023-01-18_10h27.07.238,00_bat_bachelor,2022.2.4,60.01940990441768,
,,,,,,,,,,,,0,0,0,0,73,0,73,0,,,,,,,73,,,1,1560.02597865407,Y,d,go,d,1,0.30687021440826356,,,,,,,,,,,,,,,,,,39,001,20,w,Psychologie,2023-01-18_10h27.07.238,00_bat_bachelor,2022.2.4,60.01940990441768,
,,,,,,,,,,,,0,0,0,0,74,0,74,0,,,,,,,74,,,1,1561.4434950576979,X,l,go,l,1,0.36032570363022387,,,,,,,,,,,,,,,,,,39,001,20,w,Psychologie,2023-01-18_10h27.07.238,00_bat_bachelor,2022.2.4,60.01940990441768,
,,,,,,,,,,,,0,0,0,0,75,0,75,0,,,,,,,75,,,1,1562.9116528913146,Y,d,go,d,1,0.28420258904225193,,,,,,,,,,,,,,,,,,39,001,20,w,Psychologie,2023-01-18_10h27.07.238,00_bat_bachelor,2022.2.4,60.01940990441768,
,,,,,,,,,,,,0,0,0,0,76,0,76,0,,,,,,,76,,,1,1564.3128526968067,Y,None,nogo,None,1,,,,,,,,,,,,,,,,,,,39,001,20,w,Psychologie,2023-01-18_10h27.07.238,00_bat_bachelor,2022.2.4,60.01940990441768,
,,,,,,,,,,,,0,0,0,0,77,0,77,0,,,,,,,77,,,1,1566.114048429561,X,l,go,l,1,0.24867581838043407,,,,,,,,,,,,,,,,,,39,001,20,w,Psychologie,2023-01-18_10h27.07.238,00_bat_bachelor,2022.2.4,60.01940990441768,
,,,,,,,,,,,,0,0,0,0,78,0,78,0,,,,,,,78,,,1,1567.4816438876733,Y,d,go,d,1,0.4182849482749589,,,,,,,,,,,,,,,,,,39,001,20,w,Psychologie,2023-01-18_10h27.07.238,00_bat_bachelor,2022.2.4,60.01940990441768,
,,,,,,,,,,,,0,0,0,0,79,0,79,0,,,,,,,79,,,1,1569.016216234566,Y,None,nogo,None,1,,1569.8168597251642,,,,,,,,,,,,,,,,,39,001,20,w,Psychologie,2023-01-18_10h27.07.238,00_bat_bachelor,2022.2.4,60.01940990441768,
,,,,,,,,,,,,0,0,0,0,80,0,80,0,,,,,,,80,,,1,1570.8173819067306,X,l,go,l,1,0.2494239392108284,,,,,,,,,,,,,,,,,,39,001,20,w,Psychologie,2023-01-18_10h27.07.238,00_bat_bachelor,2022.2.4,60.01940990441768,
,,,,,,,,,,,,0,0,0,0,81,0,81,0,,,,,,,81,,,1,1572.1687451303005,Y,d,go,d,1,0.3235611153941136,,,,,,,,,,,,,,,,,,39,001,20,w,Psychologie,2023-01-18_10h27.07.238,00_bat_bachelor,2022.2.4,60.01940990441768,
,,,,,,,,,,,,0,0,0,0,82,0,82,0,,,,,,,82,,,1,1573.6030256470258,Y,None,nogo,None,1,,,,,,,,,,,,,,,,,,,39,001,20,w,Psychologie,2023-01-18_10h27.07.238,00_bat_bachelor,2022.2.4,60.01940990441768,
,,,,,,,,,,,,0,0,0,0,83,0,83,0,,,,,,,83,,,1,1575.404464288731,X,l,go,l,1,0.22397667885525152,,,,,,,,,,,,,,,,,,39,001,20,w,Psychologie,2023-01-18_10h27.07.238,00_bat_bachelor,2022.2.4,60.01940990441768,
,,,,,,,,,,,,0,0,0,0,84,0,84,0,,,,,,,84,,,1,1576.7388505508425,Y,d,go,d,1,0.3128289994201623,,,,,,,,,,,,,,,,,,39,001,20,w,Psychologie,2023-01-18_10h27.07.238,00_bat_bachelor,2022.2.4,60.01940990441768,
,,,,,,,,,,,,0,0,0,0,85,0,85,0,,,,,,,85,,,1,1578.1565225907834,X,l,go,l,1,0.31873057229677215,,,,,,,,,,,,,,,,,,39,001,20,w,Psychologie,2023-01-18_10h27.07.238,00_bat_bachelor,2022.2.4,60.01940990441768,
,,,,,,,,,,,,0,0,0,0,86,0,86,0,,,,,,,86,,,1,1579.590654259082,Y,d,go,d,1,0.373651757807238,,,,,,,,,,,,,,,,,,39,001,20,w,Psychologie,2023-01-18_10h27.07.238,00_bat_bachelor,2022.2.4,60.01940990441768,
,,,,,,,,,,,,0,0,0,0,87,0,87,0,,,,,,,87,,,1,1581.0753114786348,X,l,go,l,1,0.3603475218114909,,,,,,,,,,,,,,,,,,39,001,20,w,Psychologie,2023-01-18_10h27.07.238,00_bat_bachelor,2022.2.4,60.01940990441768,
,,,,,,,,,,,,0,0,0,0,88,0,88,0,,,,,,,88,,,1,1582.5431008275773,Y,d,go,d,1,0.3010040354274679,,,,,,,,,,,,,,,,,,39,001,20,w,Psychologie,2023-01-18_10h27.07.238,00_bat_bachelor,2022.2.4,60.01940990441768,
,,,,,,,,,,,,0,0,0,0,89,0,89,0,,,,,,,89,,,1,1583.960973594687,X,l,go,l,1,0.21190977559308521,,,,,,,,,,,,,,,,,,39,001,20,w,Psychologie,2023-01-18_10h27.07.238,00_bat_bachelor,2022.2.4,60.01940990441768,
,,,,,,,,,,,,0,0,0,0,90,0,90,0,,,,,,,90,,,1,1585.278749440593,Y,d,go,d,1,0.2693085356440861,,,,,,,,,,,,,,,,,,39,001,20,w,Psychologie,2023-01-18_10h27.07.238,00_bat_bachelor,2022.2.4,60.01940990441768,
,,,,,,,,,,,,0,0,0,0,91,0,91,0,,,,,,,91,,,1,1586.6630983451614,Y,None,nogo,None,1,,,,,,,,,,,,,,,,,,,39,001,20,w,Psychologie,2023-01-18_10h27.07.238,00_bat_bachelor,2022.2.4,60.01940990441768,
,,,,,,,,,,,,0,0,0,0,92,0,92,0,,,,,,,92,,,1,1588.464054562879,X,l,go,l,1,0.2672876881551929,,,,,,,,,,,,,,,,,,39,001,20,w,Psychologie,2023-01-18_10h27.07.238,00_bat_bachelor,2022.2.4,60.01940990441768,
,,,,,,,,,,,,0,0,0,0,93,0,93,0,,,,,,,93,,,1,1589.8486754673067,Y,d,go,d,1,0.2590675709361676,,,,,,,,,,,,,,,,,,39,001,20,w,Psychologie,2023-01-18_10h27.07.238,00_bat_bachelor,2022.2.4,60.01940990441768,
,,,,,,,,,,,,0,0,0,0,94,0,94,0,,,,,,,94,,,1,1591.2162001375982,X,l,go,l,1,0.2511286656954326,,,,,,,,,,,,,,,,,,39,001,20,w,Psychologie,2023-01-18_10h27.07.238,00_bat_bachelor,2022.2.4,60.01940990441768,
,,,,,,,,,,,,0,0,0,0,95,0,95,0,,,,,,,95,,,1,1592.5839497774723,X,None,nogo,d,0,0.22775655577424914,,,,,,,,,,,,,,,,,,39,001,20,w,Psychologie,2023-01-18_10h27.07.238,00_bat_bachelor,2022.2.4,60.01940990441768,
,,,,,,,,,,,,0,0,0,0,96,0,96,0,,,,,,,96,,,1,1593.9185367667524,Y,d,go,d,1,0.33313298952998593,,,,,,,,,,,,,,,,,,39,001,20,w,Psychologie,2023-01-18_10h27.07.238,00_bat_bachelor,2022.2.4,60.01940990441768,
,,,,,,,,,,,,0,0,0,0,97,0,97,0,,,,,,,97,,,1,1595.3530063742946,X,l,go,l,1,0.27539532058290206,,,,,,,,,,,,,,,,,,39,001,20,w,Psychologie,2023-01-18_10h27.07.238,00_bat_bachelor,2022.2.4,60.01940990441768,
,,,,,,,,,,,,0,0,0,0,98,0,98,0,,,,,,,98,,,1,1596.7374415818485,X,None,nogo,None,1,,,,,,,,,,,,,,,,,,,39,001,20,w,Psychologie,2023-01-18_10h27.07.238,00_bat_bachelor,2022.2.4,60.01940990441768,
,,,,,,,,,,,,0,0,0,0,99,0,99,0,,,,,,,99,,,1,1598.5386489509547,Y,d,go,d,1,0.3213332376908511,,,,,,,,,,,,,,,,,,39,001,20,w,Psychologie,2023-01-18_10h27.07.238,00_bat_bachelor,2022.2.4,60.01940990441768,
,,,,,,,,,,,,0,0,0,0,100,0,100,0,,,,,,,100,,,1,1599.9728509222623,X,l,go,l,1,0.42314361257012933,,,,,,,,,,,,,,,,,,39,001,20,w,Psychologie,2023-01-18_10h27.07.238,00_bat_bachelor,2022.2.4,60.01940990441768,
,,,,,,,,,,,,0,0,0,0,101,0,101,0,,,,,,,101,,,1,1601.507682662923,X,None,nogo,None,1,,,,,,,,,,,,,,,,,,,39,001,20,w,Psychologie,2023-01-18_10h27.07.238,00_bat_bachelor,2022.2.4,60.01940990441768,
,,,,,,,,,,,,0,0,0,0,102,0,102,0,,,,,,,102,,,1,1603.3090267592634,Y,d,go,d,1,0.3509526172711048,,,,,,,,,,,,,,,,,,39,001,20,w,Psychologie,2023-01-18_10h27.07.238,00_bat_bachelor,2022.2.4,60.01940990441768,
,,,,,,,,,,,,0,0,0,0,103,0,103,0,,,,,,,103,,,1,1604.7768597445393,X,l,go,l,1,0.2747422299871687,,,,,,,,,,,,,,,,,,39,001,20,w,Psychologie,2023-01-18_10h27.07.238,00_bat_bachelor,2022.2.4,60.01940990441768,
,,,,,,,,,,,,0,0,0,0,104,0,104,0,,,,,,,104,,,1,1606.160918709851,X,None,nogo,None,1,,,,,,,,,,,,,,,,,,,39,001,20,w,Psychologie,2023-01-18_10h27.07.238,00_bat_bachelor,2022.2.4,60.01940990441768,
,,,,,,,,,,,,0,0,0,0,105,0,105,0,,,,,,,105,,,1,1607.9622744425433,X,None,nogo,None,1,,,,,,,,,,,,,,,,,,,39,001,20,w,Psychologie,2023-01-18_10h27.07.238,00_bat_bachelor,2022.2.4,60.01940990441768,
,,,,,,,,,,,,0,0,0,0,106,0,106,0,,,,,,,106,,,1,1609.7639603568532,Y,d,go,d,1,0.3769453319546301,,,,,,,,,,,,,,,,,,39,001,20,w,Psychologie,2023-01-18_10h27.07.238,00_bat_bachelor,2022.2.4,60.01940990441768,
,,,,,,,,,,,,0,0,0,0,107,0,107,0,,,,,,,107,,,1,1611.2483809704718,X,l,go,l,1,0.29910488484892994,,,,,,,,,,,,,,,,,,39,001,20,w,Psychologie,2023-01-18_10h27.07.238,00_bat_bachelor,2022.2.4,60.01940990441768,
,,,,,,,,,,,,0,0,0,0,108,0,108,0,,,,,,,108,,,1,1612.6494808972056,Y,d,go,d,1,0.3068285174667835,,,,,,,,,,,,,,,,,,39,001,20,w,Psychologie,2023-01-18_10h27.07.238,00_bat_bachelor,2022.2.4,60.01940990441768,
,,,,,,,,,,,,0,0,0,0,109,0,109,0,,,,,,,109,,,1,1614.0672988764709,X,l,go,l,1,0.31308402959257364,,,,,,,,,,,,,,,,,,39,001,20,w,Psychologie,2023-01-18_10h27.07.238,00_bat_bachelor,2022.2.4,60.01940990441768,
,,,,,,,,,,,,0,0,0,0,110,0,110,0,,,,,,,110,,,1,1615.4849340679066,Y,d,go,d,1,0.33487844324554317,,,,,,,,,,,,,,,,,,39,001,20,w,Psychologie,2023-01-18_10h27.07.238,00_bat_bachelor,2022.2.4,60.01940990441768,
,,,,,,,,,,,,0,0,0,0,111,0,111,0,,,,,,,111,,,1,1616.9360470613174,X,l,go,l,1,0.30779482002253644,,,,,,,,,,,,,,,,,,39,001,20,w,Psychologie,2023-01-18_10h27.07.238,00_bat_bachelor,2022.2.4,60.01940990441768,
,,,,,,,,,,,,0,0,0,0,112,0,112,0,,,,,,,112,,,1,1618.3538829799218,Y,d,go,d,1,0.2988823394989595,,,,,,,,,,,,,,,,,,39,001,20,w,Psychologie,2023-01-18_10h27.07.238,00_bat_bachelor,2022.2.4,60.01940990441768,
,,,,,,,,,,,,0,0,0,0,113,0,113,0,,,,,,,113,,,1,1619.7545863008127,X,l,go,l,1,0.32064329864806496,,,,,,,,,,,,,,,,,,39,001,20,w,Psychologie,2023-01-18_10h27.07.238,00_bat_bachelor,2022.2.4,60.01940990441768,
,,,,,,,,,,,,0,0,0,0,114,0,114,0,,,,,,,114,,,1,1621.1890617265017,X,None,nogo,None,1,,1621.9897992776823,,,,,,,,,,,,,,,,,39,001,20,w,Psychologie,2023-01-18_10h27.07.238,00_bat_bachelor,2022.2.4,60.01940990441768,
,,,,,,,,,,,,0,0,0,0,115,0,115,0,,,,,,,115,,,1,1622.9907612165844,Y,d,go,d,1,0.3007577325333841,,,,,,,,,,,,,,,,,,39,001,20,w,Psychologie,2023-01-18_10h27.07.238,00_bat_bachelor,2022.2.4,60.01940990441768,
,,,,,,,,,,,,0,0,0,0,116,0,116,0,,,,,,,116,,,1,1624.4081341051497,X,l,go,l,1,0.29196161558502354,,,,,,,,,,,,,,,,,,39,001,20,w,Psychologie,2023-01-18_10h27.07.238,00_bat_bachelor,2022.2.4,60.01940990441768,
,,,,,,,,,,,,0,0,0,0,117,0,117,0,,,,,,,117,,,1,1625.8095312438672,Y,d,go,d,1,0.34686971019255,,,,,,,,,,,,,,,,,,39,001,20,w,Psychologie,2023-01-18_10h27.07.238,00_bat_bachelor,2022.2.4,60.01940990441768,
,,,,,,,,,,,,0,0,0,0,118,0,118,0,,,,,,,118,,,1,1627.2605133282195,X,l,go,l,1,0.41541076786234044,,,,,,,,,,,,,,,,,,39,001,20,w,Psychologie,2023-01-18_10h27.07.238,00_bat_bachelor,2022.2.4,60.01940990441768,
,,,,,,,,,,,,0,0,0,0,119,0,119,0,,,,,,,119,,,1,1628.7784801074013,Y,d,go,d,1,0.3211562680953648,,,,,,,,,,,,,,,,,,39,001,20,w,Psychologie,2023-01-18_10h27.07.238,00_bat_bachelor,2022.2.4,60.01940990441768,
,,,,,,,,,,,,0,0,0,0,120,0,120,0,,,,,,,120,,,1,1630.2125657151046,Y,None,nogo,l,0,0.34315043926471844,,,,,,,,,,,,,,,,,,39,001,20,w,Psychologie,2023-01-18_10h27.07.238,00_bat_bachelor,2022.2.4,60.01940990441768,
,,,,,,,,,,,,0,0,0,0,121,0,121,0,,,,,,,121,,,1,1631.6639570114203,X,l,go,l,1,0.2995305816293694,,,,,,,,,,,,,,,,,,39,001,20,w,Psychologie,2023-01-18_10h27.07.238,00_bat_bachelor,2022.2.4,60.01940990441768,
,,,,,,,,,,,,0,0,0,0,122,0,122,0,,,,,,,122,,,1,1633.0647485746595,Y,d,go,d,1,0.45085075063980184,,,,,,,,,,,,,,,,,,39,001,20,w,Psychologie,2023-01-18_10h27.07.238,00_bat_bachelor,2022.2.4,60.01940990441768,
,,,,,,,,,,,,0,0,0,0,123,0,123,0,,,,,,,123,,,1,1634.632667329599,X,l,go,l,1,0.22755098014022224,,,,,,,,,,,,,,,,,,39,001,20,w,Psychologie,2023-01-18_10h27.07.238,00_bat_bachelor,2022.2.4,60.01940990441768,
,,,,,,,,,,,,0,0,0,0,124,0,124,0,,,,,,,124,,,1,1635.967158318963,X,None,nogo,None,1,,1636.7675530824054,,,,,,,,,,,,,,,,,39,001,20,w,Psychologie,2023-01-18_10h27.07.238,00_bat_bachelor,2022.2.4,60.01940990441768,
,,,,,,,,,,,,0,0,0,0,125,0,125,0,,,,,,,125,,,1,1637.768311869906,Y,d,go,d,1,0.35423407022608444,,,,,,,,,,,,,,,,,,39,001,20,w,Psychologie,2023-01-18_10h27.07.238,00_bat_bachelor,2022.2.4,60.01940990441768,
,,,,,,,,,,,,0,0,0,0,126,0,126,0,,,,,,,126,,,1,1639.2364517641545,X,l,go,l,1,0.3125046359200496,,,,,,,,,,,,,,,,,,39,001,20,w,Psychologie,2023-01-18_10h27.07.238,00_bat_bachelor,2022.2.4,60.01940990441768,
,,,,,,,,,,,,0,0,0,0,127,0,127,0,,,,,,,127,,,1,1640.653846470872,Y,d,go,d,1,0.3177099667082075,,,,,,,,,,,,,,,,,,39,001,20,w,Psychologie,2023-01-18_10h27.07.238,00_bat_bachelor,2022.2.4,60.01940990441768,
,,,,,,,,,,,,0,0,0,0,128,0,128,0,,,,,,,128,,,1,1642.0886336539988,X,l,go,l,1,0.29170658538350835,,,,,,,,,,,,,,,,,,39,001,20,w,Psychologie,2023-01-18_10h27.07.238,00_bat_bachelor,2022.2.4,60.01940990441768,
,,,,,,,,,,,,0,0,0,0,129,0,129,0,,,,,,,129,,,1,1643.4897297019488,X,None,nogo,None,1,,,,,,,,,,,,,,,,,,,39,001,20,w,Psychologie,2023-01-18_10h27.07.238,00_bat_bachelor,2022.2.4,60.01940990441768,
,,,,,,,,,,,,0,0,0,0,130,0,130,0,,,,,,,130,,,1,1645.2912759799801,Y,d,go,d,1,0.30466512456769124,,,,,,,,,,,,,,,,,,39,001,20,w,Psychologie,2023-01-18_10h27.07.238,00_bat_bachelor,2022.2.4,60.01940990441768,
,,,,,,,,,,,,0,0,0,0,131,0,131,0,,,,,,,131,,,1,1646.7090866864892,X,l,go,l,1,0.27901083396864124,,,,,,,,,,,,,,,,,,39,001,20,w,Psychologie,2023-01-18_10h27.07.238,00_bat_bachelor,2022.2.4,60.01940990441768,
,,,,,,,,,,,,0,0,0,0,132,0,132,0,,,,,,,132,,,1,1648.0932785002224,X,None,nogo,None,1,,1648.8939985968464,,,,,,,,,,,,,,,,,39,001,20,w,Psychologie,2023-01-18_10h27.07.238,00_bat_bachelor,2022.2.4,60.01940990441768,
,,,,,,,,,,,,0,0,0,0,133,0,133,0,,,,,,,133,,,1,1649.8949081721657,Y,d,go,d,1,0.29314173621241935,,,,,,,,,,,,,,,,,,39,001,20,w,Psychologie,2023-01-18_10h27.07.238,00_bat_bachelor,2022.2.4,60.01940990441768,
,,,,,,,,,,,,0,0,0,0,134,0,134,0,,,,,,,134,,,1,1651.2952919780219,X,l,go,l,1,0.38011623951024376,,,,,,,,,,,,,,,,,,39,001,20,w,Psychologie,2023-01-18_10h27.07.238,00_bat_bachelor,2022.2.4,60.01940990441768,
,,,,,,,,,,,,0,0,0,0,135,0,135,0,,,,,,,135,,,1,1652.7805785306264,X,None,nogo,None,1,,1653.5813427484245,,,,,,,,,,,,,,,,,39,001,20,w,Psychologie,2023-01-18_10h27.07.238,00_bat_bachelor,2022.2.4,60.01940990441768,
,,,,,,,,,,,,0,0,0,0,136,0,136,0,,,,,,,136,,,1,1654.5821364450094,Y,d,go,d,1,0.2928217363660224,,,,,,,,,,,,,,,,,,39,001,20,w,Psychologie,2023-01-18_10h27.07.238,00_bat_bachelor,2022.2.4,60.01940990441768,
,,,,,,,,,,,,0,0,0,0,137,0,137,0,,,,,,,137,,,1,1655.9998390303808,X,l,go,l,1,0.33122705106507055,,,,,,,,,,,,,,,,,,39,001,20,w,Psychologie,2023-01-18_10h27.07.238,00_bat_bachelor,2022.2.4,60.01940990441768,
,,,,,,,,,,,,0,0,0,0,138,0,138,0,,,,,,,138,,,1,1657.4508249935461,X,None,nogo,None,1,,1658.2513496963074,,,,,,,,,,,,,,,,,39,001,20,w,Psychologie,2023-01-18_10h27.07.238,00_bat_bachelor,2022.2.4,60.01940990441768,
,,,,,,,,,,,,0,0,0,0,139,0,139,0,,,,,,,139,,,1,1659.2524279988138,Y,d,go,d,1,0.3109817275835667,,,,,,,,,,,,,,,,,,39,001,20,w,Psychologie,2023-01-18_10h27.07.238,00_bat_bachelor,2022.2.4,60.01940990441768,
,,,,,,,,,,,,0,0,0,0,140,0,140,0,,,,,,,140,,,1,1660.7032961438526,X,l,go,l,1,0.2834976196754724,,,,,,,,,,,,,,,,,,39,001,20,w,Psychologie,2023-01-18_10h27.07.238,00_bat_bachelor,2022.2.4,60.01940990441768,
,,,,,,,,,,,,0,0,0,0,141,0,141,0,,,,,,,141,,,1,1662.1045832220116,Y,d,go,d,1,0.3380192902404815,,,,,,,,,,,,,,,,,,39,001,20,w,Psychologie,2023-01-18_10h27.07.238,00_bat_bachelor,2022.2.4,60.01940990441768,
,,,,,,,,,,,,0,0,0,0,142,0,142,0,,,,,,,142,,,1,1663.5889737750404,X,l,go,l,1,0.23013619100674987,,,,,,,,,,,,,,,,,,39,001,20,w,Psychologie,2023-01-18_10h27.07.238,00_bat_bachelor,2022.2.4,60.01940990441768,
,,,,,,,,,,,,0,0,0,0,143,0,143,0,,,,,,,143,,,1,1664.9398337261227,X,None,nogo,None,1,,1665.7407191560196,,,,,,,,,,,,,,,,,39,001,20,w,Psychologie,2023-01-18_10h27.07.238,00_bat_bachelor,2022.2.4,60.01940990441768,
,,,,,,,,,,,,0,0,0,0,144,0,144,0,,,,,,,144,,,1,1666.7411530951795,Y,d,go,d,1,0.2138263807282783,,,,,,,,,,,,,,,,,,39,001,20,w,Psychologie,2023-01-18_10h27.07.238,00_bat_bachelor,2022.2.4,60.01940990441768,
,,,,,,,,,,,,0,0,0,0,145,0,145,0,,,,,,,145,,,1,1668.0757168117561,X,l,go,l,1,0.43217391122016124,,,,,,,,,,,,,,,,,,39,001,20,w,Psychologie,2023-01-18_10h27.07.238,00_bat_bachelor,2022.2.4,60.01940990441768,
,,,,,,,,,,,,0,0,0,0,146,0,146,0,,,,,,,146,,,1,1669.609984673938,X,None,nogo,None,1,,1670.4109389522637,,,,,,,,,,,,,,,,,39,001,20,w,Psychologie,2023-01-18_10h27.07.238,00_bat_bachelor,2022.2.4,60.01940990441768,
,,,,,,,,,,,,0,0,0,0,147,0,147,0,,,,,,,147,,,1,1671.4116012549785,Y,d,go,d,1,0.26317714469041675,,,,,,,,,,,,,,,,,,39,001,20,w,Psychologie,2023-01-18_10h27.07.238,00_bat_bachelor,2022.2.4,60.01940990441768,
,,,,,,,,,,,,0,0,0,0,148,0,148,0,,,,,,,148,,,1,1672.7960752503714,X,l,go,l,1,0.28699822403723374,,,,,,,,,,,,,,,,,,39,001,20,w,Psychologie,2023-01-18_10h27.07.238,00_bat_bachelor,2022.2.4,60.01940990441768,
,,,,,,,,,,,,0,0,0,0,149,0,149,0,,,,,,,149,,,1,1674.2134743207425,Y,d,go,d,1,0.27701374402386136,,,,,,,,,,,,,,,,,,39,001,20,w,Psychologie,2023-01-18_10h27.07.238,00_bat_bachelor,2022.2.4,60.01940990441768,
,,,,,,,,,,,,0,0,0,0,150,0,150,0,,,,,,,150,,,1,1675.6147870958666,Y,None,nogo,None,1,,1676.415406344051,,,,,,,,,,,,,,,,,39,001,20,w,Psychologie,2023-01-18_10h27.07.238,00_bat_bachelor,2022.2.4,60.01940990441768,
,,,,,,,,,,,,0,0,0,0,151,0,151,0,,,,,,,151,,,1,1677.4159343437932,X,l,go,l,1,0.24349909360171296,,,,,,,,,,,,,,,,,,39,001,20,w,Psychologie,2023-01-18_10h27.07.238,00_bat_bachelor,2022.2.4,60.01940990441768,
,,,,,,,,,,,,0,0,0,0,152,0,152,0,,,,,,,152,,,1,1678.7669470220862,Y,d,go,d,1,0.2671902336587664,,,,,,,,,,,,,,,,,,39,001,20,w,Psychologie,2023-01-18_10h27.07.238,00_bat_bachelor,2022.2.4,60.01940990441768,
,,,,,,,,,,,,0,0,0,0,153,0,153,0,,,,,,,153,,,1,1680.1513967750652,X,l,go,l,1,0.30679021443938836,,,,,,,,,,,,,,,,,,39,001,20,w,Psychologie,2023-01-18_10h27.07.238,00_bat_bachelor,2022.2.4,60.01940990441768,
,,,,,,,,,,,,0,0,0,0,154,0,154,0,,,,,,,154,,,1,1681.5857752311276,Y,d,go,d,1,0.33007165769231506,,,,,,,,,,,,,,,,,,39,001,20,w,Psychologie,2023-01-18_10h27.07.238,00_bat_bachelor,2022.2.4,60.01940990441768,
,,,,,,,,,,,,0,0,0,0,155,0,155,0,,,,,,,155,,,1,1683.0371631335001,X,l,go,l,1,0.2855693762539886,,,,,,,,,,,,,,,,,,39,001,20,w,Psychologie,2023-01-18_10h27.07.238,00_bat_bachelor,2022.2.4,60.01940990441768,
,,,,,,,,,,,,0,0,0,0,156,0,156,0,,,,,,,156,,,1,1684.4547207492287,X,None,nogo,None,1,,1685.255677451787,,,,,,,,,,,,,,,,,39,001,20,w,Psychologie,2023-01-18_10h27.07.238,00_bat_bachelor,2022.2.4,60.01940990441768,
,,,,,,,,,,,,0,0,0,0,157,0,157,0,,,,,,,157,,,1,1686.256077936443,Y,d,go,d,1,0.3311674147553276,,,,,,,,,,,,,,,,,,39,001,20,w,Psychologie,2023-01-18_10h27.07.238,00_bat_bachelor,2022.2.4,60.01940990441768,
,,,,,,,,,,,,0,0,0,0,158,0,158,0,,,,,,,158,,,1,1687.6907022105588,X,l,go,l,1,0.35225588936009444,,,,,,,,,,,,,,,,,,39,001,20,w,Psychologie,2023-01-18_10h27.07.238,00_bat_bachelor,2022.2.4,60.01940990441768,
,,,,,,,,,,,,0,0,0,0,159,0,159,0,,,,,,,159,,,1,1689.158256892959,Y,d,go,d,1,0.32434850896243006,,,,,,,,,,,,,,,,,,39,001,20,w,Psychologie,2023-01-18_10h27.07.238,00_bat_bachelor,2022.2.4,60.01940990441768,
,,,,,,,,,,,,0,0,0,0,160,0,160,0,,,,,,,160,,,1,1690.6092700076115,X,l,go,l,1,0.29820452161948197,,,,,,,,,,,,,,,,,,39,001,20,w,Psychologie,2023-01-18_10h27.07.238,00_bat_bachelor,2022.2.4,60.01940990441768,
,,,,,,,,,,,,0,0,0,0,161,0,161,0,,,,,,,161,,,1,1692.0103505404259,X,None,nogo,None,1,,1692.810916455317,,,,,,,,,,,,,,,,,39,001,20,w,Psychologie,2023-01-18_10h27.07.238,00_bat_bachelor,2022.2.4,60.01940990441768,
,,,,,,,,,,,,0,0,0,0,162,0,162,0,,,,,,,162,,,1,1693.8115530610667,X,None,nogo,None,1,,1694.6127449150372,,,,,,,,,,,,,,,,,39,001,20,w,Psychologie,2023-01-18_10h27.07.238,00_bat_bachelor,2022.2.4,60.01940990441768,
,,,,,,,,,,,,0,0,0,0,163,0,163,0,,,,,,,163,,,1,1695.613130854239,Y,d,go,d,1,0.27001641411334276,,,,,,,,,,,,,,,,,,39,001,20,w,Psychologie,2023-01-18_10h27.07.238,00_bat_bachelor,2022.2.4,60.01940990441768,
,,,,,,,,,,,,0,0,0,0,164,0,164,0,,,,,,,164,,,1,1697.0311020455265,X,l,go,l,1,0.26006490376312286,,,,,,,,,,,,,,,,,,39,001,20,w,Psychologie,2023-01-18_10h27.07.238,00_bat_bachelor,2022.2.4,60.01940990441768,
,,,,,,,,,,,,0,0,0,0,165,0,165,0,,,,,,,165,,,1,1698.4152899804467,X,None,nogo,None,1,,1699.2158912892628,,,,,,,,,,,,,,,,,39,001,20,w,Psychologie,2023-01-18_10h27.07.238,00_bat_bachelor,2022.2.4,60.01940990441768,
,,,,,,,,,,,,0,0,0,0,166,0,166,0,,,,,,,166,,,1,1700.2166651070584,X,None,nogo,None,1,,1701.0175311430066,,,,,,,,,,,,,,,,,39,001,20,w,Psychologie,2023-01-18_10h27.07.238,00_bat_bachelor,2022.2.4,60.01940990441768,
,,,,,,,,,,,,0,0,0,0,167,0,167,0,,,,,,,167,,,1,1702.0180101730803,Y,d,go,d,1,0.31280766607960686,,,,,,,,,,,,,,,,,,39,001,20,w,Psychologie,2023-01-18_10h27.07.238,00_bat_bachelor,2022.2.4,60.01940990441768,
,,,,,,,,,,,,0,0,0,0,168,0,168,0,,,,,,,168,,,1,1703.469345711841,X,l,go,l,1,0.25382102801813744,,,,,,,,,,,,,,,,,,39,001,20,w,Psychologie,2023-01-18_10h27.07.238,00_bat_bachelor,2022.2.4,60.01940990441768,
,,,,,,,,,,,,0,0,0,0,169,0,169,0,,,,,,,169,,,1,1704.8538371617615,Y,d,go,d,1,0.30898124366649427,,,,,,,,,,,,,,,,,,39,001,20,w,Psychologie,2023-01-18_10h27.07.238,00_bat_bachelor,2022.2.4,60.01940990441768,
,,,,,,,,,,,,0,0,0,0,170,0,170,0,,,,,,,170,,,1,1706.288180223899,X,l,go,l,1,0.3149793013872113,,,,,,,,,,,,,,,,,,39,001,20,w,Psychologie,2023-01-18_10h27.07.238,00_bat_bachelor,2022.2.4,60.01940990441768,
,,,,,,,,,,,,0,0,0,0,171,0,171,0,,,,,,,171,,,1,1707.722357467952,Y,d,go,d,1,0.2729560490406584,,,,,,,,,,,,,,,,,,39,001,20,w,Psychologie,2023-01-18_10h27.07.238,00_bat_bachelor,2022.2.4,60.01940990441768,
,,,,,,,,,,,,0,0,0,0,172,0,172,0,,,,,,,172,,,1,1709.1233967886656,X,l,go,l,1,0.31103554571745917,,,,,,,,,,,,,,,,,,39,001,20,w,Psychologie,2023-01-18_10h27.07.238,00_bat_bachelor,2022.2.4,60.01940990441768,
,,,,,,,,,,,,0,0,0,0,173,0,173,0,,,,,,,173,,,1,1710.5577980325907,Y,d,go,d,1,0.34970267850439996,,,,,,,,,,,,,,,,,,39,001,20,w,Psychologie,2023-01-18_10h27.07.238,00_bat_bachelor,2022.2.4,60.01940990441768,
,,,,,,,,,,,,0,0,0,0,174,0,174,0,,,,,,,174,,,1,1712.0255878663738,X,l,go,l,1,0.3058786997280549,,,,,,,,,,,,,,,,,,39,001,20,w,Psychologie,2023-01-18_10h27.07.238,00_bat_bachelor,2022.2.4,60.01940990441768,
,,,,,,,,,,,,0,0,0,0,175,0,175,0,,,,,,,175,,,1,1713.4601030496415,X,None,nogo,None,1,,,,,,,,,,,,,,,,,,,39,001,20,w,Psychologie,2023-01-18_10h27.07.238,00_bat_bachelor,2022.2.4,60.01940990441768,
,,,,,,,,,,,,0,0,0,0,176,0,176,0,,,,,,,176,,,1,1715.2616793882626,Y,d,go,d,1,0.33331529251881875,,,,,,,,,,,,,,,,,,39,001,20,w,Psychologie,2023-01-18_10h27.07.238,00_bat_bachelor,2022.2.4,60.01940990441768,
,,,,,,,,,,,,0,0,0,0,177,0,177,0,,,,,,,177,,,1,1716.7128311695415,X,l,go,l,1,0.3061254874919541,,,,,,,,,,,,,,,,,,39,001,20,w,Psychologie,2023-01-18_10h27.07.238,00_bat_bachelor,2022.2.4,60.01940990441768,
,,,,,,,,,,,,0,0,0,0,178,0,178,0,,,,,,,178,,,1,1718.146968171175,Y,d,go,d,1,0.2321313415595796,,,,,,,,,,,,,,,,,,39,001,20,w,Psychologie,2023-01-18_10h27.07.238,00_bat_bachelor,2022.2.4,60.01940990441768,
,,,,,,,,,,,,0,0,0,0,179,0,179,0,,,,,,,179,,,1,1719.4980002433877,X,l,go,l,1,0.30451918524340726,,,,,,,,,,,,,,,,,,39,001,20,w,Psychologie,2023-01-18_10h27.07.238,00_bat_bachelor,2022.2.4,60.01940990441768,
,,,,,,,,,,,,0,0,0,0,180,0,180,0,,,,,,,180,,,1,1720.9327113053587,X,None,nogo,None,1,,1721.733237947512,,,,,,,,,,,,,,,,,39,001,20,w,Psychologie,2023-01-18_10h27.07.238,00_bat_bachelor,2022.2.4,60.01940990441768,
,,,,,,,,,,,,0,0,0,0,181,0,181,0,,,,,,,181,,,1,1722.7340195229044,Y,d,go,d,1,0.22110928629990667,,,,,,,,,,,,,,,,,,39,001,20,w,Psychologie,2023-01-18_10h27.07.238,00_bat_bachelor,2022.2.4,60.01940990441768,
,,,,,,,,,,,,0,0,0,0,182,0,182,0,,,,,,,182,,,1,1724.085060807236,X,l,go,l,1,0.3260934778372757,,,,,,,,,,,,,,,,,,39,001,20,w,Psychologie,2023-01-18_10h27.07.238,00_bat_bachelor,2022.2.4,60.01940990441768,
,,,,,,,,,,,,0,0,0,0,183,0,183,0,,,,,,,183,,,1,1725.5359551340807,X,None,nogo,d,0,0.26702053676126525,,,,,,,,,,,,,,,,,,39,001,20,w,Psychologie,2023-01-18_10h27.07.238,00_bat_bachelor,2022.2.4,60.01940990441768,
,,,,,,,,,,,,0,0,0,0,184,0,184,0,,,,,,,184,,,1,1726.937243666791,Y,d,go,d,1,0.1940494206501171,,,,,,,,,,,,,,,,,,39,001,20,w,Psychologie,2023-01-18_10h27.07.238,00_bat_bachelor,2022.2.4,60.01940990441768,
,,,,,,,,,,,,0,0,0,0,185,0,185,0,,,,,,,185,,,1,1728.2549521188193,X,l,go,l,1,0.3800090880249627,,,,,,,,,,,,,,,,,,39,001,20,w,Psychologie,2023-01-18_10h27.07.238,00_bat_bachelor,2022.2.4,60.01940990441768,
,,,,,,,,,,,,0,0,0,0,186,0,186,0,,,,,,,186,,,1,1729.7560544213047,Y,d,go,d,1,0.336131291143829,,,,,,,,,,,,,,,,,,39,001,20,w,Psychologie,2023-01-18_10h27.07.238,00_bat_bachelor,2022.2.4,60.01940990441768,
,,,,,,,,,,,,0,0,0,0,187,0,187,0,,,,,,,187,,,1,1731.2072241419519,Y,None,nogo,l,0,0.2761618656804785,,,,,,,,,,,,,,,,,,39,001,20,w,Psychologie,2023-01-18_10h27.07.238,00_bat_bachelor,2022.2.4,60.01940990441768,
,,,,,,,,,,,,0,0,0,0,188,0,188,0,,,,,,,188,,,1,1732.6079550991708,X,l,go,l,1,0.4106131944281515,,,,,,,,,,,,,,,,,,39,001,20,w,Psychologie,2023-01-18_10h27.07.238,00_bat_bachelor,2022.2.4,60.01940990441768,
,,,,,,,,,,,,0,0,0,0,189,0,189,0,,,,,,,189,,,1,1734.1427262338111,Y,d,go,d,1,0.3487446183571592,,,,,,,,,,,,,,,,,,39,001,20,w,Psychologie,2023-01-18_10h27.07.238,00_bat_bachelor,2022.2.4,60.01940990441768,
,,,,,,,,,,,,0,0,0,0,190,0,190,0,,,,,,,190,,,1,1735.5937078333518,Y,None,nogo,l,0,0.4168367065722123,,,,,,,,,,,,,,,,,,39,001,20,w,Psychologie,2023-01-18_10h27.07.238,00_bat_bachelor,2022.2.4,60.01940990441768,
,,,,,,,,,,,,0,0,0,0,191,0,191,0,,,,,,,191,,,1,1737.1282612711366,X,l,go,l,1,0.4025836225482635,,,,,,,,,,,,,,,,,,39,001,20,w,Psychologie,2023-01-18_10h27.07.238,00_bat_bachelor,2022.2.4,60.01940990441768,
,,,,,,,,,,,,0,0,0,0,192,0,192,0,,,,,,,192,,,1,1738.6625877999468,Y,d,go,d,1,0.48354309843853116,,,,,,,,,,,,,,,,,,39,001,20,w,Psychologie,2023-01-18_10h27.07.238,00_bat_bachelor,2022.2.4,60.01940990441768,
,,,,,,,,,,,,0,0,0,0,193,0,193,0,,,,,,,193,,,1,1740.2640430234896,Y,None,nogo,None,1,,1741.0642884536646,,,,,,,,,,,,,,,,,39,001,20,w,Psychologie,2023-01-18_10h27.07.238,00_bat_bachelor,2022.2.4,60.01940990441768,
,,,,,,,,,,,,0,0,0,0,194,0,194,0,,,,,,,194,,,1,1742.0650933017605,X,l,go,l,1,0.29839458214701153,,,,,,,,,,,,,,,,,,39,001,20,w,Psychologie,2023-01-18_10h27.07.238,00_bat_bachelor,2022.2.4,60.01940990441768,
,,,,,,,,,,,,0,0,0,0,195,0,195,0,,,,,,,195,,,1,1743.4663231678423,Y,d,go,d,1,0.43285512301372364,,,,,,,,,,,,,,,,,,39,001,20,w,Psychologie,2023-01-18_10h27.07.238,00_bat_bachelor,2022.2.4,60.01940990441768,
,,,,,,,,,,,,0,0,0,0,196,0,196,0,,,,,,,196,,,1,1745.0006661814987,Y,None,nogo,None,1,,1745.8013702781172,,,,,,,,,,,,,,,,,39,001,20,w,Psychologie,2023-01-18_10h27.07.238,00_bat_bachelor,2022.2.4,60.01940990441768,
,,,,,,,,,,,,0,0,0,0,197,0,197,0,,,,,,,197,,,1,1746.8019181566488,X,l,go,l,1,0.2656712040770799,,,,,,,,,,,,,,,,,,39,001,20,w,Psychologie,2023-01-18_10h27.07.238,00_bat_bachelor,2022.2.4,60.01940990441768,
,,,,,,,,,,,,0,0,0,0,198,0,198,0,,,,,,,198,,,1,1748.1863388187485,Y,d,go,d,1,0.38537926724529825,,,,,,,,,,,,,,,,,,39,001,20,w,Psychologie,2023-01-18_10h27.07.238,00_bat_bachelor,2022.2.4,60.01940990441768,
,,,,,,,,,,,,0,0,0,0,199,0,199,0,,,,,,,199,,,1,1749.687590939342,Y,None,nogo,None,1,,1750.4881301875575,,,,,,,,,,,,,,,,,39,001,20,w,Psychologie,2023-01-18_10h27.07.238,00_bat_bachelor,2022.2.4,60.01940990441768,
,,,,,,,,,,,,0,0,0,0,200,0,200,0,,,,,,,200,,,1,1751.488718793349,Y,None,nogo,None,1,,1752.2891537991818,,,,,,,,,,,,,,,,,39,001,20,w,Psychologie,2023-01-18_10h27.07.238,00_bat_bachelor,2022.2.4,60.01940990441768,
,,,,,,,,,,,,0,0,0,0,201,0,201,0,,,,,,,201,,,1,1753.2900808290578,X,l,go,l,1,0.3213773588940967,,,,,,,,,,,,,,,,,,39,001,20,w,Psychologie,2023-01-18_10h27.07.238,00_bat_bachelor,2022.2.4,60.01940990441768,
,,,,,,,,,,,,0,0,0,0,202,0,202,0,,,,,,,202,,,1,1754.7243293457723,Y,d,go,d,1,0.23211534155416302,,,,,,,,,,,,,,,,,,39,001,20,w,Psychologie,2023-01-18_10h27.07.238,00_bat_bachelor,2022.2.4,60.01940990441768,
,,,,,,,,,,,,0,0,0,0,203,0,203,0,,,,,,,203,,,1,1756.0588857896219,Y,None,nogo,None,1,,,,,,,,,,,,,,,,,,,39,001,20,w,Psychologie,2023-01-18_10h27.07.238,00_bat_bachelor,2022.2.4,60.01940990441768,
,,,,,,,,,,,,0,0,0,0,204,0,204,0,,,,,,,204,,,1,1757.8600519466272,X,l,go,l,1,0.24847072758711874,,,,,,,,,,,,,,,,,,39,001,20,w,Psychologie,2023-01-18_10h27.07.238,00_bat_bachelor,2022.2.4,60.01940990441768,
,,,,,,,,,,,,0,0,0,0,205,0,205,0,,,,,,,205,,,1,1759.211341473274,Y,d,go,d,1,0.2725691401574295,,,,,,,,,,,,,,,,,,39,001,20,w,Psychologie,2023-01-18_10h27.07.238,00_bat_bachelor,2022.2.4,60.01940990441768,
,,,,,,,,,,,,0,0,0,0,206,0,206,0,,,,,,,206,,,1,1760.595501771866,X,l,go,l,1,0.24822442466393113,,,,,,,,,,,,,,,,,,39,001,20,w,Psychologie,2023-01-18_10h27.07.238,00_bat_bachelor,2022.2.4,60.01940990441768,
,,,,,,,,,,,,0,0,0,0,207,0,207,0,,,,,,,207,,,1,1761.946711298573,X,None,nogo,None,1,,1762.747279152827,,,,,,,,,,,,,,,,,39,001,20,w,Psychologie,2023-01-18_10h27.07.238,00_bat_bachelor,2022.2.4,60.01940990441768,
,,,,,,,,,,,,0,0,0,0,208,0,208,0,,,,,,,208,,,1,1763.7480791524285,X,None,nogo,None,1,,1764.5486106431053,,,,,,,,,,,,,,,,,39,001,20,w,Psychologie,2023-01-18_10h27.07.238,00_bat_bachelor,2022.2.4,60.01940990441768,
,,,,,,,,,,,,0,0,0,0,209,0,209,0,,,,,,,209,,,1,1765.5493776730145,Y,d,go,d,1,0.3338238983124029,,,,,,,,,,,,,,,,,,39,001,20,w,Psychologie,2023-01-18_10h27.07.238,00_bat_bachelor,2022.2.4,60.01940990441768,
,,,,,,,,,,,,0,0,0,0,210,0,210,0,,,,,,,210,,,1,1766.9836402503424,X,l,go,l,1,0.30792572905193083,,,,,,,,,,,,,,,,,,39,001,20,w,Psychologie,2023-01-18_10h27.07.238,00_bat_bachelor,2022.2.4,60.01940990441768,
,,,,,,,,,,,,0,0,0,0,211,0,211,0,,,,,,,211,,,1,1768.401463078073,Y,d,go,d,1,0.3633070355281234,,,,,,,,,,,,,,,,,,39,001,20,w,Psychologie,2023-01-18_10h27.07.238,00_bat_bachelor,2022.2.4,60.01940990441768,
,,,,,,,,,,,,0,0,0,0,212,0,212,0,,,,,,,212,,,1,1769.8693222451839,X,l,go,l,1,0.2864280425128527,,,,,,,,,,,,,,,,,,39,001,20,w,Psychologie,2023-01-18_10h27.07.238,00_bat_bachelor,2022.2.4,60.01940990441768,
,,,,,,,,,,,,0,0,0,0,213,0,213,0,,,,,,,213,,,1,1771.270358656795,Y,d,go,d,1,0.3106292429147288,,,,,,,,,,,,,,,,,,39,001,20,w,Psychologie,2023-01-18_10h27.07.238,00_bat_bachelor,2022.2.4,60.01940990441768,
,,,,,,,,,,,,0,0,0,0,214,0,214,0,,,,,,,214,,,1,1772.6879536058404,X,l,go,l,1,0.34845564878196456,,,,,,,,,,,,,,,,,,39,001,20,w,Psychologie,2023-01-18_10h27.07.238,00_bat_bachelor,2022.2.4,60.01940990441768,
,,,,,,,,,,,,0,0,0,0,215,0,215,0,,,,,,,215,,,1,1774.1392144779384,Y,d,go,d,1,0.28790634480537847,,,,,,,,,,,,,,,,,,39,001,20,w,Psychologie,2023-01-18_10h27.07.238,00_bat_bachelor,2022.2.4,60.01940990441768,
,,,,,,,,,,,,0,0,0,0,216,0,216,0,,,,,,,216,,,1,1775.5399464048678,Y,None,nogo,l,0,0.26350975056993775,,,,,,,,,,,,,,,,,,39,001,20,w,Psychologie,2023-01-18_10h27.07.238,00_bat_bachelor,2022.2.4,60.01940990441768,
,,,,,,,,,,,,0,0,0,0,217,0,217,0,,,,,,,217,,,1,1776.907651438698,X,l,go,l,1,0.25608332993579097,,,,,,,,,,,,,,,,,,39,001,20,w,Psychologie,2023-01-18_10h27.07.238,00_bat_bachelor,2022.2.4,60.01940990441768,
,,,,,,,,,,,,0,0,0,0,218,0,218,0,,,,,,,218,,,1,1778.275614411832,Y,d,go,d,1,0.2809429542394355,,,,,,,,,,,,,,,,,,39,001,20,w,Psychologie,2023-01-18_10h27.07.238,00_bat_bachelor,2022.2.4,60.01940990441768,
,,,,,,,,,,,,0,0,0,0,219,0,219,0,,,,,,,219,,,1,1779.6600244072615,Y,None,nogo,None,1,,1780.4605651100283,,,,,,,,,,,,,,,,,39,001,20,w,Psychologie,2023-01-18_10h27.07.238,00_bat_bachelor,2022.2.4,60.01940990441768,
,,,,,,,,,,,,0,0,0,0,220,0,220,0,,,,,,,220,,,1,1781.4613990490034,X,l,go,l,1,0.3424910456233192,,,,,,,,,,,,,,,,,,39,001,20,w,Psychologie,2023-01-18_10h27.07.238,00_bat_bachelor,2022.2.4,60.01940990441768,
,,,,,,,,,,,,0,0,0,0,221,0,221,0,,,,,,,221,,,1,1782.912236163771,Y,d,go,d,1,0.33236935356399044,,,,,,,,,,,,,,,,,,39,001,20,w,Psychologie,2023-01-18_10h27.07.238,00_bat_bachelor,2022.2.4,60.01940990441768,
,,,,,,,,,,,,0,0,0,0,222,0,222,0,,,,,,,222,,,1,1784.3467222561303,X,l,go,l,1,0.3368653513607569,,,,,,,,,,,,,,,,,,39,001,20,w,Psychologie,2023-01-18_10h27.07.238,00_bat_bachelor,2022.2.4,60.01940990441768,
,,,,,,,,,,,,0,0,0,0,223,0,223,0,,,,,,,223,,,1,1785.797744582902,X,None,nogo,None,1,,,,,,,,,,,,,,,,,,,39,001,20,w,Psychologie,2023-01-18_10h27.07.238,00_bat_bachelor,2022.2.4,60.01940990441768,
,,,,,,,,,,,,0,0,0,0,224,0,224,0,,,,,,,224,,,1,1787.5994048002758,Y,d,go,d,1,0.38050799688789994,,,,,,,,,,,,,,,,,,39,001,20,w,Psychologie,2023-01-18_10h27.07.238,00_bat_bachelor,2022.2.4,60.01940990441768,
,,,,,,,,,,,,0,0,0,0,225,0,225,0,,,,,,,225,,,1,1789.083792929072,X,l,go,l,1,0.3201448746549431,,,,,,,,,,,,,,,,,,39,001,20,w,Psychologie,2023-01-18_10h27.07.238,00_bat_bachelor,2022.2.4,60.01940990441768,
,,,,,,,,,,,,0,0,0,0,226,0,226,0,,,,,,,226,,,1,1790.51824799116,Y,d,go,d,1,0.27771725883940235,,,,,,,,,,,,,,,,,,39,001,20,w,Psychologie,2023-01-18_10h27.07.238,00_bat_bachelor,2022.2.4,60.01940990441768,
,,,,,,,,,,,,0,0,0,0,227,0,227,0,,,,,,,227,,,1,1791.9024892594025,X,l,go,l,1,0.33356692871893756,,,,,,,,,,,,,,,,,,39,001,20,w,Psychologie,2023-01-18_10h27.07.238,00_bat_bachelor,2022.2.4,60.01940990441768,
,,,,,,,,,,,,0,0,0,0,228,0,228,0,,,,,,,228,,,1,1793.3371498971246,Y,d,go,d,1,0.41773464551079087,,,,,,,,,,,,,,,,,,39,001,20,w,Psychologie,2023-01-18_10h27.07.238,00_bat_bachelor,2022.2.4,60.01940990441768,
,,,,,,,,,,,,0,0,0,0,229,0,229,0,,,,,,,229,,,1,1794.8716829713085,X,l,go,l,1,0.3551989182597026,,,,,,,,,,,,,,,,,,39,001,20,w,Psychologie,2023-01-18_10h27.07.238,00_bat_bachelor,2022.2.4,60.01940990441768,
,,,,,,,,,,,,0,0,0,0,230,0,230,0,,,,,,,230,,,1,1796.3394432293426,X,None,nogo,None,1,,1797.140047447232,,,,,,,,,,,,,,,,,39,001,20,w,Psychologie,2023-01-18_10h27.07.238,00_bat_bachelor,2022.2.4,60.01940990441768,
,,,,,,,,,,,,0,0,0,0,231,0,231,0,,,,,,,231,,,1,1798.1408571438224,Y,d,go,d,1,0.27093617123318836,,,,,,,,,,,,,,,,,,39,001,20,w,Psychologie,2023-01-18_10h27.07.238,00_bat_bachelor,2022.2.4,60.01940990441768,
,,,,,,,,,,,,0,0,0,0,232,0,232,0,,,,,,,232,,,1,1799.525252108957,X,l,go,l,1,0.3746985451725777,,,,,,,,,,,,,,,,,,39,001,20,w,Psychologie,2023-01-18_10h27.07.238,00_bat_bachelor,2022.2.4,60.01940990441768,
,,,,,,,,,,,,0,0,0,0,233,0,233,0,,,,,,,233,,,1,1801.0096591468318,Y,d,go,d,1,0.3299242638167925,,,,,,,,,,,,,,,,,,39,001,20,w,Psychologie,2023-01-18_10h27.07.238,00_bat_bachelor,2022.2.4,60.01940990441768,
,,,,,,,,,,,,0,0,0,0,234,0,234,0,,,,,,,234,,,1,1802.4441830573487,Y,None,nogo,None,1,,,,,,,,,,,,,,,,,,,39,001,20,w,Psychologie,2023-01-18_10h27.07.238,00_bat_bachelor,2022.2.4,60.01940990441768,
,,,,,,,,,,,,0,0,0,0,235,0,235,0,,,,,,,235,,,1,1804.245356971951,X,l,go,l,1,0.27839944034349173,,,,,,,,,,,,,,,,,,39,001,20,w,Psychologie,2023-01-18_10h27.07.238,00_bat_bachelor,2022.2.4,60.01940990441768,
,,,,,,,,,,,,0,0,0,0,236,0,236,0,,,,,,,236,,,1,1805.6296501189645,Y,d,go,d,1,0.31732984571135603,,,,,,,,,,,,,,,,,,39,001,20,w,Psychologie,2023-01-18_10h27.07.238,00_bat_bachelor,2022.2.4,60.01940990441768,
,,,,,,,,,,,,0,0,0,0,237,0,237,0,,,,,,,237,,,1,1807.047639734461,X,l,go,l,1,0.27720380455139093,,,,,,,,,,,,,,,,,,39,001,20,w,Psychologie,2023-01-18_10h27.07.238,00_bat_bachelor,2022.2.4,60.01940990441768,
,,,,,,,,,,,,0,0,0,0,238,0,238,0,,,,,,,238,,,1,1808.432006093557,Y,d,go,d,1,0.2356081883481238,,,,,,,,,,,,,,,,,,39,001,20,w,Psychologie,2023-01-18_10h27.07.238,00_bat_bachelor,2022.2.4,60.01940990441768,
,,,,,,,,,,,,0,0,0,0,239,0,239,0,,,,,,,239,,,1,1809.783028468839,X,l,go,l,1,0.293618342053378,,,,,,,,,,,,,,,,,,39,001,20,w,Psychologie,2023-01-18_10h27.07.238,00_bat_bachelor,2022.2.4,60.01940990441768,
,,,,,,,,,,,,0,0,0,0,240,0,240,0,,,,,,,240,,,1,1811.183959183516,X,None,nogo,None,1,,,,,,,,,,,,,,,,,,,39,001,20,w,Psychologie,2023-01-18_10h27.07.238,00_bat_bachelor,2022.2.4,60.01940990441768,
,,,,,,,,,,,,0,0,0,0,241,0,241,0,,,,,,,241,,,1,1812.985513703985,Y,d,go,d,1,0.33839989607804455,,,,,,,,,,,,,,,,,,39,001,20,w,Psychologie,2023-01-18_10h27.07.238,00_bat_bachelor,2022.2.4,60.01940990441768,
,,,,,,,,,,,,0,0,0,0,242,0,242,0,,,,,,,242,,,1,1814.4365893640788,X,l,go,l,1,0.31051578841288574,,,,,,,,,,,,,,,,,,39,001,20,w,Psychologie,2023-01-18_10h27.07.238,00_bat_bachelor,2022.2.4,60.01940990441768,
,,,,,,,,,,,,0,0,0,0,243,0,243,0,,,,,,,243,,,1,1815.8542560706555,Y,d,go,d,1,0.301117489929311,,,,,,,,,,,,,,,,,,39,001,20,w,Psychologie,2023-01-18_10h27.07.238,00_bat_bachelor,2022.2.4,60.01940990441768,
,,,,,,,,,,,,0,0,0,0,244,0,244,0,,,,,,,244,,,1,1817.2721089589759,X,l,go,l,1,0.2924736153217964,,,,,,,,,,,,,,,,,,39,001,20,w,Psychologie,2023-01-18_10h27.07.238,00_bat_bachelor,2022.2.4,60.01940990441768,
,,,,,,,,,,,,0,0,0,0,245,0,245,0,,,,,,,245,,,1,1818.6728825828468,X,None,nogo,None,1,,,,,,,,,,,,,,,,,,,39,001,20,w,Psychologie,2023-01-18_10h27.07.238,00_bat_bachelor,2022.2.4,60.01940990441768,
,,,,,,,,,,,,0,0,0,0,246,0,246,0,,,,,,,246,,,1,1820.4745117699204,Y,d,go,d,1,0.2737604122667108,,,,,,,,,,,,,,,,,,39,001,20,w,Psychologie,2023-01-18_10h27.07.238,00_bat_bachelor,2022.2.4,60.01940990441768,
,,,,,,,,,,,,0,0,0,0,247,0,247,0,,,,,,,247,,,1,1821.858877159335,X,l,go,l,1,0.2975271886389237,,,,,,,,,,,,,,,,,,39,001,20,w,Psychologie,2023-01-18_10h27.07.238,00_bat_bachelor,2022.2.4,60.01940990441768,
,,,,,,,,,,,,0,0,0,0,248,0,248,0,,,,,,,248,,,1,1823.260006176948,X,None,nogo,None,1,,1824.0602244556358,,,,,,,,,,,,,,,,,39,001,20,w,Psychologie,2023-01-18_10h27.07.238,00_bat_bachelor,2022.2.4,60.01940990441768,
,,,,,,,,,,,,0,0,0,0,249,0,249,0,,,,,,,249,,,1,1825.0614278489957,X,None,nogo,None,1,,,,,,,,,,,,,,,,,,,39,001,20,w,Psychologie,2023-01-18_10h27.07.238,00_bat_bachelor,2022.2.4,60.01940990441768,
,,,,,,,,,,,,1,0,1,0,0,0,0,0,,,,,,,0,,,0.2,1846.2947111298272,X,l,go,l,1,0.3566699478251394,,,,,,,,,1825.8661285497656,space,20.196338874084176,,,,,,,39,001,20,w,Psychologie,2023-01-18_10h27.07.238,00_bat_bachelor,2022.2.4,60.01940990441768,
,,,,,,,,,,,,1,0,1,0,1,0,1,0,,,,,,,1,,,0.2,1846.978691404278,Y,d,go,d,1,0.34492789293290116,,,,,,,,,,,,,,,,,,39,001,20,w,Psychologie,2023-01-18_10h27.07.238,00_bat_bachelor,2022.2.4,60.01940990441768,
,,,,,,,,,,,,1,0,1,0,2,0,2,0,,,,,,,2,,,0.2,1847.6291643010045,X,l,go,l,1,0.3497880117793102,,,,,,,,,,,,,,,,,,39,001,20,w,Psychologie,2023-01-18_10h27.07.238,00_bat_bachelor,2022.2.4,60.01940990441768,
,,,,,,,,,,,,1,0,1,0,3,0,3,0,,,,,,,3,,,0.2,1848.279503864469,X,None,nogo,None,1,,1849.080242385331,,,,,,,,,,,,,,,,,39,001,20,w,Psychologie,2023-01-18_10h27.07.238,00_bat_bachelor,2022.2.4,60.01940990441768,
,,,,,,,,,,,,1,0,1,0,4,0,4,0,,,,,,,4,,,0.2,1849.2801050762937,Y,d,go,d,1,0.28269034734694287,,,,,,,,,,,,,,,,,,39,001,20,w,Psychologie,2023-01-18_10h27.07.238,00_bat_bachelor,2022.2.4,60.01940990441768,
,,,,,,,,,,,,1,0,1,0,5,0,5,0,,,,,,,5,,,0.2,1849.8806230881892,X,l,go,l,1,0.3700774564931635,,,,,,,,,,,,,,,,,,39,001,20,w,Psychologie,2023-01-18_10h27.07.238,00_bat_bachelor,2022.2.4,60.01940990441768,
,,,,,,,,,,,,1,0,1,0,6,0,6,0,,,,,,,6,,,0.2,1850.5811235970177,X,None,nogo,None,1,,1851.3819392087462,,,,,,,,,,,,,,,,,39,001,20,w,Psychologie,2023-01-18_10h27.07.238,00_bat_bachelor,2022.2.4,60.01940990441768,
,,,,,,,,,,,,1,0,1,0,7,0,7,0,,,,,,,7,,,0.2,1851.5819211723865,Y,d,go,d,1,0.2688619903929066,,,,,,,,,,,,,,,,,,39,001,20,w,Psychologie,2023-01-18_10h27.07.238,00_bat_bachelor,2022.2.4,60.01940990441768,
,,,,,,,,,,,,1,0,1,0,8,0,8,0,,,,,,,8,,,0.2,1852.1823688812729,X,l,go,l,1,0.3245317816035822,,,,,,,,,,,,,,,,,,39,001,20,w,Psychologie,2023-01-18_10h27.07.238,00_bat_bachelor,2022.2.4,60.01940990441768,
,,,,,,,,,,,,1,0,1,0,9,0,9,0,,,,,,,9,,,0.2,1852.8330192324647,X,None,nogo,None,1,,1853.6337524199917,,,,,,,,,,,,,,,,,39,001,20,w,Psychologie,2023-01-18_10h27.07.238,00_bat_bachelor,2022.2.4,60.01940990441768,
,,,,,,,,,,,,1,0,1,0,10,0,10,0,,,,,,,10,,,0.2,1853.8338842017401,Y,d,go,d,1,0.32231699480325915,,,,,,,,,,,,,,,,,,39,001,20,w,Psychologie,2023-01-18_10h27.07.238,00_bat_bachelor,2022.2.4,60.01940990441768,
,,,,,,,,,,,,1,0,1,0,11,0,11,0,,,,,,,11,,,0.2,1854.4675871672225,X,l,go,l,1,0.48815836894209497,,,,,,,,,,,,,,,,,,39,001,20,w,Psychologie,2023-01-18_10h27.07.238,00_bat_bachelor,2022.2.4,60.01940990441768,
,,,,,,,,,,,,1,0,1,0,12,0,12,0,,,,,,,12,,,0.2,1855.2680202336924,Y,d,go,d,1,0.37545733267324977,,,,,,,,,,,,,,,,,,39,001,20,w,Psychologie,2023-01-18_10h27.07.238,00_bat_bachelor,2022.2.4,60.01940990441768,
,,,,,,,,,,,,1,0,1,0,13,0,13,0,,,,,,,13,,,0.2,1855.9521828110446,Y,None,nogo,None,1,,1856.7526532108313,,,,,,,,,,,,,,,,,39,001,20,w,Psychologie,2023-01-18_10h27.07.238,00_bat_bachelor,2022.2.4,60.01940990441768,
,,,,,,,,,,,,1,0,1,0,14,0,14,0,,,,,,,14,,,0.2,1856.952788386523,X,l,go,l,1,0.2105376550462097,,,,,,,,,,,,,,,,,,39,001,20,w,Psychologie,2023-01-18_10h27.07.238,00_bat_bachelor,2022.2.4,60.01940990441768,
,,,,,,,,,,,,1,0,1,0,15,0,15,0,,,,,,,15,,,0.2,1857.4697098328616,Y,d,go,d,1,0.3328556563646998,,,,,,,,,,,,,,,,,,39,001,20,w,Psychologie,2023-01-18_10h27.07.238,00_bat_bachelor,2022.2.4,60.01940990441768,
,,,,,,,,,,,,1,0,1,0,16,0,16,0,,,,,,,16,,,0.2,1858.1202171538316,X,l,go,l,1,0.418411008809926,,,,,,,,,,,,,,,,,,39,001,20,w,Psychologie,2023-01-18_10h27.07.238,00_bat_bachelor,2022.2.4,60.01940990441768,
,,,,,,,,,,,,1,0,1,0,17,0,17,0,,,,,,,17,,,0.2,1858.854119828291,Y,d,go,d,1,0.3409021979023237,,,,,,,,,,,,,,,,,,39,001,20,w,Psychologie,2023-01-18_10h27.07.238,00_bat_bachelor,2022.2.4,60.01940990441768,
,,,,,,,,,,,,1,0,1,0,18,0,18,0,,,,,,,18,,,0.2,1859.5047202401329,X,l,go,l,1,0.42659864120651037,,,,,,,,,,,,,,,,,,39,001,20,w,Psychologie,2023-01-18_10h27.07.238,00_bat_bachelor,2022.2.4,60.01940990441768,
,,,,,,,,,,,,1,0,1,0,19,0,19,0,,,,,,,19,,,0.2,1860.2553443610377,X,None,nogo,None,1,,1861.0559364577348,,,,,,,,,,,,,,,,,39,001,20,w,Psychologie,2023-01-18_10h27.07.238,00_bat_bachelor,2022.2.4,60.01940990441768,
,,,,,,,,,,,,1,0,1,0,20,0,20,0,,,,,,,20,,,0.2,1861.2559208456078,Y,d,go,d,1,0.2439800630963873,,,,,,,,,,,,,,,,,,39,001,20,w,Psychologie,2023-01-18_10h27.07.238,00_bat_bachelor,2022.2.4,60.01940990441768,
,,,,,,,,,,,,1,0,1,0,21,0,21,0,,,,,,,21,,,0.2,1861.806352093874,X,l,go,l,1,0.2691480508656241,,,,,,,,,,,,,,,,,,39,001,20,w,Psychologie,2023-01-18_10h27.07.238,00_bat_bachelor,2022.2.4,60.01940990441768,
,,,,,,,,,,,,1,0,1,0,22,0,22,0,,,,,,,22,,,0.2,1862.389757386787,Y,d,go,d,1,0.29307628169772215,,,,,,,,,,,,,,,,,,39,001,20,w,Psychologie,2023-01-18_10h27.07.238,00_bat_bachelor,2022.2.4,60.01940990441768,
,,,,,,,,,,,,1,0,1,0,23,0,23,0,,,,,,,23,,,0.2,1863.0068848451483,X,l,go,l,1,0.38089587551075965,,,,,,,,,,,,,,,,,,39,001,20,w,Psychologie,2023-01-18_10h27.07.238,00_bat_bachelor,2022.2.4,60.01940990441768,
,,,,,,,,,,,,1,0,1,0,24,0,24,0,,,,,,,24,,,0.2,1863.7074663236563,X,None,nogo,None,1,,,,,,,,,,,,,,,,,,,39,001,20,w,Psychologie,2023-01-18_10h27.07.238,00_bat_bachelor,2022.2.4,60.01940990441768,
,,,,,,,,,,,,1,0,1,0,25,0,25,0,,,,,,,25,,,0.2,1864.7081392930122,Y,d,go,d,1,0.26451775009627454,,,,,,,,,,,,,,,,,,39,001,20,w,Psychologie,2023-01-18_10h27.07.238,00_bat_bachelor,2022.2.4,60.01940990441768,
,,,,,,,,,,,,1,0,1,0,26,0,26,0,,,,,,,26,,,0.2,1865.2753361089271,X,l,go,l,1,0.465248319436796,,,,,,,,,,,,,,,,,,39,001,20,w,Psychologie,2023-01-18_10h27.07.238,00_bat_bachelor,2022.2.4,60.01940990441768,
,,,,,,,,,,,,1,0,1,0,27,0,27,0,,,,,,,27,,,0.2,1866.0425696763268,Y,d,go,d,1,0.5295498640334699,,,,,,,,,,,,,,,,,,39,001,20,w,Psychologie,2023-01-18_10h27.07.238,00_bat_bachelor,2022.2.4,60.01940990441768,
,,,,,,,,,,,,1,0,1,0,28,0,28,0,,,,,,,28,,,0.2,1866.8764887871512,Y,None,nogo,None,1,,1867.6768399142602,,,,,,,,,,,,,,,,,39,001,20,w,Psychologie,2023-01-18_10h27.07.238,00_bat_bachelor,2022.2.4,60.01940990441768,
,,,,,,,,,,,,1,0,1,0,29,0,29,0,,,,,,,29,,,0.2,1867.8770948474703,X,l,go,l,1,0.29498076561139897,,,,,,,,,,,,,,,,,,39,001,20,w,Psychologie,2023-01-18_10h27.07.238,00_bat_bachelor,2022.2.4,60.01940990441768,
,,,,,,,,,,,,1,0,1,0,30,0,30,0,,,,,,,30,,,0.2,1868.4777035259467,Y,d,go,d,1,0.3987096850469243,,,,,,,,,,,,,,,,,,39,001,20,w,Psychologie,2023-01-18_10h27.07.238,00_bat_bachelor,2022.2.4,60.01940990441768,
,,,,,,,,,,,,1,0,1,0,31,0,31,0,,,,,,,31,,,0.2,1869.177935913729,Y,None,nogo,None,1,,,,,,,,,,,,,,,,,,,39,001,20,w,Psychologie,2023-01-18_10h27.07.238,00_bat_bachelor,2022.2.4,60.01940990441768,
,,,,,,,,,,,,1,0,1,0,32,0,32,0,,,,,,,32,,,0.2,1870.1790457313764,X,l,go,l,1,0.2966602799715474,,,,,,,,,,,,,,,,,,39,001,20,w,Psychologie,2023-01-18_10h27.07.238,00_bat_bachelor,2022.2.4,60.01940990441768,
,,,,,,,,,,,,1,0,1,0,33,0,33,0,,,,,,,33,,,0.2,1870.7794570766273,Y,d,go,d,1,0.3997322299692314,,,,,,,,,,,,,,,,,,39,001,20,w,Psychologie,2023-01-18_10h27.07.238,00_bat_bachelor,2022.2.4,60.01940990441768,
,,,,,,,,,,,,1,0,1,0,34,0,34,0,,,,,,,34,,,0.2,1871.479731161351,X,l,go,l,1,0.324292266566772,,,,,,,,,,,,,,,,,,39,001,20,w,Psychologie,2023-01-18_10h27.07.238,00_bat_bachelor,2022.2.4,60.01940990441768,
,,,,,,,,,,,,1,0,1,0,35,0,35,0,,,,,,,35,,,0.2,1872.1138918235665,Y,d,go,d,1,0.3945336870383471,,,,,,,,,,,,,,,,,,39,001,20,w,Psychologie,2023-01-18_10h27.07.238,00_bat_bachelor,2022.2.4,60.01940990441768,
,,,,,,,,,,,,1,0,1,0,36,0,36,0,,,,,,,36,,,0.2,1872.8142822718655,X,l,go,l,1,0.3821070264093578,,,,,,,,,,,,,,,,,,39,001,20,w,Psychologie,2023-01-18_10h27.07.238,00_bat_bachelor,2022.2.4,60.01940990441768,
,,,,,,,,,,,,1,0,1,0,37,0,37,0,,,,,,,37,,,0.2,1873.4981621827174,Y,d,go,d,1,0.2897172530356329,,,,,,,,,,,,,,,,,,39,001,20,w,Psychologie,2023-01-18_10h27.07.238,00_bat_bachelor,2022.2.4,60.01940990441768,
,,,,,,,,,,,,1,0,1,0,38,0,38,0,,,,,,,38,,,0.2,1874.0983466189646,Y,None,nogo,None,1,,,,,,,,,,,,,,,,,,,39,001,20,w,Psychologie,2023-01-18_10h27.07.238,00_bat_bachelor,2022.2.4,60.01940990441768,
,,,,,,,,,,,,1,0,1,0,39,0,39,0,,,,,,,39,,,0.2,1875.0995078305423,X,l,go,l,1,0.24085473126615398,,,,,,,,,,,,,,,,,,39,001,20,w,Psychologie,2023-01-18_10h27.07.238,00_bat_bachelor,2022.2.4,60.01940990441768,
,,,,,,,,,,,,1,0,1,0,40,0,40,0,,,,,,,40,,,0.2,1875.649610351713,Y,d,go,d,1,0.28187968107522465,,,,,,,,,,,,,,,,,,39,001,20,w,Psychologie,2023-01-18_10h27.07.238,00_bat_bachelor,2022.2.4,60.01940990441768,
,,,,,,,,,,,,1,0,1,0,41,0,41,0,,,,,,,41,,,0.2,1876.233588250383,X,l,go,l,1,0.35387819161405787,,,,,,,,,,,,,,,,,,39,001,20,w,Psychologie,2023-01-18_10h27.07.238,00_bat_bachelor,2022.2.4,60.01940990441768,
,,,,,,,,,,,,1,0,1,0,42,0,42,0,,,,,,,42,,,0.2,1876.9008558056375,Y,d,go,d,1,0.2639679321728181,,,,,,,,,,,,,,,,,,39,001,20,w,Psychologie,2023-01-18_10h27.07.238,00_bat_bachelor,2022.2.4,60.01940990441768,
,,,,,,,,,,,,1,0,1,0,43,0,43,0,,,,,,,43,,,0.2,1877.4679057125177,X,l,go,l,1,0.4002519873320125,,,,,,,,,,,,,,,,,,39,001,20,w,Psychologie,2023-01-18_10h27.07.238,00_bat_bachelor,2022.2.4,60.01940990441768,
,,,,,,,,,,,,1,0,1,0,44,0,44,0,,,,,,,44,,,0.2,1878.168375191075,X,None,nogo,None,1,,,,,,,,,,,,,,,,,,,39,001,20,w,Psychologie,2023-01-18_10h27.07.238,00_bat_bachelor,2022.2.4,60.01940990441768,
,,,,,,,,,,,,1,0,1,0,45,0,45,0,,,,,,,45,,,0.2,1879.1691456149565,Y,d,go,d,1,0.31566972529981285,,,,,,,,,,,,,,,,,,39,001,20,w,Psychologie,2023-01-18_10h27.07.238,00_bat_bachelor,2022.2.4,60.01940990441768,
,,,,,,,,,,,,1,0,1,0,46,0,46,0,,,,,,,46,,,0.2,1879.7860219219292,X,l,go,l,1,0.24244212443591096,,,,,,,,,,,,,,,,,,39,001,20,w,Psychologie,2023-01-18_10h27.07.238,00_bat_bachelor,2022.2.4,60.01940990441768,
,,,,,,,,,,,,1,0,1,0,47,0,47,0,,,,,,,47,,,0.2,1880.336635957996,Y,d,go,d,1,0.3156929980032146,,,,,,,,,,,,,,,,,,39,001,20,w,Psychologie,2023-01-18_10h27.07.238,00_bat_bachelor,2022.2.4,60.01940990441768,
,,,,,,,,,,,,1,0,1,0,48,0,48,0,,,,,,,48,,,0.2,1880.9537076588022,Y,None,nogo,l,0,0.25862005597446114,,,,,,,,,,,,,,,,,,39,001,20,w,Psychologie,2023-01-18_10h27.07.238,00_bat_bachelor,2022.2.4,60.01940990441768,
,,,,,,,,,,,,1,0,1,0,49,0,49,0,,,,,,,49,,,0.2,1881.520969444362,X,l,go,None,0,,,,,,,,,,,,,,,,,,,39,001,20,w,Psychologie,2023-01-18_10h27.07.238,00_bat_bachelor,2022.2.4,60.01940990441768,
,,,,,,,,,,,,1,0,1,0,50,0,50,0,,,,,,,50,,,0.2,1882.521709322813,Y,d,go,None,0,,,,,,,,,,,,,,,,,,,39,001,20,w,Psychologie,2023-01-18_10h27.07.238,00_bat_bachelor,2022.2.4,60.01940990441768,
,,,,,,,,,,,,1,0,1,0,51,0,51,0,,,,,,,51,,,0.2,1883.5224535648595,X,l,go,l,1,0.24852115180692635,,,,,,,,,,,,,,,,,,39,001,20,w,Psychologie,2023-01-18_10h27.07.238,00_bat_bachelor,2022.2.4,60.01940990441768,
,,,,,,,,,,,,1,0,1,0,52,0,52,0,,,,,,,52,,,0.2,1884.072884328285,Y,d,go,d,1,0.2580450259556528,,,,,,,,,,,,,,,,,,39,001,20,w,Psychologie,2023-01-18_10h27.07.238,00_bat_bachelor,2022.2.4,60.01940990441768,
,,,,,,,,,,,,1,0,1,0,53,0,53,0,,,,,,,53,,,0.2,1884.6397131443664,Y,None,nogo,None,1,,,,,,,,,,,,,,,,,,,39,001,20,w,Psychologie,2023-01-18_10h27.07.238,00_bat_bachelor,2022.2.4,60.01940990441768,
,,,,,,,,,,,,1,0,1,0,54,0,54,0,,,,,,,54,,,0.2,1885.641282598168,Y,None,nogo,l,0,0.25812017743010074,,,,,,,,,,,,,,,,,,39,001,20,w,Psychologie,2023-01-18_10h27.07.238,00_bat_bachelor,2022.2.4,60.01940990441768,
,,,,,,,,,,,,1,0,1,0,55,0,55,0,,,,,,,55,,,0.2,1886.2083533535188,X,l,go,l,1,0.538364405190805,,,,,,,,,,,,,,,,,,39,001,20,w,Psychologie,2023-01-18_10h27.07.238,00_bat_bachelor,2022.2.4,60.01940990441768,
,,,,,,,,,,,,1,0,1,0,56,0,56,0,,,,,,,56,,,0.2,1887.0923408037052,Y,d,go,d,1,0.3257312961795833,,,,,,,,,,,,,,,,,,39,001,20,w,Psychologie,2023-01-18_10h27.07.238,00_bat_bachelor,2022.2.4,60.01940990441768,
,,,,,,,,,,,,1,0,1,0,57,0,57,0,,,,,,,57,,,0.2,1887.7595109044632,X,l,go,l,1,0.3146142106561456,,,,,,,,,,,,,,,,,,39,001,20,w,Psychologie,2023-01-18_10h27.07.238,00_bat_bachelor,2022.2.4,60.01940990441768,
,,,,,,,,,,,,1,0,1,0,58,0,58,0,,,,,,,58,,,0.2,1888.393639566726,Y,d,go,d,1,0.25691823865054175,,,,,,,,,,,,,,,,,,39,001,20,w,Psychologie,2023-01-18_10h27.07.238,00_bat_bachelor,2022.2.4,60.01940990441768,
,,,,,,,,,,,,1,0,1,0,59,0,59,0,,,,,,,59,,,0.2,1888.9771457080496,X,l,go,l,1,0.29734488570829853,,,,,,,,,,,,,,,,,,39,001,20,w,Psychologie,2023-01-18_10h27.07.238,00_bat_bachelor,2022.2.4,60.01940990441768,
,,,,,,,,,,,,1,0,1,0,60,0,60,0,,,,,,,60,,,0.2,1889.6111589763896,Y,d,go,d,1,0.3048595487198327,,,,,,,,,,,,,,,,,,39,001,20,w,Psychologie,2023-01-18_10h27.07.238,00_bat_bachelor,2022.2.4,60.01940990441768,
,,,,,,,,,,,,1,0,1,0,61,0,61,0,,,,,,,61,,,0.2,1890.2281686166534,Y,None,nogo,None,1,,1891.0290685919754,,,,,,,,,,,,,,,,,39,001,20,w,Psychologie,2023-01-18_10h27.07.238,00_bat_bachelor,2022.2.4,60.01940990441768,
,,,,,,,,,,,,1,0,1,0,62,0,62,0,,,,,,,62,,,0.2,1891.228845949634,X,l,go,l,1,0.3184105724503752,,,,,,,,,,,,,,,,,,39,001,20,w,Psychologie,2023-01-18_10h27.07.238,00_bat_bachelor,2022.2.4,60.01940990441768,
,,,,,,,,,,,,1,0,1,0,63,0,63,0,,,,,,,63,,,0.2,1891.8626691574755,Y,d,go,d,1,0.24434757806011476,,,,,,,,,,,,,,,,,,39,001,20,w,Psychologie,2023-01-18_10h27.07.238,00_bat_bachelor,2022.2.4,60.01940990441768,
,,,,,,,,,,,,1,0,1,0,64,0,64,0,,,,,,,64,,,0.2,1892.430029852112,X,l,go,l,1,0.3331237774400506,,,,,,,,,,,,,,,,,,39,001,20,w,Psychologie,2023-01-18_10h27.07.238,00_bat_bachelor,2022.2.4,60.01940990441768,
,,,,,,,,,,,,1,0,1,0,65,0,65,0,,,,,,,65,,,0.2,1893.0971708619618,Y,d,go,d,1,0.2583024803898297,,,,,,,,,,,,,,,,,,39,001,20,w,Psychologie,2023-01-18_10h27.07.238,00_bat_bachelor,2022.2.4,60.01940990441768,
,,,,,,,,,,,,1,0,1,0,66,0,66,0,,,,,,,66,,,0.2,1893.6973654800677,X,l,go,l,1,0.4894761864852626,,,,,,,,,,,,,,,,,,39,001,20,w,Psychologie,2023-01-18_10h27.07.238,00_bat_bachelor,2022.2.4,60.01940990441768,
,,,,,,,,,,,,1,0,1,0,67,0,67,0,,,,,,,67,,,0.2,1894.531562893797,X,None,nogo,None,1,,1895.3322296570987,,,,,,,,,,,,,,,,,39,001,20,w,Psychologie,2023-01-18_10h27.07.238,00_bat_bachelor,2022.2.4,60.01940990441768,
,,,,,,,,,,,,1,0,1,0,68,0,68,0,,,,,,,68,,,0.2,1895.5324700448546,X,None,nogo,l,0,0.33458268581307493,,,,,,,,,,,,,,,,,,39,001,20,w,Psychologie,2023-01-18_10h27.07.238,00_bat_bachelor,2022.2.4,60.01940990441768,
,,,,,,,,,,,,1,0,1,0,69,0,69,0,,,,,,,69,,,0.2,1896.199537842651,Y,d,go,d,1,0.4355019096110482,,,,,,,,,,,,,,,,,,39,001,20,w,Psychologie,2023-01-18_10h27.07.238,00_bat_bachelor,2022.2.4,60.01940990441768,
,,,,,,,,,,,,1,0,1,0,70,0,70,0,,,,,,,70,,,0.2,1896.9665551677172,X,l,go,l,1,0.4043344095698558,,,,,,,,,,,,,,,,,,39,001,20,w,Psychologie,2023-01-18_10h27.07.238,00_bat_bachelor,2022.2.4,60.01940990441768,
,,,,,,,,,,,,1,0,1,0,71,0,71,0,,,,,,,71,,,0.2,1897.717144379567,Y,d,go,d,1,0.32575408404227346,,,,,,,,,,,,,,,,,,39,001,20,w,Psychologie,2023-01-18_10h27.07.238,00_bat_bachelor,2022.2.4,60.01940990441768,
,,,,,,,,,,,,1,0,1,0,72,0,72,0,,,,,,,72,,,0.2,1898.3678020034858,X,l,go,l,1,0.36276449033175595,,,,,,,,,,,,,,,,,,39,001,20,w,Psychologie,2023-01-18_10h27.07.238,00_bat_bachelor,2022.2.4,60.01940990441768,
,,,,,,,,,,,,1,0,1,0,73,0,73,0,,,,,,,73,,,0.2,1899.068123603327,Y,d,go,d,1,0.3018922774353996,,,,,,,,,,,,,,,,,,39,001,20,w,Psychologie,2023-01-18_10h27.07.238,00_bat_bachelor,2022.2.4,60.01940990441768,
,,,,,,,,,,,,1,0,1,0,74,0,74,0,,,,,,,74,,,0.2,1899.7188714090153,X,l,go,l,1,0.3557114028662909,,,,,,,,,,,,,,,,,,39,001,20,w,Psychologie,2023-01-18_10h27.07.238,00_bat_bachelor,2022.2.4,60.01940990441768,
,,,,,,,,,,,,1,0,1,0,75,0,75,0,,,,,,,75,,,0.2,1900.41939955423,Y,d,go,d,1,0.2790205309574958,,,,,,,,,,,,,,,,,,39,001,20,w,Psychologie,2023-01-18_10h27.07.238,00_bat_bachelor,2022.2.4,60.01940990441768,
,,,,,,,,,,,,1,0,1,0,76,0,76,0,,,,,,,76,,,0.2,1901.036401436897,Y,None,nogo,None,1,,1901.8373368061439,,,,,,,,,,,,,,,,,39,001,20,w,Psychologie,2023-01-18_10h27.07.238,00_bat_bachelor,2022.2.4,60.01940990441768,
,,,,,,,,,,,,1,0,1,0,77,0,77,0,,,,,,,77,,,0.2,1902.0372586486046,X,l,go,l,1,0.373746788041899,,,,,,,,,,,,,,,,,,39,001,20,w,Psychologie,2023-01-18_10h27.07.238,00_bat_bachelor,2022.2.4,60.01940990441768,
,,,,,,,,,,,,1,0,1,0,78,0,78,0,,,,,,,78,,,0.2,1902.7209271656175,Y,d,go,d,1,0.31405905942665413,,,,,,,,,,,,,,,,,,39,001,20,w,Psychologie,2023-01-18_10h27.07.238,00_bat_bachelor,2022.2.4,60.01940990441768,
,,,,,,,,,,,,1,0,1,0,79,0,79,0,,,,,,,79,,,0.2,1903.3716788500897,X,l,go,l,1,0.2228974066383671,,,,,,,,,,,,,,,,,,39,001,20,w,Psychologie,2023-01-18_10h27.07.238,00_bat_bachelor,2022.2.4,60.01940990441768,
,,,,,,,,,,,,1,0,1,0,80,0,80,0,,,,,,,80,,,0.2,1903.9385193025228,X,None,nogo,None,1,,1904.7392040052218,,,,,,,,,,,,,,,,,39,001,20,w,Psychologie,2023-01-18_10h27.07.238,00_bat_bachelor,2022.2.4,60.01940990441768,
,,,,,,,,,,,,1,0,1,0,81,0,81,0,,,,,,,81,,,0.2,1904.9394817262946,Y,d,go,d,1,0.36702921555843204,,,,,,,,,,,,,,,,,,39,001,20,w,Psychologie,2023-01-18_10h27.07.238,00_bat_bachelor,2022.2.4,60.01940990441768,
,,,,,,,,,,,,1,0,1,0,82,0,82,0,,,,,,,82,,,0.2,1905.6400205381797,X,l,go,l,1,0.32276208547409624,,,,,,,,,,,,,,,,,,39,001,20,w,Psychologie,2023-01-18_10h27.07.238,00_bat_bachelor,2022.2.4,60.01940990441768,
,,,,,,,,,,,,1,0,1,0,83,0,83,0,,,,,,,83,,,0.2,1906.3070413056703,Y,d,go,d,1,0.37647987765376456,,,,,,,,,,,,,,,,,,39,001,20,w,Psychologie,2023-01-18_10h27.07.238,00_bat_bachelor,2022.2.4,60.01940990441768,
,,,,,,,,,,,,1,0,1,0,84,0,84,0,,,,,,,84,,,0.2,1907.007532602409,X,l,go,l,1,0.4270422773552127,,,,,,,,,,,,,,,,,,39,001,20,w,Psychologie,2023-01-18_10h27.07.238,00_bat_bachelor,2022.2.4,60.01940990441768,
,,,,,,,,,,,,1,0,1,0,85,0,85,0,,,,,,,85,,,0.2,1907.7750944120635,Y,d,go,d,1,0.2833381046075374,,,,,,,,,,,,,,,,,,39,001,20,w,Psychologie,2023-01-18_10h27.07.238,00_bat_bachelor,2022.2.4,60.01940990441768,
,,,,,,,,,,,,1,0,1,0,86,0,86,0,,,,,,,86,,,0.2,1908.3921185977524,X,l,go,l,1,0.32317905500531197,,,,,,,,,,,,,,,,,,39,001,20,w,Psychologie,2023-01-18_10h27.07.238,00_bat_bachelor,2022.2.4,60.01940990441768,
,,,,,,,,,,,,1,0,1,0,87,0,87,0,,,,,,,87,,,0.2,1909.0424310097296,Y,d,go,d,1,0.39187187017523684,,,,,,,,,,,,,,,,,,39,001,20,w,Psychologie,2023-01-18_10h27.07.238,00_bat_bachelor,2022.2.4,60.01940990441768,
,,,,,,,,,,,,1,0,1,0,88,0,88,0,,,,,,,88,,,0.2,1909.7595787832397,X,l,go,l,1,0.2668435671366751,,,,,,,,,,,,,,,,,,39,001,20,w,Psychologie,2023-01-18_10h27.07.238,00_bat_bachelor,2022.2.4,60.01940990441768,
,,,,,,,,,,,,1,0,1,0,89,0,89,0,,,,,,,89,,,0.2,1910.3433666213823,Y,d,go,d,1,0.3076522746414412,,,,,,,,,,,,,,,,,,39,001,20,w,Psychologie,2023-01-18_10h27.07.238,00_bat_bachelor,2022.2.4,60.01940990441768,
,,,,,,,,,,,,1,0,1,0,90,0,90,0,,,,,,,90,,,0.2,1910.9604805039999,X,l,go,l,1,0.266537143063033,,,,,,,,,,,,,,,,,,39,001,20,w,Psychologie,2023-01-18_10h27.07.238,00_bat_bachelor,2022.2.4,60.01940990441768,
,,,,,,,,,,,,1,0,1,0,91,0,91,0,,,,,,,91,,,0.2,1911.5611294248956,X,None,nogo,d,0,0.24151509455987252,,,,,,,,,,,,,,,,,,39,001,20,w,Psychologie,2023-01-18_10h27.07.238,00_bat_bachelor,2022.2.4,60.01940990441768,
,,,,,,,,,,,,1,0,1,0,92,0,92,0,,,,,,,92,,,0.2,1912.1449851418147,Y,d,go,None,0,,1912.9457740868966,,,,,,,,,,,,,,,,,39,001,20,w,Psychologie,2023-01-18_10h27.07.238,00_bat_bachelor,2022.2.4,60.01940990441768,
,,,,,,,,,,,,1,0,1,0,93,0,93,0,,,,,,,93,,,0.2,1913.1455010203645,X,l,go,l,1,0.41670579751371406,,,,,,,,,,,,,,,,,,39,001,20,w,Psychologie,2023-01-18_10h27.07.238,00_bat_bachelor,2022.2.4,60.01940990441768,
,,,,,,,,,,,,1,0,1,0,94,0,94,0,,,,,,,94,,,0.2,1913.8961042927986,Y,d,go,d,1,0.22645037461188622,,,,,,,,,,,,,,,,,,39,001,20,w,Psychologie,2023-01-18_10h27.07.238,00_bat_bachelor,2022.2.4,60.01940990441768,
,,,,,,,,,,,,1,0,1,0,95,0,95,0,,,,,,,95,,,0.2,1914.4631857148197,X,l,go,l,1,0.3327906866907142,,,,,,,,,,,,,,,,,,39,001,20,w,Psychologie,2023-01-18_10h27.07.238,00_bat_bachelor,2022.2.4,60.01940990441768,
,,,,,,,,,,,,1,0,1,0,96,0,96,0,,,,,,,96,,,0.2,1915.1136891570059,Y,d,go,d,1,0.3047999123809859,,,,,,,,,,,,,,,,,,39,001,20,w,Psychologie,2023-01-18_10h27.07.238,00_bat_bachelor,2022.2.4,60.01940990441768,
,,,,,,,,,,,,1,0,1,0,97,0,97,0,,,,,,,97,,,0.2,1915.7641659325163,X,l,go,l,1,0.2467209102178458,,,,,,,,,,,,,,,,,,39,001,20,w,Psychologie,2023-01-18_10h27.07.238,00_bat_bachelor,2022.2.4,60.01940990441768,
,,,,,,,,,,,,1,0,1,0,98,0,98,0,,,,,,,98,,,0.2,1916.3476584980963,Y,d,go,d,1,0.2877768903563265,,,,,,,,,,,,,,,,,,39,001,20,w,Psychologie,2023-01-18_10h27.07.238,00_bat_bachelor,2022.2.4,60.01940990441768,
,,,,,,,,,,,,1,0,1,0,99,0,99,0,,,,,,,99,,,0.2,1916.948327782622,Y,None,nogo,None,1,,1917.7489300611196,,,,,,,,,,,,,,,,,39,001,20,w,Psychologie,2023-01-18_10h27.07.238,00_bat_bachelor,2022.2.4,60.01940990441768,
,,,,,,,,,,,,1,0,1,0,100,0,100,0,,,,,,,100,,,0.2,1917.94910450952,X,l,go,l,1,0.31827820886974223,,,,,,,,,,,,,,,,,,39,001,20,w,Psychologie,2023-01-18_10h27.07.238,00_bat_bachelor,2022.2.4,60.01940990441768,
,,,,,,,,,,,,1,0,1,0,101,0,101,0,,,,,,,101,,,0.2,1918.5824666266853,Y,d,go,d,1,0.2781400465173647,,,,,,,,,,,,,,,,,,39,001,20,w,Psychologie,2023-01-18_10h27.07.238,00_bat_bachelor,2022.2.4,60.01940990441768,
,,,,,,,,,,,,1,0,1,0,102,0,102,0,,,,,,,102,,,0.2,1919.1661628285365,X,l,go,l,1,0.44658360120956786,,,,,,,,,,,,,,,,,,39,001,20,w,Psychologie,2023-01-18_10h27.07.238,00_bat_bachelor,2022.2.4,60.01940990441768,
,,,,,,,,,,,,1,0,1,0,103,0,103,0,,,,,,,103,,,0.2,1919.9166172525438,X,None,nogo,None,1,,,,,,,,,,,,,,,,,,,39,001,20,w,Psychologie,2023-01-18_10h27.07.238,00_bat_bachelor,2022.2.4,60.01940990441768,
,,,,,,,,,,,,1,0,1,0,104,0,104,0,,,,,,,104,,,0.2,1920.9177508277644,Y,d,go,d,1,0.24614684990956448,,,,,,,,,,,,,,,,,,39,001,20,w,Psychologie,2023-01-18_10h27.07.238,00_bat_bachelor,2022.2.4,60.01940990441768,
,,,,,,,,,,,,1,0,1,0,105,0,105,0,,,,,,,105,,,0.2,1921.4681641366333,X,l,go,l,1,0.4156653131940402,,,,,,,,,,,,,,,,,,39,001,20,w,Psychologie,2023-01-18_10h27.07.238,00_bat_bachelor,2022.2.4,60.01940990441768,
,,,,,,,,,,,,1,0,1,0,106,0,106,0,,,,,,,106,,,0.2,1922.184999183024,X,None,nogo,None,1,,,,,,,,,,,,,,,,,,,39,001,20,w,Psychologie,2023-01-18_10h27.07.238,00_bat_bachelor,2022.2.4,60.01940990441768,
,,,,,,,,,,,,1,0,1,0,107,0,107,0,,,,,,,107,,,0.2,1923.1861351824773,Y,d,go,d,1,0.28218707485939376,,,,,,,,,,,,,,,,,,39,001,20,w,Psychologie,2023-01-18_10h27.07.238,00_bat_bachelor,2022.2.4,60.01940990441768,
,,,,,,,,,,,,1,0,1,0,108,0,108,0,,,,,,,108,,,0.2,1923.769858050975,X,l,go,l,1,0.35351213117246516,,,,,,,,,,,,,,,,,,39,001,20,w,Psychologie,2023-01-18_10h27.07.238,00_bat_bachelor,2022.2.4,60.01940990441768,
,,,,,,,,,,,,1,0,1,0,109,0,109,0,,,,,,,109,,,0.2,1924.436796394264,Y,d,go,d,1,0.3747892117826268,,,,,,,,,,,,,,,,,,39,001,20,w,Psychologie,2023-01-18_10h27.07.238,00_bat_bachelor,2022.2.4,60.01940990441768,
,,,,,,,,,,,,1,0,1,0,110,0,110,0,,,,,,,110,,,0.2,1925.120561396092,Y,None,nogo,None,1,,,,,,,,,,,,,,,,,,,39,001,20,w,Psychologie,2023-01-18_10h27.07.238,00_bat_bachelor,2022.2.4,60.01940990441768,
,,,,,,,,,,,,1,0,1,0,111,0,111,0,,,,,,,111,,,0.2,1926.1216857591644,X,l,go,l,1,0.3067126387031749,,,,,,,,,,,,,,,,,,39,001,20,w,Psychologie,2023-01-18_10h27.07.238,00_bat_bachelor,2022.2.4,60.01940990441768,
,,,,,,,,,,,,1,0,1,0,112,0,112,0,,,,,,,112,,,0.2,1926.7384626722487,Y,d,go,d,1,0.39348011181573384,,,,,,,,,,,,,,,,,,39,001,20,w,Psychologie,2023-01-18_10h27.07.238,00_bat_bachelor,2022.2.4,60.01940990441768,
,,,,,,,,,,,,1,0,1,0,113,0,113,0,,,,,,,113,,,0.2,1927.4394228172314,X,l,go,l,1,0.3810883602418471,,,,,,,,,,,,,,,,,,39,001,20,w,Psychologie,2023-01-18_10h27.07.238,00_bat_bachelor,2022.2.4,60.01940990441768,
,,,,,,,,,,,,1,0,1,0,114,0,114,0,,,,,,,114,,,0.2,1928.1228746070992,Y,d,go,d,1,0.33625589712755755,,,,,,,,,,,,,,,,,,39,001,20,w,Psychologie,2023-01-18_10h27.07.238,00_bat_bachelor,2022.2.4,60.01940990441768,
,,,,,,,,,,,,1,0,1,0,115,0,115,0,,,,,,,115,,,0.2,1928.7736384127638,Y,None,nogo,l,0,0.34161347028566524,,,,,,,,,,,,,,,,,,39,001,20,w,Psychologie,2023-01-18_10h27.07.238,00_bat_bachelor,2022.2.4,60.01940990441768,
,,,,,,,,,,,,1,0,1,0,116,0,116,0,,,,,,,116,,,0.2,1929.4241408852686,X,l,go,None,0,,,,,,,,,,,,,,,,,,,39,001,20,w,Psychologie,2023-01-18_10h27.07.238,00_bat_bachelor,2022.2.4,60.01940990441768,
,,,,,,,,,,,,1,0,1,0,117,0,117,0,,,,,,,117,,,0.2,1930.424753733445,Y,d,go,d,1,0.4019508955825586,,,,,,,,,,,,,,,,,,39,001,20,w,Psychologie,2023-01-18_10h27.07.238,00_bat_bachelor,2022.2.4,60.01940990441768,
,,,,,,,,,,,,1,0,1,0,118,0,118,0,,,,,,,118,,,0.2,1931.1421453856165,X,l,go,l,1,0.26258708437671885,,,,,,,,,,,,,,,,,,39,001,20,w,Psychologie,2023-01-18_10h27.07.238,00_bat_bachelor,2022.2.4,60.01940990441768,
,,,,,,,,,,,,1,0,1,0,119,0,119,0,,,,,,,119,,,0.2,1931.708927656262,X,None,nogo,None,1,,,,,,,,,,,,,,,,,,,39,001,20,w,Psychologie,2023-01-18_10h27.07.238,00_bat_bachelor,2022.2.4,60.01940990441768,
,,,,,,,,,,,,1,0,1,0,120,0,120,0,,,,,,,120,,,0.2,1932.7099836557754,Y,d,go,d,1,0.32641784130828455,,,,,,,,,,,,,,,,,,39,001,20,w,Psychologie,2023-01-18_10h27.07.238,00_bat_bachelor,2022.2.4,60.01940990441768,
,,,,,,,,,,,,1,0,1,0,121,0,121,0,,,,,,,121,,,0.2,1933.3438097726903,X,l,go,l,1,0.3487082547217142,,,,,,,,,,,,,,,,,,39,001,20,w,Psychologie,2023-01-18_10h27.07.238,00_bat_bachelor,2022.2.4,60.01940990441768,
,,,,,,,,,,,,1,0,1,0,122,0,122,0,,,,,,,122,,,0.2,1933.9943670330395,Y,d,go,d,1,0.36918679025257006,,,,,,,,,,,,,,,,,,39,001,20,w,Psychologie,2023-01-18_10h27.07.238,00_bat_bachelor,2022.2.4,60.01940990441768,
,,,,,,,,,,,,1,0,1,0,123,0,123,0,,,,,,,123,,,0.2,1934.6782033075287,X,l,go,l,1,0.35770170492469333,,,,,,,,,,,,,,,,,,39,001,20,w,Psychologie,2023-01-18_10h27.07.238,00_bat_bachelor,2022.2.4,60.01940990441768,
,,,,,,,,,,,,1,0,1,0,124,0,124,0,,,,,,,124,,,0.2,1935.345273044717,X,None,nogo,None,1,,,,,,,,,,,,,,,,,,,39,001,20,w,Psychologie,2023-01-18_10h27.07.238,00_bat_bachelor,2022.2.4,60.01940990441768,
,,,,,,,,,,,,1,0,1,0,125,0,125,0,,,,,,,125,,,0.2,1936.3462146200181,Y,d,go,d,1,0.43328663797001354,,,,,,,,,,,,,,,,,,39,001,20,w,Psychologie,2023-01-18_10h27.07.238,00_bat_bachelor,2022.2.4,60.01940990441768,
,,,,,,,,,,,,1,0,1,0,126,0,126,0,,,,,,,126,,,0.2,1937.0800954763254,X,l,go,l,1,0.37243333415244706,,,,,,,,,,,,,,,,,,39,001,20,w,Psychologie,2023-01-18_10h27.07.238,00_bat_bachelor,2022.2.4,60.01940990441768,
,,,,,,,,,,,,1,0,1,0,127,0,127,0,,,,,,,127,,,0.2,1937.7638789023622,X,None,nogo,None,1,,,,,,,,,,,,,,,,,,,39,001,20,w,Psychologie,2023-01-18_10h27.07.238,00_bat_bachelor,2022.2.4,60.01940990441768,
,,,,,,,,,,,,1,0,1,0,128,0,128,0,,,,,,,128,,,0.2,1938.7646420535166,Y,d,go,d,1,0.39878192741889507,,,,,,,,,,,,,,,,,,39,001,20,w,Psychologie,2023-01-18_10h27.07.238,00_bat_bachelor,2022.2.4,60.01940990441768,
,,,,,,,,,,,,1,0,1,0,129,0,129,0,,,,,,,129,,,0.2,1939.4648206231068,X,l,go,l,1,0.35439649439649656,,,,,,,,,,,,,,,,,,39,001,20,w,Psychologie,2023-01-18_10h27.07.238,00_bat_bachelor,2022.2.4,60.01940990441768,
,,,,,,,,,,,,1,0,1,0,130,0,130,0,,,,,,,130,,,0.2,1940.131994117808,Y,d,go,d,1,0.3914277491567191,,,,,,,,,,,,,,,,,,39,001,20,w,Psychologie,2023-01-18_10h27.07.238,00_bat_bachelor,2022.2.4,60.01940990441768,
,,,,,,,,,,,,1,0,1,0,131,0,131,0,,,,,,,131,,,0.2,1940.8329052931222,X,l,go,l,1,0.31557517987675965,,,,,,,,,,,,,,,,,,39,001,20,w,Psychologie,2023-01-18_10h27.07.238,00_bat_bachelor,2022.2.4,60.01940990441768,
,,,,,,,,,,,,1,0,1,0,132,0,132,0,,,,,,,132,,,0.2,1941.4500162666664,X,None,nogo,None,1,,,,,,,,,,,,,,,,,,,39,001,20,w,Psychologie,2023-01-18_10h27.07.238,00_bat_bachelor,2022.2.4,60.01940990441768,
,,,,,,,,,,,,1,0,1,0,133,0,133,0,,,,,,,133,,,0.2,1942.4506872966303,Y,d,go,d,1,0.45675523264799267,,,,,,,,,,,,,,,,,,39,001,20,w,Psychologie,2023-01-18_10h27.07.238,00_bat_bachelor,2022.2.4,60.01940990441768,
,,,,,,,,,,,,1,0,1,0,134,0,134,0,,,,,,,134,,,0.2,1943.2180648639624,X,l,go,l,1,0.2981254913902376,,,,,,,,,,,,,,,,,,39,001,20,w,Psychologie,2023-01-18_10h27.07.238,00_bat_bachelor,2022.2.4,60.01940990441768,
,,,,,,,,,,,,1,0,1,0,135,0,135,0,,,,,,,135,,,0.2,1943.8184214213688,Y,d,go,d,1,0.43326142587466165,,,,,,,,,,,,,,,,,,39,001,20,w,Psychologie,2023-01-18_10h27.07.238,00_bat_bachelor,2022.2.4,60.01940990441768,
,,,,,,,,,,,,1,0,1,0,136,0,136,0,,,,,,,136,,,0.2,1944.5522625200974,X,l,go,l,1,0.38740059960400686,,,,,,,,,,,,,,,,,,39,001,20,w,Psychologie,2023-01-18_10h27.07.238,00_bat_bachelor,2022.2.4,60.01940990441768,
,,,,,,,,,,,,1,0,1,0,137,0,137,0,,,,,,,137,,,0.2,1945.2528643622354,Y,d,go,d,1,0.34293274238007143,,,,,,,,,,,,,,,,,,39,001,20,w,Psychologie,2023-01-18_10h27.07.238,00_bat_bachelor,2022.2.4,60.01940990441768,
,,,,,,,,,,,,1,0,1,0,138,0,138,0,,,,,,,138,,,0.2,1945.9032383499434,Y,None,nogo,l,0,0.3486529820074793,,,,,,,,,,,,,,,,,,39,001,20,w,Psychologie,2023-01-18_10h27.07.238,00_bat_bachelor,2022.2.4,60.01940990441768,
,,,,,,,,,,,,1,0,1,0,139,0,139,0,,,,,,,139,,,0.2,1946.55395415565,X,l,go,None,0,,,,,,,,,,,,,,,,,,,39,001,20,w,Psychologie,2023-01-18_10h27.07.238,00_bat_bachelor,2022.2.4,60.01940990441768,
,,,,,,,,,,,,1,0,1,0,140,0,140,0,,,,,,,140,,,0.2,1947.5545340341632,Y,d,go,None,0,,,,,,,,,,,,,,,,,,,39,001,20,w,Psychologie,2023-01-18_10h27.07.238,00_bat_bachelor,2022.2.4,60.01940990441768,
,,,,,,,,,,,,1,0,1,0,141,0,141,0,,,,,,,141,,,0.2,1948.5551653065777,Y,None,nogo,None,1,,,,,,,,,,,,,,,,,,,39,001,20,w,Psychologie,2023-01-18_10h27.07.238,00_bat_bachelor,2022.2.4,60.01940990441768,
,,,,,,,,,,,,1,0,1,0,142,0,142,0,,,,,,,142,,,0.2,1949.5561073667195,Y,None,nogo,None,1,,,,,,,,,,,,,,,,,,,39,001,20,w,Psychologie,2023-01-18_10h27.07.238,00_bat_bachelor,2022.2.4,60.01940990441768,
,,,,,,,,,,,,1,0,1,0,143,0,143,0,,,,,,,143,,,0.2,1950.556965063297,X,l,go,l,1,0.5109118124528322,,,,,,,,,,,,,,,,,,39,001,20,w,Psychologie,2023-01-18_10h27.07.238,00_bat_bachelor,2022.2.4,60.01940990441768,
,,,,,,,,,,,,1,0,1,0,144,0,144,0,,,,,,,144,,,0.2,1951.3739038187196,Y,d,go,d,1,0.3500158904644195,,,,,,,,,,,,,,,,,,39,001,20,w,Psychologie,2023-01-18_10h27.07.238,00_bat_bachelor,2022.2.4,60.01940990441768,
,,,,,,,,,,,,1,0,1,0,145,0,145,0,,,,,,,145,,,0.2,1952.024387866957,X,l,go,l,1,0.48288370482623577,,,,,,,,,,,,,,,,,,39,001,20,w,Psychologie,2023-01-18_10h27.07.238,00_bat_bachelor,2022.2.4,60.01940990441768,
,,,,,,,,,,,,1,0,1,0,146,0,146,0,,,,,,,146,,,0.2,1952.8083326989727,Y,d,go,d,1,0.4343610616924707,,,,,,,,,,,,,,,,,,39,001,20,w,Psychologie,2023-01-18_10h27.07.238,00_bat_bachelor,2022.2.4,60.01940990441768,
,,,,,,,,,,,,1,0,1,0,147,0,147,0,,,,,,,147,,,0.2,1953.5591124561906,X,l,go,l,1,0.5795328700914979,,,,,,,,,,,,,,,,,,39,001,20,w,Psychologie,2023-01-18_10h27.07.238,00_bat_bachelor,2022.2.4,60.01940990441768,
,,,,,,,,,,,,1,0,1,0,148,0,148,0,,,,,,,148,,,0.2,1954.443283663859,X,None,nogo,None,1,,,,,,,,,,,,,,,,,,,39,001,20,w,Psychologie,2023-01-18_10h27.07.238,00_bat_bachelor,2022.2.4,60.01940990441768,
,,,,,,,,,,,,1,0,1,0,149,0,149,0,,,,,,,149,,,0.2,1955.4440133604803,Y,d,go,d,1,0.43990772566758096,,,,,,,,,,,,,,,,,,39,001,20,w,Psychologie,2023-01-18_10h27.07.238,00_bat_bachelor,2022.2.4,60.01940990441768,
,,,,,,,,,,,,1,0,1,0,150,0,150,0,,,,,,,150,,,0.2,1956.1946069359547,X,l,go,l,1,0.4412754825607408,,,,,,,,,,,,,,,,,,39,001,20,w,Psychologie,2023-01-18_10h27.07.238,00_bat_bachelor,2022.2.4,60.01940990441768,
,,,,,,,,,,,,1,0,1,0,151,0,151,0,,,,,,,151,,,0.2,1956.944864996418,Y,d,go,d,1,0.3947572020988446,,,,,,,,,,,,,,,,,,39,001,20,w,Psychologie,2023-01-18_10h27.07.238,00_bat_bachelor,2022.2.4,60.01940990441768,
,,,,,,,,,,,,1,0,1,0,152,0,152,0,,,,,,,152,,,0.2,1957.6454736264423,X,l,go,l,1,0.4782383737328928,,,,,,,,,,,,,,,,,,39,001,20,w,Psychologie,2023-01-18_10h27.07.238,00_bat_bachelor,2022.2.4,60.01940990441768,
,,,,,,,,,,,,1,0,1,0,153,0,153,0,,,,,,,153,,,0.2,1958.4292667009577,Y,d,go,d,1,0.46220735120004974,,,,,,,,,,,,,,,,,,39,001,20,w,Psychologie,2023-01-18_10h27.07.238,00_bat_bachelor,2022.2.4,60.01940990441768,
,,,,,,,,,,,,1,0,1,0,154,0,154,0,,,,,,,154,,,0.2,1959.1966782076634,X,l,go,l,1,0.4154660405474715,,,,,,,,,,,,,,,,,,39,001,20,w,Psychologie,2023-01-18_10h27.07.238,00_bat_bachelor,2022.2.4,60.01940990441768,
,,,,,,,,,,,,1,0,1,0,155,0,155,0,,,,,,,155,,,0.2,1959.9140970113513,Y,d,go,d,1,0.33782486605923623,,,,,,,,,,,,,,,,,,39,001,20,w,Psychologie,2023-01-18_10h27.07.238,00_bat_bachelor,2022.2.4,60.01940990441768,
,,,,,,,,,,,,1,0,1,0,156,0,156,0,,,,,,,156,,,0.2,1960.5645655444532,X,l,go,l,1,0.328205961646745,,,,,,,,,,,,,,,,,,39,001,20,w,Psychologie,2023-01-18_10h27.07.238,00_bat_bachelor,2022.2.4,60.01940990441768,
,,,,,,,,,,,,1,0,1,0,157,0,157,0,,,,,,,157,,,0.2,1961.1980479039776,Y,d,go,d,1,0.3980396247643512,,,,,,,,,,,,,,,,,,39,001,20,w,Psychologie,2023-01-18_10h27.07.238,00_bat_bachelor,2022.2.4,60.01940990441768,
,,,,,,,,,,,,1,0,1,0,158,0,158,0,,,,,,,158,,,0.2,1961.8990555640776,Y,None,nogo,None,1,,,,,,,,,,,,,,,,,,,39,001,20,w,Psychologie,2023-01-18_10h27.07.238,00_bat_bachelor,2022.2.4,60.01940990441768,
,,,,,,,,,,,,1,0,1,0,159,0,159,0,,,,,,,159,,,0.2,1962.8994167760247,X,l,go,l,1,0.3279194163333159,,,,,,,,,,,,,,,,,,39,001,20,w,Psychologie,2023-01-18_10h27.07.238,00_bat_bachelor,2022.2.4,60.01940990441768,
,,,,,,,,,,,,1,0,1,0,160,0,160,0,,,,,,,160,,,0.2,1963.5331468930235,Y,d,go,d,1,0.3180702090030536,,,,,,,,,,,,,,,,,,39,001,20,w,Psychologie,2023-01-18_10h27.07.238,00_bat_bachelor,2022.2.4,60.01940990441768,
,,,,,,,,,,,,1,0,1,0,161,0,161,0,,,,,,,161,,,0.2,1964.167238706781,Y,None,nogo,None,1,,,,,,,,,,,,,,,,,,,39,001,20,w,Psychologie,2023-01-18_10h27.07.238,00_bat_bachelor,2022.2.4,60.01940990441768,
,,,,,,,,,,,,1,0,1,0,162,0,162,0,,,,,,,162,,,0.2,1965.1682404032617,X,l,go,l,1,0.2676644152379595,,,,,,,,,,,,,,,,,,39,001,20,w,Psychologie,2023-01-18_10h27.07.238,00_bat_bachelor,2022.2.4,60.01940990441768,
,,,,,,,,,,,,1,0,1,0,163,0,163,0,,,,,,,163,,,0.2,1965.751821211219,Y,d,go,d,1,0.32401250913972035,,,,,,,,,,,,,,,,,,39,001,20,w,Psychologie,2023-01-18_10h27.07.238,00_bat_bachelor,2022.2.4,60.01940990441768,
,,,,,,,,,,,,1,0,1,0,164,0,164,0,,,,,,,164,,,0.2,1966.3856536311796,Y,None,nogo,None,1,,,,,,,,,,,,,,,,,,,39,001,20,w,Psychologie,2023-01-18_10h27.07.238,00_bat_bachelor,2022.2.4,60.01940990441768,
,,,,,,,,,,,,1,0,1,0,165,0,165,0,,,,,,,165,,,0.2,1967.3862970248156,X,l,go,l,1,0.2586549650586676,,,,,,,,,,,,,,,,,,39,001,20,w,Psychologie,2023-01-18_10h27.07.238,00_bat_bachelor,2022.2.4,60.01940990441768,
,,,,,,,,,,,,1,0,1,0,166,0,166,0,,,,,,,166,,,0.2,1967.9535495982855,Y,d,go,d,1,0.29767312796320766,,,,,,,,,,,,,,,,,,39,001,20,w,Psychologie,2023-01-18_10h27.07.238,00_bat_bachelor,2022.2.4,60.01940990441768,
,,,,,,,,,,,,1,0,1,0,167,0,167,0,,,,,,,167,,,0.2,1968.5538145193714,X,l,go,l,1,0.40127404741360806,,,,,,,,,,,,,,,,,,39,001,20,w,Psychologie,2023-01-18_10h27.07.238,00_bat_bachelor,2022.2.4,60.01940990441768,
,,,,,,,,,,,,1,0,1,0,168,0,168,0,,,,,,,168,,,0.2,1969.2711460503633,X,None,nogo,None,1,,,,,,,,,,,,,,,,,,,39,001,20,w,Psychologie,2023-01-18_10h27.07.238,00_bat_bachelor,2022.2.4,60.01940990441768,
,,,,,,,,,,,,1,0,1,0,169,0,169,0,,,,,,,169,,,0.2,1970.271984352963,Y,d,go,d,1,0.2840799224213697,,,,,,,,,,,,,,,,,,39,001,20,w,Psychologie,2023-01-18_10h27.07.238,00_bat_bachelor,2022.2.4,60.01940990441768,
,,,,,,,,,,,,1,0,1,0,170,0,170,0,,,,,,,170,,,0.2,1970.8724669709336,X,l,go,l,1,0.3545642518729437,,,,,,,,,,,,,,,,,,39,001,20,w,Psychologie,2023-01-18_10h27.07.238,00_bat_bachelor,2022.2.4,60.01940990441768,
,,,,,,,,,,,,1,0,1,0,171,0,171,0,,,,,,,171,,,0.2,1971.5395260414516,Y,d,go,d,1,0.34495019595487975,,,,,,,,,,,,,,,,,,39,001,20,w,Psychologie,2023-01-18_10h27.07.238,00_bat_bachelor,2022.2.4,60.01940990441768,
,,,,,,,,,,,,1,0,1,0,172,0,172,0,,,,,,,172,,,0.2,1972.1900973623851,X,l,go,l,1,0.3328726260224357,,,,,,,,,,,,,,,,,,39,001,20,w,Psychologie,2023-01-18_10h27.07.238,00_bat_bachelor,2022.2.4,60.01940990441768,
,,,,,,,,,,,,1,0,1,0,173,0,173,0,,,,,,,173,,,0.2,1972.8239452974813,X,None,nogo,None,1,,1973.624564060825,,,,,,,,,,,,,,,,,39,001,20,w,Psychologie,2023-01-18_10h27.07.238,00_bat_bachelor,2022.2.4,60.01940990441768,
,,,,,,,,,,,,1,0,1,0,174,0,174,0,,,,,,,174,,,0.2,1973.8246977819654,Y,d,go,d,1,0.4272968226869125,,,,,,,,,,,,,,,,,,39,001,20,w,Psychologie,2023-01-18_10h27.07.238,00_bat_bachelor,2022.2.4,60.01940990441768,
,,,,,,,,,,,,1,0,1,0,175,0,175,0,,,,,,,175,,,0.2,1974.5585718503862,X,l,go,l,1,0.4297957305680029,,,,,,,,,,,,,,,,,,39,001,20,w,Psychologie,2023-01-18_10h27.07.238,00_bat_bachelor,2022.2.4,60.01940990441768,
,,,,,,,,,,,,1,0,1,0,176,0,176,0,,,,,,,176,,,0.2,1975.2925632520928,Y,d,go,d,1,0.3664512764371466,,,,,,,,,,,,,,,,,,39,001,20,w,Psychologie,2023-01-18_10h27.07.238,00_bat_bachelor,2022.2.4,60.01940990441768,
,,,,,,,,,,,,1,0,1,0,177,0,177,0,,,,,,,177,,,0.2,1975.9596077771566,X,l,go,l,1,0.4356832428602502,,,,,,,,,,,,,,,,,,39,001,20,w,Psychologie,2023-01-18_10h27.07.238,00_bat_bachelor,2022.2.4,60.01940990441768,
,,,,,,,,,,,,1,0,1,0,178,0,178,0,,,,,,,178,,,0.2,1976.7102207465505,X,None,nogo,None,1,,1977.5104516313004,,,,,,,,,,,,,,,,,39,001,20,w,Psychologie,2023-01-18_10h27.07.238,00_bat_bachelor,2022.2.4,60.01940990441768,
,,,,,,,,,,,,1,0,1,0,179,0,179,0,,,,,,,179,,,0.2,1977.7109368674282,Y,d,go,d,1,0.4294510034378618,,,,,,,,,,,,,,,,,,39,001,20,w,Psychologie,2023-01-18_10h27.07.238,00_bat_bachelor,2022.2.4,60.01940990441768,
,,,,,,,,,,,,1,0,1,0,180,0,180,0,,,,,,,180,,,0.2,1978.4448788145964,X,l,go,l,1,0.3663930946495384,,,,,,,,,,,,,,,,,,39,001,20,w,Psychologie,2023-01-18_10h27.07.238,00_bat_bachelor,2022.2.4,60.01940990441768,
,,,,,,,,,,,,1,0,1,0,181,0,181,0,,,,,,,181,,,0.2,1979.1120809153363,Y,d,go,d,1,0.41984034146298654,,,,,,,,,,,,,,,,,,39,001,20,w,Psychologie,2023-01-18_10h27.07.238,00_bat_bachelor,2022.2.4,60.01940990441768,
,,,,,,,,,,,,1,0,1,0,182,0,182,0,,,,,,,182,,,0.2,1979.8455840748502,Y,None,nogo,None,1,,,,,,,,,,,,,,,,,,,39,001,20,w,Psychologie,2023-01-18_10h27.07.238,00_bat_bachelor,2022.2.4,60.01940990441768,
,,,,,,,,,,,,1,0,1,0,183,0,183,0,,,,,,,183,,,0.2,1980.8463530441804,X,l,go,l,1,0.3332963834400289,,,,,,,,,,,,,,,,,,39,001,20,w,Psychologie,2023-01-18_10h27.07.238,00_bat_bachelor,2022.2.4,60.01940990441768,
,,,,,,,,,,,,1,0,1,0,184,0,184,0,,,,,,,184,,,0.2,1981.4805350397364,Y,d,go,d,1,0.3710001227154862,,,,,,,,,,,,,,,,,,39,001,20,w,Psychologie,2023-01-18_10h27.07.238,00_bat_bachelor,2022.2.4,60.01940990441768,
,,,,,,,,,,,,1,0,1,0,185,0,185,0,,,,,,,185,,,0.2,1982.164026102284,X,l,go,l,1,0.4554063848336227,,,,,,,,,,,,,,,,,,39,001,20,w,Psychologie,2023-01-18_10h27.07.238,00_bat_bachelor,2022.2.4,60.01940990441768,
,,,,,,,,,,,,1,0,1,0,186,0,186,0,,,,,,,186,,,0.2,1982.9315869422571,Y,d,go,d,1,0.4725913461588789,,,,,,,,,,,,,,,,,,39,001,20,w,Psychologie,2023-01-18_10h27.07.238,00_bat_bachelor,2022.2.4,60.01940990441768,
,,,,,,,,,,,,1,0,1,0,187,0,187,0,,,,,,,187,,,0.2,1983.7155453500454,Y,None,nogo,None,1,,1984.5158145377936,,,,,,,,,,,,,,,,,39,001,20,w,Psychologie,2023-01-18_10h27.07.238,00_bat_bachelor,2022.2.4,60.01940990441768,
,,,,,,,,,,,,1,0,1,0,188,0,188,0,,,,,,,188,,,0.2,1984.7161906830443,X,l,go,l,1,0.27142538310727105,,,,,,,,,,,,,,,,,,39,001,20,w,Psychologie,2023-01-18_10h27.07.238,00_bat_bachelor,2022.2.4,60.01940990441768,
,,,,,,,,,,,,1,0,1,0,189,0,189,0,,,,,,,189,,,0.2,1985.2999683394155,Y,d,go,d,1,0.5190048994263634,,,,,,,,,,,,,,,,,,39,001,20,w,Psychologie,2023-01-18_10h27.07.238,00_bat_bachelor,2022.2.4,60.01940990441768,
,,,,,,,,,,,,1,0,1,0,190,0,190,0,,,,,,,190,,,0.2,1986.1340435713646,X,l,go,l,1,0.4050049547222443,,,,,,,,,,,,,,,,,,39,001,20,w,Psychologie,2023-01-18_10h27.07.238,00_bat_bachelor,2022.2.4,60.01940990441768,
,,,,,,,,,,,,1,0,1,0,191,0,191,0,,,,,,,191,,,0.2,1986.851335344807,X,None,nogo,None,1,,1987.6518876839255,,,,,,,,,,,,,,,,,39,001,20,w,Psychologie,2023-01-18_10h27.07.238,00_bat_bachelor,2022.2.4,60.01940990441768,
,,,,,,,,,,,,1,0,1,0,192,0,192,0,,,,,,,192,,,0.2,1987.8519258899614,Y,d,go,d,1,0.33519456430803984,,,,,,,,,,,,,,,,,,39,001,20,w,Psychologie,2023-01-18_10h27.07.238,00_bat_bachelor,2022.2.4,60.01940990441768,
,,,,,,,,,,,,1,0,1,0,193,0,193,0,,,,,,,193,,,0.2,1988.5025151502923,X,l,go,l,1,0.42171282539493404,,,,,,,,,,,,,,,,,,39,001,20,w,Psychologie,2023-01-18_10h27.07.238,00_bat_bachelor,2022.2.4,60.01940990441768,
,,,,,,,,,,,,1,0,1,0,194,0,194,0,,,,,,,194,,,0.2,1989.2360517643392,Y,d,go,d,1,0.3599780674558133,,,,,,,,,,,,,,,,,,39,001,20,w,Psychologie,2023-01-18_10h27.07.238,00_bat_bachelor,2022.2.4,60.01940990441768,
,,,,,,,,,,,,1,0,1,0,195,0,195,0,,,,,,,195,,,0.2,1989.903559804341,Y,None,nogo,None,1,,,,,,,,,,,,,,,,,,,39,001,20,w,Psychologie,2023-01-18_10h27.07.238,00_bat_bachelor,2022.2.4,60.01940990441768,
,,,,,,,,,,,,1,0,1,0,196,0,196,0,,,,,,,196,,,0.2,1990.9042730161163,X,l,go,l,1,0.32351166088483296,,,,,,,,,,,,,,,,,,39,001,20,w,Psychologie,2023-01-18_10h27.07.238,00_bat_bachelor,2022.2.4,60.01940990441768,
,,,,,,,,,,,,1,0,1,0,197,0,197,0,,,,,,,197,,,0.2,1991.5382038602547,Y,d,go,d,1,0.330543899879558,,,,,,,,,,,,,,,,,,39,001,20,w,Psychologie,2023-01-18_10h27.07.238,00_bat_bachelor,2022.2.4,60.01940990441768,
,,,,,,,,,,,,1,0,1,0,198,0,198,0,,,,,,,198,,,0.2,1992.1719892499386,Y,None,nogo,None,1,,,,,,,,,,,,,,,,,,,39,001,20,w,Psychologie,2023-01-18_10h27.07.238,00_bat_bachelor,2022.2.4,60.01940990441768,
