loop_instruction.thisRepN,loop_instruction.thisTrialN,loop_instruction.thisN,loop_instruction.thisIndex,loop_rsi_practice.thisRepN,loop_rsi_practice.thisTrialN,loop_rsi_practice.thisN,loop_rsi_practice.thisIndex,loop_practice.thisRepN,loop_practice.thisTrialN,loop_practice.thisN,loop_practice.thisIndex,loop_exp.thisRepN,loop_exp.thisTrialN,loop_exp.thisN,loop_exp.thisIndex,loop_trials.thisRepN,loop_trials.thisTrialN,loop_trials.thisN,loop_trials.thisIndex,map_condition,map_x_key,map_y_key,key_resp_welcome.started,key_resp_welcome.keys,key_resp_welcome.rt,index,text_empty_rsi_practice.started,text_empty_rsi_practice.stopped,rsi,stimulus.started,stimulus,correct,trial_type,key_resp_trial.keys,key_resp_trial.corr,key_resp_trial.rt,stimulus.stopped,key_resp_instruction_rsi.started,key_resp_instruction_rsi.keys,key_resp_instruction_rsi.rt,key_resp_instruction_rsi.stopped,key_resp_instruction_final.started,key_resp_instruction_final.keys,key_resp_instruction_final.rt,key_resp_break.started,key_resp_break.keys,key_resp_break.rt,key_resp_break.stopped,key_resp_end_screen.started,image_end_screen.started,key_resp_end_screen.stopped,image_end_screen.stopped,key_resp_end_screen.keys,participant,session,Alter,Geschlecht (w/m/d/andere),Studiengang,date,expName,psychopyVersion,frameRate,
,,,,0,0,0,0,0,0,0,0,,,,,,,,,0,d,l,552.3118510002969,j,13.427710208809003,0,565.7685746577336,566.7832272566156,1,566.7832272566156,X,d,go,None,0,,,,,,,,,,,,,,,,,,,40,001,19,w,Bachelor Psychologie 100%,2023-01-18_10h27.13.918,00_bat_bachelor,2022.2.4,59.962176604102844,
,,,,0,0,0,0,1,0,1,0,,,,,,,,,,,,,,,1,568.184328153031,569.1846656075213,1,569.1846656075213,Y,l,go,l,1,0.34332721948157996,,,,,,,,,,,,,,,,,,40,001,19,w,Bachelor Psychologie 100%,2023-01-18_10h27.13.918,00_bat_bachelor,2022.2.4,59.962176604102844,
,,,,0,0,0,0,2,0,2,0,,,,,,,,,,,,,,,2,570.2358844917035,571.2365715217311,1,571.2365715217311,X,d,go,d,1,0.3717034482397139,,,,,,,,,,,,,,,,,,40,001,19,w,Bachelor Psychologie 100%,2023-01-18_10h27.13.918,00_bat_bachelor,2022.2.4,59.962176604102844,
,,,,0,0,0,0,3,0,3,0,,,,,,,,,,,,,,,3,572.3206519657979,573.3214490562677,1,573.3214490562677,X,None,nogo,None,1,,574.1220760620199,,,,,,,,,,,,,,,,,40,001,19,w,Bachelor Psychologie 100%,2023-01-18_10h27.13.918,00_bat_bachelor,2022.2.4,59.962176604102844,
,,,,0,0,0,0,4,0,4,0,,,,,,,,,,,,,,,4,574.7226944374852,575.7230866797036,1,575.7230866797036,X,None,nogo,None,1,,,,,,,,,,,,,,,,,,,40,001,19,w,Bachelor Psychologie 100%,2023-01-18_10h27.13.918,00_bat_bachelor,2022.2.4,59.962176604102844,
,,,,0,0,0,0,5,0,5,0,,,,,,,,,,,,,,,5,577.1245143639389,578.1252489089966,1,578.1252489089966,Y,l,go,l,1,0.45833758800290525,,,,,,,,,,,,,,,,,,40,001,19,w,Bachelor Psychologie 100%,2023-01-18_10h27.13.918,00_bat_bachelor,2022.2.4,59.962176604102844,
,,,,0,0,0,0,6,0,6,0,,,,,,,,,,,,,,,6,579.2924982825061,580.2932391306385,1,580.2932391306385,X,d,go,d,1,0.5145610758336261,,,,,,,,,,,,,,,,,,40,001,19,w,Bachelor Psychologie 100%,2023-01-18_10h27.13.918,00_bat_bachelor,2022.2.4,59.962176604102844,
,,,,0,0,0,0,7,0,7,0,,,,,,,,,,,,,,,7,581.5111478733597,582.5119876306271,1,582.5119876306271,Y,l,go,l,1,0.4076709458604455,,,,,,,,,,,,,,,,,,40,001,19,w,Bachelor Psychologie 100%,2023-01-18_10h27.13.918,00_bat_bachelor,2022.2.4,59.962176604102844,
,,,,0,0,0,0,8,0,8,0,,,,,,,,,,,,,,,8,583.629673391697,584.6302949672099,1,584.6302949672099,Y,None,nogo,None,1,,585.4312691242667,,,,,,,,,,,,,,,,,40,001,19,w,Bachelor Psychologie 100%,2023-01-18_10h27.13.918,00_bat_bachelor,2022.2.4,59.962176604102844,
,,,,0,0,0,0,9,0,9,0,,,,,,,,,,,,,,,9,586.0315980453743,587.0321245904779,1,587.0321245904779,X,d,go,d,1,0.3678479348309338,,,,,,,,,,,,,,,,,,40,001,19,w,Bachelor Psychologie 100%,2023-01-18_10h27.13.918,00_bat_bachelor,2022.2.4,59.962176604102844,
,,,,0,0,0,0,10,0,10,0,,,,,,,,,,,,,,,10,588.1162826103391,589.1170743674738,1,589.1170743674738,Y,l,go,l,1,0.28318179410416633,,,,,,,,,,,,,,,,,,40,001,19,w,Bachelor Psychologie 100%,2023-01-18_10h27.13.918,00_bat_bachelor,2022.2.4,59.962176604102844,
,,,,0,0,0,0,11,0,11,0,,,,,,,,,,,,,,,11,590.1013788599521,591.102115344489,1,591.102115344489,Y,None,nogo,l,0,0.49029829970095307,,,,,,,,,,,,,,,,,,40,001,19,w,Bachelor Psychologie 100%,2023-01-18_10h27.13.918,00_bat_bachelor,2022.2.4,59.962176604102844,
,,,,0,0,0,0,12,0,12,0,,,,,,,,,,,,,,,12,592.7200428023934,593.7207613475621,1,593.7207613475621,X,d,go,d,1,0.6071884249104187,,,,,,,,,,,,,,,,,,40,001,19,w,Bachelor Psychologie 100%,2023-01-18_10h27.13.918,00_bat_bachelor,2022.2.4,59.962176604102844,
,,,,0,0,0,0,13,0,13,0,,,,,,,,,,,,,,,13,595.0384770722594,596.0389827690087,1,596.0389827690087,Y,l,go,l,1,0.44832013826817274,,,,,,,,,,,,,,,,,,40,001,19,w,Bachelor Psychologie 100%,2023-01-18_10h27.13.918,00_bat_bachelor,2022.2.4,59.962176604102844,
,,,,0,0,0,0,14,0,14,0,,,,,,,,,,,,,,,14,597.1900396654382,598.190625846968,1,598.190625846968,Y,None,nogo,None,1,,598.9912819436286,,,,,,,,,,,,,,,,,40,001,19,w,Bachelor Psychologie 100%,2023-01-18_10h27.13.918,00_bat_bachelor,2022.2.4,59.962176604102844,
,,,,1,0,1,0,0,0,0,0,,,,,,,,,,,,,,,0,615.7541562404949,615.9541420828318,0.2,615.9541420828318,X,d,go,d,1,0.6132039370713755,,599.6239880610956,j,16.09897873189766,,,,,,,,,,,,,,40,001,19,w,Bachelor Psychologie 100%,2023-01-18_10h27.13.918,00_bat_bachelor,2022.2.4,59.962176604102844,
,,,,1,0,1,0,1,0,1,0,,,,,,,,,,,,,,,1,617.2718301712302,617.4721311650937,0.2,617.4721311650937,Y,l,go,l,1,0.5995724286185578,,,,,,,,,,,,,,,,,,40,001,19,w,Bachelor Psychologie 100%,2023-01-18_10h27.13.918,00_bat_bachelor,2022.2.4,59.962176604102844,
,,,,1,0,1,0,2,0,2,0,,,,,,,,,,,,,,,2,618.7731278676074,618.9731146796839,0.2,618.9731146796839,X,d,go,d,1,0.41107167140580714,,,,,,,,,,,,,,,,,,40,001,19,w,Bachelor Psychologie 100%,2023-01-18_10h27.13.918,00_bat_bachelor,2022.2.4,59.962176604102844,
,,,,1,0,1,0,3,0,3,0,,,,,,,,,,,,,,,3,620.0907558348263,620.2909399801865,0.2,620.2909399801865,Y,l,go,l,1,0.3097054176032543,,,,,,,,,,,,,,,,,,40,001,19,w,Bachelor Psychologie 100%,2023-01-18_10h27.13.918,00_bat_bachelor,2022.2.4,59.962176604102844,
,,,,1,0,1,0,4,0,4,0,,,,,,,,,,,,,,,4,621.3080255476525,621.5083173293388,0.2,621.5083173293388,X,d,go,d,1,0.4360432957764715,,,,,,,,,,,,,,,,,,40,001,19,w,Bachelor Psychologie 100%,2023-01-18_10h27.13.918,00_bat_bachelor,2022.2.4,59.962176604102844,
,,,,1,0,1,0,5,0,5,0,,,,,,,,,,,,,,,5,622.6591065895045,622.8589993411442,0.2,622.8589993411442,X,None,nogo,None,1,,623.6597907104297,,,,,,,,,,,,,,,,,40,001,19,w,Bachelor Psychologie 100%,2023-01-18_10h27.13.918,00_bat_bachelor,2022.2.4,59.962176604102844,
,,,,1,0,1,0,6,0,6,0,,,,,,,,,,,,,,,6,624.2605254495284,624.4605806252221,0.2,624.4605806252221,Y,l,go,l,1,0.41207870130892843,,,,,,,,,,,,,,,,,,40,001,19,w,Bachelor Psychologie 100%,2023-01-18_10h27.13.918,00_bat_bachelor,2022.2.4,59.962176604102844,
,,,,1,0,1,0,7,0,7,0,,,,,,,,,,,,,,,7,625.5780947500607,625.7781984106405,0.2,625.7781984106405,X,d,go,d,1,0.40520161378663033,,,,,,,,,,,,,,,,,,40,001,19,w,Bachelor Psychologie 100%,2023-01-18_10h27.13.918,00_bat_bachelor,2022.2.4,59.962176604102844,
,,,,1,0,1,0,8,0,8,0,,,,,,,,,,,,,,,8,626.896007323172,627.0962913472904,0.2,627.0962913472904,Y,l,go,l,1,0.3201946245972067,,,,,,,,,,,,,,,,,,40,001,19,w,Bachelor Psychologie 100%,2023-01-18_10h27.13.918,00_bat_bachelor,2022.2.4,59.962176604102844,
,,,,1,0,1,0,9,0,9,0,,,,,,,,,,,,,,,9,628.1300455126911,628.330467718537,0.2,628.330467718537,Y,None,nogo,None,1,,629.1309996941127,,,,,,,,,,,,,,,,,40,001,19,w,Bachelor Psychologie 100%,2023-01-18_10h27.13.918,00_bat_bachelor,2022.2.4,59.962176604102844,
,,,,1,0,1,0,10,0,10,0,,,,,,,,,,,,,,,10,629.7313528575469,629.9315976089565,0.2,629.9315976089565,X,d,go,d,1,0.3809688981855288,,,,,,,,,,,,,,,,,,40,001,19,w,Bachelor Psychologie 100%,2023-01-18_10h27.13.918,00_bat_bachelor,2022.2.4,59.962176604102844,
,,,,1,0,1,0,11,0,11,0,,,,,,,,,,,,,,,11,631.0157624166459,631.2157506833319,0.2,631.2157506833319,Y,l,go,l,1,0.2792104020481929,,,,,,,,,,,,,,,,,,40,001,19,w,Bachelor Psychologie 100%,2023-01-18_10h27.13.918,00_bat_bachelor,2022.2.4,59.962176604102844,
,,,,1,0,1,0,12,0,12,0,,,,,,,,,,,,,,,12,632.2166137131862,632.416865252424,0.2,632.416865252424,X,d,go,d,1,0.5511283308733255,,,,,,,,,,,,,,,,,,40,001,19,w,Bachelor Psychologie 100%,2023-01-18_10h27.13.918,00_bat_bachelor,2022.2.4,59.962176604102844,
,,,,1,0,1,0,13,0,13,0,,,,,,,,,,,,,,,13,633.6842163956026,633.8840504804393,0.2,633.8840504804393,Y,l,go,l,1,0.3958222243236378,,,,,,,,,,,,,,,,,,40,001,19,w,Bachelor Psychologie 100%,2023-01-18_10h27.13.918,00_bat_bachelor,2022.2.4,59.962176604102844,
,,,,1,0,1,0,14,0,14,0,,,,,,,,,,,,,,,14,634.9851684920723,635.1853676676983,0.2,635.1853676676983,X,d,go,d,1,0.3424069774337113,,,,,,,,,,,,,,,,,,40,001,19,w,Bachelor Psychologie 100%,2023-01-18_10h27.13.918,00_bat_bachelor,2022.2.4,59.962176604102844,
,,,,,,,,,,,,,,,,,,,,,,,,,,,,,,,,,,,,,,636.2656134470599,None,,636.2656134470599,636.2656134470599,j,5.969192128162831,,,,,,,,,,40,001,19,w,Bachelor Psychologie 100%,2023-01-18_10h27.13.918,00_bat_bachelor,2022.2.4,59.962176604102844,
,,,,,,,,,,,,0,0,0,0,0,0,0,0,,,,,,,0,,,1,643.2578917538049,X,d,go,d,1,0.41399676096625626,,,,,,,,,,,,,,,,,,40,001,19,w,Bachelor Psychologie 100%,2023-01-18_10h27.13.918,00_bat_bachelor,2022.2.4,59.962176604102844,
,,,,,,,,,,,,0,0,0,0,1,0,1,0,,,,,,,1,,,1,644.7759715026477,Y,l,go,l,1,0.3196365643525496,,,,,,,,,,,,,,,,,,40,001,19,w,Bachelor Psychologie 100%,2023-01-18_10h27.13.918,00_bat_bachelor,2022.2.4,59.962176604102844,
,,,,,,,,,,,,0,0,0,0,2,0,2,0,,,,,,,2,,,1,646.2103780797916,X,d,go,d,1,0.42198706010822207,,,,,,,,,,,,,,,,,,40,001,19,w,Bachelor Psychologie 100%,2023-01-18_10h27.13.918,00_bat_bachelor,2022.2.4,59.962176604102844,
,,,,,,,,,,,,0,0,0,0,3,0,3,0,,,,,,,3,,,1,647.7448132146383,X,None,nogo,None,1,,,,,,,,,,,,,,,,,,,40,001,19,w,Bachelor Psychologie 100%,2023-01-18_10h27.13.918,00_bat_bachelor,2022.2.4,59.962176604102844,
,,,,,,,,,,,,0,0,0,0,4,0,4,0,,,,,,,4,,,1,649.5462280987995,Y,l,go,l,1,0.5094110177597031,,,,,,,,,,,,,,,,,,40,001,19,w,Bachelor Psychologie 100%,2023-01-18_10h27.13.918,00_bat_bachelor,2022.2.4,59.962176604102844,
,,,,,,,,,,,,0,0,0,0,5,0,5,0,,,,,,,5,,,1,651.1641526477179,X,d,go,d,1,0.3960762849310413,,,,,,,,,,,,,,,,,,40,001,19,w,Bachelor Psychologie 100%,2023-01-18_10h27.13.918,00_bat_bachelor,2022.2.4,59.962176604102844,
,,,,,,,,,,,,0,0,0,0,6,0,6,0,,,,,,,6,,,1,652.665382950101,Y,l,go,l,1,0.39844282914418727,,,,,,,,,,,,,,,,,,40,001,19,w,Bachelor Psychologie 100%,2023-01-18_10h27.13.918,00_bat_bachelor,2022.2.4,59.962176604102844,
,,,,,,,,,,,,0,0,0,0,7,0,7,0,,,,,,,7,,,1,654.1665279192384,Y,None,nogo,None,1,,,,,,,,,,,,,,,,,,,40,001,19,w,Bachelor Psychologie 100%,2023-01-18_10h27.13.918,00_bat_bachelor,2022.2.4,59.962176604102844,
,,,,,,,,,,,,0,0,0,0,8,0,8,0,,,,,,,8,,,1,655.9679205004359,X,d,go,d,1,0.3925145895918831,,,,,,,,,,,,,,,,,,40,001,19,w,Bachelor Psychologie 100%,2023-01-18_10h27.13.918,00_bat_bachelor,2022.2.4,59.962176604102844,
,,,,,,,,,,,,0,0,0,0,9,0,9,0,,,,,,,9,,,1,657.4690698331688,Y,l,go,l,1,0.36335290665738285,,,,,,,,,,,,,,,,,,40,001,19,w,Bachelor Psychologie 100%,2023-01-18_10h27.13.918,00_bat_bachelor,2022.2.4,59.962176604102844,
,,,,,,,,,,,,0,0,0,0,10,0,10,0,,,,,,,10,,,1,658.9367370003602,X,d,go,d,1,0.4153591846115887,,,,,,,,,,,,,,,,,,40,001,19,w,Bachelor Psychologie 100%,2023-01-18_10h27.13.918,00_bat_bachelor,2022.2.4,59.962176604102844,
,,,,,,,,,,,,0,0,0,0,11,0,11,0,,,,,,,11,,,1,660.4543226888636,X,None,nogo,d,0,0.5452126973541453,,,,,,,,,,,,,,,,,,40,001,19,w,Bachelor Psychologie 100%,2023-01-18_10h27.13.918,00_bat_bachelor,2022.2.4,59.962176604102844,
,,,,,,,,,,,,0,0,0,0,12,0,12,0,,,,,,,12,,,1,662.1059228577651,Y,l,go,l,1,0.4935749042779207,,,,,,,,,,,,,,,,,,40,001,19,w,Bachelor Psychologie 100%,2023-01-18_10h27.13.918,00_bat_bachelor,2022.2.4,59.962176604102844,
,,,,,,,,,,,,0,0,0,0,13,0,13,0,,,,,,,13,,,1,663.7071385663003,X,d,go,d,1,0.5724921992514282,,,,,,,,,,,,,,,,,,40,001,19,w,Bachelor Psychologie 100%,2023-01-18_10h27.13.918,00_bat_bachelor,2022.2.4,59.962176604102844,
,,,,,,,,,,,,0,0,0,0,14,0,14,0,,,,,,,14,,,1,665.3916221131803,Y,l,go,l,1,0.456313346629031,,,,,,,,,,,,,,,,,,40,001,19,w,Bachelor Psychologie 100%,2023-01-18_10h27.13.918,00_bat_bachelor,2022.2.4,59.962176604102844,
,,,,,,,,,,,,0,0,0,0,15,0,15,0,,,,,,,15,,,1,666.9599622013047,Y,None,nogo,None,1,,667.7601911466336,,,,,,,,,,,,,,,,,40,001,19,w,Bachelor Psychologie 100%,2023-01-18_10h27.13.918,00_bat_bachelor,2022.2.4,59.962176604102844,
,,,,,,,,,,,,0,0,0,0,16,0,16,0,,,,,,,16,,,1,668.7608907825779,X,d,go,d,1,0.35159824579022825,,,,,,,,,,,,,,,,,,40,001,19,w,Bachelor Psychologie 100%,2023-01-18_10h27.13.918,00_bat_bachelor,2022.2.4,59.962176604102844,
,,,,,,,,,,,,0,0,0,0,17,0,17,0,,,,,,,17,,,1,670.2285914043896,Y,l,go,l,1,0.41942512209061533,,,,,,,,,,,,,,,,,,40,001,19,w,Bachelor Psychologie 100%,2023-01-18_10h27.13.918,00_bat_bachelor,2022.2.4,59.962176604102844,
,,,,,,,,,,,,0,0,0,0,18,0,18,0,,,,,,,18,,,1,671.7631390239112,Y,None,nogo,None,1,,,,,,,,,,,,,,,,,,,40,001,19,w,Bachelor Psychologie 100%,2023-01-18_10h27.13.918,00_bat_bachelor,2022.2.4,59.962176604102844,
,,,,,,,,,,,,0,0,0,0,19,0,19,0,,,,,,,19,,,1,673.5646751201712,X,d,go,d,1,0.2194135825848207,,,,,,,,,,,,,,,,,,40,001,19,w,Bachelor Psychologie 100%,2023-01-18_10h27.13.918,00_bat_bachelor,2022.2.4,59.962176604102844,
,,,,,,,,,,,,0,0,0,0,20,0,20,0,,,,,,,20,,,1,674.9160431922646,Y,l,go,l,1,0.3076739034149796,,,,,,,,,,,,,,,,,,40,001,19,w,Bachelor Psychologie 100%,2023-01-18_10h27.13.918,00_bat_bachelor,2022.2.4,59.962176604102844,
,,,,,,,,,,,,0,0,0,0,21,0,21,0,,,,,,,21,,,1,676.333923716913,X,d,go,d,1,0.36192745284643024,,,,,,,,,,,,,,,,,,40,001,19,w,Bachelor Psychologie 100%,2023-01-18_10h27.13.918,00_bat_bachelor,2022.2.4,59.962176604102844,
,,,,,,,,,,,,0,0,0,0,22,0,22,0,,,,,,,22,,,1,677.8012999751372,Y,l,go,l,1,0.3829393214546144,,,,,,,,,,,,,,,,,,40,001,19,w,Bachelor Psychologie 100%,2023-01-18_10h27.13.918,00_bat_bachelor,2022.2.4,59.962176604102844,
,,,,,,,,,,,,0,0,0,0,23,0,23,0,,,,,,,23,,,1,679.2857976796804,Y,None,nogo,None,1,,680.0863931702916,,,,,,,,,,,,,,,,,40,001,19,w,Bachelor Psychologie 100%,2023-01-18_10h27.13.918,00_bat_bachelor,2022.2.4,59.962176604102844,
,,,,,,,,,,,,0,0,0,0,24,0,24,0,,,,,,,24,,,1,681.0871602002298,X,d,go,d,1,0.4085189454490319,,,,,,,,,,,,,,,,,,40,001,19,w,Bachelor Psychologie 100%,2023-01-18_10h27.13.918,00_bat_bachelor,2022.2.4,59.962176604102844,
,,,,,,,,,,,,0,0,0,0,25,0,25,0,,,,,,,25,,,1,682.6051240703091,Y,l,go,l,1,0.3626493918709457,,,,,,,,,,,,,,,,,,40,001,19,w,Bachelor Psychologie 100%,2023-01-18_10h27.13.918,00_bat_bachelor,2022.2.4,59.962176604102844,
,,,,,,,,,,,,0,0,0,0,26,0,26,0,,,,,,,26,,,1,684.0726826314349,X,d,go,d,1,0.4794507898623124,,,,,,,,,,,,,,,,,,40,001,19,w,Bachelor Psychologie 100%,2023-01-18_10h27.13.918,00_bat_bachelor,2022.2.4,59.962176604102844,
,,,,,,,,,,,,0,0,0,0,27,0,27,0,,,,,,,27,,,1,685.6573761662003,Y,l,go,l,1,0.31906444334890693,,,,,,,,,,,,,,,,,,40,001,19,w,Bachelor Psychologie 100%,2023-01-18_10h27.13.918,00_bat_bachelor,2022.2.4,59.962176604102844,
,,,,,,,,,,,,0,0,0,0,28,0,28,0,,,,,,,28,,,1,687.0915417738724,X,d,go,d,1,0.37181205418892205,,,,,,,,,,,,,,,,,,40,001,19,w,Bachelor Psychologie 100%,2023-01-18_10h27.13.918,00_bat_bachelor,2022.2.4,59.962176604102844,
,,,,,,,,,,,,0,0,0,0,29,0,29,0,,,,,,,29,,,1,688.5761592357885,X,None,nogo,None,1,,689.3765947265783,,,,,,,,,,,,,,,,,40,001,19,w,Bachelor Psychologie 100%,2023-01-18_10h27.13.918,00_bat_bachelor,2022.2.4,59.962176604102844,
,,,,,,,,,,,,0,0,0,0,30,0,30,0,,,,,,,30,,,1,690.3775843018666,Y,l,go,l,1,0.36641617794521153,,,,,,,,,,,,,,,,,,40,001,19,w,Bachelor Psychologie 100%,2023-01-18_10h27.13.918,00_bat_bachelor,2022.2.4,59.962176604102844,
,,,,,,,,,,,,0,0,0,0,31,0,31,0,,,,,,,31,,,1,691.8453600750072,X,d,go,d,1,0.4661135842325166,,,,,,,,,,,,,,,,,,40,001,19,w,Bachelor Psychologie 100%,2023-01-18_10h27.13.918,00_bat_bachelor,2022.2.4,59.962176604102844,
,,,,,,,,,,,,0,0,0,0,32,0,32,0,,,,,,,32,,,1,693.413030102849,X,None,nogo,None,1,,694.2138025630265,,,,,,,,,,,,,,,,,40,001,19,w,Bachelor Psychologie 100%,2023-01-18_10h27.13.918,00_bat_bachelor,2022.2.4,59.962176604102844,
,,,,,,,,,,,,0,0,0,0,33,0,33,0,,,,,,,33,,,1,695.2145346838515,Y,l,go,l,1,0.4734260655241087,,,,,,,,,,,,,,,,,,40,001,19,w,Bachelor Psychologie 100%,2023-01-18_10h27.13.918,00_bat_bachelor,2022.2.4,59.962176604102844,
,,,,,,,,,,,,0,0,0,0,34,0,34,0,,,,,,,34,,,1,696.7989809459541,X,d,go,d,1,0.3935027102706954,,,,,,,,,,,,,,,,,,40,001,19,w,Bachelor Psychologie 100%,2023-01-18_10h27.13.918,00_bat_bachelor,2022.2.4,59.962176604102844,
,,,,,,,,,,,,0,0,0,0,35,0,35,0,,,,,,,35,,,1,698.3003654301865,Y,l,go,l,1,0.28426155110355467,,,,,,,,,,,,,,,,,,40,001,19,w,Bachelor Psychologie 100%,2023-01-18_10h27.13.918,00_bat_bachelor,2022.2.4,59.962176604102844,
,,,,,,,,,,,,0,0,0,0,36,0,36,0,,,,,,,36,,,1,699.7013068115339,Y,None,nogo,None,1,,,,,,,,,,,,,,,,,,,40,001,19,w,Bachelor Psychologie 100%,2023-01-18_10h27.13.918,00_bat_bachelor,2022.2.4,59.962176604102844,
,,,,,,,,,,,,0,0,0,0,37,0,37,0,,,,,,,37,,,1,701.5026504229754,X,d,go,None,0,,702.3031499136705,,,,,,,,,,,,,,,,,40,001,19,w,Bachelor Psychologie 100%,2023-01-18_10h27.13.918,00_bat_bachelor,2022.2.4,59.962176604102844,
,,,,,,,,,,,,0,0,0,0,38,0,38,0,,,,,,,38,,,1,703.3038956102682,Y,l,go,l,1,0.30422857182566077,,,,,,,,,,,,,,,,,,40,001,19,w,Bachelor Psychologie 100%,2023-01-18_10h27.13.918,00_bat_bachelor,2022.2.4,59.962176604102844,
,,,,,,,,,,,,0,0,0,0,39,0,39,0,,,,,,,39,,,1,704.7218333469937,X,d,go,d,1,0.3905019845115021,,,,,,,,,,,,,,,,,,40,001,19,w,Bachelor Psychologie 100%,2023-01-18_10h27.13.918,00_bat_bachelor,2022.2.4,59.962176604102844,
,,,,,,,,,,,,0,0,0,0,40,0,40,0,,,,,,,40,,,1,706.2227388011524,X,None,nogo,None,1,,707.0236974430736,,,,,,,,,,,,,,,,,40,001,19,w,Bachelor Psychologie 100%,2023-01-18_10h27.13.918,00_bat_bachelor,2022.2.4,59.962176604102844,
,,,,,,,,,,,,0,0,0,0,41,0,41,0,,,,,,,41,,,1,708.0243587760488,Y,l,go,l,1,0.30377426894847304,,,,,,,,,,,,,,,,,,40,001,19,w,Bachelor Psychologie 100%,2023-01-18_10h27.13.918,00_bat_bachelor,2022.2.4,59.962176604102844,
,,,,,,,,,,,,0,0,0,0,42,0,42,0,,,,,,,42,,,1,709.4419643918518,X,d,go,d,1,0.42292718088719994,,,,,,,,,,,,,,,,,,40,001,19,w,Bachelor Psychologie 100%,2023-01-18_10h27.13.918,00_bat_bachelor,2022.2.4,59.962176604102844,
,,,,,,,,,,,,0,0,0,0,43,0,43,0,,,,,,,43,,,1,710.97634813271,Y,l,go,l,1,0.26382907619699836,,,,,,,,,,,,,,,,,,40,001,19,w,Bachelor Psychologie 100%,2023-01-18_10h27.13.918,00_bat_bachelor,2022.2.4,59.962176604102844,
,,,,,,,,,,,,0,0,0,0,44,0,44,0,,,,,,,44,,,1,712.3441496513551,X,d,go,d,1,0.3038183901226148,,,,,,,,,,,,,,,,,,40,001,19,w,Bachelor Psychologie 100%,2023-01-18_10h27.13.918,00_bat_bachelor,2022.2.4,59.962176604102844,
,,,,,,,,,,,,0,0,0,0,45,0,45,0,,,,,,,45,,,1,713.7620956305182,Y,l,go,l,1,0.3584680606145412,,,,,,,,,,,,,,,,,,40,001,19,w,Bachelor Psychologie 100%,2023-01-18_10h27.13.918,00_bat_bachelor,2022.2.4,59.962176604102844,
,,,,,,,,,,,,0,0,0,0,46,0,46,0,,,,,,,46,,,1,715.2298413431272,X,d,go,d,1,0.33066783170215786,,,,,,,,,,,,,,,,,,40,001,19,w,Bachelor Psychologie 100%,2023-01-18_10h27.13.918,00_bat_bachelor,2022.2.4,59.962176604102844,
,,,,,,,,,,,,0,0,0,0,47,0,47,0,,,,,,,47,,,1,716.6641965265153,Y,l,go,l,1,0.4477790476521477,,,,,,,,,,,,,,,,,,40,001,19,w,Bachelor Psychologie 100%,2023-01-18_10h27.13.918,00_bat_bachelor,2022.2.4,59.962176604102844,
,,,,,,,,,,,,0,0,0,0,48,0,48,0,,,,,,,48,,,1,718.2153099562274,X,d,go,d,1,0.4007274340838194,,,,,,,,,,,,,,,,,,40,001,19,w,Bachelor Psychologie 100%,2023-01-18_10h27.13.918,00_bat_bachelor,2022.2.4,59.962176604102844,
,,,,,,,,,,,,0,0,0,0,49,0,49,0,,,,,,,49,,,1,719.7332389171934,Y,l,go,l,1,0.3709136303514242,,,,,,,,,,,,,,,,,,40,001,19,w,Bachelor Psychologie 100%,2023-01-18_10h27.13.918,00_bat_bachelor,2022.2.4,59.962176604102844,
,,,,,,,,,,,,0,0,0,0,50,0,50,0,,,,,,,50,,,1,721.2176992883906,X,d,go,d,1,0.5665566870011389,,,,,,,,,,,,,,,,,,40,001,19,w,Bachelor Psychologie 100%,2023-01-18_10h27.13.918,00_bat_bachelor,2022.2.4,59.962176604102844,
,,,,,,,,,,,,0,0,0,0,51,0,51,0,,,,,,,51,,,1,722.8856529039331,X,None,nogo,None,1,,,,,,,,,,,,,,,,,,,40,001,19,w,Bachelor Psychologie 100%,2023-01-18_10h27.13.918,00_bat_bachelor,2022.2.4,59.962176604102844,
,,,,,,,,,,,,0,0,0,0,52,0,52,0,,,,,,,52,,,1,724.686740030651,Y,l,go,l,1,0.2969136661849916,,,,,,,,,,,,,,,,,,40,001,19,w,Bachelor Psychologie 100%,2023-01-18_10h27.13.918,00_bat_bachelor,2022.2.4,59.962176604102844,
,,,,,,,,,,,,0,0,0,0,53,0,53,0,,,,,,,53,,,1,726.0879228664562,X,d,go,d,1,0.5280340389581397,,,,,,,,,,,,,,,,,,40,001,19,w,Bachelor Psychologie 100%,2023-01-18_10h27.13.918,00_bat_bachelor,2022.2.4,59.962176604102844,
,,,,,,,,,,,,0,0,0,0,54,0,54,0,,,,,,,54,,,1,727.7226915283827,Y,l,go,l,1,0.36475411825813353,,,,,,,,,,,,,,,,,,40,001,19,w,Bachelor Psychologie 100%,2023-01-18_10h27.13.918,00_bat_bachelor,2022.2.4,59.962176604102844,
,,,,,,,,,,,,0,0,0,0,55,0,55,0,,,,,,,55,,,1,729.1902171198744,Y,None,nogo,d,0,0.28925694269128144,,,,,,,,,,,,,,,,,,40,001,19,w,Bachelor Psychologie 100%,2023-01-18_10h27.13.918,00_bat_bachelor,2022.2.4,59.962176604102844,
,,,,,,,,,,,,0,0,0,0,56,0,56,0,,,,,,,56,,,1,730.5913698951481,X,d,go,d,1,0.3609209079295397,,,,,,,,,,,,,,,,,,40,001,19,w,Bachelor Psychologie 100%,2023-01-18_10h27.13.918,00_bat_bachelor,2022.2.4,59.962176604102844,
,,,,,,,,,,,,0,0,0,0,57,0,57,0,,,,,,,57,,,1,732.0591815471416,Y,l,go,l,1,0.3011371793691069,,,,,,,,,,,,,,,,,,40,001,19,w,Bachelor Psychologie 100%,2023-01-18_10h27.13.918,00_bat_bachelor,2022.2.4,59.962176604102844,
,,,,,,,,,,,,0,0,0,0,58,0,58,0,,,,,,,58,,,1,733.4770887384657,Y,None,nogo,None,1,,734.2777075017802,,,,,,,,,,,,,,,,,40,001,19,w,Bachelor Psychologie 100%,2023-01-18_10h27.13.918,00_bat_bachelor,2022.2.4,59.962176604102844,
,,,,,,,,,,,,0,0,0,0,59,0,59,0,,,,,,,59,,,1,735.2784362286329,X,d,go,d,1,0.28137234039604664,,,,,,,,,,,,,,,,,,40,001,19,w,Bachelor Psychologie 100%,2023-01-18_10h27.13.918,00_bat_bachelor,2022.2.4,59.962176604102844,
,,,,,,,,,,,,0,0,0,0,60,0,60,0,,,,,,,60,,,1,736.6626571333036,Y,l,go,l,1,0.4328481458360329,,,,,,,,,,,,,,,,,,40,001,19,w,Bachelor Psychologie 100%,2023-01-18_10h27.13.918,00_bat_bachelor,2022.2.4,59.962176604102844,
,,,,,,,,,,,,0,0,0,0,61,0,61,0,,,,,,,61,,,1,738.1973448740318,X,d,go,d,1,0.2902183966943994,,,,,,,,,,,,,,,,,,40,001,19,w,Bachelor Psychologie 100%,2023-01-18_10h27.13.918,00_bat_bachelor,2022.2.4,59.962176604102844,
,,,,,,,,,,,,0,0,0,0,62,0,62,0,,,,,,,62,,,1,739.5983347402653,Y,l,go,l,1,0.2819817947456613,,,,,,,,,,,,,,,,,,40,001,19,w,Bachelor Psychologie 100%,2023-01-18_10h27.13.918,00_bat_bachelor,2022.2.4,59.962176604102844,
,,,,,,,,,,,,0,0,0,0,63,0,63,0,,,,,,,63,,,1,740.9827602508012,X,d,go,d,1,0.38494174485094845,,,,,,,,,,,,,,,,,,40,001,19,w,Bachelor Psychologie 100%,2023-01-18_10h27.13.918,00_bat_bachelor,2022.2.4,59.962176604102844,
,,,,,,,,,,,,0,0,0,0,64,0,64,0,,,,,,,64,,,1,742.4837170988321,Y,l,go,l,1,0.2602019264595583,,,,,,,,,,,,,,,,,,40,001,19,w,Bachelor Psychologie 100%,2023-01-18_10h27.13.918,00_bat_bachelor,2022.2.4,59.962176604102844,
,,,,,,,,,,,,0,0,0,0,65,0,65,0,,,,,,,65,,,1,743.8514420114225,X,d,go,d,1,0.25239732419140637,,,,,,,,,,,,,,,,,,40,001,19,w,Bachelor Psychologie 100%,2023-01-18_10h27.13.918,00_bat_bachelor,2022.2.4,59.962176604102844,
,,,,,,,,,,,,0,0,0,0,66,0,66,0,,,,,,,66,,,1,745.2191552877193,X,None,nogo,None,1,,,,,,,,,,,,,,,,,,,40,001,19,w,Bachelor Psychologie 100%,2023-01-18_10h27.13.918,00_bat_bachelor,2022.2.4,59.962176604102844,
,,,,,,,,,,,,0,0,0,0,67,0,67,0,,,,,,,67,,,1,747.0203287174227,X,None,nogo,None,1,,,,,,,,,,,,,,,,,,,40,001,19,w,Bachelor Psychologie 100%,2023-01-18_10h27.13.918,00_bat_bachelor,2022.2.4,59.962176604102844,
,,,,,,,,,,,,0,0,0,0,68,0,68,0,,,,,,,68,,,1,748.8220340256812,Y,l,go,l,1,0.40217761509120464,,,,,,,,,,,,,,,,,,40,001,19,w,Bachelor Psychologie 100%,2023-01-18_10h27.13.918,00_bat_bachelor,2022.2.4,59.962176604102844,
,,,,,,,,,,,,0,0,0,0,69,0,69,0,,,,,,,69,,,1,750.3398088049144,X,d,go,d,1,0.38880889443680644,,,,,,,,,,,,,,,,,,40,001,19,w,Bachelor Psychologie 100%,2023-01-18_10h27.13.918,00_bat_bachelor,2022.2.4,59.962176604102844,
,,,,,,,,,,,,0,0,0,0,70,0,70,0,,,,,,,70,,,1,751.8406008045422,Y,l,go,l,1,0.27946979587431997,,,,,,,,,,,,,,,,,,40,001,19,w,Bachelor Psychologie 100%,2023-01-18_10h27.13.918,00_bat_bachelor,2022.2.4,59.962176604102844,
,,,,,,,,,,,,0,0,0,0,71,0,71,0,,,,,,,71,,,1,753.2253409817349,Y,None,nogo,None,1,,,,,,,,,,,,,,,,,,,40,001,19,w,Bachelor Psychologie 100%,2023-01-18_10h27.13.918,00_bat_bachelor,2022.2.4,59.962176604102844,
,,,,,,,,,,,,0,0,0,0,72,0,72,0,,,,,,,72,,,1,755.0263447145699,X,d,go,d,1,0.2768676152918488,,,,,,,,,,,,,,,,,,40,001,19,w,Bachelor Psychologie 100%,2023-01-18_10h27.13.918,00_bat_bachelor,2022.2.4,59.962176604102844,
,,,,,,,,,,,,0,0,0,0,73,0,73,0,,,,,,,73,,,1,756.4109859826276,Y,l,go,l,1,0.39722586004063487,,,,,,,,,,,,,,,,,,40,001,19,w,Bachelor Psychologie 100%,2023-01-18_10h27.13.918,00_bat_bachelor,2022.2.4,59.962176604102844,
,,,,,,,,,,,,0,0,0,0,74,0,74,0,,,,,,,74,,,1,757.9121222244576,X,d,go,d,1,0.2871609437279403,,,,,,,,,,,,,,,,,,40,001,19,w,Bachelor Psychologie 100%,2023-01-18_10h27.13.918,00_bat_bachelor,2022.2.4,59.962176604102844,
,,,,,,,,,,,,0,0,0,0,75,0,75,0,,,,,,,75,,,1,759.3132114845794,Y,l,go,l,1,0.2620768346823752,,,,,,,,,,,,,,,,,,40,001,19,w,Bachelor Psychologie 100%,2023-01-18_10h27.13.918,00_bat_bachelor,2022.2.4,59.962176604102844,
,,,,,,,,,,,,0,0,0,0,76,0,76,0,,,,,,,76,,,1,760.6808243972482,X,d,go,d,1,0.3031774207483977,,,,,,,,,,,,,,,,,,40,001,19,w,Bachelor Psychologie 100%,2023-01-18_10h27.13.918,00_bat_bachelor,2022.2.4,59.962176604102844,
,,,,,,,,,,,,0,0,0,0,77,0,77,0,,,,,,,77,,,1,762.0987640733365,X,None,nogo,l,0,0.27779852400999516,,,,,,,,,,,,,,,,,,40,001,19,w,Bachelor Psychologie 100%,2023-01-18_10h27.13.918,00_bat_bachelor,2022.2.4,59.962176604102844,
,,,,,,,,,,,,0,0,0,0,78,0,78,0,,,,,,,78,,,1,763.4831701900112,X,None,nogo,None,1,,764.2834098020103,,,,,,,,,,,,,,,,,40,001,19,w,Bachelor Psychologie 100%,2023-01-18_10h27.13.918,00_bat_bachelor,2022.2.4,59.962176604102844,
,,,,,,,,,,,,0,0,0,0,79,0,79,0,,,,,,,79,,,1,765.2841841046466,Y,l,go,l,1,0.40403506881557405,,,,,,,,,,,,,,,,,,40,001,19,w,Bachelor Psychologie 100%,2023-01-18_10h27.13.918,00_bat_bachelor,2022.2.4,59.962176604102844,
,,,,,,,,,,,,0,0,0,0,80,0,80,0,,,,,,,80,,,1,766.8022207019385,X,d,go,d,1,0.3576413943665102,,,,,,,,,,,,,,,,,,40,001,19,w,Bachelor Psychologie 100%,2023-01-18_10h27.13.918,00_bat_bachelor,2022.2.4,59.962176604102844,
,,,,,,,,,,,,0,0,0,0,81,0,81,0,,,,,,,81,,,1,768.2697540511144,Y,l,go,l,1,0.37791532394476235,,,,,,,,,,,,,,,,,,40,001,19,w,Bachelor Psychologie 100%,2023-01-18_10h27.13.918,00_bat_bachelor,2022.2.4,59.962176604102844,
,,,,,,,,,,,,0,0,0,0,82,0,82,0,,,,,,,82,,,1,769.7543395131361,X,d,go,d,1,0.4620219498174265,,,,,,,,,,,,,,,,,,40,001,19,w,Bachelor Psychologie 100%,2023-01-18_10h27.13.918,00_bat_bachelor,2022.2.4,59.962176604102844,
,,,,,,,,,,,,0,0,0,0,83,0,83,0,,,,,,,83,,,1,771.322507480043,Y,l,go,l,1,0.34856988361570984,,,,,,,,,,,,,,,,,,40,001,19,w,Bachelor Psychologie 100%,2023-01-18_10h27.13.918,00_bat_bachelor,2022.2.4,59.962176604102844,
,,,,,,,,,,,,0,0,0,0,84,0,84,0,,,,,,,84,,,1,772.7903055562638,X,d,go,d,1,0.38550901727285236,,,,,,,,,,,,,,,,,,40,001,19,w,Bachelor Psychologie 100%,2023-01-18_10h27.13.918,00_bat_bachelor,2022.2.4,59.962176604102844,
,,,,,,,,,,,,0,0,0,0,85,0,85,0,,,,,,,85,,,1,774.2914587678388,Y,l,go,l,1,0.3085335394134745,,,,,,,,,,,,,,,,,,40,001,19,w,Bachelor Psychologie 100%,2023-01-18_10h27.13.918,00_bat_bachelor,2022.2.4,59.962176604102844,
,,,,,,,,,,,,0,0,0,0,86,0,86,0,,,,,,,86,,,1,775.7094886257546,X,d,go,d,1,0.39476234605535865,,,,,,,,,,,,,,,,,,40,001,19,w,Bachelor Psychologie 100%,2023-01-18_10h27.13.918,00_bat_bachelor,2022.2.4,59.962176604102844,
,,,,,,,,,,,,0,0,0,0,87,0,87,0,,,,,,,87,,,1,777.2103858374758,X,None,nogo,None,1,,778.0111796309939,,,,,,,,,,,,,,,,,40,001,19,w,Bachelor Psychologie 100%,2023-01-18_10h27.13.918,00_bat_bachelor,2022.2.4,59.962176604102844,
,,,,,,,,,,,,0,0,0,0,88,0,88,0,,,,,,,88,,,1,779.0117095700698,Y,l,go,l,1,0.32310468377545476,,,,,,,,,,,,,,,,,,40,001,19,w,Bachelor Psychologie 100%,2023-01-18_10h27.13.918,00_bat_bachelor,2022.2.4,59.962176604102844,
,,,,,,,,,,,,0,0,0,0,89,0,89,0,,,,,,,89,,,1,780.4629728664877,X,d,go,d,1,0.376694475999102,,,,,,,,,,,,,,,,,,40,001,19,w,Bachelor Psychologie 100%,2023-01-18_10h27.13.918,00_bat_bachelor,2022.2.4,59.962176604102844,
,,,,,,,,,,,,0,0,0,0,90,0,90,0,,,,,,,90,,,1,781.9472223286284,X,None,nogo,None,1,,,,,,,,,,,,,,,,,,,40,001,19,w,Bachelor Psychologie 100%,2023-01-18_10h27.13.918,00_bat_bachelor,2022.2.4,59.962176604102844,
,,,,,,,,,,,,0,0,0,0,91,0,91,0,,,,,,,91,,,1,783.7485038795276,Y,l,go,d,0,0.3231075928779319,,,,,,,,,,,,,,,,,,40,001,19,w,Bachelor Psychologie 100%,2023-01-18_10h27.13.918,00_bat_bachelor,2022.2.4,59.962176604102844,
,,,,,,,,,,,,0,0,0,0,92,0,92,0,,,,,,,92,,,1,785.1829778506653,X,d,go,None,0,,785.983617462567,,,,,,,,,,,,,,,,,40,001,19,w,Bachelor Psychologie 100%,2023-01-18_10h27.13.918,00_bat_bachelor,2022.2.4,59.962176604102844,
,,,,,,,,,,,,0,0,0,0,93,0,93,0,,,,,,,93,,,1,786.9839680078439,X,None,nogo,None,1,,,,,,,,,,,,,,,,,,,40,001,19,w,Bachelor Psychologie 100%,2023-01-18_10h27.13.918,00_bat_bachelor,2022.2.4,59.962176604102844,
,,,,,,,,,,,,0,0,0,0,94,0,94,0,,,,,,,94,,,1,788.785671861493,Y,l,go,l,1,0.374375446815975,,,,,,,,,,,,,,,,,,40,001,19,w,Bachelor Psychologie 100%,2023-01-18_10h27.13.918,00_bat_bachelor,2022.2.4,59.962176604102844,
,,,,,,,,,,,,0,0,0,0,95,0,95,0,,,,,,,95,,,1,790.2701147781918,X,d,go,d,1,0.2820472491439432,,,,,,,,,,,,,,,,,,40,001,19,w,Bachelor Psychologie 100%,2023-01-18_10h27.13.918,00_bat_bachelor,2022.2.4,59.962176604102844,
,,,,,,,,,,,,0,0,0,0,96,0,96,0,,,,,,,96,,,1,791.6542309555225,X,None,nogo,None,1,,,,,,,,,,,,,,,,,,,40,001,19,w,Bachelor Psychologie 100%,2023-01-18_10h27.13.918,00_bat_bachelor,2022.2.4,59.962176604102844,
,,,,,,,,,,,,0,0,0,0,97,0,97,0,,,,,,,97,,,1,793.455979415332,X,None,nogo,None,1,,,,,,,,,,,,,,,,,,,40,001,19,w,Bachelor Psychologie 100%,2023-01-18_10h27.13.918,00_bat_bachelor,2022.2.4,59.962176604102844,
,,,,,,,,,,,,0,0,0,0,98,0,98,0,,,,,,,98,,,1,795.2570020572748,Y,l,go,l,1,0.25424265663605183,,,,,,,,,,,,,,,,,,40,001,19,w,Bachelor Psychologie 100%,2023-01-18_10h27.13.918,00_bat_bachelor,2022.2.4,59.962176604102844,
,,,,,,,,,,,,0,0,0,0,99,0,99,0,,,,,,,99,,,1,796.624901030329,X,d,go,d,1,0.5030502935405821,,,,,,,,,,,,,,,,,,40,001,19,w,Bachelor Psychologie 100%,2023-01-18_10h27.13.918,00_bat_bachelor,2022.2.4,59.962176604102844,
,,,,,,,,,,,,0,0,0,0,100,0,100,0,,,,,,,100,,,1,798.2429904276505,Y,l,go,l,1,0.2775876149535179,,,,,,,,,,,,,,,,,,40,001,19,w,Bachelor Psychologie 100%,2023-01-18_10h27.13.918,00_bat_bachelor,2022.2.4,59.962176604102844,
,,,,,,,,,,,,0,0,0,0,101,0,101,0,,,,,,,101,,,1,799.6272370292572,X,d,go,d,1,0.4289485113695264,,,,,,,,,,,,,,,,,,40,001,19,w,Bachelor Psychologie 100%,2023-01-18_10h27.13.918,00_bat_bachelor,2022.2.4,59.962176604102844,
,,,,,,,,,,,,0,0,0,0,102,0,102,0,,,,,,,102,,,1,801.161760891322,Y,l,go,l,1,0.3345941328443587,,,,,,,,,,,,,,,,,,40,001,19,w,Bachelor Psychologie 100%,2023-01-18_10h27.13.918,00_bat_bachelor,2022.2.4,59.962176604102844,
,,,,,,,,,,,,0,0,0,0,103,0,103,0,,,,,,,103,,,1,802.6127856422681,X,d,go,d,1,0.43537178088445216,,,,,,,,,,,,,,,,,,40,001,19,w,Bachelor Psychologie 100%,2023-01-18_10h27.13.918,00_bat_bachelor,2022.2.4,59.962176604102844,
,,,,,,,,,,,,0,0,0,0,104,0,104,0,,,,,,,104,,,1,804.1637342236936,X,None,nogo,None,1,,,,,,,,,,,,,,,,,,,40,001,19,w,Bachelor Psychologie 100%,2023-01-18_10h27.13.918,00_bat_bachelor,2022.2.4,59.962176604102844,
,,,,,,,,,,,,0,0,0,0,105,0,105,0,,,,,,,105,,,1,805.9651432896499,Y,l,go,l,1,0.31404965789988637,,,,,,,,,,,,,,,,,,40,001,19,w,Bachelor Psychologie 100%,2023-01-18_10h27.13.918,00_bat_bachelor,2022.2.4,59.962176604102844,
,,,,,,,,,,,,0,0,0,0,106,0,106,0,,,,,,,106,,,1,807.3832730263239,X,d,go,d,1,0.28925985179375857,,,,,,,,,,,,,,,,,,40,001,19,w,Bachelor Psychologie 100%,2023-01-18_10h27.13.918,00_bat_bachelor,2022.2.4,59.962176604102844,
,,,,,,,,,,,,0,0,0,0,107,0,107,0,,,,,,,107,,,1,808.7840068925871,X,None,nogo,None,1,,,,,,,,,,,,,,,,,,,40,001,19,w,Bachelor Psychologie 100%,2023-01-18_10h27.13.918,00_bat_bachelor,2022.2.4,59.962176604102844,
,,,,,,,,,,,,0,0,0,0,108,0,108,0,,,,,,,108,,,1,810.5856932918541,Y,l,go,l,1,0.2865975499153137,,,,,,,,,,,,,,,,,,40,001,19,w,Bachelor Psychologie 100%,2023-01-18_10h27.13.918,00_bat_bachelor,2022.2.4,59.962176604102844,
,,,,,,,,,,,,0,0,0,0,109,0,109,0,,,,,,,109,,,1,811.9867219458101,X,d,go,d,1,0.35747266723774374,,,,,,,,,,,,,,,,,,40,001,19,w,Bachelor Psychologie 100%,2023-01-18_10h27.13.918,00_bat_bachelor,2022.2.4,59.962176604102844,
,,,,,,,,,,,,0,0,0,0,110,0,110,0,,,,,,,110,,,1,813.4545491129393,Y,l,go,l,1,0.26546156022232026,,,,,,,,,,,,,,,,,,40,001,19,w,Bachelor Psychologie 100%,2023-01-18_10h27.13.918,00_bat_bachelor,2022.2.4,59.962176604102844,
,,,,,,,,,,,,0,0,0,0,111,0,111,0,,,,,,,111,,,1,814.8225678435992,Y,None,nogo,d,0,0.2736521017504856,,,,,,,,,,,,,,,,,,40,001,19,w,Bachelor Psychologie 100%,2023-01-18_10h27.13.918,00_bat_bachelor,2022.2.4,59.962176604102844,
,,,,,,,,,,,,0,0,0,0,112,0,112,0,,,,,,,112,,,1,816.2065409908537,X,d,go,d,1,0.4259128763806075,,,,,,,,,,,,,,,,,,40,001,19,w,Bachelor Psychologie 100%,2023-01-18_10h27.13.918,00_bat_bachelor,2022.2.4,59.962176604102844,
,,,,,,,,,,,,0,0,0,0,113,0,113,0,,,,,,,113,,,1,817.7411244892282,Y,l,go,l,1,0.4426095956005156,,,,,,,,,,,,,,,,,,40,001,19,w,Bachelor Psychologie 100%,2023-01-18_10h27.13.918,00_bat_bachelor,2022.2.4,59.962176604102844,
,,,,,,,,,,,,0,0,0,0,114,0,114,0,,,,,,,114,,,1,819.2920405856567,Y,None,nogo,None,1,,,,,,,,,,,,,,,,,,,40,001,19,w,Bachelor Psychologie 100%,2023-01-18_10h27.13.918,00_bat_bachelor,2022.2.4,59.962176604102844,
,,,,,,,,,,,,0,0,0,0,115,0,115,0,,,,,,,115,,,1,821.093591227429,X,d,go,d,1,0.3379172827117145,,,,,,,,,,,,,,,,,,40,001,19,w,Bachelor Psychologie 100%,2023-01-18_10h27.13.918,00_bat_bachelor,2022.2.4,59.962176604102844,
,,,,,,,,,,,,0,0,0,0,116,0,116,0,,,,,,,116,,,1,822.5446082208073,Y,l,go,l,1,0.3911434387555346,,,,,,,,,,,,,,,,,,40,001,19,w,Bachelor Psychologie 100%,2023-01-18_10h27.13.918,00_bat_bachelor,2022.2.4,59.962176604102844,
,,,,,,,,,,,,0,0,0,0,117,0,117,0,,,,,,,117,,,1,824.0457294323714,X,d,go,d,1,0.31417038512881845,,,,,,,,,,,,,,,,,,40,001,19,w,Bachelor Psychologie 100%,2023-01-18_10h27.13.918,00_bat_bachelor,2022.2.4,59.962176604102844,
,,,,,,,,,,,,0,0,0,0,118,0,118,0,,,,,,,118,,,1,825.4636186843272,X,None,nogo,None,1,,,,,,,,,,,,,,,,,,,40,001,19,w,Bachelor Psychologie 100%,2023-01-18_10h27.13.918,00_bat_bachelor,2022.2.4,59.962176604102844,
,,,,,,,,,,,,0,0,0,0,119,0,119,0,,,,,,,119,,,1,827.2646573262755,Y,l,go,l,1,0.3107997201150283,,,,,,,,,,,,,,,,,,40,001,19,w,Bachelor Psychologie 100%,2023-01-18_10h27.13.918,00_bat_bachelor,2022.2.4,59.962176604102844,
,,,,,,,,,,,,0,0,0,0,120,0,120,0,,,,,,,120,,,1,828.6826993053546,X,d,go,d,1,0.3334072242723778,,,,,,,,,,,,,,,,,,40,001,19,w,Bachelor Psychologie 100%,2023-01-18_10h27.13.918,00_bat_bachelor,2022.2.4,59.962176604102844,
,,,,,,,,,,,,0,0,0,0,121,0,121,0,,,,,,,121,,,1,830.117213034071,X,None,nogo,None,1,,,,,,,,,,,,,,,,,,,40,001,19,w,Bachelor Psychologie 100%,2023-01-18_10h27.13.918,00_bat_bachelor,2022.2.4,59.962176604102844,
,,,,,,,,,,,,0,0,0,0,122,0,122,0,,,,,,,122,,,1,831.9185731303878,Y,l,go,l,1,0.2977970597567037,,,,,,,,,,,,,,,,,,40,001,19,w,Bachelor Psychologie 100%,2023-01-18_10h27.13.918,00_bat_bachelor,2022.2.4,59.962176604102844,
,,,,,,,,,,,,0,0,0,0,123,0,123,0,,,,,,,123,,,1,833.3197845722316,X,d,go,d,1,0.36779266223311424,,,,,,,,,,,,,,,,,,40,001,19,w,Bachelor Psychologie 100%,2023-01-18_10h27.13.918,00_bat_bachelor,2022.2.4,59.962176604102844,
,,,,,,,,,,,,0,0,0,0,124,0,124,0,,,,,,,124,,,1,834.8040975495242,Y,l,go,l,1,0.2921859109774232,,,,,,,,,,,,,,,,,,40,001,19,w,Bachelor Psychologie 100%,2023-01-18_10h27.13.918,00_bat_bachelor,2022.2.4,59.962176604102844,
,,,,,,,,,,,,0,0,0,0,125,0,125,0,,,,,,,125,,,1,836.2052372338949,Y,None,nogo,None,1,,,,,,,,,,,,,,,,,,,40,001,19,w,Bachelor Psychologie 100%,2023-01-18_10h27.13.918,00_bat_bachelor,2022.2.4,59.962176604102844,
,,,,,,,,,,,,0,0,0,0,126,0,126,0,,,,,,,126,,,1,838.0064552696422,X,d,go,d,1,0.30511390464380383,,,,,,,,,,,,,,,,,,40,001,19,w,Bachelor Psychologie 100%,2023-01-18_10h27.13.918,00_bat_bachelor,2022.2.4,59.962176604102844,
,,,,,,,,,,,,0,0,0,0,127,0,127,0,,,,,,,127,,,1,839.4242271883413,Y,l,go,l,1,0.32768892403692007,,,,,,,,,,,,,,,,,,40,001,19,w,Bachelor Psychologie 100%,2023-01-18_10h27.13.918,00_bat_bachelor,2022.2.4,59.962176604102844,
,,,,,,,,,,,,0,0,0,0,128,0,128,0,,,,,,,128,,,1,840.8587486746255,Y,None,nogo,None,1,,,,,,,,,,,,,,,,,,,40,001,19,w,Bachelor Psychologie 100%,2023-01-18_10h27.13.918,00_bat_bachelor,2022.2.4,59.962176604102844,
,,,,,,,,,,,,0,0,0,0,129,0,129,0,,,,,,,129,,,1,842.6597591952886,X,d,go,d,1,0.3394460092531517,,,,,,,,,,,,,,,,,,40,001,19,w,Bachelor Psychologie 100%,2023-01-18_10h27.13.918,00_bat_bachelor,2022.2.4,59.962176604102844,
,,,,,,,,,,,,0,0,0,0,130,0,130,0,,,,,,,130,,,1,844.1111500067636,Y,l,go,l,1,0.5055002317531034,,,,,,,,,,,,,,,,,,40,001,19,w,Bachelor Psychologie 100%,2023-01-18_10h27.13.918,00_bat_bachelor,2022.2.4,59.962176604102844,
,,,,,,,,,,,,0,0,0,0,131,0,131,0,,,,,,,131,,,1,845.7287855860777,X,d,go,d,1,0.3903264694381505,,,,,,,,,,,,,,,,,,40,001,19,w,Bachelor Psychologie 100%,2023-01-18_10h27.13.918,00_bat_bachelor,2022.2.4,59.962176604102844,
,,,,,,,,,,,,0,0,0,0,132,0,132,0,,,,,,,132,,,1,847.2299077673815,X,None,nogo,None,1,,,,,,,,,,,,,,,,,,,40,001,19,w,Bachelor Psychologie 100%,2023-01-18_10h27.13.918,00_bat_bachelor,2022.2.4,59.962176604102844,
,,,,,,,,,,,,0,0,0,0,133,0,133,0,,,,,,,133,,,1,849.0314986513695,Y,l,go,l,1,0.3522460031090304,,,,,,,,,,,,,,,,,,40,001,19,w,Bachelor Psychologie 100%,2023-01-18_10h27.13.918,00_bat_bachelor,2022.2.4,59.962176604102844,
,,,,,,,,,,,,0,0,0,0,134,0,134,0,,,,,,,134,,,1,850.4993287276011,X,d,go,d,1,0.4365746893454343,,,,,,,,,,,,,,,,,,40,001,19,w,Bachelor Psychologie 100%,2023-01-18_10h27.13.918,00_bat_bachelor,2022.2.4,59.962176604102844,
,,,,,,,,,,,,0,0,0,0,135,0,135,0,,,,,,,135,,,1,852.050302036223,X,None,nogo,None,1,,,,,,,,,,,,,,,,,,,40,001,19,w,Bachelor Psychologie 100%,2023-01-18_10h27.13.918,00_bat_bachelor,2022.2.4,59.962176604102844,
,,,,,,,,,,,,0,0,0,0,136,0,136,0,,,,,,,136,,,1,853.8516441931715,Y,l,go,l,1,0.315738384379074,,,,,,,,,,,,,,,,,,40,001,19,w,Bachelor Psychologie 100%,2023-01-18_10h27.13.918,00_bat_bachelor,2022.2.4,59.962176604102844,
,,,,,,,,,,,,0,0,0,0,137,0,137,0,,,,,,,137,,,1,855.2696197481127,X,d,go,d,1,0.4177058500936255,,,,,,,,,,,,,,,,,,40,001,19,w,Bachelor Psychologie 100%,2023-01-18_10h27.13.918,00_bat_bachelor,2022.2.4,59.962176604102844,
,,,,,,,,,,,,0,0,0,0,138,0,138,0,,,,,,,138,,,1,856.8041654282715,Y,l,go,l,1,0.38727338006719947,,,,,,,,,,,,,,,,,,40,001,19,w,Bachelor Psychologie 100%,2023-01-18_10h27.13.918,00_bat_bachelor,2022.2.4,59.962176604102844,
,,,,,,,,,,,,0,0,0,0,139,0,139,0,,,,,,,139,,,1,858.3053870034637,X,d,go,d,1,0.2941936675924808,,,,,,,,,,,,,,,,,,40,001,19,w,Bachelor Psychologie 100%,2023-01-18_10h27.13.918,00_bat_bachelor,2022.2.4,59.962176604102844,
,,,,,,,,,,,,0,0,0,0,140,0,140,0,,,,,,,140,,,1,859.7064428090816,X,None,nogo,None,1,,,,,,,,,,,,,,,,,,,40,001,19,w,Bachelor Psychologie 100%,2023-01-18_10h27.13.918,00_bat_bachelor,2022.2.4,59.962176604102844,
,,,,,,,,,,,,0,0,0,0,141,0,141,0,,,,,,,141,,,1,861.5074829055229,X,None,nogo,None,1,,,,,,,,,,,,,,,,,,,40,001,19,w,Bachelor Psychologie 100%,2023-01-18_10h27.13.918,00_bat_bachelor,2022.2.4,59.962176604102844,
,,,,,,,,,,,,0,0,0,0,142,0,142,0,,,,,,,142,,,1,863.3090476078214,Y,l,go,l,1,0.3626217555720359,,,,,,,,,,,,,,,,,,40,001,19,w,Bachelor Psychologie 100%,2023-01-18_10h27.13.918,00_bat_bachelor,2022.2.4,59.962176604102844,
,,,,,,,,,,,,0,0,0,0,143,0,143,0,,,,,,,143,,,1,864.7769591384567,X,d,go,d,1,0.2872094284975901,,,,,,,,,,,,,,,,,,40,001,19,w,Bachelor Psychologie 100%,2023-01-18_10h27.13.918,00_bat_bachelor,2022.2.4,59.962176604102844,
,,,,,,,,,,,,0,0,0,0,144,0,144,0,,,,,,,144,,,1,866.1780367621686,X,None,nogo,d,0,0.5826904973946512,,,,,,,,,,,,,,,,,,40,001,19,w,Bachelor Psychologie 100%,2023-01-18_10h27.13.918,00_bat_bachelor,2022.2.4,59.962176604102844,
,,,,,,,,,,,,0,0,0,0,145,0,145,0,,,,,,,145,,,1,867.8625809150981,Y,l,go,l,1,0.44888886518310755,,,,,,,,,,,,,,,,,,40,001,19,w,Bachelor Psychologie 100%,2023-01-18_10h27.13.918,00_bat_bachelor,2022.2.4,59.962176604102844,
,,,,,,,,,,,,0,0,0,0,146,0,146,0,,,,,,,146,,,1,869.4138422235847,X,d,go,d,1,0.6578109457623214,,,,,,,,,,,,,,,,,,40,001,19,w,Bachelor Psychologie 100%,2023-01-18_10h27.13.918,00_bat_bachelor,2022.2.4,59.962176604102844,
,,,,,,,,,,,,0,0,0,0,147,0,147,0,,,,,,,147,,,1,871.1818888814887,Y,l,go,l,1,0.31383050652220845,,,,,,,,,,,,,,,,,,40,001,19,w,Bachelor Psychologie 100%,2023-01-18_10h27.13.918,00_bat_bachelor,2022.2.4,59.962176604102844,
,,,,,,,,,,,,0,0,0,0,148,0,148,0,,,,,,,148,,,1,872.5995075881947,X,d,go,d,1,0.5763448034413159,,,,,,,,,,,,,,,,,,40,001,19,w,Bachelor Psychologie 100%,2023-01-18_10h27.13.918,00_bat_bachelor,2022.2.4,59.962176604102844,
,,,,,,,,,,,,0,0,0,0,149,0,149,0,,,,,,,149,,,1,874.2838660442503,Y,l,go,l,1,0.2994285741588101,,,,,,,,,,,,,,,,,,40,001,19,w,Bachelor Psychologie 100%,2023-01-18_10h27.13.918,00_bat_bachelor,2022.2.4,59.962176604102844,
,,,,,,,,,,,,0,0,0,0,150,0,150,0,,,,,,,150,,,1,875.6852050011512,X,d,go,d,1,0.4347133570117876,,,,,,,,,,,,,,,,,,40,001,19,w,Bachelor Psychologie 100%,2023-01-18_10h27.13.918,00_bat_bachelor,2022.2.4,59.962176604102844,
,,,,,,,,,,,,0,0,0,0,151,0,151,0,,,,,,,151,,,1,877.2364808550337,Y,l,go,l,1,0.243846055585891,,,,,,,,,,,,,,,,,,40,001,19,w,Bachelor Psychologie 100%,2023-01-18_10h27.13.918,00_bat_bachelor,2022.2.4,59.962176604102844,
,,,,,,,,,,,,0,0,0,0,152,0,152,0,,,,,,,152,,,1,878.5873587455135,X,d,go,d,1,0.5250507676973939,,,,,,,,,,,,,,,,,,40,001,19,w,Bachelor Psychologie 100%,2023-01-18_10h27.13.918,00_bat_bachelor,2022.2.4,59.962176604102844,
,,,,,,,,,,,,0,0,0,0,153,0,153,0,,,,,,,153,,,1,880.2219780741725,Y,l,go,l,1,0.34635412704665214,,,,,,,,,,,,,,,,,,40,001,19,w,Bachelor Psychologie 100%,2023-01-18_10h27.13.918,00_bat_bachelor,2022.2.4,59.962176604102844,
,,,,,,,,,,,,0,0,0,0,154,0,154,0,,,,,,,154,,,1,881.673077491927,X,d,go,d,1,0.5271472516469657,,,,,,,,,,,,,,,,,,40,001,19,w,Bachelor Psychologie 100%,2023-01-18_10h27.13.918,00_bat_bachelor,2022.2.4,59.962176604102844,
,,,,,,,,,,,,0,0,0,0,155,0,155,0,,,,,,,155,,,1,883.3077646993333,Y,l,go,None,0,,,,,,,,,,,,,,,,,,,40,001,19,w,Bachelor Psychologie 100%,2023-01-18_10h27.13.918,00_bat_bachelor,2022.2.4,59.962176604102844,
,,,,,,,,,,,,0,0,0,0,156,0,156,0,,,,,,,156,,,1,885.1089972804766,X,d,go,d,1,0.354732304927893,,,,,,,,,,,,,,,,,,40,001,19,w,Bachelor Psychologie 100%,2023-01-18_10h27.13.918,00_bat_bachelor,2022.2.4,59.962176604102844,
,,,,,,,,,,,,0,0,0,0,157,0,157,0,,,,,,,157,,,1,886.576816690038,Y,l,go,l,1,0.2625893192598596,,,,,,,,,,,,,,,,,,40,001,19,w,Bachelor Psychologie 100%,2023-01-18_10h27.13.918,00_bat_bachelor,2022.2.4,59.962176604102844,
,,,,,,,,,,,,0,0,0,0,158,0,158,0,,,,,,,158,,,1,887.9442875421373,X,d,go,d,1,0.33485401154030114,,,,,,,,,,,,,,,,,,40,001,19,w,Bachelor Psychologie 100%,2023-01-18_10h27.13.918,00_bat_bachelor,2022.2.4,59.962176604102844,
,,,,,,,,,,,,0,0,0,0,159,0,159,0,,,,,,,159,,,1,889.3957467172295,Y,l,go,l,1,0.3728573869448155,,,,,,,,,,,,,,,,,,40,001,19,w,Bachelor Psychologie 100%,2023-01-18_10h27.13.918,00_bat_bachelor,2022.2.4,59.962176604102844,
,,,,,,,,,,,,0,0,0,0,160,0,160,0,,,,,,,160,,,1,890.8801183612086,X,d,go,d,1,0.29559633356984705,,,,,,,,,,,,,,,,,,40,001,19,w,Bachelor Psychologie 100%,2023-01-18_10h27.13.918,00_bat_bachelor,2022.2.4,59.962176604102844,
,,,,,,,,,,,,0,0,0,0,161,0,161,0,,,,,,,161,,,1,892.2809191365959,Y,l,go,l,1,0.2550213228678331,,,,,,,,,,,,,,,,,,40,001,19,w,Bachelor Psychologie 100%,2023-01-18_10h27.13.918,00_bat_bachelor,2022.2.4,59.962176604102844,
,,,,,,,,,,,,0,0,0,0,162,0,162,0,,,,,,,162,,,1,893.6495570184197,X,d,go,d,1,0.32580334914382547,,,,,,,,,,,,,,,,,,40,001,19,w,Bachelor Psychologie 100%,2023-01-18_10h27.13.918,00_bat_bachelor,2022.2.4,59.962176604102844,
,,,,,,,,,,,,0,0,0,0,163,0,163,0,,,,,,,163,,,1,895.083787110867,Y,l,go,l,1,0.33162152813747525,,,,,,,,,,,,,,,,,,40,001,19,w,Bachelor Psychologie 100%,2023-01-18_10h27.13.918,00_bat_bachelor,2022.2.4,59.962176604102844,
,,,,,,,,,,,,0,0,0,0,164,0,164,0,,,,,,,164,,,1,896.5350877406308,X,d,go,d,1,0.27298640506342053,,,,,,,,,,,,,,,,,,40,001,19,w,Bachelor Psychologie 100%,2023-01-18_10h27.13.918,00_bat_bachelor,2022.2.4,59.962176604102844,
,,,,,,,,,,,,0,0,0,0,165,0,165,0,,,,,,,165,,,1,897.936220637057,X,None,nogo,None,1,,898.7366076428443,,,,,,,,,,,,,,,,,40,001,19,w,Bachelor Psychologie 100%,2023-01-18_10h27.13.918,00_bat_bachelor,2022.2.4,59.962176604102844,
,,,,,,,,,,,,0,0,0,0,166,0,166,0,,,,,,,166,,,1,899.7373843698297,Y,l,go,l,1,0.39796185959130526,,,,,,,,,,,,,,,,,,40,001,19,w,Bachelor Psychologie 100%,2023-01-18_10h27.13.918,00_bat_bachelor,2022.2.4,59.962176604102844,
,,,,,,,,,,,,0,0,0,0,167,0,167,0,,,,,,,167,,,1,901.2554447246948,X,d,go,d,1,0.3519327910616994,,,,,,,,,,,,,,,,,,40,001,19,w,Bachelor Psychologie 100%,2023-01-18_10h27.13.918,00_bat_bachelor,2022.2.4,59.962176604102844,
,,,,,,,,,,,,0,0,0,0,168,0,168,0,,,,,,,168,,,1,902.7398318836931,Y,l,go,l,1,0.2436928435927257,,,,,,,,,,,,,,,,,,40,001,19,w,Bachelor Psychologie 100%,2023-01-18_10h27.13.918,00_bat_bachelor,2022.2.4,59.962176604102844,
,,,,,,,,,,,,0,0,0,0,169,0,169,0,,,,,,,169,,,1,904.0908978953958,Y,None,nogo,l,0,0.5244733134750277,,,,,,,,,,,,,,,,,,40,001,19,w,Bachelor Psychologie 100%,2023-01-18_10h27.13.918,00_bat_bachelor,2022.2.4,59.962176604102844,
,,,,,,,,,,,,0,0,0,0,170,0,170,0,,,,,,,170,,,1,905.7421441250481,X,d,go,d,1,0.24966278008650988,,,,,,,,,,,,,,,,,,40,001,19,w,Bachelor Psychologie 100%,2023-01-18_10h27.13.918,00_bat_bachelor,2022.2.4,59.962176604102844,
,,,,,,,,,,,,0,0,0,0,171,0,171,0,,,,,,,171,,,1,907.1098433407024,Y,l,go,None,0,,907.9105755585479,,,,,,,,,,,,,,,,,40,001,19,w,Bachelor Psychologie 100%,2023-01-18_10h27.13.918,00_bat_bachelor,2022.2.4,59.962176604102844,
,,,,,,,,,,,,0,0,0,0,172,0,172,0,,,,,,,172,,,1,908.9112373763928,X,d,go,d,1,0.4407395359594375,,,,,,,,,,,,,,,,,,40,001,19,w,Bachelor Psychologie 100%,2023-01-18_10h27.13.918,00_bat_bachelor,2022.2.4,59.962176604102844,
,,,,,,,,,,,,0,0,0,0,173,0,173,0,,,,,,,173,,,1,910.4624351697275,X,None,nogo,d,0,0.4579191639786586,,,,,,,,,,,,,,,,,,40,001,19,w,Bachelor Psychologie 100%,2023-01-18_10h27.13.918,00_bat_bachelor,2022.2.4,59.962176604102844,
,,,,,,,,,,,,0,0,0,0,174,0,174,0,,,,,,,174,,,1,912.0302618035348,Y,l,go,l,1,0.4096428237389773,,,,,,,,,,,,,,,,,,40,001,19,w,Bachelor Psychologie 100%,2023-01-18_10h27.13.918,00_bat_bachelor,2022.2.4,59.962176604102844,
,,,,,,,,,,,,0,0,0,0,175,0,175,0,,,,,,,175,,,1,913.5647919686744,X,d,go,d,1,0.3313684375025332,,,,,,,,,,,,,,,,,,40,001,19,w,Bachelor Psychologie 100%,2023-01-18_10h27.13.918,00_bat_bachelor,2022.2.4,59.962176604102844,
,,,,,,,,,,,,0,0,0,0,176,0,176,0,,,,,,,176,,,1,914.9992276367266,X,None,nogo,None,1,,915.7996553699486,,,,,,,,,,,,,,,,,40,001,19,w,Bachelor Psychologie 100%,2023-01-18_10h27.13.918,00_bat_bachelor,2022.2.4,59.962176604102844,
,,,,,,,,,,,,0,0,0,0,177,0,177,0,,,,,,,177,,,1,916.8003307634499,Y,l,go,l,1,0.3429630984319374,,,,,,,,,,,,,,,,,,40,001,19,w,Bachelor Psychologie 100%,2023-01-18_10h27.13.918,00_bat_bachelor,2022.2.4,59.962176604102844,
,,,,,,,,,,,,0,0,0,0,178,0,178,0,,,,,,,178,,,1,918.2681778094266,X,d,go,d,1,0.3788365354994312,,,,,,,,,,,,,,,,,,40,001,19,w,Bachelor Psychologie 100%,2023-01-18_10h27.13.918,00_bat_bachelor,2022.2.4,59.962176604102844,
,,,,,,,,,,,,0,0,0,0,179,0,179,0,,,,,,,179,,,1,919.7692655664869,Y,l,go,l,1,0.3179948681499809,,,,,,,,,,,,,,,,,,40,001,19,w,Bachelor Psychologie 100%,2023-01-18_10h27.13.918,00_bat_bachelor,2022.2.4,59.962176604102844,
,,,,,,,,,,,,0,0,0,0,180,0,180,0,,,,,,,180,,,1,921.220401832601,X,d,go,d,1,0.35536260763183236,,,,,,,,,,,,,,,,,,40,001,19,w,Bachelor Psychologie 100%,2023-01-18_10h27.13.918,00_bat_bachelor,2022.2.4,59.962176604102844,
,,,,,,,,,,,,0,0,0,0,181,0,181,0,,,,,,,181,,,1,922.7050609914586,X,None,nogo,None,1,,923.505797573016,,,,,,,,,,,,,,,,,40,001,19,w,Bachelor Psychologie 100%,2023-01-18_10h27.13.918,00_bat_bachelor,2022.2.4,59.962176604102844,
,,,,,,,,,,,,0,0,0,0,182,0,182,0,,,,,,,182,,,1,924.5064589059912,Y,l,go,l,1,0.4125111859757453,,,,,,,,,,,,,,,,,,40,001,19,w,Bachelor Psychologie 100%,2023-01-18_10h27.13.918,00_bat_bachelor,2022.2.4,59.962176604102844,
,,,,,,,,,,,,0,0,0,0,183,0,183,0,,,,,,,183,,,1,926.0409536771476,X,d,go,d,1,0.46269637381192297,,,,,,,,,,,,,,,,,,40,001,19,w,Bachelor Psychologie 100%,2023-01-18_10h27.13.918,00_bat_bachelor,2022.2.4,59.962176604102844,
,,,,,,,,,,,,0,0,0,0,184,0,184,0,,,,,,,184,,,1,927.6254741209559,X,None,nogo,None,1,,928.4259464602219,,,,,,,,,,,,,,,,,40,001,19,w,Bachelor Psychologie 100%,2023-01-18_10h27.13.918,00_bat_bachelor,2022.2.4,59.962176604102844,
,,,,,,,,,,,,0,0,0,0,185,0,185,0,,,,,,,185,,,1,929.4268463385524,Y,l,go,l,1,0.4997964770300314,,,,,,,,,,,,,,,,,,40,001,19,w,Bachelor Psychologie 100%,2023-01-18_10h27.13.918,00_bat_bachelor,2022.2.4,59.962176604102844,
,,,,,,,,,,,,0,0,0,0,186,0,186,0,,,,,,,186,,,1,931.0447931904346,X,d,go,d,1,0.2743386469082907,,,,,,,,,,,,,,,,,,40,001,19,w,Bachelor Psychologie 100%,2023-01-18_10h27.13.918,00_bat_bachelor,2022.2.4,59.962176604102844,
,,,,,,,,,,,,0,0,0,0,187,0,187,0,,,,,,,187,,,1,932.4457956627011,Y,l,go,l,1,0.2969684541458264,,,,,,,,,,,,,,,,,,40,001,19,w,Bachelor Psychologie 100%,2023-01-18_10h27.13.918,00_bat_bachelor,2022.2.4,59.962176604102844,
,,,,,,,,,,,,0,0,0,0,188,0,188,0,,,,,,,188,,,1,933.8635554601206,X,d,go,d,1,0.3037214205833152,,,,,,,,,,,,,,,,,,40,001,19,w,Bachelor Psychologie 100%,2023-01-18_10h27.13.918,00_bat_bachelor,2022.2.4,59.962176604102844,
,,,,,,,,,,,,0,0,0,0,189,0,189,0,,,,,,,189,,,1,935.2979605828878,X,None,nogo,None,1,,936.0984120735666,,,,,,,,,,,,,,,,,40,001,19,w,Bachelor Psychologie 100%,2023-01-18_10h27.13.918,00_bat_bachelor,2022.2.4,59.962176604102844,
,,,,,,,,,,,,0,0,0,0,190,0,190,0,,,,,,,190,,,1,937.0990942550125,Y,l,go,l,1,0.3005597251467407,,,,,,,,,,,,,,,,,,40,001,19,w,Bachelor Psychologie 100%,2023-01-18_10h27.13.918,00_bat_bachelor,2022.2.4,59.962176604102844,
,,,,,,,,,,,,0,0,0,0,191,0,191,0,,,,,,,191,,,1,938.5001515151234,X,d,go,d,1,0.3871279255254194,,,,,,,,,,,,,,,,,,40,001,19,w,Bachelor Psychologie 100%,2023-01-18_10h27.13.918,00_bat_bachelor,2022.2.4,59.962176604102844,
,,,,,,,,,,,,0,0,0,0,192,0,192,0,,,,,,,192,,,1,940.0180305367103,X,None,nogo,None,1,,940.8189474818064,,,,,,,,,,,,,,,,,40,001,19,w,Bachelor Psychologie 100%,2023-01-18_10h27.13.918,00_bat_bachelor,2022.2.4,59.962176604102844,
,,,,,,,,,,,,0,0,0,0,193,0,193,0,,,,,,,193,,,1,941.8196582692908,Y,l,go,l,1,0.2671328322030604,,,,,,,,,,,,,,,,,,40,001,19,w,Bachelor Psychologie 100%,2023-01-18_10h27.13.918,00_bat_bachelor,2022.2.4,59.962176604102844,
,,,,,,,,,,,,0,0,0,0,194,0,194,0,,,,,,,194,,,1,943.2039266889915,X,d,go,d,1,0.3715938724344596,,,,,,,,,,,,,,,,,,40,001,19,w,Bachelor Psychologie 100%,2023-01-18_10h27.13.918,00_bat_bachelor,2022.2.4,59.962176604102844,
,,,,,,,,,,,,0,0,0,0,195,0,195,0,,,,,,,195,,,1,944.7051681430312,Y,l,go,l,1,0.29409621306695044,,,,,,,,,,,,,,,,,,40,001,19,w,Bachelor Psychologie 100%,2023-01-18_10h27.13.918,00_bat_bachelor,2022.2.4,59.962176604102844,
,,,,,,,,,,,,0,0,0,0,196,0,196,0,,,,,,,196,,,1,946.1228726677364,X,d,go,d,1,0.28531561128329486,,,,,,,,,,,,,,,,,,40,001,19,w,Bachelor Psychologie 100%,2023-01-18_10h27.13.918,00_bat_bachelor,2022.2.4,59.962176604102844,
,,,,,,,,,,,,0,0,0,0,197,0,197,0,,,,,,,197,,,1,947.5239182914374,X,None,nogo,None,1,,,,,,,,,,,,,,,,,,,40,001,19,w,Bachelor Psychologie 100%,2023-01-18_10h27.13.918,00_bat_bachelor,2022.2.4,59.962176604102844,
,,,,,,,,,,,,0,0,0,0,198,0,198,0,,,,,,,198,,,1,949.3253617816372,Y,l,go,l,1,0.24968799215275794,,,,,,,,,,,,,,,,,,40,001,19,w,Bachelor Psychologie 100%,2023-01-18_10h27.13.918,00_bat_bachelor,2022.2.4,59.962176604102844,
,,,,,,,,,,,,0,0,0,0,199,0,199,0,,,,,,,199,,,1,950.6930348154856,X,d,go,d,1,0.30639147979673,,,,,,,,,,,,,,,,,,40,001,19,w,Bachelor Psychologie 100%,2023-01-18_10h27.13.918,00_bat_bachelor,2022.2.4,59.962176604102844,
,,,,,,,,,,,,0,0,0,0,200,0,200,0,,,,,,,200,,,1,952.1271994535346,Y,l,go,l,1,0.28059076506178826,,,,,,,,,,,,,,,,,,40,001,19,w,Bachelor Psychologie 100%,2023-01-18_10h27.13.918,00_bat_bachelor,2022.2.4,59.962176604102844,
,,,,,,,,,,,,0,0,0,0,201,0,201,0,,,,,,,201,,,1,953.511652115616,X,d,go,d,1,0.28825912496540695,,,,,,,,,,,,,,,,,,40,001,19,w,Bachelor Psychologie 100%,2023-01-18_10h27.13.918,00_bat_bachelor,2022.2.4,59.962176604102844,
,,,,,,,,,,,,0,0,0,0,202,0,202,0,,,,,,,202,,,1,954.9129469513427,X,None,nogo,None,1,,955.713308260194,,,,,,,,,,,,,,,,,40,001,19,w,Bachelor Psychologie 100%,2023-01-18_10h27.13.918,00_bat_bachelor,2022.2.4,59.962176604102844,
,,,,,,,,,,,,0,0,0,0,203,0,203,0,,,,,,,203,,,1,956.7141009871848,Y,l,go,l,1,0.39730779943056405,,,,,,,,,,,,,,,,,,40,001,19,w,Bachelor Psychologie 100%,2023-01-18_10h27.13.918,00_bat_bachelor,2022.2.4,59.962176604102844,
,,,,,,,,,,,,0,0,0,0,204,0,204,0,,,,,,,204,,,1,958.231900008861,X,d,go,d,1,0.3203522003022954,,,,,,,,,,,,,,,,,,40,001,19,w,Bachelor Psychologie 100%,2023-01-18_10h27.13.918,00_bat_bachelor,2022.2.4,59.962176604102844,
,,,,,,,,,,,,0,0,0,0,205,0,205,0,,,,,,,205,,,1,959.6663652526913,Y,l,go,l,1,0.3088375391671434,,,,,,,,,,,,,,,,,,40,001,19,w,Bachelor Psychologie 100%,2023-01-18_10h27.13.918,00_bat_bachelor,2022.2.4,59.962176604102844,
,,,,,,,,,,,,0,0,0,0,206,0,206,0,,,,,,,206,,,1,961.1007616481511,X,d,go,d,1,0.41169179242569953,,,,,,,,,,,,,,,,,,40,001,19,w,Bachelor Psychologie 100%,2023-01-18_10h27.13.918,00_bat_bachelor,2022.2.4,59.962176604102844,
,,,,,,,,,,,,0,0,0,0,207,0,207,0,,,,,,,207,,,1,962.6186474576825,Y,l,go,l,1,0.25332096009515226,,,,,,,,,,,,,,,,,,40,001,19,w,Bachelor Psychologie 100%,2023-01-18_10h27.13.918,00_bat_bachelor,2022.2.4,59.962176604102844,
,,,,,,,,,,,,0,0,0,0,208,0,208,0,,,,,,,208,,,1,963.9860955219483,Y,None,nogo,None,1,,964.7867065276951,,,,,,,,,,,,,,,,,40,001,19,w,Bachelor Psychologie 100%,2023-01-18_10h27.13.918,00_bat_bachelor,2022.2.4,59.962176604102844,
,,,,,,,,,,,,0,0,0,0,209,0,209,0,,,,,,,209,,,1,965.7873969515786,X,d,go,d,1,0.30067172495182604,,,,,,,,,,,,,,,,,,40,001,19,w,Bachelor Psychologie 100%,2023-01-18_10h27.13.918,00_bat_bachelor,2022.2.4,59.962176604102844,
,,,,,,,,,,,,0,0,0,0,210,0,210,0,,,,,,,210,,,1,967.188648151001,Y,l,go,l,1,0.4511661974247545,,,,,,,,,,,,,,,,,,40,001,19,w,Bachelor Psychologie 100%,2023-01-18_10h27.13.918,00_bat_bachelor,2022.2.4,59.962176604102844,
,,,,,,,,,,,,0,0,0,0,211,0,211,0,,,,,,,211,,,1,968.7560597546399,X,d,go,d,1,0.483388242428191,,,,,,,,,,,,,,,,,,40,001,19,w,Bachelor Psychologie 100%,2023-01-18_10h27.13.918,00_bat_bachelor,2022.2.4,59.962176604102844,
,,,,,,,,,,,,0,0,0,0,212,0,212,0,,,,,,,212,,,1,970.3407523196656,Y,l,go,l,1,0.4835943030193448,,,,,,,,,,,,,,,,,,40,001,19,w,Bachelor Psychologie 100%,2023-01-18_10h27.13.918,00_bat_bachelor,2022.2.4,59.962176604102844,
,,,,,,,,,,,,0,0,0,0,213,0,213,0,,,,,,,213,,,1,971.9255147028016,Y,None,nogo,None,1,,972.7261329812463,,,,,,,,,,,,,,,,,40,001,19,w,Bachelor Psychologie 100%,2023-01-18_10h27.13.918,00_bat_bachelor,2022.2.4,59.962176604102844,
,,,,,,,,,,,,0,0,0,0,214,0,214,0,,,,,,,214,,,1,973.7267700718949,X,d,go,d,1,0.4091555511113256,,,,,,,,,,,,,,,,,,40,001,19,w,Bachelor Psychologie 100%,2023-01-18_10h27.13.918,00_bat_bachelor,2022.2.4,59.962176604102844,
,,,,,,,,,,,,0,0,0,0,215,0,215,0,,,,,,,215,,,1,975.244391154265,Y,l,go,l,1,0.2834470060188323,,,,,,,,,,,,,,,,,,40,001,19,w,Bachelor Psychologie 100%,2023-01-18_10h27.13.918,00_bat_bachelor,2022.2.4,59.962176604102844,
,,,,,,,,,,,,0,0,0,0,216,0,216,0,,,,,,,216,,,1,976.6289436951047,X,d,go,d,1,0.41893930407240987,,,,,,,,,,,,,,,,,,40,001,19,w,Bachelor Psychologie 100%,2023-01-18_10h27.13.918,00_bat_bachelor,2022.2.4,59.962176604102844,
,,,,,,,,,,,,0,0,0,0,217,0,217,0,,,,,,,217,,,1,978.1632663451601,Y,l,go,l,1,0.45192353054881096,,,,,,,,,,,,,,,,,,40,001,19,w,Bachelor Psychologie 100%,2023-01-18_10h27.13.918,00_bat_bachelor,2022.2.4,59.962176604102844,
,,,,,,,,,,,,0,0,0,0,218,0,218,0,,,,,,,218,,,1,979.7312825545669,X,d,go,d,1,0.452653227141127,,,,,,,,,,,,,,,,,,40,001,19,w,Bachelor Psychologie 100%,2023-01-18_10h27.13.918,00_bat_bachelor,2022.2.4,59.962176604102844,
,,,,,,,,,,,,0,0,0,0,219,0,219,0,,,,,,,219,,,1,981.2991465216037,Y,l,go,l,1,0.5317562191048637,,,,,,,,,,,,,,,,,,40,001,19,w,Bachelor Psychologie 100%,2023-01-18_10h27.13.918,00_bat_bachelor,2022.2.4,59.962176604102844,
,,,,,,,,,,,,0,0,0,0,220,0,220,0,,,,,,,220,,,1,982.950121236383,Y,None,nogo,None,1,,983.7507172117475,,,,,,,,,,,,,,,,,40,001,19,w,Bachelor Psychologie 100%,2023-01-18_10h27.13.918,00_bat_bachelor,2022.2.4,59.962176604102844,
,,,,,,,,,,,,0,0,0,0,221,0,221,0,,,,,,,221,,,1,984.7516985447146,X,d,go,d,1,0.2482203565305099,,,,,,,,,,,,,,,,,,40,001,19,w,Bachelor Psychologie 100%,2023-01-18_10h27.13.918,00_bat_bachelor,2022.2.4,59.962176604102844,
,,,,,,,,,,,,0,0,0,0,222,0,222,0,,,,,,,222,,,1,986.1026457684347,Y,l,go,l,1,0.35405303246807307,,,,,,,,,,,,,,,,,,40,001,19,w,Bachelor Psychologie 100%,2023-01-18_10h27.13.918,00_bat_bachelor,2022.2.4,59.962176604102844,
,,,,,,,,,,,,0,0,0,0,223,0,223,0,,,,,,,223,,,1,987.5704971780069,Y,None,nogo,d,0,0.32514977385289967,,,,,,,,,,,,,,,,,,40,001,19,w,Bachelor Psychologie 100%,2023-01-18_10h27.13.918,00_bat_bachelor,2022.2.4,59.962176604102844,
,,,,,,,,,,,,0,0,0,0,224,0,224,0,,,,,,,224,,,1,989.0048644825583,X,d,go,d,1,0.3475298840785399,,,,,,,,,,,,,,,,,,40,001,19,w,Bachelor Psychologie 100%,2023-01-18_10h27.13.918,00_bat_bachelor,2022.2.4,59.962176604102844,
,,,,,,,,,,,,0,0,0,0,225,0,225,0,,,,,,,225,,,1,990.45583444566,Y,l,go,l,1,0.4154425784945488,,,,,,,,,,,,,,,,,,40,001,19,w,Bachelor Psychologie 100%,2023-01-18_10h27.13.918,00_bat_bachelor,2022.2.4,59.962176604102844,
,,,,,,,,,,,,0,0,0,0,226,0,226,0,,,,,,,226,,,1,991.9735379522899,X,d,go,d,1,0.5299457956571132,,,,,,,,,,,,,,,,,,40,001,19,w,Bachelor Psychologie 100%,2023-01-18_10h27.13.918,00_bat_bachelor,2022.2.4,59.962176604102844,
,,,,,,,,,,,,0,0,0,0,227,0,227,0,,,,,,,227,,,1,993.608119947603,Y,l,go,l,1,0.3514557003509253,,,,,,,,,,,,,,,,,,40,001,19,w,Bachelor Psychologie 100%,2023-01-18_10h27.13.918,00_bat_bachelor,2022.2.4,59.962176604102844,
,,,,,,,,,,,,0,0,0,0,228,0,228,0,,,,,,,228,,,1,995.0764208114706,Y,None,nogo,None,1,,995.8770429687575,,,,,,,,,,,,,,,,,40,001,19,w,Bachelor Psychologie 100%,2023-01-18_10h27.13.918,00_bat_bachelor,2022.2.4,59.962176604102844,
,,,,,,,,,,,,0,0,0,0,229,0,229,0,,,,,,,229,,,1,996.877611210919,X,d,go,d,1,0.26655295363161713,,,,,,,,,,,,,,,,,,40,001,19,w,Bachelor Psychologie 100%,2023-01-18_10h27.13.918,00_bat_bachelor,2022.2.4,59.962176604102844,
,,,,,,,,,,,,0,0,0,0,230,0,230,0,,,,,,,230,,,1,998.2455513961613,Y,l,go,l,1,0.307224933989346,,,,,,,,,,,,,,,,,,40,001,19,w,Bachelor Psychologie 100%,2023-01-18_10h27.13.918,00_bat_bachelor,2022.2.4,59.962176604102844,
,,,,,,,,,,,,0,0,0,0,231,0,231,0,,,,,,,231,,,1,999.6634823450586,Y,None,nogo,None,1,,1000.4637394115562,,,,,,,,,,,,,,,,,40,001,19,w,Bachelor Psychologie 100%,2023-01-18_10h27.13.918,00_bat_bachelor,2022.2.4,59.962176604102844,
,,,,,,,,,,,,0,0,0,0,232,0,232,0,,,,,,,232,,,1,1001.4646805019584,X,d,go,d,1,0.2718198602087796,,,,,,,,,,,,,,,,,,40,001,19,w,Bachelor Psychologie 100%,2023-01-18_10h27.13.918,00_bat_bachelor,2022.2.4,59.962176604102844,
,,,,,,,,,,,,0,0,0,0,233,0,233,0,,,,,,,233,,,1,1002.8490357096307,Y,l,go,l,1,0.29531318217050284,,,,,,,,,,,,,,,,,,40,001,19,w,Bachelor Psychologie 100%,2023-01-18_10h27.13.918,00_bat_bachelor,2022.2.4,59.962176604102844,
,,,,,,,,,,,,0,0,0,0,234,0,234,0,,,,,,,234,,,1,1004.2499416969949,X,d,go,d,1,0.27000555815175176,,,,,,,,,,,,,,,,,,40,001,19,w,Bachelor Psychologie 100%,2023-01-18_10h27.13.918,00_bat_bachelor,2022.2.4,59.962176604102844,
,,,,,,,,,,,,0,0,0,0,235,0,235,0,,,,,,,235,,,1,1005.634339571232,X,None,nogo,None,1,,1006.4349316679873,,,,,,,,,,,,,,,,,40,001,19,w,Bachelor Psychologie 100%,2023-01-18_10h27.13.918,00_bat_bachelor,2022.2.4,59.962176604102844,
,,,,,,,,,,,,0,0,0,0,236,0,236,0,,,,,,,236,,,1,1007.4357636675704,Y,l,go,l,1,0.6197469643084332,,,,,,,,,,,,,,,,,,40,001,19,w,Bachelor Psychologie 100%,2023-01-18_10h27.13.918,00_bat_bachelor,2022.2.4,59.962176604102844,
,,,,,,,,,,,,0,0,0,0,237,0,237,0,,,,,,,237,,,1,1009.1702224629698,X,d,go,d,1,0.40579797700047493,,,,,,,,,,,,,,,,,,40,001,19,w,Bachelor Psychologie 100%,2023-01-18_10h27.13.918,00_bat_bachelor,2022.2.4,59.962176604102844,
,,,,,,,,,,,,0,0,0,0,238,0,238,0,,,,,,,238,,,1,1010.6881931208773,Y,l,go,l,1,0.2793219172162935,,,,,,,,,,,,,,,,,,40,001,19,w,Bachelor Psychologie 100%,2023-01-18_10h27.13.918,00_bat_bachelor,2022.2.4,59.962176604102844,
,,,,,,,,,,,,0,0,0,0,239,0,239,0,,,,,,,239,,,1,1012.0725720860064,Y,None,nogo,None,1,,,,,,,,,,,,,,,,,,,40,001,19,w,Bachelor Psychologie 100%,2023-01-18_10h27.13.918,00_bat_bachelor,2022.2.4,59.962176604102844,
,,,,,,,,,,,,0,0,0,0,240,0,240,0,,,,,,,240,,,1,1013.8739336369326,X,d,go,d,1,0.26202931941952556,,,,,,,,,,,,,,,,,,40,001,19,w,Bachelor Psychologie 100%,2023-01-18_10h27.13.918,00_bat_bachelor,2022.2.4,59.962176604102844,
,,,,,,,,,,,,0,0,0,0,241,0,241,0,,,,,,,241,,,1,1015.2416255798889,Y,l,go,l,1,0.3178052924340591,,,,,,,,,,,,,,,,,,40,001,19,w,Bachelor Psychologie 100%,2023-01-18_10h27.13.918,00_bat_bachelor,2022.2.4,59.962176604102844,
,,,,,,,,,,,,0,0,0,0,242,0,242,0,,,,,,,242,,,1,1016.6759773693047,X,d,go,d,1,0.3075168125797063,,,,,,,,,,,,,,,,,,40,001,19,w,Bachelor Psychologie 100%,2023-01-18_10h27.13.918,00_bat_bachelor,2022.2.4,59.962176604102844,
,,,,,,,,,,,,0,0,0,0,243,0,243,0,,,,,,,243,,,1,1018.0937371667242,Y,l,go,l,1,0.26610107510350645,,,,,,,,,,,,,,,,,,40,001,19,w,Bachelor Psychologie 100%,2023-01-18_10h27.13.918,00_bat_bachelor,2022.2.4,59.962176604102844,
,,,,,,,,,,,,0,0,0,0,244,0,244,0,,,,,,,244,,,1,1019.4615367460065,X,d,go,d,1,0.29089039633981884,,,,,,,,,,,,,,,,,,40,001,19,w,Bachelor Psychologie 100%,2023-01-18_10h27.13.918,00_bat_bachelor,2022.2.4,59.962176604102844,
,,,,,,,,,,,,0,0,0,0,245,0,245,0,,,,,,,245,,,1,1020.8626197030535,Y,l,go,l,1,0.3137228701962158,,,,,,,,,,,,,,,,,,40,001,19,w,Bachelor Psychologie 100%,2023-01-18_10h27.13.918,00_bat_bachelor,2022.2.4,59.962176604102844,
,,,,,,,,,,,,0,0,0,0,246,0,246,0,,,,,,,246,,,1,1022.280375136761,X,d,go,d,1,0.30348335998132825,,,,,,,,,,,,,,,,,,40,001,19,w,Bachelor Psychologie 100%,2023-01-18_10h27.13.918,00_bat_bachelor,2022.2.4,59.962176604102844,
,,,,,,,,,,,,0,0,0,0,247,0,247,0,,,,,,,247,,,1,1023.6980098434724,Y,l,go,l,1,0.3414324325276539,,,,,,,,,,,,,,,,,,40,001,19,w,Bachelor Psychologie 100%,2023-01-18_10h27.13.918,00_bat_bachelor,2022.2.4,59.962176604102844,
,,,,,,,,,,,,0,0,0,0,248,0,248,0,,,,,,,248,,,1,1025.1490273217205,X,d,go,d,1,0.37856550549622625,,,,,,,,,,,,,,,,,,40,001,19,w,Bachelor Psychologie 100%,2023-01-18_10h27.13.918,00_bat_bachelor,2022.2.4,59.962176604102844,
,,,,,,,,,,,,0,0,0,0,249,0,249,0,,,,,,,249,,,1,1026.6337398139294,Y,l,go,l,1,0.25367102050222456,,,,,,,,,,,,,,,,,,40,001,19,w,Bachelor Psychologie 100%,2023-01-18_10h27.13.918,00_bat_bachelor,2022.2.4,59.962176604102844,
,,,,,,,,,,,,1,0,1,0,0,0,0,0,,,,,,,0,,,0.2,1033.188716999488,X,d,go,d,1,0.6115821197163314,,,,,,,,,1027.011707630707,space,5.95953734498471,,,,,,,40,001,19,w,Bachelor Psychologie 100%,2023-01-18_10h27.13.918,00_bat_bachelor,2022.2.4,59.962176604102844,
,,,,,,,,,,,,1,0,1,0,1,0,1,0,,,,,,,1,,,0.2,1034.1061967969872,Y,l,go,l,1,0.38240307942032814,,,,,,,,,,,,,,,,,,40,001,19,w,Bachelor Psychologie 100%,2023-01-18_10h27.13.918,00_bat_bachelor,2022.2.4,59.962176604102844,
,,,,,,,,,,,,1,0,1,0,2,0,2,0,,,,,,,2,,,0.2,1034.7901930714725,X,d,go,d,1,0.4981872655916959,,,,,,,,,,,,,,,,,,40,001,19,w,Bachelor Psychologie 100%,2023-01-18_10h27.13.918,00_bat_bachelor,2022.2.4,59.962176604102844,
,,,,,,,,,,,,1,0,1,0,3,0,3,0,,,,,,,3,,,0.2,1035.5908210468479,Y,l,go,l,1,0.38465907820500433,,,,,,,,,,,,,,,,,,40,001,19,w,Bachelor Psychologie 100%,2023-01-18_10h27.13.918,00_bat_bachelor,2022.2.4,59.962176604102844,
,,,,,,,,,,,,1,0,1,0,4,0,4,0,,,,,,,4,,,0.2,1036.2910233740695,Y,None,nogo,None,1,,1037.0917580161477,,,,,,,,,,,,,,,,,40,001,19,w,Bachelor Psychologie 100%,2023-01-18_10h27.13.918,00_bat_bachelor,2022.2.4,59.962176604102844,
,,,,,,,,,,,,1,0,1,0,5,0,5,0,,,,,,,5,,,0.2,1037.2919397372752,X,d,go,d,1,0.2680026500020176,,,,,,,,,,,,,,,,,,40,001,19,w,Bachelor Psychologie 100%,2023-01-18_10h27.13.918,00_bat_bachelor,2022.2.4,59.962176604102844,
,,,,,,,,,,,,1,0,1,0,6,0,6,0,,,,,,,6,,,0.2,1037.8755598179996,Y,l,go,l,1,0.40465664432849735,,,,,,,,,,,,,,,,,,40,001,19,w,Bachelor Psychologie 100%,2023-01-18_10h27.13.918,00_bat_bachelor,2022.2.4,59.962176604102844,
,,,,,,,,,,,,1,0,1,0,7,0,7,0,,,,,,,7,,,0.2,1038.5930111064808,Y,None,nogo,None,1,,1039.3936550818617,,,,,,,,,,,,,,,,,40,001,19,w,Bachelor Psychologie 100%,2023-01-18_10h27.13.918,00_bat_bachelor,2022.2.4,59.962176604102844,
,,,,,,,,,,,,1,0,1,0,8,0,8,0,,,,,,,8,,,0.2,1039.5937446817989,X,d,go,d,1,0.2861592471599579,,,,,,,,,,,,,,,,,,40,001,19,w,Bachelor Psychologie 100%,2023-01-18_10h27.13.918,00_bat_bachelor,2022.2.4,59.962176604102844,
,,,,,,,,,,,,1,0,1,0,9,0,9,0,,,,,,,9,,,0.2,1040.1942311786115,Y,l,go,l,1,0.4534207418328151,,,,,,,,,,,,,,,,,,40,001,19,w,Bachelor Psychologie 100%,2023-01-18_10h27.13.918,00_bat_bachelor,2022.2.4,59.962176604102844,
,,,,,,,,,,,,1,0,1,0,10,0,10,0,,,,,,,10,,,0.2,1040.9614783216966,Y,None,nogo,l,0,0.5185062859673053,,,,,,,,,,,,,,,,,,40,001,19,w,Bachelor Psychologie 100%,2023-01-18_10h27.13.918,00_bat_bachelor,2022.2.4,59.962176604102844,
,,,,,,,,,,,,1,0,1,0,11,0,11,0,,,,,,,11,,,0.2,1041.795535129495,Y,None,nogo,None,1,,1042.5959885595366,,,,,,,,,,,,,,,,,40,001,19,w,Bachelor Psychologie 100%,2023-01-18_10h27.13.918,00_bat_bachelor,2022.2.4,59.962176604102844,
,,,,,,,,,,,,1,0,1,0,12,0,12,0,,,,,,,12,,,0.2,1042.7959545232588,X,d,go,d,1,0.37924477783963084,,,,,,,,,,,,,,,,,,40,001,19,w,Bachelor Psychologie 100%,2023-01-18_10h27.13.918,00_bat_bachelor,2022.2.4,59.962176604102844,
,,,,,,,,,,,,1,0,1,0,13,0,13,0,,,,,,,13,,,0.2,1043.4797166159842,Y,l,go,l,1,0.3519701244076714,,,,,,,,,,,,,,,,,,40,001,19,w,Bachelor Psychologie 100%,2023-01-18_10h27.13.918,00_bat_bachelor,2022.2.4,59.962176604102844,
,,,,,,,,,,,,1,0,1,0,14,0,14,0,,,,,,,14,,,0.2,1044.1468901106855,X,d,go,d,1,0.3571992127690464,,,,,,,,,,,,,,,,,,40,001,19,w,Bachelor Psychologie 100%,2023-01-18_10h27.13.918,00_bat_bachelor,2022.2.4,59.962176604102844,
,,,,,,,,,,,,1,0,1,0,15,0,15,0,,,,,,,15,,,0.2,1044.8141227568267,X,None,nogo,None,1,,,,,,,,,,,,,,,,,,,40,001,19,w,Bachelor Psychologie 100%,2023-01-18_10h27.13.918,00_bat_bachelor,2022.2.4,59.962176604102844,
,,,,,,,,,,,,1,0,1,0,16,0,16,0,,,,,,,16,,,0.2,1045.814897059463,Y,l,go,l,1,0.30454129888676107,,,,,,,,,,,,,,,,,,40,001,19,w,Bachelor Psychologie 100%,2023-01-18_10h27.13.918,00_bat_bachelor,2022.2.4,59.962176604102844,
,,,,,,,,,,,,1,0,1,0,17,0,17,0,,,,,,,17,,,0.2,1046.4316851240583,X,d,go,d,1,0.4725101870717481,,,,,,,,,,,,,,,,,,40,001,19,w,Bachelor Psychologie 100%,2023-01-18_10h27.13.918,00_bat_bachelor,2022.2.4,59.962176604102844,
,,,,,,,,,,,,1,0,1,0,18,0,18,0,,,,,,,18,,,0.2,1047.2156032894272,X,None,nogo,None,1,,,,,,,,,,,,,,,,,,,40,001,19,w,Bachelor Psychologie 100%,2023-01-18_10h27.13.918,00_bat_bachelor,2022.2.4,59.962176604102844,
,,,,,,,,,,,,1,0,1,0,19,0,19,0,,,,,,,19,,,0.2,1048.2163708042353,Y,l,go,l,1,0.43202875228598714,,,,,,,,,,,,,,,,,,40,001,19,w,Bachelor Psychologie 100%,2023-01-18_10h27.13.918,00_bat_bachelor,2022.2.4,59.962176604102844,
,,,,,,,,,,,,1,0,1,0,20,0,20,0,,,,,,,20,,,0.2,1048.950491660391,X,d,go,d,1,0.4019749485887587,,,,,,,,,,,,,,,,,,40,001,19,w,Bachelor Psychologie 100%,2023-01-18_10h27.13.918,00_bat_bachelor,2022.2.4,59.962176604102844,
,,,,,,,,,,,,1,0,1,0,21,0,21,0,,,,,,,21,,,0.2,1049.6677732520038,X,None,nogo,None,1,,,,,,,,,,,,,,,,,,,40,001,19,w,Bachelor Psychologie 100%,2023-01-18_10h27.13.918,00_bat_bachelor,2022.2.4,59.962176604102844,
,,,,,,,,,,,,1,0,1,0,22,0,22,0,,,,,,,22,,,0.2,1050.6684937365353,Y,l,go,l,1,0.41081179282628,,,,,,,,,,,,,,,,,,40,001,19,w,Bachelor Psychologie 100%,2023-01-18_10h27.13.918,00_bat_bachelor,2022.2.4,59.962176604102844,
,,,,,,,,,,,,1,0,1,0,23,0,23,0,,,,,,,23,,,0.2,1051.3858320553554,X,d,go,d,1,0.4307143286569044,,,,,,,,,,,,,,,,,,40,001,19,w,Bachelor Psychologie 100%,2023-01-18_10h27.13.918,00_bat_bachelor,2022.2.4,59.962176604102844,
,,,,,,,,,,,,1,0,1,0,24,0,24,0,,,,,,,24,,,0.2,1052.1195829723729,X,None,nogo,None,1,,1052.920299190213,,,,,,,,,,,,,,,,,40,001,19,w,Bachelor Psychologie 100%,2023-01-18_10h27.13.918,00_bat_bachelor,2022.2.4,59.962176604102844,
,,,,,,,,,,,,1,0,1,0,25,0,25,0,,,,,,,25,,,0.2,1053.120294729597,Y,l,go,l,1,0.42397784697823226,,,,,,,,,,,,,,,,,,40,001,19,w,Bachelor Psychologie 100%,2023-01-18_10h27.13.918,00_bat_bachelor,2022.2.4,59.962176604102844,
,,,,,,,,,,,,1,0,1,0,26,0,26,0,,,,,,,26,,,0.2,1053.8542657676153,X,d,go,d,1,0.4250944525701925,,,,,,,,,,,,,,,,,,40,001,19,w,Bachelor Psychologie 100%,2023-01-18_10h27.13.918,00_bat_bachelor,2022.2.4,59.962176604102844,
,,,,,,,,,,,,1,0,1,0,27,0,27,0,,,,,,,27,,,0.2,1054.5878872300964,Y,l,go,l,1,0.4118294892832637,,,,,,,,,,,,,,,,,,40,001,19,w,Bachelor Psychologie 100%,2023-01-18_10h27.13.918,00_bat_bachelor,2022.2.4,59.962176604102844,
,,,,,,,,,,,,1,0,1,0,28,0,28,0,,,,,,,28,,,0.2,1055.3053162156139,Y,None,nogo,None,1,,1056.1057163124206,,,,,,,,,,,,,,,,,40,001,19,w,Bachelor Psychologie 100%,2023-01-18_10h27.13.918,00_bat_bachelor,2022.2.4,59.962176604102844,
,,,,,,,,,,,,1,0,1,0,29,0,29,0,,,,,,,29,,,0.2,1056.3061133062001,Y,None,nogo,l,0,0.37348187144380063,,,,,,,,,,,,,,,,,,40,001,19,w,Bachelor Psychologie 100%,2023-01-18_10h27.13.918,00_bat_bachelor,2022.2.4,59.962176604102844,
,,,,,,,,,,,,1,0,1,0,30,0,30,0,,,,,,,30,,,0.2,1056.9897667928599,X,d,go,d,1,0.47349539876449853,,,,,,,,,,,,,,,,,,40,001,19,w,Bachelor Psychologie 100%,2023-01-18_10h27.13.918,00_bat_bachelor,2022.2.4,59.962176604102844,
,,,,,,,,,,,,1,0,1,0,31,0,31,0,,,,,,,31,,,0.2,1057.7738192612305,Y,l,go,l,1,0.3299192260019481,,,,,,,,,,,,,,,,,,40,001,19,w,Bachelor Psychologie 100%,2023-01-18_10h27.13.918,00_bat_bachelor,2022.2.4,59.962176604102844,
,,,,,,,,,,,,1,0,1,0,32,0,32,0,,,,,,,32,,,0.2,1058.407706953818,X,d,go,d,1,0.3839119271142408,,,,,,,,,,,,,,,,,,40,001,19,w,Bachelor Psychologie 100%,2023-01-18_10h27.13.918,00_bat_bachelor,2022.2.4,59.962176604102844,
,,,,,,,,,,,,1,0,1,0,33,0,33,0,,,,,,,33,,,0.2,1059.1083165535238,X,None,nogo,None,1,,,,,,,,,,,,,,,,,,,40,001,19,w,Bachelor Psychologie 100%,2023-01-18_10h27.13.918,00_bat_bachelor,2022.2.4,59.962176604102844,
,,,,,,,,,,,,1,0,1,0,34,0,34,0,,,,,,,34,,,0.2,1060.1089837048203,Y,l,go,l,1,0.3622232102788985,,,,,,,,,,,,,,,,,,40,001,19,w,Bachelor Psychologie 100%,2023-01-18_10h27.13.918,00_bat_bachelor,2022.2.4,59.962176604102844,
,,,,,,,,,,,,1,0,1,0,35,0,35,0,,,,,,,35,,,0.2,1060.7759404722601,X,d,go,d,1,0.4478818355128169,,,,,,,,,,,,,,,,,,40,001,19,w,Bachelor Psychologie 100%,2023-01-18_10h27.13.918,00_bat_bachelor,2022.2.4,59.962176604102844,
,,,,,,,,,,,,1,0,1,0,36,0,36,0,,,,,,,36,,,0.2,1061.526744471863,X,None,nogo,l,0,0.32130104838870466,,,,,,,,,,,,,,,,,,40,001,19,w,Bachelor Psychologie 100%,2023-01-18_10h27.13.918,00_bat_bachelor,2022.2.4,59.962176604102844,
,,,,,,,,,,,,1,0,1,0,37,0,37,0,,,,,,,37,,,0.2,1062.1606850130484,Y,l,go,l,1,0.6474308295873925,,,,,,,,,,,,,,,,,,40,001,19,w,Bachelor Psychologie 100%,2023-01-18_10h27.13.918,00_bat_bachelor,2022.2.4,59.962176604102844,
,,,,,,,,,,,,1,0,1,0,38,0,38,0,,,,,,,38,,,0.2,1063.1112760673277,X,d,go,d,1,0.4321834188885987,,,,,,,,,,,,,,,,,,40,001,19,w,Bachelor Psychologie 100%,2023-01-18_10h27.13.918,00_bat_bachelor,2022.2.4,59.962176604102844,
,,,,,,,,,,,,1,0,1,0,39,0,39,0,,,,,,,39,,,0.2,1063.8449537721463,X,None,nogo,None,1,,,,,,,,,,,,,,,,,,,40,001,19,w,Bachelor Psychologie 100%,2023-01-18_10h27.13.918,00_bat_bachelor,2022.2.4,59.962176604102844,
,,,,,,,,,,,,1,0,1,0,40,0,40,0,,,,,,,40,,,0.2,1064.8457896505715,Y,l,go,l,1,0.2819914916763082,,,,,,,,,,,,,,,,,,40,001,19,w,Bachelor Psychologie 100%,2023-01-18_10h27.13.918,00_bat_bachelor,2022.2.4,59.962176604102844,
,,,,,,,,,,,,1,0,1,0,41,0,41,0,,,,,,,41,,,0.2,1065.4298441552091,X,d,go,d,1,0.4978100536391139,,,,,,,,,,,,,,,,,,40,001,19,w,Bachelor Psychologie 100%,2023-01-18_10h27.13.918,00_bat_bachelor,2022.2.4,59.962176604102844,
,,,,,,,,,,,,1,0,1,0,42,0,42,0,,,,,,,42,,,0.2,1066.230445948895,X,None,nogo,l,0,0.3368418893078342,,,,,,,,,,,,,,,,,,40,001,19,w,Bachelor Psychologie 100%,2023-01-18_10h27.13.918,00_bat_bachelor,2022.2.4,59.962176604102844,
,,,,,,,,,,,,1,0,1,0,43,0,43,0,,,,,,,43,,,0.2,1066.8806085428223,Y,l,go,l,1,0.6467307087732479,,,,,,,,,,,,,,,,,,40,001,19,w,Bachelor Psychologie 100%,2023-01-18_10h27.13.918,00_bat_bachelor,2022.2.4,59.962176604102844,
,,,,,,,,,,,,1,0,1,0,44,0,44,0,,,,,,,44,,,0.2,1067.831687839236,X,d,go,d,1,0.3846615025540814,,,,,,,,,,,,,,,,,,40,001,19,w,Bachelor Psychologie 100%,2023-01-18_10h27.13.918,00_bat_bachelor,2022.2.4,59.962176604102844,
,,,,,,,,,,,,1,0,1,0,45,0,45,0,,,,,,,45,,,0.2,1068.5318237422034,Y,l,go,l,1,0.4517087427666411,,,,,,,,,,,,,,,,,,40,001,19,w,Bachelor Psychologie 100%,2023-01-18_10h27.13.918,00_bat_bachelor,2022.2.4,59.962176604102844,
,,,,,,,,,,,,1,0,1,0,46,0,46,0,,,,,,,46,,,0.2,1069.2991028852994,X,d,go,d,1,0.40471337153576314,,,,,,,,,,,,,,,,,,40,001,19,w,Bachelor Psychologie 100%,2023-01-18_10h27.13.918,00_bat_bachelor,2022.2.4,59.962176604102844,
,,,,,,,,,,,,1,0,1,0,47,0,47,0,,,,,,,47,,,0.2,1070.0166172040626,X,None,nogo,None,1,,,,,,,,,,,,,,,,,,,40,001,19,w,Bachelor Psychologie 100%,2023-01-18_10h27.13.918,00_bat_bachelor,2022.2.4,59.962176604102844,
,,,,,,,,,,,,1,0,1,0,48,0,48,0,,,,,,,48,,,0.2,1071.0170705372002,Y,l,go,l,1,0.28681524691637605,,,,,,,,,,,,,,,,,,40,001,19,w,Bachelor Psychologie 100%,2023-01-18_10h27.13.918,00_bat_bachelor,2022.2.4,59.962176604102844,
,,,,,,,,,,,,1,0,1,0,49,0,49,0,,,,,,,49,,,0.2,1071.6179095186526,X,d,go,d,1,0.4057582195382565,,,,,,,,,,,,,,,,,,40,001,19,w,Bachelor Psychologie 100%,2023-01-18_10h27.13.918,00_bat_bachelor,2022.2.4,59.962176604102844,
,,,,,,,,,,,,1,0,1,0,50,0,50,0,,,,,,,50,,,0.2,1072.33464856504,Y,l,go,l,1,0.3609403019072488,,,,,,,,,,,,,,,,,,40,001,19,w,Bachelor Psychologie 100%,2023-01-18_10h27.13.918,00_bat_bachelor,2022.2.4,59.962176604102844,
,,,,,,,,,,,,1,0,1,0,51,0,51,0,,,,,,,51,,,0.2,1073.0025313927326,Y,None,nogo,None,1,,1073.8030362167628,,,,,,,,,,,,,,,,,40,001,19,w,Bachelor Psychologie 100%,2023-01-18_10h27.13.918,00_bat_bachelor,2022.2.4,59.962176604102844,
,,,,,,,,,,,,1,0,1,0,52,0,52,0,,,,,,,52,,,0.2,1074.0031326045282,X,d,go,d,1,0.260133562842384,,,,,,,,,,,,,,,,,,40,001,19,w,Bachelor Psychologie 100%,2023-01-18_10h27.13.918,00_bat_bachelor,2022.2.4,59.962176604102844,
,,,,,,,,,,,,1,0,1,0,53,0,53,0,,,,,,,53,,,0.2,1074.5701606932562,Y,l,go,l,1,0.39735676907002926,,,,,,,,,,,,,,,,,,40,001,19,w,Bachelor Psychologie 100%,2023-01-18_10h27.13.918,00_bat_bachelor,2022.2.4,59.962176604102844,
,,,,,,,,,,,,1,0,1,0,54,0,54,0,,,,,,,54,,,0.2,1075.2705758688971,X,d,go,d,1,0.529687371570617,,,,,,,,,,,,,,,,,,40,001,19,w,Bachelor Psychologie 100%,2023-01-18_10h27.13.918,00_bat_bachelor,2022.2.4,59.962176604102844,
,,,,,,,,,,,,1,0,1,0,55,0,55,0,,,,,,,55,,,0.2,1076.1046554644126,Y,l,go,l,1,0.3668278141412884,,,,,,,,,,,,,,,,,,40,001,19,w,Bachelor Psychologie 100%,2023-01-18_10h27.13.918,00_bat_bachelor,2022.2.4,59.962176604102844,
,,,,,,,,,,,,1,0,1,0,56,0,56,0,,,,,,,56,,,0.2,1076.771686413791,X,d,go,d,1,0.4199026975547895,,,,,,,,,,,,,,,,,,40,001,19,w,Bachelor Psychologie 100%,2023-01-18_10h27.13.918,00_bat_bachelor,2022.2.4,59.962176604102844,
,,,,,,,,,,,,1,0,1,0,57,0,57,0,,,,,,,57,,,0.2,1077.5057277547894,X,None,nogo,None,1,,,,,,,,,,,,,,,,,,,40,001,19,w,Bachelor Psychologie 100%,2023-01-18_10h27.13.918,00_bat_bachelor,2022.2.4,59.962176604102844,
,,,,,,,,,,,,1,0,1,0,58,0,58,0,,,,,,,58,,,0.2,1078.5063556332607,Y,l,go,l,1,0.46147067728452384,,,,,,,,,,,,,,,,,,40,001,19,w,Bachelor Psychologie 100%,2023-01-18_10h27.13.918,00_bat_bachelor,2022.2.4,59.962176604102844,
,,,,,,,,,,,,1,0,1,0,59,0,59,0,,,,,,,59,,,0.2,1079.2737172006164,X,d,go,d,1,0.3819642916787416,,,,,,,,,,,,,,,,,,40,001,19,w,Bachelor Psychologie 100%,2023-01-18_10h27.13.918,00_bat_bachelor,2022.2.4,59.962176604102844,
,,,,,,,,,,,,1,0,1,0,60,0,60,0,,,,,,,60,,,0.2,1079.957222808618,Y,l,go,l,1,0.32294274459127337,,,,,,,,,,,,,,,,,,40,001,19,w,Bachelor Psychologie 100%,2023-01-18_10h27.13.918,00_bat_bachelor,2022.2.4,59.962176604102844,
,,,,,,,,,,,,1,0,1,0,61,0,61,0,,,,,,,61,,,0.2,1080.5913354709046,Y,None,nogo,None,1,,,,,,,,,,,,,,,,,,,40,001,19,w,Bachelor Psychologie 100%,2023-01-18_10h27.13.918,00_bat_bachelor,2022.2.4,59.962176604102844,
,,,,,,,,,,,,1,0,1,0,62,0,62,0,,,,,,,62,,,0.2,1081.59208940994,Y,None,nogo,l,0,0.6561915526399389,,,,,,,,,,,,,,,,,,40,001,19,w,Bachelor Psychologie 100%,2023-01-18_10h27.13.918,00_bat_bachelor,2022.2.4,59.962176604102844,
,,,,,,,,,,,,1,0,1,0,63,0,63,0,,,,,,,63,,,0.2,1082.5593219106086,X,d,go,d,1,0.4252733616158366,,,,,,,,,,,,,,,,,,40,001,19,w,Bachelor Psychologie 100%,2023-01-18_10h27.13.918,00_bat_bachelor,2022.2.4,59.962176604102844,
,,,,,,,,,,,,1,0,1,0,64,0,64,0,,,,,,,64,,,0.2,1083.293416100205,Y,l,go,l,1,0.3623536345548928,,,,,,,,,,,,,,,,,,40,001,19,w,Bachelor Psychologie 100%,2023-01-18_10h27.13.918,00_bat_bachelor,2022.2.4,59.962176604102844,
,,,,,,,,,,,,1,0,1,0,65,0,65,0,,,,,,,65,,,0.2,1083.9606555342907,Y,None,nogo,d,0,0.33531849610153586,,,,,,,,,,,,,,,,,,40,001,19,w,Bachelor Psychologie 100%,2023-01-18_10h27.13.918,00_bat_bachelor,2022.2.4,59.962176604102844,
,,,,,,,,,,,,1,0,1,0,66,0,66,0,,,,,,,66,,,0.2,1084.6110067340778,X,d,go,d,1,0.6445227097719908,,,,,,,,,,,,,,,,,,40,001,19,w,Bachelor Psychologie 100%,2023-01-18_10h27.13.918,00_bat_bachelor,2022.2.4,59.962176604102844,
,,,,,,,,,,,,1,0,1,0,67,0,67,0,,,,,,,67,,,0.2,1085.561721909442,Y,l,go,l,1,0.5096888358239084,,,,,,,,,,,,,,,,,,40,001,19,w,Bachelor Psychologie 100%,2023-01-18_10h27.13.918,00_bat_bachelor,2022.2.4,59.962176604102844,
,,,,,,,,,,,,1,0,1,0,68,0,68,0,,,,,,,68,,,0.2,1086.3790766646853,X,d,go,d,1,0.41300718567799777,,,,,,,,,,,,,,,,,,40,001,19,w,Bachelor Psychologie 100%,2023-01-18_10h27.13.918,00_bat_bachelor,2022.2.4,59.962176604102844,
,,,,,,,,,,,,1,0,1,0,69,0,69,0,,,,,,,69,,,0.2,1087.0963635896333,Y,l,go,l,1,0.4155216086655855,,,,,,,,,,,,,,,,,,40,001,19,w,Bachelor Psychologie 100%,2023-01-18_10h27.13.918,00_bat_bachelor,2022.2.4,59.962176604102844,
,,,,,,,,,,,,1,0,1,0,70,0,70,0,,,,,,,70,,,0.2,1087.8134686965495,X,d,go,d,1,0.35495533514767885,,,,,,,,,,,,,,,,,,40,001,19,w,Bachelor Psychologie 100%,2023-01-18_10h27.13.918,00_bat_bachelor,2022.2.4,59.962176604102844,
,,,,,,,,,,,,1,0,1,0,71,0,71,0,,,,,,,71,,,0.2,1088.4806329790736,X,None,nogo,None,1,,,,,,,,,,,,,,,,,,,40,001,19,w,Bachelor Psychologie 100%,2023-01-18_10h27.13.918,00_bat_bachelor,2022.2.4,59.962176604102844,
,,,,,,,,,,,,1,0,1,0,72,0,72,0,,,,,,,72,,,0.2,1089.4814290999202,Y,l,go,l,1,0.33420576935168356,,,,,,,,,,,,,,,,,,40,001,19,w,Bachelor Psychologie 100%,2023-01-18_10h27.13.918,00_bat_bachelor,2022.2.4,59.962176604102844,
,,,,,,,,,,,,1,0,1,0,73,0,73,0,,,,,,,73,,,0.2,1090.1316004210385,X,d,go,d,1,0.48344836372416466,,,,,,,,,,,,,,,,,,40,001,19,w,Bachelor Psychologie 100%,2023-01-18_10h27.13.918,00_bat_bachelor,2022.2.4,59.962176604102844,
,,,,,,,,,,,,1,0,1,0,74,0,74,0,,,,,,,74,,,0.2,1090.9158531317953,X,None,nogo,None,1,,,,,,,,,,,,,,,,,,,40,001,19,w,Bachelor Psychologie 100%,2023-01-18_10h27.13.918,00_bat_bachelor,2022.2.4,59.962176604102844,
,,,,,,,,,,,,1,0,1,0,75,0,75,0,,,,,,,75,,,0.2,1091.916594949551,X,None,nogo,None,1,,1092.7169572281418,,,,,,,,,,,,,,,,,40,001,19,w,Bachelor Psychologie 100%,2023-01-18_10h27.13.918,00_bat_bachelor,2022.2.4,59.962176604102844,
,,,,,,,,,,,,1,0,1,0,76,0,76,0,,,,,,,76,,,0.2,1092.9173949491233,Y,l,go,l,1,0.3863458653213456,,,,,,,,,,,,,,,,,,40,001,19,w,Bachelor Psychologie 100%,2023-01-18_10h27.13.918,00_bat_bachelor,2022.2.4,59.962176604102844,
,,,,,,,,,,,,1,0,1,0,77,0,77,0,,,,,,,77,,,0.2,1093.6179618822644,X,d,go,d,1,0.4383637794526294,,,,,,,,,,,,,,,,,,40,001,19,w,Bachelor Psychologie 100%,2023-01-18_10h27.13.918,00_bat_bachelor,2022.2.4,59.962176604102844,
,,,,,,,,,,,,1,0,1,0,78,0,78,0,,,,,,,78,,,0.2,1094.368444912252,X,None,nogo,None,1,,,,,,,,,,,,,,,,,,,40,001,19,w,Bachelor Psychologie 100%,2023-01-18_10h27.13.918,00_bat_bachelor,2022.2.4,59.962176604102844,
,,,,,,,,,,,,1,0,1,0,79,0,79,0,,,,,,,79,,,0.2,1095.3691527907504,Y,l,go,l,1,0.3186198375187814,,,,,,,,,,,,,,,,,,40,001,19,w,Bachelor Psychologie 100%,2023-01-18_10h27.13.918,00_bat_bachelor,2022.2.4,59.962176604102844,
,,,,,,,,,,,,1,0,1,0,80,0,80,0,,,,,,,80,,,0.2,1096.003035150119,X,d,go,d,1,0.3564981220988557,,,,,,,,,,,,,,,,,,40,001,19,w,Bachelor Psychologie 100%,2023-01-18_10h27.13.918,00_bat_bachelor,2022.2.4,59.962176604102844,
,,,,,,,,,,,,1,0,1,0,81,0,81,0,,,,,,,81,,,0.2,1096.670219796244,Y,l,go,l,1,0.3299260138301179,,,,,,,,,,,,,,,,,,40,001,19,w,Bachelor Psychologie 100%,2023-01-18_10h27.13.918,00_bat_bachelor,2022.2.4,59.962176604102844,
,,,,,,,,,,,,1,0,1,0,82,0,82,0,,,,,,,82,,,0.2,1097.303833064856,X,d,go,d,1,0.4636452216655016,,,,,,,,,,,,,,,,,,40,001,19,w,Bachelor Psychologie 100%,2023-01-18_10h27.13.918,00_bat_bachelor,2022.2.4,59.962176604102844,
,,,,,,,,,,,,1,0,1,0,83,0,83,0,,,,,,,83,,,0.2,1098.0709119656822,Y,l,go,l,1,0.41698778979480267,,,,,,,,,,,,,,,,,,40,001,19,w,Bachelor Psychologie 100%,2023-01-18_10h27.13.918,00_bat_bachelor,2022.2.4,59.962176604102844,
,,,,,,,,,,,,1,0,1,0,84,0,84,0,,,,,,,84,,,0.2,1098.7886163449148,Y,None,nogo,None,1,,,,,,,,,,,,,,,,,,,40,001,19,w,Bachelor Psychologie 100%,2023-01-18_10h27.13.918,00_bat_bachelor,2022.2.4,59.962176604102844,
,,,,,,,,,,,,1,0,1,0,85,0,85,0,,,,,,,85,,,0.2,1099.7890124659752,X,d,go,d,1,0.5067167159868404,,,,,,,,,,,,,,,,,,40,001,19,w,Bachelor Psychologie 100%,2023-01-18_10h27.13.918,00_bat_bachelor,2022.2.4,59.962176604102844,
,,,,,,,,,,,,1,0,1,0,86,0,86,0,,,,,,,86,,,0.2,1100.6065461301478,Y,l,go,l,1,0.2805941590340808,,,,,,,,,,,,,,,,,,40,001,19,w,Bachelor Psychologie 100%,2023-01-18_10h27.13.918,00_bat_bachelor,2022.2.4,59.962176604102844,
,,,,,,,,,,,,1,0,1,0,87,0,87,0,,,,,,,87,,,0.2,1101.19032572594,X,d,go,d,1,0.5290871293982491,,,,,,,,,,,,,,,,,,40,001,19,w,Bachelor Psychologie 100%,2023-01-18_10h27.13.918,00_bat_bachelor,2022.2.4,59.962176604102844,
,,,,,,,,,,,,1,0,1,0,88,0,88,0,,,,,,,88,,,0.2,1102.0239762308775,Y,l,go,l,1,0.46394049434456974,,,,,,,,,,,,,,,,,,40,001,19,w,Bachelor Psychologie 100%,2023-01-18_10h27.13.918,00_bat_bachelor,2022.2.4,59.962176604102844,
,,,,,,,,,,,,1,0,1,0,89,0,89,0,,,,,,,89,,,0.2,1102.79151379806,X,d,go,d,1,0.5126881070900708,,,,,,,,,,,,,,,,,,40,001,19,w,Bachelor Psychologie 100%,2023-01-18_10h27.13.918,00_bat_bachelor,2022.2.4,59.962176604102844,
,,,,,,,,,,,,1,0,1,0,90,0,90,0,,,,,,,90,,,0.2,1103.608817159431,Y,l,go,l,1,0.4149339727591723,,,,,,,,,,,,,,,,,,40,001,19,w,Bachelor Psychologie 100%,2023-01-18_10h27.13.918,00_bat_bachelor,2022.2.4,59.962176604102844,
,,,,,,,,,,,,1,0,1,0,91,0,91,0,,,,,,,91,,,0.2,1104.3261137813097,X,d,go,d,1,0.5133140461985022,,,,,,,,,,,,,,,,,,40,001,19,w,Bachelor Psychologie 100%,2023-01-18_10h27.13.918,00_bat_bachelor,2022.2.4,59.962176604102844,
,,,,,,,,,,,,1,0,1,0,92,0,92,0,,,,,,,92,,,0.2,1105.143051082152,Y,l,go,l,1,0.46415770635940135,,,,,,,,,,,,,,,,,,40,001,19,w,Bachelor Psychologie 100%,2023-01-18_10h27.13.918,00_bat_bachelor,2022.2.4,59.962176604102844,
,,,,,,,,,,,,1,0,1,0,93,0,93,0,,,,,,,93,,,0.2,1105.9106831948739,X,d,go,None,0,,1106.7109518977813,,,,,,,,,,,,,,,,,40,001,19,w,Bachelor Psychologie 100%,2023-01-18_10h27.13.918,00_bat_bachelor,2022.2.4,59.962176604102844,
,,,,,,,,,,,,1,0,1,0,94,0,94,0,,,,,,,94,,,0.2,1106.910974103841,X,None,nogo,None,1,,,,,,,,,,,,,,,,,,,40,001,19,w,Bachelor Psychologie 100%,2023-01-18_10h27.13.918,00_bat_bachelor,2022.2.4,59.962176604102844,
,,,,,,,,,,,,1,0,1,0,95,0,95,0,,,,,,,95,,,0.2,1107.9120698608458,Y,l,go,l,1,0.33587898069527,,,,,,,,,,,,,,,,,,40,001,19,w,Bachelor Psychologie 100%,2023-01-18_10h27.13.918,00_bat_bachelor,2022.2.4,59.962176604102844,
,,,,,,,,,,,,1,0,1,0,96,0,96,0,,,,,,,96,,,0.2,1108.5627240908798,X,d,go,d,1,0.34120358421932906,,,,,,,,,,,,,,,,,,40,001,19,w,Bachelor Psychologie 100%,2023-01-18_10h27.13.918,00_bat_bachelor,2022.2.4,59.962176604102844,
,,,,,,,,,,,,1,0,1,0,97,0,97,0,,,,,,,97,,,0.2,1109.2130762604065,Y,l,go,None,0,,,,,,,,,,,,,,,,,,,40,001,19,w,Bachelor Psychologie 100%,2023-01-18_10h27.13.918,00_bat_bachelor,2022.2.4,59.962176604102844,
,,,,,,,,,,,,1,0,1,0,98,0,98,0,,,,,,,98,,,0.2,1110.2138641388156,X,d,go,d,1,0.5302556137321517,,,,,,,,,,,,,,,,,,40,001,19,w,Bachelor Psychologie 100%,2023-01-18_10h27.13.918,00_bat_bachelor,2022.2.4,59.962176604102844,
,,,,,,,,,,,,1,0,1,0,99,0,99,0,,,,,,,99,,,0.2,1111.0475796132814,Y,l,go,l,1,0.4482706837588921,,,,,,,,,,,,,,,,,,40,001,19,w,Bachelor Psychologie 100%,2023-01-18_10h27.13.918,00_bat_bachelor,2022.2.4,59.962176604102844,
,,,,,,,,,,,,1,0,1,0,100,0,100,0,,,,,,,100,,,0.2,1111.7983336736215,X,d,go,d,1,0.385533744469285,,,,,,,,,,,,,,,,,,40,001,19,w,Bachelor Psychologie 100%,2023-01-18_10h27.13.918,00_bat_bachelor,2022.2.4,59.962176604102844,
,,,,,,,,,,,,1,0,1,0,101,0,101,0,,,,,,,101,,,0.2,1112.498909818707,X,None,nogo,l,0,0.3242673499044031,,,,,,,,,,,,,,,,,,40,001,19,w,Bachelor Psychologie 100%,2023-01-18_10h27.13.918,00_bat_bachelor,2022.2.4,59.962176604102844,
,,,,,,,,,,,,1,0,1,0,102,0,102,0,,,,,,,102,,,0.2,1113.132903208374,Y,l,go,None,0,,,,,,,,,,,,,,,,,,,40,001,19,w,Bachelor Psychologie 100%,2023-01-18_10h27.13.918,00_bat_bachelor,2022.2.4,59.962176604102844,
,,,,,,,,,,,,1,0,1,0,103,0,103,0,,,,,,,103,,,0.2,1114.1332600566093,X,d,go,None,0,,,,,,,,,,,,,,,,,,,40,001,19,w,Bachelor Psychologie 100%,2023-01-18_10h27.13.918,00_bat_bachelor,2022.2.4,59.962176604102844,
,,,,,,,,,,,,1,0,1,0,104,0,104,0,,,,,,,104,,,0.2,1115.1347892680205,Y,l,go,l,1,0.488335149246268,,,,,,,,,,,,,,,,,,40,001,19,w,Bachelor Psychologie 100%,2023-01-18_10h27.13.918,00_bat_bachelor,2022.2.4,59.962176604102844,
,,,,,,,,,,,,1,0,1,0,105,0,105,0,,,,,,,105,,,0.2,1115.9522836594842,X,d,go,d,1,0.35836430301424116,,,,,,,,,,,,,,,,,,40,001,19,w,Bachelor Psychologie 100%,2023-01-18_10h27.13.918,00_bat_bachelor,2022.2.4,59.962176604102844,
,,,,,,,,,,,,1,0,1,0,106,0,106,0,,,,,,,106,,,0.2,1116.6529785925522,Y,l,go,l,1,0.41014900524169207,,,,,,,,,,,,,,,,,,40,001,19,w,Bachelor Psychologie 100%,2023-01-18_10h27.13.918,00_bat_bachelor,2022.2.4,59.962176604102844,
,,,,,,,,,,,,1,0,1,0,107,0,107,0,,,,,,,107,,,0.2,1117.3864720551064,Y,None,nogo,None,1,,1118.187307545566,,,,,,,,,,,,,,,,,40,001,19,w,Bachelor Psychologie 100%,2023-01-18_10h27.13.918,00_bat_bachelor,2022.2.4,59.962176604102844,
,,,,,,,,,,,,1,0,1,0,108,0,108,0,,,,,,,108,,,0.2,1118.3874742364278,X,d,go,d,1,0.13310138205997646,,,,,,,,,,,,,,,,,,40,001,19,w,Bachelor Psychologie 100%,2023-01-18_10h27.13.918,00_bat_bachelor,2022.2.4,59.962176604102844,
,,,,,,,,,,,,1,0,1,0,109,0,109,0,,,,,,,109,,,0.2,1118.8376674726605,Y,l,go,l,1,0.5775171666173264,,,,,,,,,,,,,,,,,,40,001,19,w,Bachelor Psychologie 100%,2023-01-18_10h27.13.918,00_bat_bachelor,2022.2.4,59.962176604102844,
,,,,,,,,,,,,1,0,1,0,110,0,110,0,,,,,,,110,,,0.2,1119.7215846198378,Y,None,nogo,None,1,,1120.5222572013736,,,,,,,,,,,,,,,,,40,001,19,w,Bachelor Psychologie 100%,2023-01-18_10h27.13.918,00_bat_bachelor,2022.2.4,59.962176604102844,
,,,,,,,,,,,,1,0,1,0,111,0,111,0,,,,,,,111,,,0.2,1120.7224088618532,X,d,go,d,1,0.4372239011572674,,,,,,,,,,,,,,,,,,40,001,19,w,Bachelor Psychologie 100%,2023-01-18_10h27.13.918,00_bat_bachelor,2022.2.4,59.962176604102844,
,,,,,,,,,,,,1,0,1,0,112,0,112,0,,,,,,,112,,,0.2,1121.4898436412914,Y,l,go,l,1,0.43795359786599874,,,,,,,,,,,,,,,,,,40,001,19,w,Bachelor Psychologie 100%,2023-01-18_10h27.13.918,00_bat_bachelor,2022.2.4,59.962176604102844,
,,,,,,,,,,,,1,0,1,0,113,0,113,0,,,,,,,113,,,0.2,1122.256882784539,X,d,go,d,1,0.42229590844362974,,,,,,,,,,,,,,,,,,40,001,19,w,Bachelor Psychologie 100%,2023-01-18_10h27.13.918,00_bat_bachelor,2022.2.4,59.962176604102844,
,,,,,,,,,,,,1,0,1,0,114,0,114,0,,,,,,,114,,,0.2,1123.0077090872219,Y,l,go,l,1,0.37501205259468406,,,,,,,,,,,,,,,,,,40,001,19,w,Bachelor Psychologie 100%,2023-01-18_10h27.13.918,00_bat_bachelor,2022.2.4,59.962176604102844,
,,,,,,,,,,,,1,0,1,0,115,0,115,0,,,,,,,115,,,0.2,1123.7079846264096,Y,None,nogo,d,0,0.42717299703508615,,,,,,,,,,,,,,,,,,40,001,19,w,Bachelor Psychologie 100%,2023-01-18_10h27.13.918,00_bat_bachelor,2022.2.4,59.962176604102844,
,,,,,,,,,,,,1,0,1,0,116,0,116,0,,,,,,,116,,,0.2,1124.4755866784835,X,d,go,d,1,0.6514138579368591,,,,,,,,,,,,,,,,,,40,001,19,w,Bachelor Psychologie 100%,2023-01-18_10h27.13.918,00_bat_bachelor,2022.2.4,59.962176604102844,
,,,,,,,,,,,,1,0,1,0,117,0,117,0,,,,,,,117,,,0.2,1125.4595634135185,Y,l,go,l,1,0.37233132659457624,,,,,,,,,,,,,,,,,,40,001,19,w,Bachelor Psychologie 100%,2023-01-18_10h27.13.918,00_bat_bachelor,2022.2.4,59.962176604102844,
,,,,,,,,,,,,1,0,1,0,118,0,118,0,,,,,,,118,,,0.2,1126.1431834457908,Y,None,nogo,None,1,,1126.9438613605453,,,,,,,,,,,,,,,,,40,001,19,w,Bachelor Psychologie 100%,2023-01-18_10h27.13.918,00_bat_bachelor,2022.2.4,59.962176604102844,
,,,,,,,,,,,,1,0,1,0,119,0,119,0,,,,,,,119,,,0.2,1127.1441686573671,X,d,go,l,0,0.3998212527949363,,,,,,,,,,,,,,,,,,40,001,19,w,Bachelor Psychologie 100%,2023-01-18_10h27.13.918,00_bat_bachelor,2022.2.4,59.962176604102844,
,,,,,,,,,,,,1,0,1,0,120,0,120,0,,,,,,,120,,,0.2,1127.8443268634146,Y,l,go,l,1,0.45171553059481084,,,,,,,,,,,,,,,,,,40,001,19,w,Bachelor Psychologie 100%,2023-01-18_10h27.13.918,00_bat_bachelor,2022.2.4,59.962176604102844,
,,,,,,,,,,,,1,0,1,0,121,0,121,0,,,,,,,121,,,0.2,1128.6115177641623,Y,None,nogo,d,0,0.4044437959091738,,,,,,,,,,,,,,,,,,40,001,19,w,Bachelor Psychologie 100%,2023-01-18_10h27.13.918,00_bat_bachelor,2022.2.4,59.962176604102844,
,,,,,,,,,,,,1,0,1,0,122,0,122,0,,,,,,,122,,,0.2,1129.3288672345225,Y,None,nogo,l,0,0.6311690193833783,,,,,,,,,,,,,,,,,,40,001,19,w,Bachelor Psychologie 100%,2023-01-18_10h27.13.918,00_bat_bachelor,2022.2.4,59.962176604102844,
,,,,,,,,,,,,1,0,1,0,123,0,123,0,,,,,,,123,,,0.2,1130.2628119938308,X,d,go,d,1,0.3847570176003501,,,,,,,,,,,,,,,,,,40,001,19,w,Bachelor Psychologie 100%,2023-01-18_10h27.13.918,00_bat_bachelor,2022.2.4,59.962176604102844,
,,,,,,,,,,,,1,0,1,0,124,0,124,0,,,,,,,124,,,0.2,1130.9633663208224,Y,l,go,l,1,0.3407827358460054,,,,,,,,,,,,,,,,,,40,001,19,w,Bachelor Psychologie 100%,2023-01-18_10h27.13.918,00_bat_bachelor,2022.2.4,59.962176604102844,
,,,,,,,,,,,,1,0,1,0,125,0,125,0,,,,,,,125,,,0.2,1131.61323509668,X,d,go,d,1,0.4268845123006031,,,,,,,,,,,,,,,,,,40,001,19,w,Bachelor Psychologie 100%,2023-01-18_10h27.13.918,00_bat_bachelor,2022.2.4,59.962176604102844,
,,,,,,,,,,,,1,0,1,0,126,0,126,0,,,,,,,126,,,0.2,1132.3474907405907,Y,l,go,l,1,0.33231534610968083,,,,,,,,,,,,,,,,,,40,001,19,w,Bachelor Psychologie 100%,2023-01-18_10h27.13.918,00_bat_bachelor,2022.2.4,59.962176604102844,
,,,,,,,,,,,,1,0,1,0,127,0,127,0,,,,,,,127,,,0.2,1132.9809027971933,X,d,go,d,1,0.4666512809926644,,,,,,,,,,,,,,,,,,40,001,19,w,Bachelor Psychologie 100%,2023-01-18_10h27.13.918,00_bat_bachelor,2022.2.4,59.962176604102844,
,,,,,,,,,,,,1,0,1,0,128,0,128,0,,,,,,,128,,,0.2,1133.7487909096526,X,None,nogo,l,0,0.32233716908376664,,,,,,,,,,,,,,,,,,40,001,19,w,Bachelor Psychologie 100%,2023-01-18_10h27.13.918,00_bat_bachelor,2022.2.4,59.962176604102844,
,,,,,,,,,,,,1,0,1,0,129,0,129,0,,,,,,,129,,,0.2,1134.3827765417518,Y,l,go,l,1,0.6177096319152042,,,,,,,,,,,,,,,,,,40,001,19,w,Bachelor Psychologie 100%,2023-01-18_10h27.13.918,00_bat_bachelor,2022.2.4,59.962176604102844,
,,,,,,,,,,,,1,0,1,0,130,0,130,0,,,,,,,130,,,0.2,1135.3168289372697,X,d,go,d,1,0.3866551985265687,,,,,,,,,,,,,,,,,,40,001,19,w,Bachelor Psychologie 100%,2023-01-18_10h27.13.918,00_bat_bachelor,2022.2.4,59.962176604102844,
,,,,,,,,,,,,1,0,1,0,131,0,131,0,,,,,,,131,,,0.2,1136.0173386583338,X,None,nogo,None,1,,1136.8177106338553,,,,,,,,,,,,,,,,,40,001,19,w,Bachelor Psychologie 100%,2023-01-18_10h27.13.918,00_bat_bachelor,2022.2.4,59.962176604102844,
,,,,,,,,,,,,1,0,1,0,132,0,132,0,,,,,,,132,,,0.2,1137.0181483548367,Y,l,go,l,1,0.3665252687642351,,,,,,,,,,,,,,,,,,40,001,19,w,Bachelor Psychologie 100%,2023-01-18_10h27.13.918,00_bat_bachelor,2022.2.4,59.962176604102844,
,,,,,,,,,,,,1,0,1,0,133,0,133,0,,,,,,,133,,,0.2,1137.6852665768238,X,d,go,d,1,0.45010534953325987,,,,,,,,,,,,,,,,,,40,001,19,w,Bachelor Psychologie 100%,2023-01-18_10h27.13.918,00_bat_bachelor,2022.2.4,59.962176604102844,
,,,,,,,,,,,,1,0,1,0,134,0,134,0,,,,,,,134,,,0.2,1138.435743788723,Y,l,go,l,1,0.4359502048464492,,,,,,,,,,,,,,,,,,40,001,19,w,Bachelor Psychologie 100%,2023-01-18_10h27.13.918,00_bat_bachelor,2022.2.4,59.962176604102844,
,,,,,,,,,,,,1,0,1,0,135,0,135,0,,,,,,,135,,,0.2,1139.1864513035398,X,d,go,d,1,0.4843574541155249,,,,,,,,,,,,,,,,,,40,001,19,w,Bachelor Psychologie 100%,2023-01-18_10h27.13.918,00_bat_bachelor,2022.2.4,59.962176604102844,
,,,,,,,,,,,,1,0,1,0,136,0,136,0,,,,,,,136,,,0.2,1140.003626664984,X,None,nogo,None,1,,1140.8044417918427,,,,,,,,,,,,,,,,,40,001,19,w,Bachelor Psychologie 100%,2023-01-18_10h27.13.918,00_bat_bachelor,2022.2.4,59.962176604102844,
,,,,,,,,,,,,1,0,1,0,137,0,137,0,,,,,,,137,,,0.2,1141.0044169676257,Y,l,go,l,1,0.3632826036773622,,,,,,,,,,,,,,,,,,40,001,19,w,Bachelor Psychologie 100%,2023-01-18_10h27.13.918,00_bat_bachelor,2022.2.4,59.962176604102844,
,,,,,,,,,,,,1,0,1,0,138,0,138,0,,,,,,,138,,,0.2,1141.6714532502228,X,d,go,d,1,0.3203357154270634,,,,,,,,,,,,,,,,,,40,001,19,w,Bachelor Psychologie 100%,2023-01-18_10h27.13.918,00_bat_bachelor,2022.2.4,59.962176604102844,
,,,,,,,,,,,,1,0,1,0,139,0,139,0,,,,,,,139,,,0.2,1142.3054951246595,Y,l,go,l,1,0.35793715179897845,,,,,,,,,,,,,,,,,,40,001,19,w,Bachelor Psychologie 100%,2023-01-18_10h27.13.918,00_bat_bachelor,2022.2.4,59.962176604102844,
,,,,,,,,,,,,1,0,1,0,140,0,140,0,,,,,,,140,,,0.2,1142.972564377007,Y,None,nogo,None,1,,1143.7730386555195,,,,,,,,,,,,,,,,,40,001,19,w,Bachelor Psychologie 100%,2023-01-18_10h27.13.918,00_bat_bachelor,2022.2.4,59.962176604102844,
,,,,,,,,,,,,1,0,1,0,141,0,141,0,,,,,,,141,,,0.2,1143.9732683766633,X,d,go,d,1,0.29022227553650737,,,,,,,,,,,,,,,,,,40,001,19,w,Bachelor Psychologie 100%,2023-01-18_10h27.13.918,00_bat_bachelor,2022.2.4,59.962176604102844,
,,,,,,,,,,,,1,0,1,0,142,0,142,0,,,,,,,142,,,0.2,1144.5736336612608,Y,l,go,l,1,0.3131105068605393,,,,,,,,,,,,,,,,,,40,001,19,w,Bachelor Psychologie 100%,2023-01-18_10h27.13.918,00_bat_bachelor,2022.2.4,59.962176604102844,
,,,,,,,,,,,,1,0,1,0,143,0,143,0,,,,,,,143,,,0.2,1145.2074709297158,X,d,go,d,1,0.38367871509399265,,,,,,,,,,,,,,,,,,40,001,19,w,Bachelor Psychologie 100%,2023-01-18_10h27.13.918,00_bat_bachelor,2022.2.4,59.962176604102844,
,,,,,,,,,,,,1,0,1,0,144,0,144,0,,,,,,,144,,,0.2,1145.8913047800306,Y,l,go,l,1,0.3724302356131375,,,,,,,,,,,,,,,,,,40,001,19,w,Bachelor Psychologie 100%,2023-01-18_10h27.13.918,00_bat_bachelor,2022.2.4,59.962176604102844,
,,,,,,,,,,,,1,0,1,0,145,0,145,0,,,,,,,145,,,0.2,1146.5921194704715,Y,None,nogo,d,0,0.42336402914952487,,,,,,,,,,,,,,,,,,40,001,19,w,Bachelor Psychologie 100%,2023-01-18_10h27.13.918,00_bat_bachelor,2022.2.4,59.962176604102844,
,,,,,,,,,,,,1,0,1,0,146,0,146,0,,,,,,,146,,,0.2,1147.3260071147233,X,d,go,None,0,,1148.1265657568583,,,,,,,,,,,,,,,,,40,001,19,w,Bachelor Psychologie 100%,2023-01-18_10h27.13.918,00_bat_bachelor,2022.2.4,59.962176604102844,
,,,,,,,,,,,,1,0,1,0,147,0,147,0,,,,,,,147,,,0.2,1148.326481781085,Y,l,go,l,1,0.36831048014573753,,,,,,,,,,,,,,,,,,40,001,19,w,Bachelor Psychologie 100%,2023-01-18_10h27.13.918,00_bat_bachelor,2022.2.4,59.962176604102844,
,,,,,,,,,,,,1,0,1,0,148,0,148,0,,,,,,,148,,,0.2,1149.0269750172738,X,d,go,d,1,0.3405180088011548,,,,,,,,,,,,,,,,,,40,001,19,w,Bachelor Psychologie 100%,2023-01-18_10h27.13.918,00_bat_bachelor,2022.2.4,59.962176604102844,
,,,,,,,,,,,,1,0,1,0,149,0,149,0,,,,,,,149,,,0.2,1149.6777349441545,X,None,nogo,None,1,,1150.4781990408665,,,,,,,,,,,,,,,,,40,001,19,w,Bachelor Psychologie 100%,2023-01-18_10h27.13.918,00_bat_bachelor,2022.2.4,59.962176604102844,
,,,,,,,,,,,,1,0,1,0,150,0,150,0,,,,,,,150,,,0.2,1150.6786362770945,Y,l,go,l,1,0.4813092132098973,,,,,,,,,,,,,,,,,,40,001,19,w,Bachelor Psychologie 100%,2023-01-18_10h27.13.918,00_bat_bachelor,2022.2.4,59.962176604102844,
,,,,,,,,,,,,1,0,1,0,151,0,151,0,,,,,,,151,,,0.2,1151.4621859577019,X,d,go,d,1,0.43300232745241374,,,,,,,,,,,,,,,,,,40,001,19,w,Bachelor Psychologie 100%,2023-01-18_10h27.13.918,00_bat_bachelor,2022.2.4,59.962176604102844,
,,,,,,,,,,,,1,0,1,0,152,0,152,0,,,,,,,152,,,0.2,1152.1964522683993,Y,l,go,l,1,0.5163045901572332,,,,,,,,,,,,,,,,,,40,001,19,w,Bachelor Psychologie 100%,2023-01-18_10h27.13.918,00_bat_bachelor,2022.2.4,59.962176604102844,
,,,,,,,,,,,,1,0,1,0,153,0,153,0,,,,,,,153,,,0.2,1153.0134327207925,Y,None,nogo,None,1,,1153.8142444536788,,,,,,,,,,,,,,,,,40,001,19,w,Bachelor Psychologie 100%,2023-01-18_10h27.13.918,00_bat_bachelor,2022.2.4,59.962176604102844,
,,,,,,,,,,,,1,0,1,0,154,0,154,0,,,,,,,154,,,0.2,1154.0143020537216,X,d,go,l,0,0.36128502897918224,,,,,,,,,,,,,,,,,,40,001,19,w,Bachelor Psychologie 100%,2023-01-18_10h27.13.918,00_bat_bachelor,2022.2.4,59.962176604102844,
,,,,,,,,,,,,1,0,1,0,155,0,155,0,,,,,,,155,,,0.2,1154.681584154372,Y,l,go,l,1,0.6059127891203389,,,,,,,,,,,,,,,,,,40,001,19,w,Bachelor Psychologie 100%,2023-01-18_10h27.13.918,00_bat_bachelor,2022.2.4,59.962176604102844,
,,,,,,,,,,,,1,0,1,0,156,0,156,0,,,,,,,156,,,0.2,1155.5986833461793,Y,None,nogo,None,1,,1156.3994863517582,,,,,,,,,,,,,,,,,40,001,19,w,Bachelor Psychologie 100%,2023-01-18_10h27.13.918,00_bat_bachelor,2022.2.4,59.962176604102844,
,,,,,,,,,,,,1,0,1,0,157,0,157,0,,,,,,,157,,,0.2,1156.5994615275413,X,d,go,d,1,0.528328341897577,,,,,,,,,,,,,,,,,,40,001,19,w,Bachelor Psychologie 100%,2023-01-18_10h27.13.918,00_bat_bachelor,2022.2.4,59.962176604102844,
,,,,,,,,,,,,1,0,1,0,158,0,158,0,,,,,,,158,,,0.2,1157.4334368808195,Y,l,go,l,1,0.4128307008650154,,,,,,,,,,,,,,,,,,40,001,19,w,Bachelor Psychologie 100%,2023-01-18_10h27.13.918,00_bat_bachelor,2022.2.4,59.962176604102844,
,,,,,,,,,,,,1,0,1,0,159,0,159,0,,,,,,,159,,,0.2,1158.1672823431436,Y,None,nogo,l,0,0.5284471297636628,,,,,,,,,,,,,,,,,,40,001,19,w,Bachelor Psychologie 100%,2023-01-18_10h27.13.918,00_bat_bachelor,2022.2.4,59.962176604102844,
,,,,,,,,,,,,1,0,1,0,160,0,160,0,,,,,,,160,,,0.2,1159.018220597296,X,d,go,d,1,0.5889930397970602,,,,,,,,,,,,,,,,,,40,001,19,w,Bachelor Psychologie 100%,2023-01-18_10h27.13.918,00_bat_bachelor,2022.2.4,59.962176604102844,
,,,,,,,,,,,,1,0,1,0,161,0,161,0,,,,,,,161,,,0.2,1159.918915433227,Y,l,go,l,1,0.504714292823337,,,,,,,,,,,,,,,,,,40,001,19,w,Bachelor Psychologie 100%,2023-01-18_10h27.13.918,00_bat_bachelor,2022.2.4,59.962176604102844,
,,,,,,,,,,,,1,0,1,0,162,0,162,0,,,,,,,162,,,0.2,1160.753011998604,X,d,go,d,1,0.48699599830433726,,,,,,,,,,,,,,,,,,40,001,19,w,Bachelor Psychologie 100%,2023-01-18_10h27.13.918,00_bat_bachelor,2022.2.4,59.962176604102844,
,,,,,,,,,,,,1,0,1,0,163,0,163,0,,,,,,,163,,,0.2,1161.5532899135724,Y,l,go,l,1,0.6465004058554769,,,,,,,,,,,,,,,,,,40,001,19,w,Bachelor Psychologie 100%,2023-01-18_10h27.13.918,00_bat_bachelor,2022.2.4,59.962176604102844,
,,,,,,,,,,,,1,0,1,0,164,0,164,0,,,,,,,164,,,0.2,1162.5039624223718,Y,None,nogo,None,1,,1163.3045617917087,,,,,,,,,,,,,,,,,40,001,19,w,Bachelor Psychologie 100%,2023-01-18_10h27.13.918,00_bat_bachelor,2022.2.4,59.962176604102844,
,,,,,,,,,,,,1,0,1,0,165,0,165,0,,,,,,,165,,,0.2,1163.5050193915376,X,d,go,d,1,0.26275125856045634,,,,,,,,,,,,,,,,,,40,001,19,w,Bachelor Psychologie 100%,2023-01-18_10h27.13.918,00_bat_bachelor,2022.2.4,59.962176604102844,
,,,,,,,,,,,,1,0,1,0,166,0,166,0,,,,,,,166,,,0.2,1164.0718128137523,Y,l,go,l,1,0.4807933346601203,,,,,,,,,,,,,,,,,,40,001,19,w,Bachelor Psychologie 100%,2023-01-18_10h27.13.918,00_bat_bachelor,2022.2.4,59.962176604102844,
