loop_instruction.thisRepN,loop_instruction.thisTrialN,loop_instruction.thisN,loop_instruction.thisIndex,loop_rsi_practice.thisRepN,loop_rsi_practice.thisTrialN,loop_rsi_practice.thisN,loop_rsi_practice.thisIndex,loop_practice.thisRepN,loop_practice.thisTrialN,loop_practice.thisN,loop_practice.thisIndex,loop_exp.thisRepN,loop_exp.thisTrialN,loop_exp.thisN,loop_exp.thisIndex,loop_trials.thisRepN,loop_trials.thisTrialN,loop_trials.thisN,loop_trials.thisIndex,map_condition,map_x_key,map_y_key,key_resp_welcome.started,key_resp_welcome.keys,key_resp_welcome.rt,index,text_empty_rsi_practice.started,text_empty_rsi_practice.stopped,rsi,stimulus.started,stimulus,correct,trial_type,key_resp_trial.keys,key_resp_trial.corr,key_resp_trial.rt,stimulus.stopped,key_resp_instruction_rsi.started,key_resp_instruction_rsi.keys,key_resp_instruction_rsi.rt,key_resp_instruction_rsi.stopped,key_resp_instruction_final.started,key_resp_instruction_final.keys,key_resp_instruction_final.rt,key_resp_break.started,key_resp_break.keys,key_resp_break.rt,key_resp_break.stopped,key_resp_end_screen.started,image_end_screen.started,key_resp_end_screen.keys,participant,session,Alter,Geschlecht (w/m/d/andere),Studiengang,date,expName,psychopyVersion,frameRate,
,,,,0,0,0,0,0,0,0,0,,,,,,,,,1,l,d,8992.391211446695,j,22.23556354676839,0,9014.657320893428,9015.669777129806,1,9015.669777129806,X,l,go,l,1,0.4734397950815037,,,,,,,,,,,,,,,,41,001,22,w,Psychologie,2023-01-18_12h35.01.826,00_bat_bachelor,2022.2.4,60.031638476326926,
,,,,0,0,0,0,1,0,1,0,,,,,,,,,,,,,,,1,9016.869583093532,9017.87196757723,1,9017.87196757723,Y,d,go,d,1,0.4178708523104433,,,,,,,,,,,,,,,,41,001,22,w,Psychologie,2023-01-18_12h35.01.826,00_bat_bachelor,2022.2.4,60.031638476326926,
,,,,0,0,0,0,2,0,2,0,,,,,,,,,,,,,,,2,9019.019625687448,9020.019833687344,1,9020.019833687344,X,l,go,l,1,0.6026925808691885,,,,,,,,,,,,,,,,41,001,22,w,Psychologie,2023-01-18_12h35.01.826,00_bat_bachelor,2022.2.4,60.031638476326926,
,,,,0,0,0,0,3,0,3,0,,,,,,,,,,,,,,,3,9021.352876919816,9022.353330252925,1,9022.353330252925,Y,d,go,d,1,0.38184808191726916,,,,,,,,,,,,,,,,41,001,22,w,Psychologie,2023-01-18_12h35.01.826,00_bat_bachelor,2022.2.4,60.031638476326926,
,,,,0,0,0,0,4,0,4,0,,,,,,,,,,,,,,,4,9023.452894325863,9024.453142568178,1,9024.453142568178,Y,None,nogo,None,1,,9025.25290896828,,,,,,,,,,,,,,,41,001,22,w,Psychologie,2023-01-18_12h35.01.826,00_bat_bachelor,2022.2.4,60.031638476326926,
,,,,0,0,0,0,5,0,5,0,,,,,,,,,,,,,,,5,9025.853236919647,9026.853139949992,1,9026.853139949992,X,l,go,l,1,0.4097060078056529,,,,,,,,,,,,,,,,41,001,22,w,Psychologie,2023-01-18_12h35.01.826,00_bat_bachelor,2022.2.4,60.031638476326926,
,,,,0,0,0,0,6,0,6,0,,,,,,,,,,,,,,,6,9027.986177461251,9028.98608437038,1,9028.98608437038,Y,d,go,d,1,0.38922698740498163,,,,,,,,,,,,,,,,41,001,22,w,Psychologie,2023-01-18_12h35.01.826,00_bat_bachelor,2022.2.4,60.031638476326926,
,,,,0,0,0,0,7,0,7,0,,,,,,,,,,,,,,,7,9030.086249655142,9031.085941291676,1,9031.085941291676,X,l,go,l,1,0.32078920243657194,,,,,,,,,,,,,,,,41,001,22,w,Psychologie,2023-01-18_12h35.01.826,00_bat_bachelor,2022.2.4,60.031638476326926,
,,,,0,0,0,0,8,0,8,0,,,,,,,,,,,,,,,8,9032.136104176432,9033.135883085633,1,9033.135883085633,X,None,nogo,l,0,0.4627314366225619,,,,,,,,,,,,,,,,41,001,22,w,Psychologie,2023-01-18_12h35.01.826,00_bat_bachelor,2022.2.4,60.031638476326926,
,,,,0,0,0,0,9,0,9,0,,,,,,,,,,,,,,,9,9034.736066067358,9035.736115521897,1,9035.736115521897,Y,d,go,None,0,,9036.535876588663,,,,,,,,,,,,,,,41,001,22,w,Psychologie,2023-01-18_12h35.01.826,00_bat_bachelor,2022.2.4,60.031638476326926,
,,,,0,0,0,0,10,0,10,0,,,,,,,,,,,,,,,10,9037.136075085553,9038.136120176438,1,9038.136120176438,X,l,go,l,1,0.3749079640547279,,,,,,,,,,,,,,,,41,001,22,w,Psychologie,2023-01-18_12h35.01.826,00_bat_bachelor,2022.2.4,60.031638476326926,
,,,,0,0,0,0,11,0,11,0,,,,,,,,,,,,,,,11,9039.236086673423,9040.236058067356,1,9040.236058067356,Y,d,go,d,1,0.547166304779239,,,,,,,,,,,,,,,,41,001,22,w,Psychologie,2023-01-18_12h35.01.826,00_bat_bachelor,2022.2.4,60.031638476326926,
,,,,0,0,0,0,12,0,12,0,,,,,,,,,,,,,,,12,9041.486073461303,9042.48610109766,1,9042.48610109766,Y,None,nogo,None,1,,9043.285883012897,,,,,,,,,,,,,,,41,001,22,w,Psychologie,2023-01-18_12h35.01.826,00_bat_bachelor,2022.2.4,60.031638476326926,
,,,,0,0,0,0,13,0,13,0,,,,,,,,,,,,,,,13,9043.886061146157,9044.886118358234,1,9044.886118358234,X,l,go,l,1,0.34546167531516403,,,,,,,,,,,,,,,,41,001,22,w,Psychologie,2023-01-18_12h35.01.826,00_bat_bachelor,2022.2.4,60.031638476326926,
,,,,0,0,0,0,14,0,14,0,,,,,,,,,,,,,,,14,9045.936063061294,9046.936062576453,1,9046.936062576453,Y,d,go,l,0,0.4715013717650436,,,,,,,,,,,,,,,,41,001,22,w,Psychologie,2023-01-18_12h35.01.826,00_bat_bachelor,2022.2.4,60.031638476326926,
,,,,1,0,1,0,0,0,0,0,,,,,,,,,,,,,,,0,9069.619082366495,9069.81891839084,0.2,9069.81891839084,X,l,go,l,1,0.4846679108450189,,9048.151854471827,j,21.434655329037923,,,,,,,,,,,,41,001,22,w,Psychologie,2023-01-18_12h35.01.826,00_bat_bachelor,2022.2.4,60.031638476326926,
,,,,1,0,1,0,1,0,1,0,,,,,,,,,,,,,,,1,9071.018878051458,9071.219066560443,0.2,9071.219066560443,Y,d,go,d,1,0.3483644617663231,,,,,,,,,,,,,,,,41,001,22,w,Psychologie,2023-01-18_12h35.01.826,00_bat_bachelor,2022.2.4,60.031638476326926,
,,,,1,0,1,0,2,0,2,0,,,,,,,,,,,,,,,2,9072.268808112101,9072.46906256047,0.2,9072.46906256047,X,l,go,d,0,0.29785103173344396,,,,,,,,,,,,,,,,41,001,22,w,Psychologie,2023-01-18_12h35.01.826,00_bat_bachelor,2022.2.4,60.031638476326926,
,,,,1,0,1,0,3,0,3,0,,,,,,,,,,,,,,,3,9073.468936015066,9073.669157008902,0.2,9073.669157008902,X,None,nogo,l,0,0.5233059527236037,,,,,,,,,,,,,,,,41,001,22,w,Psychologie,2023-01-18_12h35.01.826,00_bat_bachelor,2022.2.4,60.031638476326926,
,,,,1,0,1,0,4,0,4,0,,,,,,,,,,,,,,,4,9075.302229186811,9075.502597574494,0.2,9075.502597574494,Y,d,go,None,0,,9076.302241792844,,,,,,,,,,,,,,,41,001,22,w,Psychologie,2023-01-18_12h35.01.826,00_bat_bachelor,2022.2.4,60.031638476326926,
,,,,1,0,1,0,5,0,5,0,,,,,,,,,,,,,,,5,9076.902399562474,9077.102248192852,0.2,9077.102248192852,X,l,go,l,1,0.3529903989401646,,,,,,,,,,,,,,,,41,001,22,w,Psychologie,2023-01-18_12h35.01.826,00_bat_bachelor,2022.2.4,60.031638476326926,
,,,,1,0,1,0,6,0,6,0,,,,,,,,,,,,,,,6,9078.169097130129,9078.369077639247,0.2,9078.369077639247,X,None,nogo,None,1,,9079.169157736178,,,,,,,,,,,,,,,41,001,22,w,Psychologie,2023-01-18_12h35.01.826,00_bat_bachelor,2022.2.4,60.031638476326926,
,,,,1,0,1,0,7,0,7,0,,,,,,,,,,,,,,,7,9079.769241324015,9079.968908621144,0.2,9079.968908621144,Y,d,go,d,1,0.3987770433886908,,,,,,,,,,,,,,,,41,001,22,w,Psychologie,2023-01-18_12h35.01.826,00_bat_bachelor,2022.2.4,60.031638476326926,
,,,,1,0,1,0,8,0,8,0,,,,,,,,,,,,,,,8,9081.069033663487,9081.269073324074,0.2,9081.269073324074,X,l,go,l,1,0.538232975784922,,,,,,,,,,,,,,,,41,001,22,w,Psychologie,2023-01-18_12h35.01.826,00_bat_bachelor,2022.2.4,60.031638476326926,
,,,,1,0,1,0,9,0,9,0,,,,,,,,,,,,,,,9,9082.519287505798,9082.71906922711,0.2,9082.71906922711,X,None,nogo,None,1,,9083.519151263434,,,,,,,,,,,,,,,41,001,22,w,Psychologie,2023-01-18_12h35.01.826,00_bat_bachelor,2022.2.4,60.031638476326926,
,,,,1,0,1,0,10,0,10,0,,,,,,,,,,,,,,,10,9084.119075821043,9084.319078633183,0.2,9084.319078633183,Y,d,go,d,1,0.46384852699702606,,,,,,,,,,,,,,,,41,001,22,w,Psychologie,2023-01-18_12h35.01.826,00_bat_bachelor,2022.2.4,60.031638476326926,
,,,,1,0,1,0,11,0,11,0,,,,,,,,,,,,,,,11,9085.485608976684,9085.686508758052,0.2,9085.686508758052,X,l,go,l,1,0.4411765379772987,,,,,,,,,,,,,,,,41,001,22,w,Psychologie,2023-01-18_12h35.01.826,00_bat_bachelor,2022.2.4,60.031638476326926,
,,,,1,0,1,0,12,0,12,0,,,,,,,,,,,,,,,12,9086.853010495513,9087.052994883386,0.2,9087.052994883386,X,None,nogo,None,1,,9087.853010980354,,,,,,,,,,,,,,,41,001,22,w,Psychologie,2023-01-18_12h35.01.826,00_bat_bachelor,2022.2.4,60.031638476326926,
,,,,1,0,1,0,13,0,13,0,,,,,,,,,,,,,,,13,9088.452887538006,9088.65325883479,0.2,9088.65325883479,Y,d,go,d,1,0.3854863831656985,,,,,,,,,,,,,,,,41,001,22,w,Psychologie,2023-01-18_12h35.01.826,00_bat_bachelor,2022.2.4,60.031638476326926,
,,,,1,0,1,0,14,0,14,0,,,,,,,,,,,,,,,14,9089.769667990477,9089.96986425703,0.2,9089.96986425703,X,l,go,l,1,0.476876884320518,,,,,,,,,,,,,,,,41,001,22,w,Psychologie,2023-01-18_12h35.01.826,00_bat_bachelor,2022.2.4,60.031638476326926,
,,,,,,,,,,,,,,,,,,,,,,,,,,,,,,,,,,,,,,9091.222970073723,None,,9091.222970073723,9091.222970073723,space,7.723771794931963,,,,,,,,41,001,22,w,Psychologie,2023-01-18_12h35.01.826,00_bat_bachelor,2022.2.4,60.031638476326926,
,,,,,,,,,,,,0,0,0,0,0,0,0,0,,,,,,,0,,,1,9099.969327530038,X,l,go,l,1,0.2690122578351293,,,,,,,,,,,,,,,,41,001,22,w,Psychologie,2023-01-18_12h35.01.826,00_bat_bachelor,2022.2.4,60.031638476326926,
,,,,,,,,,,,,0,0,0,0,1,0,1,0,,,,,,,1,,,1,9101.369386972423,Y,d,go,d,1,0.32738459313986823,,,,,,,,,,,,,,,,41,001,22,w,Psychologie,2023-01-18_12h35.01.826,00_bat_bachelor,2022.2.4,60.031638476326926,
,,,,,,,,,,,,0,0,0,0,2,0,2,0,,,,,,,2,,,1,9102.802723974426,X,l,go,l,1,0.38065971885225736,,,,,,,,,,,,,,,,41,001,22,w,Psychologie,2023-01-18_12h35.01.826,00_bat_bachelor,2022.2.4,60.031638476326926,
,,,,,,,,,,,,0,0,0,0,3,0,3,0,,,,,,,3,,,1,9104.286076952209,X,None,nogo,None,1,,9105.08607607949,,,,,,,,,,,,,,,41,001,22,w,Psychologie,2023-01-18_12h35.01.826,00_bat_bachelor,2022.2.4,60.031638476326926,
,,,,,,,,,,,,0,0,0,0,4,0,4,0,,,,,,,4,,,1,9106.086074140097,Y,d,go,d,1,0.4574781058472581,,,,,,,,,,,,,,,,41,001,22,w,Psychologie,2023-01-18_12h35.01.826,00_bat_bachelor,2022.2.4,60.031638476326926,
,,,,,,,,,,,,0,0,0,0,5,0,5,0,,,,,,,5,,,1,9107.652736653225,X,l,go,l,1,0.49112172590685077,,,,,,,,,,,,,,,,41,001,22,w,Psychologie,2023-01-18_12h35.01.826,00_bat_bachelor,2022.2.4,60.031638476326926,
,,,,,,,,,,,,0,0,0,0,6,0,6,0,,,,,,,6,,,1,9109.252833331964,Y,d,go,d,1,0.4581845297361724,,,,,,,,,,,,,,,,41,001,22,w,Psychologie,2023-01-18_12h35.01.826,00_bat_bachelor,2022.2.4,60.031638476326926,
,,,,,,,,,,,,0,0,0,0,7,0,7,0,,,,,,,7,,,1,9110.819330027007,Y,None,nogo,None,1,,9111.619234124024,,,,,,,,,,,,,,,41,001,22,w,Psychologie,2023-01-18_12h35.01.826,00_bat_bachelor,2022.2.4,60.031638476326926,
,,,,,,,,,,,,0,0,0,0,8,0,8,0,,,,,,,8,,,1,9112.619170608901,X,l,go,l,1,0.38794892744044773,,,,,,,,,,,,,,,,41,001,22,w,Psychologie,2023-01-18_12h35.01.826,00_bat_bachelor,2022.2.4,60.031638476326926,
,,,,,,,,,,,,0,0,0,0,9,0,9,0,,,,,,,9,,,1,9114.119401154225,Y,d,go,d,1,0.43933556918636896,,,,,,,,,,,,,,,,41,001,22,w,Psychologie,2023-01-18_12h35.01.826,00_bat_bachelor,2022.2.4,60.031638476326926,
,,,,,,,,,,,,0,0,0,0,10,0,10,0,,,,,,,10,,,1,9115.686005000724,Y,None,nogo,None,1,,9116.48605940069,,,,,,,,,,,,,,,41,001,22,w,Psychologie,2023-01-18_12h35.01.826,00_bat_bachelor,2022.2.4,60.031638476326926,
,,,,,,,,,,,,0,0,0,0,11,0,11,0,,,,,,,11,,,1,9117.48582764325,X,l,go,l,1,0.3694539061107207,,,,,,,,,,,,,,,,41,001,22,w,Psychologie,2023-01-18_12h35.01.826,00_bat_bachelor,2022.2.4,60.031638476326926,
,,,,,,,,,,,,0,0,0,0,12,0,12,0,,,,,,,12,,,1,9118.969353711844,Y,d,go,d,1,0.4855459710233845,,,,,,,,,,,,,,,,41,001,22,w,Psychologie,2023-01-18_12h35.01.826,00_bat_bachelor,2022.2.4,60.031638476326926,
,,,,,,,,,,,,0,0,0,0,13,0,13,0,,,,,,,13,,,1,9120.586072443111,X,l,go,l,1,0.4378010244690813,,,,,,,,,,,,,,,,41,001,22,w,Psychologie,2023-01-18_12h35.01.826,00_bat_bachelor,2022.2.4,60.031638476326926,
,,,,,,,,,,,,0,0,0,0,14,0,14,0,,,,,,,14,,,1,9122.136049388588,X,None,nogo,None,1,,9122.93611057644,,,,,,,,,,,,,,,41,001,22,w,Psychologie,2023-01-18_12h35.01.826,00_bat_bachelor,2022.2.4,60.031638476326926,
,,,,,,,,,,,,0,0,0,0,15,0,15,0,,,,,,,15,,,1,9123.935834697768,Y,d,go,d,1,0.4154068535135593,,,,,,,,,,,,,,,,41,001,22,w,Psychologie,2023-01-18_12h35.01.826,00_bat_bachelor,2022.2.4,60.031638476326926,
,,,,,,,,,,,,0,0,0,0,16,0,16,0,,,,,,,16,,,1,9125.452716386557,X,l,go,l,1,0.46708004057290964,,,,,,,,,,,,,,,,41,001,22,w,Psychologie,2023-01-18_12h35.01.826,00_bat_bachelor,2022.2.4,60.031638476326926,
,,,,,,,,,,,,0,0,0,0,17,0,17,0,,,,,,,17,,,1,9127.019352717878,X,None,nogo,None,1,,9127.818921784754,,,,,,,,,,,,,,,41,001,22,w,Psychologie,2023-01-18_12h35.01.826,00_bat_bachelor,2022.2.4,60.031638476326926,
,,,,,,,,,,,,0,0,0,0,18,0,18,0,,,,,,,18,,,1,9128.819043481664,Y,d,go,d,1,0.4769311873242259,,,,,,,,,,,,,,,,41,001,22,w,Psychologie,2023-01-18_12h35.01.826,00_bat_bachelor,2022.2.4,60.031638476326926,
,,,,,,,,,,,,0,0,0,0,19,0,19,0,,,,,,,19,,,1,9130.402364895825,X,l,go,l,1,0.38093899143859744,,,,,,,,,,,,,,,,41,001,22,w,Psychologie,2023-01-18_12h35.01.826,00_bat_bachelor,2022.2.4,60.031638476326926,
,,,,,,,,,,,,0,0,0,0,20,0,20,0,,,,,,,20,,,1,9131.918950827181,Y,d,go,d,1,0.3367028916836716,,,,,,,,,,,,,,,,41,001,22,w,Psychologie,2023-01-18_12h35.01.826,00_bat_bachelor,2022.2.4,60.031638476326926,
,,,,,,,,,,,,0,0,0,0,21,0,21,0,,,,,,,21,,,1,9133.368886124168,Y,None,nogo,None,1,,9134.168900281744,,,,,,,,,,,,,,,41,001,22,w,Psychologie,2023-01-18_12h35.01.826,00_bat_bachelor,2022.2.4,60.031638476326926,
,,,,,,,,,,,,0,0,0,0,22,0,22,0,,,,,,,22,,,1,9135.16885616057,X,l,go,l,1,0.5114179584779777,,,,,,,,,,,,,,,,41,001,22,w,Psychologie,2023-01-18_12h35.01.826,00_bat_bachelor,2022.2.4,60.031638476326926,
,,,,,,,,,,,,0,0,0,0,23,0,23,0,,,,,,,23,,,1,9136.785504103987,Y,d,go,d,1,0.4146509750862606,,,,,,,,,,,,,,,,41,001,22,w,Psychologie,2023-01-18_12h35.01.826,00_bat_bachelor,2022.2.4,60.031638476326926,
,,,,,,,,,,,,0,0,0,0,24,0,24,0,,,,,,,24,,,1,9138.302188944392,X,l,go,l,1,0.4493539885734208,,,,,,,,,,,,,,,,41,001,22,w,Psychologie,2023-01-18_12h35.01.826,00_bat_bachelor,2022.2.4,60.031638476326926,
,,,,,,,,,,,,0,0,0,0,25,0,25,0,,,,,,,25,,,1,9139.851926374831,Y,d,go,d,1,0.43520611664280295,,,,,,,,,,,,,,,,41,001,22,w,Psychologie,2023-01-18_12h35.01.826,00_bat_bachelor,2022.2.4,60.031638476326926,
,,,,,,,,,,,,0,0,0,0,26,0,26,0,,,,,,,26,,,1,9141.402073502017,X,l,go,l,1,0.46951882730354555,,,,,,,,,,,,,,,,41,001,22,w,Psychologie,2023-01-18_12h35.01.826,00_bat_bachelor,2022.2.4,60.031638476326926,
,,,,,,,,,,,,0,0,0,0,27,0,27,0,,,,,,,27,,,1,9142.985535522166,Y,d,go,d,1,0.40679837283096276,,,,,,,,,,,,,,,,41,001,22,w,Psychologie,2023-01-18_12h35.01.826,00_bat_bachelor,2022.2.4,60.031638476326926,
,,,,,,,,,,,,0,0,0,0,28,0,28,0,,,,,,,28,,,1,9144.501938180882,X,l,go,l,1,0.3932051672891248,,,,,,,,,,,,,,,,41,001,22,w,Psychologie,2023-01-18_12h35.01.826,00_bat_bachelor,2022.2.4,60.031638476326926,
,,,,,,,,,,,,0,0,0,0,29,0,29,0,,,,,,,29,,,1,9146.00193066572,X,None,nogo,None,1,,9146.802369065525,,,,,,,,,,,,,,,41,001,22,w,Psychologie,2023-01-18_12h35.01.826,00_bat_bachelor,2022.2.4,60.031638476326926,
,,,,,,,,,,,,0,0,0,0,30,0,30,0,,,,,,,30,,,1,9147.802185308043,Y,d,go,d,1,0.548934061487671,,,,,,,,,,,,,,,,41,001,22,w,Psychologie,2023-01-18_12h35.01.826,00_bat_bachelor,2022.2.4,60.031638476326926,
,,,,,,,,,,,,0,0,0,0,31,0,31,0,,,,,,,31,,,1,9149.451947902096,X,l,go,l,1,0.3554495492717251,,,,,,,,,,,,,,,,41,001,22,w,Psychologie,2023-01-18_12h35.01.826,00_bat_bachelor,2022.2.4,60.031638476326926,
,,,,,,,,,,,,0,0,0,0,32,0,32,0,,,,,,,32,,,1,9150.91886840298,Y,d,go,d,1,0.4086228568048682,,,,,,,,,,,,,,,,41,001,22,w,Psychologie,2023-01-18_12h35.01.826,00_bat_bachelor,2022.2.4,60.031638476326926,
,,,,,,,,,,,,0,0,0,0,33,0,33,0,,,,,,,33,,,1,9152.435201243556,X,l,go,l,1,0.28346655383938923,,,,,,,,,,,,,,,,41,001,22,w,Psychologie,2023-01-18_12h35.01.826,00_bat_bachelor,2022.2.4,60.031638476326926,
,,,,,,,,,,,,0,0,0,0,34,0,34,0,,,,,,,34,,,1,9153.836565897422,Y,d,go,d,1,0.4021690417721402,,,,,,,,,,,,,,,,41,001,22,w,Psychologie,2023-01-18_12h35.01.826,00_bat_bachelor,2022.2.4,60.031638476326926,
,,,,,,,,,,,,0,0,0,0,35,0,35,0,,,,,,,35,,,1,9155.386133630964,Y,None,nogo,None,1,,9156.186651061027,,,,,,,,,,,,,,,41,001,22,w,Psychologie,2023-01-18_12h35.01.826,00_bat_bachelor,2022.2.4,60.031638476326926,
,,,,,,,,,,,,0,0,0,0,36,0,36,0,,,,,,,36,,,1,9157.186467788386,X,l,go,l,1,0.23632330397958867,,,,,,,,,,,,,,,,41,001,22,w,Psychologie,2023-01-18_12h35.01.826,00_bat_bachelor,2022.2.4,60.031638476326926,
,,,,,,,,,,,,0,0,0,0,37,0,37,0,,,,,,,37,,,1,9158.569961420639,Y,d,go,d,1,0.324624836910516,,,,,,,,,,,,,,,,41,001,22,w,Psychologie,2023-01-18_12h35.01.826,00_bat_bachelor,2022.2.4,60.031638476326926,
,,,,,,,,,,,,0,0,0,0,38,0,38,0,,,,,,,38,,,1,9160.03655561863,X,l,go,l,1,0.4104604316817131,,,,,,,,,,,,,,,,41,001,22,w,Psychologie,2023-01-18_12h35.01.826,00_bat_bachelor,2022.2.4,60.031638476326926,
,,,,,,,,,,,,0,0,0,0,39,0,39,0,,,,,,,39,,,1,9161.569215239171,Y,d,go,d,1,0.3988420130626764,,,,,,,,,,,,,,,,41,001,22,w,Psychologie,2023-01-18_12h35.01.826,00_bat_bachelor,2022.2.4,60.031638476326926,
,,,,,,,,,,,,0,0,0,0,40,0,40,0,,,,,,,40,,,1,9163.068878027203,X,l,go,l,1,0.3389123451488558,,,,,,,,,,,,,,,,41,001,22,w,Psychologie,2023-01-18_12h35.01.826,00_bat_bachelor,2022.2.4,60.031638476326926,
,,,,,,,,,,,,0,0,0,0,41,0,41,0,,,,,,,41,,,1,9164.519001930195,Y,d,go,d,1,0.568518052023137,,,,,,,,,,,,,,,,41,001,22,w,Psychologie,2023-01-18_12h35.01.826,00_bat_bachelor,2022.2.4,60.031638476326926,
,,,,,,,,,,,,0,0,0,0,42,0,42,0,,,,,,,42,,,1,9166.202239901933,X,l,go,l,1,0.357742881460581,,,,,,,,,,,,,,,,41,001,22,w,Psychologie,2023-01-18_12h35.01.826,00_bat_bachelor,2022.2.4,60.031638476326926,
,,,,,,,,,,,,0,0,0,0,43,0,43,0,,,,,,,43,,,1,9167.668733251514,X,None,nogo,None,1,,9168.469013590773,,,,,,,,,,,,,,,41,001,22,w,Psychologie,2023-01-18_12h35.01.826,00_bat_bachelor,2022.2.4,60.031638476326926,
,,,,,,,,,,,,0,0,0,0,44,0,44,0,,,,,,,44,,,1,9169.468888499949,Y,d,go,d,1,0.37056032981490716,,,,,,,,,,,,,,,,41,001,22,w,Psychologie,2023-01-18_12h35.01.826,00_bat_bachelor,2022.2.4,60.031638476326926,
,,,,,,,,,,,,0,0,0,0,45,0,45,0,,,,,,,45,,,1,9170.952144508046,X,l,go,l,1,0.3271300478372723,,,,,,,,,,,,,,,,41,001,22,w,Psychologie,2023-01-18_12h35.01.826,00_bat_bachelor,2022.2.4,60.031638476326926,
,,,,,,,,,,,,0,0,0,0,46,0,46,0,,,,,,,46,,,1,9172.385662843328,Y,d,go,d,1,0.3337618022051174,,,,,,,,,,,,,,,,41,001,22,w,Psychologie,2023-01-18_12h35.01.826,00_bat_bachelor,2022.2.4,60.031638476326926,
,,,,,,,,,,,,0,0,0,0,47,0,47,0,,,,,,,47,,,1,9173.818986269587,X,l,go,l,1,0.22811870189616457,,,,,,,,,,,,,,,,41,001,22,w,Psychologie,2023-01-18_12h35.01.826,00_bat_bachelor,2022.2.4,60.031638476326926,
,,,,,,,,,,,,0,0,0,0,48,0,48,0,,,,,,,48,,,1,9175.152077017177,Y,d,go,l,0,0.3665133014728781,,,,,,,,,,,,,,,,41,001,22,w,Psychologie,2023-01-18_12h35.01.826,00_bat_bachelor,2022.2.4,60.031638476326926,
,,,,,,,,,,,,0,0,0,0,49,0,49,0,,,,,,,49,,,1,9176.618996548379,X,l,go,None,0,,9177.41884391813,,,,,,,,,,,,,,,41,001,22,w,Psychologie,2023-01-18_12h35.01.826,00_bat_bachelor,2022.2.4,60.031638476326926,
,,,,,,,,,,,,0,0,0,0,50,0,50,0,,,,,,,50,,,1,9178.418800281797,Y,d,go,d,1,0.5085146871570032,,,,,,,,,,,,,,,,41,001,22,w,Psychologie,2023-01-18_12h35.01.826,00_bat_bachelor,2022.2.4,60.031638476326926,
,,,,,,,,,,,,0,0,0,0,51,0,51,0,,,,,,,51,,,1,9180.03573719479,X,l,go,l,1,0.3801981433352921,,,,,,,,,,,,,,,,41,001,22,w,Psychologie,2023-01-18_12h35.01.826,00_bat_bachelor,2022.2.4,60.031638476326926,
,,,,,,,,,,,,0,0,0,0,52,0,52,0,,,,,,,52,,,1,9181.518983021087,X,None,nogo,l,0,0.49703638968640007,,,,,,,,,,,,,,,,41,001,22,w,Psychologie,2023-01-18_12h35.01.826,00_bat_bachelor,2022.2.4,60.031638476326926,
,,,,,,,,,,,,0,0,0,0,53,0,53,0,,,,,,,53,,,1,9183.118994851393,Y,d,go,None,0,,9183.918992524123,,,,,,,,,,,,,,,41,001,22,w,Psychologie,2023-01-18_12h35.01.826,00_bat_bachelor,2022.2.4,60.031638476326926,
,,,,,,,,,,,,0,0,0,0,54,0,54,0,,,,,,,54,,,1,9184.919097251346,X,l,go,l,1,0.5200482573127374,,,,,,,,,,,,,,,,41,001,22,w,Psychologie,2023-01-18_12h35.01.826,00_bat_bachelor,2022.2.4,60.031638476326926,
,,,,,,,,,,,,0,0,0,0,55,0,55,0,,,,,,,55,,,1,9186.552065671742,Y,d,go,d,1,0.42403181904228404,,,,,,,,,,,,,,,,41,001,22,w,Psychologie,2023-01-18_12h35.01.826,00_bat_bachelor,2022.2.4,60.031638476326926,
,,,,,,,,,,,,0,0,0,0,56,0,56,0,,,,,,,56,,,1,9188.085655231203,X,l,go,l,1,0.34527646328206174,,,,,,,,,,,,,,,,41,001,22,w,Psychologie,2023-01-18_12h35.01.826,00_bat_bachelor,2022.2.4,60.031638476326926,
,,,,,,,,,,,,0,0,0,0,57,0,57,0,,,,,,,57,,,1,9189.535381073743,Y,d,go,d,1,0.33553198314621113,,,,,,,,,,,,,,,,41,001,22,w,Psychologie,2023-01-18_12h35.01.826,00_bat_bachelor,2022.2.4,60.031638476326926,
,,,,,,,,,,,,0,0,0,0,58,0,58,0,,,,,,,58,,,1,9190.985423522216,X,l,go,l,1,0.37401923720608465,,,,,,,,,,,,,,,,41,001,22,w,Psychologie,2023-01-18_12h35.01.826,00_bat_bachelor,2022.2.4,60.031638476326926,
,,,,,,,,,,,,0,0,0,0,59,0,59,0,,,,,,,59,,,1,9192.468991772621,Y,d,go,d,1,0.4914834226947278,,,,,,,,,,,,,,,,41,001,22,w,Psychologie,2023-01-18_12h35.01.826,00_bat_bachelor,2022.2.4,60.031638476326926,
,,,,,,,,,,,,0,0,0,0,60,0,60,0,,,,,,,60,,,1,9194.069008451392,X,l,go,l,1,0.3619406976213213,,,,,,,,,,,,,,,,41,001,22,w,Psychologie,2023-01-18_12h35.01.826,00_bat_bachelor,2022.2.4,60.031638476326926,
,,,,,,,,,,,,0,0,0,0,61,0,61,0,,,,,,,61,,,1,9195.53567198271,Y,d,go,d,1,0.36791596745024435,,,,,,,,,,,,,,,,41,001,22,w,Psychologie,2023-01-18_12h35.01.826,00_bat_bachelor,2022.2.4,60.031638476326926,
,,,,,,,,,,,,0,0,0,0,62,0,62,0,,,,,,,62,,,1,9197.018796112097,X,l,go,l,1,0.3727605711610522,,,,,,,,,,,,,,,,41,001,22,w,Psychologie,2023-01-18_12h35.01.826,00_bat_bachelor,2022.2.4,60.031638476326926,
,,,,,,,,,,,,0,0,0,0,63,0,63,0,,,,,,,63,,,1,9198.502313938283,Y,d,go,d,1,0.36114166770130396,,,,,,,,,,,,,,,,41,001,22,w,Psychologie,2023-01-18_12h35.01.826,00_bat_bachelor,2022.2.4,60.031638476326926,
,,,,,,,,,,,,0,0,0,0,64,0,64,0,,,,,,,64,,,1,9199.969194196747,Y,None,nogo,None,1,,9200.768976596853,,,,,,,,,,,,,,,41,001,22,w,Psychologie,2023-01-18_12h35.01.826,00_bat_bachelor,2022.2.4,60.031638476326926,
,,,,,,,,,,,,0,0,0,0,65,0,65,0,,,,,,,65,,,1,9201.768743869703,X,l,go,l,1,0.2944231546134688,,,,,,,,,,,,,,,,41,001,22,w,Psychologie,2023-01-18_12h35.01.826,00_bat_bachelor,2022.2.4,60.031638476326926,
,,,,,,,,,,,,0,0,0,0,66,0,66,0,,,,,,,66,,,1,9203.16883579694,Y,d,go,d,1,0.3027004839386791,,,,,,,,,,,,,,,,41,001,22,w,Psychologie,2023-01-18_12h35.01.826,00_bat_bachelor,2022.2.4,60.031638476326926,
,,,,,,,,,,,,0,0,0,0,67,0,67,0,,,,,,,67,,,1,9204.585642382735,X,l,go,l,1,0.3107353891246021,,,,,,,,,,,,,,,,41,001,22,w,Psychologie,2023-01-18_12h35.01.826,00_bat_bachelor,2022.2.4,60.031638476326926,
,,,,,,,,,,,,0,0,0,0,68,0,68,0,,,,,,,68,,,1,9206.002142059559,Y,d,go,d,1,0.3340803475002758,,,,,,,,,,,,,,,,41,001,22,w,Psychologie,2023-01-18_12h35.01.826,00_bat_bachelor,2022.2.4,60.031638476326926,
,,,,,,,,,,,,0,0,0,0,69,0,69,0,,,,,,,69,,,1,9207.452307174652,Y,None,nogo,None,1,,9208.252396968543,,,,,,,,,,,,,,,41,001,22,w,Psychologie,2023-01-18_12h35.01.826,00_bat_bachelor,2022.2.4,60.031638476326926,
,,,,,,,,,,,,0,0,0,0,70,0,70,0,,,,,,,70,,,1,9209.252265574672,Y,None,nogo,None,1,,9210.052156095917,,,,,,,,,,,,,,,41,001,22,w,Psychologie,2023-01-18_12h35.01.826,00_bat_bachelor,2022.2.4,60.031638476326926,
,,,,,,,,,,,,0,0,0,0,71,0,71,0,,,,,,,71,,,1,9211.052389792778,X,l,go,l,1,0.4506407758453861,,,,,,,,,,,,,,,,41,001,22,w,Psychologie,2023-01-18_12h35.01.826,00_bat_bachelor,2022.2.4,60.031638476326926,
,,,,,,,,,,,,0,0,0,0,72,0,72,0,,,,,,,72,,,1,9212.618940305983,Y,d,go,d,1,0.372861904441379,,,,,,,,,,,,,,,,41,001,22,w,Psychologie,2023-01-18_12h35.01.826,00_bat_bachelor,2022.2.4,60.031638476326926,
,,,,,,,,,,,,0,0,0,0,73,0,73,0,,,,,,,73,,,1,9214.102016435383,X,l,go,l,1,0.3932376521406695,,,,,,,,,,,,,,,,41,001,22,w,Psychologie,2023-01-18_12h35.01.826,00_bat_bachelor,2022.2.4,60.031638476326926,
,,,,,,,,,,,,0,0,0,0,74,0,74,0,,,,,,,74,,,1,9215.602044799016,Y,d,go,d,1,0.31727841624524444,,,,,,,,,,,,,,,,41,001,22,w,Psychologie,2023-01-18_12h35.01.826,00_bat_bachelor,2022.2.4,60.031638476326926,
,,,,,,,,,,,,0,0,0,0,75,0,75,0,,,,,,,75,,,1,9217.03570664936,X,l,go,l,1,0.2931363673415035,,,,,,,,,,,,,,,,41,001,22,w,Psychologie,2023-01-18_12h35.01.826,00_bat_bachelor,2022.2.4,60.031638476326926,
,,,,,,,,,,,,0,0,0,0,76,0,76,0,,,,,,,76,,,1,9218.43564003121,Y,d,go,d,1,0.3796696587232873,,,,,,,,,,,,,,,,41,001,22,w,Psychologie,2023-01-18_12h35.01.826,00_bat_bachelor,2022.2.4,60.031638476326926,
,,,,,,,,,,,,0,0,0,0,77,0,77,0,,,,,,,77,,,1,9219.918957130198,X,l,go,l,1,0.33611767983529717,,,,,,,,,,,,,,,,41,001,22,w,Psychologie,2023-01-18_12h35.01.826,00_bat_bachelor,2022.2.4,60.031638476326926,
,,,,,,,,,,,,0,0,0,0,78,0,78,0,,,,,,,78,,,1,9221.36898988171,Y,d,go,d,1,0.26356450287858024,,,,,,,,,,,,,,,,41,001,22,w,Psychologie,2023-01-18_12h35.01.826,00_bat_bachelor,2022.2.4,60.031638476326926,
,,,,,,,,,,,,0,0,0,0,79,0,79,0,,,,,,,79,,,1,9222.735476491885,X,l,go,l,1,0.2870573399704881,,,,,,,,,,,,,,,,41,001,22,w,Psychologie,2023-01-18_12h35.01.826,00_bat_bachelor,2022.2.4,60.031638476326926,
,,,,,,,,,,,,0,0,0,0,80,0,80,0,,,,,,,80,,,1,9224.13546563129,Y,d,go,d,1,0.3281651988509111,,,,,,,,,,,,,,,,41,001,22,w,Psychologie,2023-01-18_12h35.01.826,00_bat_bachelor,2022.2.4,60.031638476326926,
,,,,,,,,,,,,0,0,0,0,81,0,81,0,,,,,,,81,,,1,9225.568963602942,Y,None,nogo,None,1,,9226.369078124088,,,,,,,,,,,,,,,41,001,22,w,Psychologie,2023-01-18_12h35.01.826,00_bat_bachelor,2022.2.4,60.031638476326926,
,,,,,,,,,,,,0,0,0,0,82,0,82,0,,,,,,,82,,,1,9227.368557881913,X,l,go,l,1,0.43898162996629253,,,,,,,,,,,,,,,,41,001,22,w,Psychologie,2023-01-18_12h35.01.826,00_bat_bachelor,2022.2.4,60.031638476326926,
,,,,,,,,,,,,0,0,0,0,83,0,83,0,,,,,,,83,,,1,9228.918839796941,Y,d,go,d,1,0.3126553882029839,,,,,,,,,,,,,,,,41,001,22,w,Psychologie,2023-01-18_12h35.01.826,00_bat_bachelor,2022.2.4,60.031638476326926,
,,,,,,,,,,,,0,0,0,0,84,0,84,0,,,,,,,84,,,1,9230.335473776737,X,l,go,l,1,0.43145387605181895,,,,,,,,,,,,,,,,41,001,22,w,Psychologie,2023-01-18_12h35.01.826,00_bat_bachelor,2022.2.4,60.031638476326926,
,,,,,,,,,,,,0,0,0,0,85,0,85,0,,,,,,,85,,,1,9231.868851942389,X,None,nogo,None,1,,9232.668828766618,,,,,,,,,,,,,,,41,001,22,w,Psychologie,2023-01-18_12h35.01.826,00_bat_bachelor,2022.2.4,60.031638476326926,
,,,,,,,,,,,,0,0,0,0,86,0,86,0,,,,,,,86,,,1,9233.66850779709,Y,d,go,d,1,0.42737533256877214,,,,,,,,,,,,,,,,41,001,22,w,Psychologie,2023-01-18_12h35.01.826,00_bat_bachelor,2022.2.4,60.031638476326926,
,,,,,,,,,,,,0,0,0,0,87,0,87,0,,,,,,,87,,,1,9235.201858326385,X,l,go,l,1,0.41415594500722364,,,,,,,,,,,,,,,,41,001,22,w,Psychologie,2023-01-18_12h35.01.826,00_bat_bachelor,2022.2.4,60.031638476326926,
,,,,,,,,,,,,0,0,0,0,88,0,88,0,,,,,,,88,,,1,9236.718818560563,X,None,nogo,None,1,,9237.518819142395,,,,,,,,,,,,,,,41,001,22,w,Psychologie,2023-01-18_12h35.01.826,00_bat_bachelor,2022.2.4,60.031638476326926,
,,,,,,,,,,,,0,0,0,0,89,0,89,0,,,,,,,89,,,1,9238.51882350602,Y,d,go,d,1,0.4090034627006389,,,,,,,,,,,,,,,,41,001,22,w,Psychologie,2023-01-18_12h35.01.826,00_bat_bachelor,2022.2.4,60.031638476326926,
,,,,,,,,,,,,0,0,0,0,90,0,90,0,,,,,,,90,,,1,9240.035639255453,X,l,go,l,1,0.38039838563418016,,,,,,,,,,,,,,,,41,001,22,w,Psychologie,2023-01-18_12h35.01.826,00_bat_bachelor,2022.2.4,60.031638476326926,
,,,,,,,,,,,,0,0,0,0,91,0,91,0,,,,,,,91,,,1,9241.518766293942,X,None,nogo,None,1,,9242.31895305749,,,,,,,,,,,,,,,41,001,22,w,Psychologie,2023-01-18_12h35.01.826,00_bat_bachelor,2022.2.4,60.031638476326926,
,,,,,,,,,,,,0,0,0,0,92,0,92,0,,,,,,,92,,,1,9243.318535603146,Y,d,go,d,1,0.4568924091581721,,,,,,,,,,,,,,,,41,001,22,w,Psychologie,2023-01-18_12h35.01.826,00_bat_bachelor,2022.2.4,60.031638476326926,
,,,,,,,,,,,,0,0,0,0,93,0,93,0,,,,,,,93,,,1,9244.902745259285,X,l,go,l,1,0.37609196349512786,,,,,,,,,,,,,,,,41,001,22,w,Psychologie,2023-01-18_12h35.01.826,00_bat_bachelor,2022.2.4,60.031638476326926,
,,,,,,,,,,,,0,0,0,0,94,0,94,0,,,,,,,94,,,1,9246.402743077459,X,None,nogo,None,1,,9247.202713113831,,,,,,,,,,,,,,,41,001,22,w,Psychologie,2023-01-18_12h35.01.826,00_bat_bachelor,2022.2.4,60.031638476326926,
,,,,,,,,,,,,0,0,0,0,95,0,95,0,,,,,,,95,,,1,9248.202554083604,Y,d,go,d,1,0.41980054837767966,,,,,,,,,,,,,,,,41,001,22,w,Psychologie,2023-01-18_12h35.01.826,00_bat_bachelor,2022.2.4,60.031638476326926,
,,,,,,,,,,,,0,0,0,0,96,0,96,0,,,,,,,96,,,1,9249.752615392674,X,l,go,l,1,0.5820826514682267,,,,,,,,,,,,,,,,41,001,22,w,Psychologie,2023-01-18_12h35.01.826,00_bat_bachelor,2022.2.4,60.031638476326926,
,,,,,,,,,,,,0,0,0,0,97,0,97,0,,,,,,,97,,,1,9251.452835174394,Y,d,go,d,1,0.45097968477057293,,,,,,,,,,,,,,,,41,001,22,w,Psychologie,2023-01-18_12h35.01.826,00_bat_bachelor,2022.2.4,60.031638476326926,
,,,,,,,,,,,,0,0,0,0,98,0,98,0,,,,,,,98,,,1,9253.019453566318,Y,None,nogo,None,1,,9253.819521057216,,,,,,,,,,,,,,,41,001,22,w,Psychologie,2023-01-18_12h35.01.826,00_bat_bachelor,2022.2.4,60.031638476326926,
,,,,,,,,,,,,0,0,0,0,99,0,99,0,,,,,,,99,,,1,9254.819496814802,X,l,go,l,1,0.2676706827187445,,,,,,,,,,,,,,,,41,001,22,w,Psychologie,2023-01-18_12h35.01.826,00_bat_bachelor,2022.2.4,60.031638476326926,
,,,,,,,,,,,,0,0,0,0,100,0,100,0,,,,,,,100,,,1,9256.202646204794,Y,d,go,d,1,0.30764108756557107,,,,,,,,,,,,,,,,41,001,22,w,Psychologie,2023-01-18_12h35.01.826,00_bat_bachelor,2022.2.4,60.031638476326926,
,,,,,,,,,,,,0,0,0,0,101,0,101,0,,,,,,,101,,,1,9257.635926479561,Y,None,nogo,None,1,,9258.436098212813,,,,,,,,,,,,,,,41,001,22,w,Psychologie,2023-01-18_12h35.01.826,00_bat_bachelor,2022.2.4,60.031638476326926,
,,,,,,,,,,,,0,0,0,0,102,0,102,0,,,,,,,102,,,1,9259.436119546124,X,l,go,l,1,0.29217442841036245,,,,,,,,,,,,,,,,41,001,22,w,Psychologie,2023-01-18_12h35.01.826,00_bat_bachelor,2022.2.4,60.031638476326926,
,,,,,,,,,,,,0,0,0,0,103,0,103,0,,,,,,,103,,,1,9260.835900200793,Y,d,go,d,1,0.3461874931526836,,,,,,,,,,,,,,,,41,001,22,w,Psychologie,2023-01-18_12h35.01.826,00_bat_bachelor,2022.2.4,60.031638476326926,
,,,,,,,,,,,,0,0,0,0,104,0,104,0,,,,,,,104,,,1,9262.30254094422,Y,None,nogo,None,1,,9263.102747586556,,,,,,,,,,,,,,,41,001,22,w,Psychologie,2023-01-18_12h35.01.826,00_bat_bachelor,2022.2.4,60.031638476326926,
,,,,,,,,,,,,0,0,0,0,105,0,105,0,,,,,,,105,,,1,9264.102541526052,Y,None,nogo,None,1,,9264.902707925969,,,,,,,,,,,,,,,41,001,22,w,Psychologie,2023-01-18_12h35.01.826,00_bat_bachelor,2022.2.4,60.031638476326926,
,,,,,,,,,,,,0,0,0,0,106,0,106,0,,,,,,,106,,,1,9265.902554229076,X,l,go,l,1,0.3365399826725479,,,,,,,,,,,,,,,,41,001,22,w,Psychologie,2023-01-18_12h35.01.826,00_bat_bachelor,2022.2.4,60.031638476326926,
,,,,,,,,,,,,0,0,0,0,107,0,107,0,,,,,,,107,,,1,9267.352780919871,Y,d,go,d,1,0.3898049265262671,,,,,,,,,,,,,,,,41,001,22,w,Psychologie,2023-01-18_12h35.01.826,00_bat_bachelor,2022.2.4,60.031638476326926,
,,,,,,,,,,,,0,0,0,0,108,0,108,0,,,,,,,108,,,1,9268.86960151777,Y,None,nogo,None,1,,9269.669453736016,,,,,,,,,,,,,,,41,001,22,w,Psychologie,2023-01-18_12h35.01.826,00_bat_bachelor,2022.2.4,60.031638476326926,
,,,,,,,,,,,,0,0,0,0,109,0,109,0,,,,,,,109,,,1,9270.669247190672,X,l,go,l,1,0.35296179287252016,,,,,,,,,,,,,,,,41,001,22,w,Psychologie,2023-01-18_12h35.01.826,00_bat_bachelor,2022.2.4,60.031638476326926,
,,,,,,,,,,,,0,0,0,0,110,0,110,0,,,,,,,110,,,1,9272.152700047183,Y,d,go,d,1,0.3431940400332678,,,,,,,,,,,,,,,,41,001,22,w,Psychologie,2023-01-18_12h35.01.826,00_bat_bachelor,2022.2.4,60.031638476326926,
,,,,,,,,,,,,0,0,0,0,111,0,111,0,,,,,,,111,,,1,9273.602606253291,Y,None,nogo,None,1,,9274.402761016856,,,,,,,,,,,,,,,41,001,22,w,Psychologie,2023-01-18_12h35.01.826,00_bat_bachelor,2022.2.4,60.031638476326926,
,,,,,,,,,,,,0,0,0,0,112,0,112,0,,,,,,,112,,,1,9275.40274453201,X,l,go,l,1,0.4046369193238206,,,,,,,,,,,,,,,,41,001,22,w,Psychologie,2023-01-18_12h35.01.826,00_bat_bachelor,2022.2.4,60.031638476326926,
,,,,,,,,,,,,0,0,0,0,113,0,113,0,,,,,,,113,,,1,9276.919178220996,Y,d,go,d,1,0.31225441867718473,,,,,,,,,,,,,,,,41,001,22,w,Psychologie,2023-01-18_12h35.01.826,00_bat_bachelor,2022.2.4,60.031638476326926,
,,,,,,,,,,,,0,0,0,0,114,0,114,0,,,,,,,114,,,1,9278.336098746135,X,l,go,l,1,0.4142204298404977,,,,,,,,,,,,,,,,41,001,22,w,Psychologie,2023-01-18_12h35.01.826,00_bat_bachelor,2022.2.4,60.031638476326926,
,,,,,,,,,,,,0,0,0,0,115,0,115,0,,,,,,,115,,,1,9279.869243699766,Y,d,go,d,1,0.24134633186622523,,,,,,,,,,,,,,,,41,001,22,w,Psychologie,2023-01-18_12h35.01.826,00_bat_bachelor,2022.2.4,60.031638476326926,
,,,,,,,,,,,,0,0,0,0,116,0,116,0,,,,,,,116,,,1,9281.235867522017,Y,None,nogo,None,1,,9282.035916103807,,,,,,,,,,,,,,,41,001,22,w,Psychologie,2023-01-18_12h35.01.826,00_bat_bachelor,2022.2.4,60.031638476326926,
,,,,,,,,,,,,0,0,0,0,117,0,117,0,,,,,,,117,,,1,9283.036047497677,X,l,go,l,1,0.3865593523660209,,,,,,,,,,,,,,,,41,001,22,w,Psychologie,2023-01-18_12h35.01.826,00_bat_bachelor,2022.2.4,60.031638476326926,
,,,,,,,,,,,,0,0,0,0,118,0,118,0,,,,,,,118,,,1,9284.552689186588,Y,d,go,d,1,0.32691768431686796,,,,,,,,,,,,,,,,41,001,22,w,Psychologie,2023-01-18_12h35.01.826,00_bat_bachelor,2022.2.4,60.031638476326926,
,,,,,,,,,,,,0,0,0,0,119,0,119,0,,,,,,,119,,,1,9285.98586279474,X,l,go,l,1,0.46116489192354493,,,,,,,,,,,,,,,,41,001,22,w,Psychologie,2023-01-18_12h35.01.826,00_bat_bachelor,2022.2.4,60.031638476326926,
,,,,,,,,,,,,0,0,0,0,120,0,120,0,,,,,,,120,,,1,9287.552678035077,X,None,nogo,None,1,,9288.352726616868,,,,,,,,,,,,,,,41,001,22,w,Psychologie,2023-01-18_12h35.01.826,00_bat_bachelor,2022.2.4,60.031638476326926,
,,,,,,,,,,,,0,0,0,0,121,0,121,0,,,,,,,121,,,1,9289.352575829049,X,None,nogo,None,1,,9290.152520653326,,,,,,,,,,,,,,,41,001,22,w,Psychologie,2023-01-18_12h35.01.826,00_bat_bachelor,2022.2.4,60.031638476326926,
,,,,,,,,,,,,0,0,0,0,122,0,122,0,,,,,,,122,,,1,9291.152672895667,Y,d,go,d,1,0.3976875893713441,,,,,,,,,,,,,,,,41,001,22,w,Psychologie,2023-01-18_12h35.01.826,00_bat_bachelor,2022.2.4,60.031638476326926,
,,,,,,,,,,,,0,0,0,0,123,0,123,0,,,,,,,123,,,1,9292.669247190672,X,l,go,l,1,0.3220018079155125,,,,,,,,,,,,,,,,41,001,22,w,Psychologie,2023-01-18_12h35.01.826,00_bat_bachelor,2022.2.4,60.031638476326926,
,,,,,,,,,,,,0,0,0,0,124,0,124,0,,,,,,,124,,,1,9294.102510010911,X,None,nogo,None,1,,9294.90270986536,,,,,,,,,,,,,,,41,001,22,w,Psychologie,2023-01-18_12h35.01.826,00_bat_bachelor,2022.2.4,60.031638476326926,
,,,,,,,,,,,,0,0,0,0,125,0,125,0,,,,,,,125,,,1,9295.902601744194,Y,d,go,d,1,0.2554263250203803,,,,,,,,,,,,,,,,41,001,22,w,Psychologie,2023-01-18_12h35.01.826,00_bat_bachelor,2022.2.4,60.031638476326926,
,,,,,,,,,,,,0,0,0,0,126,0,126,0,,,,,,,126,,,1,9297.286029437091,X,l,go,l,1,0.4257399394409731,,,,,,,,,,,,,,,,41,001,22,w,Psychologie,2023-01-18_12h35.01.826,00_bat_bachelor,2022.2.4,60.031638476326926,
,,,,,,,,,,,,0,0,0,0,127,0,127,0,,,,,,,127,,,1,9298.819236936135,Y,d,go,d,1,0.38016323422198184,,,,,,,,,,,,,,,,41,001,22,w,Psychologie,2023-01-18_12h35.01.826,00_bat_bachelor,2022.2.4,60.031638476326926,
,,,,,,,,,,,,0,0,0,0,128,0,128,0,,,,,,,128,,,1,9300.302656338114,Y,None,nogo,None,1,,9301.10250855636,,,,,,,,,,,,,,,41,001,22,w,Psychologie,2023-01-18_12h35.01.826,00_bat_bachelor,2022.2.4,60.031638476326926,
,,,,,,,,,,,,0,0,0,0,129,0,129,0,,,,,,,129,,,1,9302.102523101814,Y,None,nogo,None,1,,9302.902724410815,,,,,,,,,,,,,,,41,001,22,w,Psychologie,2023-01-18_12h35.01.826,00_bat_bachelor,2022.2.4,60.031638476326926,
,,,,,,,,,,,,0,0,0,0,130,0,130,0,,,,,,,130,,,1,9303.902704532025,X,l,go,l,1,0.2409511805162765,,,,,,,,,,,,,,,,41,001,22,w,Psychologie,2023-01-18_12h35.01.826,00_bat_bachelor,2022.2.4,60.031638476326926,
,,,,,,,,,,,,0,0,0,0,131,0,131,0,,,,,,,131,,,1,9305.252496847272,Y,d,go,d,1,0.26646389544475824,,,,,,,,,,,,,,,,41,001,22,w,Psychologie,2023-01-18_12h35.01.826,00_bat_bachelor,2022.2.4,60.031638476326926,
,,,,,,,,,,,,0,0,0,0,132,0,132,0,,,,,,,132,,,1,9306.635967206792,X,l,go,l,1,0.2908900654001627,,,,,,,,,,,,,,,,41,001,22,w,Psychologie,2023-01-18_12h35.01.826,00_bat_bachelor,2022.2.4,60.031638476326926,
,,,,,,,,,,,,0,0,0,0,133,0,133,0,,,,,,,133,,,1,9308.036096467345,Y,d,go,d,1,0.2998801216308493,,,,,,,,,,,,,,,,41,001,22,w,Psychologie,2023-01-18_12h35.01.826,00_bat_bachelor,2022.2.4,60.031638476326926,
,,,,,,,,,,,,0,0,0,0,134,0,134,0,,,,,,,134,,,1,9309.43625627333,Y,None,nogo,None,1,,9310.236060491618,,,,,,,,,,,,,,,41,001,22,w,Psychologie,2023-01-18_12h35.01.826,00_bat_bachelor,2022.2.4,60.031638476326926,
,,,,,,,,,,,,0,0,0,0,135,0,135,0,,,,,,,135,,,1,9311.23606291585,Y,None,nogo,None,1,,9312.036005800735,,,,,,,,,,,,,,,41,001,22,w,Psychologie,2023-01-18_12h35.01.826,00_bat_bachelor,2022.2.4,60.031638476326926,
,,,,,,,,,,,,0,0,0,0,136,0,136,0,,,,,,,136,,,1,9313.036047497677,X,l,go,l,1,0.2752401335746981,,,,,,,,,,,,,,,,41,001,22,w,Psychologie,2023-01-18_12h35.01.826,00_bat_bachelor,2022.2.4,60.031638476326926,
,,,,,,,,,,,,0,0,0,0,137,0,137,0,,,,,,,137,,,1,9314.41937967544,Y,d,go,d,1,0.2999426670721732,,,,,,,,,,,,,,,,41,001,22,w,Psychologie,2023-01-18_12h35.01.826,00_bat_bachelor,2022.2.4,60.031638476326926,
,,,,,,,,,,,,0,0,0,0,138,0,138,0,,,,,,,138,,,1,9315.835862382606,X,l,go,l,1,0.22677373283659108,,,,,,,,,,,,,,,,41,001,22,w,Psychologie,2023-01-18_12h35.01.826,00_bat_bachelor,2022.2.4,60.031638476326926,
,,,,,,,,,,,,0,0,0,0,139,0,139,0,,,,,,,139,,,1,9317.16938270576,X,None,nogo,None,1,,9317.969199530082,,,,,,,,,,,,,,,41,001,22,w,Psychologie,2023-01-18_12h35.01.826,00_bat_bachelor,2022.2.4,60.031638476326926,
,,,,,,,,,,,,0,0,0,0,140,0,140,0,,,,,,,140,,,1,9318.969286317937,Y,d,go,d,1,0.26072814062354155,,,,,,,,,,,,,,,,41,001,22,w,Psychologie,2023-01-18_12h35.01.826,00_bat_bachelor,2022.2.4,60.031638476326926,
,,,,,,,,,,,,0,0,0,0,141,0,141,0,,,,,,,141,,,1,9320.352548677562,X,l,go,l,1,0.4145845508610364,,,,,,,,,,,,,,,,41,001,22,w,Psychologie,2023-01-18_12h35.01.826,00_bat_bachelor,2022.2.4,60.031638476326926,
,,,,,,,,,,,,0,0,0,0,142,0,142,0,,,,,,,142,,,1,9321.869452669373,Y,d,go,d,1,0.3540808226389345,,,,,,,,,,,,,,,,41,001,22,w,Psychologie,2023-01-18_12h35.01.826,00_bat_bachelor,2022.2.4,60.031638476326926,
,,,,,,,,,,,,0,0,0,0,143,0,143,0,,,,,,,143,,,1,9323.352700919902,X,l,go,l,1,0.3101511469867546,,,,,,,,,,,,,,,,41,001,22,w,Psychologie,2023-01-18_12h35.01.826,00_bat_bachelor,2022.2.4,60.031638476326926,
,,,,,,,,,,,,0,0,0,0,144,0,144,0,,,,,,,144,,,1,9324.786147982464,X,None,nogo,None,1,,9325.58601038254,,,,,,,,,,,,,,,41,001,22,w,Psychologie,2023-01-18_12h35.01.826,00_bat_bachelor,2022.2.4,60.031638476326926,
,,,,,,,,,,,,0,0,0,0,145,0,145,0,,,,,,,145,,,1,9326.585880928062,Y,d,go,d,1,0.5638950239517726,,,,,,,,,,,,,,,,41,001,22,w,Psychologie,2023-01-18_12h35.01.826,00_bat_bachelor,2022.2.4,60.031638476326926,
,,,,,,,,,,,,0,0,0,0,146,0,146,0,,,,,,,146,,,1,9328.269369566377,X,l,go,l,1,0.2899077628389932,,,,,,,,,,,,,,,,41,001,22,w,Psychologie,2023-01-18_12h35.01.826,00_bat_bachelor,2022.2.4,60.031638476326926,
,,,,,,,,,,,,0,0,0,0,147,0,147,0,,,,,,,147,,,1,9329.669204039179,Y,d,go,d,1,0.21797034319024533,,,,,,,,,,,,,,,,41,001,22,w,Psychologie,2023-01-18_12h35.01.826,00_bat_bachelor,2022.2.4,60.031638476326926,
,,,,,,,,,,,,0,0,0,0,148,0,148,0,,,,,,,148,,,1,9331.00287272589,X,l,go,l,1,0.16394127847161144,,,,,,,,,,,,,,,,41,001,22,w,Psychologie,2023-01-18_12h35.01.826,00_bat_bachelor,2022.2.4,60.031638476326926,
,,,,,,,,,,,,0,0,0,0,149,0,149,0,,,,,,,149,,,1,9332.285995012848,X,None,nogo,None,1,,9333.086051837076,,,,,,,,,,,,,,,41,001,22,w,Psychologie,2023-01-18_12h35.01.826,00_bat_bachelor,2022.2.4,60.031638476326926,
,,,,,,,,,,,,0,0,0,0,150,0,150,0,,,,,,,150,,,1,9334.0859044432,Y,d,go,d,1,0.15356310168863274,,,,,,,,,,,,,,,,41,001,22,w,Psychologie,2023-01-18_12h35.01.826,00_bat_bachelor,2022.2.4,60.031638476326926,
,,,,,,,,,,,,0,0,0,0,151,0,151,0,,,,,,,151,,,1,9335.352771222912,X,l,go,l,1,0.23040573109756224,,,,,,,,,,,,,,,,41,001,22,w,Psychologie,2023-01-18_12h35.01.826,00_bat_bachelor,2022.2.4,60.031638476326926,
,,,,,,,,,,,,0,0,0,0,152,0,152,0,,,,,,,152,,,1,9336.685471182805,X,None,nogo,l,0,0.27473977018962614,,,,,,,,,,,,,,,,41,001,22,w,Psychologie,2023-01-18_12h35.01.826,00_bat_bachelor,2022.2.4,60.031638476326926,
,,,,,,,,,,,,0,0,0,0,153,0,153,0,,,,,,,153,,,1,9338.068770875747,Y,d,go,d,1,0.2982723648310639,,,,,,,,,,,,,,,,41,001,22,w,Psychologie,2023-01-18_12h35.01.826,00_bat_bachelor,2022.2.4,60.031638476326926,
,,,,,,,,,,,,0,0,0,0,154,0,154,0,,,,,,,154,,,1,9339.469019408949,X,l,go,l,1,0.5149190476804506,,,,,,,,,,,,,,,,41,001,22,w,Psychologie,2023-01-18_12h35.01.826,00_bat_bachelor,2022.2.4,60.031638476326926,
,,,,,,,,,,,,0,0,0,0,155,0,155,0,,,,,,,155,,,1,9341.085433655564,X,None,nogo,None,1,,9341.885675206955,,,,,,,,,,,,,,,41,001,22,w,Psychologie,2023-01-18_12h35.01.826,00_bat_bachelor,2022.2.4,60.031638476326926,
,,,,,,,,,,,,0,0,0,0,156,0,156,0,,,,,,,156,,,1,9342.885721752391,Y,d,go,d,1,0.361741909844568,,,,,,,,,,,,,,,,41,001,22,w,Psychologie,2023-01-18_12h35.01.826,00_bat_bachelor,2022.2.4,60.031638476326926,
,,,,,,,,,,,,0,0,0,0,157,0,157,0,,,,,,,157,,,1,9344.352494859399,X,l,go,l,1,0.3345055594108999,,,,,,,,,,,,,,,,41,001,22,w,Psychologie,2023-01-18_12h35.01.826,00_bat_bachelor,2022.2.4,60.031638476326926,
,,,,,,,,,,,,0,0,0,0,158,0,158,0,,,,,,,158,,,1,9345.802144580783,Y,d,go,d,1,0.38897729056770913,,,,,,,,,,,,,,,,41,001,22,w,Psychologie,2023-01-18_12h35.01.826,00_bat_bachelor,2022.2.4,60.031638476326926,
,,,,,,,,,,,,0,0,0,0,159,0,159,0,,,,,,,159,,,1,9347.302131732315,Y,None,nogo,None,1,,9348.102413526096,,,,,,,,,,,,,,,41,001,22,w,Psychologie,2023-01-18_12h35.01.826,00_bat_bachelor,2022.2.4,60.031638476326926,
,,,,,,,,,,,,0,0,0,0,160,0,160,0,,,,,,,160,,,1,9349.101914617262,X,l,go,l,1,0.4330306025512982,,,,,,,,,,,,,,,,41,001,22,w,Psychologie,2023-01-18_12h35.01.826,00_bat_bachelor,2022.2.4,60.031638476326926,
,,,,,,,,,,,,0,0,0,0,161,0,161,0,,,,,,,161,,,1,9350.63546975251,Y,d,go,d,1,0.46844197931932285,,,,,,,,,,,,,,,,41,001,22,w,Psychologie,2023-01-18_12h35.01.826,00_bat_bachelor,2022.2.4,60.031638476326926,
,,,,,,,,,,,,0,0,0,0,162,0,162,0,,,,,,,162,,,1,9352.218540015252,Y,None,nogo,None,1,,9353.01846544558,,,,,,,,,,,,,,,41,001,22,w,Psychologie,2023-01-18_12h35.01.826,00_bat_bachelor,2022.2.4,60.031638476326926,
,,,,,,,,,,,,0,0,0,0,163,0,163,0,,,,,,,163,,,1,9354.018705930328,X,l,go,l,1,0.28495940161519684,,,,,,,,,,,,,,,,41,001,22,w,Psychologie,2023-01-18_12h35.01.826,00_bat_bachelor,2022.2.4,60.031638476326926,
,,,,,,,,,,,,0,0,0,0,164,0,164,0,,,,,,,164,,,1,9355.418730948499,Y,d,go,d,1,0.46824949455913156,,,,,,,,,,,,,,,,41,001,22,w,Psychologie,2023-01-18_12h35.01.826,00_bat_bachelor,2022.2.4,60.031638476326926,
,,,,,,,,,,,,0,0,0,0,165,0,165,0,,,,,,,165,,,1,9357.002049938397,X,l,go,l,1,0.3262500482669566,,,,,,,,,,,,,,,,41,001,22,w,Psychologie,2023-01-18_12h35.01.826,00_bat_bachelor,2022.2.4,60.031638476326926,
,,,,,,,,,,,,0,0,0,0,166,0,166,0,,,,,,,166,,,1,9358.435530940362,X,None,nogo,None,1,,9359.235268249584,,,,,,,,,,,,,,,41,001,22,w,Psychologie,2023-01-18_12h35.01.826,00_bat_bachelor,2022.2.4,60.031638476326926,
,,,,,,,,,,,,0,0,0,0,167,0,167,0,,,,,,,167,,,1,9360.235423885868,Y,d,go,d,1,0.16439364189864136,,,,,,,,,,,,,,,,41,001,22,w,Psychologie,2023-01-18_12h35.01.826,00_bat_bachelor,2022.2.4,60.031638476326926,
,,,,,,,,,,,,0,0,0,0,168,0,168,0,,,,,,,168,,,1,9361.502093817166,X,l,go,l,1,0.5616899341112003,,,,,,,,,,,,,,,,41,001,22,w,Psychologie,2023-01-18_12h35.01.826,00_bat_bachelor,2022.2.4,60.031638476326926,
,,,,,,,,,,,,0,0,0,0,169,0,169,0,,,,,,,169,,,1,9363.168669978826,X,None,nogo,None,1,,9363.968485348625,,,,,,,,,,,,,,,41,001,22,w,Psychologie,2023-01-18_12h35.01.826,00_bat_bachelor,2022.2.4,60.031638476326926,
,,,,,,,,,,,,0,0,0,0,170,0,170,0,,,,,,,170,,,1,9364.968563894043,Y,d,go,d,1,0.2471315411676187,,,,,,,,,,,,,,,,41,001,22,w,Psychologie,2023-01-18_12h35.01.826,00_bat_bachelor,2022.2.4,60.031638476326926,
,,,,,,,,,,,,0,0,0,0,171,0,171,0,,,,,,,171,,,1,9366.31875184545,X,l,go,l,1,0.32040374804637395,,,,,,,,,,,,,,,,41,001,22,w,Psychologie,2023-01-18_12h35.01.826,00_bat_bachelor,2022.2.4,60.031638476326926,
,,,,,,,,,,,,0,0,0,0,172,0,172,0,,,,,,,172,,,1,9367.752908241004,Y,d,go,d,1,0.3903334111091681,,,,,,,,,,,,,,,,41,001,22,w,Psychologie,2023-01-18_12h35.01.826,00_bat_bachelor,2022.2.4,60.031638476326926,
,,,,,,,,,,,,0,0,0,0,173,0,173,0,,,,,,,173,,,1,9369.285903861397,X,l,go,l,1,0.23220548781682737,,,,,,,,,,,,,,,,41,001,22,w,Psychologie,2023-01-18_12h35.01.826,00_bat_bachelor,2022.2.4,60.031638476326926,
,,,,,,,,,,,,0,0,0,0,174,0,174,0,,,,,,,174,,,1,9370.652799683507,X,None,nogo,None,1,,9371.453212386317,,,,,,,,,,,,,,,41,001,22,w,Psychologie,2023-01-18_12h35.01.826,00_bat_bachelor,2022.2.4,60.031638476326926,
,,,,,,,,,,,,0,0,0,0,175,0,175,0,,,,,,,175,,,1,9372.45292147738,Y,d,go,d,1,0.29877806158037856,,,,,,,,,,,,,,,,41,001,22,w,Psychologie,2023-01-18_12h35.01.826,00_bat_bachelor,2022.2.4,60.031638476326926,
,,,,,,,,,,,,0,0,0,0,176,0,176,0,,,,,,,176,,,1,9373.885857994726,X,l,go,l,1,0.27338801327277906,,,,,,,,,,,,,,,,41,001,22,w,Psychologie,2023-01-18_12h35.01.826,00_bat_bachelor,2022.2.4,60.031638476326926,
,,,,,,,,,,,,0,0,0,0,177,0,177,0,,,,,,,177,,,1,9375.285659013025,Y,d,go,d,1,0.4732899769733194,,,,,,,,,,,,,,,,41,001,22,w,Psychologie,2023-01-18_12h35.01.826,00_bat_bachelor,2022.2.4,60.031638476326926,
,,,,,,,,,,,,0,0,0,0,178,0,178,0,,,,,,,178,,,1,9376.88566017666,X,l,go,l,1,0.2329831843962893,,,,,,,,,,,,,,,,41,001,22,w,Psychologie,2023-01-18_12h35.01.826,00_bat_bachelor,2022.2.4,60.031638476326926,
,,,,,,,,,,,,0,0,0,0,179,0,179,0,,,,,,,179,,,1,9378.218981712009,X,None,nogo,None,1,,9379.019267384603,,,,,,,,,,,,,,,41,001,22,w,Psychologie,2023-01-18_12h35.01.826,00_bat_bachelor,2022.2.4,60.031638476326926,
,,,,,,,,,,,,0,0,0,0,180,0,180,0,,,,,,,180,,,1,9380.018959990819,Y,d,go,d,1,0.3967052868101746,,,,,,,,,,,,,,,,41,001,22,w,Psychologie,2023-01-18_12h35.01.826,00_bat_bachelor,2022.2.4,60.031638476326926,
,,,,,,,,,,,,0,0,0,0,181,0,181,0,,,,,,,181,,,1,9381.519205566437,X,l,go,l,1,0.3674189980083611,,,,,,,,,,,,,,,,41,001,22,w,Psychologie,2023-01-18_12h35.01.826,00_bat_bachelor,2022.2.4,60.031638476326926,
,,,,,,,,,,,,0,0,0,0,182,0,182,0,,,,,,,182,,,1,9383.002492604865,Y,d,go,d,1,0.38790723046986386,,,,,,,,,,,,,,,,41,001,22,w,Psychologie,2023-01-18_12h35.01.826,00_bat_bachelor,2022.2.4,60.031638476326926,
,,,,,,,,,,,,0,0,0,0,183,0,183,0,,,,,,,183,,,1,9384.519217202818,X,l,go,l,1,0.23087845812551677,,,,,,,,,,,,,,,,41,001,22,w,Psychologie,2023-01-18_12h35.01.826,00_bat_bachelor,2022.2.4,60.031638476326926,
,,,,,,,,,,,,0,0,0,0,184,0,184,0,,,,,,,184,,,1,9385.869178730092,Y,d,go,d,1,0.4491290189907886,,,,,,,,,,,,,,,,41,001,22,w,Psychologie,2023-01-18_12h35.01.826,00_bat_bachelor,2022.2.4,60.031638476326926,
,,,,,,,,,,,,0,0,0,0,185,0,185,0,,,,,,,185,,,1,9387.435986697703,Y,None,nogo,None,1,,9388.23568812816,,,,,,,,,,,,,,,41,001,22,w,Psychologie,2023-01-18_12h35.01.826,00_bat_bachelor,2022.2.4,60.031638476326926,
,,,,,,,,,,,,0,0,0,0,186,0,186,0,,,,,,,186,,,1,9389.235883521993,Y,None,nogo,l,0,0.20342635022825561,,,,,,,,,,,,,,,,41,001,22,w,Psychologie,2023-01-18_12h35.01.826,00_bat_bachelor,2022.2.4,60.031638476326926,
,,,,,,,,,,,,0,0,0,0,187,0,187,0,,,,,,,187,,,1,9390.56940723909,X,l,go,l,1,0.24639360213768668,,,,,,,,,,,,,,,,41,001,22,w,Psychologie,2023-01-18_12h35.01.826,00_bat_bachelor,2022.2.4,60.031638476326926,
,,,,,,,,,,,,0,0,0,0,188,0,188,0,,,,,,,188,,,1,9391.919205857354,Y,d,go,d,1,0.30279551417334005,,,,,,,,,,,,,,,,41,001,22,w,Psychologie,2023-01-18_12h35.01.826,00_bat_bachelor,2022.2.4,60.031638476326926,
,,,,,,,,,,,,0,0,0,0,189,0,189,0,,,,,,,189,,,1,9393.352365889761,X,l,go,l,1,0.4065050396602601,,,,,,,,,,,,,,,,41,001,22,w,Psychologie,2023-01-18_12h35.01.826,00_bat_bachelor,2022.2.4,60.031638476326926,
,,,,,,,,,,,,0,0,0,0,190,0,190,0,,,,,,,190,,,1,9394.88587205534,Y,d,go,d,1,0.32897053178749047,,,,,,,,,,,,,,,,41,001,22,w,Psychologie,2023-01-18_12h35.01.826,00_bat_bachelor,2022.2.4,60.031638476326926,
,,,,,,,,,,,,0,0,0,0,191,0,191,0,,,,,,,191,,,1,9396.318948208995,X,l,go,l,1,0.5117108068079688,,,,,,,,,,,,,,,,41,001,22,w,Psychologie,2023-01-18_12h35.01.826,00_bat_bachelor,2022.2.4,60.031638476326926,
,,,,,,,,,,,,0,0,0,0,192,0,192,0,,,,,,,192,,,1,9397.952510568488,X,None,nogo,None,1,,9398.752558665437,,,,,,,,,,,,,,,41,001,22,w,Psychologie,2023-01-18_12h35.01.826,00_bat_bachelor,2022.2.4,60.031638476326926,
,,,,,,,,,,,,0,0,0,0,193,0,193,0,,,,,,,193,,,1,9399.752334180695,Y,d,go,d,1,0.27871358644915745,,,,,,,,,,,,,,,,41,001,22,w,Psychologie,2023-01-18_12h35.01.826,00_bat_bachelor,2022.2.4,60.031638476326926,
,,,,,,,,,,,,0,0,0,0,194,0,194,0,,,,,,,194,,,1,9401.135641146364,X,l,go,l,1,0.38378311129054055,,,,,,,,,,,,,,,,41,001,22,w,Psychologie,2023-01-18_12h35.01.826,00_bat_bachelor,2022.2.4,60.031638476326926,
,,,,,,,,,,,,0,0,0,0,195,0,195,0,,,,,,,195,,,1,9402.619113396795,X,None,nogo,None,1,,9403.418950099905,,,,,,,,,,,,,,,41,001,22,w,Psychologie,2023-01-18_12h35.01.826,00_bat_bachelor,2022.2.4,60.031638476326926,
,,,,,,,,,,,,0,0,0,0,196,0,196,0,,,,,,,196,,,1,9404.418933130219,Y,d,go,d,1,0.23627384947030805,,,,,,,,,,,,,,,,41,001,22,w,Psychologie,2023-01-18_12h35.01.826,00_bat_bachelor,2022.2.4,60.031638476326926,
,,,,,,,,,,,,0,0,0,0,197,0,197,0,,,,,,,197,,,1,9405.769227748242,X,l,go,l,1,0.4545229557552375,,,,,,,,,,,,,,,,41,001,22,w,Psychologie,2023-01-18_12h35.01.826,00_bat_bachelor,2022.2.4,60.031638476326926,
,,,,,,,,,,,,0,0,0,0,198,0,198,0,,,,,,,198,,,1,9407.335714746325,Y,d,go,d,1,0.26434268432785757,,,,,,,,,,,,,,,,41,001,22,w,Psychologie,2023-01-18_12h35.01.826,00_bat_bachelor,2022.2.4,60.031638476326926,
,,,,,,,,,,,,0,0,0,0,199,0,199,0,,,,,,,199,,,1,9408.702554326039,Y,None,nogo,None,1,,9409.502632968419,,,,,,,,,,,,,,,41,001,22,w,Psychologie,2023-01-18_12h35.01.826,00_bat_bachelor,2022.2.4,60.031638476326926,
,,,,,,,,,,,,0,0,0,0,200,0,200,0,,,,,,,200,,,1,9410.502354180673,X,l,go,l,1,0.28093467629514635,,,,,,,,,,,,,,,,41,001,22,w,Psychologie,2023-01-18_12h35.01.826,00_bat_bachelor,2022.2.4,60.031638476326926,
,,,,,,,,,,,,0,0,0,0,201,0,201,0,,,,,,,201,,,1,9411.88586138867,Y,d,go,d,1,0.35278918690164573,,,,,,,,,,,,,,,,41,001,22,w,Psychologie,2023-01-18_12h35.01.826,00_bat_bachelor,2022.2.4,60.031638476326926,
,,,,,,,,,,,,0,0,0,0,202,0,202,0,,,,,,,202,,,1,9413.369152790721,X,l,go,l,1,0.3103586620418355,,,,,,,,,,,,,,,,41,001,22,w,Psychologie,2023-01-18_12h35.01.826,00_bat_bachelor,2022.2.4,60.031638476326926,
,,,,,,,,,,,,0,0,0,0,203,0,203,0,,,,,,,203,,,1,9414.78587113414,Y,d,go,d,1,0.2694049848942086,,,,,,,,,,,,,,,,41,001,22,w,Psychologie,2023-01-18_12h35.01.826,00_bat_bachelor,2022.2.4,60.031638476326926,
,,,,,,,,,,,,0,0,0,0,204,0,204,0,,,,,,,204,,,1,9416.169000160473,Y,None,nogo,None,1,,9416.969181105844,,,,,,,,,,,,,,,41,001,22,w,Psychologie,2023-01-18_12h35.01.826,00_bat_bachelor,2022.2.4,60.031638476326926,
,,,,,,,,,,,,0,0,0,0,205,0,205,0,,,,,,,205,,,1,9417.969037105911,X,l,go,l,1,0.25447262852685526,,,,,,,,,,,,,,,,41,001,22,w,Psychologie,2023-01-18_12h35.01.826,00_bat_bachelor,2022.2.4,60.031638476326926,
,,,,,,,,,,,,0,0,0,0,206,0,206,0,,,,,,,206,,,1,9419.3356483221,Y,d,go,d,1,0.26225056414841674,,,,,,,,,,,,,,,,41,001,22,w,Psychologie,2023-01-18_12h35.01.826,00_bat_bachelor,2022.2.4,60.031638476326926,
,,,,,,,,,,,,0,0,0,0,207,0,207,0,,,,,,,207,,,1,9420.718841833295,X,l,go,l,1,0.35167258136789314,,,,,,,,,,,,,,,,41,001,22,w,Psychologie,2023-01-18_12h35.01.826,00_bat_bachelor,2022.2.4,60.031638476326926,
,,,,,,,,,,,,0,0,0,0,208,0,208,0,,,,,,,208,,,1,9422.18534875862,X,None,nogo,None,1,,9422.985551037302,,,,,,,,,,,,,,,41,001,22,w,Psychologie,2023-01-18_12h35.01.826,00_bat_bachelor,2022.2.4,60.031638476326926,
,,,,,,,,,,,,0,0,0,0,209,0,209,0,,,,,,,209,,,1,9423.985809946287,Y,d,go,d,1,0.3979620134923607,,,,,,,,,,,,,,,,41,001,22,w,Psychologie,2023-01-18_12h35.01.826,00_bat_bachelor,2022.2.4,60.031638476326926,
,,,,,,,,,,,,0,0,0,0,210,0,210,0,,,,,,,210,,,1,9425.485511037317,X,l,go,l,1,0.30618266406236216,,,,,,,,,,,,,,,,41,001,22,w,Psychologie,2023-01-18_12h35.01.826,00_bat_bachelor,2022.2.4,60.031638476326926,
,,,,,,,,,,,,0,0,0,0,211,0,211,0,,,,,,,211,,,1,9426.902328289783,Y,d,go,d,1,0.3770282054611016,,,,,,,,,,,,,,,,41,001,22,w,Psychologie,2023-01-18_12h35.01.826,00_bat_bachelor,2022.2.4,60.031638476326926,
,,,,,,,,,,,,0,0,0,0,212,0,212,0,,,,,,,212,,,1,9428.385691934207,X,l,go,l,1,0.30096230295021087,,,,,,,,,,,,,,,,41,001,22,w,Psychologie,2023-01-18_12h35.01.826,00_bat_bachelor,2022.2.4,60.031638476326926,
,,,,,,,,,,,,0,0,0,0,213,0,213,0,,,,,,,213,,,1,9429.80218336865,X,None,nogo,None,1,,9430.602151465631,,,,,,,,,,,,,,,41,001,22,w,Psychologie,2023-01-18_12h35.01.826,00_bat_bachelor,2022.2.4,60.031638476326926,
,,,,,,,,,,,,0,0,0,0,214,0,214,0,,,,,,,214,,,1,9431.602171344392,X,None,nogo,None,1,,9432.402017259621,,,,,,,,,,,,,,,41,001,22,w,Psychologie,2023-01-18_12h35.01.826,00_bat_bachelor,2022.2.4,60.031638476326926,
,,,,,,,,,,,,0,0,0,0,215,0,215,0,,,,,,,215,,,1,9433.402001259645,Y,d,go,d,1,0.32447550367214717,,,,,,,,,,,,,,,,41,001,22,w,Psychologie,2023-01-18_12h35.01.826,00_bat_bachelor,2022.2.4,60.031638476326926,
,,,,,,,,,,,,0,0,0,0,216,0,216,0,,,,,,,216,,,1,9434.835378988908,X,l,go,l,1,0.5077864450868219,,,,,,,,,,,,,,,,41,001,22,w,Psychologie,2023-01-18_12h35.01.826,00_bat_bachelor,2022.2.4,60.031638476326926,
,,,,,,,,,,,,0,0,0,0,217,0,217,0,,,,,,,217,,,1,9436.452017235395,Y,d,go,d,1,0.4278325444611255,,,,,,,,,,,,,,,,41,001,22,w,Psychologie,2023-01-18_12h35.01.826,00_bat_bachelor,2022.2.4,60.031638476326926,
,,,,,,,,,,,,0,0,0,0,218,0,218,0,,,,,,,218,,,1,9437.985447279789,Y,None,nogo,None,1,,9438.785531255504,,,,,,,,,,,,,,,41,001,22,w,Psychologie,2023-01-18_12h35.01.826,00_bat_bachelor,2022.2.4,60.031638476326926,
,,,,,,,,,,,,0,0,0,0,219,0,219,0,,,,,,,219,,,1,9439.78534507376,X,l,go,l,1,0.37372590400627814,,,,,,,,,,,,,,,,41,001,22,w,Psychologie,2023-01-18_12h35.01.826,00_bat_bachelor,2022.2.4,60.031638476326926,
,,,,,,,,,,,,0,0,0,0,220,0,220,0,,,,,,,220,,,1,9441.268899748422,Y,d,go,d,1,0.4912865742808208,,,,,,,,,,,,,,,,41,001,22,w,Psychologie,2023-01-18_12h35.01.826,00_bat_bachelor,2022.2.4,60.031638476326926,
,,,,,,,,,,,,0,0,0,0,221,0,221,0,,,,,,,221,,,1,9442.868837396934,Y,None,nogo,None,1,,9443.669007190794,,,,,,,,,,,,,,,41,001,22,w,Psychologie,2023-01-18_12h35.01.826,00_bat_bachelor,2022.2.4,60.031638476326926,
,,,,,,,,,,,,0,0,0,0,222,0,222,0,,,,,,,222,,,1,9444.668824402994,X,l,go,l,1,0.2587068082939368,,,,,,,,,,,,,,,,41,001,22,w,Psychologie,2023-01-18_12h35.01.826,00_bat_bachelor,2022.2.4,60.031638476326926,
,,,,,,,,,,,,0,0,0,0,223,0,223,0,,,,,,,223,,,1,9446.035485558561,Y,d,go,d,1,0.1876484185049776,,,,,,,,,,,,,,,,41,001,22,w,Psychologie,2023-01-18_12h35.01.826,00_bat_bachelor,2022.2.4,60.031638476326926,
,,,,,,,,,,,,0,0,0,0,224,0,224,0,,,,,,,224,,,1,9447.335284201079,X,l,go,l,1,0.3288507742690854,,,,,,,,,,,,,,,,41,001,22,w,Psychologie,2023-01-18_12h35.01.826,00_bat_bachelor,2022.2.4,60.031638476326926,
,,,,,,,,,,,,0,0,0,0,225,0,225,0,,,,,,,225,,,1,9448.768677930348,Y,d,go,d,1,0.31790920381899923,,,,,,,,,,,,,,,,41,001,22,w,Psychologie,2023-01-18_12h35.01.826,00_bat_bachelor,2022.2.4,60.031638476326926,
,,,,,,,,,,,,0,0,0,0,226,0,226,0,,,,,,,226,,,1,9450.202289841312,X,l,go,l,1,0.5655847200832795,,,,,,,,,,,,,,,,41,001,22,w,Psychologie,2023-01-18_12h35.01.826,00_bat_bachelor,2022.2.4,60.031638476326926,
,,,,,,,,,,,,0,0,0,0,227,0,227,0,,,,,,,227,,,1,9451.869202002825,Y,d,go,d,1,0.3388837391103152,,,,,,,,,,,,,,,,41,001,22,w,Psychologie,2023-01-18_12h35.01.826,00_bat_bachelor,2022.2.4,60.031638476326926,
,,,,,,,,,,,,0,0,0,0,228,0,228,0,,,,,,,228,,,1,9453.3183775426,Y,None,nogo,None,1,,9454.118451821356,,,,,,,,,,,,,,,41,001,22,w,Psychologie,2023-01-18_12h35.01.826,00_bat_bachelor,2022.2.4,60.031638476326926,
,,,,,,,,,,,,0,0,0,0,229,0,229,0,,,,,,,229,,,1,9455.118643821275,X,l,go,l,1,0.22468888538423926,,,,,,,,,,,,,,,,41,001,22,w,Psychologie,2023-01-18_12h35.01.826,00_bat_bachelor,2022.2.4,60.031638476326926,
,,,,,,,,,,,,0,0,0,0,230,0,230,0,,,,,,,230,,,1,9456.452013356611,Y,d,go,d,1,0.2197613726311829,,,,,,,,,,,,,,,,41,001,22,w,Psychologie,2023-01-18_12h35.01.826,00_bat_bachelor,2022.2.4,60.031638476326926,
,,,,,,,,,,,,0,0,0,0,231,0,231,0,,,,,,,231,,,1,9457.78534604347,X,l,go,l,1,0.3738922069896944,,,,,,,,,,,,,,,,41,001,22,w,Psychologie,2023-01-18_12h35.01.826,00_bat_bachelor,2022.2.4,60.031638476326926,
,,,,,,,,,,,,0,0,0,0,232,0,232,0,,,,,,,232,,,1,9459.268805202999,X,None,nogo,d,0,0.26738365256460384,,,,,,,,,,,,,,,,41,001,22,w,Psychologie,2023-01-18_12h35.01.826,00_bat_bachelor,2022.2.4,60.031638476326926,
,,,,,,,,,,,,0,0,0,0,233,0,233,0,,,,,,,233,,,1,9460.652052047488,Y,d,go,d,1,0.3244376854854636,,,,,,,,,,,,,,,,41,001,22,w,Psychologie,2023-01-18_12h35.01.826,00_bat_bachelor,2022.2.4,60.031638476326926,
,,,,,,,,,,,,0,0,0,0,234,0,234,0,,,,,,,234,,,1,9462.085345898027,X,l,go,l,1,0.2823964937706478,,,,,,,,,,,,,,,,41,001,22,w,Psychologie,2023-01-18_12h35.01.826,00_bat_bachelor,2022.2.4,60.031638476326926,
,,,,,,,,,,,,0,0,0,0,235,0,235,0,,,,,,,235,,,1,9463.468416257732,X,None,nogo,None,1,,9464.268363021401,,,,,,,,,,,,,,,41,001,22,w,Psychologie,2023-01-18_12h35.01.826,00_bat_bachelor,2022.2.4,60.031638476326926,
,,,,,,,,,,,,0,0,0,0,236,0,236,0,,,,,,,236,,,1,9465.26837174868,Y,d,go,d,1,0.23439069886808284,,,,,,,,,,,,,,,,41,001,22,w,Psychologie,2023-01-18_12h35.01.826,00_bat_bachelor,2022.2.4,60.031638476326926,
,,,,,,,,,,,,0,0,0,0,237,0,237,0,,,,,,,237,,,1,9466.618495215283,X,l,go,l,1,0.2772406174626667,,,,,,,,,,,,,,,,41,001,22,w,Psychologie,2023-01-18_12h35.01.826,00_bat_bachelor,2022.2.4,60.031638476326926,
,,,,,,,,,,,,0,0,0,0,238,0,238,0,,,,,,,238,,,1,9468.002003877831,Y,d,go,l,0,0.3649797264661174,,,,,,,,,,,,,,,,41,001,22,w,Psychologie,2023-01-18_12h35.01.826,00_bat_bachelor,2022.2.4,60.031638476326926,
,,,,,,,,,,,,0,0,0,0,239,0,239,0,,,,,,,239,,,1,9469.468765833328,X,l,go,l,1,0.40262916273786686,,,,,,,,,,,,,,,,41,001,22,w,Psychologie,2023-01-18_12h35.01.826,00_bat_bachelor,2022.2.4,60.031638476326926,
,,,,,,,,,,,,0,0,0,0,240,0,240,0,,,,,,,240,,,1,9470.986122188537,X,None,nogo,None,1,,9471.786342891486,,,,,,,,,,,,,,,41,001,22,w,Psychologie,2023-01-18_12h35.01.826,00_bat_bachelor,2022.2.4,60.031638476326926,
,,,,,,,,,,,,0,0,0,0,241,0,241,0,,,,,,,241,,,1,9472.786041315849,X,None,nogo,None,1,,9473.586369170254,,,,,,,,,,,,,,,41,001,22,w,Psychologie,2023-01-18_12h35.01.826,00_bat_bachelor,2022.2.4,60.031638476326926,
,,,,,,,,,,,,0,0,0,0,242,0,242,0,,,,,,,242,,,1,9474.585685049358,Y,d,go,d,1,0.3411416774033569,,,,,,,,,,,,,,,,41,001,22,w,Psychologie,2023-01-18_12h35.01.826,00_bat_bachelor,2022.2.4,60.031638476326926,
,,,,,,,,,,,,0,0,0,0,243,0,243,0,,,,,,,243,,,1,9476.035457437363,X,l,go,l,1,0.3637491815898102,,,,,,,,,,,,,,,,41,001,22,w,Psychologie,2023-01-18_12h35.01.826,00_bat_bachelor,2022.2.4,60.031638476326926,
,,,,,,,,,,,,0,0,0,0,244,0,244,0,,,,,,,244,,,1,9477.502318786748,Y,d,go,d,1,0.2736469222290907,,,,,,,,,,,,,,,,41,001,22,w,Psychologie,2023-01-18_12h35.01.826,00_bat_bachelor,2022.2.4,60.031638476326926,
,,,,,,,,,,,,0,0,0,0,245,0,245,0,,,,,,,245,,,1,9478.885423085856,X,l,go,l,1,0.6489892856916413,,,,,,,,,,,,,,,,41,001,22,w,Psychologie,2023-01-18_12h35.01.826,00_bat_bachelor,2022.2.4,60.031638476326926,
,,,,,,,,,,,,0,0,0,0,246,0,246,0,,,,,,,246,,,1,9480.635496419156,Y,d,go,d,1,0.3720114806201309,,,,,,,,,,,,,,,,41,001,22,w,Psychologie,2023-01-18_12h35.01.826,00_bat_bachelor,2022.2.4,60.031638476326926,
,,,,,,,,,,,,0,0,0,0,247,0,247,0,,,,,,,247,,,1,9482.118785881816,X,l,go,l,1,0.2647645022952929,,,,,,,,,,,,,,,,41,001,22,w,Psychologie,2023-01-18_12h35.01.826,00_bat_bachelor,2022.2.4,60.031638476326926,
,,,,,,,,,,,,0,0,0,0,248,0,248,0,,,,,,,248,,,1,9483.48544315857,Y,d,go,d,1,0.4176032161049079,,,,,,,,,,,,,,,,41,001,22,w,Psychologie,2023-01-18_12h35.01.826,00_bat_bachelor,2022.2.4,60.031638476326926,
,,,,,,,,,,,,0,0,0,0,249,0,249,0,,,,,,,249,,,1,9485.019037081685,X,l,go,l,1,0.29248667068895884,,,,,,,,,,,,,,,,41,001,22,w,Psychologie,2023-01-18_12h35.01.826,00_bat_bachelor,2022.2.4,60.031638476326926,
,,,,,,,,,,,,1,0,1,0,0,0,0,0,,,,,,,0,,,0.2,9496.002205574681,X,l,go,l,1,0.3638020300422795,,,,,,,,,9485.444611178362,space,10.334342650399776,,,,,41,001,22,w,Psychologie,2023-01-18_12h35.01.826,00_bat_bachelor,2022.2.4,60.031638476326926,
,,,,,,,,,,,,1,0,1,0,1,0,1,0,,,,,,,1,,,0.2,9496.685445970681,Y,d,go,d,1,0.48228294230648316,,,,,,,,,,,,,,,,41,001,22,w,Psychologie,2023-01-18_12h35.01.826,00_bat_bachelor,2022.2.4,60.031638476326926,
,,,,,,,,,,,,1,0,1,0,2,0,2,0,,,,,,,2,,,0.2,9497.468650439434,X,l,go,l,1,0.4983246314805001,,,,,,,,,,,,,,,,41,001,22,w,Psychologie,2023-01-18_12h35.01.826,00_bat_bachelor,2022.2.4,60.031638476326926,
,,,,,,,,,,,,1,0,1,0,3,0,3,0,,,,,,,3,,,0.2,9498.268656354601,Y,d,go,d,1,0.3546960950770881,,,,,,,,,,,,,,,,41,001,22,w,Psychologie,2023-01-18_12h35.01.826,00_bat_bachelor,2022.2.4,60.031638476326926,
,,,,,,,,,,,,1,0,1,0,4,0,4,0,,,,,,,4,,,0.2,9498.93505797087,Y,None,nogo,None,1,,9499.735321340442,,,,,,,,,,,,,,,41,001,22,w,Psychologie,2023-01-18_12h35.01.826,00_bat_bachelor,2022.2.4,60.031638476326926,
,,,,,,,,,,,,1,0,1,0,5,0,5,0,,,,,,,5,,,0.2,9499.935051183013,X,l,go,l,1,0.38365511133451946,,,,,,,,,,,,,,,,41,001,22,w,Psychologie,2023-01-18_12h35.01.826,00_bat_bachelor,2022.2.4,60.031638476326926,
,,,,,,,,,,,,1,0,1,0,6,0,6,0,,,,,,,6,,,0.2,9500.618647942465,Y,d,go,d,1,0.468762948847143,,,,,,,,,,,,,,,,41,001,22,w,Psychologie,2023-01-18_12h35.01.826,00_bat_bachelor,2022.2.4,60.031638476326926,
,,,,,,,,,,,,1,0,1,0,7,0,7,0,,,,,,,7,,,0.2,9501.401989623293,X,l,go,l,1,0.4367503583198413,,,,,,,,,,,,,,,,41,001,22,w,Psychologie,2023-01-18_12h35.01.826,00_bat_bachelor,2022.2.4,60.031638476326926,
,,,,,,,,,,,,1,0,1,0,8,0,8,0,,,,,,,8,,,0.2,9502.151773502177,Y,d,go,d,1,0.3427339190384373,,,,,,,,,,,,,,,,41,001,22,w,Psychologie,2023-01-18_12h35.01.826,00_bat_bachelor,2022.2.4,60.031638476326926,
,,,,,,,,,,,,1,0,1,0,9,0,9,0,,,,,,,9,,,0.2,9502.801700944634,X,l,go,l,1,0.34935549160582013,,,,,,,,,,,,,,,,41,001,22,w,Psychologie,2023-01-18_12h35.01.826,00_bat_bachelor,2022.2.4,60.031638476326926,
,,,,,,,,,,,,1,0,1,0,10,0,10,0,,,,,,,10,,,0.2,9503.451696750708,X,None,nogo,None,1,,9504.252146786836,,,,,,,,,,,,,,,41,001,22,w,Psychologie,2023-01-18_12h35.01.826,00_bat_bachelor,2022.2.4,60.031638476326926,
,,,,,,,,,,,,1,0,1,0,11,0,11,0,,,,,,,11,,,0.2,9504.4516778416,Y,d,go,d,1,0.3806859006290324,,,,,,,,,,,,,,,,41,001,22,w,Psychologie,2023-01-18_12h35.01.826,00_bat_bachelor,2022.2.4,60.031638476326926,
,,,,,,,,,,,,1,0,1,0,12,0,12,0,,,,,,,12,,,0.2,9505.135400176776,X,l,go,l,1,0.4968725109938532,,,,,,,,,,,,,,,,41,001,22,w,Psychologie,2023-01-18_12h35.01.826,00_bat_bachelor,2022.2.4,60.031638476326926,
,,,,,,,,,,,,1,0,1,0,13,0,13,0,,,,,,,13,,,0.2,9505.935185485985,Y,d,go,d,1,0.3040832711267285,,,,,,,,,,,,,,,,41,001,22,w,Psychologie,2023-01-18_12h35.01.826,00_bat_bachelor,2022.2.4,60.031638476326926,
,,,,,,,,,,,,1,0,1,0,14,0,14,0,,,,,,,14,,,0.2,9506.551969671767,X,l,go,l,1,0.32817877459456213,,,,,,,,,,,,,,,,41,001,22,w,Psychologie,2023-01-18_12h35.01.826,00_bat_bachelor,2022.2.4,60.031638476326926,
,,,,,,,,,,,,1,0,1,0,15,0,15,0,,,,,,,15,,,0.2,9507.185375910136,X,None,nogo,None,1,,9507.985333340446,,,,,,,,,,,,,,,41,001,22,w,Psychologie,2023-01-18_12h35.01.826,00_bat_bachelor,2022.2.4,60.031638476326926,
,,,,,,,,,,,,1,0,1,0,16,0,16,0,,,,,,,16,,,0.2,9508.185327910149,Y,d,go,d,1,0.19813908005016856,,,,,,,,,,,,,,,,41,001,22,w,Psychologie,2023-01-18_12h35.01.826,00_bat_bachelor,2022.2.4,60.031638476326926,
,,,,,,,,,,,,1,0,1,0,17,0,17,0,,,,,,,17,,,0.2,9508.685067789047,X,l,go,l,1,0.3855479588964954,,,,,,,,,,,,,,,,41,001,22,w,Psychologie,2023-01-18_12h35.01.826,00_bat_bachelor,2022.2.4,60.031638476326926,
,,,,,,,,,,,,1,0,1,0,18,0,18,0,,,,,,,18,,,0.2,9509.385303085903,Y,d,go,d,1,0.37519644876010716,,,,,,,,,,,,,,,,41,001,22,w,Psychologie,2023-01-18_12h35.01.826,00_bat_bachelor,2022.2.4,60.031638476326926,
,,,,,,,,,,,,1,0,1,0,19,0,19,0,,,,,,,19,,,0.2,9510.068351966853,X,l,go,l,1,0.3638243330642581,,,,,,,,,,,,,,,,41,001,22,w,Psychologie,2023-01-18_12h35.01.826,00_bat_bachelor,2022.2.4,60.031638476326926,
,,,,,,,,,,,,1,0,1,0,20,0,20,0,,,,,,,20,,,0.2,9510.73501588605,Y,d,go,d,1,0.40026067904545926,,,,,,,,,,,,,,,,41,001,22,w,Psychologie,2023-01-18_12h35.01.826,00_bat_bachelor,2022.2.4,60.031638476326926,
,,,,,,,,,,,,1,0,1,0,21,0,21,0,,,,,,,21,,,0.2,9511.435145486,Y,None,nogo,l,0,0.30741029980708845,,,,,,,,,,,,,,,,41,001,22,w,Psychologie,2023-01-18_12h35.01.826,00_bat_bachelor,2022.2.4,60.031638476326926,
,,,,,,,,,,,,1,0,1,0,22,0,22,0,,,,,,,22,,,0.2,9512.051961186924,X,l,go,l,1,0.5078417178010568,,,,,,,,,,,,,,,,41,001,22,w,Psychologie,2023-01-18_12h35.01.826,00_bat_bachelor,2022.2.4,60.031638476326926,
,,,,,,,,,,,,1,0,1,0,23,0,23,0,,,,,,,23,,,0.2,9512.868325882038,Y,d,go,None,0,,9513.668379312294,,,,,,,,,,,,,,,41,001,22,w,Psychologie,2023-01-18_12h35.01.826,00_bat_bachelor,2022.2.4,60.031638476326926,
,,,,,,,,,,,,1,0,1,0,24,0,24,0,,,,,,,24,,,0.2,9513.868642487942,X,l,go,l,1,0.5465277596376836,,,,,,,,,,,,,,,,41,001,22,w,Psychologie,2023-01-18_12h35.01.826,00_bat_bachelor,2022.2.4,60.031638476326926,
,,,,,,,,,,,,1,0,1,0,25,0,25,0,,,,,,,25,,,0.2,9514.718585348572,Y,d,go,d,1,0.529430070950184,,,,,,,,,,,,,,,,41,001,22,w,Psychologie,2023-01-18_12h35.01.826,00_bat_bachelor,2022.2.4,60.031638476326926,
,,,,,,,,,,,,1,0,1,0,26,0,26,0,,,,,,,26,,,0.2,9515.552187368652,X,l,go,l,1,0.3838645657815505,,,,,,,,,,,,,,,,41,001,22,w,Psychologie,2023-01-18_12h35.01.826,00_bat_bachelor,2022.2.4,60.031638476326926,
,,,,,,,,,,,,1,0,1,0,27,0,27,0,,,,,,,27,,,0.2,9516.25199066571,Y,d,go,d,1,0.324075503856875,,,,,,,,,,,,,,,,41,001,22,w,Psychologie,2023-01-18_12h35.01.826,00_bat_bachelor,2022.2.4,60.031638476326926,
,,,,,,,,,,,,1,0,1,0,28,0,28,0,,,,,,,28,,,0.2,9516.885008055746,X,l,go,l,1,0.4579789541021455,,,,,,,,,,,,,,,,41,001,22,w,Psychologie,2023-01-18_12h35.01.826,00_bat_bachelor,2022.2.4,60.031638476326926,
,,,,,,,,,,,,1,0,1,0,29,0,29,0,,,,,,,29,,,0.2,9517.651988047524,X,None,nogo,None,1,,9518.451866932417,,,,,,,,,,,,,,,41,001,22,w,Psychologie,2023-01-18_12h35.01.826,00_bat_bachelor,2022.2.4,60.031638476326926,
,,,,,,,,,,,,1,0,1,0,30,0,30,0,,,,,,,30,,,0.2,9518.651679199189,Y,d,go,d,1,0.25875383857055567,,,,,,,,,,,,,,,,41,001,22,w,Psychologie,2023-01-18_12h35.01.826,00_bat_bachelor,2022.2.4,60.031638476326926,
,,,,,,,,,,,,1,0,1,0,31,0,31,0,,,,,,,31,,,0.2,9519.2183766214,X,l,go,l,1,0.4294529073231388,,,,,,,,,,,,,,,,41,001,22,w,Psychologie,2023-01-18_12h35.01.826,00_bat_bachelor,2022.2.4,60.031638476326926,
,,,,,,,,,,,,1,0,1,0,32,0,32,0,,,,,,,32,,,0.2,9519.9519350536,X,None,nogo,None,1,,9520.751993332378,,,,,,,,,,,,,,,41,001,22,w,Psychologie,2023-01-18_12h35.01.826,00_bat_bachelor,2022.2.4,60.031638476326926,
,,,,,,,,,,,,1,0,1,0,33,0,33,0,,,,,,,33,,,0.2,9520.951740144606,X,None,nogo,d,0,0.3125584185181651,,,,,,,,,,,,,,,,41,001,22,w,Psychologie,2023-01-18_12h35.01.826,00_bat_bachelor,2022.2.4,60.031638476326926,
,,,,,,,,,,,,1,0,1,0,34,0,34,0,,,,,,,34,,,0.2,9521.568578633422,Y,d,go,None,0,,9522.36863594249,,,,,,,,,,,,,,,41,001,22,w,Psychologie,2023-01-18_12h35.01.826,00_bat_bachelor,2022.2.4,60.031638476326926,
,,,,,,,,,,,,1,0,1,0,35,0,35,0,,,,,,,35,,,0.2,9522.568327482033,X,l,go,None,0,,9523.368758609082,,,,,,,,,,,,,,,41,001,22,w,Psychologie,2023-01-18_12h35.01.826,00_bat_bachelor,2022.2.4,60.031638476326926,
,,,,,,,,,,,,1,0,1,0,36,0,36,0,,,,,,,36,,,0.2,9523.568594633398,X,None,nogo,None,1,,9524.368627215212,,,,,,,,,,,,,,,41,001,22,w,Psychologie,2023-01-18_12h35.01.826,00_bat_bachelor,2022.2.4,60.031638476326926,
,,,,,,,,,,,,1,0,1,0,37,0,37,0,,,,,,,37,,,0.2,9524.568636330368,Y,d,go,d,1,0.6305849310010672,,,,,,,,,,,,,,,,41,001,22,w,Psychologie,2023-01-18_12h35.01.826,00_bat_bachelor,2022.2.4,60.031638476326926,
,,,,,,,,,,,,1,0,1,0,38,0,38,0,,,,,,,38,,,0.2,9525.501687999174,X,l,go,l,1,0.2895276418130379,,,,,,,,,,,,,,,,41,001,22,w,Psychologie,2023-01-18_12h35.01.826,00_bat_bachelor,2022.2.4,60.031638476326926,
,,,,,,,,,,,,1,0,1,0,39,0,39,0,,,,,,,39,,,0.2,9526.101673162833,Y,d,go,d,1,0.4583876811666414,,,,,,,,,,,,,,,,41,001,22,w,Psychologie,2023-01-18_12h35.01.826,00_bat_bachelor,2022.2.4,60.031638476326926,
,,,,,,,,,,,,1,0,1,0,40,0,40,0,,,,,,,40,,,0.2,9526.868661881861,X,l,go,l,1,0.21826755517395213,,,,,,,,,,,,,,,,41,001,22,w,Psychologie,2023-01-18_12h35.01.826,00_bat_bachelor,2022.2.4,60.031638476326926,
,,,,,,,,,,,,1,0,1,0,41,0,41,0,,,,,,,41,,,0.2,9527.401912532398,Y,d,go,d,1,0.31032617719029076,,,,,,,,,,,,,,,,41,001,22,w,Psychologie,2023-01-18_12h35.01.826,00_bat_bachelor,2022.2.4,60.031638476326926,
,,,,,,,,,,,,1,0,1,0,42,0,42,0,,,,,,,42,,,0.2,9528.018706415169,Y,None,nogo,None,1,,9528.818438391056,,,,,,,,,,,,,,,41,001,22,w,Psychologie,2023-01-18_12h35.01.826,00_bat_bachelor,2022.2.4,60.031638476326926,
,,,,,,,,,,,,1,0,1,0,43,0,43,0,,,,,,,43,,,0.2,9529.018846536317,X,l,go,l,1,0.213757981575327,,,,,,,,,,,,,,,,41,001,22,w,Psychologie,2023-01-18_12h35.01.826,00_bat_bachelor,2022.2.4,60.031638476326926,
,,,,,,,,,,,,1,0,1,0,44,0,44,0,,,,,,,44,,,0.2,9529.535292346525,Y,d,go,d,1,0.4803784583637025,,,,,,,,,,,,,,,,41,001,22,w,Psychologie,2023-01-18_12h35.01.826,00_bat_bachelor,2022.2.4,60.031638476326926,
,,,,,,,,,,,,1,0,1,0,45,0,45,0,,,,,,,45,,,0.2,9530.318666027306,Y,None,nogo,d,0,0.4485709586297162,,,,,,,,,,,,,,,,41,001,22,w,Psychologie,2023-01-18_12h35.01.826,00_bat_bachelor,2022.2.4,60.031638476326926,
,,,,,,,,,,,,1,0,1,0,46,0,46,0,,,,,,,46,,,0.2,9531.068649663677,X,l,go,l,1,0.40234795075957663,,,,,,,,,,,,,,,,41,001,22,w,Psychologie,2023-01-18_12h35.01.826,00_bat_bachelor,2022.2.4,60.031638476326926,
,,,,,,,,,,,,1,0,1,0,47,0,47,0,,,,,,,47,,,0.2,9531.785005195154,Y,d,go,d,1,0.4214170324266888,,,,,,,,,,,,,,,,41,001,22,w,Psychologie,2023-01-18_12h35.01.826,00_bat_bachelor,2022.2.4,60.031638476326926,
,,,,,,,,,,,,1,0,1,0,48,0,48,0,,,,,,,48,,,0.2,9532.518383748655,Y,None,nogo,None,1,,9533.318649057619,,,,,,,,,,,,,,,41,001,22,w,Psychologie,2023-01-18_12h35.01.826,00_bat_bachelor,2022.2.4,60.031638476326926,
,,,,,,,,,,,,1,0,1,0,49,0,49,0,,,,,,,49,,,0.2,9533.518320718402,X,l,go,l,1,0.4974199046555441,,,,,,,,,,,,,,,,41,001,22,w,Psychologie,2023-01-18_12h35.01.826,00_bat_bachelor,2022.2.4,60.031638476326926,
,,,,,,,,,,,,1,0,1,0,50,0,50,0,,,,,,,50,,,0.2,9534.318728087906,Y,d,go,d,1,0.41676054982235655,,,,,,,,,,,,,,,,41,001,22,w,Psychologie,2023-01-18_12h35.01.826,00_bat_bachelor,2022.2.4,60.031638476326926,
,,,,,,,,,,,,1,0,1,0,51,0,51,0,,,,,,,51,,,0.2,9535.03572652815,X,l,go,l,1,0.4512002906994894,,,,,,,,,,,,,,,,41,001,22,w,Psychologie,2023-01-18_12h35.01.826,00_bat_bachelor,2022.2.4,60.031638476326926,
,,,,,,,,,,,,1,0,1,0,52,0,52,0,,,,,,,52,,,0.2,9535.801665550709,Y,d,go,d,1,0.4209152144903783,,,,,,,,,,,,,,,,41,001,22,w,Psychologie,2023-01-18_12h35.01.826,00_bat_bachelor,2022.2.4,60.031638476326926,
,,,,,,,,,,,,1,0,1,0,53,0,53,0,,,,,,,53,,,0.2,9536.53563125545,X,l,go,l,1,0.43953532667364925,,,,,,,,,,,,,,,,41,001,22,w,Psychologie,2023-01-18_12h35.01.826,00_bat_bachelor,2022.2.4,60.031638476326926,
,,,,,,,,,,,,1,0,1,0,54,0,54,0,,,,,,,54,,,0.2,9537.285395255574,Y,d,go,d,1,0.4259057575254701,,,,,,,,,,,,,,,,41,001,22,w,Psychologie,2023-01-18_12h35.01.826,00_bat_bachelor,2022.2.4,60.031638476326926,
,,,,,,,,,,,,1,0,1,0,55,0,55,0,,,,,,,55,,,0.2,9538.018995384744,X,l,go,l,1,0.30000521248439327,,,,,,,,,,,,,,,,41,001,22,w,Psychologie,2023-01-18_12h35.01.826,00_bat_bachelor,2022.2.4,60.031638476326926,
,,,,,,,,,,,,1,0,1,0,56,0,56,0,,,,,,,56,,,0.2,9538.618963578687,Y,d,go,d,1,0.4999406306887977,,,,,,,,,,,,,,,,41,001,22,w,Psychologie,2023-01-18_12h35.01.826,00_bat_bachelor,2022.2.4,60.031638476326926,
,,,,,,,,,,,,1,0,1,0,57,0,57,0,,,,,,,57,,,0.2,9539.418992281717,X,l,go,l,1,0.4363682979019359,,,,,,,,,,,,,,,,41,001,22,w,Psychologie,2023-01-18_12h35.01.826,00_bat_bachelor,2022.2.4,60.031638476326926,
,,,,,,,,,,,,1,0,1,0,58,0,58,0,,,,,,,58,,,0.2,9540.168989978672,X,None,nogo,None,1,,9540.968962439307,,,,,,,,,,,,,,,41,001,22,w,Psychologie,2023-01-18_12h35.01.826,00_bat_bachelor,2022.2.4,60.031638476326926,
,,,,,,,,,,,,1,0,1,0,59,0,59,0,,,,,,,59,,,0.2,9541.1689662211,Y,d,go,d,1,0.22279409840120934,,,,,,,,,,,,,,,,41,001,22,w,Psychologie,2023-01-18_12h35.01.826,00_bat_bachelor,2022.2.4,60.031638476326926,
,,,,,,,,,,,,1,0,1,0,60,0,60,0,,,,,,,60,,,0.2,9541.70196911419,X,l,go,l,1,0.4422349617234431,,,,,,,,,,,,,,,,41,001,22,w,Psychologie,2023-01-18_12h35.01.826,00_bat_bachelor,2022.2.4,60.031638476326926,
,,,,,,,,,,,,1,0,1,0,61,0,61,0,,,,,,,61,,,0.2,9542.451957114215,X,None,nogo,None,1,,9543.251956241467,,,,,,,,,,,,,,,41,001,22,w,Psychologie,2023-01-18_12h35.01.826,00_bat_bachelor,2022.2.4,60.031638476326926,
,,,,,,,,,,,,1,0,1,0,62,0,62,0,,,,,,,62,,,0.2,9543.45197068996,Y,d,go,d,1,0.6277364475245122,,,,,,,,,,,,,,,,41,001,22,w,Psychologie,2023-01-18_12h35.01.826,00_bat_bachelor,2022.2.4,60.031638476326926,
,,,,,,,,,,,,1,0,1,0,63,0,63,0,,,,,,,63,,,0.2,9544.38531132834,X,l,go,l,1,0.3984298920549918,,,,,,,,,,,,,,,,41,001,22,w,Psychologie,2023-01-18_12h35.01.826,00_bat_bachelor,2022.2.4,60.031638476326926,
,,,,,,,,,,,,1,0,1,0,64,0,64,0,,,,,,,64,,,0.2,9545.085320201062,X,None,nogo,l,0,0.46622573796776123,,,,,,,,,,,,,,,,41,001,22,w,Psychologie,2023-01-18_12h35.01.826,00_bat_bachelor,2022.2.4,60.031638476326926,
,,,,,,,,,,,,1,0,1,0,65,0,65,0,,,,,,,65,,,0.2,9545.851663587062,Y,d,go,d,1,0.5151571081951261,,,,,,,,,,,,,,,,41,001,22,w,Psychologie,2023-01-18_12h35.01.826,00_bat_bachelor,2022.2.4,60.031638476326926,
,,,,,,,,,,,,1,0,1,0,66,0,66,0,,,,,,,66,,,0.2,9546.668621736433,X,l,go,l,1,0.3072202393086627,,,,,,,,,,,,,,,,41,001,22,w,Psychologie,2023-01-18_12h35.01.826,00_bat_bachelor,2022.2.4,60.031638476326926,
,,,,,,,,,,,,1,0,1,0,67,0,67,0,,,,,,,67,,,0.2,9547.285276467737,Y,d,go,d,1,0.48996633250499144,,,,,,,,,,,,,,,,41,001,22,w,Psychologie,2023-01-18_12h35.01.826,00_bat_bachelor,2022.2.4,60.031638476326926,
,,,,,,,,,,,,1,0,1,0,68,0,68,0,,,,,,,68,,,0.2,9548.085097655712,X,l,go,None,0,,9548.884994480002,,,,,,,,,,,,,,,41,001,22,w,Psychologie,2023-01-18_12h35.01.826,00_bat_bachelor,2022.2.4,60.031638476326926,
,,,,,,,,,,,,1,0,1,0,69,0,69,0,,,,,,,69,,,0.2,9549.085399716161,X,None,nogo,l,0,0.32188641402171925,,,,,,,,,,,,,,,,41,001,22,w,Psychologie,2023-01-18_12h35.01.826,00_bat_bachelor,2022.2.4,60.031638476326926,
,,,,,,,,,,,,1,0,1,0,70,0,70,0,,,,,,,70,,,0.2,9549.718901954475,Y,d,go,d,1,0.489626938739093,,,,,,,,,,,,,,,,41,001,22,w,Psychologie,2023-01-18_12h35.01.826,00_bat_bachelor,2022.2.4,60.031638476326926,
,,,,,,,,,,,,1,0,1,0,71,0,71,0,,,,,,,71,,,0.2,9550.518444839545,X,l,go,l,1,0.26437953280401416,,,,,,,,,,,,,,,,41,001,22,w,Psychologie,2023-01-18_12h35.01.826,00_bat_bachelor,2022.2.4,60.031638476326926,
,,,,,,,,,,,,1,0,1,0,72,0,72,0,,,,,,,72,,,0.2,9551.085040443606,Y,d,go,d,1,0.27373225553310476,,,,,,,,,,,,,,,,41,001,22,w,Psychologie,2023-01-18_12h35.01.826,00_bat_bachelor,2022.2.4,60.031638476326926,
,,,,,,,,,,,,1,0,1,0,73,0,73,0,,,,,,,73,,,0.2,9551.669418342091,X,l,go,l,1,0.2813235245994292,,,,,,,,,,,,,,,,41,001,22,w,Psychologie,2023-01-18_12h35.01.826,00_bat_bachelor,2022.2.4,60.031638476326926,
,,,,,,,,,,,,1,0,1,0,74,0,74,0,,,,,,,74,,,0.2,9552.286223376374,Y,d,go,d,1,0.28896182391326874,,,,,,,,,,,,,,,,41,001,22,w,Psychologie,2023-01-18_12h35.01.826,00_bat_bachelor,2022.2.4,60.031638476326926,
,,,,,,,,,,,,1,0,1,0,75,0,75,0,,,,,,,75,,,0.2,9552.919444402709,X,l,go,l,1,0.1510797089431435,,,,,,,,,,,,,,,,41,001,22,w,Psychologie,2023-01-18_12h35.01.826,00_bat_bachelor,2022.2.4,60.031638476326926,
,,,,,,,,,,,,1,0,1,0,76,0,76,0,,,,,,,76,,,0.2,9553.419290463382,X,None,nogo,None,1,,9554.21960037839,,,,,,,,,,,,,,,41,001,22,w,Psychologie,2023-01-18_12h35.01.826,00_bat_bachelor,2022.2.4,60.031638476326926,
,,,,,,,,,,,,1,0,1,0,77,0,77,0,,,,,,,77,,,0.2,9554.419548402657,Y,d,go,d,1,0.17196697153849527,,,,,,,,,,,,,,,,41,001,22,w,Psychologie,2023-01-18_12h35.01.826,00_bat_bachelor,2022.2.4,60.031638476326926,
,,,,,,,,,,,,1,0,1,0,78,0,78,0,,,,,,,78,,,0.2,9554.936293364211,X,l,go,l,1,0.2783227987529244,,,,,,,,,,,,,,,,41,001,22,w,Psychologie,2023-01-18_12h35.01.826,00_bat_bachelor,2022.2.4,60.031638476326926,
,,,,,,,,,,,,1,0,1,0,79,0,79,0,,,,,,,79,,,0.2,9555.552779853198,Y,d,go,d,1,0.4622858610819094,,,,,,,,,,,,,,,,41,001,22,w,Psychologie,2023-01-18_12h35.01.826,00_bat_bachelor,2022.2.4,60.031638476326926,
,,,,,,,,,,,,1,0,1,0,80,0,80,0,,,,,,,80,,,0.2,9556.335556685779,X,l,go,l,1,0.25550874922191724,,,,,,,,,,,,,,,,41,001,22,w,Psychologie,2023-01-18_12h35.01.826,00_bat_bachelor,2022.2.4,60.031638476326926,
,,,,,,,,,,,,1,0,1,0,81,0,81,0,,,,,,,81,,,0.2,9556.902342350368,Y,d,go,d,1,0.6330649298033677,,,,,,,,,,,,,,,,41,001,22,w,Psychologie,2023-01-18_12h35.01.826,00_bat_bachelor,2022.2.4,60.031638476326926,
,,,,,,,,,,,,1,0,1,0,82,0,82,0,,,,,,,82,,,0.2,9557.835534625192,X,l,go,l,1,0.2747271641273983,,,,,,,,,,,,,,,,41,001,22,w,Psychologie,2023-01-18_12h35.01.826,00_bat_bachelor,2022.2.4,60.031638476326926,
,,,,,,,,,,,,1,0,1,0,83,0,83,0,,,,,,,83,,,0.2,9558.4355697282,X,None,nogo,None,1,,9559.235762794793,,,,,,,,,,,,,,,41,001,22,w,Psychologie,2023-01-18_12h35.01.826,00_bat_bachelor,2022.2.4,60.031638476326926,
,,,,,,,,,,,,1,0,1,0,84,0,84,0,,,,,,,84,,,0.2,9559.435724879644,Y,d,go,d,1,0.21029374084901065,,,,,,,,,,,,,,,,41,001,22,w,Psychologie,2023-01-18_12h35.01.826,00_bat_bachelor,2022.2.4,60.031638476326926,
,,,,,,,,,,,,1,0,1,0,85,0,85,0,,,,,,,85,,,0.2,9559.968990075635,X,l,go,l,1,0.3344022867095191,,,,,,,,,,,,,,,,41,001,22,w,Psychologie,2023-01-18_12h35.01.826,00_bat_bachelor,2022.2.4,60.031638476326926,
,,,,,,,,,,,,1,0,1,0,86,0,86,0,,,,,,,86,,,0.2,9560.619070245302,X,None,nogo,d,0,0.43643084331415594,,,,,,,,,,,,,,,,41,001,22,w,Psychologie,2023-01-18_12h35.01.826,00_bat_bachelor,2022.2.4,60.031638476326926,
,,,,,,,,,,,,1,0,1,0,87,0,87,0,,,,,,,87,,,0.2,9561.369078124088,Y,d,go,None,0,,9562.169115554367,,,,,,,,,,,,,,,41,001,22,w,Psychologie,2023-01-18_12h35.01.826,00_bat_bachelor,2022.2.4,60.031638476326926,
,,,,,,,,,,,,1,0,1,0,88,0,88,0,,,,,,,88,,,0.2,9562.368885639327,X,l,go,l,1,0.4460036871605553,,,,,,,,,,,,,,,,41,001,22,w,Psychologie,2023-01-18_12h35.01.826,00_bat_bachelor,2022.2.4,60.031638476326926,
,,,,,,,,,,,,1,0,1,0,89,0,89,0,,,,,,,89,,,0.2,9563.119138851325,Y,d,go,d,1,0.4165598226536531,,,,,,,,,,,,,,,,41,001,22,w,Psychologie,2023-01-18_12h35.01.826,00_bat_bachelor,2022.2.4,60.031638476326926,
,,,,,,,,,,,,1,0,1,0,90,0,90,0,,,,,,,90,,,0.2,9563.835766382661,X,l,go,l,1,0.4833762751077302,,,,,,,,,,,,,,,,41,001,22,w,Psychologie,2023-01-18_12h35.01.826,00_bat_bachelor,2022.2.4,60.031638476326926,
,,,,,,,,,,,,1,0,1,0,91,0,91,0,,,,,,,91,,,0.2,9564.618868063582,Y,d,go,d,1,0.4045908587577287,,,,,,,,,,,,,,,,41,001,22,w,Psychologie,2023-01-18_12h35.01.826,00_bat_bachelor,2022.2.4,60.031638476326926,
,,,,,,,,,,,,1,0,1,0,92,0,92,0,,,,,,,92,,,0.2,9565.335785534175,X,l,go,l,1,0.343826282187365,,,,,,,,,,,,,,,,41,001,22,w,Psychologie,2023-01-18_12h35.01.826,00_bat_bachelor,2022.2.4,60.031638476326926,
,,,,,,,,,,,,1,0,1,0,93,0,93,0,,,,,,,93,,,0.2,9565.985769219027,Y,d,go,d,1,0.5732894436223432,,,,,,,,,,,,,,,,41,001,22,w,Psychologie,2023-01-18_12h35.01.826,00_bat_bachelor,2022.2.4,60.031638476326926,
,,,,,,,,,,,,1,0,1,0,94,0,94,0,,,,,,,94,,,0.2,9566.86911521497,Y,None,nogo,None,1,,9567.66895143324,,,,,,,,,,,,,,,41,001,22,w,Psychologie,2023-01-18_12h35.01.826,00_bat_bachelor,2022.2.4,60.031638476326926,
,,,,,,,,,,,,1,0,1,0,95,0,95,0,,,,,,,95,,,0.2,9567.868877639325,Y,None,nogo,l,0,0.17788308986928314,,,,,,,,,,,,,,,,41,001,22,w,Psychologie,2023-01-18_12h35.01.826,00_bat_bachelor,2022.2.4,60.031638476326926,
,,,,,,,,,,,,1,0,1,0,96,0,96,0,,,,,,,96,,,0.2,9568.352250495867,X,l,go,None,0,,9569.152459562436,,,,,,,,,,,,,,,41,001,22,w,Psychologie,2023-01-18_12h35.01.826,00_bat_bachelor,2022.2.4,60.031638476326926,
,,,,,,,,,,,,1,0,1,0,97,0,97,0,,,,,,,97,,,0.2,9569.352531223005,Y,d,go,None,0,,9570.152471683657,,,,,,,,,,,,,,,41,001,22,w,Psychologie,2023-01-18_12h35.01.826,00_bat_bachelor,2022.2.4,60.031638476326926,
,,,,,,,,,,,,1,0,1,0,98,0,98,0,,,,,,,98,,,0.2,9570.352477889712,X,l,go,l,1,0.3830495358852204,,,,,,,,,,,,,,,,41,001,22,w,Psychologie,2023-01-18_12h35.01.826,00_bat_bachelor,2022.2.4,60.031638476326926,
,,,,,,,,,,,,1,0,1,0,99,0,99,0,,,,,,,99,,,0.2,9571.035550043365,Y,d,go,d,1,0.4035557077440899,,,,,,,,,,,,,,,,41,001,22,w,Psychologie,2023-01-18_12h35.01.826,00_bat_bachelor,2022.2.4,60.031638476326926,
,,,,,,,,,,,,1,0,1,0,100,0,100,0,,,,,,,100,,,0.2,9571.752205211058,Y,None,nogo,l,0,0.3426548887800891,,,,,,,,,,,,,,,,41,001,22,w,Psychologie,2023-01-18_12h35.01.826,00_bat_bachelor,2022.2.4,60.031638476326926,
,,,,,,,,,,,,1,0,1,0,101,0,101,0,,,,,,,101,,,0.2,9572.40250162303,X,l,go,None,0,,9573.202231659525,,,,,,,,,,,,,,,41,001,22,w,Psychologie,2023-01-18_12h35.01.826,00_bat_bachelor,2022.2.4,60.031638476326926,
,,,,,,,,,,,,1,0,1,0,102,0,102,0,,,,,,,102,,,0.2,9573.402233501954,Y,d,go,None,0,,9574.202460992761,,,,,,,,,,,,,,,41,001,22,w,Psychologie,2023-01-18_12h35.01.826,00_bat_bachelor,2022.2.4,60.031638476326926,
,,,,,,,,,,,,1,0,1,0,103,0,103,0,,,,,,,103,,,0.2,9574.402387198847,X,l,go,l,1,0.3977695287321694,,,,,,,,,,,,,,,,41,001,22,w,Psychologie,2023-01-18_12h35.01.826,00_bat_bachelor,2022.2.4,60.031638476326926,
,,,,,,,,,,,,1,0,1,0,104,0,104,0,,,,,,,104,,,0.2,9575.1025400715,Y,d,go,d,1,0.41667424683691934,,,,,,,,,,,,,,,,41,001,22,w,Psychologie,2023-01-18_12h35.01.826,00_bat_bachelor,2022.2.4,60.031638476326926,
,,,,,,,,,,,,1,0,1,0,105,0,105,0,,,,,,,105,,,0.2,9575.819062390772,Y,None,nogo,None,1,,9576.619175942207,,,,,,,,,,,,,,,41,001,22,w,Psychologie,2023-01-18_12h35.01.826,00_bat_bachelor,2022.2.4,60.031638476326926,
,,,,,,,,,,,,1,0,1,0,106,0,106,0,,,,,,,106,,,0.2,9576.819045421085,X,l,go,l,1,0.3798437192454003,,,,,,,,,,,,,,,,41,001,22,w,Psychologie,2023-01-18_12h35.01.826,00_bat_bachelor,2022.2.4,60.031638476326926,
,,,,,,,,,,,,1,0,1,0,107,0,107,0,,,,,,,107,,,0.2,9577.518898657494,Y,d,go,None,0,,9578.319153299817,,,,,,,,,,,,,,,41,001,22,w,Psychologie,2023-01-18_12h35.01.826,00_bat_bachelor,2022.2.4,60.031638476326926,
,,,,,,,,,,,,1,0,1,0,108,0,108,0,,,,,,,108,,,0.2,9578.519007263501,X,l,go,d,0,0.5199018331477419,,,,,,,,,,,,,,,,41,001,22,w,Psychologie,2023-01-18_12h35.01.826,00_bat_bachelor,2022.2.4,60.031638476326926,
,,,,,,,,,,,,1,0,1,0,109,0,109,0,,,,,,,109,,,0.2,9579.352252435288,Y,d,go,d,1,0.6470469836494885,,,,,,,,,,,,,,,,41,001,22,w,Psychologie,2023-01-18_12h35.01.826,00_bat_bachelor,2022.2.4,60.031638476326926,
,,,,,,,,,,,,1,0,1,0,110,0,110,0,,,,,,,110,,,0.2,9580.302387732168,X,l,go,l,1,0.4644419812539127,,,,,,,,,,,,,,,,41,001,22,w,Psychologie,2023-01-18_12h35.01.826,00_bat_bachelor,2022.2.4,60.031638476326926,
,,,,,,,,,,,,1,0,1,0,111,0,111,0,,,,,,,111,,,0.2,9581.085513655504,X,None,nogo,l,0,0.6424142586183734,,,,,,,,,,,,,,,,41,001,22,w,Psychologie,2023-01-18_12h35.01.826,00_bat_bachelor,2022.2.4,60.031638476326926,
,,,,,,,,,,,,1,0,1,0,112,0,112,0,,,,,,,112,,,0.2,9582.03569598269,Y,d,go,d,1,0.4601598015287891,,,,,,,,,,,,,,,,41,001,22,w,Psychologie,2023-01-18_12h35.01.826,00_bat_bachelor,2022.2.4,60.031638476326926,
,,,,,,,,,,,,1,0,1,0,113,0,113,0,,,,,,,113,,,0.2,9582.8023026413,X,l,go,None,0,,9583.602498616965,,,,,,,,,,,,,,,41,001,22,w,Psychologie,2023-01-18_12h35.01.826,00_bat_bachelor,2022.2.4,60.031638476326926,
,,,,,,,,,,,,1,0,1,0,114,0,114,0,,,,,,,114,,,0.2,9583.802264823142,Y,d,go,None,0,,9584.602419101866,,,,,,,,,,,,,,,41,001,22,w,Psychologie,2023-01-18_12h35.01.826,00_bat_bachelor,2022.2.4,60.031638476326926,
,,,,,,,,,,,,1,0,1,0,115,0,115,0,,,,,,,115,,,0.2,9584.8023850655,Y,None,nogo,None,1,,9585.602549041185,,,,,,,,,,,,,,,41,001,22,w,Psychologie,2023-01-18_12h35.01.826,00_bat_bachelor,2022.2.4,60.031638476326926,
,,,,,,,,,,,,1,0,1,0,116,0,116,0,,,,,,,116,,,0.2,9585.802388944285,X,l,go,l,1,0.564353205554653,,,,,,,,,,,,,,,,41,001,22,w,Psychologie,2023-01-18_12h35.01.826,00_bat_bachelor,2022.2.4,60.031638476326926,
,,,,,,,,,,,,1,0,1,0,117,0,117,0,,,,,,,117,,,0.2,9586.669051796838,Y,d,go,None,0,,9587.46911153014,,,,,,,,,,,,,,,41,001,22,w,Psychologie,2023-01-18_12h35.01.826,00_bat_bachelor,2022.2.4,60.031638476326926,
,,,,,,,,,,,,1,0,1,0,118,0,118,0,,,,,,,118,,,0.2,9587.668918463547,X,l,go,None,0,,9588.469074196822,,,,,,,,,,,,,,,41,001,22,w,Psychologie,2023-01-18_12h35.01.826,00_bat_bachelor,2022.2.4,60.031638476326926,
,,,,,,,,,,,,1,0,1,0,119,0,119,0,,,,,,,119,,,0.2,9588.668865130254,Y,d,go,None,0,,9589.468843893905,,,,,,,,,,,,,,,41,001,22,w,Psychologie,2023-01-18_12h35.01.826,00_bat_bachelor,2022.2.4,60.031638476326926,
,,,,,,,,,,,,1,0,1,0,120,0,120,0,,,,,,,120,,,0.2,9589.66912355437,Y,None,nogo,None,1,,9590.469026196835,,,,,,,,,,,,,,,41,001,22,w,Psychologie,2023-01-18_12h35.01.826,00_bat_bachelor,2022.2.4,60.031638476326926,
,,,,,,,,,,,,1,0,1,0,121,0,121,0,,,,,,,121,,,0.2,9590.669045493793,X,l,go,l,1,0.1944615060929209,,,,,,,,,,,,,,,,41,001,22,w,Psychologie,2023-01-18_12h35.01.826,00_bat_bachelor,2022.2.4,60.031638476326926,
,,,,,,,,,,,,1,0,1,0,122,0,122,0,,,,,,,122,,,0.2,9591.169092766504,Y,d,go,None,0,,9591.969150560413,,,,,,,,,,,,,,,41,001,22,w,Psychologie,2023-01-18_12h35.01.826,00_bat_bachelor,2022.2.4,60.031638476326926,
,,,,,,,,,,,,1,0,1,0,123,0,123,0,,,,,,,123,,,0.2,9592.16905737258,Y,None,nogo,None,1,,9592.96908559074,,,,,,,,,,,,,,,41,001,22,w,Psychologie,2023-01-18_12h35.01.826,00_bat_bachelor,2022.2.4,60.031638476326926,
,,,,,,,,,,,,1,0,1,0,124,0,124,0,,,,,,,124,,,0.2,9593.169055918028,X,l,go,None,0,,9593.968901833257,,,,,,,,,,,,,,,41,001,22,w,Psychologie,2023-01-18_12h35.01.826,00_bat_bachelor,2022.2.4,60.031638476326926,
,,,,,,,,,,,,1,0,1,0,125,0,125,0,,,,,,,125,,,0.2,9594.168872645387,Y,d,go,None,0,,9594.969205348258,,,,,,,,,,,,,,,41,001,22,w,Psychologie,2023-01-18_12h35.01.826,00_bat_bachelor,2022.2.4,60.031638476326926,
,,,,,,,,,,,,1,0,1,0,126,0,126,0,,,,,,,126,,,0.2,9595.16909955439,X,l,go,l,1,0.3503426426323131,,,,,,,,,,,,,,,,41,001,22,w,Psychologie,2023-01-18_12h35.01.826,00_bat_bachelor,2022.2.4,60.031638476326926,
,,,,,,,,,,,,1,0,1,0,127,0,127,0,,,,,,,127,,,0.2,9595.819054148335,X,None,nogo,None,1,,9596.61906830591,,,,,,,,,,,,,,,41,001,22,w,Psychologie,2023-01-18_12h35.01.826,00_bat_bachelor,2022.2.4,60.031638476326926,
,,,,,,,,,,,,1,0,1,0,128,0,128,0,,,,,,,128,,,0.2,9596.818916451448,X,None,nogo,None,1,,9597.619083336205,,,,,,,,,,,,,,,41,001,22,w,Psychologie,2023-01-18_12h35.01.826,00_bat_bachelor,2022.2.4,60.031638476326926,
,,,,,,,,,,,,1,0,1,0,129,0,129,0,,,,,,,129,,,0.2,9597.819172936172,Y,d,go,d,1,0.4355484195111785,,,,,,,,,,,,,,,,41,001,22,w,Psychologie,2023-01-18_12h35.01.826,00_bat_bachelor,2022.2.4,60.031638476326926,
,,,,,,,,,,,,1,0,1,0,130,0,130,0,,,,,,,130,,,0.2,9598.568885542365,X,l,go,None,0,,9599.36917218464,,,,,,,,,,,,,,,41,001,22,w,Psychologie,2023-01-18_12h35.01.826,00_bat_bachelor,2022.2.4,60.031638476326926,
,,,,,,,,,,,,1,0,1,0,131,0,131,0,,,,,,,131,,,0.2,9599.56889136054,Y,d,go,l,0,0.2221439169079531,,,,,,,,,,,,,,,,41,001,22,w,Psychologie,2023-01-18_12h35.01.826,00_bat_bachelor,2022.2.4,60.031638476326926,
,,,,,,,,,,,,1,0,1,0,132,0,132,0,,,,,,,132,,,0.2,9600.102462495764,X,l,go,None,0,,9600.902179441357,,,,,,,,,,,,,,,41,001,22,w,Psychologie,2023-01-18_12h35.01.826,00_bat_bachelor,2022.2.4,60.031638476326926,
,,,,,,,,,,,,1,0,1,0,133,0,133,0,,,,,,,133,,,0.2,9601.102217162552,Y,d,go,d,1,0.48055251891491935,,,,,,,,,,,,,,,,41,001,22,w,Psychologie,2023-01-18_12h35.01.826,00_bat_bachelor,2022.2.4,60.031638476326926,
,,,,,,,,,,,,1,0,1,0,134,0,134,0,,,,,,,134,,,0.2,9601.885630600911,X,l,go,l,1,0.28974097504396923,,,,,,,,,,,,,,,,41,001,22,w,Psychologie,2023-01-18_12h35.01.826,00_bat_bachelor,2022.2.4,60.031638476326926,
,,,,,,,,,,,,1,0,1,0,135,0,135,0,,,,,,,135,,,0.2,9602.485491643398,Y,d,go,d,1,0.3781215382623486,,,,,,,,,,,,,,,,41,001,22,w,Psychologie,2023-01-18_12h35.01.826,00_bat_bachelor,2022.2.4,60.031638476326926,
,,,,,,,,,,,,1,0,1,0,136,0,136,0,,,,,,,136,,,0.2,9603.169073372585,Y,None,nogo,None,1,,9603.96893480295,,,,,,,,,,,,,,,41,001,22,w,Psychologie,2023-01-18_12h35.01.826,00_bat_bachelor,2022.2.4,60.031638476326926,
,,,,,,,,,,,,1,0,1,0,137,0,137,0,,,,,,,137,,,0.2,9604.169002099894,X,l,go,l,1,0.24692693521501496,,,,,,,,,,,,,,,,41,001,22,w,Psychologie,2023-01-18_12h35.01.826,00_bat_bachelor,2022.2.4,60.031638476326926,
,,,,,,,,,,,,1,0,1,0,138,0,138,0,,,,,,,138,,,0.2,9604.718875772669,Y,d,go,d,1,0.38406044445582666,,,,,,,,,,,,,,,,41,001,22,w,Psychologie,2023-01-18_12h35.01.826,00_bat_bachelor,2022.2.4,60.031638476326926,
,,,,,,,,,,,,1,0,1,0,139,0,139,0,,,,,,,139,,,0.2,9605.41911543315,X,l,go,l,1,0.4041961922775954,,,,,,,,,,,,,,,,41,001,22,w,Psychologie,2023-01-18_12h35.01.826,00_bat_bachelor,2022.2.4,60.031638476326926,
,,,,,,,,,,,,1,0,1,0,140,0,140,0,,,,,,,140,,,0.2,9606.135680903913,Y,d,go,d,1,0.3421593738894444,,,,,,,,,,,,,,,,41,001,22,w,Psychologie,2023-01-18_12h35.01.826,00_bat_bachelor,2022.2.4,60.031638476326926,
,,,,,,,,,,,,1,0,1,0,141,0,141,0,,,,,,,141,,,0.2,9606.802392338228,X,l,go,l,1,0.3960686810896732,,,,,,,,,,,,,,,,41,001,22,w,Psychologie,2023-01-18_12h35.01.826,00_bat_bachelor,2022.2.4,60.031638476326926,
,,,,,,,,,,,,1,0,1,0,142,0,142,0,,,,,,,142,,,0.2,9607.518870536296,X,None,nogo,None,1,,9608.318856572674,,,,,,,,,,,,,,,41,001,22,w,Psychologie,2023-01-18_12h35.01.826,00_bat_bachelor,2022.2.4,60.031638476326926,
,,,,,,,,,,,,1,0,1,0,143,0,143,0,,,,,,,143,,,0.2,9608.518830293906,Y,d,go,d,1,0.1844309655134566,,,,,,,,,,,,,,,,41,001,22,w,Psychologie,2023-01-18_12h35.01.826,00_bat_bachelor,2022.2.4,60.031638476326926,
,,,,,,,,,,,,1,0,1,0,144,0,144,0,,,,,,,144,,,0.2,9609.018947869597,X,l,go,l,1,0.3234059284150135,,,,,,,,,,,,,,,,41,001,22,w,Psychologie,2023-01-18_12h35.01.826,00_bat_bachelor,2022.2.4,60.031638476326926,
,,,,,,,,,,,,1,0,1,0,145,0,145,0,,,,,,,145,,,0.2,9609.6688816151,X,None,nogo,None,1,,9610.468841954513,,,,,,,,,,,,,,,41,001,22,w,Psychologie,2023-01-18_12h35.01.826,00_bat_bachelor,2022.2.4,60.031638476326926,
,,,,,,,,,,,,1,0,1,0,146,0,146,0,,,,,,,146,,,0.2,9610.668870463589,Y,d,go,l,0,0.37018020875984803,,,,,,,,,,,,,,,,41,001,22,w,Psychologie,2023-01-18_12h35.01.826,00_bat_bachelor,2022.2.4,60.031638476326926,
,,,,,,,,,,,,1,0,1,0,147,0,147,0,,,,,,,147,,,0.2,9611.352377041272,X,l,go,None,0,,9612.15220210803,,,,,,,,,,,,,,,41,001,22,w,Psychologie,2023-01-18_12h35.01.826,00_bat_bachelor,2022.2.4,60.031638476326926,
,,,,,,,,,,,,1,0,1,0,148,0,148,0,,,,,,,148,,,0.2,9612.35237607159,X,None,nogo,l,0,0.35132639974472113,,,,,,,,,,,,,,,,41,001,22,w,Psychologie,2023-01-18_12h35.01.826,00_bat_bachelor,2022.2.4,60.031638476326926,
,,,,,,,,,,,,1,0,1,0,149,0,149,0,,,,,,,149,,,0.2,9613.019053566532,Y,d,go,d,1,0.4198015180591028,,,,,,,,,,,,,,,,41,001,22,w,Psychologie,2023-01-18_12h35.01.826,00_bat_bachelor,2022.2.4,60.031638476326926,
,,,,,,,,,,,,1,0,1,0,150,0,150,0,,,,,,,150,,,0.2,9613.752224604978,X,l,go,l,1,0.3582970630086493,,,,,,,,,,,,,,,,41,001,22,w,Psychologie,2023-01-18_12h35.01.826,00_bat_bachelor,2022.2.4,60.031638476326926,
,,,,,,,,,,,,1,0,1,0,151,0,151,0,,,,,,,151,,,0.2,9614.41926719065,X,None,nogo,None,1,,9615.218890075688,,,,,,,,,,,,,,,41,001,22,w,Psychologie,2023-01-18_12h35.01.826,00_bat_bachelor,2022.2.4,60.031638476326926,
,,,,,,,,,,,,1,0,1,0,152,0,152,0,,,,,,,152,,,0.2,9615.419140645274,X,None,nogo,d,0,0.16379582401714288,,,,,,,,,,,,,,,,41,001,22,w,Psychologie,2023-01-18_12h35.01.826,00_bat_bachelor,2022.2.4,60.031638476326926,
,,,,,,,,,,,,1,0,1,0,153,0,153,0,,,,,,,153,,,0.2,9615.885864297772,Y,d,go,None,0,,9616.685848394729,,,,,,,,,,,,,,,41,001,22,w,Psychologie,2023-01-18_12h35.01.826,00_bat_bachelor,2022.2.4,60.031638476326926,
,,,,,,,,,,,,1,0,1,0,154,0,154,0,,,,,,,154,,,0.2,9616.885539449431,X,l,go,None,0,,9617.685748516,,,,,,,,,,,,,,,41,001,22,w,Psychologie,2023-01-18_12h35.01.826,00_bat_bachelor,2022.2.4,60.031638476326926,
,,,,,,,,,,,,1,0,1,0,155,0,155,0,,,,,,,155,,,0.2,9617.88553799488,X,None,nogo,l,0,0.3693244516325649,,,,,,,,,,,,,,,,41,001,22,w,Psychologie,2023-01-18_12h35.01.826,00_bat_bachelor,2022.2.4,60.031638476326926,
,,,,,,,,,,,,1,0,1,0,156,0,156,0,,,,,,,156,,,0.2,9618.568823966634,Y,d,go,d,1,0.5181898339942563,,,,,,,,,,,,,,,,41,001,22,w,Psychologie,2023-01-18_12h35.01.826,00_bat_bachelor,2022.2.4,60.031638476326926,
,,,,,,,,,,,,1,0,1,0,157,0,157,0,,,,,,,157,,,0.2,9619.402408532158,X,l,go,l,1,0.6444738939753734,,,,,,,,,,,,,,,,41,001,22,w,Psychologie,2023-01-18_12h35.01.826,00_bat_bachelor,2022.2.4,60.031638476326926,
,,,,,,,,,,,,1,0,1,0,158,0,158,0,,,,,,,158,,,0.2,9620.352333404939,X,None,nogo,None,1,,9621.152361623099,,,,,,,,,,,,,,,41,001,22,w,Psychologie,2023-01-18_12h35.01.826,00_bat_bachelor,2022.2.4,60.031638476326926,
,,,,,,,,,,,,1,0,1,0,159,0,159,0,,,,,,,159,,,0.2,9621.352353768569,Y,d,go,d,1,0.37515863063163124,,,,,,,,,,,,,,,,41,001,22,w,Psychologie,2023-01-18_12h35.01.826,00_bat_bachelor,2022.2.4,60.031638476326926,
,,,,,,,,,,,,1,0,1,0,160,0,160,0,,,,,,,160,,,0.2,9622.035861800803,X,l,go,l,1,0.3465520990139339,,,,,,,,,,,,,,,,41,001,22,w,Psychologie,2023-01-18_12h35.01.826,00_bat_bachelor,2022.2.4,60.031638476326926,
,,,,,,,,,,,,1,0,1,0,161,0,161,0,,,,,,,161,,,0.2,9622.702195538324,Y,d,go,d,1,0.46553337466320954,,,,,,,,,,,,,,,,41,001,22,w,Psychologie,2023-01-18_12h35.01.826,00_bat_bachelor,2022.2.4,60.031638476326926,
,,,,,,,,,,,,1,0,1,0,162,0,162,0,,,,,,,162,,,0.2,9623.469140136178,Y,None,nogo,None,1,,9624.269066536217,,,,,,,,,,,,,,,41,001,22,w,Psychologie,2023-01-18_12h35.01.826,00_bat_bachelor,2022.2.4,60.031638476326926,
,,,,,,,,,,,,1,0,1,0,163,0,163,0,,,,,,,163,,,0.2,9624.468898196908,X,l,go,l,1,0.3941486820112914,,,,,,,,,,,,,,,,41,001,22,w,Psychologie,2023-01-18_12h35.01.826,00_bat_bachelor,2022.2.4,60.031638476326926,
,,,,,,,,,,,,1,0,1,0,164,0,164,0,,,,,,,164,,,0.2,9625.169012281694,Y,d,go,d,1,0.46100101323099807,,,,,,,,,,,,,,,,41,001,22,w,Psychologie,2023-01-18_12h35.01.826,00_bat_bachelor,2022.2.4,60.031638476326926,
,,,,,,,,,,,,1,0,1,0,165,0,165,0,,,,,,,165,,,0.2,9625.952344750374,X,l,go,l,1,0.4312521791725885,,,,,,,,,,,,,,,,41,001,22,w,Psychologie,2023-01-18_12h35.01.826,00_bat_bachelor,2022.2.4,60.031638476326926,
,,,,,,,,,,,,1,0,1,0,166,0,166,0,,,,,,,166,,,0.2,9626.685742212983,X,None,nogo,None,1,,9627.48548437067,,,,,,,,,,,,,,,41,001,22,w,Psychologie,2023-01-18_12h35.01.826,00_bat_bachelor,2022.2.4,60.031638476326926,
,,,,,,,,,,,,1,0,1,0,167,0,167,0,,,,,,,167,,,0.2,9627.685225849593,Y,d,go,d,1,0.3301569554605521,,,,,,,,,,,,,,,,41,001,22,w,Psychologie,2023-01-18_12h35.01.826,00_bat_bachelor,2022.2.4,60.031638476326926,
,,,,,,,,,,,,1,0,1,0,168,0,168,0,,,,,,,168,,,0.2,9628.318313542637,X,l,go,l,1,0.5135716544173192,,,,,,,,,,,,,,,,41,001,22,w,Psychologie,2023-01-18_12h35.01.826,00_bat_bachelor,2022.2.4,60.031638476326926,
,,,,,,,,,,,,1,0,1,0,169,0,169,0,,,,,,,169,,,0.2,9629.135230964748,X,None,nogo,None,1,,9629.935235425335,,,,,,,,,,,,,,,41,001,22,w,Psychologie,2023-01-18_12h35.01.826,00_bat_bachelor,2022.2.4,60.031638476326926,
,,,,,,,,,,,,1,0,1,0,170,0,170,0,,,,,,,170,,,0.2,9630.135235813214,Y,d,go,d,1,0.24824863154208288,,,,,,,,,,,,,,,,41,001,22,w,Psychologie,2023-01-18_12h35.01.826,00_bat_bachelor,2022.2.4,60.031638476326926,
,,,,,,,,,,,,1,0,1,0,171,0,171,0,,,,,,,171,,,0.2,9630.685239910177,X,l,go,l,1,0.4983682678139303,,,,,,,,,,,,,,,,41,001,22,w,Psychologie,2023-01-18_12h35.01.826,00_bat_bachelor,2022.2.4,60.031638476326926,
,,,,,,,,,,,,1,0,1,0,172,0,172,0,,,,,,,172,,,0.2,9631.485003886075,Y,d,go,d,1,0.5948438574268948,,,,,,,,,,,,,,,,41,001,22,w,Psychologie,2023-01-18_12h35.01.826,00_bat_bachelor,2022.2.4,60.031638476326926,
,,,,,,,,,,,,1,0,1,0,173,0,173,0,,,,,,,173,,,0.2,9632.385234237474,X,l,go,l,1,0.5573306634905748,,,,,,,,,,,,,,,,41,001,22,w,Psychologie,2023-01-18_12h35.01.826,00_bat_bachelor,2022.2.4,60.031638476326926,
,,,,,,,,,,,,1,0,1,0,174,0,174,0,,,,,,,174,,,0.2,9633.251730787044,Y,d,go,d,1,0.539862065896159,,,,,,,,,,,,,,,,41,001,22,w,Psychologie,2023-01-18_12h35.01.826,00_bat_bachelor,2022.2.4,60.031638476326926,
,,,,,,,,,,,,1,0,1,0,175,0,175,0,,,,,,,175,,,0.2,9634.101966011163,X,l,go,l,1,0.4094931594154332,,,,,,,,,,,,,,,,41,001,22,w,Psychologie,2023-01-18_12h35.01.826,00_bat_bachelor,2022.2.4,60.031638476326926,
,,,,,,,,,,,,1,0,1,0,176,0,176,0,,,,,,,176,,,0.2,9634.818318148697,Y,d,go,d,1,0.49376996705541387,,,,,,,,,,,,,,,,41,001,22,w,Psychologie,2023-01-18_12h35.01.826,00_bat_bachelor,2022.2.4,60.031638476326926,
,,,,,,,,,,,,1,0,1,0,177,0,177,0,,,,,,,177,,,0.2,9635.618353639584,X,l,go,l,1,0.36431839343276806,,,,,,,,,,,,,,,,41,001,22,w,Psychologie,2023-01-18_12h35.01.826,00_bat_bachelor,2022.2.4,60.031638476326926,
,,,,,,,,,,,,1,0,1,0,178,0,178,0,,,,,,,178,,,0.2,9636.284940952755,X,None,nogo,None,1,,9637.085250382923,,,,,,,,,,,,,,,41,001,22,w,Psychologie,2023-01-18_12h35.01.826,00_bat_bachelor,2022.2.4,60.031638476326926,
,,,,,,,,,,,,1,0,1,0,179,0,179,0,,,,,,,179,,,0.2,9637.284934649739,Y,d,go,d,1,0.21801931282971054,,,,,,,,,,,,,,,,41,001,22,w,Psychologie,2023-01-18_12h35.01.826,00_bat_bachelor,2022.2.4,60.031638476326926,
,,,,,,,,,,,,1,0,1,0,180,0,180,0,,,,,,,180,,,0.2,9637.818551845558,X,l,go,None,0,,9638.61855194252,,,,,,,,,,,,,,,41,001,22,w,Psychologie,2023-01-18_12h35.01.826,00_bat_bachelor,2022.2.4,60.031638476326926,
,,,,,,,,,,,,1,0,1,0,181,0,181,0,,,,,,,181,,,0.2,9638.818354027462,X,None,nogo,l,0,0.3974917106970679,,,,,,,,,,,,,,,,41,001,22,w,Psychologie,2023-01-18_12h35.01.826,00_bat_bachelor,2022.2.4,60.031638476326926,
,,,,,,,,,,,,1,0,1,0,182,0,182,0,,,,,,,182,,,0.2,9639.518599990988,Y,d,go,d,1,0.5457912751589902,,,,,,,,,,,,,,,,41,001,22,w,Psychologie,2023-01-18_12h35.01.826,00_bat_bachelor,2022.2.4,60.031638476326926,
,,,,,,,,,,,,1,0,1,0,183,0,183,0,,,,,,,183,,,0.2,9640.368568548583,X,l,go,l,1,0.28627770402817987,,,,,,,,,,,,,,,,41,001,22,w,Psychologie,2023-01-18_12h35.01.826,00_bat_bachelor,2022.2.4,60.031638476326926,
,,,,,,,,,,,,1,0,1,0,184,0,184,0,,,,,,,184,,,0.2,9640.968562439492,Y,d,go,d,1,0.48735784893506207,,,,,,,,,,,,,,,,41,001,22,w,Psychologie,2023-01-18_12h35.01.826,00_bat_bachelor,2022.2.4,60.031638476326926,
,,,,,,,,,,,,1,0,1,0,185,0,185,0,,,,,,,185,,,0.2,9641.768378778972,X,l,go,l,1,0.2638234118639957,,,,,,,,,,,,,,,,41,001,22,w,Psychologie,2023-01-18_12h35.01.826,00_bat_bachelor,2022.2.4,60.031638476326926,
,,,,,,,,,,,,1,0,1,0,186,0,186,0,,,,,,,186,,,0.2,9642.33494044366,X,None,nogo,None,1,,9643.135289631377,,,,,,,,,,,,,,,41,001,22,w,Psychologie,2023-01-18_12h35.01.826,00_bat_bachelor,2022.2.4,60.031638476326926,
,,,,,,,,,,,,1,0,1,0,187,0,187,0,,,,,,,187,,,0.2,9643.335292928357,Y,d,go,d,1,0.24819481337908655,,,,,,,,,,,,,,,,41,001,22,w,Psychologie,2023-01-18_12h35.01.826,00_bat_bachelor,2022.2.4,60.031638476326926,
,,,,,,,,,,,,1,0,1,0,188,0,188,0,,,,,,,188,,,0.2,9643.885268904123,X,l,go,l,1,0.2742015886469744,,,,,,,,,,,,,,,,41,001,22,w,Psychologie,2023-01-18_12h35.01.826,00_bat_bachelor,2022.2.4,60.031638476326926,
,,,,,,,,,,,,1,0,1,0,189,0,189,0,,,,,,,189,,,0.2,9644.468254803272,Y,d,go,d,1,0.5065854759595823,,,,,,,,,,,,,,,,41,001,22,w,Psychologie,2023-01-18_12h35.01.826,00_bat_bachelor,2022.2.4,60.031638476326926,
,,,,,,,,,,,,1,0,1,0,190,0,190,0,,,,,,,190,,,0.2,9645.284931255796,Y,None,nogo,None,1,,9646.08521741323,,,,,,,,,,,,,,,41,001,22,w,Psychologie,2023-01-18_12h35.01.826,00_bat_bachelor,2022.2.4,60.031638476326926,
,,,,,,,,,,,,1,0,1,0,191,0,191,0,,,,,,,191,,,0.2,9646.285052952706,X,l,go,l,1,0.17842611993546598,,,,,,,,,,,,,,,,41,001,22,w,Psychologie,2023-01-18_12h35.01.826,00_bat_bachelor,2022.2.4,60.031638476326926,
,,,,,,,,,,,,1,0,1,0,192,0,192,0,,,,,,,192,,,0.2,9646.768655627326,Y,d,go,None,0,,9647.568620330363,,,,,,,,,,,,,,,41,001,22,w,Psychologie,2023-01-18_12h35.01.826,00_bat_bachelor,2022.2.4,60.031638476326926,
,,,,,,,,,,,,1,0,1,0,193,0,193,0,,,,,,,193,,,0.2,9647.768768596958,X,l,go,l,1,0.5180792885657866,,,,,,,,,,,,,,,,41,001,22,w,Psychologie,2023-01-18_12h35.01.826,00_bat_bachelor,2022.2.4,60.031638476326926,
,,,,,,,,,,,,1,0,1,0,194,0,194,0,,,,,,,194,,,0.2,9648.601552193199,Y,d,go,d,1,0.4217360625625588,,,,,,,,,,,,,,,,41,001,22,w,Psychologie,2023-01-18_12h35.01.826,00_bat_bachelor,2022.2.4,60.031638476326926,
,,,,,,,,,,,,1,0,1,0,195,0,195,0,,,,,,,195,,,0.2,9649.335954746202,Y,None,nogo,l,0,0.39078286543372087,,,,,,,,,,,,,,,,41,001,22,w,Psychologie,2023-01-18_12h35.01.826,00_bat_bachelor,2022.2.4,60.031638476326926,
,,,,,,,,,,,,1,0,1,0,196,0,196,0,,,,,,,196,,,0.2,9650.069378875458,X,l,go,None,0,,9650.86949969965,,,,,,,,,,,,,,,41,001,22,w,Psychologie,2023-01-18_12h35.01.826,00_bat_bachelor,2022.2.4,60.031638476326926,
,,,,,,,,,,,,1,0,1,0,197,0,197,0,,,,,,,197,,,0.2,9651.069315360335,Y,d,go,d,1,0.4012880724912975,,,,,,,,,,,,,,,,41,001,22,w,Psychologie,2023-01-18_12h35.01.826,00_bat_bachelor,2022.2.4,60.031638476326926,
,,,,,,,,,,,,1,0,1,0,198,0,198,0,,,,,,,198,,,0.2,9651.819456572382,X,l,go,l,1,0.32285998927545734,,,,,,,,,,,,,,,,41,001,22,w,Psychologie,2023-01-18_12h35.01.826,00_bat_bachelor,2022.2.4,60.031638476326926,
,,,,,,,,,,,,1,0,1,0,199,0,199,0,,,,,,,199,,,0.2,9652.485881461384,X,None,nogo,l,0,0.5526043627469335,,,,,,,,,,,,,,,,41,001,22,w,Psychologie,2023-01-18_12h35.01.826,00_bat_bachelor,2022.2.4,60.031638476326926,
