loop_instruction.thisRepN,loop_instruction.thisTrialN,loop_instruction.thisN,loop_instruction.thisIndex,loop_rsi_practice.thisRepN,loop_rsi_practice.thisTrialN,loop_rsi_practice.thisN,loop_rsi_practice.thisIndex,loop_practice.thisRepN,loop_practice.thisTrialN,loop_practice.thisN,loop_practice.thisIndex,loop_exp.thisRepN,loop_exp.thisTrialN,loop_exp.thisN,loop_exp.thisIndex,loop_trials.thisRepN,loop_trials.thisTrialN,loop_trials.thisN,loop_trials.thisIndex,map_condition,map_x_key,map_y_key,key_resp_welcome.started,key_resp_welcome.keys,key_resp_welcome.rt,index,text_empty_rsi_practice.started,text_empty_rsi_practice.stopped,rsi,stimulus.started,stimulus.stopped,stimulus,correct,trial_type,key_resp_trial.keys,key_resp_trial.corr,key_resp_trial.rt,key_resp_instruction_rsi.started,key_resp_instruction_rsi.keys,key_resp_instruction_rsi.rt,key_resp_instruction_rsi.stopped,key_resp_instruction_final.started,key_resp_instruction_final.keys,key_resp_instruction_final.rt,key_resp_break.started,key_resp_break.keys,key_resp_break.rt,key_resp_break.stopped,key_resp_end_screen.started,image_end_screen.started,key_resp_end_screen.keys,key_resp_end_screen.rt,participant,session,Alter,Geschlecht (w/m/d/andere),Studiengang,date,expName,psychopyVersion,frameRate,
,,,,0,0,0,0,0,0,0,0,,,,,,,,,0,d,l,428.20001105454867,j,28.93169861770002,0,457.16478537465446,458.17918294342235,1,458.17918294342235,458.979699888645,X,d,go,None,0,,,,,,,,,,,,,,,,,42,001,20,w,"Bildungswissenschaften, Nebenfach Psychologie",2023-01-18_11h59.14.115,00_bat_bachelor,2022.2.4,59.978218831259255,
,,,,0,0,0,0,1,0,1,0,,,,,,,,,,,,,,,1,459.5802901428833,460.5811531727668,1,460.5811531727668,,Y,l,go,None,0,,,,,,,,,,,,,,,,,42,001,20,w,"Bildungswissenschaften, Nebenfach Psychologie",2023-01-18_11h59.14.115,00_bat_bachelor,2022.2.4,59.978218831259255,
,,,,0,0,0,0,2,0,2,0,,,,,,,,,,,,,,,2,461.9823238873505,462.9829634022026,1,462.9829634022026,,X,d,go,d,1,0.48256089608184993,,,,,,,,,,,,,,,,42,001,20,w,"Bildungswissenschaften, Nebenfach Psychologie",2023-01-18_11h59.14.115,00_bat_bachelor,2022.2.4,59.978218831259255,
,,,,0,0,0,0,3,0,3,0,,,,,,,,,,,,,,,3,464.1671233129164,465.16769397931057,1,465.16769397931057,,X,None,nogo,None,1,,,,,,,,,,,,,,,,,42,001,20,w,"Bildungswissenschaften, Nebenfach Psychologie",2023-01-18_11h59.14.115,00_bat_bachelor,2022.2.4,59.978218831259255,
,,,,0,0,0,0,4,0,4,0,,,,,,,,,,,,,,,4,466.56878663331736,467.5698949964135,1,467.5698949964135,,Y,l,go,l,1,0.42301037948345765,,,,,,,,,,,,,,,,42,001,20,w,"Bildungswissenschaften, Nebenfach Psychologie",2023-01-18_11h59.14.115,00_bat_bachelor,2022.2.4,59.978218831259255,
,,,,0,0,0,0,5,0,5,0,,,,,,,,,,,,,,,5,468.7039356587047,469.7047560219362,1,469.7047560219362,,X,d,go,d,1,0.5754607298295014,,,,,,,,,,,,,,,,42,001,20,w,"Bildungswissenschaften, Nebenfach Psychologie",2023-01-18_11h59.14.115,00_bat_bachelor,2022.2.4,59.978218831259255,
,,,,0,0,0,0,6,0,6,0,,,,,,,,,,,,,,,6,470.98919515675516,471.98981576252845,1,471.98981576252845,,X,None,nogo,None,1,,,,,,,,,,,,,,,,,42,001,20,w,"Bildungswissenschaften, Nebenfach Psychologie",2023-01-18_11h59.14.115,00_bat_bachelor,2022.2.4,59.978218831259255,
,,,,0,0,0,0,7,0,7,0,,,,,,,,,,,,,,,7,473.39084344686125,474.39165265861084,1,474.39165265861084,,Y,l,go,l,1,0.5130917903443333,,,,,,,,,,,,,,,,42,001,20,w,"Bildungswissenschaften, Nebenfach Psychologie",2023-01-18_11h59.14.115,00_bat_bachelor,2022.2.4,59.978218831259255,
,,,,0,0,0,0,8,0,8,0,,,,,,,,,,,,,,,8,475.6091856440471,476.6100462496688,1,476.6100462496688,,X,d,go,d,1,0.4384067356295418,,,,,,,,,,,,,,,,42,001,20,w,"Bildungswissenschaften, Nebenfach Psychologie",2023-01-18_11h59.14.115,00_bat_bachelor,2022.2.4,59.978218831259255,
,,,,0,0,0,0,9,0,9,0,,,,,,,,,,,,,,,9,477.7609940552793,478.7615763580252,1,478.7615763580252,,X,None,nogo,None,1,,,,,,,,,,,,,,,,,42,001,20,w,"Bildungswissenschaften, Nebenfach Psychologie",2023-01-18_11h59.14.115,00_bat_bachelor,2022.2.4,59.978218831259255,
,,,,0,0,0,0,10,0,10,0,,,,,,,,,,,,,,,10,480.1623834364291,481.1634147086588,1,481.1634147086588,,Y,l,go,l,1,0.4772377471381333,,,,,,,,,,,,,,,,42,001,20,w,"Bildungswissenschaften, Nebenfach Psychologie",2023-01-18_11h59.14.115,00_bat_bachelor,2022.2.4,59.978218831259255,
,,,,0,0,0,0,11,0,11,0,,,,,,,,,,,,,,,11,482.34766577082337,483.3481249221368,1,483.3481249221368,,X,d,go,d,1,0.6118393788347021,,,,,,,,,,,,,,,,42,001,20,w,"Bildungswissenschaften, Nebenfach Psychologie",2023-01-18_11h59.14.115,00_bat_bachelor,2022.2.4,59.978218831259255,
,,,,0,0,0,0,12,0,12,0,,,,,,,,,,,,,,,12,484.66615822247695,485.66693397966446,1,485.66693397966446,,Y,l,go,l,1,0.42112674404052086,,,,,,,,,,,,,,,,42,001,20,w,"Bildungswissenschaften, Nebenfach Psychologie",2023-01-18_11h59.14.115,00_bat_bachelor,2022.2.4,59.978218831259255,
,,,,0,0,0,0,13,0,13,0,,,,,,,,,,,,,,,13,486.8010143995052,487.80181827791966,1,487.80181827791966,,Y,None,nogo,None,1,,,,,,,,,,,,,,,,,42,001,20,w,"Bildungswissenschaften, Nebenfach Psychologie",2023-01-18_11h59.14.115,00_bat_bachelor,2022.2.4,59.978218831259255,
,,,,0,0,0,0,14,0,14,0,,,,,,,,,,,,,,,14,489.2029560228111,490.2035950527934,1,490.2035950527934,,X,d,go,d,1,0.36549380130600184,,,,,,,,,,,,,,,,42,001,20,w,"Bildungswissenschaften, Nebenfach Psychologie",2023-01-18_11h59.14.115,00_bat_bachelor,2022.2.4,59.978218831259255,
,,,,1,0,1,0,0,0,0,0,,,,,,,,,,,,,,,0,519.7929518579622,519.9929866700841,0.2,519.9929866700841,,X,d,go,None,0,,491.2813501666242,j,28.49059240729548,,,,,,,,,,,,,42,001,20,w,"Bildungswissenschaften, Nebenfach Psychologie",2023-01-18_11h59.14.115,00_bat_bachelor,2022.2.4,59.978218831259255,
,,,,1,0,1,0,1,0,1,0,,,,,,,,,,,,,,,1,521.3941588391899,521.5939589847403,0.2,521.5939589847403,,Y,l,go,l,1,0.38214591445284896,,,,,,,,,,,,,,,,42,001,20,w,"Bildungswissenschaften, Nebenfach Psychologie",2023-01-18_11h59.14.115,00_bat_bachelor,2022.2.4,59.978218831259255,
,,,,1,0,1,0,2,0,2,0,,,,,,,,,,,,,,,2,522.6784665801388,522.8782308469235,0.2,522.8782308469235,,X,d,go,l,0,0.2818167509685736,,,,,,,,,,,,,,,,42,001,20,w,"Bildungswissenschaften, Nebenfach Psychologie",2023-01-18_11h59.14.115,00_bat_bachelor,2022.2.4,59.978218831259255,
,,,,1,0,1,0,3,0,3,0,,,,,,,,,,,,,,,3,523.8624999454478,524.0625153636211,0.2,524.0625153636211,,Y,l,go,l,1,0.4409003102045972,,,,,,,,,,,,,,,,42,001,20,w,"Bildungswissenschaften, Nebenfach Psychologie",2023-01-18_11h59.14.115,00_bat_bachelor,2022.2.4,59.978218831259255,
,,,,1,0,1,0,4,0,4,0,,,,,,,,,,,,,,,4,525.2136609873269,525.4138955569069,0.2,525.4138955569069,,X,d,go,d,1,0.3865623971505556,,,,,,,,,,,,,,,,42,001,20,w,"Bildungswissenschaften, Nebenfach Psychologie",2023-01-18_11h59.14.115,00_bat_bachelor,2022.2.4,59.978218831259255,
,,,,1,0,1,0,5,0,5,0,,,,,,,,,,,,,,,5,526.5145999929227,526.7149591685156,0.2,526.7149591685156,,X,None,nogo,None,1,,,,,,,,,,,,,,,,,42,001,20,w,"Bildungswissenschaften, Nebenfach Psychologie",2023-01-18_11h59.14.115,00_bat_bachelor,2022.2.4,59.978218831259255,
,,,,1,0,1,0,6,0,6,0,,,,,,,,,,,,,,,6,528.1159310953226,528.3157671196386,0.2,528.3157671196386,,Y,l,go,l,1,0.2683816059434321,,,,,,,,,,,,,,,,42,001,20,w,"Bildungswissenschaften, Nebenfach Psychologie",2023-01-18_11h59.14.115,00_bat_bachelor,2022.2.4,59.978218831259255,
,,,,1,0,1,0,7,0,7,0,,,,,,,,,,,,,,,7,529.2997976728366,529.5003381816496,0.2,529.5003381816496,,X,d,go,d,1,0.49219143684604205,,,,,,,,,,,,,,,,42,001,20,w,"Bildungswissenschaften, Nebenfach Psychologie",2023-01-18_11h59.14.115,00_bat_bachelor,2022.2.4,59.978218831259255,
,,,,1,0,1,0,8,0,8,0,,,,,,,,,,,,,,,8,530.7008665692701,530.9012029570004,0.2,530.9012029570004,,X,None,nogo,d,0,0.418968199606752,,,,,,,,,,,,,,,,42,001,20,w,"Bildungswissenschaften, Nebenfach Psychologie",2023-01-18_11h59.14.115,00_bat_bachelor,2022.2.4,59.978218831259255,
,,,,1,0,1,0,9,0,9,0,,,,,,,,,,,,,,,9,532.4358470614243,532.6359870855813,0.2,532.6359870855813,,Y,l,go,None,0,,,,,,,,,,,,,,,,,42,001,20,w,"Bildungswissenschaften, Nebenfach Psychologie",2023-01-18_11h59.14.115,00_bat_bachelor,2022.2.4,59.978218831259255,
,,,,1,0,1,0,10,0,10,0,,,,,,,,,,,,,,,10,534.0371180426155,534.2372570970911,0.2,534.2372570970911,,X,d,go,d,1,0.36384240817278624,,,,,,,,,,,,,,,,42,001,20,w,"Bildungswissenschaften, Nebenfach Psychologie",2023-01-18_11h59.14.115,00_bat_bachelor,2022.2.4,59.978218831259255,
,,,,1,0,1,0,11,0,11,0,,,,,,,,,,,,,,,11,535.3047474886116,535.5048967249168,0.2,535.5048967249168,,Y,l,go,l,1,0.4228576523019001,,,,,,,,,,,,,,,,42,001,20,w,"Bildungswissenschaften, Nebenfach Psychologie",2023-01-18_11h59.14.115,00_bat_bachelor,2022.2.4,59.978218831259255,
,,,,1,0,1,0,12,0,12,0,,,,,,,,,,,,,,,12,536.6390130235231,536.8391986234346,0.2,536.8391986234346,,X,d,go,None,0,,,,,,,,,,,,,,,,,42,001,20,w,"Bildungswissenschaften, Nebenfach Psychologie",2023-01-18_11h59.14.115,00_bat_bachelor,2022.2.4,59.978218831259255,
,,,,1,0,1,0,13,0,13,0,,,,,,,,,,,,,,,13,538.2402432774543,538.4404797864263,0.2,538.4404797864263,,X,None,nogo,d,0,0.5921249641396571,,,,,,,,,,,,,,,,42,001,20,w,"Bildungswissenschaften, Nebenfach Psychologie",2023-01-18_11h59.14.115,00_bat_bachelor,2022.2.4,59.978218831259255,
,,,,1,0,1,0,14,0,14,0,,,,,,,,,,,,,,,14,540.1417691434035,540.3416604404047,0.2,540.3416604404047,,Y,l,go,None,0,,,,,,,,,,,,,,,,,42,001,20,w,"Bildungswissenschaften, Nebenfach Psychologie",2023-01-18_11h59.14.115,00_bat_bachelor,2022.2.4,59.978218831259255,
,,,,,,,,,,,,,,,,,,,,,,,,,,,,,,,,,,,,,,541.7734929583094,None,,541.7734929583094,541.7734929583094,space,10.942064673290588,,,,,,,,,42,001,20,w,"Bildungswissenschaften, Nebenfach Psychologie",2023-01-18_11h59.14.115,00_bat_bachelor,2022.2.4,59.978218831259255,
,,,,,,,,,,,,0,0,0,0,0,0,0,0,,,,,,,0,,,1,553.7353950373945,,X,d,go,d,1,0.5772696986387018,,,,,,,,,,,,,,,,42,001,20,w,"Bildungswissenschaften, Nebenfach Psychologie",2023-01-18_11h59.14.115,00_bat_bachelor,2022.2.4,59.978218831259255,
,,,,,,,,,,,,0,0,0,0,1,0,1,0,,,,,,,1,,,1,555.4200759175292,,Y,l,go,l,1,0.3954666352365166,,,,,,,,,,,,,,,,42,001,20,w,"Bildungswissenschaften, Nebenfach Psychologie",2023-01-18_11h59.14.115,00_bat_bachelor,2022.2.4,59.978218831259255,
,,,,,,,,,,,,0,0,0,0,2,0,2,0,,,,,,,2,,,1,556.9211728867085,,X,d,go,d,1,0.5117264576838352,,,,,,,,,,,,,,,,42,001,20,w,"Bildungswissenschaften, Nebenfach Psychologie",2023-01-18_11h59.14.115,00_bat_bachelor,2022.2.4,59.978218831259255,
,,,,,,,,,,,,0,0,0,0,3,0,3,0,,,,,,,3,,,1,558.5391163446766,,X,None,nogo,None,1,,,,,,,,,,,,,,,,,42,001,20,w,"Bildungswissenschaften, Nebenfach Psychologie",2023-01-18_11h59.14.115,00_bat_bachelor,2022.2.4,59.978218831259255,
,,,,,,,,,,,,0,0,0,0,4,0,4,0,,,,,,,4,,,1,560.3401385017496,,Y,l,go,l,1,0.33907151108724065,,,,,,,,,,,,,,,,42,001,20,w,"Bildungswissenschaften, Nebenfach Psychologie",2023-01-18_11h59.14.115,00_bat_bachelor,2022.2.4,59.978218831259255,
,,,,,,,,,,,,0,0,0,0,5,0,5,0,,,,,,,5,,,1,561.7915297980362,,X,d,go,d,1,0.5208251199219376,,,,,,,,,,,,,,,,42,001,20,w,"Bildungswissenschaften, Nebenfach Psychologie",2023-01-18_11h59.14.115,00_bat_bachelor,2022.2.4,59.978218831259255,
,,,,,,,,,,,,0,0,0,0,6,0,6,0,,,,,,,6,,,1,563.4261733691383,,X,None,nogo,None,1,,,,,,,,,,,,,,,,,42,001,20,w,"Bildungswissenschaften, Nebenfach Psychologie",2023-01-18_11h59.14.115,00_bat_bachelor,2022.2.4,59.978218831259255,
,,,,,,,,,,,,0,0,0,0,7,0,7,0,,,,,,,7,,,1,565.2275320109038,,Y,l,go,l,1,0.3655388921906706,,,,,,,,,,,,,,,,42,001,20,w,"Bildungswissenschaften, Nebenfach Psychologie",2023-01-18_11h59.14.115,00_bat_bachelor,2022.2.4,59.978218831259255,
,,,,,,,,,,,,0,0,0,0,8,0,8,0,,,,,,,8,,,1,566.6952306932362,,X,d,go,d,1,0.48052016977453604,,,,,,,,,,,,,,,,42,001,20,w,"Bildungswissenschaften, Nebenfach Psychologie",2023-01-18_11h59.14.115,00_bat_bachelor,2022.2.4,59.978218831259255,
,,,,,,,,,,,,0,0,0,0,9,0,9,0,,,,,,,9,,,1,568.2798277431284,,X,None,nogo,None,1,,,,,,,,,,,,,,,,,42,001,20,w,"Bildungswissenschaften, Nebenfach Psychologie",2023-01-18_11h59.14.115,00_bat_bachelor,2022.2.4,59.978218831259255,
,,,,,,,,,,,,0,0,0,0,10,0,10,0,,,,,,,10,,,1,570.0812959605828,,Y,l,go,l,1,0.26427494129166007,,,,,,,,,,,,,,,,42,001,20,w,"Bildungswissenschaften, Nebenfach Psychologie",2023-01-18_11h59.14.115,00_bat_bachelor,2022.2.4,59.978218831259255,
,,,,,,,,,,,,0,0,0,0,11,0,11,0,,,,,,,11,,,1,571.4488487520721,,X,d,go,d,1,0.41537741347565316,,,,,,,,,,,,,,,,42,001,20,w,"Bildungswissenschaften, Nebenfach Psychologie",2023-01-18_11h59.14.115,00_bat_bachelor,2022.2.4,59.978218831259255,
,,,,,,,,,,,,0,0,0,0,12,0,12,0,,,,,,,12,,,1,572.9667786827777,,X,None,nogo,None,1,,,,,,,,,,,,,,,,,42,001,20,w,"Bildungswissenschaften, Nebenfach Psychologie",2023-01-18_11h59.14.115,00_bat_bachelor,2022.2.4,59.978218831259255,
,,,,,,,,,,,,0,0,0,0,13,0,13,0,,,,,,,13,,,1,574.7681853245304,,Y,l,go,l,1,0.43949376544333063,,,,,,,,,,,,,,,,42,001,20,w,"Bildungswissenschaften, Nebenfach Psychologie",2023-01-18_11h59.14.115,00_bat_bachelor,2022.2.4,59.978218831259255,
,,,,,,,,,,,,0,0,0,0,14,0,14,0,,,,,,,14,,,1,576.3191532998171,,X,d,go,d,1,0.40921984071610495,,,,,,,,,,,,,,,,42,001,20,w,"Bildungswissenschaften, Nebenfach Psychologie",2023-01-18_11h59.14.115,00_bat_bachelor,2022.2.4,59.978218831259255,
,,,,,,,,,,,,0,0,0,0,15,0,15,0,,,,,,,15,,,1,577.8370861395961,,X,None,nogo,None,1,,,,,,,,,,,,,,,,,42,001,20,w,"Bildungswissenschaften, Nebenfach Psychologie",2023-01-18_11h59.14.115,00_bat_bachelor,2022.2.4,59.978218831259255,
,,,,,,,,,,,,0,0,0,0,16,0,16,0,,,,,,,16,,,1,579.6384724177187,,X,None,nogo,None,1,,,,,,,,,,,,,,,,,42,001,20,w,"Bildungswissenschaften, Nebenfach Psychologie",2023-01-18_11h59.14.115,00_bat_bachelor,2022.2.4,59.978218831259255,
,,,,,,,,,,,,0,0,0,0,17,0,17,0,,,,,,,17,,,1,581.4398489988525,,Y,l,go,l,1,0.3448150234471541,,,,,,,,,,,,,,,,42,001,20,w,"Bildungswissenschaften, Nebenfach Psychologie",2023-01-18_11h59.14.115,00_bat_bachelor,2022.2.4,59.978218831259255,
,,,,,,,,,,,,0,0,0,0,18,0,18,0,,,,,,,18,,,1,582.8910623558622,,X,d,go,d,1,0.41438880789792165,,,,,,,,,,,,,,,,42,001,20,w,"Bildungswissenschaften, Nebenfach Psychologie",2023-01-18_11h59.14.115,00_bat_bachelor,2022.2.4,59.978218831259255,
,,,,,,,,,,,,0,0,0,0,19,0,19,0,,,,,,,19,,,1,584.4088158017839,,X,None,nogo,None,1,,,,,,,,,,,,,,,,,42,001,20,w,"Bildungswissenschaften, Nebenfach Psychologie",2023-01-18_11h59.14.115,00_bat_bachelor,2022.2.4,59.978218831259255,
,,,,,,,,,,,,0,0,0,0,20,0,20,0,,,,,,,20,,,1,586.2100367466628,,Y,l,go,l,1,0.45332648599287495,,,,,,,,,,,,,,,,42,001,20,w,"Bildungswissenschaften, Nebenfach Psychologie",2023-01-18_11h59.14.115,00_bat_bachelor,2022.2.4,59.978218831259255,
,,,,,,,,,,,,0,0,0,0,21,0,21,0,,,,,,,21,,,1,587.7782347741886,,X,d,go,d,1,0.5185540907259565,,,,,,,,,,,,,,,,42,001,20,w,"Bildungswissenschaften, Nebenfach Psychologie",2023-01-18_11h59.14.115,00_bat_bachelor,2022.2.4,59.978218831259255,
,,,,,,,,,,,,0,0,0,0,22,0,22,0,,,,,,,22,,,1,589.4126145878399,,X,None,nogo,None,1,,,,,,,,,,,,,,,,,42,001,20,w,"Bildungswissenschaften, Nebenfach Psychologie",2023-01-18_11h59.14.115,00_bat_bachelor,2022.2.4,59.978218831259255,
,,,,,,,,,,,,0,0,0,0,23,0,23,0,,,,,,,23,,,1,591.2138791690231,,Y,l,go,l,1,0.33055757579859346,,,,,,,,,,,,,,,,42,001,20,w,"Bildungswissenschaften, Nebenfach Psychologie",2023-01-18_11h59.14.115,00_bat_bachelor,2022.2.4,59.978218831259255,
,,,,,,,,,,,,0,0,0,0,24,0,24,0,,,,,,,24,,,1,592.6650581017893,,X,d,go,d,1,0.41573717090068385,,,,,,,,,,,,,,,,42,001,20,w,"Bildungswissenschaften, Nebenfach Psychologie",2023-01-18_11h59.14.115,00_bat_bachelor,2022.2.4,59.978218831259255,
,,,,,,,,,,,,0,0,0,0,25,0,25,0,,,,,,,25,,,1,594.1829342143319,,Y,l,go,l,1,0.6247634937753901,,,,,,,,,,,,,,,,42,001,20,w,"Bildungswissenschaften, Nebenfach Psychologie",2023-01-18_11h59.14.115,00_bat_bachelor,2022.2.4,59.978218831259255,
,,,,,,,,,,,,0,0,0,0,26,0,26,0,,,,,,,26,,,1,595.9175093733356,,Y,None,nogo,d,0,0.3629522267729044,,,,,,,,,,,,,,,,42,001,20,w,"Bildungswissenschaften, Nebenfach Psychologie",2023-01-18_11h59.14.115,00_bat_bachelor,2022.2.4,59.978218831259255,
,,,,,,,,,,,,0,0,0,0,27,0,27,0,,,,,,,27,,,1,597.3853942373826,,X,d,go,d,1,0.6548856610024814,,,,,,,,,,,,,,,,42,001,20,w,"Bildungswissenschaften, Nebenfach Psychologie",2023-01-18_11h59.14.115,00_bat_bachelor,2022.2.4,59.978218831259255,
,,,,,,,,,,,,0,0,0,0,28,0,28,0,,,,,,,28,,,1,599.1532973802241,,Y,l,go,l,1,0.40751026579528116,,,,,,,,,,,,,,,,42,001,20,w,"Bildungswissenschaften, Nebenfach Psychologie",2023-01-18_11h59.14.115,00_bat_bachelor,2022.2.4,59.978218831259255,
,,,,,,,,,,,,0,0,0,0,29,0,29,0,,,,,,,29,,,1,600.671173007926,,X,d,go,d,1,0.42553159038652666,,,,,,,,,,,,,,,,42,001,20,w,"Bildungswissenschaften, Nebenfach Psychologie",2023-01-18_11h59.14.115,00_bat_bachelor,2022.2.4,59.978218831259255,
,,,,,,,,,,,,0,0,0,0,30,0,30,0,,,,,,,30,,,1,602.2056920214964,,Y,l,go,l,1,0.4907630739035085,,,,,,,,,,,,,,,,42,001,20,w,"Bildungswissenschaften, Nebenfach Psychologie",2023-01-18_11h59.14.115,00_bat_bachelor,2022.2.4,59.978218831259255,
,,,,,,,,,,,,0,0,0,0,31,0,31,0,,,,,,,31,,,1,603.806650760409,,X,d,go,d,1,0.3140897050325293,,,,,,,,,,,,,,,,42,001,20,w,"Bildungswissenschaften, Nebenfach Psychologie",2023-01-18_11h59.14.115,00_bat_bachelor,2022.2.4,59.978218831259255,
,,,,,,,,,,,,0,0,0,0,32,0,32,0,,,,,,,32,,,1,605.224704375898,,Y,l,go,l,1,0.367626163904788,,,,,,,,,,,,,,,,42,001,20,w,"Bildungswissenschaften, Nebenfach Psychologie",2023-01-18_11h59.14.115,00_bat_bachelor,2022.2.4,59.978218831259255,
,,,,,,,,,,,,0,0,0,0,33,0,33,0,,,,,,,33,,,1,606.7088137169485,,X,d,go,d,1,0.45130030513973907,,,,,,,,,,,,,,,,42,001,20,w,"Bildungswissenschaften, Nebenfach Psychologie",2023-01-18_11h59.14.115,00_bat_bachelor,2022.2.4,59.978218831259255,
,,,,,,,,,,,,0,0,0,0,34,0,34,0,,,,,,,34,,,1,608.2767654415802,,Y,l,go,l,1,0.4036867524846457,,,,,,,,,,,,,,,,42,001,20,w,"Bildungswissenschaften, Nebenfach Psychologie",2023-01-18_11h59.14.115,00_bat_bachelor,2022.2.4,59.978218831259255,
,,,,,,,,,,,,0,0,0,0,35,0,35,0,,,,,,,35,,,1,609.7945916147437,,X,d,go,d,1,0.29275201840209775,,,,,,,,,,,,,,,,42,001,20,w,"Bildungswissenschaften, Nebenfach Psychologie",2023-01-18_11h59.14.115,00_bat_bachelor,2022.2.4,59.978218831259255,
,,,,,,,,,,,,0,0,0,0,36,0,36,0,,,,,,,36,,,1,611.195516511274,,Y,l,go,l,1,0.3476974462973885,,,,,,,,,,,,,,,,42,001,20,w,"Bildungswissenschaften, Nebenfach Psychologie",2023-01-18_11h59.14.115,00_bat_bachelor,2022.2.4,59.978218831259255,
,,,,,,,,,,,,0,0,0,0,37,0,37,0,,,,,,,37,,,1,612.6474518073082,613.4479997828021,Y,None,nogo,None,1,,,,,,,,,,,,,,,,,42,001,20,w,"Bildungswissenschaften, Nebenfach Psychologie",2023-01-18_11h59.14.115,00_bat_bachelor,2022.2.4,59.978218831259255,
,,,,,,,,,,,,0,0,0,0,38,0,38,0,,,,,,,38,,,1,614.448861842975,615.2498442424985,Y,None,nogo,None,1,,,,,,,,,,,,,,,,,42,001,20,w,"Bildungswissenschaften, Nebenfach Psychologie",2023-01-18_11h59.14.115,00_bat_bachelor,2022.2.4,59.978218831259255,
,,,,,,,,,,,,0,0,0,0,39,0,39,0,,,,,,,39,,,1,616.250451272499,,X,d,go,d,1,0.3968911194242537,,,,,,,,,,,,,,,,42,001,20,w,"Bildungswissenschaften, Nebenfach Psychologie",2023-01-18_11h59.14.115,00_bat_bachelor,2022.2.4,59.978218831259255,
,,,,,,,,,,,,0,0,0,0,40,0,40,0,,,,,,,40,,,1,617.767718900519,,Y,l,go,l,1,0.5606267976108938,,,,,,,,,,,,,,,,42,001,20,w,"Bildungswissenschaften, Nebenfach Psychologie",2023-01-18_11h59.14.115,00_bat_bachelor,2022.2.4,59.978218831259255,
,,,,,,,,,,,,0,0,0,0,41,0,41,0,,,,,,,41,,,1,619.4360696067451,,X,d,go,d,1,0.42852019501151517,,,,,,,,,,,,,,,,42,001,20,w,"Bildungswissenschaften, Nebenfach Psychologie",2023-01-18_11h59.14.115,00_bat_bachelor,2022.2.4,59.978218831259255,
,,,,,,,,,,,,0,0,0,0,42,0,42,0,,,,,,,42,,,1,620.9703219537914,,Y,l,go,l,1,0.3819272478867788,,,,,,,,,,,,,,,,42,001,20,w,"Bildungswissenschaften, Nebenfach Psychologie",2023-01-18_11h59.14.115,00_bat_bachelor,2022.2.4,59.978218831259255,
,,,,,,,,,,,,0,0,0,0,43,0,43,0,,,,,,,43,,,1,622.4546262038348,,X,d,go,d,1,0.32027782322256826,,,,,,,,,,,,,,,,42,001,20,w,"Bildungswissenschaften, Nebenfach Psychologie",2023-01-18_11h59.14.115,00_bat_bachelor,2022.2.4,59.978218831259255,
,,,,,,,,,,,,0,0,0,0,44,0,44,0,,,,,,,44,,,1,623.9059171365225,624.7065455968259,X,None,nogo,None,1,,,,,,,,,,,,,,,,,42,001,20,w,"Bildungswissenschaften, Nebenfach Psychologie",2023-01-18_11h59.14.115,00_bat_bachelor,2022.2.4,59.978218831259255,
,,,,,,,,,,,,0,0,0,0,45,0,45,0,,,,,,,45,,,1,625.7073223237239,,Y,l,go,l,1,0.33254448394291103,,,,,,,,,,,,,,,,42,001,20,w,"Bildungswissenschaften, Nebenfach Psychologie",2023-01-18_11h59.14.115,00_bat_bachelor,2022.2.4,59.978218831259255,
,,,,,,,,,,,,0,0,0,0,46,0,46,0,,,,,,,46,,,1,627.1416726585885,,X,d,go,d,1,0.4505201843276154,,,,,,,,,,,,,,,,42,001,20,w,"Bildungswissenschaften, Nebenfach Psychologie",2023-01-18_11h59.14.115,00_bat_bachelor,2022.2.4,59.978218831259255,
,,,,,,,,,,,,0,0,0,0,47,0,47,0,,,,,,,47,,,1,628.6928849974065,,Y,l,go,l,1,0.4518365473195445,,,,,,,,,,,,,,,,42,001,20,w,"Bildungswissenschaften, Nebenfach Psychologie",2023-01-18_11h59.14.115,00_bat_bachelor,2022.2.4,59.978218831259255,
,,,,,,,,,,,,0,0,0,0,48,0,48,0,,,,,,,48,,,1,630.260759146302,,X,d,go,d,1,0.25969554955372587,,,,,,,,,,,,,,,,42,001,20,w,"Bildungswissenschaften, Nebenfach Psychologie",2023-01-18_11h59.14.115,00_bat_bachelor,2022.2.4,59.978218831259255,
,,,,,,,,,,,,0,0,0,0,49,0,49,0,,,,,,,49,,,1,631.6285509679874,,Y,l,go,l,1,0.2681503333733417,,,,,,,,,,,,,,,,42,001,20,w,"Bildungswissenschaften, Nebenfach Psychologie",2023-01-18_11h59.14.115,00_bat_bachelor,2022.2.4,59.978218831259255,
,,,,,,,,,,,,0,0,0,0,50,0,50,0,,,,,,,50,,,1,633.0126613272005,,X,d,go,d,1,0.2748480270674918,,,,,,,,,,,,,,,,42,001,20,w,"Bildungswissenschaften, Nebenfach Psychologie",2023-01-18_11h59.14.115,00_bat_bachelor,2022.2.4,59.978218831259255,
,,,,,,,,,,,,0,0,0,0,51,0,51,0,,,,,,,51,,,1,634.3972773831338,635.1978142071166,X,None,nogo,None,1,,,,,,,,,,,,,,,,,42,001,20,w,"Bildungswissenschaften, Nebenfach Psychologie",2023-01-18_11h59.14.115,00_bat_bachelor,2022.2.4,59.978218831259255,
,,,,,,,,,,,,0,0,0,0,52,0,52,0,,,,,,,52,,,1,636.1985909340146,,Y,l,go,l,1,0.3536761100695003,,,,,,,,,,,,,,,,42,001,20,w,"Bildungswissenschaften, Nebenfach Psychologie",2023-01-18_11h59.14.115,00_bat_bachelor,2022.2.4,59.978218831259255,
,,,,,,,,,,,,0,0,0,0,53,0,53,0,,,,,,,53,,,1,637.6662343436619,,X,d,go,d,1,0.24494985974160954,,,,,,,,,,,,,,,,42,001,20,w,"Bildungswissenschaften, Nebenfach Psychologie",2023-01-18_11h59.14.115,00_bat_bachelor,2022.2.4,59.978218831259255,
,,,,,,,,,,,,0,0,0,0,54,0,54,0,,,,,,,54,,,1,639.0341105289117,,Y,l,go,l,1,0.3982496641983744,,,,,,,,,,,,,,,,42,001,20,w,"Bildungswissenschaften, Nebenfach Psychologie",2023-01-18_11h59.14.115,00_bat_bachelor,2022.2.4,59.978218831259255,
,,,,,,,,,,,,0,0,0,0,55,0,55,0,,,,,,,55,,,1,640.5352564677596,,X,d,go,d,1,0.337022057530703,,,,,,,,,,,,,,,,42,001,20,w,"Bildungswissenschaften, Nebenfach Psychologie",2023-01-18_11h59.14.115,00_bat_bachelor,2022.2.4,59.978218831259255,
,,,,,,,,,,,,0,0,0,0,56,0,56,0,,,,,,,56,,,1,641.9864087338792,,Y,l,go,l,1,0.4525531530380249,,,,,,,,,,,,,,,,42,001,20,w,"Bildungswissenschaften, Nebenfach Psychologie",2023-01-18_11h59.14.115,00_bat_bachelor,2022.2.4,59.978218831259255,
,,,,,,,,,,,,0,0,0,0,57,0,57,0,,,,,,,57,,,1,643.5708249353629,,X,d,go,d,1,0.2441799207299482,,,,,,,,,,,,,,,,42,001,20,w,"Bildungswissenschaften, Nebenfach Psychologie",2023-01-18_11h59.14.115,00_bat_bachelor,2022.2.4,59.978218831259255,
,,,,,,,,,,,,0,0,0,0,58,0,58,0,,,,,,,58,,,1,644.9384368783503,645.7392437628005,X,None,nogo,None,1,,,,,,,,,,,,,,,,,42,001,20,w,"Bildungswissenschaften, Nebenfach Psychologie",2023-01-18_11h59.14.115,00_bat_bachelor,2022.2.4,59.978218831259255,
,,,,,,,,,,,,0,0,0,0,59,0,59,0,,,,,,,59,,,1,646.7400078836363,647.540435616771,X,None,nogo,None,1,,,,,,,,,,,,,,,,,42,001,20,w,"Bildungswissenschaften, Nebenfach Psychologie",2023-01-18_11h59.14.115,00_bat_bachelor,2022.2.4,59.978218831259255,
,,,,,,,,,,,,0,0,0,0,60,0,60,0,,,,,,,60,,,1,648.5414344041492,,Y,l,go,l,1,0.24944100907305256,,,,,,,,,,,,,,,,42,001,20,w,"Bildungswissenschaften, Nebenfach Psychologie",2023-01-18_11h59.14.115,00_bat_bachelor,2022.2.4,59.978218831259255,
,,,,,,,,,,,,0,0,0,0,61,0,61,0,,,,,,,61,,,1,649.9090802865103,,X,d,go,d,1,0.4980939794331789,,,,,,,,,,,,,,,,42,001,20,w,"Bildungswissenschaften, Nebenfach Psychologie",2023-01-18_11h59.14.115,00_bat_bachelor,2022.2.4,59.978218831259255,
,,,,,,,,,,,,0,0,0,0,62,0,62,0,,,,,,,62,,,1,651.5269340475497,,Y,l,go,l,1,0.3044640127045568,,,,,,,,,,,,,,,,42,001,20,w,"Bildungswissenschaften, Nebenfach Psychologie",2023-01-18_11h59.14.115,00_bat_bachelor,2022.2.4,59.978218831259255,
,,,,,,,,,,,,0,0,0,0,63,0,63,0,,,,,,,63,,,1,652.961403655092,,Y,None,nogo,d,0,0.3753080995811615,,,,,,,,,,,,,,,,42,001,20,w,"Bildungswissenschaften, Nebenfach Psychologie",2023-01-18_11h59.14.115,00_bat_bachelor,2022.2.4,59.978218831259255,
,,,,,,,,,,,,0,0,0,0,64,0,64,0,,,,,,,64,,,1,654.4457656020531,,X,d,go,d,1,0.2984009853680618,,,,,,,,,,,,,,,,42,001,20,w,"Bildungswissenschaften, Nebenfach Psychologie",2023-01-18_11h59.14.115,00_bat_bachelor,2022.2.4,59.978218831259255,
,,,,,,,,,,,,0,0,0,0,65,0,65,0,,,,,,,65,,,1,655.8635695207049,,Y,l,go,l,1,0.5290394189942162,,,,,,,,,,,,,,,,42,001,20,w,"Bildungswissenschaften, Nebenfach Psychologie",2023-01-18_11h59.14.115,00_bat_bachelor,2022.2.4,59.978218831259255,
,,,,,,,,,,,,0,0,0,0,66,0,66,0,,,,,,,66,,,1,657.4983774553402,658.2991804610065,Y,None,nogo,None,1,,,,,,,,,,,,,,,,,42,001,20,w,"Bildungswissenschaften, Nebenfach Psychologie",2023-01-18_11h59.14.115,00_bat_bachelor,2022.2.4,59.978218831259255,
,,,,,,,,,,,,0,0,0,0,67,0,67,0,,,,,,,67,,,1,659.2997981576773,,X,d,go,d,1,0.3874986391165294,,,,,,,,,,,,,,,,42,001,20,w,"Bildungswissenschaften, Nebenfach Psychologie",2023-01-18_11h59.14.115,00_bat_bachelor,2022.2.4,59.978218831259255,
,,,,,,,,,,,,0,0,0,0,68,0,68,0,,,,,,,68,,,1,660.8174493006372,,Y,l,go,l,1,0.5816818177117966,,,,,,,,,,,,,,,,42,001,20,w,"Bildungswissenschaften, Nebenfach Psychologie",2023-01-18_11h59.14.115,00_bat_bachelor,2022.2.4,59.978218831259255,
,,,,,,,,,,,,0,0,0,0,69,0,69,0,,,,,,,69,,,1,662.5187052030524,,X,d,go,d,1,0.41633062515757047,,,,,,,,,,,,,,,,42,001,20,w,"Bildungswissenschaften, Nebenfach Psychologie",2023-01-18_11h59.14.115,00_bat_bachelor,2022.2.4,59.978218831259255,
,,,,,,,,,,,,0,0,0,0,70,0,70,0,,,,,,,70,,,1,664.0701924508321,664.8705716991099,X,None,nogo,None,1,,,,,,,,,,,,,,,,,42,001,20,w,"Bildungswissenschaften, Nebenfach Psychologie",2023-01-18_11h59.14.115,00_bat_bachelor,2022.2.4,59.978218831259255,
,,,,,,,,,,,,0,0,0,0,71,0,71,0,,,,,,,71,,,1,665.8715714561986,,Y,l,go,l,1,0.26408342621289194,,,,,,,,,,,,,,,,42,001,20,w,"Bildungswissenschaften, Nebenfach Psychologie",2023-01-18_11h59.14.115,00_bat_bachelor,2022.2.4,59.978218831259255,
,,,,,,,,,,,,0,0,0,0,72,0,72,0,,,,,,,72,,,1,667.272611261782,,X,d,go,d,1,0.36719561865902506,,,,,,,,,,,,,,,,42,001,20,w,"Bildungswissenschaften, Nebenfach Psychologie",2023-01-18_11h59.14.115,00_bat_bachelor,2022.2.4,59.978218831259255,
,,,,,,,,,,,,0,0,0,0,73,0,73,0,,,,,,,73,,,1,668.7571293298679,,Y,l,go,l,1,0.5299771154823247,,,,,,,,,,,,,,,,42,001,20,w,"Bildungswissenschaften, Nebenfach Psychologie",2023-01-18_11h59.14.115,00_bat_bachelor,2022.2.4,59.978218831259255,
,,,,,,,,,,,,0,0,0,0,74,0,74,0,,,,,,,74,,,1,670.4083823474648,,X,d,go,d,1,0.3514036263222806,,,,,,,,,,,,,,,,42,001,20,w,"Bildungswissenschaften, Nebenfach Psychologie",2023-01-18_11h59.14.115,00_bat_bachelor,2022.2.4,59.978218831259255,
,,,,,,,,,,,,0,0,0,0,75,0,75,0,,,,,,,75,,,1,671.8928301125707,,X,None,nogo,l,0,0.24333919386845082,,,,,,,,,,,,,,,,42,001,20,w,"Bildungswissenschaften, Nebenfach Psychologie",2023-01-18_11h59.14.115,00_bat_bachelor,2022.2.4,59.978218831259255,
,,,,,,,,,,,,0,0,0,0,76,0,76,0,,,,,,,76,,,1,673.2435470334312,674.0442647058226,Y,l,go,None,0,,,,,,,,,,,,,,,,,42,001,20,w,"Bildungswissenschaften, Nebenfach Psychologie",2023-01-18_11h59.14.115,00_bat_bachelor,2022.2.4,59.978218831259255,
,,,,,,,,,,,,0,0,0,0,77,0,77,0,,,,,,,77,,,1,675.0451897962776,675.845606862742,X,d,go,None,0,,,,,,,,,,,,,,,,,42,001,20,w,"Bildungswissenschaften, Nebenfach Psychologie",2023-01-18_11h59.14.115,00_bat_bachelor,2022.2.4,59.978218831259255,
,,,,,,,,,,,,0,0,0,0,78,0,78,0,,,,,,,78,,,1,676.8466633470671,,Y,l,go,l,1,0.39336869688122533,,,,,,,,,,,,,,,,42,001,20,w,"Bildungswissenschaften, Nebenfach Psychologie",2023-01-18_11h59.14.115,00_bat_bachelor,2022.2.4,59.978218831259255,
,,,,,,,,,,,,0,0,0,0,79,0,79,0,,,,,,,79,,,1,678.3641554597998,679.1647873140464,Y,None,nogo,None,1,,,,,,,,,,,,,,,,,42,001,20,w,"Bildungswissenschaften, Nebenfach Psychologie",2023-01-18_11h59.14.115,00_bat_bachelor,2022.2.4,59.978218831259255,
,,,,,,,,,,,,0,0,0,0,80,0,80,0,,,,,,,80,,,1,680.1655344651954,,X,d,go,d,1,0.4179800788697321,,,,,,,,,,,,,,,,42,001,20,w,"Bildungswissenschaften, Nebenfach Psychologie",2023-01-18_11h59.14.115,00_bat_bachelor,2022.2.4,59.978218831259255,
,,,,,,,,,,,,0,0,0,0,81,0,81,0,,,,,,,81,,,1,681.7169160160411,,Y,l,go,l,1,0.483745865203673,,,,,,,,,,,,,,,,42,001,20,w,"Bildungswissenschaften, Nebenfach Psychologie",2023-01-18_11h59.14.115,00_bat_bachelor,2022.2.4,59.978218831259255,
,,,,,,,,,,,,0,0,0,0,82,0,82,0,,,,,,,82,,,1,683.3012236115464,,X,d,go,d,1,0.43360237433807924,,,,,,,,,,,,,,,,42,001,20,w,"Bildungswissenschaften, Nebenfach Psychologie",2023-01-18_11h59.14.115,00_bat_bachelor,2022.2.4,59.978218831259255,
,,,,,,,,,,,,0,0,0,0,83,0,83,0,,,,,,,83,,,1,684.8524388594378,685.6534149559157,X,None,nogo,None,1,,,,,,,,,,,,,,,,,42,001,20,w,"Bildungswissenschaften, Nebenfach Psychologie",2023-01-18_11h59.14.115,00_bat_bachelor,2022.2.4,59.978218831259255,
,,,,,,,,,,,,0,0,0,0,84,0,84,0,,,,,,,84,,,1,686.6537810163572,,Y,l,go,l,1,0.4260256507550366,,,,,,,,,,,,,,,,42,001,20,w,"Bildungswissenschaften, Nebenfach Psychologie",2023-01-18_11h59.14.115,00_bat_bachelor,2022.2.4,59.978218831259255,
,,,,,,,,,,,,0,0,0,0,85,0,85,0,,,,,,,85,,,1,688.2051674156683,,X,d,go,d,1,0.6017370807239786,,,,,,,,,,,,,,,,42,001,20,w,"Bildungswissenschaften, Nebenfach Psychologie",2023-01-18_11h59.14.115,00_bat_bachelor,2022.2.4,59.978218831259255,
,,,,,,,,,,,,0,0,0,0,86,0,86,0,,,,,,,86,,,1,689.9396029383934,,Y,l,go,l,1,0.3402652074582875,,,,,,,,,,,,,,,,42,001,20,w,"Bildungswissenschaften, Nebenfach Psychologie",2023-01-18_11h59.14.115,00_bat_bachelor,2022.2.4,59.978218831259255,
,,,,,,,,,,,,0,0,0,0,87,0,87,0,,,,,,,87,,,1,691.4076342266053,692.2082272929838,Y,None,nogo,None,1,,,,,,,,,,,,,,,,,42,001,20,w,"Bildungswissenschaften, Nebenfach Psychologie",2023-01-18_11h59.14.115,00_bat_bachelor,2022.2.4,59.978218831259255,
,,,,,,,,,,,,0,0,0,0,88,0,88,0,,,,,,,88,,,1,693.208827535127,,X,d,go,d,1,0.3021134683804121,,,,,,,,,,,,,,,,42,001,20,w,"Bildungswissenschaften, Nebenfach Psychologie",2023-01-18_11h59.14.115,00_bat_bachelor,2022.2.4,59.978218831259255,
,,,,,,,,,,,,0,0,0,0,89,0,89,0,,,,,,,89,,,1,694.643182718457,,Y,l,go,l,1,0.35555101826321334,,,,,,,,,,,,,,,,42,001,20,w,"Bildungswissenschaften, Nebenfach Psychologie",2023-01-18_11h59.14.115,00_bat_bachelor,2022.2.4,59.978218831259255,
,,,,,,,,,,,,0,0,0,0,90,0,90,0,,,,,,,90,,,1,696.1443567785027,696.9450104509015,Y,None,nogo,None,1,,,,,,,,,,,,,,,,,42,001,20,w,"Bildungswissenschaften, Nebenfach Psychologie",2023-01-18_11h59.14.115,00_bat_bachelor,2022.2.4,59.978218831259255,
,,,,,,,,,,,,0,0,0,0,91,0,91,0,,,,,,,91,,,1,697.9459243898455,,X,d,go,d,1,0.589317207923159,,,,,,,,,,,,,,,,42,001,20,w,"Bildungswissenschaften, Nebenfach Psychologie",2023-01-18_11h59.14.115,00_bat_bachelor,2022.2.4,59.978218831259255,
,,,,,,,,,,,,0,0,0,0,92,0,92,0,,,,,,,92,,,1,699.663898344792,,Y,l,go,l,1,0.3270753956749104,,,,,,,,,,,,,,,,42,001,20,w,"Bildungswissenschaften, Nebenfach Psychologie",2023-01-18_11h59.14.115,00_bat_bachelor,2022.2.4,59.978218831259255,
,,,,,,,,,,,,0,0,0,0,93,0,93,0,,,,,,,93,,,1,701.1317856330716,701.9322851237375,X,d,go,None,0,,,,,,,,,,,,,,,,,42,001,20,w,"Bildungswissenschaften, Nebenfach Psychologie",2023-01-18_11h59.14.115,00_bat_bachelor,2022.2.4,59.978218831259255,
,,,,,,,,,,,,0,0,0,0,94,0,94,0,,,,,,,94,,,1,702.9330928809359,,Y,l,go,l,1,0.5146530017373152,,,,,,,,,,,,,,,,42,001,20,w,"Bildungswissenschaften, Nebenfach Psychologie",2023-01-18_11h59.14.115,00_bat_bachelor,2022.2.4,59.978218831259255,
,,,,,,,,,,,,0,0,0,0,95,0,95,0,,,,,,,95,,,1,704.5676360884099,,X,d,go,d,1,0.4159698980511166,,,,,,,,,,,,,,,,42,001,20,w,"Bildungswissenschaften, Nebenfach Psychologie",2023-01-18_11h59.14.115,00_bat_bachelor,2022.2.4,59.978218831259255,
,,,,,,,,,,,,0,0,0,0,96,0,96,0,,,,,,,96,,,1,706.1021424959472,,Y,l,go,l,1,0.4171180186967831,,,,,,,,,,,,,,,,42,001,20,w,"Bildungswissenschaften, Nebenfach Psychologie",2023-01-18_11h59.14.115,00_bat_bachelor,2022.2.4,59.978218831259255,
,,,,,,,,,,,,0,0,0,0,97,0,97,0,,,,,,,97,,,1,707.6364103581,,X,d,go,d,1,0.19521024750429206,,,,,,,,,,,,,,,,42,001,20,w,"Bildungswissenschaften, Nebenfach Psychologie",2023-01-18_11h59.14.115,00_bat_bachelor,2022.2.4,59.978218831259255,
,,,,,,,,,,,,0,0,0,0,98,0,98,0,,,,,,,98,,,1,708.9543219615589,,X,None,nogo,l,0,0.3010778325260617,,,,,,,,,,,,,,,,42,001,20,w,"Bildungswissenschaften, Nebenfach Psychologie",2023-01-18_11h59.14.115,00_bat_bachelor,2022.2.4,59.978218831259255,
,,,,,,,,,,,,0,0,0,0,99,0,99,0,,,,,,,99,,,1,710.3718286681978,,Y,l,go,l,1,0.53168523585191,,,,,,,,,,,,,,,,42,001,20,w,"Bildungswissenschaften, Nebenfach Psychologie",2023-01-18_11h59.14.115,00_bat_bachelor,2022.2.4,59.978218831259255,
,,,,,,,,,,,,0,0,0,0,100,0,100,0,,,,,,,100,,,1,712.0234157462255,712.8237033582118,X,d,go,None,0,,,,,,,,,,,,,,,,,42,001,20,w,"Bildungswissenschaften, Nebenfach Psychologie",2023-01-18_11h59.14.115,00_bat_bachelor,2022.2.4,59.978218831259255,
,,,,,,,,,,,,0,0,0,0,101,0,101,0,,,,,,,101,,,1,713.8242890549009,,Y,l,go,l,1,0.4562103633652441,,,,,,,,,,,,,,,,42,001,20,w,"Bildungswissenschaften, Nebenfach Psychologie",2023-01-18_11h59.14.115,00_bat_bachelor,2022.2.4,59.978218831259255,
,,,,,,,,,,,,0,0,0,0,102,0,102,0,,,,,,,102,,,1,715.3922465977084,716.1928294822574,Y,None,nogo,None,1,,,,,,,,,,,,,,,,,42,001,20,w,"Bildungswissenschaften, Nebenfach Psychologie",2023-01-18_11h59.14.115,00_bat_bachelor,2022.2.4,59.978218831259255,
,,,,,,,,,,,,0,0,0,0,103,0,103,0,,,,,,,103,,,1,717.1934345728951,,X,d,go,d,1,0.35102883863146417,,,,,,,,,,,,,,,,42,001,20,w,"Bildungswissenschaften, Nebenfach Psychologie",2023-01-18_11h59.14.115,00_bat_bachelor,2022.2.4,59.978218831259255,
,,,,,,,,,,,,0,0,0,0,104,0,104,0,,,,,,,104,,,1,718.6614285277901,,Y,l,go,l,1,0.547369107051054,,,,,,,,,,,,,,,,42,001,20,w,"Bildungswissenschaften, Nebenfach Psychologie",2023-01-18_11h59.14.115,00_bat_bachelor,2022.2.4,59.978218831259255,
,,,,,,,,,,,,0,0,0,0,105,0,105,0,,,,,,,105,,,1,720.3126636059897,,X,d,go,None,0,,,,,,,,,,,,,,,,,42,001,20,w,"Bildungswissenschaften, Nebenfach Psychologie",2023-01-18_11h59.14.115,00_bat_bachelor,2022.2.4,59.978218831259255,
,,,,,,,,,,,,0,0,0,0,106,0,106,0,,,,,,,106,,,1,722.113998490182,,Y,l,go,l,1,0.42259389482205734,,,,,,,,,,,,,,,,42,001,20,w,"Bildungswissenschaften, Nebenfach Psychologie",2023-01-18_11h59.14.115,00_bat_bachelor,2022.2.4,59.978218831259255,
,,,,,,,,,,,,0,0,0,0,107,0,107,0,,,,,,,107,,,1,723.648681382474,724.4491173580172,X,d,go,None,0,,,,,,,,,,,,,,,,,42,001,20,w,"Bildungswissenschaften, Nebenfach Psychologie",2023-01-18_11h59.14.115,00_bat_bachelor,2022.2.4,59.978218831259255,
,,,,,,,,,,,,0,0,0,0,108,0,108,0,,,,,,,108,,,1,725.449894569756,726.2501143029658,X,None,nogo,None,1,,,,,,,,,,,,,,,,,42,001,20,w,"Bildungswissenschaften, Nebenfach Psychologie",2023-01-18_11h59.14.115,00_bat_bachelor,2022.2.4,59.978218831259255,
,,,,,,,,,,,,0,0,0,0,109,0,109,0,,,,,,,109,,,1,727.2510616964719,,Y,l,go,l,1,0.4049396003538277,,,,,,,,,,,,,,,,42,001,20,w,"Bildungswissenschaften, Nebenfach Psychologie",2023-01-18_11h59.14.115,00_bat_bachelor,2022.2.4,59.978218831259255,
,,,,,,,,,,,,0,0,0,0,110,0,110,0,,,,,,,110,,,1,728.7688432635914,,X,d,go,d,1,0.5353729916678276,,,,,,,,,,,,,,,,42,001,20,w,"Bildungswissenschaften, Nebenfach Psychologie",2023-01-18_11h59.14.115,00_bat_bachelor,2022.2.4,59.978218831259255,
,,,,,,,,,,,,0,0,0,0,111,0,111,0,,,,,,,111,,,1,730.4200124024355,731.2208629232191,X,None,nogo,None,1,,,,,,,,,,,,,,,,,42,001,20,w,"Bildungswissenschaften, Nebenfach Psychologie",2023-01-18_11h59.14.115,00_bat_bachelor,2022.2.4,59.978218831259255,
,,,,,,,,,,,,0,0,0,0,112,0,112,0,,,,,,,112,,,1,732.221519407758,,Y,l,go,l,1,0.39542687771609053,,,,,,,,,,,,,,,,42,001,20,w,"Bildungswissenschaften, Nebenfach Psychologie",2023-01-18_11h59.14.115,00_bat_bachelor,2022.2.4,59.978218831259255,
,,,,,,,,,,,,0,0,0,0,113,0,113,0,,,,,,,113,,,1,733.7225824375346,,X,d,go,d,1,0.6217297982657328,,,,,,,,,,,,,,,,42,001,20,w,"Bildungswissenschaften, Nebenfach Psychologie",2023-01-18_11h59.14.115,00_bat_bachelor,2022.2.4,59.978218831259255,
,,,,,,,,,,,,0,0,0,0,114,0,114,0,,,,,,,114,,,1,735.4572225662123,,Y,l,go,l,1,0.43901376565918326,,,,,,,,,,,,,,,,42,001,20,w,"Bildungswissenschaften, Nebenfach Psychologie",2023-01-18_11h59.14.115,00_bat_bachelor,2022.2.4,59.978218831259255,
,,,,,,,,,,,,0,0,0,0,115,0,115,0,,,,,,,115,,,1,737.0080741778947,,X,d,go,d,1,0.5355291128216777,,,,,,,,,,,,,,,,42,001,20,w,"Bildungswissenschaften, Nebenfach Psychologie",2023-01-18_11h59.14.115,00_bat_bachelor,2022.2.4,59.978218831259255,
,,,,,,,,,,,,0,0,0,0,116,0,116,0,,,,,,,116,,,1,738.6593204076053,,Y,l,go,None,0,,,,,,,,,,,,,,,,,42,001,20,w,"Bildungswissenschaften, Nebenfach Psychologie",2023-01-18_11h59.14.115,00_bat_bachelor,2022.2.4,59.978218831259255,
,,,,,,,,,,,,0,0,0,0,117,0,117,0,,,,,,,117,,,1,740.4606780796894,,X,d,go,d,1,0.5238656033179723,,,,,,,,,,,,,,,,42,001,20,w,"Bildungswissenschaften, Nebenfach Psychologie",2023-01-18_11h59.14.115,00_bat_bachelor,2022.2.4,59.978218831259255,
,,,,,,,,,,,,0,0,0,0,118,0,118,0,,,,,,,118,,,1,742.0956246809219,,X,None,nogo,None,1,,,,,,,,,,,,,,,,,42,001,20,w,"Bildungswissenschaften, Nebenfach Psychologie",2023-01-18_11h59.14.115,00_bat_bachelor,2022.2.4,59.978218831259255,
,,,,,,,,,,,,0,0,0,0,119,0,119,0,,,,,,,119,,,1,743.8974085345981,,Y,l,go,l,1,0.38234227799694054,,,,,,,,,,,,,,,,42,001,20,w,"Bildungswissenschaften, Nebenfach Psychologie",2023-01-18_11h59.14.115,00_bat_bachelor,2022.2.4,59.978218831259255,
,,,,,,,,,,,,0,0,0,0,120,0,120,0,,,,,,,120,,,1,745.3817457543046,,X,d,go,d,1,0.41826807873439975,,,,,,,,,,,,,,,,42,001,20,w,"Bildungswissenschaften, Nebenfach Psychologie",2023-01-18_11h59.14.115,00_bat_bachelor,2022.2.4,59.978218831259255,
,,,,,,,,,,,,0,0,0,0,121,0,121,0,,,,,,,121,,,1,746.9159059801605,,Y,l,go,l,1,0.46700550967943855,,,,,,,,,,,,,,,,42,001,20,w,"Bildungswissenschaften, Nebenfach Psychologie",2023-01-18_11h59.14.115,00_bat_bachelor,2022.2.4,59.978218831259255,
,,,,,,,,,,,,0,0,0,0,122,0,122,0,,,,,,,122,,,1,748.5004181816184,,X,d,go,d,1,0.5642966140003409,,,,,,,,,,,,,,,,42,001,20,w,"Bildungswissenschaften, Nebenfach Psychologie",2023-01-18_11h59.14.115,00_bat_bachelor,2022.2.4,59.978218831259255,
,,,,,,,,,,,,0,0,0,0,123,0,123,0,,,,,,,123,,,1,750.1685133728606,,X,None,nogo,None,1,,,,,,,,,,,,,,,,,42,001,20,w,"Bildungswissenschaften, Nebenfach Psychologie",2023-01-18_11h59.14.115,00_bat_bachelor,2022.2.4,59.978218831259255,
,,,,,,,,,,,,0,0,0,0,124,0,124,0,,,,,,,124,,,1,751.969707166194,,Y,l,go,l,1,0.32575854784226976,,,,,,,,,,,,,,,,42,001,20,w,"Bildungswissenschaften, Nebenfach Psychologie",2023-01-18_11h59.14.115,00_bat_bachelor,2022.2.4,59.978218831259255,
,,,,,,,,,,,,0,0,0,0,125,0,125,0,,,,,,,125,,,1,753.404296046414,,X,d,go,d,1,0.5237797851732466,,,,,,,,,,,,,,,,42,001,20,w,"Bildungswissenschaften, Nebenfach Psychologie",2023-01-18_11h59.14.115,00_bat_bachelor,2022.2.4,59.978218831259255,
,,,,,,,,,,,,0,0,0,0,126,0,126,0,,,,,,,126,,,1,755.0386855569959,,X,None,nogo,None,1,,,,,,,,,,,,,,,,,42,001,20,w,"Bildungswissenschaften, Nebenfach Psychologie",2023-01-18_11h59.14.115,00_bat_bachelor,2022.2.4,59.978218831259255,
,,,,,,,,,,,,0,0,0,0,127,0,127,0,,,,,,,127,,,1,756.8402938956278,,Y,l,go,l,1,0.3039675281033851,,,,,,,,,,,,,,,,42,001,20,w,"Bildungswissenschaften, Nebenfach Psychologie",2023-01-18_11h59.14.115,00_bat_bachelor,2022.2.4,59.978218831259255,
,,,,,,,,,,,,0,0,0,0,128,0,128,0,,,,,,,128,,,1,758.2579848446185,,X,d,go,d,1,0.5014612505328842,,,,,,,,,,,,,,,,42,001,20,w,"Bildungswissenschaften, Nebenfach Psychologie",2023-01-18_11h59.14.115,00_bat_bachelor,2022.2.4,59.978218831259255,
,,,,,,,,,,,,0,0,0,0,129,0,129,0,,,,,,,129,,,1,759.8757135148044,,Y,l,go,l,1,0.45146903235581703,,,,,,,,,,,,,,,,42,001,20,w,"Bildungswissenschaften, Nebenfach Psychologie",2023-01-18_11h59.14.115,00_bat_bachelor,2022.2.4,59.978218831259255,
,,,,,,,,,,,,0,0,0,0,130,0,130,0,,,,,,,130,,,1,761.4437646333245,762.2443368512322,X,d,go,None,0,,,,,,,,,,,,,,,,,42,001,20,w,"Bildungswissenschaften, Nebenfach Psychologie",2023-01-18_11h59.14.115,00_bat_bachelor,2022.2.4,59.978218831259255,
,,,,,,,,,,,,0,0,0,0,131,0,131,0,,,,,,,131,,,1,763.2451572144637,,Y,l,go,l,1,0.4120838393282611,,,,,,,,,,,,,,,,42,001,20,w,"Bildungswissenschaften, Nebenfach Psychologie",2023-01-18_11h59.14.115,00_bat_bachelor,2022.2.4,59.978218831259255,
,,,,,,,,,,,,0,0,0,0,132,0,132,0,,,,,,,132,,,1,764.7629072664713,,X,d,go,d,1,0.38086106660193764,,,,,,,,,,,,,,,,42,001,20,w,"Bildungswissenschaften, Nebenfach Psychologie",2023-01-18_11h59.14.115,00_bat_bachelor,2022.2.4,59.978218831259255,
,,,,,,,,,,,,0,0,0,0,133,0,133,0,,,,,,,133,,,1,766.2474374557787,,Y,l,go,l,1,0.3529032619553618,,,,,,,,,,,,,,,,42,001,20,w,"Bildungswissenschaften, Nebenfach Psychologie",2023-01-18_11h59.14.115,00_bat_bachelor,2022.2.4,59.978218831259255,
,,,,,,,,,,,,0,0,0,0,134,0,134,0,,,,,,,134,,,1,767.714824865543,,X,d,go,d,1,0.38917233527172357,,,,,,,,,,,,,,,,42,001,20,w,"Bildungswissenschaften, Nebenfach Psychologie",2023-01-18_11h59.14.115,00_bat_bachelor,2022.2.4,59.978218831259255,
,,,,,,,,,,,,0,0,0,0,135,0,135,0,,,,,,,135,,,1,769.2161860770138,,Y,l,go,l,1,0.40737644766340964,,,,,,,,,,,,,,,,42,001,20,w,"Bildungswissenschaften, Nebenfach Psychologie",2023-01-18_11h59.14.115,00_bat_bachelor,2022.2.4,59.978218831259255,
,,,,,,,,,,,,0,0,0,0,136,0,136,0,,,,,,,136,,,1,770.7340185531939,,Y,None,nogo,None,1,,,,,,,,,,,,,,,,,42,001,20,w,"Bildungswissenschaften, Nebenfach Psychologie",2023-01-18_11h59.14.115,00_bat_bachelor,2022.2.4,59.978218831259255,
,,,,,,,,,,,,0,0,0,0,137,0,137,0,,,,,,,137,,,1,772.5354518615932,,X,d,go,d,1,0.5130554267379921,,,,,,,,,,,,,,,,42,001,20,w,"Bildungswissenschaften, Nebenfach Psychologie",2023-01-18_11h59.14.115,00_bat_bachelor,2022.2.4,59.978218831259255,
,,,,,,,,,,,,0,0,0,0,138,0,138,0,,,,,,,138,,,1,774.1532537438907,,Y,l,go,l,1,0.44666127709206194,,,,,,,,,,,,,,,,42,001,20,w,"Bildungswissenschaften, Nebenfach Psychologie",2023-01-18_11h59.14.115,00_bat_bachelor,2022.2.4,59.978218831259255,
,,,,,,,,,,,,0,0,0,0,139,0,139,0,,,,,,,139,,,1,775.7045582038409,,X,d,go,d,1,0.5911513888568152,,,,,,,,,,,,,,,,42,001,20,w,"Bildungswissenschaften, Nebenfach Psychologie",2023-01-18_11h59.14.115,00_bat_bachelor,2022.2.4,59.978218831259255,
,,,,,,,,,,,,0,0,0,0,140,0,140,0,,,,,,,140,,,1,777.4055130155175,,X,None,nogo,None,1,,,,,,,,,,,,,,,,,42,001,20,w,"Bildungswissenschaften, Nebenfach Psychologie",2023-01-18_11h59.14.115,00_bat_bachelor,2022.2.4,59.978218831259255,
,,,,,,,,,,,,0,0,0,0,141,0,141,0,,,,,,,141,,,1,779.2068546875962,,Y,l,go,l,1,0.30508510331856087,,,,,,,,,,,,,,,,42,001,20,w,"Bildungswissenschaften, Nebenfach Psychologie",2023-01-18_11h59.14.115,00_bat_bachelor,2022.2.4,59.978218831259255,
,,,,,,,,,,,,0,0,0,0,142,0,142,0,,,,,,,142,,,1,780.6246387274587,,X,d,go,d,1,0.5349351736949757,,,,,,,,,,,,,,,,42,001,20,w,"Bildungswissenschaften, Nebenfach Psychologie",2023-01-18_11h59.14.115,00_bat_bachelor,2022.2.4,59.978218831259255,
,,,,,,,,,,,,0,0,0,0,143,0,143,0,,,,,,,143,,,1,782.2761908964021,,X,None,nogo,d,0,0.43539194925688207,,,,,,,,,,,,,,,,42,001,20,w,"Bildungswissenschaften, Nebenfach Psychologie",2023-01-18_11h59.14.115,00_bat_bachelor,2022.2.4,59.978218831259255,
,,,,,,,,,,,,0,0,0,0,144,0,144,0,,,,,,,144,,,1,783.8270425081137,,Y,l,go,l,1,0.500204523850698,,,,,,,,,,,,,,,,42,001,20,w,"Bildungswissenschaften, Nebenfach Psychologie",2023-01-18_11h59.14.115,00_bat_bachelor,2022.2.4,59.978218831259255,
,,,,,,,,,,,,0,0,0,0,145,0,145,0,,,,,,,145,,,1,785.4286873073142,786.2295417068817,X,d,go,None,0,,,,,,,,,,,,,,,,,42,001,20,w,"Bildungswissenschaften, Nebenfach Psychologie",2023-01-18_11h59.14.115,00_bat_bachelor,2022.2.4,59.978218831259255,
,,,,,,,,,,,,0,0,0,0,146,0,146,0,,,,,,,146,,,1,787.2299378279131,,X,None,nogo,None,1,,,,,,,,,,,,,,,,,42,001,20,w,"Bildungswissenschaften, Nebenfach Psychologie",2023-01-18_11h59.14.115,00_bat_bachelor,2022.2.4,59.978218831259255,
,,,,,,,,,,,,0,0,0,0,147,0,147,0,,,,,,,147,,,1,789.0313871362887,,Y,l,go,l,1,0.4007631175336428,,,,,,,,,,,,,,,,42,001,20,w,"Bildungswissenschaften, Nebenfach Psychologie",2023-01-18_11h59.14.115,00_bat_bachelor,2022.2.4,59.978218831259255,
,,,,,,,,,,,,0,0,0,0,148,0,148,0,,,,,,,148,,,1,790.5491856731242,,X,d,go,d,1,0.5314495996281039,,,,,,,,,,,,,,,,42,001,20,w,"Bildungswissenschaften, Nebenfach Psychologie",2023-01-18_11h59.14.115,00_bat_bachelor,2022.2.4,59.978218831259255,
,,,,,,,,,,,,0,0,0,0,149,0,149,0,,,,,,,149,,,1,792.1836716685211,,Y,l,go,l,1,0.41673595827887766,,,,,,,,,,,,,,,,42,001,20,w,"Bildungswissenschaften, Nebenfach Psychologie",2023-01-18_11h59.14.115,00_bat_bachelor,2022.2.4,59.978218831259255,
,,,,,,,,,,,,0,0,0,0,150,0,150,0,,,,,,,150,,,1,793.701526932593,,X,d,go,d,1,0.4670937520277221,,,,,,,,,,,,,,,,42,001,20,w,"Bildungswissenschaften, Nebenfach Psychologie",2023-01-18_11h59.14.115,00_bat_bachelor,2022.2.4,59.978218831259255,
,,,,,,,,,,,,0,0,0,0,151,0,151,0,,,,,,,151,,,1,795.2693453239626,,Y,l,go,l,1,0.41877910878974944,,,,,,,,,,,,,,,,42,001,20,w,"Bildungswissenschaften, Nebenfach Psychologie",2023-01-18_11h59.14.115,00_bat_bachelor,2022.2.4,59.978218831259255,
,,,,,,,,,,,,0,0,0,0,152,0,152,0,,,,,,,152,,,1,796.8039976707951,,X,d,go,d,1,0.38809839641908184,,,,,,,,,,,,,,,,42,001,20,w,"Bildungswissenschaften, Nebenfach Psychologie",2023-01-18_11h59.14.115,00_bat_bachelor,2022.2.4,59.978218831259255,
,,,,,,,,,,,,0,0,0,0,153,0,153,0,,,,,,,153,,,1,798.3048657915788,,Y,l,go,l,1,0.6154180437733885,,,,,,,,,,,,,,,,42,001,20,w,"Bildungswissenschaften, Nebenfach Psychologie",2023-01-18_11h59.14.115,00_bat_bachelor,2022.2.4,59.978218831259255,
,,,,,,,,,,,,0,0,0,0,154,0,154,0,,,,,,,154,,,1,800.0230622918461,,Y,None,nogo,None,1,,,,,,,,,,,,,,,,,42,001,20,w,"Bildungswissenschaften, Nebenfach Psychologie",2023-01-18_11h59.14.115,00_bat_bachelor,2022.2.4,59.978218831259255,
,,,,,,,,,,,,0,0,0,0,155,0,155,0,,,,,,,155,,,1,801.8248117213079,,X,d,go,d,1,0.31245722094899975,,,,,,,,,,,,,,,,42,001,20,w,"Bildungswissenschaften, Nebenfach Psychologie",2023-01-18_11h59.14.115,00_bat_bachelor,2022.2.4,59.978218831259255,
,,,,,,,,,,,,0,0,0,0,156,0,156,0,,,,,,,156,,,1,803.2421351553348,,Y,l,go,l,1,0.5750641239283141,,,,,,,,,,,,,,,,42,001,20,w,"Bildungswissenschaften, Nebenfach Psychologie",2023-01-18_11h59.14.115,00_bat_bachelor,2022.2.4,59.978218831259255,
,,,,,,,,,,,,0,0,0,0,157,0,157,0,,,,,,,157,,,1,804.926895065757,,Y,None,nogo,None,1,,,,,,,,,,,,,,,,,42,001,20,w,"Bildungswissenschaften, Nebenfach Psychologie",2023-01-18_11h59.14.115,00_bat_bachelor,2022.2.4,59.978218831259255,
,,,,,,,,,,,,0,0,0,0,158,0,158,0,,,,,,,158,,,1,806.7280621924729,,X,d,go,d,1,0.3674336791445967,,,,,,,,,,,,,,,,42,001,20,w,"Bildungswissenschaften, Nebenfach Psychologie",2023-01-18_11h59.14.115,00_bat_bachelor,2022.2.4,59.978218831259255,
,,,,,,,,,,,,0,0,0,0,159,0,159,0,,,,,,,159,,,1,808.2126481393352,,Y,l,go,l,1,0.339906904642703,,,,,,,,,,,,,,,,42,001,20,w,"Bildungswissenschaften, Nebenfach Psychologie",2023-01-18_11h59.14.115,00_bat_bachelor,2022.2.4,59.978218831259255,
,,,,,,,,,,,,0,0,0,0,160,0,160,0,,,,,,,160,,,1,809.663777617563,,Y,None,nogo,None,1,,,,,,,,,,,,,,,,,42,001,20,w,"Bildungswissenschaften, Nebenfach Psychologie",2023-01-18_11h59.14.115,00_bat_bachelor,2022.2.4,59.978218831259255,
,,,,,,,,,,,,0,0,0,0,161,0,161,0,,,,,,,161,,,1,811.4650591684622,,X,d,go,d,1,0.3839083378261421,,,,,,,,,,,,,,,,42,001,20,w,"Bildungswissenschaften, Nebenfach Psychologie",2023-01-18_11h59.14.115,00_bat_bachelor,2022.2.4,59.978218831259255,
,,,,,,,,,,,,0,0,0,0,162,0,162,0,,,,,,,162,,,1,812.949583054753,,Y,l,go,l,1,0.5157380921009462,,,,,,,,,,,,,,,,42,001,20,w,"Bildungswissenschaften, Nebenfach Psychologie",2023-01-18_11h59.14.115,00_bat_bachelor,2022.2.4,59.978218831259255,
,,,,,,,,,,,,0,0,0,0,163,0,163,0,,,,,,,163,,,1,814.5674639673089,,X,d,go,d,1,0.49788210075348616,,,,,,,,,,,,,,,,42,001,20,w,"Bildungswissenschaften, Nebenfach Psychologie",2023-01-18_11h59.14.115,00_bat_bachelor,2022.2.4,59.978218831259255,
,,,,,,,,,,,,0,0,0,0,164,0,164,0,,,,,,,164,,,1,816.1687436757784,,X,None,nogo,None,1,,,,,,,,,,,,,,,,,42,001,20,w,"Bildungswissenschaften, Nebenfach Psychologie",2023-01-18_11h59.14.115,00_bat_bachelor,2022.2.4,59.978218831259255,
,,,,,,,,,,,,0,0,0,0,165,0,165,0,,,,,,,165,,,1,817.9701183175202,,Y,l,go,l,1,0.40684650852927007,,,,,,,,,,,,,,,,42,001,20,w,"Bildungswissenschaften, Nebenfach Psychologie",2023-01-18_11h59.14.115,00_bat_bachelor,2022.2.4,59.978218831259255,
,,,,,,,,,,,,0,0,0,0,166,0,166,0,,,,,,,166,,,1,819.4879149149638,,X,d,go,d,1,0.5043664612458088,,,,,,,,,,,,,,,,42,001,20,w,"Bildungswissenschaften, Nebenfach Psychologie",2023-01-18_11h59.14.115,00_bat_bachelor,2022.2.4,59.978218831259255,
,,,,,,,,,,,,0,0,0,0,167,0,167,0,,,,,,,167,,,1,821.1057929184171,,Y,l,go,l,1,0.4069652963371482,,,,,,,,,,,,,,,,42,001,20,w,"Bildungswissenschaften, Nebenfach Psychologie",2023-01-18_11h59.14.115,00_bat_bachelor,2022.2.4,59.978218831259255,
,,,,,,,,,,,,0,0,0,0,168,0,168,0,,,,,,,168,,,1,822.6236636976246,,X,d,go,d,1,0.5206350594235118,,,,,,,,,,,,,,,,42,001,20,w,"Bildungswissenschaften, Nebenfach Psychologie",2023-01-18_11h59.14.115,00_bat_bachelor,2022.2.4,59.978218831259255,
,,,,,,,,,,,,0,0,0,0,169,0,169,0,,,,,,,169,,,1,824.2582253293367,,Y,l,go,l,1,0.4698496295022778,,,,,,,,,,,,,,,,42,001,20,w,"Bildungswissenschaften, Nebenfach Psychologie",2023-01-18_11h59.14.115,00_bat_bachelor,2022.2.4,59.978218831259255,
,,,,,,,,,,,,0,0,0,0,170,0,170,0,,,,,,,170,,,1,825.8427734095603,,X,d,go,d,1,0.5651853408489842,,,,,,,,,,,,,,,,42,001,20,w,"Bildungswissenschaften, Nebenfach Psychologie",2023-01-18_11h59.14.115,00_bat_bachelor,2022.2.4,59.978218831259255,
,,,,,,,,,,,,0,0,0,0,171,0,171,0,,,,,,,171,,,1,827.510685813002,,Y,l,go,l,1,0.4168857763870619,,,,,,,,,,,,,,,,42,001,20,w,"Bildungswissenschaften, Nebenfach Psychologie",2023-01-18_11h59.14.115,00_bat_bachelor,2022.2.4,59.978218831259255,
,,,,,,,,,,,,0,0,0,0,172,0,172,0,,,,,,,172,,,1,829.0285328346654,,X,d,go,d,1,0.4035505101492163,,,,,,,,,,,,,,,,42,001,20,w,"Bildungswissenschaften, Nebenfach Psychologie",2023-01-18_11h59.14.115,00_bat_bachelor,2022.2.4,59.978218831259255,
,,,,,,,,,,,,0,0,0,0,173,0,173,0,,,,,,,173,,,1,830.5463129472337,,Y,l,go,l,1,0.48598150044563226,,,,,,,,,,,,,,,,42,001,20,w,"Bildungswissenschaften, Nebenfach Psychologie",2023-01-18_11h59.14.115,00_bat_bachelor,2022.2.4,59.978218831259255,
,,,,,,,,,,,,0,0,0,0,174,0,174,0,,,,,,,174,,,1,832.147487443639,,Y,None,nogo,None,1,,,,,,,,,,,,,,,,,42,001,20,w,"Bildungswissenschaften, Nebenfach Psychologie",2023-01-18_11h59.14.115,00_bat_bachelor,2022.2.4,59.978218831259255,
,,,,,,,,,,,,0,0,0,0,175,0,175,0,,,,,,,175,,,1,833.948782085441,,X,d,go,d,1,0.34789962801733054,,,,,,,,,,,,,,,,42,001,20,w,"Bildungswissenschaften, Nebenfach Psychologie",2023-01-18_11h59.14.115,00_bat_bachelor,2022.2.4,59.978218831259255,
,,,,,,,,,,,,0,0,0,0,176,0,176,0,,,,,,,176,,,1,835.3997743516229,,Y,l,go,l,1,0.5126903359778225,,,,,,,,,,,,,,,,42,001,20,w,"Bildungswissenschaften, Nebenfach Psychologie",2023-01-18_11h59.14.115,00_bat_bachelor,2022.2.4,59.978218831259255,
,,,,,,,,,,,,0,0,0,0,177,0,177,0,,,,,,,177,,,1,837.0179461731168,,X,d,go,None,0,,,,,,,,,,,,,,,,,42,001,20,w,"Bildungswissenschaften, Nebenfach Psychologie",2023-01-18_11h59.14.115,00_bat_bachelor,2022.2.4,59.978218831259255,
,,,,,,,,,,,,0,0,0,0,178,0,178,0,,,,,,,178,,,1,838.8189639665652,,X,None,nogo,None,1,,,,,,,,,,,,,,,,,42,001,20,w,"Bildungswissenschaften, Nebenfach Psychologie",2023-01-18_11h59.14.115,00_bat_bachelor,2022.2.4,59.978218831259255,
,,,,,,,,,,,,0,0,0,0,179,0,179,0,,,,,,,179,,,1,840.6206973960216,,Y,l,go,l,1,0.2836441440449562,,,,,,,,,,,,,,,,42,001,20,w,"Bildungswissenschaften, Nebenfach Psychologie",2023-01-18_11h59.14.115,00_bat_bachelor,2022.2.4,59.978218831259255,
,,,,,,,,,,,,0,0,0,0,180,0,180,0,,,,,,,180,,,1,842.0050894520828,,X,d,go,d,1,0.5156813648645766,,,,,,,,,,,,,,,,42,001,20,w,"Bildungswissenschaften, Nebenfach Psychologie",2023-01-18_11h59.14.115,00_bat_bachelor,2022.2.4,59.978218831259255,
,,,,,,,,,,,,0,0,0,0,181,0,181,0,,,,,,,181,,,1,843.6228850313346,,Y,l,go,l,1,0.40125766277196817,,,,,,,,,,,,,,,,42,001,20,w,"Bildungswissenschaften, Nebenfach Psychologie",2023-01-18_11h59.14.115,00_bat_bachelor,2022.2.4,59.978218831259255,
,,,,,,,,,,,,0,0,0,0,182,0,182,0,,,,,,,182,,,1,845.1407272045035,,X,d,go,d,1,0.5155393043241929,,,,,,,,,,,,,,,,42,001,20,w,"Bildungswissenschaften, Nebenfach Psychologie",2023-01-18_11h59.14.115,00_bat_bachelor,2022.2.4,59.978218831259255,
,,,,,,,,,,,,0,0,0,0,183,0,183,0,,,,,,,183,,,1,846.758701207902,,X,None,nogo,None,1,,,,,,,,,,,,,,,,,42,001,20,w,"Bildungswissenschaften, Nebenfach Psychologie",2023-01-18_11h59.14.115,00_bat_bachelor,2022.2.4,59.978218831259255,
,,,,,,,,,,,,0,0,0,0,184,0,184,0,,,,,,,184,,,1,848.5597194861912,,Y,l,go,l,1,0.28086935749161057,,,,,,,,,,,,,,,,42,001,20,w,"Bildungswissenschaften, Nebenfach Psychologie",2023-01-18_11h59.14.115,00_bat_bachelor,2022.2.4,59.978218831259255,
,,,,,,,,,,,,0,0,0,0,185,0,185,0,,,,,,,185,,,1,849.9444596632966,850.7450609720836,X,d,go,None,0,,,,,,,,,,,,,,,,,42,001,20,w,"Bildungswissenschaften, Nebenfach Psychologie",2023-01-18_11h59.14.115,00_bat_bachelor,2022.2.4,59.978218831259255,
,,,,,,,,,,,,0,0,0,0,186,0,186,0,,,,,,,186,,,1,851.7457916384155,,X,None,nogo,None,1,,,,,,,,,,,,,,,,,42,001,20,w,"Bildungswissenschaften, Nebenfach Psychologie",2023-01-18_11h59.14.115,00_bat_bachelor,2022.2.4,59.978218831259255,
,,,,,,,,,,,,0,0,0,0,187,0,187,0,,,,,,,187,,,1,853.5470591287012,,Y,l,go,l,1,0.39776239171624184,,,,,,,,,,,,,,,,42,001,20,w,"Bildungswissenschaften, Nebenfach Psychologie",2023-01-18_11h59.14.115,00_bat_bachelor,2022.2.4,59.978218831259255,
,,,,,,,,,,,,0,0,0,0,188,0,188,0,,,,,,,188,,,1,855.0483320977946,,X,d,go,d,1,0.4472043071582448,,,,,,,,,,,,,,,,42,001,20,w,"Bildungswissenschaften, Nebenfach Psychologie",2023-01-18_11h59.14.115,00_bat_bachelor,2022.2.4,59.978218831259255,
,,,,,,,,,,,,0,0,0,0,189,0,189,0,,,,,,,189,,,1,856.5997684364847,,Y,l,go,l,1,0.36805525462841615,,,,,,,,,,,,,,,,42,001,20,w,"Bildungswissenschaften, Nebenfach Psychologie",2023-01-18_11h59.14.115,00_bat_bachelor,2022.2.4,59.978218831259255,
,,,,,,,,,,,,0,0,0,0,190,0,190,0,,,,,,,190,,,1,858.0842370500613,858.8846284195897,Y,None,nogo,None,1,,,,,,,,,,,,,,,,,42,001,20,w,"Bildungswissenschaften, Nebenfach Psychologie",2023-01-18_11h59.14.115,00_bat_bachelor,2022.2.4,59.978218831259255,
,,,,,,,,,,,,0,0,0,0,191,0,191,0,,,,,,,191,,,1,859.8853697525628,,X,d,go,d,1,0.2830414776399266,,,,,,,,,,,,,,,,42,001,20,w,"Bildungswissenschaften, Nebenfach Psychologie",2023-01-18_11h59.14.115,00_bat_bachelor,2022.2.4,59.978218831259255,
,,,,,,,,,,,,0,0,0,0,192,0,192,0,,,,,,,192,,,1,861.2693957481824,,Y,l,go,l,1,0.482063926581759,,,,,,,,,,,,,,,,42,001,20,w,"Bildungswissenschaften, Nebenfach Psychologie",2023-01-18_11h59.14.115,00_bat_bachelor,2022.2.4,59.978218831259255,
,,,,,,,,,,,,0,0,0,0,193,0,193,0,,,,,,,193,,,1,862.8542153434246,,Y,None,nogo,None,1,,,,,,,,,,,,,,,,,42,001,20,w,"Bildungswissenschaften, Nebenfach Psychologie",2023-01-18_11h59.14.115,00_bat_bachelor,2022.2.4,59.978218831259255,
,,,,,,,,,,,,0,0,0,0,194,0,194,0,,,,,,,194,,,1,864.6556496215053,,X,d,go,d,1,0.2958826835383661,,,,,,,,,,,,,,,,42,001,20,w,"Bildungswissenschaften, Nebenfach Psychologie",2023-01-18_11h59.14.115,00_bat_bachelor,2022.2.4,59.978218831259255,
,,,,,,,,,,,,0,0,0,0,195,0,195,0,,,,,,,195,,,1,866.0567262755358,,Y,l,go,l,1,0.5432420787692536,,,,,,,,,,,,,,,,42,001,20,w,"Bildungswissenschaften, Nebenfach Psychologie",2023-01-18_11h59.14.115,00_bat_bachelor,2022.2.4,59.978218831259255,
,,,,,,,,,,,,0,0,0,0,196,0,196,0,,,,,,,196,,,1,867.7076486265869,,Y,None,nogo,l,0,0.572291761636734,,,,,,,,,,,,,,,,42,001,20,w,"Bildungswissenschaften, Nebenfach Psychologie",2023-01-18_11h59.14.115,00_bat_bachelor,2022.2.4,59.978218831259255,
,,,,,,,,,,,,0,0,0,0,197,0,197,0,,,,,,,197,,,1,869.392254840117,,X,d,go,d,1,0.44014734085067175,,,,,,,,,,,,,,,,42,001,20,w,"Bildungswissenschaften, Nebenfach Psychologie",2023-01-18_11h59.14.115,00_bat_bachelor,2022.2.4,59.978218831259255,
,,,,,,,,,,,,0,0,0,0,198,0,198,0,,,,,,,198,,,1,870.9436640273198,,Y,l,go,l,1,0.4569298781862017,,,,,,,,,,,,,,,,42,001,20,w,"Bildungswissenschaften, Nebenfach Psychologie",2023-01-18_11h59.14.115,00_bat_bachelor,2022.2.4,59.978218831259255,
,,,,,,,,,,,,0,0,0,0,199,0,199,0,,,,,,,199,,,1,872.5114901762572,,X,d,go,d,1,0.45660890865838155,,,,,,,,,,,,,,,,42,001,20,w,"Bildungswissenschaften, Nebenfach Psychologie",2023-01-18_11h59.14.115,00_bat_bachelor,2022.2.4,59.978218831259255,
,,,,,,,,,,,,0,0,0,0,200,0,200,0,,,,,,,200,,,1,874.0794947493414,,X,None,nogo,None,1,,,,,,,,,,,,,,,,,42,001,20,w,"Bildungswissenschaften, Nebenfach Psychologie",2023-01-18_11h59.14.115,00_bat_bachelor,2022.2.4,59.978218831259255,
,,,,,,,,,,,,0,0,0,0,201,0,201,0,,,,,,,201,,,1,875.8808805425942,,Y,l,go,l,1,0.39884166393312626,,,,,,,,,,,,,,,,42,001,20,w,"Bildungswissenschaften, Nebenfach Psychologie",2023-01-18_11h59.14.115,00_bat_bachelor,2022.2.4,59.978218831259255,
,,,,,,,,,,,,0,0,0,0,202,0,202,0,,,,,,,202,,,1,877.3816512089106,,X,d,go,d,1,0.4657754496438429,,,,,,,,,,,,,,,,42,001,20,w,"Bildungswissenschaften, Nebenfach Psychologie",2023-01-18_11h59.14.115,00_bat_bachelor,2022.2.4,59.978218831259255,
,,,,,,,,,,,,0,0,0,0,203,0,203,0,,,,,,,203,,,1,878.9498022061598,,X,None,nogo,None,1,,,,,,,,,,,,,,,,,42,001,20,w,"Bildungswissenschaften, Nebenfach Psychologie",2023-01-18_11h59.14.115,00_bat_bachelor,2022.2.4,59.978218831259255,
,,,,,,,,,,,,0,0,0,0,204,0,204,0,,,,,,,204,,,1,880.7511613327661,,Y,l,go,l,1,0.34576871994067915,,,,,,,,,,,,,,,,42,001,20,w,"Bildungswissenschaften, Nebenfach Psychologie",2023-01-18_11h59.14.115,00_bat_bachelor,2022.2.4,59.978218831259255,
,,,,,,,,,,,,0,0,0,0,205,0,205,0,,,,,,,205,,,1,882.2023586897703,,X,d,go,d,1,0.5415843825903721,,,,,,,,,,,,,,,,42,001,20,w,"Bildungswissenschaften, Nebenfach Psychologie",2023-01-18_11h59.14.115,00_bat_bachelor,2022.2.4,59.978218831259255,
,,,,,,,,,,,,0,0,0,0,206,0,206,0,,,,,,,206,,,1,883.8532466166071,,X,None,nogo,None,1,,,,,,,,,,,,,,,,,42,001,20,w,"Bildungswissenschaften, Nebenfach Psychologie",2023-01-18_11h59.14.115,00_bat_bachelor,2022.2.4,59.978218831259255,
,,,,,,,,,,,,0,0,0,0,207,0,207,0,,,,,,,207,,,1,885.6549979854608,,Y,l,go,l,1,0.40151172323385254,,,,,,,,,,,,,,,,42,001,20,w,"Bildungswissenschaften, Nebenfach Psychologie",2023-01-18_11h59.14.115,00_bat_bachelor,2022.2.4,59.978218831259255,
,,,,,,,,,,,,0,0,0,0,208,0,208,0,,,,,,,208,,,1,887.172720885952,,X,d,go,d,1,0.4032615405449178,,,,,,,,,,,,,,,,42,001,20,w,"Bildungswissenschaften, Nebenfach Psychologie",2023-01-18_11h59.14.115,00_bat_bachelor,2022.2.4,59.978218831259255,
,,,,,,,,,,,,0,0,0,0,209,0,209,0,,,,,,,209,,,1,888.6906096045568,,Y,l,go,l,1,0.40467438838095404,,,,,,,,,,,,,,,,42,001,20,w,"Bildungswissenschaften, Nebenfach Psychologie",2023-01-18_11h59.14.115,00_bat_bachelor,2022.2.4,59.978218831259255,
,,,,,,,,,,,,0,0,0,0,210,0,210,0,,,,,,,210,,,1,890.2083189293044,,X,d,go,d,1,0.3749599785369355,,,,,,,,,,,,,,,,42,001,20,w,"Bildungswissenschaften, Nebenfach Psychologie",2023-01-18_11h59.14.115,00_bat_bachelor,2022.2.4,59.978218831259255,
,,,,,,,,,,,,0,0,0,0,211,0,211,0,,,,,,,211,,,1,891.6930532397237,,Y,l,go,l,1,0.5867038758879062,,,,,,,,,,,,,,,,42,001,20,w,"Bildungswissenschaften, Nebenfach Psychologie",2023-01-18_11h59.14.115,00_bat_bachelor,2022.2.4,59.978218831259255,
,,,,,,,,,,,,0,0,0,0,212,0,212,0,,,,,,,212,,,1,893.3941830816038,894.1947756631416,Y,None,nogo,None,1,,,,,,,,,,,,,,,,,42,001,20,w,"Bildungswissenschaften, Nebenfach Psychologie",2023-01-18_11h59.14.115,00_bat_bachelor,2022.2.4,59.978218831259255,
,,,,,,,,,,,,0,0,0,0,213,0,213,0,,,,,,,213,,,1,895.1952416023123,,X,d,go,d,1,0.28450620418880135,,,,,,,,,,,,,,,,42,001,20,w,"Bildungswissenschaften, Nebenfach Psychologie",2023-01-18_11h59.14.115,00_bat_bachelor,2022.2.4,59.978218831259255,
,,,,,,,,,,,,0,0,0,0,214,0,214,0,,,,,,,214,,,1,896.5964918319951,,Y,l,go,l,1,0.4988934941939078,,,,,,,,,,,,,,,,42,001,20,w,"Bildungswissenschaften, Nebenfach Psychologie",2023-01-18_11h59.14.115,00_bat_bachelor,2022.2.4,59.978218831259255,
,,,,,,,,,,,,0,0,0,0,215,0,215,0,,,,,,,215,,,1,898.1979848736955,,X,d,go,d,1,0.5636057052470278,,,,,,,,,,,,,,,,42,001,20,w,"Bildungswissenschaften, Nebenfach Psychologie",2023-01-18_11h59.14.115,00_bat_bachelor,2022.2.4,59.978218831259255,
,,,,,,,,,,,,0,0,0,0,216,0,216,0,,,,,,,216,,,1,899.8655278227816,,Y,l,go,l,1,0.4144062624545768,,,,,,,,,,,,,,,,42,001,20,w,"Bildungswissenschaften, Nebenfach Psychologie",2023-01-18_11h59.14.115,00_bat_bachelor,2022.2.4,59.978218831259255,
,,,,,,,,,,,,0,0,0,0,217,0,217,0,,,,,,,217,,,1,901.3832681778003,,Y,None,nogo,None,1,,,,,,,,,,,,,,,,,42,001,20,w,"Bildungswissenschaften, Nebenfach Psychologie",2023-01-18_11h59.14.115,00_bat_bachelor,2022.2.4,59.978218831259255,
,,,,,,,,,,,,0,0,0,0,218,0,218,0,,,,,,,218,,,1,903.1850927587366,,X,d,go,d,1,0.27961941869580187,,,,,,,,,,,,,,,,42,001,20,w,"Bildungswissenschaften, Nebenfach Psychologie",2023-01-18_11h59.14.115,00_bat_bachelor,2022.2.4,59.978218831259255,
,,,,,,,,,,,,0,0,0,0,219,0,219,0,,,,,,,219,,,1,904.5857437160157,,Y,l,go,l,1,0.4950835566560272,,,,,,,,,,,,,,,,42,001,20,w,"Bildungswissenschaften, Nebenfach Psychologie",2023-01-18_11h59.14.115,00_bat_bachelor,2022.2.4,59.978218831259255,
,,,,,,,,,,,,0,0,0,0,220,0,220,0,,,,,,,220,,,1,906.1877463332203,906.9882050966262,X,d,go,None,0,,,,,,,,,,,,,,,,,42,001,20,w,"Bildungswissenschaften, Nebenfach Psychologie",2023-01-18_11h59.14.115,00_bat_bachelor,2022.2.4,59.978218831259255,
,,,,,,,,,,,,0,0,0,0,221,0,221,0,,,,,,,221,,,1,907.9891568537569,908.7897639807197,X,None,nogo,None,1,,,,,,,,,,,,,,,,,42,001,20,w,"Bildungswissenschaften, Nebenfach Psychologie",2023-01-18_11h59.14.115,00_bat_bachelor,2022.2.4,59.978218831259255,
,,,,,,,,,,,,0,0,0,0,222,0,222,0,,,,,,,222,,,1,909.7906614348467,,Y,l,go,l,1,0.361771621304797,,,,,,,,,,,,,,,,42,001,20,w,"Bildungswissenschaften, Nebenfach Psychologie",2023-01-18_11h59.14.115,00_bat_bachelor,2022.2.4,59.978218831259255,
,,,,,,,,,,,,0,0,0,0,223,0,223,0,,,,,,,223,,,1,911.258490056498,912.0587238503213,X,d,go,None,0,,,,,,,,,,,,,,,,,42,001,20,w,"Bildungswissenschaften, Nebenfach Psychologie",2023-01-18_11h59.14.115,00_bat_bachelor,2022.2.4,59.978218831259255,
,,,,,,,,,,,,0,0,0,0,224,0,224,0,,,,,,,224,,,1,913.0596717286389,913.8604427343234,X,None,nogo,None,1,,,,,,,,,,,,,,,,,42,001,20,w,"Bildungswissenschaften, Nebenfach Psychologie",2023-01-18_11h59.14.115,00_bat_bachelor,2022.2.4,59.978218831259255,
,,,,,,,,,,,,0,0,0,0,225,0,225,0,,,,,,,225,,,1,914.8610580067616,,Y,l,go,l,1,0.4750632027280517,,,,,,,,,,,,,,,,42,001,20,w,"Bildungswissenschaften, Nebenfach Psychologie",2023-01-18_11h59.14.115,00_bat_bachelor,2022.2.4,59.978218831259255,
,,,,,,,,,,,,0,0,0,0,226,0,226,0,,,,,,,226,,,1,916.462109836546,917.2626301757118,X,d,go,None,0,,,,,,,,,,,,,,,,,42,001,20,w,"Bildungswissenschaften, Nebenfach Psychologie",2023-01-18_11h59.14.115,00_bat_bachelor,2022.2.4,59.978218831259255,
,,,,,,,,,,,,0,0,0,0,227,0,227,0,,,,,,,227,,,1,918.2636556297366,,X,None,nogo,d,0,0.5289356614521239,,,,,,,,,,,,,,,,42,001,20,w,"Bildungswissenschaften, Nebenfach Psychologie",2023-01-18_11h59.14.115,00_bat_bachelor,2022.2.4,59.978218831259255,
,,,,,,,,,,,,0,0,0,0,228,0,228,0,,,,,,,228,,,1,919.8981236857653,,Y,l,go,l,1,0.38137064207694493,,,,,,,,,,,,,,,,42,001,20,w,"Bildungswissenschaften, Nebenfach Psychologie",2023-01-18_11h59.14.115,00_bat_bachelor,2022.2.4,59.978218831259255,
,,,,,,,,,,,,0,0,0,0,229,0,229,0,,,,,,,229,,,1,921.3993472003203,,X,d,go,d,1,0.4324140113021713,,,,,,,,,,,,,,,,42,001,20,w,"Bildungswissenschaften, Nebenfach Psychologie",2023-01-18_11h59.14.115,00_bat_bachelor,2022.2.4,59.978218831259255,
,,,,,,,,,,,,0,0,0,0,230,0,230,0,,,,,,,230,,,1,922.9338928805373,923.7342784318607,X,None,nogo,None,1,,,,,,,,,,,,,,,,,42,001,20,w,"Bildungswissenschaften, Nebenfach Psychologie",2023-01-18_11h59.14.115,00_bat_bachelor,2022.2.4,59.978218831259255,
,,,,,,,,,,,,0,0,0,0,231,0,231,0,,,,,,,231,,,1,924.7350270375609,925.5358067705238,X,None,nogo,None,1,,,,,,,,,,,,,,,,,42,001,20,w,"Bildungswissenschaften, Nebenfach Psychologie",2023-01-18_11h59.14.115,00_bat_bachelor,2022.2.4,59.978218831259255,
,,,,,,,,,,,,0,0,0,0,232,0,232,0,,,,,,,232,,,1,926.5365893155977,,Y,l,go,l,1,0.2222851434489712,,,,,,,,,,,,,,,,42,001,20,w,"Bildungswissenschaften, Nebenfach Psychologie",2023-01-18_11h59.14.115,00_bat_bachelor,2022.2.4,59.978218831259255,
,,,,,,,,,,,,0,0,0,0,233,0,233,0,,,,,,,233,,,1,927.8874647818448,928.6880481512635,X,d,go,None,0,,,,,,,,,,,,,,,,,42,001,20,w,"Bildungswissenschaften, Nebenfach Psychologie",2023-01-18_11h59.14.115,00_bat_bachelor,2022.2.4,59.978218831259255,
,,,,,,,,,,,,0,0,0,0,234,0,234,0,,,,,,,234,,,1,929.6889150599309,,X,None,nogo,d,0,0.4136343840509653,,,,,,,,,,,,,,,,42,001,20,w,"Bildungswissenschaften, Nebenfach Psychologie",2023-01-18_11h59.14.115,00_bat_bachelor,2022.2.4,59.978218831259255,
,,,,,,,,,,,,0,0,0,0,235,0,235,0,,,,,,,235,,,1,931.2233904371387,,Y,l,go,l,1,0.4007097842404619,,,,,,,,,,,,,,,,42,001,20,w,"Bildungswissenschaften, Nebenfach Psychologie",2023-01-18_11h59.14.115,00_bat_bachelor,2022.2.4,59.978218831259255,
,,,,,,,,,,,,0,0,0,0,236,0,236,0,,,,,,,236,,,1,932.7413029133168,,X,d,go,d,1,0.4184838361979928,,,,,,,,,,,,,,,,42,001,20,w,"Bildungswissenschaften, Nebenfach Psychologie",2023-01-18_11h59.14.115,00_bat_bachelor,2022.2.4,59.978218831259255,
,,,,,,,,,,,,0,0,0,0,237,0,237,0,,,,,,,237,,,1,934.2756391390867,,Y,l,go,l,1,0.2759733598504681,,,,,,,,,,,,,,,,42,001,20,w,"Bildungswissenschaften, Nebenfach Psychologie",2023-01-18_11h59.14.115,00_bat_bachelor,2022.2.4,59.978218831259255,
,,,,,,,,,,,,0,0,0,0,238,0,238,0,,,,,,,238,,,1,935.6769165202859,,X,d,go,d,1,0.3298535761423409,,,,,,,,,,,,,,,,42,001,20,w,"Bildungswissenschaften, Nebenfach Psychologie",2023-01-18_11h59.14.115,00_bat_bachelor,2022.2.4,59.978218831259255,
,,,,,,,,,,,,0,0,0,0,239,0,239,0,,,,,,,239,,,1,937.1280319379293,,Y,l,go,l,1,0.4003466328722425,,,,,,,,,,,,,,,,42,001,20,w,"Bildungswissenschaften, Nebenfach Psychologie",2023-01-18_11h59.14.115,00_bat_bachelor,2022.2.4,59.978218831259255,
,,,,,,,,,,,,0,0,0,0,240,0,240,0,,,,,,,240,,,1,938.6291017555923,,X,d,go,d,1,0.38651682139607146,,,,,,,,,,,,,,,,42,001,20,w,"Bildungswissenschaften, Nebenfach Psychologie",2023-01-18_11h59.14.115,00_bat_bachelor,2022.2.4,59.978218831259255,
,,,,,,,,,,,,0,0,0,0,241,0,241,0,,,,,,,241,,,1,940.1300561793614,,Y,l,go,l,1,0.34148363111307845,,,,,,,,,,,,,,,,42,001,20,w,"Bildungswissenschaften, Nebenfach Psychologie",2023-01-18_11h59.14.115,00_bat_bachelor,2022.2.4,59.978218831259255,
,,,,,,,,,,,,0,0,0,0,242,0,242,0,,,,,,,242,,,1,941.5981514675659,,X,d,go,d,1,0.2976625614683144,,,,,,,,,,,,,,,,42,001,20,w,"Bildungswissenschaften, Nebenfach Psychologie",2023-01-18_11h59.14.115,00_bat_bachelor,2022.2.4,59.978218831259255,
,,,,,,,,,,,,0,0,0,0,243,0,243,0,,,,,,,243,,,1,942.9989056975173,,Y,l,go,l,1,0.4645492684212513,,,,,,,,,,,,,,,,42,001,20,w,"Bildungswissenschaften, Nebenfach Psychologie",2023-01-18_11h59.14.115,00_bat_bachelor,2022.2.4,59.978218831259255,
,,,,,,,,,,,,0,0,0,0,244,0,244,0,,,,,,,244,,,1,944.566951967543,945.3675261248427,Y,None,nogo,None,1,,,,,,,,,,,,,,,,,42,001,20,w,"Bildungswissenschaften, Nebenfach Psychologie",2023-01-18_11h59.14.115,00_bat_bachelor,2022.2.4,59.978218831259255,
,,,,,,,,,,,,0,0,0,0,245,0,245,0,,,,,,,245,,,1,946.3682044275338,,Y,None,nogo,d,0,0.2798070549906697,,,,,,,,,,,,,,,,42,001,20,w,"Bildungswissenschaften, Nebenfach Psychologie",2023-01-18_11h59.14.115,00_bat_bachelor,2022.2.4,59.978218831259255,
,,,,,,,,,,,,0,0,0,0,246,0,246,0,,,,,,,246,,,1,947.7525567260454,,X,d,go,d,1,0.39969596653827466,,,,,,,,,,,,,,,,42,001,20,w,"Bildungswissenschaften, Nebenfach Psychologie",2023-01-18_11h59.14.115,00_bat_bachelor,2022.2.4,59.978218831259255,
,,,,,,,,,,,,0,0,0,0,247,0,247,0,,,,,,,247,,,1,949.2534786649921,,Y,l,go,l,1,0.46600138893700205,,,,,,,,,,,,,,,,42,001,20,w,"Bildungswissenschaften, Nebenfach Psychologie",2023-01-18_11h59.14.115,00_bat_bachelor,2022.2.4,59.978218831259255,
,,,,,,,,,,,,0,0,0,0,248,0,248,0,,,,,,,248,,,1,950.8212941472593,,X,d,go,d,1,0.4498476998123806,,,,,,,,,,,,,,,,42,001,20,w,"Bildungswissenschaften, Nebenfach Psychologie",2023-01-18_11h59.14.115,00_bat_bachelor,2022.2.4,59.978218831259255,
,,,,,,,,,,,,0,0,0,0,249,0,249,0,,,,,,,249,,,1,952.388793508464,953.1937565121334,X,None,nogo,None,1,,,,,,,,,,,,,,,,,42,001,20,w,"Bildungswissenschaften, Nebenfach Psychologie",2023-01-18_11h59.14.115,00_bat_bachelor,2022.2.4,59.978218831259255,
,,,,,,,,,,,,1,0,1,0,0,0,0,0,,,,,,,0,,,0.2,972.9388014842116,,X,d,go,d,1,0.5881652084935922,,,,,,,,953.1937565121334,space,19.506589490454644,,,,,,42,001,20,w,"Bildungswissenschaften, Nebenfach Psychologie",2023-01-18_11h59.14.115,00_bat_bachelor,2022.2.4,59.978218831259255,
,,,,,,,,,,,,1,0,1,0,1,0,1,0,,,,,,,1,,,0.2,973.8728005465236,,Y,l,go,l,1,0.35807465339894406,,,,,,,,,,,,,,,,42,001,20,w,"Bildungswissenschaften, Nebenfach Psychologie",2023-01-18_11h59.14.115,00_bat_bachelor,2022.2.4,59.978218831259255,
,,,,,,,,,,,,1,0,1,0,2,0,2,0,,,,,,,2,,,0.2,974.573114388797,,X,d,go,d,1,0.3949672415619716,,,,,,,,,,,,,,,,42,001,20,w,"Bildungswissenschaften, Nebenfach Psychologie",2023-01-18_11h59.14.115,00_bat_bachelor,2022.2.4,59.978218831259255,
,,,,,,,,,,,,1,0,1,0,3,0,3,0,,,,,,,3,,,0.2,975.2905501621717,976.09124359212,X,None,nogo,None,1,,,,,,,,,,,,,,,,,42,001,20,w,"Bildungswissenschaften, Nebenfach Psychologie",2023-01-18_11h59.14.115,00_bat_bachelor,2022.2.4,59.978218831259255,
,,,,,,,,,,,,1,0,1,0,4,0,4,0,,,,,,,4,,,0.2,976.2915479798685,,Y,l,go,l,1,0.29229432163992897,,,,,,,,,,,,,,,,42,001,20,w,"Bildungswissenschaften, Nebenfach Psychologie",2023-01-18_11h59.14.115,00_bat_bachelor,2022.2.4,59.978218831259255,
,,,,,,,,,,,,1,0,1,0,5,0,5,0,,,,,,,5,,,0.2,976.9249420970154,,X,d,go,d,1,0.41061426428495906,,,,,,,,,,,,,,,,42,001,20,w,"Bildungswissenschaften, Nebenfach Psychologie",2023-01-18_11h59.14.115,00_bat_bachelor,2022.2.4,59.978218831259255,
,,,,,,,,,,,,1,0,1,0,6,0,6,0,,,,,,,6,,,0.2,977.6755836724478,,X,None,nogo,l,0,0.3316809692187235,,,,,,,,,,,,,,,,42,001,20,w,"Bildungswissenschaften, Nebenfach Psychologie",2023-01-18_11h59.14.115,00_bat_bachelor,2022.2.4,59.978218831259255,
,,,,,,,,,,,,1,0,1,0,7,0,7,0,,,,,,,7,,,0.2,978.3429394701088,979.1436222333868,Y,l,go,None,0,,,,,,,,,,,,,,,,,42,001,20,w,"Bildungswissenschaften, Nebenfach Psychologie",2023-01-18_11h59.14.115,00_bat_bachelor,2022.2.4,59.978218831259255,
,,,,,,,,,,,,1,0,1,0,8,0,8,0,,,,,,,8,,,0.2,979.3434509850049,,X,d,go,d,1,0.28015905478969216,,,,,,,,,,,,,,,,42,001,20,w,"Bildungswissenschaften, Nebenfach Psychologie",2023-01-18_11h59.14.115,00_bat_bachelor,2022.2.4,59.978218831259255,
,,,,,,,,,,,,1,0,1,0,9,0,9,0,,,,,,,9,,,0.2,979.9605735948717,,Y,l,go,l,1,0.38238445977913216,,,,,,,,,,,,,,,,42,001,20,w,"Bildungswissenschaften, Nebenfach Psychologie",2023-01-18_11h59.14.115,00_bat_bachelor,2022.2.4,59.978218831259255,
,,,,,,,,,,,,1,0,1,0,10,0,10,0,,,,,,,10,,,0.2,980.661360164202,,X,d,go,d,1,0.3708877380704507,,,,,,,,,,,,,,,,42,001,20,w,"Bildungswissenschaften, Nebenfach Psychologie",2023-01-18_11h59.14.115,00_bat_bachelor,2022.2.4,59.978218831259255,
,,,,,,,,,,,,1,0,1,0,11,0,11,0,,,,,,,11,,,0.2,981.3783091499063,,Y,l,go,l,1,0.30937552548130043,,,,,,,,,,,,,,,,42,001,20,w,"Bildungswissenschaften, Nebenfach Psychologie",2023-01-18_11h59.14.115,00_bat_bachelor,2022.2.4,59.978218831259255,
,,,,,,,,,,,,1,0,1,0,12,0,12,0,,,,,,,12,,,0.2,982.0290850768215,,Y,None,nogo,d,0,0.29823225815198384,,,,,,,,,,,,,,,,42,001,20,w,"Bildungswissenschaften, Nebenfach Psychologie",2023-01-18_11h59.14.115,00_bat_bachelor,2022.2.4,59.978218831259255,
,,,,,,,,,,,,1,0,1,0,13,0,13,0,,,,,,,13,,,0.2,982.6628442846995,983.4632802602428,X,d,go,None,0,,,,,,,,,,,,,,,,,42,001,20,w,"Bildungswissenschaften, Nebenfach Psychologie",2023-01-18_11h59.14.115,00_bat_bachelor,2022.2.4,59.978218831259255,
,,,,,,,,,,,,1,0,1,0,14,0,14,0,,,,,,,14,,,0.2,983.663686950953,984.4641694719321,Y,l,go,None,0,,,,,,,,,,,,,,,,,42,001,20,w,"Bildungswissenschaften, Nebenfach Psychologie",2023-01-18_11h59.14.115,00_bat_bachelor,2022.2.4,59.978218831259255,
,,,,,,,,,,,,1,0,1,0,15,0,15,0,,,,,,,15,,,0.2,984.6641417386127,985.4649655927496,X,d,go,None,0,,,,,,,,,,,,,,,,,42,001,20,w,"Bildungswissenschaften, Nebenfach Psychologie",2023-01-18_11h59.14.115,00_bat_bachelor,2022.2.4,59.978218831259255,
,,,,,,,,,,,,1,0,1,0,16,0,16,0,,,,,,,16,,,0.2,985.6648481625016,986.4655721379095,Y,l,go,None,0,,,,,,,,,,,,,,,,,42,001,20,w,"Bildungswissenschaften, Nebenfach Psychologie",2023-01-18_11h59.14.115,00_bat_bachelor,2022.2.4,59.978218831259255,
,,,,,,,,,,,,1,0,1,0,17,0,17,0,,,,,,,17,,,0.2,986.6653936167713,987.46617916791,Y,None,nogo,None,1,,,,,,,,,,,,,,,,,42,001,20,w,"Bildungswissenschaften, Nebenfach Psychologie",2023-01-18_11h59.14.115,00_bat_bachelor,2022.2.4,59.978218831259255,
,,,,,,,,,,,,1,0,1,0,18,0,18,0,,,,,,,18,,,0.2,987.6663221011695,,X,d,go,d,1,0.2622560331656132,,,,,,,,,,,,,,,,42,001,20,w,"Bildungswissenschaften, Nebenfach Psychologie",2023-01-18_11h59.14.115,00_bat_bachelor,2022.2.4,59.978218831259255,
,,,,,,,,,,,,1,0,1,0,19,0,19,0,,,,,,,19,,,0.2,988.2334573413536,,Y,l,go,l,1,0.3345905435853638,,,,,,,,,,,,,,,,42,001,20,w,"Bildungswissenschaften, Nebenfach Psychologie",2023-01-18_11h59.14.115,00_bat_bachelor,2022.2.4,59.978218831259255,
,,,,,,,,,,,,1,0,1,0,20,0,20,0,,,,,,,20,,,0.2,988.8839176320471,,X,d,go,d,1,0.6125913784489967,,,,,,,,,,,,,,,,42,001,20,w,"Bildungswissenschaften, Nebenfach Psychologie",2023-01-18_11h59.14.115,00_bat_bachelor,2022.2.4,59.978218831259255,
,,,,,,,,,,,,1,0,1,0,21,0,21,0,,,,,,,21,,,0.2,989.8010764600767,990.6019080718106,X,None,nogo,None,1,,,,,,,,,,,,,,,,,42,001,20,w,"Bildungswissenschaften, Nebenfach Psychologie",2023-01-18_11h59.14.115,00_bat_bachelor,2022.2.4,59.978218831259255,
,,,,,,,,,,,,1,0,1,0,22,0,22,0,,,,,,,22,,,0.2,990.8018856718263,,Y,l,go,l,1,0.34282860017265193,,,,,,,,,,,,,,,,42,001,20,w,"Bildungswissenschaften, Nebenfach Psychologie",2023-01-18_11h59.14.115,00_bat_bachelor,2022.2.4,59.978218831259255,
,,,,,,,,,,,,1,0,1,0,23,0,23,0,,,,,,,23,,,0.2,991.4525796593516,,X,d,go,d,1,0.5872250877437182,,,,,,,,,,,,,,,,42,001,20,w,"Bildungswissenschaften, Nebenfach Psychologie",2023-01-18_11h59.14.115,00_bat_bachelor,2022.2.4,59.978218831259255,
,,,,,,,,,,,,1,0,1,0,24,0,24,0,,,,,,,24,,,0.2,992.3533457680896,,Y,l,go,l,1,0.5828755141119473,,,,,,,,,,,,,,,,42,001,20,w,"Bildungswissenschaften, Nebenfach Psychologie",2023-01-18_11h59.14.115,00_bat_bachelor,2022.2.4,59.978218831259255,
,,,,,,,,,,,,1,0,1,0,25,0,25,0,,,,,,,25,,,0.2,993.237333218276,,X,d,go,d,1,0.4185061392490752,,,,,,,,,,,,,,,,42,001,20,w,"Bildungswissenschaften, Nebenfach Psychologie",2023-01-18_11h59.14.115,00_bat_bachelor,2022.2.4,59.978218831259255,
,,,,,,,,,,,,1,0,1,0,26,0,26,0,,,,,,,26,,,0.2,993.9876703090267,,Y,l,go,l,1,0.45210466839489527,,,,,,,,,,,,,,,,42,001,20,w,"Bildungswissenschaften, Nebenfach Psychologie",2023-01-18_11h59.14.115,00_bat_bachelor,2022.2.4,59.978218831259255,
,,,,,,,,,,,,1,0,1,0,27,0,27,0,,,,,,,27,,,0.2,994.7550386642397,995.5552554883761,Y,None,nogo,None,1,,,,,,,,,,,,,,,,,42,001,20,w,"Bildungswissenschaften, Nebenfach Psychologie",2023-01-18_11h59.14.115,00_bat_bachelor,2022.2.4,59.978218831259255,
,,,,,,,,,,,,1,0,1,0,28,0,28,0,,,,,,,28,,,0.2,995.755588482134,,X,d,go,d,1,0.36464580171741545,,,,,,,,,,,,,,,,42,001,20,w,"Bildungswissenschaften, Nebenfach Psychologie",2023-01-18_11h59.14.115,00_bat_bachelor,2022.2.4,59.978218831259255,
,,,,,,,,,,,,1,0,1,0,29,0,29,0,,,,,,,29,,,0.2,996.4228211283335,,Y,l,go,l,1,0.4329871018999256,,,,,,,,,,,,,,,,42,001,20,w,"Bildungswissenschaften, Nebenfach Psychologie",2023-01-18_11h59.14.115,00_bat_bachelor,2022.2.4,59.978218831259255,
,,,,,,,,,,,,1,0,1,0,30,0,30,0,,,,,,,30,,,0.2,997.156708772498,,X,d,go,d,1,0.5154442740604281,,,,,,,,,,,,,,,,42,001,20,w,"Bildungswissenschaften, Nebenfach Psychologie",2023-01-18_11h59.14.115,00_bat_bachelor,2022.2.4,59.978218831259255,
,,,,,,,,,,,,1,0,1,0,31,0,31,0,,,,,,,31,,,0.2,997.9739995277487,,X,None,nogo,l,0,0.3859917307563592,,,,,,,,,,,,,,,,42,001,20,w,"Bildungswissenschaften, Nebenfach Psychologie",2023-01-18_11h59.14.115,00_bat_bachelor,2022.2.4,59.978218831259255,
,,,,,,,,,,,,1,0,1,0,32,0,32,0,,,,,,,32,,,0.2,998.6745194305549,999.4752754059446,Y,l,go,None,0,,,,,,,,,,,,,,,,,42,001,20,w,"Bildungswissenschaften, Nebenfach Psychologie",2023-01-18_11h59.14.115,00_bat_bachelor,2022.2.4,59.978218831259255,
,,,,,,,,,,,,1,0,1,0,33,0,33,0,,,,,,,33,,,0.2,999.6752045211033,,X,d,go,d,1,0.26854596950579435,,,,,,,,,,,,,,,,42,001,20,w,"Bildungswissenschaften, Nebenfach Psychologie",2023-01-18_11h59.14.115,00_bat_bachelor,2022.2.4,59.978218831259255,
,,,,,,,,,,,,1,0,1,0,34,0,34,0,,,,,,,34,,,0.2,1000.2589322380954,,X,None,nogo,None,1,,,,,,,,,,,,,,,,,42,001,20,w,"Bildungswissenschaften, Nebenfach Psychologie",2023-01-18_11h59.14.115,00_bat_bachelor,2022.2.4,59.978218831259255,
,,,,,,,,,,,,1,0,1,0,35,0,35,0,,,,,,,35,,,0.2,1001.259750661935,,Y,l,go,l,1,0.2518657351611182,,,,,,,,,,,,,,,,42,001,20,w,"Bildungswissenschaften, Nebenfach Psychologie",2023-01-18_11h59.14.115,00_bat_bachelor,2022.2.4,59.978218831259255,
,,,,,,,,,,,,1,0,1,0,36,0,36,0,,,,,,,36,,,0.2,1001.8266885688936,,X,d,go,d,1,0.6617210516124032,,,,,,,,,,,,,,,,42,001,20,w,"Bildungswissenschaften, Nebenfach Psychologie",2023-01-18_11h59.14.115,00_bat_bachelor,2022.2.4,59.978218831259255,
,,,,,,,,,,,,1,0,1,0,37,0,37,0,,,,,,,37,,,0.2,1002.7941426452599,,X,None,nogo,l,0,0.36548361950553954,,,,,,,,,,,,,,,,42,001,20,w,"Bildungswissenschaften, Nebenfach Psychologie",2023-01-18_11h59.14.115,00_bat_bachelor,2022.2.4,59.978218831259255,
,,,,,,,,,,,,1,0,1,0,38,0,38,0,,,,,,,38,,,0.2,1003.4614077762817,,Y,l,go,None,0,,,,,,,,,,,,,,,,,42,001,20,w,"Bildungswissenschaften, Nebenfach Psychologie",2023-01-18_11h59.14.115,00_bat_bachelor,2022.2.4,59.978218831259255,
,,,,,,,,,,,,1,0,1,0,39,0,39,0,,,,,,,39,,,0.2,1004.4618271700165,,X,d,go,d,1,0.4420513399527408,,,,,,,,,,,,,,,,42,001,20,w,"Bildungswissenschaften, Nebenfach Psychologie",2023-01-18_11h59.14.115,00_bat_bachelor,2022.2.4,59.978218831259255,
,,,,,,,,,,,,1,0,1,0,40,0,40,0,,,,,,,40,,,0.2,1005.212761593808,,Y,l,go,l,1,0.6196056781045627,,,,,,,,,,,,,,,,42,001,20,w,"Bildungswissenschaften, Nebenfach Psychologie",2023-01-18_11h59.14.115,00_bat_bachelor,2022.2.4,59.978218831259255,
,,,,,,,,,,,,1,0,1,0,41,0,41,0,,,,,,,41,,,0.2,1006.1466922925028,1006.9474317830754,Y,None,nogo,None,1,,,,,,,,,,,,,,,,,42,001,20,w,"Bildungswissenschaften, Nebenfach Psychologie",2023-01-18_11h59.14.115,00_bat_bachelor,2022.2.4,59.978218831259255,
,,,,,,,,,,,,1,0,1,0,42,0,42,0,,,,,,,42,,,0.2,1007.1474055043072,1007.9478143283341,X,d,go,None,0,,,,,,,,,,,,,,,,,42,001,20,w,"Bildungswissenschaften, Nebenfach Psychologie",2023-01-18_11h59.14.115,00_bat_bachelor,2022.2.4,59.978218831259255,
,,,,,,,,,,,,1,0,1,0,43,0,43,0,,,,,,,43,,,0.2,1008.1479882918939,,Y,l,go,d,0,0.2284228374774102,,,,,,,,,,,,,,,,42,001,20,w,"Bildungswissenschaften, Nebenfach Psychologie",2023-01-18_11h59.14.115,00_bat_bachelor,2022.2.4,59.978218831259255,
,,,,,,,,,,,,1,0,1,0,44,0,44,0,,,,,,,44,,,0.2,1008.6817136088794,,X,d,go,None,0,,,,,,,,,,,,,,,,,42,001,20,w,"Bildungswissenschaften, Nebenfach Psychologie",2023-01-18_11h59.14.115,00_bat_bachelor,2022.2.4,59.978218831259255,
,,,,,,,,,,,,1,0,1,0,45,0,45,0,,,,,,,45,,,0.2,1009.6827138508088,,Y,l,go,l,1,0.4525245469994843,,,,,,,,,,,,,,,,42,001,20,w,"Bildungswissenschaften, Nebenfach Psychologie",2023-01-18_11h59.14.115,00_bat_bachelor,2022.2.4,59.978218831259255,
,,,,,,,,,,,,1,0,1,0,46,0,46,0,,,,,,,46,,,0.2,1010.4497966304189,,Y,None,nogo,None,1,,,,,,,,,,,,,,,,,42,001,20,w,"Bildungswissenschaften, Nebenfach Psychologie",2023-01-18_11h59.14.115,00_bat_bachelor,2022.2.4,59.978218831259255,
,,,,,,,,,,,,1,0,1,0,47,0,47,0,,,,,,,47,,,0.2,1011.4508220844436,,X,d,go,d,1,0.31718546111369506,,,,,,,,,,,,,,,,42,001,20,w,"Bildungswissenschaften, Nebenfach Psychologie",2023-01-18_11h59.14.115,00_bat_bachelor,2022.2.4,59.978218831259255,
,,,,,,,,,,,,1,0,1,0,48,0,48,0,,,,,,,48,,,0.2,1012.0676203308685,,Y,l,go,l,1,0.3237604881869629,,,,,,,,,,,,,,,,42,001,20,w,"Bildungswissenschaften, Nebenfach Psychologie",2023-01-18_11h59.14.115,00_bat_bachelor,2022.2.4,59.978218831259255,
,,,,,,,,,,,,1,0,1,0,49,0,49,0,,,,,,,49,,,0.2,1012.7017601446132,1013.5021970898379,Y,None,nogo,None,1,,,,,,,,,,,,,,,,,42,001,20,w,"Bildungswissenschaften, Nebenfach Psychologie",2023-01-18_11h59.14.115,00_bat_bachelor,2022.2.4,59.978218831259255,
,,,,,,,,,,,,1,0,1,0,50,0,50,0,,,,,,,50,,,0.2,1013.7026799017331,,Y,None,nogo,None,1,,,,,,,,,,,,,,,,,42,001,20,w,"Bildungswissenschaften, Nebenfach Psychologie",2023-01-18_11h59.14.115,00_bat_bachelor,2022.2.4,59.978218831259255,
,,,,,,,,,,,,1,0,1,0,51,0,51,0,,,,,,,51,,,0.2,1014.7032428105595,,X,d,go,d,1,0.3296911520010326,,,,,,,,,,,,,,,,42,001,20,w,"Bildungswissenschaften, Nebenfach Psychologie",2023-01-18_11h59.14.115,00_bat_bachelor,2022.2.4,59.978218831259255,
,,,,,,,,,,,,1,0,1,0,52,0,52,0,,,,,,,52,,,0.2,1015.3370175335731,,Y,l,go,l,1,0.41520383779425174,,,,,,,,,,,,,,,,42,001,20,w,"Bildungswissenschaften, Nebenfach Psychologie",2023-01-18_11h59.14.115,00_bat_bachelor,2022.2.4,59.978218831259255,
,,,,,,,,,,,,1,0,1,0,53,0,53,0,,,,,,,53,,,0.2,1016.054349064565,,X,d,go,None,0,,,,,,,,,,,,,,,,,42,001,20,w,"Bildungswissenschaften, Nebenfach Psychologie",2023-01-18_11h59.14.115,00_bat_bachelor,2022.2.4,59.978218831259255,
,,,,,,,,,,,,1,0,1,0,54,0,54,0,,,,,,,54,,,0.2,1017.0551049429923,,X,None,nogo,l,0,0.2172184792580083,,,,,,,,,,,,,,,,42,001,20,w,"Bildungswissenschaften, Nebenfach Psychologie",2023-01-18_11h59.14.115,00_bat_bachelor,2022.2.4,59.978218831259255,
,,,,,,,,,,,,1,0,1,0,55,0,55,0,,,,,,,55,,,0.2,1017.5884928055748,1018.3893370233418,Y,l,go,None,0,,,,,,,,,,,,,,,,,42,001,20,w,"Bildungswissenschaften, Nebenfach Psychologie",2023-01-18_11h59.14.115,00_bat_bachelor,2022.2.4,59.978218831259255,
,,,,,,,,,,,,1,0,1,0,56,0,56,0,,,,,,,56,,,0.2,1018.589263714297,,X,d,go,d,1,0.4433846726315096,,,,,,,,,,,,,,,,42,001,20,w,"Bildungswissenschaften, Nebenfach Psychologie",2023-01-18_11h59.14.115,00_bat_bachelor,2022.2.4,59.978218831259255,
,,,,,,,,,,,,1,0,1,0,57,0,57,0,,,,,,,57,,,0.2,1019.3401777744584,,X,None,nogo,l,0,0.36458083207253367,,,,,,,,,,,,,,,,42,001,20,w,"Bildungswissenschaften, Nebenfach Psychologie",2023-01-18_11h59.14.115,00_bat_bachelor,2022.2.4,59.978218831259255,
,,,,,,,,,,,,1,0,1,0,58,0,58,0,,,,,,,58,,,0.2,1020.0072862995148,1020.8078497901442,Y,l,go,None,0,,,,,,,,,,,,,,,,,42,001,20,w,"Bildungswissenschaften, Nebenfach Psychologie",2023-01-18_11h59.14.115,00_bat_bachelor,2022.2.4,59.978218831259255,
,,,,,,,,,,,,1,0,1,0,59,0,59,0,,,,,,,59,,,0.2,1021.0080824203324,,X,d,go,None,0,,,,,,,,,,,,,,,,,42,001,20,w,"Bildungswissenschaften, Nebenfach Psychologie",2023-01-18_11h59.14.115,00_bat_bachelor,2022.2.4,59.978218831259255,
,,,,,,,,,,,,1,0,1,0,60,0,60,0,,,,,,,60,,,0.2,1022.0088601169118,,X,None,nogo,None,1,,,,,,,,,,,,,,,,,42,001,20,w,"Bildungswissenschaften, Nebenfach Psychologie",2023-01-18_11h59.14.115,00_bat_bachelor,2022.2.4,59.978218831259255,
,,,,,,,,,,,,1,0,1,0,61,0,61,0,,,,,,,61,,,0.2,1023.0097095710516,1023.8105358494504,Y,l,go,None,0,,,,,,,,,,,,,,,,,42,001,20,w,"Bildungswissenschaften, Nebenfach Psychologie",2023-01-18_11h59.14.115,00_bat_bachelor,2022.2.4,59.978218831259255,
,,,,,,,,,,,,1,0,1,0,62,0,62,0,,,,,,,62,,,0.2,1024.0106496918015,,X,d,go,d,1,0.25342306777019985,,,,,,,,,,,,,,,,42,001,20,w,"Bildungswissenschaften, Nebenfach Psychologie",2023-01-18_11h59.14.115,00_bat_bachelor,2022.2.4,59.978218831259255,
,,,,,,,,,,,,1,0,1,0,63,0,63,0,,,,,,,63,,,0.2,1024.5778106289508,,Y,l,go,l,1,0.4543116976565216,,,,,,,,,,,,,,,,42,001,20,w,"Bildungswissenschaften, Nebenfach Psychologie",2023-01-18_11h59.14.115,00_bat_bachelor,2022.2.4,59.978218831259255,
,,,,,,,,,,,,1,0,1,0,64,0,64,0,,,,,,,64,,,0.2,1025.34506359027,1026.145659565751,X,d,go,None,0,,,,,,,,,,,,,,,,,42,001,20,w,"Bildungswissenschaften, Nebenfach Psychologie",2023-01-18_11h59.14.115,00_bat_bachelor,2022.2.4,59.978218831259255,
,,,,,,,,,,,,1,0,1,0,65,0,65,0,,,,,,,65,,,0.2,1026.345610499091,1027.1464256259787,X,None,nogo,None,1,,,,,,,,,,,,,,,,,42,001,20,w,"Bildungswissenschaften, Nebenfach Psychologie",2023-01-18_11h59.14.115,00_bat_bachelor,2022.2.4,59.978218831259255,
,,,,,,,,,,,,1,0,1,0,66,0,66,0,,,,,,,66,,,0.2,1027.3465777713573,,Y,l,go,l,1,0.6287479767051991,,,,,,,,,,,,,,,,42,001,20,w,"Bildungswissenschaften, Nebenfach Psychologie",2023-01-18_11h59.14.115,00_bat_bachelor,2022.2.4,59.978218831259255,
,,,,,,,,,,,,1,0,1,0,67,0,67,0,,,,,,,67,,,0.2,1028.280343621649,,X,d,go,d,1,0.4158142617670819,,,,,,,,,,,,,,,,42,001,20,w,"Bildungswissenschaften, Nebenfach Psychologie",2023-01-18_11h59.14.115,00_bat_bachelor,2022.2.4,59.978218831259255,
,,,,,,,,,,,,1,0,1,0,68,0,68,0,,,,,,,68,,,0.2,1028.9975927284395,,Y,l,go,l,1,0.5308338423492387,,,,,,,,,,,,,,,,42,001,20,w,"Bildungswissenschaften, Nebenfach Psychologie",2023-01-18_11h59.14.115,00_bat_bachelor,2022.2.4,59.978218831259255,
,,,,,,,,,,,,1,0,1,0,69,0,69,0,,,,,,,69,,,0.2,1029.8311069909832,,X,d,go,d,1,0.5759460628905799,,,,,,,,,,,,,,,,42,001,20,w,"Bildungswissenschaften, Nebenfach Psychologie",2023-01-18_11h59.14.115,00_bat_bachelor,2022.2.4,59.978218831259255,
,,,,,,,,,,,,1,0,1,0,70,0,70,0,,,,,,,70,,,0.2,1030.7154430470546,,Y,l,go,l,1,0.4604653916321695,,,,,,,,,,,,,,,,42,001,20,w,"Bildungswissenschaften, Nebenfach Psychologie",2023-01-18_11h59.14.115,00_bat_bachelor,2022.2.4,59.978218831259255,
,,,,,,,,,,,,1,0,1,0,71,0,71,0,,,,,,,71,,,0.2,1031.4825612205896,,Y,None,nogo,None,1,,,,,,,,,,,,,,,,,42,001,20,w,"Bildungswissenschaften, Nebenfach Psychologie",2023-01-18_11h59.14.115,00_bat_bachelor,2022.2.4,59.978218831259255,
,,,,,,,,,,,,1,0,1,0,72,0,72,0,,,,,,,72,,,0.2,1032.483446553495,,X,d,go,d,1,0.3894724563579075,,,,,,,,,,,,,,,,42,001,20,w,"Bildungswissenschaften, Nebenfach Psychologie",2023-01-18_11h59.14.115,00_bat_bachelor,2022.2.4,59.978218831259255,
,,,,,,,,,,,,1,0,1,0,73,0,73,0,,,,,,,73,,,0.2,1033.183938819915,,Y,l,go,l,1,0.5687019452161621,,,,,,,,,,,,,,,,42,001,20,w,"Bildungswissenschaften, Nebenfach Psychologie",2023-01-18_11h59.14.115,00_bat_bachelor,2022.2.4,59.978218831259255,
,,,,,,,,,,,,1,0,1,0,74,0,74,0,,,,,,,74,,,0.2,1034.0677124520298,,X,d,go,d,1,0.45221812289673835,,,,,,,,,,,,,,,,42,001,20,w,"Bildungswissenschaften, Nebenfach Psychologie",2023-01-18_11h59.14.115,00_bat_bachelor,2022.2.4,59.978218831259255,
,,,,,,,,,,,,1,0,1,0,75,0,75,0,,,,,,,75,,,0.2,1034.8352354738163,,Y,l,go,l,1,0.452658365102252,,,,,,,,,,,,,,,,42,001,20,w,"Bildungswissenschaften, Nebenfach Psychologie",2023-01-18_11h59.14.115,00_bat_bachelor,2022.2.4,59.978218831259255,
,,,,,,,,,,,,1,0,1,0,76,0,76,0,,,,,,,76,,,0.2,1035.6024195867067,,Y,None,nogo,None,1,,,,,,,,,,,,,,,,,42,001,20,w,"Bildungswissenschaften, Nebenfach Psychologie",2023-01-18_11h59.14.115,00_bat_bachelor,2022.2.4,59.978218831259255,
,,,,,,,,,,,,1,0,1,0,77,0,77,0,,,,,,,77,,,0.2,1036.6029723137035,,X,d,go,d,1,0.33298618069966324,,,,,,,,,,,,,,,,42,001,20,w,"Bildungswissenschaften, Nebenfach Psychologie",2023-01-18_11h59.14.115,00_bat_bachelor,2022.2.4,59.978218831259255,
,,,,,,,,,,,,1,0,1,0,78,0,78,0,,,,,,,78,,,0.2,1037.2369317639095,,Y,l,go,l,1,0.5480275309819262,,,,,,,,,,,,,,,,42,001,20,w,"Bildungswissenschaften, Nebenfach Psychologie",2023-01-18_11h59.14.115,00_bat_bachelor,2022.2.4,59.978218831259255,
,,,,,,,,,,,,1,0,1,0,79,0,79,0,,,,,,,79,,,0.2,1038.0877289271739,,Y,None,nogo,None,1,,,,,,,,,,,,,,,,,42,001,20,w,"Bildungswissenschaften, Nebenfach Psychologie",2023-01-18_11h59.14.115,00_bat_bachelor,2022.2.4,59.978218831259255,
,,,,,,,,,,,,1,0,1,0,80,0,80,0,,,,,,,80,,,0.2,1039.0886021388578,,Y,None,nogo,None,1,,,,,,,,,,,,,,,,,42,001,20,w,"Bildungswissenschaften, Nebenfach Psychologie",2023-01-18_11h59.14.115,00_bat_bachelor,2022.2.4,59.978218831259255,
,,,,,,,,,,,,1,0,1,0,81,0,81,0,,,,,,,81,,,0.2,1040.0893517142686,,X,d,go,d,1,0.41551171644823626,,,,,,,,,,,,,,,,42,001,20,w,"Bildungswissenschaften, Nebenfach Psychologie",2023-01-18_11h59.14.115,00_bat_bachelor,2022.2.4,59.978218831259255,
,,,,,,,,,,,,1,0,1,0,82,0,82,0,,,,,,,82,,,0.2,1040.8063981544692,,Y,l,go,l,1,0.3060470422497019,,,,,,,,,,,,,,,,42,001,20,w,"Bildungswissenschaften, Nebenfach Psychologie",2023-01-18_11h59.14.115,00_bat_bachelor,2022.2.4,59.978218831259255,
,,,,,,,,,,,,1,0,1,0,83,0,83,0,,,,,,,83,,,0.2,1041.423659915803,1042.2243034064013,Y,None,nogo,None,1,,,,,,,,,,,,,,,,,42,001,20,w,"Bildungswissenschaften, Nebenfach Psychologie",2023-01-18_11h59.14.115,00_bat_bachelor,2022.2.4,59.978218831259255,
,,,,,,,,,,,,1,0,1,0,84,0,84,0,,,,,,,84,,,0.2,1042.4244002790947,,X,d,go,d,1,0.383260095724836,,,,,,,,,,,,,,,,42,001,20,w,"Bildungswissenschaften, Nebenfach Psychologie",2023-01-18_11h59.14.115,00_bat_bachelor,2022.2.4,59.978218831259255,
,,,,,,,,,,,,1,0,1,0,85,0,85,0,,,,,,,85,,,0.2,1043.107908311329,,Y,l,go,l,1,0.4197764416458085,,,,,,,,,,,,,,,,42,001,20,w,"Bildungswissenschaften, Nebenfach Psychologie",2023-01-18_11h59.14.115,00_bat_bachelor,2022.2.4,59.978218831259255,
,,,,,,,,,,,,1,0,1,0,86,0,86,0,,,,,,,86,,,0.2,1043.8421760765195,,Y,None,nogo,None,1,,,,,,,,,,,,,,,,,42,001,20,w,"Bildungswissenschaften, Nebenfach Psychologie",2023-01-18_11h59.14.115,00_bat_bachelor,2022.2.4,59.978218831259255,
,,,,,,,,,,,,1,0,1,0,87,0,87,0,,,,,,,87,,,0.2,1044.8429193488846,,X,d,go,d,1,0.5247567543992773,,,,,,,,,,,,,,,,42,001,20,w,"Bildungswissenschaften, Nebenfach Psychologie",2023-01-18_11h59.14.115,00_bat_bachelor,2022.2.4,59.978218831259255,
,,,,,,,,,,,,1,0,1,0,88,0,88,0,,,,,,,88,,,0.2,1045.6766299749725,,Y,l,go,l,1,0.41152044566115364,,,,,,,,,,,,,,,,42,001,20,w,"Bildungswissenschaften, Nebenfach Psychologie",2023-01-18_11h59.14.115,00_bat_bachelor,2022.2.4,59.978218831259255,
,,,,,,,,,,,,1,0,1,0,89,0,89,0,,,,,,,89,,,0.2,1046.3942305967503,,Y,None,nogo,None,1,,,,,,,,,,,,,,,,,42,001,20,w,"Bildungswissenschaften, Nebenfach Psychologie",2023-01-18_11h59.14.115,00_bat_bachelor,2022.2.4,59.978218831259255,
,,,,,,,,,,,,1,0,1,0,90,0,90,0,,,,,,,90,,,0.2,1047.3947828389064,,X,d,go,d,1,0.3575185324298218,,,,,,,,,,,,,,,,42,001,20,w,"Bildungswissenschaften, Nebenfach Psychologie",2023-01-18_11h59.14.115,00_bat_bachelor,2022.2.4,59.978218831259255,
,,,,,,,,,,,,1,0,1,0,91,0,91,0,,,,,,,91,,,0.2,1048.0620067578275,,Y,l,go,l,1,0.5540435280709062,,,,,,,,,,,,,,,,42,001,20,w,"Bildungswissenschaften, Nebenfach Psychologie",2023-01-18_11h59.14.115,00_bat_bachelor,2022.2.4,59.978218831259255,
,,,,,,,,,,,,1,0,1,0,92,0,92,0,,,,,,,92,,,0.2,1048.929015792004,,X,d,go,d,1,0.5024673106672708,,,,,,,,,,,,,,,,42,001,20,w,"Bildungswissenschaften, Nebenfach Psychologie",2023-01-18_11h59.14.115,00_bat_bachelor,2022.2.4,59.978218831259255,
,,,,,,,,,,,,1,0,1,0,93,0,93,0,,,,,,,93,,,0.2,1049.7466740622185,,Y,l,go,l,1,0.40494978218339384,,,,,,,,,,,,,,,,42,001,20,w,"Bildungswissenschaften, Nebenfach Psychologie",2023-01-18_11h59.14.115,00_bat_bachelor,2022.2.4,59.978218831259255,
,,,,,,,,,,,,1,0,1,0,94,0,94,0,,,,,,,94,,,0.2,1050.4638189266261,,X,d,go,d,1,0.3608959853590932,,,,,,,,,,,,,,,,42,001,20,w,"Bildungswissenschaften, Nebenfach Psychologie",2023-01-18_11h59.14.115,00_bat_bachelor,2022.2.4,59.978218831259255,
,,,,,,,,,,,,1,0,1,0,95,0,95,0,,,,,,,95,,,0.2,1051.1307495123765,,X,None,nogo,None,1,,,,,,,,,,,,,,,,,42,001,20,w,"Bildungswissenschaften, Nebenfach Psychologie",2023-01-18_11h59.14.115,00_bat_bachelor,2022.2.4,59.978218831259255,
,,,,,,,,,,,,1,0,1,0,96,0,96,0,,,,,,,96,,,0.2,1052.1318341178994,,Y,l,go,l,1,0.4045483278168831,,,,,,,,,,,,,,,,42,001,20,w,"Bildungswissenschaften, Nebenfach Psychologie",2023-01-18_11h59.14.115,00_bat_bachelor,2022.2.4,59.978218831259255,
,,,,,,,,,,,,1,0,1,0,97,0,97,0,,,,,,,97,,,0.2,1052.8488868611457,,X,d,go,None,0,,,,,,,,,,,,,,,,,42,001,20,w,"Bildungswissenschaften, Nebenfach Psychologie",2023-01-18_11h59.14.115,00_bat_bachelor,2022.2.4,59.978218831259255,
,,,,,,,,,,,,1,0,1,0,98,0,98,0,,,,,,,98,,,0.2,1053.849781891011,,X,None,nogo,l,0,0.382375247660093,,,,,,,,,,,,,,,,42,001,20,w,"Bildungswissenschaften, Nebenfach Psychologie",2023-01-18_11h59.14.115,00_bat_bachelor,2022.2.4,59.978218831259255,
,,,,,,,,,,,,1,0,1,0,99,0,99,0,,,,,,,99,,,0.2,1054.5336404685513,1055.3342728076386,Y,l,go,None,0,,,,,,,,,,,,,,,,,42,001,20,w,"Bildungswissenschaften, Nebenfach Psychologie",2023-01-18_11h59.14.115,00_bat_bachelor,2022.2.4,59.978218831259255,
,,,,,,,,,,,,1,0,1,0,100,0,100,0,,,,,,,100,,,0.2,1055.5344244681764,,X,d,go,d,1,0.34691344667226076,,,,,,,,,,,,,,,,42,001,20,w,"Bildungswissenschaften, Nebenfach Psychologie",2023-01-18_11h59.14.115,00_bat_bachelor,2022.2.4,59.978218831259255,
,,,,,,,,,,,,1,0,1,0,101,0,101,0,,,,,,,101,,,0.2,1056.18490463763,,X,None,nogo,None,1,,,,,,,,,,,,,,,,,42,001,20,w,"Bildungswissenschaften, Nebenfach Psychologie",2023-01-18_11h59.14.115,00_bat_bachelor,2022.2.4,59.978218831259255,
,,,,,,,,,,,,1,0,1,0,102,0,102,0,,,,,,,102,,,0.2,1057.185507304006,,Y,l,go,None,0,,,,,,,,,,,,,,,,,42,001,20,w,"Bildungswissenschaften, Nebenfach Psychologie",2023-01-18_11h59.14.115,00_bat_bachelor,2022.2.4,59.978218831259255,
,,,,,,,,,,,,1,0,1,0,103,0,103,0,,,,,,,103,,,0.2,1058.1861909400322,1058.987017218431,X,d,go,None,0,,,,,,,,,,,,,,,,,42,001,20,w,"Bildungswissenschaften, Nebenfach Psychologie",2023-01-18_11h59.14.115,00_bat_bachelor,2022.2.4,59.978218831259255,
,,,,,,,,,,,,1,0,1,0,104,0,104,0,,,,,,,104,,,0.2,1059.1870384547801,,Y,l,go,l,1,0.3567713812808506,,,,,,,,,,,,,,,,42,001,20,w,"Bildungswissenschaften, Nebenfach Psychologie",2023-01-18_11h59.14.115,00_bat_bachelor,2022.2.4,59.978218831259255,
,,,,,,,,,,,,1,0,1,0,105,0,105,0,,,,,,,105,,,0.2,1059.8542837070127,,X,d,go,d,1,0.28195590240648016,,,,,,,,,,,,,,,,42,001,20,w,"Bildungswissenschaften, Nebenfach Psychologie",2023-01-18_11h59.14.115,00_bat_bachelor,2022.2.4,59.978218831259255,
,,,,,,,,,,,,1,0,1,0,106,0,106,0,,,,,,,106,,,0.2,1060.4377898483363,,Y,l,go,l,1,0.6262097961152904,,,,,,,,,,,,,,,,42,001,20,w,"Bildungswissenschaften, Nebenfach Psychologie",2023-01-18_11h59.14.115,00_bat_bachelor,2022.2.4,59.978218831259255,
,,,,,,,,,,,,1,0,1,0,107,0,107,0,,,,,,,107,,,0.2,1061.372165637731,,Y,None,nogo,None,1,,,,,,,,,,,,,,,,,42,001,20,w,"Bildungswissenschaften, Nebenfach Psychologie",2023-01-18_11h59.14.115,00_bat_bachelor,2022.2.4,59.978218831259255,
,,,,,,,,,,,,1,0,1,0,108,0,108,0,,,,,,,108,,,0.2,1062.3729423646291,,X,d,go,d,1,0.37105695012724027,,,,,,,,,,,,,,,,42,001,20,w,"Bildungswissenschaften, Nebenfach Psychologie",2023-01-18_11h59.14.115,00_bat_bachelor,2022.2.4,59.978218831259255,
,,,,,,,,,,,,1,0,1,0,109,0,109,0,,,,,,,109,,,0.2,1063.0564697908121,,Y,l,go,l,1,0.3917798491602298,,,,,,,,,,,,,,,,42,001,20,w,"Bildungswissenschaften, Nebenfach Psychologie",2023-01-18_11h59.14.115,00_bat_bachelor,2022.2.4,59.978218831259255,
,,,,,,,,,,,,1,0,1,0,110,0,110,0,,,,,,,110,,,0.2,1063.75721272378,,Y,None,nogo,None,1,,,,,,,,,,,,,,,,,42,001,20,w,"Bildungswissenschaften, Nebenfach Psychologie",2023-01-18_11h59.14.115,00_bat_bachelor,2022.2.4,59.978218831259255,
,,,,,,,,,,,,1,0,1,0,111,0,111,0,,,,,,,111,,,0.2,1064.7584776928707,,X,d,go,d,1,0.4325909808976576,,,,,,,,,,,,,,,,42,001,20,w,"Bildungswissenschaften, Nebenfach Psychologie",2023-01-18_11h59.14.115,00_bat_bachelor,2022.2.4,59.978218831259255,
,,,,,,,,,,,,1,0,1,0,112,0,112,0,,,,,,,112,,,0.2,1065.508945207781,,Y,l,go,l,1,0.33816920849494636,,,,,,,,,,,,,,,,42,001,20,w,"Bildungswissenschaften, Nebenfach Psychologie",2023-01-18_11h59.14.115,00_bat_bachelor,2022.2.4,59.978218831259255,
,,,,,,,,,,,,1,0,1,0,113,0,113,0,,,,,,,113,,,0.2,1066.1761497327825,1066.9768489809358,X,d,go,None,0,,,,,,,,,,,,,,,,,42,001,20,w,"Bildungswissenschaften, Nebenfach Psychologie",2023-01-18_11h59.14.115,00_bat_bachelor,2022.2.4,59.978218831259255,
,,,,,,,,,,,,1,0,1,0,114,0,114,0,,,,,,,114,,,0.2,1067.1769065808912,,Y,l,go,d,0,0.22250671911751851,,,,,,,,,,,,,,,,42,001,20,w,"Bildungswissenschaften, Nebenfach Psychologie",2023-01-18_11h59.14.115,00_bat_bachelor,2022.2.4,59.978218831259255,
,,,,,,,,,,,,1,0,1,0,115,0,115,0,,,,,,,115,,,0.2,1067.7106789281534,1068.5113558732846,Y,None,nogo,None,1,,,,,,,,,,,,,,,,,42,001,20,w,"Bildungswissenschaften, Nebenfach Psychologie",2023-01-18_11h59.14.115,00_bat_bachelor,2022.2.4,59.978218831259255,
,,,,,,,,,,,,1,0,1,0,116,0,116,0,,,,,,,116,,,0.2,1068.711365473282,,X,d,go,l,0,0.32018812632304616,,,,,,,,,,,,,,,,42,001,20,w,"Bildungswissenschaften, Nebenfach Psychologie",2023-01-18_11h59.14.115,00_bat_bachelor,2022.2.4,59.978218831259255,
,,,,,,,,,,,,1,0,1,0,117,0,117,0,,,,,,,117,,,0.2,1069.345141650847,1070.1458050202345,Y,l,go,None,0,,,,,,,,,,,,,,,,,42,001,20,w,"Bildungswissenschaften, Nebenfach Psychologie",2023-01-18_11h59.14.115,00_bat_bachelor,2022.2.4,59.978218831259255,
,,,,,,,,,,,,1,0,1,0,118,0,118,0,,,,,,,118,,,0.2,1070.3459455292323,,X,d,go,d,1,0.3016790443507489,,,,,,,,,,,,,,,,42,001,20,w,"Bildungswissenschaften, Nebenfach Psychologie",2023-01-18_11h59.14.115,00_bat_bachelor,2022.2.4,59.978218831259255,
,,,,,,,,,,,,1,0,1,0,119,0,119,0,,,,,,,119,,,0.2,1070.9631030481833,,Y,l,go,l,1,0.2772014804650098,,,,,,,,,,,,,,,,42,001,20,w,"Bildungswissenschaften, Nebenfach Psychologie",2023-01-18_11h59.14.115,00_bat_bachelor,2022.2.4,59.978218831259255,
,,,,,,,,,,,,1,0,1,0,120,0,120,0,,,,,,,120,,,0.2,1071.5467696742853,,X,d,go,d,1,0.4289531644899398,,,,,,,,,,,,,,,,42,001,20,w,"Bildungswissenschaften, Nebenfach Psychologie",2023-01-18_11h59.14.115,00_bat_bachelor,2022.2.4,59.978218831259255,
,,,,,,,,,,,,1,0,1,0,121,0,121,0,,,,,,,121,,,0.2,1072.2975077345327,1073.0980954676052,X,None,nogo,None,1,,,,,,,,,,,,,,,,,42,001,20,w,"Bildungswissenschaften, Nebenfach Psychologie",2023-01-18_11h59.14.115,00_bat_bachelor,2022.2.4,59.978218831259255,
,,,,,,,,,,,,1,0,1,0,122,0,122,0,,,,,,,122,,,0.2,1073.2982296735863,,Y,l,go,l,1,0.262089245399693,,,,,,,,,,,,,,,,42,001,20,w,"Bildungswissenschaften, Nebenfach Psychologie",2023-01-18_11h59.14.115,00_bat_bachelor,2022.2.4,59.978218831259255,
,,,,,,,,,,,,1,0,1,0,123,0,123,0,,,,,,,123,,,0.2,1073.8653149743914,,X,d,go,d,1,0.4307281939254608,,,,,,,,,,,,,,,,42,001,20,w,"Bildungswissenschaften, Nebenfach Psychologie",2023-01-18_11h59.14.115,00_bat_bachelor,2022.2.4,59.978218831259255,
,,,,,,,,,,,,1,0,1,0,124,0,124,0,,,,,,,124,,,0.2,1074.598896679323,,Y,l,go,l,1,0.4325783748354297,,,,,,,,,,,,,,,,42,001,20,w,"Bildungswissenschaften, Nebenfach Psychologie",2023-01-18_11h59.14.115,00_bat_bachelor,2022.2.4,59.978218831259255,
,,,,,,,,,,,,1,0,1,0,125,0,125,0,,,,,,,125,,,0.2,1075.3329312325222,,X,d,go,d,1,0.48303653218317777,,,,,,,,,,,,,,,,42,001,20,w,"Bildungswissenschaften, Nebenfach Psychologie",2023-01-18_11h59.14.115,00_bat_bachelor,2022.2.4,59.978218831259255,
,,,,,,,,,,,,1,0,1,0,126,0,126,0,,,,,,,126,,,0.2,1076.1168401857722,,Y,l,go,None,0,,,,,,,,,,,,,,,,,42,001,20,w,"Bildungswissenschaften, Nebenfach Psychologie",2023-01-18_11h59.14.115,00_bat_bachelor,2022.2.4,59.978218831259255,
,,,,,,,,,,,,1,0,1,0,127,0,127,0,,,,,,,127,,,0.2,1077.1176498823625,,Y,None,nogo,None,1,,,,,,,,,,,,,,,,,42,001,20,w,"Bildungswissenschaften, Nebenfach Psychologie",2023-01-18_11h59.14.115,00_bat_bachelor,2022.2.4,59.978218831259255,
,,,,,,,,,,,,1,0,1,0,128,0,128,0,,,,,,,128,,,0.2,1078.1181613972585,,X,d,go,d,1,0.3849837312591262,,,,,,,,,,,,,,,,42,001,20,w,"Bildungswissenschaften, Nebenfach Psychologie",2023-01-18_11h59.14.115,00_bat_bachelor,2022.2.4,59.978218831259255,
,,,,,,,,,,,,1,0,1,0,129,0,129,0,,,,,,,129,,,0.2,1078.8189091787208,,Y,l,go,l,1,0.2935423210437875,,,,,,,,,,,,,,,,42,001,20,w,"Bildungswissenschaften, Nebenfach Psychologie",2023-01-18_11h59.14.115,00_bat_bachelor,2022.2.4,59.978218831259255,
