loop_instruction.thisRepN,loop_instruction.thisTrialN,loop_instruction.thisN,loop_instruction.thisIndex,loop_rsi_practice.thisRepN,loop_rsi_practice.thisTrialN,loop_rsi_practice.thisN,loop_rsi_practice.thisIndex,loop_practice.thisRepN,loop_practice.thisTrialN,loop_practice.thisN,loop_practice.thisIndex,loop_exp.thisRepN,loop_exp.thisTrialN,loop_exp.thisN,loop_exp.thisIndex,loop_trials.thisRepN,loop_trials.thisTrialN,loop_trials.thisN,loop_trials.thisIndex,map_condition,map_x_key,map_y_key,key_resp_welcome.started,key_resp_welcome.keys,key_resp_welcome.rt,index,text_empty_rsi_practice.started,text_empty_rsi_practice.stopped,rsi,stimulus.started,stimulus,correct,trial_type,key_resp_trial.keys,key_resp_trial.corr,stimulus.stopped,key_resp_trial.rt,key_resp_instruction_rsi.started,key_resp_instruction_rsi.keys,key_resp_instruction_rsi.rt,key_resp_instruction_rsi.stopped,key_resp_instruction_final.started,key_resp_instruction_final.keys,key_resp_instruction_final.rt,key_resp_break.started,key_resp_break.keys,key_resp_break.rt,key_resp_break.stopped,key_resp_end_screen.started,image_end_screen.started,key_resp_end_screen.stopped,image_end_screen.stopped,key_resp_end_screen.keys,participant,session,Alter,Geschlecht (w/m/d/andere),Studiengang,date,expName,psychopyVersion,frameRate,
,,,,0,0,0,0,0,0,0,0,,,,,,,,,0,d,l,2071.044007736229,j,20.730533780297264,0,2091.807252941944,2092.821329541155,1,2092.821329541155,X,d,go,None,0,,,,,,,,,,,,,,,,,,,46,001, 21,w,Bildungswissenschaft und Psychologie,2023-01-18_15h12.15.485,00_bat_bachelor,2022.2.4,59.94039385204346,
,,,,0,0,0,0,1,0,1,0,,,,,,,,,,,,,,,1,2094.2353501889156,2095.235955764365,1,2095.235955764365,Y,l,go,None,0,2096.0366584064614,,,,,,,,,,,,,,,,,,46,001, 21,w,Bildungswissenschaft und Psychologie,2023-01-18_15h12.15.485,00_bat_bachelor,2022.2.4,59.94039385204346,
,,,,0,0,0,0,2,0,2,0,,,,,,,,,,,,,,,2,2096.6368971457414,2097.63798756944,1,2097.63798756944,X,d,go,d,1,,0.5967578451381996,,,,,,,,,,,,,,,,,46,001, 21,w,Bildungswissenschaft und Psychologie,2023-01-18_15h12.15.485,00_bat_bachelor,2022.2.4,59.94039385204346,
,,,,0,0,0,0,3,0,3,0,,,,,,,,,,,,,,,3,2098.9388586963178,2099.939613120194,1,2099.939613120194,X,None,nogo,d,0,,0.5193445493641775,,,,,,,,,,,,,,,,,46,001, 21,w,Bildungswissenschaft und Psychologie,2023-01-18_15h12.15.485,00_bat_bachelor,2022.2.4,59.94039385204346,
,,,,0,0,0,0,4,0,4,0,,,,,,,,,,,,,,,4,2101.5908961983514,2102.591646258603,1,2102.591646258603,X,None,nogo,d,0,,0.4263579277903773,,,,,,,,,,,,,,,,,46,001, 21,w,Bildungswissenschaft und Psychologie,2023-01-18_15h12.15.485,00_bat_bachelor,2022.2.4,59.94039385204346,
,,,,0,0,0,0,5,0,5,0,,,,,,,,,,,,,,,5,2104.142652052047,2105.1436542333686,1,2105.1436542333686,Y,l,go,None,0,2105.9442487542983,,,,,,,,,,,,,,,,,,46,001, 21,w,Bildungswissenschaft und Psychologie,2023-01-18_15h12.15.485,00_bat_bachelor,2022.2.4,59.94039385204346,
,,,,0,0,0,0,6,0,6,0,,,,,,,,,,,,,,,6,2106.5444986450893,2107.545441190072,1,2107.545441190072,X,d,go,None,0,,,,,,,,,,,,,,,,,,,46,001, 21,w,Bildungswissenschaft und Psychologie,2023-01-18_15h12.15.485,00_bat_bachelor,2022.2.4,59.94039385204346,
,,,,0,0,0,0,7,0,7,0,,,,,,,,,,,,,,,7,2108.9465062077506,2109.9474283891323,1,2109.9474283891323,Y,l,go,l,1,,0.5598356812261045,,,,,,,,,,,,,,,,,46,001, 21,w,Bildungswissenschaft und Psychologie,2023-01-18_15h12.15.485,00_bat_bachelor,2022.2.4,59.94039385204346,
,,,,0,0,0,0,8,0,8,0,,,,,,,,,,,,,,,8,2111.2146641383297,2112.215620259085,1,2112.215620259085,X,d,go,d,1,,0.45108615822391585,,,,,,,,,,,,,,,,,46,001, 21,w,Bildungswissenschaft und Psychologie,2023-01-18_15h12.15.485,00_bat_bachelor,2022.2.4,59.94039385204346,
,,,,0,0,0,0,9,0,9,0,,,,,,,,,,,,,,,9,2113.383039329434,2114.3838262381323,1,2114.3838262381323,Y,l,go,l,1,,0.5541261082398705,,,,,,,,,,,,,,,,,46,001, 21,w,Bildungswissenschaft und Psychologie,2023-01-18_15h12.15.485,00_bat_bachelor,2022.2.4,59.94039385204346,
,,,,0,0,0,0,10,0,10,0,,,,,,,,,,,,,,,10,2115.6680777366855,2116.6690081604756,1,2116.6690081604756,Y,None,nogo,None,1,2117.4695876511105,,,,,,,,,,,,,,,,,,46,001, 21,w,Bildungswissenschaft und Psychologie,2023-01-18_15h12.15.485,00_bat_bachelor,2022.2.4,59.94039385204346,
,,,,0,0,0,0,11,0,11,0,,,,,,,,,,,,,,,11,2118.0701284508395,2119.0708334202063,1,2119.0708334202063,X,d,go,d,1,,0.38014073806698434,,,,,,,,,,,,,,,,,46,001, 21,w,Bildungswissenschaft und Psychologie,2023-01-18_15h12.15.485,00_bat_bachelor,2022.2.4,59.94039385204346,
,,,,0,0,0,0,12,0,12,0,,,,,,,,,,,,,,,12,2120.1550093793776,2121.1557919244515,1,2121.1557919244515,Y,l,go,l,1,,0.47129123931517825,,,,,,,,,,,,,,,,,46,001, 21,w,Bildungswissenschaft und Psychologie,2023-01-18_15h12.15.485,00_bat_bachelor,2022.2.4,59.94039385204346,
,,,,0,0,0,0,13,0,13,0,,,,,,,,,,,,,,,13,2122.340106501768,2123.3408303801843,1,2123.3408303801843,Y,None,nogo,None,1,2124.1413929011323,,,,,,,,,,,,,,,,,,46,001, 21,w,Bildungswissenschaft und Psychologie,2023-01-18_15h12.15.485,00_bat_bachelor,2022.2.4,59.94039385204346,
,,,,0,0,0,0,14,0,14,0,,,,,,,,,,,,,,,14,2124.741813943343,2125.7426066702465,1,2125.7426066702465,X,d,go,d,1,,0.3318634281458799,,,,,,,,,,,,,,,,,46,001, 21,w,Bildungswissenschaft und Psychologie,2023-01-18_15h12.15.485,00_bat_bachelor,2022.2.4,59.94039385204346,
,,,,1,0,1,0,0,0,0,0,,,,,,,,,,,,,,,0,2144.306396942353,2144.506616481638,0.2,2144.506616481638,X,d,go,d,1,,0.3676127441285644,2126.820210511418,j,17.46519572712714,,,,,,,,,,,,,,46,001, 21,w,Bildungswissenschaft und Psychologie,2023-01-18_15h12.15.485,00_bat_bachelor,2022.2.4,59.94039385204346,
,,,,1,0,1,0,1,0,1,0,,,,,,,,,,,,,,,1,2145.590607713646,2145.791001798294,0.2,2145.791001798294,Y,l,go,l,1,,0.44393416168168187,,,,,,,,,,,,,,,,,46,001, 21,w,Bildungswissenschaft und Psychologie,2023-01-18_15h12.15.485,00_bat_bachelor,2022.2.4,59.94039385204346,
,,,,1,0,1,0,2,0,2,0,,,,,,,,,,,,,,,2,2146.9415680283273,2147.1419601735834,0.2,2147.1419601735834,X,d,go,d,1,,0.4050687259878032,,,,,,,,,,,,,,,,,46,001, 21,w,Bildungswissenschaft und Psychologie,2023-01-18_15h12.15.485,00_bat_bachelor,2022.2.4,59.94039385204346,
,,,,1,0,1,0,3,0,3,0,,,,,,,,,,,,,,,3,2148.25925029855,2148.4596022013866,0.2,2148.4596022013866,Y,l,go,l,1,,0.3511114188004285,,,,,,,,,,,,,,,,,46,001, 21,w,Bildungswissenschaft und Psychologie,2023-01-18_15h12.15.485,00_bat_bachelor,2022.2.4,59.94039385204346,
,,,,1,0,1,0,4,0,4,0,,,,,,,,,,,,,,,4,2149.5267435021815,2149.7272491019394,0.2,2149.7272491019394,X,d,go,d,1,,0.47527523737517186,,,,,,,,,,,,,,,,,46,001, 21,w,Bildungswissenschaft und Psychologie,2023-01-18_15h12.15.485,00_bat_bachelor,2022.2.4,59.94039385204346,
,,,,1,0,1,0,5,0,5,0,,,,,,,,,,,,,,,5,2150.911414830829,2151.111646006466,0.2,2151.111646006466,Y,l,go,l,1,,0.40343527222285047,,,,,,,,,,,,,,,,,46,001, 21,w,Bildungswissenschaft und Psychologie,2023-01-18_15h12.15.485,00_bat_bachelor,2022.2.4,59.94039385204346,
,,,,1,0,1,0,6,0,6,0,,,,,,,,,,,,,,,6,2152.229849100666,2152.4299881551415,0.2,2152.4299881551415,Y,None,nogo,None,1,2153.2305933427415,,,,,,,,,,,,,,,,,,46,001, 21,w,Bildungswissenschaft und Psychologie,2023-01-18_15h12.15.485,00_bat_bachelor,2022.2.4,59.94039385204346,
,,,,1,0,1,0,7,0,7,0,,,,,,,,,,,,,,,7,2153.830907233496,2154.031173318217,0.2,2154.031173318217,X,d,go,d,1,,0.26666103550815023,,,,,,,,,,,,,,,,,46,001, 21,w,Bildungswissenschaft und Psychologie,2023-01-18_15h12.15.485,00_bat_bachelor,2022.2.4,59.94039385204346,
,,,,1,0,1,0,8,0,8,0,,,,,,,,,,,,,,,8,2155.015122416895,2155.215180986561,0.2,2155.215180986561,Y,l,go,l,1,,0.42698968504555523,,,,,,,,,,,,,,,,,46,001, 21,w,Bildungswissenschaft und Psychologie,2023-01-18_15h12.15.485,00_bat_bachelor,2022.2.4,59.94039385204346,
,,,,1,0,1,0,9,0,9,0,,,,,,,,,,,,,,,9,2156.366328064818,2156.566212089092,0.2,2156.566212089092,Y,None,nogo,None,1,2157.367100912903,,,,,,,,,,,,,,,,,,46,001, 21,w,Bildungswissenschaft und Psychologie,2023-01-18_15h12.15.485,00_bat_bachelor,2022.2.4,59.94039385204346,
,,,,1,0,1,0,10,0,10,0,,,,,,,,,,,,,,,10,2157.9673498340126,2158.167832161038,0.2,2158.167832161038,X,d,go,d,1,,0.257759221654851,,,,,,,,,,,,,,,,,46,001, 21,w,Bildungswissenschaft und Psychologie,2023-01-18_15h12.15.485,00_bat_bachelor,2022.2.4,59.94039385204346,
,,,,1,0,1,0,11,0,11,0,,,,,,,,,,,,,,,11,2159.151782714267,2159.351670617354,0.2,2159.351670617354,Y,l,go,l,1,,0.48195644628140144,,,,,,,,,,,,,,,,,46,001, 21,w,Bildungswissenschaft und Psychologie,2023-01-18_15h12.15.485,00_bat_bachelor,2022.2.4,59.94039385204346,
,,,,1,0,1,0,12,0,12,0,,,,,,,,,,,,,,,12,2160.552868095576,2160.752725938073,0.2,2160.752725938073,X,d,go,d,1,,0.5044504959660117,,,,,,,,,,,,,,,,,46,001, 21,w,Bildungswissenschaft und Psychologie,2023-01-18_15h12.15.485,00_bat_bachelor,2022.2.4,59.94039385204346,
,,,,1,0,1,0,13,0,13,0,,,,,,,,,,,,,,,13,2161.9872979455395,2162.187485000002,0.2,2162.187485000002,Y,l,go,l,1,,0.38281370647018775,,,,,,,,,,,,,,,,,46,001, 21,w,Bildungswissenschaft und Psychologie,2023-01-18_15h12.15.485,00_bat_bachelor,2022.2.4,59.94039385204346,
,,,,1,0,1,0,14,0,14,0,,,,,,,,,,,,,,,14,2163.2881108906004,2163.4881578239147,0.2,2163.4881578239147,X,d,go,d,1,,0.5379273282305803,,,,,,,,,,,,,,,,,46,001, 21,w,Bildungswissenschaft und Psychologie,2023-01-18_15h12.15.485,00_bat_bachelor,2022.2.4,59.94039385204346,
,,,,,,,,,,,,,,,,,,,,,,,,,,,,,,,,,,,,,,2164.8143845748273,None,,2164.8143845748273,2164.8143845748273,space,8.623259650485124,,,,,,,,,,46,001, 21,w,Bildungswissenschaft und Psychologie,2023-01-18_15h12.15.485,00_bat_bachelor,2022.2.4,59.94039385204346,
,,,,,,,,,,,,0,0,0,0,0,0,0,0,,,,,,,0,,,1,2174.463061108807,X,d,go,d,1,,0.29919289849931374,,,,,,,,,,,,,,,,,46,001, 21,w,Bildungswissenschaft und Psychologie,2023-01-18_15h12.15.485,00_bat_bachelor,2022.2.4,59.94039385204346,
,,,,,,,,,,,,0,0,0,0,1,0,1,0,,,,,,,1,,,1,2175.863945278077,Y,l,go,l,1,,0.37014510654262267,,,,,,,,,,,,,,,,,46,001, 21,w,Bildungswissenschaft und Psychologie,2023-01-18_15h12.15.485,00_bat_bachelor,2022.2.4,59.94039385204346,
,,,,,,,,,,,,0,0,0,0,2,0,2,0,,,,,,,2,,,1,2177.364968550304,X,d,go,d,1,,0.5181683074915782,,,,,,,,,,,,,,,,,46,001, 21,w,Bildungswissenschaft und Psychologie,2023-01-18_15h12.15.485,00_bat_bachelor,2022.2.4,59.94039385204346,
,,,,,,,,,,,,0,0,0,0,3,0,3,0,,,,,,,3,,,1,2178.999386666954,Y,l,go,l,1,,0.4035385448951274,,,,,,,,,,,,,,,,,46,001, 21,w,Bildungswissenschaft und Psychologie,2023-01-18_15h12.15.485,00_bat_bachelor,2022.2.4,59.94039385204346,
,,,,,,,,,,,,0,0,0,0,4,0,4,0,,,,,,,4,,,1,2180.5173539309762,X,d,go,d,1,,0.4208839910279494,,,,,,,,,,,,,,,,,46,001, 21,w,Bildungswissenschaft und Psychologie,2023-01-18_15h12.15.485,00_bat_bachelor,2022.2.4,59.94039385204346,
,,,,,,,,,,,,0,0,0,0,5,0,5,0,,,,,,,5,,,1,2182.051915126329,Y,l,go,l,1,,0.42252859627478756,,,,,,,,,,,,,,,,,46,001, 21,w,Bildungswissenschaft und Psychologie,2023-01-18_15h12.15.485,00_bat_bachelor,2022.2.4,59.94039385204346,
,,,,,,,,,,,,0,0,0,0,6,0,6,0,,,,,,,6,,,1,2183.586256685434,X,d,go,d,1,,0.34477202795096673,,,,,,,,,,,,,,,,,46,001, 21,w,Bildungswissenschaft und Psychologie,2023-01-18_15h12.15.485,00_bat_bachelor,2022.2.4,59.94039385204346,
,,,,,,,,,,,,0,0,0,0,7,0,7,0,,,,,,,7,,,1,2185.0374142848887,Y,l,go,l,1,,0.4301251986762509,,,,,,,,,,,,,,,,,46,001, 21,w,Bildungswissenschaft und Psychologie,2023-01-18_15h12.15.485,00_bat_bachelor,2022.2.4,59.94039385204346,
,,,,,,,,,,,,0,0,0,0,8,0,8,0,,,,,,,8,,,1,2186.571760692459,Y,None,nogo,None,1,,,,,,,,,,,,,,,,,,,46,001, 21,w,Bildungswissenschaft und Psychologie,2023-01-18_15h12.15.485,00_bat_bachelor,2022.2.4,59.94039385204346,
,,,,,,,,,,,,0,0,0,0,9,0,9,0,,,,,,,9,,,1,2188.373300667474,X,d,go,d,1,,0.3896617031423375,,,,,,,,,,,,,,,,,46,001, 21,w,Bildungswissenschaft und Psychologie,2023-01-18_15h12.15.485,00_bat_bachelor,2022.2.4,59.94039385204346,
,,,,,,,,,,,,0,0,0,0,10,0,10,0,,,,,,,10,,,1,2189.8744150911807,Y,l,go,l,1,,0.4889377762156073,,,,,,,,,,,,,,,,,46,001, 21,w,Bildungswissenschaft und Psychologie,2023-01-18_15h12.15.485,00_bat_bachelor,2022.2.4,59.94039385204346,
,,,,,,,,,,,,0,0,0,0,11,0,11,0,,,,,,,11,,,1,2191.4756516481575,Y,None,nogo,None,1,,,,,,,,,,,,,,,,,,,46,001, 21,w,Bildungswissenschaft und Psychologie,2023-01-18_15h12.15.485,00_bat_bachelor,2022.2.4,59.94039385204346,
,,,,,,,,,,,,0,0,0,0,12,0,12,0,,,,,,,12,,,1,2193.2771247141063,X,d,go,d,1,,0.30126223087427206,,,,,,,,,,,,,,,,,46,001, 21,w,Bildungswissenschaft und Psychologie,2023-01-18_15h12.15.485,00_bat_bachelor,2022.2.4,59.94039385204346,
,,,,,,,,,,,,0,0,0,0,13,0,13,0,,,,,,,13,,,1,2194.694484026899,Y,l,go,l,1,,0.45124082479742356,,,,,,,,,,,,,,,,,46,001, 21,w,Bildungswissenschaft und Psychologie,2023-01-18_15h12.15.485,00_bat_bachelor,2022.2.4,59.94039385204346,
,,,,,,,,,,,,0,0,0,0,14,0,14,0,,,,,,,14,,,1,2196.2626321150747,X,d,go,d,1,,0.4198507794062607,,,,,,,,,,,,,,,,,46,001, 21,w,Bildungswissenschaft und Psychologie,2023-01-18_15h12.15.485,00_bat_bachelor,2022.2.4,59.94039385204346,
,,,,,,,,,,,,0,0,0,0,15,0,15,0,,,,,,,15,,,1,2197.79718652257,Y,l,go,l,1,,0.45343573280842975,,,,,,,,,,,,,,,,,46,001, 21,w,Bildungswissenschaft und Psychologie,2023-01-18_15h12.15.485,00_bat_bachelor,2022.2.4,59.94039385204346,
,,,,,,,,,,,,0,0,0,0,16,0,16,0,,,,,,,16,,,1,2199.3649360654817,X,d,go,d,1,,0.4857203232240863,,,,,,,,,,,,,,,,,46,001, 21,w,Bildungswissenschaft und Psychologie,2023-01-18_15h12.15.485,00_bat_bachelor,2022.2.4,59.94039385204346,
,,,,,,,,,,,,0,0,0,0,17,0,17,0,,,,,,,17,,,1,2200.966271531506,Y,l,go,l,1,,0.4524354909081012,,,,,,,,,,,,,,,,,46,001, 21,w,Bildungswissenschaft und Psychologie,2023-01-18_15h12.15.485,00_bat_bachelor,2022.2.4,59.94039385204346,
,,,,,,,,,,,,0,0,0,0,18,0,18,0,,,,,,,18,,,1,2202.5346174377482,Y,None,nogo,None,1,2203.335610503942,,,,,,,,,,,,,,,,,,46,001, 21,w,Bildungswissenschaft und Psychologie,2023-01-18_15h12.15.485,00_bat_bachelor,2022.2.4,59.94039385204346,
,,,,,,,,,,,,0,0,0,0,19,0,19,0,,,,,,,19,,,1,2204.3361195946054,X,d,go,d,1,,0.26604042973485775,,,,,,,,,,,,,,,,,46,001, 21,w,Bildungswissenschaft und Psychologie,2023-01-18_15h12.15.485,00_bat_bachelor,2022.2.4,59.94039385204346,
,,,,,,,,,,,,0,0,0,0,20,0,20,0,,,,,,,20,,,1,2205.703625355818,Y,l,go,l,1,,0.35417469003004953,,,,,,,,,,,,,,,,,46,001, 21,w,Bildungswissenschaft und Psychologie,2023-01-18_15h12.15.485,00_bat_bachelor,2022.2.4,59.94039385204346,
,,,,,,,,,,,,0,0,0,0,21,0,21,0,,,,,,,21,,,1,2207.204858082492,Y,None,nogo,d,0,,0.2135604551876895,,,,,,,,,,,,,,,,,46,001, 21,w,Bildungswissenschaft und Psychologie,2023-01-18_15h12.15.485,00_bat_bachelor,2022.2.4,59.94039385204346,
,,,,,,,,,,,,0,0,0,0,22,0,22,0,,,,,,,22,,,1,2208.539471738419,X,d,go,d,1,,0.33477688126731664,,,,,,,,,,,,,,,,,46,001, 21,w,Bildungswissenschaft und Psychologie,2023-01-18_15h12.15.485,00_bat_bachelor,2022.2.4,59.94039385204346,
,,,,,,,,,,,,0,0,0,0,23,0,23,0,,,,,,,23,,,1,2210.0070012087235,Y,l,go,l,1,,0.3384903339901939,,,,,,,,,,,,,,,,,46,001, 21,w,Bildungswissenschaft und Psychologie,2023-01-18_15h12.15.485,00_bat_bachelor,2022.2.4,59.94039385204346,
,,,,,,,,,,,,0,0,0,0,24,0,24,0,,,,,,,24,,,1,2211.474931163655,X,d,go,d,1,,0.3115429531317204,,,,,,,,,,,,,,,,,46,001, 21,w,Bildungswissenschaft und Psychologie,2023-01-18_15h12.15.485,00_bat_bachelor,2022.2.4,59.94039385204346,
,,,,,,,,,,,,0,0,0,0,25,0,25,0,,,,,,,25,,,1,2212.9257784602232,Y,l,go,l,1,,0.3806711620418355,,,,,,,,,,,,,,,,,46,001, 21,w,Bildungswissenschaft und Psychologie,2023-01-18_15h12.15.485,00_bat_bachelor,2022.2.4,59.94039385204346,
,,,,,,,,,,,,0,0,0,0,26,0,26,0,,,,,,,26,,,1,2214.443730209081,Y,None,nogo,None,1,2215.244500245084,,,,,,,,,,,,,,,,,,46,001, 21,w,Bildungswissenschaft und Psychologie,2023-01-18_15h12.15.485,00_bat_bachelor,2022.2.4,59.94039385204346,
,,,,,,,,,,,,0,0,0,0,27,0,27,0,,,,,,,27,,,1,2216.2452629113686,X,d,go,d,1,,0.3092433178971987,,,,,,,,,,,,,,,,,46,001, 21,w,Bildungswissenschaft und Psychologie,2023-01-18_15h12.15.485,00_bat_bachelor,2022.2.4,59.94039385204346,
,,,,,,,,,,,,0,0,0,0,28,0,28,0,,,,,,,28,,,1,2217.67939845848,Y,l,go,l,1,,0.36258583748713136,,,,,,,,,,,,,,,,,46,001, 21,w,Bildungswissenschaft und Psychologie,2023-01-18_15h12.15.485,00_bat_bachelor,2022.2.4,59.94039385204346,
,,,,,,,,,,,,0,0,0,0,29,0,29,0,,,,,,,29,,,1,2219.1474234436755,X,d,go,d,1,,0.4782042056613136,,,,,,,,,,,,,,,,,46,001, 21,w,Bildungswissenschaft und Psychologie,2023-01-18_15h12.15.485,00_bat_bachelor,2022.2.4,59.94039385204346,
,,,,,,,,,,,,0,0,0,0,30,0,30,0,,,,,,,30,,,1,2220.7487395157514,X,None,nogo,d,0,,0.3812869193207007,,,,,,,,,,,,,,,,,46,001, 21,w,Bildungswissenschaft und Psychologie,2023-01-18_15h12.15.485,00_bat_bachelor,2022.2.4,59.94039385204346,
,,,,,,,,,,,,0,0,0,0,31,0,31,0,,,,,,,31,,,1,2222.2662330830353,Y,l,go,l,1,,0.6086749302630778,,,,,,,,,,,,,,,,,46,001, 21,w,Bildungswissenschaft und Psychologie,2023-01-18_15h12.15.485,00_bat_bachelor,2022.2.4,59.94039385204346,
,,,,,,,,,,,,0,0,0,0,32,0,32,0,,,,,,,32,,,1,2223.9843224318465,X,d,go,d,1,,0.4579293064016383,,,,,,,,,,,,,,,,,46,001, 21,w,Bildungswissenschaft und Psychologie,2023-01-18_15h12.15.485,00_bat_bachelor,2022.2.4,59.94039385204346,
,,,,,,,,,,,,0,0,0,0,33,0,33,0,,,,,,,33,,,1,2225.568865178735,Y,l,go,l,1,,0.5212839423620608,,,,,,,,,,,,,,,,,46,001, 21,w,Bildungswissenschaft und Psychologie,2023-01-18_15h12.15.485,00_bat_bachelor,2022.2.4,59.94039385204346,
,,,,,,,,,,,,0,0,0,0,34,0,34,0,,,,,,,34,,,1,2227.203210568143,Y,None,nogo,None,1,2228.0043757554376,,,,,,,,,,,,,,,,,,46,001, 21,w,Bildungswissenschaft und Psychologie,2023-01-18_15h12.15.485,00_bat_bachelor,2022.2.4,59.94039385204346,
,,,,,,,,,,,,0,0,0,0,35,0,35,0,,,,,,,35,,,1,2229.004710785579,X,d,go,d,1,,0.28608405639533885,,,,,,,,,,,,,,,,,46,001, 21,w,Bildungswissenschaft und Psychologie,2023-01-18_15h12.15.485,00_bat_bachelor,2022.2.4,59.94039385204346,
,,,,,,,,,,,,0,0,0,0,36,0,36,0,,,,,,,36,,,1,2230.4057462275086,Y,l,go,l,1,,0.4683579074044246,,,,,,,,,,,,,,,,,46,001, 21,w,Bildungswissenschaft und Psychologie,2023-01-18_15h12.15.485,00_bat_bachelor,2022.2.4,59.94039385204346,
,,,,,,,,,,,,0,0,0,0,37,0,37,0,,,,,,,37,,,1,2232.007070542022,Y,None,nogo,None,1,2232.807826032571,,,,,,,,,,,,,,,,,,46,001, 21,w,Bildungswissenschaft und Psychologie,2023-01-18_15h12.15.485,00_bat_bachelor,2022.2.4,59.94039385204346,
,,,,,,,,,,,,0,0,0,0,38,0,38,0,,,,,,,38,,,1,2233.8083850625844,X,d,go,d,1,,0.29716817222652026,,,,,,,,,,,,,,,,,46,001, 21,w,Bildungswissenschaft und Psychologie,2023-01-18_15h12.15.485,00_bat_bachelor,2022.2.4,59.94039385204346,
,,,,,,,,,,,,0,0,0,0,39,0,39,0,,,,,,,39,,,1,2235.22635479935,Y,l,go,l,1,,0.36813589540543035,,,,,,,,,,,,,,,,,46,001, 21,w,Bildungswissenschaft und Psychologie,2023-01-18_15h12.15.485,00_bat_bachelor,2022.2.4,59.94039385204346,
,,,,,,,,,,,,0,0,0,0,40,0,40,0,,,,,,,40,,,1,2236.7440301846946,Y,None,nogo,None,1,2237.5444487057102,,,,,,,,,,,,,,,,,,46,001, 21,w,Bildungswissenschaft und Psychologie,2023-01-18_15h12.15.485,00_bat_bachelor,2022.2.4,59.94039385204346,
,,,,,,,,,,,,0,0,0,0,41,0,41,0,,,,,,,41,,,1,2238.5452050689782,Y,None,nogo,None,1,2239.345836438384,,,,,,,,,,,,,,,,,,46,001, 21,w,Bildungswissenschaft und Psychologie,2023-01-18_15h12.15.485,00_bat_bachelor,2022.2.4,59.94039385204346,
,,,,,,,,,,,,0,0,0,0,42,0,42,0,,,,,,,42,,,1,2240.346631589491,X,d,go,d,1,,0.35187650931766257,,,,,,,,,,,,,,,,,46,001, 21,w,Bildungswissenschaft und Psychologie,2023-01-18_15h12.15.485,00_bat_bachelor,2022.2.4,59.94039385204346,
,,,,,,,,,,,,0,0,0,0,43,0,43,0,,,,,,,43,,,1,2241.8143792415212,Y,l,go,l,1,,0.48422699063667096,,,,,,,,,,,,,,,,,46,001, 21,w,Bildungswissenschaft und Psychologie,2023-01-18_15h12.15.485,00_bat_bachelor,2022.2.4,59.94039385204346,
,,,,,,,,,,,,0,0,0,0,44,0,44,0,,,,,,,44,,,1,2243.41529337439,X,d,go,d,1,,0.38744691634201445,,,,,,,,,,,,,,,,,46,001, 21,w,Bildungswissenschaft und Psychologie,2023-01-18_15h12.15.485,00_bat_bachelor,2022.2.4,59.94039385204346,
,,,,,,,,,,,,0,0,0,0,45,0,45,0,,,,,,,45,,,1,2244.916461131419,Y,l,go,l,1,,0.2794493929541204,,,,,,,,,,,,,,,,,46,001, 21,w,Bildungswissenschaft und Psychologie,2023-01-18_15h12.15.485,00_bat_bachelor,2022.2.4,59.94039385204346,
,,,,,,,,,,,,0,0,0,0,46,0,46,0,,,,,,,46,,,1,2246.3005860360863,Y,None,nogo,None,1,,,,,,,,,,,,,,,,,,,46,001, 21,w,Bildungswissenschaft und Psychologie,2023-01-18_15h12.15.485,00_bat_bachelor,2022.2.4,59.94039385204346,
,,,,,,,,,,,,0,0,0,0,47,0,47,0,,,,,,,47,,,1,2248.102224435279,X,d,go,d,1,,0.3722663176304195,,,,,,,,,,,,,,,,,46,001, 21,w,Bildungswissenschaft und Psychologie,2023-01-18_15h12.15.485,00_bat_bachelor,2022.2.4,59.94039385204346,
,,,,,,,,,,,,0,0,0,0,48,0,48,0,,,,,,,48,,,1,2249.586653291306,Y,l,go,l,1,,0.32920936882146634,,,,,,,,,,,,,,,,,46,001, 21,w,Bildungswissenschaft und Psychologie,2023-01-18_15h12.15.485,00_bat_bachelor,2022.2.4,59.94039385204346,
,,,,,,,,,,,,0,0,0,0,49,0,49,0,,,,,,,49,,,1,2251.0209653231723,Y,None,nogo,None,1,2251.8213343896496,,,,,,,,,,,,,,,,,,46,001, 21,w,Bildungswissenschaft und Psychologie,2023-01-18_15h12.15.485,00_bat_bachelor,2022.2.4,59.94039385204346,
,,,,,,,,,,,,0,0,0,0,50,0,50,0,,,,,,,50,,,1,2252.822067480214,X,d,go,d,1,,0.2924505987612065,,,,,,,,,,,,,,,,,46,001, 21,w,Bildungswissenschaft und Psychologie,2023-01-18_15h12.15.485,00_bat_bachelor,2022.2.4,59.94039385204346,
,,,,,,,,,,,,0,0,0,0,51,0,51,0,,,,,,,51,,,1,2254.22316934634,Y,l,go,l,1,,0.4123913890798576,,,,,,,,,,,,,,,,,46,001, 21,w,Bildungswissenschaft und Psychologie,2023-01-18_15h12.15.485,00_bat_bachelor,2022.2.4,59.94039385204346,
,,,,,,,,,,,,0,0,0,0,52,0,52,0,,,,,,,52,,,1,2255.7413460648095,X,d,go,d,1,,0.5738734926271718,,,,,,,,,,,,,,,,,46,001, 21,w,Bildungswissenschaft und Psychologie,2023-01-18_15h12.15.485,00_bat_bachelor,2022.2.4,59.94039385204346,
,,,,,,,,,,,,0,0,0,0,53,0,53,0,,,,,,,53,,,1,2257.425945490453,X,None,nogo,None,1,,,,,,,,,,,,,,,,,,,46,001, 21,w,Bildungswissenschaft und Psychologie,2023-01-18_15h12.15.485,00_bat_bachelor,2022.2.4,59.94039385204346,
,,,,,,,,,,,,0,0,0,0,54,0,54,0,,,,,,,54,,,1,2259.227034556592,X,None,nogo,None,1,,,,,,,,,,,,,,,,,,,46,001, 21,w,Bildungswissenschaft und Psychologie,2023-01-18_15h12.15.485,00_bat_bachelor,2022.2.4,59.94039385204346,
,,,,,,,,,,,,0,0,0,0,55,0,55,0,,,,,,,55,,,1,2261.028381077136,Y,l,go,l,1,,0.3272103394847363,,,,,,,,,,,,,,,,,46,001, 21,w,Bildungswissenschaft und Psychologie,2023-01-18_15h12.15.485,00_bat_bachelor,2022.2.4,59.94039385204346,
,,,,,,,,,,,,0,0,0,0,56,0,56,0,,,,,,,56,,,1,2262.462999533076,X,d,go,d,1,,0.4269819274486508,,,,,,,,,,,,,,,,,46,001, 21,w,Bildungswissenschaft und Psychologie,2023-01-18_15h12.15.485,00_bat_bachelor,2022.2.4,59.94039385204346,
,,,,,,,,,,,,0,0,0,0,57,0,57,0,,,,,,,57,,,1,2263.9973963648954,Y,l,go,l,1,,0.33313518506474793,,,,,,,,,,,,,,,,,46,001, 21,w,Bildungswissenschaft und Psychologie,2023-01-18_15h12.15.485,00_bat_bachelor,2022.2.4,59.94039385204346,
,,,,,,,,,,,,0,0,0,0,58,0,58,0,,,,,,,58,,,1,2265.4318140936666,X,d,go,d,1,,0.3388738489593379,,,,,,,,,,,,,,,,,46,001, 21,w,Bildungswissenschaft und Psychologie,2023-01-18_15h12.15.485,00_bat_bachelor,2022.2.4,59.94039385204346,
,,,,,,,,,,,,0,0,0,0,59,0,59,0,,,,,,,59,,,1,2266.883278117195,Y,l,go,l,1,,0.24895195319550112,,,,,,,,,,,,,,,,,46,001, 21,w,Bildungswissenschaft und Psychologie,2023-01-18_15h12.15.485,00_bat_bachelor,2022.2.4,59.94039385204346,
,,,,,,,,,,,,0,0,0,0,60,0,60,0,,,,,,,60,,,1,2268.234098310728,X,d,go,d,1,,0.336647425807314,,,,,,,,,,,,,,,,,46,001, 21,w,Bildungswissenschaft und Psychologie,2023-01-18_15h12.15.485,00_bat_bachelor,2022.2.4,59.94039385204346,
,,,,,,,,,,,,0,0,0,0,61,0,61,0,,,,,,,61,,,1,2269.68521227382,X,None,nogo,None,1,2270.485937703779,,,,,,,,,,,,,,,,,,46,001, 21,w,Bildungswissenschaft und Psychologie,2023-01-18_15h12.15.485,00_bat_bachelor,2022.2.4,59.94039385204346,
,,,,,,,,,,,,0,0,0,0,62,0,62,0,,,,,,,62,,,1,2271.4865141883492,Y,l,go,l,1,,0.4128616918751504,,,,,,,,,,,,,,,,,46,001, 21,w,Bildungswissenschaft und Psychologie,2023-01-18_15h12.15.485,00_bat_bachelor,2022.2.4,59.94039385204346,
,,,,,,,,,,,,0,0,0,0,63,0,63,0,,,,,,,63,,,1,2273.0044596341904,X,d,go,d,1,,0.366778320283629,,,,,,,,,,,,,,,,,46,001, 21,w,Bildungswissenschaft und Psychologie,2023-01-18_15h12.15.485,00_bat_bachelor,2022.2.4,59.94039385204346,
,,,,,,,,,,,,0,0,0,0,64,0,64,0,,,,,,,64,,,1,2274.472267892241,X,None,nogo,None,1,,,,,,,,,,,,,,,,,,,46,001, 21,w,Bildungswissenschaft und Psychologie,2023-01-18_15h12.15.485,00_bat_bachelor,2022.2.4,59.94039385204346,
,,,,,,,,,,,,0,0,0,0,65,0,65,0,,,,,,,65,,,1,2276.273604715825,Y,l,go,l,1,,0.5688591920188628,,,,,,,,,,,,,,,,,46,001, 21,w,Bildungswissenschaft und Psychologie,2023-01-18_15h12.15.485,00_bat_bachelor,2022.2.4,59.94039385204346,
,,,,,,,,,,,,0,0,0,0,66,0,66,0,,,,,,,66,,,1,2277.9582691111427,X,d,go,d,1,,0.29403362827724777,,,,,,,,,,,,,,,,,46,001, 21,w,Bildungswissenschaft und Psychologie,2023-01-18_15h12.15.485,00_bat_bachelor,2022.2.4,59.94039385204346,
,,,,,,,,,,,,0,0,0,0,67,0,67,0,,,,,,,67,,,1,2279.359264310653,X,None,nogo,None,1,,,,,,,,,,,,,,,,,,,46,001, 21,w,Bildungswissenschaft und Psychologie,2023-01-18_15h12.15.485,00_bat_bachelor,2022.2.4,59.94039385204346,
,,,,,,,,,,,,0,0,0,0,68,0,68,0,,,,,,,68,,,1,2281.160464891902,Y,l,go,l,1,,0.36958365226746537,,,,,,,,,,,,,,,,,46,001, 21,w,Bildungswissenschaft und Psychologie,2023-01-18_15h12.15.485,00_bat_bachelor,2022.2.4,59.94039385204346,
,,,,,,,,,,,,0,0,0,0,69,0,69,0,,,,,,,69,,,1,2282.644943687308,X,d,go,d,1,,0.4856233535683714,,,,,,,,,,,,,,,,,46,001, 21,w,Bildungswissenschaft und Psychologie,2023-01-18_15h12.15.485,00_bat_bachelor,2022.2.4,59.94039385204346,
,,,,,,,,,,,,0,0,0,0,70,0,70,0,,,,,,,70,,,1,2284.2460682443343,X,None,nogo,None,1,,,,,,,,,,,,,,,,,,,46,001, 21,w,Bildungswissenschaft und Psychologie,2023-01-18_15h12.15.485,00_bat_bachelor,2022.2.4,59.94039385204346,
,,,,,,,,,,,,0,0,0,0,71,0,71,0,,,,,,,71,,,1,2286.0476504011312,Y,l,go,l,1,,0.4421659201034345,,,,,,,,,,,,,,,,,46,001, 21,w,Bildungswissenschaft und Psychologie,2023-01-18_15h12.15.485,00_bat_bachelor,2022.2.4,59.94039385204346,
,,,,,,,,,,,,0,0,0,0,72,0,72,0,,,,,,,72,,,1,2287.598989285325,X,d,go,d,1,,0.2354043233790435,,,,,,,,,,,,,,,,,46,001, 21,w,Bildungswissenschaft und Psychologie,2023-01-18_15h12.15.485,00_bat_bachelor,2022.2.4,59.94039385204346,
,,,,,,,,,,,,0,0,0,0,73,0,73,0,,,,,,,73,,,1,2288.9499161455024,Y,l,go,l,1,,0.22914881125325337,,,,,,,,,,,,,,,,,46,001, 21,w,Bildungswissenschaft und Psychologie,2023-01-18_15h12.15.485,00_bat_bachelor,2022.2.4,59.94039385204346,
,,,,,,,,,,,,0,0,0,0,74,0,74,0,,,,,,,74,,,1,2290.284001316846,X,d,go,d,1,,0.46344930373015814,,,,,,,,,,,,,,,,,46,001, 21,w,Bildungswissenschaft und Psychologie,2023-01-18_15h12.15.485,00_bat_bachelor,2022.2.4,59.94039385204346,
,,,,,,,,,,,,0,0,0,0,75,0,75,0,,,,,,,75,,,1,2291.852353526134,Y,l,go,l,1,,0.2857495110947639,,,,,,,,,,,,,,,,,46,001, 21,w,Bildungswissenschaft und Psychologie,2023-01-18_15h12.15.485,00_bat_bachelor,2022.2.4,59.94039385204346,
,,,,,,,,,,,,0,0,0,0,76,0,76,0,,,,,,,76,,,1,2293.2703838688903,X,d,go,d,1,,0.29134659928968176,,,,,,,,,,,,,,,,,46,001, 21,w,Bildungswissenschaft und Psychologie,2023-01-18_15h12.15.485,00_bat_bachelor,2022.2.4,59.94039385204346,
,,,,,,,,,,,,0,0,0,0,77,0,77,0,,,,,,,77,,,1,2294.6880830603186,Y,l,go,l,1,,0.23350129401660524,,,,,,,,,,,,,,,,,46,001, 21,w,Bildungswissenschaft und Psychologie,2023-01-18_15h12.15.485,00_bat_bachelor,2022.2.4,59.94039385204346,
,,,,,,,,,,,,0,0,0,0,78,0,78,0,,,,,,,78,,,1,2296.055899124418,Y,None,nogo,None,1,2296.85674867552,,,,,,,,,,,,,,,,,,46,001, 21,w,Bildungswissenschaft und Psychologie,2023-01-18_15h12.15.485,00_bat_bachelor,2022.2.4,59.94039385204346,
,,,,,,,,,,,,0,0,0,0,79,0,79,0,,,,,,,79,,,1,2297.8575244327076,X,d,go,d,1,,0.3757790431845933,,,,,,,,,,,,,,,,,46,001, 21,w,Bildungswissenschaft und Psychologie,2023-01-18_15h12.15.485,00_bat_bachelor,2022.2.4,59.94039385204346,
,,,,,,,,,,,,0,0,0,0,80,0,80,0,,,,,,,80,,,1,2299.3582994626486,Y,l,go,l,1,,0.42795647244201973,,,,,,,,,,,,,,,,,46,001, 21,w,Bildungswissenschaft und Psychologie,2023-01-18_15h12.15.485,00_bat_bachelor,2022.2.4,59.94039385204346,
,,,,,,,,,,,,0,0,0,0,81,0,81,0,,,,,,,81,,,1,2300.909759074042,X,d,go,d,1,,0.283926481672097,,,,,,,,,,,,,,,,,46,001, 21,w,Bildungswissenschaft und Psychologie,2023-01-18_15h12.15.485,00_bat_bachelor,2022.2.4,59.94039385204346,
,,,,,,,,,,,,0,0,0,0,82,0,82,0,,,,,,,82,,,1,2302.3275731744943,Y,l,go,l,1,,0.3861596442584414,,,,,,,,,,,,,,,,,46,001, 21,w,Bildungswissenschaft und Psychologie,2023-01-18_15h12.15.485,00_bat_bachelor,2022.2.4,59.94039385204346,
,,,,,,,,,,,,0,0,0,0,83,0,83,0,,,,,,,83,,,1,2303.861563703482,X,d,go,d,1,,0.3089179847156629,,,,,,,,,,,,,,,,,46,001, 21,w,Bildungswissenschaft und Psychologie,2023-01-18_15h12.15.485,00_bat_bachelor,2022.2.4,59.94039385204346,
,,,,,,,,,,,,0,0,0,0,84,0,84,0,,,,,,,84,,,1,2305.279303622141,Y,l,go,l,1,,0.25142758834408596,,,,,,,,,,,,,,,,,46,001, 21,w,Bildungswissenschaft und Psychologie,2023-01-18_15h12.15.485,00_bat_bachelor,2022.2.4,59.94039385204346,
,,,,,,,,,,,,0,0,0,0,85,0,85,0,,,,,,,85,,,1,2306.6469912014436,X,d,go,d,1,,0.38767915865173563,,,,,,,,,,,,,,,,,46,001, 21,w,Bildungswissenschaft und Psychologie,2023-01-18_15h12.15.485,00_bat_bachelor,2022.2.4,59.94039385204346,
,,,,,,,,,,,,0,0,0,0,86,0,86,0,,,,,,,86,,,1,2308.1479853827914,Y,l,go,l,1,,0.2306945074815303,,,,,,,,,,,,,,,,,46,001, 21,w,Bildungswissenschaft und Psychologie,2023-01-18_15h12.15.485,00_bat_bachelor,2022.2.4,59.94039385204346,
,,,,,,,,,,,,0,0,0,0,87,0,87,0,,,,,,,87,,,1,2309.4992424246157,Y,None,nogo,d,0,,0.2867919348354917,,,,,,,,,,,,,,,,,46,001, 21,w,Bildungswissenschaft und Psychologie,2023-01-18_15h12.15.485,00_bat_bachelor,2022.2.4,59.94039385204346,
,,,,,,,,,,,,0,0,0,0,88,0,88,0,,,,,,,88,,,1,2310.900146472646,X,d,go,d,1,,0.29554877907503396,,,,,,,,,,,,,,,,,46,001, 21,w,Bildungswissenschaft und Psychologie,2023-01-18_15h12.15.485,00_bat_bachelor,2022.2.4,59.94039385204346,
,,,,,,,,,,,,0,0,0,0,89,0,89,0,,,,,,,89,,,1,2312.301129550964,Y,l,go,l,1,,0.23720650433097035,,,,,,,,,,,,,,,,,46,001, 21,w,Bildungswissenschaft und Psychologie,2023-01-18_15h12.15.485,00_bat_bachelor,2022.2.4,59.94039385204346,
,,,,,,,,,,,,0,0,0,0,90,0,90,0,,,,,,,90,,,1,2313.652166956512,X,d,go,d,1,,0.3272171273420099,,,,,,,,,,,,,,,,,46,001, 21,w,Bildungswissenschaft und Psychologie,2023-01-18_15h12.15.485,00_bat_bachelor,2022.2.4,59.94039385204346,
,,,,,,,,,,,,0,0,0,0,91,0,91,0,,,,,,,91,,,1,2315.0865594731877,Y,l,go,l,1,,0.3005252615257632,,,,,,,,,,,,,,,,,46,001, 21,w,Bildungswissenschaft und Psychologie,2023-01-18_15h12.15.485,00_bat_bachelor,2022.2.4,59.94039385204346,
,,,,,,,,,,,,0,0,0,0,92,0,92,0,,,,,,,92,,,1,2316.4876312787237,X,d,go,d,1,,0.3711148030415643,,,,,,,,,,,,,,,,,46,001, 21,w,Bildungswissenschaft und Psychologie,2023-01-18_15h12.15.485,00_bat_bachelor,2022.2.4,59.94039385204346,
,,,,,,,,,,,,0,0,0,0,93,0,93,0,,,,,,,93,,,1,2317.9728897101013,Y,l,go,l,1,,0.19786688705789857,,,,,,,,,,,,,,,,,46,001, 21,w,Bildungswissenschaft und Psychologie,2023-01-18_15h12.15.485,00_bat_bachelor,2022.2.4,59.94039385204346,
,,,,,,,,,,,,0,0,0,0,94,0,94,0,,,,,,,94,,,1,2319.2904890712816,Y,None,nogo,None,1,2320.0910530467518,,,,,,,,,,,,,,,,,,46,001, 21,w,Bildungswissenschaft und Psychologie,2023-01-18_15h12.15.485,00_bat_bachelor,2022.2.4,59.94039385204346,
,,,,,,,,,,,,0,0,0,0,95,0,95,0,,,,,,,95,,,1,2321.0917337737046,X,d,go,d,1,,0.16570981172844768,,,,,,,,,,,,,,,,,46,001, 21,w,Bildungswissenschaft und Psychologie,2023-01-18_15h12.15.485,00_bat_bachelor,2022.2.4,59.94039385204346,
,,,,,,,,,,,,0,0,0,0,96,0,96,0,,,,,,,96,,,1,2322.3929622337164,Y,l,go,l,1,,0.2732816383650061,,,,,,,,,,,,,,,,,46,001, 21,w,Bildungswissenschaft und Psychologie,2023-01-18_15h12.15.485,00_bat_bachelor,2022.2.4,59.94039385204346,
,,,,,,,,,,,,0,0,0,0,97,0,97,0,,,,,,,97,,,1,2323.793807130278,X,d,go,d,1,,0.20138833986129612,,,,,,,,,,,,,,,,,46,001, 21,w,Bildungswissenschaft und Psychologie,2023-01-18_15h12.15.485,00_bat_bachelor,2022.2.4,59.94039385204346,
,,,,,,,,,,,,0,0,0,0,98,0,98,0,,,,,,,98,,,1,2325.1113778853905,X,None,nogo,l,0,,0.3068680463184137,,,,,,,,,,,,,,,,,46,001, 21,w,Bildungswissenschaft und Psychologie,2023-01-18_15h12.15.485,00_bat_bachelor,2022.2.4,59.94039385204346,
,,,,,,,,,,,,0,0,0,0,99,0,99,0,,,,,,,99,,,1,2326.5459313716565,Y,l,go,None,0,2327.3467086803867,,,,,,,,,,,,,,,,,,46,001, 21,w,Bildungswissenschaft und Psychologie,2023-01-18_15h12.15.485,00_bat_bachelor,2022.2.4,59.94039385204346,
,,,,,,,,,,,,0,0,0,0,100,0,100,0,,,,,,,100,,,1,2328.347167831671,X,d,go,d,1,,0.23923753364942968,,,,,,,,,,,,,,,,,46,001, 21,w,Bildungswissenschaft und Psychologie,2023-01-18_15h12.15.485,00_bat_bachelor,2022.2.4,59.94039385204346,
,,,,,,,,,,,,0,0,0,0,101,0,101,0,,,,,,,101,,,1,2329.71506389571,X,None,nogo,l,0,,0.2000928253692109,,,,,,,,,,,,,,,,,46,001, 21,w,Bildungswissenschaft und Psychologie,2023-01-18_15h12.15.485,00_bat_bachelor,2022.2.4,59.94039385204346,
,,,,,,,,,,,,0,0,0,0,102,0,102,0,,,,,,,102,,,1,2331.032756832603,Y,l,go,l,1,,0.5616858621651772,,,,,,,,,,,,,,,,,46,001, 21,w,Bildungswissenschaft und Psychologie,2023-01-18_15h12.15.485,00_bat_bachelor,2022.2.4,59.94039385204346,
,,,,,,,,,,,,0,0,0,0,103,0,103,0,,,,,,,103,,,1,2332.717253470415,X,d,go,d,1,,0.3003361706796568,,,,,,,,,,,,,,,,,46,001, 21,w,Bildungswissenschaft und Psychologie,2023-01-18_15h12.15.485,00_bat_bachelor,2022.2.4,59.94039385204346,
,,,,,,,,,,,,0,0,0,0,104,0,104,0,,,,,,,104,,,1,2334.134910480032,X,None,nogo,None,1,2334.9358298493025,,,,,,,,,,,,,,,,,,46,001, 21,w,Bildungswissenschaft und Psychologie,2023-01-18_15h12.15.485,00_bat_bachelor,2022.2.4,59.94039385204346,
,,,,,,,,,,,,0,0,0,0,105,0,105,0,,,,,,,105,,,1,2335.9363976065943,Y,l,go,l,1,,0.37795552698662505,,,,,,,,,,,,,,,,,46,001, 21,w,Bildungswissenschaft und Psychologie,2023-01-18_15h12.15.485,00_bat_bachelor,2022.2.4,59.94039385204346,
,,,,,,,,,,,,0,0,0,0,106,0,106,0,,,,,,,106,,,1,2337.4208817353356,X,d,go,d,1,,0.3335395485337358,,,,,,,,,,,,,,,,,46,001, 21,w,Bildungswissenschaft und Psychologie,2023-01-18_15h12.15.485,00_bat_bachelor,2022.2.4,59.94039385204346,
,,,,,,,,,,,,0,0,0,0,107,0,107,0,,,,,,,107,,,1,2338.8719588499516,Y,l,go,l,1,,0.4015176974062342,,,,,,,,,,,,,,,,,46,001, 21,w,Bildungswissenschaft und Psychologie,2023-01-18_15h12.15.485,00_bat_bachelor,2022.2.4,59.94039385204346,
,,,,,,,,,,,,0,0,0,0,108,0,108,0,,,,,,,108,,,1,2340.406311075727,Y,None,nogo,None,1,2341.207290566148,,,,,,,,,,,,,,,,,,46,001, 21,w,Bildungswissenschaft und Psychologie,2023-01-18_15h12.15.485,00_bat_bachelor,2022.2.4,59.94039385204346,
,,,,,,,,,,,,0,0,0,0,109,0,109,0,,,,,,,109,,,1,2342.2080333536724,X,d,go,d,1,,0.2502702555793803,,,,,,,,,,,,,,,,,46,001, 21,w,Bildungswissenschaft und Psychologie,2023-01-18_15h12.15.485,00_bat_bachelor,2022.2.4,59.94039385204346,
,,,,,,,,,,,,0,0,0,0,110,0,110,0,,,,,,,110,,,1,2343.5756084481836,Y,l,go,l,1,,0.37042534883948974,,,,,,,,,,,,,,,,,46,001, 21,w,Bildungswissenschaft und Psychologie,2023-01-18_15h12.15.485,00_bat_bachelor,2022.2.4,59.94039385204346,
,,,,,,,,,,,,0,0,0,0,111,0,111,0,,,,,,,111,,,1,2345.093461288023,Y,None,nogo,None,1,2345.894107202854,,,,,,,,,,,,,,,,,,46,001, 21,w,Bildungswissenschaft und Psychologie,2023-01-18_15h12.15.485,00_bat_bachelor,2022.2.4,59.94039385204346,
,,,,,,,,,,,,0,0,0,0,112,0,112,0,,,,,,,112,,,1,2346.894516899629,X,d,go,d,1,,0.2991667167225387,,,,,,,,,,,,,,,,,46,001, 21,w,Bildungswissenschaft und Psychologie,2023-01-18_15h12.15.485,00_bat_bachelor,2022.2.4,59.94039385204346,
,,,,,,,,,,,,0,0,0,0,113,0,113,0,,,,,,,113,,,1,2348.3122553637368,Y,l,go,l,1,,0.2742649106075987,,,,,,,,,,,,,,,,,46,001, 21,w,Bildungswissenschaft und Psychologie,2023-01-18_15h12.15.485,00_bat_bachelor,2022.2.4,59.94039385204346,
,,,,,,,,,,,,0,0,0,0,114,0,114,0,,,,,,,114,,,1,2349.696891783329,X,d,go,d,1,,0.37730776972603053,,,,,,,,,,,,,,,,,46,001, 21,w,Bildungswissenschaft und Psychologie,2023-01-18_15h12.15.485,00_bat_bachelor,2022.2.4,59.94039385204346,
,,,,,,,,,,,,0,0,0,0,115,0,115,0,,,,,,,115,,,1,2351.197681843536,Y,l,go,l,1,,0.34842293526162393,,,,,,,,,,,,,,,,,46,001, 21,w,Bildungswissenschaft und Psychologie,2023-01-18_15h12.15.485,00_bat_bachelor,2022.2.4,59.94039385204346,
,,,,,,,,,,,,0,0,0,0,116,0,116,0,,,,,,,116,,,1,2352.648649867304,X,d,go,d,1,,0.33712742559146136,,,,,,,,,,,,,,,,,46,001, 21,w,Bildungswissenschaft und Psychologie,2023-01-18_15h12.15.485,00_bat_bachelor,2022.2.4,59.94039385204346,
,,,,,,,,,,,,0,0,0,0,117,0,117,0,,,,,,,117,,,1,2354.1167446706677,Y,l,go,l,1,,0.2774324242200237,,,,,,,,,,,,,,,,,46,001, 21,w,Bildungswissenschaft und Psychologie,2023-01-18_15h12.15.485,00_bat_bachelor,2022.2.4,59.94039385204346,
,,,,,,,,,,,,0,0,0,0,118,0,118,0,,,,,,,118,,,1,2355.517756839865,Y,None,nogo,None,1,2356.318207845703,,,,,,,,,,,,,,,,,,46,001, 21,w,Bildungswissenschaft und Psychologie,2023-01-18_15h12.15.485,00_bat_bachelor,2022.2.4,59.94039385204346,
,,,,,,,,,,,,0,0,0,0,119,0,119,0,,,,,,,119,,,1,2357.3188851787127,X,d,go,d,1,,0.2758266068121884,,,,,,,,,,,,,,,,,46,001, 21,w,Bildungswissenschaft und Psychologie,2023-01-18_15h12.15.485,00_bat_bachelor,2022.2.4,59.94039385204346,
,,,,,,,,,,,,0,0,0,0,120,0,120,0,,,,,,,120,,,1,2358.703526931611,Y,l,go,l,1,,0.3475899659388233,,,,,,,,,,,,,,,,,46,001, 21,w,Bildungswissenschaft und Psychologie,2023-01-18_15h12.15.485,00_bat_bachelor,2022.2.4,59.94039385204346,
,,,,,,,,,,,,0,0,0,0,121,0,121,0,,,,,,,121,,,1,2360.15439507665,X,d,go,d,1,,0.3359797897574026,,,,,,,,,,,,,,,,,46,001, 21,w,Bildungswissenschaft und Psychologie,2023-01-18_15h12.15.485,00_bat_bachelor,2022.2.4,59.94039385204346,
,,,,,,,,,,,,0,0,0,0,122,0,122,0,,,,,,,122,,,1,2361.605798978999,Y,l,go,l,1,,0.27672987908590585,,,,,,,,,,,,,,,,,46,001, 21,w,Bildungswissenschaft und Psychologie,2023-01-18_15h12.15.485,00_bat_bachelor,2022.2.4,59.94039385204346,
,,,,,,,,,,,,0,0,0,0,123,0,123,0,,,,,,,123,,,1,2362.9901682471973,X,d,go,d,1,,0.33299554881523363,,,,,,,,,,,,,,,,,46,001, 21,w,Bildungswissenschaft und Psychologie,2023-01-18_15h12.15.485,00_bat_bachelor,2022.2.4,59.94039385204346,
,,,,,,,,,,,,0,0,0,0,124,0,124,0,,,,,,,124,,,1,2364.424527794152,X,None,nogo,l,0,,0.3534963873680681,,,,,,,,,,,,,,,,,46,001, 21,w,Bildungswissenschaft und Psychologie,2023-01-18_15h12.15.485,00_bat_bachelor,2022.2.4,59.94039385204346,
,,,,,,,,,,,,0,0,0,0,125,0,125,0,,,,,,,125,,,1,2365.908984286536,Y,l,go,l,1,,0.5658221025951207,,,,,,,,,,,,,,,,,46,001, 21,w,Bildungswissenschaft und Psychologie,2023-01-18_15h12.15.485,00_bat_bachelor,2022.2.4,59.94039385204346,
,,,,,,,,,,,,0,0,0,0,126,0,126,0,,,,,,,126,,,1,2367.5769917202415,X,d,go,d,1,,0.3367754257633351,,,,,,,,,,,,,,,,,46,001, 21,w,Bildungswissenschaft und Psychologie,2023-01-18_15h12.15.485,00_bat_bachelor,2022.2.4,59.94039385204346,
,,,,,,,,,,,,0,0,0,0,127,0,127,0,,,,,,,127,,,1,2369.0447500389128,Y,l,go,l,1,,0.40640642229118384,,,,,,,,,,,,,,,,,46,001, 21,w,Bildungswissenschaft und Psychologie,2023-01-18_15h12.15.485,00_bat_bachelor,2022.2.4,59.94039385204346,
,,,,,,,,,,,,0,0,0,0,128,0,128,0,,,,,,,128,,,1,2370.5626057878253,X,d,go,d,1,,0.3116956803423818,,,,,,,,,,,,,,,,,46,001, 21,w,Bildungswissenschaft und Psychologie,2023-01-18_15h12.15.485,00_bat_bachelor,2022.2.4,59.94039385204346,
,,,,,,,,,,,,0,0,0,0,129,0,129,0,,,,,,,129,,,1,2371.9967752742814,X,None,nogo,None,1,2372.797516704217,,,,,,,,,,,,,,,,,,46,001, 21,w,Bildungswissenschaft und Psychologie,2023-01-18_15h12.15.485,00_bat_bachelor,2022.2.4,59.94039385204346,
,,,,,,,,,,,,0,0,0,0,130,0,130,0,,,,,,,130,,,1,2373.7982551281166,Y,l,go,l,1,,0.3566469312645495,,,,,,,,,,,,,,,,,46,001, 21,w,Bildungswissenschaft und Psychologie,2023-01-18_15h12.15.485,00_bat_bachelor,2022.2.4,59.94039385204346,
,,,,,,,,,,,,0,0,0,0,131,0,131,0,,,,,,,131,,,1,2375.265923749859,X,d,go,d,1,,0.3448825733503327,,,,,,,,,,,,,,,,,46,001, 21,w,Bildungswissenschaft und Psychologie,2023-01-18_15h12.15.485,00_bat_bachelor,2022.2.4,59.94039385204346,
,,,,,,,,,,,,0,0,0,0,132,0,132,0,,,,,,,132,,,1,2376.7170299553836,X,None,nogo,None,1,2377.517799506517,,,,,,,,,,,,,,,,,,46,001, 21,w,Bildungswissenschaft und Psychologie,2023-01-18_15h12.15.485,00_bat_bachelor,2022.2.4,59.94039385204346,
,,,,,,,,,,,,0,0,0,0,133,0,133,0,,,,,,,133,,,1,2378.5185878697666,X,None,nogo,None,1,2379.3190989967843,,,,,,,,,,,,,,,,,,46,001, 21,w,Bildungswissenschaft und Psychologie,2023-01-18_15h12.15.485,00_bat_bachelor,2022.2.4,59.94039385204346,
,,,,,,,,,,,,0,0,0,0,134,0,134,0,,,,,,,134,,,1,2380.3197942691913,Y,l,go,l,1,,0.3629286251962185,,,,,,,,,,,,,,,,,46,001, 21,w,Bildungswissenschaft und Psychologie,2023-01-18_15h12.15.485,00_bat_bachelor,2022.2.4,59.94039385204346,
,,,,,,,,,,,,0,0,0,0,135,0,135,0,,,,,,,135,,,1,2381.7878008301486,X,d,go,d,1,,0.5743854923639446,,,,,,,,,,,,,,,,,46,001, 21,w,Bildungswissenschaft und Psychologie,2023-01-18_15h12.15.485,00_bat_bachelor,2022.2.4,59.94039385204346,
,,,,,,,,,,,,0,0,0,0,136,0,136,0,,,,,,,136,,,1,2383.4723706800432,Y,l,go,l,1,,0.346523784683086,,,,,,,,,,,,,,,,,46,001, 21,w,Bildungswissenschaft und Psychologie,2023-01-18_15h12.15.485,00_bat_bachelor,2022.2.4,59.94039385204346,
,,,,,,,,,,,,0,0,0,0,137,0,137,0,,,,,,,137,,,1,2384.9234516734723,Y,None,nogo,None,1,2385.7240588004643,,,,,,,,,,,,,,,,,,46,001, 21,w,Bildungswissenschaft und Psychologie,2023-01-18_15h12.15.485,00_bat_bachelor,2022.2.4,59.94039385204346,
,,,,,,,,,,,,0,0,0,0,138,0,138,0,,,,,,,138,,,1,2386.7250042545493,X,d,go,d,1,,0.32563409782596864,,,,,,,,,,,,,,,,,46,001, 21,w,Bildungswissenschaft und Psychologie,2023-01-18_15h12.15.485,00_bat_bachelor,2022.2.4,59.94039385204346,
,,,,,,,,,,,,0,0,0,0,139,0,139,0,,,,,,,139,,,1,2388.175483551284,Y,l,go,l,1,,0.39584594257758,,,,,,,,,,,,,,,,,46,001, 21,w,Bildungswissenschaft und Psychologie,2023-01-18_15h12.15.485,00_bat_bachelor,2022.2.4,59.94039385204346,
,,,,,,,,,,,,0,0,0,0,140,0,140,0,,,,,,,140,,,1,2389.6768268233573,Y,None,nogo,None,1,2390.4774315260875,,,,,,,,,,,,,,,,,,46,001, 21,w,Bildungswissenschaft und Psychologie,2023-01-18_15h12.15.485,00_bat_bachelor,2022.2.4,59.94039385204346,
,,,,,,,,,,,,0,0,0,0,141,0,141,0,,,,,,,141,,,1,2391.478347889293,Y,None,nogo,None,1,2392.2786573194317,,,,,,,,,,,,,,,,,,46,001, 21,w,Bildungswissenschaft und Psychologie,2023-01-18_15h12.15.485,00_bat_bachelor,2022.2.4,59.94039385204346,
,,,,,,,,,,,,0,0,0,0,142,0,142,0,,,,,,,142,,,1,2393.2796100462438,X,d,go,d,1,,0.3644161396077834,,,,,,,,,,,,,,,,,46,001, 21,w,Bildungswissenschaft und Psychologie,2023-01-18_15h12.15.485,00_bat_bachelor,2022.2.4,59.94039385204346,
,,,,,,,,,,,,0,0,0,0,143,0,143,0,,,,,,,143,,,1,2394.747355274012,Y,l,go,l,1,,0.3677281380223576,,,,,,,,,,,,,,,,,46,001, 21,w,Bildungswissenschaft und Psychologie,2023-01-18_15h12.15.485,00_bat_bachelor,2022.2.4,59.94039385204346,
,,,,,,,,,,,,0,0,0,0,144,0,144,0,,,,,,,144,,,1,2396.2318127360777,X,d,go,None,0,2397.0324368327565,,,,,,,,,,,,,,,,,,46,001, 21,w,Bildungswissenschaft und Psychologie,2023-01-18_15h12.15.485,00_bat_bachelor,2022.2.4,59.94039385204346,
,,,,,,,,,,,,0,0,0,0,145,0,145,0,,,,,,,145,,,1,2398.033146165748,X,None,nogo,None,1,,,,,,,,,,,,,,,,,,,46,001, 21,w,Bildungswissenschaft und Psychologie,2023-01-18_15h12.15.485,00_bat_bachelor,2022.2.4,59.94039385204346,
,,,,,,,,,,,,0,0,0,0,146,0,146,0,,,,,,,146,,,1,2399.834601777169,Y,l,go,l,1,,0.36823625897523016,,,,,,,,,,,,,,,,,46,001, 21,w,Bildungswissenschaft und Psychologie,2023-01-18_15h12.15.485,00_bat_bachelor,2022.2.4,59.94039385204346,
,,,,,,,,,,,,0,0,0,0,147,0,147,0,,,,,,,147,,,1,2401.31883233026,X,d,go,d,1,,0.45148761256132275,,,,,,,,,,,,,,,,,46,001, 21,w,Bildungswissenschaft und Psychologie,2023-01-18_15h12.15.485,00_bat_bachelor,2022.2.4,59.94039385204346,
,,,,,,,,,,,,0,0,0,0,148,0,148,0,,,,,,,148,,,1,2402.886841751839,Y,l,go,l,1,,0.3877489767910447,,,,,,,,,,,,,,,,,46,001, 21,w,Bildungswissenschaft und Psychologie,2023-01-18_15h12.15.485,00_bat_bachelor,2022.2.4,59.94039385204346,
,,,,,,,,,,,,0,0,0,0,149,0,149,0,,,,,,,149,,,1,2404.388187448145,Y,None,nogo,None,1,2405.188719908503,,,,,,,,,,,,,,,,,,46,001, 21,w,Bildungswissenschaft und Psychologie,2023-01-18_15h12.15.485,00_bat_bachelor,2022.2.4,59.94039385204346,
,,,,,,,,,,,,0,0,0,0,150,0,150,0,,,,,,,150,,,1,2406.1893603930366,X,d,go,d,1,,0.2367507469607517,,,,,,,,,,,,,,,,,46,001, 21,w,Bildungswissenschaft und Psychologie,2023-01-18_15h12.15.485,00_bat_bachelor,2022.2.4,59.94039385204346,
,,,,,,,,,,,,0,0,0,0,151,0,151,0,,,,,,,151,,,1,2407.5402533138113,Y,l,go,l,1,,0.342427786643384,,,,,,,,,,,,,,,,,46,001, 21,w,Bildungswissenschaft und Psychologie,2023-01-18_15h12.15.485,00_bat_bachelor,2022.2.4,59.94039385204346,
,,,,,,,,,,,,0,0,0,0,152,0,152,0,,,,,,,152,,,1,2408.991392004158,Y,None,nogo,None,1,,,,,,,,,,,,,,,,,,,46,001, 21,w,Bildungswissenschaft und Psychologie,2023-01-18_15h12.15.485,00_bat_bachelor,2022.2.4,59.94039385204346,
,,,,,,,,,,,,0,0,0,0,153,0,153,0,,,,,,,153,,,1,2410.792744342907,X,d,go,d,1,,0.24151583557249978,,,,,,,,,,,,,,,,,46,001, 21,w,Bildungswissenschaft und Psychologie,2023-01-18_15h12.15.485,00_bat_bachelor,2022.2.4,59.94039385204346,
,,,,,,,,,,,,0,0,0,0,154,0,154,0,,,,,,,154,,,1,2412.1435752031102,Y,l,go,l,1,,0.39366654967307113,,,,,,,,,,,,,,,,,46,001, 21,w,Bildungswissenschaft und Psychologie,2023-01-18_15h12.15.485,00_bat_bachelor,2022.2.4,59.94039385204346,
,,,,,,,,,,,,0,0,0,0,155,0,155,0,,,,,,,155,,,1,2413.6456767778436,X,d,go,d,1,,0.26804479240672663,,,,,,,,,,,,,,,,,46,001, 21,w,Bildungswissenschaft und Psychologie,2023-01-18_15h12.15.485,00_bat_bachelor,2022.2.4,59.94039385204346,
,,,,,,,,,,,,0,0,0,0,156,0,156,0,,,,,,,156,,,1,2415.046451371425,Y,l,go,l,1,,0.2592331603227649,,,,,,,,,,,,,,,,,46,001, 21,w,Bildungswissenschaft und Psychologie,2023-01-18_15h12.15.485,00_bat_bachelor,2022.2.4,59.94039385204346,
,,,,,,,,,,,,0,0,0,0,157,0,157,0,,,,,,,157,,,1,2416.447751540487,Y,None,nogo,None,1,2417.2481686069514,,,,,,,,,,,,,,,,,,46,001, 21,w,Bildungswissenschaft und Psychologie,2023-01-18_15h12.15.485,00_bat_bachelor,2022.2.4,59.94039385204346,
,,,,,,,,,,,,0,0,0,0,158,0,158,0,,,,,,,158,,,1,2418.248916242941,X,d,go,d,1,,0.24148771437467076,,,,,,,,,,,,,,,,,46,001, 21,w,Bildungswissenschaft und Psychologie,2023-01-18_15h12.15.485,00_bat_bachelor,2022.2.4,59.94039385204346,
,,,,,,,,,,,,0,0,0,0,159,0,159,0,,,,,,,159,,,1,2419.6163075799705,Y,l,go,l,1,,0.34624936056206934,,,,,,,,,,,,,,,,,46,001, 21,w,Bildungswissenschaft und Psychologie,2023-01-18_15h12.15.485,00_bat_bachelor,2022.2.4,59.94039385204346,
,,,,,,,,,,,,0,0,0,0,160,0,160,0,,,,,,,160,,,1,2421.067452088493,Y,None,nogo,None,1,2421.8682919426356,,,,,,,,,,,,,,,,,,46,001, 21,w,Bildungswissenschaft und Psychologie,2023-01-18_15h12.15.485,00_bat_bachelor,2022.2.4,59.94039385204346,
,,,,,,,,,,,,0,0,0,0,161,0,161,0,,,,,,,161,,,1,2422.868942124129,X,d,go,d,1,,0.3109160443418659,,,,,,,,,,,,,,,,,46,001, 21,w,Bildungswissenschaft und Psychologie,2023-01-18_15h12.15.485,00_bat_bachelor,2022.2.4,59.94039385204346,
,,,,,,,,,,,,0,0,0,0,162,0,162,0,,,,,,,162,,,1,2424.2865346489416,Y,l,go,l,1,,0.284621754050022,,,,,,,,,,,,,,,,,46,001, 21,w,Bildungswissenschaft und Psychologie,2023-01-18_15h12.15.485,00_bat_bachelor,2022.2.4,59.94039385204346,
,,,,,,,,,,,,0,0,0,0,163,0,163,0,,,,,,,163,,,1,2425.687508999981,Y,None,nogo,None,1,,,,,,,,,,,,,,,,,,,46,001, 21,w,Bildungswissenschaft und Psychologie,2023-01-18_15h12.15.485,00_bat_bachelor,2022.2.4,59.94039385204346,
,,,,,,,,,,,,0,0,0,0,164,0,164,0,,,,,,,164,,,1,2427.488897217496,X,d,go,d,1,,0.3142130124324467,,,,,,,,,,,,,,,,,46,001, 21,w,Bildungswissenschaft und Psychologie,2023-01-18_15h12.15.485,00_bat_bachelor,2022.2.4,59.94039385204346,
,,,,,,,,,,,,0,0,0,0,165,0,165,0,,,,,,,165,,,1,2428.9062526515045,Y,l,go,l,1,,0.304023441625759,,,,,,,,,,,,,,,,,46,001, 21,w,Bildungswissenschaft und Psychologie,2023-01-18_15h12.15.485,00_bat_bachelor,2022.2.4,59.94039385204346,
,,,,,,,,,,,,0,0,0,0,166,0,166,0,,,,,,,166,,,1,2430.3240114792716,Y,None,nogo,None,1,2431.1247281819524,,,,,,,,,,,,,,,,,,46,001, 21,w,Bildungswissenschaft und Psychologie,2023-01-18_15h12.15.485,00_bat_bachelor,2022.2.4,59.94039385204346,
,,,,,,,,,,,,0,0,0,0,167,0,167,0,,,,,,,167,,,1,2432.126322847849,X,d,go,d,1,,0.38107746487366967,,,,,,,,,,,,,,,,,46,001, 21,w,Bildungswissenschaft und Psychologie,2023-01-18_15h12.15.485,00_bat_bachelor,2022.2.4,59.94039385204346,
,,,,,,,,,,,,0,0,0,0,168,0,168,0,,,,,,,168,,,1,2433.627328180679,Y,l,go,l,1,,0.30209035164443776,,,,,,,,,,,,,,,,,46,001, 21,w,Bildungswissenschaft und Psychologie,2023-01-18_15h12.15.485,00_bat_bachelor,2022.2.4,59.94039385204346,
,,,,,,,,,,,,0,0,0,0,169,0,169,0,,,,,,,169,,,1,2435.0614482126257,Y,None,nogo,None,1,2435.862049036572,,,,,,,,,,,,,,,,,,46,001, 21,w,Bildungswissenschaft und Psychologie,2023-01-18_15h12.15.485,00_bat_bachelor,2022.2.4,59.94039385204346,
,,,,,,,,,,,,0,0,0,0,170,0,170,0,,,,,,,170,,,1,2436.862976066419,X,d,go,d,1,,0.3154959209205117,,,,,,,,,,,,,,,,,46,001, 21,w,Bildungswissenschaft und Psychologie,2023-01-18_15h12.15.485,00_bat_bachelor,2022.2.4,59.94039385204346,
,,,,,,,,,,,,0,0,0,0,171,0,171,0,,,,,,,171,,,1,2438.2806039851566,Y,l,go,l,1,,0.2583667364961002,,,,,,,,,,,,,,,,,46,001, 21,w,Bildungswissenschaft und Psychologie,2023-01-18_15h12.15.485,00_bat_bachelor,2022.2.4,59.94039385204346,
,,,,,,,,,,,,0,0,0,0,172,0,172,0,,,,,,,172,,,1,2439.648448170454,Y,None,nogo,None,1,2440.449035903497,,,,,,,,,,,,,,,,,,46,001, 21,w,Bildungswissenschaft und Psychologie,2023-01-18_15h12.15.485,00_bat_bachelor,2022.2.4,59.94039385204346,
,,,,,,,,,,,,0,0,0,0,173,0,173,0,,,,,,,173,,,1,2441.449887297029,X,d,go,d,1,,0.3517567518283613,,,,,,,,,,,,,,,,,46,001, 21,w,Bildungswissenschaft und Psychologie,2023-01-18_15h12.15.485,00_bat_bachelor,2022.2.4,59.94039385204346,
,,,,,,,,,,,,0,0,0,0,174,0,174,0,,,,,,,174,,,1,2442.9342739712447,Y,l,go,l,1,,0.24368504661833867,,,,,,,,,,,,,,,,,46,001, 21,w,Bildungswissenschaft und Psychologie,2023-01-18_15h12.15.485,00_bat_bachelor,2022.2.4,59.94039385204346,
,,,,,,,,,,,,0,0,0,0,175,0,175,0,,,,,,,175,,,1,2444.28543113434,X,d,go,d,1,,0.36472983643761836,,,,,,,,,,,,,,,,,46,001, 21,w,Bildungswissenschaft und Psychologie,2023-01-18_15h12.15.485,00_bat_bachelor,2022.2.4,59.94039385204346,
,,,,,,,,,,,,0,0,0,0,176,0,176,0,,,,,,,176,,,1,2445.7531220590754,Y,l,go,l,1,,0.2574203127005603,,,,,,,,,,,,,,,,,46,001, 21,w,Bildungswissenschaft und Psychologie,2023-01-18_15h12.15.485,00_bat_bachelor,2022.2.4,59.94039385204346,
,,,,,,,,,,,,0,0,0,0,177,0,177,0,,,,,,,177,,,1,2447.137312903127,Y,None,nogo,None,1,2447.937948151288,,,,,,,,,,,,,,,,,,46,001, 21,w,Bildungswissenschaft und Psychologie,2023-01-18_15h12.15.485,00_bat_bachelor,2022.2.4,59.94039385204346,
,,,,,,,,,,,,0,0,0,0,178,0,178,0,,,,,,,178,,,1,2448.9388829387026,X,d,go,d,1,,0.302581018069759,,,,,,,,,,,,,,,,,46,001, 21,w,Bildungswissenschaft und Psychologie,2023-01-18_15h12.15.485,00_bat_bachelor,2022.2.4,59.94039385204346,
,,,,,,,,,,,,0,0,0,0,179,0,179,0,,,,,,,179,,,1,2450.3733889098803,Y,l,go,l,1,,0.3105044081748929,,,,,,,,,,,,,,,,,46,001, 21,w,Bildungswissenschaft und Psychologie,2023-01-18_15h12.15.485,00_bat_bachelor,2022.2.4,59.94039385204346,
,,,,,,,,,,,,0,0,0,0,180,0,180,0,,,,,,,180,,,1,2451.7908679801913,Y,None,nogo,None,1,2452.591270016361,,,,,,,,,,,,,,,,,,46,001, 21,w,Bildungswissenschaft und Psychologie,2023-01-18_15h12.15.485,00_bat_bachelor,2022.2.4,59.94039385204346,
,,,,,,,,,,,,0,0,0,0,181,0,181,0,,,,,,,181,,,1,2453.5921160765574,X,d,go,d,1,,0.3540937203797512,,,,,,,,,,,,,,,,,46,001, 21,w,Bildungswissenschaft und Psychologie,2023-01-18_15h12.15.485,00_bat_bachelor,2022.2.4,59.94039385204346,
,,,,,,,,,,,,0,0,0,0,182,0,182,0,,,,,,,182,,,1,2455.059959243663,Y,l,go,l,1,,0.34244911998393945,,,,,,,,,,,,,,,,,46,001, 21,w,Bildungswissenschaft und Psychologie,2023-01-18_15h12.15.485,00_bat_bachelor,2022.2.4,59.94039385204346,
,,,,,,,,,,,,0,0,0,0,183,0,183,0,,,,,,,183,,,1,2456.5110387825116,Y,None,nogo,None,1,2457.311796697293,,,,,,,,,,,,,,,,,,46,001, 21,w,Bildungswissenschaft und Psychologie,2023-01-18_15h12.15.485,00_bat_bachelor,2022.2.4,59.94039385204346,
,,,,,,,,,,,,0,0,0,0,184,0,184,0,,,,,,,184,,,1,2458.312302878883,X,d,go,d,1,,0.3215778573649004,,,,,,,,,,,,,,,,,46,001, 21,w,Bildungswissenschaft und Psychologie,2023-01-18_15h12.15.485,00_bat_bachelor,2022.2.4,59.94039385204346,
,,,,,,,,,,,,0,0,0,0,185,0,185,0,,,,,,,185,,,1,2459.7468830317957,Y,l,go,l,1,,0.519030367693631,,,,,,,,,,,,,,,,,46,001, 21,w,Bildungswissenschaft und Psychologie,2023-01-18_15h12.15.485,00_bat_bachelor,2022.2.4,59.94039385204346,
,,,,,,,,,,,,0,0,0,0,186,0,186,0,,,,,,,186,,,1,2461.381535330147,X,d,go,d,1,,0.43701683171093464,,,,,,,,,,,,,,,,,46,001, 21,w,Bildungswissenschaft und Psychologie,2023-01-18_15h12.15.485,00_bat_bachelor,2022.2.4,59.94039385204346,
,,,,,,,,,,,,0,0,0,0,187,0,187,0,,,,,,,187,,,1,2462.9324591842596,Y,l,go,l,1,,0.35917008155956864,,,,,,,,,,,,,,,,,46,001, 21,w,Bildungswissenschaft und Psychologie,2023-01-18_15h12.15.485,00_bat_bachelor,2022.2.4,59.94039385204346,
,,,,,,,,,,,,0,0,0,0,188,0,188,0,,,,,,,188,,,1,2464.4004240482755,X,d,go,d,1,,0.5379549645585939,,,,,,,,,,,,,,,,,46,001, 21,w,Bildungswissenschaft und Psychologie,2023-01-18_15h12.15.485,00_bat_bachelor,2022.2.4,59.94039385204346,
,,,,,,,,,,,,0,0,0,0,189,0,189,0,,,,,,,189,,,1,2466.051726035512,X,None,nogo,None,1,2466.852267707989,,,,,,,,,,,,,,,,,,46,001, 21,w,Bildungswissenschaft und Psychologie,2023-01-18_15h12.15.485,00_bat_bachelor,2022.2.4,59.94039385204346,
,,,,,,,,,,,,0,0,0,0,190,0,190,0,,,,,,,190,,,1,2467.853048313671,Y,l,go,l,1,,0.22197742079151794,,,,,,,,,,,,,,,,,46,001, 21,w,Bildungswissenschaft und Psychologie,2023-01-18_15h12.15.485,00_bat_bachelor,2022.2.4,59.94039385204346,
,,,,,,,,,,,,0,0,0,0,191,0,191,0,,,,,,,191,,,1,2469.187379303068,X,d,go,d,1,,0.3274498545215465,,,,,,,,,,,,,,,,,46,001, 21,w,Bildungswissenschaft und Psychologie,2023-01-18_15h12.15.485,00_bat_bachelor,2022.2.4,59.94039385204346,
,,,,,,,,,,,,0,0,0,0,192,0,192,0,,,,,,,192,,,1,2470.621692304616,X,None,nogo,l,0,,0.2368889287172351,,,,,,,,,,,,,,,,,46,001, 21,w,Bildungswissenschaft und Psychologie,2023-01-18_15h12.15.485,00_bat_bachelor,2022.2.4,59.94039385204346,
,,,,,,,,,,,,0,0,0,0,193,0,193,0,,,,,,,193,,,1,2471.9728523767844,Y,l,go,l,1,,0.43704155896557495,,,,,,,,,,,,,,,,,46,001, 21,w,Bildungswissenschaft und Psychologie,2023-01-18_15h12.15.485,00_bat_bachelor,2022.2.4,59.94039385204346,
,,,,,,,,,,,,0,0,0,0,194,0,194,0,,,,,,,194,,,1,2473.524015261064,X,d,go,d,1,,0.26292140095029026,,,,,,,,,,,,,,,,,46,001, 21,w,Bildungswissenschaft und Psychologie,2023-01-18_15h12.15.485,00_bat_bachelor,2022.2.4,59.94039385204346,
,,,,,,,,,,,,0,0,0,0,195,0,195,0,,,,,,,195,,,1,2474.891572416207,Y,l,go,l,1,,0.35086269164457917,,,,,,,,,,,,,,,,,46,001, 21,w,Bildungswissenschaft und Psychologie,2023-01-18_15h12.15.485,00_bat_bachelor,2022.2.4,59.94039385204346,
,,,,,,,,,,,,0,0,0,0,196,0,196,0,,,,,,,196,,,1,2476.3593132803217,X,d,go,d,1,,0.5803030652459711,,,,,,,,,,,,,,,,,46,001, 21,w,Bildungswissenschaft und Psychologie,2023-01-18_15h12.15.485,00_bat_bachelor,2022.2.4,59.94039385204346,
,,,,,,,,,,,,0,0,0,0,197,0,197,0,,,,,,,197,,,1,2478.0441328270826,Y,l,go,l,1,,0.2859812685637735,,,,,,,,,,,,,,,,,46,001, 21,w,Bildungswissenschaft und Psychologie,2023-01-18_15h12.15.485,00_bat_bachelor,2022.2.4,59.94039385204346,
,,,,,,,,,,,,0,0,0,0,198,0,198,0,,,,,,,198,,,1,2479.4450514205673,X,d,go,d,1,,0.2775696362659801,,,,,,,,,,,,,,,,,46,001, 21,w,Bildungswissenschaft und Psychologie,2023-01-18_15h12.15.485,00_bat_bachelor,2022.2.4,59.94039385204346,
,,,,,,,,,,,,0,0,0,0,199,0,199,0,,,,,,,199,,,1,2480.8294289311743,X,None,nogo,None,1,2481.630012785434,,,,,,,,,,,,,,,,,,46,001, 21,w,Bildungswissenschaft und Psychologie,2023-01-18_15h12.15.485,00_bat_bachelor,2022.2.4,59.94039385204346,
,,,,,,,,,,,,0,0,0,0,200,0,200,0,,,,,,,200,,,1,2482.6310183606984,Y,l,go,l,1,,0.30789447005372494,,,,,,,,,,,,,,,,,46,001, 21,w,Bildungswissenschaft und Psychologie,2023-01-18_15h12.15.485,00_bat_bachelor,2022.2.4,59.94039385204346,
,,,,,,,,,,,,0,0,0,0,201,0,201,0,,,,,,,201,,,1,2484.0487897945277,X,d,go,d,1,,0.2984360504196957,,,,,,,,,,,,,,,,,46,001, 21,w,Bildungswissenschaft und Psychologie,2023-01-18_15h12.15.485,00_bat_bachelor,2022.2.4,59.94039385204346,
,,,,,,,,,,,,0,0,0,0,202,0,202,0,,,,,,,202,,,1,2485.4497840243275,Y,l,go,l,1,,0.35260620596818626,,,,,,,,,,,,,,,,,46,001, 21,w,Bildungswissenschaft und Psychologie,2023-01-18_15h12.15.485,00_bat_bachelor,2022.2.4,59.94039385204346,
,,,,,,,,,,,,0,0,0,0,203,0,203,0,,,,,,,203,,,1,2486.9175854944915,X,d,go,d,1,,0.35778341558761895,,,,,,,,,,,,,,,,,46,001, 21,w,Bildungswissenschaft und Psychologie,2023-01-18_15h12.15.485,00_bat_bachelor,2022.2.4,59.94039385204346,
,,,,,,,,,,,,0,0,0,0,204,0,204,0,,,,,,,204,,,1,2488.3853496313386,Y,l,go,l,1,,0.2985722927551251,,,,,,,,,,,,,,,,,46,001, 21,w,Bildungswissenschaft und Psychologie,2023-01-18_15h12.15.485,00_bat_bachelor,2022.2.4,59.94039385204346,
,,,,,,,,,,,,0,0,0,0,205,0,205,0,,,,,,,205,,,1,2489.786449073232,X,d,go,d,1,,0.33584063831949607,,,,,,,,,,,,,,,,,46,001, 21,w,Bildungswissenschaft und Psychologie,2023-01-18_15h12.15.485,00_bat_bachelor,2022.2.4,59.94039385204346,
,,,,,,,,,,,,0,0,0,0,206,0,206,0,,,,,,,206,,,1,2491.2375494605803,X,None,nogo,None,1,2492.0381245875615,,,,,,,,,,,,,,,,,,46,001, 21,w,Bildungswissenschaft und Psychologie,2023-01-18_15h12.15.485,00_bat_bachelor,2022.2.4,59.94039385204346,
,,,,,,,,,,,,0,0,0,0,207,0,207,0,,,,,,,207,,,1,2493.038924587192,Y,l,go,l,1,,0.3318687614519149,,,,,,,,,,,,,,,,,46,001, 21,w,Bildungswissenschaft und Psychologie,2023-01-18_15h12.15.485,00_bat_bachelor,2022.2.4,59.94039385204346,
,,,,,,,,,,,,0,0,0,0,208,0,208,0,,,,,,,208,,,1,2494.4730804979044,X,d,go,d,1,,0.32160209977882914,,,,,,,,,,,,,,,,,46,001, 21,w,Bildungswissenschaft und Psychologie,2023-01-18_15h12.15.485,00_bat_bachelor,2022.2.4,59.94039385204346,
,,,,,,,,,,,,0,0,0,0,209,0,209,0,,,,,,,209,,,1,2495.9081231960445,X,None,nogo,None,1,2496.708738565445,,,,,,,,,,,,,,,,,,46,001, 21,w,Bildungswissenschaft und Psychologie,2023-01-18_15h12.15.485,00_bat_bachelor,2022.2.4,59.94039385204346,
,,,,,,,,,,,,0,0,0,0,210,0,210,0,,,,,,,210,,,1,2497.709443049971,Y,l,go,l,1,,0.252172800101107,,,,,,,,,,,,,,,,,46,001, 21,w,Bildungswissenschaft und Psychologie,2023-01-18_15h12.15.485,00_bat_bachelor,2022.2.4,59.94039385204346,
,,,,,,,,,,,,0,0,0,0,211,0,211,0,,,,,,,211,,,1,2499.0937900151184,X,d,go,d,1,,0.2766775154741481,,,,,,,,,,,,,,,,,46,001, 21,w,Bildungswissenschaft und Psychologie,2023-01-18_15h12.15.485,00_bat_bachelor,2022.2.4,59.94039385204346,
,,,,,,,,,,,,0,0,0,0,212,0,212,0,,,,,,,212,,,1,2500.4948972145794,Y,l,go,l,1,,0.2511628612119239,,,,,,,,,,,,,,,,,46,001, 21,w,Bildungswissenschaft und Psychologie,2023-01-18_15h12.15.485,00_bat_bachelor,2022.2.4,59.94039385204346,
,,,,,,,,,,,,0,0,0,0,213,0,213,0,,,,,,,213,,,1,2501.879292179743,X,d,go,d,1,,0.25862176666851155,,,,,,,,,,,,,,,,,46,001, 21,w,Bildungswissenschaft und Psychologie,2023-01-18_15h12.15.485,00_bat_bachelor,2022.2.4,59.94039385204346,
,,,,,,,,,,,,0,0,0,0,214,0,214,0,,,,,,,214,,,1,2503.263682296383,Y,l,go,l,1,,0.2816476949083153,,,,,,,,,,,,,,,,,46,001, 21,w,Bildungswissenschaft und Psychologie,2023-01-18_15h12.15.485,00_bat_bachelor,2022.2.4,59.94039385204346,
,,,,,,,,,,,,0,0,0,0,215,0,215,0,,,,,,,215,,,1,2504.6650411321025,X,d,go,d,1,,0.25666685853502713,,,,,,,,,,,,,,,,,46,001, 21,w,Bildungswissenschaft und Psychologie,2023-01-18_15h12.15.485,00_bat_bachelor,2022.2.4,59.94039385204346,
,,,,,,,,,,,,0,0,0,0,216,0,216,0,,,,,,,216,,,1,2506.0661076043034,Y,l,go,l,1,,0.2476302568684332,,,,,,,,,,,,,,,,,46,001, 21,w,Bildungswissenschaft und Psychologie,2023-01-18_15h12.15.485,00_bat_bachelor,2022.2.4,59.94039385204346,
,,,,,,,,,,,,0,0,0,0,217,0,217,0,,,,,,,217,,,1,2507.4335251231387,X,d,go,d,1,,0.30467022920493037,,,,,,,,,,,,,,,,,46,001, 21,w,Bildungswissenschaft und Psychologie,2023-01-18_15h12.15.485,00_bat_bachelor,2022.2.4,59.94039385204346,
,,,,,,,,,,,,0,0,0,0,218,0,218,0,,,,,,,218,,,1,2508.868153760879,Y,l,go,l,1,,0.2615769167605322,,,,,,,,,,,,,,,,,46,001, 21,w,Bildungswissenschaft und Psychologie,2023-01-18_15h12.15.485,00_bat_bachelor,2022.2.4,59.94039385204346,
,,,,,,,,,,,,0,0,0,0,219,0,219,0,,,,,,,219,,,1,2510.2690932028636,Y,None,nogo,d,0,,0.268813761707861,,,,,,,,,,,,,,,,,46,001, 21,w,Bildungswissenschaft und Psychologie,2023-01-18_15h12.15.485,00_bat_bachelor,2022.2.4,59.94039385204346,
,,,,,,,,,,,,0,0,0,0,220,0,220,0,,,,,,,220,,,1,2511.6702876749914,X,d,go,d,1,,0.26004528111661784,,,,,,,,,,,,,,,,,46,001, 21,w,Bildungswissenschaft und Psychologie,2023-01-18_15h12.15.485,00_bat_bachelor,2022.2.4,59.94039385204346,
,,,,,,,,,,,,0,0,0,0,221,0,221,0,,,,,,,221,,,1,2513.03776919379,Y,l,go,l,1,,0.3322789430967532,,,,,,,,,,,,,,,,,46,001, 21,w,Bildungswissenschaft und Psychologie,2023-01-18_15h12.15.485,00_bat_bachelor,2022.2.4,59.94039385204346,
,,,,,,,,,,,,0,0,0,0,222,0,222,0,,,,,,,222,,,1,2514.4886344297556,X,d,go,d,1,,0.3371109407453332,,,,,,,,,,,,,,,,,46,001, 21,w,Bildungswissenschaft und Psychologie,2023-01-18_15h12.15.485,00_bat_bachelor,2022.2.4,59.94039385204346,
,,,,,,,,,,,,0,0,0,0,223,0,223,0,,,,,,,223,,,1,2515.956639051321,X,None,nogo,None,1,2516.757223875291,,,,,,,,,,,,,,,,,,46,001, 21,w,Bildungswissenschaft und Psychologie,2023-01-18_15h12.15.485,00_bat_bachelor,2022.2.4,59.94039385204346,
,,,,,,,,,,,,0,0,0,0,224,0,224,0,,,,,,,224,,,1,2517.7580030264216,Y,l,go,l,1,,0.36483116971794516,,,,,,,,,,,,,,,,,46,001, 21,w,Bildungswissenschaft und Psychologie,2023-01-18_15h12.15.485,00_bat_bachelor,2022.2.4,59.94039385204346,
,,,,,,,,,,,,0,0,0,0,225,0,225,0,,,,,,,225,,,1,2519.2256900723733,X,d,go,d,1,,0.495744075946277,,,,,,,,,,,,,,,,,46,001, 21,w,Bildungswissenschaft und Psychologie,2023-01-18_15h12.15.485,00_bat_bachelor,2022.2.4,59.94039385204346,
,,,,,,,,,,,,0,0,0,0,226,0,226,0,,,,,,,226,,,1,2520.843667954585,Y,l,go,l,1,,0.3191439191286918,,,,,,,,,,,,,,,,,46,001, 21,w,Bildungswissenschaft und Psychologie,2023-01-18_15h12.15.485,00_bat_bachelor,2022.2.4,59.94039385204346,
,,,,,,,,,,,,0,0,0,0,227,0,227,0,,,,,,,227,,,1,2522.278059986391,Y,None,nogo,None,1,2523.0787010527565,,,,,,,,,,,,,,,,,,46,001, 21,w,Bildungswissenschaft und Psychologie,2023-01-18_15h12.15.485,00_bat_bachelor,2022.2.4,59.94039385204346,
,,,,,,,,,,,,0,0,0,0,228,0,228,0,,,,,,,228,,,1,2524.07949329479,X,d,go,d,1,,0.267835822829511,,,,,,,,,,,,,,,,,46,001, 21,w,Bildungswissenschaft und Psychologie,2023-01-18_15h12.15.485,00_bat_bachelor,2022.2.4,59.94039385204346,
,,,,,,,,,,,,0,0,0,0,229,0,229,0,,,,,,,229,,,1,2525.4637049872836,Y,l,go,l,1,,0.3381582129513845,,,,,,,,,,,,,,,,,46,001, 21,w,Bildungswissenschaft und Psychologie,2023-01-18_15h12.15.485,00_bat_bachelor,2022.2.4,59.94039385204346,
,,,,,,,,,,,,0,0,0,0,230,0,230,0,,,,,,,230,,,1,2526.914788889786,X,d,go,d,1,,0.5348829660506453,,,,,,,,,,,,,,,,,46,001, 21,w,Bildungswissenschaft und Psychologie,2023-01-18_15h12.15.485,00_bat_bachelor,2022.2.4,59.94039385204346,
,,,,,,,,,,,,0,0,0,0,231,0,231,0,,,,,,,231,,,1,2528.58270420233,Y,l,go,l,1,,0.3879666736756917,,,,,,,,,,,,,,,,,46,001, 21,w,Bildungswissenschaft und Psychologie,2023-01-18_15h12.15.485,00_bat_bachelor,2022.2.4,59.94039385204346,
,,,,,,,,,,,,0,0,0,0,232,0,232,0,,,,,,,232,,,1,2530.083977656235,Y,None,nogo,None,1,2530.8846264801687,,,,,,,,,,,,,,,,,,46,001, 21,w,Bildungswissenschaft und Psychologie,2023-01-18_15h12.15.485,00_bat_bachelor,2022.2.4,59.94039385204346,
,,,,,,,,,,,,0,0,0,0,233,0,233,0,,,,,,,233,,,1,2531.8854405403836,X,d,go,d,1,,0.2534212843456771,,,,,,,,,,,,,,,,,46,001, 21,w,Bildungswissenschaft und Psychologie,2023-01-18_15h12.15.485,00_bat_bachelor,2022.2.4,59.94039385204346,
,,,,,,,,,,,,0,0,0,0,234,0,234,0,,,,,,,234,,,1,2533.252952604613,Y,l,go,l,1,,0.3261717945279088,,,,,,,,,,,,,,,,,46,001, 21,w,Bildungswissenschaft und Psychologie,2023-01-18_15h12.15.485,00_bat_bachelor,2022.2.4,59.94039385204346,
,,,,,,,,,,,,0,0,0,0,235,0,235,0,,,,,,,235,,,1,2534.6874993030215,X,d,go,d,1,,0.29874392901547253,,,,,,,,,,,,,,,,,46,001, 21,w,Bildungswissenschaft und Psychologie,2023-01-18_15h12.15.485,00_bat_bachelor,2022.2.4,59.94039385204346,
,,,,,,,,,,,,0,0,0,0,236,0,236,0,,,,,,,236,,,1,2536.0884120783303,X,None,nogo,None,1,2536.8890875689103,,,,,,,,,,,,,,,,,,46,001, 21,w,Bildungswissenschaft und Psychologie,2023-01-18_15h12.15.485,00_bat_bachelor,2022.2.4,59.94039385204346,
,,,,,,,,,,,,0,0,0,0,237,0,237,0,,,,,,,237,,,1,2537.8900194472517,Y,l,go,l,1,,0.29764283867552876,,,,,,,,,,,,,,,,,46,001, 21,w,Bildungswissenschaft und Psychologie,2023-01-18_15h12.15.485,00_bat_bachelor,2022.2.4,59.94039385204346,
,,,,,,,,,,,,0,0,0,0,238,0,238,0,,,,,,,238,,,1,2539.2911697982054,X,d,go,d,1,,0.3192631918354891,,,,,,,,,,,,,,,,,46,001, 21,w,Bildungswissenschaft und Psychologie,2023-01-18_15h12.15.485,00_bat_bachelor,2022.2.4,59.94039385204346,
,,,,,,,,,,,,0,0,0,0,239,0,239,0,,,,,,,239,,,1,2540.7254619512823,Y,l,go,l,1,,0.26233473455067724,,,,,,,,,,,,,,,,,46,001, 21,w,Bildungswissenschaft und Psychologie,2023-01-18_15h12.15.485,00_bat_bachelor,2022.2.4,59.94039385204346,
,,,,,,,,,,,,0,0,0,0,240,0,240,0,,,,,,,240,,,1,2542.0929798336874,Y,None,nogo,None,1,2542.8938589605386,,,,,,,,,,,,,,,,,,46,001, 21,w,Bildungswissenschaft und Psychologie,2023-01-18_15h12.15.485,00_bat_bachelor,2022.2.4,59.94039385204346,
,,,,,,,,,,,,0,0,0,0,241,0,241,0,,,,,,,241,,,1,2543.894398111792,X,d,go,d,1,,0.22835414498695172,,,,,,,,,,,,,,,,,46,001, 21,w,Bildungswissenschaft und Psychologie,2023-01-18_15h12.15.485,00_bat_bachelor,2022.2.4,59.94039385204346,
,,,,,,,,,,,,0,0,0,0,242,0,242,0,,,,,,,242,,,1,2545.228901222348,Y,l,go,l,1,,0.3014775034680497,,,,,,,,,,,,,,,,,46,001, 21,w,Bildungswissenschaft und Psychologie,2023-01-18_15h12.15.485,00_bat_bachelor,2022.2.4,59.94039385204346,
,,,,,,,,,,,,0,0,0,0,243,0,243,0,,,,,,,243,,,1,2546.6466813834268,X,d,go,d,1,,0.22807487240061164,,,,,,,,,,,,,,,,,46,001, 21,w,Bildungswissenschaft und Psychologie,2023-01-18_15h12.15.485,00_bat_bachelor,2022.2.4,59.94039385204346,
,,,,,,,,,,,,0,0,0,0,244,0,244,0,,,,,,,244,,,1,2547.9974720012106,X,None,nogo,None,1,2548.798239128111,,,,,,,,,,,,,,,,,,46,001, 21,w,Bildungswissenschaft und Psychologie,2023-01-18_15h12.15.485,00_bat_bachelor,2022.2.4,59.94039385204346,
,,,,,,,,,,,,0,0,0,0,245,0,245,0,,,,,,,245,,,1,2549.7988742793386,Y,l,go,l,1,,0.24391874347929843,,,,,,,,,,,,,,,,,46,001, 21,w,Bildungswissenschaft und Psychologie,2023-01-18_15h12.15.485,00_bat_bachelor,2022.2.4,59.94039385204346,
,,,,,,,,,,,,0,0,0,0,246,0,246,0,,,,,,,246,,,1,2551.1501206544926,X,d,go,d,1,,0.3807579498679843,,,,,,,,,,,,,,,,,46,001, 21,w,Bildungswissenschaft und Psychologie,2023-01-18_15h12.15.485,00_bat_bachelor,2022.2.4,59.94039385204346,
,,,,,,,,,,,,0,0,0,0,247,0,247,0,,,,,,,247,,,1,2552.6344937529648,X,None,nogo,None,1,2553.43515421325,,,,,,,,,,,,,,,,,,46,001, 21,w,Bildungswissenschaft und Psychologie,2023-01-18_15h12.15.485,00_bat_bachelor,2022.2.4,59.94039385204346,
,,,,,,,,,,,,0,0,0,0,248,0,248,0,,,,,,,248,,,1,2554.435921243188,Y,l,go,l,1,,0.3596350510488264,,,,,,,,,,,,,,,,,46,001, 21,w,Bildungswissenschaft und Psychologie,2023-01-18_15h12.15.485,00_bat_bachelor,2022.2.4,59.94039385204346,
,,,,,,,,,,,,0,0,0,0,249,0,249,0,,,,,,,249,,,1,2555.9036790769896,X,d,go,d,1,,0.3950983065587934,,,,,,,,,,,,,,,,,46,001, 21,w,Bildungswissenschaft und Psychologie,2023-01-18_15h12.15.485,00_bat_bachelor,2022.2.4,59.94039385204346,
,,,,,,,,,,,,1,0,1,0,0,0,0,0,,,,,,,0,,,0.2,2560.807473547873,X,d,go,d,1,,0.5156441875151359,,,,,,,,2556.4272123989067,space,4.162452116346685,,,,,,,46,001, 21,w,Bildungswissenschaft und Psychologie,2023-01-18_15h12.15.485,00_bat_bachelor,2022.2.4,59.94039385204346,
,,,,,,,,,,,,1,0,1,0,1,0,1,0,,,,,,,1,,,0.2,2561.6248205455486,Y,l,go,l,1,,0.353896871994948,,,,,,,,,,,,,,,,,46,001, 21,w,Bildungswissenschaft und Psychologie,2023-01-18_15h12.15.485,00_bat_bachelor,2022.2.4,59.94039385204346,
,,,,,,,,,,,,1,0,1,0,2,0,2,0,,,,,,,2,,,0.2,2562.308374638349,X,d,go,d,1,,0.24646516650682315,,,,,,,,,,,,,,,,,46,001, 21,w,Bildungswissenschaft und Psychologie,2023-01-18_15h12.15.485,00_bat_bachelor,2022.2.4,59.94039385204346,
,,,,,,,,,,,,1,0,1,0,3,0,3,0,,,,,,,3,,,0.2,2562.858663341234,Y,l,go,l,1,,0.3037301084259525,,,,,,,,,,,,,,,,,46,001, 21,w,Bildungswissenschaft und Psychologie,2023-01-18_15h12.15.485,00_bat_bachelor,2022.2.4,59.94039385204346,
,,,,,,,,,,,,1,0,1,0,4,0,4,0,,,,,,,4,,,0.2,2563.475919769233,X,d,go,d,1,,0.3269393093069084,,,,,,,,,,,,,,,,,46,001, 21,w,Bildungswissenschaft und Psychologie,2023-01-18_15h12.15.485,00_bat_bachelor,2022.2.4,59.94039385204346,
,,,,,,,,,,,,1,0,1,0,5,0,5,0,,,,,,,5,,,0.2,2564.109682371054,X,None,nogo,l,0,,0.2847196934162639,,,,,,,,,,,,,,,,,46,001, 21,w,Bildungswissenschaft und Psychologie,2023-01-18_15h12.15.485,00_bat_bachelor,2022.2.4,59.94039385204346,
,,,,,,,,,,,,1,0,1,0,6,0,6,0,,,,,,,6,,,0.2,2564.7101853526256,Y,l,go,l,1,,0.49968055888894014,,,,,,,,,,,,,,,,,46,001, 21,w,Bildungswissenschaft und Psychologie,2023-01-18_15h12.15.485,00_bat_bachelor,2022.2.4,59.94039385204346,
,,,,,,,,,,,,1,0,1,0,7,0,7,0,,,,,,,7,,,0.2,2565.510765328101,X,d,go,d,1,,0.6439946707396302,,,,,,,,,,,,,,,,,46,001, 21,w,Bildungswissenschaft und Psychologie,2023-01-18_15h12.15.485,00_bat_bachelor,2022.2.4,59.94039385204346,
,,,,,,,,,,,,1,0,1,0,8,0,8,0,,,,,,,8,,,0.2,2566.4613287460234,X,None,nogo,None,1,2567.2619261760265,,,,,,,,,,,,,,,,,,46,001, 21,w,Bildungswissenschaft und Psychologie,2023-01-18_15h12.15.485,00_bat_bachelor,2022.2.4,59.94039385204346,
,,,,,,,,,,,,1,0,1,0,9,0,9,0,,,,,,,9,,,0.2,2567.4621961395314,Y,l,go,None,0,2568.262733933225,,,,,,,,,,,,,,,,,,46,001, 21,w,Bildungswissenschaft und Psychologie,2023-01-18_15h12.15.485,00_bat_bachelor,2022.2.4,59.94039385204346,
,,,,,,,,,,,,1,0,1,0,10,0,10,0,,,,,,,10,,,0.2,2568.462842442241,X,d,go,None,0,2569.263671629742,,,,,,,,,,,,,,,,,,46,001, 21,w,Bildungswissenschaft und Psychologie,2023-01-18_15h12.15.485,00_bat_bachelor,2022.2.4,59.94039385204346,
,,,,,,,,,,,,1,0,1,0,11,0,11,0,,,,,,,11,,,0.2,2569.463808259956,X,None,nogo,None,1,2570.264368356671,,,,,,,,,,,,,,,,,,46,001, 21,w,Bildungswissenschaft und Psychologie,2023-01-18_15h12.15.485,00_bat_bachelor,2022.2.4,59.94039385204346,
,,,,,,,,,,,,1,0,1,0,12,0,12,0,,,,,,,12,,,0.2,2570.4646101989783,Y,l,go,l,1,,0.47493293453590013,,,,,,,,,,,,,,,,,46,001, 21,w,Bildungswissenschaft und Psychologie,2023-01-18_15h12.15.485,00_bat_bachelor,2022.2.4,59.94039385204346,
,,,,,,,,,,,,1,0,1,0,13,0,13,0,,,,,,,13,,,0.2,2571.2484910310304,X,d,go,d,1,,0.2987201714713592,,,,,,,,,,,,,,,,,46,001, 21,w,Bildungswissenschaft und Psychologie,2023-01-18_15h12.15.485,00_bat_bachelor,2022.2.4,59.94039385204346,
,,,,,,,,,,,,1,0,1,0,14,0,14,0,,,,,,,14,,,0.2,2571.8487501339405,Y,l,go,l,1,,0.40121175814419985,,,,,,,,,,,,,,,,,46,001, 21,w,Bildungswissenschaft und Psychologie,2023-01-18_15h12.15.485,00_bat_bachelor,2022.2.4,59.94039385204346,
,,,,,,,,,,,,1,0,1,0,15,0,15,0,,,,,,,15,,,0.2,2572.566193664883,X,d,go,d,1,,0.4047705442935694,,,,,,,,,,,,,,,,,46,001, 21,w,Bildungswissenschaft und Psychologie,2023-01-18_15h12.15.485,00_bat_bachelor,2022.2.4,59.94039385204346,
,,,,,,,,,,,,1,0,1,0,16,0,16,0,,,,,,,16,,,0.2,2573.283403014095,X,None,nogo,d,0,,0.5185940042720176,,,,,,,,,,,,,,,,,46,001, 21,w,Bildungswissenschaft und Psychologie,2023-01-18_15h12.15.485,00_bat_bachelor,2022.2.4,59.94039385204346,
,,,,,,,,,,,,1,0,1,0,17,0,17,0,,,,,,,17,,,0.2,2574.117364791571,X,None,nogo,None,1,2574.917549130885,,,,,,,,,,,,,,,,,,46,001, 21,w,Bildungswissenschaft und Psychologie,2023-01-18_15h12.15.485,00_bat_bachelor,2022.2.4,59.94039385204346,
,,,,,,,,,,,,1,0,1,0,18,0,18,0,,,,,,,18,,,0.2,2575.117999457929,Y,l,go,l,1,,0.5080883123737294,,,,,,,,,,,,,,,,,46,001, 21,w,Bildungswissenschaft und Psychologie,2023-01-18_15h12.15.485,00_bat_bachelor,2022.2.4,59.94039385204346,
,,,,,,,,,,,,1,0,1,0,19,0,19,0,,,,,,,19,,,0.2,2575.9352902131795,X,d,go,d,1,,0.4599133054143749,,,,,,,,,,,,,,,,,46,001, 21,w,Bildungswissenschaft und Psychologie,2023-01-18_15h12.15.485,00_bat_bachelor,2022.2.4,59.94039385204346,
,,,,,,,,,,,,1,0,1,0,20,0,20,0,,,,,,,20,,,0.2,2576.7022076595167,X,None,nogo,None,1,,,,,,,,,,,,,,,,,,,46,001, 21,w,Bildungswissenschaft und Psychologie,2023-01-18_15h12.15.485,00_bat_bachelor,2022.2.4,59.94039385204346,
,,,,,,,,,,,,1,0,1,0,21,0,21,0,,,,,,,21,,,0.2,2577.7029606288706,Y,l,go,l,1,,0.4348044691141695,,,,,,,,,,,,,,,,,46,001, 21,w,Bildungswissenschaft und Psychologie,2023-01-18_15h12.15.485,00_bat_bachelor,2022.2.4,59.94039385204346,
,,,,,,,,,,,,1,0,1,0,22,0,22,0,,,,,,,22,,,0.2,2578.4539687495853,X,d,go,d,1,,0.43603404427994974,,,,,,,,,,,,,,,,,46,001, 21,w,Bildungswissenschaft und Psychologie,2023-01-18_15h12.15.485,00_bat_bachelor,2022.2.4,59.94039385204346,
,,,,,,,,,,,,1,0,1,0,23,0,23,0,,,,,,,23,,,0.2,2579.204458082677,Y,l,go,l,1,,0.5187797011458315,,,,,,,,,,,,,,,,,46,001, 21,w,Bildungswissenschaft und Psychologie,2023-01-18_15h12.15.485,00_bat_bachelor,2022.2.4,59.94039385204346,
,,,,,,,,,,,,1,0,1,0,24,0,24,0,,,,,,,24,,,0.2,2580.0383175571624,X,d,go,d,1,,0.45224397582933307,,,,,,,,,,,,,,,,,46,001, 21,w,Bildungswissenschaft und Psychologie,2023-01-18_15h12.15.485,00_bat_bachelor,2022.2.4,59.94039385204346,
,,,,,,,,,,,,1,0,1,0,25,0,25,0,,,,,,,25,,,0.2,2580.80578142748,Y,l,go,l,1,,0.5011651642271318,,,,,,,,,,,,,,,,,46,001, 21,w,Bildungswissenschaft und Psychologie,2023-01-18_15h12.15.485,00_bat_bachelor,2022.2.4,59.94039385204346,
,,,,,,,,,,,,1,0,1,0,26,0,26,0,,,,,,,26,,,0.2,2581.622612061765,X,d,go,d,1,,0.4037130902870558,,,,,,,,,,,,,,,,,46,001, 21,w,Bildungswissenschaft und Psychologie,2023-01-18_15h12.15.485,00_bat_bachelor,2022.2.4,59.94039385204346,
,,,,,,,,,,,,1,0,1,0,27,0,27,0,,,,,,,27,,,0.2,2582.3401161987276,Y,l,go,l,1,,0.43830507347593084,,,,,,,,,,,,,,,,,46,001, 21,w,Bildungswissenschaft und Psychologie,2023-01-18_15h12.15.485,00_bat_bachelor,2022.2.4,59.94039385204346,
,,,,,,,,,,,,1,0,1,0,28,0,28,0,,,,,,,28,,,0.2,2583.090720925713,Y,None,nogo,None,1,,,,,,,,,,,,,,,,,,,46,001, 21,w,Bildungswissenschaft und Psychologie,2023-01-18_15h12.15.485,00_bat_bachelor,2022.2.4,59.94039385204346,
,,,,,,,,,,,,1,0,1,0,29,0,29,0,,,,,,,29,,,0.2,2584.091621773754,X,d,go,d,1,,0.3349746993626468,,,,,,,,,,,,,,,,,46,001, 21,w,Bildungswissenschaft und Psychologie,2023-01-18_15h12.15.485,00_bat_bachelor,2022.2.4,59.94039385204346,
,,,,,,,,,,,,1,0,1,0,30,0,30,0,,,,,,,30,,,0.2,2584.741938064515,Y,l,go,l,1,,0.5329013912705705,,,,,,,,,,,,,,,,,46,001, 21,w,Bildungswissenschaft und Psychologie,2023-01-18_15h12.15.485,00_bat_bachelor,2022.2.4,59.94039385204346,
,,,,,,,,,,,,1,0,1,0,31,0,31,0,,,,,,,31,,,0.2,2585.575985660136,Y,None,nogo,None,1,2586.376251938782,,,,,,,,,,,,,,,,,,46,001, 21,w,Bildungswissenschaft und Psychologie,2023-01-18_15h12.15.485,00_bat_bachelor,2022.2.4,59.94039385204346,
,,,,,,,,,,,,1,0,1,0,32,0,32,0,,,,,,,32,,,0.2,2586.5763609326677,X,d,go,d,1,,0.3144350729417056,,,,,,,,,,,,,,,,,46,001, 21,w,Bildungswissenschaft und Psychologie,2023-01-18_15h12.15.485,00_bat_bachelor,2022.2.4,59.94039385204346,
,,,,,,,,,,,,1,0,1,0,33,0,33,0,,,,,,,33,,,0.2,2587.1939009968773,Y,l,go,l,1,,0.36844716797349975,,,,,,,,,,,,,,,,,46,001, 21,w,Bildungswissenschaft und Psychologie,2023-01-18_15h12.15.485,00_bat_bachelor,2022.2.4,59.94039385204346,
,,,,,,,,,,,,1,0,1,0,34,0,34,0,,,,,,,34,,,0.2,2587.877499695751,X,d,go,d,1,,0.4691302706778515,,,,,,,,,,,,,,,,,46,001, 21,w,Bildungswissenschaft und Psychologie,2023-01-18_15h12.15.485,00_bat_bachelor,2022.2.4,59.94039385204346,
,,,,,,,,,,,,1,0,1,0,35,0,35,0,,,,,,,35,,,0.2,2588.6612927702663,Y,l,go,l,1,,0.452818520978326,,,,,,,,,,,,,,,,,46,001, 21,w,Bildungswissenschaft und Psychologie,2023-01-18_15h12.15.485,00_bat_bachelor,2022.2.4,59.94039385204346,
,,,,,,,,,,,,1,0,1,0,36,0,36,0,,,,,,,36,,,0.2,2589.428867185983,X,d,go,d,1,,0.501230618741829,,,,,,,,,,,,,,,,,46,001, 21,w,Bildungswissenschaft und Psychologie,2023-01-18_15h12.15.485,00_bat_bachelor,2022.2.4,59.94039385204346,
,,,,,,,,,,,,1,0,1,0,37,0,37,0,,,,,,,37,,,0.2,2590.2462035169883,X,None,nogo,None,1,2591.0468377954676,,,,,,,,,,,,,,,,,,46,001, 21,w,Bildungswissenschaft und Psychologie,2023-01-18_15h12.15.485,00_bat_bachelor,2022.2.4,59.94039385204346,
,,,,,,,,,,,,1,0,1,0,38,0,38,0,,,,,,,38,,,0.2,2591.2468129712215,Y,l,go,l,1,,0.39652036648476496,,,,,,,,,,,,,,,,,46,001, 21,w,Bildungswissenschaft und Psychologie,2023-01-18_15h12.15.485,00_bat_bachelor,2022.2.4,59.94039385204346,
,,,,,,,,,,,,1,0,1,0,39,0,39,0,,,,,,,39,,,0.2,2591.9474317830463,X,d,go,d,1,,0.4645266365550924,,,,,,,,,,,,,,,,,46,001, 21,w,Bildungswissenschaft und Psychologie,2023-01-18_15h12.15.485,00_bat_bachelor,2022.2.4,59.94039385204346,
,,,,,,,,,,,,1,0,1,0,40,0,40,0,,,,,,,40,,,0.2,2592.7146905625705,Y,l,go,l,1,,0.40024157680454664,,,,,,,,,,,,,,,,,46,001, 21,w,Bildungswissenschaft und Psychologie,2023-01-18_15h12.15.485,00_bat_bachelor,2022.2.4,59.94039385204346,
,,,,,,,,,,,,1,0,1,0,41,0,41,0,,,,,,,41,,,0.2,2593.4152686471352,X,d,go,d,1,,0.5153823694563471,,,,,,,,,,,,,,,,,46,001, 21,w,Bildungswissenschaft und Psychologie,2023-01-18_15h12.15.485,00_bat_bachelor,2022.2.4,59.94039385204346,
,,,,,,,,,,,,1,0,1,0,42,0,42,0,,,,,,,42,,,0.2,2594.2326786750637,Y,l,go,l,1,,0.385578796005575,,,,,,,,,,,,,,,,,46,001, 21,w,Bildungswissenschaft und Psychologie,2023-01-18_15h12.15.485,00_bat_bachelor,2022.2.4,59.94039385204346,
,,,,,,,,,,,,1,0,1,0,43,0,43,0,,,,,,,43,,,0.2,2594.9333086383995,X,d,go,d,1,,0.4047336958174128,,,,,,,,,,,,,,,,,46,001, 21,w,Bildungswissenschaft und Psychologie,2023-01-18_15h12.15.485,00_bat_bachelor,2022.2.4,59.94039385204346,
,,,,,,,,,,,,1,0,1,0,44,0,44,0,,,,,,,44,,,0.2,2595.650768654159,Y,l,go,l,1,,0.45558070146944374,,,,,,,,,,,,,,,,,46,001, 21,w,Bildungswissenschaft und Psychologie,2023-01-18_15h12.15.485,00_bat_bachelor,2022.2.4,59.94039385204346,
,,,,,,,,,,,,1,0,1,0,45,0,45,0,,,,,,,45,,,0.2,2596.4178616155696,Y,None,nogo,d,0,,0.44027889071730897,,,,,,,,,,,,,,,,,46,001, 21,w,Bildungswissenschaft und Psychologie,2023-01-18_15h12.15.485,00_bat_bachelor,2022.2.4,59.94039385204346,
,,,,,,,,,,,,1,0,1,0,46,0,46,0,,,,,,,46,,,0.2,2597.185104879929,X,d,go,None,0,2597.9857129766315,,,,,,,,,,,,,,,,,,46,001, 21,w,Bildungswissenschaft und Psychologie,2023-01-18_15h12.15.485,00_bat_bachelor,2022.2.4,59.94039385204346,
,,,,,,,,,,,,1,0,1,0,47,0,47,0,,,,,,,47,,,0.2,2598.185903909849,Y,l,go,None,0,2598.9863132187456,,,,,,,,,,,,,,,,,,46,001, 21,w,Bildungswissenschaft und Psychologie,2023-01-18_15h12.15.485,00_bat_bachelor,2022.2.4,59.94039385204346,
,,,,,,,,,,,,1,0,1,0,48,0,48,0,,,,,,,48,,,0.2,2599.1864930004813,Y,None,nogo,l,0,,0.6487316381535493,,,,,,,,,,,,,,,,,46,001, 21,w,Bildungswissenschaft und Psychologie,2023-01-18_15h12.15.485,00_bat_bachelor,2022.2.4,59.94039385204346,
,,,,,,,,,,,,1,0,1,0,49,0,49,0,,,,,,,49,,,0.2,2600.1373284182628,X,d,go,d,1,,0.4011075157613959,,,,,,,,,,,,,,,,,46,001, 21,w,Bildungswissenschaft und Psychologie,2023-01-18_15h12.15.485,00_bat_bachelor,2022.2.4,59.94039385204346,
,,,,,,,,,,,,1,0,1,0,50,0,50,0,,,,,,,50,,,0.2,2600.8546347371303,Y,l,go,l,1,,0.6595170874497853,,,,,,,,,,,,,,,,,46,001, 21,w,Bildungswissenschaft und Psychologie,2023-01-18_15h12.15.485,00_bat_bachelor,2022.2.4,59.94039385204346,
,,,,,,,,,,,,1,0,1,0,51,0,51,0,,,,,,,51,,,0.2,2601.821960328729,X,d,go,d,1,,0.4290081083017867,,,,,,,,,,,,,,,,,46,001, 21,w,Bildungswissenschaft und Psychologie,2023-01-18_15h12.15.485,00_bat_bachelor,2022.2.4,59.94039385204346,
,,,,,,,,,,,,1,0,1,0,52,0,52,0,,,,,,,52,,,0.2,2602.5559255486296,Y,l,go,l,1,,0.35118172178044915,,,,,,,,,,,,,,,,,46,001, 21,w,Bildungswissenschaft und Psychologie,2023-01-18_15h12.15.485,00_bat_bachelor,2022.2.4,59.94039385204346,
,,,,,,,,,,,,1,0,1,0,53,0,53,0,,,,,,,53,,,0.2,2603.2228924979863,Y,None,nogo,None,1,2604.0236955036526,,,,,,,,,,,,,,,,,,46,001, 21,w,Bildungswissenschaft und Psychologie,2023-01-18_15h12.15.485,00_bat_bachelor,2022.2.4,59.94039385204346,
,,,,,,,,,,,,1,0,1,0,54,0,54,0,,,,,,,54,,,0.2,2604.223785103619,X,d,go,d,1,,0.29822320202947594,,,,,,,,,,,,,,,,,46,001, 21,w,Bildungswissenschaft und Psychologie,2023-01-18_15h12.15.485,00_bat_bachelor,2022.2.4,59.94039385204346,
,,,,,,,,,,,,1,0,1,0,55,0,55,0,,,,,,,55,,,0.2,2604.8409949861816,Y,l,go,l,1,,0.2892990851541981,,,,,,,,,,,,,,,,,46,001, 21,w,Bildungswissenschaft und Psychologie,2023-01-18_15h12.15.485,00_bat_bachelor,2022.2.4,59.94039385204346,
,,,,,,,,,,,,1,0,1,0,56,0,56,0,,,,,,,56,,,0.2,2605.457942081004,X,d,go,d,1,,0.312636770773679,,,,,,,,,,,,,,,,,46,001, 21,w,Bildungswissenschaft und Psychologie,2023-01-18_15h12.15.485,00_bat_bachelor,2022.2.4,59.94039385204346,
,,,,,,,,,,,,1,0,1,0,57,0,57,0,,,,,,,57,,,0.2,2606.074565782008,X,None,nogo,None,1,,,,,,,,,,,,,,,,,,,46,001, 21,w,Bildungswissenschaft und Psychologie,2023-01-18_15h12.15.485,00_bat_bachelor,2022.2.4,59.94039385204346,
,,,,,,,,,,,,1,0,1,0,58,0,58,0,,,,,,,58,,,0.2,2607.075333781657,Y,l,go,l,1,,0.21577766624977812,,,,,,,,,,,,,,,,,46,001, 21,w,Bildungswissenschaft und Psychologie,2023-01-18_15h12.15.485,00_bat_bachelor,2022.2.4,59.94039385204346,
,,,,,,,,,,,,1,0,1,0,59,0,59,0,,,,,,,59,,,0.2,2607.5923749855137,X,d,go,d,1,,0.49891449863207527,,,,,,,,,,,,,,,,,46,001, 21,w,Bildungswissenschaft und Psychologie,2023-01-18_15h12.15.485,00_bat_bachelor,2022.2.4,59.94039385204346,
,,,,,,,,,,,,1,0,1,0,60,0,60,0,,,,,,,60,,,0.2,2608.3933588395885,Y,l,go,l,1,,0.48138335565454327,,,,,,,,,,,,,,,,,46,001, 21,w,Bildungswissenschaft und Psychologie,2023-01-18_15h12.15.485,00_bat_bachelor,2022.2.4,59.94039385204346,
,,,,,,,,,,,,1,0,1,0,61,0,61,0,,,,,,,61,,,0.2,2609.1772304595215,X,d,go,None,0,,,,,,,,,,,,,,,,,,,46,001, 21,w,Bildungswissenschaft und Psychologie,2023-01-18_15h12.15.485,00_bat_bachelor,2022.2.4,59.94039385204346,
,,,,,,,,,,,,1,0,1,0,62,0,62,0,,,,,,,62,,,0.2,2610.1779262167693,Y,l,go,l,1,,0.5846637904178351,,,,,,,,,,,,,,,,,46,001, 21,w,Bildungswissenschaft und Psychologie,2023-01-18_15h12.15.485,00_bat_bachelor,2022.2.4,59.94039385204346,
,,,,,,,,,,,,1,0,1,0,63,0,63,0,,,,,,,63,,,0.2,2611.0783732953423,Y,None,nogo,d,0,,0.3556399014487397,,,,,,,,,,,,,,,,,46,001, 21,w,Bildungswissenschaft und Psychologie,2023-01-18_15h12.15.485,00_bat_bachelor,2022.2.4,59.94039385204346,
,,,,,,,,,,,,1,0,1,0,64,0,64,0,,,,,,,64,,,0.2,2611.7457606081152,X,d,go,None,0,2612.546505431994,,,,,,,,,,,,,,,,,,46,001, 21,w,Bildungswissenschaft und Psychologie,2023-01-18_15h12.15.485,00_bat_bachelor,2022.2.4,59.94039385204346,
,,,,,,,,,,,,1,0,1,0,65,0,65,0,,,,,,,65,,,0.2,2612.746484486561,Y,l,go,l,1,,0.48108178001712076,,,,,,,,,,,,,,,,,46,001, 21,w,Bildungswissenschaft und Psychologie,2023-01-18_15h12.15.485,00_bat_bachelor,2022.2.4,59.94039385204346,
,,,,,,,,,,,,1,0,1,0,66,0,66,0,,,,,,,66,,,0.2,2613.530557803373,Y,None,nogo,d,0,,0.3516001458337996,,,,,,,,,,,,,,,,,46,001, 21,w,Bildungswissenschaft und Psychologie,2023-01-18_15h12.15.485,00_bat_bachelor,2022.2.4,59.94039385204346,
,,,,,,,,,,,,1,0,1,0,67,0,67,0,,,,,,,67,,,0.2,2614.197717237461,Y,None,nogo,None,1,2614.9983364856453,,,,,,,,,,,,,,,,,,46,001, 21,w,Bildungswissenschaft und Psychologie,2023-01-18_15h12.15.485,00_bat_bachelor,2022.2.4,59.94039385204346,
,,,,,,,,,,,,1,0,1,0,68,0,68,0,,,,,,,68,,,0.2,2615.198293722031,X,d,go,d,1,,0.23542856579297222,,,,,,,,,,,,,,,,,46,001, 21,w,Bildungswissenschaft und Psychologie,2023-01-18_15h12.15.485,00_bat_bachelor,2022.2.4,59.94039385204346,
,,,,,,,,,,,,1,0,1,0,69,0,69,0,,,,,,,69,,,0.2,2615.74896109142,Y,l,go,l,1,,0.4855108688061591,,,,,,,,,,,,,,,,,46,001, 21,w,Bildungswissenschaft und Psychologie,2023-01-18_15h12.15.485,00_bat_bachelor,2022.2.4,59.94039385204346,
,,,,,,,,,,,,1,0,1,0,70,0,70,0,,,,,,,70,,,0.2,2616.549213309452,X,d,go,None,0,,,,,,,,,,,,,,,,,,,46,001, 21,w,Bildungswissenschaft und Psychologie,2023-01-18_15h12.15.485,00_bat_bachelor,2022.2.4,59.94039385204346,
,,,,,,,,,,,,1,0,1,0,71,0,71,0,,,,,,,71,,,0.2,2617.5501340362825,Y,l,go,None,0,,,,,,,,,,,,,,,,,,,46,001, 21,w,Bildungswissenschaft und Psychologie,2023-01-18_15h12.15.485,00_bat_bachelor,2022.2.4,59.94039385204346,
,,,,,,,,,,,,1,0,1,0,72,0,72,0,,,,,,,72,,,0.2,2618.5510998539976,X,d,go,d,1,,0.3391536064154934,,,,,,,,,,,,,,,,,46,001, 21,w,Bildungswissenschaft und Psychologie,2023-01-18_15h12.15.485,00_bat_bachelor,2022.2.4,59.94039385204346,
,,,,,,,,,,,,1,0,1,0,73,0,73,0,,,,,,,73,,,0.2,2619.20158972044,Y,l,go,l,1,,0.5212737605324946,,,,,,,,,,,,,,,,,46,001, 21,w,Bildungswissenschaft und Psychologie,2023-01-18_15h12.15.485,00_bat_bachelor,2022.2.4,59.94039385204346,
,,,,,,,,,,,,1,0,1,0,74,0,74,0,,,,,,,74,,,0.2,2620.0355883463635,X,d,go,d,1,,0.4075899368908722,,,,,,,,,,,,,,,,,46,001, 21,w,Bildungswissenschaft und Psychologie,2023-01-18_15h12.15.485,00_bat_bachelor,2022.2.4,59.94039385204346,
,,,,,,,,,,,,1,0,1,0,75,0,75,0,,,,,,,75,,,0.2,2620.7527138168516,Y,l,go,l,1,,0.4425164653803222,,,,,,,,,,,,,,,,,46,001, 21,w,Bildungswissenschaft und Psychologie,2023-01-18_15h12.15.485,00_bat_bachelor,2022.2.4,59.94039385204346,
,,,,,,,,,,,,1,0,1,0,76,0,76,0,,,,,,,76,,,0.2,2621.503004847036,X,d,go,None,0,2622.303969792003,,,,,,,,,,,,,,,,,,46,001, 21,w,Bildungswissenschaft und Psychologie,2023-01-18_15h12.15.485,00_bat_bachelor,2022.2.4,59.94039385204346,
,,,,,,,,,,,,1,0,1,0,77,0,77,0,,,,,,,77,,,0.2,2622.503728240612,Y,l,go,l,1,,0.5156373996287584,,,,,,,,,,,,,,,,,46,001, 21,w,Bildungswissenschaft und Psychologie,2023-01-18_15h12.15.485,00_bat_bachelor,2022.2.4,59.94039385204346,
,,,,,,,,,,,,1,0,1,0,78,0,78,0,,,,,,,78,,,0.2,2623.32118869276,X,d,go,d,1,,0.6414055810892023,,,,,,,,,,,,,,,,,46,001, 21,w,Bildungswissenschaft und Psychologie,2023-01-18_15h12.15.485,00_bat_bachelor,2022.2.4,59.94039385204346,
,,,,,,,,,,,,1,0,1,0,79,0,79,0,,,,,,,79,,,0.2,2624.2721210801683,X,None,nogo,None,1,,,,,,,,,,,,,,,,,,,46,001, 21,w,Bildungswissenschaft und Psychologie,2023-01-18_15h12.15.485,00_bat_bachelor,2022.2.4,59.94039385204346,
,,,,,,,,,,,,1,0,1,0,80,0,80,0,,,,,,,80,,,0.2,2625.2725414436136,Y,l,go,l,1,,0.24227801704546437,,,,,,,,,,,,,,,,,46,001, 21,w,Bildungswissenschaft und Psychologie,2023-01-18_15h12.15.485,00_bat_bachelor,2022.2.4,59.94039385204346,
,,,,,,,,,,,,1,0,1,0,81,0,81,0,,,,,,,81,,,0.2,2625.8232980250614,X,d,go,d,1,,0.4911263812100515,,,,,,,,,,,,,,,,,46,001, 21,w,Bildungswissenschaft und Psychologie,2023-01-18_15h12.15.485,00_bat_bachelor,2022.2.4,59.94039385204346,
,,,,,,,,,,,,1,0,1,0,82,0,82,0,,,,,,,82,,,0.2,2626.6238324248116,Y,l,go,l,1,,0.4906948662828654,,,,,,,,,,,,,,,,,46,001, 21,w,Bildungswissenschaft und Psychologie,2023-01-18_15h12.15.485,00_bat_bachelor,2022.2.4,59.94039385204346,
,,,,,,,,,,,,1,0,1,0,83,0,83,0,,,,,,,83,,,0.2,2627.4244802790345,X,d,go,d,1,,0.45825803352636285,,,,,,,,,,,,,,,,,46,001, 21,w,Bildungswissenschaft und Psychologie,2023-01-18_15h12.15.485,00_bat_bachelor,2022.2.4,59.94039385204346,
,,,,,,,,,,,,1,0,1,0,84,0,84,0,,,,,,,84,,,0.2,2628.1916837858444,Y,l,go,l,1,,0.6189105616940651,,,,,,,,,,,,,,,,,46,001, 21,w,Bildungswissenschaft und Psychologie,2023-01-18_15h12.15.485,00_bat_bachelor,2022.2.4,59.94039385204346,
,,,,,,,,,,,,1,0,1,0,85,0,85,0,,,,,,,85,,,0.2,2629.1254932724696,Y,None,nogo,d,0,,0.6303020713094156,,,,,,,,,,,,,,,,,46,001, 21,w,Bildungswissenschaft und Psychologie,2023-01-18_15h12.15.485,00_bat_bachelor,2022.2.4,59.94039385204346,
,,,,,,,,,,,,1,0,1,0,86,0,86,0,,,,,,,86,,,0.2,2630.059545668104,X,d,go,l,0,,0.5275142423633952,,,,,,,,,,,,,,,,,46,001, 21,w,Bildungswissenschaft und Psychologie,2023-01-18_15h12.15.485,00_bat_bachelor,2022.2.4,59.94039385204346,
,,,,,,,,,,,,1,0,1,0,87,0,87,0,,,,,,,87,,,0.2,2630.893802718143,Y,l,go,None,0,,,,,,,,,,,,,,,,,,,46,001, 21,w,Bildungswissenschaft und Psychologie,2023-01-18_15h12.15.485,00_bat_bachelor,2022.2.4,59.94039385204346,
,,,,,,,,,,,,1,0,1,0,88,0,88,0,,,,,,,88,,,0.2,2631.894533384475,Y,None,nogo,None,1,,,,,,,,,,,,,,,,,,,46,001, 21,w,Bildungswissenschaft und Psychologie,2023-01-18_15h12.15.485,00_bat_bachelor,2022.2.4,59.94039385204346,
,,,,,,,,,,,,1,0,1,0,89,0,89,0,,,,,,,89,,,0.2,2632.895381868904,Y,None,nogo,None,1,,,,,,,,,,,,,,,,,,,46,001, 21,w,Bildungswissenschaft und Psychologie,2023-01-18_15h12.15.485,00_bat_bachelor,2022.2.4,59.94039385204346,
,,,,,,,,,,,,1,0,1,0,90,0,90,0,,,,,,,90,,,0.2,2633.8960601715953,X,d,go,d,1,,0.4825125672214199,,,,,,,,,,,,,,,,,46,001, 21,w,Bildungswissenschaft und Psychologie,2023-01-18_15h12.15.485,00_bat_bachelor,2022.2.4,59.94039385204346,
,,,,,,,,,,,,1,0,1,0,91,0,91,0,,,,,,,91,,,0.2,2634.6801155490393,Y,l,go,l,1,,0.611903534794692,,,,,,,,,,,,,,,,,46,001, 21,w,Bildungswissenschaft und Psychologie,2023-01-18_15h12.15.485,00_bat_bachelor,2022.2.4,59.94039385204346,
,,,,,,,,,,,,1,0,1,0,92,0,92,0,,,,,,,92,,,0.2,2635.5974397103128,Y,None,nogo,None,1,,,,,,,,,,,,,,,,,,,46,001, 21,w,Bildungswissenschaft und Psychologie,2023-01-18_15h12.15.485,00_bat_bachelor,2022.2.4,59.94039385204346,
,,,,,,,,,,,,1,0,1,0,93,0,93,0,,,,,,,93,,,0.2,2636.598184922099,X,d,go,d,1,,0.40413054460077547,,,,,,,,,,,,,,,,,46,001, 21,w,Bildungswissenschaft und Psychologie,2023-01-18_15h12.15.485,00_bat_bachelor,2022.2.4,59.94039385204346,
,,,,,,,,,,,,1,0,1,0,94,0,94,0,,,,,,,94,,,0.2,2637.315330271347,Y,l,go,l,1,,0.4547743988514412,,,,,,,,,,,,,,,,,46,001, 21,w,Bildungswissenschaft und Psychologie,2023-01-18_15h12.15.485,00_bat_bachelor,2022.2.4,59.94039385204346,
,,,,,,,,,,,,1,0,1,0,95,0,95,0,,,,,,,95,,,0.2,2638.0825735357066,X,d,go,d,1,,0.6003137222141959,,,,,,,,,,,,,,,,,46,001, 21,w,Bildungswissenschaft und Psychologie,2023-01-18_15h12.15.485,00_bat_bachelor,2022.2.4,59.94039385204346,
,,,,,,,,,,,,1,0,1,0,96,0,96,0,,,,,,,96,,,0.2,2638.9831670384447,X,None,nogo,None,1,,,,,,,,,,,,,,,,,,,46,001, 21,w,Bildungswissenschaft und Psychologie,2023-01-18_15h12.15.485,00_bat_bachelor,2022.2.4,59.94039385204346,
,,,,,,,,,,,,1,0,1,0,97,0,97,0,,,,,,,97,,,0.2,2639.9839277653664,Y,l,go,l,1,,0.26686952024465427,,,,,,,,,,,,,,,,,46,001, 21,w,Bildungswissenschaft und Psychologie,2023-01-18_15h12.15.485,00_bat_bachelor,2022.2.4,59.94039385204346,
,,,,,,,,,,,,1,0,1,0,98,0,98,0,,,,,,,98,,,0.2,2640.5511614297284,X,d,go,d,1,,0.4830851730075665,,,,,,,,,,,,,,,,,46,001, 21,w,Bildungswissenschaft und Psychologie,2023-01-18_15h12.15.485,00_bat_bachelor,2022.2.4,59.94039385204346,
,,,,,,,,,,,,1,0,1,0,99,0,99,0,,,,,,,99,,,0.2,2641.3351644435606,Y,l,go,None,0,,,,,,,,,,,,,,,,,,,46,001, 21,w,Bildungswissenschaft und Psychologie,2023-01-18_15h12.15.485,00_bat_bachelor,2022.2.4,59.94039385204346,
,,,,,,,,,,,,1,0,1,0,100,0,100,0,,,,,,,100,,,0.2,2642.3357898977993,X,d,go,None,0,,,,,,,,,,,,,,,,,,,46,001, 21,w,Bildungswissenschaft und Psychologie,2023-01-18_15h12.15.485,00_bat_bachelor,2022.2.4,59.94039385204346,
,,,,,,,,,,,,1,0,1,0,101,0,101,0,,,,,,,101,,,0.2,2643.336655836756,Y,l,go,None,0,2644.137218842545,,,,,,,,,,,,,,,,,,46,001, 21,w,Bildungswissenschaft und Psychologie,2023-01-18_15h12.15.485,00_bat_bachelor,2022.2.4,59.94039385204346,
,,,,,,,,,,,,1,0,1,0,102,0,102,0,,,,,,,102,,,0.2,2644.337232806196,Y,None,nogo,None,1,2645.137973266421,,,,,,,,,,,,,,,,,,46,001, 21,w,Bildungswissenschaft und Psychologie,2023-01-18_15h12.15.485,00_bat_bachelor,2022.2.4,59.94039385204346,
,,,,,,,,,,,,1,0,1,0,103,0,103,0,,,,,,,103,,,0.2,2645.3381719572353,X,d,go,d,1,,0.4003327282553073,,,,,,,,,,,,,,,,,46,001, 21,w,Bildungswissenschaft und Psychologie,2023-01-18_15h12.15.485,00_bat_bachelor,2022.2.4,59.94039385204346,
,,,,,,,,,,,,1,0,1,0,104,0,104,0,,,,,,,104,,,0.2,2646.0387025266828,Y,l,go,l,1,,0.4354134385357611,,,,,,,,,,,,,,,,,46,001, 21,w,Bildungswissenschaft und Psychologie,2023-01-18_15h12.15.485,00_bat_bachelor,2022.2.4,59.94039385204346,
,,,,,,,,,,,,1,0,1,0,105,0,105,0,,,,,,,105,,,0.2,2646.7892447082268,X,d,go,d,1,,0.5651588301698212,,,,,,,,,,,,,,,,,46,001, 21,w,Bildungswissenschaft und Psychologie,2023-01-18_15h12.15.485,00_bat_bachelor,2022.2.4,59.94039385204346,
,,,,,,,,,,,,1,0,1,0,106,0,106,0,,,,,,,106,,,0.2,2647.656579075585,X,None,nogo,None,1,,,,,,,,,,,,,,,,,,,46,001, 21,w,Bildungswissenschaft und Psychologie,2023-01-18_15h12.15.485,00_bat_bachelor,2022.2.4,59.94039385204346,
,,,,,,,,,,,,1,0,1,0,107,0,107,0,,,,,,,107,,,0.2,2648.6570910753508,Y,l,go,l,1,,0.6013091156783048,,,,,,,,,,,,,,,,,46,001, 21,w,Bildungswissenschaft und Psychologie,2023-01-18_15h12.15.485,00_bat_bachelor,2022.2.4,59.94039385204346,
,,,,,,,,,,,,1,0,1,0,108,0,108,0,,,,,,,108,,,0.2,2649.574367721507,X,d,go,d,1,,0.4995748619840015,,,,,,,,,,,,,,,,,46,001, 21,w,Bildungswissenschaft und Psychologie,2023-01-18_15h12.15.485,00_bat_bachelor,2022.2.4,59.94039385204346,
,,,,,,,,,,,,1,0,1,0,109,0,109,0,,,,,,,109,,,0.2,2650.3749738787883,X,None,nogo,None,1,,,,,,,,,,,,,,,,,,,46,001, 21,w,Bildungswissenschaft und Psychologie,2023-01-18_15h12.15.485,00_bat_bachelor,2022.2.4,59.94039385204346,
,,,,,,,,,,,,1,0,1,0,110,0,110,0,,,,,,,110,,,0.2,2651.376155453967,Y,l,go,l,1,,0.4110701775935013,,,,,,,,,,,,,,,,,46,001, 21,w,Bildungswissenschaft und Psychologie,2023-01-18_15h12.15.485,00_bat_bachelor,2022.2.4,59.94039385204346,
,,,,,,,,,,,,1,0,1,0,111,0,111,0,,,,,,,111,,,0.2,2652.0933022577956,X,d,go,d,1,,0.5748368861095514,,,,,,,,,,,,,,,,,46,001, 21,w,Bildungswissenschaft und Psychologie,2023-01-18_15h12.15.485,00_bat_bachelor,2022.2.4,59.94039385204346,
,,,,,,,,,,,,1,0,1,0,112,0,112,0,,,,,,,112,,,0.2,2652.9772480110114,X,None,nogo,None,1,,,,,,,,,,,,,,,,,,,46,001, 21,w,Bildungswissenschaft und Psychologie,2023-01-18_15h12.15.485,00_bat_bachelor,2022.2.4,59.94039385204346,
,,,,,,,,,,,,1,0,1,0,113,0,113,0,,,,,,,113,,,0.2,2653.978068374272,Y,l,go,l,1,,0.43210725832614116,,,,,,,,,,,,,,,,,46,001, 21,w,Bildungswissenschaft und Psychologie,2023-01-18_15h12.15.485,00_bat_bachelor,2022.2.4,59.94039385204346,
,,,,,,,,,,,,1,0,1,0,114,0,114,0,,,,,,,114,,,0.2,2654.7120602608193,X,d,go,d,1,,0.6271951637172606,,,,,,,,,,,,,,,,,46,001, 21,w,Bildungswissenschaft und Psychologie,2023-01-18_15h12.15.485,00_bat_bachelor,2022.2.4,59.94039385204346,
,,,,,,,,,,,,1,0,1,0,115,0,115,0,,,,,,,115,,,0.2,2655.6456602929975,X,None,nogo,None,1,,,,,,,,,,,,,,,,,,,46,001, 21,w,Bildungswissenschaft und Psychologie,2023-01-18_15h12.15.485,00_bat_bachelor,2022.2.4,59.94039385204346,
,,,,,,,,,,,,1,0,1,0,116,0,116,0,,,,,,,116,,,0.2,2656.6467861106503,Y,l,go,l,1,,0.3556539620622061,,,,,,,,,,,,,,,,,46,001, 21,w,Bildungswissenschaft und Psychologie,2023-01-18_15h12.15.485,00_bat_bachelor,2022.2.4,59.94039385204346,
,,,,,,,,,,,,1,0,1,0,117,0,117,0,,,,,,,117,,,0.2,2657.3138728174963,X,d,go,None,0,,,,,,,,,,,,,,,,,,,46,001, 21,w,Bildungswissenschaft und Psychologie,2023-01-18_15h12.15.485,00_bat_bachelor,2022.2.4,59.94039385204346,
,,,,,,,,,,,,1,0,1,0,118,0,118,0,,,,,,,118,,,0.2,2658.314697059541,X,None,nogo,None,1,,,,,,,,,,,,,,,,,,,46,001, 21,w,Bildungswissenschaft und Psychologie,2023-01-18_15h12.15.485,00_bat_bachelor,2022.2.4,59.94039385204346,
,,,,,,,,,,,,1,0,1,0,119,0,119,0,,,,,,,119,,,0.2,2659.3154815440066,Y,l,go,l,1,,0.40716327039990574,,,,,,,,,,,,,,,,,46,001, 21,w,Bildungswissenschaft und Psychologie,2023-01-18_15h12.15.485,00_bat_bachelor,2022.2.4,59.94039385204346,
,,,,,,,,,,,,1,0,1,0,120,0,120,0,,,,,,,120,,,0.2,2660.032808711345,X,d,go,d,1,,0.37879189022351056,,,,,,,,,,,,,,,,,46,001, 21,w,Bildungswissenschaft und Psychologie,2023-01-18_15h12.15.485,00_bat_bachelor,2022.2.4,59.94039385204346,
,,,,,,,,,,,,1,0,1,0,121,0,121,0,,,,,,,121,,,0.2,2660.716554804094,X,None,nogo,None,1,,,,,,,,,,,,,,,,,,,46,001, 21,w,Bildungswissenschaft und Psychologie,2023-01-18_15h12.15.485,00_bat_bachelor,2022.2.4,59.94039385204346,
,,,,,,,,,,,,1,0,1,0,122,0,122,0,,,,,,,122,,,0.2,2661.717227288609,Y,l,go,l,1,,0.277493515110109,,,,,,,,,,,,,,,,,46,001, 21,w,Bildungswissenschaft und Psychologie,2023-01-18_15h12.15.485,00_bat_bachelor,2022.2.4,59.94039385204346,
,,,,,,,,,,,,1,0,1,0,123,0,123,0,,,,,,,123,,,0.2,2662.318192815408,X,d,go,d,1,,0.5712684029713273,,,,,,,,,,,,,,,,,46,001, 21,w,Bildungswissenschaft und Psychologie,2023-01-18_15h12.15.485,00_bat_bachelor,2022.2.4,59.94039385204346,
,,,,,,,,,,,,1,0,1,0,124,0,124,0,,,,,,,124,,,0.2,2663.21888134841,Y,l,go,None,0,2664.0195039905375,,,,,,,,,,,,,,,,,,46,001, 21,w,Bildungswissenschaft und Psychologie,2023-01-18_15h12.15.485,00_bat_bachelor,2022.2.4,59.94039385204346,
,,,,,,,,,,,,1,0,1,0,125,0,125,0,,,,,,,125,,,0.2,2664.219643529854,Y,None,nogo,None,1,2665.0202123538184,,,,,,,,,,,,,,,,,,46,001, 21,w,Bildungswissenschaft und Psychologie,2023-01-18_15h12.15.485,00_bat_bachelor,2022.2.4,59.94039385204346,
,,,,,,,,,,,,1,0,1,0,126,0,126,0,,,,,,,126,,,0.2,2665.2204221961438,Y,None,nogo,None,1,2666.021039989806,,,,,,,,,,,,,,,,,,46,001, 21,w,Bildungswissenschaft und Psychologie,2023-01-18_15h12.15.485,00_bat_bachelor,2022.2.4,59.94039385204346,
,,,,,,,,,,,,1,0,1,0,127,0,127,0,,,,,,,127,,,0.2,2666.221387529018,X,d,go,d,1,,0.5728722809872124,,,,,,,,,,,,,,,,,46,001, 21,w,Bildungswissenschaft und Psychologie,2023-01-18_15h12.15.485,00_bat_bachelor,2022.2.4,59.94039385204346,
,,,,,,,,,,,,1,0,1,0,128,0,128,0,,,,,,,128,,,0.2,2667.138512417674,Y,l,go,l,1,,0.4394270123448223,,,,,,,,,,,,,,,,,46,001, 21,w,Bildungswissenschaft und Psychologie,2023-01-18_15h12.15.485,00_bat_bachelor,2022.2.4,59.94039385204346,
,,,,,,,,,,,,1,0,1,0,129,0,129,0,,,,,,,129,,,0.2,2667.9227156738343,Y,None,nogo,None,1,2668.723069225176,,,,,,,,,,,,,,,,,,46,001, 21,w,Bildungswissenschaft und Psychologie,2023-01-18_15h12.15.485,00_bat_bachelor,2022.2.4,59.94039385204346,
,,,,,,,,,,,,1,0,1,0,130,0,130,0,,,,,,,130,,,0.2,2668.9234293704503,X,d,go,d,1,,0.4469857965304982,,,,,,,,,,,,,,,,,46,001, 21,w,Bildungswissenschaft und Psychologie,2023-01-18_15h12.15.485,00_bat_bachelor,2022.2.4,59.94039385204346,
,,,,,,,,,,,,1,0,1,0,131,0,131,0,,,,,,,131,,,0.2,2669.6740806428716,Y,l,go,l,1,,0.4314032586698886,,,,,,,,,,,,,,,,,46,001, 21,w,Bildungswissenschaft und Psychologie,2023-01-18_15h12.15.485,00_bat_bachelor,2022.2.4,59.94039385204346,
,,,,,,,,,,,,1,0,1,0,132,0,132,0,,,,,,,132,,,0.2,2670.4410543316044,X,d,go,None,0,2671.241973700846,,,,,,,,,,,,,,,,,,46,001, 21,w,Bildungswissenschaft und Psychologie,2023-01-18_15h12.15.485,00_bat_bachelor,2022.2.4,59.94039385204346,
,,,,,,,,,,,,1,0,1,0,133,0,133,0,,,,,,,133,,,0.2,2671.4418417251727,X,None,nogo,None,1,2672.242709215643,,,,,,,,,,,,,,,,,,46,001, 21,w,Bildungswissenschaft und Psychologie,2023-01-18_15h12.15.485,00_bat_bachelor,2022.2.4,59.94039385204346,
,,,,,,,,,,,,1,0,1,0,134,0,134,0,,,,,,,134,,,0.2,2672.442545239959,Y,l,go,l,1,,0.3994561226281803,,,,,,,,,,,,,,,,,46,001, 21,w,Bildungswissenschaft und Psychologie,2023-01-18_15h12.15.485,00_bat_bachelor,2022.2.4,59.94039385204346,
,,,,,,,,,,,,1,0,1,0,135,0,135,0,,,,,,,135,,,0.2,2673.1764096114202,X,d,go,d,1,,0.43270943986135535,,,,,,,,,,,,,,,,,46,001, 21,w,Bildungswissenschaft und Psychologie,2023-01-18_15h12.15.485,00_bat_bachelor,2022.2.4,59.94039385204346,
,,,,,,,,,,,,1,0,1,0,136,0,136,0,,,,,,,136,,,0.2,2673.9440126332047,X,None,nogo,None,1,2674.744322548213,,,,,,,,,,,,,,,,,,46,001, 21,w,Bildungswissenschaft und Psychologie,2023-01-18_15h12.15.485,00_bat_bachelor,2022.2.4,59.94039385204346,
,,,,,,,,,,,,1,0,1,0,137,0,137,0,,,,,,,137,,,0.2,2674.944656996522,Y,l,go,None,0,2675.7454241234227,,,,,,,,,,,,,,,,,,46,001, 21,w,Bildungswissenschaft und Psychologie,2023-01-18_15h12.15.485,00_bat_bachelor,2022.2.4,59.94039385204346,
,,,,,,,,,,,,1,0,1,0,138,0,138,0,,,,,,,138,,,0.2,2675.9452397841087,X,d,go,d,1,,0.22411463188473135,,,,,,,,,,,,,,,,,46,001, 21,w,Bildungswissenschaft und Psychologie,2023-01-18_15h12.15.485,00_bat_bachelor,2022.2.4,59.94039385204346,
,,,,,,,,,,,,1,0,1,0,139,0,139,0,,,,,,,139,,,0.2,2676.4958591535105,Y,l,go,l,1,,0.32985712608206086,,,,,,,,,,,,,,,,,46,001, 21,w,Bildungswissenschaft und Psychologie,2023-01-18_15h12.15.485,00_bat_bachelor,2022.2.4,59.94039385204346,
,,,,,,,,,,,,1,0,1,0,140,0,140,0,,,,,,,140,,,0.2,2677.146327201772,X,d,go,None,0,2677.946914934815,,,,,,,,,,,,,,,,,,46,001, 21,w,Bildungswissenschaft und Psychologie,2023-01-18_15h12.15.485,00_bat_bachelor,2022.2.4,59.94039385204346,
,,,,,,,,,,,,1,0,1,0,141,0,141,0,,,,,,,141,,,0.2,2678.14691241362,X,None,nogo,None,1,2678.9477750556252,,,,,,,,,,,,,,,,,,46,001, 21,w,Bildungswissenschaft und Psychologie,2023-01-18_15h12.15.485,00_bat_bachelor,2022.2.4,59.94039385204346,
,,,,,,,,,,,,1,0,1,0,142,0,142,0,,,,,,,142,,,0.2,2679.1479150797823,X,None,nogo,None,1,2679.9483588129224,,,,,,,,,,,,,,,,,,46,001, 21,w,Bildungswissenschaft und Psychologie,2023-01-18_15h12.15.485,00_bat_bachelor,2022.2.4,59.94039385204346,
,,,,,,,,,,,,1,0,1,0,143,0,143,0,,,,,,,143,,,0.2,2680.1486118067405,Y,l,go,l,1,,0.4689848161942791,,,,,,,,,,,,,,,,,46,001, 21,w,Bildungswissenschaft und Psychologie,2023-01-18_15h12.15.485,00_bat_bachelor,2022.2.4,59.94039385204346,
