loop_instruction.thisRepN,loop_instruction.thisTrialN,loop_instruction.thisN,loop_instruction.thisIndex,loop_rsi_practice.thisRepN,loop_rsi_practice.thisTrialN,loop_rsi_practice.thisN,loop_rsi_practice.thisIndex,loop_practice.thisRepN,loop_practice.thisTrialN,loop_practice.thisN,loop_practice.thisIndex,loop_exp.thisRepN,loop_exp.thisTrialN,loop_exp.thisN,loop_exp.thisIndex,loop_trials.thisRepN,loop_trials.thisTrialN,loop_trials.thisN,loop_trials.thisIndex,map_condition,map_x_key,map_y_key,key_resp_welcome.started,key_resp_welcome.keys,key_resp_welcome.rt,index,text_empty_rsi_practice.started,text_empty_rsi_practice.stopped,rsi,stimulus.started,stimulus,correct,trial_type,key_resp_trial.keys,key_resp_trial.corr,key_resp_trial.rt,key_resp_instruction_rsi.started,key_resp_instruction_rsi.keys,key_resp_instruction_rsi.rt,stimulus.stopped,key_resp_instruction_rsi.stopped,key_resp_instruction_final.started,key_resp_instruction_final.keys,key_resp_instruction_final.rt,key_resp_break.started,key_resp_break.keys,key_resp_break.rt,key_resp_break.stopped,key_resp_end_screen.started,image_end_screen.started,key_resp_end_screen.stopped,image_end_screen.stopped,key_resp_end_screen.keys,participant,session,Alter,Geschlecht (w/m/d/andere),Studiengang,date,expName,psychopyVersion,frameRate,
,,,,0,0,0,0,0,0,0,0,,,,,,,,,1,l,d,1119.278678223532,j,40.602074578169436,0,1159.9071979256214,1160.9275586825097,1,1160.9275586825097,X,l,go,None,0,,,,,,,,,,,,,,,,,,,49,001,21,w,Psychologie,2023-01-23_09h05.51.877,00_bat_bachelor,2022.2.4,59.967987951073965,
,,,,0,0,0,0,1,0,1,0,,,,,,,,,,,,,,,1,1162.3397100698812,1163.3404276466827,1,1163.3404276466827,Y,d,go,d,1,0.42635795894545936,,,,,,,,,,,,,,,,,,49,001,21,w,Psychologie,2023-01-23_09h05.51.877,00_bat_bachelor,2022.2.4,59.967987951073965,
,,,,0,0,0,0,2,0,2,0,,,,,,,,,,,,,,,2,1164.4746174176253,1165.4753621459813,1,1165.4753621459813,X,l,go,l,1,0.35438500577254217,,,,,,,,,,,,,,,,,,49,001,21,w,Psychologie,2023-01-23_09h05.51.877,00_bat_bachelor,2022.2.4,59.967987951073965,
,,,,0,0,0,0,3,0,3,0,,,,,,,,,,,,,,,3,1166.542815335004,1167.5436211543579,1,1167.5436211543579,Y,d,go,d,1,0.3496950595568933,,,,,,,,,,,,,,,,,,49,001,21,w,Psychologie,2023-01-23_09h05.51.877,00_bat_bachelor,2022.2.4,59.967987951073965,
,,,,0,0,0,0,4,0,4,0,,,,,,,,,,,,,,,4,1168.594561834514,1169.5952595324989,1,1169.5952595324989,Y,None,nogo,d,0,0.394265791053499,,,,,,,,,,,,,,,,,,49,001,21,w,Psychologie,2023-01-23_09h05.51.877,00_bat_bachelor,2022.2.4,59.967987951073965,
,,,,0,0,0,0,5,0,5,0,,,,,,,,,,,,,,,5,1171.096409352353,1172.0971511716139,1,1172.0971511716139,X,l,go,l,1,0.45233278460580095,,,,,,,,,,,,,,,,,,49,001,21,w,Psychologie,2023-01-23_09h05.51.877,00_bat_bachelor,2022.2.4,59.967987951073965,
,,,,0,0,0,0,6,0,6,0,,,,,,,,,,,,,,,6,1173.264718445651,1174.2653904466288,1,1174.2653904466288,Y,d,go,d,1,0.3965125822006712,,,,,,,,,,,,,,,,,,49,001,21,w,Psychologie,2023-01-23_09h05.51.877,00_bat_bachelor,2022.2.4,59.967987951073965,
,,,,0,0,0,0,7,0,7,0,,,,,,,,,,,,,,,7,1175.365956411088,1176.3671190794462,1,1176.3671190794462,X,l,go,l,1,0.26282511501869976,,,,,,,,,,,,,,,,,,49,001,21,w,Psychologie,2023-01-23_09h05.51.877,00_bat_bachelor,2022.2.4,59.967987951073965,
,,,,0,0,0,0,8,0,8,0,,,,,,,,,,,,,,,8,1177.3342361225255,1178.3349023053124,1,1178.3349023053124,X,None,nogo,None,1,,,,,,,,,,,,,,,,,,,49,001,21,w,Psychologie,2023-01-23_09h05.51.877,00_bat_bachelor,2022.2.4,59.967987951073965,
,,,,0,0,0,0,9,0,9,0,,,,,,,,,,,,,,,9,1179.7359671311037,1180.736995496236,1,1180.736995496236,Y,d,go,d,1,0.22931912688898137,,,,,,,,,,,,,,,,,,49,001,21,w,Psychologie,2023-01-23_09h05.51.877,00_bat_bachelor,2022.2.4,59.967987951073965,
,,,,0,0,0,0,10,0,10,0,,,,,,,,,,,,,,,10,1181.6707641271719,1182.6717861892648,1,1182.6717861892648,X,l,go,l,1,0.4536186046576631,,,,,,,,,,,,,,,,,,49,001,21,w,Psychologie,2023-01-23_09h05.51.877,00_bat_bachelor,2022.2.4,59.967987951073965,
,,,,0,0,0,0,11,0,11,0,,,,,,,,,,,,,,,11,1183.8393578269447,1184.8401539493148,1,1184.8401539493148,X,None,nogo,None,1,,,,,,,,,,,,,,,,,,,49,001,21,w,Psychologie,2023-01-23_09h05.51.877,00_bat_bachelor,2022.2.4,59.967987951073965,
,,,,0,0,0,0,12,0,12,0,,,,,,,,,,,,,,,12,1186.2409278655919,1187.2418127153642,1,1187.2418127153642,Y,d,go,d,1,0.34803978442175776,,,,,,,,,,,,,,,,,,49,001,21,w,Psychologie,2023-01-23_09h05.51.877,00_bat_bachelor,2022.2.4,59.967987951073965,
,,,,0,0,0,0,13,0,13,0,,,,,,,,,,,,,,,13,1188.2928542441518,1189.2932571538286,1,1189.2932571538286,X,l,go,l,1,0.34502887095152346,,,,,,,,,,,,,,,,,,49,001,21,w,Psychologie,2023-01-23_09h05.51.877,00_bat_bachelor,2022.2.4,59.967987951073965,
,,,,0,0,0,0,14,0,14,0,,,,,,,,,,,,,,,14,1190.344180379414,1191.3450928655898,1,1191.3450928655898,Y,d,go,d,1,0.4844482252584612,,,,,,,,,,,,,,,,,,49,001,21,w,Psychologie,2023-01-23_09h05.51.877,00_bat_bachelor,2022.2.4,59.967987951073965,
,,,,1,0,1,0,0,0,0,0,,,,,,,,,,,,,,,0,1201.0526080765208,1201.2526655796346,0.2,1201.2526655796346,X,l,go,l,1,0.5291212599341861,1192.5647479729669,j,8.46853838393497,,,,,,,,,,,,,,,49,001,21,w,Psychologie,2023-01-23_09h05.51.877,00_bat_bachelor,2022.2.4,59.967987951073965,
,,,,1,0,1,0,1,0,1,0,,,,,,,,,,,,,,,1,1202.4869733143855,1202.6873144542756,0.2,1202.6873144542756,Y,d,go,d,1,0.3580199201506957,,,,,,,,,,,,,,,,,,49,001,21,w,Psychologie,2023-01-23_09h05.51.877,00_bat_bachelor,2022.2.4,59.967987951073965,
,,,,1,0,1,0,2,0,2,0,,,,,,,,,,,,,,,2,1203.7545688551304,1203.9547878130247,0.2,1203.9547878130247,X,l,go,l,1,0.307873422967873,,,,,,,,,,,,,,,,,,49,001,21,w,Psychologie,2023-01-23_09h05.51.877,00_bat_bachelor,2022.2.4,59.967987951073965,
,,,,1,0,1,0,3,0,3,0,,,,,,,,,,,,,,,3,1204.9719039591332,1205.1721878868188,0.2,1205.1721878868188,Y,d,go,d,1,0.3043490542050904,,,,,,,,,,,,,,,,,,49,001,21,w,Psychologie,2023-01-23_09h05.51.877,00_bat_bachelor,2022.2.4,59.967987951073965,
,,,,1,0,1,0,4,0,4,0,,,,,,,,,,,,,,,4,1206.1899881551344,1206.3897915972725,0.2,1206.3897915972725,Y,None,nogo,None,1,,,,,1207.190259670681,,,,,,,,,,,,,,49,001,21,w,Psychologie,2023-01-23_09h05.51.877,00_bat_bachelor,2022.2.4,59.967987951073965,
,,,,1,0,1,0,5,0,5,0,,,,,,,,,,,,,,,5,1207.7908365442472,1207.9911791386849,0.2,1207.9911791386849,X,l,go,l,1,0.30154856528326945,,,,,,,,,,,,,,,,,,49,001,21,w,Psychologie,2023-01-23_09h05.51.877,00_bat_bachelor,2022.2.4,59.967987951073965,
,,,,1,0,1,0,6,0,6,0,,,,,,,,,,,,,,,6,1209.0086390428692,1209.208821637074,0.2,1209.208821637074,Y,d,go,d,1,0.3487016035663828,,,,,,,,,,,,,,,,,,49,001,21,w,Psychologie,2023-01-23_09h05.51.877,00_bat_bachelor,2022.2.4,59.967987951073965,
,,,,1,0,1,0,7,0,7,0,,,,,,,,,,,,,,,7,1210.259685711058,1210.4594178803654,0.2,1210.4594178803654,X,l,go,l,1,0.314465432556176,,,,,,,,,,,,,,,,,,49,001,21,w,Psychologie,2023-01-23_09h05.51.877,00_bat_bachelor,2022.2.4,59.967987951073965,
,,,,1,0,1,0,8,0,8,0,,,,,,,,,,,,,,,8,1211.4771405728106,1211.6772901972704,0.2,1211.6772901972704,Y,d,go,d,1,0.26512523957660505,,,,,,,,,,,,,,,,,,49,001,21,w,Psychologie,2023-01-23_09h05.51.877,00_bat_bachelor,2022.2.4,59.967987951073965,
,,,,1,0,1,0,9,0,9,0,,,,,,,,,,,,,,,9,1212.6447068771495,1212.8449166229088,0.2,1212.8449166229088,X,l,go,l,1,0.3125779146593004,,,,,,,,,,,,,,,,,,49,001,21,w,Psychologie,2023-01-23_09h05.51.877,00_bat_bachelor,2022.2.4,59.967987951073965,
,,,,1,0,1,0,10,0,10,0,,,,,,,,,,,,,,,10,1213.862044890247,1214.0624243332231,0.2,1214.0624243332231,Y,d,go,d,1,0.32809551298771567,,,,,,,,,,,,,,,,,,49,001,21,w,Psychologie,2023-01-23_09h05.51.877,00_bat_bachelor,2022.2.4,59.967987951073965,
,,,,1,0,1,0,11,0,11,0,,,,,,,,,,,,,,,11,1215.0966382011707,1215.2967427346562,0.2,1215.2967427346562,X,l,go,l,1,0.30820554466288286,,,,,,,,,,,,,,,,,,49,001,21,w,Psychologie,2023-01-23_09h05.51.877,00_bat_bachelor,2022.2.4,59.967987951073965,
,,,,1,0,1,0,12,0,12,0,,,,,,,,,,,,,,,12,1216.3142496692117,1216.514404627013,0.2,1216.514404627013,Y,d,go,d,1,0.4990887314021393,,,,,,,,,,,,,,,,,,49,001,21,w,Psychologie,2023-01-23_09h05.51.877,00_bat_bachelor,2022.2.4,59.967987951073965,
,,,,1,0,1,0,13,0,13,0,,,,,,,,,,,,,,,13,1217.7153188586458,1217.9150820583013,0.2,1217.9150820583013,Y,None,nogo,None,1,,,,,1218.7160403142407,,,,,,,,,,,,,,49,001,21,w,Psychologie,2023-01-23_09h05.51.877,00_bat_bachelor,2022.2.4,59.967987951073965,
,,,,1,0,1,0,14,0,14,0,,,,,,,,,,,,,,,14,1219.3164940361125,1219.51663929693,0.2,1219.51663929693,X,l,go,l,1,0.24903261010842925,,,,,,,,,,,,,,,,,,49,001,21,w,Psychologie,2023-01-23_09h05.51.877,00_bat_bachelor,2022.2.4,59.967987951073965,
,,,,,,,,,,,,,,,,,,,,,,,,,,,,,,,,,,,,,1220.5030431559417,None,,,1220.5030431559417,1220.5030431559417,space,4.5302383524682455,,,,,,,,,,49,001,21,w,Psychologie,2023-01-23_09h05.51.877,00_bat_bachelor,2022.2.4,59.967987951073965,
,,,,,,,,,,,,0,0,0,0,0,0,0,0,,,,,,,0,,,1,1226.055036201265,X,l,go,l,1,0.3179403467016755,,,,,,,,,,,,,,,,,,49,001,21,w,Psychologie,2023-01-23_09h05.51.877,00_bat_bachelor,2022.2.4,59.967987951073965,
,,,,,,,,,,,,0,0,0,0,1,0,1,0,,,,,,,1,,,1,1227.4893834997092,Y,d,go,d,1,0.22735985131168945,,,,,,,,,,,,,,,,,,49,001,21,w,Psychologie,2023-01-23_09h05.51.877,00_bat_bachelor,2022.2.4,59.967987951073965,
,,,,,,,,,,,,0,0,0,0,2,0,2,0,,,,,,,2,,,1,1228.8238048346252,X,l,go,l,1,0.23797998797124365,,,,,,,,,,,,,,,,,,49,001,21,w,Psychologie,2023-01-23_09h05.51.877,00_bat_bachelor,2022.2.4,59.967987951073965,
,,,,,,,,,,,,0,0,0,0,3,0,3,0,,,,,,,3,,,1,1230.1747580723754,Y,d,go,d,1,0.3590308307119585,,,,,,,,,,,,,,,,,,49,001,21,w,Psychologie,2023-01-23_09h05.51.877,00_bat_bachelor,2022.2.4,59.967987951073965,
,,,,,,,,,,,,0,0,0,0,4,0,4,0,,,,,,,4,,,1,1231.6424455405268,X,l,go,l,1,0.23530749923554595,,,,,,,,,,,,,,,,,,49,001,21,w,Psychologie,2023-01-23_09h05.51.877,00_bat_bachelor,2022.2.4,59.967987951073965,
,,,,,,,,,,,,0,0,0,0,5,0,5,0,,,,,,,5,,,1,1232.9932998690424,Y,d,go,d,1,0.3244732046886156,,,,,,,,,,,,,,,,,,49,001,21,w,Psychologie,2023-01-23_09h05.51.877,00_bat_bachelor,2022.2.4,59.967987951073965,
,,,,,,,,,,,,0,0,0,0,6,0,6,0,,,,,,,6,,,1,1234.4277276524522,Y,None,nogo,None,1,,,,,,,,,,,,,,,,,,,49,001,21,w,Psychologie,2023-01-23_09h05.51.877,00_bat_bachelor,2022.2.4,59.967987951073965,
,,,,,,,,,,,,0,0,0,0,7,0,7,0,,,,,,,7,,,1,1236.22920178793,X,l,go,l,1,0.28856091002842277,,,,,,,,,,,,,,,,,,49,001,21,w,Psychologie,2023-01-23_09h05.51.877,00_bat_bachelor,2022.2.4,59.967987951073965,
,,,,,,,,,,,,0,0,0,0,8,0,8,0,,,,,,,8,,,1,1237.6301803105653,Y,d,go,d,1,0.3434734747496577,,,,,,,,,,,,,,,,,,49,001,21,w,Psychologie,2023-01-23_09h05.51.877,00_bat_bachelor,2022.2.4,59.967987951073965,
,,,,,,,,,,,,0,0,0,0,9,0,9,0,,,,,,,9,,,1,1239.0812844818684,Y,None,nogo,None,1,,,,,1239.8822698893623,,,,,,,,,,,,,,49,001,21,w,Psychologie,2023-01-23_09h05.51.877,00_bat_bachelor,2022.2.4,59.967987951073965,
,,,,,,,,,,,,0,0,0,0,10,0,10,0,,,,,,,10,,,1,1240.8829462539825,Y,None,nogo,None,1,,,,,,,,,,,,,,,,,,,49,001,21,w,Psychologie,2023-01-23_09h05.51.877,00_bat_bachelor,2022.2.4,59.967987951073965,
,,,,,,,,,,,,0,0,0,0,11,0,11,0,,,,,,,11,,,1,1242.6844475410148,X,l,go,l,1,0.28194611252808954,,,,,,,,,,,,,,,,,,49,001,21,w,Psychologie,2023-01-23_09h05.51.877,00_bat_bachelor,2022.2.4,59.967987951073965,
,,,,,,,,,,,,0,0,0,0,12,0,12,0,,,,,,,12,,,1,1244.068795251581,Y,d,go,d,1,0.3368882530500059,,,,,,,,,,,,,,,,,,49,001,21,w,Psychologie,2023-01-23_09h05.51.877,00_bat_bachelor,2022.2.4,59.967987951073965,
,,,,,,,,,,,,0,0,0,0,13,0,13,0,,,,,,,13,,,1,1245.51962645279,X,l,go,l,1,0.26151699190393174,,,,,,,,,,,,,,,,,,49,001,21,w,Psychologie,2023-01-23_09h05.51.877,00_bat_bachelor,2022.2.4,59.967987951073965,
,,,,,,,,,,,,0,0,0,0,14,0,14,0,,,,,,,14,,,1,1246.8873651695008,Y,d,go,d,1,0.20515036446147406,,,,,,,,,,,,,,,,,,49,001,21,w,Psychologie,2023-01-23_09h05.51.877,00_bat_bachelor,2022.2.4,59.967987951073965,
,,,,,,,,,,,,0,0,0,0,15,0,15,0,,,,,,,15,,,1,1248.2049186010936,X,l,go,l,1,0.295977648089206,,,,,,,,,,,,,,,,,,49,001,21,w,Psychologie,2023-01-23_09h05.51.877,00_bat_bachelor,2022.2.4,59.967987951073965,
,,,,,,,,,,,,0,0,0,0,16,0,16,0,,,,,,,16,,,1,1249.6063475486267,Y,d,go,d,1,0.3032455374483334,,,,,,,,,,,,,,,,,,49,001,21,w,Psychologie,2023-01-23_09h05.51.877,00_bat_bachelor,2022.2.4,59.967987951073965,
,,,,,,,,,,,,0,0,0,0,17,0,17,0,,,,,,,17,,,1,1251.023838580129,Y,None,nogo,None,1,,,,,,,,,,,,,,,,,,,49,001,21,w,Psychologie,2023-01-23_09h05.51.877,00_bat_bachelor,2022.2.4,59.967987951073965,
,,,,,,,,,,,,0,0,0,0,18,0,18,0,,,,,,,18,,,1,1252.825330170177,X,l,go,l,1,0.3154797370619917,,,,,,,,,,,,,,,,,,49,001,21,w,Psychologie,2023-01-23_09h05.51.877,00_bat_bachelor,2022.2.4,59.967987951073965,
,,,,,,,,,,,,0,0,0,0,19,0,19,0,,,,,,,19,,,1,1254.2435896876455,Y,d,go,d,1,0.33778570890092396,,,,,,,,,,,,,,,,,,49,001,21,w,Psychologie,2023-01-23_09h05.51.877,00_bat_bachelor,2022.2.4,59.967987951073965,
,,,,,,,,,,,,0,0,0,0,20,0,20,0,,,,,,,20,,,1,1255.6946594346564,X,l,go,l,1,0.26274075125968466,,,,,,,,,,,,,,,,,,49,001,21,w,Psychologie,2023-01-23_09h05.51.877,00_bat_bachelor,2022.2.4,59.967987951073965,
,,,,,,,,,,,,0,0,0,0,21,0,21,0,,,,,,,21,,,1,1257.0791070241557,X,None,nogo,l,0,0.43064645003175883,,,,,,,,,,,,,,,,,,49,001,21,w,Psychologie,2023-01-23_09h05.51.877,00_bat_bachelor,2022.2.4,59.967987951073965,
,,,,,,,,,,,,0,0,0,0,22,0,22,0,,,,,,,22,,,1,1258.6138088928128,Y,d,go,d,1,0.2703950654234859,,,,,,,,,,,,,,,,,,49,001,21,w,Psychologie,2023-01-23_09h05.51.877,00_bat_bachelor,2022.2.4,59.967987951073965,
,,,,,,,,,,,,0,0,0,0,23,0,23,0,,,,,,,23,,,1,1260.014888748929,X,l,go,l,1,0.39014651233458153,,,,,,,,,,,,,,,,,,49,001,21,w,Psychologie,2023-01-23_09h05.51.877,00_bat_bachelor,2022.2.4,59.967987951073965,
,,,,,,,,,,,,0,0,0,0,24,0,24,0,,,,,,,24,,,1,1261.5321287740057,Y,d,go,d,1,0.29731874094898103,,,,,,,,,,,,,,,,,,49,001,21,w,Psychologie,2023-01-23_09h05.51.877,00_bat_bachelor,2022.2.4,59.967987951073965,
,,,,,,,,,,,,0,0,0,0,25,0,25,0,,,,,,,25,,,1,1262.9334054788928,X,l,go,l,1,0.3358351606090082,,,,,,,,,,,,,,,,,,49,001,21,w,Psychologie,2023-01-23_09h05.51.877,00_bat_bachelor,2022.2.4,59.967987951073965,
,,,,,,,,,,,,0,0,0,0,26,0,26,0,,,,,,,26,,,1,1264.3842391043477,Y,d,go,d,1,0.42121952722879996,,,,,,,,,,,,,,,,,,49,001,21,w,Psychologie,2023-01-23_09h05.51.877,00_bat_bachelor,2022.2.4,59.967987951073965,
,,,,,,,,,,,,0,0,0,0,27,0,27,0,,,,,,,27,,,1,1265.9184561238148,X,l,go,l,1,0.359018224632905,,,,,,,,,,,,,,,,,,49,001,21,w,Psychologie,2023-01-23_09h05.51.877,00_bat_bachelor,2022.2.4,59.967987951073965,
,,,,,,,,,,,,0,0,0,0,28,0,28,0,,,,,,,28,,,1,1267.3865615319683,X,None,nogo,None,1,,,,,,,,,,,,,,,,,,,49,001,21,w,Psychologie,2023-01-23_09h05.51.877,00_bat_bachelor,2022.2.4,59.967987951073965,
,,,,,,,,,,,,0,0,0,0,29,0,29,0,,,,,,,29,,,1,1269.1878688793245,Y,d,go,d,1,0.3216203520543104,,,,,,,,,,,,,,,,,,49,001,21,w,Psychologie,2023-01-23_09h05.51.877,00_bat_bachelor,2022.2.4,59.967987951073965,
,,,,,,,,,,,,0,0,0,0,30,0,30,0,,,,,,,30,,,1,1270.62232332944,X,l,go,l,1,0.3115010646080236,,,,,,,,,,,,,,,,,,49,001,21,w,Psychologie,2023-01-23_09h05.51.877,00_bat_bachelor,2022.2.4,59.967987951073965,
,,,,,,,,,,,,0,0,0,0,31,0,31,0,,,,,,,31,,,1,1272.0401503614307,X,None,nogo,None,1,,,,,,,,,,,,,,,,,,,49,001,21,w,Psychologie,2023-01-23_09h05.51.877,00_bat_bachelor,2022.2.4,59.967987951073965,
,,,,,,,,,,,,0,0,0,0,32,0,32,0,,,,,,,32,,,1,1273.8412288599693,Y,d,go,d,1,0.30801499893152595,,,,,,,,,,,,,,,,,,49,001,21,w,Psychologie,2023-01-23_09h05.51.877,00_bat_bachelor,2022.2.4,59.967987951073965,
,,,,,,,,,,,,0,0,0,0,33,0,33,0,,,,,,,33,,,1,1275.2591994073205,X,l,go,l,1,0.33131685100681807,,,,,,,,,,,,,,,,,,49,001,21,w,Psychologie,2023-01-23_09h05.51.877,00_bat_bachelor,2022.2.4,59.967987951073965,
,,,,,,,,,,,,0,0,0,0,34,0,34,0,,,,,,,34,,,1,1276.6936121604058,Y,d,go,d,1,0.4155569735377185,,,,,,,,,,,,,,,,,,49,001,21,w,Psychologie,2023-01-23_09h05.51.877,00_bat_bachelor,2022.2.4,59.967987951073965,
,,,,,,,,,,,,0,0,0,0,35,0,35,0,,,,,,,35,,,1,1278.2115493986175,X,l,go,l,1,0.3371932231904111,,,,,,,,,,,,,,,,,,49,001,21,w,Psychologie,2023-01-23_09h05.51.877,00_bat_bachelor,2022.2.4,59.967987951073965,
,,,,,,,,,,,,0,0,0,0,36,0,36,0,,,,,,,36,,,1,1279.662455751451,X,None,nogo,d,0,0.4393431899540019,,,,,,,,,,,,,,,,,,49,001,21,w,Psychologie,2023-01-23_09h05.51.877,00_bat_bachelor,2022.2.4,59.967987951073965,
,,,,,,,,,,,,0,0,0,0,37,0,37,0,,,,,,,37,,,1,1281.2135464924313,X,None,nogo,l,0,0.5039018293122126,,,,,,,,,,,,,,,,,,49,001,21,w,Psychologie,2023-01-23_09h05.51.877,00_bat_bachelor,2022.2.4,59.967987951073965,
,,,,,,,,,,,,0,0,0,0,38,0,38,0,,,,,,,38,,,1,1282.8316807248689,Y,d,go,d,1,0.4539555748448265,,,,,,,,,,,,,,,,,,49,001,21,w,Psychologie,2023-01-23_09h05.51.877,00_bat_bachelor,2022.2.4,59.967987951073965,
,,,,,,,,,,,,0,0,0,0,39,0,39,0,,,,,,,39,,,1,1284.3995297932556,X,l,go,l,1,0.32648096518494185,,,,,,,,,,,,,,,,,,49,001,21,w,Psychologie,2023-01-23_09h05.51.877,00_bat_bachelor,2022.2.4,59.967987951073965,
,,,,,,,,,,,,0,0,0,0,40,0,40,0,,,,,,,40,,,1,1285.833948364531,Y,d,go,d,1,0.2834782359688006,,,,,,,,,,,,,,,,,,49,001,21,w,Psychologie,2023-01-23_09h05.51.877,00_bat_bachelor,2022.2.4,59.967987951073965,
,,,,,,,,,,,,0,0,0,0,41,0,41,0,,,,,,,41,,,1,1287.2184570450286,X,l,go,l,1,0.35594718986305907,,,,,,,,,,,,,,,,,,49,001,21,w,Psychologie,2023-01-23_09h05.51.877,00_bat_bachelor,2022.2.4,59.967987951073965,
,,,,,,,,,,,,0,0,0,0,42,0,42,0,,,,,,,42,,,1,1288.685856027912,X,None,nogo,None,1,,,,,,,,,,,,,,,,,,,49,001,21,w,Psychologie,2023-01-23_09h05.51.877,00_bat_bachelor,2022.2.4,59.967987951073965,
,,,,,,,,,,,,0,0,0,0,43,0,43,0,,,,,,,43,,,1,1290.4876104062214,Y,d,go,d,1,0.35020366635728806,,,,,,,,,,,,,,,,,,49,001,21,w,Psychologie,2023-01-23_09h05.51.877,00_bat_bachelor,2022.2.4,59.967987951073965,
,,,,,,,,,,,,0,0,0,0,44,0,44,0,,,,,,,44,,,1,1291.9386316683126,X,l,go,l,1,0.3710449087928964,,,,,,,,,,,,,,,,,,49,001,21,w,Psychologie,2023-01-23_09h05.51.877,00_bat_bachelor,2022.2.4,59.967987951073965,
,,,,,,,,,,,,0,0,0,0,45,0,45,0,,,,,,,45,,,1,1293.423102676028,Y,d,go,d,1,0.43842246134215657,,,,,,,,,,,,,,,,,,49,001,21,w,Psychologie,2023-01-23_09h05.51.877,00_bat_bachelor,2022.2.4,59.967987951073965,
,,,,,,,,,,,,0,0,0,0,46,0,46,0,,,,,,,46,,,1,1294.974026144038,X,l,go,l,1,0.2477152748589333,,,,,,,,,,,,,,,,,,49,001,21,w,Psychologie,2023-01-23_09h05.51.877,00_bat_bachelor,2022.2.4,59.967987951073965,
,,,,,,,,,,,,0,0,0,0,47,0,47,0,,,,,,,47,,,1,1296.3254875037396,Y,d,go,d,1,0.3841353520759867,,,,,,,,,,,,,,,,,,49,001,21,w,Psychologie,2023-01-23_09h05.51.877,00_bat_bachelor,2022.2.4,59.967987951073965,
,,,,,,,,,,,,0,0,0,0,48,0,48,0,,,,,,,48,,,1,1297.8261524744034,X,l,go,l,1,0.2588037758363271,,,,,,,,,,,,,,,,,,49,001,21,w,Psychologie,2023-01-23_09h05.51.877,00_bat_bachelor,2022.2.4,59.967987951073965,
,,,,,,,,,,,,0,0,0,0,49,0,49,0,,,,,,,49,,,1,1299.194099191417,X,None,nogo,None,1,,,,,,,,,,,,,,,,,,,49,001,21,w,Psychologie,2023-01-23_09h05.51.877,00_bat_bachelor,2022.2.4,59.967987951073965,
,,,,,,,,,,,,0,0,0,0,50,0,50,0,,,,,,,50,,,1,1300.9955418116974,Y,d,go,d,1,0.2907393374392768,,,,,,,,,,,,,,,,,,49,001,21,w,Psychologie,2023-01-23_09h05.51.877,00_bat_bachelor,2022.2.4,59.967987951073965,
,,,,,,,,,,,,0,0,0,0,51,0,51,0,,,,,,,51,,,1,1302.3966963345888,X,l,go,l,1,0.3297304244568977,,,,,,,,,,,,,,,,,,49,001,21,w,Psychologie,2023-01-23_09h05.51.877,00_bat_bachelor,2022.2.4,59.967987951073965,
,,,,,,,,,,,,0,0,0,0,52,0,52,0,,,,,,,52,,,1,1303.8311086028248,Y,d,go,d,1,0.366546478007308,,,,,,,,,,,,,,,,,,49,001,21,w,Psychologie,2023-01-23_09h05.51.877,00_bat_bachelor,2022.2.4,59.967987951073965,
,,,,,,,,,,,,0,0,0,0,53,0,53,0,,,,,,,53,,,1,1305.298772798215,X,l,go,l,1,0.30692311855534626,,,,,,,,,,,,,,,,,,49,001,21,w,Psychologie,2023-01-23_09h05.51.877,00_bat_bachelor,2022.2.4,59.967987951073965,
,,,,,,,,,,,,0,0,0,0,54,0,54,0,,,,,,,54,,,1,1306.7163826177689,X,None,nogo,l,0,0.31391609842387425,,,,,,,,,,,,,,,,,,49,001,21,w,Psychologie,2023-01-23_09h05.51.877,00_bat_bachelor,2022.2.4,59.967987951073965,
,,,,,,,,,,,,0,0,0,0,55,0,55,0,,,,,,,55,,,1,1308.134386619714,Y,d,go,d,1,0.3509212431584956,,,,,,,,,,,,,,,,,,49,001,21,w,Psychologie,2023-01-23_09h05.51.877,00_bat_bachelor,2022.2.4,59.967987951073965,
,,,,,,,,,,,,0,0,0,0,56,0,56,0,,,,,,,56,,,1,1309.6021662092116,X,l,go,l,1,0.24377102669780015,,,,,,,,,,,,,,,,,,49,001,21,w,Psychologie,2023-01-23_09h05.51.877,00_bat_bachelor,2022.2.4,59.967987951073965,
,,,,,,,,,,,,0,0,0,0,57,0,57,0,,,,,,,57,,,1,1310.9531722955235,Y,d,go,d,1,0.3653624762854406,,,,,,,,,,,,,,,,,,49,001,21,w,Psychologie,2023-01-23_09h05.51.877,00_bat_bachelor,2022.2.4,59.967987951073965,
,,,,,,,,,,,,0,0,0,0,58,0,58,0,,,,,,,58,,,1,1312.4206197633257,Y,None,nogo,None,1,,,,,1313.2213171704007,,,,,,,,,,,,,,49,001,21,w,Psychologie,2023-01-23_09h05.51.877,00_bat_bachelor,2022.2.4,59.967987951073965,
,,,,,,,,,,,,0,0,0,0,59,0,59,0,,,,,,,59,,,1,1314.221968807712,X,l,go,l,1,0.343257232010842,,,,,,,,,,,,,,,,,,49,001,21,w,Psychologie,2023-01-23_09h05.51.877,00_bat_bachelor,2022.2.4,59.967987951073965,
,,,,,,,,,,,,0,0,0,0,60,0,60,0,,,,,,,60,,,1,1315.6733716461163,Y,d,go,d,1,0.33202521567352505,,,,,,,,,,,,,,,,,,49,001,21,w,Psychologie,2023-01-23_09h05.51.877,00_bat_bachelor,2022.2.4,59.967987951073965,
,,,,,,,,,,,,0,0,0,0,61,0,61,0,,,,,,,61,,,1,1317.107815914399,X,l,go,l,1,0.4015404683017323,,,,,,,,,,,,,,,,,,49,001,21,w,Psychologie,2023-01-23_09h05.51.877,00_bat_bachelor,2022.2.4,59.967987951073965,
,,,,,,,,,,,,0,0,0,0,62,0,62,0,,,,,,,62,,,1,1318.6256096372504,Y,d,go,d,1,0.24451381565688735,,,,,,,,,,,,,,,,,,49,001,21,w,Psychologie,2023-01-23_09h05.51.877,00_bat_bachelor,2022.2.4,59.967987951073965,
,,,,,,,,,,,,0,0,0,0,63,0,63,0,,,,,,,63,,,1,1319.9767141479479,X,l,go,l,1,0.22078481144501438,,,,,,,,,,,,,,,,,,49,001,21,w,Psychologie,2023-01-23_09h05.51.877,00_bat_bachelor,2022.2.4,59.967987951073965,
,,,,,,,,,,,,0,0,0,0,64,0,64,0,,,,,,,64,,,1,1321.3111262707293,Y,d,go,d,1,0.3263956317272232,,,,,,,,,,,,,,,,,,49,001,21,w,Psychologie,2023-01-23_09h05.51.877,00_bat_bachelor,2022.2.4,59.967987951073965,
,,,,,,,,,,,,0,0,0,0,65,0,65,0,,,,,,,65,,,1,1322.7455055692203,X,l,go,l,1,0.17219031651973182,,,,,,,,,,,,,,,,,,49,001,21,w,Psychologie,2023-01-23_09h05.51.877,00_bat_bachelor,2022.2.4,59.967987951073965,
,,,,,,,,,,,,0,0,0,0,66,0,66,0,,,,,,,66,,,1,1324.0299079222905,X,None,nogo,l,0,0.36080634844608994,,,,,,,,,,,,,,,,,,49,001,21,w,Psychologie,2023-01-23_09h05.51.877,00_bat_bachelor,2022.2.4,59.967987951073965,
,,,,,,,,,,,,0,0,0,0,67,0,67,0,,,,,,,67,,,1,1325.497361693132,Y,d,go,d,1,0.23612350042265007,,,,,,,,,,,,,,,,,,49,001,21,w,Psychologie,2023-01-23_09h05.51.877,00_bat_bachelor,2022.2.4,59.967987951073965,
,,,,,,,,,,,,0,0,0,0,68,0,68,0,,,,,,,68,,,1,1326.8486717798864,X,l,go,l,1,0.29350394752111697,,,,,,,,,,,,,,,,,,49,001,21,w,Psychologie,2023-01-23_09h05.51.877,00_bat_bachelor,2022.2.4,59.967987951073965,
,,,,,,,,,,,,0,0,0,0,69,0,69,0,,,,,,,69,,,1,1328.24965127222,X,None,nogo,d,0,0.2515063106762909,,,,,,,,,,,,,,,,,,49,001,21,w,Psychologie,2023-01-23_09h05.51.877,00_bat_bachelor,2022.2.4,59.967987951073965,
,,,,,,,,,,,,0,0,0,0,70,0,70,0,,,,,,,70,,,1,1329.6174777466344,Y,d,go,d,1,0.45220139047512475,,,,,,,,,,,,,,,,,,49,001,21,w,Psychologie,2023-01-23_09h05.51.877,00_bat_bachelor,2022.2.4,59.967987951073965,
,,,,,,,,,,,,0,0,0,0,71,0,71,0,,,,,,,71,,,1,1331.1850717843467,X,l,go,l,1,0.35639325111776543,,,,,,,,,,,,,,,,,,49,001,21,w,Psychologie,2023-01-23_09h05.51.877,00_bat_bachelor,2022.2.4,59.967987951073965,
,,,,,,,,,,,,0,0,0,0,72,0,72,0,,,,,,,72,,,1,1332.6530811923603,Y,d,go,d,1,0.36073410591677657,,,,,,,,,,,,,,,,,,49,001,21,w,Psychologie,2023-01-23_09h05.51.877,00_bat_bachelor,2022.2.4,59.967987951073965,
,,,,,,,,,,,,0,0,0,0,73,0,73,0,,,,,,,73,,,1,1334.1208258727165,X,l,go,l,1,0.22102723603995855,,,,,,,,,,,,,,,,,,49,001,21,w,Psychologie,2023-01-23_09h05.51.877,00_bat_bachelor,2022.2.4,59.967987951073965,
,,,,,,,,,,,,0,0,0,0,74,0,74,0,,,,,,,74,,,1,1335.45509884378,X,None,nogo,None,1,,,,,1336.2558592812497,,,,,,,,,,,,,,49,001,21,w,Psychologie,2023-01-23_09h05.51.877,00_bat_bachelor,2022.2.4,59.967987951073965,
,,,,,,,,,,,,0,0,0,0,75,0,75,0,,,,,,,75,,,1,1337.2562772212518,Y,d,go,d,1,0.3177352554940853,,,,,,,,,,,,,,,,,,49,001,21,w,Psychologie,2023-01-23_09h05.51.877,00_bat_bachelor,2022.2.4,59.967987951073965,
,,,,,,,,,,,,0,0,0,0,76,0,76,0,,,,,,,76,,,1,1338.6908460957761,X,l,go,l,1,0.30674469405323634,,,,,,,,,,,,,,,,,,49,001,21,w,Psychologie,2023-01-23_09h05.51.877,00_bat_bachelor,2022.2.4,59.967987951073965,
,,,,,,,,,,,,0,0,0,0,77,0,77,0,,,,,,,77,,,1,1340.1087875521757,Y,d,go,d,1,0.3611825914175597,,,,,,,,,,,,,,,,,,49,001,21,w,Psychologie,2023-01-23_09h05.51.877,00_bat_bachelor,2022.2.4,59.967987951073965,
,,,,,,,,,,,,0,0,0,0,78,0,78,0,,,,,,,78,,,1,1341.5765967174739,Y,None,nogo,None,1,,,,,,,,,,,,,,,,,,,49,001,21,w,Psychologie,2023-01-23_09h05.51.877,00_bat_bachelor,2022.2.4,59.967987951073965,
,,,,,,,,,,,,0,0,0,0,79,0,79,0,,,,,,,79,,,1,1343.3779220042502,X,l,go,l,1,0.33989043923509143,,,,,,,,,,,,,,,,,,49,001,21,w,Psychologie,2023-01-23_09h05.51.877,00_bat_bachelor,2022.2.4,59.967987951073965,
,,,,,,,,,,,,0,0,0,0,80,0,80,0,,,,,,,80,,,1,1344.8293418123758,Y,d,go,d,1,0.3612528945501481,,,,,,,,,,,,,,,,,,49,001,21,w,Psychologie,2023-01-23_09h05.51.877,00_bat_bachelor,2022.2.4,59.967987951073965,
,,,,,,,,,,,,0,0,0,0,81,0,81,0,,,,,,,81,,,1,1346.2965080676481,X,l,go,l,1,0.28455557086897443,,,,,,,,,,,,,,,,,,49,001,21,w,Psychologie,2023-01-23_09h05.51.877,00_bat_bachelor,2022.2.4,59.967987951073965,
,,,,,,,,,,,,0,0,0,0,82,0,82,0,,,,,,,82,,,1,1347.6975850146691,Y,d,go,d,1,0.32361308222550633,,,,,,,,,,,,,,,,,,49,001,21,w,Psychologie,2023-01-23_09h05.51.877,00_bat_bachelor,2022.2.4,59.967987951073965,
,,,,,,,,,,,,0,0,0,0,83,0,83,0,,,,,,,83,,,1,1349.1323575258534,X,l,go,l,1,0.23316640521227328,,,,,,,,,,,,,,,,,,49,001,21,w,Psychologie,2023-01-23_09h05.51.877,00_bat_bachelor,2022.2.4,59.967987951073965,
,,,,,,,,,,,,0,0,0,0,84,0,84,0,,,,,,,84,,,1,1350.4663657692595,Y,d,go,d,1,0.22649827430097957,,,,,,,,,,,,,,,,,,49,001,21,w,Psychologie,2023-01-23_09h05.51.877,00_bat_bachelor,2022.2.4,59.967987951073965,
,,,,,,,,,,,,0,0,0,0,85,0,85,0,,,,,,,85,,,1,1351.800914134663,Y,None,nogo,None,1,,,,,,,,,,,,,,,,,,,49,001,21,w,Psychologie,2023-01-23_09h05.51.877,00_bat_bachelor,2022.2.4,59.967987951073965,
,,,,,,,,,,,,0,0,0,0,86,0,86,0,,,,,,,86,,,1,1353.6027548161283,X,l,go,l,1,0.2440488452836007,,,,,,,,,,,,,,,,,,49,001,21,w,Psychologie,2023-01-23_09h05.51.877,00_bat_bachelor,2022.2.4,59.967987951073965,
,,,,,,,,,,,,0,0,0,0,87,0,87,0,,,,,,,87,,,1,1354.9535834476364,Y,d,go,d,1,0.4448825919508863,,,,,,,,,,,,,,,,,,49,001,21,w,Psychologie,2023-01-23_09h05.51.877,00_bat_bachelor,2022.2.4,59.967987951073965,
,,,,,,,,,,,,0,0,0,0,88,0,88,0,,,,,,,88,,,1,1356.5049418253698,Y,None,nogo,None,1,,,,,1357.3053526865738,,,,,,,,,,,,,,49,001,21,w,Psychologie,2023-01-23_09h05.51.877,00_bat_bachelor,2022.2.4,59.967987951073965,
,,,,,,,,,,,,0,0,0,0,89,0,89,0,,,,,,,89,,,1,1358.3061560816818,X,l,go,l,1,0.3068503911766811,,,,,,,,,,,,,,,,,,49,001,21,w,Psychologie,2023-01-23_09h05.51.877,00_bat_bachelor,2022.2.4,59.967987951073965,
,,,,,,,,,,,,0,0,0,0,90,0,90,0,,,,,,,90,,,1,1359.7238042043214,Y,d,go,d,1,0.26541178544778177,,,,,,,,,,,,,,,,,,49,001,21,w,Psychologie,2023-01-23_09h05.51.877,00_bat_bachelor,2022.2.4,59.967987951073965,
,,,,,,,,,,,,0,0,0,0,91,0,91,0,,,,,,,91,,,1,1361.0915463149763,X,l,go,l,1,0.35415130846297416,,,,,,,,,,,,,,,,,,49,001,21,w,Psychologie,2023-01-23_09h05.51.877,00_bat_bachelor,2022.2.4,59.967987951073965,
,,,,,,,,,,,,0,0,0,0,92,0,92,0,,,,,,,92,,,1,1362.5589254190431,X,None,nogo,None,1,,,,,1363.3598991901563,,,,,,,,,,,,,,49,001,21,w,Psychologie,2023-01-23_09h05.51.877,00_bat_bachelor,2022.2.4,59.967987951073965,
,,,,,,,,,,,,0,0,0,0,93,0,93,0,,,,,,,93,,,1,1364.3604242818292,Y,d,go,d,1,0.2849230865552954,,,,,,,,,,,,,,,,,,49,001,21,w,Psychologie,2023-01-23_09h05.51.877,00_bat_bachelor,2022.2.4,59.967987951073965,
,,,,,,,,,,,,0,0,0,0,94,0,94,0,,,,,,,94,,,1,1365.761487168224,X,l,go,l,1,0.4038570777319137,,,,,,,,,,,,,,,,,,49,001,21,w,Psychologie,2023-01-23_09h05.51.877,00_bat_bachelor,2022.2.4,59.967987951073965,
,,,,,,,,,,,,0,0,0,0,95,0,95,0,,,,,,,95,,,1,1367.2795286490114,X,None,nogo,l,0,0.39125196848806354,,,,,,,,,,,,,,,,,,49,001,21,w,Psychologie,2023-01-23_09h05.51.877,00_bat_bachelor,2022.2.4,59.967987951073965,
,,,,,,,,,,,,0,0,0,0,96,0,96,0,,,,,,,96,,,1,1368.7803385895836,X,None,nogo,None,1,,,,,,,,,,,,,,,,,,,49,001,21,w,Psychologie,2023-01-23_09h05.51.877,00_bat_bachelor,2022.2.4,59.967987951073965,
,,,,,,,,,,,,0,0,0,0,97,0,97,0,,,,,,,97,,,1,1370.5817346643412,Y,d,go,d,1,0.3034205680061177,,,,,,,,,,,,,,,,,,49,001,21,w,Psychologie,2023-01-23_09h05.51.877,00_bat_bachelor,2022.2.4,59.967987951073965,
,,,,,,,,,,,,0,0,0,0,98,0,98,0,,,,,,,98,,,1,1371.9995970903233,X,l,go,l,1,0.5821346703779682,,,,,,,,,,,,,,,,,,49,001,21,w,Psychologie,2023-01-23_09h05.51.877,00_bat_bachelor,2022.2.4,59.967987951073965,
,,,,,,,,,,,,0,0,0,0,99,0,99,0,,,,,,,99,,,1,1373.6846531170713,X,None,nogo,None,1,,,,,1374.4852690694825,,,,,,,,,,,,,,49,001,21,w,Psychologie,2023-01-23_09h05.51.877,00_bat_bachelor,2022.2.4,59.967987951073965,
,,,,,,,,,,,,0,0,0,0,100,0,100,0,,,,,,,100,,,1,1375.486087010066,Y,d,go,d,1,0.2964018911303583,,,,,,,,,,,,,,,,,,49,001,21,w,Psychologie,2023-01-23_09h05.51.877,00_bat_bachelor,2022.2.4,59.967987951073965,
,,,,,,,,,,,,0,0,0,0,101,0,101,0,,,,,,,101,,,1,1376.9036144052575,X,l,go,l,1,0.26979773122127426,,,,,,,,,,,,,,,,,,49,001,21,w,Psychologie,2023-01-23_09h05.51.877,00_bat_bachelor,2022.2.4,59.967987951073965,
,,,,,,,,,,,,0,0,0,0,102,0,102,0,,,,,,,102,,,1,1378.2879616309747,Y,d,go,d,1,0.1981370209269926,,,,,,,,,,,,,,,,,,49,001,21,w,Psychologie,2023-01-23_09h05.51.877,00_bat_bachelor,2022.2.4,59.967987951073965,
,,,,,,,,,,,,0,0,0,0,103,0,103,0,,,,,,,103,,,1,1379.5888435231664,Y,None,nogo,None,1,,,,,,,,,,,,,,,,,,,49,001,21,w,Psychologie,2023-01-23_09h05.51.877,00_bat_bachelor,2022.2.4,59.967987951073965,
,,,,,,,,,,,,0,0,0,0,104,0,104,0,,,,,,,104,,,1,1381.3904267497119,X,l,go,l,1,0.18289433208894934,,,,,,,,,,,,,,,,,,49,001,21,w,Psychologie,2023-01-23_09h05.51.877,00_bat_bachelor,2022.2.4,59.967987951073965,
,,,,,,,,,,,,0,0,0,0,105,0,105,0,,,,,,,105,,,1,1382.6742957686724,Y,d,go,d,1,0.35457264240915265,,,,,,,,,,,,,,,,,,49,001,21,w,Psychologie,2023-01-23_09h05.51.877,00_bat_bachelor,2022.2.4,59.967987951073965,
,,,,,,,,,,,,0,0,0,0,106,0,106,0,,,,,,,106,,,1,1384.142360449494,X,l,go,l,1,0.24738606225912463,,,,,,,,,,,,,,,,,,49,001,21,w,Psychologie,2023-01-23_09h05.51.877,00_bat_bachelor,2022.2.4,59.967987951073965,
,,,,,,,,,,,,0,0,0,0,107,0,107,0,,,,,,,107,,,1,1385.4932327174292,Y,d,go,d,1,0.24014047596244836,,,,,,,,,,,,,,,,,,49,001,21,w,Psychologie,2023-01-23_09h05.51.877,00_bat_bachelor,2022.2.4,59.967987951073965,
,,,,,,,,,,,,0,0,0,0,108,0,108,0,,,,,,,108,,,1,1386.8445602587544,X,l,go,l,1,0.20065920641388857,,,,,,,,,,,,,,,,,,49,001,21,w,Psychologie,2023-01-23_09h05.51.877,00_bat_bachelor,2022.2.4,59.967987951073965,
,,,,,,,,,,,,0,0,0,0,109,0,109,0,,,,,,,109,,,1,1388.1618804778868,Y,d,go,d,1,0.24397369365908617,,,,,,,,,,,,,,,,,,49,001,21,w,Psychologie,2023-01-23_09h05.51.877,00_bat_bachelor,2022.2.4,59.967987951073965,
,,,,,,,,,,,,0,0,0,0,110,0,110,0,,,,,,,110,,,1,1389.5128497156602,X,l,go,l,1,0.2522655845078816,,,,,,,,,,,,,,,,,,49,001,21,w,Psychologie,2023-01-23_09h05.51.877,00_bat_bachelor,2022.2.4,59.967987951073965,
,,,,,,,,,,,,0,0,0,0,111,0,111,0,,,,,,,111,,,1,1390.8808827358293,Y,d,go,d,1,0.24424181526126176,,,,,,,,,,,,,,,,,,49,001,21,w,Psychologie,2023-01-23_09h05.51.877,00_bat_bachelor,2022.2.4,59.967987951073965,
,,,,,,,,,,,,0,0,0,0,112,0,112,0,,,,,,,112,,,1,1392.2315751247152,Y,None,nogo,None,1,,,,,,,,,,,,,,,,,,,49,001,21,w,Psychologie,2023-01-23_09h05.51.877,00_bat_bachelor,2022.2.4,59.967987951073965,
,,,,,,,,,,,,0,0,0,0,113,0,113,0,,,,,,,113,,,1,1394.032944532768,X,l,go,l,1,0.26148499185740093,,,,,,,,,,,,,,,,,,49,001,21,w,Psychologie,2023-01-23_09h05.51.877,00_bat_bachelor,2022.2.4,59.967987951073965,
,,,,,,,,,,,,0,0,0,0,114,0,114,0,,,,,,,114,,,1,1395.4010114923803,Y,d,go,d,1,0.3011844435415014,,,,,,,,,,,,,,,,,,49,001,21,w,Psychologie,2023-01-23_09h05.51.877,00_bat_bachelor,2022.2.4,59.967987951073965,
,,,,,,,,,,,,0,0,0,0,115,0,115,0,,,,,,,115,,,1,1396.8185350087783,X,l,go,l,1,0.5154969976928214,,,,,,,,,,,,,,,,,,49,001,21,w,Psychologie,2023-01-23_09h05.51.877,00_bat_bachelor,2022.2.4,59.967987951073965,
,,,,,,,,,,,,0,0,0,0,116,0,116,0,,,,,,,116,,,1,1398.4363283922353,X,None,nogo,None,1,,,,,1399.2372478602392,,,,,,,,,,,,,,49,001,21,w,Psychologie,2023-01-23_09h05.51.877,00_bat_bachelor,2022.2.4,59.967987951073965,
,,,,,,,,,,,,0,0,0,0,117,0,117,0,,,,,,,117,,,1,1400.237992103746,X,None,nogo,None,1,,,,,,,,,,,,,,,,,,,49,001,21,w,Psychologie,2023-01-23_09h05.51.877,00_bat_bachelor,2022.2.4,59.967987951073965,
,,,,,,,,,,,,0,0,0,0,118,0,118,0,,,,,,,118,,,1,1402.0392892692694,Y,d,go,d,1,0.3498729992096514,,,,,,,,,,,,,,,,,,49,001,21,w,Psychologie,2023-01-23_09h05.51.877,00_bat_bachelor,2022.2.4,59.967987951073965,
,,,,,,,,,,,,0,0,0,0,119,0,119,0,,,,,,,119,,,1,1403.4904778043315,X,l,go,l,1,0.2916639448450269,,,,,,,,,,,,,,,,,,49,001,21,w,Psychologie,2023-01-23_09h05.51.877,00_bat_bachelor,2022.2.4,59.967987951073965,
,,,,,,,,,,,,0,0,0,0,120,0,120,0,,,,,,,120,,,1,1404.891622630239,Y,d,go,d,1,0.20127060124252694,,,,,,,,,,,,,,,,,,49,001,21,w,Psychologie,2023-01-23_09h05.51.877,00_bat_bachelor,2022.2.4,59.967987951073965,
,,,,,,,,,,,,0,0,0,0,121,0,121,0,,,,,,,121,,,1,1406.2092744862175,X,l,go,l,1,0.37372224602074766,,,,,,,,,,,,,,,,,,49,001,21,w,Psychologie,2023-01-23_09h05.51.877,00_bat_bachelor,2022.2.4,59.967987951073965,
,,,,,,,,,,,,0,0,0,0,122,0,122,0,,,,,,,122,,,1,1407.6933925237227,X,None,nogo,d,0,0.18399542459985696,,,,,,,,,,,,,,,,,,49,001,21,w,Psychologie,2023-01-23_09h05.51.877,00_bat_bachelor,2022.2.4,59.967987951073965,
,,,,,,,,,,,,0,0,0,0,123,0,123,0,,,,,,,123,,,1,1408.99466617406,Y,d,go,d,1,0.33892946814023617,,,,,,,,,,,,,,,,,,49,001,21,w,Psychologie,2023-01-23_09h05.51.877,00_bat_bachelor,2022.2.4,59.967987951073965,
,,,,,,,,,,,,0,0,0,0,124,0,124,0,,,,,,,124,,,1,1410.4458406484955,X,l,go,l,1,0.44038803995874787,,,,,,,,,,,,,,,,,,49,001,21,w,Psychologie,2023-01-23_09h05.51.877,00_bat_bachelor,2022.2.4,59.967987951073965,
,,,,,,,,,,,,0,0,0,0,125,0,125,0,,,,,,,125,,,1,1411.9970162380841,Y,d,go,d,1,0.24907770108313798,,,,,,,,,,,,,,,,,,49,001,21,w,Psychologie,2023-01-23_09h05.51.877,00_bat_bachelor,2022.2.4,59.967987951073965,
,,,,,,,,,,,,0,0,0,0,126,0,126,0,,,,,,,126,,,1,1413.3479849910086,X,l,go,l,1,0.22613609195593654,,,,,,,,,,,,,,,,,,49,001,21,w,Psychologie,2023-01-23_09h05.51.877,00_bat_bachelor,2022.2.4,59.967987951073965,
,,,,,,,,,,,,0,0,0,0,127,0,127,0,,,,,,,127,,,1,1414.682443659312,X,None,nogo,None,1,,,,,,,,,,,,,,,,,,,49,001,21,w,Psychologie,2023-01-23_09h05.51.877,00_bat_bachelor,2022.2.4,59.967987951073965,
,,,,,,,,,,,,0,0,0,0,128,0,128,0,,,,,,,128,,,1,1416.4837335520974,Y,d,go,d,1,0.3067170576495073,,,,,,,,,,,,,,,,,,49,001,21,w,Psychologie,2023-01-23_09h05.51.877,00_bat_bachelor,2022.2.4,59.967987951073965,
,,,,,,,,,,,,0,0,0,0,129,0,129,0,,,,,,,129,,,1,1417.9011920987036,X,l,go,l,1,0.47248117754872965,,,,,,,,,,,,,,,,,,49,001,21,w,Psychologie,2023-01-23_09h05.51.877,00_bat_bachelor,2022.2.4,59.967987951073965,
,,,,,,,,,,,,0,0,0,0,130,0,130,0,,,,,,,130,,,1,1419.486129676795,X,None,nogo,None,1,,,,,1420.2867630837768,,,,,,,,,,,,,,49,001,21,w,Psychologie,2023-01-23_09h05.51.877,00_bat_bachelor,2022.2.4,59.967987951073965,
,,,,,,,,,,,,0,0,0,0,131,0,131,0,,,,,,,131,,,1,1421.2873705998118,Y,d,go,d,1,0.2538592837958049,,,,,,,,,,,,,,,,,,49,001,21,w,Psychologie,2023-01-23_09h05.51.877,00_bat_bachelor,2022.2.4,59.967987951073965,
,,,,,,,,,,,,0,0,0,0,132,0,132,0,,,,,,,132,,,1,1422.6551650741794,X,l,go,l,1,0.3902381488315996,,,,,,,,,,,,,,,,,,49,001,21,w,Psychologie,2023-01-23_09h05.51.877,00_bat_bachelor,2022.2.4,59.967987951073965,
,,,,,,,,,,,,0,0,0,0,133,0,133,0,,,,,,,133,,,1,1424.156353681969,Y,d,go,d,1,0.377869645992746,,,,,,,,,,,,,,,,,,49,001,21,w,Psychologie,2023-01-23_09h05.51.877,00_bat_bachelor,2022.2.4,59.967987951073965,
,,,,,,,,,,,,0,0,0,0,134,0,134,0,,,,,,,134,,,1,1425.6407941441853,X,l,go,l,1,0.22052299288236554,,,,,,,,,,,,,,,,,,49,001,21,w,Psychologie,2023-01-23_09h05.51.877,00_bat_bachelor,2022.2.4,59.967987951073965,
,,,,,,,,,,,,0,0,0,0,135,0,135,0,,,,,,,135,,,1,1426.9748120845752,X,None,nogo,None,1,,,,,,,,,,,,,,,,,,,49,001,21,w,Psychologie,2023-01-23_09h05.51.877,00_bat_bachelor,2022.2.4,59.967987951073965,
,,,,,,,,,,,,0,0,0,0,136,0,136,0,,,,,,,136,,,1,1428.7764612506103,Y,d,go,d,1,0.26902585131063006,,,,,,,,,,,,,,,,,,49,001,21,w,Psychologie,2023-01-23_09h05.51.877,00_bat_bachelor,2022.2.4,59.967987951073965,
,,,,,,,,,,,,0,0,0,0,137,0,137,0,,,,,,,137,,,1,1430.1608395066755,X,l,go,l,1,0.27841689527338076,,,,,,,,,,,,,,,,,,49,001,21,w,Psychologie,2023-01-23_09h05.51.877,00_bat_bachelor,2022.2.4,59.967987951073965,
,,,,,,,,,,,,0,0,0,0,138,0,138,0,,,,,,,138,,,1,1431.545233277915,Y,d,go,d,1,0.3318792760672977,,,,,,,,,,,,,,,,,,49,001,21,w,Psychologie,2023-01-23_09h05.51.877,00_bat_bachelor,2022.2.4,59.967987951073965,
,,,,,,,,,,,,0,0,0,0,139,0,139,0,,,,,,,139,,,1,1432.9793779093984,X,l,go,l,1,0.19527592585620823,,,,,,,,,,,,,,,,,,49,001,21,w,Psychologie,2023-01-23_09h05.51.877,00_bat_bachelor,2022.2.4,59.967987951073965,
,,,,,,,,,,,,0,0,0,0,140,0,140,0,,,,,,,140,,,1,1434.2805526505008,X,None,nogo,l,0,0.34884317952980837,,,,,,,,,,,,,,,,,,49,001,21,w,Psychologie,2023-01-23_09h05.51.877,00_bat_bachelor,2022.2.4,59.967987951073965,
,,,,,,,,,,,,0,0,0,0,141,0,141,0,,,,,,,141,,,1,1435.7317659128717,Y,d,go,d,1,0.514791542121543,,,,,,,,,,,,,,,,,,49,001,21,w,Psychologie,2023-01-23_09h05.51.877,00_bat_bachelor,2022.2.4,59.967987951073965,
,,,,,,,,,,,,0,0,0,0,142,0,142,0,,,,,,,142,,,1,1437.3493900839612,X,l,go,l,1,0.23991308169217973,,,,,,,,,,,,,,,,,,49,001,21,w,Psychologie,2023-01-23_09h05.51.877,00_bat_bachelor,2022.2.4,59.967987951073965,
,,,,,,,,,,,,0,0,0,0,143,0,143,0,,,,,,,143,,,1,1438.7004252612246,Y,d,go,d,1,0.28092502013385,,,,,,,,,,,,,,,,,,49,001,21,w,Psychologie,2023-01-23_09h05.51.877,00_bat_bachelor,2022.2.4,59.967987951073965,
,,,,,,,,,,,,0,0,0,0,144,0,144,0,,,,,,,144,,,1,1440.0851346692866,X,l,go,l,1,0.24121150782309542,,,,,,,,,,,,,,,,,,49,001,21,w,Psychologie,2023-01-23_09h05.51.877,00_bat_bachelor,2022.2.4,59.967987951073965,
,,,,,,,,,,,,0,0,0,0,145,0,145,0,,,,,,,145,,,1,1441.4362066950885,Y,d,go,d,1,0.3454453564057758,,,,,,,,,,,,,,,,,,49,001,21,w,Psychologie,2023-01-23_09h05.51.877,00_bat_bachelor,2022.2.4,59.967987951073965,
,,,,,,,,,,,,0,0,0,0,146,0,146,0,,,,,,,146,,,1,1442.8870868660656,Y,None,nogo,None,1,,,,,,,,,,,,,,,,,,,49,001,21,w,Psychologie,2023-01-23_09h05.51.877,00_bat_bachelor,2022.2.4,59.967987951073965,
,,,,,,,,,,,,0,0,0,0,147,0,147,0,,,,,,,147,,,1,1444.6887544563701,X,l,go,l,1,0.21363619498640674,,,,,,,,,,,,,,,,,,49,001,21,w,Psychologie,2023-01-23_09h05.51.877,00_bat_bachelor,2022.2.4,59.967987951073965,
,,,,,,,,,,,,0,0,0,0,148,0,148,0,,,,,,,148,,,1,1446.023012881958,Y,d,go,d,1,0.23889635294074196,,,,,,,,,,,,,,,,,,49,001,21,w,Psychologie,2023-01-23_09h05.51.877,00_bat_bachelor,2022.2.4,59.967987951073965,
,,,,,,,,,,,,0,0,0,0,149,0,149,0,,,,,,,149,,,1,1447.374062604697,X,l,go,l,1,0.29644746695419144,,,,,,,,,,,,,,,,,,49,001,21,w,Psychologie,2023-01-23_09h05.51.877,00_bat_bachelor,2022.2.4,59.967987951073965,
,,,,,,,,,,,,0,0,0,0,150,0,150,0,,,,,,,150,,,1,1448.7748336118793,Y,d,go,d,1,0.25468110317285664,,,,,,,,,,,,,,,,,,49,001,21,w,Psychologie,2023-01-23_09h05.51.877,00_bat_bachelor,2022.2.4,59.967987951073965,
,,,,,,,,,,,,0,0,0,0,151,0,151,0,,,,,,,151,,,1,1450.1428113592406,X,l,go,l,1,0.26361638889704864,,,,,,,,,,,,,,,,,,49,001,21,w,Psychologie,2023-01-23_09h05.51.877,00_bat_bachelor,2022.2.4,59.967987951073965,
,,,,,,,,,,,,0,0,0,0,152,0,152,0,,,,,,,152,,,1,1451.510206317876,X,None,nogo,None,1,,,,,,,,,,,,,,,,,,,49,001,21,w,Psychologie,2023-01-23_09h05.51.877,00_bat_bachelor,2022.2.4,59.967987951073965,
,,,,,,,,,,,,0,0,0,0,153,0,153,0,,,,,,,153,,,1,1453.3119020294334,X,None,nogo,None,1,,,,,,,,,,,,,,,,,,,49,001,21,w,Psychologie,2023-01-23_09h05.51.877,00_bat_bachelor,2022.2.4,59.967987951073965,
,,,,,,,,,,,,0,0,0,0,154,0,154,0,,,,,,,154,,,1,1455.1132127707338,Y,d,go,d,1,0.25231164518083915,,,,,,,,,,,,,,,,,,49,001,21,w,Psychologie,2023-01-23_09h05.51.877,00_bat_bachelor,2022.2.4,59.967987951073965,
,,,,,,,,,,,,0,0,0,0,155,0,155,0,,,,,,,155,,,1,1456.4809408207625,X,l,go,l,1,0.30904724285699103,,,,,,,,,,,,,,,,,,49,001,21,w,Psychologie,2023-01-23_09h05.51.877,00_bat_bachelor,2022.2.4,59.967987951073965,
,,,,,,,,,,,,0,0,0,0,156,0,156,0,,,,,,,156,,,1,1457.8984110037495,X,None,nogo,l,0,0.36375859516454057,,,,,,,,,,,,,,,,,,49,001,21,w,Psychologie,2023-01-23_09h05.51.877,00_bat_bachelor,2022.2.4,59.967987951073965,
,,,,,,,,,,,,0,0,0,0,157,0,157,0,,,,,,,157,,,1,1459.366547442251,Y,d,go,d,1,0.2387940497613954,,,,,,,,,,,,,,,,,,49,001,21,w,Psychologie,2023-01-23_09h05.51.877,00_bat_bachelor,2022.2.4,59.967987951073965,
,,,,,,,,,,,,0,0,0,0,158,0,158,0,,,,,,,158,,,1,1460.7175981346882,X,l,go,l,1,0.2321385249291552,,,,,,,,,,,,,,,,,,49,001,21,w,Psychologie,2023-01-23_09h05.51.877,00_bat_bachelor,2022.2.4,59.967987951073965,
,,,,,,,,,,,,0,0,0,0,159,0,159,0,,,,,,,159,,,1,1462.051948196773,Y,d,go,d,1,0.37008054375394295,,,,,,,,,,,,,,,,,,49,001,21,w,Psychologie,2023-01-23_09h05.51.877,00_bat_bachelor,2022.2.4,59.967987951073965,
,,,,,,,,,,,,0,0,0,0,160,0,160,0,,,,,,,160,,,1,1463.5362771436758,Y,None,nogo,None,1,,,,,,,,,,,,,,,,,,,49,001,21,w,Psychologie,2023-01-23_09h05.51.877,00_bat_bachelor,2022.2.4,59.967987951073965,
,,,,,,,,,,,,0,0,0,0,161,0,161,0,,,,,,,161,,,1,1465.3376916427028,X,l,go,l,1,0.2676246371512434,,,,,,,,,,,,,,,,,,49,001,21,w,Psychologie,2023-01-23_09h05.51.877,00_bat_bachelor,2022.2.4,59.967987951073965,
,,,,,,,,,,,,0,0,0,0,162,0,162,0,,,,,,,162,,,1,1466.722247838421,Y,d,go,d,1,0.29244552173929605,,,,,,,,,,,,,,,,,,49,001,21,w,Psychologie,2023-01-23_09h05.51.877,00_bat_bachelor,2022.2.4,59.967987951073965,
,,,,,,,,,,,,0,0,0,0,163,0,163,0,,,,,,,163,,,1,1468.1231400579009,X,l,go,l,1,0.23471307412853548,,,,,,,,,,,,,,,,,,49,001,21,w,Psychologie,2023-01-23_09h05.51.877,00_bat_bachelor,2022.2.4,59.967987951073965,
,,,,,,,,,,,,0,0,0,0,164,0,164,0,,,,,,,164,,,1,1469.474192689735,Y,d,go,d,1,0.3227849598087005,,,,,,,,,,,,,,,,,,49,001,21,w,Psychologie,2023-01-23_09h05.51.877,00_bat_bachelor,2022.2.4,59.967987951073965,
,,,,,,,,,,,,0,0,0,0,165,0,165,0,,,,,,,165,,,1,1470.908716958134,X,l,go,l,1,0.2333661630783581,,,,,,,,,,,,,,,,,,49,001,21,w,Psychologie,2023-01-23_09h05.51.877,00_bat_bachelor,2022.2.4,59.967987951073965,
,,,,,,,,,,,,0,0,0,0,166,0,166,0,,,,,,,166,,,1,1472.2427397470155,X,None,nogo,None,1,,,,,,,,,,,,,,,,,,,49,001,21,w,Psychologie,2023-01-23_09h05.51.877,00_bat_bachelor,2022.2.4,59.967987951073965,
,,,,,,,,,,,,0,0,0,0,167,0,167,0,,,,,,,167,,,1,1474.0440853974574,Y,d,go,d,1,0.2979970449658822,,,,,,,,,,,,,,,,,,49,001,21,w,Psychologie,2023-01-23_09h05.51.877,00_bat_bachelor,2022.2.4,59.967987951073965,
,,,,,,,,,,,,0,0,0,0,168,0,168,0,,,,,,,168,,,1,1475.4454532539926,X,l,go,l,1,0.27213131037331095,,,,,,,,,,,,,,,,,,49,001,21,w,Psychologie,2023-01-23_09h05.51.877,00_bat_bachelor,2022.2.4,59.967987951073965,
,,,,,,,,,,,,0,0,0,0,169,0,169,0,,,,,,,169,,,1,1476.829889691961,X,None,nogo,None,1,,,,,,,,,,,,,,,,,,,49,001,21,w,Psychologie,2023-01-23_09h05.51.877,00_bat_bachelor,2022.2.4,59.967987951073965,
,,,,,,,,,,,,0,0,0,0,170,0,170,0,,,,,,,170,,,1,1478.630913402541,Y,d,go,d,1,0.2705157928718336,,,,,,,,,,,,,,,,,,49,001,21,w,Psychologie,2023-01-23_09h05.51.877,00_bat_bachelor,2022.2.4,59.967987951073965,
,,,,,,,,,,,,0,0,0,0,171,0,171,0,,,,,,,171,,,1,1480.0156809925056,X,l,go,l,1,0.3262060556938877,,,,,,,,,,,,,,,,,,49,001,21,w,Psychologie,2023-01-23_09h05.51.877,00_bat_bachelor,2022.2.4,59.967987951073965,
,,,,,,,,,,,,0,0,0,0,172,0,172,0,,,,,,,172,,,1,1481.4501160486539,Y,d,go,d,1,0.4278154156107803,,,,,,,,,,,,,,,,,,49,001,21,w,Psychologie,2023-01-23_09h05.51.877,00_bat_bachelor,2022.2.4,59.967987951073965,
,,,,,,,,,,,,0,0,0,0,173,0,173,0,,,,,,,173,,,1,1482.9845570684465,X,l,go,l,1,0.2690854877611173,,,,,,,,,,,,,,,,,,49,001,21,w,Psychologie,2023-01-23_09h05.51.877,00_bat_bachelor,2022.2.4,59.967987951073965,
,,,,,,,,,,,,0,0,0,0,174,0,174,0,,,,,,,174,,,1,1484.3687006575042,X,None,nogo,None,1,,,,,,,,,,,,,,,,,,,49,001,21,w,Psychologie,2023-01-23_09h05.51.877,00_bat_bachelor,2022.2.4,59.967987951073965,
,,,,,,,,,,,,0,0,0,0,175,0,175,0,,,,,,,175,,,1,1486.1700123685027,Y,d,go,d,1,0.23545149944504828,,,,,,,,,,,,,,,,,,49,001,21,w,Psychologie,2023-01-23_09h05.51.877,00_bat_bachelor,2022.2.4,59.967987951073965,
,,,,,,,,,,,,0,0,0,0,176,0,176,0,,,,,,,176,,,1,1487.521044636671,X,l,go,l,1,0.2134752250552765,,,,,,,,,,,,,,,,,,49,001,21,w,Psychologie,2023-01-23_09h05.51.877,00_bat_bachelor,2022.2.4,59.967987951073965,
,,,,,,,,,,,,0,0,0,0,177,0,177,0,,,,,,,177,,,1,1488.8390974629297,Y,d,go,d,1,0.254379526976777,,,,,,,,,,,,,,,,,,49,001,21,w,Psychologie,2023-01-23_09h05.51.877,00_bat_bachelor,2022.2.4,59.967987951073965,
,,,,,,,,,,,,0,0,0,0,178,0,178,0,,,,,,,178,,,1,1490.2065249064603,X,l,go,l,1,0.2791679266689471,,,,,,,,,,,,,,,,,,49,001,21,w,Psychologie,2023-01-23_09h05.51.877,00_bat_bachelor,2022.2.4,59.967987951073965,
,,,,,,,,,,,,0,0,0,0,179,0,179,0,,,,,,,179,,,1,1491.5911213446616,Y,d,go,d,1,0.3510051220686137,,,,,,,,,,,,,,,,,,49,001,21,w,Psychologie,2023-01-23_09h05.51.877,00_bat_bachelor,2022.2.4,59.967987951073965,
,,,,,,,,,,,,0,0,0,0,180,0,180,0,,,,,,,180,,,1,1493.0586085700975,Y,None,nogo,l,0,0.27564695185049004,,,,,,,,,,,,,,,,,,49,001,21,w,Psychologie,2023-01-23_09h05.51.877,00_bat_bachelor,2022.2.4,59.967987951073965,
,,,,,,,,,,,,0,0,0,0,181,0,181,0,,,,,,,181,,,1,1494.4432651295979,X,l,go,l,1,0.3477663294785316,,,,,,,,,,,,,,,,,,49,001,21,w,Psychologie,2023-01-23_09h05.51.877,00_bat_bachelor,2022.2.4,59.967987951073965,
,,,,,,,,,,,,0,0,0,0,182,0,182,0,,,,,,,182,,,1,1495.8943925736621,Y,d,go,None,0,,,,,,,,,,,,,,,,,,,49,001,21,w,Psychologie,2023-01-23_09h05.51.877,00_bat_bachelor,2022.2.4,59.967987951073965,
,,,,,,,,,,,,0,0,0,0,183,0,183,0,,,,,,,183,,,1,1497.695834709093,X,l,go,l,1,0.24627818185956585,,,,,,,,,,,,,,,,,,49,001,21,w,Psychologie,2023-01-23_09h05.51.877,00_bat_bachelor,2022.2.4,59.967987951073965,
,,,,,,,,,,,,0,0,0,0,184,0,184,0,,,,,,,184,,,1,1499.046517400995,Y,d,go,d,1,0.3663602959182981,,,,,,,,,,,,,,,,,,49,001,21,w,Psychologie,2023-01-23_09h05.51.877,00_bat_bachelor,2022.2.4,59.967987951073965,
,,,,,,,,,,,,0,0,0,0,185,0,185,0,,,,,,,185,,,1,1500.5142795359216,Y,None,nogo,None,1,,,,,,,,,,,,,,,,,,,49,001,21,w,Psychologie,2023-01-23_09h05.51.877,00_bat_bachelor,2022.2.4,59.967987951073965,
,,,,,,,,,,,,0,0,0,0,186,0,186,0,,,,,,,186,,,1,1502.315881186736,X,l,go,l,1,0.3307040016305791,,,,,,,,,,,,,,,,,,49,001,21,w,Psychologie,2023-01-23_09h05.51.877,00_bat_bachelor,2022.2.4,59.967987951073965,
,,,,,,,,,,,,0,0,0,0,187,0,187,0,,,,,,,187,,,1,1503.7501077577326,Y,d,go,d,1,0.3509411219753247,,,,,,,,,,,,,,,,,,49,001,21,w,Psychologie,2023-01-23_09h05.51.877,00_bat_bachelor,2022.2.4,59.967987951073965,
,,,,,,,,,,,,0,0,0,0,188,0,188,0,,,,,,,188,,,1,1505.217855832033,X,l,go,l,1,0.2759058613181651,,,,,,,,,,,,,,,,,,49,001,21,w,Psychologie,2023-01-23_09h05.51.877,00_bat_bachelor,2022.2.4,59.967987951073965,
,,,,,,,,,,,,0,0,0,0,189,0,189,0,,,,,,,189,,,1,1506.602302451834,X,None,nogo,None,1,,,,,,,,,,,,,,,,,,,49,001,21,w,Psychologie,2023-01-23_09h05.51.877,00_bat_bachelor,2022.2.4,59.967987951073965,
,,,,,,,,,,,,0,0,0,0,190,0,190,0,,,,,,,190,,,1,1508.4038847086808,Y,d,go,d,1,0.20942915856414857,,,,,,,,,,,,,,,,,,49,001,21,w,Psychologie,2023-01-23_09h05.51.877,00_bat_bachelor,2022.2.4,59.967987951073965,
,,,,,,,,,,,,0,0,0,0,191,0,191,0,,,,,,,191,,,1,1509.7215860192769,X,l,go,l,1,0.34805578444513685,,,,,,,,,,,,,,,,,,49,001,21,w,Psychologie,2023-01-23_09h05.51.877,00_bat_bachelor,2022.2.4,59.967987951073965,
,,,,,,,,,,,,0,0,0,0,192,0,192,0,,,,,,,192,,,1,1511.1727963725525,Y,d,go,d,1,0.27239797742788596,,,,,,,,,,,,,,,,,,49,001,21,w,Psychologie,2023-01-23_09h05.51.877,00_bat_bachelor,2022.2.4,59.967987951073965,
,,,,,,,,,,,,0,0,0,0,193,0,193,0,,,,,,,193,,,1,1512.55681390082,Y,None,nogo,None,1,,,,,,,,,,,,,,,,,,,49,001,21,w,Psychologie,2023-01-23_09h05.51.877,00_bat_bachelor,2022.2.4,59.967987951073965,
,,,,,,,,,,,,0,0,0,0,194,0,194,0,,,,,,,194,,,1,1514.358569733677,X,l,go,l,1,0.27177834016299585,,,,,,,,,,,,,,,,,,49,001,21,w,Psychologie,2023-01-23_09h05.51.877,00_bat_bachelor,2022.2.4,59.967987951073965,
,,,,,,,,,,,,0,0,0,0,195,0,195,0,,,,,,,195,,,1,1515.742884959348,Y,d,go,d,1,0.21475910571064105,,,,,,,,,,,,,,,,,,49,001,21,w,Psychologie,2023-01-23_09h05.51.877,00_bat_bachelor,2022.2.4,59.967987951073965,
,,,,,,,,,,,,0,0,0,0,196,0,196,0,,,,,,,196,,,1,1517.0604883304072,Y,None,nogo,None,1,,,,,,,,,,,,,,,,,,,49,001,21,w,Psychologie,2023-01-23_09h05.51.877,00_bat_bachelor,2022.2.4,59.967987951073965,
,,,,,,,,,,,,0,0,0,0,197,0,197,0,,,,,,,197,,,1,1518.8616347078323,Y,None,nogo,l,0,0.21547086432167362,,,,,,,,,,,,,,,,,,49,001,21,w,Psychologie,2023-01-23_09h05.51.877,00_bat_bachelor,2022.2.4,59.967987951073965,
,,,,,,,,,,,,0,0,0,0,198,0,198,0,,,,,,,198,,,1,1520.1794232912825,X,l,go,l,1,0.25930898869239627,,,,,,,,,,,,,,,,,,49,001,21,w,Psychologie,2023-01-23_09h05.51.877,00_bat_bachelor,2022.2.4,59.967987951073965,
,,,,,,,,,,,,0,0,0,0,199,0,199,0,,,,,,,199,,,1,1521.5473612810106,Y,d,go,d,1,0.363050715346958,,,,,,,,,,,,,,,,,,49,001,21,w,Psychologie,2023-01-23_09h05.51.877,00_bat_bachelor,2022.2.4,59.967987951073965,
,,,,,,,,,,,,0,0,0,0,200,0,200,0,,,,,,,200,,,1,1523.0152829313206,X,l,go,l,1,0.302906627864445,,,,,,,,,,,,,,,,,,49,001,21,w,Psychologie,2023-01-23_09h05.51.877,00_bat_bachelor,2022.2.4,59.967987951073965,
,,,,,,,,,,,,0,0,0,0,201,0,201,0,,,,,,,201,,,1,1524.4328757811527,X,None,nogo,None,1,,,,,,,,,,,,,,,,,,,49,001,21,w,Psychologie,2023-01-23_09h05.51.877,00_bat_bachelor,2022.2.4,59.967987951073965,
,,,,,,,,,,,,0,0,0,0,202,0,202,0,,,,,,,202,,,1,1526.2341710072792,Y,d,go,d,1,0.26726196995730334,,,,,,,,,,,,,,,,,,49,001,21,w,Psychologie,2023-01-23_09h05.51.877,00_bat_bachelor,2022.2.4,59.967987951073965,
,,,,,,,,,,,,0,0,0,0,203,0,203,0,,,,,,,203,,,1,1527.6186496271266,X,l,go,l,1,0.24358823855311584,,,,,,,,,,,,,,,,,,49,001,21,w,Psychologie,2023-01-23_09h05.51.877,00_bat_bachelor,2022.2.4,59.967987951073965,
,,,,,,,,,,,,0,0,0,0,204,0,204,0,,,,,,,204,,,1,1528.969360440282,Y,d,go,d,1,0.25169152306682463,,,,,,,,,,,,,,,,,,49,001,21,w,Psychologie,2023-01-23_09h05.51.877,00_bat_bachelor,2022.2.4,59.967987951073965,
,,,,,,,,,,,,0,0,0,0,205,0,205,0,,,,,,,205,,,1,1530.3373066724462,X,l,go,l,1,0.27724065113841334,,,,,,,,,,,,,,,,,,49,001,21,w,Psychologie,2023-01-23_09h05.51.877,00_bat_bachelor,2022.2.4,59.967987951073965,
,,,,,,,,,,,,0,0,0,0,206,0,206,0,,,,,,,206,,,1,1531.721620443569,X,None,nogo,d,0,0.2517487352712351,,,,,,,,,,,,,,,,,,49,001,21,w,Psychologie,2023-01-23_09h05.51.877,00_bat_bachelor,2022.2.4,59.967987951073965,
,,,,,,,,,,,,0,0,0,0,207,0,207,0,,,,,,,207,,,1,1533.0895569787494,Y,d,go,d,1,0.21267376934395088,,,,,,,,,,,,,,,,,,49,001,21,w,Psychologie,2023-01-23_09h05.51.877,00_bat_bachelor,2022.2.4,59.967987951073965,
,,,,,,,,,,,,0,0,0,0,208,0,208,0,,,,,,,208,,,1,1534.4068679857473,X,l,go,l,1,0.2387072617565309,,,,,,,,,,,,,,,,,,49,001,21,w,Psychologie,2023-01-23_09h05.51.877,00_bat_bachelor,2022.2.4,59.967987951073965,
,,,,,,,,,,,,0,0,0,0,209,0,209,0,,,,,,,209,,,1,1535.7582653453555,X,None,nogo,None,1,,,,,,,,,,,,,,,,,,,49,001,21,w,Psychologie,2023-01-23_09h05.51.877,00_bat_bachelor,2022.2.4,59.967987951073965,
,,,,,,,,,,,,0,0,0,0,210,0,210,0,,,,,,,210,,,1,1537.5596260261227,Y,d,go,d,1,0.4150585485705278,,,,,,,,,,,,,,,,,,49,001,21,w,Psychologie,2023-01-23_09h05.51.877,00_bat_bachelor,2022.2.4,59.967987951073965,
,,,,,,,,,,,,0,0,0,0,211,0,211,0,,,,,,,211,,,1,1539.077080354541,X,l,go,l,1,0.27202852234484,,,,,,,,,,,,,,,,,,49,001,21,w,Psychologie,2023-01-23_09h05.51.877,00_bat_bachelor,2022.2.4,59.967987951073965,
,,,,,,,,,,,,0,0,0,0,212,0,212,0,,,,,,,212,,,1,1540.461819338404,Y,d,go,d,1,0.3916640902997415,,,,,,,,,,,,,,,,,,49,001,21,w,Psychologie,2023-01-23_09h05.51.877,00_bat_bachelor,2022.2.4,59.967987951073965,
,,,,,,,,,,,,0,0,0,0,213,0,213,0,,,,,,,213,,,1,1541.9628760672135,Y,None,nogo,l,0,0.23509852923473318,,,,,,,,,,,,,,,,,,49,001,21,w,Psychologie,2023-01-23_09h05.51.877,00_bat_bachelor,2022.2.4,59.967987951073965,
,,,,,,,,,,,,0,0,0,0,214,0,214,0,,,,,,,214,,,1,1543.3140402143617,X,l,go,l,1,0.26044159640025555,,,,,,,,,,,,,,,,,,49,001,21,w,Psychologie,2023-01-23_09h05.51.877,00_bat_bachelor,2022.2.4,59.967987951073965,
,,,,,,,,,,,,0,0,0,0,215,0,215,0,,,,,,,215,,,1,1544.6813663244116,Y,d,go,d,1,0.2518825536477607,,,,,,,,,,,,,,,,,,49,001,21,w,Psychologie,2023-01-23_09h05.51.877,00_bat_bachelor,2022.2.4,59.967987951073965,
,,,,,,,,,,,,0,0,0,0,216,0,216,0,,,,,,,216,,,1,1546.0490822532106,Y,None,nogo,None,1,,,,,1546.8498160239747,,,,,,,,,,,,,,49,001,21,w,Psychologie,2023-01-23_09h05.51.877,00_bat_bachelor,2022.2.4,59.967987951073965,
,,,,,,,,,,,,0,0,0,0,217,0,217,0,,,,,,,217,,,1,1547.850464267342,Y,None,nogo,None,1,,,,,,,,,,,,,,,,,,,49,001,21,w,Psychologie,2023-01-23_09h05.51.877,00_bat_bachelor,2022.2.4,59.967987951073965,
,,,,,,,,,,,,0,0,0,0,218,0,218,0,,,,,,,218,,,1,1549.6520964636557,X,l,go,l,1,0.1947261068747821,,,,,,,,,,,,,,,,,,49,001,21,w,Psychologie,2023-01-23_09h05.51.877,00_bat_bachelor,2022.2.4,59.967987951073965,
,,,,,,,,,,,,0,0,0,0,219,0,219,0,,,,,,,219,,,1,1550.9528125374245,Y,d,go,d,1,0.20469606077051594,,,,,,,,,,,,,,,,,,49,001,21,w,Psychologie,2023-01-23_09h05.51.877,00_bat_bachelor,2022.2.4,59.967987951073965,
,,,,,,,,,,,,0,0,0,0,220,0,220,0,,,,,,,220,,,1,1552.2707829393207,X,l,go,l,1,0.19904271921393502,,,,,,,,,,,,,,,,,,49,001,21,w,Psychologie,2023-01-23_09h05.51.877,00_bat_bachelor,2022.2.4,59.967987951073965,
,,,,,,,,,,,,0,0,0,0,221,0,221,0,,,,,,,221,,,1,1553.5714927100498,X,None,nogo,None,1,,,,,1554.3722027232038,,,,,,,,,,,,,,49,001,21,w,Psychologie,2023-01-23_09h05.51.877,00_bat_bachelor,2022.2.4,59.967987951073965,
,,,,,,,,,,,,0,0,0,0,222,0,222,0,,,,,,,222,,,1,1555.3728538756664,Y,d,go,d,1,0.26534536110887075,,,,,,,,,,,,,,,,,,49,001,21,w,Psychologie,2023-01-23_09h05.51.877,00_bat_bachelor,2022.2.4,59.967987951073965,
,,,,,,,,,,,,0,0,0,0,223,0,223,0,,,,,,,223,,,1,1556.7405761075047,X,l,go,l,1,0.2247290596063749,,,,,,,,,,,,,,,,,,49,001,21,w,Psychologie,2023-01-23_09h05.51.877,00_bat_bachelor,2022.2.4,59.967987951073965,
,,,,,,,,,,,,0,0,0,0,224,0,224,0,,,,,,,224,,,1,1558.075212715461,Y,d,go,d,1,0.26655699923469456,,,,,,,,,,,,,,,,,,49,001,21,w,Psychologie,2023-01-23_09h05.51.877,00_bat_bachelor,2022.2.4,59.967987951073965,
,,,,,,,,,,,,0,0,0,0,225,0,225,0,,,,,,,225,,,1,1559.4430231898518,Y,None,nogo,None,1,,,,,,,,,,,,,,,,,,,49,001,21,w,Psychologie,2023-01-23_09h05.51.877,00_bat_bachelor,2022.2.4,59.967987951073965,
,,,,,,,,,,,,0,0,0,0,226,0,226,0,,,,,,,226,,,1,1561.2443082341451,X,l,go,l,1,0.2008749643033525,,,,,,,,,,,,,,,,,,49,001,21,w,Psychologie,2023-01-23_09h05.51.877,00_bat_bachelor,2022.2.4,59.967987951073965,
,,,,,,,,,,,,0,0,0,0,227,0,227,0,,,,,,,227,,,1,1562.562006635646,Y,d,go,None,0,,,,,,,,,,,,,,,,,,,49,001,21,w,Psychologie,2023-01-23_09h05.51.877,00_bat_bachelor,2022.2.4,59.967987951073965,
,,,,,,,,,,,,0,0,0,0,228,0,228,0,,,,,,,228,,,1,1564.3636281652775,Y,None,nogo,None,1,,,,,1565.1642373297996,,,,,,,,,,,,,,49,001,21,w,Psychologie,2023-01-23_09h05.51.877,00_bat_bachelor,2022.2.4,59.967987951073965,
,,,,,,,,,,,,0,0,0,0,229,0,229,0,,,,,,,229,,,1,1566.1648593913105,X,l,go,l,1,0.38469632258909314,,,,,,,,,,,,,,,,,,49,001,21,w,Psychologie,2023-01-23_09h05.51.877,00_bat_bachelor,2022.2.4,59.967987951073965,
,,,,,,,,,,,,0,0,0,0,230,0,230,0,,,,,,,230,,,1,1567.66618569627,Y,d,go,d,1,0.24424763345143674,,,,,,,,,,,,,,,,,,49,001,21,w,Psychologie,2023-01-23_09h05.51.877,00_bat_bachelor,2022.2.4,59.967987951073965,
,,,,,,,,,,,,0,0,0,0,231,0,231,0,,,,,,,231,,,1,1569.0172771160392,X,l,go,l,1,0.30038977571905434,,,,,,,,,,,,,,,,,,49,001,21,w,Psychologie,2023-01-23_09h05.51.877,00_bat_bachelor,2022.2.4,59.967987951073965,
,,,,,,,,,,,,0,0,0,0,232,0,232,0,,,,,,,232,,,1,1570.4182246083265,X,None,nogo,None,1,,,,,1571.2186611665375,,,,,,,,,,,,,,49,001,21,w,Psychologie,2023-01-23_09h05.51.877,00_bat_bachelor,2022.2.4,59.967987951073965,
,,,,,,,,,,,,0,0,0,0,233,0,233,0,,,,,,,233,,,1,1572.2196454103932,Y,d,go,d,1,0.23443089190016053,,,,,,,,,,,,,,,,,,49,001,21,w,Psychologie,2023-01-23_09h05.51.877,00_bat_bachelor,2022.2.4,59.967987951073965,
,,,,,,,,,,,,0,0,0,0,234,0,234,0,,,,,,,234,,,1,1573.5703741629682,X,l,go,l,1,0.22791015514269475,,,,,,,,,,,,,,,,,,49,001,21,w,Psychologie,2023-01-23_09h05.51.877,00_bat_bachelor,2022.2.4,59.967987951073965,
,,,,,,,,,,,,0,0,0,0,235,0,235,0,,,,,,,235,,,1,1574.904445436769,Y,d,go,d,1,0.1743134711229004,,,,,,,,,,,,,,,,,,49,001,21,w,Psychologie,2023-01-23_09h05.51.877,00_bat_bachelor,2022.2.4,59.967987951073965,
,,,,,,,,,,,,0,0,0,0,236,0,236,0,,,,,,,236,,,1,1576.1888807595842,X,l,go,l,1,0.18524294156588894,,,,,,,,,,,,,,,,,,49,001,21,w,Psychologie,2023-01-23_09h05.51.877,00_bat_bachelor,2022.2.4,59.967987951073965,
,,,,,,,,,,,,0,0,0,0,237,0,237,0,,,,,,,237,,,1,1577.4900826522412,X,None,nogo,None,1,,,,,,,,,,,,,,,,,,,49,001,21,w,Psychologie,2023-01-23_09h05.51.877,00_bat_bachelor,2022.2.4,59.967987951073965,
,,,,,,,,,,,,0,0,0,0,238,0,238,0,,,,,,,238,,,1,1579.2911466053042,Y,d,go,d,1,0.34724026810783926,,,,,,,,,,,,,,,,,,49,001,21,w,Psychologie,2023-01-23_09h05.51.877,00_bat_bachelor,2022.2.4,59.967987951073965,
,,,,,,,,,,,,0,0,0,0,239,0,239,0,,,,,,,239,,,1,1580.7426192619914,X,l,go,l,1,0.16008314739440266,,,,,,,,,,,,,,,,,,49,001,21,w,Psychologie,2023-01-23_09h05.51.877,00_bat_bachelor,2022.2.4,59.967987951073965,
,,,,,,,,,,,,0,0,0,0,240,0,240,0,,,,,,,240,,,1,1582.0102327421564,Y,d,go,d,1,0.23579186357630988,,,,,,,,,,,,,,,,,,49,001,21,w,Psychologie,2023-01-23_09h05.51.877,00_bat_bachelor,2022.2.4,59.967987951073965,
,,,,,,,,,,,,0,0,0,0,241,0,241,0,,,,,,,241,,,1,1583.3611462222734,X,l,go,l,1,0.19598089657858964,,,,,,,,,,,,,,,,,,49,001,21,w,Psychologie,2023-01-23_09h05.51.877,00_bat_bachelor,2022.2.4,59.967987951073965,
,,,,,,,,,,,,0,0,0,0,242,0,242,0,,,,,,,242,,,1,1584.6621813268093,X,None,nogo,d,0,0.2071416400850694,,,,,,,,,,,,,,,,,,49,001,21,w,Psychologie,2023-01-23_09h05.51.877,00_bat_bachelor,2022.2.4,59.967987951073965,
,,,,,,,,,,,,0,0,0,0,243,0,243,0,,,,,,,243,,,1,1585.9799587587277,Y,d,go,d,1,0.31531197924198295,,,,,,,,,,,,,,,,,,49,001,21,w,Psychologie,2023-01-23_09h05.51.877,00_bat_bachelor,2022.2.4,59.967987951073965,
,,,,,,,,,,,,0,0,0,0,244,0,244,0,,,,,,,244,,,1,1587.397631608676,X,l,go,l,1,0.32026277432225925,,,,,,,,,,,,,,,,,,49,001,21,w,Psychologie,2023-01-23_09h05.51.877,00_bat_bachelor,2022.2.4,59.967987951073965,
,,,,,,,,,,,,0,0,0,0,245,0,245,0,,,,,,,245,,,1,1588.8321282406714,Y,d,go,d,1,0.3742415195030162,,,,,,,,,,,,,,,,,,49,001,21,w,Psychologie,2023-01-23_09h05.51.877,00_bat_bachelor,2022.2.4,59.967987951073965,
,,,,,,,,,,,,0,0,0,0,246,0,246,0,,,,,,,246,,,1,1590.3165168240243,Y,None,nogo,None,1,,,,,,,,,,,,,,,,,,,49,001,21,w,Psychologie,2023-01-23_09h05.51.877,00_bat_bachelor,2022.2.4,59.967987951073965,
,,,,,,,,,,,,0,0,0,0,247,0,247,0,,,,,,,247,,,1,1592.1178876866243,X,l,go,l,1,0.20748394361328337,,,,,,,,,,,,,,,,,,49,001,21,w,Psychologie,2023-01-23_09h05.51.877,00_bat_bachelor,2022.2.4,59.967987951073965,
,,,,,,,,,,,,0,0,0,0,248,0,248,0,,,,,,,248,,,1,1593.4355414819997,Y,d,go,d,1,0.2184284443811748,,,,,,,,,,,,,,,,,,49,001,21,w,Psychologie,2023-01-23_09h05.51.877,00_bat_bachelor,2022.2.4,59.967987951073965,
,,,,,,,,,,,,0,0,0,0,249,0,249,0,,,,,,,249,,,1,1594.769923059282,X,l,go,l,1,0.4519167840009004,,,,,,,,,,,,,,,,,,49,001,21,w,Psychologie,2023-01-23_09h05.51.877,00_bat_bachelor,2022.2.4,59.967987951073965,
,,,,,,,,,,,,1,0,1,0,0,0,0,0,,,,,,,0,,,0.2,1606.3451350474693,X,l,go,l,1,0.41350024327323354,,,,,,,,,1595.3511709350364,space,10.771282097016979,,,,,,,49,001,21,w,Psychologie,2023-01-23_09h05.51.877,00_bat_bachelor,2022.2.4,59.967987951073965,
,,,,,,,,,,,,1,0,1,0,1,0,1,0,,,,,,,1,,,0.2,1607.0624539090236,Y,d,go,d,1,0.3034763256629276,,,,,,,,,,,,,,,,,,49,001,21,w,Psychologie,2023-01-23_09h05.51.877,00_bat_bachelor,2022.2.4,59.967987951073965,
,,,,,,,,,,,,1,0,1,0,2,0,2,0,,,,,,,2,,,0.2,1607.6796300794617,X,l,go,l,1,0.2787907139992285,,,,,,,,,,,,,,,,,,49,001,21,w,Psychologie,2023-01-23_09h05.51.877,00_bat_bachelor,2022.2.4,59.967987951073965,
,,,,,,,,,,,,1,0,1,0,3,0,3,0,,,,,,,3,,,0.2,1608.2635683833723,Y,d,go,d,1,0.19024997915187214,,,,,,,,,,,,,,,,,,49,001,21,w,Psychologie,2023-01-23_09h05.51.877,00_bat_bachelor,2022.2.4,59.967987951073965,
,,,,,,,,,,,,1,0,1,0,4,0,4,0,,,,,,,4,,,0.2,1608.7639060808328,X,l,go,l,1,0.1220651527011114,,,,,,,,,,,,,,,,,,49,001,21,w,Psychologie,2023-01-23_09h05.51.877,00_bat_bachelor,2022.2.4,59.967987951073965,
,,,,,,,,,,,,1,0,1,0,5,0,5,0,,,,,,,5,,,0.2,1609.1976492571866,Y,d,go,d,1,0.07203695872078697,,,,,,,,,,,,,,,,,,49,001,21,w,Psychologie,2023-01-23_09h05.51.877,00_bat_bachelor,2022.2.4,59.967987951073965,
,,,,,,,,,,,,1,0,1,0,6,0,6,0,,,,,,,6,,,0.2,1609.5812231484456,X,l,go,l,1,0.12057715053708762,,,,,,,,,,,,,,,,,,49,001,21,w,Psychologie,2023-01-23_09h05.51.877,00_bat_bachelor,2022.2.4,59.967987951073965,
,,,,,,,,,,,,1,0,1,0,7,0,7,0,,,,,,,7,,,0.2,1610.0148470518989,X,None,nogo,d,0,0.11886175410256783,,,,,,,,,,,,,,,,,,49,001,21,w,Psychologie,2023-01-23_09h05.51.877,00_bat_bachelor,2022.2.4,59.967987951073965,
,,,,,,,,,,,,1,0,1,0,8,0,8,0,,,,,,,8,,,0.2,1610.4486338646793,X,None,nogo,l,0,0.24555818081228153,,,,,,,,,,,,,,,,,,49,001,21,w,Psychologie,2023-01-23_09h05.51.877,00_bat_bachelor,2022.2.4,59.967987951073965,
,,,,,,,,,,,,1,0,1,0,9,0,9,0,,,,,,,9,,,0.2,1610.9990598774202,Y,d,go,l,0,0.6074331314181336,,,,,,,,,,,,,,,,,,49,001,21,w,Psychologie,2023-01-23_09h05.51.877,00_bat_bachelor,2022.2.4,59.967987951073965,
,,,,,,,,,,,,1,0,1,0,10,0,10,0,,,,,,,10,,,0.2,1611.9160507869829,X,l,go,l,1,0.2651582093213847,,,,,,,,,,,,,,,,,,49,001,21,w,Psychologie,2023-01-23_09h05.51.877,00_bat_bachelor,2022.2.4,59.967987951073965,
,,,,,,,,,,,,1,0,1,0,11,0,11,0,,,,,,,11,,,0.2,1612.4834387637898,X,None,nogo,d,0,0.25816910824653405,,,,,,,,,,,,,,,,,,49,001,21,w,Psychologie,2023-01-23_09h05.51.877,00_bat_bachelor,2022.2.4,59.967987951073965,
,,,,,,,,,,,,1,0,1,0,12,0,12,0,,,,,,,12,,,0.2,1613.0502454064176,Y,d,go,d,1,0.38034625565535407,,,,,,,,,,,,,,,,,,49,001,21,w,Psychologie,2023-01-23_09h05.51.877,00_bat_bachelor,2022.2.4,59.967987951073965,
,,,,,,,,,,,,1,0,1,0,13,0,13,0,,,,,,,13,,,0.2,1613.7344607046698,X,l,go,l,1,0.41559479177442427,,,,,,,,,,,,,,,,,,49,001,21,w,Psychologie,2023-01-23_09h05.51.877,00_bat_bachelor,2022.2.4,59.967987951073965,
,,,,,,,,,,,,1,0,1,0,14,0,14,0,,,,,,,14,,,0.2,1614.4516394448087,Y,d,go,d,1,0.6102951961876215,,,,,,,,,,,,,,,,,,49,001,21,w,Psychologie,2023-01-23_09h05.51.877,00_bat_bachelor,2022.2.4,59.967987951073965,
,,,,,,,,,,,,1,0,1,0,15,0,15,0,,,,,,,15,,,0.2,1615.369031809501,Y,None,nogo,d,0,0.4773078512363327,,,,,,,,,,,,,,,,,,49,001,21,w,Psychologie,2023-01-23_09h05.51.877,00_bat_bachelor,2022.2.4,59.967987951073965,
,,,,,,,,,,,,1,0,1,0,16,0,16,0,,,,,,,16,,,0.2,1616.1530208286363,X,l,go,l,1,0.4292815995619321,,,,,,,,,,,,,,,,,,49,001,21,w,Psychologie,2023-01-23_09h05.51.877,00_bat_bachelor,2022.2.4,59.967987951073965,
,,,,,,,,,,,,1,0,1,0,17,0,17,0,,,,,,,17,,,0.2,1616.886885653652,Y,d,go,None,0,,,,,,,,,,,,,,,,,,,49,001,21,w,Psychologie,2023-01-23_09h05.51.877,00_bat_bachelor,2022.2.4,59.967987951073965,
,,,,,,,,,,,,1,0,1,0,18,0,18,0,,,,,,,18,,,0.2,1617.887432078689,Y,None,nogo,None,1,,,,,,,,,,,,,,,,,,,49,001,21,w,Psychologie,2023-01-23_09h05.51.877,00_bat_bachelor,2022.2.4,59.967987951073965,
,,,,,,,,,,,,1,0,1,0,19,0,19,0,,,,,,,19,,,0.2,1618.8881879585765,Y,None,nogo,None,1,,,,,,,,,,,,,,,,,,,49,001,21,w,Psychologie,2023-01-23_09h05.51.877,00_bat_bachelor,2022.2.4,59.967987951073965,
,,,,,,,,,,,,1,0,1,0,20,0,20,0,,,,,,,20,,,0.2,1619.8890844447287,X,l,go,l,1,0.29421667583039834,,,,,,,,,,,,,,,,,,49,001,21,w,Psychologie,2023-01-23_09h05.51.877,00_bat_bachelor,2022.2.4,59.967987951073965,
,,,,,,,,,,,,1,0,1,0,21,0,21,0,,,,,,,21,,,0.2,1620.489549318132,Y,d,go,d,1,0.4284500832005733,,,,,,,,,,,,,,,,,,49,001,21,w,Psychologie,2023-01-23_09h05.51.877,00_bat_bachelor,2022.2.4,59.967987951073965,
,,,,,,,,,,,,1,0,1,0,22,0,22,0,,,,,,,22,,,0.2,1621.223524688763,X,l,go,l,1,0.23882217101447623,,,,,,,,,,,,,,,,,,49,001,21,w,Psychologie,2023-01-23_09h05.51.877,00_bat_bachelor,2022.2.4,59.967987951073965,
,,,,,,,,,,,,1,0,1,0,23,0,23,0,,,,,,,23,,,0.2,1621.7735793070242,Y,d,go,d,1,0.32884751408175816,,,,,,,,,,,,,,,,,,49,001,21,w,Psychologie,2023-01-23_09h05.51.877,00_bat_bachelor,2022.2.4,59.967987951073965,
,,,,,,,,,,,,1,0,1,0,24,0,24,0,,,,,,,24,,,0.2,1622.4074100471416,X,l,go,l,1,0.23869417082835298,,,,,,,,,,,,,,,,,,49,001,21,w,Psychologie,2023-01-23_09h05.51.877,00_bat_bachelor,2022.2.4,59.967987951073965,
,,,,,,,,,,,,1,0,1,0,25,0,25,0,,,,,,,25,,,0.2,1622.9581696361256,Y,d,go,d,1,0.36048780252815504,,,,,,,,,,,,,,,,,,49,001,21,w,Psychologie,2023-01-23_09h05.51.877,00_bat_bachelor,2022.2.4,59.967987951073965,
,,,,,,,,,,,,1,0,1,0,26,0,26,0,,,,,,,26,,,0.2,1623.6252256366915,X,l,go,l,1,0.2050781219319333,,,,,,,,,,,,,,,,,,49,001,21,w,Psychologie,2023-01-23_09h05.51.877,00_bat_bachelor,2022.2.4,59.967987951073965,
,,,,,,,,,,,,1,0,1,0,27,0,27,0,,,,,,,27,,,0.2,1624.142228085665,Y,d,go,d,1,0.16788485571180445,,,,,,,,,,,,,,,,,,49,001,21,w,Psychologie,2023-01-23_09h05.51.877,00_bat_bachelor,2022.2.4,59.967987951073965,
,,,,,,,,,,,,1,0,1,0,28,0,28,0,,,,,,,28,,,0.2,1624.6257546071583,Y,None,nogo,d,0,0.2124701326839613,,,,,,,,,,,,,,,,,,49,001,21,w,Psychologie,2023-01-23_09h05.51.877,00_bat_bachelor,2022.2.4,59.967987951073965,
,,,,,,,,,,,,1,0,1,0,29,0,29,0,,,,,,,29,,,0.2,1625.1432346325837,X,l,go,None,0,,,,,1625.9437899788459,,,,,,,,,,,,,,49,001,21,w,Psychologie,2023-01-23_09h05.51.877,00_bat_bachelor,2022.2.4,59.967987951073965,
,,,,,,,,,,,,1,0,1,0,30,0,30,0,,,,,,,30,,,0.2,1626.1435817846036,Y,d,go,d,1,0.5339518124152391,,,,,,,,,,,,,,,,,,49,001,21,w,Psychologie,2023-01-23_09h05.51.877,00_bat_bachelor,2022.2.4,59.967987951073965,
,,,,,,,,,,,,1,0,1,0,31,0,31,0,,,,,,,31,,,0.2,1626.9946191436884,X,l,go,l,1,0.403603986454641,,,,,,,,,,,,,,,,,,49,001,21,w,Psychologie,2023-01-23_09h05.51.877,00_bat_bachelor,2022.2.4,59.967987951073965,
,,,,,,,,,,,,1,0,1,0,32,0,32,0,,,,,,,32,,,0.2,1627.7117906110893,X,None,nogo,None,1,,,,,1628.5123784422472,,,,,,,,,,,,,,49,001,21,w,Psychologie,2023-01-23_09h05.51.877,00_bat_bachelor,2022.2.4,59.967987951073965,
,,,,,,,,,,,,1,0,1,0,33,0,33,0,,,,,,,33,,,0.2,1628.712557157659,Y,d,go,d,1,0.41303139410695167,,,,,,,,,,,,,,,,,,49,001,21,w,Psychologie,2023-01-23_09h05.51.877,00_bat_bachelor,2022.2.4,59.967987951073965,
,,,,,,,,,,,,1,0,1,0,34,0,34,0,,,,,,,34,,,0.2,1629.4297543220669,X,l,go,l,1,0.4165402476952522,,,,,,,,,,,,,,,,,,49,001,21,w,Psychologie,2023-01-23_09h05.51.877,00_bat_bachelor,2022.2.4,59.967987951073965,
,,,,,,,,,,,,1,0,1,0,35,0,35,0,,,,,,,35,,,0.2,1630.1467939104882,X,None,nogo,None,1,,,,,1630.9475965298375,,,,,,,,,,,,,,49,001,21,w,Psychologie,2023-01-23_09h05.51.877,00_bat_bachelor,2022.2.4,59.967987951073965,
,,,,,,,,,,,,1,0,1,0,36,0,36,0,,,,,,,36,,,0.2,1631.1476816693553,Y,d,go,d,1,0.33096145655065357,,,,,,,,,,,,,,,,,,49,001,21,w,Psychologie,2023-01-23_09h05.51.877,00_bat_bachelor,2022.2.4,59.967987951073965,
,,,,,,,,,,,,1,0,1,0,37,0,37,0,,,,,,,37,,,0.2,1631.7812282878472,X,l,go,l,1,0.41620958054784296,,,,,,,,,,,,,,,,,,49,001,21,w,Psychologie,2023-01-23_09h05.51.877,00_bat_bachelor,2022.2.4,59.967987951073965,
,,,,,,,,,,,,1,0,1,0,38,0,38,0,,,,,,,38,,,0.2,1632.498787149751,Y,d,go,d,1,0.32319611192190223,,,,,,,,,,,,,,,,,,49,001,21,w,Psychologie,2023-01-23_09h05.51.877,00_bat_bachelor,2022.2.4,59.967987951073965,
,,,,,,,,,,,,1,0,1,0,39,0,39,0,,,,,,,39,,,0.2,1633.132573768592,Y,None,nogo,l,0,0.2976256504863386,,,,,,,,,,,,,,,,,,49,001,21,w,Psychologie,2023-01-23_09h05.51.877,00_bat_bachelor,2022.2.4,59.967987951073965,
,,,,,,,,,,,,1,0,1,0,40,0,40,0,,,,,,,40,,,0.2,1633.7330861572163,X,l,go,l,1,0.40089464918048634,,,,,,,,,,,,,,,,,,49,001,21,w,Psychologie,2023-01-23_09h05.51.877,00_bat_bachelor,2022.2.4,59.967987951073965,
,,,,,,,,,,,,1,0,1,0,41,0,41,0,,,,,,,41,,,0.2,1634.450310473179,Y,d,go,d,1,0.4351022140887153,,,,,,,,,,,,,,,,,,49,001,21,w,Psychologie,2023-01-23_09h05.51.877,00_bat_bachelor,2022.2.4,59.967987951073965,
,,,,,,,,,,,,1,0,1,0,42,0,42,0,,,,,,,42,,,0.2,1635.2007968981288,X,l,go,l,1,0.26252790246519453,,,,,,,,,,,,,,,,,,49,001,21,w,Psychologie,2023-01-23_09h05.51.877,00_bat_bachelor,2022.2.4,59.967987951073965,
,,,,,,,,,,,,1,0,1,0,43,0,43,0,,,,,,,43,,,0.2,1635.7679579655146,Y,d,go,d,1,0.3975351291425113,,,,,,,,,,,,,,,,,,49,001,21,w,Psychologie,2023-01-23_09h05.51.877,00_bat_bachelor,2022.2.4,59.967987951073965,
,,,,,,,,,,,,1,0,1,0,44,0,44,0,,,,,,,44,,,0.2,1636.468390984326,X,l,go,l,1,0.4175749158672488,,,,,,,,,,,,,,,,,,49,001,21,w,Psychologie,2023-01-23_09h05.51.877,00_bat_bachelor,2022.2.4,59.967987951073965,
,,,,,,,,,,,,1,0,1,0,45,0,45,0,,,,,,,45,,,0.2,1637.2023338700615,X,None,nogo,l,0,0.3880602062700973,,,,,,,,,,,,,,,,,,49,001,21,w,Psychologie,2023-01-23_09h05.51.877,00_bat_bachelor,2022.2.4,59.967987951073965,
,,,,,,,,,,,,1,0,1,0,46,0,46,0,,,,,,,46,,,0.2,1637.902812464697,Y,d,go,d,1,0.3274593908505494,,,,,,,,,,,,,,,,,,49,001,21,w,Psychologie,2023-01-23_09h05.51.877,00_bat_bachelor,2022.2.4,59.967987951073965,
,,,,,,,,,,,,1,0,1,0,47,0,47,0,,,,,,,47,,,0.2,1638.536764417112,X,l,go,l,1,0.3985392518148956,,,,,,,,,,,,,,,,,,49,001,21,w,Psychologie,2023-01-23_09h05.51.877,00_bat_bachelor,2022.2.4,59.967987951073965,
,,,,,,,,,,,,1,0,1,0,48,0,48,0,,,,,,,48,,,0.2,1639.2371484661553,Y,d,go,d,1,0.44888987050683227,,,,,,,,,,,,,,,,,,49,001,21,w,Psychologie,2023-01-23_09h05.51.877,00_bat_bachelor,2022.2.4,59.967987951073965,
,,,,,,,,,,,,1,0,1,0,49,0,49,0,,,,,,,49,,,0.2,1639.9874826484597,X,l,go,l,1,0.3539767627545416,,,,,,,,,,,,,,,,,,49,001,21,w,Psychologie,2023-01-23_09h05.51.877,00_bat_bachelor,2022.2.4,59.967987951073965,
,,,,,,,,,,,,1,0,1,0,50,0,50,0,,,,,,,50,,,0.2,1640.6549221647351,Y,d,go,d,1,0.4868787742485665,,,,,,,,,,,,,,,,,,49,001,21,w,Psychologie,2023-01-23_09h05.51.877,00_bat_bachelor,2022.2.4,59.967987951073965,
,,,,,,,,,,,,1,0,1,0,51,0,51,0,,,,,,,51,,,0.2,1641.4554687837121,Y,None,nogo,None,1,,,,,,,,,,,,,,,,,,,49,001,21,w,Psychologie,2023-01-23_09h05.51.877,00_bat_bachelor,2022.2.4,59.967987951073965,
,,,,,,,,,,,,1,0,1,0,52,0,52,0,,,,,,,52,,,0.2,1642.4560501178912,X,l,go,l,1,0.28540890544365993,,,,,,,,,,,,,,,,,,49,001,21,w,Psychologie,2023-01-23_09h05.51.877,00_bat_bachelor,2022.2.4,59.967987951073965,
,,,,,,,,,,,,1,0,1,0,53,0,53,0,,,,,,,53,,,0.2,1643.0566604460514,Y,d,go,d,1,0.4527972701299632,,,,,,,,,,,,,,,,,,49,001,21,w,Psychologie,2023-01-23_09h05.51.877,00_bat_bachelor,2022.2.4,59.967987951073965,
,,,,,,,,,,,,1,0,1,0,54,0,54,0,,,,,,,54,,,0.2,1643.8237374405876,X,l,go,l,1,0.43758949043342454,,,,,,,,,,,,,,,,,,49,001,21,w,Psychologie,2023-01-23_09h05.51.877,00_bat_bachelor,2022.2.4,59.967987951073965,
,,,,,,,,,,,,1,0,1,0,55,0,55,0,,,,,,,55,,,0.2,1644.5746694419431,X,None,nogo,None,1,,,,,,,,,,,,,,,,,,,49,001,21,w,Psychologie,2023-01-23_09h05.51.877,00_bat_bachelor,2022.2.4,59.967987951073965,
,,,,,,,,,,,,1,0,1,0,56,0,56,0,,,,,,,56,,,0.2,1645.575112109254,Y,d,go,d,1,0.2707528841261819,,,,,,,,,,,,,,,,,,49,001,21,w,Psychologie,2023-01-23_09h05.51.877,00_bat_bachelor,2022.2.4,59.967987951073965,
,,,,,,,,,,,,1,0,1,0,57,0,57,0,,,,,,,57,,,0.2,1646.1589801100317,X,l,go,l,1,0.31155391317008707,,,,,,,,,,,,,,,,,,49,001,21,w,Psychologie,2023-01-23_09h05.51.877,00_bat_bachelor,2022.2.4,59.967987951073965,
,,,,,,,,,,,,1,0,1,0,58,0,58,0,,,,,,,58,,,0.2,1646.776118947082,Y,d,go,d,1,0.38214310675414254,,,,,,,,,,,,,,,,,,49,001,21,w,Psychologie,2023-01-23_09h05.51.877,00_bat_bachelor,2022.2.4,59.967987951073965,
,,,,,,,,,,,,1,0,1,0,59,0,59,0,,,,,,,59,,,0.2,1647.46010345712,Y,None,nogo,l,0,0.24144132633921345,,,,,,,,,,,,,,,,,,49,001,21,w,Psychologie,2023-01-23_09h05.51.877,00_bat_bachelor,2022.2.4,59.967987951073965,
,,,,,,,,,,,,1,0,1,0,60,0,60,0,,,,,,,60,,,0.2,1648.0102826816233,X,l,go,l,1,0.31474325114197654,,,,,,,,,,,,,,,,,,49,001,21,w,Psychologie,2023-01-23_09h05.51.877,00_bat_bachelor,2022.2.4,59.967987951073965,
,,,,,,,,,,,,1,0,1,0,61,0,61,0,,,,,,,61,,,0.2,1648.6274190944278,Y,d,go,d,1,0.38667596183233854,,,,,,,,,,,,,,,,,,49,001,21,w,Psychologie,2023-01-23_09h05.51.877,00_bat_bachelor,2022.2.4,59.967987951073965,
,,,,,,,,,,,,1,0,1,0,62,0,62,0,,,,,,,62,,,0.2,1649.3284145383,X,l,go,l,1,0.31011924441611427,,,,,,,,,,,,,,,,,,49,001,21,w,Psychologie,2023-01-23_09h05.51.877,00_bat_bachelor,2022.2.4,59.967987951073965,
,,,,,,,,,,,,1,0,1,0,63,0,63,0,,,,,,,63,,,0.2,1649.9453642841663,X,None,nogo,None,1,,,,,1650.7457164786179,,,,,,,,,,,,,,49,001,21,w,Psychologie,2023-01-23_09h05.51.877,00_bat_bachelor,2022.2.4,59.967987951073965,
,,,,,,,,,,,,1,0,1,0,64,0,64,0,,,,,,,64,,,0.2,1650.946147315608,Y,d,go,d,1,0.24416569393827103,,,,,,,,,,,,,,,,,,49,001,21,w,Psychologie,2023-01-23_09h05.51.877,00_bat_bachelor,2022.2.4,59.967987951073965,
,,,,,,,,,,,,1,0,1,0,65,0,65,0,,,,,,,65,,,0.2,1651.4962746612478,X,l,go,l,1,0.34886790683833624,,,,,,,,,,,,,,,,,,49,001,21,w,Psychologie,2023-01-23_09h05.51.877,00_bat_bachelor,2022.2.4,59.967987951073965,
,,,,,,,,,,,,1,0,1,0,66,0,66,0,,,,,,,66,,,0.2,1652.1467648195367,Y,d,go,d,1,0.37091884800349817,,,,,,,,,,,,,,,,,,49,001,21,w,Psychologie,2023-01-23_09h05.51.877,00_bat_bachelor,2022.2.4,59.967987951073965,
,,,,,,,,,,,,1,0,1,0,67,0,67,0,,,,,,,67,,,0.2,1652.8307488447253,X,l,go,l,1,0.3754347333598389,,,,,,,,,,,,,,,,,,49,001,21,w,Psychologie,2023-01-23_09h05.51.877,00_bat_bachelor,2022.2.4,59.967987951073965,
,,,,,,,,,,,,1,0,1,0,68,0,68,0,,,,,,,68,,,0.2,1653.5147566275245,X,None,nogo,None,1,,,,,,,,,,,,,,,,,,,49,001,21,w,Psychologie,2023-01-23_09h05.51.877,00_bat_bachelor,2022.2.4,59.967987951073965,
,,,,,,,,,,,,1,0,1,0,69,0,69,0,,,,,,,69,,,0.2,1654.515397113305,Y,d,go,d,1,0.2417453267818246,,,,,,,,,,,,,,,,,,49,001,21,w,Psychologie,2023-01-23_09h05.51.877,00_bat_bachelor,2022.2.4,59.967987951073965,
,,,,,,,,,,,,1,0,1,0,70,0,70,0,,,,,,,70,,,0.2,1655.065936580756,X,l,go,l,1,0.3968466432926334,,,,,,,,,,,,,,,,,,49,001,21,w,Psychologie,2023-01-23_09h05.51.877,00_bat_bachelor,2022.2.4,59.967987951073965,
,,,,,,,,,,,,1,0,1,0,71,0,71,0,,,,,,,71,,,0.2,1655.7662149326761,Y,d,go,d,1,0.28725763540535354,,,,,,,,,,,,,,,,,,49,001,21,w,Psychologie,2023-01-23_09h05.51.877,00_bat_bachelor,2022.2.4,59.967987951073965,
,,,,,,,,,,,,1,0,1,0,72,0,72,0,,,,,,,72,,,0.2,1656.366749139514,Y,None,nogo,None,1,,,,,,,,,,,,,,,,,,,49,001,21,w,Psychologie,2023-01-23_09h05.51.877,00_bat_bachelor,2022.2.4,59.967987951073965,
,,,,,,,,,,,,1,0,1,0,73,0,73,0,,,,,,,73,,,0.2,1657.3675481709793,X,l,go,l,1,0.20622963875860023,,,,,,,,,,,,,,,,,,49,001,21,w,Psychologie,2023-01-23_09h05.51.877,00_bat_bachelor,2022.2.4,59.967987951073965,
,,,,,,,,,,,,1,0,1,0,74,0,74,0,,,,,,,74,,,0.2,1657.8848512264503,Y,d,go,d,1,0.2820067186768256,,,,,,,,,,,,,,,,,,49,001,21,w,Psychologie,2023-01-23_09h05.51.877,00_bat_bachelor,2022.2.4,59.967987951073965,
,,,,,,,,,,,,1,0,1,0,75,0,75,0,,,,,,,75,,,0.2,1658.4682775296155,Y,None,nogo,l,0,0.2577167439518462,,,,,,,,,,,,,,,,,,49,001,21,w,Psychologie,2023-01-23_09h05.51.877,00_bat_bachelor,2022.2.4,59.967987951073965,
,,,,,,,,,,,,1,0,1,0,76,0,76,0,,,,,,,76,,,0.2,1659.0357290216662,X,l,go,l,1,0.25093418863173156,,,,,,,,,,,,,,,,,,49,001,21,w,Psychologie,2023-01-23_09h05.51.877,00_bat_bachelor,2022.2.4,59.967987951073965,
,,,,,,,,,,,,1,0,1,0,77,0,77,0,,,,,,,77,,,0.2,1659.6025080278905,Y,d,go,d,1,0.40305853111578926,,,,,,,,,,,,,,,,,,49,001,21,w,Psychologie,2023-01-23_09h05.51.877,00_bat_bachelor,2022.2.4,59.967987951073965,
,,,,,,,,,,,,1,0,1,0,78,0,78,0,,,,,,,78,,,0.2,1660.3198079803265,X,l,go,l,1,0.42331989392016567,,,,,,,,,,,,,,,,,,49,001,21,w,Psychologie,2023-01-23_09h05.51.877,00_bat_bachelor,2022.2.4,59.967987951073965,
,,,,,,,,,,,,1,0,1,0,79,0,79,0,,,,,,,79,,,0.2,1661.053886138986,Y,d,go,d,1,0.5203619744662547,,,,,,,,,,,,,,,,,,49,001,21,w,Psychologie,2023-01-23_09h05.51.877,00_bat_bachelor,2022.2.4,59.967987951073965,
,,,,,,,,,,,,1,0,1,0,80,0,80,0,,,,,,,80,,,0.2,1661.8876328062538,Y,None,nogo,None,1,,,,,,,,,,,,,,,,,,,49,001,21,w,Psychologie,2023-01-23_09h05.51.877,00_bat_bachelor,2022.2.4,59.967987951073965,
,,,,,,,,,,,,1,0,1,0,81,0,81,0,,,,,,,81,,,0.2,1662.8885869894598,X,l,go,l,1,0.18890937114122153,,,,,,,,,,,,,,,,,,49,001,21,w,Psychologie,2023-01-23_09h05.51.877,00_bat_bachelor,2022.2.4,59.967987951073965,
,,,,,,,,,,,,1,0,1,0,82,0,82,0,,,,,,,82,,,0.2,1663.3890260204016,Y,d,go,d,1,0.4577950955809911,,,,,,,,,,,,,,,,,,49,001,21,w,Psychologie,2023-01-23_09h05.51.877,00_bat_bachelor,2022.2.4,59.967987951073965,
,,,,,,,,,,,,1,0,1,0,83,0,83,0,,,,,,,83,,,0.2,1664.1562988940104,X,l,go,l,1,0.3461391755964769,,,,,,,,,,,,,,,,,,49,001,21,w,Psychologie,2023-01-23_09h05.51.877,00_bat_bachelor,2022.2.4,59.967987951073965,
,,,,,,,,,,,,1,0,1,0,84,0,84,0,,,,,,,84,,,0.2,1664.806834628123,Y,d,go,d,1,0.463314133911922,,,,,,,,,,,,,,,,,,49,001,21,w,Psychologie,2023-01-23_09h05.51.877,00_bat_bachelor,2022.2.4,59.967987951073965,
,,,,,,,,,,,,1,0,1,0,85,0,85,0,,,,,,,85,,,0.2,1665.5740740471379,Y,None,nogo,None,1,,,,,,,,,,,,,,,,,,,49,001,21,w,Psychologie,2023-01-23_09h05.51.877,00_bat_bachelor,2022.2.4,59.967987951073965,
,,,,,,,,,,,,1,0,1,0,86,0,86,0,,,,,,,86,,,0.2,1666.5748391391598,X,l,go,l,1,0.18326039322766974,,,,,,,,,,,,,,,,,,49,001,21,w,Psychologie,2023-01-23_09h05.51.877,00_bat_bachelor,2022.2.4,59.967987951073965,
,,,,,,,,,,,,1,0,1,0,87,0,87,0,,,,,,,87,,,0.2,1667.0584723274746,Y,d,go,d,1,0.3554235527377614,,,,,,,,,,,,,,,,,,49,001,21,w,Psychologie,2023-01-23_09h05.51.877,00_bat_bachelor,2022.2.4,59.967987951073965,
,,,,,,,,,,,,1,0,1,0,88,0,88,0,,,,,,,88,,,0.2,1667.725622388784,X,l,go,l,1,0.26567845250258415,,,,,,,,,,,,,,,,,,49,001,21,w,Psychologie,2023-01-23_09h05.51.877,00_bat_bachelor,2022.2.4,59.967987951073965,
,,,,,,,,,,,,1,0,1,0,89,0,89,0,,,,,,,89,,,0.2,1668.292445031435,X,None,nogo,d,0,0.24212690309389018,,,,,,,,,,,,,,,,,,49,001,21,w,Psychologie,2023-01-23_09h05.51.877,00_bat_bachelor,2022.2.4,59.967987951073965,
,,,,,,,,,,,,1,0,1,0,90,0,90,0,,,,,,,90,,,0.2,1668.8432434083538,Y,d,go,d,1,0.4119598773964981,,,,,,,,,,,,,,,,,,49,001,21,w,Psychologie,2023-01-23_09h05.51.877,00_bat_bachelor,2022.2.4,59.967987951073965,
,,,,,,,,,,,,1,0,1,0,91,0,91,0,,,,,,,91,,,0.2,1669.560075966171,X,l,go,l,1,0.4138556377298528,,,,,,,,,,,,,,,,,,49,001,21,w,Psychologie,2023-01-23_09h05.51.877,00_bat_bachelor,2022.2.4,59.967987951073965,
,,,,,,,,,,,,1,0,1,0,92,0,92,0,,,,,,,92,,,0.2,1670.2775572522046,X,None,nogo,None,1,,,,,1671.0782725986996,,,,,,,,,,,,,,49,001,21,w,Psychologie,2023-01-23_09h05.51.877,00_bat_bachelor,2022.2.4,59.967987951073965,
,,,,,,,,,,,,1,0,1,0,93,0,93,0,,,,,,,93,,,0.2,1671.2783111926951,Y,d,go,d,1,0.21603038028717947,,,,,,,,,,,,,,,,,,49,001,21,w,Psychologie,2023-01-23_09h05.51.877,00_bat_bachelor,2022.2.4,59.967987951073965,
,,,,,,,,,,,,1,0,1,0,94,0,94,0,,,,,,,94,,,0.2,1671.7953320659376,X,l,go,l,1,0.38644226452254316,,,,,,,,,,,,,,,,,,49,001,21,w,Psychologie,2023-01-23_09h05.51.877,00_bat_bachelor,2022.2.4,59.967987951073965,
,,,,,,,,,,,,1,0,1,0,95,0,95,0,,,,,,,95,,,0.2,1672.49602205482,Y,d,go,d,1,0.3427757767650519,,,,,,,,,,,,,,,,,,49,001,21,w,Psychologie,2023-01-23_09h05.51.877,00_bat_bachelor,2022.2.4,59.967987951073965,
,,,,,,,,,,,,1,0,1,0,96,0,96,0,,,,,,,96,,,0.2,1673.1461519701602,X,l,go,l,1,0.4757747580966907,,,,,,,,,,,,,,,,,,49,001,21,w,Psychologie,2023-01-23_09h05.51.877,00_bat_bachelor,2022.2.4,59.967987951073965,
,,,,,,,,,,,,1,0,1,0,97,0,97,0,,,,,,,97,,,0.2,1673.930287413751,X,None,nogo,None,1,,,,,,,,,,,,,,,,,,,49,001,21,w,Psychologie,2023-01-23_09h05.51.877,00_bat_bachelor,2022.2.4,59.967987951073965,
,,,,,,,,,,,,1,0,1,0,98,0,98,0,,,,,,,98,,,0.2,1674.9311935968876,X,None,nogo,None,1,,,,,1675.7318497917813,,,,,,,,,,,,,,49,001,21,w,Psychologie,2023-01-23_09h05.51.877,00_bat_bachelor,2022.2.4,59.967987951073965,
,,,,,,,,,,,,1,0,1,0,99,0,99,0,,,,,,,99,,,0.2,1675.93189856761,Y,d,go,d,1,0.29867874292688157,,,,,,,,,,,,,,,,,,49,001,21,w,Psychologie,2023-01-23_09h05.51.877,00_bat_bachelor,2022.2.4,59.967987951073965,
,,,,,,,,,,,,1,0,1,0,100,0,100,0,,,,,,,100,,,0.2,1676.532415804726,X,l,go,l,1,0.3537222169298957,,,,,,,,,,,,,,,,,,49,001,21,w,Psychologie,2023-01-23_09h05.51.877,00_bat_bachelor,2022.2.4,59.967987951073965,
,,,,,,,,,,,,1,0,1,0,101,0,101,0,,,,,,,101,,,0.2,1677.1994655022527,Y,d,go,d,1,0.4069198700655079,,,,,,,,,,,,,,,,,,49,001,21,w,Psychologie,2023-01-23_09h05.51.877,00_bat_bachelor,2022.2.4,59.967987951073965,
,,,,,,,,,,,,1,0,1,0,102,0,102,0,,,,,,,102,,,0.2,1677.916793575942,X,l,go,l,1,0.3785702530723256,,,,,,,,,,,,,,,,,,49,001,21,w,Psychologie,2023-01-23_09h05.51.877,00_bat_bachelor,2022.2.4,59.967987951073965,
,,,,,,,,,,,,1,0,1,0,103,0,103,0,,,,,,,103,,,0.2,1678.6004120248417,X,None,nogo,None,1,,,,,,,,,,,,,,,,,,,49,001,21,w,Psychologie,2023-01-23_09h05.51.877,00_bat_bachelor,2022.2.4,59.967987951073965,
,,,,,,,,,,,,1,0,1,0,104,0,104,0,,,,,,,104,,,0.2,1679.601466086981,Y,d,go,d,1,0.22855694396196213,,,,,,,,,,,,,,,,,,49,001,21,w,Psychologie,2023-01-23_09h05.51.877,00_bat_bachelor,2022.2.4,59.967987951073965,
,,,,,,,,,,,,1,0,1,0,105,0,105,0,,,,,,,105,,,0.2,1680.1350498934057,X,l,go,None,0,,,,,,,,,,,,,,,,,,,49,001,21,w,Psychologie,2023-01-23_09h05.51.877,00_bat_bachelor,2022.2.4,59.967987951073965,
,,,,,,,,,,,,1,0,1,0,106,0,106,0,,,,,,,106,,,0.2,1681.1358974097902,Y,d,go,d,1,0.32689163244924657,,,,,,,,,,,,,,,,,,49,001,21,w,Psychologie,2023-01-23_09h05.51.877,00_bat_bachelor,2022.2.4,59.967987951073965,
,,,,,,,,,,,,1,0,1,0,107,0,107,0,,,,,,,107,,,0.2,1681.7693591796738,X,l,go,l,1,0.4288428110445466,,,,,,,,,,,,,,,,,,49,001,21,w,Psychologie,2023-01-23_09h05.51.877,00_bat_bachelor,2022.2.4,59.967987951073965,
,,,,,,,,,,,,1,0,1,0,108,0,108,0,,,,,,,108,,,0.2,1682.503287519933,Y,d,go,d,1,0.30163147449468397,,,,,,,,,,,,,,,,,,49,001,21,w,Psychologie,2023-01-23_09h05.51.877,00_bat_bachelor,2022.2.4,59.967987951073965,
,,,,,,,,,,,,1,0,1,0,109,0,109,0,,,,,,,109,,,0.2,1683.120776418099,X,l,go,l,1,0.5327387197418147,,,,,,,,,,,,,,,,,,49,001,21,w,Psychologie,2023-01-23_09h05.51.877,00_bat_bachelor,2022.2.4,59.967987951073965,
,,,,,,,,,,,,1,0,1,0,110,0,110,0,,,,,,,110,,,0.2,1683.9544047821646,X,None,nogo,None,1,,,,,,,,,,,,,,,,,,,49,001,21,w,Psychologie,2023-01-23_09h05.51.877,00_bat_bachelor,2022.2.4,59.967987951073965,
,,,,,,,,,,,,1,0,1,0,111,0,111,0,,,,,,,111,,,0.2,1684.95549714739,Y,d,go,d,1,0.1707498295760388,,,,,,,,,,,,,,,,,,49,001,21,w,Psychologie,2023-01-23_09h05.51.877,00_bat_bachelor,2022.2.4,59.967987951073965,
,,,,,,,,,,,,1,0,1,0,112,0,112,0,,,,,,,112,,,0.2,1685.4391797903222,X,l,go,l,1,0.2317627668072646,,,,,,,,,,,,,,,,,,49,001,21,w,Psychologie,2023-01-23_09h05.51.877,00_bat_bachelor,2022.2.4,59.967987951073965,
,,,,,,,,,,,,1,0,1,0,113,0,113,0,,,,,,,113,,,0.2,1685.9729623849148,Y,d,go,d,1,0.2886583647156158,,,,,,,,,,,,,,,,,,49,001,21,w,Psychologie,2023-01-23_09h05.51.877,00_bat_bachelor,2022.2.4,59.967987951073965,
,,,,,,,,,,,,1,0,1,0,114,0,114,0,,,,,,,114,,,0.2,1686.573377803701,Y,None,nogo,None,1,,,,,,,,,,,,,,,,,,,49,001,21,w,Psychologie,2023-01-23_09h05.51.877,00_bat_bachelor,2022.2.4,59.967987951073965,
,,,,,,,,,,,,1,0,1,0,115,0,115,0,,,,,,,115,,,0.2,1687.5741002289942,X,l,go,l,1,0.2397506572134489,,,,,,,,,,,,,,,,,,49,001,21,w,Psychologie,2023-01-23_09h05.51.877,00_bat_bachelor,2022.2.4,59.967987951073965,
,,,,,,,,,,,,1,0,1,0,116,0,116,0,,,,,,,116,,,0.2,1688.1245238174893,Y,d,go,d,1,0.2817002939888198,,,,,,,,,,,,,,,,,,49,001,21,w,Psychologie,2023-01-23_09h05.51.877,00_bat_bachelor,2022.2.4,59.967987951073965,
,,,,,,,,,,,,1,0,1,0,117,0,117,0,,,,,,,117,,,0.2,1688.7080204237873,X,l,go,l,1,0.17861602283585398,,,,,,,,,,,,,,,,,,49,001,21,w,Psychologie,2023-01-23_09h05.51.877,00_bat_bachelor,2022.2.4,59.967987951073965,
,,,,,,,,,,,,1,0,1,0,118,0,118,0,,,,,,,118,,,0.2,1689.1918611275555,X,None,nogo,None,1,,,,,,,,,,,,,,,,,,,49,001,21,w,Psychologie,2023-01-23_09h05.51.877,00_bat_bachelor,2022.2.4,59.967987951073965,
,,,,,,,,,,,,1,0,1,0,119,0,119,0,,,,,,,119,,,0.2,1690.1928104622698,Y,d,go,d,1,0.43731506579217694,,,,,,,,,,,,,,,,,,49,001,21,w,Psychologie,2023-01-23_09h05.51.877,00_bat_bachelor,2022.2.4,59.967987951073965,
,,,,,,,,,,,,1,0,1,0,120,0,120,0,,,,,,,120,,,0.2,1690.9434350692386,X,l,go,l,1,0.182545725521436,,,,,,,,,,,,,,,,,,49,001,21,w,Psychologie,2023-01-23_09h05.51.877,00_bat_bachelor,2022.2.4,59.967987951073965,
,,,,,,,,,,,,1,0,1,0,121,0,121,0,,,,,,,121,,,0.2,1691.426783651079,Y,d,go,d,1,0.2430544195950688,,,,,,,,,,,,,,,,,,49,001,21,w,Psychologie,2023-01-23_09h05.51.877,00_bat_bachelor,2022.2.4,59.967987951073965,
,,,,,,,,,,,,1,0,1,0,122,0,122,0,,,,,,,122,,,0.2,1691.9771926940984,X,l,go,l,1,0.2847010256265321,,,,,,,,,,,,,,,,,,49,001,21,w,Psychologie,2023-01-23_09h05.51.877,00_bat_bachelor,2022.2.4,59.967987951073965,
,,,,,,,,,,,,1,0,1,0,123,0,123,0,,,,,,,123,,,0.2,1692.5778679920504,X,None,nogo,d,0,0.24508787709794433,,,,,,,,,,,,,,,,,,49,001,21,w,Psychologie,2023-01-23_09h05.51.877,00_bat_bachelor,2022.2.4,59.967987951073965,
,,,,,,,,,,,,1,0,1,0,124,0,124,0,,,,,,,124,,,0.2,1693.128216428921,Y,d,go,d,1,0.3654221127354731,,,,,,,,,,,,,,,,,,49,001,21,w,Psychologie,2023-01-23_09h05.51.877,00_bat_bachelor,2022.2.4,59.967987951073965,
,,,,,,,,,,,,1,0,1,0,125,0,125,0,,,,,,,125,,,0.2,1693.7953470962625,X,l,go,l,1,0.27466707163750925,,,,,,,,,,,,,,,,,,49,001,21,w,Psychologie,2023-01-23_09h05.51.877,00_bat_bachelor,2022.2.4,59.967987951073965,
,,,,,,,,,,,,1,0,1,0,126,0,126,0,,,,,,,126,,,0.2,1694.379148672701,X,None,nogo,None,1,,,,,,,,,,,,,,,,,,,49,001,21,w,Psychologie,2023-01-23_09h05.51.877,00_bat_bachelor,2022.2.4,59.967987951073965,
,,,,,,,,,,,,1,0,1,0,127,0,127,0,,,,,,,127,,,0.2,1695.3801765529838,Y,d,go,d,1,0.1935498627395873,,,,,,,,,,,,,,,,,,49,001,21,w,Psychologie,2023-01-23_09h05.51.877,00_bat_bachelor,2022.2.4,59.967987951073965,
,,,,,,,,,,,,1,0,1,0,128,0,128,0,,,,,,,128,,,0.2,1695.8805355838094,X,l,go,l,1,0.31683246630257145,,,,,,,,,,,,,,,,,,49,001,21,w,Psychologie,2023-01-23_09h05.51.877,00_bat_bachelor,2022.2.4,59.967987951073965,
,,,,,,,,,,,,1,0,1,0,129,0,129,0,,,,,,,129,,,0.2,1696.4975919964972,Y,d,go,d,1,0.2939538875695007,,,,,,,,,,,,,,,,,,49,001,21,w,Psychologie,2023-01-23_09h05.51.877,00_bat_bachelor,2022.2.4,59.967987951073965,
,,,,,,,,,,,,1,0,1,0,130,0,130,0,,,,,,,130,,,0.2,1697.0980253547036,Y,None,nogo,l,0,0.29940698641041763,,,,,,,,,,,,,,,,,,49,001,21,w,Psychologie,2023-01-23_09h05.51.877,00_bat_bachelor,2022.2.4,59.967987951073965,
,,,,,,,,,,,,1,0,1,0,131,0,131,0,,,,,,,131,,,0.2,1697.6985896221909,X,l,go,l,1,0.5488628644071696,,,,,,,,,,,,,,,,,,49,001,21,w,Psychologie,2023-01-23_09h05.51.877,00_bat_bachelor,2022.2.4,59.967987951073965,
,,,,,,,,,,,,1,0,1,0,132,0,132,0,,,,,,,132,,,0.2,1698.5489152226646,Y,d,go,d,1,0.3209755026310859,,,,,,,,,,,,,,,,,,49,001,21,w,Psychologie,2023-01-23_09h05.51.877,00_bat_bachelor,2022.2.4,59.967987951073965,
,,,,,,,,,,,,1,0,1,0,133,0,133,0,,,,,,,133,,,0.2,1699.1830334783517,X,l,go,l,1,0.43923312918798274,,,,,,,,,,,,,,,,,,49,001,21,w,Psychologie,2023-01-23_09h05.51.877,00_bat_bachelor,2022.2.4,59.967987951073965,
,,,,,,,,,,,,1,0,1,0,134,0,134,0,,,,,,,134,,,0.2,1699.933623176179,Y,d,go,d,1,0.3284989075142448,,,,,,,,,,,,,,,,,,49,001,21,w,Psychologie,2023-01-23_09h05.51.877,00_bat_bachelor,2022.2.4,59.967987951073965,
,,,,,,,,,,,,1,0,1,0,135,0,135,0,,,,,,,135,,,0.2,1700.5672551281286,Y,None,nogo,l,0,0.3029100218092253,,,,,,,,,,,,,,,,,,49,001,21,w,Psychologie,2023-01-23_09h05.51.877,00_bat_bachelor,2022.2.4,59.967987951073965,
,,,,,,,,,,,,1,0,1,0,136,0,136,0,,,,,,,136,,,0.2,1701.184603420029,X,l,go,l,1,0.533345750927424,,,,,,,,,,,,,,,,,,49,001,21,w,Psychologie,2023-01-23_09h05.51.877,00_bat_bachelor,2022.2.4,59.967987951073965,
,,,,,,,,,,,,1,0,1,0,137,0,137,0,,,,,,,137,,,0.2,1702.0182051173892,Y,d,go,d,1,0.2605569905073253,,,,,,,,,,,,,,,,,,49,001,21,w,Psychologie,2023-01-23_09h05.51.877,00_bat_bachelor,2022.2.4,59.967987951073965,
,,,,,,,,,,,,1,0,1,0,138,0,138,0,,,,,,,138,,,0.2,1702.5852793967701,X,l,go,l,1,0.26827627446266433,,,,,,,,,,,,,,,,,,49,001,21,w,Psychologie,2023-01-23_09h05.51.877,00_bat_bachelor,2022.2.4,59.967987951073965,
,,,,,,,,,,,,1,0,1,0,139,0,139,0,,,,,,,139,,,0.2,1703.1694450949503,X,None,nogo,None,1,,,,,,,,,,,,,,,,,,,49,001,21,w,Psychologie,2023-01-23_09h05.51.877,00_bat_bachelor,2022.2.4,59.967987951073965,
,,,,,,,,,,,,1,0,1,0,140,0,140,0,,,,,,,140,,,0.2,1704.1699609744887,Y,d,go,d,1,0.1561359901376136,,,,,,,,,,,,,,,,,,49,001,21,w,Psychologie,2023-01-23_09h05.51.877,00_bat_bachelor,2022.2.4,59.967987951073965,
,,,,,,,,,,,,1,0,1,0,141,0,141,0,,,,,,,141,,,0.2,1704.6372290480908,X,l,go,l,1,0.31382785587140916,,,,,,,,,,,,,,,,,,49,001,21,w,Psychologie,2023-01-23_09h05.51.877,00_bat_bachelor,2022.2.4,59.967987951073965,
,,,,,,,,,,,,1,0,1,0,142,0,142,0,,,,,,,142,,,0.2,1705.2543751578787,X,None,nogo,d,0,0.2397259299051484,,,,,,,,,,,,,,,,,,49,001,21,w,Psychologie,2023-01-23_09h05.51.877,00_bat_bachelor,2022.2.4,59.967987951073965,
,,,,,,,,,,,,1,0,1,0,143,0,143,0,,,,,,,143,,,0.2,1705.8045364429622,Y,d,go,d,1,0.32960969700855003,,,,,,,,,,,,,,,,,,49,001,21,w,Psychologie,2023-01-23_09h05.51.877,00_bat_bachelor,2022.2.4,59.967987951073965,
,,,,,,,,,,,,1,0,1,0,144,0,144,0,,,,,,,144,,,0.2,1706.438511183289,X,l,go,l,1,0.4473087772977351,,,,,,,,,,,,,,,,,,49,001,21,w,Psychologie,2023-01-23_09h05.51.877,00_bat_bachelor,2022.2.4,59.967987951073965,
,,,,,,,,,,,,1,0,1,0,145,0,145,0,,,,,,,145,,,0.2,1707.1891416084482,Y,d,go,d,1,0.40130046795241014,,,,,,,,,,,,,,,,,,49,001,21,w,Psychologie,2023-01-23_09h05.51.877,00_bat_bachelor,2022.2.4,59.967987951073965,
,,,,,,,,,,,,1,0,1,0,146,0,146,0,,,,,,,146,,,0.2,1707.906027014827,Y,None,nogo,None,1,,,,,,,,,,,,,,,,,,,49,001,21,w,Psychologie,2023-01-23_09h05.51.877,00_bat_bachelor,2022.2.4,59.967987951073965,
,,,,,,,,,,,,1,0,1,0,147,0,147,0,,,,,,,147,,,0.2,1708.907169804368,X,l,go,l,1,0.18731227790897265,,,,,,,,,,,,,,,,,,49,001,21,w,Psychologie,2023-01-23_09h05.51.877,00_bat_bachelor,2022.2.4,59.967987951073965,
,,,,,,,,,,,,1,0,1,0,148,0,148,0,,,,,,,148,,,0.2,1709.4071816831733,Y,d,go,d,1,0.5344395707003287,,,,,,,,,,,,,,,,,,49,001,21,w,Psychologie,2023-01-23_09h05.51.877,00_bat_bachelor,2022.2.4,59.967987951073965,
,,,,,,,,,,,,1,0,1,0,149,0,149,0,,,,,,,149,,,0.2,1710.2581666785454,X,l,go,l,1,0.2121816474160596,,,,,,,,,,,,,,,,,,49,001,21,w,Psychologie,2023-01-23_09h05.51.877,00_bat_bachelor,2022.2.4,59.967987951073965,
,,,,,,,,,,,,1,0,1,0,150,0,150,0,,,,,,,150,,,0.2,1710.7750115515319,X,None,nogo,None,1,,,,,,,,,,,,,,,,,,,49,001,21,w,Psychologie,2023-01-23_09h05.51.877,00_bat_bachelor,2022.2.4,59.967987951073965,
,,,,,,,,,,,,1,0,1,0,151,0,151,0,,,,,,,151,,,0.2,1711.77597640142,Y,d,go,d,1,0.13378541217309703,,,,,,,,,,,,,,,,,,49,001,21,w,Psychologie,2023-01-23_09h05.51.877,00_bat_bachelor,2022.2.4,59.967987951073965,
,,,,,,,,,,,,1,0,1,0,152,0,152,0,,,,,,,152,,,0.2,1712.225988692347,X,l,go,l,1,0.2441244817570123,,,,,,,,,,,,,,,,,,49,001,21,w,Psychologie,2023-01-23_09h05.51.877,00_bat_bachelor,2022.2.4,59.967987951073965,
,,,,,,,,,,,,1,0,1,0,153,0,153,0,,,,,,,153,,,0.2,1712.776638705414,X,None,nogo,None,1,,,,,,,,,,,,,,,,,,,49,001,21,w,Psychologie,2023-01-23_09h05.51.877,00_bat_bachelor,2022.2.4,59.967987951073965,
,,,,,,,,,,,,1,0,1,0,154,0,154,0,,,,,,,154,,,0.2,1713.777519191543,Y,d,go,d,1,0.24534581686714318,,,,,,,,,,,,,,,,,,49,001,21,w,Psychologie,2023-01-23_09h05.51.877,00_bat_bachelor,2022.2.4,59.967987951073965,
,,,,,,,,,,,,1,0,1,0,155,0,155,0,,,,,,,155,,,0.2,1714.3275733249552,X,l,go,l,1,0.14270081908045995,,,,,,,,,,,,,,,,,,49,001,21,w,Psychologie,2023-01-23_09h05.51.877,00_bat_bachelor,2022.2.4,59.967987951073965,
,,,,,,,,,,,,1,0,1,0,156,0,156,0,,,,,,,156,,,0.2,1714.777950222473,Y,d,go,d,1,0.3480257237957858,,,,,,,,,,,,,,,,,,49,001,21,w,Psychologie,2023-01-23_09h05.51.877,00_bat_bachelor,2022.2.4,59.967987951073965,
,,,,,,,,,,,,1,0,1,0,157,0,157,0,,,,,,,157,,,0.2,1715.4284646232213,Y,None,nogo,l,0,0.32166107938621735,,,,,,,,,,,,,,,,,,49,001,21,w,Psychologie,2023-01-23_09h05.51.877,00_bat_bachelor,2022.2.4,59.967987951073965,
,,,,,,,,,,,,1,0,1,0,158,0,158,0,,,,,,,158,,,0.2,1716.0626066365185,X,l,go,l,1,0.5513928074807382,,,,,,,,,,,,,,,,,,49,001,21,w,Psychologie,2023-01-23_09h05.51.877,00_bat_bachelor,2022.2.4,59.967987951073965,
,,,,,,,,,,,,1,0,1,0,159,0,159,0,,,,,,,159,,,0.2,1716.9295877763702,Y,d,go,d,1,0.26042511152775205,,,,,,,,,,,,,,,,,,49,001,21,w,Psychologie,2023-01-23_09h05.51.877,00_bat_bachelor,2022.2.4,59.967987951073965,
,,,,,,,,,,,,1,0,1,0,160,0,160,0,,,,,,,160,,,0.2,1717.4970305411352,X,l,go,l,1,0.39770143241469214,,,,,,,,,,,,,,,,,,49,001,21,w,Psychologie,2023-01-23_09h05.51.877,00_bat_bachelor,2022.2.4,59.967987951073965,
,,,,,,,,,,,,1,0,1,0,161,0,161,0,,,,,,,161,,,0.2,1718.1973908325685,Y,d,go,d,1,0.4165014597598429,,,,,,,,,,,,,,,,,,49,001,21,w,Psychologie,2023-01-23_09h05.51.877,00_bat_bachelor,2022.2.4,59.967987951073965,
,,,,,,,,,,,,1,0,1,0,162,0,162,0,,,,,,,162,,,0.2,1718.9145923606193,X,l,go,l,1,0.4189858270098057,,,,,,,,,,,,,,,,,,49,001,21,w,Psychologie,2023-01-23_09h05.51.877,00_bat_bachelor,2022.2.4,59.967987951073965,
,,,,,,,,,,,,1,0,1,0,163,0,163,0,,,,,,,163,,,0.2,1719.6483248218055,X,None,nogo,None,1,,,,,,,,,,,,,,,,,,,49,001,21,w,Psychologie,2023-01-23_09h05.51.877,00_bat_bachelor,2022.2.4,59.967987951073965,
,,,,,,,,,,,,1,0,1,0,164,0,164,0,,,,,,,164,,,0.2,1720.649460338609,Y,d,go,d,1,0.2687548206132533,,,,,,,,,,,,,,,,,,49,001,21,w,Psychologie,2023-01-23_09h05.51.877,00_bat_bachelor,2022.2.4,59.967987951073965,
,,,,,,,,,,,,1,0,1,0,165,0,165,0,,,,,,,165,,,0.2,1721.2331707633998,X,l,go,l,1,0.1817830577457471,,,,,,,,,,,,,,,,,,49,001,21,w,Psychologie,2023-01-23_09h05.51.877,00_bat_bachelor,2022.2.4,59.967987951073965,
,,,,,,,,,,,,1,0,1,0,166,0,166,0,,,,,,,166,,,0.2,1721.7168868609265,Y,d,go,d,1,0.35286451871218105,,,,,,,,,,,,,,,,,,49,001,21,w,Psychologie,2023-01-23_09h05.51.877,00_bat_bachelor,2022.2.4,59.967987951073965,
,,,,,,,,,,,,1,0,1,0,167,0,167,0,,,,,,,167,,,0.2,1722.383999588848,Y,None,nogo,l,0,0.2782758041590796,,,,,,,,,,,,,,,,,,49,001,21,w,Psychologie,2023-01-23_09h05.51.877,00_bat_bachelor,2022.2.4,59.967987951073965,
,,,,,,,,,,,,1,0,1,0,168,0,168,0,,,,,,,168,,,0.2,1722.967866619927,X,l,go,l,1,0.36597581051103134,,,,,,,,,,,,,,,,,,49,001,21,w,Psychologie,2023-01-23_09h05.51.877,00_bat_bachelor,2022.2.4,59.967987951073965,
,,,,,,,,,,,,1,0,1,0,169,0,169,0,,,,,,,169,,,0.2,1723.6348290445999,Y,d,go,d,1,0.48299319283898967,,,,,,,,,,,,,,,,,,49,001,21,w,Psychologie,2023-01-23_09h05.51.877,00_bat_bachelor,2022.2.4,59.967987951073965,
,,,,,,,,,,,,1,0,1,0,170,0,170,0,,,,,,,170,,,0.2,1724.4189184275178,Y,None,nogo,l,0,0.19518380451029316,,,,,,,,,,,,,,,,,,49,001,21,w,Psychologie,2023-01-23_09h05.51.877,00_bat_bachelor,2022.2.4,59.967987951073965,
,,,,,,,,,,,,1,0,1,0,171,0,171,0,,,,,,,171,,,0.2,1724.9193264281112,X,l,go,l,1,0.4151836396614499,,,,,,,,,,,,,,,,,,49,001,21,w,Psychologie,2023-01-23_09h05.51.877,00_bat_bachelor,2022.2.4,59.967987951073965,
,,,,,,,,,,,,1,0,1,0,172,0,172,0,,,,,,,172,,,0.2,1725.636621047206,Y,d,go,None,0,,,,,,,,,,,,,,,,,,,49,001,21,w,Psychologie,2023-01-23_09h05.51.877,00_bat_bachelor,2022.2.4,59.967987951073965,
,,,,,,,,,,,,1,0,1,0,173,0,173,0,,,,,,,173,,,0.2,1726.6373027451677,X,l,go,l,1,0.37727231179053433,,,,,,,,,,,,,,,,,,49,001,21,w,Psychologie,2023-01-23_09h05.51.877,00_bat_bachelor,2022.2.4,59.967987951073965,
,,,,,,,,,,,,1,0,1,0,174,0,174,0,,,,,,,174,,,0.2,1727.3209784062715,X,None,nogo,None,1,,,,,1728.1217693892404,,,,,,,,,,,,,,49,001,21,w,Psychologie,2023-01-23_09h05.51.877,00_bat_bachelor,2022.2.4,59.967987951073965,
,,,,,,,,,,,,1,0,1,0,175,0,175,0,,,,,,,175,,,0.2,1728.3217168315882,Y,d,go,d,1,0.3085512421354224,,,,,,,,,,,,,,,,,,49,001,21,w,Psychologie,2023-01-23_09h05.51.877,00_bat_bachelor,2022.2.4,59.967987951073965,
,,,,,,,,,,,,1,0,1,0,176,0,176,0,,,,,,,176,,,0.2,1728.9391048811221,X,l,go,l,1,0.33231709488575234,,,,,,,,,,,,,,,,,,49,001,21,w,Psychologie,2023-01-23_09h05.51.877,00_bat_bachelor,2022.2.4,59.967987951073965,
,,,,,,,,,,,,1,0,1,0,177,0,177,0,,,,,,,177,,,0.2,1729.5728745302417,Y,d,go,d,1,0.32147732154328423,,,,,,,,,,,,,,,,,,49,001,21,w,Psychologie,2023-01-23_09h05.51.877,00_bat_bachelor,2022.2.4,59.967987951073965,
,,,,,,,,,,,,1,0,1,0,178,0,178,0,,,,,,,178,,,0.2,1730.2064061184087,X,l,go,l,1,0.4554096375655945,,,,,,,,,,,,,,,,,,49,001,21,w,Psychologie,2023-01-23_09h05.51.877,00_bat_bachelor,2022.2.4,59.967987951073965,
,,,,,,,,,,,,1,0,1,0,179,0,179,0,,,,,,,179,,,0.2,1730.9739762045715,Y,d,go,d,1,0.28003823096480573,,,,,,,,,,,,,,,,,,49,001,21,w,Psychologie,2023-01-23_09h05.51.877,00_bat_bachelor,2022.2.4,59.967987951073965,
,,,,,,,,,,,,1,0,1,0,180,0,180,0,,,,,,,180,,,0.2,1731.5577559627964,X,l,go,l,1,0.4005314971369671,,,,,,,,,,,,,,,,,,49,001,21,w,Psychologie,2023-01-23_09h05.51.877,00_bat_bachelor,2022.2.4,59.967987951073965,
,,,,,,,,,,,,1,0,1,0,181,0,181,0,,,,,,,181,,,0.2,1732.2581632846009,X,None,nogo,d,0,0.2913613989504711,,,,,,,,,,,,,,,,,,49,001,21,w,Psychologie,2023-01-23_09h05.51.877,00_bat_bachelor,2022.2.4,59.967987951073965,
,,,,,,,,,,,,1,0,1,0,182,0,182,0,,,,,,,182,,,0.2,1732.8587983400703,Y,d,go,d,1,0.6035577318422156,,,,,,,,,,,,,,,,,,49,001,21,w,Psychologie,2023-01-23_09h05.51.877,00_bat_bachelor,2022.2.4,59.967987951073965,
,,,,,,,,,,,,1,0,1,0,183,0,183,0,,,,,,,183,,,0.2,1733.7761422198432,X,l,go,l,1,0.31041403272422485,,,,,,,,,,,,,,,,,,49,001,21,w,Psychologie,2023-01-23_09h05.51.877,00_bat_bachelor,2022.2.4,59.967987951073965,
,,,,,,,,,,,,1,0,1,0,184,0,184,0,,,,,,,184,,,0.2,1734.3931040869393,Y,d,go,d,1,0.38122625693597456,,,,,,,,,,,,,,,,,,49,001,21,w,Psychologie,2023-01-23_09h05.51.877,00_bat_bachelor,2022.2.4,59.967987951073965,
,,,,,,,,,,,,1,0,1,0,185,0,185,0,,,,,,,185,,,0.2,1735.0768393844937,X,l,go,l,1,0.32097259353633945,,,,,,,,,,,,,,,,,,49,001,21,w,Psychologie,2023-01-23_09h05.51.877,00_bat_bachelor,2022.2.4,59.967987951073965,
,,,,,,,,,,,,1,0,1,0,186,0,186,0,,,,,,,186,,,0.2,1735.7109367916655,Y,d,go,d,1,0.5343998130666705,,,,,,,,,,,,,,,,,,49,001,21,w,Psychologie,2023-01-23_09h05.51.877,00_bat_bachelor,2022.2.4,59.967987951073965,
,,,,,,,,,,,,1,0,1,0,187,0,187,0,,,,,,,187,,,0.2,1736.5615591198434,X,l,go,l,1,0.42113952711235925,,,,,,,,,,,,,,,,,,49,001,21,w,Psychologie,2023-01-23_09h05.51.877,00_bat_bachelor,2022.2.4,59.967987951073965,
,,,,,,,,,,,,1,0,1,0,188,0,188,0,,,,,,,188,,,0.2,1737.29550103588,Y,d,go,d,1,0.3587578606180841,,,,,,,,,,,,,,,,,,49,001,21,w,Psychologie,2023-01-23_09h05.51.877,00_bat_bachelor,2022.2.4,59.967987951073965,
,,,,,,,,,,,,1,0,1,0,189,0,189,0,,,,,,,189,,,0.2,1737.9626738851011,Y,None,nogo,l,0,0.2676338492861987,,,,,,,,,,,,,,,,,,49,001,21,w,Psychologie,2023-01-23_09h05.51.877,00_bat_bachelor,2022.2.4,59.967987951073965,
,,,,,,,,,,,,1,0,1,0,190,0,190,0,,,,,,,190,,,0.2,1738.546310127966,X,l,go,l,1,0.32334011213163194,,,,,,,,,,,,,,,,,,49,001,21,w,Psychologie,2023-01-23_09h05.51.877,00_bat_bachelor,2022.2.4,59.967987951073965,
,,,,,,,,,,,,1,0,1,0,191,0,191,0,,,,,,,191,,,0.2,1739.1802198985015,Y,d,go,d,1,0.34524608338881535,,,,,,,,,,,,,,,,,,49,001,21,w,Psychologie,2023-01-23_09h05.51.877,00_bat_bachelor,2022.2.4,59.967987951073965,
,,,,,,,,,,,,1,0,1,0,192,0,192,0,,,,,,,192,,,0.2,1739.8306620567205,Y,None,nogo,d,0,0.560418760003472,,,,,,,,,,,,,,,,,,49,001,21,w,Psychologie,2023-01-23_09h05.51.877,00_bat_bachelor,2022.2.4,59.967987951073965,
,,,,,,,,,,,,1,0,1,0,193,0,193,0,,,,,,,193,,,0.2,1740.697743075505,X,l,go,l,1,0.42888111413060415,,,,,,,,,,,,,,,,,,49,001,21,w,Psychologie,2023-01-23_09h05.51.877,00_bat_bachelor,2022.2.4,59.967987951073965,
,,,,,,,,,,,,1,0,1,0,194,0,194,0,,,,,,,194,,,0.2,1741.431844022076,Y,d,go,d,1,0.4628118301508266,,,,,,,,,,,,,,,,,,49,001,21,w,Psychologie,2023-01-23_09h05.51.877,00_bat_bachelor,2022.2.4,59.967987951073965,
,,,,,,,,,,,,1,0,1,0,195,0,195,0,,,,,,,195,,,0.2,1742.1992128958245,X,l,go,l,1,0.5122649929918452,,,,,,,,,,,,,,,,,,49,001,21,w,Psychologie,2023-01-23_09h05.51.877,00_bat_bachelor,2022.2.4,59.967987951073965,
,,,,,,,,,,,,1,0,1,0,196,0,196,0,,,,,,,196,,,0.2,1743.0160756597465,Y,d,go,d,1,0.5272172571650344,,,,,,,,,,,,,,,,,,49,001,21,w,Psychologie,2023-01-23_09h05.51.877,00_bat_bachelor,2022.2.4,59.967987951073965,
