loop_instruction.thisRepN,loop_instruction.thisTrialN,loop_instruction.thisN,loop_instruction.thisIndex,loop_rsi_practice.thisRepN,loop_rsi_practice.thisTrialN,loop_rsi_practice.thisN,loop_rsi_practice.thisIndex,loop_practice.thisRepN,loop_practice.thisTrialN,loop_practice.thisN,loop_practice.thisIndex,loop_exp.thisRepN,loop_exp.thisTrialN,loop_exp.thisN,loop_exp.thisIndex,loop_trials.thisRepN,loop_trials.thisTrialN,loop_trials.thisN,loop_trials.thisIndex,map_condition,map_x_key,map_y_key,key_resp_welcome.started,key_resp_welcome.keys,key_resp_welcome.rt,index,text_empty_rsi_practice.started,text_empty_rsi_practice.stopped,rsi,stimulus.started,stimulus,correct,trial_type,key_resp_trial.keys,key_resp_trial.corr,key_resp_trial.rt,stimulus.stopped,key_resp_instruction_rsi.started,key_resp_instruction_rsi.keys,key_resp_instruction_rsi.rt,key_resp_instruction_rsi.stopped,key_resp_instruction_final.started,key_resp_instruction_final.keys,key_resp_instruction_final.rt,key_resp_break.started,key_resp_break.keys,key_resp_break.rt,key_resp_break.stopped,key_resp_end_screen.started,image_end_screen.started,key_resp_end_screen.stopped,image_end_screen.stopped,key_resp_end_screen.keys,participant,session,date,expName,psychopyVersion,frameRate,
,,,,0,0,0,0,0,0,0,0,,,,,,,,,0,d,l,3630.036801490234,j,22.7183401590446,0,3652.7839740935597,3653.803012657474,1,3653.803012657474,X,d,go,None,0,,,,,,,,,,,,,,,,,,,4,001,2022-12-16_11h01.16.617,00_bat_bachelor,2022.2.4,59.98039911517736,
,,,,0,0,0,0,1,0,1,0,,,,,,,,,,,,,,,1,3655.199239950787,3656.200304194237,1,3656.200304194237,Y,l,go,None,0,,,,,,,,,,,,,,,,,,,4,001,2022-12-16_11h01.16.617,00_bat_bachelor,2022.2.4,59.98039911517736,
,,,,0,0,0,0,2,0,2,0,,,,,,,,,,,,,,,2,3657.601092946512,3658.6024970690924,1,3658.6024970690924,X,d,go,d,1,0.4685978562774835,,,,,,,,,,,,,,,,,,4,001,2022-12-16_11h01.16.617,00_bat_bachelor,2022.2.4,59.98039911517736,
,,,,0,0,0,0,3,0,3,0,,,,,,,,,,,,,,,3,3659.7866393082513,3660.7874732484634,1,3660.7874732484634,Y,l,go,l,1,0.5707206219667569,,,,,,,,,,,,,,,,,,4,001,2022-12-16_11h01.16.617,00_bat_bachelor,2022.2.4,59.98039911517736,
,,,,0,0,0,0,4,0,4,0,,,,,,,,,,,,,,,4,3662.088482025196,3663.089184086479,1,3663.089184086479,X,d,go,d,1,0.36616769632382784,,,,,,,,,,,,,,,,,,4,001,2022-12-16_11h01.16.617,00_bat_bachelor,2022.2.4,59.98039911517736,
,,,,0,0,0,0,5,0,5,0,,,,,,,,,,,,,,,5,3664.1733558044652,3665.174490351026,1,3665.174490351026,Y,l,go,l,1,0.44156073914200533,,,,,,,,,,,,,,,,,,4,001,2022-12-16_11h01.16.617,00_bat_bachelor,2022.2.4,59.98039911517736,
,,,,0,0,0,0,6,0,6,0,,,,,,,,,,,,,,,6,3666.3249661332957,3667.3259353463654,1,3667.3259353463654,X,d,go,d,1,0.3527431984693976,,,,,,,,,,,,,,,,,,4,001,2022-12-16_11h01.16.617,00_bat_bachelor,2022.2.4,59.98039911517736,
,,,,0,0,0,0,7,0,7,0,,,,,,,,,,,,,,,7,3668.4098985792953,3669.410890095416,1,3669.410890095416,Y,l,go,l,1,0.3319296025292715,,,,,,,,,,,,,,,,,,4,001,2022-12-16_11h01.16.617,00_bat_bachelor,2022.2.4,59.98039911517736,
,,,,0,0,0,0,8,0,8,0,,,,,,,,,,,,,,,8,3670.46147632628,3671.4622734179575,1,3671.4622734179575,Y,None,nogo,None,1,,3672.262958315594,,,,,,,,,,,,,,,,,4,001,2022-12-16_11h01.16.617,00_bat_bachelor,2022.2.4,59.98039911517736,
,,,,0,0,0,0,9,0,9,0,,,,,,,,,,,,,,,9,3672.8635106555303,3673.864205928927,1,3673.864205928927,X,d,go,d,1,0.4064140383852646,,,,,,,,,,,,,,,,,,4,001,2022-12-16_11h01.16.617,00_bat_bachelor,2022.2.4,59.98039911517736,
,,,,0,0,0,0,10,0,10,0,,,,,,,,,,,,,,,10,3674.9983035135083,3675.9989730899106,1,3675.9989730899106,Y,l,go,l,1,0.49547885202628095,,,,,,,,,,,,,,,,,,4,001,2022-12-16_11h01.16.617,00_bat_bachelor,2022.2.4,59.98039911517736,
,,,,0,0,0,0,11,0,11,0,,,,,,,,,,,,,,,11,3677.216614028235,3678.217550271569,1,3678.217550271569,Y,None,nogo,None,1,,3679.0181381994043,,,,,,,,,,,,,,,,,4,001,2022-12-16_11h01.16.617,00_bat_bachelor,2022.2.4,59.98039911517736,
,,,,0,0,0,0,12,0,12,0,,,,,,,,,,,,,,,12,3679.6186236301874,3680.619195267107,1,3680.619195267107,X,d,go,d,1,0.2439430929662194,,,,,,,,,,,,,,,,,,4,001,2022-12-16_11h01.16.617,00_bat_bachelor,2022.2.4,59.98039911517736,
,,,,0,0,0,0,13,0,13,0,,,,,,,,,,,,,,,13,3681.5867952356784,3682.5873474786495,1,3682.5873474786495,Y,l,go,l,1,0.5308049468876561,,,,,,,,,,,,,,,,,,4,001,2022-12-16_11h01.16.617,00_bat_bachelor,2022.2.4,59.98039911517736,
,,,,0,0,0,0,14,0,14,0,,,,,,,,,,,,,,,14,3683.8385792374174,3684.839352571493,1,3684.839352571493,Y,None,nogo,l,0,0.42329599415825214,,,,,,,,,,,,,,,,,,4,001,2022-12-16_11h01.16.617,00_bat_bachelor,2022.2.4,59.98039911517736,
,,,,1,0,1,0,0,0,0,0,,,,,,,,,,,,,,,0,3701.501644122807,3701.7018998321437,0.2,3701.7018998321437,X,d,go,None,0,,,3686.427967445299,j,15.04686896246858,,,,,,,,,,,,,,4,001,2022-12-16_11h01.16.617,00_bat_bachelor,2022.2.4,59.98039911517736,
,,,,1,0,1,0,1,0,1,0,,,,,,,,,,,,,,,1,3703.102953796799,3703.3030703544937,0.2,3703.3030703544937,Y,l,go,l,1,0.5199845727620414,,,,,,,,,,,,,,,,,,4,001,2022-12-16_11h01.16.617,00_bat_bachelor,2022.2.4,59.98039911517736,
,,,,1,0,1,0,2,0,2,0,,,,,,,,,,,,,,,2,3704.5369086418505,3704.7372298058035,0.2,3704.7372298058035,X,d,go,d,1,0.4151248347188812,,,,,,,,,,,,,,,,,,4,001,2022-12-16_11h01.16.617,00_bat_bachelor,2022.2.4,59.98039911517736,
,,,,1,0,1,0,3,0,3,0,,,,,,,,,,,,,,,3,3705.8545719801914,3706.0549430835817,0.2,3706.0549430835817,Y,l,go,l,1,0.3616144797997549,,,,,,,,,,,,,,,,,,4,001,2022-12-16_11h01.16.617,00_bat_bachelor,2022.2.4,59.98039911517736,
,,,,1,0,1,0,4,0,4,0,,,,,,,,,,,,,,,4,3707.122458785423,3707.3223188580014,0.2,3707.3223188580014,Y,None,nogo,None,1,,3708.123075998141,,,,,,,,,,,,,,,,,4,001,2022-12-16_11h01.16.617,00_bat_bachelor,2022.2.4,59.98039911517736,
,,,,1,0,1,0,5,0,5,0,,,,,,,,,,,,,,,5,3708.7236884593294,3708.9236096228997,0.2,3708.9236096228997,X,d,go,d,1,0.32461759544094093,,,,,,,,,,,,,,,,,,4,001,2022-12-16_11h01.16.617,00_bat_bachelor,2022.2.4,59.98039911517736,
,,,,1,0,1,0,6,0,6,0,,,,,,,,,,,,,,,6,3709.957956807717,3710.1578348197218,0.2,3710.1578348197218,Y,l,go,l,1,0.4653154288389487,,,,,,,,,,,,,,,,,,4,001,2022-12-16_11h01.16.617,00_bat_bachelor,2022.2.4,59.98039911517736,
,,,,1,0,1,0,7,0,7,0,,,,,,,,,,,,,,,7,3711.325418982233,3711.5255689944897,0.2,3711.5255689944897,Y,None,nogo,l,0,0.39431172361946665,,,,,,,,,,,,,,,,,,4,001,2022-12-16_11h01.16.617,00_bat_bachelor,2022.2.4,59.98039911517736,
,,,,1,0,1,0,8,0,8,0,,,,,,,,,,,,,,,8,3713.026999298905,3713.2270664020034,0.2,3713.2270664020034,X,d,go,None,0,,,,,,,,,,,,,,,,,,,4,001,2022-12-16_11h01.16.617,00_bat_bachelor,2022.2.4,59.98039911517736,
,,,,1,0,1,0,9,0,9,0,,,,,,,,,,,,,,,9,3714.628228972826,3714.8280216514104,0.2,3714.8280216514104,Y,l,go,l,1,0.5645077674416825,,,,,,,,,,,,,,,,,,4,001,2022-12-16_11h01.16.617,00_bat_bachelor,2022.2.4,59.98039911517736,
,,,,1,0,1,0,10,0,10,0,,,,,,,,,,,,,,,10,3716.0959608203266,3716.296231559987,0.2,3716.296231559987,X,d,go,d,1,0.4083224038768094,,,,,,,,,,,,,,,,,,4,001,2022-12-16_11h01.16.617,00_bat_bachelor,2022.2.4,59.98039911517736,
,,,,1,0,1,0,11,0,11,0,,,,,,,,,,,,,,,11,3717.413609613199,3717.6135094433994,0.2,3717.6135094433994,X,None,nogo,None,1,,,,,,,,,,,,,,,,,,,4,001,2022-12-16_11h01.16.617,00_bat_bachelor,2022.2.4,59.98039911517736,
,,,,1,0,1,0,12,0,12,0,,,,,,,,,,,,,,,12,3719.014624983887,3719.214950511465,0.2,3719.214950511465,Y,l,go,l,1,0.4323267907893751,,,,,,,,,,,,,,,,,,4,001,2022-12-16_11h01.16.617,00_bat_bachelor,2022.2.4,59.98039911517736,
,,,,1,0,1,0,13,0,13,0,,,,,,,,,,,,,,,13,3720.3490519748448,3720.5494351994566,0.2,3720.5494351994566,X,d,go,d,1,0.47498283215099946,,,,,,,,,,,,,,,,,,4,001,2022-12-16_11h01.16.617,00_bat_bachelor,2022.2.4,59.98039911517736,
,,,,1,0,1,0,14,0,14,0,,,,,,,,,,,,,,,14,3721.733539135559,3721.9336964205577,0.2,3721.9336964205577,X,None,nogo,None,1,,,,,,,,,,,,,,,,,,,4,001,2022-12-16_11h01.16.617,00_bat_bachelor,2022.2.4,59.98039911517736,
,,,,,,,,,,,,,,,,,,,,,,,,,,,,,,,,,,,,,,3723.3735014530976,None,,3723.3735014530976,3723.3735014530976,space,10.78888665168779,,,,,,,,,,4,001,2022-12-16_11h01.16.617,00_bat_bachelor,2022.2.4,59.98039911517736,
,,,,,,,,,,,,0,0,0,0,0,0,0,0,,,,,,,0,,,1,3735.1939463698945,X,d,go,d,1,0.4380431599711301,,,,,,,,,,,,,,,,,,4,001,2022-12-16_11h01.16.617,00_bat_bachelor,2022.2.4,59.98039911517736,
,,,,,,,,,,,,0,0,0,0,1,0,1,0,,,,,,,1,,,1,3736.744810904056,Y,l,go,l,1,0.3747306137229316,,,,,,,,,,,,,,,,,,4,001,2022-12-16_11h01.16.617,00_bat_bachelor,2022.2.4,59.98039911517736,
,,,,,,,,,,,,0,0,0,0,2,0,2,0,,,,,,,2,,,1,3738.229538646832,X,d,go,d,1,0.41131780071009416,,,,,,,,,,,,,,,,,,4,001,2022-12-16_11h01.16.617,00_bat_bachelor,2022.2.4,59.98039911517736,
,,,,,,,,,,,,0,0,0,0,3,0,3,0,,,,,,,3,,,1,3739.747332118626,X,None,nogo,None,1,,3740.5478982282657,,,,,,,,,,,,,,,,,4,001,2022-12-16_11h01.16.617,00_bat_bachelor,2022.2.4,59.98039911517736,
,,,,,,,,,,,,0,0,0,0,4,0,4,0,,,,,,,4,,,1,3741.548667683557,Y,l,go,l,1,0.3707853977830382,,,,,,,,,,,,,,,,,,4,001,2022-12-16_11h01.16.617,00_bat_bachelor,2022.2.4,59.98039911517736,
,,,,,,,,,,,,0,0,0,0,5,0,5,0,,,,,,,5,,,1,3743.0331486382056,X,d,go,d,1,0.40650664454733487,,,,,,,,,,,,,,,,,,4,001,2022-12-16_11h01.16.617,00_bat_bachelor,2022.2.4,59.98039911517736,
,,,,,,,,,,,,0,0,0,0,6,0,6,0,,,,,,,6,,,1,3744.550748655267,Y,l,go,l,1,0.5366255585831823,,,,,,,,,,,,,,,,,,4,001,2022-12-16_11h01.16.617,00_bat_bachelor,2022.2.4,59.98039911517736,
,,,,,,,,,,,,0,0,0,0,7,0,7,0,,,,,,,7,,,1,3746.2024632266402,X,d,go,d,1,0.453050689669908,,,,,,,,,,,,,,,,,,4,001,2022-12-16_11h01.16.617,00_bat_bachelor,2022.2.4,59.98039911517736,
,,,,,,,,,,,,0,0,0,0,8,0,8,0,,,,,,,8,,,1,3747.7704870501766,Y,l,go,l,1,0.6292040726111736,,,,,,,,,,,,,,,,,,4,001,2022-12-16_11h01.16.617,00_bat_bachelor,2022.2.4,59.98039911517736,
,,,,,,,,,,,,0,0,0,0,9,0,9,0,,,,,,,9,,,1,3749.5051878838276,Y,None,nogo,l,0,0.5105852909182431,,,,,,,,,,,,,,,,,,4,001,2022-12-16_11h01.16.617,00_bat_bachelor,2022.2.4,59.98039911517736,
,,,,,,,,,,,,0,0,0,0,10,0,10,0,,,,,,,10,,,1,3751.1232195134216,X,d,go,d,1,0.6359846852428745,,,,,,,,,,,,,,,,,,4,001,2022-12-16_11h01.16.617,00_bat_bachelor,2022.2.4,59.98039911517736,
,,,,,,,,,,,,0,0,0,0,11,0,11,0,,,,,,,11,,,1,3752.874256847761,Y,l,go,None,0,,3753.674807927091,,,,,,,,,,,,,,,,,4,001,2022-12-16_11h01.16.617,00_bat_bachelor,2022.2.4,59.98039911517736,
,,,,,,,,,,,,0,0,0,0,12,0,12,0,,,,,,,12,,,1,3754.6755235641467,X,d,go,d,1,0.4922293943382101,,,,,,,,,,,,,,,,,,4,001,2022-12-16_11h01.16.617,00_bat_bachelor,2022.2.4,59.98039911517736,
,,,,,,,,,,,,0,0,0,0,13,0,13,0,,,,,,,13,,,1,3756.2765888742724,Y,l,go,l,1,0.5073052877414739,,,,,,,,,,,,,,,,,,4,001,2022-12-16_11h01.16.617,00_bat_bachelor,2022.2.4,59.98039911517736,
,,,,,,,,,,,,0,0,0,0,14,0,14,0,,,,,,,14,,,1,3757.8946937160654,X,d,go,d,1,0.39214105485007167,,,,,,,,,,,,,,,,,,4,001,2022-12-16_11h01.16.617,00_bat_bachelor,2022.2.4,59.98039911517736,
,,,,,,,,,,,,0,0,0,0,15,0,15,0,,,,,,,15,,,1,3759.395882080862,Y,l,go,l,1,0.44460413602064364,,,,,,,,,,,,,,,,,,4,001,2022-12-16_11h01.16.617,00_bat_bachelor,2022.2.4,59.98039911517736,
,,,,,,,,,,,,0,0,0,0,16,0,16,0,,,,,,,16,,,1,3760.947049160779,X,d,go,d,1,0.38185159032582305,,,,,,,,,,,,,,,,,,4,001,2022-12-16_11h01.16.617,00_bat_bachelor,2022.2.4,59.98039911517736,
,,,,,,,,,,,,0,0,0,0,17,0,17,0,,,,,,,17,,,1,3762.431522842686,Y,l,go,l,1,0.38450565352104604,,,,,,,,,,,,,,,,,,4,001,2022-12-16_11h01.16.617,00_bat_bachelor,2022.2.4,59.98039911517736,
,,,,,,,,,,,,0,0,0,0,18,0,18,0,,,,,,,18,,,1,3763.965699360677,X,d,go,d,1,0.43406836823851336,,,,,,,,,,,,,,,,,,4,001,2022-12-16_11h01.16.617,00_bat_bachelor,2022.2.4,59.98039911517736,
,,,,,,,,,,,,0,0,0,0,19,0,19,0,,,,,,,19,,,1,3765.5170177134714,Y,l,go,l,1,0.4501003837794997,,,,,,,,,,,,,,,,,,4,001,2022-12-16_11h01.16.617,00_bat_bachelor,2022.2.4,59.98039911517736,
,,,,,,,,,,,,0,0,0,0,20,0,20,0,,,,,,,20,,,1,3767.0682066115987,X,d,go,d,1,0.30863794356992,,,,,,,,,,,,,,,,,,4,001,2022-12-16_11h01.16.617,00_bat_bachelor,2022.2.4,59.98039911517736,
,,,,,,,,,,,,0,0,0,0,21,0,21,0,,,,,,,21,,,1,3768.4859384106094,Y,l,go,l,1,0.34612452538567595,,,,,,,,,,,,,,,,,,4,001,2022-12-16_11h01.16.617,00_bat_bachelor,2022.2.4,59.98039911517736,
,,,,,,,,,,,,0,0,0,0,22,0,22,0,,,,,,,22,,,1,3769.937085514757,X,d,go,d,1,0.2866830131970346,,,,,,,,,,,,,,,,,,4,001,2022-12-16_11h01.16.617,00_bat_bachelor,2022.2.4,59.98039911517736,
,,,,,,,,,,,,0,0,0,0,23,0,23,0,,,,,,,23,,,1,3771.3380992369493,X,None,nogo,None,1,,,,,,,,,,,,,,,,,,,4,001,2022-12-16_11h01.16.617,00_bat_bachelor,2022.2.4,59.98039911517736,
,,,,,,,,,,,,0,0,0,0,24,0,24,0,,,,,,,24,,,1,3773.1395036504255,Y,l,go,l,1,0.36456963418459054,,,,,,,,,,,,,,,,,,4,001,2022-12-16_11h01.16.617,00_bat_bachelor,2022.2.4,59.98039911517736,
,,,,,,,,,,,,0,0,0,0,25,0,25,0,,,,,,,25,,,1,3774.6070260431734,X,d,go,d,1,0.47978671560122166,,,,,,,,,,,,,,,,,,4,001,2022-12-16_11h01.16.617,00_bat_bachelor,2022.2.4,59.98039911517736,
,,,,,,,,,,,,0,0,0,0,26,0,26,0,,,,,,,26,,,1,3776.191893034571,X,None,nogo,None,1,,,,,,,,,,,,,,,,,,,4,001,2022-12-16_11h01.16.617,00_bat_bachelor,2022.2.4,59.98039911517736,
,,,,,,,,,,,,0,0,0,0,27,0,27,0,,,,,,,27,,,1,3777.9932494480017,Y,l,go,l,1,0.3427800372883212,,,,,,,,,,,,,,,,,,4,001,2022-12-16_11h01.16.617,00_bat_bachelor,2022.2.4,59.98039911517736,
,,,,,,,,,,,,0,0,0,0,28,0,28,0,,,,,,,28,,,1,3779.4442758247606,X,d,go,d,1,0.39683439274085686,,,,,,,,,,,,,,,,,,4,001,2022-12-16_11h01.16.617,00_bat_bachelor,2022.2.4,59.98039911517736,
,,,,,,,,,,,,0,0,0,0,29,0,29,0,,,,,,,29,,,1,3780.9452198256768,X,None,nogo,d,0,0.5582600038178498,,,,,,,,,,,,,,,,,,4,001,2022-12-16_11h01.16.617,00_bat_bachelor,2022.2.4,59.98039911517736,
,,,,,,,,,,,,0,0,0,0,30,0,30,0,,,,,,,30,,,1,3782.6131307763717,Y,l,go,l,1,0.37860358717443887,,,,,,,,,,,,,,,,,,4,001,2022-12-16_11h01.16.617,00_bat_bachelor,2022.2.4,59.98039911517736,
,,,,,,,,,,,,0,0,0,0,31,0,31,0,,,,,,,31,,,1,3784.0978240948607,X,d,go,d,1,0.5259031239547767,,,,,,,,,,,,,,,,,,4,001,2022-12-16_11h01.16.617,00_bat_bachelor,2022.2.4,59.98039911517736,
,,,,,,,,,,,,0,0,0,0,32,0,32,0,,,,,,,32,,,1,3785.7324254375126,Y,l,go,l,1,0.4438545595476171,,,,,,,,,,,,,,,,,,4,001,2022-12-16_11h01.16.617,00_bat_bachelor,2022.2.4,59.98039911517736,
,,,,,,,,,,,,0,0,0,0,33,0,33,0,,,,,,,33,,,1,3787.2838223358267,X,d,go,d,1,0.5237358491285704,,,,,,,,,,,,,,,,,,4,001,2022-12-16_11h01.16.617,00_bat_bachelor,2022.2.4,59.98039911517736,
,,,,,,,,,,,,0,0,0,0,34,0,34,0,,,,,,,34,,,1,3788.9180033144366,Y,l,go,l,1,0.5218851806712337,,,,,,,,,,,,,,,,,,4,001,2022-12-16_11h01.16.617,00_bat_bachelor,2022.2.4,59.98039911517736,
,,,,,,,,,,,,0,0,0,0,35,0,35,0,,,,,,,35,,,1,3790.552834475471,X,d,go,d,1,0.5827473002864281,,,,,,,,,,,,,,,,,,4,001,2022-12-16_11h01.16.617,00_bat_bachelor,2022.2.4,59.98039911517736,
,,,,,,,,,,,,0,0,0,0,36,0,36,0,,,,,,,36,,,1,3792.237439745397,X,None,nogo,None,1,,3793.038022339897,,,,,,,,,,,,,,,,,4,001,2022-12-16_11h01.16.617,00_bat_bachelor,2022.2.4,59.98039911517736,
,,,,,,,,,,,,0,0,0,0,37,0,37,0,,,,,,,37,,,1,3794.0387530072767,Y,l,go,l,1,0.39355632894148584,,,,,,,,,,,,,,,,,,4,001,2022-12-16_11h01.16.617,00_bat_bachelor,2022.2.4,59.98039911517736,
,,,,,,,,,,,,0,0,0,0,38,0,38,0,,,,,,,38,,,1,3795.5399054932495,X,d,go,d,1,0.5081886825355468,,,,,,,,,,,,,,,,,,4,001,2022-12-16_11h01.16.617,00_bat_bachelor,2022.2.4,59.98039911517736,
,,,,,,,,,,,,0,0,0,0,39,0,39,0,,,,,,,39,,,1,3797.1578163954546,Y,l,go,l,1,0.44226183072896674,,,,,,,,,,,,,,,,,,4,001,2022-12-16_11h01.16.617,00_bat_bachelor,2022.2.4,59.98039911517736,
,,,,,,,,,,,,0,0,0,0,40,0,40,0,,,,,,,40,,,1,3798.7090528087865,Y,None,nogo,None,1,,,,,,,,,,,,,,,,,,,4,001,2022-12-16_11h01.16.617,00_bat_bachelor,2022.2.4,59.98039911517736,
,,,,,,,,,,,,0,0,0,0,41,0,41,0,,,,,,,41,,,1,3800.510139646198,X,d,go,d,1,0.36892842628003564,,,,,,,,,,,,,,,,,,4,001,2022-12-16_11h01.16.617,00_bat_bachelor,2022.2.4,59.98039911517736,
,,,,,,,,,,,,0,0,0,0,42,0,42,0,,,,,,,42,,,1,3801.994615267511,Y,l,go,l,1,0.42144435600494035,,,,,,,,,,,,,,,,,,4,001,2022-12-16_11h01.16.617,00_bat_bachelor,2022.2.4,59.98039911517736,
,,,,,,,,,,,,0,0,0,0,43,0,43,0,,,,,,,43,,,1,3803.529451180075,Y,None,nogo,l,0,0.4707782220066292,,,,,,,,,,,,,,,,,,4,001,2022-12-16_11h01.16.617,00_bat_bachelor,2022.2.4,59.98039911517736,
,,,,,,,,,,,,0,0,0,0,44,0,44,0,,,,,,,44,,,1,3805.11373780726,X,d,go,d,1,0.4213469013629947,,,,,,,,,,,,,,,,,,4,001,2022-12-16_11h01.16.617,00_bat_bachelor,2022.2.4,59.98039911517736,
,,,,,,,,,,,,0,0,0,0,45,0,45,0,,,,,,,45,,,1,3806.6483705681167,Y,l,go,l,1,0.42450326804828364,,,,,,,,,,,,,,,,,,4,001,2022-12-16_11h01.16.617,00_bat_bachelor,2022.2.4,59.98039911517736,
,,,,,,,,,,,,0,0,0,0,46,0,46,0,,,,,,,46,,,1,3808.1826615104656,X,d,go,d,1,0.601332530437503,,,,,,,,,,,,,,,,,,4,001,2022-12-16_11h01.16.617,00_bat_bachelor,2022.2.4,59.98039911517736,
,,,,,,,,,,,,0,0,0,0,47,0,47,0,,,,,,,47,,,1,3809.900845479613,Y,l,go,l,1,0.41851053496066015,,,,,,,,,,,,,,,,,,4,001,2022-12-16_11h01.16.617,00_bat_bachelor,2022.2.4,59.98039911517736,
,,,,,,,,,,,,0,0,0,0,48,0,48,0,,,,,,,48,,,1,3811.4352721796604,Y,None,nogo,None,1,,,,,,,,,,,,,,,,,,,4,001,2022-12-16_11h01.16.617,00_bat_bachelor,2022.2.4,59.98039911517736,
,,,,,,,,,,,,0,0,0,0,49,0,49,0,,,,,,,49,,,1,3813.2373883514083,X,d,go,d,1,0.34607797987700906,,,,,,,,,,,,,,,,,,4,001,2022-12-16_11h01.16.617,00_bat_bachelor,2022.2.4,59.98039911517736,
,,,,,,,,,,,,0,0,0,0,50,0,50,0,,,,,,,50,,,1,3814.7052806839056,Y,l,go,l,1,0.3493885285424767,,,,,,,,,,,,,,,,,,4,001,2022-12-16_11h01.16.617,00_bat_bachelor,2022.2.4,59.98039911517736,
,,,,,,,,,,,,0,0,0,0,51,0,51,0,,,,,,,51,,,1,3816.173108046656,Y,None,nogo,None,1,,3816.9738933080225,,,,,,,,,,,,,,,,,4,001,2022-12-16_11h01.16.617,00_bat_bachelor,2022.2.4,59.98039911517736,
,,,,,,,,,,,,0,0,0,0,52,0,52,0,,,,,,,52,,,1,3817.9741546416044,Y,None,nogo,None,1,,3818.77457384202,,,,,,,,,,,,,,,,,4,001,2022-12-16_11h01.16.617,00_bat_bachelor,2022.2.4,59.98039911517736,
,,,,,,,,,,,,0,0,0,0,53,0,53,0,,,,,,,53,,,1,3819.775284630581,X,d,go,d,1,0.28686871034733485,,,,,,,,,,,,,,,,,,4,001,2022-12-16_11h01.16.617,00_bat_bachelor,2022.2.4,59.98039911517736,
,,,,,,,,,,,,0,0,0,0,54,0,54,0,,,,,,,54,,,1,3821.1930140053446,Y,l,go,l,1,0.5348330720153172,,,,,,,,,,,,,,,,,,4,001,2022-12-16_11h01.16.617,00_bat_bachelor,2022.2.4,59.98039911517736,
,,,,,,,,,,,,0,0,0,0,55,0,55,0,,,,,,,55,,,1,3822.844476455255,X,d,go,d,1,0.41847271674487274,,,,,,,,,,,,,,,,,,4,001,2022-12-16_11h01.16.617,00_bat_bachelor,2022.2.4,59.98039911517736,
,,,,,,,,,,,,0,0,0,0,56,0,56,0,,,,,,,56,,,1,3824.395484504712,X,None,nogo,None,1,,3825.1960278264596,,,,,,,,,,,,,,,,,4,001,2022-12-16_11h01.16.617,00_bat_bachelor,2022.2.4,59.98039911517736,
,,,,,,,,,,,,0,0,0,0,57,0,57,0,,,,,,,57,,,1,3826.196861766657,Y,l,go,l,1,0.42802375632163603,,,,,,,,,,,,,,,,,,4,001,2022-12-16_11h01.16.617,00_bat_bachelor,2022.2.4,59.98039911517736,
,,,,,,,,,,,,0,0,0,0,58,0,58,0,,,,,,,58,,,1,3827.7311677393154,X,d,go,d,1,0.4769105916057015,,,,,,,,,,,,,,,,,,4,001,2022-12-16_11h01.16.617,00_bat_bachelor,2022.2.4,59.98039911517736,
,,,,,,,,,,,,0,0,0,0,59,0,59,0,,,,,,,59,,,1,3829.315896548753,Y,l,go,l,1,0.6351265025878092,,,,,,,,,,,,,,,,,,4,001,2022-12-16_11h01.16.617,00_bat_bachelor,2022.2.4,59.98039911517736,
,,,,,,,,,,,,0,0,0,0,60,0,60,0,,,,,,,60,,,1,3831.067188913643,Y,None,nogo,None,1,,3831.8678592658107,,,,,,,,,,,,,,,,,4,001,2022-12-16_11h01.16.617,00_bat_bachelor,2022.2.4,59.98039911517736,
,,,,,,,,,,,,0,0,0,0,61,0,61,0,,,,,,,61,,,1,3832.868329084449,X,d,go,d,1,0.29901417666405905,,,,,,,,,,,,,,,,,,4,001,2022-12-16_11h01.16.617,00_bat_bachelor,2022.2.4,59.98039911517736,
,,,,,,,,,,,,0,0,0,0,62,0,62,0,,,,,,,62,,,1,3834.269475655252,Y,l,go,l,1,0.5145208098838339,,,,,,,,,,,,,,,,,,4,001,2022-12-16_11h01.16.617,00_bat_bachelor,2022.2.4,59.98039911517736,
,,,,,,,,,,,,0,0,0,0,63,0,63,0,,,,,,,63,,,1,3835.887420981744,X,d,go,d,1,0.3523252586746821,,,,,,,,,,,,,,,,,,4,001,2022-12-16_11h01.16.617,00_bat_bachelor,2022.2.4,59.98039911517736,
,,,,,,,,,,,,0,0,0,0,64,0,64,0,,,,,,,64,,,1,3837.3550907685712,X,None,nogo,None,1,,,,,,,,,,,,,,,,,,,4,001,2022-12-16_11h01.16.617,00_bat_bachelor,2022.2.4,59.98039911517736,
,,,,,,,,,,,,0,0,0,0,65,0,65,0,,,,,,,65,,,1,3839.156236757568,Y,l,go,l,1,0.33205808750062715,,,,,,,,,,,,,,,,,,4,001,2022-12-16_11h01.16.617,00_bat_bachelor,2022.2.4,59.98039911517736,
,,,,,,,,,,,,0,0,0,0,66,0,66,0,,,,,,,66,,,1,3840.590662875795,X,d,go,d,1,0.35303992601984646,,,,,,,,,,,,,,,,,,4,001,2022-12-16_11h01.16.617,00_bat_bachelor,2022.2.4,59.98039911517736,
,,,,,,,,,,,,0,0,0,0,67,0,67,0,,,,,,,67,,,1,3842.059468178879,Y,l,go,None,0,,3842.86030580393,,,,,,,,,,,,,,,,,4,001,2022-12-16_11h01.16.617,00_bat_bachelor,2022.2.4,59.98039911517736,
,,,,,,,,,,,,0,0,0,0,68,0,68,0,,,,,,,68,,,1,3843.8608784105454,X,d,go,d,1,0.42671030048222747,,,,,,,,,,,,,,,,,,4,001,2022-12-16_11h01.16.617,00_bat_bachelor,2022.2.4,59.98039911517736,
,,,,,,,,,,,,0,0,0,0,69,0,69,0,,,,,,,69,,,1,3845.4119048842695,X,None,nogo,None,1,,3846.2129112367693,,,,,,,,,,,,,,,,,4,001,2022-12-16_11h01.16.617,00_bat_bachelor,2022.2.4,59.98039911517736,
,,,,,,,,,,,,0,0,0,0,70,0,70,0,,,,,,,70,,,1,3847.2132404492004,Y,l,go,l,1,0.3862777764443308,,,,,,,,,,,,,,,,,,4,001,2022-12-16_11h01.16.617,00_bat_bachelor,2022.2.4,59.98039911517736,
,,,,,,,,,,,,0,0,0,0,71,0,71,0,,,,,,,71,,,1,3848.7148952386924,X,d,go,d,1,0.27603524530422874,,,,,,,,,,,,,,,,,,4,001,2022-12-16_11h01.16.617,00_bat_bachelor,2022.2.4,59.98039911517736,
,,,,,,,,,,,,0,0,0,0,72,0,72,0,,,,,,,72,,,1,3850.1320970977977,Y,l,go,l,1,0.33139772321737837,,,,,,,,,,,,,,,,,,4,001,2022-12-16_11h01.16.617,00_bat_bachelor,2022.2.4,59.98039911517736,
,,,,,,,,,,,,0,0,0,0,73,0,73,0,,,,,,,73,,,1,3851.6000068848516,X,d,go,d,1,0.3343344533495838,,,,,,,,,,,,,,,,,,4,001,2022-12-16_11h01.16.617,00_bat_bachelor,2022.2.4,59.98039911517736,
,,,,,,,,,,,,0,0,0,0,74,0,74,0,,,,,,,74,,,1,3853.0679190961673,X,None,nogo,None,1,,3853.868807145511,,,,,,,,,,,,,,,,,4,001,2022-12-16_11h01.16.617,00_bat_bachelor,2022.2.4,59.98039911517736,
,,,,,,,,,,,,0,0,0,0,75,0,75,0,,,,,,,75,,,1,3854.869087873056,Y,l,go,l,1,0.3455548278579954,,,,,,,,,,,,,,,,,,4,001,2022-12-16_11h01.16.617,00_bat_bachelor,2022.2.4,59.98039911517736,
,,,,,,,,,,,,0,0,0,0,76,0,76,0,,,,,,,76,,,1,3856.336824569051,X,d,go,d,1,0.3333788160525728,,,,,,,,,,,,,,,,,,4,001,2022-12-16_11h01.16.617,00_bat_bachelor,2022.2.4,59.98039911517736,
,,,,,,,,,,,,0,0,0,0,77,0,77,0,,,,,,,77,,,1,3857.788226703735,X,None,nogo,None,1,,3858.5884742676135,,,,,,,,,,,,,,,,,4,001,2022-12-16_11h01.16.617,00_bat_bachelor,2022.2.4,59.98039911517736,
,,,,,,,,,,,,0,0,0,0,78,0,78,0,,,,,,,78,,,1,3859.589367359382,Y,l,go,l,1,0.3298447520210175,,,,,,,,,,,,,,,,,,4,001,2022-12-16_11h01.16.617,00_bat_bachelor,2022.2.4,59.98039911517736,
,,,,,,,,,,,,0,0,0,0,79,0,79,0,,,,,,,79,,,1,3861.0399273114454,X,d,go,d,1,0.2881118630612036,,,,,,,,,,,,,,,,,,4,001,2022-12-16_11h01.16.617,00_bat_bachelor,2022.2.4,59.98039911517736,
,,,,,,,,,,,,0,0,0,0,80,0,80,0,,,,,,,80,,,1,3862.440866851757,Y,l,go,l,1,0.3431058557762299,,,,,,,,,,,,,,,,,,4,001,2022-12-16_11h01.16.617,00_bat_bachelor,2022.2.4,59.98039911517736,
,,,,,,,,,,,,0,0,0,0,81,0,81,0,,,,,,,81,,,1,3863.8920808650437,X,d,go,d,1,0.38083243781875353,,,,,,,,,,,,,,,,,,4,001,2022-12-16_11h01.16.617,00_bat_bachelor,2022.2.4,59.98039911517736,
,,,,,,,,,,,,0,0,0,0,82,0,82,0,,,,,,,82,,,1,3865.3763838801387,Y,l,go,l,1,0.4155020471953321,,,,,,,,,,,,,,,,,,4,001,2022-12-16_11h01.16.617,00_bat_bachelor,2022.2.4,59.98039911517736,
,,,,,,,,,,,,0,0,0,0,83,0,83,0,,,,,,,83,,,1,3866.894464867364,X,d,go,d,1,0.43398012573015876,,,,,,,,,,,,,,,,,,4,001,2022-12-16_11h01.16.617,00_bat_bachelor,2022.2.4,59.98039911517736,
,,,,,,,,,,,,0,0,0,0,84,0,84,0,,,,,,,84,,,1,3868.428668536886,Y,l,go,l,1,0.355219322067569,,,,,,,,,,,,,,,,,,4,001,2022-12-16_11h01.16.617,00_bat_bachelor,2022.2.4,59.98039911517736,
,,,,,,,,,,,,0,0,0,0,85,0,85,0,,,,,,,85,,,1,3869.896475051137,Y,None,nogo,None,1,,,,,,,,,,,,,,,,,,,4,001,2022-12-16_11h01.16.617,00_bat_bachelor,2022.2.4,59.98039911517736,
,,,,,,,,,,,,0,0,0,0,86,0,86,0,,,,,,,86,,,1,3871.697941040431,X,d,go,d,1,0.18923322172486223,,,,,,,,,,,,,,,,,,4,001,2022-12-16_11h01.16.617,00_bat_bachelor,2022.2.4,59.98039911517736,
,,,,,,,,,,,,0,0,0,0,87,0,87,0,,,,,,,87,,,1,3872.9990836354846,Y,l,go,l,1,0.36133375225472264,,,,,,,,,,,,,,,,,,4,001,2022-12-16_11h01.16.617,00_bat_bachelor,2022.2.4,59.98039911517736,
,,,,,,,,,,,,0,0,0,0,88,0,88,0,,,,,,,88,,,1,3874.466823725408,X,d,go,d,1,0.3328033003490418,,,,,,,,,,,,,,,,,,4,001,2022-12-16_11h01.16.617,00_bat_bachelor,2022.2.4,59.98039911517736,
,,,,,,,,,,,,0,0,0,0,89,0,89,0,,,,,,,89,,,1,3875.901052025263,Y,l,go,l,1,0.33814536612771917,,,,,,,,,,,,,,,,,,4,001,2022-12-16_11h01.16.617,00_bat_bachelor,2022.2.4,59.98039911517736,
,,,,,,,,,,,,0,0,0,0,90,0,90,0,,,,,,,90,,,1,3877.35242022053,Y,None,nogo,None,1,,,,,,,,,,,,,,,,,,,4,001,2022-12-16_11h01.16.617,00_bat_bachelor,2022.2.4,59.98039911517736,
,,,,,,,,,,,,0,0,0,0,91,0,91,0,,,,,,,91,,,1,3879.1536273004895,X,d,go,d,1,0.3661308478040155,,,,,,,,,,,,,,,,,,4,001,2022-12-16_11h01.16.617,00_bat_bachelor,2022.2.4,59.98039911517736,
,,,,,,,,,,,,0,0,0,0,92,0,92,0,,,,,,,92,,,1,3880.6216243603703,Y,l,go,l,1,0.4180538072541822,,,,,,,,,,,,,,,,,,4,001,2022-12-16_11h01.16.617,00_bat_bachelor,2022.2.4,59.98039911517736,
,,,,,,,,,,,,0,0,0,0,93,0,93,0,,,,,,,93,,,1,3882.156060757392,X,d,go,d,1,0.43559030910546426,,,,,,,,,,,,,,,,,,4,001,2022-12-16_11h01.16.617,00_bat_bachelor,2022.2.4,59.98039911517736,
,,,,,,,,,,,,0,0,0,0,94,0,94,0,,,,,,,94,,,1,3883.7070717159513,X,None,nogo,None,1,,,,,,,,,,,,,,,,,,,4,001,2022-12-16_11h01.16.617,00_bat_bachelor,2022.2.4,59.98039911517736,
,,,,,,,,,,,,0,0,0,0,95,0,95,0,,,,,,,95,,,1,3885.508604129558,Y,l,go,l,1,0.34783701188280247,,,,,,,,,,,,,,,,,,4,001,2022-12-16_11h01.16.617,00_bat_bachelor,2022.2.4,59.98039911517736,
,,,,,,,,,,,,0,0,0,0,96,0,96,0,,,,,,,96,,,1,3886.9594622637233,X,d,go,d,1,0.4810124137584353,,,,,,,,,,,,,,,,,,4,001,2022-12-16_11h01.16.617,00_bat_bachelor,2022.2.4,59.98039911517736,
,,,,,,,,,,,,0,0,0,0,97,0,97,0,,,,,,,97,,,1,3888.5442080428766,Y,l,go,l,1,0.35116549996018875,,,,,,,,,,,,,,,,,,4,001,2022-12-16_11h01.16.617,00_bat_bachelor,2022.2.4,59.98039911517736,
,,,,,,,,,,,,0,0,0,0,98,0,98,0,,,,,,,98,,,1,3890.0117842538602,X,d,go,d,1,0.4832965371897444,,,,,,,,,,,,,,,,,,4,001,2022-12-16_11h01.16.617,00_bat_bachelor,2022.2.4,59.98039911517736,
,,,,,,,,,,,,0,0,0,0,99,0,99,0,,,,,,,99,,,1,3891.5963375479623,X,None,nogo,None,1,,3892.3971703245334,,,,,,,,,,,,,,,,,4,001,2022-12-16_11h01.16.617,00_bat_bachelor,2022.2.4,59.98039911517736,
,,,,,,,,,,,,0,0,0,0,100,0,100,0,,,,,,,100,,,1,3893.398005234427,Y,l,go,l,1,0.3145792826835532,,,,,,,,,,,,,,,,,,4,001,2022-12-16_11h01.16.617,00_bat_bachelor,2022.2.4,59.98039911517736,
,,,,,,,,,,,,0,0,0,0,101,0,101,0,,,,,,,101,,,1,3894.8153443057963,X,d,go,d,1,0.40035779010213446,,,,,,,,,,,,,,,,,,4,001,2022-12-16_11h01.16.617,00_bat_bachelor,2022.2.4,59.98039911517736,
,,,,,,,,,,,,0,0,0,0,102,0,102,0,,,,,,,102,,,1,3896.3168982466887,Y,l,go,l,1,0.5790663270308869,,,,,,,,,,,,,,,,,,4,001,2022-12-16_11h01.16.617,00_bat_bachelor,2022.2.4,59.98039911517736,
,,,,,,,,,,,,0,0,0,0,103,0,103,0,,,,,,,103,,,1,3898.0014802438673,Y,None,nogo,None,1,,,,,,,,,,,,,,,,,,,4,001,2022-12-16_11h01.16.617,00_bat_bachelor,2022.2.4,59.98039911517736,
,,,,,,,,,,,,0,0,0,0,104,0,104,0,,,,,,,104,,,1,3899.8028594452044,X,d,go,d,1,0.19710765361378435,,,,,,,,,,,,,,,,,,4,001,2022-12-16_11h01.16.617,00_bat_bachelor,2022.2.4,59.98039911517736,
,,,,,,,,,,,,0,0,0,0,105,0,105,0,,,,,,,105,,,1,3901.103850282525,Y,l,go,l,1,0.33550390900927596,,,,,,,,,,,,,,,,,,4,001,2022-12-16_11h01.16.617,00_bat_bachelor,2022.2.4,59.98039911517736,
,,,,,,,,,,,,0,0,0,0,106,0,106,0,,,,,,,106,,,1,3902.5547384773236,Y,None,nogo,None,1,,3903.3555678599514,,,,,,,,,,,,,,,,,4,001,2022-12-16_11h01.16.617,00_bat_bachelor,2022.2.4,59.98039911517736,
,,,,,,,,,,,,0,0,0,0,107,0,107,0,,,,,,,107,,,1,3904.3561811938707,X,d,go,d,1,0.21965749365335796,,,,,,,,,,,,,,,,,,4,001,2022-12-16_11h01.16.617,00_bat_bachelor,2022.2.4,59.98039911517736,
,,,,,,,,,,,,0,0,0,0,108,0,108,0,,,,,,,108,,,1,3905.6906857606664,Y,l,go,l,1,0.5168238424230367,,,,,,,,,,,,,,,,,,4,001,2022-12-16_11h01.16.617,00_bat_bachelor,2022.2.4,59.98039911517736,
,,,,,,,,,,,,0,0,0,0,109,0,109,0,,,,,,,109,,,1,3907.308342602031,Y,None,nogo,None,1,,,,,,,,,,,,,,,,,,,4,001,2022-12-16_11h01.16.617,00_bat_bachelor,2022.2.4,59.98039911517736,
,,,,,,,,,,,,0,0,0,0,110,0,110,0,,,,,,,110,,,1,3909.109937561152,X,d,go,d,1,0.21780488578951918,,,,,,,,,,,,,,,,,,4,001,2022-12-16_11h01.16.617,00_bat_bachelor,2022.2.4,59.98039911517736,
,,,,,,,,,,,,0,0,0,0,111,0,111,0,,,,,,,111,,,1,3910.4442607944366,Y,l,go,l,1,0.3235412307549268,,,,,,,,,,,,,,,,,,4,001,2022-12-16_11h01.16.617,00_bat_bachelor,2022.2.4,59.98039911517736,
,,,,,,,,,,,,0,0,0,0,112,0,112,0,,,,,,,112,,,1,3911.8787358824193,X,d,go,d,1,0.5682973468792625,,,,,,,,,,,,,,,,,,4,001,2022-12-16_11h01.16.617,00_bat_bachelor,2022.2.4,59.98039911517736,
,,,,,,,,,,,,0,0,0,0,113,0,113,0,,,,,,,113,,,1,3913.5631147278764,Y,l,go,l,1,0.3576324153254973,,,,,,,,,,,,,,,,,,4,001,2022-12-16_11h01.16.617,00_bat_bachelor,2022.2.4,59.98039911517736,
,,,,,,,,,,,,0,0,0,0,114,0,114,0,,,,,,,114,,,1,3915.030931423942,X,d,go,d,1,0.3457705856417306,,,,,,,,,,,,,,,,,,4,001,2022-12-16_11h01.16.617,00_bat_bachelor,2022.2.4,59.98039911517736,
,,,,,,,,,,,,0,0,0,0,115,0,115,0,,,,,,,115,,,1,3916.482450892072,Y,l,go,l,1,0.3659049082052661,,,,,,,,,,,,,,,,,,4,001,2022-12-16_11h01.16.617,00_bat_bachelor,2022.2.4,59.98039911517736,
,,,,,,,,,,,,0,0,0,0,116,0,116,0,,,,,,,116,,,1,3917.9499044362747,Y,None,nogo,d,0,0.24192466675594915,,,,,,,,,,,,,,,,,,4,001,2022-12-16_11h01.16.617,00_bat_bachelor,2022.2.4,59.98039911517736,
,,,,,,,,,,,,0,0,0,0,117,0,117,0,,,,,,,117,,,1,3919.300814352304,X,d,go,d,1,0.29945151042193174,,,,,,,,,,,,,,,,,,4,001,2022-12-16_11h01.16.617,00_bat_bachelor,2022.2.4,59.98039911517736,
,,,,,,,,,,,,0,0,0,0,118,0,118,0,,,,,,,118,,,1,3920.7022004384926,Y,l,go,l,1,0.33801591146038845,,,,,,,,,,,,,,,,,,4,001,2022-12-16_11h01.16.617,00_bat_bachelor,2022.2.4,59.98039911517736,
,,,,,,,,,,,,0,0,0,0,119,0,119,0,,,,,,,119,,,1,3922.153001845334,Y,None,nogo,None,1,,,,,,,,,,,,,,,,,,,4,001,2022-12-16_11h01.16.617,00_bat_bachelor,2022.2.4,59.98039911517736,
,,,,,,,,,,,,0,0,0,0,120,0,120,0,,,,,,,120,,,1,3923.954653046938,X,d,go,d,1,0.2688749959197594,,,,,,,,,,,,,,,,,,4,001,2022-12-16_11h01.16.617,00_bat_bachelor,2022.2.4,59.98039911517736,
,,,,,,,,,,,,0,0,0,0,121,0,121,0,,,,,,,121,,,1,3925.3389860256866,Y,l,go,l,1,0.35786756707238965,,,,,,,,,,,,,,,,,,4,001,2022-12-16_11h01.16.617,00_bat_bachelor,2022.2.4,59.98039911517736,
,,,,,,,,,,,,0,0,0,0,122,0,122,0,,,,,,,122,,,1,3926.806777994454,X,d,go,d,1,0.42478254104207736,,,,,,,,,,,,,,,,,,4,001,2022-12-16_11h01.16.617,00_bat_bachelor,2022.2.4,59.98039911517736,
,,,,,,,,,,,,0,0,0,0,123,0,123,0,,,,,,,123,,,1,3928.341177058115,Y,l,go,l,1,0.3152260711794952,,,,,,,,,,,,,,,,,,4,001,2022-12-16_11h01.16.617,00_bat_bachelor,2022.2.4,59.98039911517736,
,,,,,,,,,,,,0,0,0,0,124,0,124,0,,,,,,,124,,,1,3929.7597961307183,X,d,go,d,1,0.39933815273980144,,,,,,,,,,,,,,,,,,4,001,2022-12-16_11h01.16.617,00_bat_bachelor,2022.2.4,59.98039911517736,
,,,,,,,,,,,,0,0,0,0,125,0,125,0,,,,,,,125,,,1,3931.277498450916,Y,l,go,l,1,0.27412930404534563,,,,,,,,,,,,,,,,,,4,001,2022-12-16_11h01.16.617,00_bat_bachelor,2022.2.4,59.98039911517736,
,,,,,,,,,,,,0,0,0,0,126,0,126,0,,,,,,,126,,,1,3932.695188068057,Y,None,nogo,None,1,,3933.496051390117,,,,,,,,,,,,,,,,,4,001,2022-12-16_11h01.16.617,00_bat_bachelor,2022.2.4,59.98039911517736,
,,,,,,,,,,,,0,0,0,0,127,0,127,0,,,,,,,127,,,1,3934.496378663156,Y,None,nogo,None,1,,3935.2971241669147,,,,,,,,,,,,,,,,,4,001,2022-12-16_11h01.16.617,00_bat_bachelor,2022.2.4,59.98039911517736,
,,,,,,,,,,,,0,0,0,0,128,0,128,0,,,,,,,128,,,1,3936.29807253147,X,d,go,d,1,0.26125123095698655,,,,,,,,,,,,,,,,,,4,001,2022-12-16_11h01.16.617,00_bat_bachelor,2022.2.4,59.98039911517736,
,,,,,,,,,,,,0,0,0,0,129,0,129,0,,,,,,,129,,,1,3937.6990687991056,Y,l,go,l,1,0.34840622456977144,,,,,,,,,,,,,,,,,,4,001,2022-12-16_11h01.16.617,00_bat_bachelor,2022.2.4,59.98039911517736,
,,,,,,,,,,,,0,0,0,0,130,0,130,0,,,,,,,130,,,1,3939.1836249053304,Y,None,nogo,None,1,,3939.984373803032,,,,,,,,,,,,,,,,,4,001,2022-12-16_11h01.16.617,00_bat_bachelor,2022.2.4,59.98039911517736,
,,,,,,,,,,,,0,0,0,0,131,0,131,0,,,,,,,131,,,1,3940.984905197489,X,d,go,d,1,0.27746554971963633,,,,,,,,,,,,,,,,,,4,001,2022-12-16_11h01.16.617,00_bat_bachelor,2022.2.4,59.98039911517736,
,,,,,,,,,,,,0,0,0,0,132,0,132,0,,,,,,,132,,,1,3942.4020925111254,Y,l,go,l,1,0.5740583221777342,,,,,,,,,,,,,,,,,,4,001,2022-12-16_11h01.16.617,00_bat_bachelor,2022.2.4,59.98039911517736,
,,,,,,,,,,,,0,0,0,0,133,0,133,0,,,,,,,133,,,1,3944.086904811542,X,d,go,d,1,0.4726279207825428,,,,,,,,,,,,,,,,,,4,001,2022-12-16_11h01.16.617,00_bat_bachelor,2022.2.4,59.98039911517736,
,,,,,,,,,,,,0,0,0,0,134,0,134,0,,,,,,,134,,,1,3945.6712568933435,Y,l,go,l,1,0.3291761453147046,,,,,,,,,,,,,,,,,,4,001,2022-12-16_11h01.16.617,00_bat_bachelor,2022.2.4,59.98039911517736,
,,,,,,,,,,,,0,0,0,0,135,0,135,0,,,,,,,135,,,1,3947.1057276176725,Y,None,nogo,None,1,,3947.906181727216,,,,,,,,,,,,,,,,,4,001,2022-12-16_11h01.16.617,00_bat_bachelor,2022.2.4,59.98039911517736,
,,,,,,,,,,,,0,0,0,0,136,0,136,0,,,,,,,136,,,1,3948.9069288794417,X,d,go,d,1,0.2609971701167524,,,,,,,,,,,,,,,,,,4,001,2022-12-16_11h01.16.617,00_bat_bachelor,2022.2.4,59.98039911517736,
,,,,,,,,,,,,0,0,0,0,137,0,137,0,,,,,,,137,,,1,3950.2747493573406,Y,l,go,l,1,0.3495223468489712,,,,,,,,,,,,,,,,,,4,001,2022-12-16_11h01.16.617,00_bat_bachelor,2022.2.4,59.98039911517736,
,,,,,,,,,,,,0,0,0,0,138,0,138,0,,,,,,,138,,,1,3951.7258387644542,X,d,go,d,1,0.5302066432923311,,,,,,,,,,,,,,,,,,4,001,2022-12-16_11h01.16.617,00_bat_bachelor,2022.2.4,59.98039911517736,
,,,,,,,,,,,,0,0,0,0,139,0,139,0,,,,,,,139,,,1,3953.360140955294,X,None,nogo,None,1,,,,,,,,,,,,,,,,,,,4,001,2022-12-16_11h01.16.617,00_bat_bachelor,2022.2.4,59.98039911517736,
,,,,,,,,,,,,0,0,0,0,140,0,140,0,,,,,,,140,,,1,3955.161522096023,Y,l,go,l,1,0.3752256445150124,,,,,,,,,,,,,,,,,,4,001,2022-12-16_11h01.16.617,00_bat_bachelor,2022.2.4,59.98039911517736,
,,,,,,,,,,,,0,0,0,0,141,0,141,0,,,,,,,141,,,1,3956.64600692947,X,d,go,d,1,0.3290937209967524,,,,,,,,,,,,,,,,,,4,001,2022-12-16_11h01.16.617,00_bat_bachelor,2022.2.4,59.98039911517736,
,,,,,,,,,,,,0,0,0,0,142,0,142,0,,,,,,,142,,,1,3958.0805474720546,Y,l,go,l,1,0.3670132729021134,,,,,,,,,,,,,,,,,,4,001,2022-12-16_11h01.16.617,00_bat_bachelor,2022.2.4,59.98039911517736,
,,,,,,,,,,,,0,0,0,0,143,0,143,0,,,,,,,143,,,1,3959.548601259259,X,d,go,d,1,0.5637504333863035,,,,,,,,,,,,,,,,,,4,001,2022-12-16_11h01.16.617,00_bat_bachelor,2022.2.4,59.98039911517736,
,,,,,,,,,,,,0,0,0,0,144,0,144,0,,,,,,,144,,,1,3961.2161417853495,X,None,nogo,None,1,,3962.016948380071,,,,,,,,,,,,,,,,,4,001,2022-12-16_11h01.16.617,00_bat_bachelor,2022.2.4,59.98039911517736,
,,,,,,,,,,,,0,0,0,0,145,0,145,0,,,,,,,145,,,1,3963.017728986888,Y,l,go,l,1,0.3097545507189352,,,,,,,,,,,,,,,,,,4,001,2022-12-16_11h01.16.617,00_bat_bachelor,2022.2.4,59.98039911517736,
,,,,,,,,,,,,0,0,0,0,146,0,146,0,,,,,,,146,,,1,3964.435526725356,X,d,go,d,1,0.36571824134443887,,,,,,,,,,,,,,,,,,4,001,2022-12-16_11h01.16.617,00_bat_bachelor,2022.2.4,59.98039911517736,
,,,,,,,,,,,,0,0,0,0,147,0,147,0,,,,,,,147,,,1,3965.9032202697854,Y,l,go,l,1,0.32069128860894125,,,,,,,,,,,,,,,,,,4,001,2022-12-16_11h01.16.617,00_bat_bachelor,2022.2.4,59.98039911517736,
,,,,,,,,,,,,0,0,0,0,148,0,148,0,,,,,,,148,,,1,3967.33750141818,X,d,go,d,1,0.45425020599213894,,,,,,,,,,,,,,,,,,4,001,2022-12-16_11h01.16.617,00_bat_bachelor,2022.2.4,59.98039911517736,
,,,,,,,,,,,,0,0,0,0,149,0,149,0,,,,,,,149,,,1,3968.905649847904,Y,l,go,l,1,0.29534144584613387,,,,,,,,,,,,,,,,,,4,001,2022-12-16_11h01.16.617,00_bat_bachelor,2022.2.4,59.98039911517736,
,,,,,,,,,,,,0,0,0,0,150,0,150,0,,,,,,,150,,,1,3970.3066286609683,X,d,go,d,1,0.3487111945578363,,,,,,,,,,,,,,,,,,4,001,2022-12-16_11h01.16.617,00_bat_bachelor,2022.2.4,59.98039911517736,
,,,,,,,,,,,,0,0,0,0,151,0,151,0,,,,,,,151,,,1,3971.7582203716156,X,None,nogo,None,1,,3972.558470844582,,,,,,,,,,,,,,,,,4,001,2022-12-16_11h01.16.617,00_bat_bachelor,2022.2.4,59.98039911517736,
,,,,,,,,,,,,0,0,0,0,152,0,152,0,,,,,,,152,,,1,3973.558889754073,Y,l,go,l,1,0.5207433613832109,,,,,,,,,,,,,,,,,,4,001,2022-12-16_11h01.16.617,00_bat_bachelor,2022.2.4,59.98039911517736,
,,,,,,,,,,,,0,0,0,0,153,0,153,0,,,,,,,153,,,1,3975.1934683088184,X,d,go,d,1,0.3107964911177987,,,,,,,,,,,,,,,,,,4,001,2022-12-16_11h01.16.617,00_bat_bachelor,2022.2.4,59.98039911517736,
,,,,,,,,,,,,0,0,0,0,154,0,154,0,,,,,,,154,,,1,3976.6112093199627,X,None,nogo,None,1,,,,,,,,,,,,,,,,,,,4,001,2022-12-16_11h01.16.617,00_bat_bachelor,2022.2.4,59.98039911517736,
,,,,,,,,,,,,0,0,0,0,155,0,155,0,,,,,,,155,,,1,3978.412949733771,Y,l,go,l,1,0.3872411713091424,,,,,,,,,,,,,,,,,,4,001,2022-12-16_11h01.16.617,00_bat_bachelor,2022.2.4,59.98039911517736,
,,,,,,,,,,,,0,0,0,0,156,0,156,0,,,,,,,156,,,1,3979.913966946886,X,d,go,d,1,0.3421734912408283,,,,,,,,,,,,,,,,,,4,001,2022-12-16_11h01.16.617,00_bat_bachelor,2022.2.4,59.98039911517736,
,,,,,,,,,,,,0,0,0,0,157,0,157,0,,,,,,,157,,,1,3981.3648420507525,Y,l,go,l,1,0.570555288461037,,,,,,,,,,,,,,,,,,4,001,2022-12-16_11h01.16.617,00_bat_bachelor,2022.2.4,59.98039911517736,
,,,,,,,,,,,,0,0,0,0,158,0,158,0,,,,,,,158,,,1,3983.049468169178,Y,None,nogo,None,1,,,,,,,,,,,,,,,,,,,4,001,2022-12-16_11h01.16.617,00_bat_bachelor,2022.2.4,59.98039911517736,
,,,,,,,,,,,,0,0,0,0,159,0,159,0,,,,,,,159,,,1,3984.851101916225,X,d,go,d,1,0.300166177781648,,,,,,,,,,,,,,,,,,4,001,2022-12-16_11h01.16.617,00_bat_bachelor,2022.2.4,59.98039911517736,
,,,,,,,,,,,,0,0,0,0,160,0,160,0,,,,,,,160,,,1,3986.252021092878,Y,l,go,l,1,0.4354724908043863,,,,,,,,,,,,,,,,,,4,001,2022-12-16_11h01.16.617,00_bat_bachelor,2022.2.4,59.98039911517736,
,,,,,,,,,,,,0,0,0,0,161,0,161,0,,,,,,,161,,,1,3987.8033719305386,X,d,go,d,1,0.4211243556783302,,,,,,,,,,,,,,,,,,4,001,2022-12-16_11h01.16.617,00_bat_bachelor,2022.2.4,59.98039911517736,
,,,,,,,,,,,,0,0,0,0,162,0,162,0,,,,,,,162,,,1,3989.3378645700577,Y,l,go,l,1,0.3271257190790493,,,,,,,,,,,,,,,,,,4,001,2022-12-16_11h01.16.617,00_bat_bachelor,2022.2.4,59.98039911517736,
,,,,,,,,,,,,0,0,0,0,163,0,163,0,,,,,,,163,,,1,3990.7721529911796,X,d,go,d,1,0.34845228522317484,,,,,,,,,,,,,,,,,,4,001,2022-12-16_11h01.16.617,00_bat_bachelor,2022.2.4,59.98039911517736,
,,,,,,,,,,,,0,0,0,0,164,0,164,0,,,,,,,164,,,1,3992.223312216549,Y,l,go,l,1,0.35264283473952673,,,,,,,,,,,,,,,,,,4,001,2022-12-16_11h01.16.617,00_bat_bachelor,2022.2.4,59.98039911517736,
,,,,,,,,,,,,0,0,0,0,165,0,165,0,,,,,,,165,,,1,3993.6909262457484,X,d,go,d,1,0.26198238317738287,,,,,,,,,,,,,,,,,,4,001,2022-12-16_11h01.16.617,00_bat_bachelor,2022.2.4,59.98039911517736,
,,,,,,,,,,,,0,0,0,0,166,0,166,0,,,,,,,166,,,1,3995.0587729054823,X,None,nogo,None,1,,,,,,,,,,,,,,,,,,,4,001,2022-12-16_11h01.16.617,00_bat_bachelor,2022.2.4,59.98039911517736,
,,,,,,,,,,,,0,0,0,0,167,0,167,0,,,,,,,167,,,1,3996.860062894615,Y,l,go,l,1,0.19609528899309225,,,,,,,,,,,,,,,,,,4,001,2022-12-16_11h01.16.617,00_bat_bachelor,2022.2.4,59.98039911517736,
,,,,,,,,,,,,0,0,0,0,168,0,168,0,,,,,,,168,,,1,3998.1612496109155,X,d,go,d,1,0.23864805752236862,,,,,,,,,,,,,,,,,,4,001,2022-12-16_11h01.16.617,00_bat_bachelor,2022.2.4,59.98039911517736,
,,,,,,,,,,,,0,0,0,0,169,0,169,0,,,,,,,169,,,1,3999.5122429209587,Y,l,go,l,1,0.40799076718394645,,,,,,,,,,,,,,,,,,4,001,2022-12-16_11h01.16.617,00_bat_bachelor,2022.2.4,59.98039911517736,
,,,,,,,,,,,,0,0,0,0,170,0,170,0,,,,,,,170,,,1,4001.0301411201362,Y,None,nogo,l,0,0.4264373305340996,,,,,,,,,,,,,,,,,,4,001,2022-12-16_11h01.16.617,00_bat_bachelor,2022.2.4,59.98039911517736,
,,,,,,,,,,,,0,0,0,0,171,0,171,0,,,,,,,171,,,1,4002.5650628509757,X,d,go,d,1,0.23479690226668026,,,,,,,,,,,,,,,,,,4,001,2022-12-16_11h01.16.617,00_bat_bachelor,2022.2.4,59.98039911517736,
,,,,,,,,,,,,0,0,0,0,172,0,172,0,,,,,,,172,,,1,4003.916012524627,Y,l,go,l,1,0.547406659956323,,,,,,,,,,,,,,,,,,4,001,2022-12-16_11h01.16.617,00_bat_bachelor,2022.2.4,59.98039911517736,
,,,,,,,,,,,,0,0,0,0,173,0,173,0,,,,,,,173,,,1,4005.5839355965436,X,d,go,d,1,0.3518762885360047,,,,,,,,,,,,,,,,,,4,001,2022-12-16_11h01.16.617,00_bat_bachelor,2022.2.4,59.98039911517736,
,,,,,,,,,,,,0,0,0,0,174,0,174,0,,,,,,,174,,,1,4007.051732898646,X,None,nogo,None,1,,4007.8521700384736,,,,,,,,,,,,,,,,,4,001,2022-12-16_11h01.16.617,00_bat_bachelor,2022.2.4,59.98039911517736,
,,,,,,,,,,,,0,0,0,0,175,0,175,0,,,,,,,175,,,1,4008.8530316150573,Y,l,go,l,1,0.3321128754178062,,,,,,,,,,,,,,,,,,4,001,2022-12-16_11h01.16.617,00_bat_bachelor,2022.2.4,59.98039911517736,
,,,,,,,,,,,,0,0,0,0,176,0,176,0,,,,,,,176,,,1,4010.2875867031107,X,d,go,d,1,0.3037996358470991,,,,,,,,,,,,,,,,,,4,001,2022-12-16_11h01.16.617,00_bat_bachelor,2022.2.4,59.98039911517736,
,,,,,,,,,,,,0,0,0,0,177,0,177,0,,,,,,,177,,,1,4011.705382987042,X,None,nogo,None,1,,4012.5059185511927,,,,,,,,,,,,,,,,,4,001,2022-12-16_11h01.16.617,00_bat_bachelor,2022.2.4,59.98039911517736,
,,,,,,,,,,,,0,0,0,0,178,0,178,0,,,,,,,178,,,1,4013.5067064307514,Y,l,go,l,1,0.39811875761370175,,,,,,,,,,,,,,,,,,4,001,2022-12-16_11h01.16.617,00_bat_bachelor,2022.2.4,59.98039911517736,
,,,,,,,,,,,,0,0,0,0,179,0,179,0,,,,,,,179,,,1,4015.007804128778,X,d,go,d,1,0.3197797725588316,,,,,,,,,,,,,,,,,,4,001,2022-12-16_11h01.16.617,00_bat_bachelor,2022.2.4,59.98039911517736,
,,,,,,,,,,,,0,0,0,0,180,0,180,0,,,,,,,180,,,1,4016.4421274590277,Y,l,go,l,1,0.35719993006205186,,,,,,,,,,,,,,,,,,4,001,2022-12-16_11h01.16.617,00_bat_bachelor,2022.2.4,59.98039911517736,
,,,,,,,,,,,,0,0,0,0,181,0,181,0,,,,,,,181,,,1,4017.910070215832,X,d,go,None,0,,4018.710687234605,,,,,,,,,,,,,,,,,4,001,2022-12-16_11h01.16.617,00_bat_bachelor,2022.2.4,59.98039911517736,
,,,,,,,,,,,,0,0,0,0,182,0,182,0,,,,,,,182,,,1,4019.711027113721,X,None,nogo,None,1,,,,,,,,,,,,,,,,,,,4,001,2022-12-16_11h01.16.617,00_bat_bachelor,2022.2.4,59.98039911517736,
,,,,,,,,,,,,0,0,0,0,183,0,183,0,,,,,,,183,,,1,4021.5124547999585,Y,l,go,l,1,0.3126534626208013,,,,,,,,,,,,,,,,,,4,001,2022-12-16_11h01.16.617,00_bat_bachelor,2022.2.4,59.98039911517736,
,,,,,,,,,,,,0,0,0,0,184,0,184,0,,,,,,,184,,,1,4022.9301298716455,X,d,go,d,1,0.3012774515955243,,,,,,,,,,,,,,,,,,4,001,2022-12-16_11h01.16.617,00_bat_bachelor,2022.2.4,59.98039911517736,
,,,,,,,,,,,,0,0,0,0,185,0,185,0,,,,,,,185,,,1,4024.347702640196,Y,l,go,l,1,0.4522618404298555,,,,,,,,,,,,,,,,,,4,001,2022-12-16_11h01.16.617,00_bat_bachelor,2022.2.4,59.98039911517736,
,,,,,,,,,,,,0,0,0,0,186,0,186,0,,,,,,,186,,,1,4025.91578222136,Y,None,nogo,None,1,,,,,,,,,,,,,,,,,,,4,001,2022-12-16_11h01.16.617,00_bat_bachelor,2022.2.4,59.98039911517736,
,,,,,,,,,,,,0,0,0,0,187,0,187,0,,,,,,,187,,,1,4027.716893301229,Y,None,nogo,d,0,0.21871882608684245,,,,,,,,,,,,,,,,,,4,001,2022-12-16_11h01.16.617,00_bat_bachelor,2022.2.4,59.98039911517736,
,,,,,,,,,,,,0,0,0,0,188,0,188,0,,,,,,,188,,,1,4029.0512024739,X,d,go,d,1,0.2921850791317411,,,,,,,,,,,,,,,,,,4,001,2022-12-16_11h01.16.617,00_bat_bachelor,2022.2.4,59.98039911517736,
,,,,,,,,,,,,0,0,0,0,189,0,189,0,,,,,,,189,,,1,4030.452615226779,Y,l,go,l,1,0.37954419416200835,,,,,,,,,,,,,,,,,,4,001,2022-12-16_11h01.16.617,00_bat_bachelor,2022.2.4,59.98039911517736,
,,,,,,,,,,,,0,0,0,0,190,0,190,0,,,,,,,190,,,1,4031.9369376358227,X,d,go,d,1,0.5115651706582867,,,,,,,,,,,,,,,,,,4,001,2022-12-16_11h01.16.617,00_bat_bachelor,2022.2.4,59.98039911517736,
,,,,,,,,,,,,0,0,0,0,191,0,191,0,,,,,,,191,,,1,4033.554883932011,Y,l,go,l,1,0.4774235617805971,,,,,,,,,,,,,,,,,,4,001,2022-12-16_11h01.16.617,00_bat_bachelor,2022.2.4,59.98039911517736,
,,,,,,,,,,,,0,0,0,0,192,0,192,0,,,,,,,192,,,1,4035.139393104866,X,d,go,d,1,0.4765290154609829,,,,,,,,,,,,,,,,,,4,001,2022-12-16_11h01.16.617,00_bat_bachelor,2022.2.4,59.98039911517736,
,,,,,,,,,,,,0,0,0,0,193,0,193,0,,,,,,,193,,,1,4036.724034641491,Y,l,go,l,1,0.3644013915909454,,,,,,,,,,,,,,,,,,4,001,2022-12-16_11h01.16.617,00_bat_bachelor,2022.2.4,59.98039911517736,
,,,,,,,,,,,,0,0,0,0,194,0,194,0,,,,,,,194,,,1,4038.1916079433868,Y,None,nogo,None,1,,,,,,,,,,,,,,,,,,,4,001,2022-12-16_11h01.16.617,00_bat_bachelor,2022.2.4,59.98039911517736,
,,,,,,,,,,,,0,0,0,0,195,0,195,0,,,,,,,195,,,1,4039.992930902241,X,d,go,d,1,0.3113264310377417,,,,,,,,,,,,,,,,,,4,001,2022-12-16_11h01.16.617,00_bat_bachelor,2022.2.4,59.98039911517736,
,,,,,,,,,,,,0,0,0,0,196,0,196,0,,,,,,,196,,,1,4041.4110947016743,Y,l,go,l,1,0.31638582987943664,,,,,,,,,,,,,,,,,,4,001,2022-12-16_11h01.16.617,00_bat_bachelor,2022.2.4,59.98039911517736,
,,,,,,,,,,,,0,0,0,0,197,0,197,0,,,,,,,197,,,1,4042.8286311065604,X,d,go,d,1,0.35461326088989154,,,,,,,,,,,,,,,,,,4,001,2022-12-16_11h01.16.617,00_bat_bachelor,2022.2.4,59.98039911517736,
,,,,,,,,,,,,0,0,0,0,198,0,198,0,,,,,,,198,,,1,4044.296211196328,X,None,nogo,None,1,,4045.097055609265,,,,,,,,,,,,,,,,,4,001,2022-12-16_11h01.16.617,00_bat_bachelor,2022.2.4,59.98039911517736,
,,,,,,,,,,,,0,0,0,0,199,0,199,0,,,,,,,199,,,1,4046.097827973659,Y,l,go,l,1,0.3341812410799321,,,,,,,,,,,,,,,,,,4,001,2022-12-16_11h01.16.617,00_bat_bachelor,2022.2.4,59.98039911517736,
,,,,,,,,,,,,0,0,0,0,200,0,200,0,,,,,,,200,,,1,4047.5486090168415,X,d,go,d,1,0.3387315485160798,,,,,,,,,,,,,,,,,,4,001,2022-12-16_11h01.16.617,00_bat_bachelor,2022.2.4,59.98039911517736,
,,,,,,,,,,,,0,0,0,0,201,0,201,0,,,,,,,201,,,1,4048.999819636185,Y,l,go,l,1,0.3928266312723281,,,,,,,,,,,,,,,,,,4,001,2022-12-16_11h01.16.617,00_bat_bachelor,2022.2.4,59.98039911517736,
,,,,,,,,,,,,0,0,0,0,202,0,202,0,,,,,,,202,,,1,4050.5009750312456,X,d,go,d,1,0.42706811902462505,,,,,,,,,,,,,,,,,,4,001,2022-12-16_11h01.16.617,00_bat_bachelor,2022.2.4,59.98039911517736,
,,,,,,,,,,,,0,0,0,0,203,0,203,0,,,,,,,203,,,1,4052.0354686404607,X,None,nogo,None,1,,,,,,,,,,,,,,,,,,,4,001,2022-12-16_11h01.16.617,00_bat_bachelor,2022.2.4,59.98039911517736,
,,,,,,,,,,,,0,0,0,0,204,0,204,0,,,,,,,204,,,1,4053.837073296556,Y,l,go,l,1,0.3712717012822395,,,,,,,,,,,,,,,,,,4,001,2022-12-16_11h01.16.617,00_bat_bachelor,2022.2.4,59.98039911517736,
,,,,,,,,,,,,0,0,0,0,205,0,205,0,,,,,,,205,,,1,4055.321505281463,X,d,go,d,1,0.37444843164121266,,,,,,,,,,,,,,,,,,4,001,2022-12-16_11h01.16.617,00_bat_bachelor,2022.2.4,59.98039911517736,
,,,,,,,,,,,,0,0,0,0,206,0,206,0,,,,,,,206,,,1,4056.8061491453554,Y,l,go,l,1,0.3613992068567313,,,,,,,,,,,,,,,,,,4,001,2022-12-16_11h01.16.617,00_bat_bachelor,2022.2.4,59.98039911517736,
,,,,,,,,,,,,0,0,0,0,207,0,207,0,,,,,,,207,,,1,4058.2737927503476,Y,None,nogo,None,1,,4059.074476678288,,,,,,,,,,,,,,,,,4,001,2022-12-16_11h01.16.617,00_bat_bachelor,2022.2.4,59.98039911517736,
,,,,,,,,,,,,0,0,0,0,208,0,208,0,,,,,,,208,,,1,4060.074942133273,X,d,go,d,1,0.18095636522048153,,,,,,,,,,,,,,,,,,4,001,2022-12-16_11h01.16.617,00_bat_bachelor,2022.2.4,59.98039911517736,
,,,,,,,,,,,,0,0,0,0,209,0,209,0,,,,,,,209,,,1,4061.359444712187,Y,l,go,l,1,0.38413619859784376,,,,,,,,,,,,,,,,,,4,001,2022-12-16_11h01.16.617,00_bat_bachelor,2022.2.4,59.98039911517736,
,,,,,,,,,,,,0,0,0,0,210,0,210,0,,,,,,,210,,,1,4062.860667501256,Y,None,nogo,None,1,,,,,,,,,,,,,,,,,,,4,001,2022-12-16_11h01.16.617,00_bat_bachelor,2022.2.4,59.98039911517736,
,,,,,,,,,,,,0,0,0,0,211,0,211,0,,,,,,,211,,,1,4064.6617761568777,X,d,go,d,1,0.16995999091886915,,,,,,,,,,,,,,,,,,4,001,2022-12-16_11h01.16.617,00_bat_bachelor,2022.2.4,59.98039911517736,
,,,,,,,,,,,,0,0,0,0,212,0,212,0,,,,,,,212,,,1,4065.9461972811696,Y,l,go,l,1,0.3575204152293736,,,,,,,,,,,,,,,,,,4,001,2022-12-16_11h01.16.617,00_bat_bachelor,2022.2.4,59.98039911517736,
,,,,,,,,,,,,0,0,0,0,213,0,213,0,,,,,,,213,,,1,4067.414100280337,Y,None,nogo,None,1,,4068.214467117068,,,,,,,,,,,,,,,,,4,001,2022-12-16_11h01.16.617,00_bat_bachelor,2022.2.4,59.98039911517736,
,,,,,,,,,,,,0,0,0,0,214,0,214,0,,,,,,,214,,,1,4069.215778148631,X,d,go,d,1,0.22502283219364472,,,,,,,,,,,,,,,,,,4,001,2022-12-16_11h01.16.617,00_bat_bachelor,2022.2.4,59.98039911517736,
,,,,,,,,,,,,0,0,0,0,215,0,215,0,,,,,,,215,,,1,4070.549964169666,Y,l,go,l,1,0.473995679669315,,,,,,,,,,,,,,,,,,4,001,2022-12-16_11h01.16.617,00_bat_bachelor,2022.2.4,59.98039911517736,
,,,,,,,,,,,,0,0,0,0,216,0,216,0,,,,,,,216,,,1,4072.1344122515584,X,d,go,None,0,,,,,,,,,,,,,,,,,,,4,001,2022-12-16_11h01.16.617,00_bat_bachelor,2022.2.4,59.98039911517736,
,,,,,,,,,,,,0,0,0,0,217,0,217,0,,,,,,,217,,,1,4073.9355582405406,X,None,nogo,d,0,0.5609130973025458,,,,,,,,,,,,,,,,,,4,001,2022-12-16_11h01.16.617,00_bat_bachelor,2022.2.4,59.98039911517736,
,,,,,,,,,,,,0,0,0,0,218,0,218,0,,,,,,,218,,,1,4075.6040893130557,X,None,nogo,None,1,,4076.4047577258316,,,,,,,,,,,,,,,,,4,001,2022-12-16_11h01.16.617,00_bat_bachelor,2022.2.4,59.98039911517736,
,,,,,,,,,,,,0,0,0,0,219,0,219,0,,,,,,,219,,,1,4077.4054573628673,Y,l,go,l,1,0.33800379023887217,,,,,,,,,,,,,,,,,,4,001,2022-12-16_11h01.16.617,00_bat_bachelor,2022.2.4,59.98039911517736,
,,,,,,,,,,,,0,0,0,0,220,0,220,0,,,,,,,220,,,1,4078.856568103336,X,d,go,d,1,0.2634660209878348,,,,,,,,,,,,,,,,,,4,001,2022-12-16_11h01.16.617,00_bat_bachelor,2022.2.4,59.98039911517736,
,,,,,,,,,,,,0,0,0,0,221,0,221,0,,,,,,,221,,,1,4080.240964597295,Y,l,go,l,1,0.366937151629827,,,,,,,,,,,,,,,,,,4,001,2022-12-16_11h01.16.617,00_bat_bachelor,2022.2.4,59.98039911517736,
,,,,,,,,,,,,0,0,0,0,222,0,222,0,,,,,,,222,,,1,4081.7088157176477,Y,None,nogo,None,1,,4082.5093556454376,,,,,,,,,,,,,,,,,4,001,2022-12-16_11h01.16.617,00_bat_bachelor,2022.2.4,59.98039911517736,
,,,,,,,,,,,,0,0,0,0,223,0,223,0,,,,,,,223,,,1,4083.510065464303,X,d,go,d,1,0.23442211403744295,,,,,,,,,,,,,,,,,,4,001,2022-12-16_11h01.16.617,00_bat_bachelor,2022.2.4,59.98039911517736,
,,,,,,,,,,,,0,0,0,0,224,0,224,0,,,,,,,224,,,1,4084.8611795017496,Y,l,go,l,1,0.2757293056056369,,,,,,,,,,,,,,,,,,4,001,2022-12-16_11h01.16.617,00_bat_bachelor,2022.2.4,59.98039911517736,
,,,,,,,,,,,,0,0,0,0,225,0,225,0,,,,,,,225,,,1,4086.245520722936,X,d,go,d,1,0.45806402787275147,,,,,,,,,,,,,,,,,,4,001,2022-12-16_11h01.16.617,00_bat_bachelor,2022.2.4,59.98039911517736,
,,,,,,,,,,,,0,0,0,0,226,0,226,0,,,,,,,226,,,1,4087.8133273341373,Y,l,go,l,1,0.28301561569969635,,,,,,,,,,,,,,,,,,4,001,2022-12-16_11h01.16.617,00_bat_bachelor,2022.2.4,59.98039911517736,
,,,,,,,,,,,,0,0,0,0,227,0,227,0,,,,,,,227,,,1,4089.197768434198,X,d,go,d,1,0.33822682074969634,,,,,,,,,,,,,,,,,,4,001,2022-12-16_11h01.16.617,00_bat_bachelor,2022.2.4,59.98039911517736,
,,,,,,,,,,,,0,0,0,0,228,0,228,0,,,,,,,228,,,1,4090.6487114169286,Y,l,go,l,1,0.3580392036092235,,,,,,,,,,,,,,,,,,4,001,2022-12-16_11h01.16.617,00_bat_bachelor,2022.2.4,59.98039911517736,
,,,,,,,,,,,,0,0,0,0,229,0,229,0,,,,,,,229,,,1,4092.1334027960256,X,d,go,d,1,0.42627102734695654,,,,,,,,,,,,,,,,,,4,001,2022-12-16_11h01.16.617,00_bat_bachelor,2022.2.4,59.98039911517736,
,,,,,,,,,,,,0,0,0,0,230,0,230,0,,,,,,,230,,,1,4093.667921132539,X,None,nogo,None,1,,4094.4683102723066,,,,,,,,,,,,,,,,,4,001,2022-12-16_11h01.16.617,00_bat_bachelor,2022.2.4,59.98039911517736,
,,,,,,,,,,,,0,0,0,0,231,0,231,0,,,,,,,231,,,1,4095.4689434850443,Y,l,go,l,1,0.2922568367794156,,,,,,,,,,,,,,,,,,4,001,2022-12-16_11h01.16.617,00_bat_bachelor,2022.2.4,59.98039911517736,
,,,,,,,,,,,,0,0,0,0,232,0,232,0,,,,,,,232,,,1,4096.869956722381,X,d,go,d,1,0.31505976799235214,,,,,,,,,,,,,,,,,,4,001,2022-12-16_11h01.16.617,00_bat_bachelor,2022.2.4,59.98039911517736,
,,,,,,,,,,,,0,0,0,0,233,0,233,0,,,,,,,233,,,1,4098.287578945528,Y,l,go,l,1,0.3365342130418867,,,,,,,,,,,,,,,,,,4,001,2022-12-16_11h01.16.617,00_bat_bachelor,2022.2.4,59.98039911517736,
,,,,,,,,,,,,0,0,0,0,234,0,234,0,,,,,,,234,,,1,4099.738738170898,Y,None,nogo,None,1,,,,,,,,,,,,,,,,,,,4,001,2022-12-16_11h01.16.617,00_bat_bachelor,2022.2.4,59.98039911517736,
,,,,,,,,,,,,0,0,0,0,235,0,235,0,,,,,,,235,,,1,4101.5399307053885,X,d,go,d,1,0.2038189328450244,,,,,,,,,,,,,,,,,,4,001,2022-12-16_11h01.16.617,00_bat_bachelor,2022.2.4,59.98039911517736,
,,,,,,,,,,,,0,0,0,0,236,0,236,0,,,,,,,236,,,1,4102.857830650013,Y,l,go,l,1,0.5822032997675706,,,,,,,,,,,,,,,,,,4,001,2022-12-16_11h01.16.617,00_bat_bachelor,2022.2.4,59.98039911517736,
,,,,,,,,,,,,0,0,0,0,237,0,237,0,,,,,,,237,,,1,4104.542435919939,X,d,go,d,1,0.33796209322463255,,,,,,,,,,,,,,,,,,4,001,2022-12-16_11h01.16.617,00_bat_bachelor,2022.2.4,59.98039911517736,
,,,,,,,,,,,,0,0,0,0,238,0,238,0,,,,,,,238,,,1,4105.993301811686,Y,l,go,l,1,0.37535800827026833,,,,,,,,,,,,,,,,,,4,001,2022-12-16_11h01.16.617,00_bat_bachelor,2022.2.4,59.98039911517736,
,,,,,,,,,,,,0,0,0,0,239,0,239,0,,,,,,,239,,,1,4107.478058160545,X,d,go,d,1,0.3469036776514258,,,,,,,,,,,,,,,,,,4,001,2022-12-16_11h01.16.617,00_bat_bachelor,2022.2.4,59.98039911517736,
,,,,,,,,,,,,0,0,0,0,240,0,240,0,,,,,,,240,,,1,4108.929111688834,Y,l,go,l,1,0.4147781677165767,,,,,,,,,,,,,,,,,,4,001,2022-12-16_11h01.16.617,00_bat_bachelor,2022.2.4,59.98039911517736,
,,,,,,,,,,,,0,0,0,0,241,0,241,0,,,,,,,241,,,1,4110.4467635847395,X,d,go,d,1,0.40107439685380086,,,,,,,,,,,,,,,,,,4,001,2022-12-16_11h01.16.617,00_bat_bachelor,2022.2.4,59.98039911517736,
,,,,,,,,,,,,0,0,0,0,242,0,242,0,,,,,,,242,,,1,4111.964547359559,X,None,nogo,None,1,,,,,,,,,,,,,,,,,,,4,001,2022-12-16_11h01.16.617,00_bat_bachelor,2022.2.4,59.98039911517736,
,,,,,,,,,,,,0,0,0,0,243,0,243,0,,,,,,,243,,,1,4113.766189833885,Y,l,go,l,1,0.36179726784757804,,,,,,,,,,,,,,,,,,4,001,2022-12-16_11h01.16.617,00_bat_bachelor,2022.2.4,59.98039911517736,
,,,,,,,,,,,,0,0,0,0,244,0,244,0,,,,,,,244,,,1,4115.2340535603,X,d,go,d,1,0.2054213586379774,,,,,,,,,,,,,,,,,,4,001,2022-12-16_11h01.16.617,00_bat_bachelor,2022.2.4,59.98039911517736,
,,,,,,,,,,,,0,0,0,0,245,0,245,0,,,,,,,245,,,1,4116.551391080138,X,None,nogo,None,1,,,,,,,,,,,,,,,,,,,4,001,2022-12-16_11h01.16.617,00_bat_bachelor,2022.2.4,59.98039911517736,
,,,,,,,,,,,,0,0,0,0,246,0,246,0,,,,,,,246,,,1,4118.352763978444,Y,l,go,l,1,0.19175976963015273,,,,,,,,,,,,,,,,,,4,001,2022-12-16_11h01.16.617,00_bat_bachelor,2022.2.4,59.98039911517736,
,,,,,,,,,,,,0,0,0,0,247,0,247,0,,,,,,,247,,,1,4119.653968634157,X,d,go,d,1,0.28206822084030136,,,,,,,,,,,,,,,,,,4,001,2022-12-16_11h01.16.617,00_bat_bachelor,2022.2.4,59.98039911517736,
,,,,,,,,,,,,0,0,0,0,248,0,248,0,,,,,,,248,,,1,4121.038220158283,Y,l,go,l,1,0.3381914267811226,,,,,,,,,,,,,,,,,,4,001,2022-12-16_11h01.16.617,00_bat_bachelor,2022.2.4,59.98039911517736,
,,,,,,,,,,,,0,0,0,0,249,0,249,0,,,,,,,249,,,1,4122.489254777465,Y,None,nogo,None,1,,,,,,,,,,,,,,,,,,,4,001,2022-12-16_11h01.16.617,00_bat_bachelor,2022.2.4,59.98039911517736,
,,,,,,,,,,,,1,0,1,0,0,0,0,0,,,,,,,0,,,0.2,4140.303086354514,X,d,go,None,0,,,,,,,,,,4123.29447107343,space,16.789056833687937,,,,,,,4,001,2022-12-16_11h01.16.617,00_bat_bachelor,2022.2.4,59.98039911517736,
,,,,,,,,,,,,1,0,1,0,1,0,1,0,,,,,,,1,,,0.2,4141.303839809785,Y,l,go,None,0,,,,,,,,,,,,,,,,,,,4,001,2022-12-16_11h01.16.617,00_bat_bachelor,2022.2.4,59.98039911517736,
,,,,,,,,,,,,1,0,1,0,2,0,2,0,,,,,,,2,,,0.2,4142.304624295401,X,d,go,d,1,0.5276320953416871,,,,,,,,,,,,,,,,,,4,001,2022-12-16_11h01.16.617,00_bat_bachelor,2022.2.4,59.98039911517736,
,,,,,,,,,,,,1,0,1,0,3,0,3,0,,,,,,,3,,,0.2,4143.138644498089,X,None,nogo,d,0,0.4304819405078888,,,,,,,,,,,,,,,,,,4,001,2022-12-16_11h01.16.617,00_bat_bachelor,2022.2.4,59.98039911517736,
,,,,,,,,,,,,1,0,1,0,4,0,4,0,,,,,,,4,,,0.2,4143.87240230052,Y,l,go,None,0,,,,,,,,,,,,,,,,,,,4,001,2022-12-16_11h01.16.617,00_bat_bachelor,2022.2.4,59.98039911517736,
,,,,,,,,,,,,1,0,1,0,5,0,5,0,,,,,,,5,,,0.2,4144.8732231498,X,d,go,None,0,,,,,,,,,,,,,,,,,,,4,001,2022-12-16_11h01.16.617,00_bat_bachelor,2022.2.4,59.98039911517736,
,,,,,,,,,,,,1,0,1,0,6,0,6,0,,,,,,,6,,,0.2,4145.87400715056,X,None,nogo,None,1,,4146.674547563205,,,,,,,,,,,,,,,,,4,001,2022-12-16_11h01.16.617,00_bat_bachelor,2022.2.4,59.98039911517736,
,,,,,,,,,,,,1,0,1,0,7,0,7,0,,,,,,,7,,,0.2,4146.874798908902,Y,l,go,l,1,0.3246234136313433,,,,,,,,,,,,,,,,,,4,001,2022-12-16_11h01.16.617,00_bat_bachelor,2022.2.4,59.98039911517736,
,,,,,,,,,,,,1,0,1,0,8,0,8,0,,,,,,,8,,,0.2,4147.508597341672,X,d,go,None,0,,4148.309157633121,,,,,,,,,,,,,,,,,4,001,2022-12-16_11h01.16.617,00_bat_bachelor,2022.2.4,59.98039911517736,
,,,,,,,,,,,,1,0,1,0,9,0,9,0,,,,,,,9,,,0.2,4148.509058917873,X,None,nogo,d,0,0.37102491316909436,,,,,,,,,,,,,,,,,,4,001,2022-12-16_11h01.16.617,00_bat_bachelor,2022.2.4,59.98039911517736,
,,,,,,,,,,,,1,0,1,0,10,0,10,0,,,,,,,10,,,0.2,4149.193259823776,Y,l,go,l,1,0.518589177474496,,,,,,,,,,,,,,,,,,4,001,2022-12-16_11h01.16.617,00_bat_bachelor,2022.2.4,59.98039911517736,
,,,,,,,,,,,,1,0,1,0,11,0,11,0,,,,,,,11,,,0.2,4150.0272877840325,X,d,go,None,0,,,,,,,,,,,,,,,,,,,4,001,2022-12-16_11h01.16.617,00_bat_bachelor,2022.2.4,59.98039911517736,
,,,,,,,,,,,,1,0,1,0,12,0,12,0,,,,,,,12,,,0.2,4151.027951057404,Y,l,go,l,1,0.6514557305490598,,,,,,,,,,,,,,,,,,4,001,2022-12-16_11h01.16.617,00_bat_bachelor,2022.2.4,59.98039911517736,
,,,,,,,,,,,,1,0,1,0,13,0,13,0,,,,,,,13,,,0.2,4151.995382783411,X,d,go,None,0,,,,,,,,,,,,,,,,,,,4,001,2022-12-16_11h01.16.617,00_bat_bachelor,2022.2.4,59.98039911517736,
,,,,,,,,,,,,1,0,1,0,14,0,14,0,,,,,,,14,,,0.2,4152.99624484485,Y,l,go,None,0,,,,,,,,,,,,,,,,,,,4,001,2022-12-16_11h01.16.617,00_bat_bachelor,2022.2.4,59.98039911517736,
,,,,,,,,,,,,1,0,1,0,15,0,15,0,,,,,,,15,,,0.2,4153.996978906158,X,d,go,d,1,0.3385153058770811,,,,,,,,,,,,,,,,,,4,001,2022-12-16_11h01.16.617,00_bat_bachelor,2022.2.4,59.98039911517736,
,,,,,,,,,,,,1,0,1,0,16,0,16,0,,,,,,,16,,,0.2,4154.647318930729,Y,l,go,l,1,0.5844113018974895,,,,,,,,,,,,,,,,,,4,001,2022-12-16_11h01.16.617,00_bat_bachelor,2022.2.4,59.98039911517736,
,,,,,,,,,,,,1,0,1,0,17,0,17,0,,,,,,,17,,,0.2,4155.548083925416,X,d,go,d,1,0.4356038848782191,,,,,,,,,,,,,,,,,,4,001,2022-12-16_11h01.16.617,00_bat_bachelor,2022.2.4,59.98039911517736,
,,,,,,,,,,,,1,0,1,0,18,0,18,0,,,,,,,18,,,0.2,4156.298541380413,Y,l,go,l,1,0.341387551088701,,,,,,,,,,,,,,,,,,4,001,2022-12-16_11h01.16.617,00_bat_bachelor,2022.2.4,59.98039911517736,
,,,,,,,,,,,,1,0,1,0,19,0,19,0,,,,,,,19,,,0.2,4156.949086496083,X,d,go,d,1,0.33217736033839174,,,,,,,,,,,,,,,,,,4,001,2022-12-16_11h01.16.617,00_bat_bachelor,2022.2.4,59.98039911517736,
,,,,,,,,,,,,1,0,1,0,20,0,20,0,,,,,,,20,,,0.2,4157.582916928892,Y,l,go,l,1,0.3846608051826479,,,,,,,,,,,,,,,,,,4,001,2022-12-16_11h01.16.617,00_bat_bachelor,2022.2.4,59.98039911517736,
,,,,,,,,,,,,1,0,1,0,21,0,21,0,,,,,,,21,,,0.2,4158.283256032257,X,d,go,d,1,0.35683192970464006,,,,,,,,,,,,,,,,,,4,001,2022-12-16_11h01.16.617,00_bat_bachelor,2022.2.4,59.98039911517736,
,,,,,,,,,,,,1,0,1,0,22,0,22,0,,,,,,,22,,,0.2,4158.950548315683,X,None,nogo,None,1,,,,,,,,,,,,,,,,,,,4,001,2022-12-16_11h01.16.617,00_bat_bachelor,2022.2.4,59.98039911517736,
,,,,,,,,,,,,1,0,1,0,23,0,23,0,,,,,,,23,,,0.2,4159.951174255693,Y,l,go,l,1,0.2879324689565692,,,,,,,,,,,,,,,,,,4,001,2022-12-16_11h01.16.617,00_bat_bachelor,2022.2.4,59.98039911517736,
,,,,,,,,,,,,1,0,1,0,24,0,24,0,,,,,,,24,,,0.2,4160.551785747186,X,d,go,d,1,0.4721755567006767,,,,,,,,,,,,,,,,,,4,001,2022-12-16_11h01.16.617,00_bat_bachelor,2022.2.4,59.98039911517736,
,,,,,,,,,,,,1,0,1,0,25,0,25,0,,,,,,,25,,,0.2,4161.3357074770465,Y,l,go,l,1,0.42443344979255926,,,,,,,,,,,,,,,,,,4,001,2022-12-16_11h01.16.617,00_bat_bachelor,2022.2.4,59.98039911517736,
,,,,,,,,,,,,1,0,1,0,26,0,26,0,,,,,,,26,,,0.2,4162.069587946273,X,d,go,None,0,,,,,,,,,,,,,,,,,,,4,001,2022-12-16_11h01.16.617,00_bat_bachelor,2022.2.4,59.98039911517736,
,,,,,,,,,,,,1,0,1,0,27,0,27,0,,,,,,,27,,,0.2,4163.071074978012,Y,l,go,d,0,0.4162671388621675,,,,,,,,,,,,,,,,,,4,001,2022-12-16_11h01.16.617,00_bat_bachelor,2022.2.4,59.98039911517736,
,,,,,,,,,,,,1,0,1,0,28,0,28,0,,,,,,,28,,,0.2,4163.788045855079,Y,None,nogo,None,1,,4164.588851964945,,,,,,,,,,,,,,,,,4,001,2022-12-16_11h01.16.617,00_bat_bachelor,2022.2.4,59.98039911517736,
,,,,,,,,,,,,1,0,1,0,29,0,29,0,,,,,,,29,,,0.2,4164.788855552833,X,d,go,d,1,0.3145511614275165,,,,,,,,,,,,,,,,,,4,001,2022-12-16_11h01.16.617,00_bat_bachelor,2022.2.4,59.98039911517736,
,,,,,,,,,,,,1,0,1,0,30,0,30,0,,,,,,,30,,,0.2,4165.422879440375,Y,l,go,None,0,,4166.22331270139,,,,,,,,,,,,,,,,,4,001,2022-12-16_11h01.16.617,00_bat_bachelor,2022.2.4,59.98039911517736,
,,,,,,,,,,,,1,0,1,0,31,0,31,0,,,,,,,31,,,0.2,4166.423467562156,Y,None,nogo,d,0,0.3111310368985869,,,,,,,,,,,,,,,,,,4,001,2022-12-16_11h01.16.617,00_bat_bachelor,2022.2.4,59.98039911517736,
,,,,,,,,,,,,1,0,1,0,32,0,32,0,,,,,,,32,,,0.2,4167.05742551024,X,d,go,l,0,0.25384031469002366,,,,,,,,,,,,,,,,,,4,001,2022-12-16_11h01.16.617,00_bat_bachelor,2022.2.4,59.98039911517736,
,,,,,,,,,,,,1,0,1,0,33,0,33,0,,,,,,,33,,,0.2,4167.641044500415,Y,l,go,None,0,,4168.441976671005,,,,,,,,,,,,,,,,,4,001,2022-12-16_11h01.16.617,00_bat_bachelor,2022.2.4,59.98039911517736,
,,,,,,,,,,,,1,0,1,0,34,0,34,0,,,,,,,34,,,0.2,4168.6419472891575,X,d,go,d,1,0.42985163688717876,,,,,,,,,,,,,,,,,,4,001,2022-12-16_11h01.16.617,00_bat_bachelor,2022.2.4,59.98039911517736,
,,,,,,,,,,,,1,0,1,0,35,0,35,0,,,,,,,35,,,0.2,4169.37587624327,X,None,nogo,None,1,,4170.176305625515,,,,,,,,,,,,,,,,,4,001,2022-12-16_11h01.16.617,00_bat_bachelor,2022.2.4,59.98039911517736,
,,,,,,,,,,,,1,0,1,0,36,0,36,0,,,,,,,36,,,0.2,4170.3764469104935,Y,l,go,l,1,0.35848914342932403,,,,,,,,,,,,,,,,,,4,001,2022-12-16_11h01.16.617,00_bat_bachelor,2022.2.4,59.98039911517736,
,,,,,,,,,,,,1,0,1,0,37,0,37,0,,,,,,,37,,,0.2,4171.060305028179,X,d,go,d,1,0.5066143779695267,,,,,,,,,,,,,,,,,,4,001,2022-12-16_11h01.16.617,00_bat_bachelor,2022.2.4,59.98039911517736,
,,,,,,,,,,,,1,0,1,0,38,0,38,0,,,,,,,38,,,0.2,4171.8943116550945,Y,l,go,l,1,0.32891141778964084,,,,,,,,,,,,,,,,,,4,001,2022-12-16_11h01.16.617,00_bat_bachelor,2022.2.4,59.98039911517736,
,,,,,,,,,,,,1,0,1,0,39,0,39,0,,,,,,,39,,,0.2,4172.544778710086,X,d,go,d,1,0.5900394285708899,,,,,,,,,,,,,,,,,,4,001,2022-12-16_11h01.16.617,00_bat_bachelor,2022.2.4,59.98039911517736,
,,,,,,,,,,,,1,0,1,0,40,0,40,0,,,,,,,40,,,0.2,4173.462178872418,Y,l,go,l,1,0.4417541938746581,,,,,,,,,,,,,,,,,,4,001,2022-12-16_11h01.16.617,00_bat_bachelor,2022.2.4,59.98039911517736,
,,,,,,,,,,,,1,0,1,0,41,0,41,0,,,,,,,41,,,0.2,4174.229577919599,Y,None,nogo,None,1,,4175.030061604906,,,,,,,,,,,,,,,,,4,001,2022-12-16_11h01.16.617,00_bat_bachelor,2022.2.4,59.98039911517736,
,,,,,,,,,,,,1,0,1,0,42,0,42,0,,,,,,,42,,,0.2,4175.230349314283,Y,None,nogo,None,1,,4176.03091251482,,,,,,,,,,,,,,,,,4,001,2022-12-16_11h01.16.617,00_bat_bachelor,2022.2.4,59.98039911517736,
,,,,,,,,,,,,1,0,1,0,43,0,43,0,,,,,,,43,,,0.2,4176.230911254213,X,d,go,None,0,,4177.031545242717,,,,,,,,,,,,,,,,,4,001,2022-12-16_11h01.16.617,00_bat_bachelor,2022.2.4,59.98039911517736,
,,,,,,,,,,,,1,0,1,0,44,0,44,0,,,,,,,44,,,0.2,4177.232039982584,Y,l,go,l,1,0.35171337927749846,,,,,,,,,,,,,,,,,,4,001,2022-12-16_11h01.16.617,00_bat_bachelor,2022.2.4,59.98039911517736,
,,,,,,,,,,,,1,0,1,0,45,0,45,0,,,,,,,45,,,0.2,4177.915674100048,Y,None,nogo,d,0,0.45126014249399304,,,,,,,,,,,,,,,,,,4,001,2022-12-16_11h01.16.617,00_bat_bachelor,2022.2.4,59.98039911517736,
,,,,,,,,,,,,1,0,1,0,46,0,46,0,,,,,,,46,,,0.2,4178.699512435895,X,d,go,None,0,,4179.499849211978,,,,,,,,,,,,,,,,,4,001,2022-12-16_11h01.16.617,00_bat_bachelor,2022.2.4,59.98039911517736,
,,,,,,,,,,,,1,0,1,0,47,0,47,0,,,,,,,47,,,0.2,4179.699547829863,Y,l,go,l,1,0.04474289980134927,,,,,,,,,,,,,,,,,,4,001,2022-12-16_11h01.16.617,00_bat_bachelor,2022.2.4,59.98039911517736,
,,,,,,,,,,,,1,0,1,0,48,0,48,0,,,,,,,48,,,0.2,4180.050051442478,X,d,go,None,0,,4180.85071985524,,,,,,,,,,,,,,,,,4,001,2022-12-16_11h01.16.617,00_bat_bachelor,2022.2.4,59.98039911517736,
,,,,,,,,,,,,1,0,1,0,49,0,49,0,,,,,,,49,,,0.2,4181.05097992823,X,None,nogo,d,0,0.45324559895379934,,,,,,,,,,,,,,,,,,4,001,2022-12-16_11h01.16.617,00_bat_bachelor,2022.2.4,59.98039911517736,
,,,,,,,,,,,,1,0,1,0,50,0,50,0,,,,,,,50,,,0.2,4181.818126369093,Y,l,go,l,1,0.47007955468143336,,,,,,,,,,,,,,,,,,4,001,2022-12-16_11h01.16.617,00_bat_bachelor,2022.2.4,59.98039911517736,
,,,,,,,,,,,,1,0,1,0,51,0,51,0,,,,,,,51,,,0.2,4182.60208688688,X,d,go,d,1,0.39114808419253677,,,,,,,,,,,,,,,,,,4,001,2022-12-16_11h01.16.617,00_bat_bachelor,2022.2.4,59.98039911517736,
,,,,,,,,,,,,1,0,1,0,52,0,52,0,,,,,,,52,,,0.2,4183.302475444827,Y,l,go,l,1,0.33048620718182065,,,,,,,,,,,,,,,,,,4,001,2022-12-16_11h01.16.617,00_bat_bachelor,2022.2.4,59.98039911517736,
,,,,,,,,,,,,1,0,1,0,53,0,53,0,,,,,,,53,,,0.2,4183.936461514153,X,d,go,d,1,0.4475200176384533,,,,,,,,,,,,,,,,,,4,001,2022-12-16_11h01.16.617,00_bat_bachelor,2022.2.4,59.98039911517736,
,,,,,,,,,,,,1,0,1,0,54,0,54,0,,,,,,,54,,,0.2,4184.686973757067,Y,l,go,l,1,0.3044532122439705,,,,,,,,,,,,,,,,,,4,001,2022-12-16_11h01.16.617,00_bat_bachelor,2022.2.4,59.98039911517736,
,,,,,,,,,,,,1,0,1,0,55,0,55,0,,,,,,,55,,,0.2,4185.303874718913,Y,None,nogo,None,1,,,,,,,,,,,,,,,,,,,4,001,2022-12-16_11h01.16.617,00_bat_bachelor,2022.2.4,59.98039911517736,
,,,,,,,,,,,,1,0,1,0,56,0,56,0,,,,,,,56,,,0.2,4186.304965629053,X,d,go,d,1,0.04814266067114659,,,,,,,,,,,,,,,,,,4,001,2022-12-16_11h01.16.617,00_bat_bachelor,2022.2.4,59.98039911517736,
,,,,,,,,,,,,1,0,1,0,57,0,57,0,,,,,,,57,,,0.2,4186.655166695928,Y,l,go,l,1,0.4974783691141056,,,,,,,,,,,,,,,,,,4,001,2022-12-16_11h01.16.617,00_bat_bachelor,2022.2.4,59.98039911517736,
,,,,,,,,,,,,1,0,1,0,58,0,58,0,,,,,,,58,,,0.2,4187.455791472283,X,d,go,d,1,0.3522248949302593,,,,,,,,,,,,,,,,,,4,001,2022-12-16_11h01.16.617,00_bat_bachelor,2022.2.4,59.98039911517736,
,,,,,,,,,,,,1,0,1,0,59,0,59,0,,,,,,,59,,,0.2,4188.122785088766,X,None,nogo,l,0,0.21386403348878957,,,,,,,,,,,,,,,,,,4,001,2022-12-16_11h01.16.617,00_bat_bachelor,2022.2.4,59.98039911517736,
,,,,,,,,,,,,1,0,1,0,60,0,60,0,,,,,,,60,,,0.2,4188.63993759024,Y,l,go,None,0,,4189.440481396829,,,,,,,,,,,,,,,,,4,001,2022-12-16_11h01.16.617,00_bat_bachelor,2022.2.4,59.98039911517736,
,,,,,,,,,,,,1,0,1,0,61,0,61,0,,,,,,,61,,,0.2,4189.640772015293,X,d,go,d,1,0.023562273199786432,,,,,,,,,,,,,,,,,,4,001,2022-12-16_11h01.16.617,00_bat_bachelor,2022.2.4,59.98039911517736,
,,,,,,,,,,,,1,0,1,0,62,0,62,0,,,,,,,62,,,0.2,4189.974297187204,Y,l,go,l,1,0.6333131674909964,,,,,,,,,,,,,,,,,,4,001,2022-12-16_11h01.16.617,00_bat_bachelor,2022.2.4,59.98039911517736,
,,,,,,,,,,,,1,0,1,0,63,0,63,0,,,,,,,63,,,0.2,4190.908280638338,X,d,go,d,1,0.4199995061062509,,,,,,,,,,,,,,,,,,4,001,2022-12-16_11h01.16.617,00_bat_bachelor,2022.2.4,59.98039911517736,
,,,,,,,,,,,,1,0,1,0,64,0,64,0,,,,,,,64,,,0.2,4191.642256622799,Y,l,go,l,1,0.4381260691297939,,,,,,,,,,,,,,,,,,4,001,2022-12-16_11h01.16.617,00_bat_bachelor,2022.2.4,59.98039911517736,
,,,,,,,,,,,,1,0,1,0,65,0,65,0,,,,,,,65,,,0.2,4192.392721835364,Y,None,nogo,d,0,0.4236203581094742,,,,,,,,,,,,,,,,,,4,001,2022-12-16_11h01.16.617,00_bat_bachelor,2022.2.4,59.98039911517736,
,,,,,,,,,,,,1,0,1,0,66,0,66,0,,,,,,,66,,,0.2,4193.12649612267,X,d,go,None,0,,,,,,,,,,,,,,,,,,,4,001,2022-12-16_11h01.16.617,00_bat_bachelor,2022.2.4,59.98039911517736,
,,,,,,,,,,,,1,0,1,0,67,0,67,0,,,,,,,67,,,0.2,4194.127455638751,Y,l,go,l,1,0.32116983451123815,,,,,,,,,,,,,,,,,,4,001,2022-12-16_11h01.16.617,00_bat_bachelor,2022.2.4,59.98039911517736,
,,,,,,,,,,,,1,0,1,0,68,0,68,0,,,,,,,68,,,0.2,4194.761373829213,X,d,go,d,1,0.5990842858154792,,,,,,,,,,,,,,,,,,4,001,2022-12-16_11h01.16.617,00_bat_bachelor,2022.2.4,59.98039911517736,
,,,,,,,,,,,,1,0,1,0,69,0,69,0,,,,,,,69,,,0.2,4195.66195361159,Y,l,go,l,1,0.44986765629437286,,,,,,,,,,,,,,,,,,4,001,2022-12-16_11h01.16.617,00_bat_bachelor,2022.2.4,59.98039911517736,
,,,,,,,,,,,,1,0,1,0,70,0,70,0,,,,,,,70,,,0.2,4196.412564278857,Y,None,nogo,d,0,0.4039975511986995,,,,,,,,,,,,,,,,,,4,001,2022-12-16_11h01.16.617,00_bat_bachelor,2022.2.4,59.98039911517736,
,,,,,,,,,,,,1,0,1,0,71,0,71,0,,,,,,,71,,,0.2,4197.1295526104805,X,d,go,None,0,,,,,,,,,,,,,,,,,,,4,001,2022-12-16_11h01.16.617,00_bat_bachelor,2022.2.4,59.98039911517736,
,,,,,,,,,,,,1,0,1,0,72,0,72,0,,,,,,,72,,,0.2,4198.130554793272,Y,l,go,l,1,0.2849312539183302,,,,,,,,,,,,,,,,,,4,001,2022-12-16_11h01.16.617,00_bat_bachelor,2022.2.4,59.98039911517736,
,,,,,,,,,,,,1,0,1,0,73,0,73,0,,,,,,,73,,,0.2,4198.731053799813,X,d,go,None,0,,4199.531361000103,,,,,,,,,,,,,,,,,4,001,2022-12-16_11h01.16.617,00_bat_bachelor,2022.2.4,59.98039911517736,
,,,,,,,,,,,,1,0,1,0,74,0,74,0,,,,,,,74,,,0.2,4199.73176070959,X,None,nogo,d,0,0.37985498232592363,,,,,,,,,,,,,,,,,,4,001,2022-12-16_11h01.16.617,00_bat_bachelor,2022.2.4,59.98039911517736,
,,,,,,,,,,,,1,0,1,0,75,0,75,0,,,,,,,75,,,0.2,4200.415393372503,Y,l,go,l,1,0.5132039601303404,,,,,,,,,,,,,,,,,,4,001,2022-12-16_11h01.16.617,00_bat_bachelor,2022.2.4,59.98039911517736,
,,,,,,,,,,,,1,0,1,0,76,0,76,0,,,,,,,76,,,0.2,4201.2329936804745,X,d,go,d,1,0.4306400012719678,,,,,,,,,,,,,,,,,,4,001,2022-12-16_11h01.16.617,00_bat_bachelor,2022.2.4,59.98039911517736,
,,,,,,,,,,,,1,0,1,0,77,0,77,0,,,,,,,77,,,0.2,4201.966628816124,Y,l,go,l,1,0.35331725962169,,,,,,,,,,,,,,,,,,4,001,2022-12-16_11h01.16.617,00_bat_bachelor,2022.2.4,59.98039911517736,
,,,,,,,,,,,,1,0,1,0,78,0,78,0,,,,,,,78,,,0.2,4202.634008372377,X,d,go,None,0,,,,,,,,,,,,,,,,,,,4,001,2022-12-16_11h01.16.617,00_bat_bachelor,2022.2.4,59.98039911517736,
,,,,,,,,,,,,1,0,1,0,79,0,79,0,,,,,,,79,,,0.2,4203.634813221637,Y,l,go,None,0,,,,,,,,,,,,,,,,,,,4,001,2022-12-16_11h01.16.617,00_bat_bachelor,2022.2.4,59.98039911517736,
,,,,,,,,,,,,1,0,1,0,80,0,80,0,,,,,,,80,,,0.2,4204.635471646514,X,d,go,d,1,0.036179982402245514,,,,,,,,,,,,,,,,,,4,001,2022-12-16_11h01.16.617,00_bat_bachelor,2022.2.4,59.98039911517736,
,,,,,,,,,,,,1,0,1,0,81,0,81,0,,,,,,,81,,,0.2,4204.985851137797,Y,l,go,l,1,0.6309761955490103,,,,,,,,,,,,,,,,,,4,001,2022-12-16_11h01.16.617,00_bat_bachelor,2022.2.4,59.98039911517736,
,,,,,,,,,,,,1,0,1,0,82,0,82,0,,,,,,,82,,,0.2,4205.919799679803,X,d,go,d,1,0.401068093808135,,,,,,,,,,,,,,,,,,4,001,2022-12-16_11h01.16.617,00_bat_bachelor,2022.2.4,59.98039911517736,
,,,,,,,,,,,,1,0,1,0,83,0,83,0,,,,,,,83,,,0.2,4206.637020254086,Y,l,go,l,1,0.4513037789001828,,,,,,,,,,,,,,,,,,4,001,2022-12-16_11h01.16.617,00_bat_bachelor,2022.2.4,59.98039911517736,
,,,,,,,,,,,,1,0,1,0,84,0,84,0,,,,,,,84,,,0.2,4207.404314573883,X,d,go,d,1,0.611957510423963,,,,,,,,,,,,,,,,,,4,001,2022-12-16_11h01.16.617,00_bat_bachelor,2022.2.4,59.98039911517736,
,,,,,,,,,,,,1,0,1,0,85,0,85,0,,,,,,,85,,,0.2,4208.32162406946,Y,l,go,l,1,0.3022301797900582,,,,,,,,,,,,,,,,,,4,001,2022-12-16_11h01.16.617,00_bat_bachelor,2022.2.4,59.98039911517736,
,,,,,,,,,,,,1,0,1,0,86,0,86,0,,,,,,,86,,,0.2,4208.938784910337,Y,None,nogo,None,1,,4209.739554171698,,,,,,,,,,,,,,,,,4,001,2022-12-16_11h01.16.617,00_bat_bachelor,2022.2.4,59.98039911517736,
,,,,,,,,,,,,1,0,1,0,87,0,87,0,,,,,,,87,,,0.2,4209.939568426256,Y,None,nogo,d,0,0.0767763853946235,,,,,,,,,,,,,,,,,,4,001,2022-12-16_11h01.16.617,00_bat_bachelor,2022.2.4,59.98039911517736,
,,,,,,,,,,,,1,0,1,0,88,0,88,0,,,,,,,88,,,0.2,4210.323184798239,X,d,go,None,0,,,,,,,,,,,,,,,,,,,4,001,2022-12-16_11h01.16.617,00_bat_bachelor,2022.2.4,59.98039911517736,
,,,,,,,,,,,,1,0,1,0,89,0,89,0,,,,,,,89,,,0.2,4211.3239964354,Y,l,go,l,1,0.051788239972665906,,,,,,,,,,,,,,,,,,4,001,2022-12-16_11h01.16.617,00_bat_bachelor,2022.2.4,59.98039911517736,
,,,,,,,,,,,,1,0,1,0,90,0,90,0,,,,,,,90,,,0.2,4211.69093351849,X,d,go,None,0,,,,,,,,,,,,,,,,,,,4,001,2022-12-16_11h01.16.617,00_bat_bachelor,2022.2.4,59.98039911517736,
,,,,,,,,,,,,1,0,1,0,91,0,91,0,,,,,,,91,,,0.2,4212.691667579798,X,None,nogo,d,0,0.04470362703432329,,,,,,,,,,,,,,,,,,4,001,2022-12-16_11h01.16.617,00_bat_bachelor,2022.2.4,59.98039911517736,
,,,,,,,,,,,,1,0,1,0,92,0,92,0,,,,,,,92,,,0.2,4213.041717858636,Y,l,go,l,1,0.49545509442395996,,,,,,,,,,,,,,,,,,4,001,2022-12-16_11h01.16.617,00_bat_bachelor,2022.2.4,59.98039911517736,
,,,,,,,,,,,,1,0,1,0,93,0,93,0,,,,,,,93,,,0.2,4213.842563241269,X,d,go,d,1,0.4788184722419828,,,,,,,,,,,,,,,,,,4,001,2022-12-16_11h01.16.617,00_bat_bachelor,2022.2.4,59.98039911517736,
,,,,,,,,,,,,1,0,1,0,94,0,94,0,,,,,,,94,,,0.2,4214.626478183258,X,None,nogo,l,0,0.47821435042715166,,,,,,,,,,,,,,,,,,4,001,2022-12-16_11h01.16.617,00_bat_bachelor,2022.2.4,59.98039911517736,
,,,,,,,,,,,,1,0,1,0,95,0,95,0,,,,,,,95,,,0.2,4215.410372276732,Y,l,go,None,0,,4216.210772568025,,,,,,,,,,,,,,,,,4,001,2022-12-16_11h01.16.617,00_bat_bachelor,2022.2.4,59.98039911517736,
,,,,,,,,,,,,1,0,1,0,96,0,96,0,,,,,,,96,,,0.2,4216.411241610898,X,d,go,d,1,0.2766330640442902,,,,,,,,,,,,,,,,,,4,001,2022-12-16_11h01.16.617,00_bat_bachelor,2022.2.4,59.98039911517736,
,,,,,,,,,,,,1,0,1,0,97,0,97,0,,,,,,,97,,,0.2,4216.995004601224,Y,l,go,l,1,0.4938366686255904,,,,,,,,,,,,,,,,,,4,001,2022-12-16_11h01.16.617,00_bat_bachelor,2022.2.4,59.98039911517736,
,,,,,,,,,,,,1,0,1,0,98,0,98,0,,,,,,,98,,,0.2,4217.795529498704,X,d,go,d,1,0.33265299716731533,,,,,,,,,,,,,,,,,,4,001,2022-12-16_11h01.16.617,00_bat_bachelor,2022.2.4,59.98039911517736,
,,,,,,,,,,,,1,0,1,0,99,0,99,0,,,,,,,99,,,0.2,4218.429421507317,X,None,nogo,None,1,,4219.229916344164,,,,,,,,,,,,,,,,,4,001,2022-12-16_11h01.16.617,00_bat_bachelor,2022.2.4,59.98039911517736,
,,,,,,,,,,,,1,0,1,0,100,0,100,0,,,,,,,100,,,0.2,4219.430122114063,X,None,nogo,None,1,,,,,,,,,,,,,,,,,,,4,001,2022-12-16_11h01.16.617,00_bat_bachelor,2022.2.4,59.98039911517736,
,,,,,,,,,,,,1,0,1,0,101,0,101,0,,,,,,,101,,,0.2,4220.430902236025,Y,l,go,l,1,0.2886762272391934,,,,,,,,,,,,,,,,,,4,001,2022-12-16_11h01.16.617,00_bat_bachelor,2022.2.4,59.98039911517736,
,,,,,,,,,,,,1,0,1,0,102,0,102,0,,,,,,,102,,,0.2,4221.031343060706,X,d,go,d,1,0.47303907269088086,,,,,,,,,,,,,,,,,,4,001,2022-12-16_11h01.16.617,00_bat_bachelor,2022.2.4,59.98039911517736,
,,,,,,,,,,,,1,0,1,0,103,0,103,0,,,,,,,103,,,0.2,4221.8153336391115,X,None,nogo,None,1,,4222.615769809228,,,,,,,,,,,,,,,,,4,001,2022-12-16_11h01.16.617,00_bat_bachelor,2022.2.4,59.98039911517736,
,,,,,,,,,,,,1,0,1,0,104,0,104,0,,,,,,,104,,,0.2,4222.816028427667,Y,l,go,l,1,0.4161362296290463,,,,,,,,,,,,,,,,,,4,001,2022-12-16_11h01.16.617,00_bat_bachelor,2022.2.4,59.98039911517736,
,,,,,,,,,,,,1,0,1,0,105,0,105,0,,,,,,,105,,,0.2,4223.533178213998,X,d,go,d,1,0.21211227422463708,,,,,,,,,,,,,,,,,,4,001,2022-12-16_11h01.16.617,00_bat_bachelor,2022.2.4,59.98039911517736,
,,,,,,,,,,,,1,0,1,0,106,0,106,0,,,,,,,106,,,0.2,4224.050348654884,Y,l,go,l,1,0.5893354278960032,,,,,,,,,,,,,,,,,,4,001,2022-12-16_11h01.16.617,00_bat_bachelor,2022.2.4,59.98039911517736,
,,,,,,,,,,,,1,0,1,0,107,0,107,0,,,,,,,107,,,0.2,4224.950774740151,Y,None,nogo,None,1,,,,,,,,,,,,,,,,,,,4,001,2022-12-16_11h01.16.617,00_bat_bachelor,2022.2.4,59.98039911517736,
,,,,,,,,,,,,1,0,1,0,108,0,108,0,,,,,,,108,,,0.2,4225.951734741073,X,d,go,d,1,0.2398257556342287,,,,,,,,,,,,,,,,,,4,001,2022-12-16_11h01.16.617,00_bat_bachelor,2022.2.4,59.98039911517736,
,,,,,,,,,,,,1,0,1,0,109,0,109,0,,,,,,,109,,,0.2,4226.502219638525,Y,l,go,l,1,0.44124946610827465,,,,,,,,,,,,,,,,,,4,001,2022-12-16_11h01.16.617,00_bat_bachelor,2022.2.4,59.98039911517736,
,,,,,,,,,,,,1,0,1,0,110,0,110,0,,,,,,,110,,,0.2,4227.252571396442,X,d,go,d,1,0.3961221496138023,,,,,,,,,,,,,,,,,,4,001,2022-12-16_11h01.16.617,00_bat_bachelor,2022.2.4,59.98039911517736,
,,,,,,,,,,,,1,0,1,0,111,0,111,0,,,,,,,111,,,0.2,4227.953414742704,Y,l,go,l,1,0.5595787929778453,,,,,,,,,,,,,,,,,,4,001,2022-12-16_11h01.16.617,00_bat_bachelor,2022.2.4,59.98039911517736,
,,,,,,,,,,,,1,0,1,0,112,0,112,0,,,,,,,112,,,0.2,4228.8206330381945,Y,None,nogo,None,1,,,,,,,,,,,,,,,,,,,4,001,2022-12-16_11h01.16.617,00_bat_bachelor,2022.2.4,59.98039911517736,
,,,,,,,,,,,,1,0,1,0,113,0,113,0,,,,,,,113,,,0.2,4229.821442735949,X,d,go,l,0,0.6276782529457705,,,,,,,,,,,,,,,,,,4,001,2022-12-16_11h01.16.617,00_bat_bachelor,2022.2.4,59.98039911517736,
,,,,,,,,,,,,1,0,1,0,114,0,114,0,,,,,,,114,,,0.2,4230.755675884298,Y,l,go,None,0,,4231.55581047837,,,,,,,,,,,,,,,,,4,001,2022-12-16_11h01.16.617,00_bat_bachelor,2022.2.4,59.98039911517736,
,,,,,,,,,,,,1,0,1,0,115,0,115,0,,,,,,,115,,,0.2,4231.756232490894,X,d,go,d,1,0.2290601694403449,,,,,,,,,,,,,,,,,,4,001,2022-12-16_11h01.16.617,00_bat_bachelor,2022.2.4,59.98039911517736,
,,,,,,,,,,,,1,0,1,0,116,0,116,0,,,,,,,116,,,0.2,4232.289956644803,Y,l,go,l,1,0.4142715005436912,,,,,,,,,,,,,,,,,,4,001,2022-12-16_11h01.16.617,00_bat_bachelor,2022.2.4,59.98039911517736,
,,,,,,,,,,,,1,0,1,0,117,0,117,0,,,,,,,117,,,0.2,4233.00721358275,X,d,go,d,1,0.4975976419664221,,,,,,,,,,,,,,,,,,4,001,2022-12-16_11h01.16.617,00_bat_bachelor,2022.2.4,59.98039911517736,
,,,,,,,,,,,,1,0,1,0,118,0,118,0,,,,,,,118,,,0.2,4233.807781146941,Y,l,go,l,1,0.5286017932376126,,,,,,,,,,,,,,,,,,4,001,2022-12-16_11h01.16.617,00_bat_bachelor,2022.2.4,59.98039911517736,
,,,,,,,,,,,,1,0,1,0,119,0,119,0,,,,,,,119,,,0.2,4234.641968622513,X,d,go,d,1,0.38207801479438785,,,,,,,,,,,,,,,,,,4,001,2022-12-16_11h01.16.617,00_bat_bachelor,2022.2.4,59.98039911517736,
,,,,,,,,,,,,1,0,1,0,120,0,120,0,,,,,,,120,,,0.2,4235.325493648968,Y,l,go,l,1,0.4183355044951895,,,,,,,,,,,,,,,,,,4,001,2022-12-16_11h01.16.617,00_bat_bachelor,2022.2.4,59.98039911517736,
,,,,,,,,,,,,1,0,1,0,121,0,121,0,,,,,,,121,,,0.2,4236.05953314864,Y,None,nogo,d,0,0.42014835473673884,,,,,,,,,,,,,,,,,,4,001,2022-12-16_11h01.16.617,00_bat_bachelor,2022.2.4,59.98039911517736,
,,,,,,,,,,,,1,0,1,0,122,0,122,0,,,,,,,122,,,0.2,4236.793186708543,X,d,go,l,0,0.2632265056017786,,,,,,,,,,,,,,,,,,4,001,2022-12-16_11h01.16.617,00_bat_bachelor,2022.2.4,59.98039911517736,
,,,,,,,,,,,,1,0,1,0,123,0,123,0,,,,,,,123,,,0.2,4237.360247622055,Y,l,go,d,0,0.6249359472567448,,,,,,,,,,,,,,,,,,4,001,2022-12-16_11h01.16.617,00_bat_bachelor,2022.2.4,59.98039911517736,
,,,,,,,,,,,,1,0,1,0,124,0,124,0,,,,,,,124,,,0.2,4238.294286345976,Y,None,nogo,l,0,0.63306977332104,,,,,,,,,,,,,,,,,,4,001,2022-12-16_11h01.16.617,00_bat_bachelor,2022.2.4,59.98039911517736,
,,,,,,,,,,,,1,0,1,0,125,0,125,0,,,,,,,125,,,0.2,4239.228324100201,X,d,go,None,0,,,,,,,,,,,,,,,,,,,4,001,2022-12-16_11h01.16.617,00_bat_bachelor,2022.2.4,59.98039911517736,
,,,,,,,,,,,,1,0,1,0,126,0,126,0,,,,,,,126,,,0.2,4240.229084828199,Y,l,go,d,0,0.2510194634523941,,,,,,,,,,,,,,,,,,4,001,2022-12-16_11h01.16.617,00_bat_bachelor,2022.2.4,59.98039911517736,
,,,,,,,,,,,,1,0,1,0,127,0,127,0,,,,,,,127,,,0.2,4240.796207802385,X,d,go,None,0,,,,,,,,,,,,,,,,,,,4,001,2022-12-16_11h01.16.617,00_bat_bachelor,2022.2.4,59.98039911517736,
,,,,,,,,,,,,1,0,1,0,128,0,128,0,,,,,,,128,,,0.2,4241.796969984949,Y,l,go,None,0,,,,,,,,,,,,,,,,,,,4,001,2022-12-16_11h01.16.617,00_bat_bachelor,2022.2.4,59.98039911517736,
,,,,,,,,,,,,1,0,1,0,129,0,129,0,,,,,,,129,,,0.2,4242.797745743272,X,d,go,d,1,0.1946906815719558,,,,,,,,,,,,,,,,,,4,001,2022-12-16_11h01.16.617,00_bat_bachelor,2022.2.4,59.98039911517736,
,,,,,,,,,,,,1,0,1,0,130,0,130,0,,,,,,,130,,,0.2,4243.298350834768,X,None,nogo,l,0,0.09380379586946219,,,,,,,,,,,,,,,,,,4,001,2022-12-16_11h01.16.617,00_bat_bachelor,2022.2.4,59.98039911517736,
,,,,,,,,,,,,1,0,1,0,131,0,131,0,,,,,,,131,,,0.2,4243.698433646961,Y,l,go,None,0,,4244.499299878109,,,,,,,,,,,,,,,,,4,001,2022-12-16_11h01.16.617,00_bat_bachelor,2022.2.4,59.98039911517736,
,,,,,,,,,,,,1,0,1,0,132,0,132,0,,,,,,,132,,,0.2,4244.699394132753,X,d,go,d,1,0.2770931857085088,,,,,,,,,,,,,,,,,,4,001,2022-12-16_11h01.16.617,00_bat_bachelor,2022.2.4,59.98039911517736,
,,,,,,,,,,,,1,0,1,0,133,0,133,0,,,,,,,133,,,0.2,4245.2830266987,Y,l,go,l,1,0.42987490961968433,,,,,,,,,,,,,,,,,,4,001,2022-12-16_11h01.16.617,00_bat_bachelor,2022.2.4,59.98039911517736,
,,,,,,,,,,,,1,0,1,0,134,0,134,0,,,,,,,134,,,0.2,4246.016950804318,Y,None,nogo,d,0,0.5751885050849523,,,,,,,,,,,,,,,,,,4,001,2022-12-16_11h01.16.617,00_bat_bachelor,2022.2.4,59.98039911517736,
,,,,,,,,,,,,1,0,1,0,135,0,135,0,,,,,,,135,,,0.2,4246.900891055411,X,d,go,None,0,,,,,,,,,,,,,,,,,,,4,001,2022-12-16_11h01.16.617,00_bat_bachelor,2022.2.4,59.98039911517736,
,,,,,,,,,,,,1,0,1,0,136,0,136,0,,,,,,,136,,,0.2,4247.901909238222,Y,l,go,l,1,0.22763180441688746,,,,,,,,,,,,,,,,,,4,001,2022-12-16_11h01.16.617,00_bat_bachelor,2022.2.4,59.98039911517736,
,,,,,,,,,,,,1,0,1,0,137,0,137,0,,,,,,,137,,,0.2,4248.435657634574,X,d,go,None,0,,,,,,,,,,,,,,,,,,,4,001,2022-12-16_11h01.16.617,00_bat_bachelor,2022.2.4,59.98039911517736,
,,,,,,,,,,,,1,0,1,0,138,0,138,0,,,,,,,138,,,0.2,4249.436135695651,Y,l,go,l,1,0.40318736860353965,,,,,,,,,,,,,,,,,,4,001,2022-12-16_11h01.16.617,00_bat_bachelor,2022.2.4,59.98039911517736,
,,,,,,,,,,,,1,0,1,0,139,0,139,0,,,,,,,139,,,0.2,4250.153348027496,X,d,go,d,1,0.2145147007977357,,,,,,,,,,,,,,,,,,4,001,2022-12-16_11h01.16.617,00_bat_bachelor,2022.2.4,59.98039911517736,
,,,,,,,,,,,,1,0,1,0,140,0,140,0,,,,,,,140,,,0.2,4250.670725983742,Y,l,go,l,1,0.3856760788912652,,,,,,,,,,,,,,,,,,4,001,2022-12-16_11h01.16.617,00_bat_bachelor,2022.2.4,59.98039911517736,
,,,,,,,,,,,,1,0,1,0,141,0,141,0,,,,,,,141,,,0.2,4251.371227511496,X,d,go,d,1,0.3576115668111015,,,,,,,,,,,,,,,,,,4,001,2022-12-16_11h01.16.617,00_bat_bachelor,2022.2.4,59.98039911517736,
,,,,,,,,,,,,1,0,1,0,142,0,142,0,,,,,,,142,,,0.2,4252.0381299763685,Y,l,go,l,1,0.47332658812229056,,,,,,,,,,,,,,,,,,4,001,2022-12-16_11h01.16.617,00_bat_bachelor,2022.2.4,59.98039911517736,
,,,,,,,,,,,,1,0,1,0,143,0,143,0,,,,,,,143,,,0.2,4252.82233873682,X,d,go,d,1,0.41064386068319436,,,,,,,,,,,,,,,,,,4,001,2022-12-16_11h01.16.617,00_bat_bachelor,2022.2.4,59.98039911517736,
,,,,,,,,,,,,1,0,1,0,144,0,144,0,,,,,,,144,,,0.2,4253.539382826071,X,None,nogo,l,0,0.41337016635225154,,,,,,,,,,,,,,,,,,4,001,2022-12-16_11h01.16.617,00_bat_bachelor,2022.2.4,59.98039911517736,
,,,,,,,,,,,,1,0,1,0,145,0,145,0,,,,,,,145,,,0.2,4254.25672558228,Y,l,go,None,0,,,,,,,,,,,,,,,,,,,4,001,2022-12-16_11h01.16.617,00_bat_bachelor,2022.2.4,59.98039911517736,
,,,,,,,,,,,,1,0,1,0,146,0,146,0,,,,,,,146,,,0.2,4255.257521704261,X,d,go,d,1,0.022777787584345788,,,,,,,,,,,,,,,,,,4,001,2022-12-16_11h01.16.617,00_bat_bachelor,2022.2.4,59.98039911517736,
,,,,,,,,,,,,1,0,1,0,147,0,147,0,,,,,,,147,,,0.2,4255.591088573172,Y,l,go,None,0,,,,,,,,,,,,,,,,,,,4,001,2022-12-16_11h01.16.617,00_bat_bachelor,2022.2.4,59.98039911517736,
,,,,,,,,,,,,1,0,1,0,148,0,148,0,,,,,,,148,,,0.2,4256.5915957251855,Y,None,nogo,None,1,,,,,,,,,,,,,,,,,,,4,001,2022-12-16_11h01.16.617,00_bat_bachelor,2022.2.4,59.98039911517736,
,,,,,,,,,,,,1,0,1,0,149,0,149,0,,,,,,,149,,,0.2,4257.592371483508,X,d,go,None,0,,,,,,,,,,,,,,,,,,,4,001,2022-12-16_11h01.16.617,00_bat_bachelor,2022.2.4,59.98039911517736,
,,,,,,,,,,,,1,0,1,0,150,0,150,0,,,,,,,150,,,0.2,4258.593137544856,Y,l,go,l,1,0.3021569675911451,,,,,,,,,,,,,,,,,,4,001,2022-12-16_11h01.16.617,00_bat_bachelor,2022.2.4,59.98039911517736,
,,,,,,,,,,,,1,0,1,0,151,0,151,0,,,,,,,151,,,0.2,4259.210471476821,X,d,go,None,0,,,,,,,,,,,,,,,,,,,4,001,2022-12-16_11h01.16.617,00_bat_bachelor,2022.2.4,59.98039911517736,
,,,,,,,,,,,,1,0,1,0,152,0,152,0,,,,,,,152,,,0.2,4260.211252568493,Y,l,go,d,0,0.029434278898406774,,,,,,,,,,,,,,,,,,4,001,2022-12-16_11h01.16.617,00_bat_bachelor,2022.2.4,59.98039911517736,
,,,,,,,,,,,,1,0,1,0,153,0,153,0,,,,,,,153,,,0.2,4260.5447491343075,X,d,go,l,0,0.2236356793291634,,,,,,,,,,,,,,,,,,4,001,2022-12-16_11h01.16.617,00_bat_bachelor,2022.2.4,59.98039911517736,
,,,,,,,,,,,,1,0,1,0,154,0,154,0,,,,,,,154,,,0.2,4261.078598379245,Y,l,go,None,0,,,,,,,,,,,,,,,,,,,4,001,2022-12-16_11h01.16.617,00_bat_bachelor,2022.2.4,59.98039911517736,
,,,,,,,,,,,,1,0,1,0,155,0,155,0,,,,,,,155,,,0.2,4262.07939304669,Y,None,nogo,None,1,,,,,,,,,,,,,,,,,,,4,001,2022-12-16_11h01.16.617,00_bat_bachelor,2022.2.4,59.98039911517736,
,,,,,,,,,,,,1,0,1,0,156,0,156,0,,,,,,,156,,,0.2,4263.080120320112,X,d,go,d,1,0.10390610867762007,,,,,,,,,,,,,,,,,,4,001,2022-12-16_11h01.16.617,00_bat_bachelor,2022.2.4,59.98039911517736,
,,,,,,,,,,,,1,0,1,0,157,0,157,0,,,,,,,157,,,0.2,4263.496874663644,Y,l,go,l,1,0.24742721754591912,,,,,,,,,,,,,,,,,,4,001,2022-12-16_11h01.16.617,00_bat_bachelor,2022.2.4,59.98039911517736,
,,,,,,,,,,,,1,0,1,0,158,0,158,0,,,,,,,158,,,0.2,4264.047569500675,X,d,go,d,1,0.22476052890124265,,,,,,,,,,,,,,,,,,4,001,2022-12-16_11h01.16.617,00_bat_bachelor,2022.2.4,59.98039911517736,
,,,,,,,,,,,,1,0,1,0,159,0,159,0,,,,,,,159,,,0.2,4264.581395957721,Y,l,go,l,1,0.5389688335999381,,,,,,,,,,,,,,,,,,4,001,2022-12-16_11h01.16.617,00_bat_bachelor,2022.2.4,59.98039911517736,
,,,,,,,,,,,,1,0,1,0,160,0,160,0,,,,,,,160,,,0.2,4265.431914115805,Y,None,nogo,None,1,,,,,,,,,,,,,,,,,,,4,001,2022-12-16_11h01.16.617,00_bat_bachelor,2022.2.4,59.98039911517736,
,,,,,,,,,,,,1,0,1,0,161,0,161,0,,,,,,,161,,,0.2,4266.432516298199,X,d,go,d,1,0.11151484334550332,,,,,,,,,,,,,,,,,,4,001,2022-12-16_11h01.16.617,00_bat_bachelor,2022.2.4,59.98039911517736,
,,,,,,,,,,,,1,0,1,0,162,0,162,0,,,,,,,162,,,0.2,4266.849659490588,Y,l,go,l,1,0.38224965131666977,,,,,,,,,,,,,,,,,,4,001,2022-12-16_11h01.16.617,00_bat_bachelor,2022.2.4,59.98039911517736,
,,,,,,,,,,,,1,0,1,0,163,0,163,0,,,,,,,163,,,0.2,4267.533555426475,X,d,go,None,0,,,,,,,,,,,,,,,,,,,4,001,2022-12-16_11h01.16.617,00_bat_bachelor,2022.2.4,59.98039911517736,
,,,,,,,,,,,,1,0,1,0,164,0,164,0,,,,,,,164,,,0.2,4268.534417972769,X,None,nogo,d,0,0.2503416446270421,,,,,,,,,,,,,,,,,,4,001,2022-12-16_11h01.16.617,00_bat_bachelor,2022.2.4,59.98039911517736,
,,,,,,,,,,,,1,0,1,0,165,0,165,0,,,,,,,165,,,0.2,4269.084737536716,X,None,nogo,l,0,0.3551242916873889,,,,,,,,,,,,,,,,,,4,001,2022-12-16_11h01.16.617,00_bat_bachelor,2022.2.4,59.98039911517736,
,,,,,,,,,,,,1,0,1,0,166,0,166,0,,,,,,,166,,,0.2,4269.75162545612,Y,l,go,None,0,,,,,,,,,,,,,,,,,,,4,001,2022-12-16_11h01.16.617,00_bat_bachelor,2022.2.4,59.98039911517736,
,,,,,,,,,,,,1,0,1,0,167,0,167,0,,,,,,,167,,,0.2,4270.752713942027,X,d,go,d,1,0.3996125772391679,,,,,,,,,,,,,,,,,,4,001,2022-12-16_11h01.16.617,00_bat_bachelor,2022.2.4,59.98039911517736,
,,,,,,,,,,,,1,0,1,0,168,0,168,0,,,,,,,168,,,0.2,4271.453176681869,Y,l,go,l,1,0.21214621364197228,,,,,,,,,,,,,,,,,,4,001,2022-12-16_11h01.16.617,00_bat_bachelor,2022.2.4,59.98039911517736,
,,,,,,,,,,,,1,0,1,0,169,0,169,0,,,,,,,169,,,0.2,4271.970222031727,Y,None,nogo,None,1,,,,,,,,,,,,,,,,,,,4,001,2022-12-16_11h01.16.617,00_bat_bachelor,2022.2.4,59.98039911517736,
,,,,,,,,,,,,1,0,1,0,170,0,170,0,,,,,,,170,,,0.2,4272.971050638604,X,d,go,None,0,,,,,,,,,,,,,,,,,,,4,001,2022-12-16_11h01.16.617,00_bat_bachelor,2022.2.4,59.98039911517736,
,,,,,,,,,,,,1,0,1,0,171,0,171,0,,,,,,,171,,,0.2,4273.971516578444,Y,l,go,None,0,,,,,,,,,,,,,,,,,,,4,001,2022-12-16_11h01.16.617,00_bat_bachelor,2022.2.4,59.98039911517736,
,,,,,,,,,,,,1,0,1,0,172,0,172,0,,,,,,,172,,,0.2,4274.972554155203,X,d,go,d,1,0.051731027793721296,,,,,,,,,,,,,,,,,,4,001,2022-12-16_11h01.16.617,00_bat_bachelor,2022.2.4,59.98039911517736,
,,,,,,,,,,,,1,0,1,0,173,0,173,0,,,,,,,173,,,0.2,4275.339249298675,X,None,nogo,l,0,0.13261546986177564,,,,,,,,,,,,,,,,,,4,001,2022-12-16_11h01.16.617,00_bat_bachelor,2022.2.4,59.98039911517736,
,,,,,,,,,,,,1,0,1,0,174,0,174,0,,,,,,,174,,,0.2,4275.773115901204,Y,l,go,None,0,,,,,,,,,,,,,,,,,,,4,001,2022-12-16_11h01.16.617,00_bat_bachelor,2022.2.4,59.98039911517736,
,,,,,,,,,,,,1,0,1,0,175,0,175,0,,,,,,,175,,,0.2,4276.773560992544,X,d,go,d,1,0.23368174968345556,,,,,,,,,,,,,,,,,,4,001,2022-12-16_11h01.16.617,00_bat_bachelor,2022.2.4,59.98039911517736,
,,,,,,,,,,,,1,0,1,0,176,0,176,0,,,,,,,176,,,0.2,4277.307422843558,X,None,nogo,None,1,,4278.108226529192,,,,,,,,,,,,,,,,,4,001,2022-12-16_11h01.16.617,00_bat_bachelor,2022.2.4,59.98039911517736,
,,,,,,,,,,,,1,0,1,0,177,0,177,0,,,,,,,177,,,0.2,4278.308379935406,Y,l,go,l,1,0.33190148128778674,,,,,,,,,,,,,,,,,,4,001,2022-12-16_11h01.16.617,00_bat_bachelor,2022.2.4,59.98039911517736,
,,,,,,,,,,,,1,0,1,0,178,0,178,0,,,,,,,178,,,0.2,4278.942062004426,X,d,go,d,1,0.4497401410044404,,,,,,,,,,,,,,,,,,4,001,2022-12-16_11h01.16.617,00_bat_bachelor,2022.2.4,59.98039911517736,
,,,,,,,,,,,,1,0,1,0,179,0,179,0,,,,,,,179,,,0.2,4279.692641156507,Y,l,go,l,1,0.6279929199226899,,,,,,,,,,,,,,,,,,4,001,2022-12-16_11h01.16.617,00_bat_bachelor,2022.2.4,59.98039911517736,
,,,,,,,,,,,,1,0,1,0,180,0,180,0,,,,,,,180,,,0.2,4280.6268888503255,X,d,go,d,1,0.5570294571662089,,,,,,,,,,,,,,,,,,4,001,2022-12-16_11h01.16.617,00_bat_bachelor,2022.2.4,59.98039911517736,
,,,,,,,,,,,,1,0,1,0,181,0,181,0,,,,,,,181,,,0.2,4281.494280236875,X,None,nogo,None,1,,,,,,,,,,,,,,,,,,,4,001,2022-12-16_11h01.16.617,00_bat_bachelor,2022.2.4,59.98039911517736,
,,,,,,,,,,,,1,0,1,0,182,0,182,0,,,,,,,182,,,0.2,4282.494881449587,Y,l,go,l,1,0.28925319750851486,,,,,,,,,,,,,,,,,,4,001,2022-12-16_11h01.16.617,00_bat_bachelor,2022.2.4,59.98039911517736,
,,,,,,,,,,,,1,0,1,0,183,0,183,0,,,,,,,183,,,0.2,4283.095174395319,X,d,go,d,1,0.5046871033846401,,,,,,,,,,,,,,,,,,4,001,2022-12-16_11h01.16.617,00_bat_bachelor,2022.2.4,59.98039911517736,
,,,,,,,,,,,,1,0,1,0,184,0,184,0,,,,,,,184,,,0.2,4283.912442581772,Y,l,go,l,1,0.4394303128210595,,,,,,,,,,,,,,,,,,4,001,2022-12-16_11h01.16.617,00_bat_bachelor,2022.2.4,59.98039911517736,
,,,,,,,,,,,,1,0,1,0,185,0,185,0,,,,,,,185,,,0.2,4284.663268037111,Y,None,nogo,None,1,,,,,,,,,,,,,,,,,,,4,001,2022-12-16_11h01.16.617,00_bat_bachelor,2022.2.4,59.98039911517736,
,,,,,,,,,,,,1,0,1,0,186,0,186,0,,,,,,,186,,,0.2,4285.663837734639,X,d,go,d,1,0.3364386978064431,,,,,,,,,,,,,,,,,,4,001,2022-12-16_11h01.16.617,00_bat_bachelor,2022.2.4,59.98039911517736,
,,,,,,,,,,,,1,0,1,0,187,0,187,0,,,,,,,187,,,0.2,4286.314517153471,Y,l,go,l,1,0.3744552195130382,,,,,,,,,,,,,,,,,,4,001,2022-12-16_11h01.16.617,00_bat_bachelor,2022.2.4,59.98039911517736,
,,,,,,,,,,,,1,0,1,0,188,0,188,0,,,,,,,188,,,0.2,4286.998445574252,X,d,go,d,1,0.5701514092943398,,,,,,,,,,,,,,,,,,4,001,2022-12-16_11h01.16.617,00_bat_bachelor,2022.2.4,59.98039911517736,
,,,,,,,,,,,,1,0,1,0,189,0,189,0,,,,,,,189,,,0.2,4287.882347522274,Y,l,go,l,1,0.5499220563360723,,,,,,,,,,,,,,,,,,4,001,2022-12-16_11h01.16.617,00_bat_bachelor,2022.2.4,59.98039911517736,
,,,,,,,,,,,,1,0,1,0,190,0,190,0,,,,,,,190,,,0.2,4288.732999498665,X,d,go,d,1,0.33889397291932255,,,,,,,,,,,,,,,,,,4,001,2022-12-16_11h01.16.617,00_bat_bachelor,2022.2.4,59.98039911517736,
,,,,,,,,,,,,1,0,1,0,191,0,191,0,,,,,,,191,,,0.2,4289.383490311258,Y,l,go,l,1,0.4416577089286875,,,,,,,,,,,,,,,,,,4,001,2022-12-16_11h01.16.617,00_bat_bachelor,2022.2.4,59.98039911517736,
,,,,,,,,,,,,1,0,1,0,192,0,192,0,,,,,,,192,,,0.2,4290.13412231188,Y,None,nogo,None,1,,,,,,,,,,,,,,,,,,,4,001,2022-12-16_11h01.16.617,00_bat_bachelor,2022.2.4,59.98039911517736,
,,,,,,,,,,,,1,0,1,0,193,0,193,0,,,,,,,193,,,0.2,4291.134641585115,X,d,go,d,1,0.1784046051761834,,,,,,,,,,,,,,,,,,4,001,2022-12-16_11h01.16.617,00_bat_bachelor,2022.2.4,59.98039911517736,
,,,,,,,,,,,,1,0,1,0,194,0,194,0,,,,,,,194,,,0.2,4291.618566902849,Y,l,go,l,1,0.46122718245896976,,,,,,,,,,,,,,,,,,4,001,2022-12-16_11h01.16.617,00_bat_bachelor,2022.2.4,59.98039911517736,
,,,,,,,,,,,,1,0,1,0,195,0,195,0,,,,,,,195,,,0.2,4292.385808374122,X,d,go,d,1,0.3498307107947767,,,,,,,,,,,,,,,,,,4,001,2022-12-16_11h01.16.617,00_bat_bachelor,2022.2.4,59.98039911517736,
,,,,,,,,,,,,1,0,1,0,196,0,196,0,,,,,,,196,,,0.2,4293.036224519979,Y,l,go,l,1,0.4202559911936987,,,,,,,,,,,,,,,,,,4,001,2022-12-16_11h01.16.617,00_bat_bachelor,2022.2.4,59.98039911517736,
,,,,,,,,,,,,1,0,1,0,197,0,197,0,,,,,,,197,,,0.2,4293.770244140847,X,d,go,d,1,0.46977216043160297,,,,,,,,,,,,,,,,,,4,001,2022-12-16_11h01.16.617,00_bat_bachelor,2022.2.4,59.98039911517736,
,,,,,,,,,,,,1,0,1,0,198,0,198,0,,,,,,,198,,,0.2,4294.554179446481,Y,l,go,l,1,0.4697682816477027,,,,,,,,,,,,,,,,,,4,001,2022-12-16_11h01.16.617,00_bat_bachelor,2022.2.4,59.98039911517736,
,,,,,,,,,,,,1,0,1,0,199,0,199,0,,,,,,,199,,,0.2,4295.337959600452,Y,None,nogo,d,0,0.4543394181964686,,,,,,,,,,,,,,,,,,4,001,2022-12-16_11h01.16.617,00_bat_bachelor,2022.2.4,59.98039911517736,
,,,,,,,,,,,,1,0,1,0,200,0,200,0,,,,,,,200,,,0.2,4296.1052990112075,X,d,go,l,0,0.1674043520761188,,,,,,,,,,,,,,,,,,4,001,2022-12-16_11h01.16.617,00_bat_bachelor,2022.2.4,59.98039911517736,
,,,,,,,,,,,,1,0,1,0,201,0,201,0,,,,,,,201,,,0.2,4296.589052207564,Y,l,go,None,0,,,,,,,,,,,,,,,,,,,4,001,2022-12-16_11h01.16.617,00_bat_bachelor,2022.2.4,59.98039911517736,
,,,,,,,,,,,,1,0,1,0,202,0,202,0,,,,,,,202,,,0.2,4297.589779481001,X,d,go,d,1,0.45796075504040346,,,,,,,,,,,,,,,,,,4,001,2022-12-16_11h01.16.617,00_bat_bachelor,2022.2.4,59.98039911517736,
,,,,,,,,,,,,1,0,1,0,203,0,203,0,,,,,,,203,,,0.2,4298.356953558265,Y,l,go,l,1,0.36326926927722525,,,,,,,,,,,,,,,,,,4,001,2022-12-16_11h01.16.617,00_bat_bachelor,2022.2.4,59.98039911517736,
,,,,,,,,,,,,1,0,1,0,204,0,204,0,,,,,,,204,,,0.2,4299.0242235386395,X,d,go,d,1,0.367979576883954,,,,,,,,,,,,,,,,,,4,001,2022-12-16_11h01.16.617,00_bat_bachelor,2022.2.4,59.98039911517736,
,,,,,,,,,,,,1,0,1,0,205,0,205,0,,,,,,,205,,,0.2,4299.708074383583,X,None,nogo,None,1,,,,,,,,,,,,,,,,,,,4,001,2022-12-16_11h01.16.617,00_bat_bachelor,2022.2.4,59.98039911517736,
,,,,,,,,,,,,1,0,1,0,206,0,206,0,,,,,,,206,,,0.2,4300.708972808701,Y,l,go,l,1,0.38029183124308474,,,,,,,,,,,,,,,,,,4,001,2022-12-16_11h01.16.617,00_bat_bachelor,2022.2.4,59.98039911517736,
,,,,,,,,,,,,1,0,1,0,207,0,207,0,,,,,,,207,,,0.2,4301.3924958957505,X,d,go,d,1,0.49508757892181166,,,,,,,,,,,,,,,,,,4,001,2022-12-16_11h01.16.617,00_bat_bachelor,2022.2.4,59.98039911517736,
,,,,,,,,,,,,1,0,1,0,208,0,208,0,,,,,,,208,,,0.2,4302.193356308708,X,None,nogo,None,1,,,,,,,,,,,,,,,,,,,4,001,2022-12-16_11h01.16.617,00_bat_bachelor,2022.2.4,59.98039911517736,
,,,,,,,,,,,,1,0,1,0,209,0,209,0,,,,,,,209,,,0.2,4303.193840187974,Y,l,go,l,1,0.40564846189226955,,,,,,,,,,,,,,,,,,4,001,2022-12-16_11h01.16.617,00_bat_bachelor,2022.2.4,59.98039911517736,
,,,,,,,,,,,,1,0,1,0,210,0,210,0,,,,,,,210,,,0.2,4303.911107792592,X,d,go,d,1,0.40809840365545824,,,,,,,,,,,,,,,,,,4,001,2022-12-16_11h01.16.617,00_bat_bachelor,2022.2.4,59.98039911517736,
,,,,,,,,,,,,1,0,1,0,211,0,211,0,,,,,,,211,,,0.2,4304.628278912278,Y,l,go,None,0,,,,,,,,,,,,,,,,,,,4,001,2022-12-16_11h01.16.617,00_bat_bachelor,2022.2.4,59.98039911517736,
,,,,,,,,,,,,1,0,1,0,212,0,212,0,,,,,,,212,,,0.2,4305.629224852586,X,d,go,d,1,0.34007797406229656,,,,,,,,,,,,,,,,,,4,001,2022-12-16_11h01.16.617,00_bat_bachelor,2022.2.4,59.98039911517736,
,,,,,,,,,,,,1,0,1,0,213,0,213,0,,,,,,,213,,,0.2,4306.279666695438,Y,l,go,l,1,0.34528379728726577,,,,,,,,,,,,,,,,,,4,001,2022-12-16_11h01.16.617,00_bat_bachelor,2022.2.4,59.98039911517736,
,,,,,,,,,,,,1,0,1,0,214,0,214,0,,,,,,,214,,,0.2,4306.93035726581,X,d,go,d,1,0.49407618399709463,,,,,,,,,,,,,,,,,,4,001,2022-12-16_11h01.16.617,00_bat_bachelor,2022.2.4,59.98039911517736,
,,,,,,,,,,,,1,0,1,0,215,0,215,0,,,,,,,215,,,0.2,4307.73085452689,Y,l,go,l,1,0.4774570163717726,,,,,,,,,,,,,,,,,,4,001,2022-12-16_11h01.16.617,00_bat_bachelor,2022.2.4,59.98039911517736,
,,,,,,,,,,,,1,0,1,0,216,0,216,0,,,,,,,216,,,0.2,4308.514950317534,X,d,go,d,1,0.4941876992525067,,,,,,,,,,,,,,,,,,4,001,2022-12-16_11h01.16.617,00_bat_bachelor,2022.2.4,59.98039911517736,
,,,,,,,,,,,,1,0,1,0,217,0,217,0,,,,,,,217,,,0.2,4309.31539521493,X,None,nogo,l,0,0.4929076980188256,,,,,,,,,,,,,,,,,,4,001,2022-12-16_11h01.16.617,00_bat_bachelor,2022.2.4,59.98039911517736,
,,,,,,,,,,,,1,0,1,0,218,0,218,0,,,,,,,218,,,0.2,4310.116080112566,Y,l,go,None,0,,,,,,,,,,,,,,,,,,,4,001,2022-12-16_11h01.16.617,00_bat_bachelor,2022.2.4,59.98039911517736,
,,,,,,,,,,,,1,0,1,0,219,0,219,0,,,,,,,219,,,0.2,4311.116743870778,X,d,go,d,1,0.5152175378316315,,,,,,,,,,,,,,,,,,4,001,2022-12-16_11h01.16.617,00_bat_bachelor,2022.2.4,59.98039911517736,
,,,,,,,,,,,,1,0,1,0,220,0,220,0,,,,,,,220,,,0.2,4311.934062966364,Y,l,go,l,1,0.6419362061715219,,,,,,,,,,,,,,,,,,4,001,2022-12-16_11h01.16.617,00_bat_bachelor,2022.2.4,59.98039911517736,
,,,,,,,,,,,,1,0,1,0,221,0,221,0,,,,,,,221,,,0.2,4312.884568615336,X,d,go,d,1,0.18811031154473312,,,,,,,,,,,,,,,,,,4,001,2022-12-16_11h01.16.617,00_bat_bachelor,2022.2.4,59.98039911517736,
,,,,,,,,,,,,1,0,1,0,222,0,222,0,,,,,,,222,,,0.2,4313.38495358541,Y,l,go,l,1,0.5667390423477627,,,,,,,,,,,,,,,,,,4,001,2022-12-16_11h01.16.617,00_bat_bachelor,2022.2.4,59.98039911517736,
,,,,,,,,,,,,1,0,1,0,223,0,223,0,,,,,,,223,,,0.2,4314.252274184022,X,d,go,None,0,,,,,,,,,,,,,,,,,,,4,001,2022-12-16_11h01.16.617,00_bat_bachelor,2022.2.4,59.98039911517736,
,,,,,,,,,,,,1,0,1,0,224,0,224,0,,,,,,,224,,,0.2,4315.253032002947,X,None,nogo,None,1,,,,,,,,,,,,,,,,,,,4,001,2022-12-16_11h01.16.617,00_bat_bachelor,2022.2.4,59.98039911517736,
,,,,,,,,,,,,1,0,1,0,225,0,225,0,,,,,,,225,,,0.2,4316.253833943119,Y,l,go,l,1,0.35394950267800596,,,,,,,,,,,,,,,,,,4,001,2022-12-16_11h01.16.617,00_bat_bachelor,2022.2.4,59.98039911517736,
,,,,,,,,,,,,1,0,1,0,226,0,226,0,,,,,,,226,,,0.2,4316.9211858629715,X,d,go,d,1,0.3432658559468109,,,,,,,,,,,,,,,,,,4,001,2022-12-16_11h01.16.617,00_bat_bachelor,2022.2.4,59.98039911517736,
,,,,,,,,,,,,1,0,1,0,227,0,227,0,,,,,,,227,,,0.2,4317.571676675565,Y,l,go,l,1,0.5413184116332559,,,,,,,,,,,,,,,,,,4,001,2022-12-16_11h01.16.617,00_bat_bachelor,2022.2.4,59.98039911517736,
,,,,,,,,,,,,1,0,1,0,228,0,228,0,,,,,,,228,,,0.2,4318.422446955097,X,d,go,d,1,0.3469080412905896,,,,,,,,,,,,,,,,,,4,001,2022-12-16_11h01.16.617,00_bat_bachelor,2022.2.4,59.98039911517736,
,,,,,,,,,,,,1,0,1,0,229,0,229,0,,,,,,,229,,,0.2,4319.07263522195,X,None,nogo,None,1,,,,,,,,,,,,,,,,,,,4,001,2022-12-16_11h01.16.617,00_bat_bachelor,2022.2.4,59.98039911517736,
,,,,,,,,,,,,1,0,1,0,230,0,230,0,,,,,,,230,,,0.2,4320.073697526008,Y,l,go,l,1,0.29531817308452446,,,,,,,,,,,,,,,,,,4,001,2022-12-16_11h01.16.617,00_bat_bachelor,2022.2.4,59.98039911517736,
,,,,,,,,,,,,1,0,1,0,231,0,231,0,,,,,,,231,,,0.2,4320.674095199123,X,d,go,d,1,0.6383846875687595,,,,,,,,,,,,,,,,,,4,001,2022-12-16_11h01.16.617,00_bat_bachelor,2022.2.4,59.98039911517736,
,,,,,,,,,,,,1,0,1,0,232,0,232,0,,,,,,,232,,,0.2,4321.624622181451,Y,l,go,l,1,0.4876562989957165,,,,,,,,,,,,,,,,,,4,001,2022-12-16_11h01.16.617,00_bat_bachelor,2022.2.4,59.98039911517736,
,,,,,,,,,,,,1,0,1,0,233,0,233,0,,,,,,,233,,,0.2,4322.425390957957,Y,None,nogo,None,1,,4323.225943006983,,,,,,,,,,,,,,,,,4,001,2022-12-16_11h01.16.617,00_bat_bachelor,2022.2.4,59.98039911517736,
,,,,,,,,,,,,1,0,1,0,234,0,234,0,,,,,,,234,,,0.2,4323.426208898149,X,d,go,d,1,0.11011169046105351,,,,,,,,,,,,,,,,,,4,001,2022-12-16_11h01.16.617,00_bat_bachelor,2022.2.4,59.98039911517736,
,,,,,,,,,,,,1,0,1,0,235,0,235,0,,,,,,,235,,,0.2,4323.843213423723,Y,l,go,l,1,0.4130074993299786,,,,,,,,,,,,,,,,,,4,001,2022-12-16_11h01.16.617,00_bat_bachelor,2022.2.4,59.98039911517736,
,,,,,,,,,,,,1,0,1,0,236,0,236,0,,,,,,,236,,,0.2,4324.560451937417,X,d,go,d,1,0.4475845025590388,,,,,,,,,,,,,,,,,,4,001,2022-12-16_11h01.16.617,00_bat_bachelor,2022.2.4,59.98039911517736,
,,,,,,,,,,,,1,0,1,0,237,0,237,0,,,,,,,237,,,0.2,4325.310696543704,X,None,nogo,None,1,,,,,,,,,,,,,,,,,,,4,001,2022-12-16_11h01.16.617,00_bat_bachelor,2022.2.4,59.98039911517736,
,,,,,,,,,,,,1,0,1,0,238,0,238,0,,,,,,,238,,,0.2,4326.311873756975,Y,l,go,l,1,0.29681732604512945,,,,,,,,,,,,,,,,,,4,001,2022-12-16_11h01.16.617,00_bat_bachelor,2022.2.4,59.98039911517736,
,,,,,,,,,,,,1,0,1,0,239,0,239,0,,,,,,,239,,,0.2,4326.912233127019,X,d,go,d,1,0.46444318557041697,,,,,,,,,,,,,,,,,,4,001,2022-12-16_11h01.16.617,00_bat_bachelor,2022.2.4,59.98039911517736,
,,,,,,,,,,,,1,0,1,0,240,0,240,0,,,,,,,240,,,0.2,4327.679478961916,X,None,nogo,None,1,,4328.479830768323,,,,,,,,,,,,,,,,,4,001,2022-12-16_11h01.16.617,00_bat_bachelor,2022.2.4,59.98039911517736,
,,,,,,,,,,,,1,0,1,0,241,0,241,0,,,,,,,241,,,0.2,4328.679975447245,X,None,nogo,None,1,,,,,,,,,,,,,,,,,,,4,001,2022-12-16_11h01.16.617,00_bat_bachelor,2022.2.4,59.98039911517736,
,,,,,,,,,,,,1,0,1,0,242,0,242,0,,,,,,,242,,,0.2,4329.6807269631245,Y,l,go,l,1,0.38359171322372276,,,,,,,,,,,,,,,,,,4,001,2022-12-16_11h01.16.617,00_bat_bachelor,2022.2.4,59.98039911517736,
,,,,,,,,,,,,1,0,1,0,243,0,243,0,,,,,,,243,,,0.2,4330.364645686932,X,d,go,d,1,0.4032164595264476,,,,,,,,,,,,,,,,,,4,001,2022-12-16_11h01.16.617,00_bat_bachelor,2022.2.4,59.98039911517736,
,,,,,,,,,,,,1,0,1,0,244,0,244,0,,,,,,,244,,,0.2,4331.082008806799,Y,l,go,l,1,0.5823119059205055,,,,,,,,,,,,,,,,,,4,001,2022-12-16_11h01.16.617,00_bat_bachelor,2022.2.4,59.98039911517736,
,,,,,,,,,,,,1,0,1,0,245,0,245,0,,,,,,,245,,,0.2,4331.9660106337105,X,d,go,d,1,0.4655699745344464,,,,,,,,,,,,,,,,,,4,001,2022-12-16_11h01.16.617,00_bat_bachelor,2022.2.4,59.98039911517736,
,,,,,,,,,,,,1,0,1,0,246,0,246,0,,,,,,,246,,,0.2,4332.733287014096,Y,l,go,l,1,0.4344203685759567,,,,,,,,,,,,,,,,,,4,001,2022-12-16_11h01.16.617,00_bat_bachelor,2022.2.4,59.98039911517736,
,,,,,,,,,,,,1,0,1,0,247,0,247,0,,,,,,,247,,,0.2,4333.4838603479875,X,d,go,d,1,0.45281602277827915,,,,,,,,,,,,,,,,,,4,001,2022-12-16_11h01.16.617,00_bat_bachelor,2022.2.4,59.98039911517736,
,,,,,,,,,,,,1,0,1,0,248,0,248,0,,,,,,,248,,,0.2,4334.2510121222,Y,l,go,l,1,0.4366574616578873,,,,,,,,,,,,,,,,,,4,001,2022-12-16_11h01.16.617,00_bat_bachelor,2022.2.4,59.98039911517736,
