loop_instruction.thisRepN,loop_instruction.thisTrialN,loop_instruction.thisN,loop_instruction.thisIndex,loop_rsi_practice.thisRepN,loop_rsi_practice.thisTrialN,loop_rsi_practice.thisN,loop_rsi_practice.thisIndex,loop_practice.thisRepN,loop_practice.thisTrialN,loop_practice.thisN,loop_practice.thisIndex,loop_exp.thisRepN,loop_exp.thisTrialN,loop_exp.thisN,loop_exp.thisIndex,loop_trials.thisRepN,loop_trials.thisTrialN,loop_trials.thisN,loop_trials.thisIndex,map_condition,map_x_key,map_y_key,key_resp_welcome.started,key_resp_welcome.keys,key_resp_welcome.rt,index,text_empty_rsi_practice.started,text_empty_rsi_practice.stopped,rsi,stimulus.started,stimulus,correct,trial_type,key_resp_trial.keys,key_resp_trial.corr,key_resp_trial.rt,stimulus.stopped,key_resp_instruction_rsi.started,key_resp_instruction_rsi.keys,key_resp_instruction_rsi.rt,key_resp_instruction_rsi.stopped,key_resp_instruction_final.started,key_resp_instruction_final.keys,key_resp_instruction_final.rt,key_resp_break.started,key_resp_break.keys,key_resp_break.rt,key_resp_break.stopped,key_resp_end_screen.started,image_end_screen.started,key_resp_end_screen.stopped,image_end_screen.stopped,key_resp_end_screen.keys,participant,session,Alter,Geschlecht (w/m/d/andere),Studiengang,date,expName,psychopyVersion,frameRate,
,,,,0,0,0,0,0,0,0,0,,,,,,,,,0,d,l,1182.1068101300625,j,28.91643631493207,0,1211.0498007031856,1212.0691393604502,1,1212.0691393604502,X,d,go,None,0,,,,,,,,,,,,,,,,,,,50,001,21,w,Psychologie,2023-01-23_09h05.54.696,00_bat_bachelor,2022.2.4,59.92750591847229,
,,,,0,0,0,0,1,0,1,0,,,,,,,,,,,,,,,1,1213.4770126172807,1214.4778276471188,1,1214.4778276471188,Y,l,go,l,1,0.46229253511410207,,,,,,,,,,,,,,,,,,50,001,21,w,Psychologie,2023-01-23_09h05.54.696,00_bat_bachelor,2022.2.4,59.92750591847229,
,,,,0,0,0,0,2,0,2,0,,,,,,,,,,,,,,,2,1215.6450396872824,1216.6456481718924,1,1216.6456481718924,X,d,go,d,1,0.4057490474078804,,,,,,,,,,,,,,,,,,50,001,21,w,Psychologie,2023-01-23_09h05.54.696,00_bat_bachelor,2022.2.4,59.92750591847229,
,,,,0,0,0,0,3,0,3,0,,,,,,,,,,,,,,,3,1217.7631462967256,1218.7640946598258,1,1218.7640946598258,Y,l,go,l,1,0.41577522445004433,,,,,,,,,,,,,,,,,,50,001,21,w,Psychologie,2023-01-23_09h05.54.696,00_bat_bachelor,2022.2.4,59.92750591847229,
,,,,0,0,0,0,4,0,4,0,,,,,,,,,,,,,,,4,1219.8814104817575,1220.8821518147597,1,1220.8821518147597,Y,None,nogo,l,0,0.5055133627029136,,,,,,,,,,,,,,,,,,50,001,21,w,Psychologie,2023-01-23_09h05.54.696,00_bat_bachelor,2022.2.4,59.92750591847229,
,,,,0,0,0,0,5,0,5,0,,,,,,,,,,,,,,,5,1222.5004807270598,1223.501329696388,1,1223.501329696388,X,d,go,None,0,,1224.3020110051148,,,,,,,,,,,,,,,,,50,001,21,w,Psychologie,2023-01-23_09h05.54.696,00_bat_bachelor,2022.2.4,59.92750591847229,
,,,,0,0,0,0,6,0,6,0,,,,,,,,,,,,,,,6,1224.9023796836846,1225.9030550773023,1,1225.9030550773023,Y,l,go,l,1,0.6523511096602306,,,,,,,,,,,,,,,,,,50,001,21,w,Psychologie,2023-01-23_09h05.54.696,00_bat_bachelor,2022.2.4,59.92750591847229,
,,,,0,0,0,0,7,0,7,0,,,,,,,,,,,,,,,7,1227.270407141652,1228.2713147775503,1,1228.2713147775503,Y,None,nogo,l,0,0.5720597546314821,,,,,,,,,,,,,,,,,,50,001,21,w,Psychologie,2023-01-23_09h05.54.696,00_bat_bachelor,2022.2.4,59.92750591847229,
,,,,0,0,0,0,8,0,8,0,,,,,,,,,,,,,,,8,1229.9559268093435,1230.9568198997295,1,1230.9568198997295,Y,None,nogo,d,0,0.5436025563394651,,,,,,,,,,,,,,,,,,50,001,21,w,Psychologie,2023-01-23_09h05.54.696,00_bat_bachelor,2022.2.4,59.92750591847229,
,,,,0,0,0,0,9,0,9,0,,,,,,,,,,,,,,,9,1232.6076961902436,1233.6085441898322,1,1233.6085441898322,X,d,go,d,1,0.6593135305447504,,,,,,,,,,,,,,,,,,50,001,21,w,Psychologie,2023-01-23_09h05.54.696,00_bat_bachelor,2022.2.4,59.92750591847229,
,,,,0,0,0,0,10,0,10,0,,,,,,,,,,,,,,,10,1234.9767452233937,1235.9775631624507,1,1235.9775631624507,Y,l,go,None,0,,,,,,,,,,,,,,,,,,,50,001,21,w,Psychologie,2023-01-23_09h05.54.696,00_bat_bachelor,2022.2.4,59.92750591847229,
,,,,0,0,0,0,11,0,11,0,,,,,,,,,,,,,,,11,1237.378398846835,1238.3793394524837,1,1238.3793394524837,X,d,go,None,0,,1239.179938821937,,,,,,,,,,,,,,,,,50,001,21,w,Psychologie,2023-01-23_09h05.54.696,00_bat_bachelor,2022.2.4,59.92750591847229,
,,,,0,0,0,0,12,0,12,0,,,,,,,,,,,,,,,12,1239.780383136822,1240.781159378821,1,1240.781159378821,X,None,nogo,d,0,0.5586934580933303,,,,,,,,,,,,,,,,,,50,001,21,w,Psychologie,2023-01-23_09h05.54.696,00_bat_bachelor,2022.2.4,59.92750591847229,
,,,,0,0,0,0,13,0,13,0,,,,,,,,,,,,,,,13,1242.4655532288598,1243.4665311677381,1,1243.4665311677381,Y,l,go,None,0,,1244.2670088402228,,,,,,,,,,,,,,,,,50,001,21,w,Psychologie,2023-01-23_09h05.54.696,00_bat_bachelor,2022.2.4,59.92750591847229,
,,,,0,0,0,0,14,0,14,0,,,,,,,,,,,,,,,14,1244.8674318218837,1245.8683869729284,1,1245.8683869729284,X,d,go,d,1,0.46303532272577286,,,,,,,,,,,,,,,,,,50,001,21,w,Psychologie,2023-01-23_09h05.54.696,00_bat_bachelor,2022.2.4,59.92750591847229,
,,,,1,0,1,0,0,0,0,0,,,,,,,,,,,,,,,0,1270.9703103174688,1271.1705235537374,0.2,1271.1705235537374,X,d,go,d,1,0.4399381218245253,,1247.0726171769202,j,23.86999803443905,,,,,,,,,,,,,,50,001,21,w,Psychologie,2023-01-23_09h05.54.696,00_bat_bachelor,2022.2.4,59.92750591847229,
,,,,1,0,1,0,1,0,1,0,,,,,,,,,,,,,,,1,1272.3215717228595,1272.5216264137998,0.2,1272.5216264137998,Y,l,go,l,1,0.28923128568567336,,,,,,,,,,,,,,,,,,50,001,21,w,Psychologie,2023-01-23_09h05.54.696,00_bat_bachelor,2022.2.4,59.92750591847229,
,,,,1,0,1,0,2,0,2,0,,,,,,,,,,,,,,,2,1273.5222698074067,1273.7225295890821,0.2,1273.7225295890821,X,d,go,d,1,0.432748791994527,,,,,,,,,,,,,,,,,,50,001,21,w,Psychologie,2023-01-23_09h05.54.696,00_bat_bachelor,2022.2.4,59.92750591847229,
,,,,1,0,1,0,3,0,3,0,,,,,,,,,,,,,,,3,1274.8568800694775,1275.0570414268877,0.2,1275.0570414268877,Y,l,go,l,1,0.3468380456324667,,,,,,,,,,,,,,,,,,50,001,21,w,Psychologie,2023-01-23_09h05.54.696,00_bat_bachelor,2022.2.4,59.92750591847229,
,,,,1,0,1,0,4,0,4,0,,,,,,,,,,,,,,,4,1276.1077371599386,1276.3079562144121,0.2,1276.3079562144121,Y,None,nogo,None,1,,1277.1085827352945,,,,,,,,,,,,,,,,,50,001,21,w,Psychologie,2023-01-23_09h05.54.696,00_bat_bachelor,2022.2.4,59.92750591847229,
,,,,1,0,1,0,5,0,5,0,,,,,,,,,,,,,,,5,1277.7090212319745,1277.908986225957,0.2,1277.908986225957,X,d,go,d,1,0.35881379747297615,,,,,,,,,,,,,,,,,,50,001,21,w,Psychologie,2023-01-23_09h05.54.696,00_bat_bachelor,2022.2.4,59.92750591847229,
,,,,1,0,1,0,6,0,6,0,,,,,,,,,,,,,,,6,1278.9763951629866,1279.1764745811233,0.2,1279.1764745811233,Y,l,go,l,1,0.35486228414811194,,,,,,,,,,,,,,,,,,50,001,21,w,Psychologie,2023-01-23_09h05.54.696,00_bat_bachelor,2022.2.4,59.92750591847229,
,,,,1,0,1,0,7,0,7,0,,,,,,,,,,,,,,,7,1280.2441104270983,1280.4441229362274,0.2,1280.4441229362274,Y,None,nogo,None,1,,1281.2450006084982,,,,,,,,,,,,,,,,,50,001,21,w,Psychologie,2023-01-23_09h05.54.696,00_bat_bachelor,2022.2.4,59.92750591847229,
,,,,1,0,1,0,8,0,8,0,,,,,,,,,,,,,,,8,1281.8461935291998,1282.0460824019974,0.2,1282.0460824019974,X,d,go,d,1,0.3653558548539877,,,,,,,,,,,,,,,,,,50,001,21,w,Psychologie,2023-01-23_09h05.54.696,00_bat_bachelor,2022.2.4,59.92750591847229,
,,,,1,0,1,0,9,0,9,0,,,,,,,,,,,,,,,9,1283.1304755731253,1283.3305903852452,0.2,1283.3305903852452,Y,l,go,l,1,0.37639972823671997,,,,,,,,,,,,,,,,,,50,001,21,w,Psychologie,2023-01-23_09h05.54.696,00_bat_bachelor,2022.2.4,59.92750591847229,
,,,,1,0,1,0,10,0,10,0,,,,,,,,,,,,,,,10,1284.4312492455356,1284.631408663583,0.2,1284.631408663583,X,d,go,d,1,0.40332626074086875,,,,,,,,,,,,,,,,,,50,001,21,w,Psychologie,2023-01-23_09h05.54.696,00_bat_bachelor,2022.2.4,59.92750591847229,
,,,,1,0,1,0,11,0,11,0,,,,,,,,,,,,,,,11,1285.748932970222,1285.9492742064176,0.2,1285.9492742064176,Y,l,go,l,1,0.38095342298038304,,,,,,,,,,,,,,,,,,50,001,21,w,Psychologie,2023-01-23_09h05.54.696,00_bat_bachelor,2022.2.4,59.92750591847229,
,,,,1,0,1,0,12,0,12,0,,,,,,,,,,,,,,,12,1287.0500673697097,1287.2502704241779,0.2,1287.2502704241779,Y,None,nogo,None,1,,1288.0509153692983,,,,,,,,,,,,,,,,,50,001,21,w,Psychologie,2023-01-23_09h05.54.696,00_bat_bachelor,2022.2.4,59.92750591847229,
,,,,1,0,1,0,13,0,13,0,,,,,,,,,,,,,,,13,1288.6511143509997,1288.8514216478216,0.2,1288.8514216478216,X,d,go,d,1,0.4224889180622995,,,,,,,,,,,,,,,,,,50,001,21,w,Psychologie,2023-01-23_09h05.54.696,00_bat_bachelor,2022.2.4,59.92750591847229,
,,,,1,0,1,0,14,0,14,0,,,,,,,,,,,,,,,14,1290.0024853321956,1290.2026428108802,0.2,1290.2026428108802,Y,l,go,l,1,0.4957446401240304,,,,,,,,,,,,,,,,,,50,001,21,w,Psychologie,2023-01-23_09h05.54.696,00_bat_bachelor,2022.2.4,59.92750591847229,
,,,,,,,,,,,,,,,,,,,,,,,,,,,,,,,,,,,,,,1291.478450192255,None,,1291.478450192255,1291.478450192255,space,8.568098544492386,,,,,,,,,,50,001,21,w,Psychologie,2023-01-23_09h05.54.696,00_bat_bachelor,2022.2.4,59.92750591847229,
,,,,,,,,,,,,0,0,0,0,0,0,0,0,,,,,,,0,,,1,1301.0767631143099,X,d,go,d,1,0.48605106910690665,,,,,,,,,,,,,,,,,,50,001,21,w,Psychologie,2023-01-23_09h05.54.696,00_bat_bachelor,2022.2.4,59.92750591847229,
,,,,,,,,,,,,0,0,0,0,1,0,1,0,,,,,,,1,,,1,1302.6778120350791,Y,l,go,l,1,0.30854133691173047,,,,,,,,,,,,,,,,,,50,001,21,w,Psychologie,2023-01-23_09h05.54.696,00_bat_bachelor,2022.2.4,59.92750591847229,
,,,,,,,,,,,,0,0,0,0,2,0,2,0,,,,,,,2,,,1,1304.0955073477235,X,d,go,d,1,0.36431294633075595,,,,,,,,,,,,,,,,,,50,001,21,w,Psychologie,2023-01-23_09h05.54.696,00_bat_bachelor,2022.2.4,59.92750591847229,
,,,,,,,,,,,,0,0,0,0,3,0,3,0,,,,,,,3,,,1,1305.5633543935837,X,None,nogo,None,1,,,,,,,,,,,,,,,,,,,50,001,21,w,Psychologie,2023-01-23_09h05.54.696,00_bat_bachelor,2022.2.4,59.92750591847229,
,,,,,,,,,,,,0,0,0,0,4,0,4,0,,,,,,,4,,,1,1307.3649549746187,Y,l,go,l,1,0.29470376786775887,,,,,,,,,,,,,,,,,,50,001,21,w,Psychologie,2023-01-23_09h05.54.696,00_bat_bachelor,2022.2.4,59.92750591847229,
,,,,,,,,,,,,0,0,0,0,5,0,5,0,,,,,,,5,,,1,1308.7660262952559,X,d,go,d,1,0.39730056666303426,,,,,,,,,,,,,,,,,,50,001,21,w,Psychologie,2023-01-23_09h05.54.696,00_bat_bachelor,2022.2.4,59.92750591847229,
,,,,,,,,,,,,0,0,0,0,6,0,6,0,,,,,,,6,,,1,1310.2671189007815,Y,l,go,l,1,0.27226935466751456,,,,,,,,,,,,,,,,,,50,001,21,w,Psychologie,2023-01-23_09h05.54.696,00_bat_bachelor,2022.2.4,59.92750591847229,
,,,,,,,,,,,,0,0,0,0,7,0,7,0,,,,,,,7,,,1,1311.6514353206148,Y,None,nogo,None,1,,,,,,,,,,,,,,,,,,,50,001,21,w,Psychologie,2023-01-23_09h05.54.696,00_bat_bachelor,2022.2.4,59.92750591847229,
,,,,,,,,,,,,0,0,0,0,8,0,8,0,,,,,,,8,,,1,1313.45288317441,X,d,go,d,1,0.46196186856832355,,,,,,,,,,,,,,,,,,50,001,21,w,Psychologie,2023-01-23_09h05.54.696,00_bat_bachelor,2022.2.4,59.92750591847229,
,,,,,,,,,,,,0,0,0,0,9,0,9,0,,,,,,,9,,,1,1315.037975739222,Y,l,go,l,1,0.39626105199567974,,,,,,,,,,,,,,,,,,50,001,21,w,Psychologie,2023-01-23_09h05.54.696,00_bat_bachelor,2022.2.4,59.92750591847229,
,,,,,,,,,,,,0,0,0,0,10,0,10,0,,,,,,,10,,,1,1316.5557791244937,X,d,go,d,1,0.382872452493757,,,,,,,,,,,,,,,,,,50,001,21,w,Psychologie,2023-01-23_09h05.54.696,00_bat_bachelor,2022.2.4,59.92750591847229,
,,,,,,,,,,,,0,0,0,0,11,0,11,0,,,,,,,11,,,1,1318.0569434876088,Y,l,go,l,1,0.35370107262860984,,,,,,,,,,,,,,,,,,50,001,21,w,Psychologie,2023-01-23_09h05.54.696,00_bat_bachelor,2022.2.4,59.92750591847229,
,,,,,,,,,,,,0,0,0,0,12,0,12,0,,,,,,,12,,,1,1319.5417490707478,X,d,go,d,1,0.32525211677420884,,,,,,,,,,,,,,,,,,50,001,21,w,Psychologie,2023-01-23_09h05.54.696,00_bat_bachelor,2022.2.4,59.92750591847229,
,,,,,,,,,,,,0,0,0,0,13,0,13,0,,,,,,,13,,,1,1320.9762341934256,Y,l,go,l,1,0.2825384404277429,,,,,,,,,,,,,,,,,,50,001,21,w,Psychologie,2023-01-23_09h05.54.696,00_bat_bachelor,2022.2.4,59.92750591847229,
,,,,,,,,,,,,0,0,0,0,14,0,14,0,,,,,,,14,,,1,1322.3771906050388,Y,None,nogo,d,0,0.44925351114943624,,,,,,,,,,,,,,,,,,50,001,21,w,Psychologie,2023-01-23_09h05.54.696,00_bat_bachelor,2022.2.4,59.92750591847229,
,,,,,,,,,,,,0,0,0,0,15,0,15,0,,,,,,,15,,,1,1323.9449905721704,X,d,go,d,1,0.5453877676045522,,,,,,,,,,,,,,,,,,50,001,21,w,Psychologie,2023-01-23_09h05.54.696,00_bat_bachelor,2022.2.4,59.92750591847229,
,,,,,,,,,,,,0,0,0,0,16,0,16,0,,,,,,,16,,,1,1325.6126532787457,Y,l,go,l,1,0.44520793738774955,,,,,,,,,,,,,,,,,,50,001,21,w,Psychologie,2023-01-23_09h05.54.696,00_bat_bachelor,2022.2.4,59.92750591847229,
,,,,,,,,,,,,0,0,0,0,17,0,17,0,,,,,,,17,,,1,1327.2298626764677,X,d,go,d,1,0.5094236638396978,,,,,,,,,,,,,,,,,,50,001,21,w,Psychologie,2023-01-23_09h05.54.696,00_bat_bachelor,2022.2.4,59.92750591847229,
,,,,,,,,,,,,0,0,0,0,18,0,18,0,,,,,,,18,,,1,1328.8480757101206,X,None,nogo,d,0,0.5395792855415493,,,,,,,,,,,,,,,,,,50,001,21,w,Psychologie,2023-01-23_09h05.54.696,00_bat_bachelor,2022.2.4,59.92750591847229,
,,,,,,,,,,,,0,0,0,0,19,0,19,0,,,,,,,19,,,1,1330.4990887277527,Y,l,go,l,1,0.504529605503194,,,,,,,,,,,,,,,,,,50,001,21,w,Psychologie,2023-01-23_09h05.54.696,00_bat_bachelor,2022.2.4,59.92750591847229,
,,,,,,,,,,,,0,0,0,0,20,0,20,0,,,,,,,20,,,1,1332.1172755795997,X,d,go,d,1,0.46920404699631035,,,,,,,,,,,,,,,,,,50,001,21,w,Psychologie,2023-01-23_09h05.54.696,00_bat_bachelor,2022.2.4,59.92750591847229,
,,,,,,,,,,,,0,0,0,0,21,0,21,0,,,,,,,21,,,1,1333.7020190536277,X,None,nogo,None,1,,1334.5027570895618,,,,,,,,,,,,,,,,,50,001,21,w,Psychologie,2023-01-23_09h05.54.696,00_bat_bachelor,2022.2.4,59.92750591847229,
,,,,,,,,,,,,0,0,0,0,22,0,22,0,,,,,,,22,,,1,1335.5031842408935,Y,l,go,l,1,0.2675774780800566,,,,,,,,,,,,,,,,,,50,001,21,w,Psychologie,2023-01-23_09h05.54.696,00_bat_bachelor,2022.2.4,59.92750591847229,
,,,,,,,,,,,,0,0,0,0,23,0,23,0,,,,,,,23,,,1,1336.8872170244576,X,d,go,d,1,0.4196496467338875,,,,,,,,,,,,,,,,,,50,001,21,w,Psychologie,2023-01-23_09h05.54.696,00_bat_bachelor,2022.2.4,59.92750591847229,
,,,,,,,,,,,,0,0,0,0,24,0,24,0,,,,,,,24,,,1,1338.4216424622573,Y,l,go,l,1,0.5968786517623812,,,,,,,,,,,,,,,,,,50,001,21,w,Psychologie,2023-01-23_09h05.54.696,00_bat_bachelor,2022.2.4,59.92750591847229,
,,,,,,,,,,,,0,0,0,0,25,0,25,0,,,,,,,25,,,1,1340.123337152414,Y,None,nogo,None,1,,,,,,,,,,,,,,,,,,,50,001,21,w,Psychologie,2023-01-23_09h05.54.696,00_bat_bachelor,2022.2.4,59.92750591847229,
,,,,,,,,,,,,0,0,0,0,26,0,26,0,,,,,,,26,,,1,1341.924568763934,X,d,go,d,1,0.40708965284284204,,,,,,,,,,,,,,,,,,50,001,21,w,Psychologie,2023-01-23_09h05.54.696,00_bat_bachelor,2022.2.4,59.92750591847229,
,,,,,,,,,,,,0,0,0,0,27,0,27,0,,,,,,,27,,,1,1343.442378937034,Y,l,go,l,1,0.4425150902243331,,,,,,,,,,,,,,,,,,50,001,21,w,Psychologie,2023-01-23_09h05.54.696,00_bat_bachelor,2022.2.4,59.92750591847229,
,,,,,,,,,,,,0,0,0,0,28,0,28,0,,,,,,,28,,,1,1344.9933866698993,Y,None,nogo,None,1,,,,,,,,,,,,,,,,,,,50,001,21,w,Psychologie,2023-01-23_09h05.54.696,00_bat_bachelor,2022.2.4,59.92750591847229,
,,,,,,,,,,,,0,0,0,0,29,0,29,0,,,,,,,29,,,1,1346.7947676146869,X,d,go,d,1,0.3837233610684052,,,,,,,,,,,,,,,,,,50,001,21,w,Psychologie,2023-01-23_09h05.54.696,00_bat_bachelor,2022.2.4,59.92750591847229,
,,,,,,,,,,,,0,0,0,0,30,0,30,0,,,,,,,30,,,1,1348.2794515008572,Y,l,go,l,1,0.4357596995541826,,,,,,,,,,,,,,,,,,50,001,21,w,Psychologie,2023-01-23_09h05.54.696,00_bat_bachelor,2022.2.4,59.92750591847229,
,,,,,,,,,,,,0,0,0,0,31,0,31,0,,,,,,,31,,,1,1349.8303438398289,X,d,go,d,1,0.5483754024608061,,,,,,,,,,,,,,,,,,50,001,21,w,Psychologie,2023-01-23_09h05.54.696,00_bat_bachelor,2022.2.4,59.92750591847229,
,,,,,,,,,,,,0,0,0,0,32,0,32,0,,,,,,,32,,,1,1351.4819730996387,Y,l,go,l,1,0.48245834361296147,,,,,,,,,,,,,,,,,,50,001,21,w,Psychologie,2023-01-23_09h05.54.696,00_bat_bachelor,2022.2.4,59.92750591847229,
,,,,,,,,,,,,0,0,0,0,33,0,33,0,,,,,,,33,,,1,1353.0662118467735,Y,None,nogo,None,1,,1353.8667651555734,,,,,,,,,,,,,,,,,50,001,21,w,Psychologie,2023-01-23_09h05.54.696,00_bat_bachelor,2022.2.4,59.92750591847229,
,,,,,,,,,,,,0,0,0,0,34,0,34,0,,,,,,,34,,,1,1354.8679321852978,X,d,go,d,1,0.3606208269484341,,,,,,,,,,,,,,,,,,50,001,21,w,Psychologie,2023-01-23_09h05.54.696,00_bat_bachelor,2022.2.4,59.92750591847229,
,,,,,,,,,,,,0,0,0,0,35,0,35,0,,,,,,,35,,,1,1356.335243958747,Y,l,go,l,1,0.3965762034058571,,,,,,,,,,,,,,,,,,50,001,21,w,Psychologie,2023-01-23_09h05.54.696,00_bat_bachelor,2022.2.4,59.92750591847229,
,,,,,,,,,,,,0,0,0,0,36,0,36,0,,,,,,,36,,,1,1357.8364112308482,X,d,go,d,1,0.4309412776492536,,,,,,,,,,,,,,,,,,50,001,21,w,Psychologie,2023-01-23_09h05.54.696,00_bat_bachelor,2022.2.4,59.92750591847229,
,,,,,,,,,,,,0,0,0,0,37,0,37,0,,,,,,,37,,,1,1359.3712371534202,Y,l,go,l,1,0.4649650186765939,,,,,,,,,,,,,,,,,,50,001,21,w,Psychologie,2023-01-23_09h05.54.696,00_bat_bachelor,2022.2.4,59.92750591847229,
,,,,,,,,,,,,0,0,0,0,38,0,38,0,,,,,,,38,,,1,1360.9391001508338,X,d,go,d,1,0.38471439096610993,,,,,,,,,,,,,,,,,,50,001,21,w,Psychologie,2023-01-23_09h05.54.696,00_bat_bachelor,2022.2.4,59.92750591847229,
,,,,,,,,,,,,0,0,0,0,39,0,39,0,,,,,,,39,,,1,1362.4405563925393,Y,l,go,l,1,0.35460919339675456,,,,,,,,,,,,,,,,,,50,001,21,w,Psychologie,2023-01-23_09h05.54.696,00_bat_bachelor,2022.2.4,59.92750591847229,
,,,,,,,,,,,,0,0,0,0,40,0,40,0,,,,,,,40,,,1,1363.9077915599337,Y,None,nogo,None,1,,,,,,,,,,,,,,,,,,,50,001,21,w,Psychologie,2023-01-23_09h05.54.696,00_bat_bachelor,2022.2.4,59.92750591847229,
,,,,,,,,,,,,0,0,0,0,41,0,41,0,,,,,,,41,,,1,1365.7091894743498,X,d,go,d,1,0.3334916278254241,,,,,,,,,,,,,,,,,,50,001,21,w,Psychologie,2023-01-23_09h05.54.696,00_bat_bachelor,2022.2.4,59.92750591847229,
,,,,,,,,,,,,0,0,0,0,42,0,42,0,,,,,,,42,,,1,1367.1435766577488,Y,l,go,l,1,0.37131948838941753,,,,,,,,,,,,,,,,,,50,001,21,w,Psychologie,2023-01-23_09h05.54.696,00_bat_bachelor,2022.2.4,59.92750591847229,
,,,,,,,,,,,,0,0,0,0,43,0,43,0,,,,,,,43,,,1,1368.6280680592172,Y,None,nogo,l,0,0.422546130255796,,,,,,,,,,,,,,,,,,50,001,21,w,Psychologie,2023-01-23_09h05.54.696,00_bat_bachelor,2022.2.4,59.92750591847229,
,,,,,,,,,,,,0,0,0,0,44,0,44,0,,,,,,,44,,,1,1370.16279895138,X,d,go,d,1,0.4245558262336999,,,,,,,,,,,,,,,,,,50,001,21,w,Psychologie,2023-01-23_09h05.54.696,00_bat_bachelor,2022.2.4,59.92750591847229,
,,,,,,,,,,,,0,0,0,0,45,0,45,0,,,,,,,45,,,1,1371.6973053589463,Y,l,go,None,0,,,,,,,,,,,,,,,,,,,50,001,21,w,Psychologie,2023-01-23_09h05.54.696,00_bat_bachelor,2022.2.4,59.92750591847229,
,,,,,,,,,,,,0,0,0,0,46,0,46,0,,,,,,,46,,,1,1373.4986475158948,X,d,go,d,1,0.4159599515842274,,,,,,,,,,,,,,,,,,50,001,21,w,Psychologie,2023-01-23_09h05.54.696,00_bat_bachelor,2022.2.4,59.92750591847229,
,,,,,,,,,,,,0,0,0,0,47,0,47,0,,,,,,,47,,,1,1375.0165827799356,Y,l,go,l,1,0.626683728187345,,,,,,,,,,,,,,,,,,50,001,21,w,Psychologie,2023-01-23_09h05.54.696,00_bat_bachelor,2022.2.4,59.92750591847229,
,,,,,,,,,,,,0,0,0,0,48,0,48,0,,,,,,,48,,,1,1376.7511555146193,Y,None,nogo,None,1,,,,,,,,,,,,,,,,,,,50,001,21,w,Psychologie,2023-01-23_09h05.54.696,00_bat_bachelor,2022.2.4,59.92750591847229,
,,,,,,,,,,,,0,0,0,0,49,0,49,0,,,,,,,49,,,1,1378.55254906544,X,d,go,d,1,0.2582596642896533,,,,,,,,,,,,,,,,,,50,001,21,w,Psychologie,2023-01-23_09h05.54.696,00_bat_bachelor,2022.2.4,59.92750591847229,
,,,,,,,,,,,,0,0,0,0,50,0,50,0,,,,,,,50,,,1,1379.9201862205518,Y,l,go,l,1,0.44288599910214543,,,,,,,,,,,,,,,,,,50,001,21,w,Psychologie,2023-01-23_09h05.54.696,00_bat_bachelor,2022.2.4,59.92750591847229,
,,,,,,,,,,,,0,0,0,0,51,0,51,0,,,,,,,51,,,1,1381.4714868017472,X,d,go,d,1,0.3642120979493484,,,,,,,,,,,,,,,,,,50,001,21,w,Psychologie,2023-01-23_09h05.54.696,00_bat_bachelor,2022.2.4,59.92750591847229,
,,,,,,,,,,,,0,0,0,0,52,0,52,0,,,,,,,52,,,1,1382.9391525144456,X,None,nogo,None,1,,1383.7395128535572,,,,,,,,,,,,,,,,,50,001,21,w,Psychologie,2023-01-23_09h05.54.696,00_bat_bachelor,2022.2.4,59.92750591847229,
,,,,,,,,,,,,0,0,0,0,53,0,53,0,,,,,,,53,,,1,1384.7408786711749,X,None,nogo,None,1,,1385.5414935556473,,,,,,,,,,,,,,,,,50,001,21,w,Psychologie,2023-01-23_09h05.54.696,00_bat_bachelor,2022.2.4,59.92750591847229,
,,,,,,,,,,,,0,0,0,0,54,0,54,0,,,,,,,54,,,1,1386.5419565857155,Y,l,go,l,1,0.38190469541586936,,,,,,,,,,,,,,,,,,50,001,21,w,Psychologie,2023-01-23_09h05.54.696,00_bat_bachelor,2022.2.4,59.92750591847229,
,,,,,,,,,,,,0,0,0,0,55,0,55,0,,,,,,,55,,,1,1388.0263990175445,X,d,go,d,1,0.36803852021694183,,,,,,,,,,,,,,,,,,50,001,21,w,Psychologie,2023-01-23_09h05.54.696,00_bat_bachelor,2022.2.4,59.92750591847229,
,,,,,,,,,,,,0,0,0,0,56,0,56,0,,,,,,,56,,,1,1389.5109481159598,Y,l,go,l,1,0.32486617751419544,,,,,,,,,,,,,,,,,,50,001,21,w,Psychologie,2023-01-23_09h05.54.696,00_bat_bachelor,2022.2.4,59.92750591847229,
,,,,,,,,,,,,0,0,0,0,57,0,57,0,,,,,,,57,,,1,1390.9452446326613,Y,None,nogo,l,0,0.5696578164352104,,,,,,,,,,,,,,,,,,50,001,21,w,Psychologie,2023-01-23_09h05.54.696,00_bat_bachelor,2022.2.4,59.92750591847229,
,,,,,,,,,,,,0,0,0,0,58,0,58,0,,,,,,,58,,,1,1392.6296670887386,X,d,go,d,1,0.4372413958190009,,,,,,,,,,,,,,,,,,50,001,21,w,Psychologie,2023-01-23_09h05.54.696,00_bat_bachelor,2022.2.4,59.92750591847229,
,,,,,,,,,,,,0,0,0,0,59,0,59,0,,,,,,,59,,,1,1394.1810723970411,Y,l,go,l,1,0.565702909254469,,,,,,,,,,,,,,,,,,50,001,21,w,Psychologie,2023-01-23_09h05.54.696,00_bat_bachelor,2022.2.4,59.92750591847229,
,,,,,,,,,,,,0,0,0,0,60,0,60,0,,,,,,,60,,,1,1395.8488374067238,X,d,go,d,1,0.5144384492887184,,,,,,,,,,,,,,,,,,50,001,21,w,Psychologie,2023-01-23_09h05.54.696,00_bat_bachelor,2022.2.4,59.92750591847229,
,,,,,,,,,,,,0,0,0,0,61,0,61,0,,,,,,,61,,,1,1397.4668647433864,Y,l,go,l,1,0.3045641267672181,,,,,,,,,,,,,,,,,,50,001,21,w,Psychologie,2023-01-23_09h05.54.696,00_bat_bachelor,2022.2.4,59.92750591847229,
,,,,,,,,,,,,0,0,0,0,62,0,62,0,,,,,,,62,,,1,1398.8846609044122,X,d,go,d,1,0.39027172164060175,,,,,,,,,,,,,,,,,,50,001,21,w,Psychologie,2023-01-23_09h05.54.696,00_bat_bachelor,2022.2.4,59.92750591847229,
,,,,,,,,,,,,0,0,0,0,63,0,63,0,,,,,,,63,,,1,1400.385758843273,X,None,nogo,None,1,,,,,,,,,,,,,,,,,,,50,001,21,w,Psychologie,2023-01-23_09h05.54.696,00_bat_bachelor,2022.2.4,59.92750591847229,
,,,,,,,,,,,,0,0,0,0,64,0,64,0,,,,,,,64,,,1,1402.1873487576377,Y,l,go,l,1,0.3667716117342934,,,,,,,,,,,,,,,,,,50,001,21,w,Psychologie,2023-01-23_09h05.54.696,00_bat_bachelor,2022.2.4,59.92750591847229,
,,,,,,,,,,,,0,0,0,0,65,0,65,0,,,,,,,65,,,1,1403.655479439767,X,d,go,l,0,0.6264291829429567,,,,,,,,,,,,,,,,,,50,001,21,w,Psychologie,2023-01-23_09h05.54.696,00_bat_bachelor,2022.2.4,59.92750591847229,
,,,,,,,,,,,,0,0,0,0,66,0,66,0,,,,,,,66,,,1,1405.4235260976711,Y,l,go,l,1,0.5710236339364201,,,,,,,,,,,,,,,,,,50,001,21,w,Psychologie,2023-01-23_09h05.54.696,00_bat_bachelor,2022.2.4,59.92750591847229,
,,,,,,,,,,,,0,0,0,0,67,0,67,0,,,,,,,67,,,1,1407.125059333397,Y,None,nogo,None,1,,1407.9259593086317,,,,,,,,,,,,,,,,,50,001,21,w,Psychologie,2023-01-23_09h05.54.696,00_bat_bachelor,2022.2.4,59.92750591847229,
,,,,,,,,,,,,0,0,0,0,68,0,68,0,,,,,,,68,,,1,1408.9261673085857,X,d,go,d,1,0.2198747133370489,,,,,,,,,,,,,,,,,,50,001,21,w,Psychologie,2023-01-23_09h05.54.696,00_bat_bachelor,2022.2.4,59.92750591847229,
,,,,,,,,,,,,0,0,0,0,69,0,69,0,,,,,,,69,,,1,1410.2773618049687,Y,l,go,l,1,0.5013000314356759,,,,,,,,,,,,,,,,,,50,001,21,w,Psychologie,2023-01-23_09h05.54.696,00_bat_bachelor,2022.2.4,59.92750591847229,
,,,,,,,,,,,,0,0,0,0,70,0,70,0,,,,,,,70,,,1,1411.9120281639043,Y,None,nogo,l,0,0.38641184475272894,,,,,,,,,,,,,,,,,,50,001,21,w,Psychologie,2023-01-23_09h05.54.696,00_bat_bachelor,2022.2.4,59.92750591847229,
,,,,,,,,,,,,0,0,0,0,71,0,71,0,,,,,,,71,,,1,1413.4296269433107,X,d,go,d,1,0.613251977134496,,,,,,,,,,,,,,,,,,50,001,21,w,Psychologie,2023-01-23_09h05.54.696,00_bat_bachelor,2022.2.4,59.92750591847229,
,,,,,,,,,,,,0,0,0,0,72,0,72,0,,,,,,,72,,,1,1415.1813633060083,Y,l,go,None,0,,1415.9821246147621,,,,,,,,,,,,,,,,,50,001,21,w,Psychologie,2023-01-23_09h05.54.696,00_bat_bachelor,2022.2.4,59.92750591847229,
,,,,,,,,,,,,0,0,0,0,73,0,73,0,,,,,,,73,,,1,1416.9824014630867,Y,None,nogo,None,1,,1417.7833460444817,,,,,,,,,,,,,,,,,50,001,21,w,Psychologie,2023-01-23_09h05.54.696,00_bat_bachelor,2022.2.4,59.92750591847229,
,,,,,,,,,,,,0,0,0,0,74,0,74,0,,,,,,,74,,,1,1418.7837533169659,X,d,go,d,1,0.3470717426389456,,,,,,,,,,,,,,,,,,50,001,21,w,Psychologie,2023-01-23_09h05.54.696,00_bat_bachelor,2022.2.4,59.92750591847229,
,,,,,,,,,,,,0,0,0,0,75,0,75,0,,,,,,,75,,,1,1420.2684730819892,Y,l,go,l,1,0.4143104978138581,,,,,,,,,,,,,,,,,,50,001,21,w,Psychologie,2023-01-23_09h05.54.696,00_bat_bachelor,2022.2.4,59.92750591847229,
,,,,,,,,,,,,0,0,0,0,76,0,76,0,,,,,,,76,,,1,1421.802979974309,Y,None,nogo,None,1,,1422.6037218892016,,,,,,,,,,,,,,,,,50,001,21,w,Psychologie,2023-01-23_09h05.54.696,00_bat_bachelor,2022.2.4,59.92750591847229,
,,,,,,,,,,,,0,0,0,0,77,0,77,0,,,,,,,77,,,1,1423.6040991010377,X,d,go,d,1,0.31006666959729046,,,,,,,,,,,,,,,,,,50,001,21,w,Psychologie,2023-01-23_09h05.54.696,00_bat_bachelor,2022.2.4,59.92750591847229,
,,,,,,,,,,,,0,0,0,0,78,0,78,0,,,,,,,78,,,1,1425.038445072365,Y,l,go,l,1,0.25167881918605417,,,,,,,,,,,,,,,,,,50,001,21,w,Psychologie,2023-01-23_09h05.54.696,00_bat_bachelor,2022.2.4,59.92750591847229,
,,,,,,,,,,,,0,0,0,0,79,0,79,0,,,,,,,79,,,1,1426.4230514313094,X,d,go,d,1,0.3714217913802713,,,,,,,,,,,,,,,,,,50,001,21,w,Psychologie,2023-01-23_09h05.54.696,00_bat_bachelor,2022.2.4,59.92750591847229,
,,,,,,,,,,,,0,0,0,0,80,0,80,0,,,,,,,80,,,1,1427.9410356649896,X,None,nogo,None,1,,1428.7417276403867,,,,,,,,,,,,,,,,,50,001,21,w,Psychologie,2023-01-23_09h05.54.696,00_bat_bachelor,2022.2.4,59.92750591847229,
,,,,,,,,,,,,0,0,0,0,81,0,81,0,,,,,,,81,,,1,1429.7420161251212,Y,l,go,l,1,0.31611030304338783,,,,,,,,,,,,,,,,,,50,001,21,w,Psychologie,2023-01-23_09h05.54.696,00_bat_bachelor,2022.2.4,59.92750591847229,
,,,,,,,,,,,,0,0,0,0,82,0,82,0,,,,,,,82,,,1,1431.1766379750334,X,d,go,d,1,0.2902640124084428,,,,,,,,,,,,,,,,,,50,001,21,w,Psychologie,2023-01-23_09h05.54.696,00_bat_bachelor,2022.2.4,59.92750591847229,
,,,,,,,,,,,,0,0,0,0,83,0,83,0,,,,,,,83,,,1,1432.6111313401489,X,None,nogo,None,1,,1433.4119076791685,,,,,,,,,,,,,,,,,50,001,21,w,Psychologie,2023-01-23_09h05.54.696,00_bat_bachelor,2022.2.4,59.92750591847229,
,,,,,,,,,,,,0,0,0,0,84,0,84,0,,,,,,,84,,,1,1434.4124574969755,Y,l,go,l,1,0.28671492321882397,,,,,,,,,,,,,,,,,,50,001,21,w,Psychologie,2023-01-23_09h05.54.696,00_bat_bachelor,2022.2.4,59.92750591847229,
,,,,,,,,,,,,0,0,0,0,85,0,85,0,,,,,,,85,,,1,1435.8136359691853,X,d,go,d,1,0.35751052538398653,,,,,,,,,,,,,,,,,,50,001,21,w,Psychologie,2023-01-23_09h05.54.696,00_bat_bachelor,2022.2.4,59.92750591847229,
,,,,,,,,,,,,0,0,0,0,86,0,86,0,,,,,,,86,,,1,1437.3142999688862,Y,l,go,l,1,0.44026297016534954,,,,,,,,,,,,,,,,,,50,001,21,w,Psychologie,2023-01-23_09h05.54.696,00_bat_bachelor,2022.2.4,59.92750591847229,
,,,,,,,,,,,,0,0,0,0,87,0,87,0,,,,,,,87,,,1,1438.8652325501898,Y,None,nogo,None,1,,1439.6658445256762,,,,,,,,,,,,,,,,,50,001,21,w,Psychologie,2023-01-23_09h05.54.696,00_bat_bachelor,2022.2.4,59.92750591847229,
,,,,,,,,,,,,0,0,0,0,88,0,88,0,,,,,,,88,,,1,1440.66662755562,X,d,go,d,1,0.28797504387330264,,,,,,,,,,,,,,,,,,50,001,21,w,Psychologie,2023-01-23_09h05.54.696,00_bat_bachelor,2022.2.4,59.92750591847229,
,,,,,,,,,,,,0,0,0,0,89,0,89,0,,,,,,,89,,,1,1442.0841696561547,Y,l,go,l,1,0.5676810900913551,,,,,,,,,,,,,,,,,,50,001,21,w,Psychologie,2023-01-23_09h05.54.696,00_bat_bachelor,2022.2.4,59.92750591847229,
,,,,,,,,,,,,0,0,0,0,90,0,90,0,,,,,,,90,,,1,1443.7686279909685,X,d,go,d,1,0.35386349679902196,,,,,,,,,,,,,,,,,,50,001,21,w,Psychologie,2023-01-23_09h05.54.696,00_bat_bachelor,2022.2.4,59.92750591847229,
,,,,,,,,,,,,0,0,0,0,91,0,91,0,,,,,,,91,,,1,1445.2364857036155,X,None,nogo,l,0,0.5021625764202327,,,,,,,,,,,,,,,,,,50,001,21,w,Psychologie,2023-01-23_09h05.54.696,00_bat_bachelor,2022.2.4,59.92750591847229,
,,,,,,,,,,,,0,0,0,0,92,0,92,0,,,,,,,92,,,1,1446.8544049190823,Y,l,go,l,1,0.5327608647057787,,,,,,,,,,,,,,,,,,50,001,21,w,Psychologie,2023-01-23_09h05.54.696,00_bat_bachelor,2022.2.4,59.92750591847229,
,,,,,,,,,,,,0,0,0,0,93,0,93,0,,,,,,,93,,,1,1448.4890329750488,X,d,go,d,1,0.48228670726530254,,,,,,,,,,,,,,,,,,50,001,21,w,Psychologie,2023-01-23_09h05.54.696,00_bat_bachelor,2022.2.4,59.92750591847229,
,,,,,,,,,,,,0,0,0,0,94,0,94,0,,,,,,,94,,,1,1450.073639237089,Y,l,go,l,1,0.5148394188145176,,,,,,,,,,,,,,,,,,50,001,21,w,Psychologie,2023-01-23_09h05.54.696,00_bat_bachelor,2022.2.4,59.92750591847229,
,,,,,,,,,,,,0,0,0,0,95,0,95,0,,,,,,,95,,,1,1451.691512392019,X,d,go,d,1,0.4960340945981443,,,,,,,,,,,,,,,,,,50,001,21,w,Psychologie,2023-01-23_09h05.54.696,00_bat_bachelor,2022.2.4,59.92750591847229,
,,,,,,,,,,,,0,0,0,0,96,0,96,0,,,,,,,96,,,1,1453.2928022823762,Y,l,go,l,1,0.4299250356853008,,,,,,,,,,,,,,,,,,50,001,21,w,Psychologie,2023-01-23_09h05.54.696,00_bat_bachelor,2022.2.4,59.92750591847229,
,,,,,,,,,,,,0,0,0,0,97,0,97,0,,,,,,,97,,,1,1454.827301901998,X,d,go,d,1,0.43235073157120496,,,,,,,,,,,,,,,,,,50,001,21,w,Psychologie,2023-01-23_09h05.54.696,00_bat_bachelor,2022.2.4,59.92750591847229,
,,,,,,,,,,,,0,0,0,0,98,0,98,0,,,,,,,98,,,1,1456.361571218702,X,None,nogo,None,1,,,,,,,,,,,,,,,,,,,50,001,21,w,Psychologie,2023-01-23_09h05.54.696,00_bat_bachelor,2022.2.4,59.92750591847229,
,,,,,,,,,,,,0,0,0,0,99,0,99,0,,,,,,,99,,,1,1458.1631819815375,Y,l,go,l,1,0.2642223280854523,,,,,,,,,,,,,,,,,,50,001,21,w,Psychologie,2023-01-23_09h05.54.696,00_bat_bachelor,2022.2.4,59.92750591847229,
,,,,,,,,,,,,0,0,0,0,100,0,100,0,,,,,,,100,,,1,1459.530854530516,X,d,go,d,1,0.5286668059416115,,,,,,,,,,,,,,,,,,50,001,21,w,Psychologie,2023-01-23_09h05.54.696,00_bat_bachelor,2022.2.4,59.92750591847229,
,,,,,,,,,,,,0,0,0,0,101,0,101,0,,,,,,,101,,,1,1461.1654680409702,X,None,nogo,l,0,0.5426886174827814,,,,,,,,,,,,,,,,,,50,001,21,w,Psychologie,2023-01-23_09h05.54.696,00_bat_bachelor,2022.2.4,59.92750591847229,
,,,,,,,,,,,,0,0,0,0,102,0,102,0,,,,,,,102,,,1,1462.8167894221842,Y,l,go,l,1,0.393943477421999,,,,,,,,,,,,,,,,,,50,001,21,w,Psychologie,2023-01-23_09h05.54.696,00_bat_bachelor,2022.2.4,59.92750591847229,
,,,,,,,,,,,,0,0,0,0,103,0,103,0,,,,,,,103,,,1,1464.3177976640873,X,d,go,d,1,0.4772918005473912,,,,,,,,,,,,,,,,,,50,001,21,w,Psychologie,2023-01-23_09h05.54.696,00_bat_bachelor,2022.2.4,59.92750591847229,
,,,,,,,,,,,,0,0,0,0,104,0,104,0,,,,,,,104,,,1,1465.9023273200728,Y,l,go,l,1,0.508411300717853,,,,,,,,,,,,,,,,,,50,001,21,w,Psychologie,2023-01-23_09h05.54.696,00_bat_bachelor,2022.2.4,59.92750591847229,
,,,,,,,,,,,,0,0,0,0,105,0,105,0,,,,,,,105,,,1,1467.5202576871961,X,d,go,d,1,0.3469708941411227,,,,,,,,,,,,,,,,,,50,001,21,w,Psychologie,2023-01-23_09h05.54.696,00_bat_bachelor,2022.2.4,59.92750591847229,
,,,,,,,,,,,,0,0,0,0,106,0,106,0,,,,,,,106,,,1,1468.9712712867185,Y,l,go,l,1,0.3197398770134896,,,,,,,,,,,,,,,,,,50,001,21,w,Psychologie,2023-01-23_09h05.54.696,00_bat_bachelor,2022.2.4,59.92750591847229,
,,,,,,,,,,,,0,0,0,0,107,0,107,0,,,,,,,107,,,1,1470.405785015435,Y,None,nogo,None,1,,1471.2063931120792,,,,,,,,,,,,,,,,,50,001,21,w,Psychologie,2023-01-23_09h05.54.696,00_bat_bachelor,2022.2.4,59.92750591847229,
,,,,,,,,,,,,0,0,0,0,108,0,108,0,,,,,,,108,,,1,1472.2070137178525,X,d,go,d,1,0.3957606885815039,,,,,,,,,,,,,,,,,,50,001,21,w,Psychologie,2023-01-23_09h05.54.696,00_bat_bachelor,2022.2.4,59.92750591847229,
,,,,,,,,,,,,0,0,0,0,109,0,109,0,,,,,,,109,,,1,1473.7081305658212,Y,l,go,l,1,0.43145376222673804,,,,,,,,,,,,,,,,,,50,001,21,w,Psychologie,2023-01-23_09h05.54.696,00_bat_bachelor,2022.2.4,59.92750591847229,
,,,,,,,,,,,,0,0,0,0,110,0,110,0,,,,,,,110,,,1,1475.2428289732197,Y,None,nogo,None,1,,,,,,,,,,,,,,,,,,,50,001,21,w,Psychologie,2023-01-23_09h05.54.696,00_bat_bachelor,2022.2.4,59.92750591847229,
,,,,,,,,,,,,0,0,0,0,111,0,111,0,,,,,,,111,,,1,1477.0440610696096,X,d,go,d,1,0.37487972900271416,,,,,,,,,,,,,,,,,,50,001,21,w,Psychologie,2023-01-23_09h05.54.696,00_bat_bachelor,2022.2.4,59.92750591847229,
,,,,,,,,,,,,0,0,0,0,112,0,112,0,,,,,,,112,,,1,1478.5286668952322,Y,l,go,l,1,0.44395460467785597,,,,,,,,,,,,,,,,,,50,001,21,w,Psychologie,2023-01-23_09h05.54.696,00_bat_bachelor,2022.2.4,59.92750591847229,
,,,,,,,,,,,,0,0,0,0,113,0,113,0,,,,,,,113,,,1,1480.0798603249714,X,d,go,d,1,0.39644723385572433,,,,,,,,,,,,,,,,,,50,001,21,w,Psychologie,2023-01-23_09h05.54.696,00_bat_bachelor,2022.2.4,59.92750591847229,
,,,,,,,,,,,,0,0,0,0,114,0,114,0,,,,,,,114,,,1,1481.5808094154345,X,None,nogo,None,1,,1482.3815910877893,,,,,,,,,,,,,,,,,50,001,21,w,Psychologie,2023-01-23_09h05.54.696,00_bat_bachelor,2022.2.4,59.92750591847229,
,,,,,,,,,,,,0,0,0,0,115,0,115,0,,,,,,,115,,,1,1483.3821956935572,Y,l,go,l,1,0.42079679761081934,,,,,,,,,,,,,,,,,,50,001,21,w,Psychologie,2023-01-23_09h05.54.696,00_bat_bachelor,2022.2.4,59.92750591847229,
,,,,,,,,,,,,0,0,0,0,116,0,116,0,,,,,,,116,,,1,1484.9168751918478,X,d,go,None,0,,,,,,,,,,,,,,,,,,,50,001,21,w,Psychologie,2023-01-23_09h05.54.696,00_bat_bachelor,2022.2.4,59.92750591847229,
,,,,,,,,,,,,0,0,0,0,117,0,117,0,,,,,,,117,,,1,1486.7182478941977,X,None,nogo,None,1,,,,,,,,,,,,,,,,,,,50,001,21,w,Psychologie,2023-01-23_09h05.54.696,00_bat_bachelor,2022.2.4,59.92750591847229,
,,,,,,,,,,,,0,0,0,0,118,0,118,0,,,,,,,118,,,1,1488.51963514206,Y,l,go,l,1,0.5157572365133092,,,,,,,,,,,,,,,,,,50,001,21,w,Psychologie,2023-01-23_09h05.54.696,00_bat_bachelor,2022.2.4,59.92750591847229,
,,,,,,,,,,,,0,0,0,0,119,0,119,0,,,,,,,119,,,1,1490.137901024078,X,d,go,d,1,0.593366895802319,,,,,,,,,,,,,,,,,,50,001,21,w,Psychologie,2023-01-23_09h05.54.696,00_bat_bachelor,2022.2.4,59.92750591847229,
,,,,,,,,,,,,0,0,0,0,120,0,120,0,,,,,,,120,,,1,1491.8387128055329,X,None,nogo,None,1,,,,,,,,,,,,,,,,,,,50,001,21,w,Psychologie,2023-01-23_09h05.54.696,00_bat_bachelor,2022.2.4,59.92750591847229,
,,,,,,,,,,,,0,0,0,0,121,0,121,0,,,,,,,121,,,1,1493.6400084169582,X,None,nogo,None,1,,,,,,,,,,,,,,,,,,,50,001,21,w,Psychologie,2023-01-23_09h05.54.696,00_bat_bachelor,2022.2.4,59.92750591847229,
,,,,,,,,,,,,0,0,0,0,122,0,122,0,,,,,,,122,,,1,1495.441652634414,Y,l,go,l,1,0.2822063195053488,,,,,,,,,,,,,,,,,,50,001,21,w,Psychologie,2023-01-23_09h05.54.696,00_bat_bachelor,2022.2.4,59.92750591847229,
,,,,,,,,,,,,0,0,0,0,123,0,123,0,,,,,,,123,,,1,1496.8258827511454,X,d,go,d,1,0.4332811553031206,,,,,,,,,,,,,,,,,,50,001,21,w,Psychologie,2023-01-23_09h05.54.696,00_bat_bachelor,2022.2.4,59.92750591847229,
,,,,,,,,,,,,0,0,0,0,124,0,124,0,,,,,,,124,,,1,1498.3604512192542,Y,l,go,l,1,0.46669495734386146,,,,,,,,,,,,,,,,,,50,001,21,w,Psychologie,2023-01-23_09h05.54.696,00_bat_bachelor,2022.2.4,59.92750591847229,
,,,,,,,,,,,,0,0,0,0,125,0,125,0,,,,,,,125,,,1,1499.9280776106752,X,d,go,d,1,0.49819263897370547,,,,,,,,,,,,,,,,,,50,001,21,w,Psychologie,2023-01-23_09h05.54.696,00_bat_bachelor,2022.2.4,59.92750591847229,
,,,,,,,,,,,,0,0,0,0,126,0,126,0,,,,,,,126,,,1,1501.5293170767836,Y,l,go,l,1,0.43344454921316355,,,,,,,,,,,,,,,,,,50,001,21,w,Psychologie,2023-01-23_09h05.54.696,00_bat_bachelor,2022.2.4,59.92750591847229,
,,,,,,,,,,,,0,0,0,0,127,0,127,0,,,,,,,127,,,1,1503.0637686963892,X,d,go,d,1,0.6591860154876485,,,,,,,,,,,,,,,,,,50,001,21,w,Psychologie,2023-01-23_09h05.54.696,00_bat_bachelor,2022.2.4,59.92750591847229,
,,,,,,,,,,,,0,0,0,0,128,0,128,0,,,,,,,128,,,1,1504.8320912329946,Y,l,go,l,1,0.39624117326457053,,,,,,,,,,,,,,,,,,50,001,21,w,Psychologie,2023-01-23_09h05.54.696,00_bat_bachelor,2022.2.4,59.92750591847229,
,,,,,,,,,,,,0,0,0,0,129,0,129,0,,,,,,,129,,,1,1506.3331382627366,Y,None,nogo,None,1,,,,,,,,,,,,,,,,,,,50,001,21,w,Psychologie,2023-01-23_09h05.54.696,00_bat_bachelor,2022.2.4,59.92750591847229,
,,,,,,,,,,,,0,0,0,0,130,0,130,0,,,,,,,130,,,1,1508.1345560560003,X,d,go,d,1,0.35781549487728626,,,,,,,,,,,,,,,,,,50,001,21,w,Psychologie,2023-01-23_09h05.54.696,00_bat_bachelor,2022.2.4,59.92750591847229,
,,,,,,,,,,,,0,0,0,0,131,0,131,0,,,,,,,131,,,1,1509.602373041329,Y,l,go,l,1,0.36206906859297305,,,,,,,,,,,,,,,,,,50,001,21,w,Psychologie,2023-01-23_09h05.54.696,00_bat_bachelor,2022.2.4,59.92750591847229,
,,,,,,,,,,,,0,0,0,0,132,0,132,0,,,,,,,132,,,1,1511.070112935733,Y,None,nogo,None,1,,,,,,,,,,,,,,,,,,,50,001,21,w,Psychologie,2023-01-23_09h05.54.696,00_bat_bachelor,2022.2.4,59.92750591847229,
,,,,,,,,,,,,0,0,0,0,133,0,133,0,,,,,,,133,,,1,1512.871599092614,X,d,go,d,1,0.4996588199865073,,,,,,,,,,,,,,,,,,50,001,21,w,Psychologie,2023-01-23_09h05.54.696,00_bat_bachelor,2022.2.4,59.92750591847229,
,,,,,,,,,,,,0,0,0,0,134,0,134,0,,,,,,,134,,,1,1514.4728215889772,Y,l,go,l,1,0.40179995843209326,,,,,,,,,,,,,,,,,,50,001,21,w,Psychologie,2023-01-23_09h05.54.696,00_bat_bachelor,2022.2.4,59.92750591847229,
,,,,,,,,,,,,0,0,0,0,135,0,135,0,,,,,,,135,,,1,1515.9905023076572,Y,None,nogo,None,1,,,,,,,,,,,,,,,,,,,50,001,21,w,Psychologie,2023-01-23_09h05.54.696,00_bat_bachelor,2022.2.4,59.92750591847229,
,,,,,,,,,,,,0,0,0,0,136,0,136,0,,,,,,,136,,,1,1517.7918051918969,X,d,go,d,1,0.47466537763830274,,,,,,,,,,,,,,,,,,50,001,21,w,Psychologie,2023-01-23_09h05.54.696,00_bat_bachelor,2022.2.4,59.92750591847229,
,,,,,,,,,,,,0,0,0,0,137,0,137,0,,,,,,,137,,,1,1519.3764114539372,Y,l,go,l,1,0.5711918763117865,,,,,,,,,,,,,,,,,,50,001,21,w,Psychologie,2023-01-23_09h05.54.696,00_bat_bachelor,2022.2.4,59.92750591847229,
,,,,,,,,,,,,0,0,0,0,138,0,138,0,,,,,,,138,,,1,1521.0608760917094,X,d,go,d,1,0.4375841834116727,,,,,,,,,,,,,,,,,,50,001,21,w,Psychologie,2023-01-23_09h05.54.696,00_bat_bachelor,2022.2.4,59.92750591847229,
,,,,,,,,,,,,0,0,0,0,139,0,139,0,,,,,,,139,,,1,1522.6123929152964,Y,l,go,l,1,0.4715579852927476,,,,,,,,,,,,,,,,,,50,001,21,w,Psychologie,2023-01-23_09h05.54.696,00_bat_bachelor,2022.2.4,59.92750591847229,
,,,,,,,,,,,,0,0,0,0,140,0,140,0,,,,,,,140,,,1,1524.1966597834835,X,d,go,d,1,0.438033637823537,,,,,,,,,,,,,,,,,,50,001,21,w,Psychologie,2023-01-23_09h05.54.696,00_bat_bachelor,2022.2.4,59.92750591847229,
,,,,,,,,,,,,0,0,0,0,141,0,141,0,,,,,,,141,,,1,1525.7480195161188,Y,l,go,l,1,0.3745063958922401,,,,,,,,,,,,,,,,,,50,001,21,w,Psychologie,2023-01-23_09h05.54.696,00_bat_bachelor,2022.2.4,59.92750591847229,
,,,,,,,,,,,,0,0,0,0,142,0,142,0,,,,,,,142,,,1,1527.2325846145395,X,d,go,d,1,0.5392238917993382,,,,,,,,,,,,,,,,,,50,001,21,w,Psychologie,2023-01-23_09h05.54.696,00_bat_bachelor,2022.2.4,59.92750591847229,
,,,,,,,,,,,,0,0,0,0,143,0,143,0,,,,,,,143,,,1,1528.883448783774,X,None,nogo,l,0,0.4390998191665858,,,,,,,,,,,,,,,,,,50,001,21,w,Psychologie,2023-01-23_09h05.54.696,00_bat_bachelor,2022.2.4,59.92750591847229,
,,,,,,,,,,,,0,0,0,0,144,0,144,0,,,,,,,144,,,1,1530.4350223345682,Y,l,go,l,1,0.2968366154236719,,,,,,,,,,,,,,,,,,50,001,21,w,Psychologie,2023-01-23_09h05.54.696,00_bat_bachelor,2022.2.4,59.92750591847229,
,,,,,,,,,,,,0,0,0,0,145,0,145,0,,,,,,,145,,,1,1531.8358972917777,X,d,go,None,0,,,,,,,,,,,,,,,,,,,50,001,21,w,Psychologie,2023-01-23_09h05.54.696,00_bat_bachelor,2022.2.4,59.92750591847229,
,,,,,,,,,,,,0,0,0,0,146,0,146,0,,,,,,,146,,,1,1533.6374101152178,X,None,nogo,None,1,,1534.4379357877187,,,,,,,,,,,,,,,,,50,001,21,w,Psychologie,2023-01-23_09h05.54.696,00_bat_bachelor,2022.2.4,59.92750591847229,
,,,,,,,,,,,,0,0,0,0,147,0,147,0,,,,,,,147,,,1,1535.4386441509705,Y,l,go,l,1,0.5733126025879756,,,,,,,,,,,,,,,,,,50,001,21,w,Psychologie,2023-01-23_09h05.54.696,00_bat_bachelor,2022.2.4,59.92750591847229,
,,,,,,,,,,,,0,0,0,0,148,0,148,0,,,,,,,148,,,1,1537.1230927888537,X,d,go,d,1,0.664173164521344,,,,,,,,,,,,,,,,,,50,001,21,w,Psychologie,2023-01-23_09h05.54.696,00_bat_bachelor,2022.2.4,59.92750591847229,
,,,,,,,,,,,,0,0,0,0,149,0,149,0,,,,,,,149,,,1,1538.891281992197,Y,l,go,l,1,0.43210588314104825,,,,,,,,,,,,,,,,,,50,001,21,w,Psychologie,2023-01-23_09h05.54.696,00_bat_bachelor,2022.2.4,59.92750591847229,
,,,,,,,,,,,,0,0,0,0,150,0,150,0,,,,,,,150,,,1,1540.425684642163,X,d,go,d,1,0.4822513133985922,,,,,,,,,,,,,,,,,,50,001,21,w,Psychologie,2023-01-23_09h05.54.696,00_bat_bachelor,2022.2.4,59.92750591847229,
,,,,,,,,,,,,0,0,0,0,151,0,151,0,,,,,,,151,,,1,1542.0103112678044,X,None,nogo,None,1,,,,,,,,,,,,,,,,,,,50,001,21,w,Psychologie,2023-01-23_09h05.54.696,00_bat_bachelor,2022.2.4,59.92750591847229,
,,,,,,,,,,,,0,0,0,0,152,0,152,0,,,,,,,152,,,1,1543.8114871217404,X,None,nogo,None,1,,,,,,,,,,,,,,,,,,,50,001,21,w,Psychologie,2023-01-23_09h05.54.696,00_bat_bachelor,2022.2.4,59.92750591847229,
,,,,,,,,,,,,0,0,0,0,153,0,153,0,,,,,,,153,,,1,1545.613095945213,Y,l,go,l,1,0.26985432545188814,,,,,,,,,,,,,,,,,,50,001,21,w,Psychologie,2023-01-23_09h05.54.696,00_bat_bachelor,2022.2.4,59.92750591847229,
,,,,,,,,,,,,0,0,0,0,154,0,154,0,,,,,,,154,,,1,1546.9975112739485,X,d,go,d,1,0.5177528718486428,,,,,,,,,,,,,,,,,,50,001,21,w,Psychologie,2023-01-23_09h05.54.696,00_bat_bachelor,2022.2.4,59.92750591847229,
,,,,,,,,,,,,0,0,0,0,155,0,155,0,,,,,,,155,,,1,1548.6159517014166,Y,l,go,l,1,0.4509466012241319,,,,,,,,,,,,,,,,,,50,001,21,w,Psychologie,2023-01-23_09h05.54.696,00_bat_bachelor,2022.2.4,59.92750591847229,
,,,,,,,,,,,,0,0,0,0,156,0,156,0,,,,,,,156,,,1,1550.167157737189,Y,None,nogo,None,1,,1550.9676077733748,,,,,,,,,,,,,,,,,50,001,21,w,Psychologie,2023-01-23_09h05.54.696,00_bat_bachelor,2022.2.4,59.92750591847229,
,,,,,,,,,,,,0,0,0,0,157,0,157,0,,,,,,,157,,,1,1551.9684693486197,Y,None,nogo,None,1,,1552.7691346574575,,,,,,,,,,,,,,,,,50,001,21,w,Psychologie,2023-01-23_09h05.54.696,00_bat_bachelor,2022.2.4,59.92750591847229,
,,,,,,,,,,,,0,0,0,0,158,0,158,0,,,,,,,158,,,1,1553.7699007176561,X,d,go,d,1,0.49662270036060363,,,,,,,,,,,,,,,,,,50,001,21,w,Psychologie,2023-01-23_09h05.54.696,00_bat_bachelor,2022.2.4,59.92750591847229,
,,,,,,,,,,,,0,0,0,0,159,0,159,0,,,,,,,159,,,1,1555.387786963489,Y,l,go,None,0,,1556.188240393647,,,,,,,,,,,,,,,,,50,001,21,w,Psychologie,2023-01-23_09h05.54.696,00_bat_bachelor,2022.2.4,59.92750591847229,
,,,,,,,,,,,,0,0,0,0,160,0,160,0,,,,,,,160,,,1,1557.188985120505,Y,None,nogo,None,1,,1557.989688732312,,,,,,,,,,,,,,,,,50,001,21,w,Psychologie,2023-01-23_09h05.54.696,00_bat_bachelor,2022.2.4,59.92750591847229,
,,,,,,,,,,,,0,0,0,0,161,0,161,0,,,,,,,161,,,1,1558.9906167318113,X,d,go,d,1,0.5880641106050462,,,,,,,,,,,,,,,,,,50,001,21,w,Psychologie,2023-01-23_09h05.54.696,00_bat_bachelor,2022.2.4,59.92750591847229,
,,,,,,,,,,,,0,0,0,0,162,0,162,0,,,,,,,162,,,1,1560.6916437859181,Y,l,go,l,1,0.26211323821917176,,,,,,,,,,,,,,,,,,50,001,21,w,Psychologie,2023-01-23_09h05.54.696,00_bat_bachelor,2022.2.4,59.92750591847229,
,,,,,,,,,,,,0,0,0,0,163,0,163,0,,,,,,,163,,,1,1562.0761730540544,Y,None,nogo,None,1,,1562.8769552111626,,,,,,,,,,,,,,,,,50,001,21,w,Psychologie,2023-01-23_09h05.54.696,00_bat_bachelor,2022.2.4,59.92750591847229,
,,,,,,,,,,,,0,0,0,0,164,0,164,0,,,,,,,164,,,1,1563.8773939989042,X,d,go,d,1,0.2930848596151918,,,,,,,,,,,,,,,,,,50,001,21,w,Psychologie,2023-01-23_09h05.54.696,00_bat_bachelor,2022.2.4,59.92750591847229,
,,,,,,,,,,,,0,0,0,0,165,0,165,0,,,,,,,165,,,1,1565.2783373196144,Y,l,go,None,0,,1566.078800446703,,,,,,,,,,,,,,,,,50,001,21,w,Psychologie,2023-01-23_09h05.54.696,00_bat_bachelor,2022.2.4,59.92750591847229,
,,,,,,,,,,,,0,0,0,0,166,0,166,0,,,,,,,166,,,1,1567.0797027492663,X,d,go,d,1,0.3558751321397722,,,,,,,,,,,,,,,,,,50,001,21,w,Psychologie,2023-01-23_09h05.54.696,00_bat_bachelor,2022.2.4,59.92750591847229,
,,,,,,,,,,,,0,0,0,0,167,0,167,0,,,,,,,167,,,1,1568.5472574316664,Y,l,go,l,1,0.48751288664061576,,,,,,,,,,,,,,,,,,50,001,21,w,Psychologie,2023-01-23_09h05.54.696,00_bat_bachelor,2022.2.4,59.92750591847229,
,,,,,,,,,,,,0,0,0,0,168,0,168,0,,,,,,,168,,,1,1570.1484193219803,Y,None,nogo,None,1,,,,,,,,,,,,,,,,,,,50,001,21,w,Psychologie,2023-01-23_09h05.54.696,00_bat_bachelor,2022.2.4,59.92750591847229,
,,,,,,,,,,,,0,0,0,0,169,0,169,0,,,,,,,169,,,1,1571.949666448636,X,d,go,d,1,0.34888022649101913,,,,,,,,,,,,,,,,,,50,001,21,w,Psychologie,2023-01-23_09h05.54.696,00_bat_bachelor,2022.2.4,59.92750591847229,
,,,,,,,,,,,,0,0,0,0,170,0,170,0,,,,,,,170,,,1,1573.4009476844221,Y,l,go,l,1,0.562573698698543,,,,,,,,,,,,,,,,,,50,001,21,w,Psychologie,2023-01-23_09h05.54.696,00_bat_bachelor,2022.2.4,59.92750591847229,
,,,,,,,,,,,,0,0,0,0,171,0,171,0,,,,,,,171,,,1,1575.0688833605964,X,d,go,d,1,0.46301689848769456,,,,,,,,,,,,,,,,,,50,001,21,w,Psychologie,2023-01-23_09h05.54.696,00_bat_bachelor,2022.2.4,59.92750591847229,
,,,,,,,,,,,,0,0,0,0,172,0,172,0,,,,,,,172,,,1,1576.6364903581562,X,None,nogo,None,1,,1577.4374635454733,,,,,,,,,,,,,,,,,50,001,21,w,Psychologie,2023-01-23_09h05.54.696,00_bat_bachelor,2022.2.4,59.92750591847229,
,,,,,,,,,,,,0,0,0,0,173,0,173,0,,,,,,,173,,,1,1578.4381418481935,Y,l,go,l,1,0.45338829699903727,,,,,,,,,,,,,,,,,,50,001,21,w,Psychologie,2023-01-23_09h05.54.696,00_bat_bachelor,2022.2.4,59.92750591847229,
,,,,,,,,,,,,0,0,0,0,174,0,174,0,,,,,,,174,,,1,1580.0058041184675,X,d,go,d,1,0.3730329421814531,,,,,,,,,,,,,,,,,,50,001,21,w,Psychologie,2023-01-23_09h05.54.696,00_bat_bachelor,2022.2.4,59.92750591847229,
,,,,,,,,,,,,0,0,0,0,175,0,175,0,,,,,,,175,,,1,1581.4904899440007,X,None,nogo,None,1,,,,,,,,,,,,,,,,,,,50,001,21,w,Psychologie,2023-01-23_09h05.54.696,00_bat_bachelor,2022.2.4,59.92750591847229,
,,,,,,,,,,,,0,0,0,0,176,0,176,0,,,,,,,176,,,1,1583.2918175555533,Y,l,go,l,1,0.3346135668689385,,,,,,,,,,,,,,,,,,50,001,21,w,Psychologie,2023-01-23_09h05.54.696,00_bat_bachelor,2022.2.4,59.92750591847229,
,,,,,,,,,,,,0,0,0,0,177,0,177,0,,,,,,,177,,,1,1584.742889336776,X,d,go,d,1,0.5162154181161895,,,,,,,,,,,,,,,,,,50,001,21,w,Psychologie,2023-01-23_09h05.54.696,00_bat_bachelor,2022.2.4,59.92750591847229,
,,,,,,,,,,,,0,0,0,0,178,0,178,0,,,,,,,178,,,1,1586.3605098858243,Y,l,go,l,1,0.4818968892795965,,,,,,,,,,,,,,,,,,50,001,21,w,Psychologie,2023-01-23_09h05.54.696,00_bat_bachelor,2022.2.4,59.92750591847229,
,,,,,,,,,,,,0,0,0,0,179,0,179,0,,,,,,,179,,,1,1587.9451234205626,X,d,go,d,1,0.4983206389006227,,,,,,,,,,,,,,,,,,50,001,21,w,Psychologie,2023-01-23_09h05.54.696,00_bat_bachelor,2022.2.4,59.92750591847229,
,,,,,,,,,,,,0,0,0,0,180,0,180,0,,,,,,,180,,,1,1589.5465451895725,Y,l,go,l,1,0.5931361081311479,,,,,,,,,,,,,,,,,,50,001,21,w,Psychologie,2023-01-23_09h05.54.696,00_bat_bachelor,2022.2.4,59.92750591847229,
,,,,,,,,,,,,0,0,0,0,181,0,181,0,,,,,,,181,,,1,1591.2479722434655,Y,None,nogo,d,0,0.4758488922379911,,,,,,,,,,,,,,,,,,50,001,21,w,Psychologie,2023-01-23_09h05.54.696,00_bat_bachelor,2022.2.4,59.92750591847229,
,,,,,,,,,,,,0,0,0,0,182,0,182,0,,,,,,,182,,,1,1592.8325232327916,X,d,go,d,1,0.3942402044776827,,,,,,,,,,,,,,,,,,50,001,21,w,Psychologie,2023-01-23_09h05.54.696,00_bat_bachelor,2022.2.4,59.92750591847229,
,,,,,,,,,,,,0,0,0,0,183,0,183,0,,,,,,,183,,,1,1594.3333865050226,Y,l,go,None,0,,,,,,,,,,,,,,,,,,,50,001,21,w,Psychologie,2023-01-23_09h05.54.696,00_bat_bachelor,2022.2.4,59.92750591847229,
,,,,,,,,,,,,0,0,0,0,184,0,184,0,,,,,,,184,,,1,1596.1349322982132,X,d,go,d,1,0.43618297204375267,,,,,,,,,,,,,,,,,,50,001,21,w,Psychologie,2023-01-23_09h05.54.696,00_bat_bachelor,2022.2.4,59.92750591847229,
,,,,,,,,,,,,0,0,0,0,185,0,185,0,,,,,,,185,,,1,1597.686088394723,X,None,nogo,None,1,,,,,,,,,,,,,,,,,,,50,001,21,w,Psychologie,2023-01-23_09h05.54.696,00_bat_bachelor,2022.2.4,59.92750591847229,
,,,,,,,,,,,,0,0,0,0,186,0,186,0,,,,,,,186,,,1,1599.4874887333717,Y,l,go,l,1,0.39568505238275975,,,,,,,,,,,,,,,,,,50,001,21,w,Psychologie,2023-01-23_09h05.54.696,00_bat_bachelor,2022.2.4,59.92750591847229,
,,,,,,,,,,,,0,0,0,0,187,0,187,0,,,,,,,187,,,1,1600.9885924904374,X,d,go,d,1,0.5109727539820597,,,,,,,,,,,,,,,,,,50,001,21,w,Psychologie,2023-01-23_09h05.54.696,00_bat_bachelor,2022.2.4,59.92750591847229,
,,,,,,,,,,,,0,0,0,0,188,0,188,0,,,,,,,188,,,1,1602.6063114636345,Y,l,go,l,1,0.49367336835712194,,,,,,,,,,,,,,,,,,50,001,21,w,Psychologie,2023-01-23_09h05.54.696,00_bat_bachelor,2022.2.4,59.92750591847229,
,,,,,,,,,,,,0,0,0,0,189,0,189,0,,,,,,,189,,,1,1604.2077409902122,Y,None,nogo,None,1,,,,,,,,,,,,,,,,,,,50,001,21,w,Psychologie,2023-01-23_09h05.54.696,00_bat_bachelor,2022.2.4,59.92750591847229,
,,,,,,,,,,,,0,0,0,0,190,0,190,0,,,,,,,190,,,1,1606.0088489654008,X,d,go,d,1,0.5141839039279148,,,,,,,,,,,,,,,,,,50,001,21,w,Psychologie,2023-01-23_09h05.54.696,00_bat_bachelor,2022.2.4,59.92750591847229,
,,,,,,,,,,,,0,0,0,0,191,0,191,0,,,,,,,191,,,1,1607.6270707263611,Y,l,go,l,1,0.2878761349711567,,,,,,,,,,,,,,,,,,50,001,21,w,Psychologie,2023-01-23_09h05.54.696,00_bat_bachelor,2022.2.4,59.92750591847229,
,,,,,,,,,,,,0,0,0,0,192,0,192,0,,,,,,,192,,,1,1609.0277944108238,X,d,go,d,1,0.599287862656638,,,,,,,,,,,,,,,,,,50,001,21,w,Psychologie,2023-01-23_09h05.54.696,00_bat_bachelor,2022.2.4,59.92750591847229,
,,,,,,,,,,,,0,0,0,0,193,0,193,0,,,,,,,193,,,1,1610.7293926160783,Y,l,go,l,1,0.4502042985986918,,,,,,,,,,,,,,,,,,50,001,21,w,Psychologie,2023-01-23_09h05.54.696,00_bat_bachelor,2022.2.4,59.92750591847229,
,,,,,,,,,,,,0,0,0,0,194,0,194,0,,,,,,,194,,,1,1612.2806902881712,X,d,go,None,0,,,,,,,,,,,,,,,,,,,50,001,21,w,Psychologie,2023-01-23_09h05.54.696,00_bat_bachelor,2022.2.4,59.92750591847229,
,,,,,,,,,,,,0,0,0,0,195,0,195,0,,,,,,,195,,,1,1614.082048445125,X,None,nogo,None,1,,1614.8824068449903,,,,,,,,,,,,,,,,,50,001,21,w,Psychologie,2023-01-23_09h05.54.696,00_bat_bachelor,2022.2.4,59.92750591847229,
,,,,,,,,,,,,0,0,0,0,196,0,196,0,,,,,,,196,,,1,1615.883320783847,Y,l,go,l,1,0.3194203620078042,,,,,,,,,,,,,,,,,,50,001,21,w,Psychologie,2023-01-23_09h05.54.696,00_bat_bachelor,2022.2.4,59.92750591847229,
,,,,,,,,,,,,0,0,0,0,197,0,197,0,,,,,,,197,,,1,1617.3177186339162,X,d,go,d,1,0.4528898730641231,,,,,,,,,,,,,,,,,,50,001,21,w,Psychologie,2023-01-23_09h05.54.696,00_bat_bachelor,2022.2.4,59.92750591847229,
,,,,,,,,,,,,0,0,0,0,198,0,198,0,,,,,,,198,,,1,1618.8856102373684,Y,l,go,l,1,0.48536113009322435,,,,,,,,,,,,,,,,,,50,001,21,w,Psychologie,2023-01-23_09h05.54.696,00_bat_bachelor,2022.2.4,59.92750591847229,
,,,,,,,,,,,,0,0,0,0,199,0,199,0,,,,,,,199,,,1,1620.4867866730783,X,d,go,d,1,0.30805697350297123,,,,,,,,,,,,,,,,,,50,001,21,w,Psychologie,2023-01-23_09h05.54.696,00_bat_bachelor,2022.2.4,59.92750591847229,
,,,,,,,,,,,,0,0,0,0,200,0,200,0,,,,,,,200,,,1,1621.9045765311457,Y,l,go,l,1,0.3626373107545078,,,,,,,,,,,,,,,,,,50,001,21,w,Psychologie,2023-01-23_09h05.54.696,00_bat_bachelor,2022.2.4,59.92750591847229,
,,,,,,,,,,,,0,0,0,0,201,0,201,0,,,,,,,201,,,1,1623.3720841832692,X,d,go,d,1,0.35103004367556423,,,,,,,,,,,,,,,,,,50,001,21,w,Psychologie,2023-01-23_09h05.54.696,00_bat_bachelor,2022.2.4,59.92750591847229,
,,,,,,,,,,,,0,0,0,0,202,0,202,0,,,,,,,202,,,1,1624.8401401987066,X,None,nogo,None,1,,,,,,,,,,,,,,,,,,,50,001,21,w,Psychologie,2023-01-23_09h05.54.696,00_bat_bachelor,2022.2.4,59.92750591847229,
,,,,,,,,,,,,0,0,0,0,203,0,203,0,,,,,,,203,,,1,1626.641367931501,Y,l,go,l,1,0.5044103328837082,,,,,,,,,,,,,,,,,,50,001,21,w,Psychologie,2023-01-23_09h05.54.696,00_bat_bachelor,2022.2.4,59.92750591847229,
,,,,,,,,,,,,0,0,0,0,204,0,204,0,,,,,,,204,,,1,1628.2591669047251,X,d,go,d,1,0.47122343990486115,,,,,,,,,,,,,,,,,,50,001,21,w,Psychologie,2023-01-23_09h05.54.696,00_bat_bachelor,2022.2.4,59.92750591847229,
,,,,,,,,,,,,0,0,0,0,205,0,205,0,,,,,,,205,,,1,1629.8437023787992,X,None,nogo,None,1,,,,,,,,,,,,,,,,,,,50,001,21,w,Psychologie,2023-01-23_09h05.54.696,00_bat_bachelor,2022.2.4,59.92750591847229,
,,,,,,,,,,,,0,0,0,0,206,0,206,0,,,,,,,206,,,1,1631.6454435659107,Y,l,go,None,0,,,,,,,,,,,,,,,,,,,50,001,21,w,Psychologie,2023-01-23_09h05.54.696,00_bat_bachelor,2022.2.4,59.92750591847229,
,,,,,,,,,,,,0,0,0,0,207,0,207,0,,,,,,,207,,,1,1633.4466940865386,X,d,go,d,1,0.5325751677155495,,,,,,,,,,,,,,,,,,50,001,21,w,Psychologie,2023-01-23_09h05.54.696,00_bat_bachelor,2022.2.4,59.92750591847229,
,,,,,,,,,,,,0,0,0,0,208,0,208,0,,,,,,,208,,,1,1635.081047233427,X,None,nogo,None,1,,,,,,,,,,,,,,,,,,,50,001,21,w,Psychologie,2023-01-23_09h05.54.696,00_bat_bachelor,2022.2.4,59.92750591847229,
,,,,,,,,,,,,0,0,0,0,209,0,209,0,,,,,,,209,,,1,1636.8826429659966,X,None,nogo,None,1,,,,,,,,,,,,,,,,,,,50,001,21,w,Psychologie,2023-01-23_09h05.54.696,00_bat_bachelor,2022.2.4,59.92750591847229,
,,,,,,,,,,,,0,0,0,0,210,0,210,0,,,,,,,210,,,1,1638.6840108198812,Y,l,go,l,1,0.4633446558145806,,,,,,,,,,,,,,,,,,50,001,21,w,Psychologie,2023-01-23_09h05.54.696,00_bat_bachelor,2022.2.4,59.92750591847229,
,,,,,,,,,,,,0,0,0,0,211,0,211,0,,,,,,,211,,,1,1640.2515756356297,X,d,go,d,1,0.4308171565644443,,,,,,,,,,,,,,,,,,50,001,21,w,Psychologie,2023-01-23_09h05.54.696,00_bat_bachelor,2022.2.4,59.92750591847229,
,,,,,,,,,,,,0,0,0,0,212,0,212,0,,,,,,,212,,,1,1641.7863574369112,X,None,nogo,None,1,,,,,,,,,,,,,,,,,,,50,001,21,w,Psychologie,2023-01-23_09h05.54.696,00_bat_bachelor,2022.2.4,59.92750591847229,
,,,,,,,,,,,,0,0,0,0,213,0,213,0,,,,,,,213,,,1,1643.5875357151963,Y,l,go,l,1,0.45538441732060164,,,,,,,,,,,,,,,,,,50,001,21,w,Psychologie,2023-01-23_09h05.54.696,00_bat_bachelor,2022.2.4,59.92750591847229,
,,,,,,,,,,,,0,0,0,0,214,0,214,0,,,,,,,214,,,1,1645.1553977428703,X,d,go,d,1,0.45603605336509645,,,,,,,,,,,,,,,,,,50,001,21,w,Psychologie,2023-01-23_09h05.54.696,00_bat_bachelor,2022.2.4,59.92750591847229,
,,,,,,,,,,,,0,0,0,0,215,0,215,0,,,,,,,215,,,1,1646.7234614674235,Y,l,go,l,1,0.4238290386274457,,,,,,,,,,,,,,,,,,50,001,21,w,Psychologie,2023-01-23_09h05.54.696,00_bat_bachelor,2022.2.4,59.92750591847229,
,,,,,,,,,,,,0,0,0,0,216,0,216,0,,,,,,,216,,,1,1648.2579324810067,Y,None,nogo,d,0,0.6329183918423951,,,,,,,,,,,,,,,,,,50,001,21,w,Psychologie,2023-01-23_09h05.54.696,00_bat_bachelor,2022.2.4,59.92750591847229,
,,,,,,,,,,,,0,0,0,0,217,0,217,0,,,,,,,217,,,1,1649.992414549226,X,d,go,l,0,0.43440891231875867,,,,,,,,,,,,,,,,,,50,001,21,w,Psychologie,2023-01-23_09h05.54.696,00_bat_bachelor,2022.2.4,59.92750591847229,
,,,,,,,,,,,,0,0,0,0,218,0,218,0,,,,,,,218,,,1,1651.5436797364382,Y,l,go,d,0,0.45051508641336113,,,,,,,,,,,,,,,,,,50,001,21,w,Psychologie,2023-01-23_09h05.54.696,00_bat_bachelor,2022.2.4,59.92750591847229,
,,,,,,,,,,,,0,0,0,0,219,0,219,0,,,,,,,219,,,1,1653.1113837036537,X,d,go,l,0,0.2593622093554586,,,,,,,,,,,,,,,,,,50,001,21,w,Psychologie,2023-01-23_09h05.54.696,00_bat_bachelor,2022.2.4,59.92750591847229,
,,,,,,,,,,,,0,0,0,0,220,0,220,0,,,,,,,220,,,1,1654.4794722524239,X,None,nogo,None,1,,,,,,,,,,,,,,,,,,,50,001,21,w,Psychologie,2023-01-23_09h05.54.696,00_bat_bachelor,2022.2.4,59.92750591847229,
,,,,,,,,,,,,0,0,0,0,221,0,221,0,,,,,,,221,,,1,1656.280709197279,Y,l,go,l,1,0.3863817841047421,,,,,,,,,,,,,,,,,,50,001,21,w,Psychologie,2023-01-23_09h05.54.696,00_bat_bachelor,2022.2.4,59.92750591847229,
,,,,,,,,,,,,0,0,0,0,222,0,222,0,,,,,,,222,,,1,1657.781902651186,X,d,go,d,1,0.421669524628669,,,,,,,,,,,,,,,,,,50,001,21,w,Psychologie,2023-01-23_09h05.54.696,00_bat_bachelor,2022.2.4,59.92750591847229,
,,,,,,,,,,,,0,0,0,0,223,0,223,0,,,,,,,223,,,1,1659.3164599678712,Y,l,go,l,1,0.5661940606078133,,,,,,,,,,,,,,,,,,50,001,21,w,Psychologie,2023-01-23_09h05.54.696,00_bat_bachelor,2022.2.4,59.92750591847229,
,,,,,,,,,,,,0,0,0,0,224,0,224,0,,,,,,,224,,,1,1660.9841163713718,X,d,go,d,1,0.48247531324159354,,,,,,,,,,,,,,,,,,50,001,21,w,Psychologie,2023-01-23_09h05.54.696,00_bat_bachelor,2022.2.4,59.92750591847229,
,,,,,,,,,,,,0,0,0,0,225,0,225,0,,,,,,,225,,,1,1662.568826390896,X,None,nogo,None,1,,,,,,,,,,,,,,,,,,,50,001,21,w,Psychologie,2023-01-23_09h05.54.696,00_bat_bachelor,2022.2.4,59.92750591847229,
,,,,,,,,,,,,0,0,0,0,226,0,226,0,,,,,,,226,,,1,1664.3700706084492,X,None,nogo,None,1,,,,,,,,,,,,,,,,,,,50,001,21,w,Psychologie,2023-01-23_09h05.54.696,00_bat_bachelor,2022.2.4,59.92750591847229,
,,,,,,,,,,,,0,0,0,0,227,0,227,0,,,,,,,227,,,1,1666.1716105835512,Y,l,go,l,1,0.36689039960037917,,,,,,,,,,,,,,,,,,50,001,21,w,Psychologie,2023-01-23_09h05.54.696,00_bat_bachelor,2022.2.4,59.92750591847229,
,,,,,,,,,,,,0,0,0,0,228,0,228,0,,,,,,,228,,,1,1667.6393441748805,X,d,go,d,1,0.6439695380395278,,,,,,,,,,,,,,,,,,50,001,21,w,Psychologie,2023-01-23_09h05.54.696,00_bat_bachelor,2022.2.4,59.92750591847229,
,,,,,,,,,,,,0,0,0,0,229,0,229,0,,,,,,,229,,,1,1669.3904953259043,Y,l,go,l,1,0.4295463692396879,,,,,,,,,,,,,,,,,,50,001,21,w,Psychologie,2023-01-23_09h05.54.696,00_bat_bachelor,2022.2.4,59.92750591847229,
,,,,,,,,,,,,0,0,0,0,230,0,230,0,,,,,,,230,,,1,1670.92502840003,Y,None,nogo,d,0,0.4464670883025974,,,,,,,,,,,,,,,,,,50,001,21,w,Psychologie,2023-01-23_09h05.54.696,00_bat_bachelor,2022.2.4,59.92750591847229,
,,,,,,,,,,,,0,0,0,0,231,0,231,0,,,,,,,231,,,1,1672.4762358902954,Y,None,nogo,None,1,,,,,,,,,,,,,,,,,,,50,001,21,w,Psychologie,2023-01-23_09h05.54.696,00_bat_bachelor,2022.2.4,59.92750591847229,
,,,,,,,,,,,,0,0,0,0,232,0,232,0,,,,,,,232,,,1,1674.2775334412,X,d,go,d,1,0.6286376666976139,,,,,,,,,,,,,,,,,,50,001,21,w,Psychologie,2023-01-23_09h05.54.696,00_bat_bachelor,2022.2.4,59.92750591847229,
,,,,,,,,,,,,0,0,0,0,233,0,233,0,,,,,,,233,,,1,1676.0124780546175,Y,l,go,l,1,0.5901072610868141,,,,,,,,,,,,,,,,,,50,001,21,w,Psychologie,2023-01-23_09h05.54.696,00_bat_bachelor,2022.2.4,59.92750591847229,
,,,,,,,,,,,,0,0,0,0,234,0,234,0,,,,,,,234,,,1,1677.7134731087135,X,d,go,d,1,0.5369630444329232,,,,,,,,,,,,,,,,,,50,001,21,w,Psychologie,2023-01-23_09h05.54.696,00_bat_bachelor,2022.2.4,59.92750591847229,
,,,,,,,,,,,,0,0,0,0,235,0,235,0,,,,,,,235,,,1,1679.3647595808143,Y,l,go,l,1,0.43760648649185896,,,,,,,,,,,,,,,,,,50,001,21,w,Psychologie,2023-01-23_09h05.54.696,00_bat_bachelor,2022.2.4,59.92750591847229,
,,,,,,,,,,,,0,0,0,0,236,0,236,0,,,,,,,236,,,1,1680.916159555898,X,d,go,d,1,0.3913029938703403,,,,,,,,,,,,,,,,,,50,001,21,w,Psychologie,2023-01-23_09h05.54.696,00_bat_bachelor,2022.2.4,59.92750591847229,
,,,,,,,,,,,,0,0,0,0,237,0,237,0,,,,,,,237,,,1,1682.4173607673729,Y,l,go,l,1,0.5059172412147745,,,,,,,,,,,,,,,,,,50,001,21,w,Psychologie,2023-01-23_09h05.54.696,00_bat_bachelor,2022.2.4,59.92750591847229,
,,,,,,,,,,,,0,0,0,0,238,0,238,0,,,,,,,238,,,1,1684.034977922449,X,d,go,d,1,0.5675962417153642,,,,,,,,,,,,,,,,,,50,001,21,w,Psychologie,2023-01-23_09h05.54.696,00_bat_bachelor,2022.2.4,59.92750591847229,
,,,,,,,,,,,,0,0,0,0,239,0,239,0,,,,,,,239,,,1,1685.719813954085,X,None,nogo,None,1,,1686.5201422933023,,,,,,,,,,,,,,,,,50,001,21,w,Psychologie,2023-01-23_09h05.54.696,00_bat_bachelor,2022.2.4,59.92750591847229,
,,,,,,,,,,,,0,0,0,0,240,0,240,0,,,,,,,240,,,1,1687.5212283533765,Y,l,go,l,1,0.281878077192232,,,,,,,,,,,,,,,,,,50,001,21,w,Psychologie,2023-01-23_09h05.54.696,00_bat_bachelor,2022.2.4,59.92750591847229,
,,,,,,,,,,,,0,0,0,0,241,0,241,0,,,,,,,241,,,1,1688.9053542277543,X,d,go,d,1,0.5620471534784883,,,,,,,,,,,,,,,,,,50,001,21,w,Psychologie,2023-01-23_09h05.54.696,00_bat_bachelor,2022.2.4,59.92750591847229,
,,,,,,,,,,,,0,0,0,0,242,0,242,0,,,,,,,242,,,1,1690.5735619037878,Y,l,go,l,1,0.60507404175587,,,,,,,,,,,,,,,,,,50,001,21,w,Psychologie,2023-01-23_09h05.54.696,00_bat_bachelor,2022.2.4,59.92750591847229,
,,,,,,,,,,,,0,0,0,0,243,0,243,0,,,,,,,243,,,1,1692.2914931920823,X,d,go,d,1,0.4398702430771664,,,,,,,,,,,,,,,,,,50,001,21,w,Psychologie,2023-01-23_09h05.54.696,00_bat_bachelor,2022.2.4,59.92750591847229,
,,,,,,,,,,,,0,0,0,0,244,0,244,0,,,,,,,244,,,1,1693.8426575309131,Y,l,go,l,1,0.5206978401402012,,,,,,,,,,,,,,,,,,50,001,21,w,Psychologie,2023-01-23_09h05.54.696,00_bat_bachelor,2022.2.4,59.92750591847229,
,,,,,,,,,,,,0,0,0,0,245,0,245,0,,,,,,,245,,,1,1695.4770140717737,Y,None,nogo,None,1,,,,,,,,,,,,,,,,,,,50,001,21,w,Psychologie,2023-01-23_09h05.54.696,00_bat_bachelor,2022.2.4,59.92750591847229,
,,,,,,,,,,,,0,0,0,0,246,0,246,0,,,,,,,246,,,1,1697.2783853196306,Y,None,nogo,None,1,,,,,,,,,,,,,,,,,,,50,001,21,w,Psychologie,2023-01-23_09h05.54.696,00_bat_bachelor,2022.2.4,59.92750591847229,
,,,,,,,,,,,,0,0,0,0,247,0,247,0,,,,,,,247,,,1,1699.080116809695,X,d,go,d,1,0.4989208810729906,,,,,,,,,,,,,,,,,,50,001,21,w,Psychologie,2023-01-23_09h05.54.696,00_bat_bachelor,2022.2.4,59.92750591847229,
,,,,,,,,,,,,0,0,0,0,248,0,248,0,,,,,,,248,,,1,1700.6812190636992,Y,l,go,l,1,0.5146711764391512,,,,,,,,,,,,,,,,,,50,001,21,w,Psychologie,2023-01-23_09h05.54.696,00_bat_bachelor,2022.2.4,59.92750591847229,
,,,,,,,,,,,,0,0,0,0,249,0,249,0,,,,,,,249,,,1,1702.2989040975226,X,d,go,d,1,0.3998610503040254,,,,,,,,,,,,,,,,,,50,001,21,w,Psychologie,2023-01-23_09h05.54.696,00_bat_bachelor,2022.2.4,59.92750591847229,
,,,,,,,,,,,,1,0,1,0,0,0,0,0,,,,,,,0,,,0.2,1750.8861290249042,X,d,go,d,1,0.4362518205307424,,,,,,,,,1702.8043394888518,space,47.849652347387746,,,,,,,50,001,21,w,Psychologie,2023-01-23_09h05.54.696,00_bat_bachelor,2022.2.4,59.92750591847229,
,,,,,,,,,,,,1,0,1,0,1,0,1,0,,,,,,,1,,,0.2,1751.636683327728,Y,l,go,l,1,0.5178081445628777,,,,,,,,,,,,,,,,,,50,001,21,w,Psychologie,2023-01-23_09h05.54.696,00_bat_bachelor,2022.2.4,59.92750591847229,
,,,,,,,,,,,,1,0,1,0,2,0,2,0,,,,,,,2,,,0.2,1752.4706683779368,X,d,go,d,1,0.40450541162863374,,,,,,,,,,,,,,,,,,50,001,21,w,Psychologie,2023-01-23_09h05.54.696,00_bat_bachelor,2022.2.4,59.92750591847229,
,,,,,,,,,,,,1,0,1,0,3,0,3,0,,,,,,,3,,,0.2,1753.187822939246,Y,l,go,l,1,0.3438969562994316,,,,,,,,,,,,,,,,,,50,001,21,w,Psychologie,2023-01-23_09h05.54.696,00_bat_bachelor,2022.2.4,59.92750591847229,
,,,,,,,,,,,,1,0,1,0,4,0,4,0,,,,,,,4,,,0.2,1753.8381867451826,X,d,go,d,1,0.36473621882032603,,,,,,,,,,,,,,,,,,50,001,21,w,Psychologie,2023-01-23_09h05.54.696,00_bat_bachelor,2022.2.4,59.92750591847229,
,,,,,,,,,,,,1,0,1,0,5,0,5,0,,,,,,,5,,,0.2,1754.5054164822213,Y,l,go,l,1,0.3693834893638268,,,,,,,,,,,,,,,,,,50,001,21,w,Psychologie,2023-01-23_09h05.54.696,00_bat_bachelor,2022.2.4,59.92750591847229,
,,,,,,,,,,,,1,0,1,0,6,0,6,0,,,,,,,6,,,0.2,1755.1894811203238,X,d,go,d,1,0.29413552582263947,,,,,,,,,,,,,,,,,,50,001,21,w,Psychologie,2023-01-23_09h05.54.696,00_bat_bachelor,2022.2.4,59.92750591847229,
,,,,,,,,,,,,1,0,1,0,7,0,7,0,,,,,,,7,,,0.2,1755.7896427686792,X,None,nogo,l,0,0.28497383324429393,,,,,,,,,,,,,,,,,,50,001,21,w,Psychologie,2023-01-23_09h05.54.696,00_bat_bachelor,2022.2.4,59.92750591847229,
,,,,,,,,,,,,1,0,1,0,8,0,8,0,,,,,,,8,,,0.2,1756.3902296290034,X,None,nogo,None,1,,,,,,,,,,,,,,,,,,,50,001,21,w,Psychologie,2023-01-23_09h05.54.696,00_bat_bachelor,2022.2.4,59.92750591847229,
,,,,,,,,,,,,1,0,1,0,9,0,9,0,,,,,,,9,,,0.2,1757.390905507491,Y,l,go,l,1,0.4594358092872426,,,,,,,,,,,,,,,,,,50,001,21,w,Psychologie,2023-01-23_09h05.54.696,00_bat_bachelor,2022.2.4,59.92750591847229,
,,,,,,,,,,,,1,0,1,0,10,0,10,0,,,,,,,10,,,0.2,1758.1583451353945,X,d,go,d,1,0.6046808297978714,,,,,,,,,,,,,,,,,,50,001,21,w,Psychologie,2023-01-23_09h05.54.696,00_bat_bachelor,2022.2.4,59.92750591847229,
,,,,,,,,,,,,1,0,1,0,11,0,11,0,,,,,,,11,,,0.2,1759.0755315998103,X,None,nogo,None,1,,,,,,,,,,,,,,,,,,,50,001,21,w,Psychologie,2023-01-23_09h05.54.696,00_bat_bachelor,2022.2.4,59.92750591847229,
,,,,,,,,,,,,1,0,1,0,12,0,12,0,,,,,,,12,,,0.2,1760.0762617812725,Y,l,go,l,1,0.3990203234134242,,,,,,,,,,,,,,,,,,50,001,21,w,Psychologie,2023-01-23_09h05.54.696,00_bat_bachelor,2022.2.4,59.92750591847229,
,,,,,,,,,,,,1,0,1,0,13,0,13,0,,,,,,,13,,,0.2,1760.777051744517,X,d,go,d,1,0.545636979630217,,,,,,,,,,,,,,,,,,50,001,21,w,Psychologie,2023-01-23_09h05.54.696,00_bat_bachelor,2022.2.4,59.92750591847229,
,,,,,,,,,,,,1,0,1,0,14,0,14,0,,,,,,,14,,,0.2,1761.6276961805997,Y,l,go,l,1,0.3992171718273312,,,,,,,,,,,,,,,,,,50,001,21,w,Psychologie,2023-01-23_09h05.54.696,00_bat_bachelor,2022.2.4,59.92750591847229,
,,,,,,,,,,,,1,0,1,0,15,0,15,0,,,,,,,15,,,0.2,1762.328297052998,X,d,go,d,1,0.5305800172500312,,,,,,,,,,,,,,,,,,50,001,21,w,Psychologie,2023-01-23_09h05.54.696,00_bat_bachelor,2022.2.4,59.92750591847229,
,,,,,,,,,,,,1,0,1,0,16,0,16,0,,,,,,,16,,,0.2,1763.1619596790988,X,None,nogo,None,1,,,,,,,,,,,,,,,,,,,50,001,21,w,Psychologie,2023-01-23_09h05.54.696,00_bat_bachelor,2022.2.4,59.92750591847229,
,,,,,,,,,,,,1,0,1,0,17,0,17,0,,,,,,,17,,,0.2,1764.1629429513123,X,None,nogo,None,1,,,,,,,,,,,,,,,,,,,50,001,21,w,Psychologie,2023-01-23_09h05.54.696,00_bat_bachelor,2022.2.4,59.92750591847229,
,,,,,,,,,,,,1,0,1,0,18,0,18,0,,,,,,,18,,,0.2,1765.1636697389185,Y,l,go,l,1,0.4480030875420198,,,,,,,,,,,,,,,,,,50,001,21,w,Psychologie,2023-01-23_09h05.54.696,00_bat_bachelor,2022.2.4,59.92750591847229,
,,,,,,,,,,,,1,0,1,0,19,0,19,0,,,,,,,19,,,0.2,1765.91420949623,X,d,go,d,1,0.5288015939295292,,,,,,,,,,,,,,,,,,50,001,21,w,Psychologie,2023-01-23_09h05.54.696,00_bat_bachelor,2022.2.4,59.92750591847229,
,,,,,,,,,,,,1,0,1,0,20,0,20,0,,,,,,,20,,,0.2,1766.747954061604,Y,l,go,l,1,0.38219657400622964,,,,,,,,,,,,,,,,,,50,001,21,w,Psychologie,2023-01-23_09h05.54.696,00_bat_bachelor,2022.2.4,59.92750591847229,
,,,,,,,,,,,,1,0,1,0,21,0,21,0,,,,,,,21,,,0.2,1767.4318931240123,X,d,go,d,1,0.5636665466008708,,,,,,,,,,,,,,,,,,50,001,21,w,Psychologie,2023-01-23_09h05.54.696,00_bat_bachelor,2022.2.4,59.92750591847229,
,,,,,,,,,,,,1,0,1,0,22,0,22,0,,,,,,,22,,,0.2,1768.299166885321,X,None,nogo,l,0,0.6558454110054299,,,,,,,,,,,,,,,,,,50,001,21,w,Psychologie,2023-01-23_09h05.54.696,00_bat_bachelor,2022.2.4,59.92750591847229,
,,,,,,,,,,,,1,0,1,0,23,0,23,0,,,,,,,23,,,0.2,1769.2668357494986,Y,l,go,l,1,0.5682759989285842,,,,,,,,,,,,,,,,,,50,001,21,w,Psychologie,2023-01-23_09h05.54.696,00_bat_bachelor,2022.2.4,59.92750591847229,
,,,,,,,,,,,,1,0,1,0,24,0,24,0,,,,,,,24,,,0.2,1770.1508668359602,X,d,go,d,1,0.4844239184167236,,,,,,,,,,,,,,,,,,50,001,21,w,Psychologie,2023-01-23_09h05.54.696,00_bat_bachelor,2022.2.4,59.92750591847229,
,,,,,,,,,,,,1,0,1,0,25,0,25,0,,,,,,,25,,,0.2,1770.9514089933364,X,None,nogo,None,1,,,,,,,,,,,,,,,,,,,50,001,21,w,Psychologie,2023-01-23_09h05.54.696,00_bat_bachelor,2022.2.4,59.92750591847229,
,,,,,,,,,,,,1,0,1,0,26,0,26,0,,,,,,,26,,,0.2,1771.9522022050805,Y,l,go,l,1,0.3475396210560575,,,,,,,,,,,,,,,,,,50,001,21,w,Psychologie,2023-01-23_09h05.54.696,00_bat_bachelor,2022.2.4,59.92750591847229,
,,,,,,,,,,,,1,0,1,0,27,0,27,0,,,,,,,27,,,0.2,1772.602677041199,X,d,go,d,1,0.6564917137147859,,,,,,,,,,,,,,,,,,50,001,21,w,Psychologie,2023-01-23_09h05.54.696,00_bat_bachelor,2022.2.4,59.92750591847229,
,,,,,,,,,,,,1,0,1,0,28,0,28,0,,,,,,,28,,,0.2,1773.5702290568734,X,None,nogo,None,1,,,,,,,,,,,,,,,,,,,50,001,21,w,Psychologie,2023-01-23_09h05.54.696,00_bat_bachelor,2022.2.4,59.92750591847229,
,,,,,,,,,,,,1,0,1,0,29,0,29,0,,,,,,,29,,,0.2,1774.5708428748185,Y,l,go,l,1,0.3841005730209872,,,,,,,,,,,,,,,,,,50,001,21,w,Psychologie,2023-01-23_09h05.54.696,00_bat_bachelor,2022.2.4,59.92750591847229,
,,,,,,,,,,,,1,0,1,0,30,0,30,0,,,,,,,30,,,0.2,1775.254750906839,X,d,go,d,1,0.4852045241277665,,,,,,,,,,,,,,,,,,50,001,21,w,Psychologie,2023-01-23_09h05.54.696,00_bat_bachelor,2022.2.4,59.92750591847229,
,,,,,,,,,,,,1,0,1,0,31,0,31,0,,,,,,,31,,,0.2,1776.0553328216774,Y,l,go,l,1,0.6603254089131951,,,,,,,,,,,,,,,,,,50,001,21,w,Psychologie,2023-01-23_09h05.54.696,00_bat_bachelor,2022.2.4,59.92750591847229,
,,,,,,,,,,,,1,0,1,0,32,0,32,0,,,,,,,32,,,0.2,1777.022734534461,X,d,go,d,1,0.4603681724984199,,,,,,,,,,,,,,,,,,50,001,21,w,Psychologie,2023-01-23_09h05.54.696,00_bat_bachelor,2022.2.4,59.92750591847229,
,,,,,,,,,,,,1,0,1,0,33,0,33,0,,,,,,,33,,,0.2,1777.7899239807157,X,None,nogo,None,1,,1778.590689653065,,,,,,,,,,,,,,,,,50,001,21,w,Psychologie,2023-01-23_09h05.54.696,00_bat_bachelor,2022.2.4,59.92750591847229,
,,,,,,,,,,,,1,0,1,0,34,0,34,0,,,,,,,34,,,0.2,1778.7907288287533,Y,l,go,l,1,0.5481373420916498,,,,,,,,,,,,,,,,,,50,001,21,w,Psychologie,2023-01-23_09h05.54.696,00_bat_bachelor,2022.2.4,59.92750591847229,
,,,,,,,,,,,,1,0,1,0,35,0,35,0,,,,,,,35,,,0.2,1779.6414188406197,X,d,go,d,1,0.5146983278682455,,,,,,,,,,,,,,,,,,50,001,21,w,Psychologie,2023-01-23_09h05.54.696,00_bat_bachelor,2022.2.4,59.92750591847229,
,,,,,,,,,,,,1,0,1,0,36,0,36,0,,,,,,,36,,,0.2,1780.458420626237,Y,l,go,l,1,0.49654027621727437,,,,,,,,,,,,,,,,,,50,001,21,w,Psychologie,2023-01-23_09h05.54.696,00_bat_bachelor,2022.2.4,59.92750591847229,
,,,,,,,,,,,,1,0,1,0,37,0,37,0,,,,,,,37,,,0.2,1781.2590791471303,Y,None,nogo,None,1,,,,,,,,,,,,,,,,,,,50,001,21,w,Psychologie,2023-01-23_09h05.54.696,00_bat_bachelor,2022.2.4,59.92750591847229,
,,,,,,,,,,,,1,0,1,0,38,0,38,0,,,,,,,38,,,0.2,1782.260021207272,X,d,go,d,1,0.3283333274303004,,,,,,,,,,,,,,,,,,50,001,21,w,Psychologie,2023-01-23_09h05.54.696,00_bat_bachelor,2022.2.4,59.92750591847229,
,,,,,,,,,,,,1,0,1,0,39,0,39,0,,,,,,,39,,,0.2,1782.893623324344,Y,l,go,l,1,0.4781664669280872,,,,,,,,,,,,,,,,,,50,001,21,w,Psychologie,2023-01-23_09h05.54.696,00_bat_bachelor,2022.2.4,59.92750591847229,
,,,,,,,,,,,,1,0,1,0,40,0,40,0,,,,,,,40,,,0.2,1783.6777538532624,Y,None,nogo,None,1,,,,,,,,,,,,,,,,,,,50,001,21,w,Psychologie,2023-01-23_09h05.54.696,00_bat_bachelor,2022.2.4,59.92750591847229,
,,,,,,,,,,,,1,0,1,0,41,0,41,0,,,,,,,41,,,0.2,1784.6785742164357,X,d,go,d,1,0.5811797501519322,,,,,,,,,,,,,,,,,,50,001,21,w,Psychologie,2023-01-23_09h05.54.696,00_bat_bachelor,2022.2.4,59.92750591847229,
,,,,,,,,,,,,1,0,1,0,42,0,42,0,,,,,,,42,,,0.2,1785.5623013031436,Y,l,go,l,1,0.5606071541551501,,,,,,,,,,,,,,,,,,50,001,21,w,Psychologie,2023-01-23_09h05.54.696,00_bat_bachelor,2022.2.4,59.92750591847229,
,,,,,,,,,,,,1,0,1,0,43,0,43,0,,,,,,,43,,,0.2,1786.4298165189102,Y,None,nogo,None,1,,,,,,,,,,,,,,,,,,,50,001,21,w,Psychologie,2023-01-23_09h05.54.696,00_bat_bachelor,2022.2.4,59.92750591847229,
,,,,,,,,,,,,1,0,1,0,44,0,44,0,,,,,,,44,,,0.2,1787.4304443973815,X,d,go,d,1,0.43636042647995055,,,,,,,,,,,,,,,,,,50,001,21,w,Psychologie,2023-01-23_09h05.54.696,00_bat_bachelor,2022.2.4,59.92750591847229,
,,,,,,,,,,,,1,0,1,0,45,0,45,0,,,,,,,45,,,0.2,1788.181293972768,Y,l,go,l,1,0.5651414550375193,,,,,,,,,,,,,,,,,,50,001,21,w,Psychologie,2023-01-23_09h05.54.696,00_bat_bachelor,2022.2.4,59.92750591847229,
,,,,,,,,,,,,1,0,1,0,46,0,46,0,,,,,,,46,,,0.2,1789.0485502795782,Y,None,nogo,None,1,,,,,,,,,,,,,,,,,,,50,001,21,w,Psychologie,2023-01-23_09h05.54.696,00_bat_bachelor,2022.2.4,59.92750591847229,
,,,,,,,,,,,,1,0,1,0,47,0,47,0,,,,,,,47,,,0.2,1790.0494913699804,X,d,go,d,1,0.4107366814278066,,,,,,,,,,,,,,,,,,50,001,21,w,Psychologie,2023-01-23_09h05.54.696,00_bat_bachelor,2022.2.4,59.92750591847229,
,,,,,,,,,,,,1,0,1,0,48,0,48,0,,,,,,,48,,,0.2,1790.7665533253457,Y,l,go,l,1,0.6040277391439304,,,,,,,,,,,,,,,,,,50,001,21,w,Psychologie,2023-01-23_09h05.54.696,00_bat_bachelor,2022.2.4,59.92750591847229,
,,,,,,,,,,,,1,0,1,0,49,0,49,0,,,,,,,49,,,0.2,1791.6837349412963,Y,None,nogo,None,1,,,,,,,,,,,,,,,,,,,50,001,21,w,Psychologie,2023-01-23_09h05.54.696,00_bat_bachelor,2022.2.4,59.92750591847229,
,,,,,,,,,,,,1,0,1,0,50,0,50,0,,,,,,,50,,,0.2,1792.6844568803208,X,d,go,d,1,0.3989185052923858,,,,,,,,,,,,,,,,,,50,001,21,w,Psychologie,2023-01-23_09h05.54.696,00_bat_bachelor,2022.2.4,59.92750591847229,
,,,,,,,,,,,,1,0,1,0,51,0,51,0,,,,,,,51,,,0.2,1793.3852943587117,Y,l,go,l,1,0.5465034033404663,,,,,,,,,,,,,,,,,,50,001,21,w,Psychologie,2023-01-23_09h05.54.696,00_bat_bachelor,2022.2.4,59.92750591847229,
,,,,,,,,,,,,1,0,1,0,52,0,52,0,,,,,,,52,,,0.2,1794.2358190371888,Y,None,nogo,None,1,,,,,,,,,,,,,,,,,,,50,001,21,w,Psychologie,2023-01-23_09h05.54.696,00_bat_bachelor,2022.2.4,59.92750591847229,
,,,,,,,,,,,,1,0,1,0,53,0,53,0,,,,,,,53,,,0.2,1795.23659915803,X,d,go,d,1,0.4069718347163871,,,,,,,,,,,,,,,,,,50,001,21,w,Psychologie,2023-01-23_09h05.54.696,00_bat_bachelor,2022.2.4,59.92750591847229,
,,,,,,,,,,,,1,0,1,0,54,0,54,0,,,,,,,54,,,0.2,1795.9537614770234,Y,l,go,l,1,0.537287407903932,,,,,,,,,,,,,,,,,,50,001,21,w,Psychologie,2023-01-23_09h05.54.696,00_bat_bachelor,2022.2.4,59.92750591847229,
,,,,,,,,,,,,1,0,1,0,55,0,55,0,,,,,,,55,,,0.2,1796.8045945190825,X,d,go,d,1,0.5180054778466001,,,,,,,,,,,,,,,,,,50,001,21,w,Psychologie,2023-01-23_09h05.54.696,00_bat_bachelor,2022.2.4,59.92750591847229,
,,,,,,,,,,,,1,0,1,0,56,0,56,0,,,,,,,56,,,0.2,1797.6381849027239,X,None,nogo,None,1,,,,,,,,,,,,,,,,,,,50,001,21,w,Psychologie,2023-01-23_09h05.54.696,00_bat_bachelor,2022.2.4,59.92750591847229,
,,,,,,,,,,,,1,0,1,0,57,0,57,0,,,,,,,57,,,0.2,1798.6390959325945,Y,l,go,l,1,0.428477278794162,,,,,,,,,,,,,,,,,,50,001,21,w,Psychologie,2023-01-23_09h05.54.696,00_bat_bachelor,2022.2.4,59.92750591847229,
,,,,,,,,,,,,1,0,1,0,58,0,58,0,,,,,,,58,,,0.2,1799.372827940504,X,d,go,d,1,0.5110755418427289,,,,,,,,,,,,,,,,,,50,001,21,w,Psychologie,2023-01-23_09h05.54.696,00_bat_bachelor,2022.2.4,59.92750591847229,
,,,,,,,,,,,,1,0,1,0,59,0,59,0,,,,,,,59,,,0.2,1800.1909409983782,X,None,nogo,None,1,,1800.991987882764,,,,,,,,,,,,,,,,,50,001,21,w,Psychologie,2023-01-23_09h05.54.696,00_bat_bachelor,2022.2.4,59.92750591847229,
,,,,,,,,,,,,1,0,1,0,60,0,60,0,,,,,,,60,,,0.2,1801.1916629374027,Y,l,go,l,1,0.3378470197785646,,,,,,,,,,,,,,,,,,50,001,21,w,Psychologie,2023-01-23_09h05.54.696,00_bat_bachelor,2022.2.4,59.92750591847229,
,,,,,,,,,,,,1,0,1,0,61,0,61,0,,,,,,,61,,,0.2,1801.8759758177912,X,d,go,d,1,0.6620102565502748,,,,,,,,,,,,,,,,,,50,001,21,w,Psychologie,2023-01-23_09h05.54.696,00_bat_bachelor,2022.2.4,59.92750591847229,
,,,,,,,,,,,,1,0,1,0,62,0,62,0,,,,,,,62,,,0.2,1802.8594827348134,Y,l,go,l,1,0.49573591293301433,,,,,,,,,,,,,,,,,,50,001,21,w,Psychologie,2023-01-23_09h05.54.696,00_bat_bachelor,2022.2.4,59.92750591847229,
,,,,,,,,,,,,1,0,1,0,63,0,63,0,,,,,,,63,,,0.2,1803.660309013212,X,d,go,d,1,0.3825975435320288,,,,,,,,,,,,,,,,,,50,001,21,w,Psychologie,2023-01-23_09h05.54.696,00_bat_bachelor,2022.2.4,59.92750591847229,
,,,,,,,,,,,,1,0,1,0,64,0,64,0,,,,,,,64,,,0.2,1804.3441898938036,X,None,nogo,None,1,,1805.144560899702,,,,,,,,,,,,,,,,,50,001,21,w,Psychologie,2023-01-23_09h05.54.696,00_bat_bachelor,2022.2.4,59.92750591847229,
,,,,,,,,,,,,1,0,1,0,65,0,65,0,,,,,,,65,,,0.2,1805.3448987419251,Y,l,go,l,1,0.39330153830815107,,,,,,,,,,,,,,,,,,50,001,21,w,Psychologie,2023-01-23_09h05.54.696,00_bat_bachelor,2022.2.4,59.92750591847229,
,,,,,,,,,,,,1,0,1,0,66,0,66,0,,,,,,,66,,,0.2,1806.0621168183861,X,d,go,d,1,0.3642348857829347,,,,,,,,,,,,,,,,,,50,001,21,w,Psychologie,2023-01-23_09h05.54.696,00_bat_bachelor,2022.2.4,59.92750591847229,
,,,,,,,,,,,,1,0,1,0,67,0,67,0,,,,,,,67,,,0.2,1806.7459094566293,X,None,nogo,None,1,,1807.5464050684823,,,,,,,,,,,,,,,,,50,001,21,w,Psychologie,2023-01-23_09h05.54.696,00_bat_bachelor,2022.2.4,59.92750591847229,
,,,,,,,,,,,,1,0,1,0,68,0,68,0,,,,,,,68,,,0.2,1807.7467249713372,Y,l,go,l,1,0.19965363224036992,,,,,,,,,,,,,,,,,,50,001,21,w,Psychologie,2023-01-23_09h05.54.696,00_bat_bachelor,2022.2.4,59.92750591847229,
,,,,,,,,,,,,1,0,1,0,69,0,69,0,,,,,,,69,,,0.2,1808.2637952660443,X,d,go,d,1,0.3237582993460819,,,,,,,,,,,,,,,,,,50,001,21,w,Psychologie,2023-01-23_09h05.54.696,00_bat_bachelor,2022.2.4,59.92750591847229,
,,,,,,,,,,,,1,0,1,0,70,0,70,0,,,,,,,70,,,0.2,1808.8976179891033,Y,l,go,l,1,0.5526808549184352,,,,,,,,,,,,,,,,,,50,001,21,w,Psychologie,2023-01-23_09h05.54.696,00_bat_bachelor,2022.2.4,59.92750591847229,
,,,,,,,,,,,,1,0,1,0,71,0,71,0,,,,,,,71,,,0.2,1809.7814216817496,X,d,go,d,1,0.42075558565557003,,,,,,,,,,,,,,,,,,50,001,21,w,Psychologie,2023-01-23_09h05.54.696,00_bat_bachelor,2022.2.4,59.92750591847229,
,,,,,,,,,,,,1,0,1,0,72,0,72,0,,,,,,,72,,,0.2,1810.5318761058152,X,None,nogo,None,1,,1811.332316444954,,,,,,,,,,,,,,,,,50,001,21,w,Psychologie,2023-01-23_09h05.54.696,00_bat_bachelor,2022.2.4,59.92750591847229,
,,,,,,,,,,,,1,0,1,0,73,0,73,0,,,,,,,73,,,0.2,1811.5326339235762,Y,l,go,l,1,0.2857985601294786,,,,,,,,,,,,,,,,,,50,001,21,w,Psychologie,2023-01-23_09h05.54.696,00_bat_bachelor,2022.2.4,59.92750591847229,
,,,,,,,,,,,,1,0,1,0,74,0,74,0,,,,,,,74,,,0.2,1812.132790238713,X,d,go,d,1,0.2949049799935892,,,,,,,,,,,,,,,,,,50,001,21,w,Psychologie,2023-01-23_09h05.54.696,00_bat_bachelor,2022.2.4,59.92750591847229,
,,,,,,,,,,,,1,0,1,0,75,0,75,0,,,,,,,75,,,0.2,1812.7333019474754,X,None,nogo,None,1,,1813.533917316934,,,,,,,,,,,,,,,,,50,001,21,w,Psychologie,2023-01-23_09h05.54.696,00_bat_bachelor,2022.2.4,59.92750591847229,
,,,,,,,,,,,,1,0,1,0,76,0,76,0,,,,,,,76,,,0.2,1813.7340088562341,Y,l,go,l,1,0.42101207037921995,,,,,,,,,,,,,,,,,,50,001,21,w,Psychologie,2023-01-23_09h05.54.696,00_bat_bachelor,2022.2.4,59.92750591847229,
,,,,,,,,,,,,1,0,1,0,77,0,77,0,,,,,,,77,,,0.2,1814.4679246216547,X,d,go,d,1,0.1513200798071921,,,,,,,,,,,,,,,,,,50,001,21,w,Psychologie,2023-01-23_09h05.54.696,00_bat_bachelor,2022.2.4,59.92750591847229,
,,,,,,,,,,,,1,0,1,0,78,0,78,0,,,,,,,78,,,0.2,1814.9349275467684,Y,l,go,l,1,0.6611981356982142,,,,,,,,,,,,,,,,,,50,001,21,w,Psychologie,2023-01-23_09h05.54.696,00_bat_bachelor,2022.2.4,59.92750591847229,
,,,,,,,,,,,,1,0,1,0,79,0,79,0,,,,,,,79,,,0.2,1815.902316653519,X,d,go,d,1,0.28444583353120834,,,,,,,,,,,,,,,,,,50,001,21,w,Psychologie,2023-01-23_09h05.54.696,00_bat_bachelor,2022.2.4,59.92750591847229,
,,,,,,,,,,,,1,0,1,0,80,0,80,0,,,,,,,80,,,0.2,1816.5026436351473,X,None,nogo,None,1,,,,,,,,,,,,,,,,,,,50,001,21,w,Psychologie,2023-01-23_09h05.54.696,00_bat_bachelor,2022.2.4,59.92750591847229,
,,,,,,,,,,,,1,0,1,0,81,0,81,0,,,,,,,81,,,0.2,1817.503845573985,Y,l,go,l,1,0.23504513024818152,,,,,,,,,,,,,,,,,,50,001,21,w,Psychologie,2023-01-23_09h05.54.696,00_bat_bachelor,2022.2.4,59.92750591847229,
,,,,,,,,,,,,1,0,1,0,82,0,82,0,,,,,,,82,,,0.2,1818.0539825193118,X,d,go,d,1,0.22922840574756265,,,,,,,,,,,,,,,,,,50,001,21,w,Psychologie,2023-01-23_09h05.54.696,00_bat_bachelor,2022.2.4,59.92750591847229,
,,,,,,,,,,,,1,0,1,0,83,0,83,0,,,,,,,83,,,0.2,1818.5875303818611,Y,l,go,None,0,,1819.3881292664446,,,,,,,,,,,,,,,,,50,001,21,w,Psychologie,2023-01-23_09h05.54.696,00_bat_bachelor,2022.2.4,59.92750591847229,
,,,,,,,,,,,,1,0,1,0,84,0,84,0,,,,,,,84,,,0.2,1819.588639229769,X,d,go,d,1,0.4705965311732143,,,,,,,,,,,,,,,,,,50,001,21,w,Psychologie,2023-01-23_09h05.54.696,00_bat_bachelor,2022.2.4,59.92750591847229,
,,,,,,,,,,,,1,0,1,0,85,0,85,0,,,,,,,85,,,0.2,1820.3721069711028,Y,l,go,l,1,0.6477072330890223,,,,,,,,,,,,,,,,,,50,001,21,w,Psychologie,2023-01-23_09h05.54.696,00_bat_bachelor,2022.2.4,59.92750591847229,
,,,,,,,,,,,,1,0,1,0,86,0,86,0,,,,,,,86,,,0.2,1821.322982146521,Y,None,nogo,None,1,,,,,,,,,,,,,,,,,,,50,001,21,w,Psychologie,2023-01-23_09h05.54.696,00_bat_bachelor,2022.2.4,59.92750591847229,
,,,,,,,,,,,,1,0,1,0,87,0,87,0,,,,,,,87,,,0.2,1822.3238742672838,X,d,go,d,1,0.4545126601587981,,,,,,,,,,,,,,,,,,50,001,21,w,Psychologie,2023-01-23_09h05.54.696,00_bat_bachelor,2022.2.4,59.92750591847229,
,,,,,,,,,,,,1,0,1,0,88,0,88,0,,,,,,,88,,,0.2,1823.0911364407511,Y,l,go,l,1,0.5836025369353592,,,,,,,,,,,,,,,,,,50,001,21,w,Psychologie,2023-01-23_09h05.54.696,00_bat_bachelor,2022.2.4,59.92750591847229,
,,,,,,,,,,,,1,0,1,0,89,0,89,0,,,,,,,89,,,0.2,1823.9750817090971,Y,None,nogo,None,1,,,,,,,,,,,,,,,,,,,50,001,21,w,Psychologie,2023-01-23_09h05.54.696,00_bat_bachelor,2022.2.4,59.92750591847229,
,,,,,,,,,,,,1,0,1,0,90,0,90,0,,,,,,,90,,,0.2,1824.9756853451254,X,d,go,d,1,0.38036821119021624,,,,,,,,,,,,,,,,,,50,001,21,w,Psychologie,2023-01-23_09h05.54.696,00_bat_bachelor,2022.2.4,59.92750591847229,
,,,,,,,,,,,,1,0,1,0,91,0,91,0,,,,,,,91,,,0.2,1825.6597795588896,Y,l,go,l,1,0.5424471630249172,,,,,,,,,,,,,,,,,,50,001,21,w,Psychologie,2023-01-23_09h05.54.696,00_bat_bachelor,2022.2.4,59.92750591847229,
,,,,,,,,,,,,1,0,1,0,92,0,92,0,,,,,,,92,,,0.2,1826.5104700556258,X,d,go,None,0,,,,,,,,,,,,,,,,,,,50,001,21,w,Psychologie,2023-01-23_09h05.54.696,00_bat_bachelor,2022.2.4,59.92750591847229,
,,,,,,,,,,,,1,0,1,0,93,0,93,0,,,,,,,93,,,0.2,1827.511307388544,Y,l,go,l,1,0.4838013732805848,,,,,,,,,,,,,,,,,,50,001,21,w,Psychologie,2023-01-23_09h05.54.696,00_bat_bachelor,2022.2.4,59.92750591847229,
,,,,,,,,,,,,1,0,1,0,94,0,94,0,,,,,,,94,,,0.2,1828.2950941600138,X,d,go,d,1,0.5968272578902543,,,,,,,,,,,,,,,,,,50,001,21,w,Psychologie,2023-01-23_09h05.54.696,00_bat_bachelor,2022.2.4,59.92750591847229,
,,,,,,,,,,,,1,0,1,0,95,0,95,0,,,,,,,95,,,0.2,1829.1956013597082,X,None,nogo,None,1,,,,,,,,,,,,,,,,,,,50,001,21,w,Psychologie,2023-01-23_09h05.54.696,00_bat_bachelor,2022.2.4,59.92750591847229,
,,,,,,,,,,,,1,0,1,0,96,0,96,0,,,,,,,96,,,0.2,1830.1965569956228,Y,l,go,l,1,0.27848268498200923,,,,,,,,,,,,,,,,,,50,001,21,w,Psychologie,2023-01-23_09h05.54.696,00_bat_bachelor,2022.2.4,59.92750591847229,
,,,,,,,,,,,,1,0,1,0,97,0,97,0,,,,,,,97,,,0.2,1830.7803807125892,X,d,go,d,1,0.4472006637370214,,,,,,,,,,,,,,,,,,50,001,21,w,Psychologie,2023-01-23_09h05.54.696,00_bat_bachelor,2022.2.4,59.92750591847229,
,,,,,,,,,,,,1,0,1,0,98,0,98,0,,,,,,,98,,,0.2,1831.5309563486371,X,None,nogo,None,1,,1832.3313132940093,,,,,,,,,,,,,,,,,50,001,21,w,Psychologie,2023-01-23_09h05.54.696,00_bat_bachelor,2022.2.4,59.92750591847229,
,,,,,,,,,,,,1,0,1,0,99,0,99,0,,,,,,,99,,,0.2,1832.531768954359,Y,l,go,l,1,0.21517168532591313,,,,,,,,,,,,,,,,,,50,001,21,w,Psychologie,2023-01-23_09h05.54.696,00_bat_bachelor,2022.2.4,59.92750591847229,
,,,,,,,,,,,,1,0,1,0,100,0,100,0,,,,,,,100,,,0.2,1833.0487655521138,X,d,go,d,1,0.33851417095866054,,,,,,,,,,,,,,,,,,50,001,21,w,Psychologie,2023-01-23_09h05.54.696,00_bat_bachelor,2022.2.4,59.92750591847229,
,,,,,,,,,,,,1,0,1,0,101,0,101,0,,,,,,,101,,,0.2,1833.6992820852902,X,None,nogo,None,1,,,,,,,,,,,,,,,,,,,50,001,21,w,Psychologie,2023-01-23_09h05.54.696,00_bat_bachelor,2022.2.4,59.92750591847229,
,,,,,,,,,,,,1,0,1,0,102,0,102,0,,,,,,,102,,,0.2,1834.6998246303992,X,None,nogo,None,1,,1835.5004206058802,,,,,,,,,,,,,,,,,50,001,21,w,Psychologie,2023-01-23_09h05.54.696,00_bat_bachelor,2022.2.4,59.92750591847229,
,,,,,,,,,,,,1,0,1,0,103,0,103,0,,,,,,,103,,,0.2,1835.7005635391688,Y,l,go,l,1,0.3898426309460774,,,,,,,,,,,,,,,,,,50,001,21,w,Psychologie,2023-01-23_09h05.54.696,00_bat_bachelor,2022.2.4,59.92750591847229,
,,,,,,,,,,,,1,0,1,0,104,0,104,0,,,,,,,104,,,0.2,1836.4012507145526,X,d,go,d,1,0.34659901552367955,,,,,,,,,,,,,,,,,,50,001,21,w,Psychologie,2023-01-23_09h05.54.696,00_bat_bachelor,2022.2.4,59.92750591847229,
,,,,,,,,,,,,1,0,1,0,105,0,105,0,,,,,,,105,,,0.2,1837.0518535507144,Y,l,go,l,1,0.6065072531346232,,,,,,,,,,,,,,,,,,50,001,21,w,Psychologie,2023-01-23_09h05.54.696,00_bat_bachelor,2022.2.4,59.92750591847229,
,,,,,,,,,,,,1,0,1,0,106,0,106,0,,,,,,,106,,,0.2,1837.9691946816165,X,d,go,d,1,0.4107260147575289,,,,,,,,,,,,,,,,,,50,001,21,w,Psychologie,2023-01-23_09h05.54.696,00_bat_bachelor,2022.2.4,59.92750591847229,
,,,,,,,,,,,,1,0,1,0,107,0,107,0,,,,,,,107,,,0.2,1838.6865150610683,X,None,nogo,l,0,0.6049819205654785,,,,,,,,,,,,,,,,,,50,001,21,w,Psychologie,2023-01-23_09h05.54.696,00_bat_bachelor,2022.2.4,59.92750591847229,
,,,,,,,,,,,,1,0,1,0,108,0,108,0,,,,,,,108,,,0.2,1839.603797040647,X,None,nogo,None,1,,1840.4041389556369,,,,,,,,,,,,,,,,,50,001,21,w,Psychologie,2023-01-23_09h05.54.696,00_bat_bachelor,2022.2.4,59.92750591847229,
,,,,,,,,,,,,1,0,1,0,109,0,109,0,,,,,,,109,,,0.2,1840.6045378887793,Y,l,go,l,1,0.3658828849438578,,,,,,,,,,,,,,,,,,50,001,21,w,Psychologie,2023-01-23_09h05.54.696,00_bat_bachelor,2022.2.4,59.92750591847229,
,,,,,,,,,,,,1,0,1,0,110,0,110,0,,,,,,,110,,,0.2,1841.2716628985945,X,d,go,d,1,0.5305906838038936,,,,,,,,,,,,,,,,,,50,001,21,w,Psychologie,2023-01-23_09h05.54.696,00_bat_bachelor,2022.2.4,59.92750591847229,
,,,,,,,,,,,,1,0,1,0,111,0,111,0,,,,,,,111,,,0.2,1842.1054477065336,X,None,nogo,None,1,,,,,,,,,,,,,,,,,,,50,001,21,w,Psychologie,2023-01-23_09h05.54.696,00_bat_bachelor,2022.2.4,59.92750591847229,
,,,,,,,,,,,,1,0,1,0,112,0,112,0,,,,,,,112,,,0.2,1843.106405281811,Y,l,go,l,1,0.40827753103803843,,,,,,,,,,,,,,,,,,50,001,21,w,Psychologie,2023-01-23_09h05.54.696,00_bat_bachelor,2022.2.4,59.92750591847229,
,,,,,,,,,,,,1,0,1,0,113,0,113,0,,,,,,,113,,,0.2,1843.8236359643051,X,d,go,d,1,0.3154863032978028,,,,,,,,,,,,,,,,,,50,001,21,w,Psychologie,2023-01-23_09h05.54.696,00_bat_bachelor,2022.2.4,59.92750591847229,
,,,,,,,,,,,,1,0,1,0,114,0,114,0,,,,,,,114,,,0.2,1844.4405563925393,Y,l,go,l,1,0.48247773747425526,,,,,,,,,,,,,,,,,,50,001,21,w,Psychologie,2023-01-23_09h05.54.696,00_bat_bachelor,2022.2.4,59.92750591847229,
,,,,,,,,,,,,1,0,1,0,115,0,115,0,,,,,,,115,,,0.2,1845.22467916389,Y,None,nogo,None,1,,,,,,,,,,,,,,,,,,,50,001,21,w,Psychologie,2023-01-23_09h05.54.696,00_bat_bachelor,2022.2.4,59.92750591847229,
,,,,,,,,,,,,1,0,1,0,116,0,116,0,,,,,,,116,,,0.2,1846.225266315043,X,d,go,d,1,0.21712126000784338,,,,,,,,,,,,,,,,,,50,001,21,w,Psychologie,2023-01-23_09h05.54.696,00_bat_bachelor,2022.2.4,59.92750591847229,
,,,,,,,,,,,,1,0,1,0,117,0,117,0,,,,,,,117,,,0.2,1846.7425368521363,Y,l,go,l,1,0.4210251612821594,,,,,,,,,,,,,,,,,,50,001,21,w,Psychologie,2023-01-23_09h05.54.696,00_bat_bachelor,2022.2.4,59.92750591847229,
,,,,,,,,,,,,1,0,1,0,118,0,118,0,,,,,,,118,,,0.2,1847.4765195265645,X,d,go,d,1,0.470352167612873,,,,,,,,,,,,,,,,,,50,001,21,w,Psychologie,2023-01-23_09h05.54.696,00_bat_bachelor,2022.2.4,59.92750591847229,
,,,,,,,,,,,,1,0,1,0,119,0,119,0,,,,,,,119,,,0.2,1848.2604124798672,Y,l,go,l,1,0.43898297066334635,,,,,,,,,,,,,,,,,,50,001,21,w,Psychologie,2023-01-23_09h05.54.696,00_bat_bachelor,2022.2.4,59.92750591847229,
,,,,,,,,,,,,1,0,1,0,120,0,120,0,,,,,,,120,,,0.2,1849.010956600774,X,d,go,None,0,,,,,,,,,,,,,,,,,,,50,001,21,w,Psychologie,2023-01-23_09h05.54.696,00_bat_bachelor,2022.2.4,59.92750591847229,
,,,,,,,,,,,,1,0,1,0,121,0,121,0,,,,,,,121,,,0.2,1850.011536964099,X,None,nogo,None,1,,,,,,,,,,,,,,,,,,,50,001,21,w,Psychologie,2023-01-23_09h05.54.696,00_bat_bachelor,2022.2.4,59.92750591847229,
,,,,,,,,,,,,1,0,1,0,122,0,122,0,,,,,,,122,,,0.2,1851.0124019334326,Y,l,go,l,1,0.3902426306158304,,,,,,,,,,,,,,,,,,50,001,21,w,Psychologie,2023-01-23_09h05.54.696,00_bat_bachelor,2022.2.4,59.92750591847229,
,,,,,,,,,,,,1,0,1,0,123,0,123,0,,,,,,,123,,,0.2,1851.712891775649,X,d,go,d,1,0.44189496932085603,,,,,,,,,,,,,,,,,,50,001,21,w,Psychologie,2023-01-23_09h05.54.696,00_bat_bachelor,2022.2.4,59.92750591847229,
,,,,,,,,,,,,1,0,1,0,124,0,124,0,,,,,,,124,,,0.2,1852.4632923814934,Y,l,go,l,1,0.4917034300742671,,,,,,,,,,,,,,,,,,50,001,21,w,Psychologie,2023-01-23_09h05.54.696,00_bat_bachelor,2022.2.4,59.92750591847229,
,,,,,,,,,,,,1,0,1,0,125,0,125,0,,,,,,,125,,,0.2,1853.264101690147,Y,None,nogo,None,1,,,,,,,,,,,,,,,,,,,50,001,21,w,Psychologie,2023-01-23_09h05.54.696,00_bat_bachelor,2022.2.4,59.92750591847229,
,,,,,,,,,,,,1,0,1,0,126,0,126,0,,,,,,,126,,,0.2,1854.2650214473251,X,d,go,d,1,0.3858746327459812,,,,,,,,,,,,,,,,,,50,001,21,w,Psychologie,2023-01-23_09h05.54.696,00_bat_bachelor,2022.2.4,59.92750591847229,
,,,,,,,,,,,,1,0,1,0,127,0,127,0,,,,,,,127,,,0.2,1854.9652775926515,Y,l,go,l,1,0.32603417697828263,,,,,,,,,,,,,,,,,,50,001,21,w,Psychologie,2023-01-23_09h05.54.696,00_bat_bachelor,2022.2.4,59.92750591847229,
,,,,,,,,,,,,1,0,1,0,128,0,128,0,,,,,,,128,,,0.2,1855.5992928004125,X,d,go,None,0,,1856.3998276849743,,,,,,,,,,,,,,,,,50,001,21,w,Psychologie,2023-01-23_09h05.54.696,00_bat_bachelor,2022.2.4,59.92750591847229,
,,,,,,,,,,,,1,0,1,0,129,0,129,0,,,,,,,129,,,0.2,1856.5998581334716,Y,l,go,l,1,0.3708564583212137,,,,,,,,,,,,,,,,,,50,001,21,w,Psychologie,2023-01-23_09h05.54.696,00_bat_bachelor,2022.2.4,59.92750591847229,
,,,,,,,,,,,,1,0,1,0,130,0,130,0,,,,,,,130,,,0.2,1857.2838451957796,Y,None,nogo,None,1,,,,,,,,,,,,,,,,,,,50,001,21,w,Psychologie,2023-01-23_09h05.54.696,00_bat_bachelor,2022.2.4,59.92750591847229,
,,,,,,,,,,,,1,0,1,0,131,0,131,0,,,,,,,131,,,0.2,1858.2846689529251,X,d,go,d,1,0.3820229982957244,,,,,,,,,,,,,,,,,,50,001,21,w,Psychologie,2023-01-23_09h05.54.696,00_bat_bachelor,2022.2.4,59.92750591847229,
,,,,,,,,,,,,1,0,1,0,132,0,132,0,,,,,,,132,,,0.2,1858.9682555305772,Y,l,go,l,1,0.5630275167059153,,,,,,,,,,,,,,,,,,50,001,21,w,Psychologie,2023-01-23_09h05.54.696,00_bat_bachelor,2022.2.4,59.92750591847229,
,,,,,,,,,,,,1,0,1,0,133,0,133,0,,,,,,,133,,,0.2,1859.8356475948822,Y,None,nogo,None,1,,,,,,,,,,,,,,,,,,,50,001,21,w,Psychologie,2023-01-23_09h05.54.696,00_bat_bachelor,2022.2.4,59.92750591847229,
,,,,,,,,,,,,1,0,1,0,134,0,134,0,,,,,,,134,,,0.2,1860.8367050489178,X,d,go,d,1,0.35873961565084755,,,,,,,,,,,,,,,,,,50,001,21,w,Psychologie,2023-01-23_09h05.54.696,00_bat_bachelor,2022.2.4,59.92750591847229,
,,,,,,,,,,,,1,0,1,0,135,0,135,0,,,,,,,135,,,0.2,1861.5036855740473,Y,l,go,l,1,0.3791628784965724,,,,,,,,,,,,,,,,,,50,001,21,w,Psychologie,2023-01-23_09h05.54.696,00_bat_bachelor,2022.2.4,59.92750591847229,
,,,,,,,,,,,,1,0,1,0,136,0,136,0,,,,,,,136,,,0.2,1862.187610090943,X,d,go,d,1,0.5279104426736012,,,,,,,,,,,,,,,,,,50,001,21,w,Psychologie,2023-01-23_09h05.54.696,00_bat_bachelor,2022.2.4,59.92750591847229,
,,,,,,,,,,,,1,0,1,0,137,0,137,0,,,,,,,137,,,0.2,1863.0215292017674,X,None,nogo,None,1,,1863.8222376620397,,,,,,,,,,,,,,,,,50,001,21,w,Psychologie,2023-01-23_09h05.54.696,00_bat_bachelor,2022.2.4,59.92750591847229,
,,,,,,,,,,,,1,0,1,0,138,0,138,0,,,,,,,138,,,0.2,1864.022284110426,Y,l,go,l,1,0.4685495018493384,,,,,,,,,,,,,,,,,,50,001,21,w,Psychologie,2023-01-23_09h05.54.696,00_bat_bachelor,2022.2.4,59.92750591847229,
,,,,,,,,,,,,1,0,1,0,139,0,139,0,,,,,,,139,,,0.2,1864.8062439727364,X,d,go,d,1,0.49985033518169075,,,,,,,,,,,,,,,,,,50,001,21,w,Psychologie,2023-01-23_09h05.54.696,00_bat_bachelor,2022.2.4,59.92750591847229,
,,,,,,,,,,,,1,0,1,0,140,0,140,0,,,,,,,140,,,0.2,1865.606683342252,X,None,nogo,l,0,0.48382949444931,,,,,,,,,,,,,,,,,,50,001,21,w,Psychologie,2023-01-23_09h05.54.696,00_bat_bachelor,2022.2.4,59.92750591847229,
,,,,,,,,,,,,1,0,1,0,141,0,141,0,,,,,,,141,,,0.2,1866.3908216287382,Y,l,go,None,0,,1867.1914224526845,,,,,,,,,,,,,,,,,50,001,21,w,Psychologie,2023-01-23_09h05.54.696,00_bat_bachelor,2022.2.4,59.92750591847229,
,,,,,,,,,,,,1,0,1,0,142,0,142,0,,,,,,,142,,,0.2,1867.3916904767975,X,d,go,d,1,0.45985568792093545,,,,,,,,,,,,,,,,,,50,001,21,w,Psychologie,2023-01-23_09h05.54.696,00_bat_bachelor,2022.2.4,59.92750591847229,
,,,,,,,,,,,,1,0,1,0,143,0,143,0,,,,,,,143,,,0.2,1868.1585492565064,Y,l,go,l,1,0.3322193861240521,,,,,,,,,,,,,,,,,,50,001,21,w,Psychologie,2023-01-23_09h05.54.696,00_bat_bachelor,2022.2.4,59.92750591847229,
,,,,,,,,,,,,1,0,1,0,144,0,144,0,,,,,,,144,,,0.2,1868.7923361007124,X,d,go,d,1,0.25825190683826804,,,,,,,,,,,,,,,,,,50,001,21,w,Psychologie,2023-01-23_09h05.54.696,00_bat_bachelor,2022.2.4,59.92750591847229,
,,,,,,,,,,,,1,0,1,0,145,0,145,0,,,,,,,145,,,0.2,1869.3596720680362,Y,l,go,l,1,0.36408846150152385,,,,,,,,,,,,,,,,,,50,001,21,w,Psychologie,2023-01-23_09h05.54.696,00_bat_bachelor,2022.2.4,59.92750591847229,
,,,,,,,,,,,,1,0,1,0,146,0,146,0,,,,,,,146,,,0.2,1870.026978411246,Y,None,nogo,None,1,,,,,,,,,,,,,,,,,,,50,001,21,w,Psychologie,2023-01-23_09h05.54.696,00_bat_bachelor,2022.2.4,59.92750591847229,
,,,,,,,,,,,,1,0,1,0,147,0,147,0,,,,,,,147,,,0.2,1871.0276368351188,X,d,go,d,1,0.40839195519220084,,,,,,,,,,,,,,,,,,50,001,21,w,Psychologie,2023-01-23_09h05.54.696,00_bat_bachelor,2022.2.4,59.92750591847229,
,,,,,,,,,,,,1,0,1,0,148,0,148,0,,,,,,,148,,,0.2,1871.7449193964712,Y,l,go,l,1,0.3619396141730249,,,,,,,,,,,,,,,,,,50,001,21,w,Psychologie,2023-01-23_09h05.54.696,00_bat_bachelor,2022.2.4,59.92750591847229,
,,,,,,,,,,,,1,0,1,0,149,0,149,0,,,,,,,149,,,0.2,1872.4121627092827,X,d,go,d,1,0.49603167036548257,,,,,,,,,,,,,,,,,,50,001,21,w,Psychologie,2023-01-23_09h05.54.696,00_bat_bachelor,2022.2.4,59.92750591847229,
,,,,,,,,,,,,1,0,1,0,150,0,150,0,,,,,,,150,,,0.2,1873.2125186849153,X,None,nogo,None,1,,1874.0129939331673,,,,,,,,,,,,,,,,,50,001,21,w,Psychologie,2023-01-23_09h05.54.696,00_bat_bachelor,2022.2.4,59.92750591847229,
,,,,,,,,,,,,1,0,1,0,151,0,151,0,,,,,,,151,,,0.2,1874.2131911694305,Y,l,go,l,1,0.30986497271806,,,,,,,,,,,,,,,,,,50,001,21,w,Psychologie,2023-01-23_09h05.54.696,00_bat_bachelor,2022.2.4,59.92750591847229,
,,,,,,,,,,,,1,0,1,0,152,0,152,0,,,,,,,152,,,0.2,1874.8305489306804,X,d,go,d,1,0.38027269614394754,,,,,,,,,,,,,,,,,,50,001,21,w,Psychologie,2023-01-23_09h05.54.696,00_bat_bachelor,2022.2.4,59.92750591847229,
,,,,,,,,,,,,1,0,1,0,153,0,153,0,,,,,,,153,,,0.2,1875.514408962801,Y,l,go,l,1,0.416772072436288,,,,,,,,,,,,,,,,,,50,001,21,w,Psychologie,2023-01-23_09h05.54.696,00_bat_bachelor,2022.2.4,59.92750591847229,
,,,,,,,,,,,,1,0,1,0,154,0,154,0,,,,,,,154,,,0.2,1876.2316570997937,Y,None,nogo,None,1,,,,,,,,,,,,,,,,,,,50,001,21,w,Psychologie,2023-01-23_09h05.54.696,00_bat_bachelor,2022.2.4,59.92750591847229,
,,,,,,,,,,,,1,0,1,0,155,0,155,0,,,,,,,155,,,0.2,1877.232283038902,X,d,go,d,1,0.3307769625680521,,,,,,,,,,,,,,,,,,50,001,21,w,Psychologie,2023-01-23_09h05.54.696,00_bat_bachelor,2022.2.4,59.92750591847229,
,,,,,,,,,,,,1,0,1,0,156,0,156,0,,,,,,,156,,,0.2,1877.8662323072786,Y,l,go,l,1,0.36872797447722405,,,,,,,,,,,,,,,,,,50,001,21,w,Psychologie,2023-01-23_09h05.54.696,00_bat_bachelor,2022.2.4,59.92750591847229,
,,,,,,,,,,,,1,0,1,0,157,0,157,0,,,,,,,157,,,0.2,1878.5500380364247,X,d,go,d,1,0.6129465227713808,,,,,,,,,,,,,,,,,,50,001,21,w,Psychologie,2023-01-23_09h05.54.696,00_bat_bachelor,2022.2.4,59.92750591847229,
,,,,,,,,,,,,1,0,1,0,158,0,158,0,,,,,,,158,,,0.2,1879.467145470553,X,None,nogo,None,1,,,,,,,,,,,,,,,,,,,50,001,21,w,Psychologie,2023-01-23_09h05.54.696,00_bat_bachelor,2022.2.4,59.92750591847229,
,,,,,,,,,,,,1,0,1,0,159,0,159,0,,,,,,,159,,,0.2,1880.4681748033036,Y,l,go,l,1,0.39018057007342577,,,,,,,,,,,,,,,,,,50,001,21,w,Psychologie,2023-01-23_09h05.54.696,00_bat_bachelor,2022.2.4,59.92750591847229,
,,,,,,,,,,,,1,0,1,0,160,0,160,0,,,,,,,160,,,0.2,1881.168773736339,X,d,go,d,1,0.5857877479866147,,,,,,,,,,,,,,,,,,50,001,21,w,Psychologie,2023-01-23_09h05.54.696,00_bat_bachelor,2022.2.4,59.92750591847229,
,,,,,,,,,,,,1,0,1,0,161,0,161,0,,,,,,,161,,,0.2,1882.0695306330454,Y,l,go,l,1,0.5657499396475032,,,,,,,,,,,,,,,,,,50,001,21,w,Psychologie,2023-01-23_09h05.54.696,00_bat_bachelor,2022.2.4,59.92750591847229,
,,,,,,,,,,,,1,0,1,0,162,0,162,0,,,,,,,162,,,0.2,1882.9364955460187,X,d,go,d,1,0.5145363886840641,,,,,,,,,,,,,,,,,,50,001,21,w,Psychologie,2023-01-23_09h05.54.696,00_bat_bachelor,2022.2.4,59.92750591847229,
,,,,,,,,,,,,1,0,1,0,163,0,163,0,,,,,,,163,,,0.2,1883.754085452645,Y,l,go,l,1,0.33673041430301964,,,,,,,,,,,,,,,,,,50,001,21,w,Psychologie,2023-01-23_09h05.54.696,00_bat_bachelor,2022.2.4,59.92750591847229,
,,,,,,,,,,,,1,0,1,0,164,0,164,0,,,,,,,164,,,0.2,1884.4045467129909,Y,None,nogo,None,1,,,,,,,,,,,,,,,,,,,50,001,21,w,Psychologie,2023-01-23_09h05.54.696,00_bat_bachelor,2022.2.4,59.92750591847229,
,,,,,,,,,,,,1,0,1,0,165,0,165,0,,,,,,,165,,,0.2,1885.4052739853505,X,d,go,d,1,0.5744893292430788,,,,,,,,,,,,,,,,,,50,001,21,w,Psychologie,2023-01-23_09h05.54.696,00_bat_bachelor,2022.2.4,59.92750591847229,
,,,,,,,,,,,,1,0,1,0,166,0,166,0,,,,,,,166,,,0.2,1886.2891668902012,Y,l,go,l,1,0.47441277164034545,,,,,,,,,,,,,,,,,,50,001,21,w,Psychologie,2023-01-23_09h05.54.696,00_bat_bachelor,2022.2.4,59.92750591847229,
,,,,,,,,,,,,1,0,1,0,167,0,167,0,,,,,,,167,,,0.2,1887.0732246917905,Y,None,nogo,None,1,,1887.8739472127054,,,,,,,,,,,,,,,,,50,001,21,w,Psychologie,2023-01-23_09h05.54.696,00_bat_bachelor,2022.2.4,59.92750591847229,
,,,,,,,,,,,,1,0,1,0,168,0,168,0,,,,,,,168,,,0.2,1888.0739868732635,X,d,go,d,1,0.3844763304805383,,,,,,,,,,,,,,,,,,50,001,21,w,Psychologie,2023-01-23_09h05.54.696,00_bat_bachelor,2022.2.4,59.92750591847229,
,,,,,,,,,,,,1,0,1,0,169,0,169,0,,,,,,,169,,,0.2,1888.7745087153744,Y,l,go,l,1,0.32436338998377323,,,,,,,,,,,,,,,,,,50,001,21,w,Psychologie,2023-01-23_09h05.54.696,00_bat_bachelor,2022.2.4,59.92750591847229,
,,,,,,,,,,,,1,0,1,0,170,0,170,0,,,,,,,170,,,0.2,1889.408352771774,Y,None,nogo,None,1,,1890.2089982017642,,,,,,,,,,,,,,,,,50,001,21,w,Psychologie,2023-01-23_09h05.54.696,00_bat_bachelor,2022.2.4,59.92750591847229,
,,,,,,,,,,,,1,0,1,0,171,0,171,0,,,,,,,171,,,0.2,1890.408901135088,X,d,go,d,1,0.43360551877412945,,,,,,,,,,,,,,,,,,50,001,21,w,Psychologie,2023-01-23_09h05.54.696,00_bat_bachelor,2022.2.4,59.92750591847229,
,,,,,,,,,,,,1,0,1,0,172,0,172,0,,,,,,,172,,,0.2,1891.1429890216095,Y,l,go,l,1,0.5159439031267539,,,,,,,,,,,,,,,,,,50,001,21,w,Psychologie,2023-01-23_09h05.54.696,00_bat_bachelor,2022.2.4,59.92750591847229,
,,,,,,,,,,,,1,0,1,0,173,0,173,0,,,,,,,173,,,0.2,1891.960297231446,X,d,go,None,0,,,,,,,,,,,,,,,,,,,50,001,21,w,Psychologie,2023-01-23_09h05.54.696,00_bat_bachelor,2022.2.4,59.92750591847229,
,,,,,,,,,,,,1,0,1,0,174,0,174,0,,,,,,,174,,,0.2,1892.961049231002,X,None,nogo,None,1,,,,,,,,,,,,,,,,,,,50,001,21,w,Psychologie,2023-01-23_09h05.54.696,00_bat_bachelor,2022.2.4,59.92750591847229,
,,,,,,,,,,,,1,0,1,0,175,0,175,0,,,,,,,175,,,0.2,1893.961754200398,Y,l,go,l,1,0.5291851087240502,,,,,,,,,,,,,,,,,,50,001,21,w,Psychologie,2023-01-23_09h05.54.696,00_bat_bachelor,2022.2.4,59.92750591847229,
,,,,,,,,,,,,1,0,1,0,176,0,176,0,,,,,,,176,,,0.2,1894.7958095535869,X,d,go,d,1,0.3827473616693169,,,,,,,,,,,,,,,,,,50,001,21,w,Psychologie,2023-01-23_09h05.54.696,00_bat_bachelor,2022.2.4,59.92750591847229,
,,,,,,,,,,,,1,0,1,0,177,0,177,0,,,,,,,177,,,0.2,1895.4794126161141,Y,l,go,l,1,0.627740697353147,,,,,,,,,,,,,,,,,,50,001,21,w,Psychologie,2023-01-23_09h05.54.696,00_bat_bachelor,2022.2.4,59.92750591847229,
,,,,,,,,,,,,1,0,1,0,178,0,178,0,,,,,,,178,,,0.2,1896.4134068299318,X,d,go,d,1,0.5412728604860604,,,,,,,,,,,,,,,,,,50,001,21,w,Psychologie,2023-01-23_09h05.54.696,00_bat_bachelor,2022.2.4,59.92750591847229,
,,,,,,,,,,,,1,0,1,0,179,0,179,0,,,,,,,179,,,0.2,1897.2641254477203,Y,l,go,l,1,0.4588156883837655,,,,,,,,,,,,,,,,,,50,001,21,w,Psychologie,2023-01-23_09h05.54.696,00_bat_bachelor,2022.2.4,59.92750591847229,
,,,,,,,,,,,,1,0,1,0,180,0,180,0,,,,,,,180,,,0.2,1898.0313837423455,X,d,go,d,1,0.5877285955939442,,,,,,,,,,,,,,,,,,50,001,21,w,Psychologie,2023-01-23_09h05.54.696,00_bat_bachelor,2022.2.4,59.92750591847229,
,,,,,,,,,,,,1,0,1,0,181,0,181,0,,,,,,,181,,,0.2,1898.9320902148029,X,None,nogo,None,1,,,,,,,,,,,,,,,,,,,50,001,21,w,Psychologie,2023-01-23_09h05.54.696,00_bat_bachelor,2022.2.4,59.92750591847229,
,,,,,,,,,,,,1,0,1,0,182,0,182,0,,,,,,,182,,,0.2,1899.9330652445788,Y,l,go,l,1,0.2855668027186766,,,,,,,,,,,,,,,,,,50,001,21,w,Psychologie,2023-01-23_09h05.54.696,00_bat_bachelor,2022.2.4,59.92750591847229,
,,,,,,,,,,,,1,0,1,0,183,0,183,0,,,,,,,183,,,0.2,1900.5335304080509,X,d,go,d,1,0.5012874252861366,,,,,,,,,,,,,,,,,,50,001,21,w,Psychologie,2023-01-23_09h05.54.696,00_bat_bachelor,2022.2.4,59.92750591847229,
,,,,,,,,,,,,1,0,1,0,184,0,184,0,,,,,,,184,,,0.2,1901.3505709816236,X,None,nogo,None,1,,1902.1514292599168,,,,,,,,,,,,,,,,,50,001,21,w,Psychologie,2023-01-23_09h05.54.696,00_bat_bachelor,2022.2.4,59.92750591847229,
,,,,,,,,,,,,1,0,1,0,185,0,185,0,,,,,,,185,,,0.2,1902.3514577690512,Y,l,go,l,1,0.3644986432045698,,,,,,,,,,,,,,,,,,50,001,21,w,Psychologie,2023-01-23_09h05.54.696,00_bat_bachelor,2022.2.4,59.92750591847229,
,,,,,,,,,,,,1,0,1,0,186,0,186,0,,,,,,,186,,,0.2,1903.0184804758755,X,d,go,None,0,,,,,,,,,,,,,,,,,,,50,001,21,w,Psychologie,2023-01-23_09h05.54.696,00_bat_bachelor,2022.2.4,59.92750591847229,
,,,,,,,,,,,,1,0,1,0,187,0,187,0,,,,,,,187,,,0.2,1904.0192780513316,X,None,nogo,None,1,,,,,,,,,,,,,,,,,,,50,001,21,w,Psychologie,2023-01-23_09h05.54.696,00_bat_bachelor,2022.2.4,59.92750591847229,
,,,,,,,,,,,,1,0,1,0,188,0,188,0,,,,,,,188,,,0.2,1905.0202477477724,Y,l,go,l,1,0.4618770203087479,,,,,,,,,,,,,,,,,,50,001,21,w,Psychologie,2023-01-23_09h05.54.696,00_bat_bachelor,2022.2.4,59.92750591847229,
,,,,,,,,,,,,1,0,1,0,189,0,189,0,,,,,,,189,,,0.2,1905.787475981866,X,d,go,None,0,,1906.5881597148255,,,,,,,,,,,,,,,,,50,001,21,w,Psychologie,2023-01-23_09h05.54.696,00_bat_bachelor,2022.2.4,59.92750591847229,
,,,,,,,,,,,,1,0,1,0,190,0,190,0,,,,,,,190,,,0.2,1906.7882837390061,Y,l,go,l,1,0.6307268777163699,,,,,,,,,,,,,,,,,,50,001,21,w,Psychologie,2023-01-23_09h05.54.696,00_bat_bachelor,2022.2.4,59.92750591847229,
,,,,,,,,,,,,1,0,1,0,191,0,191,0,,,,,,,191,,,0.2,1907.7221543166088,X,d,go,d,1,0.44846175389830023,,,,,,,,,,,,,,,,,,50,001,21,w,Psychologie,2023-01-23_09h05.54.696,00_bat_bachelor,2022.2.4,59.92750591847229,
,,,,,,,,,,,,1,0,1,0,192,0,192,0,,,,,,,192,,,0.2,1908.4729146797908,X,None,nogo,None,1,,,,,,,,,,,,,,,,,,,50,001,21,w,Psychologie,2023-01-23_09h05.54.696,00_bat_bachelor,2022.2.4,59.92750591847229,
,,,,,,,,,,,,1,0,1,0,193,0,193,0,,,,,,,193,,,0.2,1909.4739609824028,Y,l,go,l,1,0.3447381679434329,,,,,,,,,,,,,,,,,,50,001,21,w,Psychologie,2023-01-23_09h05.54.696,00_bat_bachelor,2022.2.4,59.92750591847229,
,,,,,,,,,,,,1,0,1,0,194,0,194,0,,,,,,,194,,,0.2,1910.1244804245653,X,d,go,d,1,0.4304394597420469,,,,,,,,,,,,,,,,,,50,001,21,w,Psychologie,2023-01-23_09h05.54.696,00_bat_bachelor,2022.2.4,59.92750591847229,
,,,,,,,,,,,,1,0,1,0,195,0,195,0,,,,,,,195,,,0.2,1910.857785766013,Y,l,go,l,1,0.6250090622343123,,,,,,,,,,,,,,,,,,50,001,21,w,Psychologie,2023-01-23_09h05.54.696,00_bat_bachelor,2022.2.4,59.92750591847229,
,,,,,,,,,,,,1,0,1,0,196,0,196,0,,,,,,,196,,,0.2,1911.808586274623,X,d,go,d,1,0.5856975661590695,,,,,,,,,,,,,,,,,,50,001,21,w,Psychologie,2023-01-23_09h05.54.696,00_bat_bachelor,2022.2.4,59.92750591847229,
,,,,,,,,,,,,1,0,1,0,197,0,197,0,,,,,,,197,,,0.2,1912.7094309288077,Y,l,go,l,1,0.5013936071190983,,,,,,,,,,,,,,,,,,50,001,21,w,Psychologie,2023-01-23_09h05.54.696,00_bat_bachelor,2022.2.4,59.92750591847229,
,,,,,,,,,,,,1,0,1,0,198,0,198,0,,,,,,,198,,,0.2,1913.5267216840293,Y,None,nogo,None,1,,1914.3273229928454,,,,,,,,,,,,,,,,,50,001,21,w,Psychologie,2023-01-23_09h05.54.696,00_bat_bachelor,2022.2.4,59.92750591847229,
,,,,,,,,,,,,1,0,1,0,199,0,199,0,,,,,,,199,,,0.2,1914.5272089565406,X,d,go,d,1,0.4444753316929564,,,,,,,,,,,,,,,,,,50,001,21,w,Psychologie,2023-01-23_09h05.54.696,00_bat_bachelor,2022.2.4,59.92750591847229,
