loop_instruction.thisRepN,loop_instruction.thisTrialN,loop_instruction.thisN,loop_instruction.thisIndex,loop_rsi_practice.thisRepN,loop_rsi_practice.thisTrialN,loop_rsi_practice.thisN,loop_rsi_practice.thisIndex,loop_practice.thisRepN,loop_practice.thisTrialN,loop_practice.thisN,loop_practice.thisIndex,loop_exp.thisRepN,loop_exp.thisTrialN,loop_exp.thisN,loop_exp.thisIndex,loop_trials.thisRepN,loop_trials.thisTrialN,loop_trials.thisN,loop_trials.thisIndex,map_condition,map_x_key,map_y_key,key_resp_welcome.started,key_resp_welcome.keys,key_resp_welcome.rt,index,text_empty_rsi_practice.started,text_empty_rsi_practice.stopped,rsi,stimulus.started,stimulus,correct,trial_type,key_resp_trial.keys,key_resp_trial.corr,stimulus.stopped,key_resp_trial.rt,key_resp_instruction_rsi.started,key_resp_instruction_rsi.keys,key_resp_instruction_rsi.rt,key_resp_instruction_rsi.stopped,key_resp_instruction_final.started,key_resp_instruction_final.keys,key_resp_instruction_final.rt,key_resp_break.started,key_resp_break.keys,key_resp_break.rt,key_resp_break.stopped,key_resp_end_screen.started,image_end_screen.started,key_resp_end_screen.keys,participant,session,Alter,Geschlecht (w/m/d/andere),Studiengang,date,expName,psychopyVersion,frameRate,
,,,,0,0,0,0,0,0,0,0,,,,,,,,,1,l,d,20230.735470188898,j,3.1949447975493968,0,20233.96628607693,20234.981399281765,1,20234.981399281765,X,l,go,None,0,,,,,,,,,,,,,,,,,51,001,20,m,Informatik,2023-01-23_14h23.59.266,00_bat_bachelor,2022.2.4,59.95276451128002,
,,,,0,0,0,0,1,0,1,0,,,,,,,,,,,,,,,1,20236.39892198844,20237.40130065393,1,20237.40130065393,Y,d,go,None,0,,,,,,,,,,,,,,,,,51,001,20,m,Informatik,2023-01-23_14h23.59.266,00_bat_bachelor,2022.2.4,59.95276451128002,
,,,,0,0,0,0,2,0,2,0,,,,,,,,,,,,,,,2,20238.815586513723,20239.81586530141,1,20239.81586530141,X,l,go,None,0,20240.615738852997,,,,,,,,,,,,,,,,51,001,20,m,Informatik,2023-01-23_14h23.59.266,00_bat_bachelor,2022.2.4,59.95276451128002,
,,,,0,0,0,0,3,0,3,0,,,,,,,,,,,,,,,3,20241.215602804557,20242.21587044082,1,20242.21587044082,Y,d,go,d,1,,0.46224551636260003,,,,,,,,,,,,,,,51,001,20,m,Informatik,2023-01-23_14h23.59.266,00_bat_bachelor,2022.2.4,59.95276451128002,
,,,,0,0,0,0,4,0,4,0,,,,,,,,,,,,,,,4,20243.415582828806,20244.41545676824,1,20244.41545676824,Y,None,nogo,d,0,,0.3432778165442869,,,,,,,,,,,,,,,51,001,20,m,Informatik,2023-01-23_14h23.59.266,00_bat_bachelor,2022.2.4,59.95276451128002,
,,,,0,0,0,0,5,0,5,0,,,,,,,,,,,,,,,5,20245.915052162483,20246.915054101846,1,20246.915054101846,Y,None,nogo,d,0,,0.46727436257060617,,,,,,,,,,,,,,,51,001,20,m,Informatik,2023-01-23_14h23.59.266,00_bat_bachelor,2022.2.4,59.95276451128002,
,,,,0,0,0,0,6,0,6,0,,,,,,,,,,,,,,,6,20248.498639273457,20249.49837600079,1,20249.49837600079,X,l,go,l,1,,0.3635168371256441,,,,,,,,,,,,,,,51,001,20,m,Informatik,2023-01-23_14h23.59.266,00_bat_bachelor,2022.2.4,59.95276451128002,
,,,,0,0,0,0,7,0,7,0,,,,,,,,,,,,,,,7,20250.565298635047,20251.5652511199,1,20251.5652511199,Y,d,go,d,1,,0.2654868239769712,,,,,,,,,,,,,,,51,001,20,m,Informatik,2023-01-23_14h23.59.266,00_bat_bachelor,2022.2.4,59.95276451128002,
,,,,0,0,0,0,8,0,8,0,,,,,,,,,,,,,,,8,20252.53185283311,20253.531936711865,1,20253.531936711865,Y,None,nogo,None,1,20254.331935839145,,,,,,,,,,,,,,,,51,001,20,m,Informatik,2023-01-23_14h23.59.266,00_bat_bachelor,2022.2.4,59.95276451128002,
,,,,0,0,0,0,9,0,9,0,,,,,,,,,,,,,,,9,20254.93182500277,20255.932043184526,1,20255.932043184526,X,l,go,l,1,,0.3790373143274337,,,,,,,,,,,,,,,51,001,20,m,Informatik,2023-01-23_14h23.59.266,00_bat_bachelor,2022.2.4,59.95276451128002,
,,,,0,0,0,0,10,0,10,0,,,,,,,,,,,,,,,10,20257.015093810856,20258.015215992695,1,20258.015215992695,Y,d,go,d,1,,0.21568951476365328,,,,,,,,,,,,,,,51,001,20,m,Informatik,2023-01-23_14h23.59.266,00_bat_bachelor,2022.2.4,59.95276451128002,
,,,,0,0,0,0,11,0,11,0,,,,,,,,,,,,,,,11,20258.931683427072,20259.931826942135,1,20259.931826942135,X,l,go,l,1,,0.2501806494547054,,,,,,,,,,,,,,,51,001,20,m,Informatik,2023-01-23_14h23.59.266,00_bat_bachelor,2022.2.4,59.95276451128002,
,,,,0,0,0,0,12,0,12,0,,,,,,,,,,,,,,,12,20260.881704784697,20261.88172369369,1,20261.88172369369,Y,d,go,d,1,,0.15614530129823834,,,,,,,,,,,,,,,51,001,20,m,Informatik,2023-01-23_14h23.59.266,00_bat_bachelor,2022.2.4,59.95276451128002,
,,,,0,0,0,0,13,0,13,0,,,,,,,,,,,,,,,13,20262.76524568966,20263.765236962354,1,20263.765236962354,Y,None,nogo,l,0,,0.19267376826610416,,,,,,,,,,,,,,,51,001,20,m,Informatik,2023-01-23_14h23.59.266,00_bat_bachelor,2022.2.4,59.95276451128002,
,,,,0,0,0,0,14,0,14,0,,,,,,,,,,,,,,,14,20265.098399952287,20266.0985764371,1,20266.0985764371,X,l,go,l,1,,0.5482362626353279,,,,,,,,,,,,,,,51,001,20,m,Informatik,2023-01-23_14h23.59.266,00_bat_bachelor,2022.2.4,59.95276451128002,
,,,,1,0,1,0,0,0,0,0,,,,,,,,,,,,,,,0,20285.831910384586,20286.031872469466,0.2,20286.031872469466,X,l,go,l,1,,0.3583609607303515,20267.386285873363,j,18.41521959984675,,,,,,,,,,,,51,001,20,m,Informatik,2023-01-23_14h23.59.266,00_bat_bachelor,2022.2.4,59.95276451128002,
,,,,1,0,1,0,1,0,1,0,,,,,,,,,,,,,,,1,20287.098366012913,20287.298342158436,0.2,20287.298342158436,Y,d,go,d,1,,0.25998282665386796,,,,,,,,,,,,,,,51,001,20,m,Informatik,2023-01-23_14h23.59.266,00_bat_bachelor,2022.2.4,59.95276451128002,
,,,,1,0,1,0,2,0,2,0,,,,,,,,,,,,,,,2,20288.281786045176,20288.48185382702,0.2,20288.48185382702,X,l,go,l,1,,0.4047788776224479,,,,,,,,,,,,,,,51,001,20,m,Informatik,2023-01-23_14h23.59.266,00_bat_bachelor,2022.2.4,59.95276451128002,
,,,,1,0,1,0,3,0,3,0,,,,,,,,,,,,,,,3,20289.598455952248,20289.798374885693,0.2,20289.798374885693,X,None,nogo,d,0,,0.272521487204358,,,,,,,,,,,,,,,51,001,20,m,Informatik,2023-01-23_14h23.59.266,00_bat_bachelor,2022.2.4,59.95276451128002,
,,,,1,0,1,0,4,0,4,0,,,,,,,,,,,,,,,4,20291.198558934033,20291.398576776497,0.2,20291.398576776497,Y,d,go,d,1,,0.5438789314357564,,,,,,,,,,,,,,,51,001,20,m,Informatik,2023-01-23_14h23.59.266,00_bat_bachelor,2022.2.4,59.95276451128002,
,,,,1,0,1,0,5,0,5,0,,,,,,,,,,,,,,,5,20292.648528655292,20292.84838892205,0.2,20292.84838892205,X,l,go,l,1,,0.2776715453946963,,,,,,,,,,,,,,,51,001,20,m,Informatik,2023-01-23_14h23.59.266,00_bat_bachelor,2022.2.4,59.95276451128002,
,,,,1,0,1,0,6,0,6,0,,,,,,,,,,,,,,,6,20293.831723233103,20294.03193404514,0.2,20294.03193404514,Y,d,go,d,1,,0.2957205062266439,,,,,,,,,,,,,,,51,001,20,m,Informatik,2023-01-23_14h23.59.266,00_bat_bachelor,2022.2.4,59.95276451128002,
,,,,1,0,1,0,7,0,7,0,,,,,,,,,,,,,,,7,20295.03191222693,20295.23190000886,0.2,20295.23190000886,X,l,go,l,1,,0.31146401388105005,,,,,,,,,,,,,,,51,001,20,m,Informatik,2023-01-23_14h23.59.266,00_bat_bachelor,2022.2.4,59.95276451128002,
,,,,1,0,1,0,8,0,8,0,,,,,,,,,,,,,,,8,20296.24865248555,20296.448511782568,0.2,20296.448511782568,Y,d,go,d,1,,0.27818790869787335,,,,,,,,,,,,,,,51,001,20,m,Informatik,2023-01-23_14h23.59.266,00_bat_bachelor,2022.2.4,59.95276451128002,
,,,,1,0,1,0,9,0,9,0,,,,,,,,,,,,,,,9,20297.43170597253,20297.63165011804,0.2,20297.63165011804,X,l,go,l,1,,0.3269675213377923,,,,,,,,,,,,,,,51,001,20,m,Informatik,2023-01-23_14h23.59.266,00_bat_bachelor,2022.2.4,59.95276451128002,
,,,,1,0,1,0,10,0,10,0,,,,,,,,,,,,,,,10,20298.681638457463,20298.881652421085,0.2,20298.881652421085,Y,d,go,d,1,,0.2617893712595105,,,,,,,,,,,,,,,51,001,20,m,Informatik,2023-01-23_14h23.59.266,00_bat_bachelor,2022.2.4,59.95276451128002,
,,,,1,0,1,0,11,0,11,0,,,,,,,,,,,,,,,11,20299.848352073575,20300.0482346433,0.2,20300.0482346433,Y,None,nogo,None,1,20300.848458255292,,,,,,,,,,,,,,,,51,001,20,m,Informatik,2023-01-23_14h23.59.266,00_bat_bachelor,2022.2.4,59.95276451128002,
,,,,1,0,1,0,12,0,12,0,,,,,,,,,,,,,,,12,20301.448319297866,20301.648088897928,0.2,20301.648088897928,X,l,go,l,1,,0.03862632787786424,,,,,,,,,,,,,,,51,001,20,m,Informatik,2023-01-23_14h23.59.266,00_bat_bachelor,2022.2.4,59.95276451128002,
,,,,1,0,1,0,13,0,13,0,,,,,,,,,,,,,,,13,20302.398263564566,20302.59827801294,0.2,20302.59827801294,Y,d,go,d,1,,0.25601337396074086,,,,,,,,,,,,,,,51,001,20,m,Informatik,2023-01-23_14h23.59.266,00_bat_bachelor,2022.2.4,59.95276451128002,
,,,,1,0,1,0,14,0,14,0,,,,,,,,,,,,,,,14,20303.564758029184,20303.764966416988,0.2,20303.764966416988,Y,None,nogo,None,1,20304.564902998856,,,,,,,,,,,,,,,,51,001,20,m,Informatik,2023-01-23_14h23.59.266,00_bat_bachelor,2022.2.4,59.95276451128002,
,,,,,,,,,,,,,,,,,,,,,,,,,,,,,,,,,,,,,,20305.215235289652,None,,20305.215235289652,20305.215235289652,space,6.329929944244213,,,,,,,,51,001,20,m,Informatik,2023-01-23_14h23.59.266,00_bat_bachelor,2022.2.4,59.95276451128002,
,,,,,,,,,,,,0,0,0,0,0,0,0,0,,,,,,,0,,,1,20312.564953907975,X,l,go,l,1,,0.2910131146200001,,,,,,,,,,,,,,,51,001,20,m,Informatik,2023-01-23_14h23.59.266,00_bat_bachelor,2022.2.4,59.95276451128002,
,,,,,,,,,,,,0,0,0,0,1,0,1,0,,,,,,,1,,,1,20313.964983774582,Y,d,go,d,1,,0.28249917936045676,,,,,,,,,,,,,,,51,001,20,m,Informatik,2023-01-23_14h23.59.266,00_bat_bachelor,2022.2.4,59.95276451128002,
,,,,,,,,,,,,0,0,0,0,2,0,2,0,,,,,,,2,,,1,20315.348316922085,X,l,go,l,1,,0.29006426653359085,,,,,,,,,,,,,,,51,001,20,m,Informatik,2023-01-23_14h23.59.266,00_bat_bachelor,2022.2.4,59.95276451128002,
,,,,,,,,,,,,0,0,0,0,3,0,3,0,,,,,,,3,,,1,20316.74827406148,X,None,nogo,d,0,,0.20239546056836843,,,,,,,,,,,,,,,51,001,20,m,Informatik,2023-01-23_14h23.59.266,00_bat_bachelor,2022.2.4,59.95276451128002,
,,,,,,,,,,,,0,0,0,0,4,0,4,0,,,,,,,4,,,1,20318.06475051411,Y,d,go,d,1,,0.31013746897224337,,,,,,,,,,,,,,,51,001,20,m,Informatik,2023-01-23_14h23.59.266,00_bat_bachelor,2022.2.4,59.95276451128002,
,,,,,,,,,,,,0,0,0,0,5,0,5,0,,,,,,,5,,,1,20319.481537221116,X,l,go,l,1,,0.2682974892668426,,,,,,,,,,,,,,,51,001,20,m,Informatik,2023-01-23_14h23.59.266,00_bat_bachelor,2022.2.4,59.95276451128002,
,,,,,,,,,,,,0,0,0,0,6,0,6,0,,,,,,,6,,,1,20320.86492903519,Y,d,go,d,1,,0.2946974764345214,,,,,,,,,,,,,,,51,001,20,m,Informatik,2023-01-23_14h23.59.266,00_bat_bachelor,2022.2.4,59.95276451128002,
,,,,,,,,,,,,0,0,0,0,7,0,7,0,,,,,,,7,,,1,20322.26477320504,X,l,go,l,1,,0.28589166258461773,,,,,,,,,,,,,,,51,001,20,m,Informatik,2023-01-23_14h23.59.266,00_bat_bachelor,2022.2.4,59.95276451128002,
,,,,,,,,,,,,0,0,0,0,8,0,8,0,,,,,,,8,,,1,20323.664923798875,X,None,nogo,None,1,20324.464718805044,,,,,,,,,,,,,,,,51,001,20,m,Informatik,2023-01-23_14h23.59.266,00_bat_bachelor,2022.2.4,59.95276451128002,
,,,,,,,,,,,,0,0,0,0,9,0,9,0,,,,,,,9,,,1,20325.464975289768,Y,d,go,d,1,,0.333657942363061,,,,,,,,,,,,,,,51,001,20,m,Informatik,2023-01-23_14h23.59.266,00_bat_bachelor,2022.2.4,59.95276451128002,
,,,,,,,,,,,,0,0,0,0,10,0,10,0,,,,,,,10,,,1,20326.89855374617,X,l,go,l,1,,0.292595659266226,,,,,,,,,,,,,,,51,001,20,m,Informatik,2023-01-23_14h23.59.266,00_bat_bachelor,2022.2.4,59.95276451128002,
,,,,,,,,,,,,0,0,0,0,11,0,11,0,,,,,,,11,,,1,20328.29811379488,X,None,nogo,d,0,,0.23512950527947396,,,,,,,,,,,,,,,51,001,20,m,Informatik,2023-01-23_14h23.59.266,00_bat_bachelor,2022.2.4,59.95276451128002,
,,,,,,,,,,,,0,0,0,0,12,0,12,0,,,,,,,12,,,1,20329.66513955628,Y,d,go,d,1,,0.3258271582890302,,,,,,,,,,,,,,,51,001,20,m,Informatik,2023-01-23_14h23.59.266,00_bat_bachelor,2022.2.4,59.95276451128002,
,,,,,,,,,,,,0,0,0,0,13,0,13,0,,,,,,,13,,,1,20331.098302013008,X,l,go,l,1,,0.3321175795281306,,,,,,,,,,,,,,,51,001,20,m,Informatik,2023-01-23_14h23.59.266,00_bat_bachelor,2022.2.4,59.95276451128002,
,,,,,,,,,,,,0,0,0,0,14,0,14,0,,,,,,,14,,,1,20332.531610408914,X,None,nogo,None,1,20333.33162650594,,,,,,,,,,,,,,,,51,001,20,m,Informatik,2023-01-23_14h23.59.266,00_bat_bachelor,2022.2.4,59.95276451128002,
,,,,,,,,,,,,0,0,0,0,15,0,15,0,,,,,,,15,,,1,20334.331450505997,Y,d,go,d,1,,0.31474983040243387,,,,,,,,,,,,,,,51,001,20,m,Informatik,2023-01-23_14h23.59.266,00_bat_bachelor,2022.2.4,59.95276451128002,
,,,,,,,,,,,,0,0,0,0,16,0,16,0,,,,,,,16,,,1,20335.747947273776,X,l,go,l,1,,0.370073439902626,,,,,,,,,,,,,,,51,001,20,m,Informatik,2023-01-23_14h23.59.266,00_bat_bachelor,2022.2.4,59.95276451128002,
,,,,,,,,,,,,0,0,0,0,17,0,17,0,,,,,,,17,,,1,20337.231505342294,Y,d,go,d,1,,0.27985433221329004,,,,,,,,,,,,,,,51,001,20,m,Informatik,2023-01-23_14h23.59.266,00_bat_bachelor,2022.2.4,59.95276451128002,
,,,,,,,,,,,,0,0,0,0,18,0,18,0,,,,,,,18,,,1,20338.61484236864,Y,None,nogo,None,1,20339.414838586817,,,,,,,,,,,,,,,,51,001,20,m,Informatik,2023-01-23_14h23.59.266,00_bat_bachelor,2022.2.4,59.95276451128002,
,,,,,,,,,,,,0,0,0,0,19,0,19,0,,,,,,,19,,,1,20340.414610708132,X,l,go,l,1,,0.24783398408908397,,,,,,,,,,,,,,,51,001,20,m,Informatik,2023-01-23_14h23.59.266,00_bat_bachelor,2022.2.4,59.95276451128002,
,,,,,,,,,,,,0,0,0,0,20,0,20,0,,,,,,,20,,,1,20341.76488835644,Y,d,go,d,1,,0.30620147089939564,,,,,,,,,,,,,,,51,001,20,m,Informatik,2023-01-23_14h23.59.266,00_bat_bachelor,2022.2.4,59.95276451128002,
,,,,,,,,,,,,0,0,0,0,21,0,21,0,,,,,,,21,,,1,20343.18143700296,Y,None,nogo,None,1,20343.981456493842,,,,,,,,,,,,,,,,51,001,20,m,Informatik,2023-01-23_14h23.59.266,00_bat_bachelor,2022.2.4,59.95276451128002,
,,,,,,,,,,,,0,0,0,0,22,0,22,0,,,,,,,22,,,1,20344.981608251343,X,l,go,l,1,,0.2571566461119801,,,,,,,,,,,,,,,51,001,20,m,Informatik,2023-01-23_14h23.59.266,00_bat_bachelor,2022.2.4,59.95276451128002,
,,,,,,,,,,,,0,0,0,0,23,0,23,0,,,,,,,23,,,1,20346.34803958889,Y,d,go,d,1,,0.2827673003775999,,,,,,,,,,,,,,,51,001,20,m,Informatik,2023-01-23_14h23.59.266,00_bat_bachelor,2022.2.4,59.95276451128002,
,,,,,,,,,,,,0,0,0,0,24,0,24,0,,,,,,,24,,,1,20347.731200130307,X,l,go,l,1,,0.37084483343642205,,,,,,,,,,,,,,,51,001,20,m,Informatik,2023-01-23_14h23.59.266,00_bat_bachelor,2022.2.4,59.95276451128002,
,,,,,,,,,,,,0,0,0,0,25,0,25,0,,,,,,,25,,,1,20349.214875047328,Y,d,go,d,1,,0.2478005294688046,,,,,,,,,,,,,,,51,001,20,m,Informatik,2023-01-23_14h23.59.266,00_bat_bachelor,2022.2.4,59.95276451128002,
,,,,,,,,,,,,0,0,0,0,26,0,26,0,,,,,,,26,,,1,20350.564833180746,Y,None,nogo,None,1,20351.364836671622,,,,,,,,,,,,,,,,51,001,20,m,Informatik,2023-01-23_14h23.59.266,00_bat_bachelor,2022.2.4,59.95276451128002,
,,,,,,,,,,,,0,0,0,0,27,0,27,0,,,,,,,27,,,1,20352.364906489733,X,l,go,l,1,,0.2816046343650669,,,,,,,,,,,,,,,51,001,20,m,Informatik,2023-01-23_14h23.59.266,00_bat_bachelor,2022.2.4,59.95276451128002,
,,,,,,,,,,,,0,0,0,0,28,0,28,0,,,,,,,28,,,1,20353.748148970655,Y,d,go,d,1,,0.27418839547317475,,,,,,,,,,,,,,,51,001,20,m,Informatik,2023-01-23_14h23.59.266,00_bat_bachelor,2022.2.4,59.95276451128002,
,,,,,,,,,,,,0,0,0,0,29,0,29,0,,,,,,,29,,,1,20355.131170845474,Y,None,nogo,None,1,20355.93113409402,,,,,,,,,,,,,,,,51,001,20,m,Informatik,2023-01-23_14h23.59.266,00_bat_bachelor,2022.2.4,59.95276451128002,
,,,,,,,,,,,,0,0,0,0,30,0,30,0,,,,,,,30,,,1,20356.931487548398,X,l,go,l,1,,0.2594805237604305,,,,,,,,,,,,,,,51,001,20,m,Informatik,2023-01-23_14h23.59.266,00_bat_bachelor,2022.2.4,59.95276451128002,
,,,,,,,,,,,,0,0,0,0,31,0,31,0,,,,,,,31,,,1,20358.298156461562,Y,d,go,d,1,,0.26853894372470677,,,,,,,,,,,,,,,51,001,20,m,Informatik,2023-01-23_14h23.59.266,00_bat_bachelor,2022.2.4,59.95276451128002,
,,,,,,,,,,,,0,0,0,0,32,0,32,0,,,,,,,32,,,1,20359.681343669654,X,l,go,l,1,,0.2777515451889485,,,,,,,,,,,,,,,51,001,20,m,Informatik,2023-01-23_14h23.59.266,00_bat_bachelor,2022.2.4,59.95276451128002,
,,,,,,,,,,,,0,0,0,0,33,0,33,0,,,,,,,33,,,1,20361.064751968603,Y,d,go,d,1,,0.3018523820210248,,,,,,,,,,,,,,,51,001,20,m,Informatik,2023-01-23_14h23.59.266,00_bat_bachelor,2022.2.4,59.95276451128002,
,,,,,,,,,,,,0,0,0,0,34,0,34,0,,,,,,,34,,,1,20362.481497948407,X,l,go,l,1,,0.26163325004745275,,,,,,,,,,,,,,,51,001,20,m,Informatik,2023-01-23_14h23.59.266,00_bat_bachelor,2022.2.4,59.95276451128002,
,,,,,,,,,,,,0,0,0,0,35,0,35,0,,,,,,,35,,,1,20363.84807231615,Y,d,go,d,1,,0.2709767606575042,,,,,,,,,,,,,,,51,001,20,m,Informatik,2023-01-23_14h23.59.266,00_bat_bachelor,2022.2.4,59.95276451128002,
,,,,,,,,,,,,0,0,0,0,36,0,36,0,,,,,,,36,,,1,20365.231294918223,X,l,go,l,1,,0.23163714341353625,,,,,,,,,,,,,,,51,001,20,m,Informatik,2023-01-23_14h23.59.266,00_bat_bachelor,2022.2.4,59.95276451128002,
,,,,,,,,,,,,0,0,0,0,37,0,37,0,,,,,,,37,,,1,20366.564649908105,Y,d,go,d,1,,0.14702288142871112,,,,,,,,,,,,,,,51,001,20,m,Informatik,2023-01-23_14h23.59.266,00_bat_bachelor,2022.2.4,59.95276451128002,
,,,,,,,,,,,,0,0,0,0,38,0,38,0,,,,,,,38,,,1,20367.815026514,X,l,go,l,1,,0.24076829047407955,,,,,,,,,,,,,,,51,001,20,m,Informatik,2023-01-23_14h23.59.266,00_bat_bachelor,2022.2.4,59.95276451128002,
,,,,,,,,,,,,0,0,0,0,39,0,39,0,,,,,,,39,,,1,20369.16468937474,X,None,nogo,d,0,,0.2181530287489295,,,,,,,,,,,,,,,51,001,20,m,Informatik,2023-01-23_14h23.59.266,00_bat_bachelor,2022.2.4,59.95276451128002,
,,,,,,,,,,,,0,0,0,0,40,0,40,0,,,,,,,40,,,1,20370.497847031336,Y,d,go,d,1,,0.24545483360998333,,,,,,,,,,,,,,,51,001,20,m,Informatik,2023-01-23_14h23.59.266,00_bat_bachelor,2022.2.4,59.95276451128002,
,,,,,,,,,,,,0,0,0,0,41,0,41,0,,,,,,,41,,,1,20371.847855589003,X,l,go,l,1,,0.2707149425987154,,,,,,,,,,,,,,,51,001,20,m,Informatik,2023-01-23_14h23.59.266,00_bat_bachelor,2022.2.4,59.95276451128002,
,,,,,,,,,,,,0,0,0,0,42,0,42,0,,,,,,,42,,,1,20373.231479645357,X,None,nogo,l,0,,0.6308970710961148,,,,,,,,,,,,,,,51,001,20,m,Informatik,2023-01-23_14h23.59.266,00_bat_bachelor,2022.2.4,59.95276451128002,
,,,,,,,,,,,,0,0,0,0,43,0,43,0,,,,,,,43,,,1,20374.96478983527,Y,d,go,d,1,,0.5624161345185712,,,,,,,,,,,,,,,51,001,20,m,Informatik,2023-01-23_14h23.59.266,00_bat_bachelor,2022.2.4,59.95276451128002,
,,,,,,,,,,,,0,0,0,0,44,0,44,0,,,,,,,44,,,1,20376.631613269565,X,l,go,l,1,,0.36820338014513254,,,,,,,,,,,,,,,51,001,20,m,Informatik,2023-01-23_14h23.59.266,00_bat_bachelor,2022.2.4,59.95276451128002,
,,,,,,,,,,,,0,0,0,0,45,0,45,0,,,,,,,45,,,1,20378.114758247393,X,None,nogo,None,1,20378.914672526298,,,,,,,,,,,,,,,,51,001,20,m,Informatik,2023-01-23_14h23.59.266,00_bat_bachelor,2022.2.4,59.95276451128002,
,,,,,,,,,,,,0,0,0,0,46,0,46,0,,,,,,,46,,,1,20379.914782101987,Y,d,go,d,1,,0.3319779431913048,,,,,,,,,,,,,,,51,001,20,m,Informatik,2023-01-23_14h23.59.266,00_bat_bachelor,2022.2.4,59.95276451128002,
,,,,,,,,,,,,0,0,0,0,47,0,47,0,,,,,,,47,,,1,20381.347781649558,X,l,go,l,1,,0.4658993328921497,,,,,,,,,,,,,,,51,001,20,m,Informatik,2023-01-23_14h23.59.266,00_bat_bachelor,2022.2.4,59.95276451128002,
,,,,,,,,,,,,0,0,0,0,48,0,48,0,,,,,,,48,,,1,20382.91475592018,X,None,nogo,None,1,20383.714754077722,,,,,,,,,,,,,,,,51,001,20,m,Informatik,2023-01-23_14h23.59.266,00_bat_bachelor,2022.2.4,59.95276451128002,
,,,,,,,,,,,,0,0,0,0,49,0,49,0,,,,,,,49,,,1,20384.714676017174,Y,d,go,d,1,,0.2196526643820107,,,,,,,,,,,,,,,51,001,20,m,Informatik,2023-01-23_14h23.59.266,00_bat_bachelor,2022.2.4,59.95276451128002,
,,,,,,,,,,,,0,0,0,0,50,0,50,0,,,,,,,50,,,1,20386.047817673767,X,l,go,l,1,,0.31133407435845584,,,,,,,,,,,,,,,51,001,20,m,Informatik,2023-01-23_14h23.59.266,00_bat_bachelor,2022.2.4,59.95276451128002,
,,,,,,,,,,,,0,0,0,0,51,0,51,0,,,,,,,51,,,1,20387.464880744345,Y,d,go,d,1,,0.3659706540638581,,,,,,,,,,,,,,,51,001,20,m,Informatik,2023-01-23_14h23.59.266,00_bat_bachelor,2022.2.4,59.95276451128002,
,,,,,,,,,,,,0,0,0,0,52,0,52,0,,,,,,,52,,,1,20388.931471548392,X,l,go,l,1,,0.2907212359132245,,,,,,,,,,,,,,,51,001,20,m,Informatik,2023-01-23_14h23.59.266,00_bat_bachelor,2022.2.4,59.95276451128002,
,,,,,,,,,,,,0,0,0,0,53,0,53,0,,,,,,,53,,,1,20390.3311528092,Y,d,go,d,1,,0.26706355053465813,,,,,,,,,,,,,,,51,001,20,m,Informatik,2023-01-23_14h23.59.266,00_bat_bachelor,2022.2.4,59.95276451128002,
,,,,,,,,,,,,0,0,0,0,54,0,54,0,,,,,,,54,,,1,20391.69801275246,X,l,go,l,1,,0.2618446439737454,,,,,,,,,,,,,,,51,001,20,m,Informatik,2023-01-23_14h23.59.266,00_bat_bachelor,2022.2.4,59.95276451128002,
,,,,,,,,,,,,0,0,0,0,55,0,55,0,,,,,,,55,,,1,20393.06480336259,Y,d,go,d,1,,0.27053991239517927,,,,,,,,,,,,,,,51,001,20,m,Informatik,2023-01-23_14h23.59.266,00_bat_bachelor,2022.2.4,59.95276451128002,
,,,,,,,,,,,,0,0,0,0,56,0,56,0,,,,,,,56,,,1,20394.44812972215,X,l,go,l,1,,0.2786606358131394,,,,,,,,,,,,,,,51,001,20,m,Informatik,2023-01-23_14h23.59.266,00_bat_bachelor,2022.2.4,59.95276451128002,
,,,,,,,,,,,,0,0,0,0,57,0,57,0,,,,,,,57,,,1,20395.83144541504,Y,d,go,d,1,,0.2558490104274824,,,,,,,,,,,,,,,51,001,20,m,Informatik,2023-01-23_14h23.59.266,00_bat_bachelor,2022.2.4,59.95276451128002,
,,,,,,,,,,,,0,0,0,0,58,0,58,0,,,,,,,58,,,1,20397.197985358536,X,l,go,l,1,,0.26485797576606274,,,,,,,,,,,,,,,51,001,20,m,Informatik,2023-01-23_14h23.59.266,00_bat_bachelor,2022.2.4,59.95276451128002,
,,,,,,,,,,,,0,0,0,0,59,0,59,0,,,,,,,59,,,1,20398.56489863526,Y,d,go,d,1,,0.22653411561623216,,,,,,,,,,,,,,,51,001,20,m,Informatik,2023-01-23_14h23.59.266,00_bat_bachelor,2022.2.4,59.95276451128002,
,,,,,,,,,,,,0,0,0,0,60,0,60,0,,,,,,,60,,,1,20399.898136291886,Y,None,nogo,None,1,20400.697850813158,,,,,,,,,,,,,,,,51,001,20,m,Informatik,2023-01-23_14h23.59.266,00_bat_bachelor,2022.2.4,59.95276451128002,
,,,,,,,,,,,,0,0,0,0,61,0,61,0,,,,,,,61,,,1,20401.698193600867,X,l,go,l,1,,0.2769302122760564,,,,,,,,,,,,,,,51,001,20,m,Informatik,2023-01-23_14h23.59.266,00_bat_bachelor,2022.2.4,59.95276451128002,
,,,,,,,,,,,,0,0,0,0,62,0,62,0,,,,,,,62,,,1,20403.081138869748,Y,d,go,d,1,,0.22168660268653184,,,,,,,,,,,,,,,51,001,20,m,Informatik,2023-01-23_14h23.59.266,00_bat_bachelor,2022.2.4,59.95276451128002,
,,,,,,,,,,,,0,0,0,0,63,0,63,0,,,,,,,63,,,1,20404.41473046562,X,l,go,l,1,,0.231689507025294,,,,,,,,,,,,,,,51,001,20,m,Informatik,2023-01-23_14h23.59.266,00_bat_bachelor,2022.2.4,59.95276451128002,
,,,,,,,,,,,,0,0,0,0,64,0,64,0,,,,,,,64,,,1,20405.747958425316,Y,d,go,d,1,,0.21117509272880852,,,,,,,,,,,,,,,51,001,20,m,Informatik,2023-01-23_14h23.59.266,00_bat_bachelor,2022.2.4,59.95276451128002,
,,,,,,,,,,,,0,0,0,0,65,0,65,0,,,,,,,65,,,1,20407.06483051402,X,l,go,l,1,,0.2699450036743656,,,,,,,,,,,,,,,51,001,20,m,Informatik,2023-01-23_14h23.59.266,00_bat_bachelor,2022.2.4,59.95276451128002,
,,,,,,,,,,,,0,0,0,0,66,0,66,0,,,,,,,66,,,1,20408.44802014646,X,None,nogo,None,1,20409.248023637338,,,,,,,,,,,,,,,,51,001,20,m,Informatik,2023-01-23_14h23.59.266,00_bat_bachelor,2022.2.4,59.95276451128002,
,,,,,,,,,,,,0,0,0,0,67,0,67,0,,,,,,,67,,,1,20410.24783357687,Y,d,go,d,1,,0.28646911680698395,,,,,,,,,,,,,,,51,001,20,m,Informatik,2023-01-23_14h23.59.266,00_bat_bachelor,2022.2.4,59.95276451128002,
,,,,,,,,,,,,0,0,0,0,68,0,68,0,,,,,,,68,,,1,20411.648134958465,X,l,go,l,1,,0.2470368935028091,,,,,,,,,,,,,,,51,001,20,m,Informatik,2023-01-23_14h23.59.266,00_bat_bachelor,2022.2.4,59.95276451128002,
,,,,,,,,,,,,0,0,0,0,69,0,69,0,,,,,,,69,,,1,20412.99812169792,X,None,nogo,None,1,20413.79800834041,,,,,,,,,,,,,,,,51,001,20,m,Informatik,2023-01-23_14h23.59.266,00_bat_bachelor,2022.2.4,59.95276451128002,
,,,,,,,,,,,,0,0,0,0,70,0,70,0,,,,,,,70,,,1,20414.798130037263,Y,d,go,d,1,,0.29739177820738405,,,,,,,,,,,,,,,51,001,20,m,Informatik,2023-01-23_14h23.59.266,00_bat_bachelor,2022.2.4,59.95276451128002,
,,,,,,,,,,,,0,0,0,0,71,0,71,0,,,,,,,71,,,1,20416.197823419236,X,l,go,l,1,,0.33774375857319683,,,,,,,,,,,,,,,51,001,20,m,Informatik,2023-01-23_14h23.59.266,00_bat_bachelor,2022.2.4,59.95276451128002,
,,,,,,,,,,,,0,0,0,0,72,0,72,0,,,,,,,72,,,1,20417.648096655495,Y,d,go,d,1,,0.3115105591714382,,,,,,,,,,,,,,,51,001,20,m,Informatik,2023-01-23_14h23.59.266,00_bat_bachelor,2022.2.4,59.95276451128002,
,,,,,,,,,,,,0,0,0,0,73,0,73,0,,,,,,,73,,,1,20419.064730635262,Y,None,nogo,l,0,,0.25324731471482664,,,,,,,,,,,,,,,51,001,20,m,Informatik,2023-01-23_14h23.59.266,00_bat_bachelor,2022.2.4,59.95276451128002,
,,,,,,,,,,,,0,0,0,0,74,0,74,0,,,,,,,74,,,1,20420.431132397032,X,l,go,l,1,,0.26391543075442314,,,,,,,,,,,,,,,51,001,20,m,Informatik,2023-01-23_14h23.59.266,00_bat_bachelor,2022.2.4,59.95276451128002,
,,,,,,,,,,,,0,0,0,0,75,0,75,0,,,,,,,75,,,1,20421.79791621922,Y,d,go,d,1,,0.28869699453935027,,,,,,,,,,,,,,,51,001,20,m,Informatik,2023-01-23_14h23.59.266,00_bat_bachelor,2022.2.4,59.95276451128002,
,,,,,,,,,,,,0,0,0,0,76,0,76,0,,,,,,,76,,,1,20423.198124025133,X,l,go,l,1,,0.3439866646658629,,,,,,,,,,,,,,,51,001,20,m,Informatik,2023-01-23_14h23.59.266,00_bat_bachelor,2022.2.4,59.95276451128002,
,,,,,,,,,,,,0,0,0,0,77,0,77,0,,,,,,,77,,,1,20424.64811944333,Y,d,go,d,1,,0.27075615467038006,,,,,,,,,,,,,,,51,001,20,m,Informatik,2023-01-23_14h23.59.266,00_bat_bachelor,2022.2.4,59.95276451128002,
,,,,,,,,,,,,0,0,0,0,78,0,78,0,,,,,,,78,,,1,20426.031458409037,X,l,go,l,1,,0.2958872941089794,,,,,,,,,,,,,,,51,001,20,m,Informatik,2023-01-23_14h23.59.266,00_bat_bachelor,2022.2.4,59.95276451128002,
,,,,,,,,,,,,0,0,0,0,79,0,79,0,,,,,,,79,,,1,20427.431343790842,X,None,nogo,None,1,20428.231445705984,,,,,,,,,,,,,,,,51,001,20,m,Informatik,2023-01-23_14h23.59.266,00_bat_bachelor,2022.2.4,59.95276451128002,
,,,,,,,,,,,,0,0,0,0,80,0,80,0,,,,,,,80,,,1,20429.2313797666,Y,d,go,d,1,,0.2810771194053814,,,,,,,,,,,,,,,51,001,20,m,Informatik,2023-01-23_14h23.59.266,00_bat_bachelor,2022.2.4,59.95276451128002,
,,,,,,,,,,,,0,0,0,0,81,0,81,0,,,,,,,81,,,1,20430.614758005016,X,l,go,l,1,,0.4968981056008488,,,,,,,,,,,,,,,51,001,20,m,Informatik,2023-01-23_14h23.59.266,00_bat_bachelor,2022.2.4,59.95276451128002,
,,,,,,,,,,,,0,0,0,0,82,0,82,0,,,,,,,82,,,1,20432.21441395674,X,None,nogo,d,0,,0.2563261011382565,,,,,,,,,,,,,,,51,001,20,m,Informatik,2023-01-23_14h23.59.266,00_bat_bachelor,2022.2.4,59.95276451128002,
,,,,,,,,,,,,0,0,0,0,83,0,83,0,,,,,,,83,,,1,20433.58141062723,Y,d,go,d,1,,0.2649559151614085,,,,,,,,,,,,,,,51,001,20,m,Informatik,2023-01-23_14h23.59.266,00_bat_bachelor,2022.2.4,59.95276451128002,
,,,,,,,,,,,,0,0,0,0,84,0,84,0,,,,,,,84,,,1,20434.948091661558,X,l,go,l,1,,0.25886864529456943,,,,,,,,,,,,,,,51,001,20,m,Informatik,2023-01-23_14h23.59.266,00_bat_bachelor,2022.2.4,59.95276451128002,
,,,,,,,,,,,,0,0,0,0,85,0,85,0,,,,,,,85,,,1,20436.314872574643,Y,d,go,d,1,,0.3163023144006729,,,,,,,,,,,,,,,51,001,20,m,Informatik,2023-01-23_14h23.59.266,00_bat_bachelor,2022.2.4,59.95276451128002,
,,,,,,,,,,,,0,0,0,0,86,0,86,0,,,,,,,86,,,1,20437.731299524195,X,l,go,l,1,,0.4194154766155407,,,,,,,,,,,,,,,51,001,20,m,Informatik,2023-01-23_14h23.59.266,00_bat_bachelor,2022.2.4,59.95276451128002,
,,,,,,,,,,,,0,0,0,0,87,0,87,0,,,,,,,87,,,1,20439.26475138683,X,None,nogo,None,1,20440.064793665544,,,,,,,,,,,,,,,,51,001,20,m,Informatik,2023-01-23_14h23.59.266,00_bat_bachelor,2022.2.4,59.95276451128002,
,,,,,,,,,,,,0,0,0,0,88,0,88,0,,,,,,,88,,,1,20441.06476166565,Y,d,go,d,1,,0.3017190487589687,,,,,,,,,,,,,,,51,001,20,m,Informatik,2023-01-23_14h23.59.266,00_bat_bachelor,2022.2.4,59.95276451128002,
,,,,,,,,,,,,0,0,0,0,89,0,89,0,,,,,,,89,,,1,20442.48141261516,X,l,go,l,1,,0.277901848196052,,,,,,,,,,,,,,,51,001,20,m,Informatik,2023-01-23_14h23.59.266,00_bat_bachelor,2022.2.4,59.95276451128002,
,,,,,,,,,,,,0,0,0,0,90,0,90,0,,,,,,,90,,,1,20443.864713277784,X,None,nogo,None,1,20444.664698344423,,,,,,,,,,,,,,,,51,001,20,m,Informatik,2023-01-23_14h23.59.266,00_bat_bachelor,2022.2.4,59.95276451128002,
,,,,,,,,,,,,0,0,0,0,91,0,91,0,,,,,,,91,,,1,20445.664570344496,Y,d,go,d,1,,0.3267226730240509,,,,,,,,,,,,,,,51,001,20,m,Informatik,2023-01-23_14h23.59.266,00_bat_bachelor,2022.2.4,59.95276451128002,
,,,,,,,,,,,,0,0,0,0,92,0,92,0,,,,,,,92,,,1,20447.09809934639,X,l,go,l,1,,0.33271830645389855,,,,,,,,,,,,,,,51,001,20,m,Informatik,2023-01-23_14h23.59.266,00_bat_bachelor,2022.2.4,59.95276451128002,
,,,,,,,,,,,,0,0,0,0,93,0,93,0,,,,,,,93,,,1,20448.531634651357,Y,d,go,d,1,,0.27527445554733276,,,,,,,,,,,,,,,51,001,20,m,Informatik,2023-01-23_14h23.59.266,00_bat_bachelor,2022.2.4,59.95276451128002,
,,,,,,,,,,,,0,0,0,0,94,0,94,0,,,,,,,94,,,1,20449.914657495916,Y,None,nogo,None,1,20450.714766198886,,,,,,,,,,,,,,,,51,001,20,m,Informatik,2023-01-23_14h23.59.266,00_bat_bachelor,2022.2.4,59.95276451128002,
,,,,,,,,,,,,0,0,0,0,95,0,95,0,,,,,,,95,,,1,20451.714780744398,X,l,go,l,1,,0.21194309229031205,,,,,,,,,,,,,,,51,001,20,m,Informatik,2023-01-23_14h23.59.266,00_bat_bachelor,2022.2.4,59.95276451128002,
,,,,,,,,,,,,0,0,0,0,96,0,96,0,,,,,,,96,,,1,20453.031145197107,Y,d,go,d,1,,0.3195827977033332,,,,,,,,,,,,,,,51,001,20,m,Informatik,2023-01-23_14h23.59.266,00_bat_bachelor,2022.2.4,59.95276451128002,
,,,,,,,,,,,,0,0,0,0,97,0,97,0,,,,,,,97,,,1,20454.464435168775,X,l,go,l,1,,0.31108825630508363,,,,,,,,,,,,,,,51,001,20,m,Informatik,2023-01-23_14h23.59.266,00_bat_bachelor,2022.2.4,59.95276451128002,
,,,,,,,,,,,,0,0,0,0,98,0,98,0,,,,,,,98,,,1,20455.881398360594,X,None,nogo,None,1,20456.681298093987,,,,,,,,,,,,,,,,51,001,20,m,Informatik,2023-01-23_14h23.59.266,00_bat_bachelor,2022.2.4,59.95276451128002,
,,,,,,,,,,,,0,0,0,0,99,0,99,0,,,,,,,99,,,1,20457.681243306142,Y,d,go,d,1,,0.24576901528052986,,,,,,,,,,,,,,,51,001,20,m,Informatik,2023-01-23_14h23.59.266,00_bat_bachelor,2022.2.4,59.95276451128002,
,,,,,,,,,,,,0,0,0,0,100,0,100,0,,,,,,,100,,,1,20459.031271257554,X,l,go,l,1,,0.3354678809409961,,,,,,,,,,,,,,,51,001,20,m,Informatik,2023-01-23_14h23.59.266,00_bat_bachelor,2022.2.4,59.95276451128002,
,,,,,,,,,,,,0,0,0,0,101,0,101,0,,,,,,,101,,,1,20460.481103766826,Y,d,go,d,1,,0.27816996932961047,,,,,,,,,,,,,,,51,001,20,m,Informatik,2023-01-23_14h23.59.266,00_bat_bachelor,2022.2.4,59.95276451128002,
,,,,,,,,,,,,0,0,0,0,102,0,102,0,,,,,,,102,,,1,20461.865013398812,X,l,go,l,1,,0.30152171559166163,,,,,,,,,,,,,,,51,001,20,m,Informatik,2023-01-23_14h23.59.266,00_bat_bachelor,2022.2.4,59.95276451128002,
,,,,,,,,,,,,0,0,0,0,103,0,103,0,,,,,,,103,,,1,20463.28122507583,Y,d,go,d,1,,0.29446717351675034,,,,,,,,,,,,,,,51,001,20,m,Informatik,2023-01-23_14h23.59.266,00_bat_bachelor,2022.2.4,59.95276451128002,
,,,,,,,,,,,,0,0,0,0,104,0,104,0,,,,,,,104,,,1,20464.681365002994,Y,None,nogo,l,0,,0.30083468556404114,,,,,,,,,,,,,,,51,001,20,m,Informatik,2023-01-23_14h23.59.266,00_bat_bachelor,2022.2.4,59.95276451128002,
,,,,,,,,,,,,0,0,0,0,105,0,105,0,,,,,,,105,,,1,20466.09805134649,X,l,go,l,1,,0.24525119736790657,,,,,,,,,,,,,,,51,001,20,m,Informatik,2023-01-23_14h23.59.266,00_bat_bachelor,2022.2.4,59.95276451128002,
,,,,,,,,,,,,0,0,0,0,106,0,106,0,,,,,,,106,,,1,20467.447789843543,Y,d,go,d,1,,0.28705481346696615,,,,,,,,,,,,,,,51,001,20,m,Informatik,2023-01-23_14h23.59.266,00_bat_bachelor,2022.2.4,59.95276451128002,
,,,,,,,,,,,,0,0,0,0,107,0,107,0,,,,,,,107,,,1,20468.847769286018,Y,None,nogo,None,1,20469.648189261556,,,,,,,,,,,,,,,,51,001,20,m,Informatik,2023-01-23_14h23.59.266,00_bat_bachelor,2022.2.4,59.95276451128002,
,,,,,,,,,,,,0,0,0,0,108,0,108,0,,,,,,,108,,,1,20470.64777035266,X,l,go,l,1,,0.3983740322291851,,,,,,,,,,,,,,,51,001,20,m,Informatik,2023-01-23_14h23.59.266,00_bat_bachelor,2022.2.4,59.95276451128002,
,,,,,,,,,,,,0,0,0,0,109,0,109,0,,,,,,,109,,,1,20472.147963079857,Y,d,go,d,1,,0.24329774372745305,,,,,,,,,,,,,,,51,001,20,m,Informatik,2023-01-23_14h23.59.266,00_bat_bachelor,2022.2.4,59.95276451128002,
,,,,,,,,,,,,0,0,0,0,110,0,110,0,,,,,,,110,,,1,20473.49789163738,Y,None,nogo,None,1,20474.298086158582,,,,,,,,,,,,,,,,51,001,20,m,Informatik,2023-01-23_14h23.59.266,00_bat_bachelor,2022.2.4,59.95276451128002,
,,,,,,,,,,,,0,0,0,0,111,0,111,0,,,,,,,111,,,1,20475.29776809807,X,l,go,l,1,,0.19703643291722983,,,,,,,,,,,,,,,51,001,20,m,Informatik,2023-01-23_14h23.59.266,00_bat_bachelor,2022.2.4,59.95276451128002,
,,,,,,,,,,,,0,0,0,0,112,0,112,0,,,,,,,112,,,1,20476.59817764943,Y,d,go,None,0,20477.397784534493,,,,,,,,,,,,,,,,51,001,20,m,Informatik,2023-01-23_14h23.59.266,00_bat_bachelor,2022.2.4,59.95276451128002,
,,,,,,,,,,,,0,0,0,0,113,0,113,0,,,,,,,113,,,1,20478.398078352446,Y,None,nogo,l,0,,0.21711302921175957,,,,,,,,,,,,,,,51,001,20,m,Informatik,2023-01-23_14h23.59.266,00_bat_bachelor,2022.2.4,59.95276451128002,
,,,,,,,,,,,,0,0,0,0,114,0,114,0,,,,,,,114,,,1,20479.731493948377,X,l,go,l,1,,0.5484922626055777,,,,,,,,,,,,,,,51,001,20,m,Informatik,2023-01-23_14h23.59.266,00_bat_bachelor,2022.2.4,59.95276451128002,
,,,,,,,,,,,,0,0,0,0,115,0,115,0,,,,,,,115,,,1,20481.381510602892,Y,d,go,d,1,,0.24103447212837636,,,,,,,,,,,,,,,51,001,20,m,Informatik,2023-01-23_14h23.59.266,00_bat_bachelor,2022.2.4,59.95276451128002,
,,,,,,,,,,,,0,0,0,0,116,0,116,0,,,,,,,116,,,1,20482.731368372682,X,l,go,l,1,,0.31500195141416043,,,,,,,,,,,,,,,51,001,20,m,Informatik,2023-01-23_14h23.59.266,00_bat_bachelor,2022.2.4,59.95276451128002,
,,,,,,,,,,,,0,0,0,0,117,0,117,0,,,,,,,117,,,1,20484.147968413192,X,None,nogo,None,1,20484.948047055514,,,,,,,,,,,,,,,,51,001,20,m,Informatik,2023-01-23_14h23.59.266,00_bat_bachelor,2022.2.4,59.95276451128002,
,,,,,,,,,,,,0,0,0,0,118,0,118,0,,,,,,,118,,,1,20485.948151782737,X,None,nogo,None,1,20486.748157697846,,,,,,,,,,,,,,,,51,001,20,m,Informatik,2023-01-23_14h23.59.266,00_bat_bachelor,2022.2.4,59.95276451128002,
,,,,,,,,,,,,0,0,0,0,119,0,119,0,,,,,,,119,,,1,20487.74900133384,Y,d,go,d,1,,0.2733040322782472,,,,,,,,,,,,,,,51,001,20,m,Informatik,2023-01-23_14h23.59.266,00_bat_bachelor,2022.2.4,59.95276451128002,
,,,,,,,,,,,,0,0,0,0,120,0,120,0,,,,,,,120,,,1,20489.16584234382,X,l,go,l,1,,0.28083857416640967,,,,,,,,,,,,,,,51,001,20,m,Informatik,2023-01-23_14h23.59.266,00_bat_bachelor,2022.2.4,59.95276451128002,
,,,,,,,,,,,,0,0,0,0,121,0,121,0,,,,,,,121,,,1,20490.582460808568,Y,d,go,d,1,,0.2875963889528066,,,,,,,,,,,,,,,51,001,20,m,Informatik,2023-01-23_14h23.59.266,00_bat_bachelor,2022.2.4,59.95276451128002,
,,,,,,,,,,,,0,0,0,0,122,0,122,0,,,,,,,122,,,1,20492.015734295477,X,l,go,l,1,,0.2795963928801939,,,,,,,,,,,,,,,51,001,20,m,Informatik,2023-01-23_14h23.59.266,00_bat_bachelor,2022.2.4,59.95276451128002,
,,,,,,,,,,,,0,0,0,0,123,0,123,0,,,,,,,123,,,1,20493.415209980565,X,None,nogo,d,0,,0.2396487758960575,,,,,,,,,,,,,,,51,001,20,m,Informatik,2023-01-23_14h23.59.266,00_bat_bachelor,2022.2.4,59.95276451128002,
,,,,,,,,,,,,0,0,0,0,124,0,124,0,,,,,,,124,,,1,20494.76535381074,Y,d,go,d,1,,0.6642226306721568,,,,,,,,,,,,,,,51,001,20,m,Informatik,2023-01-23_14h23.59.266,00_bat_bachelor,2022.2.4,59.95276451128002,
,,,,,,,,,,,,0,0,0,0,125,0,125,0,,,,,,,125,,,1,20496.565568210674,X,l,go,l,1,,0.2886140854097903,,,,,,,,,,,,,,,51,001,20,m,Informatik,2023-01-23_14h23.59.266,00_bat_bachelor,2022.2.4,59.95276451128002,
,,,,,,,,,,,,0,0,0,0,126,0,126,0,,,,,,,126,,,1,20497.999058424728,Y,d,go,d,1,,0.32808606629259884,,,,,,,,,,,,,,,51,001,20,m,Informatik,2023-01-23_14h23.59.266,00_bat_bachelor,2022.2.4,59.95276451128002,
,,,,,,,,,,,,0,0,0,0,127,0,127,0,,,,,,,127,,,1,20499.464961713995,Y,None,nogo,None,1,20500.26513490174,,,,,,,,,,,,,,,,51,001,20,m,Informatik,2023-01-23_14h23.59.266,00_bat_bachelor,2022.2.4,59.95276451128002,
,,,,,,,,,,,,0,0,0,0,128,0,128,0,,,,,,,128,,,1,20501.265317204758,X,l,go,l,1,,0.2776545756496489,,,,,,,,,,,,,,,51,001,20,m,Informatik,2023-01-23_14h23.59.266,00_bat_bachelor,2022.2.4,59.95276451128002,
,,,,,,,,,,,,0,0,0,0,129,0,129,0,,,,,,,129,,,1,20502.64824259479,Y,d,go,d,1,,0.28677845001220703,,,,,,,,,,,,,,,51,001,20,m,Informatik,2023-01-23_14h23.59.266,00_bat_bachelor,2022.2.4,59.95276451128002,
,,,,,,,,,,,,0,0,0,0,130,0,130,0,,,,,,,130,,,1,20504.048349552322,X,l,go,l,1,,0.27777530276216567,,,,,,,,,,,,,,,51,001,20,m,Informatik,2023-01-23_14h23.59.266,00_bat_bachelor,2022.2.4,59.95276451128002,
,,,,,,,,,,,,0,0,0,0,131,0,131,0,,,,,,,131,,,1,20505.43184900272,Y,d,go,d,1,,0.2854926324216649,,,,,,,,,,,,,,,51,001,20,m,Informatik,2023-01-23_14h23.59.266,00_bat_bachelor,2022.2.4,59.95276451128002,
,,,,,,,,,,,,0,0,0,0,132,0,132,0,,,,,,,132,,,1,20506.848468921962,X,l,go,l,1,,0.30940922687295824,,,,,,,,,,,,,,,51,001,20,m,Informatik,2023-01-23_14h23.59.266,00_bat_bachelor,2022.2.4,59.95276451128002,
,,,,,,,,,,,,0,0,0,0,133,0,133,0,,,,,,,133,,,1,20508.265162053285,Y,d,go,d,1,,0.30132535204757005,,,,,,,,,,,,,,,51,001,20,m,Informatik,2023-01-23_14h23.59.266,00_bat_bachelor,2022.2.4,59.95276451128002,
,,,,,,,,,,,,0,0,0,0,134,0,134,0,,,,,,,134,,,1,20509.681879911805,Y,None,nogo,None,1,20510.481816978543,,,,,,,,,,,,,,,,51,001,20,m,Informatik,2023-01-23_14h23.59.266,00_bat_bachelor,2022.2.4,59.95276451128002,
,,,,,,,,,,,,0,0,0,0,135,0,135,0,,,,,,,135,,,1,20511.481780614937,X,l,go,l,1,,0.2536114357644692,,,,,,,,,,,,,,,51,001,20,m,Informatik,2023-01-23_14h23.59.266,00_bat_bachelor,2022.2.4,59.95276451128002,
,,,,,,,,,,,,0,0,0,0,136,0,136,0,,,,,,,136,,,1,20512.848486376577,Y,d,go,d,1,,0.27768609079066664,,,,,,,,,,,,,,,51,001,20,m,Informatik,2023-01-23_14h23.59.266,00_bat_bachelor,2022.2.4,59.95276451128002,
,,,,,,,,,,,,0,0,0,0,137,0,137,0,,,,,,,137,,,1,20514.231782675488,Y,None,nogo,None,1,20515.031848711893,,,,,,,,,,,,,,,,51,001,20,m,Informatik,2023-01-23_14h23.59.266,00_bat_bachelor,2022.2.4,59.95276451128002,
,,,,,,,,,,,,0,0,0,0,138,0,138,0,,,,,,,138,,,1,20516.031702287728,X,l,go,l,1,,0.26279494643677026,,,,,,,,,,,,,,,51,001,20,m,Informatik,2023-01-23_14h23.59.266,00_bat_bachelor,2022.2.4,59.95276451128002,
,,,,,,,,,,,,0,0,0,0,139,0,139,0,,,,,,,139,,,1,20517.398574837134,Y,d,go,d,1,,0.28762063139583915,,,,,,,,,,,,,,,51,001,20,m,Informatik,2023-01-23_14h23.59.266,00_bat_bachelor,2022.2.4,59.95276451128002,
,,,,,,,,,,,,0,0,0,0,140,0,140,0,,,,,,,140,,,1,20518.79833076452,X,l,go,l,1,,0.3116981955245137,,,,,,,,,,,,,,,51,001,20,m,Informatik,2023-01-23_14h23.59.266,00_bat_bachelor,2022.2.4,59.95276451128002,
,,,,,,,,,,,,0,0,0,0,141,0,141,0,,,,,,,141,,,1,20520.231668736204,Y,d,go,d,1,,0.25424416281748563,,,,,,,,,,,,,,,51,001,20,m,Informatik,2023-01-23_14h23.59.266,00_bat_bachelor,2022.2.4,59.95276451128002,
,,,,,,,,,,,,0,0,0,0,142,0,142,0,,,,,,,142,,,1,20521.598474861355,X,l,go,l,1,,0.31263395270798355,,,,,,,,,,,,,,,51,001,20,m,Informatik,2023-01-23_14h23.59.266,00_bat_bachelor,2022.2.4,59.95276451128002,
,,,,,,,,,,,,0,0,0,0,143,0,143,0,,,,,,,143,,,1,20523.014922659495,Y,d,go,d,1,,0.27179179061204195,,,,,,,,,,,,,,,51,001,20,m,Informatik,2023-01-23_14h23.59.266,00_bat_bachelor,2022.2.4,59.95276451128002,
,,,,,,,,,,,,0,0,0,0,144,0,144,0,,,,,,,144,,,1,20524.398452655296,Y,None,nogo,None,1,20525.198389722034,,,,,,,,,,,,,,,,51,001,20,m,Informatik,2023-01-23_14h23.59.266,00_bat_bachelor,2022.2.4,59.95276451128002,
,,,,,,,,,,,,0,0,0,0,145,0,145,0,,,,,,,145,,,1,20526.198602570454,X,l,go,l,1,,0.2560633133398369,,,,,,,,,,,,,,,51,001,20,m,Informatik,2023-01-23_14h23.59.266,00_bat_bachelor,2022.2.4,59.95276451128002,
,,,,,,,,,,,,0,0,0,0,146,0,146,0,,,,,,,146,,,1,20527.581831960357,Y,d,go,d,1,,0.264768278808333,,,,,,,,,,,,,,,51,001,20,m,Informatik,2023-01-23_14h23.59.266,00_bat_bachelor,2022.2.4,59.95276451128002,
,,,,,,,,,,,,0,0,0,0,147,0,147,0,,,,,,,147,,,1,20528.948360267445,X,l,go,l,1,,0.35448944743257016,,,,,,,,,,,,,,,51,001,20,m,Informatik,2023-01-23_14h23.59.266,00_bat_bachelor,2022.2.4,59.95276451128002,
,,,,,,,,,,,,0,0,0,0,148,0,148,0,,,,,,,148,,,1,20530.415221132105,Y,d,go,d,1,,0.26455591537524015,,,,,,,,,,,,,,,51,001,20,m,Informatik,2023-01-23_14h23.59.266,00_bat_bachelor,2022.2.4,59.95276451128002,
,,,,,,,,,,,,0,0,0,0,149,0,149,0,,,,,,,149,,,1,20531.781628227094,X,l,go,l,1,,0.30493698664940894,,,,,,,,,,,,,,,51,001,20,m,Informatik,2023-01-23_14h23.59.266,00_bat_bachelor,2022.2.4,59.95276451128002,
,,,,,,,,,,,,0,0,0,0,150,0,150,0,,,,,,,150,,,1,20533.198245237232,Y,d,go,d,1,,0.2636075521586463,,,,,,,,,,,,,,,51,001,20,m,Informatik,2023-01-23_14h23.59.266,00_bat_bachelor,2022.2.4,59.95276451128002,
,,,,,,,,,,,,0,0,0,0,151,0,151,0,,,,,,,151,,,1,20534.581832930096,Y,None,nogo,l,0,,0.28827954013831913,,,,,,,,,,,,,,,51,001,20,m,Informatik,2023-01-23_14h23.59.266,00_bat_bachelor,2022.2.4,59.95276451128002,
,,,,,,,,,,,,0,0,0,0,152,0,152,0,,,,,,,152,,,1,20535.981853584643,X,l,go,l,1,,0.28032899857498705,,,,,,,,,,,,,,,51,001,20,m,Informatik,2023-01-23_14h23.59.266,00_bat_bachelor,2022.2.4,59.95276451128002,
,,,,,,,,,,,,0,0,0,0,153,0,153,0,,,,,,,153,,,1,20537.38180345134,Y,d,go,d,1,,0.32088946376461536,,,,,,,,,,,,,,,51,001,20,m,Informatik,2023-01-23_14h23.59.266,00_bat_bachelor,2022.2.4,59.95276451128002,
,,,,,,,,,,,,0,0,0,0,154,0,154,0,,,,,,,154,,,1,20538.815132695716,X,l,go,l,1,,0.32625624898355454,,,,,,,,,,,,,,,51,001,20,m,Informatik,2023-01-23_14h23.59.266,00_bat_bachelor,2022.2.4,59.95276451128002,
,,,,,,,,,,,,0,0,0,0,155,0,155,0,,,,,,,155,,,1,20540.265099507873,Y,d,go,d,1,,0.2534902236657217,,,,,,,,,,,,,,,51,001,20,m,Informatik,2023-01-23_14h23.59.266,00_bat_bachelor,2022.2.4,59.95276451128002,
,,,,,,,,,,,,0,0,0,0,156,0,156,0,,,,,,,156,,,1,20541.63156963326,X,l,go,l,1,,0.2615319167962298,,,,,,,,,,,,,,,51,001,20,m,Informatik,2023-01-23_14h23.59.266,00_bat_bachelor,2022.2.4,59.95276451128002,
,,,,,,,,,,,,0,0,0,0,157,0,157,0,,,,,,,157,,,1,20543.014968720032,Y,d,go,d,1,,0.23918429121840745,,,,,,,,,,,,,,,51,001,20,m,Informatik,2023-01-23_14h23.59.266,00_bat_bachelor,2022.2.4,59.95276451128002,
,,,,,,,,,,,,0,0,0,0,158,0,158,0,,,,,,,158,,,1,20544.381804420962,Y,None,nogo,l,0,,0.24813943833578378,,,,,,,,,,,,,,,51,001,20,m,Informatik,2023-01-23_14h23.59.266,00_bat_bachelor,2022.2.4,59.95276451128002,
,,,,,,,,,,,,0,0,0,0,159,0,159,0,,,,,,,159,,,1,20545.748723515775,X,l,go,l,1,,0.210550123360008,,,,,,,,,,,,,,,51,001,20,m,Informatik,2023-01-23_14h23.59.266,00_bat_bachelor,2022.2.4,59.95276451128002,
,,,,,,,,,,,,0,0,0,0,160,0,160,0,,,,,,,160,,,1,20547.065108332084,Y,d,go,d,1,,0.20544030761811882,,,,,,,,,,,,,,,51,001,20,m,Informatik,2023-01-23_14h23.59.266,00_bat_bachelor,2022.2.4,59.95276451128002,
,,,,,,,,,,,,0,0,0,0,161,0,161,0,,,,,,,161,,,1,20548.381819936098,X,l,go,l,1,,0.26453846076037735,,,,,,,,,,,,,,,51,001,20,m,Informatik,2023-01-23_14h23.59.266,00_bat_bachelor,2022.2.4,59.95276451128002,
,,,,,,,,,,,,0,0,0,0,162,0,162,0,,,,,,,162,,,1,20549.76516181091,Y,d,go,d,1,,0.2897263274062425,,,,,,,,,,,,,,,51,001,20,m,Informatik,2023-01-23_14h23.59.266,00_bat_bachelor,2022.2.4,59.95276451128002,
,,,,,,,,,,,,0,0,0,0,163,0,163,0,,,,,,,163,,,1,20551.165219798684,X,l,go,l,1,,0.29656996042467654,,,,,,,,,,,,,,,51,001,20,m,Informatik,2023-01-23_14h23.59.266,00_bat_bachelor,2022.2.4,59.95276451128002,
,,,,,,,,,,,,0,0,0,0,164,0,164,0,,,,,,,164,,,1,20552.58179462701,Y,d,go,d,1,,0.2877355405362323,,,,,,,,,,,,,,,51,001,20,m,Informatik,2023-01-23_14h23.59.266,00_bat_bachelor,2022.2.4,59.95276451128002,
,,,,,,,,,,,,0,0,0,0,165,0,165,0,,,,,,,165,,,1,20553.99824921298,X,l,go,l,1,,0.29581796075217426,,,,,,,,,,,,,,,51,001,20,m,Informatik,2023-01-23_14h23.59.266,00_bat_bachelor,2022.2.4,59.95276451128002,
,,,,,,,,,,,,0,0,0,0,166,0,166,0,,,,,,,166,,,1,20555.398453140166,X,None,nogo,None,1,20556.198259782745,,,,,,,,,,,,,,,,51,001,20,m,Informatik,2023-01-23_14h23.59.266,00_bat_bachelor,2022.2.4,59.95276451128002,
,,,,,,,,,,,,0,0,0,0,167,0,167,0,,,,,,,167,,,1,20557.198135176674,Y,d,go,d,1,,0.26421555189881474,,,,,,,,,,,,,,,51,001,20,m,Informatik,2023-01-23_14h23.59.266,00_bat_bachelor,2022.2.4,59.95276451128002,
,,,,,,,,,,,,0,0,0,0,168,0,168,0,,,,,,,168,,,1,20558.565076574567,X,l,go,l,1,,0.27424221369437873,,,,,,,,,,,,,,,51,001,20,m,Informatik,2023-01-23_14h23.59.266,00_bat_bachelor,2022.2.4,59.95276451128002,
,,,,,,,,,,,,0,0,0,0,169,0,169,0,,,,,,,169,,,1,20559.948357843212,X,None,nogo,d,0,,0.2822111794957891,,,,,,,,,,,,,,,51,001,20,m,Informatik,2023-01-23_14h23.59.266,00_bat_bachelor,2022.2.4,59.95276451128002,
,,,,,,,,,,,,0,0,0,0,170,0,170,0,,,,,,,170,,,1,20561.331341415178,Y,d,go,d,1,,0.2589796755928546,,,,,,,,,,,,,,,51,001,20,m,Informatik,2023-01-23_14h23.59.266,00_bat_bachelor,2022.2.4,59.95276451128002,
,,,,,,,,,,,,0,0,0,0,171,0,171,0,,,,,,,171,,,1,20562.697727176943,X,l,go,l,1,,0.28463881462812424,,,,,,,,,,,,,,,51,001,20,m,Informatik,2023-01-23_14h23.59.266,00_bat_bachelor,2022.2.4,59.95276451128002,
,,,,,,,,,,,,0,0,0,0,172,0,172,0,,,,,,,172,,,1,20564.09803292225,Y,d,go,d,1,,0.324545219540596,,,,,,,,,,,,,,,51,001,20,m,Informatik,2023-01-23_14h23.59.266,00_bat_bachelor,2022.2.4,59.95276451128002,
,,,,,,,,,,,,0,0,0,0,173,0,173,0,,,,,,,173,,,1,20565.531250166707,Y,None,nogo,d,0,,0.5546871685655788,,,,,,,,,,,,,,,51,001,20,m,Informatik,2023-01-23_14h23.59.266,00_bat_bachelor,2022.2.4,59.95276451128002,
,,,,,,,,,,,,0,0,0,0,174,0,174,0,,,,,,,174,,,1,20567.198018328287,X,l,go,l,1,,0.2652700967155397,,,,,,,,,,,,,,,51,001,20,m,Informatik,2023-01-23_14h23.59.266,00_bat_bachelor,2022.2.4,59.95276451128002,
,,,,,,,,,,,,0,0,0,0,175,0,175,0,,,,,,,175,,,1,20568.564680453506,Y,d,go,d,1,,0.24301168334204704,,,,,,,,,,,,,,,51,001,20,m,Informatik,2023-01-23_14h23.59.266,00_bat_bachelor,2022.2.4,59.95276451128002,
,,,,,,,,,,,,0,0,0,0,176,0,176,0,,,,,,,176,,,1,20569.91462549602,Y,None,nogo,None,1,20570.714471411193,,,,,,,,,,,,,,,,51,001,20,m,Informatik,2023-01-23_14h23.59.266,00_bat_bachelor,2022.2.4,59.95276451128002,
,,,,,,,,,,,,0,0,0,0,177,0,177,0,,,,,,,177,,,1,20571.714551895973,X,l,go,l,1,,0.2601937355939299,,,,,,,,,,,,,,,51,001,20,m,Informatik,2023-01-23_14h23.59.266,00_bat_bachelor,2022.2.4,59.95276451128002,
,,,,,,,,,,,,0,0,0,0,178,0,178,0,,,,,,,178,,,1,20573.081230990938,Y,d,go,d,1,,0.30113529157824814,,,,,,,,,,,,,,,51,001,20,m,Informatik,2023-01-23_14h23.59.266,00_bat_bachelor,2022.2.4,59.95276451128002,
,,,,,,,,,,,,0,0,0,0,179,0,179,0,,,,,,,179,,,1,20574.497915879823,X,l,go,l,1,,0.3249859466450289,,,,,,,,,,,,,,,51,001,20,m,Informatik,2023-01-23_14h23.59.266,00_bat_bachelor,2022.2.4,59.95276451128002,
,,,,,,,,,,,,0,0,0,0,180,0,180,0,,,,,,,180,,,1,20575.931336275768,X,None,nogo,None,1,20576.731422675657,,,,,,,,,,,,,,,,51,001,20,m,Informatik,2023-01-23_14h23.59.266,00_bat_bachelor,2022.2.4,59.95276451128002,
,,,,,,,,,,,,0,0,0,0,181,0,181,0,,,,,,,181,,,1,20577.73137758486,Y,d,go,d,1,,0.25851858500391245,,,,,,,,,,,,,,,51,001,20,m,Informatik,2023-01-23_14h23.59.266,00_bat_bachelor,2022.2.4,59.95276451128002,
,,,,,,,,,,,,0,0,0,0,182,0,182,0,,,,,,,182,,,1,20579.09791849798,X,l,go,l,1,,0.25270089076366276,,,,,,,,,,,,,,,51,001,20,m,Informatik,2023-01-23_14h23.59.266,00_bat_bachelor,2022.2.4,59.95276451128002,
,,,,,,,,,,,,0,0,0,0,183,0,183,0,,,,,,,183,,,1,20580.464669835288,Y,d,go,d,1,,0.31097334739752114,,,,,,,,,,,,,,,51,001,20,m,Informatik,2023-01-23_14h23.59.266,00_bat_bachelor,2022.2.4,59.95276451128002,
,,,,,,,,,,,,0,0,0,0,184,0,184,0,,,,,,,184,,,1,20581.88128345157,Y,None,nogo,None,1,,,,,,,,,,,,,,,,,51,001,20,m,Informatik,2023-01-23_14h23.59.266,00_bat_bachelor,2022.2.4,59.95276451128002,
,,,,,,,,,,,,0,0,0,0,185,0,185,0,,,,,,,185,,,1,20583.68229251774,X,l,go,l,1,,0.260196644696407,,,,,,,,,,,,,,,51,001,20,m,Informatik,2023-01-23_14h23.59.266,00_bat_bachelor,2022.2.4,59.95276451128002,
,,,,,,,,,,,,0,0,0,0,186,0,186,0,,,,,,,186,,,1,20585.08219341468,Y,d,go,d,1,,0.2675547016551718,,,,,,,,,,,,,,,51,001,20,m,Informatik,2023-01-23_14h23.59.266,00_bat_bachelor,2022.2.4,59.95276451128002,
,,,,,,,,,,,,0,0,0,0,187,0,187,0,,,,,,,187,,,1,20586.498728000675,Y,None,nogo,None,1,20587.299099491327,,,,,,,,,,,,,,,,51,001,20,m,Informatik,2023-01-23_14h23.59.266,00_bat_bachelor,2022.2.4,59.95276451128002,
,,,,,,,,,,,,0,0,0,0,188,0,188,0,,,,,,,188,,,1,20588.298997673206,X,l,go,l,1,,0.23501653573475778,,,,,,,,,,,,,,,51,001,20,m,Informatik,2023-01-23_14h23.59.266,00_bat_bachelor,2022.2.4,59.95276451128002,
,,,,,,,,,,,,0,0,0,0,189,0,189,0,,,,,,,189,,,1,20589.68226972979,Y,d,go,d,1,,0.291832992923446,,,,,,,,,,,,,,,51,001,20,m,Informatik,2023-01-23_14h23.59.266,00_bat_bachelor,2022.2.4,59.95276451128002,
,,,,,,,,,,,,0,0,0,0,190,0,190,0,,,,,,,190,,,1,20591.115082610864,X,l,go,l,1,,0.26668827794492245,,,,,,,,,,,,,,,51,001,20,m,Informatik,2023-01-23_14h23.59.266,00_bat_bachelor,2022.2.4,59.95276451128002,
,,,,,,,,,,,,0,0,0,0,191,0,191,0,,,,,,,191,,,1,20592.481841220986,X,None,nogo,d,0,,0.19714164501056075,,,,,,,,,,,,,,,51,001,20,m,Informatik,2023-01-23_14h23.59.266,00_bat_bachelor,2022.2.4,59.95276451128002,
,,,,,,,,,,,,0,0,0,0,192,0,192,0,,,,,,,192,,,1,20593.781893439125,Y,d,go,d,1,,0.20810309413354844,,,,,,,,,,,,,,,51,001,20,m,Informatik,2023-01-23_14h23.59.266,00_bat_bachelor,2022.2.4,59.95276451128002,
,,,,,,,,,,,,0,0,0,0,193,0,193,0,,,,,,,193,,,1,20595.098236073623,X,l,go,l,1,,0.3164429204771295,,,,,,,,,,,,,,,51,001,20,m,Informatik,2023-01-23_14h23.59.266,00_bat_bachelor,2022.2.4,59.95276451128002,
,,,,,,,,,,,,0,0,0,0,194,0,194,0,,,,,,,194,,,1,20596.51520508353,Y,d,go,d,1,,0.35545865911990404,,,,,,,,,,,,,,,51,001,20,m,Informatik,2023-01-23_14h23.59.266,00_bat_bachelor,2022.2.4,59.95276451128002,
,,,,,,,,,,,,0,0,0,0,195,0,195,0,,,,,,,195,,,1,20597.9817183119,Y,None,nogo,l,0,,0.2645355516579002,,,,,,,,,,,,,,,51,001,20,m,Informatik,2023-01-23_14h23.59.266,00_bat_bachelor,2022.2.4,59.95276451128002,
,,,,,,,,,,,,0,0,0,0,196,0,196,0,,,,,,,196,,,1,20599.34831013414,X,l,go,l,1,,0.48118611332029104,,,,,,,,,,,,,,,51,001,20,m,Informatik,2023-01-23_14h23.59.266,00_bat_bachelor,2022.2.4,59.95276451128002,
,,,,,,,,,,,,0,0,0,0,197,0,197,0,,,,,,,197,,,1,20600.94849650981,Y,d,go,d,1,,0.25764440349303186,,,,,,,,,,,,,,,51,001,20,m,Informatik,2023-01-23_14h23.59.266,00_bat_bachelor,2022.2.4,59.95276451128002,
,,,,,,,,,,,,0,0,0,0,198,0,198,0,,,,,,,198,,,1,20602.33177680883,Y,None,nogo,l,0,,0.25116440665442497,,,,,,,,,,,,,,,51,001,20,m,Informatik,2023-01-23_14h23.59.266,00_bat_bachelor,2022.2.4,59.95276451128002,
,,,,,,,,,,,,0,0,0,0,199,0,199,0,,,,,,,199,,,1,20603.698568873457,X,l,go,l,1,,0.24410889483988285,,,,,,,,,,,,,,,51,001,20,m,Informatik,2023-01-23_14h23.59.266,00_bat_bachelor,2022.2.4,59.95276451128002,
,,,,,,,,,,,,0,0,0,0,200,0,200,0,,,,,,,200,,,1,20605.04825985548,Y,d,go,d,1,,0.31833382858894765,,,,,,,,,,,,,,,51,001,20,m,Informatik,2023-01-23_14h23.59.266,00_bat_bachelor,2022.2.4,59.95276451128002,
,,,,,,,,,,,,0,0,0,0,201,0,201,0,,,,,,,201,,,1,20606.48180437251,Y,None,nogo,d,0,,0.43574952927883714,,,,,,,,,,,,,,,51,001,20,m,Informatik,2023-01-23_14h23.59.266,00_bat_bachelor,2022.2.4,59.95276451128002,
,,,,,,,,,,,,0,0,0,0,202,0,202,0,,,,,,,202,,,1,20608.04833015846,X,l,go,l,1,,0.26315858273301274,,,,,,,,,,,,,,,51,001,20,m,Informatik,2023-01-23_14h23.59.266,00_bat_bachelor,2022.2.4,59.95276451128002,
,,,,,,,,,,,,0,0,0,0,203,0,203,0,,,,,,,203,,,1,20609.415064526023,Y,d,go,d,1,,0.3341166088357568,,,,,,,,,,,,,,,51,001,20,m,Informatik,2023-01-23_14h23.59.266,00_bat_bachelor,2022.2.4,59.95276451128002,
,,,,,,,,,,,,0,0,0,0,204,0,204,0,,,,,,,204,,,1,20610.881729996763,X,l,go,l,1,,0.3722450752975419,,,,,,,,,,,,,,,51,001,20,m,Informatik,2023-01-23_14h23.59.266,00_bat_bachelor,2022.2.4,59.95276451128002,
,,,,,,,,,,,,0,0,0,0,205,0,205,0,,,,,,,205,,,1,20612.38178454223,Y,d,go,d,1,,0.24799107492435724,,,,,,,,,,,,,,,51,001,20,m,Informatik,2023-01-23_14h23.59.266,00_bat_bachelor,2022.2.4,59.95276451128002,
,,,,,,,,,,,,0,0,0,0,206,0,206,0,,,,,,,206,,,1,20613.748399637174,X,l,go,l,1,,0.3214218271896243,,,,,,,,,,,,,,,51,001,20,m,Informatik,2023-01-23_14h23.59.266,00_bat_bachelor,2022.2.4,59.95276451128002,
,,,,,,,,,,,,0,0,0,0,207,0,207,0,,,,,,,207,,,1,20615.181853487622,Y,d,go,d,1,,0.26532973314169794,,,,,,,,,,,,,,,51,001,20,m,Informatik,2023-01-23_14h23.59.266,00_bat_bachelor,2022.2.4,59.95276451128002,
,,,,,,,,,,,,0,0,0,0,208,0,208,0,,,,,,,208,,,1,20616.548155370634,X,l,go,l,1,,0.30503492592833936,,,,,,,,,,,,,,,51,001,20,m,Informatik,2023-01-23_14h23.59.266,00_bat_bachelor,2022.2.4,59.95276451128002,
,,,,,,,,,,,,0,0,0,0,209,0,209,0,,,,,,,209,,,1,20617.981750311912,X,None,nogo,d,0,,0.2157108481042087,,,,,,,,,,,,,,,51,001,20,m,Informatik,2023-01-23_14h23.59.266,00_bat_bachelor,2022.2.4,59.95276451128002,
,,,,,,,,,,,,0,0,0,0,210,0,210,0,,,,,,,210,,,1,20619.314885180676,Y,d,go,d,1,,0.16385729738976806,,,,,,,,,,,,,,,51,001,20,m,Informatik,2023-01-23_14h23.59.266,00_bat_bachelor,2022.2.4,59.95276451128002,
,,,,,,,,,,,,0,0,0,0,211,0,211,0,,,,,,,211,,,1,20620.581028081942,X,l,go,l,1,,0.24217241106089205,,,,,,,,,,,,,,,51,001,20,m,Informatik,2023-01-23_14h23.59.266,00_bat_bachelor,2022.2.4,59.95276451128002,
,,,,,,,,,,,,0,0,0,0,212,0,212,0,,,,,,,212,,,1,20621.931323669734,Y,d,go,d,1,,0.2666165203554556,,,,,,,,,,,,,,,51,001,20,m,Informatik,2023-01-23_14h23.59.266,00_bat_bachelor,2022.2.4,59.95276451128002,
,,,,,,,,,,,,0,0,0,0,213,0,213,0,,,,,,,213,,,1,20623.297722037532,Y,None,nogo,l,0,,0.24480901577044278,,,,,,,,,,,,,,,51,001,20,m,Informatik,2023-01-23_14h23.59.266,00_bat_bachelor,2022.2.4,59.95276451128002,
,,,,,,,,,,,,0,0,0,0,214,0,214,0,,,,,,,214,,,1,20624.64785956475,X,l,go,l,1,,0.3344981843838468,,,,,,,,,,,,,,,51,001,20,m,Informatik,2023-01-23_14h23.59.266,00_bat_bachelor,2022.2.4,59.95276451128002,
,,,,,,,,,,,,0,0,0,0,215,0,215,0,,,,,,,215,,,1,20626.097988316207,Y,d,go,d,1,,0.32505721936468035,,,,,,,,,,,,,,,51,001,20,m,Informatik,2023-01-23_14h23.59.266,00_bat_bachelor,2022.2.4,59.95276451128002,
,,,,,,,,,,,,0,0,0,0,216,0,216,0,,,,,,,216,,,1,20627.531194893993,X,l,go,l,1,,0.4125490557635203,,,,,,,,,,,,,,,51,001,20,m,Informatik,2023-01-23_14h23.59.266,00_bat_bachelor,2022.2.4,59.95276451128002,
,,,,,,,,,,,,0,0,0,0,217,0,217,0,,,,,,,217,,,1,20629.047796825296,Y,d,go,d,1,,0.3348453358048573,,,,,,,,,,,,,,,51,001,20,m,Informatik,2023-01-23_14h23.59.266,00_bat_bachelor,2022.2.4,59.95276451128002,
,,,,,,,,,,,,0,0,0,0,218,0,218,0,,,,,,,218,,,1,20630.497916364693,X,l,go,l,1,,0.29335735586937517,,,,,,,,,,,,,,,51,001,20,m,Informatik,2023-01-23_14h23.59.266,00_bat_bachelor,2022.2.4,59.95276451128002,
,,,,,,,,,,,,0,0,0,0,219,0,219,0,,,,,,,219,,,1,20631.897648049635,Y,d,go,d,1,,0.3172516473568976,,,,,,,,,,,,,,,51,001,20,m,Informatik,2023-01-23_14h23.59.266,00_bat_bachelor,2022.2.4,59.95276451128002,
,,,,,,,,,,,,0,0,0,0,220,0,220,0,,,,,,,220,,,1,20633.33125850605,X,l,go,l,1,,0.3404317572712898,,,,,,,,,,,,,,,51,001,20,m,Informatik,2023-01-23_14h23.59.266,00_bat_bachelor,2022.2.4,59.95276451128002,
,,,,,,,,,,,,0,0,0,0,221,0,221,0,,,,,,,221,,,1,20634.781307257595,Y,d,go,d,1,,0.31376558844931424,,,,,,,,,,,,,,,51,001,20,m,Informatik,2023-01-23_14h23.59.266,00_bat_bachelor,2022.2.4,59.95276451128002,
,,,,,,,,,,,,0,0,0,0,222,0,222,0,,,,,,,222,,,1,20636.197680873913,X,l,go,l,1,,0.33593382011167705,,,,,,,,,,,,,,,51,001,20,m,Informatik,2023-01-23_14h23.59.266,00_bat_bachelor,2022.2.4,59.95276451128002,
,,,,,,,,,,,,0,0,0,0,223,0,223,0,,,,,,,223,,,1,20637.647973988904,Y,d,go,d,1,,0.3114979531383142,,,,,,,,,,,,,,,51,001,20,m,Informatik,2023-01-23_14h23.59.266,00_bat_bachelor,2022.2.4,59.95276451128002,
,,,,,,,,,,,,0,0,0,0,224,0,224,0,,,,,,,224,,,1,20639.064702998963,Y,None,nogo,None,1,20639.864638611092,,,,,,,,,,,,,,,,51,001,20,m,Informatik,2023-01-23_14h23.59.266,00_bat_bachelor,2022.2.4,59.95276451128002,
,,,,,,,,,,,,0,0,0,0,225,0,225,0,,,,,,,225,,,1,20640.86443497485,X,l,go,l,1,,0.2611750684445724,,,,,,,,,,,,,,,51,001,20,m,Informatik,2023-01-23_14h23.59.266,00_bat_bachelor,2022.2.4,59.95276451128002,
,,,,,,,,,,,,0,0,0,0,226,0,226,0,,,,,,,226,,,1,20642.231088857632,Y,d,go,d,1,,0.2241719348821789,,,,,,,,,,,,,,,51,001,20,m,Informatik,2023-01-23_14h23.59.266,00_bat_bachelor,2022.2.4,59.95276451128002,
,,,,,,,,,,,,0,0,0,0,227,0,227,0,,,,,,,227,,,1,20643.564635847462,Y,None,nogo,None,1,20644.36434939911,,,,,,,,,,,,,,,,51,001,20,m,Informatik,2023-01-23_14h23.59.266,00_bat_bachelor,2022.2.4,59.95276451128002,
,,,,,,,,,,,,0,0,0,0,228,0,228,0,,,,,,,228,,,1,20645.364312550635,X,l,go,l,1,,0.25773749442305416,,,,,,,,,,,,,,,51,001,20,m,Informatik,2023-01-23_14h23.59.266,00_bat_bachelor,2022.2.4,59.95276451128002,
,,,,,,,,,,,,0,0,0,0,229,0,229,0,,,,,,,229,,,1,20646.730975160724,Y,d,go,d,1,,0.2992055955110118,,,,,,,,,,,,,,,51,001,20,m,Informatik,2023-01-23_14h23.59.266,00_bat_bachelor,2022.2.4,59.95276451128002,
,,,,,,,,,,,,0,0,0,0,230,0,230,0,,,,,,,230,,,1,20648.130948784994,X,l,go,l,1,,0.3076230459846556,,,,,,,,,,,,,,,51,001,20,m,Informatik,2023-01-23_14h23.59.266,00_bat_bachelor,2022.2.4,59.95276451128002,
,,,,,,,,,,,,0,0,0,0,231,0,231,0,,,,,,,231,,,1,20649.547843613196,Y,d,go,d,1,,0.2499319224152714,,,,,,,,,,,,,,,51,001,20,m,Informatik,2023-01-23_14h23.59.266,00_bat_bachelor,2022.2.4,59.95276451128002,
,,,,,,,,,,,,0,0,0,0,232,0,232,0,,,,,,,232,,,1,20650.897832776885,X,l,go,l,1,,0.32591491588391364,,,,,,,,,,,,,,,51,001,20,m,Informatik,2023-01-23_14h23.59.266,00_bat_bachelor,2022.2.4,59.95276451128002,
,,,,,,,,,,,,0,0,0,0,233,0,233,0,,,,,,,233,,,1,20652.331299233367,Y,d,go,d,1,,0.3481936929747462,,,,,,,,,,,,,,,51,001,20,m,Informatik,2023-01-23_14h23.59.266,00_bat_bachelor,2022.2.4,59.95276451128002,
,,,,,,,,,,,,0,0,0,0,234,0,234,0,,,,,,,234,,,1,20653.78125198488,Y,None,nogo,None,1,20654.580953415367,,,,,,,,,,,,,,,,51,001,20,m,Informatik,2023-01-23_14h23.59.266,00_bat_bachelor,2022.2.4,59.95276451128002,
,,,,,,,,,,,,0,0,0,0,235,0,235,0,,,,,,,235,,,1,20655.58114686981,X,l,go,l,1,,0.2981495959684253,,,,,,,,,,,,,,,51,001,20,m,Informatik,2023-01-23_14h23.59.266,00_bat_bachelor,2022.2.4,59.95276451128002,
,,,,,,,,,,,,0,0,0,0,236,0,236,0,,,,,,,236,,,1,20656.981244615163,Y,d,go,d,1,,0.2576104641193524,,,,,,,,,,,,,,,51,001,20,m,Informatik,2023-01-23_14h23.59.266,00_bat_bachelor,2022.2.4,59.95276451128002,
,,,,,,,,,,,,0,0,0,0,237,0,237,0,,,,,,,237,,,1,20658.34795522527,X,l,go,l,1,,0.29830814129672945,,,,,,,,,,,,,,,51,001,20,m,Informatik,2023-01-23_14h23.59.266,00_bat_bachelor,2022.2.4,59.95276451128002,
,,,,,,,,,,,,0,0,0,0,238,0,238,0,,,,,,,238,,,1,20659.747680122382,Y,d,go,d,1,,0.2590237967669964,,,,,,,,,,,,,,,51,001,20,m,Informatik,2023-01-23_14h23.59.266,00_bat_bachelor,2022.2.4,59.95276451128002,
,,,,,,,,,,,,0,0,0,0,239,0,239,0,,,,,,,239,,,1,20661.114495944465,X,l,go,l,1,,0.25162501248996705,,,,,,,,,,,,,,,51,001,20,m,Informatik,2023-01-23_14h23.59.266,00_bat_bachelor,2022.2.4,59.95276451128002,
,,,,,,,,,,,,0,0,0,0,240,0,240,0,,,,,,,240,,,1,20662.481013585,X,None,nogo,None,1,20663.28113295464,,,,,,,,,,,,,,,,51,001,20,m,Informatik,2023-01-23_14h23.59.266,00_bat_bachelor,2022.2.4,59.95276451128002,
,,,,,,,,,,,,0,0,0,0,241,0,241,0,,,,,,,241,,,1,20664.281149924267,Y,d,go,d,1,,0.2540502235060558,,,,,,,,,,,,,,,51,001,20,m,Informatik,2023-01-23_14h23.59.266,00_bat_bachelor,2022.2.4,59.95276451128002,
,,,,,,,,,,,,0,0,0,0,242,0,242,0,,,,,,,242,,,1,20665.64791968593,X,l,go,l,1,,0.27976366551592946,,,,,,,,,,,,,,,51,001,20,m,Informatik,2023-01-23_14h23.59.266,00_bat_bachelor,2022.2.4,59.95276451128002,
,,,,,,,,,,,,0,0,0,0,243,0,243,0,,,,,,,243,,,1,20667.03119804547,X,None,nogo,None,1,20667.83127765765,,,,,,,,,,,,,,,,51,001,20,m,Informatik,2023-01-23_14h23.59.266,00_bat_bachelor,2022.2.4,59.95276451128002,
,,,,,,,,,,,,0,0,0,0,244,0,244,0,,,,,,,244,,,1,20668.831100203097,Y,d,go,d,1,,0.2967823239741847,,,,,,,,,,,,,,,51,001,20,m,Informatik,2023-01-23_14h23.59.266,00_bat_bachelor,2022.2.4,59.95276451128002,
,,,,,,,,,,,,0,0,0,0,245,0,245,0,,,,,,,245,,,1,20670.231405948405,X,l,go,l,1,,0.319865464232862,,,,,,,,,,,,,,,51,001,20,m,Informatik,2023-01-23_14h23.59.266,00_bat_bachelor,2022.2.4,59.95276451128002,
,,,,,,,,,,,,0,0,0,0,246,0,246,0,,,,,,,246,,,1,20671.664616405033,Y,d,go,d,1,,0.31139128655195236,,,,,,,,,,,,,,,51,001,20,m,Informatik,2023-01-23_14h23.59.266,00_bat_bachelor,2022.2.4,59.95276451128002,
,,,,,,,,,,,,0,0,0,0,247,0,247,0,,,,,,,247,,,1,20673.08094880928,X,l,go,l,1,,0.2532890116563067,,,,,,,,,,,,,,,51,001,20,m,Informatik,2023-01-23_14h23.59.266,00_bat_bachelor,2022.2.4,59.95276451128002,
,,,,,,,,,,,,0,0,0,0,248,0,248,0,,,,,,,248,,,1,20674.447900873725,Y,d,go,d,1,,0.2631915523670614,,,,,,,,,,,,,,,51,001,20,m,Informatik,2023-01-23_14h23.59.266,00_bat_bachelor,2022.2.4,59.95276451128002,
,,,,,,,,,,,,0,0,0,0,249,0,249,0,,,,,,,249,,,1,20675.831696566427,X,l,go,l,1,,0.25455688987858593,,,,,,,,,,,,,,,51,001,20,m,Informatik,2023-01-23_14h23.59.266,00_bat_bachelor,2022.2.4,59.95276451128002,
,,,,,,,,,,,,1,0,1,0,0,0,0,0,,,,,,,0,,,0.2,20684.631837754278,X,l,go,l,1,,0.4940200464334339,,,,,,,,20676.21563383483,space,8.194059949484654,,,,,51,001,20,m,Informatik,2023-01-23_14h23.59.266,00_bat_bachelor,2022.2.4,59.95276451128002,
,,,,,,,,,,,,1,0,1,0,1,0,1,0,,,,,,,1,,,0.2,20685.448538449244,Y,d,go,d,1,,0.42923462332692,,,,,,,,,,,,,,,51,001,20,m,Informatik,2023-01-23_14h23.59.266,00_bat_bachelor,2022.2.4,59.95276451128002,
,,,,,,,,,,,,1,0,1,0,2,0,2,0,,,,,,,2,,,0.2,20686.198331540218,X,l,go,l,1,,0.43159971316345036,,,,,,,,,,,,,,,51,001,20,m,Informatik,2023-01-23_14h23.59.266,00_bat_bachelor,2022.2.4,59.95276451128002,
,,,,,,,,,,,,1,0,1,0,3,0,3,0,,,,,,,3,,,0.2,20686.94797190407,X,None,nogo,l,0,,0.4825795671204105,,,,,,,,,,,,,,,51,001,20,m,Informatik,2023-01-23_14h23.59.266,00_bat_bachelor,2022.2.4,59.95276451128002,
,,,,,,,,,,,,1,0,1,0,4,0,4,0,,,,,,,4,,,0.2,20687.73134849395,Y,d,go,d,1,,0.6283162237377837,,,,,,,,,,,,,,,51,001,20,m,Informatik,2023-01-23_14h23.59.266,00_bat_bachelor,2022.2.4,59.95276451128002,
,,,,,,,,,,,,1,0,1,0,5,0,5,0,,,,,,,5,,,0.2,20688.664429738536,X,l,go,l,1,,0.34958375280257314,,,,,,,,,,,,,,,51,001,20,m,Informatik,2023-01-23_14h23.59.266,00_bat_bachelor,2022.2.4,59.95276451128002,
,,,,,,,,,,,,1,0,1,0,6,0,6,0,,,,,,,6,,,0.2,20689.31429172645,Y,d,go,d,1,,0.4039381507318467,,,,,,,,,,,,,,,51,001,20,m,Informatik,2023-01-23_14h23.59.266,00_bat_bachelor,2022.2.4,59.95276451128002,
,,,,,,,,,,,,1,0,1,0,7,0,7,0,,,,,,,7,,,0.2,20690.03091731842,Y,None,nogo,d,0,,0.5036573752295226,,,,,,,,,,,,,,,51,001,20,m,Informatik,2023-01-23_14h23.59.266,00_bat_bachelor,2022.2.4,59.95276451128002,
,,,,,,,,,,,,1,0,1,0,8,0,8,0,,,,,,,8,,,0.2,20690.84798261919,X,l,go,l,1,,0.40748336107935756,,,,,,,,,,,,,,,51,001,20,m,Informatik,2023-01-23_14h23.59.266,00_bat_bachelor,2022.2.4,59.95276451128002,
,,,,,,,,,,,,1,0,1,0,9,0,9,0,,,,,,,9,,,0.2,20691.56429742335,Y,d,go,d,1,,0.33180339785758406,,,,,,,,,,,,,,,51,001,20,m,Informatik,2023-01-23_14h23.59.266,00_bat_bachelor,2022.2.4,59.95276451128002,
,,,,,,,,,,,,1,0,1,0,10,0,10,0,,,,,,,10,,,0.2,20692.197876752587,X,l,go,l,1,,0.3525098121026531,,,,,,,,,,,,,,,51,001,20,m,Informatik,2023-01-23_14h23.59.266,00_bat_bachelor,2022.2.4,59.95276451128002,
,,,,,,,,,,,,1,0,1,0,11,0,11,0,,,,,,,11,,,0.2,20692.8647990959,Y,d,go,None,0,20693.664329859777,,,,,,,,,,,,,,,,51,001,20,m,Informatik,2023-01-23_14h23.59.266,00_bat_bachelor,2022.2.4,59.95276451128002,
,,,,,,,,,,,,1,0,1,0,12,0,12,0,,,,,,,12,,,0.2,20693.864479096024,Y,None,nogo,d,0,,0.07845321763306856,,,,,,,,,,,,,,,51,001,20,m,Informatik,2023-01-23_14h23.59.266,00_bat_bachelor,2022.2.4,59.95276451128002,
,,,,,,,,,,,,1,0,1,0,13,0,13,0,,,,,,,13,,,0.2,20694.247704122332,X,l,go,l,1,,0.44677643303293735,,,,,,,,,,,,,,,51,001,20,m,Informatik,2023-01-23_14h23.59.266,00_bat_bachelor,2022.2.4,59.95276451128002,
,,,,,,,,,,,,1,0,1,0,14,0,14,0,,,,,,,14,,,0.2,20694.997943758615,Y,d,go,d,1,,0.33665721374563873,,,,,,,,,,,,,,,51,001,20,m,Informatik,2023-01-23_14h23.59.266,00_bat_bachelor,2022.2.4,59.95276451128002,
,,,,,,,,,,,,1,0,1,0,15,0,15,0,,,,,,,15,,,0.2,20695.6476472012,X,l,go,l,1,,0.3270063092932105,,,,,,,,,,,,,,,51,001,20,m,Informatik,2023-01-23_14h23.59.266,00_bat_bachelor,2022.2.4,59.95276451128002,
,,,,,,,,,,,,1,0,1,0,16,0,16,0,,,,,,,16,,,0.2,20696.281209560693,Y,d,go,d,1,,0.3170276473974809,,,,,,,,,,,,,,,51,001,20,m,Informatik,2023-01-23_14h23.59.266,00_bat_bachelor,2022.2.4,59.95276451128002,
,,,,,,,,,,,,1,0,1,0,17,0,17,0,,,,,,,17,,,0.2,20696.8979360495,X,l,go,l,1,,0.45290636946447194,,,,,,,,,,,,,,,51,001,20,m,Informatik,2023-01-23_14h23.59.266,00_bat_bachelor,2022.2.4,59.95276451128002,
,,,,,,,,,,,,1,0,1,0,18,0,18,0,,,,,,,18,,,0.2,20697.66428185976,X,None,nogo,None,1,20698.464304744615,,,,,,,,,,,,,,,,51,001,20,m,Informatik,2023-01-23_14h23.59.266,00_bat_bachelor,2022.2.4,59.95276451128002,
,,,,,,,,,,,,1,0,1,0,19,0,19,0,,,,,,,19,,,0.2,20698.66460282926,Y,d,go,d,1,,0.43048262281809,,,,,,,,,,,,,,,51,001,20,m,Informatik,2023-01-23_14h23.59.266,00_bat_bachelor,2022.2.4,59.95276451128002,
,,,,,,,,,,,,1,0,1,0,20,0,20,0,,,,,,,20,,,0.2,20699.3978718071,X,l,go,l,1,,0.36798568337690085,,,,,,,,,,,,,,,51,001,20,m,Informatik,2023-01-23_14h23.59.266,00_bat_bachelor,2022.2.4,59.95276451128002,
,,,,,,,,,,,,1,0,1,0,21,0,21,0,,,,,,,21,,,0.2,20700.08126250608,X,None,nogo,l,0,,0.5340573603753,,,,,,,,,,,,,,,51,001,20,m,Informatik,2023-01-23_14h23.59.266,00_bat_bachelor,2022.2.4,59.95276451128002,
,,,,,,,,,,,,1,0,1,0,22,0,22,0,,,,,,,22,,,0.2,20700.931293609086,Y,d,go,d,1,,0.32437843177467585,,,,,,,,,,,,,,,51,001,20,m,Informatik,2023-01-23_14h23.59.266,00_bat_bachelor,2022.2.4,59.95276451128002,
,,,,,,,,,,,,1,0,1,0,23,0,23,0,,,,,,,23,,,0.2,20701.56454178691,X,l,go,l,1,,0.29793771728873253,,,,,,,,,,,,,,,51,001,20,m,Informatik,2023-01-23_14h23.59.266,00_bat_bachelor,2022.2.4,59.95276451128002,
,,,,,,,,,,,,1,0,1,0,24,0,24,0,,,,,,,24,,,0.2,20702.16428695072,X,None,nogo,None,1,20702.96459589596,,,,,,,,,,,,,,,,51,001,20,m,Informatik,2023-01-23_14h23.59.266,00_bat_bachelor,2022.2.4,59.95276451128002,
,,,,,,,,,,,,1,0,1,0,25,0,25,0,,,,,,,25,,,0.2,20703.164423193084,Y,d,go,d,1,,0.4105306323617697,,,,,,,,,,,,,,,51,001,20,m,Informatik,2023-01-23_14h23.59.266,00_bat_bachelor,2022.2.4,59.95276451128002,
,,,,,,,,,,,,1,0,1,0,26,0,26,0,,,,,,,26,,,0.2,20703.88127326977,X,l,go,None,0,20704.68121809396,,,,,,,,,,,,,,,,51,001,20,m,Informatik,2023-01-23_14h23.59.266,00_bat_bachelor,2022.2.4,59.95276451128002,
,,,,,,,,,,,,1,0,1,0,27,0,27,0,,,,,,,27,,,0.2,20704.88087811845,X,None,nogo,None,1,20705.680901972926,,,,,,,,,,,,,,,,51,001,20,m,Informatik,2023-01-23_14h23.59.266,00_bat_bachelor,2022.2.4,59.95276451128002,
,,,,,,,,,,,,1,0,1,0,28,0,28,0,,,,,,,28,,,0.2,20705.881094845594,Y,d,go,d,1,,0.3971483359346166,,,,,,,,,,,,,,,51,001,20,m,Informatik,2023-01-23_14h23.59.266,00_bat_bachelor,2022.2.4,59.95276451128002,
,,,,,,,,,,,,1,0,1,0,29,0,29,0,,,,,,,29,,,0.2,20706.5810974153,X,l,go,l,1,,0.6264844670658931,,,,,,,,,,,,,,,51,001,20,m,Informatik,2023-01-23_14h23.59.266,00_bat_bachelor,2022.2.4,59.95276451128002,
,,,,,,,,,,,,1,0,1,0,30,0,30,0,,,,,,,30,,,0.2,20707.51447684155,X,None,nogo,l,0,,0.5714120089542121,,,,,,,,,,,,,,,51,001,20,m,Informatik,2023-01-23_14h23.59.266,00_bat_bachelor,2022.2.4,59.95276451128002,
,,,,,,,,,,,,1,0,1,0,31,0,31,0,,,,,,,31,,,0.2,20708.415694343974,Y,d,go,d,1,,0.3426824228372425,,,,,,,,,,,,,,,51,001,20,m,Informatik,2023-01-23_14h23.59.266,00_bat_bachelor,2022.2.4,59.95276451128002,
,,,,,,,,,,,,1,0,1,0,32,0,32,0,,,,,,,32,,,0.2,20709.098920679302,X,l,go,l,1,,0.3158649812685326,,,,,,,,,,,,,,,51,001,20,m,Informatik,2023-01-23_14h23.59.266,00_bat_bachelor,2022.2.4,59.95276451128002,
,,,,,,,,,,,,1,0,1,0,33,0,33,0,,,,,,,33,,,0.2,20709.748579515843,Y,d,go,d,1,,0.32102910010144114,,,,,,,,,,,,,,,51,001,20,m,Informatik,2023-01-23_14h23.59.266,00_bat_bachelor,2022.2.4,59.95276451128002,
,,,,,,,,,,,,1,0,1,0,34,0,34,0,,,,,,,34,,,0.2,20710.415280283545,Y,None,nogo,None,1,20711.215589228785,,,,,,,,,,,,,,,,51,001,20,m,Informatik,2023-01-23_14h23.59.266,00_bat_bachelor,2022.2.4,59.95276451128002,
,,,,,,,,,,,,1,0,1,0,35,0,35,0,,,,,,,35,,,0.2,20711.415369010763,X,l,go,l,1,,0.26982282183598727,,,,,,,,,,,,,,,51,001,20,m,Informatik,2023-01-23_14h23.59.266,00_bat_bachelor,2022.2.4,59.95276451128002,
,,,,,,,,,,,,1,0,1,0,36,0,36,0,,,,,,,36,,,0.2,20712.031999014784,Y,d,go,d,1,,0.38976749090943485,,,,,,,,,,,,,,,51,001,20,m,Informatik,2023-01-23_14h23.59.266,00_bat_bachelor,2022.2.4,59.95276451128002,
,,,,,,,,,,,,1,0,1,0,37,0,37,0,,,,,,,37,,,0.2,20712.765662174206,X,l,go,l,1,,0.297350081265904,,,,,,,,,,,,,,,51,001,20,m,Informatik,2023-01-23_14h23.59.266,00_bat_bachelor,2022.2.4,59.95276451128002,
,,,,,,,,,,,,1,0,1,0,38,0,38,0,,,,,,,38,,,0.2,20713.398574352264,Y,d,go,d,1,,0.2712376090930775,,,,,,,,,,,,,,,51,001,20,m,Informatik,2023-01-23_14h23.59.266,00_bat_bachelor,2022.2.4,59.95276451128002,
,,,,,,,,,,,,1,0,1,0,39,0,39,0,,,,,,,39,,,0.2,20714.015540841036,X,l,go,l,1,,0.2633054916514084,,,,,,,,,,,,,,,51,001,20,m,Informatik,2023-01-23_14h23.59.266,00_bat_bachelor,2022.2.4,59.95276451128002,
,,,,,,,,,,,,1,0,1,0,40,0,40,0,,,,,,,40,,,0.2,20714.615445034928,Y,d,go,d,1,,0.2867556620622054,,,,,,,,,,,,,,,51,001,20,m,Informatik,2023-01-23_14h23.59.266,00_bat_bachelor,2022.2.4,59.95276451128002,
,,,,,,,,,,,,1,0,1,0,41,0,41,0,,,,,,,41,,,0.2,20715.248819758184,X,l,go,l,1,,0.24587374250404537,,,,,,,,,,,,,,,51,001,20,m,Informatik,2023-01-23_14h23.59.266,00_bat_bachelor,2022.2.4,59.95276451128002,
,,,,,,,,,,,,1,0,1,0,42,0,42,0,,,,,,,42,,,0.2,20715.832099475432,Y,d,go,d,1,,0.27121579088270664,,,,,,,,,,,,,,,51,001,20,m,Informatik,2023-01-23_14h23.59.266,00_bat_bachelor,2022.2.4,59.95276451128002,
,,,,,,,,,,,,1,0,1,0,43,0,43,0,,,,,,,43,,,0.2,20716.41502040485,Y,None,nogo,l,0,,0.2790388173889369,,,,,,,,,,,,,,,51,001,20,m,Informatik,2023-01-23_14h23.59.266,00_bat_bachelor,2022.2.4,59.95276451128002,
,,,,,,,,,,,,1,0,1,0,44,0,44,0,,,,,,,44,,,0.2,20717.01480484137,Y,None,nogo,None,1,20717.814848574693,,,,,,,,,,,,,,,,51,001,20,m,Informatik,2023-01-23_14h23.59.266,00_bat_bachelor,2022.2.4,59.95276451128002,
,,,,,,,,,,,,1,0,1,0,45,0,45,0,,,,,,,45,,,0.2,20718.014854780748,X,l,go,l,1,,0.3918363384436816,,,,,,,,,,,,,,,51,001,20,m,Informatik,2023-01-23_14h23.59.266,00_bat_bachelor,2022.2.4,59.95276451128002,
,,,,,,,,,,,,1,0,1,0,46,0,46,0,,,,,,,46,,,0.2,20718.715071653365,Y,d,go,d,1,,0.2998766254168004,,,,,,,,,,,,,,,51,001,20,m,Informatik,2023-01-23_14h23.59.266,00_bat_bachelor,2022.2.4,59.95276451128002,
,,,,,,,,,,,,1,0,1,0,47,0,47,0,,,,,,,47,,,0.2,20719.315006877645,Y,None,nogo,None,1,20720.115259580547,,,,,,,,,,,,,,,,51,001,20,m,Informatik,2023-01-23_14h23.59.266,00_bat_bachelor,2022.2.4,59.95276451128002,
,,,,,,,,,,,,1,0,1,0,48,0,48,0,,,,,,,48,,,0.2,20720.315006392775,X,l,go,l,1,,0.2669500958872959,,,,,,,,,,,,,,,51,001,20,m,Informatik,2023-01-23_14h23.59.266,00_bat_bachelor,2022.2.4,59.95276451128002,
,,,,,,,,,,,,1,0,1,0,49,0,49,0,,,,,,,49,,,0.2,20720.8983738675,Y,d,go,d,1,,0.6434783982113004,,,,,,,,,,,,,,,51,001,20,m,Informatik,2023-01-23_14h23.59.266,00_bat_bachelor,2022.2.4,59.95276451128002,
,,,,,,,,,,,,1,0,1,0,50,0,50,0,,,,,,,50,,,0.2,20721.865035217023,Y,None,nogo,None,1,20722.664874344366,,,,,,,,,,,,,,,,51,001,20,m,Informatik,2023-01-23_14h23.59.266,00_bat_bachelor,2022.2.4,59.95276451128002,
,,,,,,,,,,,,1,0,1,0,51,0,51,0,,,,,,,51,,,0.2,20722.864997398807,X,l,go,l,1,,0.4370479529025033,,,,,,,,,,,,,,,51,001,20,m,Informatik,2023-01-23_14h23.59.266,00_bat_bachelor,2022.2.4,59.95276451128002,
,,,,,,,,,,,,1,0,1,0,52,0,52,0,,,,,,,52,,,0.2,20723.615007217042,Y,d,go,d,1,,0.3594639905495569,,,,,,,,,,,,,,,51,001,20,m,Informatik,2023-01-23_14h23.59.266,00_bat_bachelor,2022.2.4,59.95276451128002,
,,,,,,,,,,,,1,0,1,0,53,0,53,0,,,,,,,53,,,0.2,20724.28143792413,X,l,go,l,1,,0.3322770945960656,,,,,,,,,,,,,,,51,001,20,m,Informatik,2023-01-23_14h23.59.266,00_bat_bachelor,2022.2.4,59.95276451128002,
,,,,,,,,,,,,1,0,1,0,54,0,54,0,,,,,,,54,,,0.2,20724.91498573823,Y,d,go,d,1,,0.33920557610690594,,,,,,,,,,,,,,,51,001,20,m,Informatik,2023-01-23_14h23.59.266,00_bat_bachelor,2022.2.4,59.95276451128002,
,,,,,,,,,,,,1,0,1,0,55,0,55,0,,,,,,,55,,,0.2,20725.56486663525,X,l,go,l,1,,0.3452269065892324,,,,,,,,,,,,,,,51,001,20,m,Informatik,2023-01-23_14h23.59.266,00_bat_bachelor,2022.2.4,59.95276451128002,
,,,,,,,,,,,,1,0,1,0,56,0,56,0,,,,,,,56,,,0.2,20726.231762311887,Y,d,go,d,1,,0.31834304064977914,,,,,,,,,,,,,,,51,001,20,m,Informatik,2023-01-23_14h23.59.266,00_bat_bachelor,2022.2.4,59.95276451128002,
,,,,,,,,,,,,1,0,1,0,57,0,57,0,,,,,,,57,,,0.2,20726.88166696648,X,l,go,l,1,,0.34062084811739624,,,,,,,,,,,,,,,51,001,20,m,Informatik,2023-01-23_14h23.59.266,00_bat_bachelor,2022.2.4,59.95276451128002,
,,,,,,,,,,,,1,0,1,0,58,0,58,0,,,,,,,58,,,0.2,20727.531649681623,Y,d,go,d,1,,0.330524368211627,,,,,,,,,,,,,,,51,001,20,m,Informatik,2023-01-23_14h23.59.266,00_bat_bachelor,2022.2.4,59.95276451128002,
,,,,,,,,,,,,1,0,1,0,59,0,59,0,,,,,,,59,,,0.2,20728.16517470777,Y,None,nogo,l,0,,0.3054901984287426,,,,,,,,,,,,,,,51,001,20,m,Informatik,2023-01-23_14h23.59.266,00_bat_bachelor,2022.2.4,59.95276451128002,
,,,,,,,,,,,,1,0,1,0,60,0,60,0,,,,,,,60,,,0.2,20728.781646651332,X,l,go,l,1,,0.601060479413718,,,,,,,,,,,,,,,51,001,20,m,Informatik,2023-01-23_14h23.59.266,00_bat_bachelor,2022.2.4,59.95276451128002,
,,,,,,,,,,,,1,0,1,0,61,0,61,0,,,,,,,61,,,0.2,20729.698100994923,Y,d,go,d,1,,0.35666447679977864,,,,,,,,,,,,,,,51,001,20,m,Informatik,2023-01-23_14h23.59.266,00_bat_bachelor,2022.2.4,59.95276451128002,
,,,,,,,,,,,,1,0,1,0,62,0,62,0,,,,,,,62,,,0.2,20730.365013156435,X,l,go,l,1,,0.2813457252923399,,,,,,,,,,,,,,,51,001,20,m,Informatik,2023-01-23_14h23.59.266,00_bat_bachelor,2022.2.4,59.95276451128002,
,,,,,,,,,,,,1,0,1,0,63,0,63,0,,,,,,,63,,,0.2,20730.9481435403,Y,d,go,d,1,,0.33791442518122494,,,,,,,,,,,,,,,51,001,20,m,Informatik,2023-01-23_14h23.59.266,00_bat_bachelor,2022.2.4,59.95276451128002,
,,,,,,,,,,,,1,0,1,0,64,0,64,0,,,,,,,64,,,0.2,20731.598390982603,X,l,go,l,1,,0.3132429219549522,,,,,,,,,,,,,,,51,001,20,m,Informatik,2023-01-23_14h23.59.266,00_bat_bachelor,2022.2.4,59.95276451128002,
,,,,,,,,,,,,1,0,1,0,65,0,65,0,,,,,,,65,,,0.2,20732.21484013833,X,None,nogo,None,1,20733.015011871583,,,,,,,,,,,,,,,,51,001,20,m,Informatik,2023-01-23_14h23.59.266,00_bat_bachelor,2022.2.4,59.95276451128002,
,,,,,,,,,,,,1,0,1,0,66,0,66,0,,,,,,,66,,,0.2,20733.21486680489,Y,d,go,d,1,,0.2789190598996356,,,,,,,,,,,,,,,51,001,20,m,Informatik,2023-01-23_14h23.59.266,00_bat_bachelor,2022.2.4,59.95276451128002,
,,,,,,,,,,,,1,0,1,0,67,0,67,0,,,,,,,67,,,0.2,20733.81473221106,X,l,go,l,1,,0.40037597075570375,,,,,,,,,,,,,,,51,001,20,m,Informatik,2023-01-23_14h23.59.266,00_bat_bachelor,2022.2.4,59.95276451128002,
,,,,,,,,,,,,1,0,1,0,68,0,68,0,,,,,,,68,,,0.2,20734.531479499885,X,None,nogo,None,1,20735.331387960585,,,,,,,,,,,,,,,,51,001,20,m,Informatik,2023-01-23_14h23.59.266,00_bat_bachelor,2022.2.4,59.95276451128002,
,,,,,,,,,,,,1,0,1,0,69,0,69,0,,,,,,,69,,,0.2,20735.53162737866,X,None,nogo,None,1,20736.331388930324,,,,,,,,,,,,,,,,51,001,20,m,Informatik,2023-01-23_14h23.59.266,00_bat_bachelor,2022.2.4,59.95276451128002,
,,,,,,,,,,,,1,0,1,0,70,0,70,0,,,,,,,70,,,0.2,20736.531406772672,Y,d,go,d,1,,0.37084580317605287,,,,,,,,,,,,,,,51,001,20,m,Informatik,2023-01-23_14h23.59.266,00_bat_bachelor,2022.2.4,59.95276451128002,
,,,,,,,,,,,,1,0,1,0,71,0,71,0,,,,,,,71,,,0.2,20737.21429274464,X,l,go,l,1,,0.3124249830143526,,,,,,,,,,,,,,,51,001,20,m,Informatik,2023-01-23_14h23.59.266,00_bat_bachelor,2022.2.4,59.95276451128002,
,,,,,,,,,,,,1,0,1,0,72,0,72,0,,,,,,,72,,,0.2,20737.831250990974,Y,d,go,d,1,,0.3994033650960773,,,,,,,,,,,,,,,51,001,20,m,Informatik,2023-01-23_14h23.59.266,00_bat_bachelor,2022.2.4,59.95276451128002,
,,,,,,,,,,,,1,0,1,0,73,0,73,0,,,,,,,73,,,0.2,20738.530971863773,Y,None,nogo,None,1,,,,,,,,,,,,,,,,,51,001,20,m,Informatik,2023-01-23_14h23.59.266,00_bat_bachelor,2022.2.4,59.95276451128002,
,,,,,,,,,,,,1,0,1,0,74,0,74,0,,,,,,,74,,,0.2,20739.53187125735,Y,None,nogo,None,1,20740.331591596827,,,,,,,,,,,,,,,,51,001,20,m,Informatik,2023-01-23_14h23.59.266,00_bat_bachelor,2022.2.4,59.95276451128002,
,,,,,,,,,,,,1,0,1,0,75,0,75,0,,,,,,,75,,,0.2,20740.531399499974,X,l,go,l,1,,0.5957087244605646,,,,,,,,,,,,,,,51,001,20,m,Informatik,2023-01-23_14h23.59.266,00_bat_bachelor,2022.2.4,59.95276451128002,
,,,,,,,,,,,,1,0,1,0,76,0,76,0,,,,,,,76,,,0.2,20741.43173797254,Y,d,go,d,1,,0.2862494805594906,,,,,,,,,,,,,,,51,001,20,m,Informatik,2023-01-23_14h23.59.266,00_bat_bachelor,2022.2.4,59.95276451128002,
,,,,,,,,,,,,1,0,1,0,77,0,77,0,,,,,,,77,,,0.2,20742.03172119672,X,l,go,l,1,,0.34263975627254695,,,,,,,,,,,,,,,51,001,20,m,Informatik,2023-01-23_14h23.59.266,00_bat_bachelor,2022.2.4,59.95276451128002,
,,,,,,,,,,,,1,0,1,0,78,0,78,0,,,,,,,78,,,0.2,20742.68160451809,X,None,nogo,None,1,20743.4817927361,,,,,,,,,,,,,,,,51,001,20,m,Informatik,2023-01-23_14h23.59.266,00_bat_bachelor,2022.2.4,59.95276451128002,
,,,,,,,,,,,,1,0,1,0,79,0,79,0,,,,,,,79,,,0.2,20743.68159239681,Y,d,go,d,1,,0.3574542944552377,,,,,,,,,,,,,,,51,001,20,m,Informatik,2023-01-23_14h23.59.266,00_bat_bachelor,2022.2.4,59.95276451128002,
,,,,,,,,,,,,1,0,1,0,80,0,80,0,,,,,,,80,,,0.2,20744.34830043721,X,l,go,l,1,,0.5375991768669337,,,,,,,,,,,,,,,51,001,20,m,Informatik,2023-01-23_14h23.59.266,00_bat_bachelor,2022.2.4,59.95276451128002,
,,,,,,,,,,,,1,0,1,0,81,0,81,0,,,,,,,81,,,0.2,20745.19805178279,Y,d,go,None,0,20745.99843684933,,,,,,,,,,,,,,,,51,001,20,m,Informatik,2023-01-23_14h23.59.266,00_bat_bachelor,2022.2.4,59.95276451128002,
,,,,,,,,,,,,1,0,1,0,82,0,82,0,,,,,,,82,,,0.2,20746.19807214639,X,l,go,l,1,,0.2568957977928221,,,,,,,,,,,,,,,51,001,20,m,Informatik,2023-01-23_14h23.59.266,00_bat_bachelor,2022.2.4,59.95276451128002,
,,,,,,,,,,,,1,0,1,0,83,0,83,0,,,,,,,83,,,0.2,20746.764792356524,Y,d,go,d,1,,0.3296002474380657,,,,,,,,,,,,,,,51,001,20,m,Informatik,2023-01-23_14h23.59.266,00_bat_bachelor,2022.2.4,59.95276451128002,
,,,,,,,,,,,,1,0,1,0,84,0,84,0,,,,,,,84,,,0.2,20747.398293140228,X,l,go,l,1,,0.2723091236548498,,,,,,,,,,,,,,,51,001,20,m,Informatik,2023-01-23_14h23.59.266,00_bat_bachelor,2022.2.4,59.95276451128002,
,,,,,,,,,,,,1,0,1,0,85,0,85,0,,,,,,,85,,,0.2,20747.981593221077,X,None,nogo,None,1,20748.781679136213,,,,,,,,,,,,,,,,51,001,20,m,Informatik,2023-01-23_14h23.59.266,00_bat_bachelor,2022.2.4,59.95276451128002,
,,,,,,,,,,,,1,0,1,0,86,0,86,0,,,,,,,86,,,0.2,20748.98137649393,Y,d,go,d,1,,0.3044589263154194,,,,,,,,,,,,,,,51,001,20,m,Informatik,2023-01-23_14h23.59.266,00_bat_bachelor,2022.2.4,59.95276451128002,
,,,,,,,,,,,,1,0,1,0,87,0,87,0,,,,,,,87,,,0.2,20749.598282861523,X,l,go,l,1,,0.3118106801994145,,,,,,,,,,,,,,,51,001,20,m,Informatik,2023-01-23_14h23.59.266,00_bat_bachelor,2022.2.4,59.95276451128002,
,,,,,,,,,,,,1,0,1,0,88,0,88,0,,,,,,,88,,,0.2,20750.21472571406,X,None,nogo,None,1,20751.014731629286,,,,,,,,,,,,,,,,51,001,20,m,Informatik,2023-01-23_14h23.59.266,00_bat_bachelor,2022.2.4,59.95276451128002,
,,,,,,,,,,,,1,0,1,0,89,0,89,0,,,,,,,89,,,0.2,20751.21497783519,Y,d,go,d,1,,0.3919003384653479,,,,,,,,,,,,,,,51,001,20,m,Informatik,2023-01-23_14h23.59.266,00_bat_bachelor,2022.2.4,59.95276451128002,
,,,,,,,,,,,,1,0,1,0,90,0,90,0,,,,,,,90,,,0.2,20751.914698708104,X,l,go,l,1,,0.5072539794491604,,,,,,,,,,,,,,,51,001,20,m,Informatik,2023-01-23_14h23.59.266,00_bat_bachelor,2022.2.4,59.95276451128002,
,,,,,,,,,,,,1,0,1,0,91,0,91,0,,,,,,,91,,,0.2,20752.748275515973,X,None,nogo,None,1,20753.548163128202,,,,,,,,,,,,,,,,51,001,20,m,Informatik,2023-01-23_14h23.59.266,00_bat_bachelor,2022.2.4,59.95276451128002,
,,,,,,,,,,,,1,0,1,0,92,0,92,0,,,,,,,92,,,0.2,20753.748281819047,Y,d,go,d,1,,0.3547202352201566,,,,,,,,,,,,,,,51,001,20,m,Informatik,2023-01-23_14h23.59.266,00_bat_bachelor,2022.2.4,59.95276451128002,
,,,,,,,,,,,,1,0,1,0,93,0,93,0,,,,,,,93,,,0.2,20754.415135313873,X,l,go,l,1,,0.3595948995789513,,,,,,,,,,,,,,,51,001,20,m,Informatik,2023-01-23_14h23.59.266,00_bat_bachelor,2022.2.4,59.95276451128002,
,,,,,,,,,,,,1,0,1,0,94,0,94,0,,,,,,,94,,,0.2,20755.081397778704,Y,d,go,d,1,,0.4446576462360099,,,,,,,,,,,,,,,51,001,20,m,Informatik,2023-01-23_14h23.59.266,00_bat_bachelor,2022.2.4,59.95276451128002,
,,,,,,,,,,,,1,0,1,0,95,0,95,0,,,,,,,95,,,0.2,20755.831603960483,X,l,go,l,1,,0.31861697998829186,,,,,,,,,,,,,,,51,001,20,m,Informatik,2023-01-23_14h23.59.266,00_bat_bachelor,2022.2.4,59.95276451128002,
,,,,,,,,,,,,1,0,1,0,96,0,96,0,,,,,,,96,,,0.2,20756.46467322926,X,None,nogo,None,1,20757.264964235248,,,,,,,,,,,,,,,,51,001,20,m,Informatik,2023-01-23_14h23.59.266,00_bat_bachelor,2022.2.4,59.95276451128002,
,,,,,,,,,,,,1,0,1,0,97,0,97,0,,,,,,,97,,,0.2,20757.46491807769,Y,d,go,d,1,,0.35001623758580536,,,,,,,,,,,,,,,51,001,20,m,Informatik,2023-01-23_14h23.59.266,00_bat_bachelor,2022.2.4,59.95276451128002,
,,,,,,,,,,,,1,0,1,0,98,0,98,0,,,,,,,98,,,0.2,20758.114694732358,X,l,go,l,1,,0.30818062147591263,,,,,,,,,,,,,,,51,001,20,m,Informatik,2023-01-23_14h23.59.266,00_bat_bachelor,2022.2.4,59.95276451128002,
,,,,,,,,,,,,1,0,1,0,99,0,99,0,,,,,,,99,,,0.2,20758.731364009087,Y,d,go,d,1,,0.41051899606827646,,,,,,,,,,,,,,,51,001,20,m,Informatik,2023-01-23_14h23.59.266,00_bat_bachelor,2022.2.4,59.95276451128002,
,,,,,,,,,,,,1,0,1,0,100,0,100,0,,,,,,,100,,,0.2,20759.44802741916,X,l,go,l,1,,0.2861825715517625,,,,,,,,,,,,,,,51,001,20,m,Informatik,2023-01-23_14h23.59.266,00_bat_bachelor,2022.2.4,59.95276451128002,
,,,,,,,,,,,,1,0,1,0,101,0,101,0,,,,,,,101,,,0.2,20760.0477720981,X,None,nogo,None,1,20760.848027710104,,,,,,,,,,,,,,,,51,001,20,m,Informatik,2023-01-23_14h23.59.266,00_bat_bachelor,2022.2.4,59.95276451128002,
,,,,,,,,,,,,1,0,1,0,102,0,102,0,,,,,,,102,,,0.2,20761.04774349206,Y,d,go,d,1,,0.31871152541134506,,,,,,,,,,,,,,,51,001,20,m,Informatik,2023-01-23_14h23.59.266,00_bat_bachelor,2022.2.4,59.95276451128002,
,,,,,,,,,,,,1,0,1,0,103,0,103,0,,,,,,,103,,,0.2,20761.68120791216,X,l,go,l,1,,0.2925869320752099,,,,,,,,,,,,,,,51,001,20,m,Informatik,2023-01-23_14h23.59.266,00_bat_bachelor,2022.2.4,59.95276451128002,
,,,,,,,,,,,,1,0,1,0,104,0,104,0,,,,,,,104,,,0.2,20762.28145780298,Y,d,go,d,1,,0.36468629096634686,,,,,,,,,,,,,,,51,001,20,m,Informatik,2023-01-23_14h23.59.266,00_bat_bachelor,2022.2.4,59.95276451128002,
,,,,,,,,,,,,1,0,1,0,105,0,105,0,,,,,,,105,,,0.2,20762.947986934334,Y,None,nogo,None,1,20763.747756728437,,,,,,,,,,,,,,,,51,001,20,m,Informatik,2023-01-23_14h23.59.266,00_bat_bachelor,2022.2.4,59.95276451128002,
,,,,,,,,,,,,1,0,1,0,106,0,106,0,,,,,,,106,,,0.2,20763.947853601072,X,l,go,None,0,20764.747986061615,,,,,,,,,,,,,,,,51,001,20,m,Informatik,2023-01-23_14h23.59.266,00_bat_bachelor,2022.2.4,59.95276451128002,
,,,,,,,,,,,,1,0,1,0,107,0,107,0,,,,,,,107,,,0.2,20764.94797529804,Y,d,go,d,1,,0.3709442273247987,,,,,,,,,,,,,,,51,001,20,m,Informatik,2023-01-23_14h23.59.266,00_bat_bachelor,2022.2.4,59.95276451128002,
,,,,,,,,,,,,1,0,1,0,108,0,108,0,,,,,,,108,,,0.2,20765.63107023947,X,l,go,l,1,,0.32757697557099164,,,,,,,,,,,,,,,51,001,20,m,Informatik,2023-01-23_14h23.59.266,00_bat_bachelor,2022.2.4,59.95276451128002,
,,,,,,,,,,,,1,0,1,0,109,0,109,0,,,,,,,109,,,0.2,20766.264675750514,X,None,nogo,None,1,20767.064684089855,,,,,,,,,,,,,,,,51,001,20,m,Informatik,2023-01-23_14h23.59.266,00_bat_bachelor,2022.2.4,59.95276451128002,
,,,,,,,,,,,,1,0,1,0,110,0,110,0,,,,,,,110,,,0.2,20767.26468011411,Y,d,go,d,1,,0.326138915726915,,,,,,,,,,,,,,,51,001,20,m,Informatik,2023-01-23_14h23.59.266,00_bat_bachelor,2022.2.4,59.95276451128002,
,,,,,,,,,,,,1,0,1,0,111,0,111,0,,,,,,,111,,,0.2,20767.89776295866,X,l,go,l,1,,0.4133602068759501,,,,,,,,,,,,,,,51,001,20,m,Informatik,2023-01-23_14h23.59.266,00_bat_bachelor,2022.2.4,59.95276451128002,
,,,,,,,,,,,,1,0,1,0,112,0,112,0,,,,,,,112,,,0.2,20768.614655702026,Y,d,go,d,1,,0.30446474452037364,,,,,,,,,,,,,,,51,001,20,m,Informatik,2023-01-23_14h23.59.266,00_bat_bachelor,2022.2.4,59.95276451128002,
,,,,,,,,,,,,1,0,1,0,113,0,113,0,,,,,,,113,,,0.2,20769.23135891813,X,l,go,l,1,,0.2957820820156485,,,,,,,,,,,,,,,51,001,20,m,Informatik,2023-01-23_14h23.59.266,00_bat_bachelor,2022.2.4,59.95276451128002,
,,,,,,,,,,,,1,0,1,0,114,0,114,0,,,,,,,114,,,0.2,20769.831320809084,X,None,nogo,None,1,20770.631339815096,,,,,,,,,,,,,,,,51,001,20,m,Informatik,2023-01-23_14h23.59.266,00_bat_bachelor,2022.2.4,59.95276451128002,
,,,,,,,,,,,,1,0,1,0,115,0,115,0,,,,,,,115,,,0.2,20770.83131741511,Y,d,go,d,1,,0.3439546647714451,,,,,,,,,,,,,,,51,001,20,m,Informatik,2023-01-23_14h23.59.266,00_bat_bachelor,2022.2.4,59.95276451128002,
,,,,,,,,,,,,1,0,1,0,116,0,116,0,,,,,,,116,,,0.2,20771.481370918103,X,l,go,l,1,,0.3011139581212774,,,,,,,,,,,,,,,51,001,20,m,Informatik,2023-01-23_14h23.59.266,00_bat_bachelor,2022.2.4,59.95276451128002,
,,,,,,,,,,,,1,0,1,0,117,0,117,0,,,,,,,117,,,0.2,20772.0978656495,X,None,nogo,None,1,20772.897965625278,,,,,,,,,,,,,,,,51,001,20,m,Informatik,2023-01-23_14h23.59.266,00_bat_bachelor,2022.2.4,59.95276451128002,
,,,,,,,,,,,,1,0,1,0,118,0,118,0,,,,,,,118,,,0.2,20773.09790928592,Y,d,go,d,1,,0.36500726046506315,,,,,,,,,,,,,,,51,001,20,m,Informatik,2023-01-23_14h23.59.266,00_bat_bachelor,2022.2.4,59.95276451128002,
,,,,,,,,,,,,1,0,1,0,119,0,119,0,,,,,,,119,,,0.2,20773.76466629596,X,l,go,l,1,,0.2579653731081635,,,,,,,,,,,,,,,51,001,20,m,Informatik,2023-01-23_14h23.59.266,00_bat_bachelor,2022.2.4,59.95276451128002,
,,,,,,,,,,,,1,0,1,0,120,0,120,0,,,,,,,120,,,0.2,20774.33125899092,Y,d,go,d,1,,0.33125794352963567,,,,,,,,,,,,,,,51,001,20,m,Informatik,2023-01-23_14h23.59.266,00_bat_bachelor,2022.2.4,59.95276451128002,
,,,,,,,,,,,,1,0,1,0,121,0,121,0,,,,,,,121,,,0.2,20774.964798562578,X,l,go,l,1,,0.25835034262854606,,,,,,,,,,,,,,,51,001,20,m,Informatik,2023-01-23_14h23.59.266,00_bat_bachelor,2022.2.4,59.95276451128002,
,,,,,,,,,,,,1,0,1,0,122,0,122,0,,,,,,,122,,,0.2,20775.531238045543,X,None,nogo,None,1,20776.331114990986,,,,,,,,,,,,,,,,51,001,20,m,Informatik,2023-01-23_14h23.59.266,00_bat_bachelor,2022.2.4,59.95276451128002,
,,,,,,,,,,,,1,0,1,0,123,0,123,0,,,,,,,123,,,0.2,20776.53110180318,Y,d,go,d,1,,0.3704719851957634,,,,,,,,,,,,,,,51,001,20,m,Informatik,2023-01-23_14h23.59.266,00_bat_bachelor,2022.2.4,59.95276451128002,
,,,,,,,,,,,,1,0,1,0,124,0,124,0,,,,,,,124,,,0.2,20777.21464668389,X,l,go,l,1,,0.29691856633871794,,,,,,,,,,,,,,,51,001,20,m,Informatik,2023-01-23_14h23.59.266,00_bat_bachelor,2022.2.4,59.95276451128002,
,,,,,,,,,,,,1,0,1,0,125,0,125,0,,,,,,,125,,,0.2,20777.814679847448,Y,d,go,d,1,,0.35127005504909903,,,,,,,,,,,,,,,51,001,20,m,Informatik,2023-01-23_14h23.59.266,00_bat_bachelor,2022.2.4,59.95276451128002,
,,,,,,,,,,,,1,0,1,0,126,0,126,0,,,,,,,126,,,0.2,20778.481382554513,X,l,go,l,1,,0.3247163709020242,,,,,,,,,,,,,,,51,001,20,m,Informatik,2023-01-23_14h23.59.266,00_bat_bachelor,2022.2.4,59.95276451128002,
,,,,,,,,,,,,1,0,1,0,127,0,127,0,,,,,,,127,,,0.2,20779.11456139898,X,None,nogo,d,0,,0.3001306859077886,,,,,,,,,,,,,,,51,001,20,m,Informatik,2023-01-23_14h23.59.266,00_bat_bachelor,2022.2.4,59.95276451128002,
,,,,,,,,,,,,1,0,1,0,128,0,128,0,,,,,,,128,,,0.2,20779.714656623197,X,None,nogo,None,1,20780.51468823536,,,,,,,,,,,,,,,,51,001,20,m,Informatik,2023-01-23_14h23.59.266,00_bat_bachelor,2022.2.4,59.95276451128002,
,,,,,,,,,,,,1,0,1,0,129,0,129,0,,,,,,,129,,,0.2,20780.71464838076,Y,d,go,d,1,,0.30029747379012406,,,,,,,,,,,,,,,51,001,20,m,Informatik,2023-01-23_14h23.59.266,00_bat_bachelor,2022.2.4,59.95276451128002,
,,,,,,,,,,,,1,0,1,0,130,0,130,0,,,,,,,130,,,0.2,20781.331296809134,X,l,go,l,1,,0.27579033409710974,,,,,,,,,,,,,,,51,001,20,m,Informatik,2023-01-23_14h23.59.266,00_bat_bachelor,2022.2.4,59.95276451128002,
,,,,,,,,,,,,1,0,1,0,131,0,131,0,,,,,,,131,,,0.2,20781.914445617236,X,None,nogo,None,1,20782.71445832029,,,,,,,,,,,,,,,,51,001,20,m,Informatik,2023-01-23_14h23.59.266,00_bat_bachelor,2022.2.4,59.95276451128002,
,,,,,,,,,,,,1,0,1,0,132,0,132,0,,,,,,,132,,,0.2,20782.914697253495,Y,d,go,d,1,,0.29118572059087455,,,,,,,,,,,,,,,51,001,20,m,Informatik,2023-01-23_14h23.59.266,00_bat_bachelor,2022.2.4,59.95276451128002,
,,,,,,,,,,,,1,0,1,0,133,0,133,0,,,,,,,133,,,0.2,20783.514629083802,X,l,go,l,1,,0.28345772437751293,,,,,,,,,,,,,,,51,001,20,m,Informatik,2023-01-23_14h23.59.266,00_bat_bachelor,2022.2.4,59.95276451128002,
,,,,,,,,,,,,1,0,1,0,134,0,134,0,,,,,,,134,,,0.2,20784.097740558675,Y,d,go,d,1,,0.3402479998767376,,,,,,,,,,,,,,,51,001,20,m,Informatik,2023-01-23_14h23.59.266,00_bat_bachelor,2022.2.4,59.95276451128002,
,,,,,,,,,,,,1,0,1,0,135,0,135,0,,,,,,,135,,,0.2,20784.74796084955,X,l,go,l,1,,0.36353235214482993,,,,,,,,,,,,,,,51,001,20,m,Informatik,2023-01-23_14h23.59.266,00_bat_bachelor,2022.2.4,59.95276451128002,
,,,,,,,,,,,,1,0,1,0,136,0,136,0,,,,,,,136,,,0.2,20785.414651435334,Y,d,go,d,1,,0.27134669991210103,,,,,,,,,,,,,,,51,001,20,m,Informatik,2023-01-23_14h23.59.266,00_bat_bachelor,2022.2.4,59.95276451128002,
,,,,,,,,,,,,1,0,1,0,137,0,137,0,,,,,,,137,,,0.2,20785.997738182894,X,l,go,l,1,,0.2966102028731257,,,,,,,,,,,,,,,51,001,20,m,Informatik,2023-01-23_14h23.59.266,00_bat_bachelor,2022.2.4,59.95276451128002,
,,,,,,,,,,,,1,0,1,0,138,0,138,0,,,,,,,138,,,0.2,20786.597810619278,Y,d,go,d,1,,0.2881631766213104,,,,,,,,,,,,,,,51,001,20,m,Informatik,2023-01-23_14h23.59.266,00_bat_bachelor,2022.2.4,59.95276451128002,
,,,,,,,,,,,,1,0,1,0,139,0,139,0,,,,,,,139,,,0.2,20787.197994085844,X,l,go,l,1,,0.29747614182997495,,,,,,,,,,,,,,,51,001,20,m,Informatik,2023-01-23_14h23.59.266,00_bat_bachelor,2022.2.4,59.95276451128002,
,,,,,,,,,,,,1,0,1,0,140,0,140,0,,,,,,,140,,,0.2,20787.79776446172,Y,d,go,d,1,,0.2734402746427804,,,,,,,,,,,,,,,51,001,20,m,Informatik,2023-01-23_14h23.59.266,00_bat_bachelor,2022.2.4,59.95276451128002,
,,,,,,,,,,,,1,0,1,0,141,0,141,0,,,,,,,141,,,0.2,20788.3813370273,X,l,go,l,1,,0.29697626328561455,,,,,,,,,,,,,,,51,001,20,m,Informatik,2023-01-23_14h23.59.266,00_bat_bachelor,2022.2.4,59.95276451128002,
,,,,,,,,,,,,1,0,1,0,142,0,142,0,,,,,,,142,,,0.2,20788.981115160743,Y,d,go,d,1,,0.2900972362840548,,,,,,,,,,,,,,,51,001,20,m,Informatik,2023-01-23_14h23.59.266,00_bat_bachelor,2022.2.4,59.95276451128002,
,,,,,,,,,,,,1,0,1,0,143,0,143,0,,,,,,,143,,,0.2,20789.581163839437,X,l,go,l,1,,0.28141408890951425,,,,,,,,,,,,,,,51,001,20,m,Informatik,2023-01-23_14h23.59.266,00_bat_bachelor,2022.2.4,59.95276451128002,
,,,,,,,,,,,,1,0,1,0,144,0,144,0,,,,,,,144,,,0.2,20790.16463895049,Y,d,go,d,1,,0.2890887518879026,,,,,,,,,,,,,,,51,001,20,m,Informatik,2023-01-23_14h23.59.266,00_bat_bachelor,2022.2.4,59.95276451128002,
,,,,,,,,,,,,1,0,1,0,145,0,145,0,,,,,,,145,,,0.2,20790.764650295954,X,l,go,l,1,,0.2981515354476869,,,,,,,,,,,,,,,51,001,20,m,Informatik,2023-01-23_14h23.59.266,00_bat_bachelor,2022.2.4,59.95276451128002,
,,,,,,,,,,,,1,0,1,0,146,0,146,0,,,,,,,146,,,0.2,20791.3644109749,X,None,nogo,d,0,,0.3069699553307146,,,,,,,,,,,,,,,51,001,20,m,Informatik,2023-01-23_14h23.59.266,00_bat_bachelor,2022.2.4,59.95276451128002,
,,,,,,,,,,,,1,0,1,0,147,0,147,0,,,,,,,147,,,0.2,20791.98128243338,Y,d,go,d,1,,0.3778945270460099,,,,,,,,,,,,,,,51,001,20,m,Informatik,2023-01-23_14h23.59.266,00_bat_bachelor,2022.2.4,59.95276451128002,
,,,,,,,,,,,,1,0,1,0,148,0,148,0,,,,,,,148,,,0.2,20792.66467555659,X,l,go,l,1,,0.23737823159899563,,,,,,,,,,,,,,,51,001,20,m,Informatik,2023-01-23_14h23.59.266,00_bat_bachelor,2022.2.4,59.95276451128002,
,,,,,,,,,,,,1,0,1,0,149,0,149,0,,,,,,,149,,,0.2,20793.21460401721,X,None,nogo,d,0,,0.2964133544592187,,,,,,,,,,,,,,,51,001,20,m,Informatik,2023-01-23_14h23.59.266,00_bat_bachelor,2022.2.4,59.95276451128002,
,,,,,,,,,,,,1,0,1,0,150,0,150,0,,,,,,,150,,,0.2,20793.814392332453,X,None,nogo,None,1,20794.614472429384,,,,,,,,,,,,,,,,51,001,20,m,Informatik,2023-01-23_14h23.59.266,00_bat_bachelor,2022.2.4,59.95276451128002,
,,,,,,,,,,,,1,0,1,0,151,0,151,0,,,,,,,151,,,0.2,20794.814615847543,Y,d,go,d,1,,0.3278722482500598,,,,,,,,,,,,,,,51,001,20,m,Informatik,2023-01-23_14h23.59.266,00_bat_bachelor,2022.2.4,59.95276451128002,
,,,,,,,,,,,,1,0,1,0,152,0,152,0,,,,,,,152,,,0.2,20795.44823299488,X,l,go,l,1,,0.27061312447767705,,,,,,,,,,,,,,,51,001,20,m,Informatik,2023-01-23_14h23.59.266,00_bat_bachelor,2022.2.4,59.95276451128002,
,,,,,,,,,,,,1,0,1,0,153,0,153,0,,,,,,,153,,,0.2,20796.03130228794,Y,d,go,d,1,,0.31181407428812236,,,,,,,,,,,,,,,51,001,20,m,Informatik,2023-01-23_14h23.59.266,00_bat_bachelor,2022.2.4,59.95276451128002,
,,,,,,,,,,,,1,0,1,0,154,0,154,0,,,,,,,154,,,0.2,20796.647997261607,X,l,go,l,1,,0.3019697153940797,,,,,,,,,,,,,,,51,001,20,m,Informatik,2023-01-23_14h23.59.266,00_bat_bachelor,2022.2.4,59.95276451128002,
,,,,,,,,,,,,1,0,1,0,155,0,155,0,,,,,,,155,,,0.2,20797.264589447528,Y,d,go,d,1,,0.3264846126548946,,,,,,,,,,,,,,,51,001,20,m,Informatik,2023-01-23_14h23.59.266,00_bat_bachelor,2022.2.4,59.95276451128002,
,,,,,,,,,,,,1,0,1,0,156,0,156,0,,,,,,,156,,,0.2,20797.897922958597,Y,None,nogo,l,0,,0.2677418531384319,,,,,,,,,,,,,,,51,001,20,m,Informatik,2023-01-23_14h23.59.266,00_bat_bachelor,2022.2.4,59.95276451128002,
,,,,,,,,,,,,1,0,1,0,157,0,157,0,,,,,,,157,,,0.2,20798.48130594846,Y,None,nogo,d,0,,0.37342083221301436,,,,,,,,,,,,,,,51,001,20,m,Informatik,2023-01-23_14h23.59.266,00_bat_bachelor,2022.2.4,59.95276451128002,
,,,,,,,,,,,,1,0,1,0,158,0,158,0,,,,,,,158,,,0.2,20799.164513374795,X,l,go,l,1,,0.37835028441622853,,,,,,,,,,,,,,,51,001,20,m,Informatik,2023-01-23_14h23.59.266,00_bat_bachelor,2022.2.4,59.95276451128002,
,,,,,,,,,,,,1,0,1,0,159,0,159,0,,,,,,,159,,,0.2,20799.84802286164,Y,d,go,d,1,,0.3185529800830409,,,,,,,,,,,,,,,51,001,20,m,Informatik,2023-01-23_14h23.59.266,00_bat_bachelor,2022.2.4,59.95276451128002,
,,,,,,,,,,,,1,0,1,0,160,0,160,0,,,,,,,160,,,0.2,20800.48131903936,Y,None,nogo,l,0,,0.310350802144967,,,,,,,,,,,,,,,51,001,20,m,Informatik,2023-01-23_14h23.59.266,00_bat_bachelor,2022.2.4,59.95276451128002,
,,,,,,,,,,,,1,0,1,0,161,0,161,0,,,,,,,161,,,0.2,20801.097941770684,X,l,go,None,0,20801.897801261744,,,,,,,,,,,,,,,,51,001,20,m,Informatik,2023-01-23_14h23.59.266,00_bat_bachelor,2022.2.4,59.95276451128002,
,,,,,,,,,,,,1,0,1,0,162,0,162,0,,,,,,,162,,,0.2,20802.097942740424,Y,d,go,d,1,,0.30898207565769553,,,,,,,,,,,,,,,51,001,20,m,Informatik,2023-01-23_14h23.59.266,00_bat_bachelor,2022.2.4,59.95276451128002,
,,,,,,,,,,,,1,0,1,0,163,0,163,0,,,,,,,163,,,0.2,20802.71448692633,Y,None,nogo,l,0,,0.34809138998389244,,,,,,,,,,,,,,,51,001,20,m,Informatik,2023-01-23_14h23.59.266,00_bat_bachelor,2022.2.4,59.95276451128002,
,,,,,,,,,,,,1,0,1,0,164,0,164,0,,,,,,,164,,,0.2,20803.36466164142,X,l,go,None,0,20804.16466707166,,,,,,,,,,,,,,,,51,001,20,m,Informatik,2023-01-23_14h23.59.266,00_bat_bachelor,2022.2.4,59.95276451128002,
,,,,,,,,,,,,1,0,1,0,165,0,165,0,,,,,,,165,,,0.2,20804.36463982321,Y,d,go,d,1,,0.33039830764755607,,,,,,,,,,,,,,,51,001,20,m,Informatik,2023-01-23_14h23.59.266,00_bat_bachelor,2022.2.4,59.95276451128002,
,,,,,,,,,,,,1,0,1,0,166,0,166,0,,,,,,,166,,,0.2,20804.997922910145,Y,None,nogo,None,1,20805.797973431298,,,,,,,,,,,,,,,,51,001,20,m,Informatik,2023-01-23_14h23.59.266,00_bat_bachelor,2022.2.4,59.95276451128002,
,,,,,,,,,,,,1,0,1,0,167,0,167,0,,,,,,,167,,,0.2,20805.997962667723,X,l,go,None,0,20806.79788470408,,,,,,,,,,,,,,,,51,001,20,m,Informatik,2023-01-23_14h23.59.266,00_bat_bachelor,2022.2.4,59.95276451128002,
,,,,,,,,,,,,1,0,1,0,168,0,168,0,,,,,,,168,,,0.2,20806.99774351623,Y,d,go,None,0,20807.79785658291,,,,,,,,,,,,,,,,51,001,20,m,Informatik,2023-01-23_14h23.59.266,00_bat_bachelor,2022.2.4,59.95276451128002,
,,,,,,,,,,,,1,0,1,0,169,0,169,0,,,,,,,169,,,0.2,20807.997718304163,X,l,go,None,0,20808.797689310275,,,,,,,,,,,,,,,,51,001,20,m,Informatik,2023-01-23_14h23.59.266,00_bat_bachelor,2022.2.4,59.95276451128002,
,,,,,,,,,,,,1,0,1,0,170,0,170,0,,,,,,,170,,,0.2,20808.998005819158,X,None,nogo,None,1,20809.79796712834,,,,,,,,,,,,,,,,51,001,20,m,Informatik,2023-01-23_14h23.59.266,00_bat_bachelor,2022.2.4,59.95276451128002,
,,,,,,,,,,,,1,0,1,0,171,0,171,0,,,,,,,171,,,0.2,20809.99792824348,Y,d,go,d,1,,0.2643915517255664,,,,,,,,,,,,,,,51,001,20,m,Informatik,2023-01-23_14h23.59.266,00_bat_bachelor,2022.2.4,59.95276451128002,
,,,,,,,,,,,,1,0,1,0,172,0,172,0,,,,,,,172,,,0.2,20810.564658635296,X,l,go,l,1,,0.48152502230368555,,,,,,,,,,,,,,,51,001,20,m,Informatik,2023-01-23_14h23.59.266,00_bat_bachelor,2022.2.4,59.95276451128002,
,,,,,,,,,,,,1,0,1,0,173,0,173,0,,,,,,,173,,,0.2,20811.347739467747,X,None,nogo,None,1,20812.14795386768,,,,,,,,,,,,,,,,51,001,20,m,Informatik,2023-01-23_14h23.59.266,00_bat_bachelor,2022.2.4,59.95276451128002,
,,,,,,,,,,,,1,0,1,0,174,0,174,0,,,,,,,174,,,0.2,20812.347770498134,Y,d,go,d,1,,0.3312584283994511,,,,,,,,,,,,,,,51,001,20,m,Informatik,2023-01-23_14h23.59.266,00_bat_bachelor,2022.2.4,59.95276451128002,
,,,,,,,,,,,,1,0,1,0,175,0,175,0,,,,,,,175,,,0.2,20812.981321706087,X,l,go,l,1,,0.3372152739902958,,,,,,,,,,,,,,,51,001,20,m,Informatik,2023-01-23_14h23.59.266,00_bat_bachelor,2022.2.4,59.95276451128002,
,,,,,,,,,,,,1,0,1,0,176,0,176,0,,,,,,,176,,,0.2,20813.631309754564,X,None,nogo,None,1,20814.431296760566,,,,,,,,,,,,,,,,51,001,20,m,Informatik,2023-01-23_14h23.59.266,00_bat_bachelor,2022.2.4,59.95276451128002,
,,,,,,,,,,,,1,0,1,0,177,0,177,0,,,,,,,177,,,0.2,20814.631284542498,Y,d,go,d,1,,0.3191401313524693,,,,,,,,,,,,,,,51,001,20,m,Informatik,2023-01-23_14h23.59.266,00_bat_bachelor,2022.2.4,59.95276451128002,
,,,,,,,,,,,,1,0,1,0,178,0,178,0,,,,,,,178,,,0.2,20815.26460205356,X,l,go,l,1,,0.3422867866465822,,,,,,,,,,,,,,,51,001,20,m,Informatik,2023-01-23_14h23.59.266,00_bat_bachelor,2022.2.4,59.95276451128002,
,,,,,,,,,,,,1,0,1,0,179,0,179,0,,,,,,,179,,,0.2,20815.914408284007,X,None,nogo,None,1,20816.714645956527,,,,,,,,,,,,,,,,51,001,20,m,Informatik,2023-01-23_14h23.59.266,00_bat_bachelor,2022.2.4,59.95276451128002,
,,,,,,,,,,,,1,0,1,0,180,0,180,0,,,,,,,180,,,0.2,20816.91463228385,Y,d,go,d,1,,0.3566349009051919,,,,,,,,,,,,,,,51,001,20,m,Informatik,2023-01-23_14h23.59.266,00_bat_bachelor,2022.2.4,59.95276451128002,
,,,,,,,,,,,,1,0,1,0,181,0,181,0,,,,,,,181,,,0.2,20817.581337900017,X,l,go,l,1,,0.28046378633007407,,,,,,,,,,,,,,,51,001,20,m,Informatik,2023-01-23_14h23.59.266,00_bat_bachelor,2022.2.4,59.95276451128002,
,,,,,,,,,,,,1,0,1,0,182,0,182,0,,,,,,,182,,,0.2,20818.164764526184,Y,d,go,d,1,,0.5462066878098994,,,,,,,,,,,,,,,51,001,20,m,Informatik,2023-01-23_14h23.59.266,00_bat_bachelor,2022.2.4,59.95276451128002,
,,,,,,,,,,,,1,0,1,0,183,0,183,0,,,,,,,183,,,0.2,20819.01465308387,Y,None,nogo,l,0,,0.3197505552088842,,,,,,,,,,,,,,,51,001,20,m,Informatik,2023-01-23_14h23.59.266,00_bat_bachelor,2022.2.4,59.95276451128002,
,,,,,,,,,,,,1,0,1,0,184,0,184,0,,,,,,,184,,,0.2,20819.64801035251,X,l,go,l,1,,0.647434760001488,,,,,,,,,,,,,,,51,001,20,m,Informatik,2023-01-23_14h23.59.266,00_bat_bachelor,2022.2.4,59.95276451128002,
,,,,,,,,,,,,1,0,1,0,185,0,185,0,,,,,,,185,,,0.2,20820.597956558573,Y,d,go,d,1,,0.3526436302345246,,,,,,,,,,,,,,,51,001,20,m,Informatik,2023-01-23_14h23.59.266,00_bat_bachelor,2022.2.4,59.95276451128002,
,,,,,,,,,,,,1,0,1,0,186,0,186,0,,,,,,,186,,,0.2,20821.26438678091,Y,None,nogo,None,1,20822.06463075662,,,,,,,,,,,,,,,,51,001,20,m,Informatik,2023-01-23_14h23.59.266,00_bat_bachelor,2022.2.4,59.95276451128002,
,,,,,,,,,,,,1,0,1,0,187,0,187,0,,,,,,,187,,,0.2,20822.264725689893,Y,None,nogo,None,1,20823.06468893832,,,,,,,,,,,,,,,,51,001,20,m,Informatik,2023-01-23_14h23.59.266,00_bat_bachelor,2022.2.4,59.95276451128002,
,,,,,,,,,,,,1,0,1,0,188,0,188,0,,,,,,,188,,,0.2,20823.2644789021,X,l,go,l,1,,0.4703066034708172,,,,,,,,,,,,,,,51,001,20,m,Informatik,2023-01-23_14h23.59.266,00_bat_bachelor,2022.2.4,59.95276451128002,
,,,,,,,,,,,,1,0,1,0,189,0,189,0,,,,,,,189,,,0.2,20824.048040219117,Y,d,go,d,1,,0.46985860366839916,,,,,,,,,,,,,,,51,001,20,m,Informatik,2023-01-23_14h23.59.266,00_bat_bachelor,2022.2.4,59.95276451128002,
,,,,,,,,,,,,1,0,1,0,190,0,190,0,,,,,,,190,,,0.2,20824.831290263683,X,l,go,l,1,,0.29516826407052577,,,,,,,,,,,,,,,51,001,20,m,Informatik,2023-01-23_14h23.59.266,00_bat_bachelor,2022.2.4,59.95276451128002,
,,,,,,,,,,,,1,0,1,0,191,0,191,0,,,,,,,191,,,0.2,20825.431289972737,Y,d,go,d,1,,0.3192317675566301,,,,,,,,,,,,,,,51,001,20,m,Informatik,2023-01-23_14h23.59.266,00_bat_bachelor,2022.2.4,59.95276451128002,
,,,,,,,,,,,,1,0,1,0,192,0,192,0,,,,,,,192,,,0.2,20826.06463899894,X,l,go,l,1,,0.34299611975438893,,,,,,,,,,,,,,,51,001,20,m,Informatik,2023-01-23_14h23.59.266,00_bat_bachelor,2022.2.4,59.95276451128002,
,,,,,,,,,,,,1,0,1,0,193,0,193,0,,,,,,,193,,,0.2,20826.714635289856,Y,d,go,d,1,,0.3313330950913951,,,,,,,,,,,,,,,51,001,20,m,Informatik,2023-01-23_14h23.59.266,00_bat_bachelor,2022.2.4,59.95276451128002,
,,,,,,,,,,,,1,0,1,0,194,0,194,0,,,,,,,194,,,0.2,20827.34778455866,X,l,go,l,1,,0.3221180692780763,,,,,,,,,,,,,,,51,001,20,m,Informatik,2023-01-23_14h23.59.266,00_bat_bachelor,2022.2.4,59.95276451128002,
,,,,,,,,,,,,1,0,1,0,195,0,195,0,,,,,,,195,,,0.2,20827.981328009046,Y,d,go,d,1,,0.345738421427086,,,,,,,,,,,,,,,51,001,20,m,Informatik,2023-01-23_14h23.59.266,00_bat_bachelor,2022.2.4,59.95276451128002,
,,,,,,,,,,,,1,0,1,0,196,0,196,0,,,,,,,196,,,0.2,20828.631107572815,Y,None,nogo,None,1,20829.43147712422,,,,,,,,,,,,,,,,51,001,20,m,Informatik,2023-01-23_14h23.59.266,00_bat_bachelor,2022.2.4,59.95276451128002,
,,,,,,,,,,,,1,0,1,0,197,0,197,0,,,,,,,197,,,0.2,20829.631248178775,X,l,go,l,1,,0.5827128519304097,,,,,,,,,,,,,,,51,001,20,m,Informatik,2023-01-23_14h23.59.266,00_bat_bachelor,2022.2.4,59.95276451128002,
,,,,,,,,,,,,1,0,1,0,198,0,198,0,,,,,,,198,,,0.2,20830.514615023276,Y,d,go,d,1,,0.41943050688132644,,,,,,,,,,,,,,,51,001,20,m,Informatik,2023-01-23_14h23.59.266,00_bat_bachelor,2022.2.4,59.95276451128002,
,,,,,,,,,,,,1,0,1,0,199,0,199,0,,,,,,,199,,,0.2,20831.24815648573,Y,None,nogo,None,1,20832.047728461795,,,,,,,,,,,,,,,,51,001,20,m,Informatik,2023-01-23_14h23.59.266,00_bat_bachelor,2022.2.4,59.95276451128002,
,,,,,,,,,,,,1,0,1,0,200,0,200,0,,,,,,,200,,,0.2,20832.24799406156,X,l,go,l,1,,0.5747739466605708,,,,,,,,,,,,,,,51,001,20,m,Informatik,2023-01-23_14h23.59.266,00_bat_bachelor,2022.2.4,59.95276451128002,
,,,,,,,,,,,,1,0,1,0,201,0,201,0,,,,,,,201,,,0.2,20833.131324057584,Y,d,go,d,1,,0.2826048763236031,,,,,,,,,,,,,,,51,001,20,m,Informatik,2023-01-23_14h23.59.266,00_bat_bachelor,2022.2.4,59.95276451128002,
