loop_instruction.thisRepN,loop_instruction.thisTrialN,loop_instruction.thisN,loop_instruction.thisIndex,loop_rsi_practice.thisRepN,loop_rsi_practice.thisTrialN,loop_rsi_practice.thisN,loop_rsi_practice.thisIndex,loop_practice.thisRepN,loop_practice.thisTrialN,loop_practice.thisN,loop_practice.thisIndex,loop_exp.thisRepN,loop_exp.thisTrialN,loop_exp.thisN,loop_exp.thisIndex,loop_trials.thisRepN,loop_trials.thisTrialN,loop_trials.thisN,loop_trials.thisIndex,map_condition,map_x_key,map_y_key,key_resp_welcome.started,key_resp_welcome.keys,key_resp_welcome.rt,index,text_empty_rsi_practice.started,text_empty_rsi_practice.stopped,rsi,stimulus.started,stimulus,correct,trial_type,key_resp_trial.keys,key_resp_trial.corr,stimulus.stopped,key_resp_trial.rt,key_resp_instruction_rsi.started,key_resp_instruction_rsi.keys,key_resp_instruction_rsi.rt,key_resp_instruction_rsi.stopped,key_resp_instruction_final.started,key_resp_instruction_final.keys,key_resp_instruction_final.rt,key_resp_break.started,key_resp_break.keys,key_resp_break.rt,key_resp_break.stopped,key_resp_end_screen.started,image_end_screen.started,key_resp_end_screen.stopped,image_end_screen.stopped,key_resp_end_screen.keys,participant,session,Alter,Geschlecht (w/m/d/andere),Studiengang,date,expName,psychopyVersion,frameRate,
,,,,0,0,0,0,0,0,0,0,,,,,,,,,1,l,d,1078.8999748362694,j,26.596534202923067,0,1105.5226906556636,1106.5374901635805,1,1106.5374901635805,X,l,go,None,0,,,,,,,,,,,,,,,,,,,53,001,18,m,Psychologie,2023-01-23_14h00.54.889,00_bat_bachelor,2022.2.4,59.8937449263197,
,,,,0,0,0,0,1,0,1,0,,,,,,,,,,,,,,,1,1107.9387418478727,1108.9394182111137,1,1108.9394182111137,Y,d,go,None,0,1109.7399206109112,,,,,,,,,,,,,,,,,,53,001,18,m,Psychologie,2023-01-23_14h00.54.889,00_bat_bachelor,2022.2.4,59.8937449263197,
,,,,0,0,0,0,2,0,2,0,,,,,,,,,,,,,,,2,1110.3405695317779,1111.3411770466482,1,1111.3411770466482,X,l,go,None,0,1112.1418559311423,,,,,,,,,,,,,,,,,,53,001,18,m,Psychologie,2023-01-23_14h00.54.889,00_bat_bachelor,2022.2.4,59.8937449263197,
,,,,0,0,0,0,3,0,3,0,,,,,,,,,,,,,,,3,1112.7421538219787,1113.7429775791243,1,1113.7429775791243,X,None,nogo,None,1,1114.5436981605599,,,,,,,,,,,,,,,,,,53,001,18,m,Psychologie,2023-01-23_14h00.54.889,00_bat_bachelor,2022.2.4,59.8937449263197,
,,,,0,0,0,0,4,0,4,0,,,,,,,,,,,,,,,4,1115.144095930038,1116.1448872024193,1,1116.1448872024193,Y,d,go,None,0,,,,,,,,,,,,,,,,,,,53,001,18,m,Psychologie,2023-01-23_14h00.54.889,00_bat_bachelor,2022.2.4,59.8937449263197,
,,,,0,0,0,0,5,0,5,0,,,,,,,,,,,,,,,5,1117.5456933111418,1118.5464244622272,1,1118.5464244622272,X,l,go,None,0,,,,,,,,,,,,,,,,,,,53,001,18,m,Psychologie,2023-01-23_14h00.54.889,00_bat_bachelor,2022.2.4,59.8937449263197,
,,,,0,0,0,0,6,0,6,0,,,,,,,,,,,,,,,6,1119.9474220860284,1120.9481740857009,1,1120.9481740857009,Y,d,go,None,0,,,,,,,,,,,,,,,,,,,53,001,18,m,Psychologie,2023-01-23_14h00.54.889,00_bat_bachelor,2022.2.4,59.8937449263197,
,,,,0,0,0,0,7,0,7,0,,,,,,,,,,,,,,,7,1122.3492201942718,1123.349848072743,1,1123.349848072743,X,l,go,l,1,,0.3503054737811908,,,,,,,,,,,,,,,,,53,001,18,m,Psychologie,2023-01-23_14h00.54.889,00_bat_bachelor,2022.2.4,59.8937449263197,
,,,,0,0,0,0,8,0,8,0,,,,,,,,,,,,,,,8,1124.4010262297234,1125.4014819870936,1,1125.4014819870936,Y,d,go,d,1,,0.6192149190464988,,,,,,,,,,,,,,,,,53,001,18,m,Psychologie,2023-01-23_14h00.54.889,00_bat_bachelor,2022.2.4,59.8937449263197,
,,,,0,0,0,0,9,0,9,0,,,,,,,,,,,,,,,9,1126.7357877644245,1127.7373184303287,1,1127.7373184303287,Y,None,nogo,None,1,1128.537996829953,,,,,,,,,,,,,,,,,,53,001,18,m,Psychologie,2023-01-23_14h00.54.889,00_bat_bachelor,2022.2.4,59.8937449263197,
,,,,0,0,0,0,10,0,10,0,,,,,,,,,,,,,,,10,1129.1383727813372,1130.1394001747249,1,1130.1394001747249,X,l,go,l,1,,0.4413497932255268,,,,,,,,,,,,,,,,,53,001,18,m,Psychologie,2023-01-23_14h00.54.889,00_bat_bachelor,2022.2.4,59.8937449263197,
,,,,0,0,0,0,11,0,11,0,,,,,,,,,,,,,,,11,1131.2902534350287,1132.2909928285517,1,1132.2909928285517,Y,d,go,d,1,,0.3534855934558436,,,,,,,,,,,,,,,,,53,001,18,m,Psychologie,2023-01-23_14h00.54.889,00_bat_bachelor,2022.2.4,59.8937449263197,
,,,,0,0,0,0,12,0,12,0,,,,,,,,,,,,,,,12,1133.375013151439,1134.37570066622,1,1134.37570066622,X,l,go,l,1,,0.3647549212910235,,,,,,,,,,,,,,,,,53,001,18,m,Psychologie,2023-01-23_14h00.54.889,00_bat_bachelor,2022.2.4,59.8937449263197,
,,,,0,0,0,0,13,0,13,0,,,,,,,,,,,,,,,13,1135.4600269284565,1136.4605874129338,1,1136.4605874129338,X,None,nogo,l,0,,0.327177727362141,,,,,,,,,,,,,,,,,53,001,18,m,Psychologie,2023-01-23_14h00.54.889,00_bat_bachelor,2022.2.4,59.8937449263197,
,,,,0,0,0,0,14,0,14,0,,,,,,,,,,,,,,,14,1137.9279757924378,1138.9287030647974,1,1138.9287030647974,Y,d,go,None,0,,,,,,,,,,,,,,,,,,,53,001,18,m,Psychologie,2023-01-23_14h00.54.889,00_bat_bachelor,2022.2.4,59.8937449263197,
,,,,1,0,1,0,0,0,0,0,,,,,,,,,,,,,,,0,1155.5413742829114,1155.7416684888303,0.2,1155.7416684888303,X,l,go,l,1,,0.4385008249664679,1140.3601050374564,j,15.152558175614104,,,,,,,,,,,,,,53,001,18,m,Psychologie,2023-01-23_14h00.54.889,00_bat_bachelor,2022.2.4,59.8937449263197,
,,,,1,0,1,0,1,0,1,0,,,,,,,,,,,,,,,1,1156.8923312036786,1157.0922816521488,0.2,1157.0922816521488,Y,d,go,d,1,,0.43220555526204407,,,,,,,,,,,,,,,,,53,001,18,m,Psychologie,2023-01-23_14h00.54.889,00_bat_bachelor,2022.2.4,59.8937449263197,
,,,,1,0,1,0,2,0,2,0,,,,,,,,,,,,,,,2,1158.2266898293747,1158.4266916718334,0.2,1158.4266916718334,X,l,go,l,1,,0.2822385976323858,,,,,,,,,,,,,,,,,53,001,18,m,Psychologie,2023-01-23_14h00.54.889,00_bat_bachelor,2022.2.4,59.8937449263197,
,,,,1,0,1,0,3,0,3,0,,,,,,,,,,,,,,,3,1159.4109316795366,1159.6110818855232,0.2,1159.6110818855232,X,None,nogo,None,1,,,,,,,,,,,,,,,,,,,53,001,18,m,Psychologie,2023-01-23_14h00.54.889,00_bat_bachelor,2022.2.4,59.8937449263197,
,,,,1,0,1,0,4,0,4,0,,,,,,,,,,,,,,,4,1161.0120858122827,1161.2120115335565,0.2,1161.2120115335565,Y,d,go,d,1,,0.36114716553129256,,,,,,,,,,,,,,,,,53,001,18,m,Psychologie,2023-01-23_14h00.54.889,00_bat_bachelor,2022.2.4,59.8937449263197,
,,,,1,0,1,0,5,0,5,0,,,,,,,,,,,,,,,5,1162.2797550158575,1162.4798834036337,0.2,1162.4798834036337,X,l,go,l,1,,0.37299588695168495,,,,,,,,,,,,,,,,,53,001,18,m,Psychologie,2023-01-23_14h00.54.889,00_bat_bachelor,2022.2.4,59.8937449263197,
,,,,1,0,1,0,6,0,6,0,,,,,,,,,,,,,,,6,1163.5641083325027,1163.7640742961084,0.2,1163.7640742961084,X,None,nogo,None,1,,,,,,,,,,,,,,,,,,,53,001,18,m,Psychologie,2023-01-23_14h00.54.889,00_bat_bachelor,2022.2.4,59.8937449263197,
,,,,1,0,1,0,7,0,7,0,,,,,,,,,,,,,,,7,1165.165329374373,1165.3653898834018,0.2,1165.3653898834018,Y,d,go,d,1,,0.2087782695889473,,,,,,,,,,,,,,,,,53,001,18,m,Psychologie,2023-01-23_14h00.54.889,00_bat_bachelor,2022.2.4,59.8937449263197,
,,,,1,0,1,0,8,0,8,0,,,,,,,,,,,,,,,8,1166.282631135662,1166.4829878869932,0.2,1166.4829878869932,X,l,go,l,1,,0.3227069416316226,,,,,,,,,,,,,,,,,53,001,18,m,Psychologie,2023-01-23_14h00.54.889,00_bat_bachelor,2022.2.4,59.8937449263197,
,,,,1,0,1,0,9,0,9,0,,,,,,,,,,,,,,,9,1167.5169733250514,1167.7173766217893,0.2,1167.7173766217893,Y,d,go,d,1,,0.44857112306635827,,,,,,,,,,,,,,,,,53,001,18,m,Psychologie,2023-01-23_14h00.54.889,00_bat_bachelor,2022.2.4,59.8937449263197,
,,,,1,0,1,0,10,0,10,0,,,,,,,,,,,,,,,10,1168.8678778822068,1169.0682957244571,0.2,1169.0682957244571,Y,None,nogo,l,0,,0.24872200784739107,,,,,,,,,,,,,,,,,53,001,18,m,Psychologie,2023-01-23_14h00.54.889,00_bat_bachelor,2022.2.4,59.8937449263197,
,,,,1,0,1,0,11,0,11,0,,,,,,,,,,,,,,,11,1170.4190233119298,1170.6191672148416,0.2,1170.6191672148416,X,l,go,None,0,,,,,,,,,,,,,,,,,,,53,001,18,m,Psychologie,2023-01-23_14h00.54.889,00_bat_bachelor,2022.2.4,59.8937449263197,
,,,,1,0,1,0,12,0,12,0,,,,,,,,,,,,,,,12,1172.0204213233665,1172.220690802089,0.2,1172.220690802089,Y,d,go,d,1,,0.32859445398207754,,,,,,,,,,,,,,,,,53,001,18,m,Psychologie,2023-01-23_14h00.54.889,00_bat_bachelor,2022.2.4,59.8937449263197,
,,,,1,0,1,0,13,0,13,0,,,,,,,,,,,,,,,13,1173.2546049674274,1173.454673234024,0.2,1173.454673234024,X,l,go,l,1,,0.3110817351844162,,,,,,,,,,,,,,,,,53,001,18,m,Psychologie,2023-01-23_14h00.54.889,00_bat_bachelor,2022.2.4,59.8937449263197,
,,,,1,0,1,0,14,0,14,0,,,,,,,,,,,,,,,14,1174.4726242556935,1174.6725713101914,0.2,1174.6725713101914,Y,d,go,d,1,,0.4680998408002779,,,,,,,,,,,,,,,,,53,001,18,m,Psychologie,2023-01-23_14h00.54.889,00_bat_bachelor,2022.2.4,59.8937449263197,
,,,,,,,,,,,,,,,,,,,,,,,,,,,,,,,,,,,,,,1175.8914487798465,None,,1175.8914487798465,1175.8914487798465,space,8.516761635546573,,,,,,,,,,53,001,18,m,Psychologie,2023-01-23_14h00.54.889,00_bat_bachelor,2022.2.4,59.8937449263197,
,,,,,,,,,,,,0,0,0,0,0,0,0,0,,,,,,,0,,,1,1185.431021366734,X,l,go,l,1,,0.22245777817443013,,,,,,,,,,,,,,,,,53,001,18,m,Psychologie,2023-01-23_14h00.54.889,00_bat_bachelor,2022.2.4,59.8937449263197,
,,,,,,,,,,,,0,0,0,0,1,0,1,0,,,,,,,1,,,1,1186.7654696893878,Y,d,go,d,1,,0.34309481049422175,,,,,,,,,,,,,,,,,53,001,18,m,Psychologie,2023-01-23_14h00.54.889,00_bat_bachelor,2022.2.4,59.8937449263197,
,,,,,,,,,,,,0,0,0,0,2,0,2,0,,,,,,,2,,,1,1188.2328798869858,X,l,go,l,1,,0.29961895290762186,,,,,,,,,,,,,,,,,53,001,18,m,Psychologie,2023-01-23_14h00.54.889,00_bat_bachelor,2022.2.4,59.8937449263197,
,,,,,,,,,,,,0,0,0,0,3,0,3,0,,,,,,,3,,,1,1189.6338915714296,Y,d,go,d,1,,0.306554222246632,,,,,,,,,,,,,,,,,53,001,18,m,Psychologie,2023-01-23_14h00.54.889,00_bat_bachelor,2022.2.4,59.8937449263197,
,,,,,,,,,,,,0,0,0,0,4,0,4,0,,,,,,,4,,,1,1191.051677065785,Y,None,nogo,None,1,,,,,,,,,,,,,,,,,,,53,001,18,m,Psychologie,2023-01-23_14h00.54.889,00_bat_bachelor,2022.2.4,59.8937449263197,
,,,,,,,,,,,,0,0,0,0,5,0,5,0,,,,,,,5,,,1,1192.8528029804584,X,l,go,l,1,,0.32019882171880454,,,,,,,,,,,,,,,,,53,001,18,m,Psychologie,2023-01-23_14h00.54.889,00_bat_bachelor,2022.2.4,59.8937449263197,
,,,,,,,,,,,,0,0,0,0,6,0,6,0,,,,,,,6,,,1,1194.2874762242427,Y,d,go,d,1,,0.3742370984982699,,,,,,,,,,,,,,,,,53,001,18,m,Psychologie,2023-01-23_14h00.54.889,00_bat_bachelor,2022.2.4,59.8937449263197,
,,,,,,,,,,,,0,0,0,0,7,0,7,0,,,,,,,7,,,1,1195.7716844743118,X,l,go,l,1,,0.3455219608731568,,,,,,,,,,,,,,,,,53,001,18,m,Psychologie,2023-01-23_14h00.54.889,00_bat_bachelor,2022.2.4,59.8937449263197,
,,,,,,,,,,,,0,0,0,0,8,0,8,0,,,,,,,8,,,1,1197.2230743160471,Y,d,go,d,1,,0.47926347178872675,,,,,,,,,,,,,,,,,53,001,18,m,Psychologie,2023-01-23_14h00.54.889,00_bat_bachelor,2022.2.4,59.8937449263197,
,,,,,,,,,,,,0,0,0,0,9,0,9,0,,,,,,,9,,,1,1198.8074924568646,X,l,go,l,1,,0.26862018008250743,,,,,,,,,,,,,,,,,53,001,18,m,Psychologie,2023-01-23_14h00.54.889,00_bat_bachelor,2022.2.4,59.8937449263197,
,,,,,,,,,,,,0,0,0,0,10,0,10,0,,,,,,,10,,,1,1200.191995543195,X,None,nogo,l,0,,0.5656668239971623,,,,,,,,,,,,,,,,,53,001,18,m,Psychologie,2023-01-23_14h00.54.889,00_bat_bachelor,2022.2.4,59.8937449263197,
,,,,,,,,,,,,0,0,0,0,11,0,11,0,,,,,,,11,,,1,1201.8596567952773,Y,d,go,d,1,,0.5935383255127817,,,,,,,,,,,,,,,,,53,001,18,m,Psychologie,2023-01-23_14h00.54.889,00_bat_bachelor,2022.2.4,59.8937449263197,
,,,,,,,,,,,,0,0,0,0,12,0,12,0,,,,,,,12,,,1,1203.5614983943524,X,l,go,l,1,,0.4755708675365895,,,,,,,,,,,,,,,,,53,001,18,m,Psychologie,2023-01-23_14h00.54.889,00_bat_bachelor,2022.2.4,59.8937449263197,
,,,,,,,,,,,,0,0,0,0,13,0,13,0,,,,,,,13,,,1,1205.1458021110157,Y,d,go,d,1,,0.3959762394661084,,,,,,,,,,,,,,,,,53,001,18,m,Psychologie,2023-01-23_14h00.54.889,00_bat_bachelor,2022.2.4,59.8937449263197,
,,,,,,,,,,,,0,0,0,0,14,0,14,0,,,,,,,14,,,1,1206.6468501106137,X,l,go,l,1,,0.3990133289480582,,,,,,,,,,,,,,,,,53,001,18,m,Psychologie,2023-01-23_14h00.54.889,00_bat_bachelor,2022.2.4,59.8937449263197,
,,,,,,,,,,,,0,0,0,0,15,0,15,0,,,,,,,15,,,1,1208.1484299885342,Y,d,go,d,1,,0.528986114426516,,,,,,,,,,,,,,,,,53,001,18,m,Psychologie,2023-01-23_14h00.54.889,00_bat_bachelor,2022.2.4,59.8937449263197,
,,,,,,,,,,,,0,0,0,0,16,0,16,0,,,,,,,16,,,1,1209.7828098022146,X,l,go,l,1,,0.33403881487902254,,,,,,,,,,,,,,,,,53,001,18,m,Psychologie,2023-01-23_14h00.54.889,00_bat_bachelor,2022.2.4,59.8937449263197,
,,,,,,,,,,,,0,0,0,0,17,0,17,0,,,,,,,17,,,1,1211.23391843203,X,None,nogo,None,1,1212.0344998619985,,,,,,,,,,,,,,,,,,53,001,18,m,Psychologie,2023-01-23_14h00.54.889,00_bat_bachelor,2022.2.4,59.8937449263197,
,,,,,,,,,,,,0,0,0,0,18,0,18,0,,,,,,,18,,,1,1213.0352780434769,Y,d,go,d,1,,0.3618788014864549,,,,,,,,,,,,,,,,,53,001,18,m,Psychologie,2023-01-23_14h00.54.889,00_bat_bachelor,2022.2.4,59.8937449263197,
,,,,,,,,,,,,0,0,0,0,19,0,19,0,,,,,,,19,,,1,1214.5196075056447,X,l,go,l,1,,0.41377210966311395,,,,,,,,,,,,,,,,,53,001,18,m,Psychologie,2023-01-23_14h00.54.889,00_bat_bachelor,2022.2.4,59.8937449263197,
,,,,,,,,,,,,0,0,0,0,20,0,20,0,,,,,,,20,,,1,1216.0373497999972,X,None,nogo,None,1,,,,,,,,,,,,,,,,,,,53,001,18,m,Psychologie,2023-01-23_14h00.54.889,00_bat_bachelor,2022.2.4,59.8937449263197,
,,,,,,,,,,,,0,0,0,0,21,0,21,0,,,,,,,21,,,1,1217.8387675932609,X,None,nogo,None,1,,,,,,,,,,,,,,,,,,,53,001,18,m,Psychologie,2023-01-23_14h00.54.889,00_bat_bachelor,2022.2.4,59.8937449263197,
,,,,,,,,,,,,0,0,0,0,22,0,22,0,,,,,,,22,,,1,1219.639921144233,Y,d,go,d,1,,0.316241005435586,,,,,,,,,,,,,,,,,53,001,18,m,Psychologie,2023-01-23_14h00.54.889,00_bat_bachelor,2022.2.4,59.8937449263197,
,,,,,,,,,,,,0,0,0,0,23,0,23,0,,,,,,,23,,,1,1221.0578331840225,X,l,go,l,1,,0.4506399704841897,,,,,,,,,,,,,,,,,53,001,18,m,Psychologie,2023-01-23_14h00.54.889,00_bat_bachelor,2022.2.4,59.8937449263197,
,,,,,,,,,,,,0,0,0,0,24,0,24,0,,,,,,,24,,,1,1222.6091037045699,X,None,nogo,None,1,1223.4098107103491,,,,,,,,,,,,,,,,,,53,001,18,m,Psychologie,2023-01-23_14h00.54.889,00_bat_bachelor,2022.2.4,59.8937449263197,
,,,,,,,,,,,,0,0,0,0,25,0,25,0,,,,,,,25,,,1,1224.410403679707,Y,d,go,d,1,,0.3155248846160248,,,,,,,,,,,,,,,,,53,001,18,m,Psychologie,2023-01-23_14h00.54.889,00_bat_bachelor,2022.2.4,59.8937449263197,
,,,,,,,,,,,,0,0,0,0,26,0,26,0,,,,,,,26,,,1,1225.8279579015216,X,l,go,l,1,,0.4006012069294229,,,,,,,,,,,,,,,,,53,001,18,m,Psychologie,2023-01-23_14h00.54.889,00_bat_bachelor,2022.2.4,59.8937449263197,
,,,,,,,,,,,,0,0,0,0,27,0,27,0,,,,,,,27,,,1,1227.329360809992,Y,d,go,d,1,,0.4351306448224932,,,,,,,,,,,,,,,,,53,001,18,m,Psychologie,2023-01-23_14h00.54.889,00_bat_bachelor,2022.2.4,59.8937449263197,
,,,,,,,,,,,,0,0,0,0,28,0,28,0,,,,,,,28,,,1,1228.8802099974127,X,l,go,l,1,,0.3880135767394677,,,,,,,,,,,,,,,,,53,001,18,m,Psychologie,2023-01-23_14h00.54.889,00_bat_bachelor,2022.2.4,59.8937449263197,
,,,,,,,,,,,,0,0,0,0,29,0,29,0,,,,,,,29,,,1,1230.3815930270357,X,None,nogo,None,1,,,,,,,,,,,,,,,,,,,53,001,18,m,Psychologie,2023-01-23_14h00.54.889,00_bat_bachelor,2022.2.4,59.8937449263197,
,,,,,,,,,,,,0,0,0,0,30,0,30,0,,,,,,,30,,,1,1232.182900274871,Y,d,go,d,1,,0.3020184668712318,,,,,,,,,,,,,,,,,53,001,18,m,Psychologie,2023-01-23_14h00.54.889,00_bat_bachelor,2022.2.4,59.8937449263197,
,,,,,,,,,,,,0,0,0,0,31,0,31,0,,,,,,,31,,,1,1233.6004864966962,X,l,go,l,1,,0.4673473563743755,,,,,,,,,,,,,,,,,53,001,18,m,Psychologie,2023-01-23_14h00.54.889,00_bat_bachelor,2022.2.4,59.8937449263197,
,,,,,,,,,,,,0,0,0,0,32,0,32,0,,,,,,,32,,,1,1235.185244031367,X,None,nogo,l,0,,0.45146227325312793,,,,,,,,,,,,,,,,,53,001,18,m,Psychologie,2023-01-23_14h00.54.889,00_bat_bachelor,2022.2.4,59.8937449263197,
,,,,,,,,,,,,0,0,0,0,33,0,33,0,,,,,,,33,,,1,1236.7531879984308,Y,d,go,d,1,,0.5478486507199705,,,,,,,,,,,,,,,,,53,001,18,m,Psychologie,2023-01-23_14h00.54.889,00_bat_bachelor,2022.2.4,59.8937449263197,
,,,,,,,,,,,,0,0,0,0,34,0,34,0,,,,,,,34,,,1,1238.4044298644876,X,l,go,None,0,,,,,,,,,,,,,,,,,,,53,001,18,m,Psychologie,2023-01-23_14h00.54.889,00_bat_bachelor,2022.2.4,59.8937449263197,
,,,,,,,,,,,,0,0,0,0,35,0,35,0,,,,,,,35,,,1,1240.2058248698013,Y,d,go,d,1,,0.392378180520609,,,,,,,,,,,,,,,,,53,001,18,m,Psychologie,2023-01-23_14h00.54.889,00_bat_bachelor,2022.2.4,59.8937449263197,
,,,,,,,,,,,,0,0,0,0,36,0,36,0,,,,,,,36,,,1,1241.706673111883,Y,None,nogo,None,1,,,,,,,,,,,,,,,,,,,53,001,18,m,Psychologie,2023-01-23_14h00.54.889,00_bat_bachelor,2022.2.4,59.8937449263197,
,,,,,,,,,,,,0,0,0,0,37,0,37,0,,,,,,,37,,,1,1243.5083246019203,X,l,go,l,1,,0.3045367687009275,,,,,,,,,,,,,,,,,53,001,18,m,Psychologie,2023-01-23_14h00.54.889,00_bat_bachelor,2022.2.4,59.8937449263197,
,,,,,,,,,,,,0,0,0,0,38,0,38,0,,,,,,,38,,,1,1244.9260630661156,Y,d,go,d,1,,0.40789380948990583,,,,,,,,,,,,,,,,,53,001,18,m,Psychologie,2023-01-23_14h00.54.889,00_bat_bachelor,2022.2.4,59.8937449263197,
,,,,,,,,,,,,0,0,0,0,39,0,39,0,,,,,,,39,,,1,1246.4438708149828,X,l,go,l,1,,0.48933522461447865,,,,,,,,,,,,,,,,,53,001,18,m,Psychologie,2023-01-23_14h00.54.889,00_bat_bachelor,2022.2.4,59.8937449263197,
,,,,,,,,,,,,0,0,0,0,40,0,40,0,,,,,,,40,,,1,1248.0449871296296,X,None,nogo,None,1,,,,,,,,,,,,,,,,,,,53,001,18,m,Psychologie,2023-01-23_14h00.54.889,00_bat_bachelor,2022.2.4,59.8937449263197,
,,,,,,,,,,,,0,0,0,0,41,0,41,0,,,,,,,41,,,1,1249.8464878319064,Y,d,go,d,1,,0.44668409368023276,,,,,,,,,,,,,,,,,53,001,18,m,Psychologie,2023-01-23_14h00.54.889,00_bat_bachelor,2022.2.4,59.8937449263197,
,,,,,,,,,,,,0,0,0,0,42,0,42,0,,,,,,,42,,,1,1251.3973961708834,X,l,go,l,1,,0.4320862825261429,,,,,,,,,,,,,,,,,53,001,18,m,Psychologie,2023-01-23_14h00.54.889,00_bat_bachelor,2022.2.4,59.8937449263197,
,,,,,,,,,,,,0,0,0,0,43,0,43,0,,,,,,,43,,,1,1252.9319345783442,Y,d,go,d,1,,0.40098860079888254,,,,,,,,,,,,,,,,,53,001,18,m,Psychologie,2023-01-23_14h00.54.889,00_bat_bachelor,2022.2.4,59.8937449263197,
,,,,,,,,,,,,0,0,0,0,44,0,44,0,,,,,,,44,,,1,1254.4497529939981,Y,None,nogo,None,1,,,,,,,,,,,,,,,,,,,53,001,18,m,Psychologie,2023-01-23_14h00.54.889,00_bat_bachelor,2022.2.4,59.8937449263197,
,,,,,,,,,,,,0,0,0,0,45,0,45,0,,,,,,,45,,,1,1256.2517273930134,X,l,go,l,1,,0.313515673391521,,,,,,,,,,,,,,,,,53,001,18,m,Psychologie,2023-01-23_14h00.54.889,00_bat_bachelor,2022.2.4,59.8937449263197,
,,,,,,,,,,,,0,0,0,0,46,0,46,0,,,,,,,46,,,1,1257.6694658572087,Y,d,go,d,1,,0.4802923199022189,,,,,,,,,,,,,,,,,53,001,18,m,Psychologie,2023-01-23_14h00.54.889,00_bat_bachelor,2022.2.4,59.8937449263197,
,,,,,,,,,,,,0,0,0,0,47,0,47,0,,,,,,,47,,,1,1259.2535979376407,X,l,go,l,1,,0.2871404135366902,,,,,,,,,,,,,,,,,53,001,18,m,Psychologie,2023-01-23_14h00.54.889,00_bat_bachelor,2022.2.4,59.8937449263197,
,,,,,,,,,,,,0,0,0,0,48,0,48,0,,,,,,,48,,,1,1260.6547371370252,Y,d,go,d,1,,0.2945707128383219,,,,,,,,,,,,,,,,,53,001,18,m,Psychologie,2023-01-23_14h00.54.889,00_bat_bachelor,2022.2.4,59.8937449263197,
,,,,,,,,,,,,0,0,0,0,49,0,49,0,,,,,,,49,,,1,1262.0557914880337,X,l,go,l,1,,0.34855274739675224,,,,,,,,,,,,,,,,,53,001,18,m,Psychologie,2023-01-23_14h00.54.889,00_bat_bachelor,2022.2.4,59.8937449263197,
,,,,,,,,,,,,0,0,0,0,50,0,50,0,,,,,,,50,,,1,1263.5071677539963,X,None,nogo,None,1,,,,,,,,,,,,,,,,,,,53,001,18,m,Psychologie,2023-01-23_14h00.54.889,00_bat_bachelor,2022.2.4,59.8937449263197,
,,,,,,,,,,,,0,0,0,0,51,0,51,0,,,,,,,51,,,1,1265.3082146383822,Y,d,go,d,1,,0.3605503172148019,,,,,,,,,,,,,,,,,53,001,18,m,Psychologie,2023-01-23_14h00.54.889,00_bat_bachelor,2022.2.4,59.8937449263197,
,,,,,,,,,,,,0,0,0,0,52,0,52,0,,,,,,,52,,,1,1266.7760495630791,X,l,go,l,1,,0.3337988150306046,,,,,,,,,,,,,,,,,53,001,18,m,Psychologie,2023-01-23_14h00.54.889,00_bat_bachelor,2022.2.4,59.8937449263197,
,,,,,,,,,,,,0,0,0,0,53,0,53,0,,,,,,,53,,,1,1268.210444019176,Y,d,go,d,1,,0.4343602207954973,,,,,,,,,,,,,,,,,53,001,18,m,Psychologie,2023-01-23_14h00.54.889,00_bat_bachelor,2022.2.4,59.8937449263197,
,,,,,,,,,,,,0,0,0,0,54,0,54,0,,,,,,,54,,,1,1269.7615181761794,Y,None,nogo,None,1,,,,,,,,,,,,,,,,,,,53,001,18,m,Psychologie,2023-01-23_14h00.54.889,00_bat_bachelor,2022.2.4,59.8937449263197,
,,,,,,,,,,,,0,0,0,0,55,0,55,0,,,,,,,55,,,1,1271.5627929392504,Y,None,nogo,l,0,,0.2814555676886812,,,,,,,,,,,,,,,,,53,001,18,m,Psychologie,2023-01-23_14h00.54.889,00_bat_bachelor,2022.2.4,59.8937449263197,
,,,,,,,,,,,,0,0,0,0,56,0,56,0,,,,,,,56,,,1,1272.9471937224735,X,l,go,l,1,,0.32167324516922235,,,,,,,,,,,,,,,,,53,001,18,m,Psychologie,2023-01-23_14h00.54.889,00_bat_bachelor,2022.2.4,59.8937449263197,
,,,,,,,,,,,,0,0,0,0,57,0,57,0,,,,,,,57,,,1,1274.3816216330742,Y,d,go,d,1,,0.5666791870025918,,,,,,,,,,,,,,,,,53,001,18,m,Psychologie,2023-01-23_14h00.54.889,00_bat_bachelor,2022.2.4,59.8937449263197,
,,,,,,,,,,,,0,0,0,0,58,0,58,0,,,,,,,58,,,1,1276.0498734302819,X,l,go,l,1,,0.4670530535513535,,,,,,,,,,,,,,,,,53,001,18,m,Psychologie,2023-01-23_14h00.54.889,00_bat_bachelor,2022.2.4,59.8937449263197,
,,,,,,,,,,,,0,0,0,0,59,0,59,0,,,,,,,59,,,1,1277.6177010338288,X,None,nogo,None,1,,,,,,,,,,,,,,,,,,,53,001,18,m,Psychologie,2023-01-23_14h00.54.889,00_bat_bachelor,2022.2.4,59.8937449263197,
,,,,,,,,,,,,0,0,0,0,60,0,60,0,,,,,,,60,,,1,1279.418956402922,Y,d,go,d,1,,0.3308344528777525,,,,,,,,,,,,,,,,,53,001,18,m,Psychologie,2023-01-23_14h00.54.889,00_bat_bachelor,2022.2.4,59.8937449263197,
,,,,,,,,,,,,0,0,0,0,61,0,61,0,,,,,,,61,,,1,1280.8531656468986,X,l,go,l,1,,0.5907926298677921,,,,,,,,,,,,,,,,,53,001,18,m,Psychologie,2023-01-23_14h00.54.889,00_bat_bachelor,2022.2.4,59.8937449263197,
,,,,,,,,,,,,0,0,0,0,62,0,62,0,,,,,,,62,,,1,1282.5544588826597,Y,d,go,d,1,,0.4413788841338828,,,,,,,,,,,,,,,,,53,001,18,m,Psychologie,2023-01-23_14h00.54.889,00_bat_bachelor,2022.2.4,59.8937449263197,
,,,,,,,,,,,,0,0,0,0,63,0,63,0,,,,,,,63,,,1,1284.1060309788445,Y,None,nogo,None,1,,,,,,,,,,,,,,,,,,,53,001,18,m,Psychologie,2023-01-23_14h00.54.889,00_bat_bachelor,2022.2.4,59.8937449263197,
,,,,,,,,,,,,0,0,0,0,64,0,64,0,,,,,,,64,,,1,1285.9070065905107,X,l,go,l,1,,0.2737125412095338,,,,,,,,,,,,,,,,,53,001,18,m,Psychologie,2023-01-23_14h00.54.889,00_bat_bachelor,2022.2.4,59.8937449263197,
,,,,,,,,,,,,0,0,0,0,65,0,65,0,,,,,,,65,,,1,1287.2916793737095,Y,d,go,d,1,,0.4895422547124326,,,,,,,,,,,,,,,,,53,001,18,m,Psychologie,2023-01-23_14h00.54.889,00_bat_bachelor,2022.2.4,59.8937449263197,
,,,,,,,,,,,,0,0,0,0,66,0,66,0,,,,,,,66,,,1,1288.8927913246443,Y,None,nogo,None,1,,,,,,,,,,,,,,,,,,,53,001,18,m,Psychologie,2023-01-23_14h00.54.889,00_bat_bachelor,2022.2.4,59.8937449263197,
,,,,,,,,,,,,0,0,0,0,67,0,67,0,,,,,,,67,,,1,1290.6946231783368,X,l,go,l,1,,0.2544029748532921,,,,,,,,,,,,,,,,,53,001,18,m,Psychologie,2023-01-23_14h00.54.889,00_bat_bachelor,2022.2.4,59.8937449263197,
,,,,,,,,,,,,0,0,0,0,68,0,68,0,,,,,,,68,,,1,1292.061840454815,Y,d,go,d,1,,0.4865095289424062,,,,,,,,,,,,,,,,,53,001,18,m,Psychologie,2023-01-23_14h00.54.889,00_bat_bachelor,2022.2.4,59.8937449263197,
,,,,,,,,,,,,0,0,0,0,69,0,69,0,,,,,,,69,,,1,1293.6632835571654,X,l,go,l,1,,0.278973629581742,,,,,,,,,,,,,,,,,53,001,18,m,Psychologie,2023-01-23_14h00.54.889,00_bat_bachelor,2022.2.4,59.8937449263197,
,,,,,,,,,,,,0,0,0,0,70,0,70,0,,,,,,,70,,,1,1295.0475849466166,Y,d,go,d,1,,0.46206687414087355,,,,,,,,,,,,,,,,,53,001,18,m,Psychologie,2023-01-23_14h00.54.889,00_bat_bachelor,2022.2.4,59.8937449263197,
,,,,,,,,,,,,0,0,0,0,71,0,71,0,,,,,,,71,,,1,1296.6155158227775,X,l,go,l,1,,0.2690056343562901,,,,,,,,,,,,,,,,,53,001,18,m,Psychologie,2023-01-23_14h00.54.889,00_bat_bachelor,2022.2.4,59.8937449263197,
,,,,,,,,,,,,0,0,0,0,72,0,72,0,,,,,,,72,,,1,1297.9997294546338,X,None,nogo,None,1,1298.8002255513566,,,,,,,,,,,,,,,,,,53,001,18,m,Psychologie,2023-01-23_14h00.54.889,00_bat_bachelor,2022.2.4,59.8937449263197,
,,,,,,,,,,,,0,0,0,0,73,0,73,0,,,,,,,73,,,1,1299.801221914473,Y,d,go,d,1,,0.31557094515301287,,,,,,,,,,,,,,,,,53,001,18,m,Psychologie,2023-01-23_14h00.54.889,00_bat_bachelor,2022.2.4,59.8937449263197,
,,,,,,,,,,,,0,0,0,0,74,0,74,0,,,,,,,74,,,1,1301.218892499921,X,l,go,l,1,,0.35399759316351265,,,,,,,,,,,,,,,,,53,001,18,m,Psychologie,2023-01-23_14h00.54.889,00_bat_bachelor,2022.2.4,59.8937449263197,
,,,,,,,,,,,,0,0,0,0,75,0,75,0,,,,,,,75,,,1,1302.686741485144,Y,d,go,d,1,,0.3581609850516543,,,,,,,,,,,,,,,,,53,001,18,m,Psychologie,2023-01-23_14h00.54.889,00_bat_bachelor,2022.2.4,59.8937449263197,
,,,,,,,,,,,,0,0,0,0,76,0,76,0,,,,,,,76,,,1,1304.1543194402475,Y,None,nogo,l,0,,0.37768291507381946,,,,,,,,,,,,,,,,,53,001,18,m,Psychologie,2023-01-23_14h00.54.889,00_bat_bachelor,2022.2.4,59.8937449263197,
,,,,,,,,,,,,0,0,0,0,77,0,77,0,,,,,,,77,,,1,1305.6387308418052,X,l,go,l,1,,0.3991660560714081,,,,,,,,,,,,,,,,,53,001,18,m,Psychologie,2023-01-23_14h00.54.889,00_bat_bachelor,2022.2.4,59.8937449263197,
,,,,,,,,,,,,0,0,0,0,78,0,78,0,,,,,,,78,,,1,1307.1398792047985,Y,d,go,d,1,,0.448204577784054,,,,,,,,,,,,,,,,,53,001,18,m,Psychologie,2023-01-23_14h00.54.889,00_bat_bachelor,2022.2.4,59.8937449263197,
,,,,,,,,,,,,0,0,0,0,79,0,79,0,,,,,,,79,,,1,1308.691265119356,X,l,go,l,1,,0.6266660670517012,,,,,,,,,,,,,,,,,53,001,18,m,Psychologie,2023-01-23_14h00.54.889,00_bat_bachelor,2022.2.4,59.8937449263197,
,,,,,,,,,,,,0,0,0,0,80,0,80,0,,,,,,,80,,,1,1310.4260507024592,X,None,nogo,None,1,,,,,,,,,,,,,,,,,,,53,001,18,m,Psychologie,2023-01-23_14h00.54.889,00_bat_bachelor,2022.2.4,59.8937449263197,
,,,,,,,,,,,,0,0,0,0,81,0,81,0,,,,,,,81,,,1,1312.2273099503946,Y,d,go,d,1,,0.3535301994998008,,,,,,,,,,,,,,,,,53,001,18,m,Psychologie,2023-01-23_14h00.54.889,00_bat_bachelor,2022.2.4,59.8937449263197,
,,,,,,,,,,,,0,0,0,0,82,0,82,0,,,,,,,82,,,1,1313.6953116628574,X,l,go,l,1,,0.5337865969631821,,,,,,,,,,,,,,,,,53,001,18,m,Psychologie,2023-01-23_14h00.54.889,00_bat_bachelor,2022.2.4,59.8937449263197,
,,,,,,,,,,,,0,0,0,0,83,0,83,0,,,,,,,83,,,1,1315.3298393551959,Y,d,go,d,1,,0.49872237152885646,,,,,,,,,,,,,,,,,53,001,18,m,Psychologie,2023-01-23_14h00.54.889,00_bat_bachelor,2022.2.4,59.8937449263197,
,,,,,,,,,,,,0,0,0,0,84,0,84,0,,,,,,,84,,,1,1316.9309013667516,Y,None,nogo,None,1,,,,,,,,,,,,,,,,,,,53,001,18,m,Psychologie,2023-01-23_14h00.54.889,00_bat_bachelor,2022.2.4,59.8937449263197,
,,,,,,,,,,,,0,0,0,0,85,0,85,0,,,,,,,85,,,1,1318.732315766043,X,l,go,l,1,,0.24877873517107219,,,,,,,,,,,,,,,,,53,001,18,m,Psychologie,2023-01-23_14h00.54.889,00_bat_bachelor,2022.2.4,59.8937449263197,
,,,,,,,,,,,,0,0,0,0,86,0,86,0,,,,,,,86,,,1,1320.0835422624368,Y,d,go,d,1,,0.6265720064984635,,,,,,,,,,,,,,,,,53,001,18,m,Psychologie,2023-01-23_14h00.54.889,00_bat_bachelor,2022.2.4,59.8937449263197,
,,,,,,,,,,,,0,0,0,0,87,0,87,0,,,,,,,87,,,1,1321.8179913609056,Y,None,nogo,None,1,,,,,,,,,,,,,,,,,,,53,001,18,m,Psychologie,2023-01-23_14h00.54.889,00_bat_bachelor,2022.2.4,59.8937449263197,
,,,,,,,,,,,,0,0,0,0,88,0,88,0,,,,,,,88,,,1,1323.619361154153,X,l,go,l,1,,0.24234140489716083,,,,,,,,,,,,,,,,,53,001,18,m,Psychologie,2023-01-23_14h00.54.889,00_bat_bachelor,2022.2.4,59.8937449263197,
,,,,,,,,,,,,0,0,0,0,89,0,89,0,,,,,,,89,,,1,1324.9701381962514,Y,d,go,d,1,,0.33086208917666227,,,,,,,,,,,,,,,,,53,001,18,m,Psychologie,2023-01-23_14h00.54.889,00_bat_bachelor,2022.2.4,59.8937449263197,
,,,,,,,,,,,,0,0,0,0,90,0,90,0,,,,,,,90,,,1,1326.4054417427396,Y,None,nogo,None,1,1327.2062660817755,,,,,,,,,,,,,,,,,,53,001,18,m,Psychologie,2023-01-23_14h00.54.889,00_bat_bachelor,2022.2.4,59.8937449263197,
,,,,,,,,,,,,0,0,0,0,91,0,91,0,,,,,,,91,,,1,1328.206732505816,X,l,go,l,1,,0.29445774329360574,,,,,,,,,,,,,,,,,53,001,18,m,Psychologie,2023-01-23_14h00.54.889,00_bat_bachelor,2022.2.4,59.8937449263197,
,,,,,,,,,,,,0,0,0,0,92,0,92,0,,,,,,,92,,,1,1329.6080530384788,Y,d,go,d,1,,0.4917730415472761,,,,,,,,,,,,,,,,,53,001,18,m,Psychologie,2023-01-23_14h00.54.889,00_bat_bachelor,2022.2.4,59.8937449263197,
,,,,,,,,,,,,0,0,0,0,93,0,93,0,,,,,,,93,,,1,1331.2423766097054,X,l,go,l,1,,0.31378912774380296,,,,,,,,,,,,,,,,,53,001,18,m,Psychologie,2023-01-23_14h00.54.889,00_bat_bachelor,2022.2.4,59.8937449263197,
,,,,,,,,,,,,0,0,0,0,94,0,94,0,,,,,,,94,,,1,1332.6934498455375,Y,d,go,d,1,,0.31872924661729485,,,,,,,,,,,,,,,,,53,001,18,m,Psychologie,2023-01-23_14h00.54.889,00_bat_bachelor,2022.2.4,59.8937449263197,
,,,,,,,,,,,,0,0,0,0,95,0,95,0,,,,,,,95,,,1,1334.1279587257886,Y,None,nogo,None,1,1334.9284262164729,,,,,,,,,,,,,,,,,,53,001,18,m,Psychologie,2023-01-23_14h00.54.889,00_bat_bachelor,2022.2.4,59.8937449263197,
,,,,,,,,,,,,0,0,0,0,96,0,96,0,,,,,,,96,,,1,1335.929145246395,X,l,go,l,1,,0.2515641882782802,,,,,,,,,,,,,,,,,53,001,18,m,Psychologie,2023-01-23_14h00.54.889,00_bat_bachelor,2022.2.4,59.8937449263197,
,,,,,,,,,,,,0,0,0,0,97,0,97,0,,,,,,,97,,,1,1337.2968866438605,Y,d,go,d,1,,0.3402555392822251,,,,,,,,,,,,,,,,,53,001,18,m,Psychologie,2023-01-23_14h00.54.889,00_bat_bachelor,2022.2.4,59.8937449263197,
,,,,,,,,,,,,0,0,0,0,98,0,98,0,,,,,,,98,,,1,1338.7478808494052,Y,None,nogo,None,1,1339.5486174309626,,,,,,,,,,,,,,,,,,53,001,18,m,Psychologie,2023-01-23_14h00.54.889,00_bat_bachelor,2022.2.4,59.8937449263197,
,,,,,,,,,,,,0,0,0,0,99,0,99,0,,,,,,,99,,,1,1340.5496215516469,X,l,go,l,1,,0.2557983680162579,,,,,,,,,,,,,,,,,53,001,18,m,Psychologie,2023-01-23_14h00.54.889,00_bat_bachelor,2022.2.4,59.8937449263197,
,,,,,,,,,,,,0,0,0,0,100,0,100,0,,,,,,,100,,,1,1341.9170245249989,Y,d,go,d,1,,0.3281110601965338,,,,,,,,,,,,,,,,,53,001,18,m,Psychologie,2023-01-23_14h00.54.889,00_bat_bachelor,2022.2.4,59.8937449263197,
,,,,,,,,,,,,0,0,0,0,101,0,101,0,,,,,,,101,,,1,1343.3516124355374,Y,None,nogo,l,0,,0.20484033215325326,,,,,,,,,,,,,,,,,53,001,18,m,Psychologie,2023-01-23_14h00.54.889,00_bat_bachelor,2022.2.4,59.8937449263197,
,,,,,,,,,,,,0,0,0,0,102,0,102,0,,,,,,,102,,,1,1344.6690057361266,X,l,go,l,1,,0.3268572426168248,,,,,,,,,,,,,,,,,53,001,18,m,Psychologie,2023-01-23_14h00.54.889,00_bat_bachelor,2022.2.4,59.8937449263197,
,,,,,,,,,,,,0,0,0,0,103,0,103,0,,,,,,,103,,,1,1346.1203010325553,Y,d,go,d,1,,0.4120208377717063,,,,,,,,,,,,,,,,,53,001,18,m,Psychologie,2023-01-23_14h00.54.889,00_bat_bachelor,2022.2.4,59.8937449263197,
,,,,,,,,,,,,0,0,0,0,104,0,104,0,,,,,,,104,,,1,1347.6379085391527,X,l,go,l,1,,0.4311510103289038,,,,,,,,,,,,,,,,,53,001,18,m,Psychologie,2023-01-23_14h00.54.889,00_bat_bachelor,2022.2.4,59.8937449263197,
,,,,,,,,,,,,0,0,0,0,105,0,105,0,,,,,,,105,,,1,1349.1726539768279,Y,d,go,d,1,,0.4006686008069664,,,,,,,,,,,,,,,,,53,001,18,m,Psychologie,2023-01-23_14h00.54.889,00_bat_bachelor,2022.2.4,59.8937449263197,
,,,,,,,,,,,,0,0,0,0,106,0,106,0,,,,,,,106,,,1,1350.673756764154,X,l,go,l,1,,0.5474661054322496,,,,,,,,,,,,,,,,,53,001,18,m,Psychologie,2023-01-23_14h00.54.889,00_bat_bachelor,2022.2.4,59.8937449263197,
,,,,,,,,,,,,0,0,0,0,107,0,107,0,,,,,,,107,,,1,1352.3248982666992,Y,d,go,d,1,,0.2710870879236609,,,,,,,,,,,,,,,,,53,001,18,m,Psychologie,2023-01-23_14h00.54.889,00_bat_bachelor,2022.2.4,59.8937449263197,
,,,,,,,,,,,,0,0,0,0,108,0,108,0,,,,,,,108,,,1,1353.7093722621212,Y,None,nogo,None,1,,,,,,,,,,,,,,,,,,,53,001,18,m,Psychologie,2023-01-23_14h00.54.889,00_bat_bachelor,2022.2.4,59.8937449263197,
,,,,,,,,,,,,0,0,0,0,109,0,109,0,,,,,,,109,,,1,1355.510791025008,X,l,go,l,1,,0.3503054737811908,,,,,,,,,,,,,,,,,53,001,18,m,Psychologie,2023-01-23_14h00.54.889,00_bat_bachelor,2022.2.4,59.8937449263197,
,,,,,,,,,,,,0,0,0,0,110,0,110,0,,,,,,,110,,,1,1356.961890442646,Y,d,go,d,1,,0.35481941094622016,,,,,,,,,,,,,,,,,53,001,18,m,Psychologie,2023-01-23_14h00.54.889,00_bat_bachelor,2022.2.4,59.8937449263197,
,,,,,,,,,,,,0,0,0,0,111,0,111,0,,,,,,,111,,,1,1358.4297059733653,X,l,go,l,1,,0.375255279825069,,,,,,,,,,,,,,,,,53,001,18,m,Psychologie,2023-01-23_14h00.54.889,00_bat_bachelor,2022.2.4,59.8937449263197,
,,,,,,,,,,,,0,0,0,0,112,0,112,0,,,,,,,112,,,1,1359.9140077992342,X,None,nogo,None,1,1360.7147312897723,,,,,,,,,,,,,,,,,,53,001,18,m,Psychologie,2023-01-23_14h00.54.889,00_bat_bachelor,2022.2.4,59.8937449263197,
,,,,,,,,,,,,0,0,0,0,113,0,113,0,,,,,,,113,,,1,1361.7153388046427,Y,d,go,d,1,,0.35321698745246977,,,,,,,,,,,,,,,,,53,001,18,m,Psychologie,2023-01-23_14h00.54.889,00_bat_bachelor,2022.2.4,59.8937449263197,
,,,,,,,,,,,,0,0,0,0,114,0,114,0,,,,,,,114,,,1,1363.1833036686294,X,l,go,l,1,,0.37430691660847515,,,,,,,,,,,,,,,,,53,001,18,m,Psychologie,2023-01-23_14h00.54.889,00_bat_bachelor,2022.2.4,59.8937449263197,
,,,,,,,,,,,,0,0,0,0,115,0,115,0,,,,,,,115,,,1,1364.66777567612,X,None,nogo,d,0,,0.40941477846354246,,,,,,,,,,,,,,,,,53,001,18,m,Psychologie,2023-01-23_14h00.54.889,00_bat_bachelor,2022.2.4,59.8937449263197,
,,,,,,,,,,,,0,0,0,0,116,0,116,0,,,,,,,116,,,1,1366.1853749403963,Y,d,go,d,1,,0.34676365728955716,,,,,,,,,,,,,,,,,53,001,18,m,Psychologie,2023-01-23_14h00.54.889,00_bat_bachelor,2022.2.4,59.8937449263197,
,,,,,,,,,,,,0,0,0,0,117,0,117,0,,,,,,,117,,,1,1367.6365112065105,X,l,go,l,1,,0.4641308730933815,,,,,,,,,,,,,,,,,53,001,18,m,Psychologie,2023-01-23_14h00.54.889,00_bat_bachelor,2022.2.4,59.8937449263197,
,,,,,,,,,,,,0,0,0,0,118,0,118,0,,,,,,,118,,,1,1369.2212255896302,Y,d,go,d,1,,0.5767325154738501,,,,,,,,,,,,,,,,,53,001,18,m,Psychologie,2023-01-23_14h00.54.889,00_bat_bachelor,2022.2.4,59.8937449263197,
,,,,,,,,,,,,0,0,0,0,119,0,119,0,,,,,,,119,,,1,1370.9059588334057,X,l,go,l,1,,0.2990473167737946,,,,,,,,,,,,,,,,,53,001,18,m,Psychologie,2023-01-23_14h00.54.889,00_bat_bachelor,2022.2.4,59.8937449263197,
,,,,,,,,,,,,0,0,0,0,120,0,120,0,,,,,,,120,,,1,1372.3067145178793,Y,d,go,d,1,,0.45010615268256515,,,,,,,,,,,,,,,,,53,001,18,m,Psychologie,2023-01-23_14h00.54.889,00_bat_bachelor,2022.2.4,59.8937449263197,
,,,,,,,,,,,,0,0,0,0,121,0,121,0,,,,,,,121,,,1,1373.8581169171957,X,l,go,l,1,,0.46645426598843187,,,,,,,,,,,,,,,,,53,001,18,m,Psychologie,2023-01-23_14h00.54.889,00_bat_bachelor,2022.2.4,59.8937449263197,
,,,,,,,,,,,,0,0,0,0,122,0,122,0,,,,,,,122,,,1,1375.4259391874075,X,None,nogo,None,1,1376.226341223577,,,,,,,,,,,,,,,,,,53,001,18,m,Psychologie,2023-01-23_14h00.54.889,00_bat_bachelor,2022.2.4,59.8937449263197,
,,,,,,,,,,,,0,0,0,0,123,0,123,0,,,,,,,123,,,1,1377.2272745564114,Y,d,go,d,1,,0.3292436657939106,,,,,,,,,,,,,,,,,53,001,18,m,Psychologie,2023-01-23_14h00.54.889,00_bat_bachelor,2022.2.4,59.8937449263197,
,,,,,,,,,,,,0,0,0,0,124,0,124,0,,,,,,,124,,,1,1378.6617756790947,X,l,go,l,1,,0.3671423140913248,,,,,,,,,,,,,,,,,53,001,18,m,Psychologie,2023-01-23_14h00.54.889,00_bat_bachelor,2022.2.4,59.8937449263197,
,,,,,,,,,,,,0,0,0,0,125,0,125,0,,,,,,,125,,,1,1380.129322603927,Y,d,go,d,1,,0.2596369116799906,,,,,,,,,,,,,,,,,53,001,18,m,Psychologie,2023-01-23_14h00.54.889,00_bat_bachelor,2022.2.4,59.8937449263197,
,,,,,,,,,,,,0,0,0,0,126,0,126,0,,,,,,,126,,,1,1381.4972560012247,Y,None,nogo,None,1,1382.2978897949215,,,,,,,,,,,,,,,,,,53,001,18,m,Psychologie,2023-01-23_14h00.54.889,00_bat_bachelor,2022.2.4,59.8937449263197,
,,,,,,,,,,,,0,0,0,0,127,0,127,0,,,,,,,127,,,1,1383.2984493097756,X,l,go,l,1,,0.17820131476037204,,,,,,,,,,,,,,,,,53,001,18,m,Psychologie,2023-01-23_14h00.54.889,00_bat_bachelor,2022.2.4,59.8937449263197,
,,,,,,,,,,,,0,0,0,0,128,0,128,0,,,,,,,128,,,1,1384.5830334142083,Y,d,go,d,1,,0.3494191712234169,,,,,,,,,,,,,,,,,53,001,18,m,Psychologie,2023-01-23_14h00.54.889,00_bat_bachelor,2022.2.4,59.8937449263197,
,,,,,,,,,,,,0,0,0,0,129,0,129,0,,,,,,,129,,,1,1386.0508169450331,X,l,go,l,1,,0.43436361476778984,,,,,,,,,,,,,,,,,53,001,18,m,Psychologie,2023-01-23_14h00.54.889,00_bat_bachelor,2022.2.4,59.8937449263197,
,,,,,,,,,,,,0,0,0,0,130,0,130,0,,,,,,,130,,,1,1387.6019017687067,X,None,nogo,d,0,,0.37120243336539716,,,,,,,,,,,,,,,,,53,001,18,m,Psychologie,2023-01-23_14h00.54.889,00_bat_bachelor,2022.2.4,59.8937449263197,
,,,,,,,,,,,,0,0,0,0,131,0,131,0,,,,,,,131,,,1,1389.0863902610727,X,None,nogo,None,1,1389.8868068427546,,,,,,,,,,,,,,,,,,53,001,18,m,Psychologie,2023-01-23_14h00.54.889,00_bat_bachelor,2022.2.4,59.8937449263197,
,,,,,,,,,,,,0,0,0,0,132,0,132,0,,,,,,,132,,,1,1390.8877552058548,Y,d,go,d,1,,0.4300756169250235,,,,,,,,,,,,,,,,,53,001,18,m,Psychologie,2023-01-23_14h00.54.889,00_bat_bachelor,2022.2.4,59.8937449263197,
,,,,,,,,,,,,0,0,0,0,133,0,133,0,,,,,,,133,,,1,1392.4223382193595,X,l,go,l,1,,0.3182225802447647,,,,,,,,,,,,,,,,,53,001,18,m,Psychologie,2023-01-23_14h00.54.889,00_bat_bachelor,2022.2.4,59.8937449263197,
,,,,,,,,,,,,0,0,0,0,134,0,134,0,,,,,,,134,,,1,1393.8566953421105,Y,d,go,d,1,,0.4036421752534807,,,,,,,,,,,,,,,,,53,001,18,m,Psychologie,2023-01-23_14h00.54.889,00_bat_bachelor,2022.2.4,59.8937449263197,
,,,,,,,,,,,,0,0,0,0,135,0,135,0,,,,,,,135,,,1,1395.3744856365956,X,l,go,l,1,,0.32612318242900074,,,,,,,,,,,,,,,,,53,001,18,m,Psychologie,2023-01-23_14h00.54.889,00_bat_bachelor,2022.2.4,59.8937449263197,
,,,,,,,,,,,,0,0,0,0,136,0,136,0,,,,,,,136,,,1,1396.8086910018465,X,None,nogo,None,1,1397.6095235832036,,,,,,,,,,,,,,,,,,53,001,18,m,Psychologie,2023-01-23_14h00.54.889,00_bat_bachelor,2022.2.4,59.8937449263197,
,,,,,,,,,,,,0,0,0,0,137,0,137,0,,,,,,,137,,,1,1398.6100830980577,Y,d,go,d,1,,0.29023374523967505,,,,,,,,,,,,,,,,,53,001,18,m,Psychologie,2023-01-23_14h00.54.889,00_bat_bachelor,2022.2.4,59.8937449263197,
,,,,,,,,,,,,0,0,0,0,138,0,138,0,,,,,,,138,,,1,1400.0113153883722,X,l,go,l,1,,0.4093260512454435,,,,,,,,,,,,,,,,,53,001,18,m,Psychologie,2023-01-23_14h00.54.889,00_bat_bachelor,2022.2.4,59.8937449263197,
,,,,,,,,,,,,0,0,0,0,139,0,139,0,,,,,,,139,,,1,1401.5289650767809,Y,d,go,d,1,,0.6673385321628302,,,,,,,,,,,,,,,,,53,001,18,m,Psychologie,2023-01-23_14h00.54.889,00_bat_bachelor,2022.2.4,59.8937449263197,
,,,,,,,,,,,,0,0,0,0,140,0,140,0,,,,,,,140,,,1,1403.297199371038,X,l,go,l,1,,0.43488288728985935,,,,,,,,,,,,,,,,,53,001,18,m,Psychologie,2023-01-23_14h00.54.889,00_bat_bachelor,2022.2.4,59.8937449263197,
,,,,,,,,,,,,0,0,0,0,141,0,141,0,,,,,,,141,,,1,1404.8481401947793,Y,d,go,d,1,,0.5011538855032995,,,,,,,,,,,,,,,,,53,001,18,m,Psychologie,2023-01-23_14h00.54.889,00_bat_bachelor,2022.2.4,59.8937449263197,
,,,,,,,,,,,,0,0,0,0,142,0,142,0,,,,,,,142,,,1,1406.4657932285918,X,l,go,l,1,,0.6580735669704154,,,,,,,,,,,,,,,,,53,001,18,m,Psychologie,2023-01-23_14h00.54.889,00_bat_bachelor,2022.2.4,59.8937449263197,
,,,,,,,,,,,,0,0,0,0,143,0,143,0,,,,,,,143,,,1,1408.2339261895977,Y,d,go,d,1,,0.2670996958622709,,,,,,,,,,,,,,,,,53,001,18,m,Psychologie,2023-01-23_14h00.54.889,00_bat_bachelor,2022.2.4,59.8937449263197,
,,,,,,,,,,,,0,0,0,0,144,0,144,0,,,,,,,144,,,1,1409.6016515870579,X,l,go,l,1,,0.2433300104457885,,,,,,,,,,,,,,,,,53,001,18,m,Psychologie,2023-01-23_14h00.54.889,00_bat_bachelor,2022.2.4,59.8937449263197,
,,,,,,,,,,,,0,0,0,0,145,0,145,0,,,,,,,145,,,1,1410.9525188108673,Y,d,go,d,1,,0.1877043405547738,,,,,,,,,,,,,,,,,53,001,18,m,Psychologie,2023-01-23_14h00.54.889,00_bat_bachelor,2022.2.4,59.8937449263197,
,,,,,,,,,,,,0,0,0,0,146,0,146,0,,,,,,,146,,,1,1412.253801089013,Y,None,nogo,l,0,,0.2787302356446162,,,,,,,,,,,,,,,,,53,001,18,m,Psychologie,2023-01-23_14h00.54.889,00_bat_bachelor,2022.2.4,59.8937449263197,
,,,,,,,,,,,,0,0,0,0,147,0,147,0,,,,,,,147,,,1,1413.6379129027482,X,l,go,l,1,,0.5909157814458013,,,,,,,,,,,,,,,,,53,001,18,m,Psychologie,2023-01-23_14h00.54.889,00_bat_bachelor,2022.2.4,59.8937449263197,
,,,,,,,,,,,,0,0,0,0,148,0,148,0,,,,,,,148,,,1,1415.3393763202475,Y,d,go,d,1,,0.5214602998457849,,,,,,,,,,,,,,,,,53,001,18,m,Psychologie,2023-01-23_14h00.54.889,00_bat_bachelor,2022.2.4,59.8937449263197,
,,,,,,,,,,,,0,0,0,0,149,0,149,0,,,,,,,149,,,1,1416.9738249822985,X,l,go,None,0,1417.7746173213236,,,,,,,,,,,,,,,,,,53,001,18,m,Psychologie,2023-01-23_14h00.54.889,00_bat_bachelor,2022.2.4,59.8937449263197,
,,,,,,,,,,,,0,0,0,0,150,0,150,0,,,,,,,150,,,1,1418.7753237452125,X,None,nogo,None,1,,,,,,,,,,,,,,,,,,,53,001,18,m,Psychologie,2023-01-23_14h00.54.889,00_bat_bachelor,2022.2.4,59.8937449263197,
,,,,,,,,,,,,0,0,0,0,151,0,151,0,,,,,,,151,,,1,1420.5765107506886,Y,d,go,d,1,,0.30874040292110294,,,,,,,,,,,,,,,,,53,001,18,m,Psychologie,2023-01-23_14h00.54.889,00_bat_bachelor,2022.2.4,59.8937449263197,
,,,,,,,,,,,,0,0,0,0,152,0,152,0,,,,,,,152,,,1,1421.9942356391111,X,l,go,l,1,,0.410429565818049,,,,,,,,,,,,,,,,,53,001,18,m,Psychologie,2023-01-23_14h00.54.889,00_bat_bachelor,2022.2.4,59.8937449263197,
,,,,,,,,,,,,0,0,0,0,153,0,153,0,,,,,,,153,,,1,1423.5120792668313,Y,d,go,d,1,,0.4605827536433935,,,,,,,,,,,,,,,,,53,001,18,m,Psychologie,2023-01-23_14h00.54.889,00_bat_bachelor,2022.2.4,59.8937449263197,
,,,,,,,,,,,,0,0,0,0,154,0,154,0,,,,,,,154,,,1,1425.0801560822874,X,l,go,l,1,,0.5731000324012712,,,,,,,,,,,,,,,,,53,001,18,m,Psychologie,2023-01-23_14h00.54.889,00_bat_bachelor,2022.2.4,59.8937449263197,
,,,,,,,,,,,,0,0,0,0,155,0,155,0,,,,,,,155,,,1,1426.7646018110681,Y,d,go,d,1,,0.4086278696777299,,,,,,,,,,,,,,,,,53,001,18,m,Psychologie,2023-01-23_14h00.54.889,00_bat_bachelor,2022.2.4,59.8937449263197,
,,,,,,,,,,,,0,0,0,0,156,0,156,0,,,,,,,156,,,1,1428.2825651962776,Y,None,nogo,None,1,1429.0831980202347,,,,,,,,,,,,,,,,,,53,001,18,m,Psychologie,2023-01-23_14h00.54.889,00_bat_bachelor,2022.2.4,59.8937449263197,
,,,,,,,,,,,,0,0,0,0,157,0,157,0,,,,,,,157,,,1,1430.0838132926729,X,l,go,l,1,,0.2572500037495047,,,,,,,,,,,,,,,,,53,001,18,m,Psychologie,2023-01-23_14h00.54.889,00_bat_bachelor,2022.2.4,59.8937449263197,
,,,,,,,,,,,,0,0,0,0,158,0,158,0,,,,,,,158,,,1,1431.4516729930183,Y,d,go,d,1,,0.40922762698028237,,,,,,,,,,,,,,,,,53,001,18,m,Psychologie,2023-01-23_14h00.54.889,00_bat_bachelor,2022.2.4,59.8937449263197,
,,,,,,,,,,,,0,0,0,0,159,0,159,0,,,,,,,159,,,1,1432.9696232874412,X,l,go,l,1,,0.5713288817787543,,,,,,,,,,,,,,,,,53,001,18,m,Psychologie,2023-01-23_14h00.54.889,00_bat_bachelor,2022.2.4,59.8937449263197,
,,,,,,,,,,,,0,0,0,0,160,0,160,0,,,,,,,160,,,1,1434.653910955647,X,None,nogo,d,0,,0.32752924237865955,,,,,,,,,,,,,,,,,53,001,18,m,Psychologie,2023-01-23_14h00.54.889,00_bat_bachelor,2022.2.4,59.8937449263197,
,,,,,,,,,,,,0,0,0,0,161,0,161,0,,,,,,,161,,,1,1436.08831995714,Y,d,go,d,1,,0.3970715117175132,,,,,,,,,,,,,,,,,53,001,18,m,Psychologie,2023-01-23_14h00.54.889,00_bat_bachelor,2022.2.4,59.8937449263197,
,,,,,,,,,,,,0,0,0,0,162,0,162,0,,,,,,,162,,,1,1437.5894794716733,X,l,go,l,1,,0.5121589710470289,,,,,,,,,,,,,,,,,53,001,18,m,Psychologie,2023-01-23_14h00.54.889,00_bat_bachelor,2022.2.4,59.8937449263197,
,,,,,,,,,,,,0,0,0,0,163,0,163,0,,,,,,,163,,,1,1439.2075848690001,Y,d,go,None,0,1440.0079888445325,,,,,,,,,,,,,,,,,,53,001,18,m,Psychologie,2023-01-23_14h00.54.889,00_bat_bachelor,2022.2.4,59.8937449263197,
,,,,,,,,,,,,0,0,0,0,164,0,164,0,,,,,,,164,,,1,1441.0088077532127,Y,None,nogo,None,1,,,,,,,,,,,,,,,,,,,53,001,18,m,Psychologie,2023-01-23_14h00.54.889,00_bat_bachelor,2022.2.4,59.8937449263197,
,,,,,,,,,,,,0,0,0,0,165,0,165,0,,,,,,,165,,,1,1442.8101358495187,X,l,go,l,1,,0.37883491441607475,,,,,,,,,,,,,,,,,53,001,18,m,Psychologie,2023-01-23_14h00.54.889,00_bat_bachelor,2022.2.4,59.8937449263197,
,,,,,,,,,,,,0,0,0,0,166,0,166,0,,,,,,,166,,,1,1444.2949293114943,Y,d,go,d,1,,0.25360636913683265,,,,,,,,,,,,,,,,,53,001,18,m,Psychologie,2023-01-23_14h00.54.889,00_bat_bachelor,2022.2.4,59.8937449263197,
,,,,,,,,,,,,0,0,0,0,167,0,167,0,,,,,,,167,,,1,1445.6625131332548,Y,None,nogo,None,1,1446.4631066845031,,,,,,,,,,,,,,,,,,53,001,18,m,Psychologie,2023-01-23_14h00.54.889,00_bat_bachelor,2022.2.4,59.8937449263197,
,,,,,,,,,,,,0,0,0,0,168,0,168,0,,,,,,,168,,,1,1447.4638169872342,X,l,go,l,1,,0.2043719687499106,,,,,,,,,,,,,,,,,53,001,18,m,Psychologie,2023-01-23_14h00.54.889,00_bat_bachelor,2022.2.4,59.8937449263197,
,,,,,,,,,,,,0,0,0,0,169,0,169,0,,,,,,,169,,,1,1448.7813344090246,Y,d,go,d,1,,0.43962906673550606,,,,,,,,,,,,,,,,,53,001,18,m,Psychologie,2023-01-23_14h00.54.889,00_bat_bachelor,2022.2.4,59.8937449263197,
,,,,,,,,,,,,0,0,0,0,170,0,170,0,,,,,,,170,,,1,1450.332692202297,Y,None,nogo,None,1,,,,,,,,,,,,,,,,,,,53,001,18,m,Psychologie,2023-01-23_14h00.54.889,00_bat_bachelor,2022.2.4,59.8937449263197,
,,,,,,,,,,,,0,0,0,0,171,0,171,0,,,,,,,171,,,1,1452.1341386015993,X,l,go,l,1,,0.22224202065262944,,,,,,,,,,,,,,,,,53,001,18,m,Psychologie,2023-01-23_14h00.54.889,00_bat_bachelor,2022.2.4,59.8937449263197,
,,,,,,,,,,,,0,0,0,0,172,0,172,0,,,,,,,172,,,1,1453.4682790456573,Y,d,go,d,1,,0.4086438696831465,,,,,,,,,,,,,,,,,53,001,18,m,Psychologie,2023-01-23_14h00.54.889,00_bat_bachelor,2022.2.4,59.8937449263197,
,,,,,,,,,,,,0,0,0,0,173,0,173,0,,,,,,,173,,,1,1454.9860892187571,X,l,go,l,1,,0.45853911817539483,,,,,,,,,,,,,,,,,53,001,18,m,Psychologie,2023-01-23_14h00.54.889,00_bat_bachelor,2022.2.4,59.8937449263197,
,,,,,,,,,,,,0,0,0,0,174,0,174,0,,,,,,,174,,,1,1456.5541238525184,Y,d,go,d,1,,0.4587301485007629,,,,,,,,,,,,,,,,,53,001,18,m,Psychologie,2023-01-23_14h00.54.889,00_bat_bachelor,2022.2.4,59.8937449263197,
,,,,,,,,,,,,0,0,0,0,175,0,175,0,,,,,,,175,,,1,1458.1218312135898,Y,None,nogo,None,1,1458.9226317950524,,,,,,,,,,,,,,,,,,53,001,18,m,Psychologie,2023-01-23_14h00.54.889,00_bat_bachelor,2022.2.4,59.8937449263197,
,,,,,,,,,,,,0,0,0,0,176,0,176,0,,,,,,,176,,,1,1459.9233808856225,X,l,go,l,1,,0.32145360903814435,,,,,,,,,,,,,,,,,53,001,18,m,Psychologie,2023-01-23_14h00.54.889,00_bat_bachelor,2022.2.4,59.8937449263197,
,,,,,,,,,,,,0,0,0,0,177,0,177,0,,,,,,,177,,,1,1461.3579896445153,Y,d,go,d,1,,0.5829409973230213,,,,,,,,,,,,,,,,,53,001,18,m,Psychologie,2023-01-23_14h00.54.889,00_bat_bachelor,2022.2.4,59.8937449263197,
,,,,,,,,,,,,0,0,0,0,178,0,178,0,,,,,,,178,,,1,1463.0424256763654,Y,None,nogo,l,0,,0.257894366979599,,,,,,,,,,,,,,,,,53,001,18,m,Psychologie,2023-01-23_14h00.54.889,00_bat_bachelor,2022.2.4,59.8937449263197,
,,,,,,,,,,,,0,0,0,0,179,0,179,0,,,,,,,179,,,1,1464.4099227102706,X,l,go,l,1,,0.6022268061060458,,,,,,,,,,,,,,,,,53,001,18,m,Psychologie,2023-01-23_14h00.54.889,00_bat_bachelor,2022.2.4,59.8937449263197,
,,,,,,,,,,,,0,0,0,0,180,0,180,0,,,,,,,180,,,1,1466.1281361802248,Y,d,go,d,1,,0.4050157502060756,,,,,,,,,,,,,,,,,53,001,18,m,Psychologie,2023-01-23_14h00.54.889,00_bat_bachelor,2022.2.4,59.8937449263197,
,,,,,,,,,,,,0,0,0,0,181,0,181,0,,,,,,,181,,,1,1467.6459288989427,Y,None,nogo,None,1,,,,,,,,,,,,,,,,,,,53,001,18,m,Psychologie,2023-01-23_14h00.54.889,00_bat_bachelor,2022.2.4,59.8937449263197,
,,,,,,,,,,,,0,0,0,0,182,0,182,0,,,,,,,182,,,1,1469.4473166315584,X,l,go,l,1,,0.41440435172989964,,,,,,,,,,,,,,,,,53,001,18,m,Psychologie,2023-01-23_14h00.54.889,00_bat_bachelor,2022.2.4,59.8937449263197,
,,,,,,,,,,,,0,0,0,0,183,0,183,0,,,,,,,183,,,1,1470.965082683484,Y,d,go,d,1,,0.5752876676851884,,,,,,,,,,,,,,,,,53,001,18,m,Psychologie,2023-01-23_14h00.54.889,00_bat_bachelor,2022.2.4,59.8937449263197,
,,,,,,,,,,,,0,0,0,0,184,0,184,0,,,,,,,184,,,1,1472.6497175031109,X,l,go,l,1,,0.5387320491718128,,,,,,,,,,,,,,,,,53,001,18,m,Psychologie,2023-01-23_14h00.54.889,00_bat_bachelor,2022.2.4,59.8937449263197,
,,,,,,,,,,,,0,0,0,0,185,0,185,0,,,,,,,185,,,1,1474.301038884325,Y,d,go,d,1,,0.6154985573375598,,,,,,,,,,,,,,,,,53,001,18,m,Psychologie,2023-01-23_14h00.54.889,00_bat_bachelor,2022.2.4,59.8937449263197,
,,,,,,,,,,,,0,0,0,0,186,0,186,0,,,,,,,186,,,1,1476.0189808391733,Y,None,nogo,None,1,,,,,,,,,,,,,,,,,,,53,001,18,m,Psychologie,2023-01-23_14h00.54.889,00_bat_bachelor,2022.2.4,59.8937449263197,
,,,,,,,,,,,,0,0,0,0,187,0,187,0,,,,,,,187,,,1,1477.8203234809916,X,l,go,l,1,,0.28146235563326627,,,,,,,,,,,,,,,,,53,001,18,m,Psychologie,2023-01-23_14h00.54.889,00_bat_bachelor,2022.2.4,59.8937449263197,
,,,,,,,,,,,,0,0,0,0,188,0,188,0,,,,,,,188,,,1,1479.2045051129535,Y,d,go,d,1,,0.5443810160504654,,,,,,,,,,,,,,,,,53,001,18,m,Psychologie,2023-01-23_14h00.54.889,00_bat_bachelor,2022.2.4,59.8937449263197,
,,,,,,,,,,,,0,0,0,0,189,0,189,0,,,,,,,189,,,1,1480.855971948593,X,l,go,l,1,,0.39729551156051457,,,,,,,,,,,,,,,,,53,001,18,m,Psychologie,2023-01-23_14h00.54.889,00_bat_bachelor,2022.2.4,59.8937449263197,
,,,,,,,,,,,,0,0,0,0,190,0,190,0,,,,,,,190,,,1,1482.3571159479907,X,None,nogo,None,1,1483.1575974993175,,,,,,,,,,,,,,,,,,53,001,18,m,Psychologie,2023-01-23_14h00.54.889,00_bat_bachelor,2022.2.4,59.8937449263197,
,,,,,,,,,,,,0,0,0,0,191,0,191,0,,,,,,,191,,,1,1484.1586418624502,Y,d,go,d,1,,0.31068415963090956,,,,,,,,,,,,,,,,,53,001,18,m,Psychologie,2023-01-23_14h00.54.889,00_bat_bachelor,2022.2.4,59.8937449263197,
,,,,,,,,,,,,0,0,0,0,192,0,192,0,,,,,,,192,,,1,1485.5760515994625,X,l,go,l,1,,0.44484264007769525,,,,,,,,,,,,,,,,,53,001,18,m,Psychologie,2023-01-23_14h00.54.889,00_bat_bachelor,2022.2.4,59.8937449263197,
,,,,,,,,,,,,0,0,0,0,193,0,193,0,,,,,,,193,,,1,1487.1274176351726,X,None,nogo,d,0,,0.3495403832057491,,,,,,,,,,,,,,,,,53,001,18,m,Psychologie,2023-01-23_14h00.54.889,00_bat_bachelor,2022.2.4,59.8937449263197,
,,,,,,,,,,,,0,0,0,0,194,0,194,0,,,,,,,194,,,1,1488.5785466284724,Y,d,go,d,1,,0.338667661184445,,,,,,,,,,,,,,,,,53,001,18,m,Psychologie,2023-01-23_14h00.54.889,00_bat_bachelor,2022.2.4,59.8937449263197,
,,,,,,,,,,,,0,0,0,0,195,0,195,0,,,,,,,195,,,1,1490.029449197813,X,l,go,l,1,,0.5509264674037695,,,,,,,,,,,,,,,,,53,001,18,m,Psychologie,2023-01-23_14h00.54.889,00_bat_bachelor,2022.2.4,59.8937449263197,
,,,,,,,,,,,,0,0,0,0,196,0,196,0,,,,,,,196,,,1,1491.6810246394016,X,None,nogo,None,1,,,,,,,,,,,,,,,,,,,53,001,18,m,Psychologie,2023-01-23_14h00.54.889,00_bat_bachelor,2022.2.4,59.8937449263197,
,,,,,,,,,,,,0,0,0,0,197,0,197,0,,,,,,,197,,,1,1493.4822804933647,Y,d,go,d,1,,0.41104774735867977,,,,,,,,,,,,,,,,,53,001,18,m,Psychologie,2023-01-23_14h00.54.889,00_bat_bachelor,2022.2.4,59.8937449263197,
,,,,,,,,,,,,0,0,0,0,198,0,198,0,,,,,,,198,,,1,1495.0000431514345,X,l,go,None,0,1495.8006386420457,,,,,,,,,,,,,,,,,,53,001,18,m,Psychologie,2023-01-23_14h00.54.889,00_bat_bachelor,2022.2.4,59.8937449263197,
,,,,,,,,,,,,0,0,0,0,199,0,199,0,,,,,,,199,,,1,1496.8014439749531,Y,d,go,d,1,,0.43430737243033946,,,,,,,,,,,,,,,,,53,001,18,m,Psychologie,2023-01-23_14h00.54.889,00_bat_bachelor,2022.2.4,59.8937449263197,
,,,,,,,,,,,,0,0,0,0,200,0,200,0,,,,,,,200,,,1,1498.3524357078131,X,l,go,l,1,,0.2765765398507938,,,,,,,,,,,,,,,,,53,001,18,m,Psychologie,2023-01-23_14h00.54.889,00_bat_bachelor,2022.2.4,59.8937449263197,
,,,,,,,,,,,,0,0,0,0,201,0,201,0,,,,,,,201,,,1,1499.7370730971452,Y,d,go,d,1,,0.4607393596088514,,,,,,,,,,,,,,,,,53,001,18,m,Psychologie,2023-01-23_14h00.54.889,00_bat_bachelor,2022.2.4,59.8937449263197,
,,,,,,,,,,,,0,0,0,0,202,0,202,0,,,,,,,202,,,1,1501.3048803369747,Y,None,nogo,None,1,1502.1055432214634,,,,,,,,,,,,,,,,,,53,001,18,m,Psychologie,2023-01-23_14h00.54.889,00_bat_bachelor,2022.2.4,59.8937449263197,
,,,,,,,,,,,,0,0,0,0,203,0,203,0,,,,,,,203,,,1,1503.1062496453524,X,l,go,l,1,,0.29028950282372534,,,,,,,,,,,,,,,,,53,001,18,m,Psychologie,2023-01-23_14h00.54.889,00_bat_bachelor,2022.2.4,59.8937449263197,
,,,,,,,,,,,,0,0,0,0,204,0,204,0,,,,,,,204,,,1,1504.5072947843,Y,d,go,d,1,,0.4743791106157005,,,,,,,,,,,,,,,,,53,001,18,m,Psychologie,2023-01-23_14h00.54.889,00_bat_bachelor,2022.2.4,59.8937449263197,
,,,,,,,,,,,,0,0,0,0,205,0,205,0,,,,,,,205,,,1,1506.0916591070127,X,l,go,l,1,,0.37800485419575125,,,,,,,,,,,,,,,,,53,001,18,m,Psychologie,2023-01-23_14h00.54.889,00_bat_bachelor,2022.2.4,59.8937449263197,
,,,,,,,,,,,,0,0,0,0,206,0,206,0,,,,,,,206,,,1,1507.576137902448,Y,d,go,d,1,,0.5252139950171113,,,,,,,,,,,,,,,,,53,001,18,m,Psychologie,2023-01-23_14h00.54.889,00_bat_bachelor,2022.2.4,59.8937449263197,
,,,,,,,,,,,,0,0,0,0,207,0,207,0,,,,,,,207,,,1,1509.2108958977042,X,l,go,l,1,,0.34666038455907255,,,,,,,,,,,,,,,,,53,001,18,m,Psychologie,2023-01-23_14h00.54.889,00_bat_bachelor,2022.2.4,59.8937449263197,
,,,,,,,,,,,,0,0,0,0,208,0,208,0,,,,,,,208,,,1,1510.6620113153476,X,None,nogo,None,1,,,,,,,,,,,,,,,,,,,53,001,18,m,Psychologie,2023-01-23_14h00.54.889,00_bat_bachelor,2022.2.4,59.8937449263197,
,,,,,,,,,,,,0,0,0,0,209,0,209,0,,,,,,,209,,,1,1512.463260866236,X,None,nogo,None,1,,,,,,,,,,,,,,,,,,,53,001,18,m,Psychologie,2023-01-23_14h00.54.889,00_bat_bachelor,2022.2.4,59.8937449263197,
,,,,,,,,,,,,0,0,0,0,210,0,210,0,,,,,,,210,,,1,1514.2647872654488,Y,d,go,d,1,,0.3957609669305384,,,,,,,,,,,,,,,,,53,001,18,m,Psychologie,2023-01-23_14h00.54.889,00_bat_bachelor,2022.2.4,59.8937449263197,
,,,,,,,,,,,,0,0,0,0,211,0,211,0,,,,,,,211,,,1,1515.7657615680946,X,l,go,l,1,,0.3829396397341043,,,,,,,,,,,,,,,,,53,001,18,m,Psychologie,2023-01-23_14h00.54.889,00_bat_bachelor,2022.2.4,59.8937449263197,
,,,,,,,,,,,,0,0,0,0,212,0,212,0,,,,,,,212,,,1,1517.2503576967865,Y,d,go,d,1,,0.4820581371895969,,,,,,,,,,,,,,,,,53,001,18,m,Psychologie,2023-01-23_14h00.54.889,00_bat_bachelor,2022.2.4,59.8937449263197,
,,,,,,,,,,,,0,0,0,0,213,0,213,0,,,,,,,213,,,1,1518.8347210497595,X,l,go,l,1,,0.40123781270813197,,,,,,,,,,,,,,,,,53,001,18,m,Psychologie,2023-01-23_14h00.54.889,00_bat_bachelor,2022.2.4,59.8937449263197,
,,,,,,,,,,,,0,0,0,0,214,0,214,0,,,,,,,214,,,1,1520.3527188592125,X,None,nogo,None,1,1521.1533390771365,,,,,,,,,,,,,,,,,,53,001,18,m,Psychologie,2023-01-23_14h00.54.889,00_bat_bachelor,2022.2.4,59.8937449263197,
,,,,,,,,,,,,0,0,0,0,215,0,215,0,,,,,,,215,,,1,1522.1541191979777,Y,d,go,d,1,,0.41135708044748753,,,,,,,,,,,,,,,,,53,001,18,m,Psychologie,2023-01-23_14h00.54.889,00_bat_bachelor,2022.2.4,59.8937449263197,
,,,,,,,,,,,,0,0,0,0,216,0,216,0,,,,,,,216,,,1,1523.6717950681923,X,l,go,l,1,,0.5728144567692652,,,,,,,,,,,,,,,,,53,001,18,m,Psychologie,2023-01-23_14h00.54.889,00_bat_bachelor,2022.2.4,59.8937449263197,
,,,,,,,,,,,,0,0,0,0,217,0,217,0,,,,,,,217,,,1,1525.3563746149885,Y,d,go,d,1,,0.487899104016833,,,,,,,,,,,,,,,,,53,001,18,m,Psychologie,2023-01-23_14h00.54.889,00_bat_bachelor,2022.2.4,59.8937449263197,
,,,,,,,,,,,,0,0,0,0,218,0,218,0,,,,,,,218,,,1,1526.957785717328,Y,None,nogo,None,1,,,,,,,,,,,,,,,,,,,53,001,18,m,Psychologie,2023-01-23_14h00.54.889,00_bat_bachelor,2022.2.4,59.8937449263197,
,,,,,,,,,,,,0,0,0,0,219,0,219,0,,,,,,,219,,,1,1528.7590008440893,X,l,go,l,1,,0.23747983144130558,,,,,,,,,,,,,,,,,53,001,18,m,Psychologie,2023-01-23_14h00.54.889,00_bat_bachelor,2022.2.4,59.8937449263197,
,,,,,,,,,,,,0,0,0,0,220,0,220,0,,,,,,,220,,,1,1530.1100014011608,Y,d,go,d,1,,0.4547728170873597,,,,,,,,,,,,,,,,,53,001,18,m,Psychologie,2023-01-23_14h00.54.889,00_bat_bachelor,2022.2.4,59.8937449263197,
,,,,,,,,,,,,0,0,0,0,221,0,221,0,,,,,,,221,,,1,1531.6780496105785,Y,None,nogo,None,1,1532.4786615860648,,,,,,,,,,,,,,,,,,53,001,18,m,Psychologie,2023-01-23_14h00.54.889,00_bat_bachelor,2022.2.4,59.8937449263197,
,,,,,,,,,,,,0,0,0,0,222,0,222,0,,,,,,,222,,,1,1533.4792501918273,X,l,go,l,1,,0.3333459668792784,,,,,,,,,,,,,,,,,53,001,18,m,Psychologie,2023-01-23_14h00.54.889,00_bat_bachelor,2022.2.4,59.8937449263197,
,,,,,,,,,,,,0,0,0,0,223,0,223,0,,,,,,,223,,,1,1534.9138468295569,Y,d,go,d,1,,0.40281017555389553,,,,,,,,,,,,,,,,,53,001,18,m,Psychologie,2023-01-23_14h00.54.889,00_bat_bachelor,2022.2.4,59.8937449263197,
,,,,,,,,,,,,0,0,0,0,224,0,224,0,,,,,,,224,,,1,1536.4316623361083,X,l,go,None,0,1537.2323286145693,,,,,,,,,,,,,,,,,,53,001,18,m,Psychologie,2023-01-23_14h00.54.889,00_bat_bachelor,2022.2.4,59.8937449263197,
,,,,,,,,,,,,0,0,0,0,225,0,225,0,,,,,,,225,,,1,1538.233036977821,X,None,nogo,None,1,1539.0335873776348,,,,,,,,,,,,,,,,,,53,001,18,m,Psychologie,2023-01-23_14h00.54.889,00_bat_bachelor,2022.2.4,59.8937449263197,
,,,,,,,,,,,,0,0,0,0,226,0,226,0,,,,,,,226,,,1,1540.0344484681264,Y,d,go,d,1,,0.562353370944038,,,,,,,,,,,,,,,,,53,001,18,m,Psychologie,2023-01-23_14h00.54.889,00_bat_bachelor,2022.2.4,59.8937449263197,
,,,,,,,,,,,,0,0,0,0,227,0,227,0,,,,,,,227,,,1,1541.7023463260848,X,l,go,l,1,,0.39827296568546444,,,,,,,,,,,,,,,,,53,001,18,m,Psychologie,2023-01-23_14h00.54.889,00_bat_bachelor,2022.2.4,59.8937449263197,
,,,,,,,,,,,,0,0,0,0,228,0,228,0,,,,,,,228,,,1,1543.2033259619493,Y,d,go,d,1,,0.3376640253700316,,,,,,,,,,,,,,,,,53,001,18,m,Psychologie,2023-01-23_14h00.54.889,00_bat_bachelor,2022.2.4,59.8937449263197,
,,,,,,,,,,,,0,0,0,0,229,0,229,0,,,,,,,229,,,1,1544.6543919250835,X,l,go,l,1,,0.37482376489788294,,,,,,,,,,,,,,,,,53,001,18,m,Psychologie,2023-01-23_14h00.54.889,00_bat_bachelor,2022.2.4,59.8937449263197,
,,,,,,,,,,,,0,0,0,0,230,0,230,0,,,,,,,230,,,1,1546.1390699931653,Y,d,go,d,1,,0.4899340121774003,,,,,,,,,,,,,,,,,53,001,18,m,Psychologie,2023-01-23_14h00.54.889,00_bat_bachelor,2022.2.4,59.8937449263197,
,,,,,,,,,,,,0,0,0,0,231,0,231,0,,,,,,,231,,,1,1547.7402580652852,X,l,go,l,1,,0.2957818638533354,,,,,,,,,,,,,,,,,53,001,18,m,Psychologie,2023-01-23_14h00.54.889,00_bat_bachelor,2022.2.4,59.8937449263197,
,,,,,,,,,,,,0,0,0,0,232,0,232,0,,,,,,,232,,,1,1549.1412935071858,Y,d,go,d,1,,0.2400921939406544,,,,,,,,,,,,,,,,,53,001,18,m,Psychologie,2023-01-23_14h00.54.889,00_bat_bachelor,2022.2.4,59.8937449263197,
,,,,,,,,,,,,0,0,0,0,233,0,233,0,,,,,,,233,,,1,1550.492344973376,X,l,go,l,1,,0.2485343716107309,,,,,,,,,,,,,,,,,53,001,18,m,Psychologie,2023-01-23_14h00.54.889,00_bat_bachelor,2022.2.4,59.8937449263197,
,,,,,,,,,,,,0,0,0,0,234,0,234,0,,,,,,,234,,,1,1551.8432102578226,Y,d,go,d,1,,0.3528295938158408,,,,,,,,,,,,,,,,,53,001,18,m,Psychologie,2023-01-23_14h00.54.889,00_bat_bachelor,2022.2.4,59.8937449263197,
,,,,,,,,,,,,0,0,0,0,235,0,235,0,,,,,,,235,,,1,1553.3111896672053,X,l,go,l,1,,0.34189238701947033,,,,,,,,,,,,,,,,,53,001,18,m,Psychologie,2023-01-23_14h00.54.889,00_bat_bachelor,2022.2.4,59.8937449263197,
,,,,,,,,,,,,0,0,0,0,236,0,236,0,,,,,,,236,,,1,1554.762100478867,X,None,nogo,None,1,1555.562884575571,,,,,,,,,,,,,,,,,,53,001,18,m,Psychologie,2023-01-23_14h00.54.889,00_bat_bachelor,2022.2.4,59.8937449263197,
,,,,,,,,,,,,0,0,0,0,237,0,237,0,,,,,,,237,,,1,1556.5636908781016,Y,d,go,d,1,,0.40054884331766516,,,,,,,,,,,,,,,,,53,001,18,m,Psychologie,2023-01-23_14h00.54.889,00_bat_bachelor,2022.2.4,59.8937449263197,
,,,,,,,,,,,,0,0,0,0,238,0,238,0,,,,,,,238,,,1,1558.0646530594677,X,l,go,l,1,,0.40358496305998415,,,,,,,,,,,,,,,,,53,001,18,m,Psychologie,2023-01-23_14h00.54.889,00_bat_bachelor,2022.2.4,59.8937449263197,
,,,,,,,,,,,,0,0,0,0,239,0,239,0,,,,,,,239,,,1,1559.5824530508835,Y,d,go,d,1,,0.35804462153464556,,,,,,,,,,,,,,,,,53,001,18,m,Psychologie,2023-01-23_14h00.54.889,00_bat_bachelor,2022.2.4,59.8937449263197,
,,,,,,,,,,,,0,0,0,0,240,0,240,0,,,,,,,240,,,1,1561.0502186422236,Y,None,nogo,None,1,,,,,,,,,,,,,,,,,,,53,001,18,m,Psychologie,2023-01-23_14h00.54.889,00_bat_bachelor,2022.2.4,59.8937449263197,
,,,,,,,,,,,,0,0,0,0,241,0,241,0,,,,,,,241,,,1,1562.8516325567616,X,l,go,l,1,,0.24206067773047835,,,,,,,,,,,,,,,,,53,001,18,m,Psychologie,2023-01-23_14h00.54.889,00_bat_bachelor,2022.2.4,59.8937449263197,
,,,,,,,,,,,,0,0,0,0,242,0,242,0,,,,,,,242,,,1,1564.2026563865365,Y,d,go,d,1,,0.4586103910114616,,,,,,,,,,,,,,,,,53,001,18,m,Psychologie,2023-01-23_14h00.54.889,00_bat_bachelor,2022.2.4,59.8937449263197,
,,,,,,,,,,,,0,0,0,0,243,0,243,0,,,,,,,243,,,1,1565.7705387778115,X,l,go,l,1,,0.3783568540820852,,,,,,,,,,,,,,,,,53,001,18,m,Psychologie,2023-01-23_14h00.54.889,00_bat_bachelor,2022.2.4,59.8937449263197,
,,,,,,,,,,,,0,0,0,0,244,0,244,0,,,,,,,244,,,1,1567.2551591489464,X,None,nogo,None,1,1568.0557221547933,,,,,,,,,,,,,,,,,,53,001,18,m,Psychologie,2023-01-23_14h00.54.889,00_bat_bachelor,2022.2.4,59.8937449263197,
,,,,,,,,,,,,0,0,0,0,245,0,245,0,,,,,,,245,,,1,1569.0563272453146,Y,d,go,d,1,,0.356979894801043,,,,,,,,,,,,,,,,,53,001,18,m,Psychologie,2023-01-23_14h00.54.889,00_bat_bachelor,2022.2.4,59.8937449263197,
,,,,,,,,,,,,0,0,0,0,246,0,246,0,,,,,,,246,,,1,1570.5243134427583,X,l,go,l,1,,0.5365521713392809,,,,,,,,,,,,,,,,,53,001,18,m,Psychologie,2023-01-23_14h00.54.889,00_bat_bachelor,2022.2.4,59.8937449263197,
,,,,,,,,,,,,0,0,0,0,247,0,247,0,,,,,,,247,,,1,1572.1755378542002,Y,d,go,d,1,,0.38968290912453085,,,,,,,,,,,,,,,,,53,001,18,m,Psychologie,2023-01-23_14h00.54.889,00_bat_bachelor,2022.2.4,59.8937449263197,
,,,,,,,,,,,,0,0,0,0,248,0,248,0,,,,,,,248,,,1,1573.6767715505557,Y,None,nogo,None,1,,,,,,,,,,,,,,,,,,,53,001,18,m,Psychologie,2023-01-23_14h00.54.889,00_bat_bachelor,2022.2.4,59.8937449263197,
,,,,,,,,,,,,0,0,0,0,249,0,249,0,,,,,,,249,,,1,1575.4778611016227,X,l,go,l,1,,0.2542041870765388,,,,,,,,,,,,,,,,,53,001,18,m,Psychologie,2023-01-23_14h00.54.889,00_bat_bachelor,2022.2.4,59.8937449263197,
,,,,,,,,,,,,1,0,1,0,0,0,0,0,,,,,,,0,,,0.2,1580.1653090106556,X,l,go,None,0,1580.9656480165431,,,,,,,,,1575.856492675608,space,4.08781396469567,,,,,,,53,001,18,m,Psychologie,2023-01-23_14h00.54.889,00_bat_bachelor,2022.2.4,59.8937449263197,
,,,,,,,,,,,,1,0,1,0,1,0,1,0,,,,,,,1,,,0.2,1581.1658452529227,Y,d,go,None,0,1581.9666167433606,,,,,,,,,,,,,,,,,,53,001,18,m,Psychologie,2023-01-23_14h00.54.889,00_bat_bachelor,2022.2.4,59.8937449263197,
,,,,,,,,,,,,1,0,1,0,2,0,2,0,,,,,,,2,,,0.2,1582.166762100882,X,l,go,l,1,,0.31819251959677786,,,,,,,,,,,,,,,,,53,001,18,m,Psychologie,2023-01-23_14h00.54.889,00_bat_bachelor,2022.2.4,59.8937449263197,
,,,,,,,,,,,,1,0,1,0,3,0,3,0,,,,,,,3,,,0.2,1582.800625066273,Y,d,go,d,1,,0.40322666021529585,,,,,,,,,,,,,,,,,53,001,18,m,Psychologie,2023-01-23_14h00.54.889,00_bat_bachelor,2022.2.4,59.8937449263197,
,,,,,,,,,,,,1,0,1,0,4,0,4,0,,,,,,,4,,,0.2,1583.5178853246616,Y,None,nogo,None,1,1584.318418754614,,,,,,,,,,,,,,,,,,53,001,18,m,Psychologie,2023-01-23_14h00.54.889,00_bat_bachelor,2022.2.4,59.8937449263197,
,,,,,,,,,,,,1,0,1,0,5,0,5,0,,,,,,,5,,,0.2,1584.5184855667176,X,l,go,l,1,,0.2699845429742709,,,,,,,,,,,,,,,,,53,001,18,m,Psychologie,2023-01-23_14h00.54.889,00_bat_bachelor,2022.2.4,59.8937449263197,
,,,,,,,,,,,,1,0,1,0,6,0,6,0,,,,,,,6,,,0.2,1585.1022617685376,Y,d,go,d,1,,0.46998008235823363,,,,,,,,,,,,,,,,,53,001,18,m,Psychologie,2023-01-23_14h00.54.889,00_bat_bachelor,2022.2.4,59.8937449263197,
,,,,,,,,,,,,1,0,1,0,7,0,7,0,,,,,,,7,,,0.2,1585.886342358077,X,l,go,l,1,,0.43822737061418593,,,,,,,,,,,,,,,,,53,001,18,m,Psychologie,2023-01-23_14h00.54.889,00_bat_bachelor,2022.2.4,59.8937449263197,
,,,,,,,,,,,,1,0,1,0,8,0,8,0,,,,,,,8,,,0.2,1586.6368690244853,X,None,nogo,None,1,1587.4374223332852,,,,,,,,,,,,,,,,,,53,001,18,m,Psychologie,2023-01-23_14h00.54.889,00_bat_bachelor,2022.2.4,59.8937449263197,
,,,,,,,,,,,,1,0,1,0,9,0,9,0,,,,,,,9,,,0.2,1587.6376859938027,Y,d,go,d,1,,0.44691100262571126,,,,,,,,,,,,,,,,,53,001,18,m,Psychologie,2023-01-23_14h00.54.889,00_bat_bachelor,2022.2.4,59.8937449263197,
,,,,,,,,,,,,1,0,1,0,10,0,10,0,,,,,,,10,,,0.2,1588.3881704783998,X,l,go,l,1,,0.31914330704603344,,,,,,,,,,,,,,,,,53,001,18,m,Psychologie,2023-01-23_14h00.54.889,00_bat_bachelor,2022.2.4,59.8937449263197,
,,,,,,,,,,,,1,0,1,0,11,0,11,0,,,,,,,11,,,0.2,1589.0384605873842,Y,d,go,d,1,,0.39009406056720763,,,,,,,,,,,,,,,,,53,001,18,m,Psychologie,2023-01-23_14h00.54.889,00_bat_bachelor,2022.2.4,59.8937449263197,
,,,,,,,,,,,,1,0,1,0,12,0,12,0,,,,,,,12,,,0.2,1589.739062914392,X,l,go,l,1,,0.2972078025341034,,,,,,,,,,,,,,,,,53,001,18,m,Psychologie,2023-01-23_14h00.54.889,00_bat_bachelor,2022.2.4,59.8937449263197,
,,,,,,,,,,,,1,0,1,0,13,0,13,0,,,,,,,13,,,0.2,1590.3563804331934,Y,d,go,d,1,,0.33573529904242605,,,,,,,,,,,,,,,,,53,001,18,m,Psychologie,2023-01-23_14h00.54.889,00_bat_bachelor,2022.2.4,59.8937449263197,
,,,,,,,,,,,,1,0,1,0,14,0,14,0,,,,,,,14,,,0.2,1591.0235650794348,X,l,go,l,1,,0.30967373587191105,,,,,,,,,,,,,,,,,53,001,18,m,Psychologie,2023-01-23_14h00.54.889,00_bat_bachelor,2022.2.4,59.8937449263197,
,,,,,,,,,,,,1,0,1,0,15,0,15,0,,,,,,,15,,,0.2,1591.6407046590466,X,None,nogo,None,1,1592.4413316647988,,,,,,,,,,,,,,,,,,53,001,18,m,Psychologie,2023-01-23_14h00.54.889,00_bat_bachelor,2022.2.4,59.8937449263197,
,,,,,,,,,,,,1,0,1,0,16,0,16,0,,,,,,,16,,,0.2,1592.6412462345324,Y,d,go,d,1,,0.2597813963657245,,,,,,,,,,,,,,,,,53,001,18,m,Psychologie,2023-01-23_14h00.54.889,00_bat_bachelor,2022.2.4,59.8937449263197,
,,,,,,,,,,,,1,0,1,0,17,0,17,0,,,,,,,17,,,0.2,1593.2084847473307,X,l,go,l,1,,0.6518626608885825,,,,,,,,,,,,,,,,,53,001,18,m,Psychologie,2023-01-23_14h00.54.889,00_bat_bachelor,2022.2.4,59.8937449263197,
,,,,,,,,,,,,1,0,1,0,18,0,18,0,,,,,,,18,,,0.2,1594.1926229367964,Y,d,go,d,1,,0.4994171590078622,,,,,,,,,,,,,,,,,53,001,18,m,Psychologie,2023-01-23_14h00.54.889,00_bat_bachelor,2022.2.4,59.8937449263197,
,,,,,,,,,,,,1,0,1,0,19,0,19,0,,,,,,,19,,,0.2,1594.993027397315,X,l,go,l,1,,0.3868819408817217,,,,,,,,,,,,,,,,,53,001,18,m,Psychologie,2023-01-23_14h00.54.889,00_bat_bachelor,2022.2.4,59.8937449263197,
,,,,,,,,,,,,1,0,1,0,20,0,20,0,,,,,,,20,,,0.2,1595.6937805120833,X,None,nogo,None,1,1596.4941786694108,,,,,,,,,,,,,,,,,,53,001,18,m,Psychologie,2023-01-23_14h00.54.889,00_bat_bachelor,2022.2.4,59.8937449263197,
,,,,,,,,,,,,1,0,1,0,21,0,21,0,,,,,,,21,,,0.2,1596.6945213602157,Y,d,go,d,1,,0.3332727546803653,,,,,,,,,,,,,,,,,53,001,18,m,Psychologie,2023-01-23_14h00.54.889,00_bat_bachelor,2022.2.4,59.8937449263197,
,,,,,,,,,,,,1,0,1,0,22,0,22,0,,,,,,,22,,,0.2,1597.345074741752,X,l,go,l,1,,0.3869595165597275,,,,,,,,,,,,,,,,,53,001,18,m,Psychologie,2023-01-23_14h00.54.889,00_bat_bachelor,2022.2.4,59.8937449263197,
,,,,,,,,,,,,1,0,1,0,23,0,23,0,,,,,,,23,,,0.2,1598.0625328180613,Y,d,go,None,0,1598.8629358239705,,,,,,,,,,,,,,,,,,53,001,18,m,Psychologie,2023-01-23_14h00.54.889,00_bat_bachelor,2022.2.4,59.8937449263197,
,,,,,,,,,,,,1,0,1,0,24,0,24,0,,,,,,,24,,,0.2,1599.0632644541329,Y,None,nogo,None,1,1599.8637028539088,,,,,,,,,,,,,,,,,,53,001,18,m,Psychologie,2023-01-23_14h00.54.889,00_bat_bachelor,2022.2.4,59.8937449263197,
,,,,,,,,,,,,1,0,1,0,25,0,25,0,,,,,,,25,,,0.2,1600.0638133023167,X,l,go,l,1,,0.30784440343268216,,,,,,,,,,,,,,,,,53,001,18,m,Psychologie,2023-01-23_14h00.54.889,00_bat_bachelor,2022.2.4,59.8937449263197,
,,,,,,,,,,,,1,0,1,0,26,0,26,0,,,,,,,26,,,0.2,1600.7143356535817,Y,d,go,d,1,,0.5543126475531608,,,,,,,,,,,,,,,,,53,001,18,m,Psychologie,2023-01-23_14h00.54.889,00_bat_bachelor,2022.2.4,59.8937449263197,
,,,,,,,,,,,,1,0,1,0,27,0,27,0,,,,,,,27,,,0.2,1601.5818431117805,X,l,go,l,1,,0.45422784762922674,,,,,,,,,,,,,,,,,53,001,18,m,Psychologie,2023-01-23_14h00.54.889,00_bat_bachelor,2022.2.4,59.8937449263197,
,,,,,,,,,,,,1,0,1,0,28,0,28,0,,,,,,,28,,,0.2,1602.3658606710378,Y,d,go,None,0,1603.1661628284492,,,,,,,,,,,,,,,,,,53,001,18,m,Psychologie,2023-01-23_14h00.54.889,00_bat_bachelor,2022.2.4,59.8937449263197,
,,,,,,,,,,,,1,0,1,0,29,0,29,0,,,,,,,29,,,0.2,1603.3665729131317,X,l,go,l,1,,0.5110215169843286,,,,,,,,,,,,,,,,,53,001,18,m,Psychologie,2023-01-23_14h00.54.889,00_bat_bachelor,2022.2.4,59.8937449263197,
,,,,,,,,,,,,1,0,1,0,30,0,30,0,,,,,,,30,,,0.2,1604.1838277896168,X,None,nogo,None,1,1604.98425212875,,,,,,,,,,,,,,,,,,53,001,18,m,Psychologie,2023-01-23_14h00.54.889,00_bat_bachelor,2022.2.4,59.8937449263197,
,,,,,,,,,,,,1,0,1,0,31,0,31,0,,,,,,,31,,,0.2,1605.1844231832074,Y,d,go,d,1,,0.35595056193415076,,,,,,,,,,,,,,,,,53,001,18,m,Psychologie,2023-01-23_14h00.54.889,00_bat_bachelor,2022.2.4,59.8937449263197,
,,,,,,,,,,,,1,0,1,0,32,0,32,0,,,,,,,32,,,0.2,1605.8849062375957,X,l,go,l,1,,0.4070235068211332,,,,,,,,,,,,,,,,,53,001,18,m,Psychologie,2023-01-23_14h00.54.889,00_bat_bachelor,2022.2.4,59.8937449263197,
,,,,,,,,,,,,1,0,1,0,33,0,33,0,,,,,,,33,,,0.2,1606.6358120553195,X,None,nogo,l,0,,0.47312238393351436,,,,,,,,,,,,,,,,,53,001,18,m,Psychologie,2023-01-23_14h00.54.889,00_bat_bachelor,2022.2.4,59.8937449263197,
,,,,,,,,,,,,1,0,1,0,34,0,34,0,,,,,,,34,,,0.2,1607.4194684026297,Y,d,go,d,1,,0.5699703369755298,,,,,,,,,,,,,,,,,53,001,18,m,Psychologie,2023-01-23_14h00.54.889,00_bat_bachelor,2022.2.4,59.8937449263197,
,,,,,,,,,,,,1,0,1,0,35,0,35,0,,,,,,,35,,,0.2,1608.3034548831638,X,l,go,l,1,,0.4043747808318585,,,,,,,,,,,,,,,,,53,001,18,m,Psychologie,2023-01-23_14h00.54.889,00_bat_bachelor,2022.2.4,59.8937449263197,
,,,,,,,,,,,,1,0,1,0,36,0,36,0,,,,,,,36,,,0.2,1609.0540702767903,Y,d,go,d,1,,0.5660779752070084,,,,,,,,,,,,,,,,,53,001,18,m,Psychologie,2023-01-23_14h00.54.889,00_bat_bachelor,2022.2.4,59.8937449263197,
,,,,,,,,,,,,1,0,1,0,37,0,37,0,,,,,,,37,,,0.2,1609.9548989308532,X,l,go,l,1,,0.4973138873465359,,,,,,,,,,,,,,,,,53,001,18,m,Psychologie,2023-01-23_14h00.54.889,00_bat_bachelor,2022.2.4,59.8937449263197,
,,,,,,,,,,,,1,0,1,0,38,0,38,0,,,,,,,38,,,0.2,1610.7719981711125,Y,d,go,d,1,,0.43128676794003695,,,,,,,,,,,,,,,,,53,001,18,m,Psychologie,2023-01-23_14h00.54.889,00_bat_bachelor,2022.2.4,59.8937449263197,
,,,,,,,,,,,,1,0,1,0,39,0,39,0,,,,,,,39,,,0.2,1611.539217193029,Y,None,nogo,l,0,,0.43289064581040293,,,,,,,,,,,,,,,,,53,001,18,m,Psychologie,2023-01-23_14h00.54.889,00_bat_bachelor,2022.2.4,59.8937449263197,
,,,,,,,,,,,,1,0,1,0,40,0,40,0,,,,,,,40,,,0.2,1612.306729548145,Y,None,nogo,None,1,1613.1071228571236,,,,,,,,,,,,,,,,,,53,001,18,m,Psychologie,2023-01-23_14h00.54.889,00_bat_bachelor,2022.2.4,59.8937449263197,
,,,,,,,,,,,,1,0,1,0,41,0,41,0,,,,,,,41,,,0.2,1613.3074606993468,X,l,go,l,1,,0.247950614313595,,,,,,,,,,,,,,,,,53,001,18,m,Psychologie,2023-01-23_14h00.54.889,00_bat_bachelor,2022.2.4,59.8937449263197,
,,,,,,,,,,,,1,0,1,0,42,0,42,0,,,,,,,42,,,0.2,1613.8910516891629,Y,d,go,d,1,,0.5611892503220588,,,,,,,,,,,,,,,,,53,001,18,m,Psychologie,2023-01-23_14h00.54.889,00_bat_bachelor,2022.2.4,59.8937449263197,
,,,,,,,,,,,,1,0,1,0,43,0,43,0,,,,,,,43,,,0.2,1614.7751947756624,X,l,go,l,1,,0.47727947286330163,,,,,,,,,,,,,,,,,53,001,18,m,Psychologie,2023-01-23_14h00.54.889,00_bat_bachelor,2022.2.4,59.8937449263197,
,,,,,,,,,,,,1,0,1,0,44,0,44,0,,,,,,,44,,,0.2,1615.5923226218438,X,None,nogo,None,1,1616.3929501124658,,,,,,,,,,,,,,,,,,53,001,18,m,Psychologie,2023-01-23_14h00.54.889,00_bat_bachelor,2022.2.4,59.8937449263197,
,,,,,,,,,,,,1,0,1,0,45,0,45,0,,,,,,,45,,,0.2,1616.5931449244963,Y,d,go,d,1,,0.41939053125679493,,,,,,,,,,,,,,,,,53,001,18,m,Psychologie,2023-01-23_14h00.54.889,00_bat_bachelor,2022.2.4,59.8937449263197,
,,,,,,,,,,,,1,0,1,0,46,0,46,0,,,,,,,46,,,0.2,1617.3272303867852,X,l,go,None,0,1618.1277676955797,,,,,,,,,,,,,,,,,,53,001,18,m,Psychologie,2023-01-23_14h00.54.889,00_bat_bachelor,2022.2.4,59.8937449263197,
,,,,,,,,,,,,1,0,1,0,47,0,47,0,,,,,,,47,,,0.2,1618.3279838409508,Y,d,go,None,0,1619.1285022406373,,,,,,,,,,,,,,,,,,53,001,18,m,Psychologie,2023-01-23_14h00.54.889,00_bat_bachelor,2022.2.4,59.8937449263197,
,,,,,,,,,,,,1,0,1,0,48,0,48,0,,,,,,,48,,,0.2,1619.3286713557318,Y,None,nogo,None,1,1620.1293546039378,,,,,,,,,,,,,,,,,,53,001,18,m,Psychologie,2023-01-23_14h00.54.889,00_bat_bachelor,2022.2.4,59.8937449263197,
,,,,,,,,,,,,1,0,1,0,49,0,49,0,,,,,,,49,,,0.2,1620.3294786281185,X,l,go,l,1,,0.3789333386812359,,,,,,,,,,,,,,,,,53,001,18,m,Psychologie,2023-01-23_14h00.54.889,00_bat_bachelor,2022.2.4,59.8937449263197,
,,,,,,,,,,,,1,0,1,0,50,0,50,0,,,,,,,50,,,0.2,1621.0300188944675,Y,d,go,d,1,,0.4304057984845713,,,,,,,,,,,,,,,,,53,001,18,m,Psychologie,2023-01-23_14h00.54.889,00_bat_bachelor,2022.2.4,59.8937449263197,
,,,,,,,,,,,,1,0,1,0,51,0,51,0,,,,,,,51,,,0.2,1621.7972325830488,X,l,go,l,1,,0.4481100323610008,,,,,,,,,,,,,,,,,53,001,18,m,Psychologie,2023-01-23_14h00.54.889,00_bat_bachelor,2022.2.4,59.8937449263197,
,,,,,,,,,,,,1,0,1,0,52,0,52,0,,,,,,,52,,,0.2,1622.5644937868929,Y,d,go,d,1,,0.46402857010252774,,,,,,,,,,,,,,,,,53,001,18,m,Psychologie,2023-01-23_14h00.54.889,00_bat_bachelor,2022.2.4,59.8937449263197,
,,,,,,,,,,,,1,0,1,0,53,0,53,0,,,,,,,53,,,0.2,1623.3317705057561,X,l,go,l,1,,0.4485187594546005,,,,,,,,,,,,,,,,,53,001,18,m,Psychologie,2023-01-23_14h00.54.889,00_bat_bachelor,2022.2.4,59.8937449263197,
,,,,,,,,,,,,1,0,1,0,54,0,54,0,,,,,,,54,,,0.2,1624.1156804286875,Y,d,go,d,1,,0.4165973203489557,,,,,,,,,,,,,,,,,53,001,18,m,Psychologie,2023-01-23_14h00.54.889,00_bat_bachelor,2022.2.4,59.8937449263197,
,,,,,,,,,,,,1,0,1,0,55,0,55,0,,,,,,,55,,,0.2,1624.866294367821,X,l,go,l,1,,0.38600097165908664,,,,,,,,,,,,,,,,,53,001,18,m,Psychologie,2023-01-23_14h00.54.889,00_bat_bachelor,2022.2.4,59.8937449263197,
,,,,,,,,,,,,1,0,1,0,56,0,56,0,,,,,,,56,,,0.2,1625.5665839676512,X,None,nogo,None,1,1626.3675212763483,,,,,,,,,,,,,,,,,,53,001,18,m,Psychologie,2023-01-23_14h00.54.889,00_bat_bachelor,2022.2.4,59.8937449263197,
,,,,,,,,,,,,1,0,1,0,57,0,57,0,,,,,,,57,,,0.2,1626.567589058075,Y,d,go,d,1,,0.3332126336172223,,,,,,,,,,,,,,,,,53,001,18,m,Psychologie,2023-01-23_14h00.54.889,00_bat_bachelor,2022.2.4,59.8937449263197,
,,,,,,,,,,,,1,0,1,0,58,0,58,0,,,,,,,58,,,0.2,1627.2181017124094,X,l,go,l,1,,0.33887857024092227,,,,,,,,,,,,,,,,,53,001,18,m,Psychologie,2023-01-23_14h00.54.889,00_bat_bachelor,2022.2.4,59.8937449263197,
,,,,,,,,,,,,1,0,1,0,59,0,59,0,,,,,,,59,,,0.2,1627.8852146010613,Y,d,go,d,1,,0.39136775687802583,,,,,,,,,,,,,,,,,53,001,18,m,Psychologie,2023-01-23_14h00.54.889,00_bat_bachelor,2022.2.4,59.8937449263197,
,,,,,,,,,,,,1,0,1,0,60,0,60,0,,,,,,,60,,,0.2,1628.5855488069355,X,l,go,l,1,,0.3145091274054721,,,,,,,,,,,,,,,,,53,001,18,m,Psychologie,2023-01-23_14h00.54.889,00_bat_bachelor,2022.2.4,59.8937449263197,
,,,,,,,,,,,,1,0,1,0,61,0,61,0,,,,,,,61,,,0.2,1629.2360701884609,Y,d,go,d,1,,0.3355423293542117,,,,,,,,,,,,,,,,,53,001,18,m,Psychologie,2023-01-23_14h00.54.889,00_bat_bachelor,2022.2.4,59.8937449263197,
,,,,,,,,,,,,1,0,1,0,62,0,62,0,,,,,,,62,,,0.2,1629.9032194408355,X,l,go,l,1,,0.5169652716722339,,,,,,,,,,,,,,,,,53,001,18,m,Psychologie,2023-01-23_14h00.54.889,00_bat_bachelor,2022.2.4,59.8937449263197,
,,,,,,,,,,,,1,0,1,0,63,0,63,0,,,,,,,63,,,0.2,1630.7538570889737,X,None,nogo,None,1,1631.5543788826326,,,,,,,,,,,,,,,,,,53,001,18,m,Psychologie,2023-01-23_14h00.54.889,00_bat_bachelor,2022.2.4,59.8937449263197,
,,,,,,,,,,,,1,0,1,0,64,0,64,0,,,,,,,64,,,0.2,1631.754503876553,X,None,nogo,None,1,1632.554938397603,,,,,,,,,,,,,,,,,,53,001,18,m,Psychologie,2023-01-23_14h00.54.889,00_bat_bachelor,2022.2.4,59.8937449263197,
,,,,,,,,,,,,1,0,1,0,65,0,65,0,,,,,,,65,,,0.2,1632.7551981792785,Y,d,go,d,1,,0.3692756464006379,,,,,,,,,,,,,,,,,53,001,18,m,Psychologie,2023-01-23_14h00.54.889,00_bat_bachelor,2022.2.4,59.8937449263197,
,,,,,,,,,,,,1,0,1,0,66,0,66,0,,,,,,,66,,,0.2,1633.439081968856,X,l,go,l,1,,0.35800534882582724,,,,,,,,,,,,,,,,,53,001,18,m,Psychologie,2023-01-23_14h00.54.889,00_bat_bachelor,2022.2.4,59.8937449263197,
,,,,,,,,,,,,1,0,1,0,67,0,67,0,,,,,,,67,,,0.2,1634.10641013016,Y,d,go,d,1,,0.39456484629772604,,,,,,,,,,,,,,,,,53,001,18,m,Psychologie,2023-01-23_14h00.54.889,00_bat_bachelor,2022.2.4,59.8937449263197,
,,,,,,,,,,,,1,0,1,0,68,0,68,0,,,,,,,68,,,0.2,1634.8068674874958,X,l,go,l,1,,0.3663316478487104,,,,,,,,,,,,,,,,,53,001,18,m,Psychologie,2023-01-23_14h00.54.889,00_bat_bachelor,2022.2.4,59.8937449263197,
,,,,,,,,,,,,1,0,1,0,69,0,69,0,,,,,,,69,,,0.2,1635.473798558116,X,None,nogo,None,1,1636.274598169839,,,,,,,,,,,,,,,,,,53,001,18,m,Psychologie,2023-01-23_14h00.54.889,00_bat_bachelor,2022.2.4,59.8937449263197,
,,,,,,,,,,,,1,0,1,0,70,0,70,0,,,,,,,70,,,0.2,1636.4745908001205,Y,d,go,d,1,,0.40945986937731504,,,,,,,,,,,,,,,,,53,001,18,m,Psychologie,2023-01-23_14h00.54.889,00_bat_bachelor,2022.2.4,59.8937449263197,
,,,,,,,,,,,,1,0,1,0,71,0,71,0,,,,,,,71,,,0.2,1637.1918273008196,X,l,go,l,1,,0.38024970167316496,,,,,,,,,,,,,,,,,53,001,18,m,Psychologie,2023-01-23_14h00.54.889,00_bat_bachelor,2022.2.4,59.8937449263197,
,,,,,,,,,,,,1,0,1,0,72,0,72,0,,,,,,,72,,,0.2,1637.8758579995483,Y,d,go,d,1,,0.35305601789150387,,,,,,,,,,,,,,,,,53,001,18,m,Psychologie,2023-01-23_14h00.54.889,00_bat_bachelor,2022.2.4,59.8937449263197,
,,,,,,,,,,,,1,0,1,0,73,0,73,0,,,,,,,73,,,0.2,1638.5423100399785,X,l,go,l,1,,0.4221890752669424,,,,,,,,,,,,,,,,,53,001,18,m,Psychologie,2023-01-23_14h00.54.889,00_bat_bachelor,2022.2.4,59.8937449263197,
,,,,,,,,,,,,1,0,1,0,74,0,74,0,,,,,,,74,,,0.2,1639.276499744621,X,None,nogo,None,1,,,,,,,,,,,,,,,,,,,53,001,18,m,Psychologie,2023-01-23_14h00.54.889,00_bat_bachelor,2022.2.4,59.8937449263197,
,,,,,,,,,,,,1,0,1,0,75,0,75,0,,,,,,,75,,,0.2,1640.2769831384066,Y,d,go,d,1,,0.3671903139911592,,,,,,,,,,,,,,,,,53,001,18,m,Psychologie,2023-01-23_14h00.54.889,00_bat_bachelor,2022.2.4,59.8937449263197,
,,,,,,,,,,,,1,0,1,0,76,0,76,0,,,,,,,76,,,0.2,1640.9610797764035,X,l,go,l,1,,0.4034084783634171,,,,,,,,,,,,,,,,,53,001,18,m,Psychologie,2023-01-23_14h00.54.889,00_bat_bachelor,2022.2.4,59.8937449263197,
,,,,,,,,,,,,1,0,1,0,77,0,77,0,,,,,,,77,,,0.2,1641.6781136106001,Y,d,go,d,1,,0.35938183299731463,,,,,,,,,,,,,,,,,53,001,18,m,Psychologie,2023-01-23_14h00.54.889,00_bat_bachelor,2022.2.4,59.8937449263197,
,,,,,,,,,,,,1,0,1,0,78,0,78,0,,,,,,,78,,,0.2,1642.3455300142523,X,l,go,l,1,,0.3475345659535378,,,,,,,,,,,,,,,,,53,001,18,m,Psychologie,2023-01-23_14h00.54.889,00_bat_bachelor,2022.2.4,59.8937449263197,
,,,,,,,,,,,,1,0,1,0,79,0,79,0,,,,,,,79,,,0.2,1642.9957585474476,Y,d,go,d,1,,0.3363345714751631,,,,,,,,,,,,,,,,,53,001,18,m,Psychologie,2023-01-23_14h00.54.889,00_bat_bachelor,2022.2.4,59.8937449263197,
,,,,,,,,,,,,1,0,1,0,80,0,80,0,,,,,,,80,,,0.2,1643.6464646562235,Y,None,nogo,None,1,,,,,,,,,,,,,,,,,,,53,001,18,m,Psychologie,2023-01-23_14h00.54.889,00_bat_bachelor,2022.2.4,59.8937449263197,
,,,,,,,,,,,,1,0,1,0,81,0,81,0,,,,,,,81,,,0.2,1644.6472695042612,X,l,go,l,1,,0.2852965355850756,,,,,,,,,,,,,,,,,53,001,18,m,Psychologie,2023-01-23_14h00.54.889,00_bat_bachelor,2022.2.4,59.8937449263197,
,,,,,,,,,,,,1,0,1,0,82,0,82,0,,,,,,,82,,,0.2,1645.2476992737502,Y,d,go,d,1,,0.42070689413230866,,,,,,,,,,,,,,,,,53,001,18,m,Psychologie,2023-01-23_14h00.54.889,00_bat_bachelor,2022.2.4,59.8937449263197,
,,,,,,,,,,,,1,0,1,0,83,0,83,0,,,,,,,83,,,0.2,1645.98173479666,Y,None,nogo,None,1,1646.7825024083722,,,,,,,,,,,,,,,,,,53,001,18,m,Psychologie,2023-01-23_14h00.54.889,00_bat_bachelor,2022.2.4,59.8937449263197,
,,,,,,,,,,,,1,0,1,0,84,0,84,0,,,,,,,84,,,0.2,1646.9825629175175,X,l,go,l,1,,0.1415506659541279,,,,,,,,,,,,,,,,,53,001,18,m,Psychologie,2023-01-23_14h00.54.889,00_bat_bachelor,2022.2.4,59.8937449263197,
,,,,,,,,,,,,1,0,1,0,85,0,85,0,,,,,,,85,,,0.2,1647.4326814871747,Y,d,go,d,1,,0.6516294488683343,,,,,,,,,,,,,,,,,53,001,18,m,Psychologie,2023-01-23_14h00.54.889,00_bat_bachelor,2022.2.4,59.8937449263197,
,,,,,,,,,,,,1,0,1,0,86,0,86,0,,,,,,,86,,,0.2,1648.4002029574476,Y,None,nogo,None,1,,,,,,,,,,,,,,,,,,,53,001,18,m,Psychologie,2023-01-23_14h00.54.889,00_bat_bachelor,2022.2.4,59.8937449263197,
,,,,,,,,,,,,1,0,1,0,87,0,87,0,,,,,,,87,,,0.2,1649.4008293813094,X,l,go,l,1,,0.31643882347270846,,,,,,,,,,,,,,,,,53,001,18,m,Psychologie,2023-01-23_14h00.54.889,00_bat_bachelor,2022.2.4,59.8937449263197,
,,,,,,,,,,,,1,0,1,0,88,0,88,0,,,,,,,88,,,0.2,1650.0177687186515,Y,d,go,d,1,,0.6597104147076607,,,,,,,,,,,,,,,,,53,001,18,m,Psychologie,2023-01-23_14h00.54.889,00_bat_bachelor,2022.2.4,59.8937449263197,
,,,,,,,,,,,,1,0,1,0,89,0,89,0,,,,,,,89,,,0.2,1650.9853920070454,X,l,go,l,1,,0.459903966053389,,,,,,,,,,,,,,,,,53,001,18,m,Psychologie,2023-01-23_14h00.54.889,00_bat_bachelor,2022.2.4,59.8937449263197,
,,,,,,,,,,,,1,0,1,0,90,0,90,0,,,,,,,90,,,0.2,1651.752532968414,X,None,nogo,None,1,,,,,,,,,,,,,,,,,,,53,001,18,m,Psychologie,2023-01-23_14h00.54.889,00_bat_bachelor,2022.2.4,59.8937449263197,
,,,,,,,,,,,,1,0,1,0,91,0,91,0,,,,,,,91,,,0.2,1652.753193331766,Y,d,go,d,1,,0.40321502392180264,,,,,,,,,,,,,,,,,53,001,18,m,Psychologie,2023-01-23_14h00.54.889,00_bat_bachelor,2022.2.4,59.8937449263197,
,,,,,,,,,,,,1,0,1,0,92,0,92,0,,,,,,,92,,,0.2,1653.470481711207,X,l,go,l,1,,0.38965090923011303,,,,,,,,,,,,,,,,,53,001,18,m,Psychologie,2023-01-23_14h00.54.889,00_bat_bachelor,2022.2.4,59.8937449263197,
,,,,,,,,,,,,1,0,1,0,93,0,93,0,,,,,,,93,,,0.2,1654.171157735167,X,None,nogo,None,1,1654.9715461955639,,,,,,,,,,,,,,,,,,53,001,18,m,Psychologie,2023-01-23_14h00.54.889,00_bat_bachelor,2022.2.4,59.8937449263197,
,,,,,,,,,,,,1,0,1,0,94,0,94,0,,,,,,,94,,,0.2,1655.1720018559135,Y,d,go,d,1,,0.4321512521710247,,,,,,,,,,,,,,,,,53,001,18,m,Psychologie,2023-01-23_14h00.54.889,00_bat_bachelor,2022.2.4,59.8937449263197,
,,,,,,,,,,,,1,0,1,0,95,0,95,0,,,,,,,95,,,0.2,1655.905763924471,X,l,go,None,0,1656.7061994151445,,,,,,,,,,,,,,,,,,53,001,18,m,Psychologie,2023-01-23_14h00.54.889,00_bat_bachelor,2022.2.4,59.8937449263197,
,,,,,,,,,,,,1,0,1,0,96,0,96,0,,,,,,,96,,,0.2,1656.9065944694448,Y,d,go,l,0,,0.36260898294858634,,,,,,,,,,,,,,,,,53,001,18,m,Psychologie,2023-01-23_14h00.54.889,00_bat_bachelor,2022.2.4,59.8937449263197,
,,,,,,,,,,,,1,0,1,0,97,0,97,0,,,,,,,97,,,0.2,1657.5736583884573,X,l,go,None,0,,,,,,,,,,,,,,,,,,,53,001,18,m,Psychologie,2023-01-23_14h00.54.889,00_bat_bachelor,2022.2.4,59.8937449263197,
,,,,,,,,,,,,1,0,1,0,98,0,98,0,,,,,,,98,,,0.2,1658.57426881243,X,None,nogo,None,1,,,,,,,,,,,,,,,,,,,53,001,18,m,Psychologie,2023-01-23_14h00.54.889,00_bat_bachelor,2022.2.4,59.8937449263197,
,,,,,,,,,,,,1,0,1,0,99,0,99,0,,,,,,,99,,,0.2,1659.5752700240118,Y,d,go,d,1,,0.3176267017843202,,,,,,,,,,,,,,,,,53,001,18,m,Psychologie,2023-01-23_14h00.54.889,00_bat_bachelor,2022.2.4,59.8937449263197,
,,,,,,,,,,,,1,0,1,0,100,0,100,0,,,,,,,100,,,0.2,1660.2090767470654,X,l,go,None,0,1661.0095001165755,,,,,,,,,,,,,,,,,,53,001,18,m,Psychologie,2023-01-23_14h00.54.889,00_bat_bachelor,2022.2.4,59.8937449263197,
,,,,,,,,,,,,1,0,1,0,101,0,101,0,,,,,,,101,,,0.2,1661.2098651103443,X,None,nogo,None,1,,,,,,,,,,,,,,,,,,,53,001,18,m,Psychologie,2023-01-23_14h00.54.889,00_bat_bachelor,2022.2.4,59.8937449263197,
,,,,,,,,,,,,1,0,1,0,102,0,102,0,,,,,,,102,,,0.2,1662.2105986856623,Y,d,go,None,0,1663.011072964291,,,,,,,,,,,,,,,,,,53,001,18,m,Psychologie,2023-01-23_14h00.54.889,00_bat_bachelor,2022.2.4,59.8937449263197,
,,,,,,,,,,,,1,0,1,0,103,0,103,0,,,,,,,103,,,0.2,1663.2111620793585,X,l,go,d,0,,0.29768440837506205,,,,,,,,,,,,,,,,,53,001,18,m,Psychologie,2023-01-23_14h00.54.889,00_bat_bachelor,2022.2.4,59.8937449263197,
,,,,,,,,,,,,1,0,1,0,104,0,104,0,,,,,,,104,,,0.2,1663.8118197275326,Y,d,go,None,0,1664.6124210363487,,,,,,,,,,,,,,,,,,53,001,18,m,Psychologie,2023-01-23_14h00.54.889,00_bat_bachelor,2022.2.4,59.8937449263197,
,,,,,,,,,,,,1,0,1,0,105,0,105,0,,,,,,,105,,,0.2,1664.8124122121371,X,l,go,l,1,,0.23197341000195593,,,,,,,,,,,,,,,,,53,001,18,m,Psychologie,2023-01-23_14h00.54.889,00_bat_bachelor,2022.2.4,59.8937449263197,
,,,,,,,,,,,,1,0,1,0,106,0,106,0,,,,,,,106,,,0.2,1665.3463654078078,X,None,nogo,None,1,,,,,,,,,,,,,,,,,,,53,001,18,m,Psychologie,2023-01-23_14h00.54.889,00_bat_bachelor,2022.2.4,59.8937449263197,
,,,,,,,,,,,,1,0,1,0,107,0,107,0,,,,,,,107,,,0.2,1666.3468420136487,Y,d,go,d,1,,0.09053056943230331,,,,,,,,,,,,,,,,,53,001,18,m,Psychologie,2023-01-23_14h00.54.889,00_bat_bachelor,2022.2.4,59.8937449263197,
,,,,,,,,,,,,1,0,1,0,108,0,108,0,,,,,,,108,,,0.2,1666.747455152683,X,l,go,l,1,,0.41079271712806076,,,,,,,,,,,,,,,,,53,001,18,m,Psychologie,2023-01-23_14h00.54.889,00_bat_bachelor,2022.2.4,59.8937449263197,
,,,,,,,,,,,,1,0,1,0,109,0,109,0,,,,,,,109,,,0.2,1667.4646358959144,X,None,nogo,None,1,,,,,,,,,,,,,,,,,,,53,001,18,m,Psychologie,2023-01-23_14h00.54.889,00_bat_bachelor,2022.2.4,59.8937449263197,
,,,,,,,,,,,,1,0,1,0,110,0,110,0,,,,,,,110,,,0.2,1668.4654184409883,Y,d,go,d,1,,0.35490959265735,,,,,,,,,,,,,,,,,53,001,18,m,Psychologie,2023-01-23_14h00.54.889,00_bat_bachelor,2022.2.4,59.8937449263197,
,,,,,,,,,,,,1,0,1,0,111,0,111,0,,,,,,,111,,,0.2,1669.1323364205891,X,l,go,l,1,,0.4566671191714704,,,,,,,,,,,,,,,,,53,001,18,m,Psychologie,2023-01-23_14h00.54.889,00_bat_bachelor,2022.2.4,59.8937449263197,
,,,,,,,,,,,,1,0,1,0,112,0,112,0,,,,,,,112,,,0.2,1669.8998899878934,X,None,nogo,None,1,1670.700432630023,,,,,,,,,,,,,,,,,,53,001,18,m,Psychologie,2023-01-23_14h00.54.889,00_bat_bachelor,2022.2.4,59.8937449263197,
,,,,,,,,,,,,1,0,1,0,113,0,113,0,,,,,,,113,,,0.2,1670.9007302299142,X,None,nogo,None,1,,,,,,,,,,,,,,,,,,,53,001,18,m,Psychologie,2023-01-23_14h00.54.889,00_bat_bachelor,2022.2.4,59.8937449263197,
,,,,,,,,,,,,1,0,1,0,114,0,114,0,,,,,,,114,,,0.2,1671.9013770174934,Y,d,go,d,1,,0.37506182538345456,,,,,,,,,,,,,,,,,53,001,18,m,Psychologie,2023-01-23_14h00.54.889,00_bat_bachelor,2022.2.4,59.8937449263197,
,,,,,,,,,,,,1,0,1,0,115,0,115,0,,,,,,,115,,,0.2,1672.5852152314037,X,l,go,l,1,,0.6515407216502354,,,,,,,,,,,,,,,,,53,001,18,m,Psychologie,2023-01-23_14h00.54.889,00_bat_bachelor,2022.2.4,59.8937449263197,
,,,,,,,,,,,,1,0,1,0,116,0,116,0,,,,,,,116,,,0.2,1673.5526474895887,Y,d,go,d,1,,0.4681386287556961,,,,,,,,,,,,,,,,,53,001,18,m,Psychologie,2023-01-23_14h00.54.889,00_bat_bachelor,2022.2.4,59.8937449263197,
,,,,,,,,,,,,1,0,1,0,117,0,117,0,,,,,,,117,,,0.2,1674.3362878368935,X,l,go,l,1,,0.4839369241381064,,,,,,,,,,,,,,,,,53,001,18,m,Psychologie,2023-01-23_14h00.54.889,00_bat_bachelor,2022.2.4,59.8937449263197,
,,,,,,,,,,,,1,0,1,0,118,0,118,0,,,,,,,118,,,0.2,1675.1371078122174,Y,d,go,d,1,,0.4035039934096858,,,,,,,,,,,,,,,,,53,001,18,m,Psychologie,2023-01-23_14h00.54.889,00_bat_bachelor,2022.2.4,59.8937449263197,
,,,,,,,,,,,,1,0,1,0,119,0,119,0,,,,,,,119,,,0.2,1675.8543704948388,X,l,go,l,1,,0.3750855829566717,,,,,,,,,,,,,,,,,53,001,18,m,Psychologie,2023-01-23_14h00.54.889,00_bat_bachelor,2022.2.4,59.8937449263197,
,,,,,,,,,,,,1,0,1,0,120,0,120,0,,,,,,,120,,,0.2,1676.5382222844055,Y,d,go,d,1,,0.4104276264552027,,,,,,,,,,,,,,,,,53,001,18,m,Psychologie,2023-01-23_14h00.54.889,00_bat_bachelor,2022.2.4,59.8937449263197,
,,,,,,,,,,,,1,0,1,0,121,0,121,0,,,,,,,121,,,0.2,1677.2555096942233,X,l,go,l,1,,0.4772663818439469,,,,,,,,,,,,,,,,,53,001,18,m,Psychologie,2023-01-23_14h00.54.889,00_bat_bachelor,2022.2.4,59.8937449263197,
,,,,,,,,,,,,1,0,1,0,122,0,122,0,,,,,,,122,,,0.2,1678.0393425263464,Y,d,go,d,1,,0.5729531233664602,,,,,,,,,,,,,,,,,53,001,18,m,Psychologie,2023-01-23_14h00.54.889,00_bat_bachelor,2022.2.4,59.8937449263197,
,,,,,,,,,,,,1,0,1,0,123,0,123,0,,,,,,,123,,,0.2,1678.923333370476,X,l,go,l,1,,0.3932518772780895,,,,,,,,,,,,,,,,,53,001,18,m,Psychologie,2023-01-23_14h00.54.889,00_bat_bachelor,2022.2.4,59.8937449263197,
,,,,,,,,,,,,1,0,1,0,124,0,124,0,,,,,,,124,,,0.2,1679.6238896368304,X,None,nogo,l,0,,0.6364876379957423,,,,,,,,,,,,,,,,,53,001,18,m,Psychologie,2023-01-23_14h00.54.889,00_bat_bachelor,2022.2.4,59.8937449263197,
,,,,,,,,,,,,1,0,1,0,125,0,125,0,,,,,,,125,,,0.2,1680.5744496608386,Y,d,go,d,1,,0.48566928692162037,,,,,,,,,,,,,,,,,53,001,18,m,Psychologie,2023-01-23_14h00.54.889,00_bat_bachelor,2022.2.4,59.8937449263197,
,,,,,,,,,,,,1,0,1,0,126,0,126,0,,,,,,,126,,,0.2,1681.3752032119082,X,l,go,l,1,,0.4529478482436389,,,,,,,,,,,,,,,,,53,001,18,m,Psychologie,2023-01-23_14h00.54.889,00_bat_bachelor,2022.2.4,59.8937449263197,
,,,,,,,,,,,,1,0,1,0,127,0,127,0,,,,,,,127,,,0.2,1682.1424416278023,X,None,nogo,None,1,,,,,,,,,,,,,,,,,,,53,001,18,m,Psychologie,2023-01-23_14h00.54.889,00_bat_bachelor,2022.2.4,59.8937449263197,
,,,,,,,,,,,,1,0,1,0,128,0,128,0,,,,,,,128,,,0.2,1683.1432571426267,Y,d,go,d,1,,0.36551419366151094,,,,,,,,,,,,,,,,,53,001,18,m,Psychologie,2023-01-23_14h00.54.889,00_bat_bachelor,2022.2.4,59.8937449263197,
,,,,,,,,,,,,1,0,1,0,129,0,129,0,,,,,,,129,,,0.2,1683.8101862737676,X,l,go,None,0,,,,,,,,,,,,,,,,,,,53,001,18,m,Psychologie,2023-01-23_14h00.54.889,00_bat_bachelor,2022.2.4,59.8937449263197,
,,,,,,,,,,,,1,0,1,0,130,0,130,0,,,,,,,130,,,0.2,1684.8115462731803,Y,d,go,None,0,,,,,,,,,,,,,,,,,,,53,001,18,m,Psychologie,2023-01-23_14h00.54.889,00_bat_bachelor,2022.2.4,59.8937449263197,
,,,,,,,,,,,,1,0,1,0,131,0,131,0,,,,,,,131,,,0.2,1685.8119501516921,X,l,go,l,1,,0.38472776010166854,,,,,,,,,,,,,,,,,53,001,18,m,Psychologie,2023-01-23_14h00.54.889,00_bat_bachelor,2022.2.4,59.8937449263197,
,,,,,,,,,,,,1,0,1,0,132,0,132,0,,,,,,,132,,,0.2,1686.512436115183,Y,d,go,d,1,,0.3248940921621397,,,,,,,,,,,,,,,,,53,001,18,m,Psychologie,2023-01-23_14h00.54.889,00_bat_bachelor,2022.2.4,59.8937449263197,
,,,,,,,,,,,,1,0,1,0,133,0,133,0,,,,,,,133,,,0.2,1687.1462636865908,X,l,go,l,1,,0.4266545276623219,,,,,,,,,,,,,,,,,53,001,18,m,Psychologie,2023-01-23_14h00.54.889,00_bat_bachelor,2022.2.4,59.8937449263197,
,,,,,,,,,,,,1,0,1,0,134,0,134,0,,,,,,,134,,,0.2,1687.8801978762494,Y,d,go,d,1,,0.4613429957535118,,,,,,,,,,,,,,,,,53,001,18,m,Psychologie,2023-01-23_14h00.54.889,00_bat_bachelor,2022.2.4,59.8937449263197,
,,,,,,,,,,,,1,0,1,0,135,0,135,0,,,,,,,135,,,0.2,1688.6474324133014,Y,None,nogo,None,1,,,,,,,,,,,,,,,,,,,53,001,18,m,Psychologie,2023-01-23_14h00.54.889,00_bat_bachelor,2022.2.4,59.8937449263197,
,,,,,,,,,,,,1,0,1,0,136,0,136,0,,,,,,,136,,,0.2,1689.6480801706202,X,l,go,l,1,,0.26122672902420163,,,,,,,,,,,,,,,,,53,001,18,m,Psychologie,2023-01-23_14h00.54.889,00_bat_bachelor,2022.2.4,59.8937449263197,
,,,,,,,,,,,,1,0,1,0,137,0,137,0,,,,,,,137,,,0.2,1690.2152590471087,Y,d,go,d,1,,0.4786249266471714,,,,,,,,,,,,,,,,,53,001,18,m,Psychologie,2023-01-23_14h00.54.889,00_bat_bachelor,2022.2.4,59.8937449263197,
,,,,,,,,,,,,1,0,1,0,138,0,138,0,,,,,,,138,,,0.2,1690.999194666976,Y,None,nogo,None,1,,,,,,,,,,,,,,,,,,,53,001,18,m,Psychologie,2023-01-23_14h00.54.889,00_bat_bachelor,2022.2.4,59.8937449263197,
,,,,,,,,,,,,1,0,1,0,139,0,139,0,,,,,,,139,,,0.2,1691.9999452120392,X,l,go,l,1,,0.21306675241794437,,,,,,,,,,,,,,,,,53,001,18,m,Psychologie,2023-01-23_14h00.54.889,00_bat_bachelor,2022.2.4,59.8937449263197,
,,,,,,,,,,,,1,0,1,0,140,0,140,0,,,,,,,140,,,0.2,1692.5170605977764,Y,d,go,d,1,,0.6244837649865076,,,,,,,,,,,,,,,,,53,001,18,m,Psychologie,2023-01-23_14h00.54.889,00_bat_bachelor,2022.2.4,59.8937449263197,
,,,,,,,,,,,,1,0,1,0,141,0,141,0,,,,,,,141,,,0.2,1693.4511314175325,X,l,go,l,1,,0.44134542963001877,,,,,,,,,,,,,,,,,53,001,18,m,Psychologie,2023-01-23_14h00.54.889,00_bat_bachelor,2022.2.4,59.8937449263197,
,,,,,,,,,,,,1,0,1,0,142,0,142,0,,,,,,,142,,,0.2,1694.201704629464,X,None,nogo,None,1,,,,,,,,,,,,,,,,,,,53,001,18,m,Psychologie,2023-01-23_14h00.54.889,00_bat_bachelor,2022.2.4,59.8937449263197,
,,,,,,,,,,,,1,0,1,0,143,0,143,0,,,,,,,143,,,0.2,1695.2024202654138,Y,d,go,d,1,,0.354343774728477,,,,,,,,,,,,,,,,,53,001,18,m,Psychologie,2023-01-23_14h00.54.889,00_bat_bachelor,2022.2.4,59.8937449263197,
,,,,,,,,,,,,1,0,1,0,144,0,144,0,,,,,,,144,,,0.2,1695.8694337601773,X,l,go,None,0,,,,,,,,,,,,,,,,,,,53,001,18,m,Psychologie,2023-01-23_14h00.54.889,00_bat_bachelor,2022.2.4,59.8937449263197,
,,,,,,,,,,,,1,0,1,0,145,0,145,0,,,,,,,145,,,0.2,1696.8702778810402,Y,d,go,d,1,,0.5588547060033306,,,,,,,,,,,,,,,,,53,001,18,m,Psychologie,2023-01-23_14h00.54.889,00_bat_bachelor,2022.2.4,59.8937449263197,
,,,,,,,,,,,,1,0,1,0,146,0,146,0,,,,,,,146,,,0.2,1697.7376059453236,X,l,go,l,1,,0.4439830040792003,,,,,,,,,,,,,,,,,53,001,18,m,Psychologie,2023-01-23_14h00.54.889,00_bat_bachelor,2022.2.4,59.8937449263197,
,,,,,,,,,,,,1,0,1,0,147,0,147,0,,,,,,,147,,,0.2,1698.488038066309,Y,d,go,d,1,,0.6049860775237903,,,,,,,,,,,,,,,,,53,001,18,m,Psychologie,2023-01-23_14h00.54.889,00_bat_bachelor,2022.2.4,59.8937449263197,
,,,,,,,,,,,,1,0,1,0,148,0,148,0,,,,,,,148,,,0.2,1699.405469379155,X,l,go,None,0,1700.2059528697282,,,,,,,,,,,,,,,,,,53,001,18,m,Psychologie,2023-01-23_14h00.54.889,00_bat_bachelor,2022.2.4,59.8937449263197,
,,,,,,,,,,,,1,0,1,0,149,0,149,0,,,,,,,149,,,0.2,1700.4063871968538,X,None,nogo,None,1,,,,,,,,,,,,,,,,,,,53,001,18,m,Psychologie,2023-01-23_14h00.54.889,00_bat_bachelor,2022.2.4,59.8937449263197,
,,,,,,,,,,,,1,0,1,0,150,0,150,0,,,,,,,150,,,0.2,1701.4071716812905,Y,d,go,d,1,,0.3887820611707866,,,,,,,,,,,,,,,,,53,001,18,m,Psychologie,2023-01-23_14h00.54.889,00_bat_bachelor,2022.2.4,59.8937449263197,
,,,,,,,,,,,,1,0,1,0,151,0,151,0,,,,,,,151,,,0.2,1702.1077332810964,X,l,go,l,1,,0.42525816475972533,,,,,,,,,,,,,,,,,53,001,18,m,Psychologie,2023-01-23_14h00.54.889,00_bat_bachelor,2022.2.4,59.8937449263197,
,,,,,,,,,,,,1,0,1,0,152,0,152,0,,,,,,,152,,,0.2,1702.8416126827942,X,None,nogo,None,1,1703.6419376280392,,,,,,,,,,,,,,,,,,53,001,18,m,Psychologie,2023-01-23_14h00.54.889,00_bat_bachelor,2022.2.4,59.8937449263197,
,,,,,,,,,,,,1,0,1,0,153,0,153,0,,,,,,,153,,,0.2,1703.8421004401753,Y,d,go,d,1,,0.11516473931260407,,,,,,,,,,,,,,,,,53,001,18,m,Psychologie,2023-01-23_14h00.54.889,00_bat_bachelor,2022.2.4,59.8937449263197,
,,,,,,,,,,,,1,0,1,0,154,0,154,0,,,,,,,154,,,0.2,1704.2593923590612,X,l,go,None,0,1705.059910273878,,,,,,,,,,,,,,,,,,53,001,18,m,Psychologie,2023-01-23_14h00.54.889,00_bat_bachelor,2022.2.4,59.8937449263197,
,,,,,,,,,,,,1,0,1,0,155,0,155,0,,,,,,,155,,,0.2,1705.2599247223698,X,None,nogo,None,1,,,,,,,,,,,,,,,,,,,53,001,18,m,Psychologie,2023-01-23_14h00.54.889,00_bat_bachelor,2022.2.4,59.8937449263197,
,,,,,,,,,,,,1,0,1,0,156,0,156,0,,,,,,,156,,,0.2,1706.2606932069175,Y,d,go,d,1,,0.4962447970174253,,,,,,,,,,,,,,,,,53,001,18,m,Psychologie,2023-01-23_14h00.54.889,00_bat_bachelor,2022.2.4,59.8937449263197,
,,,,,,,,,,,,1,0,1,0,157,0,157,0,,,,,,,157,,,0.2,1707.0614331823308,X,l,go,l,1,,0.49542831256985664,,,,,,,,,,,,,,,,,53,001,18,m,Psychologie,2023-01-23_14h00.54.889,00_bat_bachelor,2022.2.4,59.8937449263197,
,,,,,,,,,,,,1,0,1,0,158,0,158,0,,,,,,,158,,,0.2,1707.8619675820228,X,None,nogo,None,1,1708.662683314993,,,,,,,,,,,,,,,,,,53,001,18,m,Psychologie,2023-01-23_14h00.54.889,00_bat_bachelor,2022.2.4,59.8937449263197,
,,,,,,,,,,,,1,0,1,0,159,0,159,0,,,,,,,159,,,0.2,1708.8628548543202,Y,d,go,d,1,,0.4214104089187458,,,,,,,,,,,,,,,,,53,001,18,m,Psychologie,2023-01-23_14h00.54.889,00_bat_bachelor,2022.2.4,59.8937449263197,
,,,,,,,,,,,,1,0,1,0,160,0,160,0,,,,,,,160,,,0.2,1709.59674977127,X,l,go,l,1,,0.424679740681313,,,,,,,,,,,,,,,,,53,001,18,m,Psychologie,2023-01-23_14h00.54.889,00_bat_bachelor,2022.2.4,59.8937449263197,
,,,,,,,,,,,,1,0,1,0,161,0,161,0,,,,,,,161,,,0.2,1710.3303828700446,X,None,nogo,None,1,,,,,,,,,,,,,,,,,,,53,001,18,m,Psychologie,2023-01-23_14h00.54.889,00_bat_bachelor,2022.2.4,59.8937449263197,
,,,,,,,,,,,,1,0,1,0,162,0,162,0,,,,,,,162,,,0.2,1711.3314039604738,Y,d,go,d,1,,0.4655505088157952,,,,,,,,,,,,,,,,,53,001,18,m,Psychologie,2023-01-23_14h00.54.889,00_bat_bachelor,2022.2.4,59.8937449263197,
,,,,,,,,,,,,1,0,1,0,163,0,163,0,,,,,,,163,,,0.2,1712.0983931643423,X,l,go,None,0,1712.8992562912172,,,,,,,,,,,,,,,,,,53,001,18,m,Psychologie,2023-01-23_14h00.54.889,00_bat_bachelor,2022.2.4,59.8937449263197,
,,,,,,,,,,,,1,0,1,0,164,0,164,0,,,,,,,164,,,0.2,1713.0993788609048,Y,d,go,d,1,,0.47371438366826624,,,,,,,,,,,,,,,,,53,001,18,m,Psychologie,2023-01-23_14h00.54.889,00_bat_bachelor,2022.2.4,59.8937449263197,
,,,,,,,,,,,,1,0,1,0,165,0,165,0,,,,,,,165,,,0.2,1713.8831666019978,X,l,go,l,1,,0.36181868019048125,,,,,,,,,,,,,,,,,53,001,18,m,Psychologie,2023-01-23_14h00.54.889,00_bat_bachelor,2022.2.4,59.8937449263197,
,,,,,,,,,,,,1,0,1,0,166,0,166,0,,,,,,,166,,,0.2,1714.550288702827,Y,d,go,d,1,,0.39790739002637565,,,,,,,,,,,,,,,,,53,001,18,m,Psychologie,2023-01-23_14h00.54.889,00_bat_bachelor,2022.2.4,59.8937449263197,
,,,,,,,,,,,,1,0,1,0,167,0,167,0,,,,,,,167,,,0.2,1715.2509254540782,Y,None,nogo,l,0,,0.3848654569592327,,,,,,,,,,,,,,,,,53,001,18,m,Psychologie,2023-01-23_14h00.54.889,00_bat_bachelor,2022.2.4,59.8937449263197,
,,,,,,,,,,,,1,0,1,0,168,0,168,0,,,,,,,168,,,0.2,1715.9513968719402,X,l,go,d,0,,0.42102737887762487,,,,,,,,,,,,,,,,,53,001,18,m,Psychologie,2023-01-23_14h00.54.889,00_bat_bachelor,2022.2.4,59.8937449263197,
,,,,,,,,,,,,1,0,1,0,169,0,169,0,,,,,,,169,,,0.2,1716.6854925160296,Y,d,go,None,0,,,,,,,,,,,,,,,,,,,53,001,18,m,Psychologie,2023-01-23_14h00.54.889,00_bat_bachelor,2022.2.4,59.8937449263197,
,,,,,,,,,,,,1,0,1,0,170,0,170,0,,,,,,,170,,,0.2,1717.6862799095688,X,l,go,l,1,,0.46344675216823816,,,,,,,,,,,,,,,,,53,001,18,m,Psychologie,2023-01-23_14h00.54.889,00_bat_bachelor,2022.2.4,59.8937449263197,
,,,,,,,,,,,,1,0,1,0,171,0,171,0,,,,,,,171,,,0.2,1718.453401477076,X,None,nogo,None,1,,,,,,,,,,,,,,,,,,,53,001,18,m,Psychologie,2023-01-23_14h00.54.889,00_bat_bachelor,2022.2.4,59.8937449263197,
,,,,,,,,,,,,1,0,1,0,172,0,172,0,,,,,,,172,,,0.2,1719.4542640220607,Y,d,go,d,1,,0.054429253563284874,,,,,,,,,,,,,,,,,53,001,18,m,Psychologie,2023-01-23_14h00.54.889,00_bat_bachelor,2022.2.4,59.8937449263197,
,,,,,,,,,,,,1,0,1,0,173,0,173,0,,,,,,,173,,,0.2,1719.8211860260926,X,l,go,None,0,1720.621767940931,,,,,,,,,,,,,,,,,,53,001,18,m,Psychologie,2023-01-23_14h00.54.889,00_bat_bachelor,2022.2.4,59.8937449263197,
,,,,,,,,,,,,1,0,1,0,174,0,174,0,,,,,,,174,,,0.2,1720.821941419621,Y,d,go,d,1,,0.5747266982216388,,,,,,,,,,,,,,,,,53,001,18,m,Psychologie,2023-01-23_14h00.54.889,00_bat_bachelor,2022.2.4,59.8937449263197,
,,,,,,,,,,,,1,0,1,0,175,0,175,0,,,,,,,175,,,0.2,1721.705790688051,Y,None,nogo,l,0,,0.37844752066303045,,,,,,,,,,,,,,,,,53,001,18,m,Psychologie,2023-01-23_14h00.54.889,00_bat_bachelor,2022.2.4,59.8937449263197,
,,,,,,,,,,,,1,0,1,0,176,0,176,0,,,,,,,176,,,0.2,1722.389642477734,X,l,go,None,0,,,,,,,,,,,,,,,,,,,53,001,18,m,Psychologie,2023-01-23_14h00.54.889,00_bat_bachelor,2022.2.4,59.8937449263197,
,,,,,,,,,,,,1,0,1,0,177,0,177,0,,,,,,,177,,,0.2,1723.3905893863412,Y,d,go,d,1,,0.4701391125563532,,,,,,,,,,,,,,,,,53,001,18,m,Psychologie,2023-01-23_14h00.54.889,00_bat_bachelor,2022.2.4,59.8937449263197,
,,,,,,,,,,,,1,0,1,0,178,0,178,0,,,,,,,178,,,0.2,1724.1746505819028,Y,None,nogo,l,0,,0.4542613021330908,,,,,,,,,,,,,,,,,53,001,18,m,Psychologie,2023-01-23_14h00.54.889,00_bat_bachelor,2022.2.4,59.8937449263197,
,,,,,,,,,,,,1,0,1,0,179,0,179,0,,,,,,,179,,,0.2,1724.9414778464707,X,l,go,l,1,,0.5025172787718475,,,,,,,,,,,,,,,,,53,001,18,m,Psychologie,2023-01-23_14h00.54.889,00_bat_bachelor,2022.2.4,59.8937449263197,
,,,,,,,,,,,,1,0,1,0,180,0,180,0,,,,,,,180,,,0.2,1725.7590769652743,Y,d,go,d,1,,0.437301310361363,,,,,,,,,,,,,,,,,53,001,18,m,Psychologie,2023-01-23_14h00.54.889,00_bat_bachelor,2022.2.4,59.8937449263197,
,,,,,,,,,,,,1,0,1,0,181,0,181,0,,,,,,,181,,,0.2,1726.509584237705,X,l,go,l,1,,0.6143388003110886,,,,,,,,,,,,,,,,,53,001,18,m,Psychologie,2023-01-23_14h00.54.889,00_bat_bachelor,2022.2.4,59.8937449263197,
,,,,,,,,,,,,1,0,1,0,182,0,182,0,,,,,,,182,,,0.2,1727.4272182170535,X,None,nogo,None,1,1728.2276241319487,,,,,,,,,,,,,,,,,,53,001,18,m,Psychologie,2023-01-23_14h00.54.889,00_bat_bachelor,2022.2.4,59.8937449263197,
,,,,,,,,,,,,1,0,1,0,183,0,183,0,,,,,,,183,,,0.2,1728.427760277409,Y,d,go,d,1,,0.4412440962623805,,,,,,,,,,,,,,,,,53,001,18,m,Psychologie,2023-01-23_14h00.54.889,00_bat_bachelor,2022.2.4,59.8937449263197,
,,,,,,,,,,,,1,0,1,0,184,0,184,0,,,,,,,184,,,0.2,1729.1780682771932,X,l,go,l,1,,0.42664677009452134,,,,,,,,,,,,,,,,,53,001,18,m,Psychologie,2023-01-23_14h00.54.889,00_bat_bachelor,2022.2.4,59.8937449263197,
,,,,,,,,,,,,1,0,1,0,185,0,185,0,,,,,,,185,,,0.2,1729.9121993152658,X,None,nogo,None,1,,,,,,,,,,,,,,,,,,,53,001,18,m,Psychologie,2023-01-23_14h00.54.889,00_bat_bachelor,2022.2.4,59.8937449263197,
,,,,,,,,,,,,1,0,1,0,186,0,186,0,,,,,,,186,,,0.2,1730.912960526999,Y,d,go,d,1,,0.38724800129421055,,,,,,,,,,,,,,,,,53,001,18,m,Psychologie,2023-01-23_14h00.54.889,00_bat_bachelor,2022.2.4,59.8937449263197,
,,,,,,,,,,,,1,0,1,0,187,0,187,0,,,,,,,187,,,0.2,1731.6133533995599,X,l,go,l,1,,0.5194069675635546,,,,,,,,,,,,,,,,,53,001,18,m,Psychologie,2023-01-23_14h00.54.889,00_bat_bachelor,2022.2.4,59.8937449263197,
,,,,,,,,,,,,1,0,1,0,188,0,188,0,,,,,,,188,,,0.2,1732.447229843703,X,None,nogo,None,1,,,,,,,,,,,,,,,,,,,53,001,18,m,Psychologie,2023-01-23_14h00.54.889,00_bat_bachelor,2022.2.4,59.8937449263197,
,,,,,,,,,,,,1,0,1,0,189,0,189,0,,,,,,,189,,,0.2,1733.448229115922,Y,d,go,d,1,,0.2516577640781179,,,,,,,,,,,,,,,,,53,001,18,m,Psychologie,2023-01-23_14h00.54.889,00_bat_bachelor,2022.2.4,59.8937449263197,
,,,,,,,,,,,,1,0,1,0,190,0,190,0,,,,,,,190,,,0.2,1734.0152790228603,X,l,go,None,0,,,,,,,,,,,,,,,,,,,53,001,18,m,Psychologie,2023-01-23_14h00.54.889,00_bat_bachelor,2022.2.4,59.8937449263197,
,,,,,,,,,,,,1,0,1,0,191,0,191,0,,,,,,,191,,,0.2,1735.0160426588263,Y,d,go,None,0,,,,,,,,,,,,,,,,,,,53,001,18,m,Psychologie,2023-01-23_14h00.54.889,00_bat_bachelor,2022.2.4,59.8937449263197,
,,,,,,,,,,,,1,0,1,0,192,0,192,0,,,,,,,192,,,0.2,1736.016725325142,Y,None,nogo,l,0,,0.3558521377854049,,,,,,,,,,,,,,,,,53,001,18,m,Psychologie,2023-01-23_14h00.54.889,00_bat_bachelor,2022.2.4,59.8937449263197,
,,,,,,,,,,,,1,0,1,0,193,0,193,0,,,,,,,193,,,0.2,1736.6839841532055,X,l,go,None,0,1737.4843735832255,,,,,,,,,,,,,,,,,,53,001,18,m,Psychologie,2023-01-23_14h00.54.889,00_bat_bachelor,2022.2.4,59.8937449263197,
,,,,,,,,,,,,1,0,1,0,194,0,194,0,,,,,,,194,,,0.2,1737.6847380922409,Y,d,go,d,1,,0.41547683614771813,,,,,,,,,,,,,,,,,53,001,18,m,Psychologie,2023-01-23_14h00.54.889,00_bat_bachelor,2022.2.4,59.8937449263197,
,,,,,,,,,,,,1,0,1,0,195,0,195,0,,,,,,,195,,,0.2,1738.4018873202149,X,l,go,l,1,,0.5799606350483373,,,,,,,,,,,,,,,,,53,001,18,m,Psychologie,2023-01-23_14h00.54.889,00_bat_bachelor,2022.2.4,59.8937449263197,
,,,,,,,,,,,,1,0,1,0,196,0,196,0,,,,,,,196,,,0.2,1739.285962527967,Y,d,go,d,1,,0.51077327481471,,,,,,,,,,,,,,,,,53,001,18,m,Psychologie,2023-01-23_14h00.54.889,00_bat_bachelor,2022.2.4,59.8937449263197,
,,,,,,,,,,,,1,0,1,0,197,0,197,0,,,,,,,197,,,0.2,1740.103319707443,X,l,go,l,1,,0.36574255710002035,,,,,,,,,,,,,,,,,53,001,18,m,Psychologie,2023-01-23_14h00.54.889,00_bat_bachelor,2022.2.4,59.8937449263197,
,,,,,,,,,,,,1,0,1,0,198,0,198,0,,,,,,,198,,,0.2,1740.7704941717675,Y,d,go,None,0,1741.5711080867331,,,,,,,,,,,,,,,,,,53,001,18,m,Psychologie,2023-01-23_14h00.54.889,00_bat_bachelor,2022.2.4,59.8937449263197,
,,,,,,,,,,,,1,0,1,0,199,0,199,0,,,,,,,199,,,0.2,1741.7710095655639,X,l,go,l,1,,0.3456523851491511,,,,,,,,,,,,,,,,,53,001,18,m,Psychologie,2023-01-23_14h00.54.889,00_bat_bachelor,2022.2.4,59.8937449263197,
,,,,,,,,,,,,1,0,1,0,200,0,200,0,,,,,,,200,,,0.2,1742.4215673106955,Y,d,go,d,1,,0.574779546703212,,,,,,,,,,,,,,,,,53,001,18,m,Psychologie,2023-01-23_14h00.54.889,00_bat_bachelor,2022.2.4,59.8937449263197,
,,,,,,,,,,,,1,0,1,0,201,0,201,0,,,,,,,201,,,0.2,1743.3057482152944,Y,None,nogo,None,1,,,,,,,,,,,,,,,,,,,53,001,18,m,Psychologie,2023-01-23_14h00.54.889,00_bat_bachelor,2022.2.4,59.8937449263197,
