loop_instruction.thisRepN,loop_instruction.thisTrialN,loop_instruction.thisN,loop_instruction.thisIndex,loop_rsi_practice.thisRepN,loop_rsi_practice.thisTrialN,loop_rsi_practice.thisN,loop_rsi_practice.thisIndex,loop_practice.thisRepN,loop_practice.thisTrialN,loop_practice.thisN,loop_practice.thisIndex,loop_exp.thisRepN,loop_exp.thisTrialN,loop_exp.thisN,loop_exp.thisIndex,loop_trials.thisRepN,loop_trials.thisTrialN,loop_trials.thisN,loop_trials.thisIndex,map_condition,map_x_key,map_y_key,key_resp_welcome.started,key_resp_welcome.keys,key_resp_welcome.rt,index,text_empty_rsi_practice.started,text_empty_rsi_practice.stopped,rsi,stimulus.started,stimulus,correct,trial_type,key_resp_trial.keys,key_resp_trial.corr,key_resp_trial.rt,stimulus.stopped,key_resp_instruction_rsi.started,key_resp_instruction_rsi.keys,key_resp_instruction_rsi.rt,key_resp_instruction_rsi.stopped,key_resp_instruction_final.started,key_resp_instruction_final.keys,key_resp_instruction_final.rt,key_resp_break.started,key_resp_break.keys,key_resp_break.rt,key_resp_break.stopped,key_resp_end_screen.started,image_end_screen.started,key_resp_end_screen.stopped,image_end_screen.stopped,key_resp_end_screen.keys,participant,session,Alter,Geschlecht (w/m/d/andere),Studiengang,date,expName,psychopyVersion,frameRate,
,,,,0,0,0,0,0,0,0,0,,,,,,,,,1,l,d,1647.2362510369858,space,18.200017537805252,0,1665.462260139524,1666.4763338296907,1,1666.4763338296907,X,l,go,None,0,,,,,,,,,,,,,,,,,,,55,001,19,w,Psychologie,2023-01-23_15h32.12.774,00_bat_bachelor,2022.2.4,60.03443430843169,
,,,,0,0,0,0,1,0,1,0,,,,,,,,,,,,,,,1,1667.877694604802,1668.8788204223383,1,1668.8788204223383,Y,d,go,d,1,0.2495772714028135,,,,,,,,,,,,,,,,,,55,001,19,w,Psychologie,2023-01-23_15h32.12.774,00_bat_bachelor,2022.2.4,60.03443430843169,
,,,,0,0,0,0,2,0,2,0,,,,,,,,,,,,,,,2,1669.8293106282363,1670.8300582641969,1,1670.8300582641969,X,l,go,l,1,0.4093827697215602,,,,,,,,,,,,,,,,,,55,001,19,w,Psychologie,2023-01-23_15h32.12.774,00_bat_bachelor,2022.2.4,60.03443430843169,
,,,,0,0,0,0,3,0,3,0,,,,,,,,,,,,,,,3,1671.947759055649,1672.9483791765524,1,1672.9483791765524,X,None,nogo,None,1,,1673.7491351519711,,,,,,,,,,,,,,,,,55,001,19,w,Psychologie,2023-01-23_15h32.12.774,00_bat_bachelor,2022.2.4,60.03443430843169,
,,,,0,0,0,0,4,0,4,0,,,,,,,,,,,,,,,4,1674.34961292136,1675.3501418908127,1,1675.3501418908127,Y,d,go,d,1,0.3852256905520335,,,,,,,,,,,,,,,,,,55,001,19,w,Psychologie,2023-01-23_15h32.12.774,00_bat_bachelor,2022.2.4,60.03443430843169,
,,,,0,0,0,0,5,0,5,0,,,,,,,,,,,,,,,5,1676.450966084376,1677.4518092354992,1,1677.4518092354992,X,l,go,l,1,0.28444561816286296,,,,,,,,,,,,,,,,,,55,001,19,w,Psychologie,2023-01-23_15h32.12.774,00_bat_bachelor,2022.2.4,60.03443430843169,
,,,,0,0,0,0,6,0,6,0,,,,,,,,,,,,,,,6,1678.4526921442011,1679.4534145680955,1,1679.4534145680955,Y,d,go,d,1,0.49038588197436184,,,,,,,,,,,,,,,,,,55,001,19,w,Psychologie,2023-01-23_15h32.12.774,00_bat_bachelor,2022.2.4,60.03443430843169,
,,,,0,0,0,0,7,0,7,0,,,,,,,,,,,,,,,7,1680.6543448949233,1681.655072167283,1,1681.655072167283,X,l,go,l,1,0.5121841743821278,,,,,,,,,,,,,,,,,,55,001,19,w,Psychologie,2023-01-23_15h32.12.774,00_bat_bachelor,2022.2.4,60.03443430843169,
,,,,0,0,0,0,8,0,8,0,,,,,,,,,,,,,,,8,1682.872687092051,1683.8735215158667,1,1683.8735215158667,Y,d,go,d,1,0.29382064391393214,,,,,,,,,,,,,,,,,,55,001,19,w,Psychologie,2023-01-23_15h32.12.774,00_bat_bachelor,2022.2.4,60.03443430843169,
,,,,0,0,0,0,9,0,9,0,,,,,,,,,,,,,,,9,1684.874218242825,1685.8750143636717,1,1685.8750143636717,Y,None,nogo,d,0,0.4685017713345587,,,,,,,,,,,,,,,,,,55,001,19,w,Psychologie,2023-01-23_15h32.12.774,00_bat_bachelor,2022.2.4,60.03443430843169,
,,,,0,0,0,0,10,0,10,0,,,,,,,,,,,,,,,10,1687.4760569813661,1688.4768191627227,1,1688.4768191627227,X,l,go,l,1,0.5392537370789796,,,,,,,,,,,,,,,,,,55,001,19,w,Psychologie,2023-01-23_15h32.12.774,00_bat_bachelor,2022.2.4,60.03443430843169,
,,,,0,0,0,0,11,0,11,0,,,,,,,,,,,,,,,11,1689.7277538289782,1690.7285901921568,1,1690.7285901921568,Y,d,go,d,1,0.38290229765698314,,,,,,,,,,,,,,,,,,55,001,19,w,Psychologie,2023-01-23_15h32.12.774,00_bat_bachelor,2022.2.4,60.03443430843169,
,,,,0,0,0,0,12,0,12,0,,,,,,,,,,,,,,,12,1691.8128020301228,1692.8135981509695,1,1692.8135981509695,X,l,go,l,1,0.5224033209960908,,,,,,,,,,,,,,,,,,55,001,19,w,Psychologie,2023-01-23_15h32.12.774,00_bat_bachelor,2022.2.4,60.03443430843169,
,,,,0,0,0,0,13,0,13,0,,,,,,,,,,,,,,,13,1694.0479287040653,1695.048730158247,1,1695.048730158247,X,None,nogo,None,1,,1695.84928492154,,,,,,,,,,,,,,,,,55,001,19,w,Psychologie,2023-01-23_15h32.12.774,00_bat_bachelor,2022.2.4,60.03443430843169,
,,,,0,0,0,0,14,0,14,0,,,,,,,,,,,,,,,14,1696.4498014788842,1697.4504885089118,1,1697.4504885089118,Y,d,go,d,1,0.3981614417862147,,,,,,,,,,,,,,,,,,55,001,19,w,Psychologie,2023-01-23_15h32.12.774,00_bat_bachelor,2022.2.4,60.03443430843169,
,,,,1,0,1,0,0,0,0,0,,,,,,,,,,,,,,,0,1706.4072802873561,1706.607343220734,0.2,1706.607343220734,X,l,go,None,0,,1707.4079804082867,1698.5796132946853,j,7.800008519785479,,,,,,,,,,,,,,55,001,19,w,Psychologie,2023-01-23_15h32.12.774,00_bat_bachelor,2022.2.4,60.03443430843169,
,,,,1,0,1,0,1,0,1,0,,,,,,,,,,,,,,,1,1708.0085706624668,1708.2087179594673,0.2,1708.2087179594673,Y,d,go,d,1,0.40786180074792355,,,,,,,,,,,,,,,,,,55,001,19,w,Psychologie,2023-01-23_15h32.12.774,00_bat_bachelor,2022.2.4,60.03443430843169,
,,,,1,0,1,0,2,0,2,0,,,,,,,,,,,,,,,2,1709.326075963094,1709.5264506537933,0.2,1709.5264506537933,X,l,go,l,1,0.49749909061938524,,,,,,,,,,,,,,,,,,55,001,19,w,Psychologie,2023-01-23_15h32.12.774,00_bat_bachelor,2022.2.4,60.03443430843169,
,,,,1,0,1,0,3,0,3,0,,,,,,,,,,,,,,,3,1710.7270973444683,1710.9273503383156,0.2,1710.9273503383156,Y,d,go,d,1,0.4253934286534786,,,,,,,,,,,,,,,,,,55,001,19,w,Psychologie,2023-01-23_15h32.12.774,00_bat_bachelor,2022.2.4,60.03443430843169,
,,,,1,0,1,0,4,0,4,0,,,,,,,,,,,,,,,4,1712.0614525763085,1712.26145635813,0.2,1712.26145635813,X,l,go,l,1,0.4335893034003675,,,,,,,,,,,,,,,,,,55,001,19,w,Psychologie,2023-01-23_15h32.12.774,00_bat_bachelor,2022.2.4,60.03443430843169,
,,,,1,0,1,0,5,0,5,0,,,,,,,,,,,,,,,5,1713.4121971335262,1713.6124045515899,0.2,1713.6124045515899,X,None,nogo,None,1,,,,,,,,,,,,,,,,,,,55,001,19,w,Psychologie,2023-01-23_15h32.12.774,00_bat_bachelor,2022.2.4,60.03443430843169,
,,,,1,0,1,0,6,0,6,0,,,,,,,,,,,,,,,6,1715.0133250844665,1715.2136575933546,0.2,1715.2136575933546,Y,d,go,d,1,0.3463878910988569,,,,,,,,,,,,,,,,,,55,001,19,w,Psychologie,2023-01-23_15h32.12.774,00_bat_bachelor,2022.2.4,60.03443430843169,
,,,,1,0,1,0,7,0,7,0,,,,,,,,,,,,,,,7,1716.2645176899387,1716.4646858352935,0.2,1716.4646858352935,X,l,go,l,1,0.4547849295195192,,,,,,,,,,,,,,,,,,55,001,19,w,Psychologie,2023-01-23_15h32.12.774,00_bat_bachelor,2022.2.4,60.03443430843169,
,,,,1,0,1,0,8,0,8,0,,,,,,,,,,,,,,,8,1717.6319647844648,1717.832370020682,0.2,1717.832370020682,Y,d,go,d,1,0.4479393570218235,,,,,,,,,,,,,,,,,,55,001,19,w,Psychologie,2023-01-23_15h32.12.774,00_bat_bachelor,2022.2.4,60.03443430843169,
,,,,1,0,1,0,9,0,9,0,,,,,,,,,,,,,,,9,1718.9832930989796,1719.1834282747004,0.2,1719.1834282747004,X,l,go,l,1,0.4248615500982851,,,,,,,,,,,,,,,,,,55,001,19,w,Psychologie,2023-01-23_15h32.12.774,00_bat_bachelor,2022.2.4,60.03443430843169,
,,,,1,0,1,0,10,0,10,0,,,,,,,,,,,,,,,10,1720.3175789975794,1720.517556597595,0.2,1720.517556597595,X,None,nogo,None,1,,1721.3183756031794,,,,,,,,,,,,,,,,,55,001,19,w,Psychologie,2023-01-23_15h32.12.774,00_bat_bachelor,2022.2.4,60.03443430843169,
,,,,1,0,1,0,11,0,11,0,,,,,,,,,,,,,,,11,1721.9188073121477,1722.1190845483216,0.2,1722.1190845483216,Y,d,go,d,1,0.48082370474003255,,,,,,,,,,,,,,,,,,55,001,19,w,Psychologie,2023-01-23_15h32.12.774,00_bat_bachelor,2022.2.4,60.03443430843169,
,,,,1,0,1,0,12,0,12,0,,,,,,,,,,,,,,,12,1723.3029457925586,1723.5031149075367,0.2,1723.5031149075367,X,l,go,l,1,0.4573691706173122,,,,,,,,,,,,,,,,,,55,001,19,w,Psychologie,2023-01-23_15h32.12.774,00_bat_bachelor,2022.2.4,60.03443430843169,
,,,,1,0,1,0,13,0,13,0,,,,,,,,,,,,,,,13,1724.6707749475027,1724.8708083051024,0.2,1724.8708083051024,Y,d,go,d,1,0.3528460699599236,,,,,,,,,,,,,,,,,,55,001,19,w,Psychologie,2023-01-23_15h32.12.774,00_bat_bachelor,2022.2.4,60.03443430843169,
,,,,1,0,1,0,14,0,14,0,,,,,,,,,,,,,,,14,1725.9383287571836,1726.138742235722,0.2,1726.138742235722,X,l,go,l,1,0.4782797060906887,,,,,,,,,,,,,,,,,,55,001,19,w,Psychologie,2023-01-23_15h32.12.774,00_bat_bachelor,2022.2.4,60.03443430843169,
,,,,,,,,,,,,,,,,,,,,,,,,,,,,,,,,,,,,,,1727.351083466201,None,,1727.351083466201,1727.351083466201,space,7.7791779844556,,,,,,,,,,55,001,19,w,Psychologie,2023-01-23_15h32.12.774,00_bat_bachelor,2022.2.4,60.03443430843169,
,,,,,,,,,,,,0,0,0,0,0,0,0,0,,,,,,,0,,,1,1736.1629928906914,X,l,go,l,1,0.4527092941571027,,,,,,,,,,,,,,,,,,55,001,19,w,Psychologie,2023-01-23_15h32.12.774,00_bat_bachelor,2022.2.4,60.03443430843169,
,,,,,,,,,,,,0,0,0,0,1,0,1,0,,,,,,,1,,,1,1737.7308786759386,Y,d,go,d,1,0.24437242548447102,,,,,,,,,,,,,,,,,,55,001,19,w,Psychologie,2023-01-23_15h32.12.774,00_bat_bachelor,2022.2.4,60.03443430843169,
,,,,,,,,,,,,0,0,0,0,2,0,2,0,,,,,,,2,,,1,1739.0816348695662,X,l,go,l,1,0.3175980868982151,,,,,,,,,,,,,,,,,,55,001,19,w,Psychologie,2023-01-23_15h32.12.774,00_bat_bachelor,2022.2.4,60.03443430843169,
,,,,,,,,,,,,0,0,0,0,3,0,3,0,,,,,,,3,,,1,1740.5160850831307,Y,d,go,d,1,0.4192896740278229,,,,,,,,,,,,,,,,,,55,001,19,w,Psychologie,2023-01-23_15h32.12.774,00_bat_bachelor,2022.2.4,60.03443430843169,
,,,,,,,,,,,,0,0,0,0,4,0,4,0,,,,,,,4,,,1,1742.0508557328722,X,l,go,l,1,0.34096340893302113,,,,,,,,,,,,,,,,,,55,001,19,w,Psychologie,2023-01-23_15h32.12.774,00_bat_bachelor,2022.2.4,60.03443430843169,
,,,,,,,,,,,,0,0,0,0,5,0,5,0,,,,,,,5,,,1,1743.5017796355532,X,None,nogo,None,1,,,,,,,,,,,,,,,,,,,55,001,19,w,Psychologie,2023-01-23_15h32.12.774,00_bat_bachelor,2022.2.4,60.03443430843169,
,,,,,,,,,,,,0,0,0,0,6,0,6,0,,,,,,,6,,,1,1745.3031552470056,Y,d,go,d,1,0.2878477983176708,,,,,,,,,,,,,,,,,,55,001,19,w,Psychologie,2023-01-23_15h32.12.774,00_bat_bachelor,2022.2.4,60.03443430843169,
,,,,,,,,,,,,0,0,0,0,7,0,7,0,,,,,,,7,,,1,1746.7043962645112,X,l,go,l,1,0.31108996889088303,,,,,,,,,,,,,,,,,,55,001,19,w,Psychologie,2023-01-23_15h32.12.774,00_bat_bachelor,2022.2.4,60.03443430843169,
,,,,,,,,,,,,0,0,0,0,8,0,8,0,,,,,,,8,,,1,1748.1218544864096,Y,d,go,d,1,0.26976635260507464,,,,,,,,,,,,,,,,,,55,001,19,w,Psychologie,2023-01-23_15h32.12.774,00_bat_bachelor,2022.2.4,60.03443430843169,
,,,,,,,,,,,,0,0,0,0,9,0,9,0,,,,,,,9,,,1,1749.506529693841,Y,None,nogo,None,1,,,,,,,,,,,,,,,,,,,55,001,19,w,Psychologie,2023-01-23_15h32.12.774,00_bat_bachelor,2022.2.4,60.03443430843169,
,,,,,,,,,,,,0,0,0,0,10,0,10,0,,,,,,,10,,,1,1751.3077545174165,X,l,go,l,1,0.29932803520932794,,,,,,,,,,,,,,,,,,55,001,19,w,Psychologie,2023-01-23_15h32.12.774,00_bat_bachelor,2022.2.4,60.03443430843169,
,,,,,,,,,,,,0,0,0,0,11,0,11,0,,,,,,,11,,,1,1752.708968383493,Y,d,go,d,1,0.27551034977659583,,,,,,,,,,,,,,,,,,55,001,19,w,Psychologie,2023-01-23_15h32.12.774,00_bat_bachelor,2022.2.4,60.03443430843169,
,,,,,,,,,,,,0,0,0,0,12,0,12,0,,,,,,,12,,,1,1754.0933429850265,X,l,go,l,1,0.41066422360017896,,,,,,,,,,,,,,,,,,55,001,19,w,Psychologie,2023-01-23_15h32.12.774,00_bat_bachelor,2022.2.4,60.03443430843169,
,,,,,,,,,,,,0,0,0,0,13,0,13,0,,,,,,,13,,,1,1755.611243339954,Y,d,go,d,1,0.3000490046106279,,,,,,,,,,,,,,,,,,55,001,19,w,Psychologie,2023-01-23_15h32.12.774,00_bat_bachelor,2022.2.4,60.03443430843169,
,,,,,,,,,,,,0,0,0,0,14,0,14,0,,,,,,,14,,,1,1757.0121987819439,X,l,go,l,1,0.45107438578270376,,,,,,,,,,,,,,,,,,55,001,19,w,Psychologie,2023-01-23_15h32.12.774,00_bat_bachelor,2022.2.4,60.03443430843169,
,,,,,,,,,,,,0,0,0,0,15,0,15,0,,,,,,,15,,,1,1758.5801306278445,Y,d,go,d,1,0.32467638654634356,,,,,,,,,,,,,,,,,,55,001,19,w,Psychologie,2023-01-23_15h32.12.774,00_bat_bachelor,2022.2.4,60.03443430843169,
,,,,,,,,,,,,0,0,0,0,16,0,16,0,,,,,,,16,,,1,1760.01454205357,X,l,go,l,1,0.42553791333921254,,,,,,,,,,,,,,,,,,55,001,19,w,Psychologie,2023-01-23_15h32.12.774,00_bat_bachelor,2022.2.4,60.03443430843169,
,,,,,,,,,,,,0,0,0,0,17,0,17,0,,,,,,,17,,,1,1761.5654751197435,X,None,nogo,None,1,,,,,,,,,,,,,,,,,,,55,001,19,w,Psychologie,2023-01-23_15h32.12.774,00_bat_bachelor,2022.2.4,60.03443430843169,
,,,,,,,,,,,,0,0,0,0,18,0,18,0,,,,,,,18,,,1,1763.3670441856375,Y,d,go,d,1,0.38404411543160677,,,,,,,,,,,,,,,,,,55,001,19,w,Psychologie,2023-01-23_15h32.12.774,00_bat_bachelor,2022.2.4,60.03443430843169,
,,,,,,,,,,,,0,0,0,0,19,0,19,0,,,,,,,19,,,1,1764.8682609123643,X,l,go,l,1,0.27556853147689253,,,,,,,,,,,,,,,,,,55,001,19,w,Psychologie,2023-01-23_15h32.12.774,00_bat_bachelor,2022.2.4,60.03443430843169,
,,,,,,,,,,,,0,0,0,0,20,0,20,0,,,,,,,20,,,1,1766.2526083623525,X,None,nogo,None,1,,1767.0532668832457,,,,,,,,,,,,,,,,,55,001,19,w,Psychologie,2023-01-23_15h32.12.774,00_bat_bachelor,2022.2.4,60.03443430843169,
,,,,,,,,,,,,0,0,0,0,21,0,21,0,,,,,,,21,,,1,1768.053748337552,Y,d,go,d,1,0.4178264020010829,,,,,,,,,,,,,,,,,,55,001,19,w,Psychologie,2023-01-23_15h32.12.774,00_bat_bachelor,2022.2.4,60.03443430843169,
,,,,,,,,,,,,0,0,0,0,22,0,22,0,,,,,,,22,,,1,1769.588246017811,X,l,go,l,1,0.37171636370476335,,,,,,,,,,,,,,,,,,55,001,19,w,Psychologie,2023-01-23_15h32.12.774,00_bat_bachelor,2022.2.4,60.03443430843169,
,,,,,,,,,,,,0,0,0,0,23,0,23,0,,,,,,,23,,,1,1771.0730889342958,Y,d,go,d,1,0.31172366556711495,,,,,,,,,,,,,,,,,,55,001,19,w,Psychologie,2023-01-23_15h32.12.774,00_bat_bachelor,2022.2.4,60.03443430843169,
,,,,,,,,,,,,0,0,0,0,24,0,24,0,,,,,,,24,,,1,1772.4904443683336,X,l,go,l,1,0.3493474049028009,,,,,,,,,,,,,,,,,,55,001,19,w,Psychologie,2023-01-23_15h32.12.774,00_bat_bachelor,2022.2.4,60.03443430843169,
,,,,,,,,,,,,0,0,0,0,25,0,25,0,,,,,,,25,,,1,1773.9418453614926,Y,d,go,d,1,0.38585744774900377,,,,,,,,,,,,,,,,,,55,001,19,w,Psychologie,2023-01-23_15h32.12.774,00_bat_bachelor,2022.2.4,60.03443430843169,
,,,,,,,,,,,,0,0,0,0,26,0,26,0,,,,,,,26,,,1,1775.4430291185854,X,l,go,l,1,0.4213003396289423,,,,,,,,,,,,,,,,,,55,001,19,w,Psychologie,2023-01-23_15h32.12.774,00_bat_bachelor,2022.2.4,60.03443430843169,
,,,,,,,,,,,,0,0,0,0,27,0,27,0,,,,,,,27,,,1,1776.9774186776485,X,None,nogo,None,1,,,,,,,,,,,,,,,,,,,55,001,19,w,Psychologie,2023-01-23_15h32.12.774,00_bat_bachelor,2022.2.4,60.03443430843169,
,,,,,,,,,,,,0,0,0,0,28,0,28,0,,,,,,,28,,,1,1778.7788340466795,Y,d,go,d,1,0.34873843553941697,,,,,,,,,,,,,,,,,,55,001,19,w,Psychologie,2023-01-23_15h32.12.774,00_bat_bachelor,2022.2.4,60.03443430843169,
,,,,,,,,,,,,0,0,0,0,29,0,29,0,,,,,,,29,,,1,1780.2300275248708,X,l,go,l,1,0.3225013572955504,,,,,,,,,,,,,,,,,,55,001,19,w,Psychologie,2023-01-23_15h32.12.774,00_bat_bachelor,2022.2.4,60.03443430843169,
,,,,,,,,,,,,0,0,0,0,30,0,30,0,,,,,,,30,,,1,1781.6644345870009,X,None,nogo,None,1,,,,,,,,,,,,,,,,,,,55,001,19,w,Psychologie,2023-01-23_15h32.12.774,00_bat_bachelor,2022.2.4,60.03443430843169,
,,,,,,,,,,,,0,0,0,0,31,0,31,0,,,,,,,31,,,1,1783.4657641377999,Y,d,go,d,1,0.3348475331440568,,,,,,,,,,,,,,,,,,55,001,19,w,Psychologie,2023-01-23_15h32.12.774,00_bat_bachelor,2022.2.4,60.03443430843169,
,,,,,,,,,,,,0,0,0,0,32,0,32,0,,,,,,,32,,,1,1784.9166356767528,X,l,go,l,1,0.30790257651824504,,,,,,,,,,,,,,,,,,55,001,19,w,Psychologie,2023-01-23_15h32.12.774,00_bat_bachelor,2022.2.4,60.03443430843169,
,,,,,,,,,,,,0,0,0,0,33,0,33,0,,,,,,,33,,,1,1786.3345705044921,Y,d,go,d,1,0.24990260461345315,,,,,,,,,,,,,,,,,,55,001,19,w,Psychologie,2023-01-23_15h32.12.774,00_bat_bachelor,2022.2.4,60.03443430843169,
,,,,,,,,,,,,0,0,0,0,34,0,34,0,,,,,,,34,,,1,1787.6857843947364,Y,None,nogo,None,1,,,,,,,,,,,,,,,,,,,55,001,19,w,Psychologie,2023-01-23_15h32.12.774,00_bat_bachelor,2022.2.4,60.03443430843169,
,,,,,,,,,,,,0,0,0,0,35,0,35,0,,,,,,,35,,,1,1789.4870329760015,X,l,go,l,1,0.24857460521161556,,,,,,,,,,,,,,,,,,55,001,19,w,Psychologie,2023-01-23_15h32.12.774,00_bat_bachelor,2022.2.4,60.03443430843169,
,,,,,,,,,,,,0,0,0,0,36,0,36,0,,,,,,,36,,,1,1790.8380233512726,Y,d,go,d,1,0.24189194187056273,,,,,,,,,,,,,,,,,,55,001,19,w,Psychologie,2023-01-23_15h32.12.774,00_bat_bachelor,2022.2.4,60.03443430843169,
,,,,,,,,,,,,0,0,0,0,37,0,37,0,,,,,,,37,,,1,1792.1887955447892,X,l,go,l,1,0.3474007392069325,,,,,,,,,,,,,,,,,,55,001,19,w,Psychologie,2023-01-23_15h32.12.774,00_bat_bachelor,2022.2.4,60.03443430843169,
,,,,,,,,,,,,0,0,0,0,38,0,38,0,,,,,,,38,,,1,1793.6402304774383,X,None,nogo,None,1,,1794.4405699681956,,,,,,,,,,,,,,,,,55,001,19,w,Psychologie,2023-01-23_15h32.12.774,00_bat_bachelor,2022.2.4,60.03443430843169,
,,,,,,,,,,,,0,0,0,0,39,0,39,0,,,,,,,39,,,1,1795.4412618466886,Y,d,go,d,1,0.3271985672181472,,,,,,,,,,,,,,,,,,55,001,19,w,Psychologie,2023-01-23_15h32.12.774,00_bat_bachelor,2022.2.4,60.03443430843169,
,,,,,,,,,,,,0,0,0,0,40,0,40,0,,,,,,,40,,,1,1796.8756713330513,X,l,go,l,1,0.3488475263584405,,,,,,,,,,,,,,,,,,55,001,19,w,Psychologie,2023-01-23_15h32.12.774,00_bat_bachelor,2022.2.4,60.03443430843169,
,,,,,,,,,,,,0,0,0,0,41,0,41,0,,,,,,,41,,,1,1798.3271004474955,X,None,nogo,None,1,,,,,,,,,,,,,,,,,,,55,001,19,w,Psychologie,2023-01-23_15h32.12.774,00_bat_bachelor,2022.2.4,60.03443430843169,
,,,,,,,,,,,,0,0,0,0,42,0,42,0,,,,,,,42,,,1,1800.1284590892028,Y,d,go,d,1,0.4547548689879477,,,,,,,,,,,,,,,,,,55,001,19,w,Psychologie,2023-01-23_15h32.12.774,00_bat_bachelor,2022.2.4,60.03443430843169,
,,,,,,,,,,,,0,0,0,0,43,0,43,0,,,,,,,43,,,1,1801.6962634200463,X,l,go,l,1,0.28099204413592815,,,,,,,,,,,,,,,,,,55,001,19,w,Psychologie,2023-01-23_15h32.12.774,00_bat_bachelor,2022.2.4,60.03443430843169,
,,,,,,,,,,,,0,0,0,0,44,0,44,0,,,,,,,44,,,1,1803.0805541427108,X,None,nogo,None,1,,,,,,,,,,,,,,,,,,,55,001,19,w,Psychologie,2023-01-23_15h32.12.774,00_bat_bachelor,2022.2.4,60.03443430843169,
,,,,,,,,,,,,0,0,0,0,45,0,45,0,,,,,,,45,,,1,1804.8820786026772,X,None,nogo,None,1,,,,,,,,,,,,,,,,,,,55,001,19,w,Psychologie,2023-01-23_15h32.12.774,00_bat_bachelor,2022.2.4,60.03443430843169,
,,,,,,,,,,,,0,0,0,0,46,0,46,0,,,,,,,46,,,1,1806.683351426269,Y,d,go,d,1,0.31665796611923724,,,,,,,,,,,,,,,,,,55,001,19,w,Psychologie,2023-01-23_15h32.12.774,00_bat_bachelor,2022.2.4,60.03443430843169,
,,,,,,,,,,,,0,0,0,0,47,0,47,0,,,,,,,47,,,1,1808.1013221327448,X,l,go,l,1,0.3701609706040472,,,,,,,,,,,,,,,,,,55,001,19,w,Psychologie,2023-01-23_15h32.12.774,00_bat_bachelor,2022.2.4,60.03443430843169,
,,,,,,,,,,,,0,0,0,0,48,0,48,0,,,,,,,48,,,1,1809.5855856555281,X,None,nogo,None,1,,,,,,,,,,,,,,,,,,,55,001,19,w,Psychologie,2023-01-23_15h32.12.774,00_bat_bachelor,2022.2.4,60.03443430843169,
,,,,,,,,,,,,0,0,0,0,49,0,49,0,,,,,,,49,,,1,1811.386997145717,Y,d,go,d,1,0.3646007308270782,,,,,,,,,,,,,,,,,,55,001,19,w,Psychologie,2023-01-23_15h32.12.774,00_bat_bachelor,2022.2.4,60.03443430843169,
,,,,,,,,,,,,0,0,0,0,50,0,50,0,,,,,,,50,,,1,1812.8547753430903,X,l,go,l,1,0.3850942966528237,,,,,,,,,,,,,,,,,,55,001,19,w,Psychologie,2023-01-23_15h32.12.774,00_bat_bachelor,2022.2.4,60.03443430843169,
,,,,,,,,,,,,0,0,0,0,51,0,51,0,,,,,,,51,,,1,1814.355892191059,Y,d,go,d,1,0.3074211220955476,,,,,,,,,,,,,,,,,,55,001,19,w,Psychologie,2023-01-23_15h32.12.774,00_bat_bachelor,2022.2.4,60.03443430843169,
,,,,,,,,,,,,0,0,0,0,52,0,52,0,,,,,,,52,,,1,1815.773746049148,X,l,go,l,1,0.26602429372724146,,,,,,,,,,,,,,,,,,55,001,19,w,Psychologie,2023-01-23_15h32.12.774,00_bat_bachelor,2022.2.4,60.03443430843169,
,,,,,,,,,,,,0,0,0,0,53,0,53,0,,,,,,,53,,,1,1817.1410724164452,Y,d,go,d,1,0.41790882614441216,,,,,,,,,,,,,,,,,,55,001,19,w,Psychologie,2023-01-23_15h32.12.774,00_bat_bachelor,2022.2.4,60.03443430843169,
,,,,,,,,,,,,0,0,0,0,54,0,54,0,,,,,,,54,,,1,1818.6759162783856,X,l,go,l,1,0.27635301603004336,,,,,,,,,,,,,,,,,,55,001,19,w,Psychologie,2023-01-23_15h32.12.774,00_bat_bachelor,2022.2.4,60.03443430843169,
,,,,,,,,,,,,0,0,0,0,55,0,55,0,,,,,,,55,,,1,1820.0606598494342,X,None,nogo,None,1,,1820.861200067331,,,,,,,,,,,,,,,,,55,001,19,w,Psychologie,2023-01-23_15h32.12.774,00_bat_bachelor,2022.2.4,60.03443430843169,
,,,,,,,,,,,,0,0,0,0,56,0,56,0,,,,,,,56,,,1,1821.8619186123833,Y,d,go,d,1,0.38589284161571413,,,,,,,,,,,,,,,,,,55,001,19,w,Psychologie,2023-01-23_15h32.12.774,00_bat_bachelor,2022.2.4,60.03443430843169,
,,,,,,,,,,,,0,0,0,0,57,0,57,0,,,,,,,57,,,1,1823.362989399815,X,l,go,l,1,0.3243282655021176,,,,,,,,,,,,,,,,,,55,001,19,w,Psychologie,2023-01-23_15h32.12.774,00_bat_bachelor,2022.2.4,60.03443430843169,
,,,,,,,,,,,,0,0,0,0,58,0,58,0,,,,,,,58,,,1,1824.814223605208,X,None,nogo,None,1,,1825.6148603080073,,,,,,,,,,,,,,,,,55,001,19,w,Psychologie,2023-01-23_15h32.12.774,00_bat_bachelor,2022.2.4,60.03443430843169,
,,,,,,,,,,,,0,0,0,0,59,0,59,0,,,,,,,59,,,1,1826.615747095435,Y,d,go,d,1,0.35148364631459117,,,,,,,,,,,,,,,,,,55,001,19,w,Psychologie,2023-01-23_15h32.12.774,00_bat_bachelor,2022.2.4,60.03443430843169,
,,,,,,,,,,,,0,0,0,0,60,0,60,0,,,,,,,60,,,1,1828.0832251717802,X,l,go,l,1,0.40452265087515116,,,,,,,,,,,,,,,,,,55,001,19,w,Psychologie,2023-01-23_15h32.12.774,00_bat_bachelor,2022.2.4,60.03443430843169,
,,,,,,,,,,,,0,0,0,0,61,0,61,0,,,,,,,61,,,1,1829.6010426176945,X,None,nogo,None,1,,1830.401654108311,,,,,,,,,,,,,,,,,55,001,19,w,Psychologie,2023-01-23_15h32.12.774,00_bat_bachelor,2022.2.4,60.03443430843169,
,,,,,,,,,,,,0,0,0,0,62,0,62,0,,,,,,,62,,,1,1831.402590350248,Y,d,go,d,1,0.3005144589114934,,,,,,,,,,,,,,,,,,55,001,19,w,Psychologie,2023-01-23_15h32.12.774,00_bat_bachelor,2022.2.4,60.03443430843169,
,,,,,,,,,,,,0,0,0,0,63,0,63,0,,,,,,,63,,,1,1832.8033460347215,X,l,go,l,1,0.43629960517864674,,,,,,,,,,,,,,,,,,55,001,19,w,Psychologie,2023-01-23_15h32.12.774,00_bat_bachelor,2022.2.4,60.03443430843169,
,,,,,,,,,,,,0,0,0,0,64,0,64,0,,,,,,,64,,,1,1834.3545404342003,X,None,nogo,None,1,,,,,,,,,,,,,,,,,,,55,001,19,w,Psychologie,2023-01-23_15h32.12.774,00_bat_bachelor,2022.2.4,60.03443430843169,
,,,,,,,,,,,,0,0,0,0,65,0,65,0,,,,,,,65,,,1,1836.1558985910378,Y,d,go,d,1,0.3321677768835798,,,,,,,,,,,,,,,,,,55,001,19,w,Psychologie,2023-01-23_15h32.12.774,00_bat_bachelor,2022.2.4,60.03443430843169,
,,,,,,,,,,,,0,0,0,0,66,0,66,0,,,,,,,66,,,1,1837.5902746228967,X,l,go,l,1,0.4654826212208718,,,,,,,,,,,,,,,,,,55,001,19,w,Psychologie,2023-01-23_15h32.12.774,00_bat_bachelor,2022.2.4,60.03443430843169,
,,,,,,,,,,,,0,0,0,0,67,0,67,0,,,,,,,67,,,1,1839.1581235596677,Y,d,go,d,1,0.4820430980762467,,,,,,,,,,,,,,,,,,55,001,19,w,Psychologie,2023-01-23_15h32.12.774,00_bat_bachelor,2022.2.4,60.03443430843169,
,,,,,,,,,,,,0,0,0,0,68,0,68,0,,,,,,,68,,,1,1840.7427075187443,X,l,go,l,1,0.40116362215485424,,,,,,,,,,,,,,,,,,55,001,19,w,Psychologie,2023-01-23_15h32.12.774,00_bat_bachelor,2022.2.4,60.03443430843169,
,,,,,,,,,,,,0,0,0,0,69,0,69,0,,,,,,,69,,,1,1842.2604658131022,X,None,nogo,None,1,,,,,,,,,,,,,,,,,,,55,001,19,w,Psychologie,2023-01-23_15h32.12.774,00_bat_bachelor,2022.2.4,60.03443430843169,
,,,,,,,,,,,,0,0,0,0,70,0,70,0,,,,,,,70,,,1,1844.0618855457287,Y,d,go,d,1,0.3138807554496452,,,,,,,,,,,,,,,,,,55,001,19,w,Psychologie,2023-01-23_15h32.12.774,00_bat_bachelor,2022.2.4,60.03443430843169,
,,,,,,,,,,,,0,0,0,0,71,0,71,0,,,,,,,71,,,1,1845.4798140703933,X,l,go,l,1,0.3996605925494805,,,,,,,,,,,,,,,,,,55,001,19,w,Psychologie,2023-01-23_15h32.12.774,00_bat_bachelor,2022.2.4,60.03443430843169,
,,,,,,,,,,,,0,0,0,0,72,0,72,0,,,,,,,72,,,1,1846.9809343123343,Y,d,go,None,0,,1847.7817116209771,,,,,,,,,,,,,,,,,55,001,19,w,Psychologie,2023-01-23_15h32.12.774,00_bat_bachelor,2022.2.4,60.03443430843169,
,,,,,,,,,,,,0,0,0,0,73,0,73,0,,,,,,,73,,,1,1848.7821028935723,X,l,go,l,1,0.6496614411007613,,,,,,,,,,,,,,,,,,55,001,19,w,Psychologie,2023-01-23_15h32.12.774,00_bat_bachelor,2022.2.4,60.03443430843169,
,,,,,,,,,,,,0,0,0,0,74,0,74,0,,,,,,,74,,,1,1850.5334804686718,X,None,nogo,None,1,,,,,,,,,,,,,,,,,,,55,001,19,w,Psychologie,2023-01-23_15h32.12.774,00_bat_bachelor,2022.2.4,60.03443430843169,
,,,,,,,,,,,,0,0,0,0,75,0,75,0,,,,,,,75,,,1,1852.3348352316534,Y,d,go,d,1,0.29640633962117136,,,,,,,,,,,,,,,,,,55,001,19,w,Psychologie,2023-01-23_15h32.12.774,00_bat_bachelor,2022.2.4,60.03443430843169,
,,,,,,,,,,,,0,0,0,0,76,0,76,0,,,,,,,76,,,1,1853.735759158386,X,l,go,l,1,0.3834002368384972,,,,,,,,,,,,,,,,,,55,001,19,w,Psychologie,2023-01-23_15h32.12.774,00_bat_bachelor,2022.2.4,60.03443430843169,
,,,,,,,,,,,,0,0,0,0,77,0,77,0,,,,,,,77,,,1,1855.2205531052314,Y,d,go,d,1,0.4192683406872675,,,,,,,,,,,,,,,,,,55,001,19,w,Psychologie,2023-01-23_15h32.12.774,00_bat_bachelor,2022.2.4,60.03443430843169,
,,,,,,,,,,,,0,0,0,0,78,0,78,0,,,,,,,78,,,1,1856.755168118747,Y,None,nogo,None,1,,,,,,,,,,,,,,,,,,,55,001,19,w,Psychologie,2023-01-23_15h32.12.774,00_bat_bachelor,2022.2.4,60.03443430843169,
,,,,,,,,,,,,0,0,0,0,79,0,79,0,,,,,,,79,,,1,1858.5564089423278,X,l,go,l,1,0.20352202106732875,,,,,,,,,,,,,,,,,,55,001,19,w,Psychologie,2023-01-23_15h32.12.774,00_bat_bachelor,2022.2.4,60.03443430843169,
,,,,,,,,,,,,0,0,0,0,80,0,80,0,,,,,,,80,,,1,1859.8906255075708,Y,d,go,d,1,0.3888140523340553,,,,,,,,,,,,,,,,,,55,001,19,w,Psychologie,2023-01-23_15h32.12.774,00_bat_bachelor,2022.2.4,60.03443430843169,
,,,,,,,,,,,,0,0,0,0,81,0,81,0,,,,,,,81,,,1,1861.3918538705911,Y,None,nogo,None,1,,,,,,,,,,,,,,,,,,,55,001,19,w,Psychologie,2023-01-23_15h32.12.774,00_bat_bachelor,2022.2.4,60.03443430843169,
,,,,,,,,,,,,0,0,0,0,82,0,82,0,,,,,,,82,,,1,1863.1929666943615,X,l,go,l,1,0.28613289014901966,,,,,,,,,,,,,,,,,,55,001,19,w,Psychologie,2023-01-23_15h32.12.774,00_bat_bachelor,2022.2.4,60.03443430843169,
,,,,,,,,,,,,0,0,0,0,83,0,83,0,,,,,,,83,,,1,1864.594569408684,Y,d,go,d,1,0.48500067240092903,,,,,,,,,,,,,,,,,,55,001,19,w,Psychologie,2023-01-23_15h32.12.774,00_bat_bachelor,2022.2.4,60.03443430843169,
,,,,,,,,,,,,0,0,0,0,84,0,84,0,,,,,,,84,,,1,1866.1951834205538,X,l,go,l,1,0.3411297118291259,,,,,,,,,,,,,,,,,,55,001,19,w,Psychologie,2023-01-23_15h32.12.774,00_bat_bachelor,2022.2.4,60.03443430843169,
,,,,,,,,,,,,0,0,0,0,85,0,85,0,,,,,,,85,,,1,1867.646250838181,Y,d,go,d,1,0.2977110663196072,,,,,,,,,,,,,,,,,,55,001,19,w,Psychologie,2023-01-23_15h32.12.774,00_bat_bachelor,2022.2.4,60.03443430843169,
,,,,,,,,,,,,0,0,0,0,86,0,86,0,,,,,,,86,,,1,1869.0476402193308,X,l,go,l,1,0.4154346454888582,,,,,,,,,,,,,,,,,,55,001,19,w,Psychologie,2023-01-23_15h32.12.774,00_bat_bachelor,2022.2.4,60.03443430843169,
,,,,,,,,,,,,0,0,0,0,87,0,87,0,,,,,,,87,,,1,1870.5653102713404,Y,d,go,d,1,0.3065513044130057,,,,,,,,,,,,,,,,,,55,001,19,w,Psychologie,2023-01-23_15h32.12.774,00_bat_bachelor,2022.2.4,60.03443430843169,
,,,,,,,,,,,,0,0,0,0,88,0,88,0,,,,,,,88,,,1,1871.983181583928,X,l,go,None,0,,,,,,,,,,,,,,,,,,,55,001,19,w,Psychologie,2023-01-23_15h32.12.774,00_bat_bachelor,2022.2.4,60.03443430843169,
,,,,,,,,,,,,0,0,0,0,89,0,89,0,,,,,,,89,,,1,1873.7844883468933,Y,d,go,d,1,0.25519617774989456,,,,,,,,,,,,,,,,,,55,001,19,w,Psychologie,2023-01-23_15h32.12.774,00_bat_bachelor,2022.2.4,60.03443430843169,
,,,,,,,,,,,,0,0,0,0,90,0,90,0,,,,,,,90,,,1,1875.1519776233472,X,l,go,l,1,0.3607010963605717,,,,,,,,,,,,,,,,,,55,001,19,w,Psychologie,2023-01-23_15h32.12.774,00_bat_bachelor,2022.2.4,60.03443430843169,
,,,,,,,,,,,,0,0,0,0,91,0,91,0,,,,,,,91,,,1,1876.6200156994164,X,None,nogo,None,1,,,,,,,,,,,,,,,,,,,55,001,19,w,Psychologie,2023-01-23_15h32.12.774,00_bat_bachelor,2022.2.4,60.03443430843169,
,,,,,,,,,,,,0,0,0,0,92,0,92,0,,,,,,,92,,,1,1878.4213437957224,Y,d,go,d,1,0.32249456946738064,,,,,,,,,,,,,,,,,,55,001,19,w,Psychologie,2023-01-23_15h32.12.774,00_bat_bachelor,2022.2.4,60.03443430843169,
,,,,,,,,,,,,0,0,0,0,93,0,93,0,,,,,,,93,,,1,1879.8555947366403,X,l,go,l,1,0.39309817156754434,,,,,,,,,,,,,,,,,,55,001,19,w,Psychologie,2023-01-23_15h32.12.774,00_bat_bachelor,2022.2.4,60.03443430843169,
,,,,,,,,,,,,0,0,0,0,94,0,94,0,,,,,,,94,,,1,1881.3569646753604,Y,d,go,d,1,0.29854645975865424,,,,,,,,,,,,,,,,,,55,001,19,w,Psychologie,2023-01-23_15h32.12.774,00_bat_bachelor,2022.2.4,60.03443430843169,
,,,,,,,,,,,,0,0,0,0,95,0,95,0,,,,,,,95,,,1,1882.7578066629358,X,l,go,l,1,0.48250418878160417,,,,,,,,,,,,,,,,,,55,001,19,w,Psychologie,2023-01-23_15h32.12.774,00_bat_bachelor,2022.2.4,60.03443430843169,
,,,,,,,,,,,,0,0,0,0,96,0,96,0,,,,,,,96,,,1,1884.3423135309713,X,None,nogo,None,1,,,,,,,,,,,,,,,,,,,55,001,19,w,Psychologie,2023-01-23_15h32.12.774,00_bat_bachelor,2022.2.4,60.03443430843169,
,,,,,,,,,,,,0,0,0,0,97,0,97,0,,,,,,,97,,,1,1886.1445793238236,Y,d,go,d,1,0.23026576568372548,,,,,,,,,,,,,,,,,,55,001,19,w,Psychologie,2023-01-23_15h32.12.774,00_bat_bachelor,2022.2.4,60.03443430843169,
,,,,,,,,,,,,0,0,0,0,98,0,98,0,,,,,,,98,,,1,1887.51204823656,X,l,go,l,1,0.3352252299664542,,,,,,,,,,,,,,,,,,55,001,19,w,Psychologie,2023-01-23_15h32.12.774,00_bat_bachelor,2022.2.4,60.03443430843169,
,,,,,,,,,,,,0,0,0,0,99,0,99,0,,,,,,,99,,,1,1888.9631321390625,Y,d,go,d,1,0.3403660758631304,,,,,,,,,,,,,,,,,,55,001,19,w,Psychologie,2023-01-23_15h32.12.774,00_bat_bachelor,2022.2.4,60.03443430843169,
,,,,,,,,,,,,0,0,0,0,100,0,100,0,,,,,,,100,,,1,1890.4141796779586,X,l,go,l,1,0.265233991201967,,,,,,,,,,,,,,,,,,55,001,19,w,Psychologie,2023-01-23_15h32.12.774,00_bat_bachelor,2022.2.4,60.03443430843169,
,,,,,,,,,,,,0,0,0,0,101,0,101,0,,,,,,,101,,,1,1891.7817780452315,Y,d,go,d,1,0.29007422155700624,,,,,,,,,,,,,,,,,,55,001,19,w,Psychologie,2023-01-23_15h32.12.774,00_bat_bachelor,2022.2.4,60.03443430843169,
,,,,,,,,,,,,0,0,0,0,102,0,102,0,,,,,,,102,,,1,1893.1829419719288,Y,None,nogo,None,1,,1893.9834434019867,,,,,,,,,,,,,,,,,55,001,19,w,Psychologie,2023-01-23_15h32.12.774,00_bat_bachelor,2022.2.4,60.03443430843169,
,,,,,,,,,,,,0,0,0,0,103,0,103,0,,,,,,,103,,,1,1894.984343765187,X,l,go,l,1,0.23889364022761583,,,,,,,,,,,,,,,,,,55,001,19,w,Psychologie,2023-01-23_15h32.12.774,00_bat_bachelor,2022.2.4,60.03443430843169,
,,,,,,,,,,,,0,0,0,0,104,0,104,0,,,,,,,104,,,1,1896.3353394737933,Y,d,go,d,1,0.43972651252988726,,,,,,,,,,,,,,,,,,55,001,19,w,Psychologie,2023-01-23_15h32.12.774,00_bat_bachelor,2022.2.4,60.03443430843169,
,,,,,,,,,,,,0,0,0,0,105,0,105,0,,,,,,,105,,,1,1897.8863787217997,Y,None,nogo,None,1,,1898.686966454843,,,,,,,,,,,,,,,,,55,001,19,w,Psychologie,2023-01-23_15h32.12.774,00_bat_bachelor,2022.2.4,60.03443430843169,
,,,,,,,,,,,,0,0,0,0,106,0,106,0,,,,,,,106,,,1,1899.6879676664248,X,l,go,l,1,0.3189939650474116,,,,,,,,,,,,,,,,,,55,001,19,w,Psychologie,2023-01-23_15h32.12.774,00_bat_bachelor,2022.2.4,60.03443430843169,
,,,,,,,,,,,,0,0,0,0,107,0,107,0,,,,,,,107,,,1,1901.1220595771447,Y,d,go,d,1,0.3891883551841602,,,,,,,,,,,,,,,,,,55,001,19,w,Psychologie,2023-01-23_15h32.12.774,00_bat_bachelor,2022.2.4,60.03443430843169,
,,,,,,,,,,,,0,0,0,0,108,0,108,0,,,,,,,108,,,1,1902.623190000886,Y,None,nogo,None,1,,,,,,,,,,,,,,,,,,,55,001,19,w,Psychologie,2023-01-23_15h32.12.774,00_bat_bachelor,2022.2.4,60.03443430843169,
,,,,,,,,,,,,0,0,0,0,109,0,109,0,,,,,,,109,,,1,1904.424885612214,Y,None,nogo,None,1,,1905.2254912846256,,,,,,,,,,,,,,,,,55,001,19,w,Psychologie,2023-01-23_15h32.12.774,00_bat_bachelor,2022.2.4,60.03443430843169,
,,,,,,,,,,,,0,0,0,0,110,0,110,0,,,,,,,110,,,1,1906.2262437690515,X,l,go,l,1,0.3097663332009688,,,,,,,,,,,,,,,,,,55,001,19,w,Psychologie,2023-01-23_15h32.12.774,00_bat_bachelor,2022.2.4,60.03443430843169,
,,,,,,,,,,,,0,0,0,0,111,0,111,0,,,,,,,111,,,1,1907.6436918091495,Y,d,go,d,1,0.34812461759429425,,,,,,,,,,,,,,,,,,55,001,19,w,Psychologie,2023-01-23_15h32.12.774,00_bat_bachelor,2022.2.4,60.03443430843169,
,,,,,,,,,,,,0,0,0,0,112,0,112,0,,,,,,,112,,,1,1909.0948561964324,X,l,go,l,1,0.40127174323424697,,,,,,,,,,,,,,,,,,55,001,19,w,Psychologie,2023-01-23_15h32.12.774,00_bat_bachelor,2022.2.4,60.03443430843169,
,,,,,,,,,,,,0,0,0,0,113,0,113,0,,,,,,,113,,,1,1910.6126047938596,X,None,nogo,d,0,0.3868392654694617,,,,,,,,,,,,,,,,,,55,001,19,w,Psychologie,2023-01-23_15h32.12.774,00_bat_bachelor,2022.2.4,60.03443430843169,
,,,,,,,,,,,,0,0,0,0,114,0,114,0,,,,,,,114,,,1,1912.1140624901745,X,None,nogo,l,0,0.5657584514701739,,,,,,,,,,,,,,,,,,55,001,19,w,Psychologie,2023-01-23_15h32.12.774,00_bat_bachelor,2022.2.4,60.03443430843169,
,,,,,,,,,,,,0,0,0,0,115,0,115,0,,,,,,,115,,,1,1913.7819879845483,Y,d,go,d,1,0.4493968108436093,,,,,,,,,,,,,,,,,,55,001,19,w,Psychologie,2023-01-23_15h32.12.774,00_bat_bachelor,2022.2.4,60.03443430843169,
,,,,,,,,,,,,0,0,0,0,116,0,116,0,,,,,,,116,,,1,1915.3329991112696,X,l,go,l,1,0.59546219476033,,,,,,,,,,,,,,,,,,55,001,19,w,Psychologie,2023-01-23_15h32.12.774,00_bat_bachelor,2022.2.4,60.03443430843169,
,,,,,,,,,,,,0,0,0,0,117,0,117,0,,,,,,,117,,,1,1917.034462528769,X,None,nogo,None,1,,1917.835039595142,,,,,,,,,,,,,,,,,55,001,19,w,Psychologie,2023-01-23_15h32.12.774,00_bat_bachelor,2022.2.4,60.03443430843169,
,,,,,,,,,,,,0,0,0,0,118,0,118,0,,,,,,,118,,,1,1918.8357988675125,Y,d,go,d,1,0.45186468842439353,,,,,,,,,,,,,,,,,,55,001,19,w,Psychologie,2023-01-23_15h32.12.774,00_bat_bachelor,2022.2.4,60.03443430843169,
,,,,,,,,,,,,0,0,0,0,119,0,119,0,,,,,,,119,,,1,1920.4034087740583,X,l,go,l,1,0.32516753778327256,,,,,,,,,,,,,,,,,,55,001,19,w,Psychologie,2023-01-23_15h32.12.774,00_bat_bachelor,2022.2.4,60.03443430843169,
,,,,,,,,,,,,0,0,0,0,120,0,120,0,,,,,,,120,,,1,1921.8378376543988,Y,d,go,d,1,0.3306986866518855,,,,,,,,,,,,,,,,,,55,001,19,w,Psychologie,2023-01-23_15h32.12.774,00_bat_bachelor,2022.2.4,60.03443430843169,
,,,,,,,,,,,,0,0,0,0,121,0,121,0,,,,,,,121,,,1,1923.2722835043678,Y,None,nogo,None,1,,,,,,,,,,,,,,,,,,,55,001,19,w,Psychologie,2023-01-23_15h32.12.774,00_bat_bachelor,2022.2.4,60.03443430843169,
,,,,,,,,,,,,0,0,0,0,122,0,122,0,,,,,,,122,,,1,1925.0735985097708,X,l,go,l,1,0.2623418712755665,,,,,,,,,,,,,,,,,,55,001,19,w,Psychologie,2023-01-23_15h32.12.774,00_bat_bachelor,2022.2.4,60.03443430843169,
,,,,,,,,,,,,0,0,0,0,123,0,123,0,,,,,,,123,,,1,1926.4413190587657,Y,d,go,d,1,0.2860330113908276,,,,,,,,,,,,,,,,,,55,001,19,w,Psychologie,2023-01-23_15h32.12.774,00_bat_bachelor,2022.2.4,60.03443430843169,
,,,,,,,,,,,,0,0,0,0,124,0,124,0,,,,,,,124,,,1,1927.842425773386,X,l,go,l,1,0.37431030184961855,,,,,,,,,,,,,,,,,,55,001,19,w,Psychologie,2023-01-23_15h32.12.774,00_bat_bachelor,2022.2.4,60.03443430843169,
,,,,,,,,,,,,0,0,0,0,125,0,125,0,,,,,,,125,,,1,1929.326830386999,Y,d,go,d,1,0.29619882453698665,,,,,,,,,,,,,,,,,,55,001,19,w,Psychologie,2023-01-23_15h32.12.774,00_bat_bachelor,2022.2.4,60.03443430843169,
,,,,,,,,,,,,0,0,0,0,126,0,126,0,,,,,,,126,,,1,1930.7282498286804,X,l,go,l,1,0.3036650028079748,,,,,,,,,,,,,,,,,,55,001,19,w,Psychologie,2023-01-23_15h32.12.774,00_bat_bachelor,2022.2.4,60.03443430843169,
,,,,,,,,,,,,0,0,0,0,127,0,127,0,,,,,,,127,,,1,1932.1456804141635,X,None,nogo,None,1,,,,,,,,,,,,,,,,,,,55,001,19,w,Psychologie,2023-01-23_15h32.12.774,00_bat_bachelor,2022.2.4,60.03443430843169,
,,,,,,,,,,,,0,0,0,0,128,0,128,0,,,,,,,128,,,1,1933.9467976015294,Y,d,go,d,1,0.3316402620403096,,,,,,,,,,,,,,,,,,55,001,19,w,Psychologie,2023-01-23_15h32.12.774,00_bat_bachelor,2022.2.4,60.03443430843169,
,,,,,,,,,,,,0,0,0,0,129,0,129,0,,,,,,,129,,,1,1935.3817947240314,X,l,go,l,1,0.4657934090355411,,,,,,,,,,,,,,,,,,55,001,19,w,Psychologie,2023-01-23_15h32.12.774,00_bat_bachelor,2022.2.4,60.03443430843169,
,,,,,,,,,,,,0,0,0,0,130,0,130,0,,,,,,,130,,,1,1936.9492412367836,Y,d,go,d,1,0.3544203721685335,,,,,,,,,,,,,,,,,,55,001,19,w,Psychologie,2023-01-23_15h32.12.774,00_bat_bachelor,2022.2.4,60.03443430843169,
,,,,,,,,,,,,0,0,0,0,131,0,131,0,,,,,,,131,,,1,1938.4168691312661,Y,None,nogo,None,1,,,,,,,,,,,,,,,,,,,55,001,19,w,Psychologie,2023-01-23_15h32.12.774,00_bat_bachelor,2022.2.4,60.03443430843169,
,,,,,,,,,,,,0,0,0,0,132,0,132,0,,,,,,,132,,,1,1940.2182815911947,X,l,go,l,1,0.23761315608862787,,,,,,,,,,,,,,,,,,55,001,19,w,Psychologie,2023-01-23_15h32.12.774,00_bat_bachelor,2022.2.4,60.03443430843169,
,,,,,,,,,,,,0,0,0,0,133,0,133,0,,,,,,,133,,,1,1941.5694271178218,Y,d,go,d,1,0.2622933863895014,,,,,,,,,,,,,,,,,,55,001,19,w,Psychologie,2023-01-23_15h32.12.774,00_bat_bachelor,2022.2.4,60.03443430843169,
,,,,,,,,,,,,0,0,0,0,134,0,134,0,,,,,,,134,,,1,1942.9370371213881,Y,None,nogo,None,1,,,,,,,,,,,,,,,,,,,55,001,19,w,Psychologie,2023-01-23_15h32.12.774,00_bat_bachelor,2022.2.4,60.03443430843169,
,,,,,,,,,,,,0,0,0,0,135,0,135,0,,,,,,,135,,,1,1944.7385446116095,X,l,go,l,1,0.2931743412045762,,,,,,,,,,,,,,,,,,55,001,19,w,Psychologie,2023-01-23_15h32.12.774,00_bat_bachelor,2022.2.4,60.03443430843169,
,,,,,,,,,,,,0,0,0,0,136,0,136,0,,,,,,,136,,,1,1946.139402599074,Y,d,go,d,1,0.3320548072224483,,,,,,,,,,,,,,,,,,55,001,19,w,Psychologie,2023-01-23_15h32.12.774,00_bat_bachelor,2022.2.4,60.03443430843169,
,,,,,,,,,,,,0,0,0,0,137,0,137,0,,,,,,,137,,,1,1947.5740535398945,X,l,go,l,1,0.35300994850695133,,,,,,,,,,,,,,,,,,55,001,19,w,Psychologie,2023-01-23_15h32.12.774,00_bat_bachelor,2022.2.4,60.03443430843169,
,,,,,,,,,,,,0,0,0,0,138,0,138,0,,,,,,,138,,,1,1949.041913191788,Y,d,go,d,1,0.24596806115005165,,,,,,,,,,,,,,,,,,55,001,19,w,Psychologie,2023-01-23_15h32.12.774,00_bat_bachelor,2022.2.4,60.03443430843169,
,,,,,,,,,,,,0,0,0,0,139,0,139,0,,,,,,,139,,,1,1950.3928512034472,X,l,go,None,0,,,,,,,,,,,,,,,,,,,55,001,19,w,Psychologie,2023-01-23_15h32.12.774,00_bat_bachelor,2022.2.4,60.03443430843169,
,,,,,,,,,,,,0,0,0,0,140,0,140,0,,,,,,,140,,,1,1952.1941085119033,X,None,nogo,None,1,,,,,,,,,,,,,,,,,,,55,001,19,w,Psychologie,2023-01-23_15h32.12.774,00_bat_bachelor,2022.2.4,60.03443430843169,
,,,,,,,,,,,,0,0,0,0,141,0,141,0,,,,,,,141,,,1,1953.995423032553,Y,d,go,d,1,0.5246190774487332,,,,,,,,,,,,,,,,,,55,001,19,w,Psychologie,2023-01-23_15h32.12.774,00_bat_bachelor,2022.2.4,60.03443430843169,
,,,,,,,,,,,,0,0,0,0,142,0,142,0,,,,,,,142,,,1,1955.6302319368115,X,l,go,l,1,0.5054418747313321,,,,,,,,,,,,,,,,,,55,001,19,w,Psychologie,2023-01-23_15h32.12.774,00_bat_bachelor,2022.2.4,60.03443430843169,
,,,,,,,,,,,,0,0,0,0,143,0,143,0,,,,,,,143,,,1,1957.2478951525409,Y,d,go,d,1,0.2320509769488126,,,,,,,,,,,,,,,,,,55,001,19,w,Psychologie,2023-01-23_15h32.12.774,00_bat_bachelor,2022.2.4,60.03443430843169,
,,,,,,,,,,,,0,0,0,0,144,0,144,0,,,,,,,144,,,1,1958.582493293332,Y,None,nogo,None,1,,,,,,,,,,,,,,,,,,,55,001,19,w,Psychologie,2023-01-23_15h32.12.774,00_bat_bachelor,2022.2.4,60.03443430843169,
,,,,,,,,,,,,0,0,0,0,145,0,145,0,,,,,,,145,,,1,1960.3838000562973,X,l,go,l,1,0.3606671569868922,,,,,,,,,,,,,,,,,,55,001,19,w,Psychologie,2023-01-23_15h32.12.774,00_bat_bachelor,2022.2.4,60.03443430843169,
,,,,,,,,,,,,0,0,0,0,146,0,146,0,,,,,,,146,,,1,1961.8513809205033,Y,d,go,d,1,0.2203186189290136,,,,,,,,,,,,,,,,,,55,001,19,w,Psychologie,2023-01-23_15h32.12.774,00_bat_bachelor,2022.2.4,60.03443430843169,
,,,,,,,,,,,,0,0,0,0,147,0,147,0,,,,,,,147,,,1,1963.1859349401202,X,l,go,l,1,0.31075348414015025,,,,,,,,,,,,,,,,,,55,001,19,w,Psychologie,2023-01-23_15h32.12.774,00_bat_bachelor,2022.2.4,60.03443430843169,
,,,,,,,,,,,,0,0,0,0,148,0,148,0,,,,,,,148,,,1,1964.603698131512,Y,d,go,d,1,0.23597145988605917,,,,,,,,,,,,,,,,,,55,001,19,w,Psychologie,2023-01-23_15h32.12.774,00_bat_bachelor,2022.2.4,60.03443430843169,
,,,,,,,,,,,,0,0,0,0,149,0,149,0,,,,,,,149,,,1,1965.9547142038355,X,l,go,l,1,0.34085189388133585,,,,,,,,,,,,,,,,,,55,001,19,w,Psychologie,2023-01-23_15h32.12.774,00_bat_bachelor,2022.2.4,60.03443430843169,
,,,,,,,,,,,,0,0,0,0,150,0,150,0,,,,,,,150,,,1,1967.405938712298,Y,d,go,d,1,0.28117192280478776,,,,,,,,,,,,,,,,,,55,001,19,w,Psychologie,2023-01-23_15h32.12.774,00_bat_bachelor,2022.2.4,60.03443430843169,
,,,,,,,,,,,,0,0,0,0,151,0,151,0,,,,,,,151,,,1,1968.7900422835955,X,l,go,l,1,0.24249848700128496,,,,,,,,,,,,,,,,,,55,001,19,w,Psychologie,2023-01-23_15h32.12.774,00_bat_bachelor,2022.2.4,60.03443430843169,
,,,,,,,,,,,,0,0,0,0,152,0,152,0,,,,,,,152,,,1,1970.1410030832049,X,None,nogo,d,0,0.21862213488202542,,,,,,,,,,,,,,,,,,55,001,19,w,Psychologie,2023-01-23_15h32.12.774,00_bat_bachelor,2022.2.4,60.03443430843169,
,,,,,,,,,,,,0,0,0,0,153,0,153,0,,,,,,,153,,,1,1971.4756836481392,Y,d,go,None,0,,1972.2760730782757,,,,,,,,,,,,,,,,,55,001,19,w,Psychologie,2023-01-23_15h32.12.774,00_bat_bachelor,2022.2.4,60.03443430843169,
,,,,,,,,,,,,0,0,0,0,154,0,154,0,,,,,,,154,,,1,1973.2769700475037,X,l,go,l,1,0.4580658975755796,,,,,,,,,,,,,,,,,,55,001,19,w,Psychologie,2023-01-23_15h32.12.774,00_bat_bachelor,2022.2.4,60.03443430843169,
,,,,,,,,,,,,0,0,0,0,155,0,155,0,,,,,,,155,,,1,1974.8452054084046,Y,d,go,d,1,0.31509820942301303,,,,,,,,,,,,,,,,,,55,001,19,w,Psychologie,2023-01-23_15h32.12.774,00_bat_bachelor,2022.2.4,60.03443430843169,
,,,,,,,,,,,,0,0,0,0,156,0,156,0,,,,,,,156,,,1,1976.2630747815128,X,l,go,l,1,0.4645953490398824,,,,,,,,,,,,,,,,,,55,001,19,w,Psychologie,2023-01-23_15h32.12.774,00_bat_bachelor,2022.2.4,60.03443430843169,
,,,,,,,,,,,,0,0,0,0,157,0,157,0,,,,,,,157,,,1,1977.8308345063124,X,None,nogo,None,1,,1978.6313960575499,,,,,,,,,,,,,,,,,55,001,19,w,Psychologie,2023-01-23_15h32.12.774,00_bat_bachelor,2022.2.4,60.03443430843169,
,,,,,,,,,,,,0,0,0,0,158,0,158,0,,,,,,,158,,,1,1979.6319638148416,Y,d,go,d,1,0.24704490904696286,,,,,,,,,,,,,,,,,,55,001,19,w,Psychologie,2023-01-23_15h32.12.774,00_bat_bachelor,2022.2.4,60.03443430843169,
,,,,,,,,,,,,0,0,0,0,159,0,159,0,,,,,,,159,,,1,1980.9830327355303,X,l,go,l,1,0.40036362258251756,,,,,,,,,,,,,,,,,,55,001,19,w,Psychologie,2023-01-23_15h32.12.774,00_bat_bachelor,2022.2.4,60.03443430843169,
,,,,,,,,,,,,0,0,0,0,160,0,160,0,,,,,,,160,,,1,1982.500459878589,X,None,nogo,None,1,,1983.3012759751873,,,,,,,,,,,,,,,,,55,001,19,w,Psychologie,2023-01-23_15h32.12.774,00_bat_bachelor,2022.2.4,60.03443430843169,
,,,,,,,,,,,,0,0,0,0,161,0,161,0,,,,,,,161,,,1,1984.3021060352912,Y,d,go,d,1,0.21786092314869165,,,,,,,,,,,,,,,,,,55,001,19,w,Psychologie,2023-01-23_15h32.12.774,00_bat_bachelor,2022.2.4,60.03443430843169,
,,,,,,,,,,,,0,0,0,0,162,0,162,0,,,,,,,162,,,1,1985.6363691460574,X,l,go,l,1,0.3236053567379713,,,,,,,,,,,,,,,,,,55,001,19,w,Psychologie,2023-01-23_15h32.12.774,00_bat_bachelor,2022.2.4,60.03443430843169,
,,,,,,,,,,,,0,0,0,0,163,0,163,0,,,,,,,163,,,1,1987.0708615414333,X,None,nogo,None,1,,,,,,,,,,,,,,,,,,,55,001,19,w,Psychologie,2023-01-23_15h32.12.774,00_bat_bachelor,2022.2.4,60.03443430843169,
,,,,,,,,,,,,0,0,0,0,164,0,164,0,,,,,,,164,,,1,1988.8723413952393,Y,d,go,d,1,0.3995403501903638,,,,,,,,,,,,,,,,,,55,001,19,w,Psychologie,2023-01-23_15h32.12.774,00_bat_bachelor,2022.2.4,60.03443430843169,
,,,,,,,,,,,,0,0,0,0,165,0,165,0,,,,,,,165,,,1,1990.373187212972,X,l,go,l,1,0.4495582653908059,,,,,,,,,,,,,,,,,,55,001,19,w,Psychologie,2023-01-23_15h32.12.774,00_bat_bachelor,2022.2.4,60.03443430843169,
,,,,,,,,,,,,0,0,0,0,166,0,166,0,,,,,,,166,,,1,1991.924292400363,Y,d,go,d,1,0.21222553204279393,,,,,,,,,,,,,,,,,,55,001,19,w,Psychologie,2023-01-23_15h32.12.774,00_bat_bachelor,2022.2.4,60.03443430843169,
,,,,,,,,,,,,0,0,0,0,167,0,167,0,,,,,,,167,,,1,1993.2421414583223,X,l,go,l,1,0.49408624379429966,,,,,,,,,,,,,,,,,,55,001,19,w,Psychologie,2023-01-23_15h32.12.774,00_bat_bachelor,2022.2.4,60.03443430843169,
,,,,,,,,,,,,0,0,0,0,168,0,168,0,,,,,,,168,,,1,1994.8432621365646,Y,d,go,d,1,0.2838652547216043,,,,,,,,,,,,,,,,,,55,001,19,w,Psychologie,2023-01-23_15h32.12.774,00_bat_bachelor,2022.2.4,60.03443430843169,
,,,,,,,,,,,,0,0,0,0,169,0,169,0,,,,,,,169,,,1,1996.2442587906262,X,l,go,l,1,0.27642962196841836,,,,,,,,,,,,,,,,,,55,001,19,w,Psychologie,2023-01-23_15h32.12.774,00_bat_bachelor,2022.2.4,60.03443430843169,
,,,,,,,,,,,,0,0,0,0,170,0,170,0,,,,,,,170,,,1,1997.628944179858,Y,d,go,d,1,0.3313188075553626,,,,,,,,,,,,,,,,,,55,001,19,w,Psychologie,2023-01-23_15h32.12.774,00_bat_bachelor,2022.2.4,60.03443430843169,
,,,,,,,,,,,,0,0,0,0,171,0,171,0,,,,,,,171,,,1,1999.0630850603338,Y,None,nogo,l,0,0.22462455625645816,,,,,,,,,,,,,,,,,,55,001,19,w,Psychologie,2023-01-23_15h32.12.774,00_bat_bachelor,2022.2.4,60.03443430843169,
,,,,,,,,,,,,0,0,0,0,172,0,172,0,,,,,,,172,,,1,2000.3975799283944,X,l,go,None,0,,,,,,,,,,,,,,,,,,,55,001,19,w,Psychologie,2023-01-23_15h32.12.774,00_bat_bachelor,2022.2.4,60.03443430843169,
,,,,,,,,,,,,0,0,0,0,173,0,173,0,,,,,,,173,,,1,2002.1987902066903,Y,d,go,d,1,0.22521849535405636,,,,,,,,,,,,,,,,,,55,001,19,w,Psychologie,2023-01-23_15h32.12.774,00_bat_bachelor,2022.2.4,60.03443430843169,
,,,,,,,,,,,,0,0,0,0,174,0,174,0,,,,,,,174,,,1,2003.5333728323458,X,l,go,l,1,0.2821484071901068,,,,,,,,,,,,,,,,,,55,001,19,w,Psychologie,2023-01-23_15h32.12.774,00_bat_bachelor,2022.2.4,60.03443430843169,
,,,,,,,,,,,,0,0,0,0,175,0,175,0,,,,,,,175,,,1,2004.9178894943325,Y,d,go,d,1,0.274518835125491,,,,,,,,,,,,,,,,,,55,001,19,w,Psychologie,2023-01-23_15h32.12.774,00_bat_bachelor,2022.2.4,60.03443430843169,
,,,,,,,,,,,,0,0,0,0,176,0,176,0,,,,,,,176,,,1,2006.302181186853,X,l,go,l,1,0.31465699744876474,,,,,,,,,,,,,,,,,,55,001,19,w,Psychologie,2023-01-23_15h32.12.774,00_bat_bachelor,2022.2.4,60.03443430843169,
,,,,,,,,,,,,0,0,0,0,177,0,177,0,,,,,,,177,,,1,2007.719904620666,Y,d,go,d,1,0.35126207070425153,,,,,,,,,,,,,,,,,,55,001,19,w,Psychologie,2023-01-23_15h32.12.774,00_bat_bachelor,2022.2.4,60.03443430843169,
,,,,,,,,,,,,0,0,0,0,178,0,178,0,,,,,,,178,,,1,2009.1877434240887,Y,None,nogo,None,1,,,,,,,,,,,,,,,,,,,55,001,19,w,Psychologie,2023-01-23_15h32.12.774,00_bat_bachelor,2022.2.4,60.03443430843169,
,,,,,,,,,,,,0,0,0,0,179,0,179,0,,,,,,,179,,,1,2010.9889381871326,X,l,go,l,1,0.25057314976584166,,,,,,,,,,,,,,,,,,55,001,19,w,Psychologie,2023-01-23_15h32.12.774,00_bat_bachelor,2022.2.4,60.03443430843169,
,,,,,,,,,,,,0,0,0,0,180,0,180,0,,,,,,,180,,,1,2012.356908433023,Y,d,go,d,1,0.21199377451557666,,,,,,,,,,,,,,,,,,55,001,19,w,Psychologie,2023-01-23_15h32.12.774,00_bat_bachelor,2022.2.4,60.03443430843169,
,,,,,,,,,,,,0,0,0,0,181,0,181,0,,,,,,,181,,,1,2013.6744302184088,X,l,go,l,1,0.20581195934209973,,,,,,,,,,,,,,,,,,55,001,19,w,Psychologie,2023-01-23_15h32.12.774,00_bat_bachelor,2022.2.4,60.03443430843169,
,,,,,,,,,,,,0,0,0,0,182,0,182,0,,,,,,,182,,,1,2014.9926564884372,Y,d,go,d,1,0.21475740952882916,,,,,,,,,,,,,,,,,,55,001,19,w,Psychologie,2023-01-23_15h32.12.774,00_bat_bachelor,2022.2.4,60.03443430843169,
,,,,,,,,,,,,0,0,0,0,183,0,183,0,,,,,,,183,,,1,2016.3271974171512,Y,None,nogo,l,0,0.17586627695709467,,,,,,,,,,,,,,,,,,55,001,19,w,Psychologie,2023-01-23_15h32.12.774,00_bat_bachelor,2022.2.4,60.03443430843169,
,,,,,,,,,,,,0,0,0,0,184,0,184,0,,,,,,,184,,,1,2017.61152552173,X,l,go,l,1,0.25187205825932324,,,,,,,,,,,,,,,,,,55,001,19,w,Psychologie,2023-01-23_15h32.12.774,00_bat_bachelor,2022.2.4,60.03443430843169,
,,,,,,,,,,,,0,0,0,0,185,0,185,0,,,,,,,185,,,1,2018.979215525207,Y,d,go,None,0,,2019.779665076523,,,,,,,,,,,,,,,,,55,001,19,w,Psychologie,2023-01-23_15h32.12.774,00_bat_bachelor,2022.2.4,60.03443430843169,
,,,,,,,,,,,,0,0,0,0,186,0,186,0,,,,,,,186,,,1,2020.78038992465,X,l,go,l,1,0.31487566407304257,,,,,,,,,,,,,,,,,,55,001,19,w,Psychologie,2023-01-23_15h32.12.774,00_bat_bachelor,2022.2.4,60.03443430843169,
,,,,,,,,,,,,0,0,0,0,187,0,187,0,,,,,,,187,,,1,2022.2145085020456,Y,d,go,d,1,0.2246929198736325,,,,,,,,,,,,,,,,,,55,001,19,w,Psychologie,2023-01-23_15h32.12.774,00_bat_bachelor,2022.2.4,60.03443430843169,
,,,,,,,,,,,,0,0,0,0,188,0,188,0,,,,,,,188,,,1,2023.5488608247833,X,l,go,l,1,0.21826868050266057,,,,,,,,,,,,,,,,,,55,001,19,w,Psychologie,2023-01-23_15h32.12.774,00_bat_bachelor,2022.2.4,60.03443430843169,
,,,,,,,,,,,,0,0,0,0,189,0,189,0,,,,,,,189,,,1,2024.8832126626512,Y,d,go,d,1,0.19567378237843513,,,,,,,,,,,,,,,,,,55,001,19,w,Psychologie,2023-01-23_15h32.12.774,00_bat_bachelor,2022.2.4,60.03443430843169,
,,,,,,,,,,,,0,0,0,0,190,0,190,0,,,,,,,190,,,1,2026.1843834257452,X,l,go,l,1,0.1912248149747029,,,,,,,,,,,,,,,,,,55,001,19,w,Psychologie,2023-01-23_15h32.12.774,00_bat_bachelor,2022.2.4,60.03443430843169,
,,,,,,,,,,,,0,0,0,0,191,0,191,0,,,,,,,191,,,1,2027.4851900677895,Y,d,go,d,1,0.39431853452697396,,,,,,,,,,,,,,,,,,55,001,19,w,Psychologie,2023-01-23_15h32.12.774,00_bat_bachelor,2022.2.4,60.03443430843169,
,,,,,,,,,,,,0,0,0,0,192,0,192,0,,,,,,,192,,,1,2028.9863427944947,X,l,go,l,1,0.23679036856628954,,,,,,,,,,,,,,,,,,55,001,19,w,Psychologie,2023-01-23_15h32.12.774,00_bat_bachelor,2022.2.4,60.03443430843169,
,,,,,,,,,,,,0,0,0,0,193,0,193,0,,,,,,,193,,,1,2030.3542374040699,X,None,nogo,None,1,,2031.1547184704104,,,,,,,,,,,,,,,,,55,001,19,w,Psychologie,2023-01-23_15h32.12.774,00_bat_bachelor,2022.2.4,60.03443430843169,
,,,,,,,,,,,,0,0,0,0,194,0,194,0,,,,,,,194,,,1,2032.155388530693,Y,d,go,d,1,0.47670152492355555,,,,,,,,,,,,,,,,,,55,001,19,w,Psychologie,2023-01-23_15h32.12.774,00_bat_bachelor,2022.2.4,60.03443430843169,
,,,,,,,,,,,,0,0,0,0,195,0,195,0,,,,,,,195,,,1,2033.739951156429,X,l,go,l,1,0.41259440453723073,,,,,,,,,,,,,,,,,,55,001,19,w,Psychologie,2023-01-23_15h32.12.774,00_bat_bachelor,2022.2.4,60.03443430843169,
,,,,,,,,,,,,0,0,0,0,196,0,196,0,,,,,,,196,,,1,2035.2577705417061,X,None,nogo,None,1,,2036.0583325778134,,,,,,,,,,,,,,,,,55,001,19,w,Psychologie,2023-01-23_15h32.12.774,00_bat_bachelor,2022.2.4,60.03443430843169,
,,,,,,,,,,,,0,0,0,0,197,0,197,0,,,,,,,197,,,1,2037.0589473653818,Y,d,go,d,1,0.30831954593304545,,,,,,,,,,,,,,,,,,55,001,19,w,Psychologie,2023-01-23_15h32.12.774,00_bat_bachelor,2022.2.4,60.03443430843169,
,,,,,,,,,,,,0,0,0,0,198,0,198,0,,,,,,,198,,,1,2038.4768899505725,X,l,go,l,1,0.34720146656036377,,,,,,,,,,,,,,,,,,55,001,19,w,Psychologie,2023-01-23_15h32.12.774,00_bat_bachelor,2022.2.4,60.03443430843169,
,,,,,,,,,,,,0,0,0,0,199,0,199,0,,,,,,,199,,,1,2039.9277823379962,Y,d,go,d,1,0.5765283856308088,,,,,,,,,,,,,,,,,,55,001,19,w,Psychologie,2023-01-23_15h32.12.774,00_bat_bachelor,2022.2.4,60.03443430843169,
,,,,,,,,,,,,0,0,0,0,200,0,200,0,,,,,,,200,,,1,2041.6125165515114,X,l,go,l,1,0.2828839219873771,,,,,,,,,,,,,,,,,,55,001,19,w,Psychologie,2023-01-23_15h32.12.774,00_bat_bachelor,2022.2.4,60.03443430843169,
,,,,,,,,,,,,0,0,0,0,201,0,201,0,,,,,,,201,,,1,2042.9969643651275,Y,d,go,d,1,0.2597096301615238,,,,,,,,,,,,,,,,,,55,001,19,w,Psychologie,2023-01-23_15h32.12.774,00_bat_bachelor,2022.2.4,60.03443430843169,
,,,,,,,,,,,,0,0,0,0,202,0,202,0,,,,,,,202,,,1,2044.3646470959065,X,l,go,l,1,0.39545792806893587,,,,,,,,,,,,,,,,,,55,001,19,w,Psychologie,2023-01-23_15h32.12.774,00_bat_bachelor,2022.2.4,60.03443430843169,
,,,,,,,,,,,,0,0,0,0,203,0,203,0,,,,,,,203,,,1,2045.8656611560145,X,None,nogo,None,1,,2046.6663870709017,,,,,,,,,,,,,,,,,55,001,19,w,Psychologie,2023-01-23_15h32.12.774,00_bat_bachelor,2022.2.4,60.03443430843169,
,,,,,,,,,,,,0,0,0,0,204,0,204,0,,,,,,,204,,,1,2047.667181252269,Y,d,go,d,1,0.30820609151851386,,,,,,,,,,,,,,,,,,55,001,19,w,Psychologie,2023-01-23_15h32.12.774,00_bat_bachelor,2022.2.4,60.03443430843169,
,,,,,,,,,,,,0,0,0,0,205,0,205,0,,,,,,,205,,,1,2049.084951231489,X,l,go,l,1,0.2348238240228966,,,,,,,,,,,,,,,,,,55,001,19,w,Psychologie,2023-01-23_15h32.12.774,00_bat_bachelor,2022.2.4,60.03443430843169,
,,,,,,,,,,,,0,0,0,0,206,0,206,0,,,,,,,206,,,1,2050.435995909851,Y,d,go,d,1,0.48345352162141353,,,,,,,,,,,,,,,,,,55,001,19,w,Psychologie,2023-01-23_15h32.12.774,00_bat_bachelor,2022.2.4,60.03443430843169,
,,,,,,,,,,,,0,0,0,0,207,0,207,0,,,,,,,207,,,1,2052.0202972022817,X,l,go,l,1,0.2596916906768456,,,,,,,,,,,,,,,,,,55,001,19,w,Psychologie,2023-01-23_15h32.12.774,00_bat_bachelor,2022.2.4,60.03443430843169,
,,,,,,,,,,,,0,0,0,0,208,0,208,0,,,,,,,208,,,1,2053.388218963286,X,None,nogo,d,0,0.20320056669879705,,,,,,,,,,,,,,,,,,55,001,19,w,Psychologie,2023-01-23_15h32.12.774,00_bat_bachelor,2022.2.4,60.03443430843169,
,,,,,,,,,,,,0,0,0,0,209,0,209,0,,,,,,,209,,,1,2054.7057291123783,Y,d,go,d,1,0.24648345483001322,,,,,,,,,,,,,,,,,,55,001,19,w,Psychologie,2023-01-23_15h32.12.774,00_bat_bachelor,2022.2.4,60.03443430843169,
,,,,,,,,,,,,0,0,0,0,210,0,210,0,,,,,,,210,,,1,2056.0568877300248,X,l,go,l,1,0.31853481370490044,,,,,,,,,,,,,,,,,,55,001,19,w,Psychologie,2023-01-23_15h32.12.774,00_bat_bachelor,2022.2.4,60.03443430843169,
,,,,,,,,,,,,0,0,0,0,211,0,211,0,,,,,,,211,,,1,2057.4913680042373,Y,d,go,d,1,0.4360305144218728,,,,,,,,,,,,,,,,,,55,001,19,w,Psychologie,2023-01-23_15h32.12.774,00_bat_bachelor,2022.2.4,60.03443430843169,
,,,,,,,,,,,,0,0,0,0,212,0,212,0,,,,,,,212,,,1,2059.0423592522275,X,l,go,l,1,0.26220029569230974,,,,,,,,,,,,,,,,,,55,001,19,w,Psychologie,2023-01-23_15h32.12.774,00_bat_bachelor,2022.2.4,60.03443430843169,
,,,,,,,,,,,,0,0,0,0,213,0,213,0,,,,,,,213,,,1,2060.4102781041292,Y,d,go,d,1,0.4127064044587314,,,,,,,,,,,,,,,,,,55,001,19,w,Psychologie,2023-01-23_15h32.12.774,00_bat_bachelor,2022.2.4,60.03443430843169,
,,,,,,,,,,,,0,0,0,0,214,0,214,0,,,,,,,214,,,1,2061.928155671223,Y,None,nogo,None,1,,,,,,,,,,,,,,,,,,,55,001,19,w,Psychologie,2023-01-23_15h32.12.774,00_bat_bachelor,2022.2.4,60.03443430843169,
,,,,,,,,,,,,0,0,0,0,215,0,215,0,,,,,,,215,,,1,2063.7294309190474,X,l,go,l,1,0.2787908329628408,,,,,,,,,,,,,,,,,,55,001,19,w,Psychologie,2023-01-23_15h32.12.774,00_bat_bachelor,2022.2.4,60.03443430843169,
,,,,,,,,,,,,0,0,0,0,216,0,216,0,,,,,,,216,,,1,2065.1138229750795,Y,d,go,d,1,0.39771974505856633,,,,,,,,,,,,,,,,,,55,001,19,w,Psychologie,2023-01-23_15h32.12.774,00_bat_bachelor,2022.2.4,60.03443430843169,
,,,,,,,,,,,,0,0,0,0,217,0,217,0,,,,,,,217,,,1,2066.6149543685606,X,l,go,l,1,0.3369149260688573,,,,,,,,,,,,,,,,,,55,001,19,w,Psychologie,2023-01-23_15h32.12.774,00_bat_bachelor,2022.2.4,60.03443430843169,
,,,,,,,,,,,,0,0,0,0,218,0,218,0,,,,,,,218,,,1,2068.066090149805,X,None,nogo,d,0,0.16579355450812727,,,,,,,,,,,,,,,,,,55,001,19,w,Psychologie,2023-01-23_15h32.12.774,00_bat_bachelor,2022.2.4,60.03443430843169,
,,,,,,,,,,,,0,0,0,0,219,0,219,0,,,,,,,219,,,1,2069.3332158384146,Y,d,go,d,1,0.6419673842610791,,,,,,,,,,,,,,,,,,55,001,19,w,Psychologie,2023-01-23_15h32.12.774,00_bat_bachelor,2022.2.4,60.03443430843169,
,,,,,,,,,,,,0,0,0,0,220,0,220,0,,,,,,,220,,,1,2071.084612807492,X,l,go,l,1,0.2983699750620872,,,,,,,,,,,,,,,,,,55,001,19,w,Psychologie,2023-01-23_15h32.12.774,00_bat_bachelor,2022.2.4,60.03443430843169,
,,,,,,,,,,,,0,0,0,0,221,0,221,0,,,,,,,221,,,1,2072.485778673552,Y,d,go,d,1,0.4016605915967375,,,,,,,,,,,,,,,,,,55,001,19,w,Psychologie,2023-01-23_15h32.12.774,00_bat_bachelor,2022.2.4,60.03443430843169,
,,,,,,,,,,,,0,0,0,0,222,0,222,0,,,,,,,222,,,1,2074.0034860589076,X,l,go,l,1,0.323754690005444,,,,,,,,,,,,,,,,,,55,001,19,w,Psychologie,2023-01-23_15h32.12.774,00_bat_bachelor,2022.2.4,60.03443430843169,
,,,,,,,,,,,,0,0,0,0,223,0,223,0,,,,,,,223,,,1,2075.4379513028543,Y,d,go,d,1,0.28126452886499465,,,,,,,,,,,,,,,,,,55,001,19,w,Psychologie,2023-01-23_15h32.12.774,00_bat_bachelor,2022.2.4,60.03443430843169,
,,,,,,,,,,,,0,0,0,0,224,0,224,0,,,,,,,224,,,1,2076.8226080860477,X,l,go,l,1,0.3370148048270494,,,,,,,,,,,,,,,,,,55,001,19,w,Psychologie,2023-01-23_15h32.12.774,00_bat_bachelor,2022.2.4,60.03443430843169,
,,,,,,,,,,,,0,0,0,0,225,0,225,0,,,,,,,225,,,1,2078.2737448370317,Y,d,go,d,1,0.34187055996153504,,,,,,,,,,,,,,,,,,55,001,19,w,Psychologie,2023-01-23_15h32.12.774,00_bat_bachelor,2022.2.4,60.03443430843169,
,,,,,,,,,,,,0,0,0,0,226,0,226,0,,,,,,,226,,,1,2079.725281587802,Y,None,nogo,None,1,,2080.5260685933754,,,,,,,,,,,,,,,,,55,001,19,w,Psychologie,2023-01-23_15h32.12.774,00_bat_bachelor,2022.2.4,60.03443430843169,
,,,,,,,,,,,,0,0,0,0,227,0,227,0,,,,,,,227,,,1,2081.5269301687367,X,l,go,l,1,0.22546964674256742,,,,,,,,,,,,,,,,,,55,001,19,w,Psychologie,2023-01-23_15h32.12.774,00_bat_bachelor,2022.2.4,60.03443430843169,
,,,,,,,,,,,,0,0,0,0,228,0,228,0,,,,,,,228,,,1,2082.861333885463,Y,d,go,d,1,0.33025844441726804,,,,,,,,,,,,,,,,,,55,001,19,w,Psychologie,2023-01-23_15h32.12.774,00_bat_bachelor,2022.2.4,60.03443430843169,
,,,,,,,,,,,,0,0,0,0,229,0,229,0,,,,,,,229,,,1,2084.295640583965,X,l,go,l,1,0.22395595046691597,,,,,,,,,,,,,,,,,,55,001,19,w,Psychologie,2023-01-23_15h32.12.774,00_bat_bachelor,2022.2.4,60.03443430843169,
,,,,,,,,,,,,0,0,0,0,230,0,230,0,,,,,,,230,,,1,2085.6298406643327,X,None,nogo,d,0,0.15292422741185874,,,,,,,,,,,,,,,,,,55,001,19,w,Psychologie,2023-01-23_15h32.12.774,00_bat_bachelor,2022.2.4,60.03443430843169,
,,,,,,,,,,,,0,0,0,0,231,0,231,0,,,,,,,231,,,1,2086.914110587095,Y,d,go,d,1,0.3094191817799583,,,,,,,,,,,,,,,,,,55,001,19,w,Psychologie,2023-01-23_15h32.12.774,00_bat_bachelor,2022.2.4,60.03443430843169,
,,,,,,,,,,,,0,0,0,0,232,0,232,0,,,,,,,232,,,1,2088.3315576574532,X,l,go,l,1,0.2043375358916819,,,,,,,,,,,,,,,,,,55,001,19,w,Psychologie,2023-01-23_15h32.12.774,00_bat_bachelor,2022.2.4,60.03443430843169,
,,,,,,,,,,,,0,0,0,0,233,0,233,0,,,,,,,233,,,1,2089.649365988211,X,None,nogo,None,1,,2090.4499784484506,,,,,,,,,,,,,,,,,55,001,19,w,Psychologie,2023-01-23_15h32.12.774,00_bat_bachelor,2022.2.4,60.03443430843169,
,,,,,,,,,,,,0,0,0,0,234,0,234,0,,,,,,,234,,,1,2091.4506077815313,Y,d,go,d,1,0.4120421623811126,,,,,,,,,,,,,,,,,,55,001,19,w,Psychologie,2023-01-23_15h32.12.774,00_bat_bachelor,2022.2.4,60.03443430843169,
,,,,,,,,,,,,0,0,0,0,235,0,235,0,,,,,,,235,,,1,2092.9684562577168,X,l,go,l,1,0.33467589679639786,,,,,,,,,,,,,,,,,,55,001,19,w,Psychologie,2023-01-23_15h32.12.774,00_bat_bachelor,2022.2.4,60.03443430843169,
,,,,,,,,,,,,0,0,0,0,236,0,236,0,,,,,,,236,,,1,2094.4193084028084,Y,d,go,d,1,0.2283612817991525,,,,,,,,,,,,,,,,,,55,001,19,w,Psychologie,2023-01-23_15h32.12.774,00_bat_bachelor,2022.2.4,60.03443430843169,
,,,,,,,,,,,,0,0,0,0,237,0,237,0,,,,,,,237,,,1,2095.753454664955,Y,None,nogo,l,0,0.22160492138937116,,,,,,,,,,,,,,,,,,55,001,19,w,Psychologie,2023-01-23_15h32.12.774,00_bat_bachelor,2022.2.4,60.03443430843169,
,,,,,,,,,,,,0,0,0,0,238,0,238,0,,,,,,,238,,,1,2097.0878060180694,X,l,go,l,1,0.2958623399026692,,,,,,,,,,,,,,,,,,55,001,19,w,Psychologie,2023-01-23_15h32.12.774,00_bat_bachelor,2022.2.4,60.03443430843169,
,,,,,,,,,,,,0,0,0,0,239,0,239,0,,,,,,,239,,,1,2098.4890281265834,Y,d,go,d,1,0.3988591384841129,,,,,,,,,,,,,,,,,,55,001,19,w,Psychologie,2023-01-23_15h32.12.774,00_bat_bachelor,2022.2.4,60.03443430843169,
,,,,,,,,,,,,0,0,0,0,240,0,240,0,,,,,,,240,,,1,2099.9901629139204,Y,None,nogo,None,1,,2100.790823859046,,,,,,,,,,,,,,,,,55,001,19,w,Psychologie,2023-01-23_15h32.12.774,00_bat_bachelor,2022.2.4,60.03443430843169,
,,,,,,,,,,,,0,0,0,0,241,0,241,0,,,,,,,241,,,1,2101.7915928283473,X,l,go,l,1,0.31298039213288575,,,,,,,,,,,,,,,,,,55,001,19,w,Psychologie,2023-01-23_15h32.12.774,00_bat_bachelor,2022.2.4,60.03443430843169,
,,,,,,,,,,,,0,0,0,0,242,0,242,0,,,,,,,242,,,1,2103.2101002617273,Y,d,go,d,1,0.44602663069963455,,,,,,,,,,,,,,,,,,55,001,19,w,Psychologie,2023-01-23_15h32.12.774,00_bat_bachelor,2022.2.4,60.03443430843169,
,,,,,,,,,,,,0,0,0,0,243,0,243,0,,,,,,,243,,,1,2104.7612621763255,Y,None,nogo,None,1,,2105.561959485174,,,,,,,,,,,,,,,,,55,001,19,w,Psychologie,2023-01-23_15h32.12.774,00_bat_bachelor,2022.2.4,60.03443430843169,
,,,,,,,,,,,,0,0,0,0,244,0,244,0,,,,,,,244,,,1,2106.5626242121216,Y,None,nogo,l,0,0.24469872831832618,,,,,,,,,,,,,,,,,,55,001,19,w,Psychologie,2023-01-23_15h32.12.774,00_bat_bachelor,2022.2.4,60.03443430843169,
,,,,,,,,,,,,0,0,0,0,245,0,245,0,,,,,,,245,,,1,2107.930313730729,X,l,go,l,1,0.36502739728894085,,,,,,,,,,,,,,,,,,55,001,19,w,Psychologie,2023-01-23_15h32.12.774,00_bat_bachelor,2022.2.4,60.03443430843169,
,,,,,,,,,,,,0,0,0,0,246,0,246,0,,,,,,,246,,,1,2109.397612413275,Y,d,go,d,1,0.5774122639559209,,,,,,,,,,,,,,,,,,55,001,19,w,Psychologie,2023-01-23_15h32.12.774,00_bat_bachelor,2022.2.4,60.03443430843169,
,,,,,,,,,,,,0,0,0,0,247,0,247,0,,,,,,,247,,,1,2111.0823926873272,Y,None,nogo,l,0,0.25360054220072925,,,,,,,,,,,,,,,,,,55,001,19,w,Psychologie,2023-01-23_15h32.12.774,00_bat_bachelor,2022.2.4,60.03443430843169,
,,,,,,,,,,,,0,0,0,0,248,0,248,0,,,,,,,248,,,1,2112.4499454788165,X,l,go,l,1,0.3095108182169497,,,,,,,,,,,,,,,,,,55,001,19,w,Psychologie,2023-01-23_15h32.12.774,00_bat_bachelor,2022.2.4,60.03443430843169,
,,,,,,,,,,,,0,0,0,0,249,0,249,0,,,,,,,249,,,1,2113.867677155067,Y,d,go,d,1,0.29961458046454936,,,,,,,,,,,,,,,,,,55,001,19,w,Psychologie,2023-01-23_15h32.12.774,00_bat_bachelor,2022.2.4,60.03443430843169,
,,,,,,,,,,,,1,0,1,0,0,0,0,0,,,,,,,0,,,0.2,2129.3127489392646,X,l,go,None,0,,2130.113536914694,,,,,,,,2114.2899305260507,space,14.79256949306,,,,,,,55,001,19,w,Psychologie,2023-01-23_15h32.12.774,00_bat_bachelor,2022.2.4,60.03443430843169,
,,,,,,,,,,,,1,0,1,0,1,0,1,0,,,,,,,1,,,0.2,2130.313636696432,Y,d,go,d,1,0.41435876733157784,,,,,,,,,,,,,,,,,,55,001,19,w,Psychologie,2023-01-23_15h32.12.774,00_bat_bachelor,2022.2.4,60.03443430843169,
,,,,,,,,,,,,1,0,1,0,2,0,2,0,,,,,,,2,,,0.2,2131.0308605910977,X,l,go,l,1,0.33667347161099315,,,,,,,,,,,,,,,,,,55,001,19,w,Psychologie,2023-01-23_15h32.12.774,00_bat_bachelor,2022.2.4,60.03443430843169,
,,,,,,,,,,,,1,0,1,0,3,0,3,0,,,,,,,3,,,0.2,2131.6811429425143,X,None,nogo,None,1,,2132.481978432974,,,,,,,,,,,,,,,,,55,001,19,w,Psychologie,2023-01-23_15h32.12.774,00_bat_bachelor,2022.2.4,60.03443430843169,
,,,,,,,,,,,,1,0,1,0,4,0,4,0,,,,,,,4,,,0.2,2132.681946336059,Y,d,go,d,1,0.3170982083538547,,,,,,,,,,,,,,,,,,55,001,19,w,Psychologie,2023-01-23_15h32.12.774,00_bat_bachelor,2022.2.4,60.03443430843169,
,,,,,,,,,,,,1,0,1,0,5,0,5,0,,,,,,,5,,,0.2,2133.299302157946,X,l,go,l,1,0.38793259824160486,,,,,,,,,,,,,,,,,,55,001,19,w,Psychologie,2023-01-23_15h32.12.774,00_bat_bachelor,2022.2.4,60.03443430843169,
,,,,,,,,,,,,1,0,1,0,6,0,6,0,,,,,,,6,,,0.2,2133.999812848633,X,None,nogo,d,0,0.2799951961496845,,,,,,,,,,,,,,,,,,55,001,19,w,Psychologie,2023-01-23_15h32.12.774,00_bat_bachelor,2022.2.4,60.03443430843169,
,,,,,,,,,,,,1,0,1,0,7,0,7,0,,,,,,,7,,,0.2,2134.583481414127,Y,d,go,None,0,,2135.3842868439388,,,,,,,,,,,,,,,,,55,001,19,w,Psychologie,2023-01-23_15h32.12.774,00_bat_bachelor,2022.2.4,60.03443430843169,
,,,,,,,,,,,,1,0,1,0,8,0,8,0,,,,,,,8,,,0.2,2135.5842435954837,X,l,go,l,1,0.3915544147603214,,,,,,,,,,,,,,,,,,55,001,19,w,Psychologie,2023-01-23_15h32.12.774,00_bat_bachelor,2022.2.4,60.03443430843169,
,,,,,,,,,,,,1,0,1,0,9,0,9,0,,,,,,,9,,,0.2,2136.284758165013,Y,d,go,d,1,0.2979937327327207,,,,,,,,,,,,,,,,,,55,001,19,w,Psychologie,2023-01-23_15h32.12.774,00_bat_bachelor,2022.2.4,60.03443430843169,
,,,,,,,,,,,,1,0,1,0,10,0,10,0,,,,,,,10,,,0.2,2136.8854701161617,X,l,go,l,1,0.3057023350847885,,,,,,,,,,,,,,,,,,55,001,19,w,Psychologie,2023-01-23_15h32.12.774,00_bat_bachelor,2022.2.4,60.03443430843169,
,,,,,,,,,,,,1,0,1,0,11,0,11,0,,,,,,,11,,,0.2,2137.5025946653914,Y,d,go,d,1,0.5997060714289546,,,,,,,,,,,,,,,,,,55,001,19,w,Psychologie,2023-01-23_15h32.12.774,00_bat_bachelor,2022.2.4,60.03443430843169,
,,,,,,,,,,,,1,0,1,0,12,0,12,0,,,,,,,12,,,0.2,2138.41986500856,Y,None,nogo,l,0,0.30816536431666464,,,,,,,,,,,,,,,,,,55,001,19,w,Psychologie,2023-01-23_15h32.12.774,00_bat_bachelor,2022.2.4,60.03443430843169,
,,,,,,,,,,,,1,0,1,0,13,0,13,0,,,,,,,13,,,0.2,2139.036796103348,X,l,go,l,1,0.44266905658878386,,,,,,,,,,,,,,,,,,55,001,19,w,Psychologie,2023-01-23_15h32.12.774,00_bat_bachelor,2022.2.4,60.03443430843169,
,,,,,,,,,,,,1,0,1,0,14,0,14,0,,,,,,,14,,,0.2,2139.787349436432,Y,d,go,d,1,0.4597444422543049,,,,,,,,,,,,,,,,,,55,001,19,w,Psychologie,2023-01-23_15h32.12.774,00_bat_bachelor,2022.2.4,60.03443430843169,
,,,,,,,,,,,,1,0,1,0,15,0,15,0,,,,,,,15,,,0.2,2140.5547430037986,X,l,go,l,1,0.364920730702579,,,,,,,,,,,,,,,,,,55,001,19,w,Psychologie,2023-01-23_15h32.12.774,00_bat_bachelor,2022.2.4,60.03443430843169,
,,,,,,,,,,,,1,0,1,0,16,0,16,0,,,,,,,16,,,0.2,2141.221930559026,Y,d,go,d,1,0.321350812446326,,,,,,,,,,,,,,,,,,55,001,19,w,Psychologie,2023-01-23_15h32.12.774,00_bat_bachelor,2022.2.4,60.03443430843169,
,,,,,,,,,,,,1,0,1,0,17,0,17,0,,,,,,,17,,,0.2,2141.8556097670225,X,l,go,l,1,0.3597197635099292,,,,,,,,,,,,,,,,,,55,001,19,w,Psychologie,2023-01-23_15h32.12.774,00_bat_bachelor,2022.2.4,60.03443430843169,
,,,,,,,,,,,,1,0,1,0,18,0,18,0,,,,,,,18,,,0.2,2142.5227929586545,X,None,nogo,d,0,0.3487151627195999,,,,,,,,,,,,,,,,,,55,001,19,w,Psychologie,2023-01-23_15h32.12.774,00_bat_bachelor,2022.2.4,60.03443430843169,
,,,,,,,,,,,,1,0,1,0,19,0,19,0,,,,,,,19,,,0.2,2143.1735339764273,Y,d,go,d,1,0.5142234461382031,,,,,,,,,,,,,,,,,,55,001,19,w,Psychologie,2023-01-23_15h32.12.774,00_bat_bachelor,2022.2.4,60.03443430843169,
,,,,,,,,,,,,1,0,1,0,20,0,20,0,,,,,,,20,,,0.2,2143.9905633985763,X,l,go,l,1,0.36842375923879445,,,,,,,,,,,,,,,,,,55,001,19,w,Psychologie,2023-01-23_15h32.12.774,00_bat_bachelor,2022.2.4,60.03443430843169,
,,,,,,,,,,,,1,0,1,0,21,0,21,0,,,,,,,21,,,0.2,2144.6744568850845,X,None,nogo,None,1,,2145.475042193895,,,,,,,,,,,,,,,,,55,001,19,w,Psychologie,2023-01-23_15h32.12.774,00_bat_bachelor,2022.2.4,60.03443430843169,
,,,,,,,,,,,,1,0,1,0,22,0,22,0,,,,,,,22,,,0.2,2145.675548278494,Y,d,go,d,1,0.29968730779364705,,,,,,,,,,,,,,,,,,55,001,19,w,Psychologie,2023-01-23_15h32.12.774,00_bat_bachelor,2022.2.4,60.03443430843169,
,,,,,,,,,,,,1,0,1,0,23,0,23,0,,,,,,,23,,,0.2,2146.2756357451435,X,l,go,l,1,0.48388891539070755,,,,,,,,,,,,,,,,,,55,001,19,w,Psychologie,2023-01-23_15h32.12.774,00_bat_bachelor,2022.2.4,60.03443430843169,
,,,,,,,,,,,,1,0,1,0,24,0,24,0,,,,,,,24,,,0.2,2147.059571365011,X,None,nogo,d,0,0.32323396299034357,,,,,,,,,,,,,,,,,,55,001,19,w,Psychologie,2023-01-23_15h32.12.774,00_bat_bachelor,2022.2.4,60.03443430843169,
,,,,,,,,,,,,1,0,1,0,25,0,25,0,,,,,,,25,,,0.2,2147.693197724526,Y,d,go,l,0,0.26673944492358714,,,,,,,,,,,,,,,,,,55,001,19,w,Psychologie,2023-01-23_15h32.12.774,00_bat_bachelor,2022.2.4,60.03443430843169,
,,,,,,,,,,,,1,0,1,0,26,0,26,0,,,,,,,26,,,0.2,2148.2603101768764,X,l,go,d,0,0.35602909862063825,,,,,,,,,,,,,,,,,,55,001,19,w,Psychologie,2023-01-23_15h32.12.774,00_bat_bachelor,2022.2.4,60.03443430843169,
,,,,,,,,,,,,1,0,1,0,27,0,27,0,,,,,,,27,,,0.2,2148.9273018534295,Y,d,go,l,0,0.3602026724256575,,,,,,,,,,,,,,,,,,55,001,19,w,Psychologie,2023-01-23_15h32.12.774,00_bat_bachelor,2022.2.4,60.03443430843169,
,,,,,,,,,,,,1,0,1,0,28,0,28,0,,,,,,,28,,,0.2,2149.59438419668,Y,None,nogo,d,0,0.2365804292494431,,,,,,,,,,,,,,,,,,55,001,19,w,Psychologie,2023-01-23_15h32.12.774,00_bat_bachelor,2022.2.4,60.03443430843169,
,,,,,,,,,,,,1,0,1,0,29,0,29,0,,,,,,,29,,,0.2,2150.1450375054264,X,l,go,l,1,0.29510306753218174,,,,,,,,,,,,,,,,,,55,001,19,w,Psychologie,2023-01-23_15h32.12.774,00_bat_bachelor,2022.2.4,60.03443430843169,
,,,,,,,,,,,,1,0,1,0,30,0,30,0,,,,,,,30,,,0.2,2150.745443517342,Y,d,go,d,1,0.2701522917486727,,,,,,,,,,,,,,,,,,55,001,19,w,Psychologie,2023-01-23_15h32.12.774,00_bat_bachelor,2022.2.4,60.03443430843169,
,,,,,,,,,,,,1,0,1,0,31,0,31,0,,,,,,,31,,,0.2,2151.3292880827794,X,l,go,None,0,,,,,,,,,,,,,,,,,,,55,001,19,w,Psychologie,2023-01-23_15h32.12.774,00_bat_bachelor,2022.2.4,60.03443430843169,
,,,,,,,,,,,,1,0,1,0,32,0,32,0,,,,,,,32,,,0.2,2152.330121536972,Y,d,go,l,0,0.4937284258194268,,,,,,,,,,,,,,,,,,55,001,19,w,Psychologie,2023-01-23_15h32.12.774,00_bat_bachelor,2022.2.4,60.03443430843169,
,,,,,,,,,,,,1,0,1,0,33,0,33,0,,,,,,,33,,,0.2,2153.130665148725,Y,None,nogo,d,0,0.2209974065190181,,,,,,,,,,,,,,,,,,55,001,19,w,Psychologie,2023-01-23_15h32.12.774,00_bat_bachelor,2022.2.4,60.03443430843169,
,,,,,,,,,,,,1,0,1,0,34,0,34,0,,,,,,,34,,,0.2,2153.664153859834,X,l,go,None,0,,,,,,,,,,,,,,,,,,,55,001,19,w,Psychologie,2023-01-23_15h32.12.774,00_bat_bachelor,2022.2.4,60.03443430843169,
,,,,,,,,,,,,1,0,1,0,35,0,35,0,,,,,,,35,,,0.2,2154.664932526066,Y,d,go,d,1,0.20714529207907617,,,,,,,,,,,,,,,,,,55,001,19,w,Psychologie,2023-01-23_15h32.12.774,00_bat_bachelor,2022.2.4,60.03443430843169,
,,,,,,,,,,,,1,0,1,0,36,0,36,0,,,,,,,36,,,0.2,2155.1820037905127,X,l,go,l,1,0.26555302122142166,,,,,,,,,,,,,,,,,,55,001,19,w,Psychologie,2023-01-23_15h32.12.774,00_bat_bachelor,2022.2.4,60.03443430843169,
,,,,,,,,,,,,1,0,1,0,37,0,37,0,,,,,,,37,,,0.2,2155.7492170912446,X,None,nogo,d,0,0.22633267659693956,,,,,,,,,,,,,,,,,,55,001,19,w,Psychologie,2023-01-23_15h32.12.774,00_bat_bachelor,2022.2.4,60.03443430843169,
,,,,,,,,,,,,1,0,1,0,38,0,38,0,,,,,,,38,,,0.2,2156.282795984065,Y,d,go,l,0,0.25217654288280755,,,,,,,,,,,,,,,,,,55,001,19,w,Psychologie,2023-01-23_15h32.12.774,00_bat_bachelor,2022.2.4,60.03443430843169,
,,,,,,,,,,,,1,0,1,0,39,0,39,0,,,,,,,39,,,0.2,2156.8499297697563,X,l,go,d,0,0.2299006748944521,,,,,,,,,,,,,,,,,,55,001,19,w,Psychologie,2023-01-23_15h32.12.774,00_bat_bachelor,2022.2.4,60.03443430843169,
,,,,,,,,,,,,1,0,1,0,40,0,40,0,,,,,,,40,,,0.2,2157.383686117013,X,None,nogo,l,0,0.2553324201144278,,,,,,,,,,,,,,,,,,55,001,19,w,Psychologie,2023-01-23_15h32.12.774,00_bat_bachelor,2022.2.4,60.03443430843169,
,,,,,,,,,,,,1,0,1,0,41,0,41,0,,,,,,,41,,,0.2,2157.9510230540764,Y,d,go,d,1,0.313682452426292,,,,,,,,,,,,,,,,,,55,001,19,w,Psychologie,2023-01-23_15h32.12.774,00_bat_bachelor,2022.2.4,60.03443430843169,
,,,,,,,,,,,,1,0,1,0,42,0,42,0,,,,,,,42,,,0.2,2158.5681451790733,X,l,go,l,1,0.2877624650718644,,,,,,,,,,,,,,,,,,55,001,19,w,Psychologie,2023-01-23_15h32.12.774,00_bat_bachelor,2022.2.4,60.03443430843169,
,,,,,,,,,,,,1,0,1,0,43,0,43,0,,,,,,,43,,,0.2,2159.168589978828,Y,d,go,d,1,0.2156291666906327,,,,,,,,,,,,,,,,,,55,001,19,w,Psychologie,2023-01-23_15h32.12.774,00_bat_bachelor,2022.2.4,60.03443430843169,
,,,,,,,,,,,,1,0,1,0,44,0,44,0,,,,,,,44,,,0.2,2159.685609364533,Y,None,nogo,None,1,,2160.4863154005725,,,,,,,,,,,,,,,,,55,001,19,w,Psychologie,2023-01-23_15h32.12.774,00_bat_bachelor,2022.2.4,60.03443430843169,
,,,,,,,,,,,,1,0,1,0,45,0,45,0,,,,,,,45,,,0.2,2160.686478697462,X,l,go,None,0,,,,,,,,,,,,,,,,,,,55,001,19,w,Psychologie,2023-01-23_15h32.12.774,00_bat_bachelor,2022.2.4,60.03443430843169,
,,,,,,,,,,,,1,0,1,0,46,0,46,0,,,,,,,46,,,0.2,2161.6871783335228,Y,d,go,d,1,0.4160339179215953,,,,,,,,,,,,,,,,,,55,001,19,w,Psychologie,2023-01-23_15h32.12.774,00_bat_bachelor,2022.2.4,60.03443430843169,
,,,,,,,,,,,,1,0,1,0,47,0,47,0,,,,,,,47,,,0.2,2162.404164167703,X,l,go,l,1,0.32321166002657264,,,,,,,,,,,,,,,,,,55,001,19,w,Psychologie,2023-01-23_15h32.12.774,00_bat_bachelor,2022.2.4,60.03443430843169,
,,,,,,,,,,,,1,0,1,0,48,0,48,0,,,,,,,48,,,0.2,2163.0380426482297,Y,d,go,d,1,0.23290721885859966,,,,,,,,,,,,,,,,,,55,001,19,w,Psychologie,2023-01-23_15h32.12.774,00_bat_bachelor,2022.2.4,60.03443430843169,
,,,,,,,,,,,,1,0,1,0,49,0,49,0,,,,,,,49,,,0.2,2163.571942510549,Y,None,nogo,l,0,0.22867061488796026,,,,,,,,,,,,,,,,,,55,001,19,w,Psychologie,2023-01-23_15h32.12.774,00_bat_bachelor,2022.2.4,60.03443430843169,
,,,,,,,,,,,,1,0,1,0,50,0,50,0,,,,,,,50,,,0.2,2164.1057313426863,X,l,go,l,1,0.5260658646002412,,,,,,,,,,,,,,,,,,55,001,19,w,Psychologie,2023-01-23_15h32.12.774,00_bat_bachelor,2022.2.4,60.03443430843169,
,,,,,,,,,,,,1,0,1,0,51,0,51,0,,,,,,,51,,,0.2,2164.9394657263765,Y,d,go,d,1,0.30023276212159544,,,,,,,,,,,,,,,,,,55,001,19,w,Psychologie,2023-01-23_15h32.12.774,00_bat_bachelor,2022.2.4,60.03443430843169,
,,,,,,,,,,,,1,0,1,0,52,0,52,0,,,,,,,52,,,0.2,2165.5400904048,X,l,go,l,1,0.37144969729706645,,,,,,,,,,,,,,,,,,55,001,19,w,Psychologie,2023-01-23_15h32.12.774,00_bat_bachelor,2022.2.4,60.03443430843169,
,,,,,,,,,,,,1,0,1,0,53,0,53,0,,,,,,,53,,,0.2,2166.224072133773,X,None,nogo,d,0,0.42482082278002053,,,,,,,,,,,,,,,,,,55,001,19,w,Psychologie,2023-01-23_15h32.12.774,00_bat_bachelor,2022.2.4,60.03443430843169,
,,,,,,,,,,,,1,0,1,0,54,0,54,0,,,,,,,54,,,0.2,2166.957845838624,Y,d,go,l,0,0.6656022819224745,,,,,,,,,,,,,,,,,,55,001,19,w,Psychologie,2023-01-23_15h32.12.774,00_bat_bachelor,2022.2.4,60.03443430843169,
,,,,,,,,,,,,1,0,1,0,55,0,55,0,,,,,,,55,,,0.2,2167.9253067028476,X,l,go,None,0,,,,,,,,,,,,,,,,,,,55,001,19,w,Psychologie,2023-01-23_15h32.12.774,00_bat_bachelor,2022.2.4,60.03443430843169,
,,,,,,,,,,,,1,0,1,0,56,0,56,0,,,,,,,56,,,0.2,2168.9260267025093,Y,d,go,d,1,0.37863029981963336,,,,,,,,,,,,,,,,,,55,001,19,w,Psychologie,2023-01-23_15h32.12.774,00_bat_bachelor,2022.2.4,60.03443430843169,
,,,,,,,,,,,,1,0,1,0,57,0,57,0,,,,,,,57,,,0.2,2169.609867825522,X,l,go,l,1,0.5740629322826862,,,,,,,,,,,,,,,,,,55,001,19,w,Psychologie,2023-01-23_15h32.12.774,00_bat_bachelor,2022.2.4,60.03443430843169,
,,,,,,,,,,,,1,0,1,0,58,0,58,0,,,,,,,58,,,0.2,2170.4936627909774,Y,d,go,d,1,0.45800626126583666,,,,,,,,,,,,,,,,,,55,001,19,w,Psychologie,2023-01-23_15h32.12.774,00_bat_bachelor,2022.2.4,60.03443430843169,
,,,,,,,,,,,,1,0,1,0,59,0,59,0,,,,,,,59,,,0.2,2171.2611702976283,X,l,go,l,1,0.36286933766677976,,,,,,,,,,,,,,,,,,55,001,19,w,Psychologie,2023-01-23_15h32.12.774,00_bat_bachelor,2022.2.4,60.03443430843169,
,,,,,,,,,,,,1,0,1,0,60,0,60,0,,,,,,,60,,,0.2,2171.9280766409356,X,None,nogo,None,1,,,,,,,,,,,,,,,,,,,55,001,19,w,Psychologie,2023-01-23_15h32.12.774,00_bat_bachelor,2022.2.4,60.03443430843169,
,,,,,,,,,,,,1,0,1,0,61,0,61,0,,,,,,,61,,,0.2,2172.9290686404565,Y,d,go,d,1,0.24744733306579292,,,,,,,,,,,,,,,,,,55,001,19,w,Psychologie,2023-01-23_15h32.12.774,00_bat_bachelor,2022.2.4,60.03443430843169,
,,,,,,,,,,,,1,0,1,0,62,0,62,0,,,,,,,62,,,0.2,2173.4795343129663,X,l,go,l,1,0.4320251829922199,,,,,,,,,,,,,,,,,,55,001,19,w,Psychologie,2023-01-23_15h32.12.774,00_bat_bachelor,2022.2.4,60.03443430843169,
,,,,,,,,,,,,1,0,1,0,63,0,63,0,,,,,,,63,,,0.2,2174.21352135099,Y,d,go,d,1,0.29054743342567235,,,,,,,,,,,,,,,,,,55,001,19,w,Psychologie,2023-01-23_15h32.12.774,00_bat_bachelor,2022.2.4,60.03443430843169,
,,,,,,,,,,,,1,0,1,0,64,0,64,0,,,,,,,64,,,0.2,2174.8136374236783,Y,None,nogo,None,1,,,,,,,,,,,,,,,,,,,55,001,19,w,Psychologie,2023-01-23_15h32.12.774,00_bat_bachelor,2022.2.4,60.03443430843169,
,,,,,,,,,,,,1,0,1,0,65,0,65,0,,,,,,,65,,,0.2,2175.8145901504904,X,l,go,l,1,0.2733071993570775,,,,,,,,,,,,,,,,,,55,001,19,w,Psychologie,2023-01-23_15h32.12.774,00_bat_bachelor,2022.2.4,60.03443430843169,
,,,,,,,,,,,,1,0,1,0,66,0,66,0,,,,,,,66,,,0.2,2176.398402231047,Y,d,go,d,1,0.45673062559217215,,,,,,,,,,,,,,,,,,55,001,19,w,Psychologie,2023-01-23_15h32.12.774,00_bat_bachelor,2022.2.4,60.03443430843169,
,,,,,,,,,,,,1,0,1,0,67,0,67,0,,,,,,,67,,,0.2,2177.1657080408186,Y,None,nogo,l,0,0.3310763833578676,,,,,,,,,,,,,,,,,,55,001,19,w,Psychologie,2023-01-23_15h32.12.774,00_bat_bachelor,2022.2.4,60.03443430843169,
,,,,,,,,,,,,1,0,1,0,68,0,68,0,,,,,,,68,,,0.2,2177.7995637335116,Y,None,nogo,d,0,0.3361289870226756,,,,,,,,,,,,,,,,,,55,001,19,w,Psychologie,2023-01-23_15h32.12.774,00_bat_bachelor,2022.2.4,60.03443430843169,
,,,,,,,,,,,,1,0,1,0,69,0,69,0,,,,,,,69,,,0.2,2178.449901842512,X,l,go,l,1,0.43775511952117085,,,,,,,,,,,,,,,,,,55,001,19,w,Psychologie,2023-01-23_15h32.12.774,00_bat_bachelor,2022.2.4,60.03443430843169,
,,,,,,,,,,,,1,0,1,0,70,0,70,0,,,,,,,70,,,0.2,2179.2004677816294,Y,d,go,d,1,0.5032813908765092,,,,,,,,,,,,,,,,,,55,001,19,w,Psychologie,2023-01-23_15h32.12.774,00_bat_bachelor,2022.2.4,60.03443430843169,
,,,,,,,,,,,,1,0,1,0,71,0,71,0,,,,,,,71,,,0.2,2180.017796355067,X,l,go,l,1,0.37547975580673665,,,,,,,,,,,,,,,,,,55,001,19,w,Psychologie,2023-01-23_15h32.12.774,00_bat_bachelor,2022.2.4,60.03443430843169,
,,,,,,,,,,,,1,0,1,0,72,0,72,0,,,,,,,72,,,0.2,2180.701817841502,Y,d,go,d,1,0.47384334448724985,,,,,,,,,,,,,,,,,,55,001,19,w,Psychologie,2023-01-23_15h32.12.774,00_bat_bachelor,2022.2.4,60.03443430843169,
,,,,,,,,,,,,1,0,1,0,73,0,73,0,,,,,,,73,,,0.2,2181.485651158495,Y,None,nogo,l,0,0.45816480671055615,,,,,,,,,,,,,,,,,,55,001,19,w,Psychologie,2023-01-23_15h32.12.774,00_bat_bachelor,2022.2.4,60.03443430843169,
,,,,,,,,,,,,1,0,1,0,74,0,74,0,,,,,,,74,,,0.2,2182.2527625440853,X,l,go,d,0,0.37835393636487424,,,,,,,,,,,,,,,,,,55,001,19,w,Psychologie,2023-01-23_15h32.12.774,00_bat_bachelor,2022.2.4,60.03443430843169,
,,,,,,,,,,,,1,0,1,0,75,0,75,0,,,,,,,75,,,0.2,2182.9366880307207,Y,d,go,l,0,0.4308455472346395,,,,,,,,,,,,,,,,,,55,001,19,w,Psychologie,2023-01-23_15h32.12.774,00_bat_bachelor,2022.2.4,60.03443430843169,
,,,,,,,,,,,,1,0,1,0,76,0,76,0,,,,,,,76,,,0.2,2183.670368159772,Y,None,nogo,None,1,,,,,,,,,,,,,,,,,,,55,001,19,w,Psychologie,2023-01-23_15h32.12.774,00_bat_bachelor,2022.2.4,60.03443430843169,
,,,,,,,,,,,,1,0,1,0,77,0,77,0,,,,,,,77,,,0.2,2184.6715109471697,X,l,go,l,1,0.4711960731074214,,,,,,,,,,,,,,,,,,55,001,19,w,Psychologie,2023-01-23_15h32.12.774,00_bat_bachelor,2022.2.4,60.03443430843169,
,,,,,,,,,,,,1,0,1,0,78,0,78,0,,,,,,,78,,,0.2,2185.4557626880705,Y,d,go,d,1,0.37534933164715767,,,,,,,,,,,,,,,,,,55,001,19,w,Psychologie,2023-01-23_15h32.12.774,00_bat_bachelor,2022.2.4,60.03443430843169,
,,,,,,,,,,,,1,0,1,0,79,0,79,0,,,,,,,79,,,0.2,2186.139084053808,Y,None,nogo,None,1,,,,,,,,,,,,,,,,,,,55,001,19,w,Psychologie,2023-01-23_15h32.12.774,00_bat_bachelor,2022.2.4,60.03443430843169,
,,,,,,,,,,,,1,0,1,0,80,0,80,0,,,,,,,80,,,0.2,2187.14002514421,X,l,go,l,1,0.40380846930202097,,,,,,,,,,,,,,,,,,55,001,19,w,Psychologie,2023-01-23_15h32.12.774,00_bat_bachelor,2022.2.4,60.03443430843169,
,,,,,,,,,,,,1,0,1,0,81,0,81,0,,,,,,,81,,,0.2,2187.8571375238243,Y,d,go,d,1,0.4865361868869513,,,,,,,,,,,,,,,,,,55,001,19,w,Psychologie,2023-01-23_15h32.12.774,00_bat_bachelor,2022.2.4,60.03443430843169,
,,,,,,,,,,,,1,0,1,0,82,0,82,0,,,,,,,82,,,0.2,2188.6575109539554,X,l,go,l,1,0.6303378141019493,,,,,,,,,,,,,,,,,,55,001,19,w,Psychologie,2023-01-23_15h32.12.774,00_bat_bachelor,2022.2.4,60.03443430843169,
,,,,,,,,,,,,1,0,1,0,83,0,83,0,,,,,,,83,,,0.2,2189.5917897736654,Y,d,go,d,1,0.416017918032594,,,,,,,,,,,,,,,,,,55,001,19,w,Psychologie,2023-01-23_15h32.12.774,00_bat_bachelor,2022.2.4,60.03443430843169,
,,,,,,,,,,,,1,0,1,0,84,0,84,0,,,,,,,84,,,0.2,2190.3089908804977,Y,None,nogo,l,0,0.5477065814193338,,,,,,,,,,,,,,,,,,55,001,19,w,Psychologie,2023-01-23_15h32.12.774,00_bat_bachelor,2022.2.4,60.03443430843169,
,,,,,,,,,,,,1,0,1,0,85,0,85,0,,,,,,,85,,,0.2,2191.1594539833022,X,l,go,None,0,,,,,,,,,,,,,,,,,,,55,001,19,w,Psychologie,2023-01-23_15h32.12.774,00_bat_bachelor,2022.2.4,60.03443430843169,
,,,,,,,,,,,,1,0,1,0,86,0,86,0,,,,,,,86,,,0.2,2192.16044452833,Y,d,go,None,0,,,,,,,,,,,,,,,,,,,55,001,19,w,Psychologie,2023-01-23_15h32.12.774,00_bat_bachelor,2022.2.4,60.03443430843169,
,,,,,,,,,,,,1,0,1,0,87,0,87,0,,,,,,,87,,,0.2,2193.161094709765,Y,None,nogo,l,0,0.28590646595694125,,,,,,,,,,,,,,,,,,55,001,19,w,Psychologie,2023-01-23_15h32.12.774,00_bat_bachelor,2022.2.4,60.03443430843169,
,,,,,,,,,,,,1,0,1,0,88,0,88,0,,,,,,,88,,,0.2,2193.7614711459028,X,l,go,None,0,,,,,,,,,,,,,,,,,,,55,001,19,w,Psychologie,2023-01-23_15h32.12.774,00_bat_bachelor,2022.2.4,60.03443430843169,
,,,,,,,,,,,,1,0,1,0,89,0,89,0,,,,,,,89,,,0.2,2194.7623564788373,Y,d,go,None,0,,2195.5628239695216,,,,,,,,,,,,,,,,,55,001,19,w,Psychologie,2023-01-23_15h32.12.774,00_bat_bachelor,2022.2.4,60.03443430843169,
,,,,,,,,,,,,1,0,1,0,90,0,90,0,,,,,,,90,,,0.2,2195.7628117513377,X,l,go,l,1,0.40410810557659715,,,,,,,,,,,,,,,,,,55,001,19,w,Psychologie,2023-01-23_15h32.12.774,00_bat_bachelor,2022.2.4,60.03443430843169,
,,,,,,,,,,,,1,0,1,0,91,0,91,0,,,,,,,91,,,0.2,2196.4801418278366,X,None,nogo,d,0,0.34281601407565176,,,,,,,,,,,,,,,,,,55,001,19,w,Psychologie,2023-01-23_15h32.12.774,00_bat_bachelor,2022.2.4,60.03443430843169,
,,,,,,,,,,,,1,0,1,0,92,0,92,0,,,,,,,92,,,0.2,2197.131247451529,Y,d,go,None,0,,2197.931697002845,,,,,,,,,,,,,,,,,55,001,19,w,Psychologie,2023-01-23_15h32.12.774,00_bat_bachelor,2022.2.4,60.03443430843169,
,,,,,,,,,,,,1,0,1,0,93,0,93,0,,,,,,,93,,,0.2,2198.1320508450735,X,l,go,None,0,,2198.9324756690767,,,,,,,,,,,,,,,,,55,001,19,w,Psychologie,2023-01-23_15h32.12.774,00_bat_bachelor,2022.2.4,60.03443430843169,
,,,,,,,,,,,,1,0,1,0,94,0,94,0,,,,,,,94,,,0.2,2199.1326219963375,Y,d,go,d,1,0.3783224211074412,,,,,,,,,,,,,,,,,,55,001,19,w,Psychologie,2023-01-23_15h32.12.774,00_bat_bachelor,2022.2.4,60.03443430843169,
,,,,,,,,,,,,1,0,1,0,95,0,95,0,,,,,,,95,,,0.2,2199.8162720891414,X,l,go,l,1,0.3506870405981317,,,,,,,,,,,,,,,,,,55,001,19,w,Psychologie,2023-01-23_15h32.12.774,00_bat_bachelor,2022.2.4,60.03443430843169,
,,,,,,,,,,,,1,0,1,0,96,0,96,0,,,,,,,96,,,0.2,2200.4833922504913,X,None,nogo,None,1,,,,,,,,,,,,,,,,,,,55,001,19,w,Psychologie,2023-01-23_15h32.12.774,00_bat_bachelor,2022.2.4,60.03443430843169,
,,,,,,,,,,,,1,0,1,0,97,0,97,0,,,,,,,97,,,0.2,2201.484210189432,X,None,nogo,l,0,0.3642322461819276,,,,,,,,,,,,,,,,,,55,001,19,w,Psychologie,2023-01-23_15h32.12.774,00_bat_bachelor,2022.2.4,60.03443430843169,
,,,,,,,,,,,,1,0,1,0,98,0,98,0,,,,,,,98,,,0.2,2202.1513977447757,Y,d,go,d,1,0.4489381444873288,,,,,,,,,,,,,,,,,,55,001,19,w,Psychologie,2023-01-23_15h32.12.774,00_bat_bachelor,2022.2.4,60.03443430843169,
,,,,,,,,,,,,1,0,1,0,99,0,99,0,,,,,,,99,,,0.2,2202.9018982293783,X,l,go,l,1,0.4333633641945198,,,,,,,,,,,,,,,,,,55,001,19,w,Psychologie,2023-01-23_15h32.12.774,00_bat_bachelor,2022.2.4,60.03443430843169,
,,,,,,,,,,,,1,0,1,0,100,0,100,0,,,,,,,100,,,0.2,2203.635972540127,X,None,nogo,None,1,,,,,,,,,,,,,,,,,,,55,001,19,w,Psychologie,2023-01-23_15h32.12.774,00_bat_bachelor,2022.2.4,60.03443430843169,
,,,,,,,,,,,,1,0,1,0,101,0,101,0,,,,,,,101,,,0.2,2204.636691570049,Y,d,go,None,0,,,,,,,,,,,,,,,,,,,55,001,19,w,Psychologie,2023-01-23_15h32.12.774,00_bat_bachelor,2022.2.4,60.03443430843169,
,,,,,,,,,,,,1,0,1,0,102,0,102,0,,,,,,,102,,,0.2,2205.637307327357,X,l,go,l,1,0.33830498601309955,,,,,,,,,,,,,,,,,,55,001,19,w,Psychologie,2023-01-23_15h32.12.774,00_bat_bachelor,2022.2.4,60.03443430843169,
,,,,,,,,,,,,1,0,1,0,103,0,103,0,,,,,,,103,,,0.2,2206.2878257998964,Y,d,go,d,1,0.2802608929341659,,,,,,,,,,,,,,,,,,55,001,19,w,Psychologie,2023-01-23_15h32.12.774,00_bat_bachelor,2022.2.4,60.03443430843169,
,,,,,,,,,,,,1,0,1,0,104,0,104,0,,,,,,,104,,,0.2,2206.871516668354,X,l,go,l,1,0.4804154625162482,,,,,,,,,,,,,,,,,,55,001,19,w,Psychologie,2023-01-23_15h32.12.774,00_bat_bachelor,2022.2.4,60.03443430843169,
,,,,,,,,,,,,1,0,1,0,105,0,105,0,,,,,,,105,,,0.2,2207.655589015456,Y,d,go,d,1,0.49685909086838365,,,,,,,,,,,,,,,,,,55,001,19,w,Psychologie,2023-01-23_15h32.12.774,00_bat_bachelor,2022.2.4,60.03443430843169,
,,,,,,,,,,,,1,0,1,0,106,0,106,0,,,,,,,106,,,0.2,2208.456131172832,X,l,go,l,1,0.623878180864267,,,,,,,,,,,,,,,,,,55,001,19,w,Psychologie,2023-01-23_15h32.12.774,00_bat_bachelor,2022.2.4,60.03443430843169,
,,,,,,,,,,,,1,0,1,0,107,0,107,0,,,,,,,107,,,0.2,2209.3899750836426,Y,d,go,d,1,0.4252499134745449,,,,,,,,,,,,,,,,,,55,001,19,w,Psychologie,2023-01-23_15h32.12.774,00_bat_bachelor,2022.2.4,60.03443430843169,
,,,,,,,,,,,,1,0,1,0,108,0,108,0,,,,,,,108,,,0.2,2210.1240605459316,X,l,go,None,0,,,,,,,,,,,,,,,,,,,55,001,19,w,Psychologie,2023-01-23_15h32.12.774,00_bat_bachelor,2022.2.4,60.03443430843169,
,,,,,,,,,,,,1,0,1,0,109,0,109,0,,,,,,,109,,,0.2,2211.1248813939746,Y,d,go,l,0,0.41895464388653636,,,,,,,,,,,,,,,,,,55,001,19,w,Psychologie,2023-01-23_15h32.12.774,00_bat_bachelor,2022.2.4,60.03443430843169,
,,,,,,,,,,,,1,0,1,0,110,0,110,0,,,,,,,110,,,0.2,2211.858530977741,X,l,go,d,0,0.35747346153948456,,,,,,,,,,,,,,,,,,55,001,19,w,Psychologie,2023-01-23_15h32.12.774,00_bat_bachelor,2022.2.4,60.03443430843169,
,,,,,,,,,,,,1,0,1,0,111,0,111,0,,,,,,,111,,,0.2,2212.525672957301,Y,d,go,None,0,,,,,,,,,,,,,,,,,,,55,001,19,w,Psychologie,2023-01-23_15h32.12.774,00_bat_bachelor,2022.2.4,60.03443430843169,
,,,,,,,,,,,,1,0,1,0,112,0,112,0,,,,,,,112,,,0.2,2213.526651865919,Y,None,nogo,None,1,,,,,,,,,,,,,,,,,,,55,001,19,w,Psychologie,2023-01-23_15h32.12.774,00_bat_bachelor,2022.2.4,60.03443430843169,
,,,,,,,,,,,,1,0,1,0,113,0,113,0,,,,,,,113,,,0.2,2214.5274058049545,X,l,go,l,1,0.36034764198120683,,,,,,,,,,,,,,,,,,55,001,19,w,Psychologie,2023-01-23_15h32.12.774,00_bat_bachelor,2022.2.4,60.03443430843169,
,,,,,,,,,,,,1,0,1,0,114,0,114,0,,,,,,,114,,,0.2,2215.194656390464,Y,d,go,d,1,0.3012877918081358,,,,,,,,,,,,,,,,,,55,001,19,w,Psychologie,2023-01-23_15h32.12.774,00_bat_bachelor,2022.2.4,60.03443430843169,
,,,,,,,,,,,,1,0,1,0,115,0,115,0,,,,,,,115,,,0.2,2215.8117518489016,X,l,go,l,1,0.27719859138596803,,,,,,,,,,,,,,,,,,55,001,19,w,Psychologie,2023-01-23_15h32.12.774,00_bat_bachelor,2022.2.4,60.03443430843169,
,,,,,,,,,,,,1,0,1,0,116,0,116,0,,,,,,,116,,,0.2,2216.3953539901413,Y,d,go,d,1,0.3323505646549165,,,,,,,,,,,,,,,,,,55,001,19,w,Psychologie,2023-01-23_15h32.12.774,00_bat_bachelor,2022.2.4,60.03443430843169,
,,,,,,,,,,,,1,0,1,0,117,0,117,0,,,,,,,117,,,0.2,2217.029115622281,X,l,go,l,1,0.5628673013998196,,,,,,,,,,,,,,,,,,55,001,19,w,Psychologie,2023-01-23_15h32.12.774,00_bat_bachelor,2022.2.4,60.03443430843169,
,,,,,,,,,,,,1,0,1,0,118,0,118,0,,,,,,,118,,,0.2,2217.896711807698,Y,d,go,d,1,0.4633386223576963,,,,,,,,,,,,,,,,,,55,001,19,w,Psychologie,2023-01-23_15h32.12.774,00_bat_bachelor,2022.2.4,60.03443430843169,
,,,,,,,,,,,,1,0,1,0,119,0,119,0,,,,,,,119,,,0.2,2218.6639065871714,X,l,go,l,1,0.30330863932613283,,,,,,,,,,,,,,,,,,55,001,19,w,Psychologie,2023-01-23_15h32.12.774,00_bat_bachelor,2022.2.4,60.03443430843169,
,,,,,,,,,,,,1,0,1,0,120,0,120,0,,,,,,,120,,,0.2,2219.2807974396273,Y,d,go,d,1,0.4863277020631358,,,,,,,,,,,,,,,,,,55,001,19,w,Psychologie,2023-01-23_15h32.12.774,00_bat_bachelor,2022.2.4,60.03443430843169,
,,,,,,,,,,,,1,0,1,0,121,0,121,0,,,,,,,121,,,0.2,2220.0815577786416,X,l,go,l,1,0.2624989621108398,,,,,,,,,,,,,,,,,,55,001,19,w,Psychologie,2023-01-23_15h32.12.774,00_bat_bachelor,2022.2.4,60.03443430843169,
,,,,,,,,,,,,1,0,1,0,122,0,122,0,,,,,,,122,,,0.2,2220.6486808976624,Y,d,go,d,1,0.5276566518004984,,,,,,,,,,,,,,,,,,55,001,19,w,Psychologie,2023-01-23_15h32.12.774,00_bat_bachelor,2022.2.4,60.03443430843169,
,,,,,,,,,,,,1,0,1,0,123,0,123,0,,,,,,,123,,,0.2,2221.4825006145984,X,l,go,l,1,0.3333100794116035,,,,,,,,,,,,,,,,,,55,001,19,w,Psychologie,2023-01-23_15h32.12.774,00_bat_bachelor,2022.2.4,60.03443430843169,
,,,,,,,,,,,,1,0,1,0,124,0,124,0,,,,,,,124,,,0.2,2222.1165681858547,Y,d,go,d,1,0.3232203872175887,,,,,,,,,,,,,,,,,,55,001,19,w,Psychologie,2023-01-23_15h32.12.774,00_bat_bachelor,2022.2.4,60.03443430843169,
,,,,,,,,,,,,1,0,1,0,125,0,125,0,,,,,,,125,,,0.2,2222.7504316361155,Y,None,nogo,l,0,0.3780751485610381,,,,,,,,,,,,,,,,,,55,001,19,w,Psychologie,2023-01-23_15h32.12.774,00_bat_bachelor,2022.2.4,60.03443430843169,
,,,,,,,,,,,,1,0,1,0,126,0,126,0,,,,,,,126,,,0.2,2223.434242213727,X,l,go,None,0,,,,,,,,,,,,,,,,,,,55,001,19,w,Psychologie,2023-01-23_15h32.12.774,00_bat_bachelor,2022.2.4,60.03443430843169,
,,,,,,,,,,,,1,0,1,0,127,0,127,0,,,,,,,127,,,0.2,2224.434959789156,Y,d,go,d,1,0.18162966798990965,,,,,,,,,,,,,,,,,,55,001,19,w,Psychologie,2023-01-23_15h32.12.774,00_bat_bachelor,2022.2.4,60.03443430843169,
,,,,,,,,,,,,1,0,1,0,128,0,128,0,,,,,,,128,,,0.2,2224.918890221161,X,l,go,l,1,0.4800251596607268,,,,,,,,,,,,,,,,,,55,001,19,w,Psychologie,2023-01-23_15h32.12.774,00_bat_bachelor,2022.2.4,60.03443430843169,
,,,,,,,,,,,,1,0,1,0,129,0,129,0,,,,,,,129,,,0.2,2225.7027885077987,Y,d,go,None,0,,,,,,,,,,,,,,,,,,,55,001,19,w,Psychologie,2023-01-23_15h32.12.774,00_bat_bachelor,2022.2.4,60.03443430843169,
,,,,,,,,,,,,1,0,1,0,130,0,130,0,,,,,,,130,,,0.2,2226.7033121438,X,l,go,l,1,0.36036800558213145,,,,,,,,,,,,,,,,,,55,001,19,w,Psychologie,2023-01-23_15h32.12.774,00_bat_bachelor,2022.2.4,60.03443430843169,
,,,,,,,,,,,,1,0,1,0,131,0,131,0,,,,,,,131,,,0.2,2227.37033630535,X,None,nogo,l,0,0.5882573496783152,,,,,,,,,,,,,,,,,,55,001,19,w,Psychologie,2023-01-23_15h32.12.774,00_bat_bachelor,2022.2.4,60.03443430843169,
,,,,,,,,,,,,1,0,1,0,132,0,132,0,,,,,,,132,,,0.2,2228.2712788988138,Y,d,go,d,1,0.44008142151869833,,,,,,,,,,,,,,,,,,55,001,19,w,Psychologie,2023-01-23_15h32.12.774,00_bat_bachelor,2022.2.4,60.03443430843169,
,,,,,,,,,,,,1,0,1,0,133,0,133,0,,,,,,,133,,,0.2,2229.0215820501326,X,l,go,l,1,0.4249396106461063,,,,,,,,,,,,,,,,,,55,001,19,w,Psychologie,2023-01-23_15h32.12.774,00_bat_bachelor,2022.2.4,60.03443430843169,
,,,,,,,,,,,,1,0,1,0,134,0,134,0,,,,,,,134,,,0.2,2229.7557140578283,X,None,nogo,None,1,,2230.5560836092336,,,,,,,,,,,,,,,,,55,001,19,w,Psychologie,2023-01-23_15h32.12.774,00_bat_bachelor,2022.2.4,60.03443430843169,
,,,,,,,,,,,,1,0,1,0,135,0,135,0,,,,,,,135,,,0.2,2230.7562478757463,Y,d,go,d,1,0.6117603685706854,,,,,,,,,,,,,,,,,,55,001,19,w,Psychologie,2023-01-23_15h32.12.774,00_bat_bachelor,2022.2.4,60.03443430843169,
,,,,,,,,,,,,1,0,1,0,136,0,136,0,,,,,,,136,,,0.2,2231.673837249051,X,l,go,l,1,0.3171903296606615,,,,,,,,,,,,,,,,,,55,001,19,w,Psychologie,2023-01-23_15h32.12.774,00_bat_bachelor,2022.2.4,60.03443430843169,
,,,,,,,,,,,,1,0,1,0,137,0,137,0,,,,,,,137,,,0.2,2232.2910180407343,X,None,nogo,None,1,,2233.0915369252907,,,,,,,,,,,,,,,,,55,001,19,w,Psychologie,2023-01-23_15h32.12.774,00_bat_bachelor,2022.2.4,60.03443430843169,
,,,,,,,,,,,,1,0,1,0,138,0,138,0,,,,,,,138,,,0.2,2233.2915145253064,Y,d,go,d,1,0.3807495714863762,,,,,,,,,,,,,,,,,,55,001,19,w,Psychologie,2023-01-23_15h32.12.774,00_bat_bachelor,2022.2.4,60.03443430843169,
,,,,,,,,,,,,1,0,1,0,139,0,139,0,,,,,,,139,,,0.2,2233.9754943149164,X,l,go,l,1,0.4644712278386578,,,,,,,,,,,,,,,,,,55,001,19,w,Psychologie,2023-01-23_15h32.12.774,00_bat_bachelor,2022.2.4,60.03443430843169,
,,,,,,,,,,,,1,0,1,0,140,0,140,0,,,,,,,140,,,0.2,2234.742633336922,Y,d,go,d,1,0.4163820390822366,,,,,,,,,,,,,,,,,,55,001,19,w,Psychologie,2023-01-23_15h32.12.774,00_bat_bachelor,2022.2.4,60.03443430843169,
,,,,,,,,,,,,1,0,1,0,141,0,141,0,,,,,,,141,,,0.2,2235.4600065648556,X,l,go,l,1,0.33916413714177907,,,,,,,,,,,,,,,,,,55,001,19,w,Psychologie,2023-01-23_15h32.12.774,00_bat_bachelor,2022.2.4,60.03443430843169,
,,,,,,,,,,,,1,0,1,0,142,0,142,0,,,,,,,142,,,0.2,2236.1105788554996,Y,d,go,d,1,0.36225503496825695,,,,,,,,,,,,,,,,,,55,001,19,w,Psychologie,2023-01-23_15h32.12.774,00_bat_bachelor,2022.2.4,60.03443430843169,
,,,,,,,,,,,,1,0,1,0,143,0,143,0,,,,,,,143,,,0.2,2236.7777159865946,X,l,go,l,1,0.39769356325268745,,,,,,,,,,,,,,,,,,55,001,19,w,Psychologie,2023-01-23_15h32.12.774,00_bat_bachelor,2022.2.4,60.03443430843169,
,,,,,,,,,,,,1,0,1,0,144,0,144,0,,,,,,,144,,,0.2,2237.478218919714,Y,d,go,None,0,,,,,,,,,,,,,,,,,,,55,001,19,w,Psychologie,2023-01-23_15h32.12.774,00_bat_bachelor,2022.2.4,60.03443430843169,
,,,,,,,,,,,,1,0,1,0,145,0,145,0,,,,,,,145,,,0.2,2238.479078555596,Y,None,nogo,None,1,,,,,,,,,,,,,,,,,,,55,001,19,w,Psychologie,2023-01-23_15h32.12.774,00_bat_bachelor,2022.2.4,60.03443430843169,
,,,,,,,,,,,,1,0,1,0,146,0,146,0,,,,,,,146,,,0.2,2239.4798067976953,X,l,go,l,1,0.5123844167683274,,,,,,,,,,,,,,,,,,55,001,19,w,Psychologie,2023-01-23_15h32.12.774,00_bat_bachelor,2022.2.4,60.03443430843169,
,,,,,,,,,,,,1,0,1,0,147,0,147,0,,,,,,,147,,,0.2,2240.296823128825,Y,d,go,d,1,0.3824271464254707,,,,,,,,,,,,,,,,,,55,001,19,w,Psychologie,2023-01-23_15h32.12.774,00_bat_bachelor,2022.2.4,60.03443430843169,
,,,,,,,,,,,,1,0,1,0,148,0,148,0,,,,,,,148,,,0.2,2240.980962918373,X,l,go,l,1,0.35405770561192185,,,,,,,,,,,,,,,,,,55,001,19,w,Psychologie,2023-01-23_15h32.12.774,00_bat_bachelor,2022.2.4,60.03443430843169,
,,,,,,,,,,,,1,0,1,0,149,0,149,0,,,,,,,149,,,0.2,2241.647916291957,X,None,nogo,d,0,0.3747602410148829,,,,,,,,,,,,,,,,,,55,001,19,w,Psychologie,2023-01-23_15h32.12.774,00_bat_bachelor,2022.2.4,60.03443430843169,
,,,,,,,,,,,,1,0,1,0,150,0,150,0,,,,,,,150,,,0.2,2242.332073536003,Y,d,go,d,1,0.6515814401209354,,,,,,,,,,,,,,,,,,55,001,19,w,Psychologie,2023-01-23_15h32.12.774,00_bat_bachelor,2022.2.4,60.03443430843169,
,,,,,,,,,,,,1,0,1,0,151,0,151,0,,,,,,,151,,,0.2,2243.299383612466,X,l,go,l,1,0.3254075376316905,,,,,,,,,,,,,,,,,,55,001,19,w,Psychologie,2023-01-23_15h32.12.774,00_bat_bachelor,2022.2.4,60.03443430843169,
,,,,,,,,,,,,1,0,1,0,152,0,152,0,,,,,,,152,,,0.2,2243.9329188204138,X,None,nogo,d,0,0.2819035587599501,,,,,,,,,,,,,,,,,,55,001,19,w,Psychologie,2023-01-23_15h32.12.774,00_bat_bachelor,2022.2.4,60.03443430843169,
,,,,,,,,,,,,1,0,1,0,153,0,153,0,,,,,,,153,,,0.2,2244.516807991895,Y,d,go,l,0,0.3547035234514624,,,,,,,,,,,,,,,,,,55,001,19,w,Psychologie,2023-01-23_15h32.12.774,00_bat_bachelor,2022.2.4,60.03443430843169,
,,,,,,,,,,,,1,0,1,0,154,0,154,0,,,,,,,154,,,0.2,2245.1843102136627,X,l,go,d,0,0.391527263331227,,,,,,,,,,,,,,,,,,55,001,19,w,Psychologie,2023-01-23_15h32.12.774,00_bat_bachelor,2022.2.4,60.03443430843169,
,,,,,,,,,,,,1,0,1,0,155,0,155,0,,,,,,,155,,,0.2,2245.884660904412,Y,d,go,None,0,,2246.6853189404355,,,,,,,,,,,,,,,,,55,001,19,w,Psychologie,2023-01-23_15h32.12.774,00_bat_bachelor,2022.2.4,60.03443430843169,
,,,,,,,,,,,,1,0,1,0,156,0,156,0,,,,,,,156,,,0.2,2246.8853450253373,X,l,go,l,1,0.274632774409838,,,,,,,,,,,,,,,,,,55,001,19,w,Psychologie,2023-01-23_15h32.12.774,00_bat_bachelor,2022.2.4,60.03443430843169,
,,,,,,,,,,,,1,0,1,0,157,0,157,0,,,,,,,157,,,0.2,2247.4692128633615,X,None,nogo,None,1,,,,,,,,,,,,,,,,,,,55,001,19,w,Psychologie,2023-01-23_15h32.12.774,00_bat_bachelor,2022.2.4,60.03443430843169,
,,,,,,,,,,,,1,0,1,0,158,0,158,0,,,,,,,158,,,0.2,2248.4697263176786,Y,d,go,d,1,0.3698734554927796,,,,,,,,,,,,,,,,,,55,001,19,w,Psychologie,2023-01-23_15h32.12.774,00_bat_bachelor,2022.2.4,60.03443430843169,
,,,,,,,,,,,,1,0,1,0,159,0,159,0,,,,,,,159,,,0.2,2249.153804046684,X,l,go,l,1,0.39090083923656493,,,,,,,,,,,,,,,,,,55,001,19,w,Psychologie,2023-01-23_15h32.12.774,00_bat_bachelor,2022.2.4,60.03443430843169,
,,,,,,,,,,,,1,0,1,0,160,0,160,0,,,,,,,160,,,0.2,2249.8544175251154,X,None,nogo,d,0,0.3784446029458195,,,,,,,,,,,,,,,,,,55,001,19,w,Psychologie,2023-01-23_15h32.12.774,00_bat_bachelor,2022.2.4,60.03443430843169,
,,,,,,,,,,,,1,0,1,0,161,0,161,0,,,,,,,161,,,0.2,2250.5380118603352,Y,d,go,None,0,,,,,,,,,,,,,,,,,,,55,001,19,w,Psychologie,2023-01-23_15h32.12.774,00_bat_bachelor,2022.2.4,60.03443430843169,
,,,,,,,,,,,,1,0,1,0,162,0,162,0,,,,,,,162,,,0.2,2251.5390479810303,X,l,go,l,1,0.3247064471943304,,,,,,,,,,,,,,,,,,55,001,19,w,Psychologie,2023-01-23_15h32.12.774,00_bat_bachelor,2022.2.4,60.03443430843169,
,,,,,,,,,,,,1,0,1,0,163,0,163,0,,,,,,,163,,,0.2,2252.172568643582,X,None,nogo,None,1,,,,,,,,,,,,,,,,,,,55,001,19,w,Psychologie,2023-01-23_15h32.12.774,00_bat_bachelor,2022.2.4,60.03443430843169,
,,,,,,,,,,,,1,0,1,0,164,0,164,0,,,,,,,164,,,0.2,2253.1735024612863,Y,d,go,d,1,0.36958448600489646,,,,,,,,,,,,,,,,,,55,001,19,w,Psychologie,2023-01-23_15h32.12.774,00_bat_bachelor,2022.2.4,60.03443430843169,
,,,,,,,,,,,,1,0,1,0,165,0,165,0,,,,,,,165,,,0.2,2253.8573028570972,X,l,go,l,1,0.6464755032211542,,,,,,,,,,,,,,,,,,55,001,19,w,Psychologie,2023-01-23_15h32.12.774,00_bat_bachelor,2022.2.4,60.03443430843169,
,,,,,,,,,,,,1,0,1,0,166,0,166,0,,,,,,,166,,,0.2,2254.807894881,Y,d,go,d,1,0.40009792579803616,,,,,,,,,,,,,,,,,,55,001,19,w,Psychologie,2023-01-23_15h32.12.774,00_bat_bachelor,2022.2.4,60.03443430843169,
,,,,,,,,,,,,1,0,1,0,167,0,167,0,,,,,,,167,,,0.2,2255.5087202382274,X,l,go,l,1,0.4668304994702339,,,,,,,,,,,,,,,,,,55,001,19,w,Psychologie,2023-01-23_15h32.12.774,00_bat_bachelor,2022.2.4,60.03443430843169,
,,,,,,,,,,,,1,0,1,0,168,0,168,0,,,,,,,168,,,0.2,2256.275909199612,Y,d,go,d,1,0.41939731035381556,,,,,,,,,,,,,,,,,,55,001,19,w,Psychologie,2023-01-23_15h32.12.774,00_bat_bachelor,2022.2.4,60.03443430843169,
,,,,,,,,,,,,1,0,1,0,169,0,169,0,,,,,,,169,,,0.2,2257.0099442376522,Y,None,nogo,None,1,,2257.81043451617,,,,,,,,,,,,,,,,,55,001,19,w,Psychologie,2023-01-23_15h32.12.774,00_bat_bachelor,2022.2.4,60.03443430843169,
,,,,,,,,,,,,1,0,1,0,170,0,170,0,,,,,,,170,,,0.2,2258.0103437525686,X,l,go,l,1,0.348647283972241,,,,,,,,,,,,,,,,,,55,001,19,w,Psychologie,2023-01-23_15h32.12.774,00_bat_bachelor,2022.2.4,60.03443430843169,
,,,,,,,,,,,,1,0,1,0,171,0,171,0,,,,,,,171,,,0.2,2258.6610721643083,Y,d,go,d,1,0.4187335531460121,,,,,,,,,,,,,,,,,,55,001,19,w,Psychologie,2023-01-23_15h32.12.774,00_bat_bachelor,2022.2.4,60.03443430843169,
,,,,,,,,,,,,1,0,1,0,172,0,172,0,,,,,,,172,,,0.2,2259.3948933843058,Y,None,nogo,None,1,,2260.1955378445564,,,,,,,,,,,,,,,,,55,001,19,w,Psychologie,2023-01-23_15h32.12.774,00_bat_bachelor,2022.2.4,60.03443430843169,
,,,,,,,,,,,,1,0,1,0,173,0,173,0,,,,,,,173,,,0.2,2260.395714232349,Y,None,nogo,l,0,0.2680344746913761,,,,,,,,,,,,,,,,,,55,001,19,w,Psychologie,2023-01-23_15h32.12.774,00_bat_bachelor,2022.2.4,60.03443430843169,
,,,,,,,,,,,,1,0,1,0,174,0,174,0,,,,,,,174,,,0.2,2260.979297464597,X,l,go,l,1,0.5962975881993771,,,,,,,,,,,,,,,,,,55,001,19,w,Psychologie,2023-01-23_15h32.12.774,00_bat_bachelor,2022.2.4,60.03443430843169,
,,,,,,,,,,,,1,0,1,0,175,0,175,0,,,,,,,175,,,0.2,2261.880257027806,Y,d,go,d,1,0.655879135010764,,,,,,,,,,,,,,,,,,55,001,19,w,Psychologie,2023-01-23_15h32.12.774,00_bat_bachelor,2022.2.4,60.03443430843169,
,,,,,,,,,,,,1,0,1,0,176,0,176,0,,,,,,,176,,,0.2,2262.847605892108,X,l,go,l,1,0.5841574728256091,,,,,,,,,,,,,,,,,,55,001,19,w,Psychologie,2023-01-23_15h32.12.774,00_bat_bachelor,2022.2.4,60.03443430843169,
,,,,,,,,,,,,1,0,1,0,177,0,177,0,,,,,,,177,,,0.2,2263.7480471524177,Y,d,go,d,1,0.4668872266774997,,,,,,,,,,,,,,,,,,55,001,19,w,Psychologie,2023-01-23_15h32.12.774,00_bat_bachelor,2022.2.4,60.03443430843169,
,,,,,,,,,,,,1,0,1,0,178,0,178,0,,,,,,,178,,,0.2,2264.5155459318776,X,l,go,l,1,0.3555835230508819,,,,,,,,,,,,,,,,,,55,001,19,w,Psychologie,2023-01-23_15h32.12.774,00_bat_bachelor,2022.2.4,60.03443430843169,
,,,,,,,,,,,,1,0,1,0,179,0,179,0,,,,,,,179,,,0.2,2265.18282075983,Y,d,go,d,1,0.6011397676775232,,,,,,,,,,,,,,,,,,55,001,19,w,Psychologie,2023-01-23_15h32.12.774,00_bat_bachelor,2022.2.4,60.03443430843169,
,,,,,,,,,,,,1,0,1,0,180,0,180,0,,,,,,,180,,,0.2,2266.100001406041,Y,None,nogo,l,0,0.4514443250373006,,,,,,,,,,,,,,,,,,55,001,19,w,Psychologie,2023-01-23_15h32.12.774,00_bat_bachelor,2022.2.4,60.03443430843169,
,,,,,,,,,,,,1,0,1,0,181,0,181,0,,,,,,,181,,,0.2,2266.867310609785,X,l,go,l,1,0.516106596798636,,,,,,,,,,,,,,,,,,55,001,19,w,Psychologie,2023-01-23_15h32.12.774,00_bat_bachelor,2022.2.4,60.03443430843169,
,,,,,,,,,,,,1,0,1,0,182,0,182,0,,,,,,,182,,,0.2,2267.6847686376423,Y,d,go,d,1,0.3550690991105512,,,,,,,,,,,,,,,,,,55,001,19,w,Psychologie,2023-01-23_15h32.12.774,00_bat_bachelor,2022.2.4,60.03443430843169,
,,,,,,,,,,,,1,0,1,0,183,0,183,0,,,,,,,183,,,0.2,2268.351528072031,X,l,go,l,1,0.4708848004229367,,,,,,,,,,,,,,,,,,55,001,19,w,Psychologie,2023-01-23_15h32.12.774,00_bat_bachelor,2022.2.4,60.03443430843169,
,,,,,,,,,,,,1,0,1,0,184,0,184,0,,,,,,,184,,,0.2,2269.1356988432817,X,None,nogo,d,0,0.4247393683763221,,,,,,,,,,,,,,,,,,55,001,19,w,Psychologie,2023-01-23_15h32.12.774,00_bat_bachelor,2022.2.4,60.03443430843169,
,,,,,,,,,,,,1,0,1,0,185,0,185,0,,,,,,,185,,,0.2,2269.8694080633577,Y,d,go,d,1,0.5383349496405572,,,,,,,,,,,,,,,,,,55,001,19,w,Psychologie,2023-01-23_15h32.12.774,00_bat_bachelor,2022.2.4,60.03443430843169,
,,,,,,,,,,,,1,0,1,0,186,0,186,0,,,,,,,186,,,0.2,2270.7202527417103,X,l,go,l,1,0.551403064513579,,,,,,,,,,,,,,,,,,55,001,19,w,Psychologie,2023-01-23_15h32.12.774,00_bat_bachelor,2022.2.4,60.03443430843169,
,,,,,,,,,,,,1,0,1,0,187,0,187,0,,,,,,,187,,,0.2,2271.5873534121783,Y,d,go,d,1,0.5490888837957755,,,,,,,,,,,,,,,,,,55,001,19,w,Psychologie,2023-01-23_15h32.12.774,00_bat_bachelor,2022.2.4,60.03443430843169,
,,,,,,,,,,,,1,0,1,0,188,0,188,0,,,,,,,188,,,0.2,2272.4381525148638,X,l,go,l,1,0.4329071219544858,,,,,,,,,,,,,,,,,,55,001,19,w,Psychologie,2023-01-23_15h32.12.774,00_bat_bachelor,2022.2.4,60.03443430843169,
,,,,,,,,,,,,1,0,1,0,189,0,189,0,,,,,,,189,,,0.2,2273.1721831893083,Y,d,go,d,1,0.40319125761743635,,,,,,,,,,,,,,,,,,55,001,19,w,Psychologie,2023-01-23_15h32.12.774,00_bat_bachelor,2022.2.4,60.03443430843169,
,,,,,,,,,,,,1,0,1,0,190,0,190,0,,,,,,,190,,,0.2,2273.8892931445735,X,l,go,l,1,0.45476311130914837,,,,,,,,,,,,,,,,,,55,001,19,w,Psychologie,2023-01-23_15h32.12.774,00_bat_bachelor,2022.2.4,60.03443430843169,
,,,,,,,,,,,,1,0,1,0,191,0,191,0,,,,,,,191,,,0.2,2274.656376408995,Y,d,go,d,1,0.39080677868332714,,,,,,,,,,,,,,,,,,55,001,19,w,Psychologie,2023-01-23_15h32.12.774,00_bat_bachelor,2022.2.4,60.03443430843169,
,,,,,,,,,,,,1,0,1,0,192,0,192,0,,,,,,,192,,,0.2,2275.3571906146826,Y,None,nogo,None,1,,,,,,,,,,,,,,,,,,,55,001,19,w,Psychologie,2023-01-23_15h32.12.774,00_bat_bachelor,2022.2.4,60.03443430843169,
,,,,,,,,,,,,1,0,1,0,193,0,193,0,,,,,,,193,,,0.2,2276.357834978029,X,l,go,l,1,0.35374594829045236,,,,,,,,,,,,,,,,,,55,001,19,w,Psychologie,2023-01-23_15h32.12.774,00_bat_bachelor,2022.2.4,60.03443430843169,
,,,,,,,,,,,,1,0,1,0,194,0,194,0,,,,,,,194,,,0.2,2277.025116593926,Y,d,go,d,1,0.4074496796820313,,,,,,,,,,,,,,,,,,55,001,19,w,Psychologie,2023-01-23_15h32.12.774,00_bat_bachelor,2022.2.4,60.03443430843169,
,,,,,,,,,,,,1,0,1,0,195,0,195,0,,,,,,,195,,,0.2,2277.742017579614,X,l,go,l,1,0.4895335187902674,,,,,,,,,,,,,,,,,,55,001,19,w,Psychologie,2023-01-23_15h32.12.774,00_bat_bachelor,2022.2.4,60.03443430843169,
,,,,,,,,,,,,1,0,1,0,196,0,196,0,,,,,,,196,,,0.2,2278.5426761005074,Y,d,go,d,1,0.6005657073110342,,,,,,,,,,,,,,,,,,55,001,19,w,Psychologie,2023-01-23_15h32.12.774,00_bat_bachelor,2022.2.4,60.03443430843169,
,,,,,,,,,,,,1,0,1,0,197,0,197,0,,,,,,,197,,,0.2,2279.443503784947,X,l,go,l,1,0.5157594454940408,,,,,,,,,,,,,,,,,,55,001,19,w,Psychologie,2023-01-23_15h32.12.774,00_bat_bachelor,2022.2.4,60.03443430843169,
,,,,,,,,,,,,1,0,1,0,198,0,198,0,,,,,,,198,,,0.2,2280.2608755099354,X,None,nogo,d,0,0.49916260491590947,,,,,,,,,,,,,,,,,,55,001,19,w,Psychologie,2023-01-23_15h32.12.774,00_bat_bachelor,2022.2.4,60.03443430843169,
,,,,,,,,,,,,1,0,1,0,199,0,199,0,,,,,,,199,,,0.2,2281.0615800913656,Y,d,go,d,1,0.6102360056247562,,,,,,,,,,,,,,,,,,55,001,19,w,Psychologie,2023-01-23_15h32.12.774,00_bat_bachelor,2022.2.4,60.03443430843169,
