loop_instruction.thisRepN,loop_instruction.thisTrialN,loop_instruction.thisN,loop_instruction.thisIndex,loop_rsi_practice.thisRepN,loop_rsi_practice.thisTrialN,loop_rsi_practice.thisN,loop_rsi_practice.thisIndex,loop_practice.thisRepN,loop_practice.thisTrialN,loop_practice.thisN,loop_practice.thisIndex,loop_exp.thisRepN,loop_exp.thisTrialN,loop_exp.thisN,loop_exp.thisIndex,loop_trials.thisRepN,loop_trials.thisTrialN,loop_trials.thisN,loop_trials.thisIndex,map_condition,map_x_key,map_y_key,key_resp_welcome.started,key_resp_welcome.keys,key_resp_welcome.rt,index,text_empty_rsi_practice.started,text_empty_rsi_practice.stopped,rsi,stimulus.started,stimulus,correct,trial_type,key_resp_trial.keys,key_resp_trial.corr,key_resp_trial.rt,key_resp_instruction_rsi.started,key_resp_instruction_rsi.keys,key_resp_instruction_rsi.rt,key_resp_instruction_rsi.stopped,key_resp_instruction_final.started,key_resp_instruction_final.keys,key_resp_instruction_final.rt,stimulus.stopped,key_resp_break.started,key_resp_break.keys,key_resp_break.rt,key_resp_break.stopped,key_resp_end_screen.started,image_end_screen.started,key_resp_end_screen.keys,participant,session,Alter,Geschlecht (w/m/d/andere),Studiengang,date,expName,psychopyVersion,frameRate,
,,,,0,0,0,0,0,0,0,0,,,,,,,,,0,d,l,6323.849712471913,j,14.137380880135709,0,6338.008209637658,6339.007756714766,1,6339.007756714766,X,d,go,None,0,,,,,,,,,,,,,,,,,58,001,22,w,Psychologie ,2023-01-24_10h33.51.592,00_bat_bachelor,2022.2.4,59.84182125267235,
,,,,0,0,0,0,1,0,1,0,,,,,,,,,,,,,,,1,6340.4086829092585,6341.409938703615,1,6341.409938703615,Y,l,go,l,1,0.40614302628483756,,,,,,,,,,,,,,,,58,001,22,w,Psychologie ,2023-01-24_10h33.51.592,00_bat_bachelor,2022.2.4,59.84182125267235,
,,,,0,0,0,0,2,0,2,0,,,,,,,,,,,,,,,2,6342.528111783339,6343.52834973196,1,6343.52834973196,X,d,go,d,1,0.3352983374009568,,,,,,,,,,,,,,,,58,001,22,w,Psychologie ,2023-01-24_10h33.51.592,00_bat_bachelor,2022.2.4,59.84182125267235,
,,,,0,0,0,0,3,0,3,0,,,,,,,,,,,,,,,3,6344.57952181353,6345.58110253083,1,6345.58110253083,X,None,nogo,d,0,0.28180953883139637,,,,,,,,,,,,,,,,58,001,22,w,Psychologie ,2023-01-24_10h33.51.592,00_bat_bachelor,2022.2.4,59.84182125267235,
,,,,0,0,0,0,4,0,4,0,,,,,,,,,,,,,,,4,6347.015472403909,6348.016252711282,1,6348.016252711282,Y,l,go,l,1,0.4402303969157515,,,,,,,,,,,,,,,,58,001,22,w,Psychologie ,2023-01-24_10h33.51.592,00_bat_bachelor,2022.2.4,59.84182125267235,
,,,,0,0,0,0,5,0,5,0,,,,,,,,,,,,,,,5,6349.1674698800125,6350.168331007864,1,6350.168331007864,X,d,go,None,0,,,,,,,,,,,,,,,,,58,001,22,w,Psychologie ,2023-01-24_10h33.51.592,00_bat_bachelor,2022.2.4,59.84182125267235,
,,,,0,0,0,0,6,0,6,0,,,,,,,,,,,,,,,6,6351.5700654071525,6352.5710569964895,1,6352.5710569964895,X,None,nogo,d,0,0.30139722310315165,,,,,,,,,,,,,,,,58,001,22,w,Psychologie ,2023-01-24_10h33.51.592,00_bat_bachelor,2022.2.4,59.84182125267235,
,,,,0,0,0,0,7,0,7,0,,,,,,,,,,,,,,,7,6353.988874260975,6354.989960209247,1,6354.989960209247,Y,l,go,l,1,0.4261627103790602,,,,,,,,,,,,,,,,58,001,22,w,Psychologie ,2023-01-24_10h33.51.592,00_bat_bachelor,2022.2.4,59.84182125267235,
,,,,0,0,0,0,8,0,8,0,,,,,,,,,,,,,,,8,6356.124456974582,6357.12530866654,1,6357.12530866654,X,d,go,d,1,0.35458530384704545,,,,,,,,,,,,,,,,58,001,22,w,Psychologie ,2023-01-24_10h33.51.592,00_bat_bachelor,2022.2.4,59.84182125267235,
,,,,0,0,0,0,9,0,9,0,,,,,,,,,,,,,,,9,6358.193037869523,6359.194024125529,1,6359.194024125529,Y,l,go,l,1,0.390099545687292,,,,,,,,,,,,,,,,58,001,22,w,Psychologie ,2023-01-24_10h33.51.592,00_bat_bachelor,2022.2.4,59.84182125267235,
,,,,0,0,0,0,10,0,10,0,,,,,,,,,,,,,,,10,6360.295225725036,6361.2963001861335,1,6361.2963001861335,X,d,go,l,0,0.3597926863261023,,,,,,,,,,,,,,,,58,001,22,w,Psychologie ,2023-01-24_10h33.51.592,00_bat_bachelor,2022.2.4,59.84182125267235,
,,,,0,0,0,0,11,0,11,0,,,,,,,,,,,,,,,11,6362.363891953275,6363.364879029794,1,6363.364879029794,X,None,nogo,d,0,0.5950237693080567,,,,,,,,,,,,,,,,58,001,22,w,Psychologie ,2023-01-24_10h33.51.592,00_bat_bachelor,2022.2.4,59.84182125267235,
,,,,0,0,0,0,12,0,12,0,,,,,,,,,,,,,,,12,6365.066674434185,6366.067794843982,1,6366.067794843982,Y,l,go,l,1,0.38129585699090285,,,,,,,,,,,,,,,,58,001,22,w,Psychologie ,2023-01-24_10h33.51.592,00_bat_bachelor,2022.2.4,59.84182125267235,
,,,,0,0,0,0,13,0,13,0,,,,,,,,,,,,,,,13,6367.1520167581475,6368.1531408602505,1,6368.1531408602505,X,d,go,d,1,0.31069732185216026,,,,,,,,,,,,,,,,58,001,22,w,Psychologie ,2023-01-24_10h33.51.592,00_bat_bachelor,2022.2.4,59.84182125267235,
,,,,0,0,0,0,14,0,14,0,,,,,,,,,,,,,,,14,6369.170771211991,6370.171658596243,1,6370.171658596243,X,None,nogo,None,1,,,,,,,,,,,,,,,,,58,001,22,w,Psychologie ,2023-01-24_10h33.51.592,00_bat_bachelor,2022.2.4,59.84182125267235,
,,,,1,0,1,0,0,0,0,0,,,,,,,,,,,,,,,0,6388.289967881039,6388.490176209159,0.2,6388.490176209159,X,d,go,d,1,0.6063579185041021,6371.601883650509,space,16.665091022613808,,,,,,,,,,,,,58,001,22,w,Psychologie ,2023-01-24_10h33.51.592,00_bat_bachelor,2022.2.4,59.84182125267235,
,,,,1,0,1,0,1,0,1,0,,,,,,,,,,,,,,,1,6389.808426745261,6390.008820098946,0.2,6390.008820098946,Y,l,go,d,0,0.3027941456078338,,,,,,,,,,,,,,,,58,001,22,w,Psychologie ,2023-01-24_10h33.51.592,00_bat_bachelor,2022.2.4,59.84182125267235,
,,,,1,0,1,0,2,0,2,0,,,,,,,,,,,,,,,2,6391.042660085062,6391.242856105495,0.2,6391.242856105495,X,d,go,l,0,0.3168318834380557,,,,,,,,,,,,,,,,58,001,22,w,Psychologie ,2023-01-24_10h33.51.592,00_bat_bachelor,2022.2.4,59.84182125267235,
,,,,1,0,1,0,3,0,3,0,,,,,,,,,,,,,,,3,6392.260530764911,6392.460833862222,0.2,6392.460833862222,Y,l,go,l,1,0.48319037929132946,,,,,,,,,,,,,,,,58,001,22,w,Psychologie ,2023-01-24_10h33.51.592,00_bat_bachelor,2022.2.4,59.84182125267235,
,,,,1,0,1,0,4,0,4,0,,,,,,,,,,,,,,,4,6393.645150504554,6393.845475755703,0.2,6393.845475755703,X,d,go,d,1,0.3787227298410585,,,,,,,,,,,,,,,,58,001,22,w,Psychologie ,2023-01-24_10h33.51.592,00_bat_bachelor,2022.2.4,59.84182125267235,
,,,,1,0,1,0,5,0,5,0,,,,,,,,,,,,,,,5,6394.930041464599,6395.1300167671725,0.2,6395.1300167671725,Y,l,go,d,0,0.3335904406652048,,,,,,,,,,,,,,,,58,001,22,w,Psychologie ,2023-01-24_10h33.51.592,00_bat_bachelor,2022.2.4,59.84182125267235,
,,,,1,0,1,0,6,0,6,0,,,,,,,,,,,,,,,6,6396.164242394158,6396.3643608761595,0.2,6396.3643608761595,X,d,go,d,1,0.467120232037189,,,,,,,,,,,,,,,,58,001,22,w,Psychologie ,2023-01-24_10h33.51.592,00_bat_bachelor,2022.2.4,59.84182125267235,
,,,,1,0,1,0,7,0,7,0,,,,,,,,,,,,,,,7,6397.5324166020855,6397.732662263524,0.2,6397.732662263524,Y,l,go,l,1,0.35542468811792105,,,,,,,,,,,,,,,,58,001,22,w,Psychologie ,2023-01-24_10h33.51.592,00_bat_bachelor,2022.2.4,59.84182125267235,
,,,,1,0,1,0,8,0,8,0,,,,,,,,,,,,,,,8,6398.800232287084,6399.000553845927,0.2,6399.000553845927,X,d,go,d,1,0.43955716642204834,,,,,,,,,,,,,,,,58,001,22,w,Psychologie ,2023-01-24_10h33.51.592,00_bat_bachelor,2022.2.4,59.84182125267235,
,,,,1,0,1,0,9,0,9,0,,,,,,,,,,,,,,,9,6400.151676245467,6400.351849701806,0.2,6400.351849701806,X,None,nogo,d,0,0.3201980359029335,,,,,,,,,,,,,,,,58,001,22,w,Psychologie ,2023-01-24_10h33.51.592,00_bat_bachelor,2022.2.4,59.84182125267235,
,,,,1,0,1,0,10,0,10,0,,,,,,,,,,,,,,,10,6401.786567472178,6401.986935800232,0.2,6401.986935800232,Y,l,go,l,1,0.41282117739075375,,,,,,,,,,,,,,,,58,001,22,w,Psychologie ,2023-01-24_10h33.51.592,00_bat_bachelor,2022.2.4,59.84182125267235,
,,,,1,0,1,0,11,0,11,0,,,,,,,,,,,,,,,11,6403.104872162104,6403.305109618417,0.2,6403.305109618417,X,d,go,d,1,0.4151411764399313,,,,,,,,,,,,,,,,58,001,22,w,Psychologie ,2023-01-24_10h33.51.592,00_bat_bachelor,2022.2.4,59.84182125267235,
,,,,1,0,1,0,12,0,12,0,,,,,,,,,,,,,,,12,6404.422582390735,6404.6225203599915,0.2,6404.6225203599915,Y,l,go,l,1,0.3200011129077325,,,,,,,,,,,,,,,,58,001,22,w,Psychologie ,2023-01-24_10h33.51.592,00_bat_bachelor,2022.2.4,59.84182125267235,
,,,,1,0,1,0,13,0,13,0,,,,,,,,,,,,,,,13,6405.673937364539,6405.874103026009,0.2,6405.874103026009,Y,None,nogo,None,1,,,,,,,,,,,,,,,,,58,001,22,w,Psychologie ,2023-01-24_10h33.51.592,00_bat_bachelor,2022.2.4,59.84182125267235,
,,,,1,0,1,0,14,0,14,0,,,,,,,,,,,,,,,14,6407.275478451086,6407.4758057535155,0.2,6407.4758057535155,X,d,go,d,1,0.2926251241381692,,,,,,,,,,,,,,,,58,001,22,w,Psychologie ,2023-01-24_10h33.51.592,00_bat_bachelor,2022.2.4,59.84182125267235,
,,,,,,,,,,,,,,,,,,,,,,,,,,,,,,,,,,,,,6408.52357804161,None,,6408.52357804161,6408.52357804161,space,5.720034179559946,,,,,,,,,58,001,22,w,Psychologie ,2023-01-24_10h33.51.592,00_bat_bachelor,2022.2.4,59.84182125267235,
,,,,,,,,,,,,0,0,0,0,0,0,0,0,,,,,,,0,,,1,6415.266897121273,X,d,go,d,1,0.30891065591850975,,,,,,,,,,,,,,,,58,001,22,w,Psychologie ,2023-01-24_10h33.51.592,00_bat_bachelor,2022.2.4,59.84182125267235,
,,,,,,,,,,,,0,0,0,0,1,0,1,0,,,,,,,1,,,1,6416.685099616369,Y,l,go,l,1,0.4346312197251905,,,,,,,,,,,,,,,,58,001,22,w,Psychologie ,2023-01-24_10h33.51.592,00_bat_bachelor,2022.2.4,59.84182125267235,
,,,,,,,,,,,,0,0,0,0,2,0,2,0,,,,,,,2,,,1,6418.236367492773,X,d,go,d,1,0.46699633465260604,,,,,,,,,,,,,,,,58,001,22,w,Psychologie ,2023-01-24_10h33.51.592,00_bat_bachelor,2022.2.4,59.84182125267235,
,,,,,,,,,,,,0,0,0,0,3,0,3,0,,,,,,,3,,,1,6419.804658131423,X,None,nogo,None,1,,,,,,,,,,,,,,,,,58,001,22,w,Psychologie ,2023-01-24_10h33.51.592,00_bat_bachelor,2022.2.4,59.84182125267235,
,,,,,,,,,,,,0,0,0,0,4,0,4,0,,,,,,,4,,,1,6421.606580674224,Y,l,go,d,0,0.39366631345393444,,,,,,,,,,,,,,,,58,001,22,w,Psychologie ,2023-01-24_10h33.51.592,00_bat_bachelor,2022.2.4,59.84182125267235,
,,,,,,,,,,,,0,0,0,0,5,0,5,0,,,,,,,5,,,1,6423.107891237789,X,d,go,d,1,0.5325552821162205,,,,,,,,,,,,,,,,58,001,22,w,Psychologie ,2023-01-24_10h33.51.592,00_bat_bachelor,2022.2.4,59.84182125267235,
,,,,,,,,,,,,0,0,0,0,6,0,6,0,,,,,,,6,,,1,6424.742835387555,Y,l,go,l,1,0.4417348065547344,,,,,,,,,,,,,,,,58,001,22,w,Psychologie ,2023-01-24_10h33.51.592,00_bat_bachelor,2022.2.4,59.84182125267235,
,,,,,,,,,,,,0,0,0,0,7,0,7,0,,,,,,,7,,,1,6426.294666956034,X,d,go,d,1,0.4336925534447005,,,,,,,,,,,,,,,,58,001,22,w,Psychologie ,2023-01-24_10h33.51.592,00_bat_bachelor,2022.2.4,59.84182125267235,
,,,,,,,,,,,,0,0,0,0,8,0,8,0,,,,,,,8,,,1,6427.829448275098,Y,l,go,l,1,0.4912030939524925,,,,,,,,,,,,,,,,58,001,22,w,Psychologie ,2023-01-24_10h33.51.592,00_bat_bachelor,2022.2.4,59.84182125267235,
,,,,,,,,,,,,0,0,0,0,9,0,9,0,,,,,,,9,,,1,6429.430933566797,X,d,go,d,1,0.5773741355235984,,,,,,,,,,,,,,,,58,001,22,w,Psychologie ,2023-01-24_10h33.51.592,00_bat_bachelor,2022.2.4,59.84182125267235,
,,,,,,,,,,,,0,0,0,0,10,0,10,0,,,,,,,10,,,1,6431.116081593403,X,None,nogo,None,1,,,,,,,,,,,,,,,,,58,001,22,w,Psychologie ,2023-01-24_10h33.51.592,00_bat_bachelor,2022.2.4,59.84182125267235,
,,,,,,,,,,,,0,0,0,0,11,0,11,0,,,,,,,11,,,1,6432.917992238773,Y,l,go,d,0,0.4262500949583341,,,,,,,,,,,,,,,,58,001,22,w,Psychologie ,2023-01-24_10h33.51.592,00_bat_bachelor,2022.2.4,59.84182125267235,
,,,,,,,,,,,,0,0,0,0,12,0,12,0,,,,,,,12,,,1,6434.452642275839,X,d,go,l,0,0.5553712727553943,,,,,,,,,,,,,,,,58,001,22,w,Psychologie ,2023-01-24_10h33.51.592,00_bat_bachelor,2022.2.4,59.84182125267235,
,,,,,,,,,,,,0,0,0,0,13,0,13,0,,,,,,,13,,,1,6436.121045693931,Y,l,go,l,1,0.6388596487598193,,,,,,,,,,,,,,,,58,001,22,w,Psychologie ,2023-01-24_10h33.51.592,00_bat_bachelor,2022.2.4,59.84182125267235,
,,,,,,,,,,,,0,0,0,0,14,0,14,0,,,,,,,14,,,1,6437.872776257323,X,d,go,d,1,0.30399127332140097,,,,,,,,,,,,,,,,58,001,22,w,Psychologie ,2023-01-24_10h33.51.592,00_bat_bachelor,2022.2.4,59.84182125267235,
,,,,,,,,,,,,0,0,0,0,15,0,15,0,,,,,,,15,,,1,6439.290720290986,Y,l,go,l,1,0.5017692434642527,,,,,,,,,,,,,,,,58,001,22,w,Psychologie ,2023-01-24_10h33.51.592,00_bat_bachelor,2022.2.4,59.84182125267235,
,,,,,,,,,,,,0,0,0,0,16,0,16,0,,,,,,,16,,,1,6440.909078601404,Y,None,nogo,None,1,,,,,,,,,,,,,,,,,58,001,22,w,Psychologie ,2023-01-24_10h33.51.592,00_bat_bachelor,2022.2.4,59.84182125267235,
,,,,,,,,,,,,0,0,0,0,17,0,17,0,,,,,,,17,,,1,6442.711305964593,X,d,go,d,1,0.3609869422455745,,,,,,,,,,,,,,,,58,001,22,w,Psychologie ,2023-01-24_10h33.51.592,00_bat_bachelor,2022.2.4,59.84182125267235,
,,,,,,,,,,,,0,0,0,0,18,0,18,0,,,,,,,18,,,1,6444.1790735675595,Y,l,go,l,1,0.5317019491324686,,,,,,,,,,,,,,,,58,001,22,w,Psychologie ,2023-01-24_10h33.51.592,00_bat_bachelor,2022.2.4,59.84182125267235,
,,,,,,,,,,,,0,0,0,0,19,0,19,0,,,,,,,19,,,1,6445.814027973733,X,d,go,l,0,0.5461835842173173,,,,,,,,,,,,,,,,58,001,22,w,Psychologie ,2023-01-24_10h33.51.592,00_bat_bachelor,2022.2.4,59.84182125267235,
,,,,,,,,,,,,0,0,0,0,20,0,20,0,,,,,,,20,,,1,6447.465678167927,Y,l,go,l,1,0.598262742338477,,,,,,,,,,,,,,,,58,001,22,w,Psychologie ,2023-01-24_10h33.51.592,00_bat_bachelor,2022.2.4,59.84182125267235,
,,,,,,,,,,,,0,0,0,0,21,0,21,0,,,,,,,21,,,1,6449.167448136432,X,d,go,d,1,0.5931813085256294,,,,,,,,,,,,,,,,58,001,22,w,Psychologie ,2023-01-24_10h33.51.592,00_bat_bachelor,2022.2.4,59.84182125267235,
,,,,,,,,,,,,0,0,0,0,22,0,22,0,,,,,,,22,,,1,6450.869462617657,X,None,nogo,d,0,0.38703493155963997,,,,,,,,,,,,,,,,58,001,22,w,Psychologie ,2023-01-24_10h33.51.592,00_bat_bachelor,2022.2.4,59.84182125267235,
,,,,,,,,,,,,0,0,0,0,23,0,23,0,,,,,,,23,,,1,6452.370705488942,Y,l,go,l,1,0.5331522049476121,,,,,,,,,,,,,,,,58,001,22,w,Psychologie ,2023-01-24_10h33.51.592,00_bat_bachelor,2022.2.4,59.84182125267235,
,,,,,,,,,,,,0,0,0,0,24,0,24,0,,,,,,,24,,,1,6454.005620920771,X,d,go,d,1,0.6260961668161258,,,,,,,,,,,,,,,,58,001,22,w,Psychologie ,2023-01-24_10h33.51.592,00_bat_bachelor,2022.2.4,59.84182125267235,
,,,,,,,,,,,,0,0,0,0,25,0,25,0,,,,,,,25,,,1,6455.740725029446,X,None,nogo,None,1,,,,,,,,,,,,,,,,,58,001,22,w,Psychologie ,2023-01-24_10h33.51.592,00_bat_bachelor,2022.2.4,59.84182125267235,
,,,,,,,,,,,,0,0,0,0,26,0,26,0,,,,,,,26,,,1,6457.543184597668,Y,l,go,l,1,0.4092125634873014,,,,,,,,,,,,,,,,58,001,22,w,Psychologie ,2023-01-24_10h33.51.592,00_bat_bachelor,2022.2.4,59.84182125267235,
,,,,,,,,,,,,0,0,0,0,27,0,27,0,,,,,,,27,,,1,6459.077536378447,X,d,go,d,1,0.5472695324891106,,,,,,,,,,,,,,,,58,001,22,w,Psychologie ,2023-01-24_10h33.51.592,00_bat_bachelor,2022.2.4,59.84182125267235,
,,,,,,,,,,,,0,0,0,0,28,0,28,0,,,,,,,28,,,1,6460.729092623962,Y,l,go,l,1,0.64712467101009,,,,,,,,,,,,,,,,58,001,22,w,Psychologie ,2023-01-24_10h33.51.592,00_bat_bachelor,2022.2.4,59.84182125267235,
,,,,,,,,,,,,0,0,0,0,29,0,29,0,,,,,,,29,,,1,6462.480763289944,X,d,go,d,1,0.5437626621326785,,,,,,,,,,,,,,,,58,001,22,w,Psychologie ,2023-01-24_10h33.51.592,00_bat_bachelor,2022.2.4,59.84182125267235,
,,,,,,,,,,,,0,0,0,0,30,0,30,0,,,,,,,30,,,1,6464.13233799699,Y,l,go,l,1,0.555729426454775,,,,,,,,,,,,,,,,58,001,22,w,Psychologie ,2023-01-24_10h33.51.592,00_bat_bachelor,2022.2.4,59.84182125267235,
,,,,,,,,,,,,0,0,0,0,31,0,31,0,,,,,,,31,,,1,6465.800568286947,Y,None,nogo,None,1,,,,,,,,,,,,,,,,,58,001,22,w,Psychologie ,2023-01-24_10h33.51.592,00_bat_bachelor,2022.2.4,59.84182125267235,
,,,,,,,,,,,,0,0,0,0,32,0,32,0,,,,,,,32,,,1,6467.602558111771,X,d,go,d,1,0.4217713275650681,,,,,,,,,,,,,,,,58,001,22,w,Psychologie ,2023-01-24_10h33.51.592,00_bat_bachelor,2022.2.4,59.84182125267235,
,,,,,,,,,,,,0,0,0,0,33,0,33,0,,,,,,,33,,,1,6469.137439533359,Y,l,go,l,1,0.4702549999822736,,,,,,,,,,,,,,,,58,001,22,w,Psychologie ,2023-01-24_10h33.51.592,00_bat_bachelor,2022.2.4,59.84182125267235,
,,,,,,,,,,,,0,0,0,0,34,0,34,0,,,,,,,34,,,1,6470.722522780504,Y,None,nogo,None,1,,,,,,,,,,,,,,,,,58,001,22,w,Psychologie ,2023-01-24_10h33.51.592,00_bat_bachelor,2022.2.4,59.84182125267235,
,,,,,,,,,,,,0,0,0,0,35,0,35,0,,,,,,,35,,,1,6472.52421557981,X,d,go,None,0,,,,,,,,,,,,,,,,,58,001,22,w,Psychologie ,2023-01-24_10h33.51.592,00_bat_bachelor,2022.2.4,59.84182125267235,
,,,,,,,,,,,,0,0,0,0,36,0,36,0,,,,,,,36,,,1,6474.325834943247,Y,l,go,l,1,0.5297236935342085,,,,,,,,,,,,,,,,58,001,22,w,Psychologie ,2023-01-24_10h33.51.592,00_bat_bachelor,2022.2.4,59.84182125267235,
,,,,,,,,,,,,0,0,0,0,37,0,37,0,,,,,,,37,,,1,6475.960842682732,X,d,go,d,1,0.5114668805111364,,,,,,,,,,,,,,,,58,001,22,w,Psychologie ,2023-01-24_10h33.51.592,00_bat_bachelor,2022.2.4,59.84182125267235,
,,,,,,,,,,,,0,0,0,0,38,0,38,0,,,,,,,38,,,1,6477.579466839194,X,None,nogo,l,0,0.54011015081079,,,,,,,,,,,,,,,,58,001,22,w,Psychologie ,2023-01-24_10h33.51.592,00_bat_bachelor,2022.2.4,59.84182125267235,
,,,,,,,,,,,,0,0,0,0,39,0,39,0,,,,,,,39,,,1,6479.24763928302,Y,l,go,l,1,0.4726156143981939,,,,,,,,,,,,,,,,58,001,22,w,Psychologie ,2023-01-24_10h33.51.592,00_bat_bachelor,2022.2.4,59.84182125267235,
,,,,,,,,,,,,0,0,0,0,40,0,40,0,,,,,,,40,,,1,6480.832462837964,X,d,go,d,1,0.5116441112079997,,,,,,,,,,,,,,,,58,001,22,w,Psychologie ,2023-01-24_10h33.51.592,00_bat_bachelor,2022.2.4,59.84182125267235,
,,,,,,,,,,,,0,0,0,0,41,0,41,0,,,,,,,41,,,1,6482.450641045891,X,None,nogo,None,1,,,,,,,,,,,,,,,,,58,001,22,w,Psychologie ,2023-01-24_10h33.51.592,00_bat_bachelor,2022.2.4,59.84182125267235,
,,,,,,,,,,,,0,0,0,0,42,0,42,0,,,,,,,42,,,1,6484.252489742568,Y,l,go,None,0,,,,,,,,,,,,,,,,,58,001,22,w,Psychologie ,2023-01-24_10h33.51.592,00_bat_bachelor,2022.2.4,59.84182125267235,
,,,,,,,,,,,,0,0,0,0,43,0,43,0,,,,,,,43,,,1,6486.05432161874,X,d,go,d,1,0.578010442954394,,,,,,,,,,,,,,,,58,001,22,w,Psychologie ,2023-01-24_10h33.51.592,00_bat_bachelor,2022.2.4,59.84182125267235,
,,,,,,,,,,,,0,0,0,0,44,0,44,0,,,,,,,44,,,1,6487.739328106943,X,None,nogo,None,1,,,,,,,,,,,,,,,,,58,001,22,w,Psychologie ,2023-01-24_10h33.51.592,00_bat_bachelor,2022.2.4,59.84182125267235,
,,,,,,,,,,,,0,0,0,0,45,0,45,0,,,,,,,45,,,1,6489.541161213883,Y,l,go,l,1,0.41044046041889715,,,,,,,,,,,,,,,,58,001,22,w,Psychologie ,2023-01-24_10h33.51.592,00_bat_bachelor,2022.2.4,59.84182125267235,
,,,,,,,,,,,,0,0,0,0,46,0,46,0,,,,,,,46,,,1,6491.059231155187,X,d,go,d,1,0.5246430802338296,,,,,,,,,,,,,,,,58,001,22,w,Psychologie ,2023-01-24_10h33.51.592,00_bat_bachelor,2022.2.4,59.84182125267235,
,,,,,,,,,,,,0,0,0,0,47,0,47,0,,,,,,,47,,,1,6492.694380022819,X,None,nogo,d,0,0.6660625093948624,,,,,,,,,,,,,,,,58,001,22,w,Psychologie ,2023-01-24_10h33.51.592,00_bat_bachelor,2022.2.4,59.84182125267235,
,,,,,,,,,,,,0,0,0,0,48,0,48,0,,,,,,,48,,,1,6494.462778887066,Y,l,go,None,0,,,,,,,,,,,,,,,,,58,001,22,w,Psychologie ,2023-01-24_10h33.51.592,00_bat_bachelor,2022.2.4,59.84182125267235,
,,,,,,,,,,,,0,0,0,0,49,0,49,0,,,,,,,49,,,1,6496.26437568641,X,d,go,d,1,0.28770410051612316,,,,,,,,,,,,,,,,58,001,22,w,Psychologie ,2023-01-24_10h33.51.592,00_bat_bachelor,2022.2.4,59.84182125267235,
,,,,,,,,,,,,0,0,0,0,50,0,50,0,,,,,,,50,,,1,6497.666052649824,Y,l,go,l,1,0.47024023075783816,,,,,,,,,,,,,,,,58,001,22,w,Psychologie ,2023-01-24_10h33.51.592,00_bat_bachelor,2022.2.4,59.84182125267235,
,,,,,,,,,,,,0,0,0,0,51,0,51,0,,,,,,,51,,,1,6499.250726871497,X,d,go,d,1,0.5090459584274072,,,,,,,,,,,,,,,,58,001,22,w,Psychologie ,2023-01-24_10h33.51.592,00_bat_bachelor,2022.2.4,59.84182125267235,
,,,,,,,,,,,,0,0,0,0,52,0,52,0,,,,,,,52,,,1,6500.869126207538,X,None,nogo,l,0,0.5390882025124597,,,,,,,,,,,,,,,,58,001,22,w,Psychologie ,2023-01-24_10h33.51.592,00_bat_bachelor,2022.2.4,59.84182125267235,
,,,,,,,,,,,,0,0,0,0,53,0,53,0,,,,,,,53,,,1,6502.520816196588,Y,l,go,l,1,0.4706685382746514,,,,,,,,,,,,,,,,58,001,22,w,Psychologie ,2023-01-24_10h33.51.592,00_bat_bachelor,2022.2.4,59.84182125267235,
,,,,,,,,,,,,0,0,0,0,54,0,54,0,,,,,,,54,,,1,6504.1056315464075,X,d,go,d,1,0.5184900571160256,,,,,,,,,,,,,,,,58,001,22,w,Psychologie ,2023-01-24_10h33.51.592,00_bat_bachelor,2022.2.4,59.84182125267235,
,,,,,,,,,,,,0,0,0,0,55,0,55,0,,,,,,,55,,,1,6505.740588414118,X,None,nogo,None,1,,,,,,,,,6506.541307265105,,,,,,,,58,001,22,w,Psychologie ,2023-01-24_10h33.51.592,00_bat_bachelor,2022.2.4,59.84182125267235,
,,,,,,,,,,,,0,0,0,0,56,0,56,0,,,,,,,56,,,1,6507.542451469763,Y,l,go,l,1,0.5776469559235125,,,,,,,,,,,,,,,,58,001,22,w,Psychologie ,2023-01-24_10h33.51.592,00_bat_bachelor,2022.2.4,59.84182125267235,
,,,,,,,,,,,,0,0,0,0,57,0,57,0,,,,,,,57,,,1,6509.227374675949,X,d,go,d,1,0.44465788227836356,,,,,,,,,,,,,,,,58,001,22,w,Psychologie ,2023-01-24_10h33.51.592,00_bat_bachelor,2022.2.4,59.84182125267235,
,,,,,,,,,,,,0,0,0,0,58,0,58,0,,,,,,,58,,,1,6510.779309629002,Y,l,go,l,1,0.44406136970275156,,,,,,,,,,,,,,,,58,001,22,w,Psychologie ,2023-01-24_10h33.51.592,00_bat_bachelor,2022.2.4,59.84182125267235,
,,,,,,,,,,,,0,0,0,0,59,0,59,0,,,,,,,59,,,1,6512.347210113965,Y,None,nogo,None,1,,,,,,,,,,,,,,,,,58,001,22,w,Psychologie ,2023-01-24_10h33.51.592,00_bat_bachelor,2022.2.4,59.84182125267235,
,,,,,,,,,,,,0,0,0,0,60,0,60,0,,,,,,,60,,,1,6514.149081784993,X,d,go,d,1,0.42678260756048303,,,,,,,,,,,,,,,,58,001,22,w,Psychologie ,2023-01-24_10h33.51.592,00_bat_bachelor,2022.2.4,59.84182125267235,
,,,,,,,,,,,,0,0,0,0,61,0,61,0,,,,,,,61,,,1,6515.683809770745,Y,l,go,l,1,0.5234804140439451,,,,,,,,,,,,,,,,58,001,22,w,Psychologie ,2023-01-24_10h33.51.592,00_bat_bachelor,2022.2.4,59.84182125267235,
,,,,,,,,,,,,0,0,0,0,62,0,62,0,,,,,,,62,,,1,6517.318841715347,X,d,go,d,1,0.4255305055106078,,,,,,,,,,,,,,,,58,001,22,w,Psychologie ,2023-01-24_10h33.51.592,00_bat_bachelor,2022.2.4,59.84182125267235,
,,,,,,,,,,,,0,0,0,0,63,0,63,0,,,,,,,63,,,1,6518.853816675358,Y,l,go,l,1,0.4266254794195561,,,,,,,,,,,,,,,,58,001,22,w,Psychologie ,2023-01-24_10h33.51.592,00_bat_bachelor,2022.2.4,59.84182125267235,
,,,,,,,,,,,,0,0,0,0,64,0,64,0,,,,,,,64,,,1,6520.3885873277595,X,d,go,d,1,0.48365602012501085,,,,,,,,,,,,,,,,58,001,22,w,Psychologie ,2023-01-24_10h33.51.592,00_bat_bachelor,2022.2.4,59.84182125267235,
,,,,,,,,,,,,0,0,0,0,65,0,65,0,,,,,,,65,,,1,6521.973646369786,Y,l,go,l,1,0.39394200564976245,,,,,,,,,,,,,,,,58,001,22,w,Psychologie ,2023-01-24_10h33.51.592,00_bat_bachelor,2022.2.4,59.84182125267235,
,,,,,,,,,,,,0,0,0,0,66,0,66,0,,,,,,,66,,,1,6523.491665029061,Y,None,nogo,None,1,,,,,,,,,,,,,,,,,58,001,22,w,Psychologie ,2023-01-24_10h33.51.592,00_bat_bachelor,2022.2.4,59.84182125267235,
,,,,,,,,,,,,0,0,0,0,67,0,67,0,,,,,,,67,,,1,6525.293491982157,X,d,go,d,1,0.3547375089131606,,,,,,,,,,,,,,,,58,001,22,w,Psychologie ,2023-01-24_10h33.51.592,00_bat_bachelor,2022.2.4,59.84182125267235,
,,,,,,,,,,,,0,0,0,0,68,0,68,0,,,,,,,68,,,1,6526.761615687543,Y,l,go,l,1,0.5100720092880806,,,,,,,,,,,,,,,,58,001,22,w,Psychologie ,2023-01-24_10h33.51.592,00_bat_bachelor,2022.2.4,59.84182125267235,
,,,,,,,,,,,,0,0,0,0,69,0,69,0,,,,,,,69,,,1,6528.37985707493,X,d,go,d,1,0.4681430008488974,,,,,,,,,,,,,,,,58,001,22,w,Psychologie ,2023-01-24_10h33.51.592,00_bat_bachelor,2022.2.4,59.84182125267235,
,,,,,,,,,,,,0,0,0,0,70,0,70,0,,,,,,,70,,,1,6529.964747091386,Y,l,go,l,1,0.34748130676172195,,,,,,,,,,,,,,,,58,001,22,w,Psychologie ,2023-01-24_10h33.51.592,00_bat_bachelor,2022.2.4,59.84182125267235,
,,,,,,,,,,,,0,0,0,0,71,0,71,0,,,,,,,71,,,1,6531.416299726647,Y,None,nogo,d,0,0.45595633918156864,,,,,,,,,,,,,,,,58,001,22,w,Psychologie ,2023-01-24_10h33.51.592,00_bat_bachelor,2022.2.4,59.84182125267235,
,,,,,,,,,,,,0,0,0,0,72,0,72,0,,,,,,,72,,,1,6532.984473032011,X,d,go,None,0,,,,,,,,,,,,,,,,,58,001,22,w,Psychologie ,2023-01-24_10h33.51.592,00_bat_bachelor,2022.2.4,59.84182125267235,
,,,,,,,,,,,,0,0,0,0,73,0,73,0,,,,,,,73,,,1,6534.786155985167,Y,l,go,l,1,0.4062033339526465,,,,,,,,,,,,,,,,58,001,22,w,Psychologie ,2023-01-24_10h33.51.592,00_bat_bachelor,2022.2.4,59.84182125267235,
,,,,,,,,,,,,0,0,0,0,74,0,74,0,,,,,,,74,,,1,6536.304502028923,Y,None,nogo,None,1,,,,,,,,,,,,,,,,,58,001,22,w,Psychologie ,2023-01-24_10h33.51.592,00_bat_bachelor,2022.2.4,59.84182125267235,
,,,,,,,,,,,,0,0,0,0,75,0,75,0,,,,,,,75,,,1,6538.106299853826,X,d,go,d,1,0.4305155291061169,,,,,,,,,,,,,,,,58,001,22,w,Psychologie ,2023-01-24_10h33.51.592,00_bat_bachelor,2022.2.4,59.84182125267235,
,,,,,,,,,,,,0,0,0,0,76,0,76,0,,,,,,,76,,,1,6539.641194813869,Y,l,go,l,1,0.4306833239091361,,,,,,,,,,,,,,,,58,001,22,w,Psychologie ,2023-01-24_10h33.51.592,00_bat_bachelor,2022.2.4,59.84182125267235,
,,,,,,,,,,,,0,0,0,0,77,0,77,0,,,,,,,77,,,1,6541.176167312342,X,d,go,d,1,0.32771721230557205,,,,,,,,,,,,,,,,58,001,22,w,Psychologie ,2023-01-24_10h33.51.592,00_bat_bachelor,2022.2.4,59.84182125267235,
,,,,,,,,,,,,0,0,0,0,78,0,78,0,,,,,,,78,,,1,6542.610796877622,X,None,nogo,d,0,0.49302134961664024,,,,,,,,,,,,,,,,58,001,22,w,Psychologie ,2023-01-24_10h33.51.592,00_bat_bachelor,2022.2.4,59.84182125267235,
,,,,,,,,,,,,0,0,0,0,79,0,79,0,,,,,,,79,,,1,6544.212470887192,Y,l,go,l,1,0.5068449336889103,,,,,,,,,,,,,,,,58,001,22,w,Psychologie ,2023-01-24_10h33.51.592,00_bat_bachelor,2022.2.4,59.84182125267235,
,,,,,,,,,,,,0,0,0,0,80,0,80,0,,,,,,,80,,,1,6545.8306454028125,X,d,go,d,1,0.38422590707097015,,,,,,,,,,,,,,,,58,001,22,w,Psychologie ,2023-01-24_10h33.51.592,00_bat_bachelor,2022.2.4,59.84182125267235,
,,,,,,,,,,,,0,0,0,0,81,0,81,0,,,,,,,81,,,1,6547.3322136072975,X,None,nogo,None,1,,,,,,,,,,,,,,,,,58,001,22,w,Psychologie ,2023-01-24_10h33.51.592,00_bat_bachelor,2022.2.4,59.84182125267235,
,,,,,,,,,,,,0,0,0,0,82,0,82,0,,,,,,,82,,,1,6549.134111534724,Y,l,go,l,1,0.3302292112751388,,,,,,,,,,,,,,,,58,001,22,w,Psychologie ,2023-01-24_10h33.51.592,00_bat_bachelor,2022.2.4,59.84182125267235,
,,,,,,,,,,,,0,0,0,0,83,0,83,0,,,,,,,83,,,1,6550.568817817921,X,d,go,None,0,,,,,,,,,,,,,,,,,58,001,22,w,Psychologie ,2023-01-24_10h33.51.592,00_bat_bachelor,2022.2.4,59.84182125267235,
,,,,,,,,,,,,0,0,0,0,84,0,84,0,,,,,,,84,,,1,6552.370528258245,Y,l,go,l,1,0.32580705924311815,,,,,,,,,,,,,,,,58,001,22,w,Psychologie ,2023-01-24_10h33.51.592,00_bat_bachelor,2022.2.4,59.84182125267235,
,,,,,,,,,,,,0,0,0,0,85,0,85,0,,,,,,,85,,,1,6553.805251772204,X,d,go,d,1,0.34719494790471117,,,,,,,,,,,,,,,,58,001,22,w,Psychologie ,2023-01-24_10h33.51.592,00_bat_bachelor,2022.2.4,59.84182125267235,
,,,,,,,,,,,,0,0,0,0,86,0,86,0,,,,,,,86,,,1,6555.2564249204415,X,None,nogo,None,1,,,,,,,,,,,,,,,,,58,001,22,w,Psychologie ,2023-01-24_10h33.51.592,00_bat_bachelor,2022.2.4,59.84182125267235,
,,,,,,,,,,,,0,0,0,0,87,0,87,0,,,,,,,87,,,1,6557.058489822159,Y,l,go,d,0,0.3977212861494195,,,,,,,,,,,,,,,,58,001,22,w,Psychologie ,2023-01-24_10h33.51.592,00_bat_bachelor,2022.2.4,59.84182125267235,
,,,,,,,,,,,,0,0,0,0,88,0,88,0,,,,,,,88,,,1,6558.560139257379,X,d,go,None,0,,,,,,,,,,,,,,,,,58,001,22,w,Psychologie ,2023-01-24_10h33.51.592,00_bat_bachelor,2022.2.4,59.84182125267235,
,,,,,,,,,,,,0,0,0,0,89,0,89,0,,,,,,,89,,,1,6560.362076569405,X,None,nogo,d,0,0.5497253263532116,,,,,,,,,,,,,,,,58,001,22,w,Psychologie ,2023-01-24_10h33.51.592,00_bat_bachelor,2022.2.4,59.84182125267235,
,,,,,,,,,,,,0,0,0,0,90,0,90,0,,,,,,,90,,,1,6562.013423994493,Y,l,go,l,1,0.4174919447053185,,,,,,,,,,,,,,,,58,001,22,w,Psychologie ,2023-01-24_10h33.51.592,00_bat_bachelor,2022.2.4,59.84182125267235,
,,,,,,,,,,,,0,0,0,0,91,0,91,0,,,,,,,91,,,1,6563.548409621166,X,d,go,d,1,0.35497176522613927,,,,,,,,,,,,,,,,58,001,22,w,Psychologie ,2023-01-24_10h33.51.592,00_bat_bachelor,2022.2.4,59.84182125267235,
,,,,,,,,,,,,0,0,0,0,92,0,92,0,,,,,,,92,,,1,6565.0167409162095,Y,l,go,l,1,0.3031350685444636,,,,,,,,,,,,,,,,58,001,22,w,Psychologie ,2023-01-24_10h33.51.592,00_bat_bachelor,2022.2.4,59.84182125267235,
,,,,,,,,,,,,0,0,0,0,93,0,93,0,,,,,,,93,,,1,6566.434573770432,X,d,go,l,0,0.4934972468575438,,,,,,,,,,,,,,,,58,001,22,w,Psychologie ,2023-01-24_10h33.51.592,00_bat_bachelor,2022.2.4,59.84182125267235,
,,,,,,,,,,,,0,0,0,0,94,0,94,0,,,,,,,94,,,1,6568.036175164646,Y,l,go,None,0,,,,,,,,,,,,,,,,,58,001,22,w,Psychologie ,2023-01-24_10h33.51.592,00_bat_bachelor,2022.2.4,59.84182125267235,
,,,,,,,,,,,,0,0,0,0,95,0,95,0,,,,,,,95,,,1,6569.83791842547,X,d,go,None,0,,,,,,,,,,,,,,,,,58,001,22,w,Psychologie ,2023-01-24_10h33.51.592,00_bat_bachelor,2022.2.4,59.84182125267235,
,,,,,,,,,,,,0,0,0,0,96,0,96,0,,,,,,,96,,,1,6571.639896763119,X,None,nogo,d,0,0.4805512008863957,,,,,,,,,,,,,,,,58,001,22,w,Psychologie ,2023-01-24_10h33.51.592,00_bat_bachelor,2022.2.4,59.84182125267235,
,,,,,,,,,,,,0,0,0,0,97,0,97,0,,,,,,,97,,,1,6573.224606677085,Y,l,go,l,1,0.2637135462558149,,,,,,,,,,,,,,,,58,001,22,w,Psychologie ,2023-01-24_10h33.51.592,00_bat_bachelor,2022.2.4,59.84182125267235,
,,,,,,,,,,,,0,0,0,0,98,0,98,0,,,,,,,98,,,1,6574.592765705533,X,d,go,d,1,0.4152827148430447,,,,,,,,,,,,,,,,58,001,22,w,Psychologie ,2023-01-24_10h33.51.592,00_bat_bachelor,2022.2.4,59.84182125267235,
,,,,,,,,,,,,0,0,0,0,99,0,99,0,,,,,,,99,,,1,6576.1108266211995,Y,l,go,l,1,0.2888585615813213,,,,,,,,,,,,,,,,58,001,22,w,Psychologie ,2023-01-24_10h33.51.592,00_bat_bachelor,2022.2.4,59.84182125267235,
,,,,,,,,,,,,0,0,0,0,100,0,100,0,,,,,,,100,,,1,6577.512255379588,Y,None,nogo,l,0,0.41589604792471846,,,,,,,,,,,,,,,,58,001,22,w,Psychologie ,2023-01-24_10h33.51.592,00_bat_bachelor,2022.2.4,59.84182125267235,
,,,,,,,,,,,,0,0,0,0,101,0,101,0,,,,,,,101,,,1,6579.030798346339,X,d,go,d,1,0.4737077165139567,,,,,,,,,,,,,,,,58,001,22,w,Psychologie ,2023-01-24_10h33.51.592,00_bat_bachelor,2022.2.4,59.84182125267235,
,,,,,,,,,,,,0,0,0,0,102,0,102,0,,,,,,,102,,,1,6580.615534106448,Y,l,go,l,1,0.47230710170452994,,,,,,,,,,,,,,,,58,001,22,w,Psychologie ,2023-01-24_10h33.51.592,00_bat_bachelor,2022.2.4,59.84182125267235,
,,,,,,,,,,,,0,0,0,0,103,0,103,0,,,,,,,103,,,1,6582.200385969073,X,d,go,d,1,0.2804753855328386,,,,,,,,,,,,,,,,58,001,22,w,Psychologie ,2023-01-24_10h33.51.592,00_bat_bachelor,2022.2.4,59.84182125267235,
,,,,,,,,,,,,0,0,0,0,104,0,104,0,,,,,,,104,,,1,6583.585021298453,Y,l,go,l,1,0.5185663647774277,,,,,,,,,,,,,,,,58,001,22,w,Psychologie ,2023-01-24_10h33.51.592,00_bat_bachelor,2022.2.4,59.84182125267235,
,,,,,,,,,,,,0,0,0,0,105,0,105,0,,,,,,,105,,,1,6585.220316627563,X,d,go,d,1,0.23562986546977527,,,,,,,,,,,,,,,,58,001,22,w,Psychologie ,2023-01-24_10h33.51.592,00_bat_bachelor,2022.2.4,59.84182125267235,
,,,,,,,,,,,,0,0,0,0,106,0,106,0,,,,,,,106,,,1,6586.571544380905,Y,l,go,l,1,0.26905262098836147,,,,,,,,,,,,,,,,58,001,22,w,Psychologie ,2023-01-24_10h33.51.592,00_bat_bachelor,2022.2.4,59.84182125267235,
,,,,,,,,,,,,0,0,0,0,107,0,107,0,,,,,,,107,,,1,6587.956107505187,X,d,go,d,1,0.203884237468003,,,,,,,,,,,,,,,,58,001,22,w,Psychologie ,2023-01-24_10h33.51.592,00_bat_bachelor,2022.2.4,59.84182125267235,
,,,,,,,,,,,,0,0,0,0,108,0,108,0,,,,,,,108,,,1,6589.274184092643,Y,l,go,l,1,0.32633464877045526,,,,,,,,,,,,,,,,58,001,22,w,Psychologie ,2023-01-24_10h33.51.592,00_bat_bachelor,2022.2.4,59.84182125267235,
,,,,,,,,,,,,0,0,0,0,109,0,109,0,,,,,,,109,,,1,6590.708924837364,Y,None,nogo,None,1,,,,,,,,,,,,,,,,,58,001,22,w,Psychologie ,2023-01-24_10h33.51.592,00_bat_bachelor,2022.2.4,59.84182125267235,
,,,,,,,,,,,,0,0,0,0,110,0,110,0,,,,,,,110,,,1,6592.510561841821,X,d,go,d,1,0.19347152379151566,,,,,,,,,,,,,,,,58,001,22,w,Psychologie ,2023-01-24_10h33.51.592,00_bat_bachelor,2022.2.4,59.84182125267235,
,,,,,,,,,,,,0,0,0,0,111,0,111,0,,,,,,,111,,,1,6593.8119742309855,Y,l,go,l,1,0.3156794736544839,,,,,,,,,,,,,,,,58,001,22,w,Psychologie ,2023-01-24_10h33.51.592,00_bat_bachelor,2022.2.4,59.84182125267235,
,,,,,,,,,,,,0,0,0,0,112,0,112,0,,,,,,,112,,,1,6595.230121751745,X,d,go,d,1,0.43419183528959593,,,,,,,,,,,,,,,,58,001,22,w,Psychologie ,2023-01-24_10h33.51.592,00_bat_bachelor,2022.2.4,59.84182125267235,
,,,,,,,,,,,,0,0,0,0,113,0,113,0,,,,,,,113,,,1,6596.764936711821,X,None,nogo,d,0,0.4750201262325504,,,,,,,,,,,,,,,,58,001,22,w,Psychologie ,2023-01-24_10h33.51.592,00_bat_bachelor,2022.2.4,59.84182125267235,
,,,,,,,,,,,,0,0,0,0,114,0,114,0,,,,,,,114,,,1,6598.349770933428,X,None,nogo,None,1,,,,,,,,,,,,,,,,,58,001,22,w,Psychologie ,2023-01-24_10h33.51.592,00_bat_bachelor,2022.2.4,59.84182125267235,
,,,,,,,,,,,,0,0,0,0,115,0,115,0,,,,,,,115,,,1,6600.1516487582985,Y,l,go,l,1,0.38429195832605956,,,,,,,,,,,,,,,,58,001,22,w,Psychologie ,2023-01-24_10h33.51.592,00_bat_bachelor,2022.2.4,59.84182125267235,
,,,,,,,,,,,,0,0,0,0,116,0,116,0,,,,,,,116,,,1,6601.653116039747,X,d,go,d,1,0.3552815086889609,,,,,,,,,,,,,,,,58,001,22,w,Psychologie ,2023-01-24_10h33.51.592,00_bat_bachelor,2022.2.4,59.84182125267235,
,,,,,,,,,,,,0,0,0,0,117,0,117,0,,,,,,,117,,,1,6603.121204463096,Y,l,go,l,1,0.3900790328755761,,,,,,,,,,,,,,,,58,001,22,w,Psychologie ,2023-01-24_10h33.51.592,00_bat_bachelor,2022.2.4,59.84182125267235,
,,,,,,,,,,,,0,0,0,0,118,0,118,0,,,,,,,118,,,1,6604.622805077824,Y,None,nogo,None,1,,,,,,,,,,,,,,,,,58,001,22,w,Psychologie ,2023-01-24_10h33.51.592,00_bat_bachelor,2022.2.4,59.84182125267235,
,,,,,,,,,,,,0,0,0,0,119,0,119,0,,,,,,,119,,,1,6606.4245577745405,X,d,go,d,1,0.35879125083857843,,,,,,,,,,,,,,,,58,001,22,w,Psychologie ,2023-01-24_10h33.51.592,00_bat_bachelor,2022.2.4,59.84182125267235,
,,,,,,,,,,,,0,0,0,0,120,0,120,0,,,,,,,120,,,1,6607.909500344821,Y,l,go,l,1,0.4585996201488456,,,,,,,,,,,,,,,,58,001,22,w,Psychologie ,2023-01-24_10h33.51.592,00_bat_bachelor,2022.2.4,59.84182125267235,
,,,,,,,,,,,,0,0,0,0,121,0,121,0,,,,,,,121,,,1,6609.4779144706,Y,None,nogo,None,1,,,,,,,,,,,,,,,,,58,001,22,w,Psychologie ,2023-01-24_10h33.51.592,00_bat_bachelor,2022.2.4,59.84182125267235,
,,,,,,,,,,,,0,0,0,0,122,0,122,0,,,,,,,122,,,1,6611.279488705851,X,d,go,d,1,0.24814801417988974,,,,,,,,,,,,,,,,58,001,22,w,Psychologie ,2023-01-24_10h33.51.592,00_bat_bachelor,2022.2.4,59.84182125267235,
,,,,,,,,,,,,0,0,0,0,123,0,123,0,,,,,,,123,,,1,6612.630962612939,Y,l,go,l,1,0.34543494862674606,,,,,,,,,,,,,,,,58,001,22,w,Psychologie ,2023-01-24_10h33.51.592,00_bat_bachelor,2022.2.4,59.84182125267235,
,,,,,,,,,,,,0,0,0,0,124,0,124,0,,,,,,,124,,,1,6614.0821747355185,Y,None,nogo,None,1,,,,,,,,,,,,,,,,,58,001,22,w,Psychologie ,2023-01-24_10h33.51.592,00_bat_bachelor,2022.2.4,59.84182125267235,
,,,,,,,,,,,,0,0,0,0,125,0,125,0,,,,,,,125,,,1,6615.883946714279,X,d,go,d,1,0.27622431035371164,,,,,,,,,,,,,,,,58,001,22,w,Psychologie ,2023-01-24_10h33.51.592,00_bat_bachelor,2022.2.4,59.84182125267235,
,,,,,,,,,,,,0,0,0,0,126,0,126,0,,,,,,,126,,,1,6617.268636197483,Y,l,go,l,1,0.26677898089593555,,,,,,,,,,,,,,,,58,001,22,w,Psychologie ,2023-01-24_10h33.51.592,00_bat_bachelor,2022.2.4,59.84182125267235,
,,,,,,,,,,,,0,0,0,0,127,0,127,0,,,,,,,127,,,1,6618.636669277264,X,d,go,d,1,0.3148310637455438,,,,,,,,,,,,,,,,58,001,22,w,Psychologie ,2023-01-24_10h33.51.592,00_bat_bachelor,2022.2.4,59.84182125267235,
,,,,,,,,,,,,0,0,0,0,128,0,128,0,,,,,,,128,,,1,6620.054847977499,X,None,nogo,d,0,0.4165278425364818,,,,,,,,,,,,,,,,58,001,22,w,Psychologie ,2023-01-24_10h33.51.592,00_bat_bachelor,2022.2.4,59.84182125267235,
,,,,,,,,,,,,0,0,0,0,129,0,129,0,,,,,,,129,,,1,6621.573207149454,Y,l,go,l,1,0.5301466677195208,,,,,,,,,,,,,,,,58,001,22,w,Psychologie ,2023-01-24_10h33.51.592,00_bat_bachelor,2022.2.4,59.84182125267235,
,,,,,,,,,,,,0,0,0,0,130,0,130,0,,,,,,,130,,,1,6623.2078932480445,X,d,go,d,1,0.224160741969456,,,,,,,,,,,,,,,,58,001,22,w,Psychologie ,2023-01-24_10h33.51.592,00_bat_bachelor,2022.2.4,59.84182125267235,
,,,,,,,,,,,,0,0,0,0,131,0,131,0,,,,,,,131,,,1,6624.542639777379,Y,l,go,l,1,0.29730696837151527,,,,,,,,,,,,,,,,58,001,22,w,Psychologie ,2023-01-24_10h33.51.592,00_bat_bachelor,2022.2.4,59.84182125267235,
,,,,,,,,,,,,0,0,0,0,132,0,132,0,,,,,,,132,,,1,6625.944061561411,X,d,go,d,1,0.24816196289185655,,,,,,,,,,,,,,,,58,001,22,w,Psychologie ,2023-01-24_10h33.51.592,00_bat_bachelor,2022.2.4,59.84182125267235,
,,,,,,,,,,,,0,0,0,0,133,0,133,0,,,,,,,133,,,1,6627.295415263419,Y,l,go,l,1,0.3291116732719388,,,,,,,,,,,,,,,,58,001,22,w,Psychologie ,2023-01-24_10h33.51.592,00_bat_bachelor,2022.2.4,59.84182125267235,
,,,,,,,,,,,,0,0,0,0,134,0,134,0,,,,,,,134,,,1,6628.730069033818,Y,None,nogo,None,1,,,,,,,,,,,,,,,,,58,001,22,w,Psychologie ,2023-01-24_10h33.51.592,00_bat_bachelor,2022.2.4,59.84182125267235,
,,,,,,,,,,,,0,0,0,0,135,0,135,0,,,,,,,135,,,1,6630.531962858682,X,d,go,d,1,0.2759527207220458,,,,,,,,,,,,,,,,58,001,22,w,Psychologie ,2023-01-24_10h33.51.592,00_bat_bachelor,2022.2.4,59.84182125267235,
,,,,,,,,,,,,0,0,0,0,136,0,136,0,,,,,,,136,,,1,6631.916971521243,Y,l,go,l,1,0.45792844093676877,,,,,,,,,,,,,,,,58,001,22,w,Psychologie ,2023-01-24_10h33.51.592,00_bat_bachelor,2022.2.4,59.84182125267235,
,,,,,,,,,,,,0,0,0,0,137,0,137,0,,,,,,,137,,,1,6633.501642050609,X,d,go,d,1,0.22647909999278681,,,,,,,,,,,,,,,,58,001,22,w,Psychologie ,2023-01-24_10h33.51.592,00_bat_bachelor,2022.2.4,59.84182125267235,
,,,,,,,,,,,,0,0,0,0,138,0,138,0,,,,,,,138,,,1,6634.836374220975,Y,l,go,l,1,0.291464098973222,,,,,,,,,,,,,,,,58,001,22,w,Psychologie ,2023-01-24_10h33.51.592,00_bat_bachelor,2022.2.4,59.84182125267235,
,,,,,,,,,,,,0,0,0,0,139,0,139,0,,,,,,,139,,,1,6636.23763846661,Y,None,nogo,None,1,,,,,,,,,,,,,,,,,58,001,22,w,Psychologie ,2023-01-24_10h33.51.592,00_bat_bachelor,2022.2.4,59.84182125267235,
,,,,,,,,,,,,0,0,0,0,140,0,140,0,,,,,,,140,,,1,6638.039652086297,X,d,go,d,1,0.2558066777049248,,,,,,,,,,,,,,,,58,001,22,w,Psychologie ,2023-01-24_10h33.51.592,00_bat_bachelor,2022.2.4,59.84182125267235,
,,,,,,,,,,,,0,0,0,0,141,0,141,0,,,,,,,141,,,1,6639.407408243115,Y,l,go,l,1,0.5203497486612036,,,,,,,,,,,,,,,,58,001,22,w,Psychologie ,2023-01-24_10h33.51.592,00_bat_bachelor,2022.2.4,59.84182125267235,
,,,,,,,,,,,,0,0,0,0,142,0,142,0,,,,,,,142,,,1,6641.042516085122,X,d,go,d,1,0.34873258829912857,,,,,,,,,,,,,,,,58,001,22,w,Psychologie ,2023-01-24_10h33.51.592,00_bat_bachelor,2022.2.4,59.84182125267235,
,,,,,,,,,,,,0,0,0,0,143,0,143,0,,,,,,,143,,,1,6642.493886566611,X,None,nogo,None,1,,,,,,,,,,,,,,,,,58,001,22,w,Psychologie ,2023-01-24_10h33.51.592,00_bat_bachelor,2022.2.4,59.84182125267235,
,,,,,,,,,,,,0,0,0,0,144,0,144,0,,,,,,,144,,,1,6644.295737724826,Y,l,go,l,1,0.3124314749869086,,,,,,,,,,,,,,,,58,001,22,w,Psychologie ,2023-01-24_10h33.51.592,00_bat_bachelor,2022.2.4,59.84182125267235,
,,,,,,,,,,,,0,0,0,0,145,0,145,0,,,,,,,145,,,1,6645.7140916044755,X,d,go,d,1,0.47856145811357464,,,,,,,,,,,,,,,,58,001,22,w,Psychologie ,2023-01-24_10h33.51.592,00_bat_bachelor,2022.2.4,59.84182125267235,
,,,,,,,,,,,,0,0,0,0,146,0,146,0,,,,,,,146,,,1,6647.298674749262,Y,l,go,l,1,0.38177134397602686,,,,,,,,,,,,,,,,58,001,22,w,Psychologie ,2023-01-24_10h33.51.592,00_bat_bachelor,2022.2.4,59.84182125267235,
,,,,,,,,,,,,0,0,0,0,147,0,147,0,,,,,,,147,,,1,6648.783456499095,Y,None,nogo,d,0,0.36063371162191515,,,,,,,,,,,,,,,,58,001,22,w,Psychologie ,2023-01-24_10h33.51.592,00_bat_bachelor,2022.2.4,59.84182125267235,
,,,,,,,,,,,,0,0,0,0,148,0,148,0,,,,,,,148,,,1,6650.251692614691,X,d,go,d,1,0.3004134286359772,,,,,,,,,,,,,,,,58,001,22,w,Psychologie ,2023-01-24_10h33.51.592,00_bat_bachelor,2022.2.4,59.84182125267235,
,,,,,,,,,,,,0,0,0,0,149,0,149,0,,,,,,,149,,,1,6651.653061065411,Y,l,go,l,1,0.32249916316442295,,,,,,,,,,,,,,,,58,001,22,w,Psychologie ,2023-01-24_10h33.51.592,00_bat_bachelor,2022.2.4,59.84182125267235,
,,,,,,,,,,,,0,0,0,0,150,0,150,0,,,,,,,150,,,1,6653.088135758714,X,d,go,d,1,0.24767457847730157,,,,,,,,,,,,,,,,58,001,22,w,Psychologie ,2023-01-24_10h33.51.592,00_bat_bachelor,2022.2.4,59.84182125267235,
,,,,,,,,,,,,0,0,0,0,151,0,151,0,,,,,,,151,,,1,6654.439407409474,Y,l,go,l,1,0.25596544686987954,,,,,,,,,,,,,,,,58,001,22,w,Psychologie ,2023-01-24_10h33.51.592,00_bat_bachelor,2022.2.4,59.84182125267235,
,,,,,,,,,,,,0,0,0,0,152,0,152,0,,,,,,,152,,,1,6655.807437617462,X,d,go,d,1,0.24863868064522876,,,,,,,,,,,,,,,,58,001,22,w,Psychologie ,2023-01-24_10h33.51.592,00_bat_bachelor,2022.2.4,59.84182125267235,
,,,,,,,,,,,,0,0,0,0,153,0,153,0,,,,,,,153,,,1,6657.158508652919,Y,l,go,l,1,0.2649303662695388,,,,,,,,,,,,,,,,58,001,22,w,Psychologie ,2023-01-24_10h33.51.592,00_bat_bachelor,2022.2.4,59.84182125267235,
,,,,,,,,,,,,0,0,0,0,154,0,154,0,,,,,,,154,,,1,6658.526761630047,X,d,go,d,1,0.2808093341139397,,,,,,,,,,,,,,,,58,001,22,w,Psychologie ,2023-01-24_10h33.51.592,00_bat_bachelor,2022.2.4,59.84182125267235,
,,,,,,,,,,,,0,0,0,0,155,0,155,0,,,,,,,155,,,1,6659.911781779782,Y,l,go,l,1,0.2643900587993926,,,,,,,,,,,,,,,,58,001,22,w,Psychologie ,2023-01-24_10h33.51.592,00_bat_bachelor,2022.2.4,59.84182125267235,
,,,,,,,,,,,,0,0,0,0,156,0,156,0,,,,,,,156,,,1,6661.279655269886,X,d,go,d,1,0.19215131920401518,,,,,,,,,,,,,,,,58,001,22,w,Psychologie ,2023-01-24_10h33.51.592,00_bat_bachelor,2022.2.4,59.84182125267235,
,,,,,,,,,,,,0,0,0,0,157,0,157,0,,,,,,,157,,,1,6662.580772274555,Y,l,go,l,1,0.3077020410303817,,,,,,,,,,,,,,,,58,001,22,w,Psychologie ,2023-01-24_10h33.51.592,00_bat_bachelor,2022.2.4,59.84182125267235,
,,,,,,,,,,,,0,0,0,0,158,0,158,0,,,,,,,158,,,1,6663.998797538955,X,d,go,d,1,0.3446242822922727,,,,,,,,,,,,,,,,58,001,22,w,Psychologie ,2023-01-24_10h33.51.592,00_bat_bachelor,2022.2.4,59.84182125267235,
,,,,,,,,,,,,0,0,0,0,159,0,159,0,,,,,,,159,,,1,6665.450154892244,X,None,nogo,None,1,,,,,,,,,,,,,,,,,58,001,22,w,Psychologie ,2023-01-24_10h33.51.592,00_bat_bachelor,2022.2.4,59.84182125267235,
,,,,,,,,,,,,0,0,0,0,160,0,160,0,,,,,,,160,,,1,6667.251970358167,Y,l,go,l,1,0.24368688780515413,,,,,,,,,,,,,,,,58,001,22,w,Psychologie ,2023-01-24_10h33.51.592,00_bat_bachelor,2022.2.4,59.84182125267235,
,,,,,,,,,,,,0,0,0,0,161,0,161,0,,,,,,,161,,,1,6668.6036813933615,X,d,go,d,1,0.24435929778547916,,,,,,,,,,,,,,,,58,001,22,w,Psychologie ,2023-01-24_10h33.51.592,00_bat_bachelor,2022.2.4,59.84182125267235,
,,,,,,,,,,,,0,0,0,0,162,0,162,0,,,,,,,162,,,1,6669.954624839129,Y,l,go,l,1,0.2931998931329076,,,,,,,,,,,,,,,,58,001,22,w,Psychologie ,2023-01-24_10h33.51.592,00_bat_bachelor,2022.2.4,59.84182125267235,
,,,,,,,,,,,,0,0,0,0,163,0,163,0,,,,,,,163,,,1,6671.356047033417,X,d,go,d,1,0.22762863798317312,,,,,,,,,,,,,,,,58,001,22,w,Psychologie ,2023-01-24_10h33.51.592,00_bat_bachelor,2022.2.4,59.84182125267235,
,,,,,,,,,,,,0,0,0,0,164,0,164,0,,,,,,,164,,,1,6672.690642178199,Y,l,go,l,1,0.2291092527596561,,,,,,,,,,,,,,,,58,001,22,w,Psychologie ,2023-01-24_10h33.51.592,00_bat_bachelor,2022.2.4,59.84182125267235,
,,,,,,,,,,,,0,0,0,0,165,0,165,0,,,,,,,165,,,1,6674.025444502382,X,d,go,d,1,0.21387848977821022,,,,,,,,,,,,,,,,58,001,22,w,Psychologie ,2023-01-24_10h33.51.592,00_bat_bachelor,2022.2.4,59.84182125267235,
,,,,,,,,,,,,0,0,0,0,166,0,166,0,,,,,,,166,,,1,6675.343842730731,Y,l,go,l,1,0.21671500143503408,,,,,,,,,,,,,,,,58,001,22,w,Psychologie ,2023-01-24_10h33.51.592,00_bat_bachelor,2022.2.4,59.84182125267235,
,,,,,,,,,,,,0,0,0,0,167,0,167,0,,,,,,,167,,,1,6676.661436856847,Y,None,nogo,d,0,0.20232157144192797,,,,,,,,,,,,,,,,58,001,22,w,Psychologie ,2023-01-24_10h33.51.592,00_bat_bachelor,2022.2.4,59.84182125267235,
,,,,,,,,,,,,0,0,0,0,168,0,168,0,,,,,,,168,,,1,6677.979424008442,X,d,go,d,1,0.2763014385275824,,,,,,,,,,,,,,,,58,001,22,w,Psychologie ,2023-01-24_10h33.51.592,00_bat_bachelor,2022.2.4,59.84182125267235,
,,,,,,,,,,,,0,0,0,0,169,0,169,0,,,,,,,169,,,1,6679.364118414721,Y,l,go,l,1,0.2194489490314595,,,,,,,,,,,,,,,,58,001,22,w,Psychologie ,2023-01-24_10h33.51.592,00_bat_bachelor,2022.2.4,59.84182125267235,
,,,,,,,,,,,,0,0,0,0,170,0,170,0,,,,,,,170,,,1,6680.698784123576,Y,None,nogo,None,1,,,,,,,,,,,,,,,,,58,001,22,w,Psychologie ,2023-01-24_10h33.51.592,00_bat_bachelor,2022.2.4,59.84182125267235,
,,,,,,,,,,,,0,0,0,0,171,0,171,0,,,,,,,171,,,1,6682.500591384373,X,d,go,d,1,0.21948874388664308,,,,,,,,,,,,,,,,58,001,22,w,Psychologie ,2023-01-24_10h33.51.592,00_bat_bachelor,2022.2.4,59.84182125267235,
,,,,,,,,,,,,0,0,0,0,172,0,172,0,,,,,,,172,,,1,6683.835487657236,Y,l,go,l,1,0.23650412152193212,,,,,,,,,,,,,,,,58,001,22,w,Psychologie ,2023-01-24_10h33.51.592,00_bat_bachelor,2022.2.4,59.84182125267235,
,,,,,,,,,,,,0,0,0,0,173,0,173,0,,,,,,,173,,,1,6685.186652641373,X,d,go,d,1,0.2296979704672708,,,,,,,,,,,,,,,,58,001,22,w,Psychologie ,2023-01-24_10h33.51.592,00_bat_bachelor,2022.2.4,59.84182125267235,
,,,,,,,,,,,,0,0,0,0,174,0,174,0,,,,,,,174,,,1,6686.521407375833,X,None,nogo,None,1,,,,,,,,,,,,,,,,,58,001,22,w,Psychologie ,2023-01-24_10h33.51.592,00_bat_bachelor,2022.2.4,59.84182125267235,
,,,,,,,,,,,,0,0,0,0,175,0,175,0,,,,,,,175,,,1,6688.323185098181,Y,l,go,l,1,0.2611129319378165,,,,,,,,,,,,,,,,58,001,22,w,Psychologie ,2023-01-24_10h33.51.592,00_bat_bachelor,2022.2.4,59.84182125267235,
,,,,,,,,,,,,0,0,0,0,176,0,176,0,,,,,,,176,,,1,6689.691212024119,X,d,go,d,1,0.3971013889689061,,,,,,,,,,,,,,,,58,001,22,w,Psychologie ,2023-01-24_10h33.51.592,00_bat_bachelor,2022.2.4,59.84182125267235,
,,,,,,,,,,,,0,0,0,0,177,0,177,0,,,,,,,177,,,1,6691.192613664569,Y,l,go,l,1,0.2552438061405269,,,,,,,,,,,,,,,,58,001,22,w,Psychologie ,2023-01-24_10h33.51.592,00_bat_bachelor,2022.2.4,59.84182125267235,
,,,,,,,,,,,,0,0,0,0,178,0,178,0,,,,,,,178,,,1,6692.560643052044,Y,None,nogo,None,1,,,,,,,,,,,,,,,,,58,001,22,w,Psychologie ,2023-01-24_10h33.51.592,00_bat_bachelor,2022.2.4,59.84182125267235,
,,,,,,,,,,,,0,0,0,0,179,0,179,0,,,,,,,179,,,1,6694.362546312802,X,d,go,d,1,0.24556791267451672,,,,,,,,,,,,,,,,58,001,22,w,Psychologie ,2023-01-24_10h33.51.592,00_bat_bachelor,2022.2.4,59.84182125267235,
,,,,,,,,,,,,0,0,0,0,180,0,180,0,,,,,,,180,,,1,6695.71402555322,Y,l,go,l,1,0.3581491998205024,,,,,,,,,,,,,,,,58,001,22,w,Psychologie ,2023-01-24_10h33.51.592,00_bat_bachelor,2022.2.4,59.84182125267235,
,,,,,,,,,,,,0,0,0,0,181,0,181,0,,,,,,,181,,,1,6697.182098386832,X,d,go,d,1,0.22627725392277398,,,,,,,,,,,,,,,,58,001,22,w,Psychologie ,2023-01-24_10h33.51.592,00_bat_bachelor,2022.2.4,59.84182125267235,
,,,,,,,,,,,,0,0,0,0,182,0,182,0,,,,,,,182,,,1,6698.516598762421,X,None,nogo,None,1,,,,,,,,,,,,,,,,,58,001,22,w,Psychologie ,2023-01-24_10h33.51.592,00_bat_bachelor,2022.2.4,59.84182125267235,
,,,,,,,,,,,,0,0,0,0,183,0,183,0,,,,,,,183,,,1,6700.318515561635,Y,l,go,l,1,0.24063581213459884,,,,,,,,,,,,,,,,58,001,22,w,Psychologie ,2023-01-24_10h33.51.592,00_bat_bachelor,2022.2.4,59.84182125267235,
,,,,,,,,,,,,0,0,0,0,184,0,184,0,,,,,,,184,,,1,6701.669644853479,X,d,go,d,1,0.2508253464150698,,,,,,,,,,,,,,,,58,001,22,w,Psychologie ,2023-01-24_10h33.51.592,00_bat_bachelor,2022.2.4,59.84182125267235,
,,,,,,,,,,,,0,0,0,0,185,0,185,0,,,,,,,185,,,1,6703.037862138313,Y,l,go,l,1,0.24232565759422187,,,,,,,,,,,,,,,,58,001,22,w,Psychologie ,2023-01-24_10h33.51.592,00_bat_bachelor,2022.2.4,59.84182125267235,
,,,,,,,,,,,,0,0,0,0,186,0,186,0,,,,,,,186,,,1,6704.389092763449,Y,None,nogo,None,1,,,,,,,,,,,,,,,,,58,001,22,w,Psychologie ,2023-01-24_10h33.51.592,00_bat_bachelor,2022.2.4,59.84182125267235,
,,,,,,,,,,,,0,0,0,0,187,0,187,0,,,,,,,187,,,1,6706.190840947347,X,d,go,d,1,0.3210817278489344,,,,,,,,,,,,,,,,58,001,22,w,Psychologie ,2023-01-24_10h33.51.592,00_bat_bachelor,2022.2.4,59.84182125267235,
,,,,,,,,,,,,0,0,0,0,188,0,188,0,,,,,,,188,,,1,6707.625705589455,Y,l,go,l,1,0.21405120765604124,,,,,,,,,,,,,,,,58,001,22,w,Psychologie ,2023-01-24_10h33.51.592,00_bat_bachelor,2022.2.4,59.84182125267235,
,,,,,,,,,,,,0,0,0,0,189,0,189,0,,,,,,,189,,,1,6708.94366648465,Y,None,nogo,None,1,,,,,,,,,,,,,,,,,58,001,22,w,Psychologie ,2023-01-24_10h33.51.592,00_bat_bachelor,2022.2.4,59.84182125267235,
,,,,,,,,,,,,0,0,0,0,190,0,190,0,,,,,,,190,,,1,6710.745632514612,X,d,go,d,1,0.23018412411448708,,,,,,,,,,,,,,,,58,001,22,w,Psychologie ,2023-01-24_10h33.51.592,00_bat_bachelor,2022.2.4,59.84182125267235,
,,,,,,,,,,,,0,0,0,0,191,0,191,0,,,,,,,191,,,1,6712.079963454375,Y,l,go,l,1,0.2557012418504314,,,,,,,,,,,,,,,,58,001,22,w,Psychologie ,2023-01-24_10h33.51.592,00_bat_bachelor,2022.2.4,59.84182125267235,
,,,,,,,,,,,,0,0,0,0,192,0,192,0,,,,,,,192,,,1,6713.448613559543,X,d,go,d,1,0.2709722099446594,,,,,,,,,,,,,,,,58,001,22,w,Psychologie ,2023-01-24_10h33.51.592,00_bat_bachelor,2022.2.4,59.84182125267235,
,,,,,,,,,,,,0,0,0,0,193,0,193,0,,,,,,,193,,,1,6714.8329087864995,Y,l,go,l,1,0.6474323631912853,,,,,,,,,,,,,,,,58,001,22,w,Psychologie ,2023-01-24_10h33.51.592,00_bat_bachelor,2022.2.4,59.84182125267235,
,,,,,,,,,,,,0,0,0,0,194,0,194,0,,,,,,,194,,,1,6716.584596683243,Y,None,nogo,None,1,,,,,,,,,,,,,,,,,58,001,22,w,Psychologie ,2023-01-24_10h33.51.592,00_bat_bachelor,2022.2.4,59.84182125267235,
,,,,,,,,,,,,0,0,0,0,195,0,195,0,,,,,,,195,,,1,6718.3864749183695,X,d,go,d,1,0.24513304105795442,,,,,,,,,,,,,,,,58,001,22,w,Psychologie ,2023-01-24_10h33.51.592,00_bat_bachelor,2022.2.4,59.84182125267235,
,,,,,,,,,,,,0,0,0,0,196,0,196,0,,,,,,,196,,,1,6719.737936107514,Y,l,go,l,1,0.43830957719029584,,,,,,,,,,,,,,,,58,001,22,w,Psychologie ,2023-01-24_10h33.51.592,00_bat_bachelor,2022.2.4,59.84182125267235,
,,,,,,,,,,,,0,0,0,0,197,0,197,0,,,,,,,197,,,1,6721.289865316979,X,d,go,d,1,0.2776109764511716,,,,,,,,,,,,,,,,58,001,22,w,Psychologie ,2023-01-24_10h33.51.592,00_bat_bachelor,2022.2.4,59.84182125267235,
,,,,,,,,,,,,0,0,0,0,198,0,198,0,,,,,,,198,,,1,6722.69080135762,X,None,nogo,d,0,0.6446069284532427,,,,,,,,,,,,,,,,58,001,22,w,Psychologie ,2023-01-24_10h33.51.592,00_bat_bachelor,2022.2.4,59.84182125267235,
,,,,,,,,,,,,0,0,0,0,199,0,199,0,,,,,,,199,,,1,6724.442609049186,Y,l,go,l,1,0.3645947356383772,,,,,,,,,,,,,,,,58,001,22,w,Psychologie ,2023-01-24_10h33.51.592,00_bat_bachelor,2022.2.4,59.84182125267235,
,,,,,,,,,,,,0,0,0,0,200,0,200,0,,,,,,,200,,,1,6725.910523113632,X,d,go,d,1,0.4417426014227317,,,,,,,,,,,,,,,,58,001,22,w,Psychologie ,2023-01-24_10h33.51.592,00_bat_bachelor,2022.2.4,59.84182125267235,
,,,,,,,,,,,,0,0,0,0,201,0,201,0,,,,,,,201,,,1,6727.462354682111,Y,l,go,l,1,0.28204871822100586,,,,,,,,,,,,,,,,58,001,22,w,Psychologie ,2023-01-24_10h33.51.592,00_bat_bachelor,2022.2.4,59.84182125267235,
,,,,,,,,,,,,0,0,0,0,202,0,202,0,,,,,,,202,,,1,6728.847374011334,Y,None,nogo,None,1,,,,,,,,,,,,,,,,,58,001,22,w,Psychologie ,2023-01-24_10h33.51.592,00_bat_bachelor,2022.2.4,59.84182125267235,
,,,,,,,,,,,,0,0,0,0,203,0,203,0,,,,,,,203,,,1,6730.648980656829,X,d,go,d,1,0.23116996986328786,,,,,,,,,,,,,,,,58,001,22,w,Psychologie ,2023-01-24_10h33.51.592,00_bat_bachelor,2022.2.4,59.84182125267235,
,,,,,,,,,,,,0,0,0,0,204,0,204,0,,,,,,,204,,,1,6731.983280827372,Y,l,go,l,1,0.2322530463428052,,,,,,,,,,,,,,,,58,001,22,w,Psychologie ,2023-01-24_10h33.51.592,00_bat_bachelor,2022.2.4,59.84182125267235,
,,,,,,,,,,,,0,0,0,0,205,0,205,0,,,,,,,205,,,1,6733.318041305419,Y,None,nogo,None,1,,,,,,,,,,,,,,,,,58,001,22,w,Psychologie ,2023-01-24_10h33.51.592,00_bat_bachelor,2022.2.4,59.84182125267235,
,,,,,,,,,,,,0,0,0,0,206,0,206,0,,,,,,,206,,,1,6735.120532463372,X,d,go,d,1,0.19064731982172134,,,,,,,,,,,,,,,,58,001,22,w,Psychologie ,2023-01-24_10h33.51.592,00_bat_bachelor,2022.2.4,59.84182125267235,
,,,,,,,,,,,,0,0,0,0,207,0,207,0,,,,,,,207,,,1,6736.454585659658,Y,l,go,l,1,0.26545508400278095,,,,,,,,,,,,,,,,58,001,22,w,Psychologie ,2023-01-24_10h33.51.592,00_bat_bachelor,2022.2.4,59.84182125267235,
,,,,,,,,,,,,0,0,0,0,208,0,208,0,,,,,,,208,,,1,6737.822671662494,X,d,go,d,1,0.2726616451494124,,,,,,,,,,,,,,,,58,001,22,w,Psychologie ,2023-01-24_10h33.51.592,00_bat_bachelor,2022.2.4,59.84182125267235,
,,,,,,,,,,,,0,0,0,0,209,0,209,0,,,,,,,209,,,1,6739.207245453438,Y,l,go,l,1,0.2481865782668251,,,,,,,,,,,,,,,,58,001,22,w,Psychologie ,2023-01-24_10h33.51.592,00_bat_bachelor,2022.2.4,59.84182125267235,
,,,,,,,,,,,,0,0,0,0,210,0,210,0,,,,,,,210,,,1,6740.558642642608,X,d,go,d,1,0.48917396658026746,,,,,,,,,,,,,,,,58,001,22,w,Psychologie ,2023-01-24_10h33.51.592,00_bat_bachelor,2022.2.4,59.84182125267235,
,,,,,,,,,,,,0,0,0,0,211,0,211,0,,,,,,,211,,,1,6742.160406498295,X,None,nogo,None,1,,,,,,,,,,,,,,,,,58,001,22,w,Psychologie ,2023-01-24_10h33.51.592,00_bat_bachelor,2022.2.4,59.84182125267235,
,,,,,,,,,,,,0,0,0,0,212,0,212,0,,,,,,,212,,,1,6743.961950784841,Y,l,go,l,1,0.253878883623031,,,,,,,,,,,,,,,,58,001,22,w,Psychologie ,2023-01-24_10h33.51.592,00_bat_bachelor,2022.2.4,59.84182125267235,
,,,,,,,,,,,,0,0,0,0,213,0,213,0,,,,,,,213,,,1,6745.330031454347,X,d,go,d,1,0.31814101110586535,,,,,,,,,,,,,,,,58,001,22,w,Psychologie ,2023-01-24_10h33.51.592,00_bat_bachelor,2022.2.4,59.84182125267235,
,,,,,,,,,,,,0,0,0,0,214,0,214,0,,,,,,,214,,,1,6746.764889122097,X,None,nogo,d,0,0.634419035197709,,,,,,,,,,,,,,,,58,001,22,w,Psychologie ,2023-01-24_10h33.51.592,00_bat_bachelor,2022.2.4,59.84182125267235,
,,,,,,,,,,,,0,0,0,0,215,0,215,0,,,,,,,215,,,1,6748.516469941961,Y,l,go,l,1,0.29969424944312095,,,,,,,,,,,,,,,,58,001,22,w,Psychologie ,2023-01-24_10h33.51.592,00_bat_bachelor,2022.2.4,59.84182125267235,
,,,,,,,,,,,,0,0,0,0,216,0,216,0,,,,,,,216,,,1,6749.91808208489,X,d,go,d,1,0.34591946124811557,,,,,,,,,,,,,,,,58,001,22,w,Psychologie ,2023-01-24_10h33.51.592,00_bat_bachelor,2022.2.4,59.84182125267235,
,,,,,,,,,,,,0,0,0,0,217,0,217,0,,,,,,,217,,,1,6751.3695235407085,Y,l,go,l,1,0.23057222651851816,,,,,,,,,,,,,,,,58,001,22,w,Psychologie ,2023-01-24_10h33.51.592,00_bat_bachelor,2022.2.4,59.84182125267235,
,,,,,,,,,,,,0,0,0,0,218,0,218,0,,,,,,,218,,,1,6752.704421454597,X,d,go,d,1,0.4318956311038278,,,,,,,,,,,,,,,,58,001,22,w,Psychologie ,2023-01-24_10h33.51.592,00_bat_bachelor,2022.2.4,59.84182125267235,
,,,,,,,,,,,,0,0,0,0,219,0,219,0,,,,,,,219,,,1,6754.23913631215,Y,l,go,l,1,0.23311950752514576,,,,,,,,,,,,,,,,58,001,22,w,Psychologie ,2023-01-24_10h33.51.592,00_bat_bachelor,2022.2.4,59.84182125267235,
,,,,,,,,,,,,0,0,0,0,220,0,220,0,,,,,,,220,,,1,6755.573596482627,X,d,go,d,1,0.24261447798863855,,,,,,,,,,,,,,,,58,001,22,w,Psychologie ,2023-01-24_10h33.51.592,00_bat_bachelor,2022.2.4,59.84182125267235,
,,,,,,,,,,,,0,0,0,0,221,0,221,0,,,,,,,221,,,1,6756.925056030746,Y,l,go,l,1,0.23474535301221522,,,,,,,,,,,,,,,,58,001,22,w,Psychologie ,2023-01-24_10h33.51.592,00_bat_bachelor,2022.2.4,59.84182125267235,
,,,,,,,,,,,,0,0,0,0,222,0,222,0,,,,,,,222,,,1,6758.27630880972,X,d,go,d,1,0.20378167340669506,,,,,,,,,,,,,,,,58,001,22,w,Psychologie ,2023-01-24_10h33.51.592,00_bat_bachelor,2022.2.4,59.84182125267235,
,,,,,,,,,,,,0,0,0,0,223,0,223,0,,,,,,,223,,,1,6759.594340268989,Y,l,go,l,1,0.22158105071986256,,,,,,,,,,,,,,,,58,001,22,w,Psychologie ,2023-01-24_10h33.51.592,00_bat_bachelor,2022.2.4,59.84182125267235,
,,,,,,,,,,,,0,0,0,0,224,0,224,0,,,,,,,224,,,1,6760.929215208527,Y,None,nogo,None,1,,,,,,,,,,,,,,,,,58,001,22,w,Psychologie ,2023-01-24_10h33.51.592,00_bat_bachelor,2022.2.4,59.84182125267235,
,,,,,,,,,,,,0,0,0,0,225,0,225,0,,,,,,,225,,,1,6762.730752520717,X,d,go,d,1,0.2295035090085662,,,,,,,,,,,,,,,,58,001,22,w,Psychologie ,2023-01-24_10h33.51.592,00_bat_bachelor,2022.2.4,59.84182125267235,
,,,,,,,,,,,,0,0,0,0,226,0,226,0,,,,,,,226,,,1,6764.06527874245,Y,l,go,l,1,0.2459839125033909,,,,,,,,,,,,,,,,58,001,22,w,Psychologie ,2023-01-24_10h33.51.592,00_bat_bachelor,2022.2.4,59.84182125267235,
,,,,,,,,,,,,0,0,0,0,227,0,227,0,,,,,,,227,,,1,6765.416950393046,X,d,go,d,1,0.2464864763999799,,,,,,,,,,,,,,,,58,001,22,w,Psychologie ,2023-01-24_10h33.51.592,00_bat_bachelor,2022.2.4,59.84182125267235,
,,,,,,,,,,,,0,0,0,0,228,0,228,0,,,,,,,228,,,1,6766.768297941211,Y,l,go,l,1,0.20748218471027258,,,,,,,,,,,,,,,,58,001,22,w,Psychologie ,2023-01-24_10h33.51.592,00_bat_bachelor,2022.2.4,59.84182125267235,
,,,,,,,,,,,,0,0,0,0,229,0,229,0,,,,,,,229,,,1,6768.086194836433,X,d,go,d,1,0.20133736671806446,,,,,,,,,,,,,,,,58,001,22,w,Psychologie ,2023-01-24_10h33.51.592,00_bat_bachelor,2022.2.4,59.84182125267235,
,,,,,,,,,,,,0,0,0,0,230,0,230,0,,,,,,,230,,,1,6769.4041405521475,Y,l,go,l,1,0.21221736225407994,,,,,,,,,,,,,,,,58,001,22,w,Psychologie ,2023-01-24_10h33.51.592,00_bat_bachelor,2022.2.4,59.84182125267235,
,,,,,,,,,,,,0,0,0,0,231,0,231,0,,,,,,,231,,,1,6770.722601139446,X,d,go,d,1,0.20596505712757107,,,,,,,,,,,,,,,,58,001,22,w,Psychologie ,2023-01-24_10h33.51.592,00_bat_bachelor,2022.2.4,59.84182125267235,
,,,,,,,,,,,,0,0,0,0,232,0,232,0,,,,,,,232,,,1,6772.0401160861065,X,None,nogo,None,1,,,,,,,,,,,,,,,,,58,001,22,w,Psychologie ,2023-01-24_10h33.51.592,00_bat_bachelor,2022.2.4,59.84182125267235,
,,,,,,,,,,,,0,0,0,0,233,0,233,0,,,,,,,233,,,1,6773.84212355195,Y,l,go,l,1,0.3099982452161498,,,,,,,,,,,,,,,,58,001,22,w,Psychologie ,2023-01-24_10h33.51.592,00_bat_bachelor,2022.2.4,59.84182125267235,
,,,,,,,,,,,,0,0,0,0,234,0,234,0,,,,,,,234,,,1,6775.260344918833,X,d,go,d,1,0.21922823117284906,,,,,,,,,,,,,,,,58,001,22,w,Psychologie ,2023-01-24_10h33.51.592,00_bat_bachelor,2022.2.4,59.84182125267235,
,,,,,,,,,,,,0,0,0,0,235,0,235,0,,,,,,,235,,,1,6776.594795243162,Y,l,go,l,1,0.23730986478068417,,,,,,,,,,,,,,,,58,001,22,w,Psychologie ,2023-01-24_10h33.51.592,00_bat_bachelor,2022.2.4,59.84182125267235,
,,,,,,,,,,,,0,0,0,0,236,0,236,0,,,,,,,236,,,1,6777.946048432391,Y,None,nogo,d,0,0.27017549232306237,,,,,,,,,,,,,,,,58,001,22,w,Psychologie ,2023-01-24_10h33.51.592,00_bat_bachelor,2022.2.4,59.84182125267235,
,,,,,,,,,,,,0,0,0,0,237,0,237,0,,,,,,,237,,,1,6779.3308400693995,X,d,go,d,1,0.2609307781670509,,,,,,,,,,,,,,,,58,001,22,w,Psychologie ,2023-01-24_10h33.51.592,00_bat_bachelor,2022.2.4,59.84182125267235,
,,,,,,,,,,,,0,0,0,0,238,0,238,0,,,,,,,238,,,1,6780.698903097887,Y,l,go,l,1,0.22914904761574917,,,,,,,,,,,,,,,,58,001,22,w,Psychologie ,2023-01-24_10h33.51.592,00_bat_bachelor,2022.2.4,59.84182125267235,
,,,,,,,,,,,,0,0,0,0,239,0,239,0,,,,,,,239,,,1,6782.033474447806,X,d,go,d,1,0.2064709030731251,,,,,,,,,,,,,,,,58,001,22,w,Psychologie ,2023-01-24_10h33.51.592,00_bat_bachelor,2022.2.4,59.84182125267235,
,,,,,,,,,,,,0,0,0,0,240,0,240,0,,,,,,,240,,,1,6783.351350419959,X,None,nogo,l,0,0.24032032508358725,,,,,,,,,,,,,,,,58,001,22,w,Psychologie ,2023-01-24_10h33.51.592,00_bat_bachelor,2022.2.4,59.84182125267235,
,,,,,,,,,,,,0,0,0,0,241,0,241,0,,,,,,,241,,,1,6784.7028173526905,Y,l,go,l,1,0.37760929440111113,,,,,,,,,,,,,,,,58,001,22,w,Psychologie ,2023-01-24_10h33.51.592,00_bat_bachelor,2022.2.4,59.84182125267235,
,,,,,,,,,,,,0,0,0,0,242,0,242,0,,,,,,,242,,,1,6786.18747069232,X,d,go,d,1,0.28359169194692413,,,,,,,,,,,,,,,,58,001,22,w,Psychologie ,2023-01-24_10h33.51.592,00_bat_bachelor,2022.2.4,59.84182125267235,
,,,,,,,,,,,,0,0,0,0,243,0,243,0,,,,,,,243,,,1,6787.5723472523705,Y,l,go,l,1,0.2917377398874237,,,,,,,,,,,,,,,,58,001,22,w,Psychologie ,2023-01-24_10h33.51.592,00_bat_bachelor,2022.2.4,59.84182125267235,
,,,,,,,,,,,,0,0,0,0,244,0,244,0,,,,,,,244,,,1,6788.973345241705,Y,None,nogo,None,1,,,,,,,,,,,,,,,,,58,001,22,w,Psychologie ,2023-01-24_10h33.51.592,00_bat_bachelor,2022.2.4,59.84182125267235,
,,,,,,,,,,,,0,0,0,0,245,0,245,0,,,,,,,245,,,1,6790.775577117713,X,d,go,d,1,0.2164503861588969,,,,,,,,,,,,,,,,58,001,22,w,Psychologie ,2023-01-24_10h33.51.592,00_bat_bachelor,2022.2.4,59.84182125267235,
,,,,,,,,,,,,0,0,0,0,246,0,246,0,,,,,,,246,,,1,6792.093644269275,Y,l,go,l,1,0.27486061860628297,,,,,,,,,,,,,,,,58,001,22,w,Psychologie ,2023-01-24_10h33.51.592,00_bat_bachelor,2022.2.4,59.84182125267235,
,,,,,,,,,,,,0,0,0,0,247,0,247,0,,,,,,,247,,,1,6793.478065444897,X,d,go,None,0,,,,,,,,,,,,,,,,,58,001,22,w,Psychologie ,2023-01-24_10h33.51.592,00_bat_bachelor,2022.2.4,59.84182125267235,
,,,,,,,,,,,,0,0,0,0,248,0,248,0,,,,,,,248,,,1,6795.280045013315,Y,l,go,l,1,0.23142432873402186,,,,,,,,,,,,,,,,58,001,22,w,Psychologie ,2023-01-24_10h33.51.592,00_bat_bachelor,2022.2.4,59.84182125267235,
,,,,,,,,,,,,0,0,0,0,249,0,249,0,,,,,,,249,,,1,6796.6146491837335,Y,None,nogo,None,1,,,,,,,,,,,,,,,,,58,001,22,w,Psychologie ,2023-01-24_10h33.51.592,00_bat_bachelor,2022.2.4,59.84182125267235,
,,,,,,,,,,,,1,0,1,0,0,0,0,0,,,,,,,0,,,0.2,6830.915773983273,X,d,go,None,0,,,,,,,,,,6797.430195105561,space,33.25282288405771,,,,,58,001,22,w,Psychologie ,2023-01-24_10h33.51.592,00_bat_bachelor,2022.2.4,59.84182125267235,
,,,,,,,,,,,,1,0,1,0,1,0,1,0,,,,,,,1,,,0.2,6831.9165087522015,Y,l,go,l,1,0.3712240662510453,,,,,,,,,,,,,,,,58,001,22,w,Psychologie ,2023-01-24_10h33.51.592,00_bat_bachelor,2022.2.4,59.84182125267235,
,,,,,,,,,,,,1,0,1,0,2,0,2,0,,,,,,,2,,,0.2,6832.600759548407,X,d,go,d,1,0.48684412138146627,,,,,,,,,,,,,,,,58,001,22,w,Psychologie ,2023-01-24_10h33.51.592,00_bat_bachelor,2022.2.4,59.84182125267235,
,,,,,,,,,,,,1,0,1,0,3,0,3,0,,,,,,,3,,,0.2,6833.40145255325,Y,l,go,l,1,0.3421344371593591,,,,,,,,,,,,,,,,58,001,22,w,Psychologie ,2023-01-24_10h33.51.592,00_bat_bachelor,2022.2.4,59.84182125267235,
,,,,,,,,,,,,1,0,1,0,4,0,4,0,,,,,,,4,,,0.2,6834.05208695299,X,d,go,d,1,0.3715904250760218,,,,,,,,,,,,,,,,58,001,22,w,Psychologie ,2023-01-24_10h33.51.592,00_bat_bachelor,2022.2.4,59.84182125267235,
,,,,,,,,,,,,1,0,1,0,5,0,5,0,,,,,,,5,,,0.2,6834.736029646758,Y,l,go,l,1,0.3197492155744044,,,,,,,,,,,,,,,,58,001,22,w,Psychologie ,2023-01-24_10h33.51.592,00_bat_bachelor,2022.2.4,59.84182125267235,
,,,,,,,,,,,,1,0,1,0,6,0,6,0,,,,,,,6,,,0.2,6835.370133181484,X,d,go,d,1,0.3491826393968154,,,,,,,,,,,,,,,,58,001,22,w,Psychologie ,2023-01-24_10h33.51.592,00_bat_bachelor,2022.2.4,59.84182125267235,
,,,,,,,,,,,,1,0,1,0,7,0,7,0,,,,,,,7,,,0.2,6836.020854965804,X,None,nogo,d,0,0.44265254976772894,,,,,,,,,,,,,,,,58,001,22,w,Psychologie ,2023-01-24_10h33.51.592,00_bat_bachelor,2022.2.4,59.84182125267235,
,,,,,,,,,,,,1,0,1,0,8,0,8,0,,,,,,,8,,,0.2,6836.771388811738,Y,l,go,l,1,0.428826504158053,,,,,,,,,,,,,,,,58,001,22,w,Psychologie ,2023-01-24_10h33.51.592,00_bat_bachelor,2022.2.4,59.84182125267235,
,,,,,,,,,,,,1,0,1,0,9,0,9,0,,,,,,,9,,,0.2,6837.505460715709,X,d,go,d,1,0.39828743976369196,,,,,,,,,,,,,,,,58,001,22,w,Psychologie ,2023-01-24_10h33.51.592,00_bat_bachelor,2022.2.4,59.84182125267235,
,,,,,,,,,,,,1,0,1,0,10,0,10,0,,,,,,,10,,,0.2,6838.206268633326,Y,l,go,l,1,0.3697007848252838,,,,,,,,,,,,,,,,58,001,22,w,Psychologie ,2023-01-24_10h33.51.592,00_bat_bachelor,2022.2.4,59.84182125267235,
,,,,,,,,,,,,1,0,1,0,11,0,11,0,,,,,,,11,,,0.2,6838.890171121981,Y,None,nogo,l,0,0.5659341402163705,,,,,,,,,,,,,,,,58,001,22,w,Psychologie ,2023-01-24_10h33.51.592,00_bat_bachelor,2022.2.4,59.84182125267235,
,,,,,,,,,,,,1,0,1,0,12,0,12,0,,,,,,,12,,,0.2,6839.757768304506,X,d,go,d,1,0.39392928770513436,,,,,,,,,,,,,,,,58,001,22,w,Psychologie ,2023-01-24_10h33.51.592,00_bat_bachelor,2022.2.4,59.84182125267235,
,,,,,,,,,,,,1,0,1,0,13,0,13,0,,,,,,,13,,,0.2,6840.458528222142,Y,l,go,l,1,0.4695887438450086,,,,,,,,,,,,,,,,58,001,22,w,Psychologie ,2023-01-24_10h33.51.592,00_bat_bachelor,2022.2.4,59.84182125267235,
,,,,,,,,,,,,1,0,1,0,14,0,14,0,,,,,,,14,,,0.2,6841.242522977427,X,d,go,d,1,0.405222001021059,,,,,,,,,,,,,,,,58,001,22,w,Psychologie ,2023-01-24_10h33.51.592,00_bat_bachelor,2022.2.4,59.84182125267235,
,,,,,,,,,,,,1,0,1,0,15,0,15,0,,,,,,,15,,,0.2,6841.959949965149,X,None,nogo,None,1,,,,,,,,,6842.760843585295,,,,,,,,58,001,22,w,Psychologie ,2023-01-24_10h33.51.592,00_bat_bachelor,2022.2.4,59.84182125267235,
,,,,,,,,,,,,1,0,1,0,16,0,16,0,,,,,,,16,,,0.2,6842.9609784775475,Y,l,go,l,1,0.311149834487253,,,,,,,,,,,,,,,,58,001,22,w,Psychologie ,2023-01-24_10h33.51.592,00_bat_bachelor,2022.2.4,59.84182125267235,
,,,,,,,,,,,,1,0,1,0,17,0,17,0,,,,,,,17,,,0.2,6843.578314019153,X,d,go,d,1,0.4858808397260077,,,,,,,,,,,,,,,,58,001,22,w,Psychologie ,2023-01-24_10h33.51.592,00_bat_bachelor,2022.2.4,59.84182125267235,
,,,,,,,,,,,,1,0,1,0,18,0,18,0,,,,,,,18,,,0.2,6844.37929379311,X,None,nogo,d,0,0.6288978066925779,,,,,,,,,,,,,,,,58,001,22,w,Psychologie ,2023-01-24_10h33.51.592,00_bat_bachelor,2022.2.4,59.84182125267235,
,,,,,,,,,,,,1,0,1,0,19,0,19,0,,,,,,,19,,,0.2,6845.313247050975,X,None,nogo,d,0,0.3745208854118687,,,,,,,,,,,,,,,,58,001,22,w,Psychologie ,2023-01-24_10h33.51.592,00_bat_bachelor,2022.2.4,59.84182125267235,
,,,,,,,,,,,,1,0,1,0,20,0,20,0,,,,,,,20,,,0.2,6845.997288206241,Y,l,go,l,1,0.36238345449447706,,,,,,,,,,,,,,,,58,001,22,w,Psychologie ,2023-01-24_10h33.51.592,00_bat_bachelor,2022.2.4,59.84182125267235,
,,,,,,,,,,,,1,0,1,0,21,0,21,0,,,,,,,21,,,0.2,6846.665189880948,X,d,go,d,1,0.39907964456716627,,,,,,,,,,,,,,,,58,001,22,w,Psychologie ,2023-01-24_10h33.51.592,00_bat_bachelor,2022.2.4,59.84182125267235,
,,,,,,,,,,,,1,0,1,0,22,0,22,0,,,,,,,22,,,0.2,6847.365364362928,Y,l,go,l,1,0.48230299503967444,,,,,,,,,,,,,,,,58,001,22,w,Psychologie ,2023-01-24_10h33.51.592,00_bat_bachelor,2022.2.4,59.84182125267235,
,,,,,,,,,,,,1,0,1,0,23,0,23,0,,,,,,,23,,,0.2,6848.1496393232255,X,d,go,d,1,0.3543892013624941,,,,,,,,,,,,,,,,58,001,22,w,Psychologie ,2023-01-24_10h33.51.592,00_bat_bachelor,2022.2.4,59.84182125267235,
,,,,,,,,,,,,1,0,1,0,24,0,24,0,,,,,,,24,,,0.2,6848.816985100724,Y,l,go,l,1,0.3189036774595593,,,,,,,,,,,,,,,,58,001,22,w,Psychologie ,2023-01-24_10h33.51.592,00_bat_bachelor,2022.2.4,59.84182125267235,
,,,,,,,,,,,,1,0,1,0,25,0,25,0,,,,,,,25,,,0.2,6849.450768225326,X,d,go,d,1,0.33240726166360446,,,,,,,,,,,,,,,,58,001,22,w,Psychologie ,2023-01-24_10h33.51.592,00_bat_bachelor,2022.2.4,59.84182125267235,
,,,,,,,,,,,,1,0,1,0,26,0,26,0,,,,,,,26,,,0.2,6850.084740478055,Y,l,go,l,1,0.3468158711369256,,,,,,,,,,,,,,,,58,001,22,w,Psychologie ,2023-01-24_10h33.51.592,00_bat_bachelor,2022.2.4,59.84182125267235,
,,,,,,,,,,,,1,0,1,0,27,0,27,0,,,,,,,27,,,0.2,6850.7354433905875,Y,None,nogo,None,1,,,,,,,,,,,,,,,,,58,001,22,w,Psychologie ,2023-01-24_10h33.51.592,00_bat_bachelor,2022.2.4,59.84182125267235,
,,,,,,,,,,,,1,0,1,0,28,0,28,0,,,,,,,28,,,0.2,6851.736360723545,X,d,go,d,1,0.3188651133735334,,,,,,,,,,,,,,,,58,001,22,w,Psychologie ,2023-01-24_10h33.51.592,00_bat_bachelor,2022.2.4,59.84182125267235,
,,,,,,,,,,,,1,0,1,0,29,0,29,0,,,,,,,29,,,0.2,6852.37038795061,Y,l,go,l,1,0.48530525021789117,,,,,,,,,,,,,,,,58,001,22,w,Psychologie ,2023-01-24_10h33.51.592,00_bat_bachelor,2022.2.4,59.84182125267235,
,,,,,,,,,,,,1,0,1,0,30,0,30,0,,,,,,,30,,,0.2,6853.171375519436,X,d,go,d,1,0.4686701801195454,,,,,,,,,,,,,,,,58,001,22,w,Psychologie ,2023-01-24_10h33.51.592,00_bat_bachelor,2022.2.4,59.84182125267235,
,,,,,,,,,,,,1,0,1,0,31,0,31,0,,,,,,,31,,,0.2,6853.955398172145,Y,l,go,l,1,0.5482036859523873,,,,,,,,,,,,,,,,58,001,22,w,Psychologie ,2023-01-24_10h33.51.592,00_bat_bachelor,2022.2.4,59.84182125267235,
,,,,,,,,,,,,1,0,1,0,32,0,32,0,,,,,,,32,,,0.2,6854.806149823118,X,d,go,d,1,0.43366219448245147,,,,,,,,,,,,,,,,58,001,22,w,Psychologie ,2023-01-24_10h33.51.592,00_bat_bachelor,2022.2.4,59.84182125267235,
,,,,,,,,,,,,1,0,1,0,33,0,33,0,,,,,,,33,,,0.2,6855.540080188685,Y,l,go,l,1,0.4040544117563627,,,,,,,,,,,,,,,,58,001,22,w,Psychologie ,2023-01-24_10h33.51.592,00_bat_bachelor,2022.2.4,59.84182125267235,
,,,,,,,,,,,,1,0,1,0,34,0,34,0,,,,,,,34,,,0.2,6856.257589637912,X,d,go,d,1,0.4303259907222241,,,,,,,,,,,,,,,,58,001,22,w,Psychologie ,2023-01-24_10h33.51.592,00_bat_bachelor,2022.2.4,59.84182125267235,
,,,,,,,,,,,,1,0,1,0,35,0,35,0,,,,,,,35,,,0.2,6856.991673029058,Y,l,go,l,1,0.3757057054384063,,,,,,,,,,,,,,,,58,001,22,w,Psychologie ,2023-01-24_10h33.51.592,00_bat_bachelor,2022.2.4,59.84182125267235,
,,,,,,,,,,,,1,0,1,0,36,0,36,0,,,,,,,36,,,0.2,6857.675781876603,Y,None,nogo,None,1,,,,,,,,,,,,,,,,,58,001,22,w,Psychologie ,2023-01-24_10h33.51.592,00_bat_bachelor,2022.2.4,59.84182125267235,
,,,,,,,,,,,,1,0,1,0,37,0,37,0,,,,,,,37,,,0.2,6858.676597055755,X,d,go,d,1,0.29139476566825806,,,,,,,,,,,,,,,,58,001,22,w,Psychologie ,2023-01-24_10h33.51.592,00_bat_bachelor,2022.2.4,59.84182125267235,
,,,,,,,,,,,,1,0,1,0,38,0,38,0,,,,,,,38,,,0.2,6859.277241322157,Y,l,go,l,1,0.48251427700353133,,,,,,,,,,,,,,,,58,001,22,w,Psychologie ,2023-01-24_10h33.51.592,00_bat_bachelor,2022.2.4,59.84182125267235,
,,,,,,,,,,,,1,0,1,0,39,0,39,0,,,,,,,39,,,0.2,6860.06131812869,X,d,go,d,1,0.4418824988018173,,,,,,,,,,,,,,,,58,001,22,w,Psychologie ,2023-01-24_10h33.51.592,00_bat_bachelor,2022.2.4,59.84182125267235,
,,,,,,,,,,,,1,0,1,0,40,0,40,0,,,,,,,40,,,0.2,6860.8122314616485,X,None,nogo,None,1,,,,,,,,,,,,,,,,,58,001,22,w,Psychologie ,2023-01-24_10h33.51.592,00_bat_bachelor,2022.2.4,59.84182125267235,
,,,,,,,,,,,,1,0,1,0,41,0,41,0,,,,,,,41,,,0.2,6861.813191461255,Y,l,go,l,1,0.3059166058649794,,,,,,,,,,,,,,,,58,001,22,w,Psychologie ,2023-01-24_10h33.51.592,00_bat_bachelor,2022.2.4,59.84182125267235,
,,,,,,,,,,,,1,0,1,0,42,0,42,0,,,,,,,42,,,0.2,6862.430459310581,X,d,go,d,1,0.4336576816634192,,,,,,,,,,,,,,,,58,001,22,w,Psychologie ,2023-01-24_10h33.51.592,00_bat_bachelor,2022.2.4,59.84182125267235,
,,,,,,,,,,,,1,0,1,0,43,0,43,0,,,,,,,43,,,0.2,6863.164364240261,Y,l,go,l,1,0.4593241326722932,,,,,,,,,,,,,,,,58,001,22,w,Psychologie ,2023-01-24_10h33.51.592,00_bat_bachelor,2022.2.4,59.84182125267235,
,,,,,,,,,,,,1,0,1,0,44,0,44,0,,,,,,,44,,,0.2,6863.932362694415,X,d,go,d,1,0.371313091856166,,,,,,,,,,,,,,,,58,001,22,w,Psychologie ,2023-01-24_10h33.51.592,00_bat_bachelor,2022.2.4,59.84182125267235,
,,,,,,,,,,,,1,0,1,0,45,0,45,0,,,,,,,45,,,0.2,6864.615841798629,X,None,nogo,l,0,0.29628830212215007,,,,,,,,,,,,,,,,58,001,22,w,Psychologie ,2023-01-24_10h33.51.592,00_bat_bachelor,2022.2.4,59.84182125267235,
,,,,,,,,,,,,1,0,1,0,46,0,46,0,,,,,,,46,,,0.2,6865.216578372686,Y,l,go,l,1,0.5348908709013926,,,,,,,,,,,,,,,,58,001,22,w,Psychologie ,2023-01-24_10h33.51.592,00_bat_bachelor,2022.2.4,59.84182125267235,
,,,,,,,,,,,,1,0,1,0,47,0,47,0,,,,,,,47,,,0.2,6866.067448587713,X,d,go,d,1,0.3724503221586133,,,,,,,,,,,,,,,,58,001,22,w,Psychologie ,2023-01-24_10h33.51.592,00_bat_bachelor,2022.2.4,59.84182125267235,
,,,,,,,,,,,,1,0,1,0,48,0,48,0,,,,,,,48,,,0.2,6866.7515385634715,Y,l,go,l,1,0.5357425628592978,,,,,,,,,,,,,,,,58,001,22,w,Psychologie ,2023-01-24_10h33.51.592,00_bat_bachelor,2022.2.4,59.84182125267235,
,,,,,,,,,,,,1,0,1,0,49,0,49,0,,,,,,,49,,,0.2,6867.602310317001,Y,None,nogo,d,0,0.373777911357422,,,,,,,,,,,,,,,,58,001,22,w,Psychologie ,2023-01-24_10h33.51.592,00_bat_bachelor,2022.2.4,59.84182125267235,
,,,,,,,,,,,,1,0,1,0,50,0,50,0,,,,,,,50,,,0.2,6868.286355985085,X,d,go,d,1,0.6099583272837776,,,,,,,,,,,,,,,,58,001,22,w,Psychologie ,2023-01-24_10h33.51.592,00_bat_bachelor,2022.2.4,59.84182125267235,
,,,,,,,,,,,,1,0,1,0,51,0,51,0,,,,,,,51,,,0.2,6869.204049557313,Y,l,go,l,1,0.37978980632698267,,,,,,,,,,,,,,,,58,001,22,w,Psychologie ,2023-01-24_10h33.51.592,00_bat_bachelor,2022.2.4,59.84182125267235,
,,,,,,,,,,,,1,0,1,0,52,0,52,0,,,,,,,52,,,0.2,6869.8878367639645,X,d,go,d,1,0.4246295828027655,,,,,,,,,,,,,,,,58,001,22,w,Psychologie ,2023-01-24_10h33.51.592,00_bat_bachelor,2022.2.4,59.84182125267235,
,,,,,,,,,,,,1,0,1,0,53,0,53,0,,,,,,,53,,,0.2,6870.622023949939,Y,l,go,l,1,0.46522074563773685,,,,,,,,,,,,,,,,58,001,22,w,Psychologie ,2023-01-24_10h33.51.592,00_bat_bachelor,2022.2.4,59.84182125267235,
,,,,,,,,,,,,1,0,1,0,54,0,54,0,,,,,,,54,,,0.2,6871.389381173587,X,d,go,d,1,0.3702739127950849,,,,,,,,,,,,,,,,58,001,22,w,Psychologie ,2023-01-24_10h33.51.592,00_bat_bachelor,2022.2.4,59.84182125267235,
,,,,,,,,,,,,1,0,1,0,55,0,55,0,,,,,,,55,,,0.2,6872.0735351493195,Y,l,go,l,1,0.31786367788600955,,,,,,,,,,,,,,,,58,001,22,w,Psychologie ,2023-01-24_10h33.51.592,00_bat_bachelor,2022.2.4,59.84182125267235,
,,,,,,,,,,,,1,0,1,0,56,0,56,0,,,,,,,56,,,0.2,6872.707494273849,X,d,go,d,1,0.35666735427395224,,,,,,,,,,,,,,,,58,001,22,w,Psychologie ,2023-01-24_10h33.51.592,00_bat_bachelor,2022.2.4,59.84182125267235,
,,,,,,,,,,,,1,0,1,0,57,0,57,0,,,,,,,57,,,0.2,6873.374633692458,Y,l,go,l,1,0.33655331124492704,,,,,,,,,,,,,,,,58,001,22,w,Psychologie ,2023-01-24_10h33.51.592,00_bat_bachelor,2022.2.4,59.84182125267235,
,,,,,,,,,,,,1,0,1,0,58,0,58,0,,,,,,,58,,,0.2,6874.026038143164,X,d,go,d,1,0.35729053350615914,,,,,,,,,,,,,,,,58,001,22,w,Psychologie ,2023-01-24_10h33.51.592,00_bat_bachelor,2022.2.4,59.84182125267235,
,,,,,,,,,,,,1,0,1,0,59,0,59,0,,,,,,,59,,,0.2,6874.709149657785,X,None,nogo,l,0,0.3780687813917325,,,,,,,,,,,,,,,,58,001,22,w,Psychologie ,2023-01-24_10h33.51.592,00_bat_bachelor,2022.2.4,59.84182125267235,
,,,,,,,,,,,,1,0,1,0,60,0,60,0,,,,,,,60,,,0.2,6875.393151018195,Y,l,go,l,1,0.48722483917418913,,,,,,,,,,,,,,,,58,001,22,w,Psychologie ,2023-01-24_10h33.51.592,00_bat_bachelor,2022.2.4,59.84182125267235,
,,,,,,,,,,,,1,0,1,0,61,0,61,0,,,,,,,61,,,0.2,6876.194131202408,X,d,go,d,1,0.3490058189566412,,,,,,,,,,,,,,,,58,001,22,w,Psychologie ,2023-01-24_10h33.51.592,00_bat_bachelor,2022.2.4,59.84182125267235,
,,,,,,,,,,,,1,0,1,0,62,0,62,0,,,,,,,62,,,0.2,6876.844567038127,X,None,nogo,None,1,,,,,,,,,,,,,,,,,58,001,22,w,Psychologie ,2023-01-24_10h33.51.592,00_bat_bachelor,2022.2.4,59.84182125267235,
,,,,,,,,,,,,1,0,1,0,63,0,63,0,,,,,,,63,,,0.2,6877.845751037641,Y,l,go,l,1,0.27455210591170953,,,,,,,,,,,,,,,,58,001,22,w,Psychologie ,2023-01-24_10h33.51.592,00_bat_bachelor,2022.2.4,59.84182125267235,
,,,,,,,,,,,,1,0,1,0,64,0,64,0,,,,,,,64,,,0.2,6878.42986772108,X,d,go,d,1,0.44101193505713354,,,,,,,,,,,,,,,,58,001,22,w,Psychologie ,2023-01-24_10h33.51.592,00_bat_bachelor,2022.2.4,59.84182125267235,
,,,,,,,,,,,,1,0,1,0,65,0,65,0,,,,,,,65,,,0.2,6879.180058592797,X,None,nogo,None,1,,,,,,,,,,,,,,,,,58,001,22,w,Psychologie ,2023-01-24_10h33.51.592,00_bat_bachelor,2022.2.4,59.84182125267235,
,,,,,,,,,,,,1,0,1,0,66,0,66,0,,,,,,,66,,,0.2,6880.18168156649,Y,l,go,l,1,0.33815577212527614,,,,,,,,,,,,,,,,58,001,22,w,Psychologie ,2023-01-24_10h33.51.592,00_bat_bachelor,2022.2.4,59.84182125267235,
,,,,,,,,,,,,1,0,1,0,67,0,67,0,,,,,,,67,,,0.2,6880.832008274048,X,d,go,d,1,0.5038361144109444,,,,,,,,,,,,,,,,58,001,22,w,Psychologie ,2023-01-24_10h33.51.592,00_bat_bachelor,2022.2.4,59.84182125267235,
,,,,,,,,,,,,1,0,1,0,68,0,68,0,,,,,,,68,,,0.2,6881.649671938597,Y,l,go,l,1,0.6137568898278118,,,,,,,,,,,,,,,,58,001,22,w,Psychologie ,2023-01-24_10h33.51.592,00_bat_bachelor,2022.2.4,59.84182125267235,
,,,,,,,,,,,,1,0,1,0,69,0,69,0,,,,,,,69,,,0.2,6882.567936587513,X,d,go,d,1,0.3042464527036941,,,,,,,,,,,,,,,,58,001,22,w,Psychologie ,2023-01-24_10h33.51.592,00_bat_bachelor,2022.2.4,59.84182125267235,
,,,,,,,,,,,,1,0,1,0,70,0,70,0,,,,,,,70,,,0.2,6883.184429873055,Y,l,go,None,0,,,,,,,,,,,,,,,,,58,001,22,w,Psychologie ,2023-01-24_10h33.51.592,00_bat_bachelor,2022.2.4,59.84182125267235,
,,,,,,,,,,,,1,0,1,0,71,0,71,0,,,,,,,71,,,0.2,6884.18559418027,X,d,go,d,1,0.39006713544341665,,,,,,,,,,,,,,,,58,001,22,w,Psychologie ,2023-01-24_10h33.51.592,00_bat_bachelor,2022.2.4,59.84182125267235,
,,,,,,,,,,,,1,0,1,0,72,0,72,0,,,,,,,72,,,0.2,6884.886255636408,X,None,nogo,None,1,,,,,,,,,,,,,,,,,58,001,22,w,Psychologie ,2023-01-24_10h33.51.592,00_bat_bachelor,2022.2.4,59.84182125267235,
,,,,,,,,,,,,1,0,1,0,73,0,73,0,,,,,,,73,,,0.2,6885.887344456474,Y,l,go,l,1,0.24074288901312002,,,,,,,,,,,,,,,,58,001,22,w,Psychologie ,2023-01-24_10h33.51.592,00_bat_bachelor,2022.2.4,59.84182125267235,
,,,,,,,,,,,,1,0,1,0,74,0,74,0,,,,,,,74,,,0.2,6886.437852948573,X,d,go,d,1,0.4578123384201831,,,,,,,,,,,,,,,,58,001,22,w,Psychologie ,2023-01-24_10h33.51.592,00_bat_bachelor,2022.2.4,59.84182125267235,
,,,,,,,,,,,,1,0,1,0,75,0,75,0,,,,,,,75,,,0.2,6887.205269659376,Y,l,go,l,1,0.3070788617981748,,,,,,,,,,,,,,,,58,001,22,w,Psychologie ,2023-01-24_10h33.51.592,00_bat_bachelor,2022.2.4,59.84182125267235,
,,,,,,,,,,,,1,0,1,0,76,0,76,0,,,,,,,76,,,0.2,6887.822807047054,X,d,go,d,1,0.32144890718456054,,,,,,,,,,,,,,,,58,001,22,w,Psychologie ,2023-01-24_10h33.51.592,00_bat_bachelor,2022.2.4,59.84182125267235,
,,,,,,,,,,,,1,0,1,0,77,0,77,0,,,,,,,77,,,0.2,6888.456388735841,Y,l,go,l,1,0.39152600663993553,,,,,,,,,,,,,,,,58,001,22,w,Psychologie ,2023-01-24_10h33.51.592,00_bat_bachelor,2022.2.4,59.84182125267235,
,,,,,,,,,,,,1,0,1,0,78,0,78,0,,,,,,,78,,,0.2,6889.15708506376,Y,None,nogo,None,1,,,,,,,,,,,,,,,,,58,001,22,w,Psychologie ,2023-01-24_10h33.51.592,00_bat_bachelor,2022.2.4,59.84182125267235,
,,,,,,,,,,,,1,0,1,0,79,0,79,0,,,,,,,79,,,0.2,6890.158558293925,X,d,go,d,1,0.27293282452438916,,,,,,,,,,,,,,,,58,001,22,w,Psychologie ,2023-01-24_10h33.51.592,00_bat_bachelor,2022.2.4,59.84182125267235,
,,,,,,,,,,,,1,0,1,0,80,0,80,0,,,,,,,80,,,0.2,6890.75888461174,Y,l,go,l,1,0.3292683911561767,,,,,,,,,,,,,,,,58,001,22,w,Psychologie ,2023-01-24_10h33.51.592,00_bat_bachelor,2022.2.4,59.84182125267235,
,,,,,,,,,,,,1,0,1,0,81,0,81,0,,,,,,,81,,,0.2,6891.392812556795,Y,None,nogo,None,1,,,,,,,,,,,,,,,,,58,001,22,w,Psychologie ,2023-01-24_10h33.51.592,00_bat_bachelor,2022.2.4,59.84182125267235,
,,,,,,,,,,,,1,0,1,0,82,0,82,0,,,,,,,82,,,0.2,6892.393768864095,X,d,go,d,1,0.2785467709393856,,,,,,,,,,,,,,,,58,001,22,w,Psychologie ,2023-01-24_10h33.51.592,00_bat_bachelor,2022.2.4,59.84182125267235,
,,,,,,,,,,,,1,0,1,0,83,0,83,0,,,,,,,83,,,0.2,6892.977670163007,Y,l,go,l,1,0.3744572956941852,,,,,,,,,,,,,,,,58,001,22,w,Psychologie ,2023-01-24_10h33.51.592,00_bat_bachelor,2022.2.4,59.84182125267235,
,,,,,,,,,,,,1,0,1,0,84,0,84,0,,,,,,,84,,,0.2,6893.661596036269,Y,None,nogo,None,1,,,,,,,,,,,,,,,,,58,001,22,w,Psychologie ,2023-01-24_10h33.51.592,00_bat_bachelor,2022.2.4,59.84182125267235,
,,,,,,,,,,,,1,0,1,0,85,0,85,0,,,,,,,85,,,0.2,6894.662695933253,X,d,go,d,1,0.24960442383900272,,,,,,,,,,,,,,,,58,001,22,w,Psychologie ,2023-01-24_10h33.51.592,00_bat_bachelor,2022.2.4,59.84182125267235,
,,,,,,,,,,,,1,0,1,0,86,0,86,0,,,,,,,86,,,0.2,6895.213524425221,Y,l,go,l,1,0.29817219878560763,,,,,,,,,,,,,,,,58,001,22,w,Psychologie ,2023-01-24_10h33.51.592,00_bat_bachelor,2022.2.4,59.84182125267235,
,,,,,,,,,,,,1,0,1,0,87,0,87,0,,,,,,,87,,,0.2,6895.814055460901,X,d,go,d,1,0.6657384069633849,,,,,,,,,,,,,,,,58,001,22,w,Psychologie ,2023-01-24_10h33.51.592,00_bat_bachelor,2022.2.4,59.84182125267235,
,,,,,,,,,,,,1,0,1,0,88,0,88,0,,,,,,,88,,,0.2,6896.781160294909,X,None,nogo,None,1,,,,,,,,,,,,,,,,,58,001,22,w,Psychologie ,2023-01-24_10h33.51.592,00_bat_bachelor,2022.2.4,59.84182125267235,
,,,,,,,,,,,,1,0,1,0,89,0,89,0,,,,,,,89,,,0.2,6897.782470243089,Y,l,go,l,1,0.2572823694075055,,,,,,,,,,,,,,,,58,001,22,w,Psychologie ,2023-01-24_10h33.51.592,00_bat_bachelor,2022.2.4,59.84182125267235,
,,,,,,,,,,,,1,0,1,0,90,0,90,0,,,,,,,90,,,0.2,6898.350275548605,X,d,go,d,1,0.5776617251488574,,,,,,,,,,,,,,,,58,001,22,w,Psychologie ,2023-01-24_10h33.51.592,00_bat_bachelor,2022.2.4,59.84182125267235,
,,,,,,,,,,,,1,0,1,0,91,0,91,0,,,,,,,91,,,0.2,6899.2339121091645,X,None,nogo,None,1,,,,,,,,,,,,,,,,,58,001,22,w,Psychologie ,2023-01-24_10h33.51.592,00_bat_bachelor,2022.2.4,59.84182125267235,
,,,,,,,,,,,,1,0,1,0,92,0,92,0,,,,,,,92,,,0.2,6900.234753954973,Y,l,go,l,1,0.3090538353465604,,,,,,,,,,,,,,,,58,001,22,w,Psychologie ,2023-01-24_10h33.51.592,00_bat_bachelor,2022.2.4,59.84182125267235,
,,,,,,,,,,,,1,0,1,0,93,0,93,0,,,,,,,93,,,0.2,6900.852247034976,X,d,go,d,1,0.36357647964479156,,,,,,,,,,,,,,,,58,001,22,w,Psychologie ,2023-01-24_10h33.51.592,00_bat_bachelor,2022.2.4,59.84182125267235,
,,,,,,,,,,,,1,0,1,0,94,0,94,0,,,,,,,94,,,0.2,6901.5194164022905,Y,l,go,l,1,0.3130037824451506,,,,,,,,,,,,,,,,58,001,22,w,Psychologie ,2023-01-24_10h33.51.592,00_bat_bachelor,2022.2.4,59.84182125267235,
,,,,,,,,,,,,1,0,1,0,95,0,95,0,,,,,,,95,,,0.2,6902.136825379765,X,d,go,d,1,0.3667096065649389,,,,,,,,,,,,,,,,58,001,22,w,Psychologie ,2023-01-24_10h33.51.592,00_bat_bachelor,2022.2.4,59.84182125267235,
,,,,,,,,,,,,1,0,1,0,96,0,96,0,,,,,,,96,,,0.2,6902.804094439346,Y,l,go,l,1,0.33121956984297185,,,,,,,,,,,,,,,,58,001,22,w,Psychologie ,2023-01-24_10h33.51.592,00_bat_bachelor,2022.2.4,59.84182125267235,
,,,,,,,,,,,,1,0,1,0,97,0,97,0,,,,,,,97,,,0.2,6903.438186486898,X,d,go,d,1,0.29764009644014777,,,,,,,,,,,,,,,,58,001,22,w,Psychologie ,2023-01-24_10h33.51.592,00_bat_bachelor,2022.2.4,59.84182125267235,
,,,,,,,,,,,,1,0,1,0,98,0,98,0,,,,,,,98,,,0.2,6904.038806958439,Y,l,go,l,1,0.2968954813607638,,,,,,,,,,,,,,,,58,001,22,w,Psychologie ,2023-01-24_10h33.51.592,00_bat_bachelor,2022.2.4,59.84182125267235,
,,,,,,,,,,,,1,0,1,0,99,0,99,0,,,,,,,99,,,0.2,6904.639264558251,X,d,go,d,1,0.27306656805950524,,,,,,,,,,,,,,,,58,001,22,w,Psychologie ,2023-01-24_10h33.51.592,00_bat_bachelor,2022.2.4,59.84182125267235,
,,,,,,,,,,,,1,0,1,0,100,0,100,0,,,,,,,100,,,0.2,6905.223308626335,Y,l,go,l,1,0.28089794946237134,,,,,,,,,,,,,,,,58,001,22,w,Psychologie ,2023-01-24_10h33.51.592,00_bat_bachelor,2022.2.4,59.84182125267235,
,,,,,,,,,,,,1,0,1,0,101,0,101,0,,,,,,,101,,,0.2,6905.807244386771,Y,None,nogo,d,0,0.3127888081738206,,,,,,,,,,,,,,,,58,001,22,w,Psychologie ,2023-01-24_10h33.51.592,00_bat_bachelor,2022.2.4,59.84182125267235,
,,,,,,,,,,,,1,0,1,0,102,0,102,0,,,,,,,102,,,0.2,6906.424283313115,X,d,go,d,1,0.43100824685308226,,,,,,,,,,,,,,,,58,001,22,w,Psychologie ,2023-01-24_10h33.51.592,00_bat_bachelor,2022.2.4,59.84182125267235,
,,,,,,,,,,,,1,0,1,0,103,0,103,0,,,,,,,103,,,0.2,6907.158545575981,Y,l,go,l,1,0.3140454230427281,,,,,,,,,,,,,,,,58,001,22,w,Psychologie ,2023-01-24_10h33.51.592,00_bat_bachelor,2022.2.4,59.84182125267235,
,,,,,,,,,,,,1,0,1,0,104,0,104,0,,,,,,,104,,,0.2,6907.775769117633,X,d,go,d,1,0.2648175458028277,,,,,,,,,,,,,,,,58,001,22,w,Psychologie ,2023-01-24_10h33.51.592,00_bat_bachelor,2022.2.4,59.84182125267235,
,,,,,,,,,,,,1,0,1,0,105,0,105,0,,,,,,,105,,,0.2,6908.342989397748,Y,l,go,l,1,0.32063742033761855,,,,,,,,,,,,,,,,58,001,22,w,Psychologie ,2023-01-24_10h33.51.592,00_bat_bachelor,2022.2.4,59.84182125267235,
,,,,,,,,,,,,1,0,1,0,106,0,106,0,,,,,,,106,,,0.2,6908.976892317172,Y,None,nogo,None,1,,,,,,,,,,,,,,,,,58,001,22,w,Psychologie ,2023-01-24_10h33.51.592,00_bat_bachelor,2022.2.4,59.84182125267235,
,,,,,,,,,,,,1,0,1,0,107,0,107,0,,,,,,,107,,,0.2,6909.9779113936775,X,d,go,d,1,0.34175987321151524,,,,,,,,,,,,,,,,58,001,22,w,Psychologie ,2023-01-24_10h33.51.592,00_bat_bachelor,2022.2.4,59.84182125267235,
,,,,,,,,,,,,1,0,1,0,108,0,108,0,,,,,,,108,,,0.2,6910.628718101039,Y,l,go,l,1,0.2991506599231002,,,,,,,,,,,,,,,,58,001,22,w,Psychologie ,2023-01-24_10h33.51.592,00_bat_bachelor,2022.2.4,59.84182125267235,
,,,,,,,,,,,,1,0,1,0,109,0,109,0,,,,,,,109,,,0.2,6911.229423495622,Y,None,nogo,None,1,,,,,,,,,,,,,,,,,58,001,22,w,Psychologie ,2023-01-24_10h33.51.592,00_bat_bachelor,2022.2.4,59.84182125267235,
,,,,,,,,,,,,1,0,1,0,110,0,110,0,,,,,,,110,,,0.2,6912.230324418329,X,d,go,d,1,0.3452121794874188,,,,,,,,,,,,,,,,58,001,22,w,Psychologie ,2023-01-24_10h33.51.592,00_bat_bachelor,2022.2.4,59.84182125267235,
,,,,,,,,,,,,1,0,1,0,111,0,111,0,,,,,,,111,,,0.2,6912.880939125769,Y,l,go,l,1,0.31920808759178954,,,,,,,,,,,,,,,,58,001,22,w,Psychologie ,2023-01-24_10h33.51.592,00_bat_bachelor,2022.2.4,59.84182125267235,
,,,,,,,,,,,,1,0,1,0,112,0,112,0,,,,,,,112,,,0.2,6913.514885532355,X,d,go,d,1,0.38160601070950406,,,,,,,,,,,,,,,,58,001,22,w,Psychologie ,2023-01-24_10h33.51.592,00_bat_bachelor,2022.2.4,59.84182125267235,
,,,,,,,,,,,,1,0,1,0,113,0,113,0,,,,,,,113,,,0.2,6914.198830277403,Y,l,go,l,1,0.329143263002436,,,,,,,,,,,,,,,,58,001,22,w,Psychologie ,2023-01-24_10h33.51.592,00_bat_bachelor,2022.2.4,59.84182125267235,
,,,,,,,,,,,,1,0,1,0,114,0,114,0,,,,,,,114,,,0.2,6914.832845196782,X,d,go,d,1,0.3588778149062932,,,,,,,,,,,,,,,,58,001,22,w,Psychologie ,2023-01-24_10h33.51.592,00_bat_bachelor,2022.2.4,59.84182125267235,
,,,,,,,,,,,,1,0,1,0,115,0,115,0,,,,,,,115,,,0.2,6915.499931692336,Y,l,go,l,1,0.30802942551082424,,,,,,,,,,,,,,,,58,001,22,w,Psychologie ,2023-01-24_10h33.51.592,00_bat_bachelor,2022.2.4,59.84182125267235,
,,,,,,,,,,,,1,0,1,0,116,0,116,0,,,,,,,116,,,0.2,6916.117577387661,Y,None,nogo,None,1,,,,,,,,,,,,,,,,,58,001,22,w,Psychologie ,2023-01-24_10h33.51.592,00_bat_bachelor,2022.2.4,59.84182125267235,
,,,,,,,,,,,,1,0,1,0,117,0,117,0,,,,,,,117,,,0.2,6917.118423336032,X,d,go,None,0,,,,,,,,,,,,,,,,,58,001,22,w,Psychologie ,2023-01-24_10h33.51.592,00_bat_bachelor,2022.2.4,59.84182125267235,
,,,,,,,,,,,,1,0,1,0,118,0,118,0,,,,,,,118,,,0.2,6918.119457592018,Y,l,go,l,1,0.27174513270466605,,,,,,,,,,,,,,,,58,001,22,w,Psychologie ,2023-01-24_10h33.51.592,00_bat_bachelor,2022.2.4,59.84182125267235,
,,,,,,,,,,,,1,0,1,0,119,0,119,0,,,,,,,119,,,0.2,6918.703513147277,X,d,go,d,1,0.5447595848011701,,,,,,,,,,,,,,,,58,001,22,w,Psychologie ,2023-01-24_10h33.51.592,00_bat_bachelor,2022.2.4,59.84182125267235,
,,,,,,,,,,,,1,0,1,0,120,0,120,0,,,,,,,120,,,0.2,6919.554327977712,Y,l,go,l,1,0.45420618605413665,,,,,,,,,,,,,,,,58,001,22,w,Psychologie ,2023-01-24_10h33.51.592,00_bat_bachelor,2022.2.4,59.84182125267235,
,,,,,,,,,,,,1,0,1,0,121,0,121,0,,,,,,,121,,,0.2,6920.321660996242,X,d,go,d,1,0.3658435556383779,,,,,,,,,,,,,,,,58,001,22,w,Psychologie ,2023-01-24_10h33.51.592,00_bat_bachelor,2022.2.4,59.84182125267235,
,,,,,,,,,,,,1,0,1,0,122,0,122,0,,,,,,,122,,,0.2,6920.988906260962,Y,l,go,l,1,0.4034743094310329,,,,,,,,,,,,,,,,58,001,22,w,Psychologie ,2023-01-24_10h33.51.592,00_bat_bachelor,2022.2.4,59.84182125267235,
,,,,,,,,,,,,1,0,1,0,123,0,123,0,,,,,,,123,,,0.2,6921.706186787205,Y,None,nogo,None,1,,,,,,,,,,,,,,,,,58,001,22,w,Psychologie ,2023-01-24_10h33.51.592,00_bat_bachelor,2022.2.4,59.84182125267235,
,,,,,,,,,,,,1,0,1,0,124,0,124,0,,,,,,,124,,,0.2,6922.7073736585135,X,d,go,d,1,0.28461281973278574,,,,,,,,,,,,,,,,58,001,22,w,Psychologie ,2023-01-24_10h33.51.592,00_bat_bachelor,2022.2.4,59.84182125267235,
,,,,,,,,,,,,1,0,1,0,125,0,125,0,,,,,,,125,,,0.2,6923.308136899226,Y,l,go,l,1,0.5959562817454866,,,,,,,,,,,,,,,,58,001,22,w,Psychologie ,2023-01-24_10h33.51.592,00_bat_bachelor,2022.2.4,59.84182125267235,
,,,,,,,,,,,,1,0,1,0,126,0,126,0,,,,,,,126,,,0.2,6924.208813452795,Y,None,nogo,d,0,0.31116788576156296,,,,,,,,,,,,,,,,58,001,22,w,Psychologie ,2023-01-24_10h33.51.592,00_bat_bachelor,2022.2.4,59.84182125267235,
,,,,,,,,,,,,1,0,1,0,127,0,127,0,,,,,,,127,,,0.2,6924.826376686615,X,d,go,d,1,0.35798714860476366,,,,,,,,,,,,,,,,58,001,22,w,Psychologie ,2023-01-24_10h33.51.592,00_bat_bachelor,2022.2.4,59.84182125267235,
,,,,,,,,,,,,1,0,1,0,128,0,128,0,,,,,,,128,,,0.2,6925.493472618063,Y,l,go,l,1,0.322096701791736,,,,,,,,,,,,,,,,58,001,22,w,Psychologie ,2023-01-24_10h33.51.592,00_bat_bachelor,2022.2.4,59.84182125267235,
,,,,,,,,,,,,1,0,1,0,129,0,129,0,,,,,,,129,,,0.2,6926.127537588703,X,d,go,d,1,0.3928958522322432,,,,,,,,,,,,,,,,58,001,22,w,Psychologie ,2023-01-24_10h33.51.592,00_bat_bachelor,2022.2.4,59.84182125267235,
,,,,,,,,,,,,1,0,1,0,130,0,130,0,,,,,,,130,,,0.2,6926.82827453199,X,None,nogo,None,1,,,,,,,,,,,,,,,,,58,001,22,w,Psychologie ,2023-01-24_10h33.51.592,00_bat_bachelor,2022.2.4,59.84182125267235,
,,,,,,,,,,,,1,0,1,0,131,0,131,0,,,,,,,131,,,0.2,6927.8298893005585,Y,l,go,l,1,0.2493287316449937,,,,,,,,,,,,,,,,58,001,22,w,Psychologie ,2023-01-24_10h33.51.592,00_bat_bachelor,2022.2.4,59.84182125267235,
,,,,,,,,,,,,1,0,1,0,132,0,132,0,,,,,,,132,,,0.2,6928.4135284457325,X,d,go,d,1,0.650140874901183,,,,,,,,,,,,,,,,58,001,22,w,Psychologie ,2023-01-24_10h33.51.592,00_bat_bachelor,2022.2.4,59.84182125267235,
,,,,,,,,,,,,1,0,1,0,133,0,133,0,,,,,,,133,,,0.2,6929.363969491705,Y,l,go,l,1,0.3074870667590517,,,,,,,,,,,,,,,,58,001,22,w,Psychologie ,2023-01-24_10h33.51.592,00_bat_bachelor,2022.2.4,59.84182125267235,
,,,,,,,,,,,,1,0,1,0,134,0,134,0,,,,,,,134,,,0.2,6929.981270982043,Y,None,nogo,None,1,,,,,,,,,6930.781962345862,,,,,,,,58,001,22,w,Psychologie ,2023-01-24_10h33.51.592,00_bat_bachelor,2022.2.4,59.84182125267235,
,,,,,,,,,,,,1,0,1,0,135,0,135,0,,,,,,,135,,,0.2,6930.982350776471,X,d,go,d,1,0.02509497748388867,,,,,,,,,,,,,,,,58,001,22,w,Psychologie ,2023-01-24_10h33.51.592,00_bat_bachelor,2022.2.4,59.84182125267235,
,,,,,,,,,,,,1,0,1,0,136,0,136,0,,,,,,,136,,,0.2,6931.315939562692,Y,l,go,l,1,0.4999805262489758,,,,,,,,,,,,,,,,58,001,22,w,Psychologie ,2023-01-24_10h33.51.592,00_bat_bachelor,2022.2.4,59.84182125267235,
,,,,,,,,,,,,1,0,1,0,137,0,137,0,,,,,,,137,,,0.2,6932.116835234119,X,d,go,d,1,0.40334179666416503,,,,,,,,,,,,,,,,58,001,22,w,Psychologie ,2023-01-24_10h33.51.592,00_bat_bachelor,2022.2.4,59.84182125267235,
,,,,,,,,,,,,1,0,1,0,138,0,138,0,,,,,,,138,,,0.2,6932.83401893989,X,None,nogo,None,1,,,,,,,,,,,,,,,,,58,001,22,w,Psychologie ,2023-01-24_10h33.51.592,00_bat_bachelor,2022.2.4,59.84182125267235,
,,,,,,,,,,,,1,0,1,0,139,0,139,0,,,,,,,139,,,0.2,6933.835141400968,X,None,nogo,None,1,,,,,,,,,,,,,,,,,58,001,22,w,Psychologie ,2023-01-24_10h33.51.592,00_bat_bachelor,2022.2.4,59.84182125267235,
,,,,,,,,,,,,1,0,1,0,140,0,140,0,,,,,,,140,,,0.2,6934.836667143932,Y,l,go,d,0,0.3153717814732886,,,,,,,,,,,,,,,,58,001,22,w,Psychologie ,2023-01-24_10h33.51.592,00_bat_bachelor,2022.2.4,59.84182125267235,
,,,,,,,,,,,,1,0,1,0,141,0,141,0,,,,,,,141,,,0.2,6935.47018319172,X,d,go,None,0,,,,,,,,,,,,,,,,,58,001,22,w,Psychologie ,2023-01-24_10h33.51.592,00_bat_bachelor,2022.2.4,59.84182125267235,
,,,,,,,,,,,,1,0,1,0,142,0,142,0,,,,,,,142,,,0.2,6936.471269139993,X,None,nogo,d,0,0.31340091048724616,,,,,,,,,,,,,,,,58,001,22,w,Psychologie ,2023-01-24_10h33.51.592,00_bat_bachelor,2022.2.4,59.84182125267235,
,,,,,,,,,,,,1,0,1,0,143,0,143,0,,,,,,,143,,,0.2,6937.088420476545,Y,l,go,l,1,0.44730854785785823,,,,,,,,,,,,,,,,58,001,22,w,Psychologie ,2023-01-24_10h33.51.592,00_bat_bachelor,2022.2.4,59.84182125267235,
,,,,,,,,,,,,1,0,1,0,144,0,144,0,,,,,,,144,,,0.2,6937.83920868135,X,d,go,d,1,0.33660541378714015,,,,,,,,,,,,,,,,58,001,22,w,Psychologie ,2023-01-24_10h33.51.592,00_bat_bachelor,2022.2.4,59.84182125267235,
,,,,,,,,,,,,1,0,1,0,145,0,145,0,,,,,,,145,,,0.2,6938.489725747805,Y,l,go,l,1,0.3419116680209413,,,,,,,,,,,,,,,,58,001,22,w,Psychologie ,2023-01-24_10h33.51.592,00_bat_bachelor,2022.2.4,59.84182125267235,
,,,,,,,,,,,,1,0,1,0,146,0,146,0,,,,,,,146,,,0.2,6939.140638301277,Y,None,nogo,None,1,,,,,,,,,,,,,,,,,58,001,22,w,Psychologie ,2023-01-24_10h33.51.592,00_bat_bachelor,2022.2.4,59.84182125267235,
,,,,,,,,,,,,1,0,1,0,147,0,147,0,,,,,,,147,,,0.2,6940.1417759418355,X,d,go,d,1,0.010664624429693959,,,,,,,,,,,,,,,,58,001,22,w,Psychologie ,2023-01-24_10h33.51.592,00_bat_bachelor,2022.2.4,59.84182125267235,
,,,,,,,,,,,,1,0,1,0,148,0,148,0,,,,,,,148,,,0.2,6940.458553247773,Y,l,go,l,1,0.4931399136706318,,,,,,,,,,,,,,,,58,001,22,w,Psychologie ,2023-01-24_10h33.51.592,00_bat_bachelor,2022.2.4,59.84182125267235,
,,,,,,,,,,,,1,0,1,0,149,0,149,0,,,,,,,149,,,0.2,6941.2591395859945,Y,None,nogo,None,1,,,,,,,,,,,,,,,,,58,001,22,w,Psychologie ,2023-01-24_10h33.51.592,00_bat_bachelor,2022.2.4,59.84182125267235,
,,,,,,,,,,,,1,0,1,0,150,0,150,0,,,,,,,150,,,0.2,6942.2601697394175,Y,None,nogo,None,1,,,,,,,,,,,,,,,,,58,001,22,w,Psychologie ,2023-01-24_10h33.51.592,00_bat_bachelor,2022.2.4,59.84182125267235,
,,,,,,,,,,,,1,0,1,0,151,0,151,0,,,,,,,151,,,0.2,6943.261217123603,X,d,go,d,1,0.3378501312257072,,,,,,,,,,,,,,,,58,001,22,w,Psychologie ,2023-01-24_10h33.51.592,00_bat_bachelor,2022.2.4,59.84182125267235,
,,,,,,,,,,,,1,0,1,0,152,0,152,0,,,,,,,152,,,0.2,6943.911748959283,Y,l,go,l,1,0.392067955136838,,,,,,,,,,,,,,,,58,001,22,w,Psychologie ,2023-01-24_10h33.51.592,00_bat_bachelor,2022.2.4,59.84182125267235,
,,,,,,,,,,,,1,0,1,0,153,0,153,0,,,,,,,153,,,0.2,6944.61280795372,Y,None,nogo,d,0,0.2513192949302834,,,,,,,,,,,,,,,,58,001,22,w,Psychologie ,2023-01-24_10h33.51.592,00_bat_bachelor,2022.2.4,59.84182125267235,
,,,,,,,,,,,,1,0,1,0,154,0,154,0,,,,,,,154,,,0.2,6945.179844028782,X,d,go,None,0,,,,,,,,,,,,,,,,,58,001,22,w,Psychologie ,2023-01-24_10h33.51.592,00_bat_bachelor,2022.2.4,59.84182125267235,
,,,,,,,,,,,,1,0,1,0,155,0,155,0,,,,,,,155,,,0.2,6946.18082248992,Y,l,go,None,0,,,,,,,,,,,,,,,,,58,001,22,w,Psychologie ,2023-01-24_10h33.51.592,00_bat_bachelor,2022.2.4,59.84182125267235,
,,,,,,,,,,,,1,0,1,0,156,0,156,0,,,,,,,156,,,0.2,6947.181787822857,X,d,go,None,0,,,,,,,,,,,,,,,,,58,001,22,w,Psychologie ,2023-01-24_10h33.51.592,00_bat_bachelor,2022.2.4,59.84182125267235,
,,,,,,,,,,,,1,0,1,0,157,0,157,0,,,,,,,157,,,0.2,6948.18283766858,Y,l,go,l,1,0.21716341150778362,,,,,,,,,,,,,,,,58,001,22,w,Psychologie ,2023-01-24_10h33.51.592,00_bat_bachelor,2022.2.4,59.84182125267235,
,,,,,,,,,,,,1,0,1,0,158,0,158,0,,,,,,,158,,,0.2,6948.700117456362,X,d,go,d,1,0.3720773992347972,,,,,,,,,,,,,,,,58,001,22,w,Psychologie ,2023-01-24_10h33.51.592,00_bat_bachelor,2022.2.4,59.84182125267235,
,,,,,,,,,,,,1,0,1,0,159,0,159,0,,,,,,,159,,,0.2,6949.384003124512,Y,l,go,l,1,0.38400477895658014,,,,,,,,,,,,,,,,58,001,22,w,Psychologie ,2023-01-24_10h33.51.592,00_bat_bachelor,2022.2.4,59.84182125267235,
,,,,,,,,,,,,1,0,1,0,160,0,160,0,,,,,,,160,,,0.2,6950.068296587366,X,d,go,d,1,0.33983946374274865,,,,,,,,,,,,,,,,58,001,22,w,Psychologie ,2023-01-24_10h33.51.592,00_bat_bachelor,2022.2.4,59.84182125267235,
,,,,,,,,,,,,1,0,1,0,161,0,161,0,,,,,,,161,,,0.2,6950.718953961455,Y,l,go,l,1,0.35330735565304394,,,,,,,,,,,,,,,,58,001,22,w,Psychologie ,2023-01-24_10h33.51.592,00_bat_bachelor,2022.2.4,59.84182125267235,
,,,,,,,,,,,,1,0,1,0,162,0,162,0,,,,,,,162,,,0.2,6951.386195123612,X,d,go,d,1,0.3098866555176869,,,,,,,,,,,,,,,,58,001,22,w,Psychologie ,2023-01-24_10h33.51.592,00_bat_bachelor,2022.2.4,59.84182125267235,
,,,,,,,,,,,,1,0,1,0,163,0,163,0,,,,,,,163,,,0.2,6952.003218460219,X,None,nogo,None,1,,,,,,,,,,,,,,,,,58,001,22,w,Psychologie ,2023-01-24_10h33.51.592,00_bat_bachelor,2022.2.4,59.84182125267235,
,,,,,,,,,,,,1,0,1,0,164,0,164,0,,,,,,,164,,,0.2,6953.004281434141,Y,l,go,l,1,0.35499843188273417,,,,,,,,,,,,,,,,58,001,22,w,Psychologie ,2023-01-24_10h33.51.592,00_bat_bachelor,2022.2.4,59.84182125267235,
,,,,,,,,,,,,1,0,1,0,165,0,165,0,,,,,,,165,,,0.2,6953.671481570675,X,d,go,d,1,0.40806097421619825,,,,,,,,,,,,,,,,58,001,22,w,Psychologie ,2023-01-24_10h33.51.592,00_bat_bachelor,2022.2.4,59.84182125267235,
,,,,,,,,,,,,1,0,1,0,166,0,166,0,,,,,,,166,,,0.2,6954.388983635289,X,None,nogo,l,0,0.30697014389380683,,,,,,,,,,,,,,,,58,001,22,w,Psychologie ,2023-01-24_10h33.51.592,00_bat_bachelor,2022.2.4,59.84182125267235,
,,,,,,,,,,,,1,0,1,0,167,0,167,0,,,,,,,167,,,0.2,6955.006163279523,Y,l,go,None,0,,,,,,,,,,,,,,,,,58,001,22,w,Psychologie ,2023-01-24_10h33.51.592,00_bat_bachelor,2022.2.4,59.84182125267235,
,,,,,,,,,,,,1,0,1,0,168,0,168,0,,,,,,,168,,,0.2,6956.007331279044,X,d,go,None,0,,,,,,,,,,,,,,,,,58,001,22,w,Psychologie ,2023-01-24_10h33.51.592,00_bat_bachelor,2022.2.4,59.84182125267235,
,,,,,,,,,,,,1,0,1,0,169,0,169,0,,,,,,,169,,,0.2,6957.008373329898,Y,l,go,None,0,,,,,,,,,,,,,,,,,58,001,22,w,Psychologie ,2023-01-24_10h33.51.592,00_bat_bachelor,2022.2.4,59.84182125267235,
,,,,,,,,,,,,1,0,1,0,170,0,170,0,,,,,,,170,,,0.2,6958.009570867868,X,d,go,d,1,0.5020104741336695,,,,,,,,,,,,,,,,58,001,22,w,Psychologie ,2023-01-24_10h33.51.592,00_bat_bachelor,2022.2.4,59.84182125267235,
,,,,,,,,,,,,1,0,1,0,171,0,171,0,,,,,,,171,,,0.2,6958.826723763395,X,None,nogo,None,1,,,,,,,,,,,,,,,,,58,001,22,w,Psychologie ,2023-01-24_10h33.51.592,00_bat_bachelor,2022.2.4,59.84182125267235,
,,,,,,,,,,,,1,0,1,0,172,0,172,0,,,,,,,172,,,0.2,6959.827842532168,Y,l,go,d,0,0.019613543835760083,,,,,,,,,,,,,,,,58,001,22,w,Psychologie ,2023-01-24_10h33.51.592,00_bat_bachelor,2022.2.4,59.84182125267235,
,,,,,,,,,,,,1,0,1,0,173,0,173,0,,,,,,,173,,,0.2,6960.161630702921,X,d,go,d,1,0.5587123995904335,,,,,,,,,,,,,,,,58,001,22,w,Psychologie ,2023-01-24_10h33.51.592,00_bat_bachelor,2022.2.4,59.84182125267235,
,,,,,,,,,,,,1,0,1,0,174,0,174,0,,,,,,,174,,,0.2,6961.028983372725,X,None,nogo,d,0,0.49095201713254255,,,,,,,,,,,,,,,,58,001,22,w,Psychologie ,2023-01-24_10h33.51.592,00_bat_bachelor,2022.2.4,59.84182125267235,
,,,,,,,,,,,,1,0,1,0,175,0,175,0,,,,,,,175,,,0.2,6961.829708787812,Y,l,go,l,1,0.43337009203725074,,,,,,,,,,,,,,,,58,001,22,w,Psychologie ,2023-01-24_10h33.51.592,00_bat_bachelor,2022.2.4,59.84182125267235,
,,,,,,,,,,,,1,0,1,0,176,0,176,0,,,,,,,176,,,0.2,6962.563798743057,X,d,go,d,1,0.3083883997226735,,,,,,,,,,,,,,,,58,001,22,w,Psychologie ,2023-01-24_10h33.51.592,00_bat_bachelor,2022.2.4,59.84182125267235,
,,,,,,,,,,,,1,0,1,0,177,0,177,0,,,,,,,177,,,0.2,6963.181398079427,X,None,nogo,None,1,,,,,,,,,,,,,,,,,58,001,22,w,Psychologie ,2023-01-24_10h33.51.592,00_bat_bachelor,2022.2.4,59.84182125267235,
,,,,,,,,,,,,1,0,1,0,178,0,178,0,,,,,,,178,,,0.2,6964.1821668996245,Y,l,go,l,1,0.2897603048007227,,,,,,,,,,,,,,,,58,001,22,w,Psychologie ,2023-01-24_10h33.51.592,00_bat_bachelor,2022.2.4,59.84182125267235,
,,,,,,,,,,,,1,0,1,0,179,0,179,0,,,,,,,179,,,0.2,6964.783326447867,X,d,go,d,1,0.4330246562824982,,,,,,,,,,,,,,,,58,001,22,w,Psychologie ,2023-01-24_10h33.51.592,00_bat_bachelor,2022.2.4,59.84182125267235,
,,,,,,,,,,,,1,0,1,0,180,0,180,0,,,,,,,180,,,0.2,6965.516904403322,Y,l,go,l,1,0.32276911177115153,,,,,,,,,,,,,,,,58,001,22,w,Psychologie ,2023-01-24_10h33.51.592,00_bat_bachelor,2022.2.4,59.84182125267235,
,,,,,,,,,,,,1,0,1,0,181,0,181,0,,,,,,,181,,,0.2,6966.150903732962,X,d,go,d,1,0.3603658142959034,,,,,,,,,,,,,,,,58,001,22,w,Psychologie ,2023-01-24_10h33.51.592,00_bat_bachelor,2022.2.4,59.84182125267235,
,,,,,,,,,,,,1,0,1,0,182,0,182,0,,,,,,,182,,,0.2,6966.8182503309745,Y,l,go,l,1,0.34887125490905646,,,,,,,,,,,,,,,,58,001,22,w,Psychologie ,2023-01-24_10h33.51.592,00_bat_bachelor,2022.2.4,59.84182125267235,
,,,,,,,,,,,,1,0,1,0,183,0,183,0,,,,,,,183,,,0.2,6967.468897858914,X,d,go,d,1,0.2828089230363844,,,,,,,,,,,,,,,,58,001,22,w,Psychologie ,2023-01-24_10h33.51.592,00_bat_bachelor,2022.2.4,59.84182125267235,
,,,,,,,,,,,,1,0,1,0,184,0,184,0,,,,,,,184,,,0.2,6968.052538645113,X,None,nogo,l,0,0.33078469822731904,,,,,,,,,,,,,,,,58,001,22,w,Psychologie ,2023-01-24_10h33.51.592,00_bat_bachelor,2022.2.4,59.84182125267235,
,,,,,,,,,,,,1,0,1,0,185,0,185,0,,,,,,,185,,,0.2,6968.6867299746755,Y,l,go,l,1,0.48945006903096555,,,,,,,,,,,,,,,,58,001,22,w,Psychologie ,2023-01-24_10h33.51.592,00_bat_bachelor,2022.2.4,59.84182125267235,
,,,,,,,,,,,,1,0,1,0,186,0,186,0,,,,,,,186,,,0.2,6969.48763467174,X,d,go,d,1,0.42422465989267266,,,,,,,,,,,,,,,,58,001,22,w,Psychologie ,2023-01-24_10h33.51.592,00_bat_bachelor,2022.2.4,59.84182125267235,
,,,,,,,,,,,,1,0,1,0,187,0,187,0,,,,,,,187,,,0.2,6970.222052421723,X,None,nogo,None,1,,,,,,,,,6971.022356503649,,,,,,,,58,001,22,w,Psychologie ,2023-01-24_10h33.51.592,00_bat_bachelor,2022.2.4,59.84182125267235,
,,,,,,,,,,,,1,0,1,0,188,0,188,0,,,,,,,188,,,0.2,6971.222442575408,Y,l,go,l,1,0.2893541511214721,,,,,,,,,,,,,,,,58,001,22,w,Psychologie ,2023-01-24_10h33.51.592,00_bat_bachelor,2022.2.4,59.84182125267235,
,,,,,,,,,,,,1,0,1,0,189,0,189,0,,,,,,,189,,,0.2,6971.823115559748,X,d,go,d,1,0.4083399484600818,,,,,,,,,,,,,,,,58,001,22,w,Psychologie ,2023-01-24_10h33.51.592,00_bat_bachelor,2022.2.4,59.84182125267235,
,,,,,,,,,,,,1,0,1,0,190,0,190,0,,,,,,,190,,,0.2,6972.540581521813,Y,l,go,l,1,0.3634603771291154,,,,,,,,,,,,,,,,58,001,22,w,Psychologie ,2023-01-24_10h33.51.592,00_bat_bachelor,2022.2.4,59.84182125267235,
,,,,,,,,,,,,1,0,1,0,191,0,191,0,,,,,,,191,,,0.2,6973.207927299312,Y,None,nogo,d,0,0.37631575647111504,,,,,,,,,,,,,,,,58,001,22,w,Psychologie ,2023-01-24_10h33.51.592,00_bat_bachelor,2022.2.4,59.84182125267235,
,,,,,,,,,,,,1,0,1,0,192,0,192,0,,,,,,,192,,,0.2,6973.891987736621,Y,None,nogo,None,1,,,,,,,,,,,,,,,,,58,001,22,w,Psychologie ,2023-01-24_10h33.51.592,00_bat_bachelor,2022.2.4,59.84182125267235,
,,,,,,,,,,,,1,0,1,0,193,0,193,0,,,,,,,193,,,0.2,6974.893317787357,X,d,go,None,0,,,,,,,,,6975.693977971701,,,,,,,,58,001,22,w,Psychologie ,2023-01-24_10h33.51.592,00_bat_bachelor,2022.2.4,59.84182125267235,
,,,,,,,,,,,,1,0,1,0,194,0,194,0,,,,,,,194,,,0.2,6975.894006197331,Y,l,go,None,0,,,,,,,,,,,,,,,,,58,001,22,w,Psychologie ,2023-01-24_10h33.51.592,00_bat_bachelor,2022.2.4,59.84182125267235,
,,,,,,,,,,,,1,0,1,0,195,0,195,0,,,,,,,195,,,0.2,6976.894797581622,X,d,go,None,0,,,,,,,,,,,,,,,,,58,001,22,w,Psychologie ,2023-01-24_10h33.51.592,00_bat_bachelor,2022.2.4,59.84182125267235,
,,,,,,,,,,,,1,0,1,0,196,0,196,0,,,,,,,196,,,0.2,6977.895675940235,Y,l,go,None,0,,,,,,,,,,,,,,,,,58,001,22,w,Psychologie ,2023-01-24_10h33.51.592,00_bat_bachelor,2022.2.4,59.84182125267235,
,,,,,,,,,,,,1,0,1,0,197,0,197,0,,,,,,,197,,,0.2,6978.896832862838,X,d,go,d,1,0.31121383446071604,,,,,,,,,,,,,,,,58,001,22,w,Psychologie ,2023-01-24_10h33.51.592,00_bat_bachelor,2022.2.4,59.84182125267235,
,,,,,,,,,,,,1,0,1,0,198,0,198,0,,,,,,,198,,,0.2,6979.514241430055,X,None,nogo,None,1,,,,,,,,,,,,,,,,,58,001,22,w,Psychologie ,2023-01-24_10h33.51.592,00_bat_bachelor,2022.2.4,59.84182125267235,
,,,,,,,,,,,,1,0,1,0,199,0,199,0,,,,,,,199,,,0.2,6980.515171480955,Y,l,go,None,0,,,,,,,,,,,,,,,,,58,001,22,w,Psychologie ,2023-01-24_10h33.51.592,00_bat_bachelor,2022.2.4,59.84182125267235,
,,,,,,,,,,,,1,0,1,0,200,0,200,0,,,,,,,200,,,0.2,6981.516135583124,X,d,go,None,0,,,,,,,,,,,,,,,,,58,001,22,w,Psychologie ,2023-01-24_10h33.51.592,00_bat_bachelor,2022.2.4,59.84182125267235,
,,,,,,,,,,,,1,0,1,0,201,0,201,0,,,,,,,201,,,0.2,6982.517227274984,X,None,nogo,None,1,,,,,,,,,,,,,,,,,58,001,22,w,Psychologie ,2023-01-24_10h33.51.592,00_bat_bachelor,2022.2.4,59.84182125267235,
,,,,,,,,,,,,1,0,1,0,202,0,202,0,,,,,,,202,,,0.2,6983.518147889991,Y,l,go,d,0,0.20947315825134183,,,,,,,,,,,,,,,,58,001,22,w,Psychologie ,2023-01-24_10h33.51.592,00_bat_bachelor,2022.2.4,59.84182125267235,
,,,,,,,,,,,,1,0,1,0,203,0,203,0,,,,,,,203,,,0.2,6984.035458036736,X,d,go,d,1,0.323986342040655,,,,,,,,,,,,,,,,58,001,22,w,Psychologie ,2023-01-24_10h33.51.592,00_bat_bachelor,2022.2.4,59.84182125267235,
,,,,,,,,,,,,1,0,1,0,204,0,204,0,,,,,,,204,,,0.2,6984.669248956206,X,None,nogo,None,1,,,,,,,,,,,,,,,,,58,001,22,w,Psychologie ,2023-01-24_10h33.51.592,00_bat_bachelor,2022.2.4,59.84182125267235,
,,,,,,,,,,,,1,0,1,0,205,0,205,0,,,,,,,205,,,0.2,6985.670278699373,Y,l,go,l,1,0.3456047947104821,,,,,,,,,,,,,,,,58,001,22,w,Psychologie ,2023-01-24_10h33.51.592,00_bat_bachelor,2022.2.4,59.84182125267235,
,,,,,,,,,,,,1,0,1,0,206,0,206,0,,,,,,,206,,,0.2,6986.321470637346,X,d,go,d,1,0.39888395234021345,,,,,,,,,,,,,,,,58,001,22,w,Psychologie ,2023-01-24_10h33.51.592,00_bat_bachelor,2022.2.4,59.84182125267235,
