loop_instruction.thisRepN,loop_instruction.thisTrialN,loop_instruction.thisN,loop_instruction.thisIndex,loop_rsi_practice.thisRepN,loop_rsi_practice.thisTrialN,loop_rsi_practice.thisN,loop_rsi_practice.thisIndex,loop_practice.thisRepN,loop_practice.thisTrialN,loop_practice.thisN,loop_practice.thisIndex,loop_exp.thisRepN,loop_exp.thisTrialN,loop_exp.thisN,loop_exp.thisIndex,loop_trials.thisRepN,loop_trials.thisTrialN,loop_trials.thisN,loop_trials.thisIndex,map_condition,map_x_key,map_y_key,key_resp_welcome.started,key_resp_welcome.keys,key_resp_welcome.rt,index,text_empty_rsi_practice.started,text_empty_rsi_practice.stopped,rsi,stimulus.started,stimulus,correct,trial_type,key_resp_trial.keys,key_resp_trial.corr,key_resp_trial.rt,key_resp_instruction_rsi.started,key_resp_instruction_rsi.keys,key_resp_instruction_rsi.rt,key_resp_instruction_rsi.stopped,key_resp_instruction_final.started,key_resp_instruction_final.keys,key_resp_instruction_final.rt,stimulus.stopped,key_resp_break.started,key_resp_break.keys,key_resp_break.rt,key_resp_break.stopped,key_resp_end_screen.started,image_end_screen.started,key_resp_end_screen.keys,participant,session,Alter,Geschlecht (w/m/d/andere),Studiengang,date,expName,psychopyVersion,frameRate,
,,,,0,0,0,0,0,0,0,0,,,,,,,,,1,l,d,167.50462666097155,j,15.511041458159525,0,183.03546867429577,184.05092670655176,1,184.05092670655176,X,l,go,l,1,0.6484673403010675,,,,,,,,,,,,,,,,59,001,21,w,Psychologie,2023-01-24_12h11.52.021,00_bat_bachelor,2022.2.4,59.966566374147725,
,,,,0,0,0,0,1,0,1,0,,,,,,,,,,,,,,,1,185.4024093508815,186.40419355381346,1,186.40419355381346,Y,d,go,d,1,0.37605331660779484,,,,,,,,,,,,,,,,59,001,21,w,Psychologie,2023-01-24_12h11.52.021,00_bat_bachelor,2022.2.4,59.966566374147725,
,,,,0,0,0,0,2,0,2,0,,,,,,,,,,,,,,,2,187.48790873282996,188.48891509056557,1,188.48891509056557,X,l,go,l,1,0.41026742834219476,,,,,,,,,,,,,,,,59,001,21,w,Psychologie,2023-01-24_12h11.52.021,00_bat_bachelor,2022.2.4,59.966566374147725,
,,,,0,0,0,0,3,0,3,0,,,,,,,,,,,,,,,3,189.6066536123235,190.60757135478343,1,190.60757135478343,Y,d,go,d,1,0.4368306777014368,,,,,,,,,,,,,,,,59,001,21,w,Psychologie,2023-01-24_12h11.52.021,00_bat_bachelor,2022.2.4,59.966566374147725,
,,,,0,0,0,0,4,0,4,0,,,,,,,,,,,,,,,4,191.75880316865187,192.75970532138854,1,192.75970532138854,X,l,go,l,1,0.34019243766670115,,,,,,,,,,,,,,,,59,001,21,w,Psychologie,2023-01-24_12h11.52.021,00_bat_bachelor,2022.2.4,59.966566374147725,
,,,,0,0,0,0,5,0,5,0,,,,,,,,,,,,,,,5,193.81076002778173,194.81202074417888,1,194.81202074417888,X,None,nogo,l,0,0.3281391191667353,,,,,,,,,,,,,,,,59,001,21,w,Psychologie,2023-01-24_12h11.52.021,00_bat_bachelor,2022.2.4,59.966566374147725,
,,,,0,0,0,0,6,0,6,0,,,,,,,,,,,,,,,6,196.24670328610955,197.2475689260682,1,197.2475689260682,Y,d,go,d,1,0.4607686995204858,,,,,,,,,,,,,,,,59,001,21,w,Psychologie,2023-01-24_12h11.52.021,00_bat_bachelor,2022.2.4,59.966566374147725,
,,,,0,0,0,0,7,0,7,0,,,,,,,,,,,,,,,7,198.41555641162267,199.41642820542074,1,199.41642820542074,X,l,go,l,1,0.4021185152942053,,,,,,,,,,,,,,,,59,001,21,w,Psychologie,2023-01-24_12h11.52.021,00_bat_bachelor,2022.2.4,59.966566374147725,
,,,,0,0,0,0,8,0,8,0,,,,,,,,,,,,,,,8,200.55105244998595,201.55189962843178,1,201.55189962843178,Y,d,go,d,1,0.5002197278881795,,,,,,,,,,,,,,,,59,001,21,w,Psychologie,2023-01-24_12h11.52.021,00_bat_bachelor,2022.2.4,59.966566374147725,
,,,,0,0,0,0,9,0,9,0,,,,,,,,,,,,,,,9,202.75327825237582,203.75429240497397,1,203.75429240497397,X,l,go,l,1,0.44187928687097155,,,,,,,,,,,,,,,,59,001,21,w,Psychologie,2023-01-24_12h11.52.021,00_bat_bachelor,2022.2.4,59.966566374147725,
,,,,0,0,0,0,10,0,10,0,,,,,,,,,,,,,,,10,204.9054963214403,205.90621385901795,1,205.90621385901795,X,None,nogo,None,1,,,,,,,,,,,,,,,,,59,001,21,w,Psychologie,2023-01-24_12h11.52.021,00_bat_bachelor,2022.2.4,59.966566374147725,
,,,,0,0,0,0,11,0,11,0,,,,,,,,,,,,,,,11,207.30759510860116,208.3089932607254,1,208.3089932607254,Y,d,go,d,1,0.43946616163702856,,,,,,,,,,,,,,,,59,001,21,w,Psychologie,2023-01-24_12h11.52.021,00_bat_bachelor,2022.2.4,59.966566374147725,
,,,,0,0,0,0,12,0,12,0,,,,,,,,,,,,,,,12,209.45978487000866,210.46106117612908,1,210.46106117612908,X,l,go,l,1,0.43121468461322365,,,,,,,,,,,,,,,,59,001,21,w,Psychologie,2023-01-24_12h11.52.021,00_bat_bachelor,2022.2.4,59.966566374147725,
,,,,0,0,0,0,13,0,13,0,,,,,,,,,,,,,,,13,211.59517054953358,212.5961896252029,1,212.5961896252029,Y,d,go,d,1,0.5115973549109185,,,,,,,,,,,,,,,,59,001,21,w,Psychologie,2023-01-24_12h11.52.021,00_bat_bachelor,2022.2.4,59.966566374147725,
,,,,0,0,0,0,14,0,14,0,,,,,,,,,,,,,,,14,213.81399366482765,214.81508248400132,1,214.81508248400132,X,l,go,l,1,0.48458364456928393,,,,,,,,,,,,,,,,59,001,21,w,Psychologie,2023-01-24_12h11.52.021,00_bat_bachelor,2022.2.4,59.966566374147725,
,,,,1,0,1,0,0,0,0,0,,,,,,,,,,,,,,,0,228.07830800618467,228.27863391347637,0.2,228.27863391347637,X,l,go,l,1,0.5169598098509596,216.0306452956156,j,12.0161829902936,,,,,,,,,,,,,59,001,21,w,Psychologie,2023-01-24_12h11.52.021,00_bat_bachelor,2022.2.4,59.966566374147725,
,,,,1,0,1,0,1,0,1,0,,,,,,,,,,,,,,,1,229.49638790188146,229.69673965529546,0.2,229.69673965529546,Y,d,go,d,1,0.38737596933788154,,,,,,,,,,,,,,,,59,001,21,w,Psychologie,2023-01-24_12h11.52.021,00_bat_bachelor,2022.2.4,59.966566374147725,
,,,,1,0,1,0,2,0,2,0,,,,,,,,,,,,,,,2,230.79779717194106,230.9977682078752,0.2,230.9977682078752,X,l,go,l,1,0.38155484829803754,,,,,,,,,,,,,,,,59,001,21,w,Psychologie,2023-01-24_12h11.52.021,00_bat_bachelor,2022.2.4,59.966566374147725,
,,,,1,0,1,0,3,0,3,0,,,,,,,,,,,,,,,3,232.08224195006187,232.28265975467548,0.2,232.28265975467548,Y,d,go,d,1,0.4011999523227132,,,,,,,,,,,,,,,,59,001,21,w,Psychologie,2023-01-24_12h11.52.021,00_bat_bachelor,2022.2.4,59.966566374147725,
,,,,1,0,1,0,4,0,4,0,,,,,,,,,,,,,,,4,233.40037448159092,233.60057772236541,0.2,233.60057772236541,X,l,go,l,1,0.30724683718835877,,,,,,,,,,,,,,,,59,001,21,w,Psychologie,2023-01-24_12h11.52.021,00_bat_bachelor,2022.2.4,59.966566374147725,
,,,,1,0,1,0,5,0,5,0,,,,,,,,,,,,,,,5,234.61814241869615,234.81840022350661,0.2,234.81840022350661,Y,d,go,d,1,0.33774731246921874,,,,,,,,,,,,,,,,59,001,21,w,Psychologie,2023-01-24_12h11.52.021,00_bat_bachelor,2022.2.4,59.966566374147725,
,,,,1,0,1,0,6,0,6,0,,,,,,,,,,,,,,,6,235.86974990389717,236.06951622213455,0.2,236.06951622213455,X,l,go,l,1,0.31015021823077404,,,,,,,,,,,,,,,,59,001,21,w,Psychologie,2023-01-24_12h11.52.021,00_bat_bachelor,2022.2.4,59.966566374147725,
,,,,1,0,1,0,7,0,7,0,,,,,,,,,,,,,,,7,237.0875014307676,237.28762344087409,0.2,237.28762344087409,Y,d,go,d,1,0.3726420387538383,,,,,,,,,,,,,,,,59,001,21,w,Psychologie,2023-01-24_12h11.52.021,00_bat_bachelor,2022.2.4,59.966566374147725,
,,,,1,0,1,0,8,0,8,0,,,,,,,,,,,,,,,8,238.37205574721338,238.57218227013436,0.2,238.57218227013436,X,l,go,l,1,0.32780845290835714,,,,,,,,,,,,,,,,59,001,21,w,Psychologie,2023-01-24_12h11.52.021,00_bat_bachelor,2022.2.4,59.966566374147725,
,,,,1,0,1,0,9,0,9,0,,,,,,,,,,,,,,,9,239.60661668929242,239.80674608400477,0.2,239.80674608400477,X,None,nogo,l,0,0.277218566454394,,,,,,,,,,,,,,,,59,001,21,w,Psychologie,2023-01-24_12h11.52.021,00_bat_bachelor,2022.2.4,59.966566374147725,
,,,,1,0,1,0,10,0,10,0,,,,,,,,,,,,,,,10,241.1911517647368,241.3914965437998,0.2,241.3914965437998,Y,d,go,d,1,0.4434977464188705,,,,,,,,,,,,,,,,59,001,21,w,Psychologie,2023-01-24_12h11.52.021,00_bat_bachelor,2022.2.4,59.966566374147725,
,,,,1,0,1,0,11,0,11,0,,,,,,,,,,,,,,,11,242.54273820380877,242.74293611125722,0.2,242.74293611125722,X,l,go,None,0,,,,,,,,,,,,,,,,,59,001,21,w,Psychologie,2023-01-24_12h11.52.021,00_bat_bachelor,2022.2.4,59.966566374147725,
,,,,1,0,1,0,12,0,12,0,,,,,,,,,,,,,,,12,244.1444207453278,244.3446929090951,0.2,244.3446929090951,Y,d,go,d,1,0.49921665220063005,,,,,,,,,,,,,,,,59,001,21,w,Psychologie,2023-01-24_12h11.52.021,00_bat_bachelor,2022.2.4,59.966566374147725,
,,,,1,0,1,0,13,0,13,0,,,,,,,,,,,,,,,13,245.545722815521,245.74596421009483,0.2,245.74596421009483,Y,None,nogo,d,0,0.2577810519160266,,,,,,,,,,,,,,,,59,001,21,w,Psychologie,2023-01-24_12h11.52.021,00_bat_bachelor,2022.2.4,59.966566374147725,
,,,,1,0,1,0,14,0,14,0,,,,,,,,,,,,,,,14,247.11421606455406,247.3140902800933,0.2,247.3140902800933,X,l,go,l,1,0.40144200330723834,,,,,,,,,,,,,,,,59,001,21,w,Psychologie,2023-01-24_12h11.52.021,00_bat_bachelor,2022.2.4,59.966566374147725,
,,,,,,,,,,,,,,,,,,,,,,,,,,,,,,,,,,,,,248.4780658731488,None,,248.4780658731488,248.4780658731488,space,5.281118459090067,,,,,,,,,59,001,21,w,Psychologie,2023-01-24_12h11.52.021,00_bat_bachelor,2022.2.4,59.966566374147725,
,,,,,,,,,,,,0,0,0,0,0,0,0,0,,,,,,,0,,,1,254.78840231170943,X,l,go,l,1,0.2799336400348693,,,,,,,,,,,,,,,,59,001,21,w,Psychologie,2023-01-24_12h11.52.021,00_bat_bachelor,2022.2.4,59.966566374147725,
,,,,,,,,,,,,0,0,0,0,1,0,1,0,,,,,,,1,,,1,256.1730299408864,Y,d,go,d,1,0.36682707155159733,,,,,,,,,,,,,,,,59,001,21,w,Psychologie,2023-01-24_12h11.52.021,00_bat_bachelor,2022.2.4,59.966566374147725,
,,,,,,,,,,,,0,0,0,0,2,0,2,0,,,,,,,2,,,1,257.6416554153984,X,l,go,l,1,0.4100056850747933,,,,,,,,,,,,,,,,59,001,21,w,Psychologie,2023-01-24_12h11.52.021,00_bat_bachelor,2022.2.4,59.966566374147725,
,,,,,,,,,,,,0,0,0,0,3,0,3,0,,,,,,,3,,,1,259.1596067779192,Y,d,go,d,1,0.34807878693391103,,,,,,,,,,,,,,,,59,001,21,w,Psychologie,2023-01-24_12h11.52.021,00_bat_bachelor,2022.2.4,59.966566374147725,
,,,,,,,,,,,,0,0,0,0,4,0,4,0,,,,,,,4,,,1,260.6109243762985,Y,None,nogo,None,1,,,,,,,,,261.41178164703706,,,,,,,,59,001,21,w,Psychologie,2023-01-24_12h11.52.021,00_bat_bachelor,2022.2.4,59.966566374147725,
,,,,,,,,,,,,0,0,0,0,5,0,5,0,,,,,,,5,,,1,262.4127125176874,X,l,go,l,1,0.2782790779710922,,,,,,,,,,,,,,,,59,001,21,w,Psychologie,2023-01-24_12h11.52.021,00_bat_bachelor,2022.2.4,59.966566374147725,
,,,,,,,,,,,,0,0,0,0,6,0,6,0,,,,,,,6,,,1,263.79743901853726,Y,d,go,d,1,0.39028304268322245,,,,,,,,,,,,,,,,59,001,21,w,Psychologie,2023-01-24_12h11.52.021,00_bat_bachelor,2022.2.4,59.966566374147725,
,,,,,,,,,,,,0,0,0,0,7,0,7,0,,,,,,,7,,,1,265.298900555199,Y,None,nogo,d,0,0.5129380712096463,,,,,,,,,,,,,,,,59,001,21,w,Psychologie,2023-01-24_12h11.52.021,00_bat_bachelor,2022.2.4,59.966566374147725,
,,,,,,,,,,,,0,0,0,0,8,0,8,0,,,,,,,8,,,1,266.9170294354517,X,l,go,l,1,0.5593626294576097,,,,,,,,,,,,,,,,59,001,21,w,Psychologie,2023-01-24_12h11.52.021,00_bat_bachelor,2022.2.4,59.966566374147725,
,,,,,,,,,,,,0,0,0,0,9,0,9,0,,,,,,,9,,,1,268.58544338201864,Y,d,go,d,1,0.37067527194267313,,,,,,,,,,,,,,,,59,001,21,w,Psychologie,2023-01-24_12h11.52.021,00_bat_bachelor,2022.2.4,59.966566374147725,
,,,,,,,,,,,,0,0,0,0,10,0,10,0,,,,,,,10,,,1,270.07039827232984,X,l,go,l,1,0.3330679336140747,,,,,,,,,,,,,,,,59,001,21,w,Psychologie,2023-01-24_12h11.52.021,00_bat_bachelor,2022.2.4,59.966566374147725,
,,,,,,,,,,,,0,0,0,0,11,0,11,0,,,,,,,11,,,1,271.50526830120907,X,None,nogo,None,1,,,,,,,,,,,,,,,,,59,001,21,w,Psychologie,2023-01-24_12h11.52.021,00_bat_bachelor,2022.2.4,59.966566374147725,
,,,,,,,,,,,,0,0,0,0,12,0,12,0,,,,,,,12,,,1,273.30679018651426,X,None,nogo,None,1,,,,,,,,,,,,,,,,,59,001,21,w,Psychologie,2023-01-24_12h11.52.021,00_bat_bachelor,2022.2.4,59.966566374147725,
,,,,,,,,,,,,0,0,0,0,13,0,13,0,,,,,,,13,,,1,275.10868581495015,Y,d,go,d,1,0.31902200218428334,,,,,,,,,,,,,,,,59,001,21,w,Psychologie,2023-01-24_12h11.52.021,00_bat_bachelor,2022.2.4,59.966566374147725,
,,,,,,,,,,,,0,0,0,0,14,0,14,0,,,,,,,14,,,1,276.54342743372945,X,l,go,l,1,0.3886875574662554,,,,,,,,,,,,,,,,59,001,21,w,Psychologie,2023-01-24_12h11.52.021,00_bat_bachelor,2022.2.4,59.966566374147725,
,,,,,,,,,,,,0,0,0,0,15,0,15,0,,,,,,,15,,,1,278.0455117388574,X,None,nogo,l,0,0.4858665147839929,,,,,,,,,,,,,,,,59,001,21,w,Psychologie,2023-01-24_12h11.52.021,00_bat_bachelor,2022.2.4,59.966566374147725,
,,,,,,,,,,,,0,0,0,0,16,0,16,0,,,,,,,16,,,1,279.6633218502702,Y,d,go,d,1,0.31646528738201596,,,,,,,,,,,,,,,,59,001,21,w,Psychologie,2023-01-24_12h11.52.021,00_bat_bachelor,2022.2.4,59.966566374147725,
,,,,,,,,,,,,0,0,0,0,17,0,17,0,,,,,,,17,,,1,281.08139189982467,X,l,go,l,1,0.32193440885566815,,,,,,,,,,,,,,,,59,001,21,w,Psychologie,2023-01-24_12h11.52.021,00_bat_bachelor,2022.2.4,59.966566374147725,
,,,,,,,,,,,,0,0,0,0,18,0,18,0,,,,,,,18,,,1,282.5161889031515,Y,d,go,d,1,0.37577434259219444,,,,,,,,,,,,,,,,59,001,21,w,Psychologie,2023-01-24_12h11.52.021,00_bat_bachelor,2022.2.4,59.966566374147725,
,,,,,,,,,,,,0,0,0,0,19,0,19,0,,,,,,,19,,,1,284.0010174346444,X,l,go,l,1,0.33132598704105476,,,,,,,,,,,,,,,,59,001,21,w,Psychologie,2023-01-24_12h11.52.021,00_bat_bachelor,2022.2.4,59.966566374147725,
,,,,,,,,,,,,0,0,0,0,20,0,20,0,,,,,,,20,,,1,285.43553874600366,Y,d,go,d,1,0.47164089126818,,,,,,,,,,,,,,,,59,001,21,w,Psychologie,2023-01-24_12h11.52.021,00_bat_bachelor,2022.2.4,59.966566374147725,
,,,,,,,,,,,,0,0,0,0,21,0,21,0,,,,,,,21,,,1,287.0204713594194,X,l,go,l,1,0.3429879214054381,,,,,,,,,,,,,,,,59,001,21,w,Psychologie,2023-01-24_12h11.52.021,00_bat_bachelor,2022.2.4,59.966566374147725,
,,,,,,,,,,,,0,0,0,0,22,0,22,0,,,,,,,22,,,1,288.47192147045644,Y,d,go,d,1,0.49986157448256563,,,,,,,,,,,,,,,,59,001,21,w,Psychologie,2023-01-24_12h11.52.021,00_bat_bachelor,2022.2.4,59.966566374147725,
,,,,,,,,,,,,0,0,0,0,23,0,23,0,,,,,,,23,,,1,290.07341939681646,Y,None,nogo,d,0,0.289102039007048,,,,,,,,,,,,,,,,59,001,21,w,Psychologie,2023-01-24_12h11.52.021,00_bat_bachelor,2022.2.4,59.966566374147725,
,,,,,,,,,,,,0,0,0,0,24,0,24,0,,,,,,,24,,,1,291.475164543388,X,l,go,l,1,0.35254031990552903,,,,,,,,,,,,,,,,59,001,21,w,Psychologie,2023-01-24_12h11.52.021,00_bat_bachelor,2022.2.4,59.966566374147725,
,,,,,,,,,,,,0,0,0,0,25,0,25,0,,,,,,,25,,,1,292.9430687880176,Y,d,go,d,1,0.308513707424936,,,,,,,,,,,,,,,,59,001,21,w,Psychologie,2023-01-24_12h11.52.021,00_bat_bachelor,2022.2.4,59.966566374147725,
,,,,,,,,,,,,0,0,0,0,26,0,26,0,,,,,,,26,,,1,294.3612118631245,X,l,go,l,1,0.3781882883376966,,,,,,,,,,,,,,,,59,001,21,w,Psychologie,2023-01-24_12h11.52.021,00_bat_bachelor,2022.2.4,59.966566374147725,
,,,,,,,,,,,,0,0,0,0,27,0,27,0,,,,,,,27,,,1,295.8460440869203,Y,d,go,d,1,0.39749329021833546,,,,,,,,,,,,,,,,59,001,21,w,Psychologie,2023-01-24_12h11.52.021,00_bat_bachelor,2022.2.4,59.966566374147725,
,,,,,,,,,,,,0,0,0,0,28,0,28,0,,,,,,,28,,,1,297.3475519825006,X,l,go,l,1,0.26399560836944147,,,,,,,,,,,,,,,,59,001,21,w,Psychologie,2023-01-24_12h11.52.021,00_bat_bachelor,2022.2.4,59.966566374147725,
,,,,,,,,,,,,0,0,0,0,29,0,29,0,,,,,,,29,,,1,298.71599829825755,Y,d,go,d,1,0.1839842196659447,,,,,,,,,,,,,,,,59,001,21,w,Psychologie,2023-01-24_12h11.52.021,00_bat_bachelor,2022.2.4,59.966566374147725,
,,,,,,,,,,,,0,0,0,0,30,0,30,0,,,,,,,30,,,1,300.00040492257904,X,l,go,l,1,0.2994335134735593,,,,,,,,,,,,,,,,59,001,21,w,Psychologie,2023-01-24_12h11.52.021,00_bat_bachelor,2022.2.4,59.966566374147725,
,,,,,,,,,,,,0,0,0,0,31,0,31,0,,,,,,,31,,,1,301.4016516082229,X,None,nogo,None,1,,,,,,,,,,,,,,,,,59,001,21,w,Psychologie,2023-01-24_12h11.52.021,00_bat_bachelor,2022.2.4,59.966566374147725,
,,,,,,,,,,,,0,0,0,0,32,0,32,0,,,,,,,32,,,1,303.20342744193476,Y,d,go,d,1,0.3517842182700406,,,,,,,,,,,,,,,,59,001,21,w,Psychologie,2023-01-24_12h11.52.021,00_bat_bachelor,2022.2.4,59.966566374147725,
,,,,,,,,,,,,0,0,0,0,33,0,33,0,,,,,,,33,,,1,304.6715819426681,X,l,go,l,1,0.33960618197670556,,,,,,,,,,,,,,,,59,001,21,w,Psychologie,2023-01-24_12h11.52.021,00_bat_bachelor,2022.2.4,59.966566374147725,
,,,,,,,,,,,,0,0,0,0,34,0,34,0,,,,,,,34,,,1,306.12302795114556,X,None,nogo,l,0,0.48102508484589634,,,,,,,,,,,,,,,,59,001,21,w,Psychologie,2023-01-24_12h11.52.021,00_bat_bachelor,2022.2.4,59.966566374147725,
,,,,,,,,,,,,0,0,0,0,35,0,35,0,,,,,,,35,,,1,307.70776774428487,Y,d,go,d,1,0.3602112848220713,,,,,,,,,,,,,,,,59,001,21,w,Psychologie,2023-01-24_12h11.52.021,00_bat_bachelor,2022.2.4,59.966566374147725,
,,,,,,,,,,,,0,0,0,0,36,0,36,0,,,,,,,36,,,1,309.1760908601955,X,l,go,l,1,0.4350177568558138,,,,,,,,,,,,,,,,59,001,21,w,Psychologie,2023-01-24_12h11.52.021,00_bat_bachelor,2022.2.4,59.966566374147725,
,,,,,,,,,,,,0,0,0,0,37,0,37,0,,,,,,,37,,,1,310.7280060783505,X,None,nogo,l,0,0.25125716250840924,,,,,,,,,,,,,,,,59,001,21,w,Psychologie,2023-01-24_12h11.52.021,00_bat_bachelor,2022.2.4,59.966566374147725,
,,,,,,,,,,,,0,0,0,0,38,0,38,0,,,,,,,38,,,1,312.1122665284929,Y,d,go,d,1,0.35586708504160924,,,,,,,,,,,,,,,,59,001,21,w,Psychologie,2023-01-24_12h11.52.021,00_bat_bachelor,2022.2.4,59.966566374147725,
,,,,,,,,,,,,0,0,0,0,39,0,39,0,,,,,,,39,,,1,313.58040626001275,X,l,go,l,1,0.3111134990977007,,,,,,,,,,,,,,,,59,001,21,w,Psychologie,2023-01-24_12h11.52.021,00_bat_bachelor,2022.2.4,59.966566374147725,
,,,,,,,,,,,,0,0,0,0,40,0,40,0,,,,,,,40,,,1,314.99851856592613,X,None,nogo,None,1,,,,,,,,,,,,,,,,,59,001,21,w,Psychologie,2023-01-24_12h11.52.021,00_bat_bachelor,2022.2.4,59.966566374147725,
,,,,,,,,,,,,0,0,0,0,41,0,41,0,,,,,,,41,,,1,316.8004080405226,Y,d,go,d,1,0.3312086538517178,,,,,,,,,,,,,,,,59,001,21,w,Psychologie,2023-01-24_12h11.52.021,00_bat_bachelor,2022.2.4,59.966566374147725,
,,,,,,,,,,,,0,0,0,0,42,0,42,0,,,,,,,42,,,1,318.2350680183772,X,l,go,l,1,0.43313098994622123,,,,,,,,,,,,,,,,59,001,21,w,Psychologie,2023-01-24_12h11.52.021,00_bat_bachelor,2022.2.4,59.966566374147725,
,,,,,,,,,,,,0,0,0,0,43,0,43,0,,,,,,,43,,,1,319.77007002657956,Y,d,go,d,1,0.3460307894547441,,,,,,,,,,,,,,,,59,001,21,w,Psychologie,2023-01-24_12h11.52.021,00_bat_bachelor,2022.2.4,59.966566374147725,
,,,,,,,,,,,,0,0,0,0,44,0,44,0,,,,,,,44,,,1,321.22139008649356,X,l,go,l,1,0.32598814745688287,,,,,,,,,,,,,,,,59,001,21,w,Psychologie,2023-01-24_12h11.52.021,00_bat_bachelor,2022.2.4,59.966566374147725,
,,,,,,,,,,,,0,0,0,0,45,0,45,0,,,,,,,45,,,1,322.6560968335216,X,None,nogo,l,0,0.4357295508507377,,,,,,,,,,,,,,,,59,001,21,w,Psychologie,2023-01-24_12h11.52.021,00_bat_bachelor,2022.2.4,59.966566374147725,
,,,,,,,,,,,,0,0,0,0,46,0,46,0,,,,,,,46,,,1,324.20770518026075,Y,d,go,d,1,0.556138838552215,,,,,,,,,,,,,,,,59,001,21,w,Psychologie,2023-01-24_12h11.52.021,00_bat_bachelor,2022.2.4,59.966566374147725,
,,,,,,,,,,,,0,0,0,0,47,0,47,0,,,,,,,47,,,1,325.87603174232027,X,l,go,l,1,0.5115267908950045,,,,,,,,,,,,,,,,59,001,21,w,Psychologie,2023-01-24_12h11.52.021,00_bat_bachelor,2022.2.4,59.966566374147725,
,,,,,,,,,,,,0,0,0,0,48,0,48,0,,,,,,,48,,,1,327.4944059556037,Y,d,go,d,1,0.4934074285811221,,,,,,,,,,,,,,,,59,001,21,w,Psychologie,2023-01-24_12h11.52.021,00_bat_bachelor,2022.2.4,59.966566374147725,
,,,,,,,,,,,,0,0,0,0,49,0,49,0,,,,,,,49,,,1,329.11254057943734,X,l,go,l,1,0.35493252208834747,,,,,,,,,,,,,,,,59,001,21,w,Psychologie,2023-01-24_12h11.52.021,00_bat_bachelor,2022.2.4,59.966566374147725,
,,,,,,,,,,,,0,0,0,0,50,0,50,0,,,,,,,50,,,1,330.5812185667055,X,None,nogo,None,1,,,,,,,,,331.38159132522014,,,,,,,,59,001,21,w,Psychologie,2023-01-24_12h11.52.021,00_bat_bachelor,2022.2.4,59.966566374147725,
,,,,,,,,,,,,0,0,0,0,51,0,51,0,,,,,,,51,,,1,332.3826661956937,Y,d,go,d,1,0.30884478394000325,,,,,,,,,,,,,,,,59,001,21,w,Psychologie,2023-01-24_12h11.52.021,00_bat_bachelor,2022.2.4,59.966566374147725,
,,,,,,,,,,,,0,0,0,0,52,0,52,0,,,,,,,52,,,1,333.80100988593585,X,l,go,l,1,0.38581740715380874,,,,,,,,,,,,,,,,59,001,21,w,Psychologie,2023-01-24_12h11.52.021,00_bat_bachelor,2022.2.4,59.966566374147725,
,,,,,,,,,,,,0,0,0,0,53,0,53,0,,,,,,,53,,,1,335.3189087357023,X,None,nogo,l,0,0.3004394609524752,,,,,,,,,,,,,,,,59,001,21,w,Psychologie,2023-01-24_12h11.52.021,00_bat_bachelor,2022.2.4,59.966566374147725,
,,,,,,,,,,,,0,0,0,0,54,0,54,0,,,,,,,54,,,1,336.7200553189068,Y,d,go,d,1,0.31555903208573,,,,,,,,,,,,,,,,59,001,21,w,Psychologie,2023-01-24_12h11.52.021,00_bat_bachelor,2022.2.4,59.966566374147725,
,,,,,,,,,,,,0,0,0,0,55,0,55,0,,,,,,,55,,,1,338.1386870087954,X,l,go,l,1,0.31309667614186765,,,,,,,,,,,,,,,,59,001,21,w,Psychologie,2023-01-24_12h11.52.021,00_bat_bachelor,2022.2.4,59.966566374147725,
,,,,,,,,,,,,0,0,0,0,56,0,56,0,,,,,,,56,,,1,339.556348033213,X,None,nogo,l,0,0.27148113761904824,,,,,,,,,,,,,,,,59,001,21,w,Psychologie,2023-01-24_12h11.52.021,00_bat_bachelor,2022.2.4,59.966566374147725,
,,,,,,,,,,,,0,0,0,0,57,0,57,0,,,,,,,57,,,1,340.94183227671965,Y,d,go,d,1,0.29445259652675304,,,,,,,,,,,,,,,,59,001,21,w,Psychologie,2023-01-24_12h11.52.021,00_bat_bachelor,2022.2.4,59.966566374147725,
,,,,,,,,,,,,0,0,0,0,58,0,58,0,,,,,,,58,,,1,342.34241762984493,X,l,go,l,1,0.38159259184067196,,,,,,,,,,,,,,,,59,001,21,w,Psychologie,2023-01-24_12h11.52.021,00_bat_bachelor,2022.2.4,59.966566374147725,
,,,,,,,,,,,,0,0,0,0,59,0,59,0,,,,,,,59,,,1,343.82740452011785,Y,d,go,d,1,0.4558956798773579,,,,,,,,,,,,,,,,59,001,21,w,Psychologie,2023-01-24_12h11.52.021,00_bat_bachelor,2022.2.4,59.966566374147725,
,,,,,,,,,,,,0,0,0,0,60,0,60,0,,,,,,,60,,,1,345.39519500078495,X,l,go,l,1,0.3837886917008291,,,,,,,,,,,,,,,,59,001,21,w,Psychologie,2023-01-24_12h11.52.021,00_bat_bachelor,2022.2.4,59.966566374147725,
,,,,,,,,,,,,0,0,0,0,61,0,61,0,,,,,,,61,,,1,346.8802992242472,Y,d,go,d,1,0.3392402337103704,,,,,,,,,,,,,,,,59,001,21,w,Psychologie,2023-01-24_12h11.52.021,00_bat_bachelor,2022.2.4,59.966566374147725,
,,,,,,,,,,,,0,0,0,0,62,0,62,0,,,,,,,62,,,1,348.3321345655786,X,l,go,d,0,0.31929646338358,,,,,,,,,,,,,,,,59,001,21,w,Psychologie,2023-01-24_12h11.52.021,00_bat_bachelor,2022.2.4,59.966566374147725,
,,,,,,,,,,,,0,0,0,0,63,0,63,0,,,,,,,63,,,1,349.7666743384525,Y,d,go,d,1,0.5331000976766518,,,,,,,,,,,,,,,,59,001,21,w,Psychologie,2023-01-24_12h11.52.021,00_bat_bachelor,2022.2.4,59.966566374147725,
,,,,,,,,,,,,0,0,0,0,64,0,64,0,,,,,,,64,,,1,351.4015978647003,Y,None,nogo,d,0,0.4814899047869403,,,,,,,,,,,,,,,,59,001,21,w,Psychologie,2023-01-24_12h11.52.021,00_bat_bachelor,2022.2.4,59.966566374147725,
,,,,,,,,,,,,0,0,0,0,65,0,65,0,,,,,,,65,,,1,352.98661622160034,X,l,go,l,1,0.2727369309432106,,,,,,,,,,,,,,,,59,001,21,w,Psychologie,2023-01-24_12h11.52.021,00_bat_bachelor,2022.2.4,59.966566374147725,
,,,,,,,,,,,,0,0,0,0,66,0,66,0,,,,,,,66,,,1,354.37115113294203,Y,d,go,d,1,0.5848034186565201,,,,,,,,,,,,,,,,59,001,21,w,Psychologie,2023-01-24_12h11.52.021,00_bat_bachelor,2022.2.4,59.966566374147725,
,,,,,,,,,,,,0,0,0,0,67,0,67,0,,,,,,,67,,,1,356.0729143717981,X,l,go,l,1,0.4423026709646365,,,,,,,,,,,,,,,,59,001,21,w,Psychologie,2023-01-24_12h11.52.021,00_bat_bachelor,2022.2.4,59.966566374147725,
,,,,,,,,,,,,0,0,0,0,68,0,68,0,,,,,,,68,,,1,357.62451615444115,X,None,nogo,l,0,0.5076297700506984,,,,,,,,,,,,,,,,59,001,21,w,Psychologie,2023-01-24_12h11.52.021,00_bat_bachelor,2022.2.4,59.966566374147725,
,,,,,,,,,,,,0,0,0,0,69,0,69,0,,,,,,,69,,,1,359.2426249321543,X,None,nogo,d,0,0.18533642313013843,,,,,,,,,,,,,,,,59,001,21,w,Psychologie,2023-01-24_12h11.52.021,00_bat_bachelor,2022.2.4,59.966566374147725,
,,,,,,,,,,,,0,0,0,0,70,0,70,0,,,,,,,70,,,1,360.54381594607185,Y,d,go,d,1,0.5638487777814589,,,,,,,,,,,,,,,,59,001,21,w,Psychologie,2023-01-24_12h11.52.021,00_bat_bachelor,2022.2.4,59.966566374147725,
,,,,,,,,,,,,0,0,0,0,71,0,71,0,,,,,,,71,,,1,362.2123074310057,X,l,go,l,1,0.5912177697373409,,,,,,,,,,,,,,,,59,001,21,w,Psychologie,2023-01-24_12h11.52.021,00_bat_bachelor,2022.2.4,59.966566374147725,
,,,,,,,,,,,,0,0,0,0,72,0,72,0,,,,,,,72,,,1,363.91406000320785,X,None,nogo,l,0,0.4336918097687885,,,,,,,,,,,,,,,,59,001,21,w,Psychologie,2023-01-24_12h11.52.021,00_bat_bachelor,2022.2.4,59.966566374147725,
,,,,,,,,,,,,0,0,0,0,73,0,73,0,,,,,,,73,,,1,365.44881421684477,Y,d,go,d,1,0.23435584997787373,,,,,,,,,,,,,,,,59,001,21,w,Psychologie,2023-01-24_12h11.52.021,00_bat_bachelor,2022.2.4,59.966566374147725,
,,,,,,,,,,,,0,0,0,0,74,0,74,0,,,,,,,74,,,1,366.80033255343733,X,l,go,l,1,0.47514981002495915,,,,,,,,,,,,,,,,59,001,21,w,Psychologie,2023-01-24_12h11.52.021,00_bat_bachelor,2022.2.4,59.966566374147725,
,,,,,,,,,,,,0,0,0,0,75,0,75,0,,,,,,,75,,,1,368.38504280815323,X,None,nogo,None,1,,,,,,,,,,,,,,,,,59,001,21,w,Psychologie,2023-01-24_12h11.52.021,00_bat_bachelor,2022.2.4,59.966566374147725,
,,,,,,,,,,,,0,0,0,0,76,0,76,0,,,,,,,76,,,1,370.1868354623566,Y,d,go,d,1,0.4401992889397661,,,,,,,,,,,,,,,,59,001,21,w,Psychologie,2023-01-24_12h11.52.021,00_bat_bachelor,2022.2.4,59.966566374147725,
,,,,,,,,,,,,0,0,0,0,77,0,77,0,,,,,,,77,,,1,371.73838801429156,X,l,go,None,0,,,,,,,,,,,,,,,,,59,001,21,w,Psychologie,2023-01-24_12h11.52.021,00_bat_bachelor,2022.2.4,59.966566374147725,
,,,,,,,,,,,,0,0,0,0,78,0,78,0,,,,,,,78,,,1,373.541059436644,X,None,nogo,None,1,,,,,,,,,,,,,,,,,59,001,21,w,Psychologie,2023-01-24_12h11.52.021,00_bat_bachelor,2022.2.4,59.966566374147725,
,,,,,,,,,,,,0,0,0,0,79,0,79,0,,,,,,,79,,,1,375.3420561943931,Y,d,go,d,1,0.32498219997614797,,,,,,,,,,,,,,,,59,001,21,w,Psychologie,2023-01-24_12h11.52.021,00_bat_bachelor,2022.2.4,59.966566374147725,
,,,,,,,,,,,,0,0,0,0,80,0,80,0,,,,,,,80,,,1,376.77694386427356,X,l,go,l,1,0.3704668619448057,,,,,,,,,,,,,,,,59,001,21,w,Psychologie,2023-01-24_12h11.52.021,00_bat_bachelor,2022.2.4,59.966566374147725,
,,,,,,,,,,,,0,0,0,0,81,0,81,0,,,,,,,81,,,1,378.261780190629,Y,d,go,d,1,0.438356419414049,,,,,,,,,,,,,,,,59,001,21,w,Psychologie,2023-01-24_12h11.52.021,00_bat_bachelor,2022.2.4,59.966566374147725,
,,,,,,,,,,,,0,0,0,0,82,0,82,0,,,,,,,82,,,1,379.81328761441546,Y,None,nogo,None,1,,,,,,,,,,,,,,,,,59,001,21,w,Psychologie,2023-01-24_12h11.52.021,00_bat_bachelor,2022.2.4,59.966566374147725,
,,,,,,,,,,,,0,0,0,0,83,0,83,0,,,,,,,83,,,1,381.61511226858056,Y,None,nogo,None,1,,,,,,,,,,,,,,,,,59,001,21,w,Psychologie,2023-01-24_12h11.52.021,00_bat_bachelor,2022.2.4,59.966566374147725,
,,,,,,,,,,,,0,0,0,0,84,0,84,0,,,,,,,84,,,1,383.41704399953596,X,l,go,l,1,0.30698017084978346,,,,,,,,,,,,,,,,59,001,21,w,Psychologie,2023-01-24_12h11.52.021,00_bat_bachelor,2022.2.4,59.966566374147725,
,,,,,,,,,,,,0,0,0,0,85,0,85,0,,,,,,,85,,,1,384.8349643056845,Y,d,go,d,1,0.4169948046801437,,,,,,,,,,,,,,,,59,001,21,w,Psychologie,2023-01-24_12h11.52.021,00_bat_bachelor,2022.2.4,59.966566374147725,
,,,,,,,,,,,,0,0,0,0,86,0,86,0,,,,,,,86,,,1,386.35303587318595,Y,None,nogo,None,1,,,,,,,,,,,,,,,,,59,001,21,w,Psychologie,2023-01-24_12h11.52.021,00_bat_bachelor,2022.2.4,59.966566374147725,
,,,,,,,,,,,,0,0,0,0,87,0,87,0,,,,,,,87,,,1,388.1551530398119,X,l,go,l,1,0.3203742056484771,,,,,,,,,,,,,,,,59,001,21,w,Psychologie,2023-01-24_12h11.52.021,00_bat_bachelor,2022.2.4,59.966566374147725,
,,,,,,,,,,,,0,0,0,0,88,0,88,0,,,,,,,88,,,1,389.5895500436309,Y,d,go,d,1,0.4459555895464291,,,,,,,,,,,,,,,,59,001,21,w,Psychologie,2023-01-24_12h11.52.021,00_bat_bachelor,2022.2.4,59.966566374147725,
,,,,,,,,,,,,0,0,0,0,89,0,89,0,,,,,,,89,,,1,391.14102505720075,X,l,go,l,1,0.2781420524970599,,,,,,,,,,,,,,,,59,001,21,w,Psychologie,2023-01-24_12h11.52.021,00_bat_bachelor,2022.2.4,59.966566374147725,
,,,,,,,,,,,,0,0,0,0,90,0,90,0,,,,,,,90,,,1,392.52621883952634,Y,d,go,d,1,0.43842370138190745,,,,,,,,,,,,,,,,59,001,21,w,Psychologie,2023-01-24_12h11.52.021,00_bat_bachelor,2022.2.4,59.966566374147725,
,,,,,,,,,,,,0,0,0,0,91,0,91,0,,,,,,,91,,,1,394.07748667386295,X,l,go,l,1,0.3105867305130232,,,,,,,,,,,,,,,,59,001,21,w,Psychologie,2023-01-24_12h11.52.021,00_bat_bachelor,2022.2.4,59.966566374147725,
,,,,,,,,,,,,0,0,0,0,92,0,92,0,,,,,,,92,,,1,395.4955952874716,Y,d,go,d,1,0.24432999154851132,,,,,,,,,,,,,,,,59,001,21,w,Psychologie,2023-01-24_12h11.52.021,00_bat_bachelor,2022.2.4,59.966566374147725,
,,,,,,,,,,,,0,0,0,0,93,0,93,0,,,,,,,93,,,1,396.84700613701716,Y,None,nogo,None,1,,,,,,,,,,,,,,,,,59,001,21,w,Psychologie,2023-01-24_12h11.52.021,00_bat_bachelor,2022.2.4,59.966566374147725,
,,,,,,,,,,,,0,0,0,0,94,0,94,0,,,,,,,94,,,1,398.64871961183235,X,l,go,l,1,0.2670630917746166,,,,,,,,,,,,,,,,59,001,21,w,Psychologie,2023-01-24_12h11.52.021,00_bat_bachelor,2022.2.4,59.966566374147725,
,,,,,,,,,,,,0,0,0,0,95,0,95,0,,,,,,,95,,,1,400.01670808200106,Y,d,go,d,1,0.5389228597414331,,,,,,,,,,,,,,,,59,001,21,w,Psychologie,2023-01-24_12h11.52.021,00_bat_bachelor,2022.2.4,59.966566374147725,
,,,,,,,,,,,,0,0,0,0,96,0,96,0,,,,,,,96,,,1,401.66839056198114,Y,None,nogo,d,0,0.510752638003396,,,,,,,,,,,,,,,,59,001,21,w,Psychologie,2023-01-24_12h11.52.021,00_bat_bachelor,2022.2.4,59.966566374147725,
,,,,,,,,,,,,0,0,0,0,97,0,97,0,,,,,,,97,,,1,403.2869945185703,Y,None,nogo,None,1,,,,,,,,,404.0877283022837,,,,,,,,59,001,21,w,Psychologie,2023-01-24_12h11.52.021,00_bat_bachelor,2022.2.4,59.966566374147725,
,,,,,,,,,,,,0,0,0,0,98,0,98,0,,,,,,,98,,,1,405.0885738397046,X,l,go,l,1,0.29053260135151504,,,,,,,,,,,,,,,,59,001,21,w,Psychologie,2023-01-24_12h11.52.021,00_bat_bachelor,2022.2.4,59.966566374147725,
,,,,,,,,,,,,0,0,0,0,99,0,99,0,,,,,,,99,,,1,406.49000390973924,Y,d,go,d,1,0.4413841079949634,,,,,,,,,,,,,,,,59,001,21,w,Psychologie,2023-01-24_12h11.52.021,00_bat_bachelor,2022.2.4,59.966566374147725,
,,,,,,,,,,,,0,0,0,0,100,0,100,0,,,,,,,100,,,1,408.0414342054137,X,l,go,l,1,0.4577524981050374,,,,,,,,,,,,,,,,59,001,21,w,Psychologie,2023-01-24_12h11.52.021,00_bat_bachelor,2022.2.4,59.966566374147725,
,,,,,,,,,,,,0,0,0,0,101,0,101,0,,,,,,,101,,,1,409.6096000702364,X,None,nogo,l,0,0.47432929821479775,,,,,,,,,,,,,,,,59,001,21,w,Psychologie,2023-01-24_12h11.52.021,00_bat_bachelor,2022.2.4,59.966566374147725,
,,,,,,,,,,,,0,0,0,0,102,0,102,0,,,,,,,102,,,1,411.19462909379035,Y,d,go,d,1,0.4564441920229001,,,,,,,,,,,,,,,,59,001,21,w,Psychologie,2023-01-24_12h11.52.021,00_bat_bachelor,2022.2.4,59.966566374147725,
,,,,,,,,,,,,0,0,0,0,103,0,103,0,,,,,,,103,,,1,412.76283188164234,X,l,go,l,1,0.49692003964082687,,,,,,,,,,,,,,,,59,001,21,w,Psychologie,2023-01-24_12h11.52.021,00_bat_bachelor,2022.2.4,59.966566374147725,
,,,,,,,,,,,,0,0,0,0,104,0,104,0,,,,,,,104,,,1,414.36466744861355,Y,d,go,d,1,0.35787364667339716,,,,,,,,,,,,,,,,59,001,21,w,Psychologie,2023-01-24_12h11.52.021,00_bat_bachelor,2022.2.4,59.966566374147725,
,,,,,,,,,,,,0,0,0,0,105,0,105,0,,,,,,,105,,,1,415.84939710843355,X,l,go,l,1,0.3777480837525218,,,,,,,,,,,,,,,,59,001,21,w,Psychologie,2023-01-24_12h11.52.021,00_bat_bachelor,2022.2.4,59.966566374147725,
,,,,,,,,,,,,0,0,0,0,106,0,106,0,,,,,,,106,,,1,417.33383507630606,X,None,nogo,None,1,,,,,,,,,418.134607013817,,,,,,,,59,001,21,w,Psychologie,2023-01-24_12h11.52.021,00_bat_bachelor,2022.2.4,59.966566374147725,
,,,,,,,,,,,,0,0,0,0,107,0,107,0,,,,,,,107,,,1,419.136248447694,Y,d,go,d,1,0.27612810625760176,,,,,,,,,,,,,,,,59,001,21,w,Psychologie,2023-01-24_12h11.52.021,00_bat_bachelor,2022.2.4,59.966566374147725,
,,,,,,,,,,,,0,0,0,0,108,0,108,0,,,,,,,108,,,1,420.5206393592125,X,l,go,l,1,0.36380430604185676,,,,,,,,,,,,,,,,59,001,21,w,Psychologie,2023-01-24_12h11.52.021,00_bat_bachelor,2022.2.4,59.966566374147725,
,,,,,,,,,,,,0,0,0,0,109,0,109,0,,,,,,,109,,,1,421.9889284238834,Y,d,go,d,1,0.3748389591273735,,,,,,,,,,,,,,,,59,001,21,w,Psychologie,2023-01-24_12h11.52.021,00_bat_bachelor,2022.2.4,59.966566374147725,
,,,,,,,,,,,,0,0,0,0,110,0,110,0,,,,,,,110,,,1,423.4735428017939,Y,None,nogo,None,1,,,,,,,,,,,,,,,,,59,001,21,w,Psychologie,2023-01-24_12h11.52.021,00_bat_bachelor,2022.2.4,59.966566374147725,
,,,,,,,,,,,,0,0,0,0,111,0,111,0,,,,,,,111,,,1,425.275448686627,X,l,go,l,1,0.1838595018689375,,,,,,,,,,,,,,,,59,001,21,w,Psychologie,2023-01-24_12h11.52.021,00_bat_bachelor,2022.2.4,59.966566374147725,
,,,,,,,,,,,,0,0,0,0,112,0,112,0,,,,,,,112,,,1,426.5598803365574,Y,d,go,d,1,0.4514599930298573,,,,,,,,,,,,,,,,59,001,21,w,Psychologie,2023-01-24_12h11.52.021,00_bat_bachelor,2022.2.4,59.966566374147725,
,,,,,,,,,,,,0,0,0,0,113,0,113,0,,,,,,,113,,,1,428.1281951242727,X,l,go,l,1,0.2834191742076655,,,,,,,,,,,,,,,,59,001,21,w,Psychologie,2023-01-24_12h11.52.021,00_bat_bachelor,2022.2.4,59.966566374147725,
,,,,,,,,,,,,0,0,0,0,114,0,114,0,,,,,,,114,,,1,429.5128645995519,X,None,nogo,None,1,,,,,,,,,,,,,,,,,59,001,21,w,Psychologie,2023-01-24_12h11.52.021,00_bat_bachelor,2022.2.4,59.966566374147725,
,,,,,,,,,,,,0,0,0,0,115,0,115,0,,,,,,,115,,,1,431.31455017696317,Y,d,go,d,1,0.30476930177610484,,,,,,,,,,,,,,,,59,001,21,w,Psychologie,2023-01-24_12h11.52.021,00_bat_bachelor,2022.2.4,59.966566374147725,
,,,,,,,,,,,,0,0,0,0,116,0,116,0,,,,,,,116,,,1,432.7326633033881,X,l,go,l,1,0.5022816740693088,,,,,,,,,,,,,,,,59,001,21,w,Psychologie,2023-01-24_12h11.52.021,00_bat_bachelor,2022.2.4,59.966566374147725,
,,,,,,,,,,,,0,0,0,0,117,0,117,0,,,,,,,117,,,1,434.3509722859835,Y,d,go,d,1,0.3726744489704288,,,,,,,,,,,,,,,,59,001,21,w,Psychologie,2023-01-24_12h11.52.021,00_bat_bachelor,2022.2.4,59.966566374147725,
,,,,,,,,,,,,0,0,0,0,118,0,118,0,,,,,,,118,,,1,435.8358799968664,Y,None,nogo,d,0,0.4066571763778484,,,,,,,,,,,,,,,,59,001,21,w,Psychologie,2023-01-24_12h11.52.021,00_bat_bachelor,2022.2.4,59.966566374147725,
,,,,,,,,,,,,0,0,0,0,119,0,119,0,,,,,,,119,,,1,437.3708015949105,X,l,go,l,1,0.45664275588023884,,,,,,,,,,,,,,,,59,001,21,w,Psychologie,2023-01-24_12h11.52.021,00_bat_bachelor,2022.2.4,59.966566374147725,
,,,,,,,,,,,,0,0,0,0,120,0,120,0,,,,,,,120,,,1,438.9388160753024,Y,d,go,d,1,0.5126365331198031,,,,,,,,,,,,,,,,59,001,21,w,Psychologie,2023-01-24_12h11.52.021,00_bat_bachelor,2022.2.4,59.966566374147725,
,,,,,,,,,,,,0,0,0,0,121,0,121,0,,,,,,,121,,,1,440.5572194167562,X,l,go,None,0,,,,,,,,,,,,,,,,,59,001,21,w,Psychologie,2023-01-24_12h11.52.021,00_bat_bachelor,2022.2.4,59.966566374147725,
,,,,,,,,,,,,0,0,0,0,122,0,122,0,,,,,,,122,,,1,442.35900632737685,Y,d,go,d,1,0.6130684095114702,,,,,,,,,,,,,,,,59,001,21,w,Psychologie,2023-01-24_12h11.52.021,00_bat_bachelor,2022.2.4,59.966566374147725,
,,,,,,,,,,,,0,0,0,0,123,0,123,0,,,,,,,123,,,1,444.07737713553615,Y,None,nogo,None,1,,,,,,,,,,,,,,,,,59,001,21,w,Psychologie,2023-01-24_12h11.52.021,00_bat_bachelor,2022.2.4,59.966566374147725,
,,,,,,,,,,,,0,0,0,0,124,0,124,0,,,,,,,124,,,1,445.8792990203492,X,l,go,l,1,0.3798116709549504,,,,,,,,,,,,,,,,59,001,21,w,Psychologie,2023-01-24_12h11.52.021,00_bat_bachelor,2022.2.4,59.966566374147725,
,,,,,,,,,,,,0,0,0,0,125,0,125,0,,,,,,,125,,,1,447.3642305260746,Y,d,go,d,1,0.5190168329590961,,,,,,,,,,,,,,,,59,001,21,w,Psychologie,2023-01-24_12h11.52.021,00_bat_bachelor,2022.2.4,59.966566374147725,
,,,,,,,,,,,,0,0,0,0,126,0,126,0,,,,,,,126,,,1,448.9990346678551,X,l,go,l,1,0.5722791263797262,,,,,,,,,,,,,,,,59,001,21,w,Psychologie,2023-01-24_12h11.52.021,00_bat_bachelor,2022.2.4,59.966566374147725,
,,,,,,,,,,,,0,0,0,0,127,0,127,0,,,,,,,127,,,1,450.68413577337196,X,None,nogo,None,1,,,,,,,,,,,,,,,,,59,001,21,w,Psychologie,2023-01-24_12h11.52.021,00_bat_bachelor,2022.2.4,59.966566374147725,
,,,,,,,,,,,,0,0,0,0,128,0,128,0,,,,,,,128,,,1,452.4865179653116,Y,d,go,d,1,0.2766294389748509,,,,,,,,,,,,,,,,59,001,21,w,Psychologie,2023-01-24_12h11.52.021,00_bat_bachelor,2022.2.4,59.966566374147725,
,,,,,,,,,,,,0,0,0,0,129,0,129,0,,,,,,,129,,,1,453.9039554002593,X,l,go,l,1,0.4515896338944003,,,,,,,,,,,,,,,,59,001,21,w,Psychologie,2023-01-24_12h11.52.021,00_bat_bachelor,2022.2.4,59.966566374147725,
,,,,,,,,,,,,0,0,0,0,130,0,130,0,,,,,,,130,,,1,455.4721069061252,Y,d,go,d,1,0.5958171486909123,,,,,,,,,,,,,,,,59,001,21,w,Psychologie,2023-01-24_12h11.52.021,00_bat_bachelor,2022.2.4,59.966566374147725,
,,,,,,,,,,,,0,0,0,0,131,0,131,0,,,,,,,131,,,1,457.17376758100363,Y,None,nogo,None,1,,,,,,,,,,,,,,,,,59,001,21,w,Psychologie,2023-01-24_12h11.52.021,00_bat_bachelor,2022.2.4,59.966566374147725,
,,,,,,,,,,,,0,0,0,0,132,0,132,0,,,,,,,132,,,1,458.97569028633006,X,l,go,l,1,0.42835766248754226,,,,,,,,,,,,,,,,59,001,21,w,Psychologie,2023-01-24_12h11.52.021,00_bat_bachelor,2022.2.4,59.966566374147725,
,,,,,,,,,,,,0,0,0,0,133,0,133,0,,,,,,,133,,,1,460.5104522948277,Y,d,go,None,0,,,,,,,,,,,,,,,,,59,001,21,w,Psychologie,2023-01-24_12h11.52.021,00_bat_bachelor,2022.2.4,59.966566374147725,
,,,,,,,,,,,,0,0,0,0,134,0,134,0,,,,,,,134,,,1,462.3122769489928,X,l,go,l,1,0.579517681573634,,,,,,,,,,,,,,,,59,001,21,w,Psychologie,2023-01-24_12h11.52.021,00_bat_bachelor,2022.2.4,59.966566374147725,
,,,,,,,,,,,,0,0,0,0,135,0,135,0,,,,,,,135,,,1,463.9976196952375,Y,d,go,d,1,0.3978407769700425,,,,,,,,,,,,,,,,59,001,21,w,Psychologie,2023-01-24_12h11.52.021,00_bat_bachelor,2022.2.4,59.966566374147725,
,,,,,,,,,,,,0,0,0,0,136,0,136,0,,,,,,,136,,,1,465.515877929176,X,l,go,l,1,0.5276198992924037,,,,,,,,,,,,,,,,59,001,21,w,Psychologie,2023-01-24_12h11.52.021,00_bat_bachelor,2022.2.4,59.966566374147725,
,,,,,,,,,,,,0,0,0,0,137,0,137,0,,,,,,,137,,,1,467.1505717121163,X,None,nogo,None,1,,,,,,,,,,,,,,,,,59,001,21,w,Psychologie,2023-01-24_12h11.52.021,00_bat_bachelor,2022.2.4,59.966566374147725,
,,,,,,,,,,,,0,0,0,0,138,0,138,0,,,,,,,138,,,1,468.9522523664582,Y,d,go,d,1,0.38722294388571754,,,,,,,,,,,,,,,,59,001,21,w,Psychologie,2023-01-24_12h11.52.021,00_bat_bachelor,2022.2.4,59.966566374147725,
,,,,,,,,,,,,0,0,0,0,139,0,139,0,,,,,,,139,,,1,470.45358056995246,X,l,go,l,1,0.3655425603119511,,,,,,,,,,,,,,,,59,001,21,w,Psychologie,2023-01-24_12h11.52.021,00_bat_bachelor,2022.2.4,59.966566374147725,
,,,,,,,,,,,,0,0,0,0,140,0,140,0,,,,,,,140,,,1,471.9218421474761,X,None,nogo,None,1,,,,,,,,,,,,,,,,,59,001,21,w,Psychologie,2023-01-24_12h11.52.021,00_bat_bachelor,2022.2.4,59.966566374147725,
,,,,,,,,,,,,0,0,0,0,141,0,141,0,,,,,,,141,,,1,473.72370741697523,Y,d,go,d,1,0.26352586535722367,,,,,,,,,,,,,,,,59,001,21,w,Psychologie,2023-01-24_12h11.52.021,00_bat_bachelor,2022.2.4,59.966566374147725,
,,,,,,,,,,,,0,0,0,0,142,0,142,0,,,,,,,142,,,1,475.09208439948634,X,l,go,l,1,0.4237923347736796,,,,,,,,,,,,,,,,59,001,21,w,Psychologie,2023-01-24_12h11.52.021,00_bat_bachelor,2022.2.4,59.966566374147725,
,,,,,,,,,,,,0,0,0,0,143,0,143,0,,,,,,,143,,,1,476.6265022032785,Y,d,go,d,1,0.38471258800018404,,,,,,,,,,,,,,,,59,001,21,w,Psychologie,2023-01-24_12h11.52.021,00_bat_bachelor,2022.2.4,59.966566374147725,
,,,,,,,,,,,,0,0,0,0,144,0,144,0,,,,,,,144,,,1,478.1280663039179,Y,None,nogo,d,0,0.4427994908674009,,,,,,,,,,,,,,,,59,001,21,w,Psychologie,2023-01-24_12h11.52.021,00_bat_bachelor,2022.2.4,59.966566374147725,
,,,,,,,,,,,,0,0,0,0,145,0,145,0,,,,,,,145,,,1,479.679810445361,X,l,go,l,1,0.379627055797755,,,,,,,,,,,,,,,,59,001,21,w,Psychologie,2023-01-24_12h11.52.021,00_bat_bachelor,2022.2.4,59.966566374147725,
,,,,,,,,,,,,0,0,0,0,146,0,146,0,,,,,,,146,,,1,481.1646344640394,Y,d,go,d,1,0.43940011043559934,,,,,,,,,,,,,,,,59,001,21,w,Psychologie,2023-01-24_12h11.52.021,00_bat_bachelor,2022.2.4,59.966566374147725,
,,,,,,,,,,,,0,0,0,0,147,0,147,0,,,,,,,147,,,1,482.71613368270664,Y,None,nogo,None,1,,,,,,,,,483.5169244919907,,,,,,,,59,001,21,w,Psychologie,2023-01-24_12h11.52.021,00_bat_bachelor,2022.2.4,59.966566374147725,
,,,,,,,,,,,,0,0,0,0,148,0,148,0,,,,,,,148,,,1,484.517901721556,Y,None,nogo,None,1,,,,,,,,,,,,,,,,,59,001,21,w,Psychologie,2023-01-24_12h11.52.021,00_bat_bachelor,2022.2.4,59.966566374147725,
,,,,,,,,,,,,0,0,0,0,149,0,149,0,,,,,,,149,,,1,486.3196016579259,X,l,go,l,1,0.17968350701085,,,,,,,,,,,,,,,,59,001,21,w,Psychologie,2023-01-24_12h11.52.021,00_bat_bachelor,2022.2.4,59.966566374147725,
,,,,,,,,,,,,0,0,0,0,150,0,150,0,,,,,,,150,,,1,487.60445915348646,Y,d,go,d,1,0.4072089705696271,,,,,,,,,,,,,,,,59,001,21,w,Psychologie,2023-01-24_12h11.52.021,00_bat_bachelor,2022.2.4,59.966566374147725,
,,,,,,,,,,,,0,0,0,0,151,0,151,0,,,,,,,151,,,1,489.1225975927009,Y,None,nogo,None,1,,,,,,,,,,,,,,,,,59,001,21,w,Psychologie,2023-01-24_12h11.52.021,00_bat_bachelor,2022.2.4,59.966566374147725,
,,,,,,,,,,,,0,0,0,0,152,0,152,0,,,,,,,152,,,1,490.9247352721213,X,l,go,l,1,0.2637363266367174,,,,,,,,,,,,,,,,59,001,21,w,Psychologie,2023-01-24_12h11.52.021,00_bat_bachelor,2022.2.4,59.966566374147725,
,,,,,,,,,,,,0,0,0,0,153,0,153,0,,,,,,,153,,,1,492.292125178923,Y,d,go,d,1,0.4075626111589372,,,,,,,,,,,,,,,,59,001,21,w,Psychologie,2023-01-24_12h11.52.021,00_bat_bachelor,2022.2.4,59.966566374147725,
,,,,,,,,,,,,0,0,0,0,154,0,154,0,,,,,,,154,,,1,493.8107050534909,Y,None,nogo,None,1,,,,,,,,,494.6112525810222,,,,,,,,59,001,21,w,Psychologie,2023-01-24_12h11.52.021,00_bat_bachelor,2022.2.4,59.966566374147725,
,,,,,,,,,,,,0,0,0,0,155,0,155,0,,,,,,,155,,,1,495.6123085797226,X,l,go,l,1,0.24693060373101616,,,,,,,,,,,,,,,,59,001,21,w,Psychologie,2023-01-24_12h11.52.021,00_bat_bachelor,2022.2.4,59.966566374147725,
,,,,,,,,,,,,0,0,0,0,156,0,156,0,,,,,,,156,,,1,496.96353973718215,Y,d,go,d,1,0.6560923565575649,,,,,,,,,,,,,,,,59,001,21,w,Psychologie,2023-01-24_12h11.52.021,00_bat_bachelor,2022.2.4,59.966566374147725,
,,,,,,,,,,,,0,0,0,0,157,0,157,0,,,,,,,157,,,1,498.7319552016961,Y,None,nogo,None,1,,,,,,,,,,,,,,,,,59,001,21,w,Psychologie,2023-01-24_12h11.52.021,00_bat_bachelor,2022.2.4,59.966566374147725,
,,,,,,,,,,,,0,0,0,0,158,0,158,0,,,,,,,158,,,1,500.53408344523086,Y,None,nogo,None,1,,,,,,,,,,,,,,,,,59,001,21,w,Psychologie,2023-01-24_12h11.52.021,00_bat_bachelor,2022.2.4,59.966566374147725,
,,,,,,,,,,,,0,0,0,0,159,0,159,0,,,,,,,159,,,1,502.3356319971699,X,l,go,l,1,0.25210023839463247,,,,,,,,,,,,,,,,59,001,21,w,Psychologie,2023-01-24_12h11.52.021,00_bat_bachelor,2022.2.4,59.966566374147725,
,,,,,,,,,,,,0,0,0,0,160,0,160,0,,,,,,,160,,,1,503.7038424157836,Y,d,go,d,1,0.2362844629878964,,,,,,,,,,,,,,,,59,001,21,w,Psychologie,2023-01-24_12h11.52.021,00_bat_bachelor,2022.2.4,59.966566374147725,
,,,,,,,,,,,,0,0,0,0,161,0,161,0,,,,,,,161,,,1,505.05529223964004,Y,None,nogo,d,0,0.27539579946642334,,,,,,,,,,,,,,,,59,001,21,w,Psychologie,2023-01-24_12h11.52.021,00_bat_bachelor,2022.2.4,59.966566374147725,
,,,,,,,,,,,,0,0,0,0,162,0,162,0,,,,,,,162,,,1,506.4563801562508,X,l,go,l,1,0.38736366166085645,,,,,,,,,,,,,,,,59,001,21,w,Psychologie,2023-01-24_12h11.52.021,00_bat_bachelor,2022.2.4,59.966566374147725,
,,,,,,,,,,,,0,0,0,0,163,0,163,0,,,,,,,163,,,1,507.9579561543105,Y,d,go,d,1,0.6056144699687138,,,,,,,,,,,,,,,,59,001,21,w,Psychologie,2023-01-24_12h11.52.021,00_bat_bachelor,2022.2.4,59.966566374147725,
,,,,,,,,,,,,0,0,0,0,164,0,164,0,,,,,,,164,,,1,509.67642460337447,X,l,go,l,1,0.3664607130285731,,,,,,,,,,,,,,,,59,001,21,w,Psychologie,2023-01-24_12h11.52.021,00_bat_bachelor,2022.2.4,59.966566374147725,
,,,,,,,,,,,,0,0,0,0,165,0,165,0,,,,,,,165,,,1,511.1445155144429,Y,d,go,d,1,0.2997071541594778,,,,,,,,,,,,,,,,59,001,21,w,Psychologie,2023-01-24_12h11.52.021,00_bat_bachelor,2022.2.4,59.966566374147725,
,,,,,,,,,,,,0,0,0,0,166,0,166,0,,,,,,,166,,,1,512.5458085590053,Y,None,nogo,None,1,,,,,,,,,,,,,,,,,59,001,21,w,Psychologie,2023-01-24_12h11.52.021,00_bat_bachelor,2022.2.4,59.966566374147725,
,,,,,,,,,,,,0,0,0,0,167,0,167,0,,,,,,,167,,,1,514.3476976233469,X,l,go,l,1,0.3042417126816872,,,,,,,,,,,,,,,,59,001,21,w,Psychologie,2023-01-24_12h11.52.021,00_bat_bachelor,2022.2.4,59.966566374147725,
,,,,,,,,,,,,0,0,0,0,168,0,168,0,,,,,,,168,,,1,515.76557444237,Y,d,go,d,1,0.40562702379793336,,,,,,,,,,,,,,,,59,001,21,w,Psychologie,2023-01-24_12h11.52.021,00_bat_bachelor,2022.2.4,59.966566374147725,
,,,,,,,,,,,,0,0,0,0,169,0,169,0,,,,,,,169,,,1,517.2838191378632,Y,None,nogo,d,0,0.34399592016416136,,,,,,,,,,,,,,,,59,001,21,w,Psychologie,2023-01-24_12h11.52.021,00_bat_bachelor,2022.2.4,59.966566374147725,
,,,,,,,,,,,,0,0,0,0,170,0,170,0,,,,,,,170,,,1,518.7352495566156,X,l,go,l,1,0.34829950461062253,,,,,,,,,,,,,,,,59,001,21,w,Psychologie,2023-01-24_12h11.52.021,00_bat_bachelor,2022.2.4,59.966566374147725,
,,,,,,,,,,,,0,0,0,0,171,0,171,0,,,,,,,171,,,1,520.1866890009987,Y,d,go,d,1,0.38424940908225835,,,,,,,,,,,,,,,,59,001,21,w,Psychologie,2023-01-24_12h11.52.021,00_bat_bachelor,2022.2.4,59.966566374147725,
,,,,,,,,,,,,0,0,0,0,172,0,172,0,,,,,,,172,,,1,521.6885292038605,X,l,go,l,1,0.44329549025678716,,,,,,,,,,,,,,,,59,001,21,w,Psychologie,2023-01-24_12h11.52.021,00_bat_bachelor,2022.2.4,59.966566374147725,
,,,,,,,,,,,,0,0,0,0,173,0,173,0,,,,,,,173,,,1,523.2397580638881,Y,d,go,d,1,0.3640615364929545,,,,,,,,,,,,,,,,59,001,21,w,Psychologie,2023-01-24_12h11.52.021,00_bat_bachelor,2022.2.4,59.966566374147725,
,,,,,,,,,,,,0,0,0,0,174,0,174,0,,,,,,,174,,,1,524.7079954363126,X,l,go,l,1,0.43913467486527225,,,,,,,,,,,,,,,,59,001,21,w,Psychologie,2023-01-24_12h11.52.021,00_bat_bachelor,2022.2.4,59.966566374147725,
,,,,,,,,,,,,0,0,0,0,175,0,175,0,,,,,,,175,,,1,526.2593088090562,Y,d,go,d,1,0.5112461758562858,,,,,,,,,,,,,,,,59,001,21,w,Psychologie,2023-01-24_12h11.52.021,00_bat_bachelor,2022.2.4,59.966566374147725,
,,,,,,,,,,,,0,0,0,0,176,0,176,0,,,,,,,176,,,1,527.8777983042473,Y,None,nogo,None,1,,,,,,,,,528.678595267369,,,,,,,,59,001,21,w,Psychologie,2023-01-24_12h11.52.021,00_bat_bachelor,2022.2.4,59.966566374147725,
,,,,,,,,,,,,0,0,0,0,177,0,177,0,,,,,,,177,,,1,529.6794641893775,X,l,go,l,1,0.2993403853815835,,,,,,,,,,,,,,,,59,001,21,w,Psychologie,2023-01-24_12h11.52.021,00_bat_bachelor,2022.2.4,59.966566374147725,
,,,,,,,,,,,,0,0,0,0,178,0,178,0,,,,,,,178,,,1,531.0808483107503,Y,d,go,d,1,0.4825680573067075,,,,,,,,,,,,,,,,59,001,21,w,Psychologie,2023-01-24_12h11.52.021,00_bat_bachelor,2022.2.4,59.966566374147725,
,,,,,,,,,,,,0,0,0,0,179,0,179,0,,,,,,,179,,,1,532.6659327188518,Y,None,nogo,None,1,,,,,,,,,,,,,,,,,59,001,21,w,Psychologie,2023-01-24_12h11.52.021,00_bat_bachelor,2022.2.4,59.966566374147725,
,,,,,,,,,,,,0,0,0,0,180,0,180,0,,,,,,,180,,,1,534.468053167524,X,l,go,l,1,0.2307870338572684,,,,,,,,,,,,,,,,59,001,21,w,Psychologie,2023-01-24_12h11.52.021,00_bat_bachelor,2022.2.4,59.966566374147725,
,,,,,,,,,,,,0,0,0,0,181,0,181,0,,,,,,,181,,,1,535.8029204476879,Y,d,go,d,1,0.3048049940407509,,,,,,,,,,,,,,,,59,001,21,w,Psychologie,2023-01-24_12h11.52.021,00_bat_bachelor,2022.2.4,59.966566374147725,
,,,,,,,,,,,,0,0,0,0,182,0,182,0,,,,,,,182,,,1,537.2204411645853,X,l,go,l,1,0.5343403012793715,,,,,,,,,,,,,,,,59,001,21,w,Psychologie,2023-01-24_12h11.52.021,00_bat_bachelor,2022.2.4,59.966566374147725,
,,,,,,,,,,,,0,0,0,0,183,0,183,0,,,,,,,183,,,1,538.8555468444556,Y,d,go,d,1,0.22803339622078056,,,,,,,,,,,,,,,,59,001,21,w,Psychologie,2023-01-24_12h11.52.021,00_bat_bachelor,2022.2.4,59.966566374147725,
,,,,,,,,,,,,0,0,0,0,184,0,184,0,,,,,,,184,,,1,540.1900370994408,X,l,go,l,1,0.26137981671672605,,,,,,,,,,,,,,,,59,001,21,w,Psychologie,2023-01-24_12h11.52.021,00_bat_bachelor,2022.2.4,59.966566374147725,
,,,,,,,,,,,,0,0,0,0,185,0,185,0,,,,,,,185,,,1,541.5582405437035,Y,d,go,d,1,0.30913852716912515,,,,,,,,,,,,,,,,59,001,21,w,Psychologie,2023-01-24_12h11.52.021,00_bat_bachelor,2022.2.4,59.966566374147725,
,,,,,,,,,,,,0,0,0,0,186,0,186,0,,,,,,,186,,,1,542.9763187983772,X,l,go,l,1,0.24268527562344389,,,,,,,,,,,,,,,,59,001,21,w,Psychologie,2023-01-24_12h11.52.021,00_bat_bachelor,2022.2.4,59.966566374147725,
,,,,,,,,,,,,0,0,0,0,187,0,187,0,,,,,,,187,,,1,544.3276348788077,Y,d,go,d,1,0.2125084922517999,,,,,,,,,,,,,,,,59,001,21,w,Psychologie,2023-01-24_12h11.52.021,00_bat_bachelor,2022.2.4,59.966566374147725,
,,,,,,,,,,,,0,0,0,0,188,0,188,0,,,,,,,188,,,1,545.6455643336649,Y,None,nogo,l,0,0.1982898430851492,,,,,,,,,,,,,,,,59,001,21,w,Psychologie,2023-01-24_12h11.52.021,00_bat_bachelor,2022.2.4,59.966566374147725,
,,,,,,,,,,,,0,0,0,0,189,0,189,0,,,,,,,189,,,1,546.9467939116385,Y,None,nogo,None,1,,,,,,,,,547.74773405407,,,,,,,,59,001,21,w,Psychologie,2023-01-24_12h11.52.021,00_bat_bachelor,2022.2.4,59.966566374147725,
,,,,,,,,,,,,0,0,0,0,190,0,190,0,,,,,,,190,,,1,548.7486394888547,X,l,go,l,1,0.19895814995288674,,,,,,,,,,,,,,,,59,001,21,w,Psychologie,2023-01-24_12h11.52.021,00_bat_bachelor,2022.2.4,59.966566374147725,
,,,,,,,,,,,,0,0,0,0,191,0,191,0,,,,,,,191,,,1,550.0498670155484,Y,d,go,d,1,0.3137407779140631,,,,,,,,,,,,,,,,59,001,21,w,Psychologie,2023-01-24_12h11.52.021,00_bat_bachelor,2022.2.4,59.966566374147725,
,,,,,,,,,,,,0,0,0,0,192,0,192,0,,,,,,,192,,,1,551.4678870138832,Y,None,nogo,d,0,0.31112375549491844,,,,,,,,,,,,,,,,59,001,21,w,Psychologie,2023-01-24_12h11.52.021,00_bat_bachelor,2022.2.4,59.966566374147725,
,,,,,,,,,,,,0,0,0,0,193,0,193,0,,,,,,,193,,,1,552.8860542940874,X,l,go,l,1,0.3657140472805622,,,,,,,,,,,,,,,,59,001,21,w,Psychologie,2023-01-24_12h11.52.021,00_bat_bachelor,2022.2.4,59.966566374147725,
,,,,,,,,,,,,0,0,0,0,194,0,194,0,,,,,,,194,,,1,554.3540840770238,Y,d,go,d,1,0.47353135048069817,,,,,,,,,,,,,,,,59,001,21,w,Psychologie,2023-01-24_12h11.52.021,00_bat_bachelor,2022.2.4,59.966566374147725,
,,,,,,,,,,,,0,0,0,0,195,0,195,0,,,,,,,195,,,1,555.9395426385108,X,l,go,l,1,0.3919966815992666,,,,,,,,,,,,,,,,59,001,21,w,Psychologie,2023-01-24_12h11.52.021,00_bat_bachelor,2022.2.4,59.966566374147725,
,,,,,,,,,,,,0,0,0,0,196,0,196,0,,,,,,,196,,,1,557.44110879043,Y,d,go,d,1,0.27409036517565255,,,,,,,,,,,,,,,,59,001,21,w,Psychologie,2023-01-24_12h11.52.021,00_bat_bachelor,2022.2.4,59.966566374147725,
,,,,,,,,,,,,0,0,0,0,197,0,197,0,,,,,,,197,,,1,558.8419846047364,Y,None,nogo,None,1,,,,,,,,,,,,,,,,,59,001,21,w,Psychologie,2023-01-24_12h11.52.021,00_bat_bachelor,2022.2.4,59.966566374147725,
,,,,,,,,,,,,0,0,0,0,198,0,198,0,,,,,,,198,,,1,560.6442268994124,X,l,go,l,1,0.1740519241993752,,,,,,,,,,,,,,,,59,001,21,w,Psychologie,2023-01-24_12h11.52.021,00_bat_bachelor,2022.2.4,59.966566374147725,
,,,,,,,,,,,,0,0,0,0,199,0,199,0,,,,,,,199,,,1,561.9450909393745,Y,d,go,d,1,0.20992798260704149,,,,,,,,,,,,,,,,59,001,21,w,Psychologie,2023-01-24_12h11.52.021,00_bat_bachelor,2022.2.4,59.966566374147725,
,,,,,,,,,,,,0,0,0,0,200,0,200,0,,,,,,,200,,,1,563.2630113686009,Y,None,nogo,d,0,0.3889759673675144,,,,,,,,,,,,,,,,59,001,21,w,Psychologie,2023-01-24_12h11.52.021,00_bat_bachelor,2022.2.4,59.966566374147725,
,,,,,,,,,,,,0,0,0,0,201,0,201,0,,,,,,,201,,,1,564.7646636742593,X,l,go,l,1,0.4708847896345105,,,,,,,,,,,,,,,,59,001,21,w,Psychologie,2023-01-24_12h11.52.021,00_bat_bachelor,2022.2.4,59.966566374147725,
,,,,,,,,,,,,0,0,0,0,202,0,202,0,,,,,,,202,,,1,566.3496328004512,Y,d,go,d,1,0.413935936649068,,,,,,,,,,,,,,,,59,001,21,w,Psychologie,2023-01-24_12h11.52.021,00_bat_bachelor,2022.2.4,59.966566374147725,
,,,,,,,,,,,,0,0,0,0,203,0,203,0,,,,,,,203,,,1,567.8677084705123,X,l,go,l,1,0.5117836110912322,,,,,,,,,,,,,,,,59,001,21,w,Psychologie,2023-01-24_12h11.52.021,00_bat_bachelor,2022.2.4,59.966566374147725,
,,,,,,,,,,,,0,0,0,0,204,0,204,0,,,,,,,204,,,1,569.4859362224379,Y,d,go,d,1,0.35780062112280575,,,,,,,,,,,,,,,,59,001,21,w,Psychologie,2023-01-24_12h11.52.021,00_bat_bachelor,2022.2.4,59.966566374147725,
,,,,,,,,,,,,0,0,0,0,205,0,205,0,,,,,,,205,,,1,570.9544620047654,Y,None,nogo,None,1,,,,,,,,,,,,,,,,,59,001,21,w,Psychologie,2023-01-24_12h11.52.021,00_bat_bachelor,2022.2.4,59.966566374147725,
,,,,,,,,,,,,0,0,0,0,206,0,206,0,,,,,,,206,,,1,572.7561582488306,X,l,go,l,1,0.27116154826762795,,,,,,,,,,,,,,,,59,001,21,w,Psychologie,2023-01-24_12h11.52.021,00_bat_bachelor,2022.2.4,59.966566374147725,
,,,,,,,,,,,,0,0,0,0,207,0,207,0,,,,,,,207,,,1,574.1408248523185,Y,d,go,d,1,0.29459741685968766,,,,,,,,,,,,,,,,59,001,21,w,Psychologie,2023-01-24_12h11.52.021,00_bat_bachelor,2022.2.4,59.966566374147725,
,,,,,,,,,,,,0,0,0,0,208,0,208,0,,,,,,,208,,,1,575.5418278459547,X,l,go,l,1,0.3011791523476859,,,,,,,,,,,,,,,,59,001,21,w,Psychologie,2023-01-24_12h11.52.021,00_bat_bachelor,2022.2.4,59.966566374147725,
,,,,,,,,,,,,0,0,0,0,209,0,209,0,,,,,,,209,,,1,576.9600365620063,Y,d,go,d,1,0.45876418916850525,,,,,,,,,,,,,,,,59,001,21,w,Psychologie,2023-01-24_12h11.52.021,00_bat_bachelor,2022.2.4,59.966566374147725,
,,,,,,,,,,,,0,0,0,0,210,0,210,0,,,,,,,210,,,1,578.5283017087568,X,l,go,l,1,0.2750593896253122,,,,,,,,,,,,,,,,59,001,21,w,Psychologie,2023-01-24_12h11.52.021,00_bat_bachelor,2022.2.4,59.966566374147725,
,,,,,,,,,,,,0,0,0,0,211,0,211,0,,,,,,,211,,,1,579.9129875942708,Y,d,go,d,1,0.3532734472064476,,,,,,,,,,,,,,,,59,001,21,w,Psychologie,2023-01-24_12h11.52.021,00_bat_bachelor,2022.2.4,59.966566374147725,
,,,,,,,,,,,,0,0,0,0,212,0,212,0,,,,,,,212,,,1,581.3986399196219,X,l,go,l,1,0.31588026246026857,,,,,,,,,,,,,,,,59,001,21,w,Psychologie,2023-01-24_12h11.52.021,00_bat_bachelor,2022.2.4,59.966566374147725,
,,,,,,,,,,,,0,0,0,0,213,0,213,0,,,,,,,213,,,1,582.8493786469189,Y,d,go,d,1,0.3377284406997205,,,,,,,,,,,,,,,,59,001,21,w,Psychologie,2023-01-24_12h11.52.021,00_bat_bachelor,2022.2.4,59.966566374147725,
,,,,,,,,,,,,0,0,0,0,214,0,214,0,,,,,,,214,,,1,584.301364552166,X,l,go,l,1,0.5817904992891272,,,,,,,,,,,,,,,,59,001,21,w,Psychologie,2023-01-24_12h11.52.021,00_bat_bachelor,2022.2.4,59.966566374147725,
,,,,,,,,,,,,0,0,0,0,215,0,215,0,,,,,,,215,,,1,586.0024857405297,Y,d,go,d,1,0.37698911032566684,,,,,,,,,,,,,,,,59,001,21,w,Psychologie,2023-01-24_12h11.52.021,00_bat_bachelor,2022.2.4,59.966566374147725,
,,,,,,,,,,,,0,0,0,0,216,0,216,0,,,,,,,216,,,1,587.4872543746606,Y,None,nogo,None,1,,,,,,,,,,,,,,,,,59,001,21,w,Psychologie,2023-01-24_12h11.52.021,00_bat_bachelor,2022.2.4,59.966566374147725,
,,,,,,,,,,,,0,0,0,0,217,0,217,0,,,,,,,217,,,1,589.2891192339048,X,l,go,l,1,0.2981592586293118,,,,,,,,,,,,,,,,59,001,21,w,Psychologie,2023-01-24_12h11.52.021,00_bat_bachelor,2022.2.4,59.966566374147725,
,,,,,,,,,,,,0,0,0,0,218,0,218,0,,,,,,,218,,,1,590.6905316629345,Y,d,go,d,1,0.21662253846989188,,,,,,,,,,,,,,,,59,001,21,w,Psychologie,2023-01-24_12h11.52.021,00_bat_bachelor,2022.2.4,59.966566374147725,
,,,,,,,,,,,,0,0,0,0,219,0,219,0,,,,,,,219,,,1,592.0081575284221,X,l,go,l,1,0.31497975074853457,,,,,,,,,,,,,,,,59,001,21,w,Psychologie,2023-01-24_12h11.52.021,00_bat_bachelor,2022.2.4,59.966566374147725,
,,,,,,,,,,,,0,0,0,0,220,0,220,0,,,,,,,220,,,1,593.4265073725037,Y,d,go,d,1,0.3848496134742163,,,,,,,,,,,,,,,,59,001,21,w,Psychologie,2023-01-24_12h11.52.021,00_bat_bachelor,2022.2.4,59.966566374147725,
,,,,,,,,,,,,0,0,0,0,221,0,221,0,,,,,,,221,,,1,594.9283602932992,X,l,go,l,1,0.30714263218942506,,,,,,,,,,,,,,,,59,001,21,w,Psychologie,2023-01-24_12h11.52.021,00_bat_bachelor,2022.2.4,59.966566374147725,
,,,,,,,,,,,,0,0,0,0,222,0,222,0,,,,,,,222,,,1,596.3461037791549,Y,d,go,d,1,0.31280129189144645,,,,,,,,,,,,,,,,59,001,21,w,Psychologie,2023-01-24_12h11.52.021,00_bat_bachelor,2022.2.4,59.966566374147725,
,,,,,,,,,,,,0,0,0,0,223,0,223,0,,,,,,,223,,,1,597.7645504436296,Y,None,nogo,None,1,,,,,,,,,598.5649593046655,,,,,,,,59,001,21,w,Psychologie,2023-01-24_12h11.52.021,00_bat_bachelor,2022.2.4,59.966566374147725,
,,,,,,,,,,,,0,0,0,0,224,0,224,0,,,,,,,224,,,1,599.5660009444091,X,l,go,l,1,0.3736574221202318,,,,,,,,,,,,,,,,59,001,21,w,Psychologie,2023-01-24_12h11.52.021,00_bat_bachelor,2022.2.4,59.966566374147725,
,,,,,,,,,,,,0,0,0,0,225,0,225,0,,,,,,,225,,,1,601.0508791168668,Y,d,go,d,1,0.3121030363399768,,,,,,,,,,,,,,,,59,001,21,w,Psychologie,2023-01-24_12h11.52.021,00_bat_bachelor,2022.2.4,59.966566374147725,
,,,,,,,,,,,,0,0,0,0,226,0,226,0,,,,,,,226,,,1,602.4687354230955,X,l,go,None,0,,,,,,,,,,,,,,,,,59,001,21,w,Psychologie,2023-01-24_12h11.52.021,00_bat_bachelor,2022.2.4,59.966566374147725,
,,,,,,,,,,,,0,0,0,0,227,0,227,0,,,,,,,227,,,1,604.2708849999362,Y,d,go,None,0,,,,,,,,,,,,,,,,,59,001,21,w,Psychologie,2023-01-24_12h11.52.021,00_bat_bachelor,2022.2.4,59.966566374147725,
,,,,,,,,,,,,0,0,0,0,228,0,228,0,,,,,,,228,,,1,606.0726948848878,Y,None,nogo,d,0,0.5705663079752412,,,,,,,,,,,,,,,,59,001,21,w,Psychologie,2023-01-24_12h11.52.021,00_bat_bachelor,2022.2.4,59.966566374147725,
,,,,,,,,,,,,0,0,0,0,229,0,229,0,,,,,,,229,,,1,607.7575502471173,X,l,go,l,1,0.5422635735794756,,,,,,,,,,,,,,,,59,001,21,w,Psychologie,2023-01-24_12h11.52.021,00_bat_bachelor,2022.2.4,59.966566374147725,
,,,,,,,,,,,,0,0,0,0,230,0,230,0,,,,,,,230,,,1,609.4091781630632,Y,d,go,d,1,0.43443437295900367,,,,,,,,,,,,,,,,59,001,21,w,Psychologie,2023-01-24_12h11.52.021,00_bat_bachelor,2022.2.4,59.966566374147725,
,,,,,,,,,,,,0,0,0,0,231,0,231,0,,,,,,,231,,,1,610.9613452783433,Y,None,nogo,None,1,,,,,,,,,611.7623945488485,,,,,,,,59,001,21,w,Psychologie,2023-01-24_12h11.52.021,00_bat_bachelor,2022.2.4,59.966566374147725,
,,,,,,,,,,,,0,0,0,0,232,0,232,0,,,,,,,232,,,1,612.7625008051273,X,l,go,l,1,0.3367704931588378,,,,,,,,,,,,,,,,59,001,21,w,Psychologie,2023-01-24_12h11.52.021,00_bat_bachelor,2022.2.4,59.966566374147725,
,,,,,,,,,,,,0,0,0,0,233,0,233,0,,,,,,,233,,,1,614.2142992234258,Y,d,go,d,1,0.49348086438658356,,,,,,,,,,,,,,,,59,001,21,w,Psychologie,2023-01-24_12h11.52.021,00_bat_bachelor,2022.2.4,59.966566374147725,
,,,,,,,,,,,,0,0,0,0,234,0,234,0,,,,,,,234,,,1,615.8157274062833,X,l,go,None,0,,,,,,,,,,,,,,,,,59,001,21,w,Psychologie,2023-01-24_12h11.52.021,00_bat_bachelor,2022.2.4,59.966566374147725,
,,,,,,,,,,,,0,0,0,0,235,0,235,0,,,,,,,235,,,1,617.6173617017084,Y,d,go,d,1,0.2895812179049244,,,,,,,,,,,,,,,,59,001,21,w,Psychologie,2023-01-24_12h11.52.021,00_bat_bachelor,2022.2.4,59.966566374147725,
,,,,,,,,,,,,0,0,0,0,236,0,236,0,,,,,,,236,,,1,619.0188442844992,Y,None,nogo,None,1,,,,,,,,,,,,,,,,,59,001,21,w,Psychologie,2023-01-24_12h11.52.021,00_bat_bachelor,2022.2.4,59.966566374147725,
,,,,,,,,,,,,0,0,0,0,237,0,237,0,,,,,,,237,,,1,620.8207846308287,X,l,go,l,1,0.32692147964189644,,,,,,,,,,,,,,,,59,001,21,w,Psychologie,2023-01-24_12h11.52.021,00_bat_bachelor,2022.2.4,59.966566374147725,
,,,,,,,,,,,,0,0,0,0,238,0,238,0,,,,,,,238,,,1,622.2553379421479,Y,d,go,d,1,0.5079456670973741,,,,,,,,,,,,,,,,59,001,21,w,Psychologie,2023-01-24_12h11.52.021,00_bat_bachelor,2022.2.4,59.966566374147725,
,,,,,,,,,,,,0,0,0,0,239,0,239,0,,,,,,,239,,,1,623.8736538990925,X,l,go,l,1,0.4496958926356456,,,,,,,,,,,,,,,,59,001,21,w,Psychologie,2023-01-24_12h11.52.021,00_bat_bachelor,2022.2.4,59.966566374147725,
,,,,,,,,,,,,0,0,0,0,240,0,240,0,,,,,,,240,,,1,625.4252552714806,Y,d,go,d,1,0.4501845074191806,,,,,,,,,,,,,,,,59,001,21,w,Psychologie,2023-01-24_12h11.52.021,00_bat_bachelor,2022.2.4,59.966566374147725,
,,,,,,,,,,,,0,0,0,0,241,0,241,0,,,,,,,241,,,1,626.9767159260937,X,l,go,None,0,,,,,,,,,,,,,,,,,59,001,21,w,Psychologie,2023-01-24_12h11.52.021,00_bat_bachelor,2022.2.4,59.966566374147725,
,,,,,,,,,,,,0,0,0,0,242,0,242,0,,,,,,,242,,,1,628.7786620160059,Y,d,go,d,1,0.32853583662654273,,,,,,,,,,,,,,,,59,001,21,w,Psychologie,2023-01-24_12h11.52.021,00_bat_bachelor,2022.2.4,59.966566374147725,
,,,,,,,,,,,,0,0,0,0,243,0,243,0,,,,,,,243,,,1,630.2137724548447,X,l,go,l,1,0.31015144899720326,,,,,,,,,,,,,,,,59,001,21,w,Psychologie,2023-01-24_12h11.52.021,00_bat_bachelor,2022.2.4,59.966566374147725,
,,,,,,,,,,,,0,0,0,0,244,0,244,0,,,,,,,244,,,1,631.631476556131,Y,d,go,d,1,0.3720151677298418,,,,,,,,,,,,,,,,59,001,21,w,Psychologie,2023-01-24_12h11.52.021,00_bat_bachelor,2022.2.4,59.966566374147725,
,,,,,,,,,,,,0,0,0,0,245,0,245,0,,,,,,,245,,,1,633.116143036541,X,l,go,l,1,0.1988613295598043,,,,,,,,,,,,,,,,59,001,21,w,Psychologie,2023-01-24_12h11.52.021,00_bat_bachelor,2022.2.4,59.966566374147725,
,,,,,,,,,,,,0,0,0,0,246,0,246,0,,,,,,,246,,,1,634.4175428707167,X,None,nogo,None,1,,,,,,,,,,,,,,,,,59,001,21,w,Psychologie,2023-01-24_12h11.52.021,00_bat_bachelor,2022.2.4,59.966566374147725,
,,,,,,,,,,,,0,0,0,0,247,0,247,0,,,,,,,247,,,1,636.2193806530704,Y,d,go,d,1,0.30400786681639147,,,,,,,,,,,,,,,,59,001,21,w,Psychologie,2023-01-24_12h11.52.021,00_bat_bachelor,2022.2.4,59.966566374147725,
,,,,,,,,,,,,0,0,0,0,248,0,248,0,,,,,,,248,,,1,637.6372948053813,X,l,go,l,1,0.35840164602450386,,,,,,,,,,,,,,,,59,001,21,w,Psychologie,2023-01-24_12h11.52.021,00_bat_bachelor,2022.2.4,59.966566374147725,
,,,,,,,,,,,,0,0,0,0,249,0,249,0,,,,,,,249,,,1,639.1055489982991,X,None,nogo,None,1,,,,,,,,,,,,,,,,,59,001,21,w,Psychologie,2023-01-24_12h11.52.021,00_bat_bachelor,2022.2.4,59.966566374147725,
,,,,,,,,,,,,1,0,1,0,0,0,0,0,,,,,,,0,,,0.2,671.8549577169742,X,l,go,None,0,,,,,,,,,,639.9156103602745,space,31.706487371457115,,,,,59,001,21,w,Psychologie,2023-01-24_12h11.52.021,00_bat_bachelor,2022.2.4,59.966566374147725,
,,,,,,,,,,,,1,0,1,0,1,0,1,0,,,,,,,1,,,0.2,672.8558266389828,Y,d,go,None,0,,,,,,,,,,,,,,,,,59,001,21,w,Psychologie,2023-01-24_12h11.52.021,00_bat_bachelor,2022.2.4,59.966566374147725,
,,,,,,,,,,,,1,0,1,0,2,0,2,0,,,,,,,2,,,0.2,673.8568855094745,X,l,go,None,0,,,,,,,,,,,,,,,,,59,001,21,w,Psychologie,2023-01-24_12h11.52.021,00_bat_bachelor,2022.2.4,59.966566374147725,
,,,,,,,,,,,,1,0,1,0,3,0,3,0,,,,,,,3,,,0.2,674.8583735076427,X,None,nogo,l,0,0.5045573635761684,,,,,,,,,,,,,,,,59,001,21,w,Psychologie,2023-01-24_12h11.52.021,00_bat_bachelor,2022.2.4,59.966566374147725,
,,,,,,,,,,,,1,0,1,0,4,0,4,0,,,,,,,4,,,0.2,675.6753887072136,Y,d,go,d,1,0.40030026112253836,,,,,,,,,,,,,,,,59,001,21,w,Psychologie,2023-01-24_12h11.52.021,00_bat_bachelor,2022.2.4,59.966566374147725,
,,,,,,,,,,,,1,0,1,0,5,0,5,0,,,,,,,5,,,0.2,676.3760733832951,X,l,go,l,1,0.37912449231407663,,,,,,,,,,,,,,,,59,001,21,w,Psychologie,2023-01-24_12h11.52.021,00_bat_bachelor,2022.2.4,59.966566374147725,
,,,,,,,,,,,,1,0,1,0,6,0,6,0,,,,,,,6,,,0.2,677.0604979768232,Y,d,go,d,1,0.39897759608356864,,,,,,,,,,,,,,,,59,001,21,w,Psychologie,2023-01-24_12h11.52.021,00_bat_bachelor,2022.2.4,59.966566374147725,
,,,,,,,,,,,,1,0,1,0,7,0,7,0,,,,,,,7,,,0.2,677.7608544481791,Y,None,nogo,d,0,0.2906388576284371,,,,,,,,,,,,,,,,59,001,21,w,Psychologie,2023-01-24_12h11.52.021,00_bat_bachelor,2022.2.4,59.966566374147725,
,,,,,,,,,,,,1,0,1,0,8,0,8,0,,,,,,,8,,,0.2,678.3616959650917,X,l,go,l,1,0.35343098547491536,,,,,,,,,,,,,,,,59,001,21,w,Psychologie,2023-01-24_12h11.52.021,00_bat_bachelor,2022.2.4,59.966566374147725,
,,,,,,,,,,,,1,0,1,0,9,0,9,0,,,,,,,9,,,0.2,679.0291728871725,Y,d,go,d,1,0.3895023256955028,,,,,,,,,,,,,,,,59,001,21,w,Psychologie,2023-01-24_12h11.52.021,00_bat_bachelor,2022.2.4,59.966566374147725,
,,,,,,,,,,,,1,0,1,0,10,0,10,0,,,,,,,10,,,0.2,679.7463551839737,Y,None,nogo,None,1,,,,,,,,,680.5471406599299,,,,,,,,59,001,21,w,Psychologie,2023-01-24_12h11.52.021,00_bat_bachelor,2022.2.4,59.966566374147725,
,,,,,,,,,,,,1,0,1,0,11,0,11,0,,,,,,,11,,,0.2,680.7471330291701,X,l,go,l,1,0.6317227455256216,,,,,,,,,,,,,,,,59,001,21,w,Psychologie,2023-01-24_12h11.52.021,00_bat_bachelor,2022.2.4,59.966566374147725,
,,,,,,,,,,,,1,0,1,0,12,0,12,0,,,,,,,12,,,0.2,681.6814178279983,Y,d,go,d,1,0.4658940265471756,,,,,,,,,,,,,,,,59,001,21,w,Psychologie,2023-01-24_12h11.52.021,00_bat_bachelor,2022.2.4,59.966566374147725,
,,,,,,,,,,,,1,0,1,0,13,0,13,0,,,,,,,13,,,0.2,682.4489286782409,Y,None,nogo,None,1,,,,,,,,,683.2495935389616,,,,,,,,59,001,21,w,Psychologie,2023-01-24_12h11.52.021,00_bat_bachelor,2022.2.4,59.966566374147725,
,,,,,,,,,,,,1,0,1,0,14,0,14,0,,,,,,,14,,,0.2,683.449852984797,Y,None,nogo,d,0,0.4415371334471274,,,,,,,,,,,,,,,,59,001,21,w,Psychologie,2023-01-24_12h11.52.021,00_bat_bachelor,2022.2.4,59.966566374147725,
,,,,,,,,,,,,1,0,1,0,15,0,15,0,,,,,,,15,,,0.2,684.2007012914437,X,l,go,l,1,0.47477729766433185,,,,,,,,,,,,,,,,59,001,21,w,Psychologie,2023-01-24_12h11.52.021,00_bat_bachelor,2022.2.4,59.966566374147725,
,,,,,,,,,,,,1,0,1,0,16,0,16,0,,,,,,,16,,,0.2,684.9846281214832,Y,d,go,d,1,0.5863193142267846,,,,,,,,,,,,,,,,59,001,21,w,Psychologie,2023-01-24_12h11.52.021,00_bat_bachelor,2022.2.4,59.966566374147725,
,,,,,,,,,,,,1,0,1,0,17,0,17,0,,,,,,,17,,,0.2,685.8855730639098,X,l,go,l,1,0.44543374403474445,,,,,,,,,,,,,,,,59,001,21,w,Psychologie,2023-01-24_12h11.52.021,00_bat_bachelor,2022.2.4,59.966566374147725,
,,,,,,,,,,,,1,0,1,0,18,0,18,0,,,,,,,18,,,0.2,686.6364386013065,X,None,nogo,l,0,0.3832430513466534,,,,,,,,,,,,,,,,59,001,21,w,Psychologie,2023-01-24_12h11.52.021,00_bat_bachelor,2022.2.4,59.966566374147725,
,,,,,,,,,,,,1,0,1,0,19,0,19,0,,,,,,,19,,,0.2,687.3205797080045,Y,d,go,d,1,0.3780012116440048,,,,,,,,,,,,,,,,59,001,21,w,Psychologie,2023-01-24_12h11.52.021,00_bat_bachelor,2022.2.4,59.966566374147725,
,,,,,,,,,,,,1,0,1,0,20,0,20,0,,,,,,,20,,,0.2,688.0044758919266,X,l,go,l,1,0.6390860185147176,,,,,,,,,,,,,,,,59,001,21,w,Psychologie,2023-01-24_12h11.52.021,00_bat_bachelor,2022.2.4,59.966566374147725,
,,,,,,,,,,,,1,0,1,0,21,0,21,0,,,,,,,21,,,0.2,688.9554453881701,X,None,nogo,l,0,0.6559664079941285,,,,,,,,,,,,,,,,59,001,21,w,Psychologie,2023-01-24_12h11.52.021,00_bat_bachelor,2022.2.4,59.966566374147725,
,,,,,,,,,,,,1,0,1,0,22,0,22,0,,,,,,,22,,,0.2,689.923061017771,Y,d,go,d,1,0.43264483669918263,,,,,,,,,,,,,,,,59,001,21,w,Psychologie,2023-01-24_12h11.52.021,00_bat_bachelor,2022.2.4,59.966566374147725,
,,,,,,,,,,,,1,0,1,0,23,0,23,0,,,,,,,23,,,0.2,690.6570765246233,X,l,go,l,1,0.6658917291133548,,,,,,,,,,,,,,,,59,001,21,w,Psychologie,2023-01-24_12h11.52.021,00_bat_bachelor,2022.2.4,59.966566374147725,
,,,,,,,,,,,,1,0,1,0,24,0,24,0,,,,,,,24,,,0.2,691.6247303080236,Y,d,go,d,1,0.5706820001414599,,,,,,,,,,,,,,,,59,001,21,w,Psychologie,2023-01-24_12h11.52.021,00_bat_bachelor,2022.2.4,59.966566374147725,
,,,,,,,,,,,,1,0,1,0,25,0,25,0,,,,,,,25,,,0.2,692.5089023480177,X,l,go,l,1,0.4538292208817438,,,,,,,,,,,,,,,,59,001,21,w,Psychologie,2023-01-24_12h11.52.021,00_bat_bachelor,2022.2.4,59.966566374147725,
,,,,,,,,,,,,1,0,1,0,26,0,26,0,,,,,,,26,,,0.2,693.2761329934765,Y,d,go,d,1,0.3514900647860486,,,,,,,,,,,,,,,,59,001,21,w,Psychologie,2023-01-24_12h11.52.021,00_bat_bachelor,2022.2.4,59.966566374147725,
,,,,,,,,,,,,1,0,1,0,27,0,27,0,,,,,,,27,,,0.2,693.9435159669538,X,l,go,l,1,0.4597036751911219,,,,,,,,,,,,,,,,59,001,21,w,Psychologie,2023-01-24_12h11.52.021,00_bat_bachelor,2022.2.4,59.966566374147725,
,,,,,,,,,,,,1,0,1,0,28,0,28,0,,,,,,,28,,,0.2,694.7110629197177,Y,d,go,d,1,0.5409618315898115,,,,,,,,,,,,,,,,59,001,21,w,Psychologie,2023-01-24_12h11.52.021,00_bat_bachelor,2022.2.4,59.966566374147725,
,,,,,,,,,,,,1,0,1,0,29,0,29,0,,,,,,,29,,,0.2,695.5619402314587,X,l,go,l,1,0.36120779641532863,,,,,,,,,,,,,,,,59,001,21,w,Psychologie,2023-01-24_12h11.52.021,00_bat_bachelor,2022.2.4,59.966566374147725,
,,,,,,,,,,,,1,0,1,0,30,0,30,0,,,,,,,30,,,0.2,696.2293121280254,X,None,nogo,None,1,,,,,,,,,,,,,,,,,59,001,21,w,Psychologie,2023-01-24_12h11.52.021,00_bat_bachelor,2022.2.4,59.966566374147725,
,,,,,,,,,,,,1,0,1,0,31,0,31,0,,,,,,,31,,,0.2,697.2302696653096,Y,d,go,d,1,0.23663194974142243,,,,,,,,,,,,,,,,59,001,21,w,Psychologie,2023-01-24_12h11.52.021,00_bat_bachelor,2022.2.4,59.966566374147725,
,,,,,,,,,,,,1,0,1,0,32,0,32,0,,,,,,,32,,,0.2,697.7808285774408,X,l,go,l,1,0.4139269110182795,,,,,,,,,,,,,,,,59,001,21,w,Psychologie,2023-01-24_12h11.52.021,00_bat_bachelor,2022.2.4,59.966566374147725,
,,,,,,,,,,,,1,0,1,0,33,0,33,0,,,,,,,33,,,0.2,698.4981823612106,X,None,nogo,None,1,,,,,,,,,,,,,,,,,59,001,21,w,Psychologie,2023-01-24_12h11.52.021,00_bat_bachelor,2022.2.4,59.966566374147725,
,,,,,,,,,,,,1,0,1,0,34,0,34,0,,,,,,,34,,,0.2,699.4993327187694,Y,d,go,d,1,0.30400786681639147,,,,,,,,,,,,,,,,59,001,21,w,Psychologie,2023-01-24_12h11.52.021,00_bat_bachelor,2022.2.4,59.966566374147725,
,,,,,,,,,,,,1,0,1,0,35,0,35,0,,,,,,,35,,,0.2,700.116491343806,X,l,go,l,1,0.3983933916751994,,,,,,,,,,,,,,,,59,001,21,w,Psychologie,2023-01-24_12h11.52.021,00_bat_bachelor,2022.2.4,59.966566374147725,
,,,,,,,,,,,,1,0,1,0,36,0,36,0,,,,,,,36,,,0.2,700.817171917326,Y,d,go,d,1,0.4493693289368821,,,,,,,,,,,,,,,,59,001,21,w,Psychologie,2023-01-24_12h11.52.021,00_bat_bachelor,2022.2.4,59.966566374147725,
,,,,,,,,,,,,1,0,1,0,37,0,37,0,,,,,,,37,,,0.2,701.567839711377,Y,None,nogo,None,1,,,,,,,,,,,,,,,,,59,001,21,w,Psychologie,2023-01-24_12h11.52.021,00_bat_bachelor,2022.2.4,59.966566374147725,
,,,,,,,,,,,,1,0,1,0,38,0,38,0,,,,,,,38,,,0.2,702.5698155038172,X,l,go,l,1,0.5137938650277647,,,,,,,,,,,,,,,,59,001,21,w,Psychologie,2023-01-24_12h11.52.021,00_bat_bachelor,2022.2.4,59.966566374147725,
,,,,,,,,,,,,1,0,1,0,39,0,39,0,,,,,,,39,,,0.2,703.4031789909586,Y,d,go,d,1,0.5281019499834656,,,,,,,,,,,,,,,,59,001,21,w,Psychologie,2023-01-24_12h11.52.021,00_bat_bachelor,2022.2.4,59.966566374147725,
,,,,,,,,,,,,1,0,1,0,40,0,40,0,,,,,,,40,,,0.2,704.2373917078257,Y,None,nogo,None,1,,,,,,,,,,,,,,,,,59,001,21,w,Psychologie,2023-01-24_12h11.52.021,00_bat_bachelor,2022.2.4,59.966566374147725,
,,,,,,,,,,,,1,0,1,0,41,0,41,0,,,,,,,41,,,0.2,705.2383656553448,Y,None,nogo,l,0,0.21264469721245405,,,,,,,,,,,,,,,,59,001,21,w,Psychologie,2023-01-24_12h11.52.021,00_bat_bachelor,2022.2.4,59.966566374147725,
,,,,,,,,,,,,1,0,1,0,42,0,42,0,,,,,,,42,,,0.2,705.7552454294419,X,l,go,None,0,,,,,,,,,,,,,,,,,59,001,21,w,Psychologie,2023-01-24_12h11.52.021,00_bat_bachelor,2022.2.4,59.966566374147725,
,,,,,,,,,,,,1,0,1,0,43,0,43,0,,,,,,,43,,,0.2,706.7565073766054,Y,d,go,d,1,0.4233168481805478,,,,,,,,,,,,,,,,59,001,21,w,Psychologie,2023-01-24_12h11.52.021,00_bat_bachelor,2022.2.4,59.966566374147725,
,,,,,,,,,,,,1,0,1,0,44,0,44,0,,,,,,,44,,,0.2,707.490594267987,X,l,go,l,1,0.6407729907969042,,,,,,,,,,,,,,,,59,001,21,w,Psychologie,2023-01-24_12h11.52.021,00_bat_bachelor,2022.2.4,59.966566374147725,
,,,,,,,,,,,,1,0,1,0,45,0,45,0,,,,,,,45,,,0.2,708.4414123797997,Y,d,go,d,1,0.4893963565955346,,,,,,,,,,,,,,,,59,001,21,w,Psychologie,2023-01-24_12h11.52.021,00_bat_bachelor,2022.2.4,59.966566374147725,
,,,,,,,,,,,,1,0,1,0,46,0,46,0,,,,,,,46,,,0.2,709.242311906899,X,l,go,l,1,0.4486870733653632,,,,,,,,,,,,,,,,59,001,21,w,Psychologie,2023-01-24_12h11.52.021,00_bat_bachelor,2022.2.4,59.966566374147725,
,,,,,,,,,,,,1,0,1,0,47,0,47,0,,,,,,,47,,,0.2,709.9928681113415,Y,d,go,d,1,0.5937424845778878,,,,,,,,,,,,,,,,59,001,21,w,Psychologie,2023-01-24_12h11.52.021,00_bat_bachelor,2022.2.4,59.966566374147725,
,,,,,,,,,,,,1,0,1,0,48,0,48,0,,,,,,,48,,,0.2,710.8939648484538,X,l,go,l,1,0.42140464540534595,,,,,,,,,,,,,,,,59,001,21,w,Psychologie,2023-01-24_12h11.52.021,00_bat_bachelor,2022.2.4,59.966566374147725,
,,,,,,,,,,,,1,0,1,0,49,0,49,0,,,,,,,49,,,0.2,711.6279323553645,Y,d,go,None,0,,,,,,,,,,,,,,,,,59,001,21,w,Psychologie,2023-01-24_12h11.52.021,00_bat_bachelor,2022.2.4,59.966566374147725,
,,,,,,,,,,,,1,0,1,0,50,0,50,0,,,,,,,50,,,0.2,712.6289095849315,X,l,go,l,1,0.36646768737955426,,,,,,,,,,,,,,,,59,001,21,w,Psychologie,2023-01-24_12h11.52.021,00_bat_bachelor,2022.2.4,59.966566374147725,
,,,,,,,,,,,,1,0,1,0,51,0,51,0,,,,,,,51,,,0.2,713.296225276441,Y,d,go,d,1,0.2587972557939793,,,,,,,,,,,,,,,,59,001,21,w,Psychologie,2023-01-24_12h11.52.021,00_bat_bachelor,2022.2.4,59.966566374147725,
,,,,,,,,,,,,1,0,1,0,52,0,52,0,,,,,,,52,,,0.2,713.8634372962824,X,l,go,l,1,0.3001740253803291,,,,,,,,,,,,,,,,59,001,21,w,Psychologie,2023-01-24_12h11.52.021,00_bat_bachelor,2022.2.4,59.966566374147725,
,,,,,,,,,,,,1,0,1,0,53,0,53,0,,,,,,,53,,,0.2,714.4642205568562,X,None,nogo,d,0,0.2832821487354522,,,,,,,,,,,,,,,,59,001,21,w,Psychologie,2023-01-24_12h11.52.021,00_bat_bachelor,2022.2.4,59.966566374147725,
,,,,,,,,,,,,1,0,1,0,54,0,54,0,,,,,,,54,,,0.2,715.0481599407267,Y,d,go,d,1,0.6676923422819527,,,,,,,,,,,,,,,,59,001,21,w,Psychologie,2023-01-24_12h11.52.021,00_bat_bachelor,2022.2.4,59.966566374147725,
,,,,,,,,,,,,1,0,1,0,55,0,55,0,,,,,,,55,,,0.2,716.0157169037338,X,l,go,l,1,0.5718487679368991,,,,,,,,,,,,,,,,59,001,21,w,Psychologie,2023-01-24_12h11.52.021,00_bat_bachelor,2022.2.4,59.966566374147725,
,,,,,,,,,,,,1,0,1,0,56,0,56,0,,,,,,,56,,,0.2,716.8998585847894,Y,d,go,None,0,,,,,,,,,,,,,,,,,59,001,21,w,Psychologie,2023-01-24_12h11.52.021,00_bat_bachelor,2022.2.4,59.966566374147725,
,,,,,,,,,,,,1,0,1,0,57,0,57,0,,,,,,,57,,,0.2,717.9010782755959,X,l,go,l,1,0.5657252882920147,,,,,,,,,,,,,,,,59,001,21,w,Psychologie,2023-01-24_12h11.52.021,00_bat_bachelor,2022.2.4,59.966566374147725,
,,,,,,,,,,,,1,0,1,0,58,0,58,0,,,,,,,58,,,0.2,718.768434746542,X,None,nogo,None,1,,,,,,,,,,,,,,,,,59,001,21,w,Psychologie,2023-01-24_12h11.52.021,00_bat_bachelor,2022.2.4,59.966566374147725,
,,,,,,,,,,,,1,0,1,0,59,0,59,0,,,,,,,59,,,0.2,719.7692909506168,X,None,nogo,None,1,,,,,,,,,,,,,,,,,59,001,21,w,Psychologie,2023-01-24_12h11.52.021,00_bat_bachelor,2022.2.4,59.966566374147725,
,,,,,,,,,,,,1,0,1,0,60,0,60,0,,,,,,,60,,,0.2,720.7705077696319,Y,d,go,d,1,0.34416945841257984,,,,,,,,,,,,,,,,59,001,21,w,Psychologie,2023-01-24_12h11.52.021,00_bat_bachelor,2022.2.4,59.966566374147725,
,,,,,,,,,,,,1,0,1,0,61,0,61,0,,,,,,,61,,,0.2,721.4211252252826,X,l,go,l,1,0.30963862911630713,,,,,,,,,,,,,,,,59,001,21,w,Psychologie,2023-01-24_12h11.52.021,00_bat_bachelor,2022.2.4,59.966566374147725,
,,,,,,,,,,,,1,0,1,0,62,0,62,0,,,,,,,62,,,0.2,722.0383741066162,X,None,nogo,None,1,,,,,,,,,,,,,,,,,59,001,21,w,Psychologie,2023-01-24_12h11.52.021,00_bat_bachelor,2022.2.4,59.966566374147725,
,,,,,,,,,,,,1,0,1,0,63,0,63,0,,,,,,,63,,,0.2,723.0397775920683,X,None,nogo,None,1,,,,,,,,,723.8411107596585,,,,,,,,59,001,21,w,Psychologie,2023-01-24_12h11.52.021,00_bat_bachelor,2022.2.4,59.966566374147725,
,,,,,,,,,,,,1,0,1,0,64,0,64,0,,,,,,,64,,,0.2,724.0411954364772,Y,d,go,d,1,0.20924982959513727,,,,,,,,,,,,,,,,59,001,21,w,Psychologie,2023-01-24_12h11.52.021,00_bat_bachelor,2022.2.4,59.966566374147725,
,,,,,,,,,,,,1,0,1,0,65,0,65,0,,,,,,,65,,,0.2,724.5907955805596,X,l,go,l,1,0.4752384253024502,,,,,,,,,,,,,,,,59,001,21,w,Psychologie,2023-01-24_12h11.52.021,00_bat_bachelor,2022.2.4,59.966566374147725,
,,,,,,,,,,,,1,0,1,0,66,0,66,0,,,,,,,66,,,0.2,725.4088261634952,Y,d,go,d,1,0.4180475213324826,,,,,,,,,,,,,,,,59,001,21,w,Psychologie,2023-01-24_12h11.52.021,00_bat_bachelor,2022.2.4,59.966566374147725,
,,,,,,,,,,,,1,0,1,0,67,0,67,0,,,,,,,67,,,0.2,726.1592400091413,Y,None,nogo,d,0,0.40285574515655753,,,,,,,,,,,,,,,,59,001,21,w,Psychologie,2023-01-24_12h11.52.021,00_bat_bachelor,2022.2.4,59.966566374147725,
,,,,,,,,,,,,1,0,1,0,68,0,68,0,,,,,,,68,,,0.2,726.8930676187883,X,l,go,l,1,0.5174307836296066,,,,,,,,,,,,,,,,59,001,21,w,Psychologie,2023-01-24_12h11.52.021,00_bat_bachelor,2022.2.4,59.966566374147725,
,,,,,,,,,,,,1,0,1,0,69,0,69,0,,,,,,,69,,,0.2,727.7109041506828,Y,d,go,d,1,0.6119685134290194,,,,,,,,,,,,,,,,59,001,21,w,Psychologie,2023-01-24_12h11.52.021,00_bat_bachelor,2022.2.4,59.966566374147725,
,,,,,,,,,,,,1,0,1,0,70,0,70,0,,,,,,,70,,,0.2,728.6283569702264,Y,None,nogo,None,1,,,,,,,,,,,,,,,,,59,001,21,w,Psychologie,2023-01-24_12h11.52.021,00_bat_bachelor,2022.2.4,59.966566374147725,
,,,,,,,,,,,,1,0,1,0,71,0,71,0,,,,,,,71,,,0.2,729.6294355330028,X,l,go,l,1,0.3495101697881182,,,,,,,,,,,,,,,,59,001,21,w,Psychologie,2023-01-24_12h11.52.021,00_bat_bachelor,2022.2.4,59.966566374147725,
,,,,,,,,,,,,1,0,1,0,72,0,72,0,,,,,,,72,,,0.2,730.2799980143609,Y,d,go,d,1,0.6193916837801225,,,,,,,,,,,,,,,,59,001,21,w,Psychologie,2023-01-24_12h11.52.021,00_bat_bachelor,2022.2.4,59.966566374147725,
,,,,,,,,,,,,1,0,1,0,73,0,73,0,,,,,,,73,,,0.2,731.214187633821,X,l,go,l,1,0.4933906080877932,,,,,,,,,,,,,,,,59,001,21,w,Psychologie,2023-01-24_12h11.52.021,00_bat_bachelor,2022.2.4,59.966566374147725,
,,,,,,,,,,,,1,0,1,0,74,0,74,0,,,,,,,74,,,0.2,732.0150994685955,X,None,nogo,None,1,,,,,,,,,,,,,,,,,59,001,21,w,Psychologie,2023-01-24_12h11.52.021,00_bat_bachelor,2022.2.4,59.966566374147725,
,,,,,,,,,,,,1,0,1,0,75,0,75,0,,,,,,,75,,,0.2,733.0158769035352,Y,d,go,d,1,0.33922177219392324,,,,,,,,,,,,,,,,59,001,21,w,Psychologie,2023-01-24_12h11.52.021,00_bat_bachelor,2022.2.4,59.966566374147725,
,,,,,,,,,,,,1,0,1,0,76,0,76,0,,,,,,,76,,,0.2,733.666680615368,X,l,go,l,1,0.6165055334859062,,,,,,,,,,,,,,,,59,001,21,w,Psychologie,2023-01-24_12h11.52.021,00_bat_bachelor,2022.2.4,59.966566374147725,
,,,,,,,,,,,,1,0,1,0,77,0,77,0,,,,,,,77,,,0.2,734.5843586654046,Y,d,go,d,1,0.30697729906023596,,,,,,,,,,,,,,,,59,001,21,w,Psychologie,2023-01-24_12h11.52.021,00_bat_bachelor,2022.2.4,59.966566374147725,
,,,,,,,,,,,,1,0,1,0,78,0,78,0,,,,,,,78,,,0.2,735.2015562647521,Y,None,nogo,None,1,,,,,,,,,,,,,,,,,59,001,21,w,Psychologie,2023-01-24_12h11.52.021,00_bat_bachelor,2022.2.4,59.966566374147725,
,,,,,,,,,,,,1,0,1,0,79,0,79,0,,,,,,,79,,,0.2,736.2031997499071,X,l,go,l,1,0.41665962560546177,,,,,,,,,,,,,,,,59,001,21,w,Psychologie,2023-01-24_12h11.52.021,00_bat_bachelor,2022.2.4,59.966566374147725,
,,,,,,,,,,,,1,0,1,0,80,0,80,0,,,,,,,80,,,0.2,736.9198745601534,Y,d,go,d,1,0.49918013942624384,,,,,,,,,,,,,,,,59,001,21,w,Psychologie,2023-01-24_12h11.52.021,00_bat_bachelor,2022.2.4,59.966566374147725,
,,,,,,,,,,,,1,0,1,0,81,0,81,0,,,,,,,81,,,0.2,737.7206341899891,Y,None,nogo,d,0,0.38678848288145673,,,,,,,,,,,,,,,,59,001,21,w,Psychologie,2023-01-24_12h11.52.021,00_bat_bachelor,2022.2.4,59.966566374147725,
,,,,,,,,,,,,1,0,1,0,82,0,82,0,,,,,,,82,,,0.2,738.4214025582733,X,l,go,l,1,0.5974799158757378,,,,,,,,,,,,,,,,59,001,21,w,Psychologie,2023-01-24_12h11.52.021,00_bat_bachelor,2022.2.4,59.966566374147725,
,,,,,,,,,,,,1,0,1,0,83,0,83,0,,,,,,,83,,,0.2,739.3223852442443,Y,d,go,None,0,,,,,,,,,,,,,,,,,59,001,21,w,Psychologie,2023-01-24_12h11.52.021,00_bat_bachelor,2022.2.4,59.966566374147725,
,,,,,,,,,,,,1,0,1,0,84,0,84,0,,,,,,,84,,,0.2,740.3232890380023,X,l,go,None,0,,,,,,,,,741.1240556421872,,,,,,,,59,001,21,w,Psychologie,2023-01-24_12h11.52.021,00_bat_bachelor,2022.2.4,59.966566374147725,
,,,,,,,,,,,,1,0,1,0,85,0,85,0,,,,,,,85,,,0.2,741.3242391906806,Y,d,go,d,1,0.3835733073501615,,,,,,,,,,,,,,,,59,001,21,w,Psychologie,2023-01-24_12h11.52.021,00_bat_bachelor,2022.2.4,59.966566374147725,
,,,,,,,,,,,,1,0,1,0,86,0,86,0,,,,,,,86,,,0.2,742.008370861493,X,l,go,l,1,0.5392867567297799,,,,,,,,,,,,,,,,59,001,21,w,Psychologie,2023-01-24_12h11.52.021,00_bat_bachelor,2022.2.4,59.966566374147725,
,,,,,,,,,,,,1,0,1,0,87,0,87,0,,,,,,,87,,,0.2,742.8592900193362,Y,d,go,d,1,0.39990231289448275,,,,,,,,,,,,,,,,59,001,21,w,Psychologie,2023-01-24_12h11.52.021,00_bat_bachelor,2022.2.4,59.966566374147725,
,,,,,,,,,,,,1,0,1,0,88,0,88,0,,,,,,,88,,,0.2,743.560245464314,X,l,go,l,1,0.33950772055868583,,,,,,,,,,,,,,,,59,001,21,w,Psychologie,2023-01-24_12h11.52.021,00_bat_bachelor,2022.2.4,59.966566374147725,
,,,,,,,,,,,,1,0,1,0,89,0,89,0,,,,,,,89,,,0.2,744.2108395353771,Y,d,go,d,1,0.3766358799930458,,,,,,,,,,,,,,,,59,001,21,w,Psychologie,2023-01-24_12h11.52.021,00_bat_bachelor,2022.2.4,59.966566374147725,
,,,,,,,,,,,,1,0,1,0,90,0,90,0,,,,,,,90,,,0.2,744.8948866934734,X,l,go,l,1,0.3325957290671795,,,,,,,,,,,,,,,,59,001,21,w,Psychologie,2023-01-24_12h11.52.021,00_bat_bachelor,2022.2.4,59.966566374147725,
,,,,,,,,,,,,1,0,1,0,91,0,91,0,,,,,,,91,,,0.2,745.5285856058435,X,None,nogo,d,0,0.32254363887477666,,,,,,,,,,,,,,,,59,001,21,w,Psychologie,2023-01-24_12h11.52.021,00_bat_bachelor,2022.2.4,59.966566374147725,
,,,,,,,,,,,,1,0,1,0,92,0,92,0,,,,,,,92,,,0.2,746.1625454409696,Y,d,go,None,0,,,,,,,,,,,,,,,,,59,001,21,w,Psychologie,2023-01-24_12h11.52.021,00_bat_bachelor,2022.2.4,59.966566374147725,
,,,,,,,,,,,,1,0,1,0,93,0,93,0,,,,,,,93,,,0.2,747.163338875891,X,l,go,l,1,0.4079679439928441,,,,,,,,,,,,,,,,59,001,21,w,Psychologie,2023-01-24_12h11.52.021,00_bat_bachelor,2022.2.4,59.966566374147725,
,,,,,,,,,,,,1,0,1,0,94,0,94,0,,,,,,,94,,,0.2,747.8808366594822,X,None,nogo,d,0,0.2422639428077673,,,,,,,,,,,,,,,,59,001,21,w,Psychologie,2023-01-24_12h11.52.021,00_bat_bachelor,2022.2.4,59.966566374147725,
,,,,,,,,,,,,1,0,1,0,95,0,95,0,,,,,,,95,,,0.2,748.4314780330533,Y,d,go,None,0,,,,,,,,,,,,,,,,,59,001,21,w,Psychologie,2023-01-24_12h11.52.021,00_bat_bachelor,2022.2.4,59.966566374147725,
,,,,,,,,,,,,1,0,1,0,96,0,96,0,,,,,,,96,,,0.2,749.432572185553,X,l,go,None,0,,,,,,,,,,,,,,,,,59,001,21,w,Psychologie,2023-01-24_12h11.52.021,00_bat_bachelor,2022.2.4,59.966566374147725,
,,,,,,,,,,,,1,0,1,0,97,0,97,0,,,,,,,97,,,0.2,750.4333939281296,Y,d,go,d,1,0.3781136217621679,,,,,,,,,,,,,,,,59,001,21,w,Psychologie,2023-01-24_12h11.52.021,00_bat_bachelor,2022.2.4,59.966566374147725,
,,,,,,,,,,,,1,0,1,0,98,0,98,0,,,,,,,98,,,0.2,751.117710214101,X,l,go,None,0,,,,,,,,,,,,,,,,,59,001,21,w,Psychologie,2023-01-24_12h11.52.021,00_bat_bachelor,2022.2.4,59.966566374147725,
,,,,,,,,,,,,1,0,1,0,99,0,99,0,,,,,,,99,,,0.2,752.1188929818745,X,None,nogo,l,0,0.23499749021357275,,,,,,,,,,,,,,,,59,001,21,w,Psychologie,2023-01-24_12h11.52.021,00_bat_bachelor,2022.2.4,59.966566374147725,
,,,,,,,,,,,,1,0,1,0,100,0,100,0,,,,,,,100,,,0.2,752.685703361185,Y,d,go,d,1,0.49390342797050835,,,,,,,,,,,,,,,,59,001,21,w,Psychologie,2023-01-24_12h11.52.021,00_bat_bachelor,2022.2.4,59.966566374147725,
,,,,,,,,,,,,1,0,1,0,101,0,101,0,,,,,,,101,,,0.2,753.4864974525153,X,l,go,l,1,0.5327985595868086,,,,,,,,,,,,,,,,59,001,21,w,Psychologie,2023-01-24_12h11.52.021,00_bat_bachelor,2022.2.4,59.966566374147725,
,,,,,,,,,,,,1,0,1,0,102,0,102,0,,,,,,,102,,,0.2,754.320717964245,Y,d,go,d,1,0.43470309057556733,,,,,,,,,,,,,,,,59,001,21,w,Psychologie,2023-01-24_12h11.52.021,00_bat_bachelor,2022.2.4,59.966566374147725,
,,,,,,,,,,,,1,0,1,0,103,0,103,0,,,,,,,103,,,0.2,755.0718555013063,X,l,go,l,1,0.4279330476256291,,,,,,,,,,,,,,,,59,001,21,w,Psychologie,2023-01-24_12h11.52.021,00_bat_bachelor,2022.2.4,59.966566374147725,
,,,,,,,,,,,,1,0,1,0,104,0,104,0,,,,,,,104,,,0.2,755.8222082188204,Y,d,go,d,1,0.43728195919720747,,,,,,,,,,,,,,,,59,001,21,w,Psychologie,2023-01-24_12h11.52.021,00_bat_bachelor,2022.2.4,59.966566374147725,
,,,,,,,,,,,,1,0,1,0,105,0,105,0,,,,,,,105,,,0.2,756.5728620641694,X,l,go,l,1,0.5024904943256843,,,,,,,,,,,,,,,,59,001,21,w,Psychologie,2023-01-24_12h11.52.021,00_bat_bachelor,2022.2.4,59.966566374147725,
,,,,,,,,,,,,1,0,1,0,106,0,106,0,,,,,,,106,,,0.2,757.3906858781302,Y,d,go,d,1,0.25179172595562704,,,,,,,,,,,,,,,,59,001,21,w,Psychologie,2023-01-24_12h11.52.021,00_bat_bachelor,2022.2.4,59.966566374147725,
,,,,,,,,,,,,1,0,1,0,107,0,107,0,,,,,,,107,,,0.2,757.9742100830226,X,l,go,l,1,0.36460758710381924,,,,,,,,,,,,,,,,59,001,21,w,Psychologie,2023-01-24_12h11.52.021,00_bat_bachelor,2022.2.4,59.966566374147725,
,,,,,,,,,,,,1,0,1,0,108,0,108,0,,,,,,,108,,,0.2,758.641997979079,X,None,nogo,d,0,0.2254779121867614,,,,,,,,,,,,,,,,59,001,21,w,Psychologie,2023-01-24_12h11.52.021,00_bat_bachelor,2022.2.4,59.966566374147725,
,,,,,,,,,,,,1,0,1,0,109,0,109,0,,,,,,,109,,,0.2,759.1755345531874,Y,d,go,d,1,0.5159604264645168,,,,,,,,,,,,,,,,59,001,21,w,Psychologie,2023-01-24_12h11.52.021,00_bat_bachelor,2022.2.4,59.966566374147725,
,,,,,,,,,,,,1,0,1,0,110,0,110,0,,,,,,,110,,,0.2,759.9928110857709,X,l,go,l,1,0.4825081599447003,,,,,,,,,,,,,,,,59,001,21,w,Psychologie,2023-01-24_12h11.52.021,00_bat_bachelor,2022.2.4,59.966566374147725,
,,,,,,,,,,,,1,0,1,0,111,0,111,0,,,,,,,111,,,0.2,760.77743617136,Y,d,go,d,1,0.394082832877757,,,,,,,,,,,,,,,,59,001,21,w,Psychologie,2023-01-24_12h11.52.021,00_bat_bachelor,2022.2.4,59.966566374147725,
,,,,,,,,,,,,1,0,1,0,112,0,112,0,,,,,,,112,,,0.2,761.4777610530127,Y,None,nogo,d,0,0.49337255682985415,,,,,,,,,,,,,,,,59,001,21,w,Psychologie,2023-01-24_12h11.52.021,00_bat_bachelor,2022.2.4,59.966566374147725,
,,,,,,,,,,,,1,0,1,0,113,0,113,0,,,,,,,113,,,0.2,762.2785292982207,Y,None,nogo,d,0,0.4924675323018164,,,,,,,,,,,,,,,,59,001,21,w,Psychologie,2023-01-24_12h11.52.021,00_bat_bachelor,2022.2.4,59.966566374147725,
,,,,,,,,,,,,1,0,1,0,114,0,114,0,,,,,,,114,,,0.2,763.0792696460267,X,l,go,None,0,,,,,,,,,,,,,,,,,59,001,21,w,Psychologie,2023-01-24_12h11.52.021,00_bat_bachelor,2022.2.4,59.966566374147725,
,,,,,,,,,,,,1,0,1,0,115,0,115,0,,,,,,,115,,,0.2,764.0803100550038,Y,d,go,d,1,0.37925987676317163,,,,,,,,,,,,,,,,59,001,21,w,Psychologie,2023-01-24_12h11.52.021,00_bat_bachelor,2022.2.4,59.966566374147725,
,,,,,,,,,,,,1,0,1,0,116,0,116,0,,,,,,,116,,,0.2,764.7644425463277,X,l,go,l,1,0.3660500468668033,,,,,,,,,,,,,,,,59,001,21,w,Psychologie,2023-01-24_12h11.52.021,00_bat_bachelor,2022.2.4,59.966566374147725,
,,,,,,,,,,,,1,0,1,0,117,0,117,0,,,,,,,117,,,0.2,765.4317102378955,Y,d,go,None,0,,,,,,,,,,,,,,,,,59,001,21,w,Psychologie,2023-01-24_12h11.52.021,00_bat_bachelor,2022.2.4,59.966566374147725,
,,,,,,,,,,,,1,0,1,0,118,0,118,0,,,,,,,118,,,0.2,766.4326969033482,Y,None,nogo,None,1,,,,,,,,,,,,,,,,,59,001,21,w,Psychologie,2023-01-24_12h11.52.021,00_bat_bachelor,2022.2.4,59.966566374147725,
,,,,,,,,,,,,1,0,1,0,119,0,119,0,,,,,,,119,,,0.2,767.4340519786019,Y,None,nogo,None,1,,,,,,,,,,,,,,,,,59,001,21,w,Psychologie,2023-01-24_12h11.52.021,00_bat_bachelor,2022.2.4,59.966566374147725,
,,,,,,,,,,,,1,0,1,0,120,0,120,0,,,,,,,120,,,0.2,768.4346784393692,X,l,go,l,1,0.37694275140893296,,,,,,,,,,,,,,,,59,001,21,w,Psychologie,2023-01-24_12h11.52.021,00_bat_bachelor,2022.2.4,59.966566374147725,
,,,,,,,,,,,,1,0,1,0,121,0,121,0,,,,,,,121,,,0.2,769.118622623233,Y,d,go,d,1,0.29228603509000095,,,,,,,,,,,,,,,,59,001,21,w,Psychologie,2023-01-24_12h11.52.021,00_bat_bachelor,2022.2.4,59.966566374147725,
,,,,,,,,,,,,1,0,1,0,122,0,122,0,,,,,,,122,,,0.2,769.7192840378048,Y,None,nogo,None,1,,,,,,,,,,,,,,,,,59,001,21,w,Psychologie,2023-01-24_12h11.52.021,00_bat_bachelor,2022.2.4,59.966566374147725,
,,,,,,,,,,,,1,0,1,0,123,0,123,0,,,,,,,123,,,0.2,770.7204930619573,X,l,go,d,0,0.0030445449247054057,,,,,,,,,,,,,,,,59,001,21,w,Psychologie,2023-01-24_12h11.52.021,00_bat_bachelor,2022.2.4,59.966566374147725,
,,,,,,,,,,,,1,0,1,0,124,0,124,0,,,,,,,124,,,0.2,771.0371494927385,Y,d,go,l,0,0.13300951317432919,,,,,,,,,,,,,,,,59,001,21,w,Psychologie,2023-01-24_12h11.52.021,00_bat_bachelor,2022.2.4,59.966566374147725,
,,,,,,,,,,,,1,0,1,0,125,0,125,0,,,,,,,125,,,0.2,771.471536650417,X,l,go,None,0,,,,,,,,,,,,,,,,,59,001,21,w,Psychologie,2023-01-24_12h11.52.021,00_bat_bachelor,2022.2.4,59.966566374147725,
,,,,,,,,,,,,1,0,1,0,126,0,126,0,,,,,,,126,,,0.2,772.4719862908878,Y,d,go,None,0,,,,,,,,,,,,,,,,,59,001,21,w,Psychologie,2023-01-24_12h11.52.021,00_bat_bachelor,2022.2.4,59.966566374147725,
,,,,,,,,,,,,1,0,1,0,127,0,127,0,,,,,,,127,,,0.2,773.4728068026998,Y,None,nogo,None,1,,,,,,,,,,,,,,,,,59,001,21,w,Psychologie,2023-01-24_12h11.52.021,00_bat_bachelor,2022.2.4,59.966566374147725,
,,,,,,,,,,,,1,0,1,0,128,0,128,0,,,,,,,128,,,0.2,774.474078185749,X,l,go,l,1,0.31284888157642854,,,,,,,,,,,,,,,,59,001,21,w,Psychologie,2023-01-24_12h11.52.021,00_bat_bachelor,2022.2.4,59.966566374147725,
,,,,,,,,,,,,1,0,1,0,129,0,129,0,,,,,,,129,,,0.2,775.0914850156078,Y,d,go,d,1,0.2560805411885667,,,,,,,,,,,,,,,,59,001,21,w,Psychologie,2023-01-24_12h11.52.021,00_bat_bachelor,2022.2.4,59.966566374147725,
,,,,,,,,,,,,1,0,1,0,130,0,130,0,,,,,,,130,,,0.2,775.6591524195046,X,l,go,l,1,0.3108414994312625,,,,,,,,,,,,,,,,59,001,21,w,Psychologie,2023-01-24_12h11.52.021,00_bat_bachelor,2022.2.4,59.966566374147725,
,,,,,,,,,,,,1,0,1,0,131,0,131,0,,,,,,,131,,,0.2,776.3096829009028,X,None,nogo,None,1,,,,,,,,,777.1102197617802,,,,,,,,59,001,21,w,Psychologie,2023-01-24_12h11.52.021,00_bat_bachelor,2022.2.4,59.966566374147725,
,,,,,,,,,,,,1,0,1,0,132,0,132,0,,,,,,,132,,,0.2,777.3104668999385,Y,d,go,d,1,0.25228444329513877,,,,,,,,,,,,,,,,59,001,21,w,Psychologie,2023-01-24_12h11.52.021,00_bat_bachelor,2022.2.4,59.966566374147725,
,,,,,,,,,,,,1,0,1,0,133,0,133,0,,,,,,,133,,,0.2,777.8774204585588,X,l,go,l,1,0.5736760477375356,,,,,,,,,,,,,,,,59,001,21,w,Psychologie,2023-01-24_12h11.52.021,00_bat_bachelor,2022.2.4,59.966566374147725,
,,,,,,,,,,,,1,0,1,0,134,0,134,0,,,,,,,134,,,0.2,778.7616372164466,Y,d,go,d,1,0.505661362218234,,,,,,,,,,,,,,,,59,001,21,w,Psychologie,2023-01-24_12h11.52.021,00_bat_bachelor,2022.2.4,59.966566374147725,
,,,,,,,,,,,,1,0,1,0,135,0,135,0,,,,,,,135,,,0.2,779.5791012359787,X,l,go,l,1,0.4159285495788936,,,,,,,,,,,,,,,,59,001,21,w,Psychologie,2023-01-24_12h11.52.021,00_bat_bachelor,2022.2.4,59.966566374147725,
,,,,,,,,,,,,1,0,1,0,136,0,136,0,,,,,,,136,,,0.2,780.2966896861253,X,None,nogo,None,1,,,,,,,,,,,,,,,,,59,001,21,w,Psychologie,2023-01-24_12h11.52.021,00_bat_bachelor,2022.2.4,59.966566374147725,
,,,,,,,,,,,,1,0,1,0,137,0,137,0,,,,,,,137,,,0.2,781.2976267106133,Y,d,go,d,1,0.30500725020101527,,,,,,,,,,,,,,,,59,001,21,w,Psychologie,2023-01-24_12h11.52.021,00_bat_bachelor,2022.2.4,59.966566374147725,
,,,,,,,,,,,,1,0,1,0,138,0,138,0,,,,,,,138,,,0.2,781.914868207341,X,l,go,l,1,0.40020836380062974,,,,,,,,,,,,,,,,59,001,21,w,Psychologie,2023-01-24_12h11.52.021,00_bat_bachelor,2022.2.4,59.966566374147725,
,,,,,,,,,,,,1,0,1,0,139,0,139,0,,,,,,,139,,,0.2,782.6156144218075,Y,d,go,d,1,0.5875993126537651,,,,,,,,,,,,,,,,59,001,21,w,Psychologie,2023-01-24_12h11.52.021,00_bat_bachelor,2022.2.4,59.966566374147725,
,,,,,,,,,,,,1,0,1,0,140,0,140,0,,,,,,,140,,,0.2,783.516421928507,Y,None,nogo,None,1,,,,,,,,,,,,,,,,,59,001,21,w,Psychologie,2023-01-24_12h11.52.021,00_bat_bachelor,2022.2.4,59.966566374147725,
,,,,,,,,,,,,1,0,1,0,141,0,141,0,,,,,,,141,,,0.2,784.5177138243525,Y,None,nogo,None,1,,,,,,,,,,,,,,,,,59,001,21,w,Psychologie,2023-01-24_12h11.52.021,00_bat_bachelor,2022.2.4,59.966566374147725,
,,,,,,,,,,,,1,0,1,0,142,0,142,0,,,,,,,142,,,0.2,785.5183862337817,X,l,go,l,1,0.13265915462943667,,,,,,,,,,,,,,,,59,001,21,w,Psychologie,2023-01-24_12h11.52.021,00_bat_bachelor,2022.2.4,59.966566374147725,
,,,,,,,,,,,,1,0,1,0,143,0,143,0,,,,,,,143,,,0.2,785.9522183152185,Y,d,go,d,1,0.34683119872715906,,,,,,,,,,,,,,,,59,001,21,w,Psychologie,2023-01-24_12h11.52.021,00_bat_bachelor,2022.2.4,59.966566374147725,
,,,,,,,,,,,,1,0,1,0,144,0,144,0,,,,,,,144,,,0.2,786.6029379245883,X,l,go,l,1,0.2877781432016491,,,,,,,,,,,,,,,,59,001,21,w,Psychologie,2023-01-24_12h11.52.021,00_bat_bachelor,2022.2.4,59.966566374147725,
,,,,,,,,,,,,1,0,1,0,145,0,145,0,,,,,,,145,,,0.2,787.203451647034,X,None,nogo,None,1,,,,,,,,,,,,,,,,,59,001,21,w,Psychologie,2023-01-24_12h11.52.021,00_bat_bachelor,2022.2.4,59.966566374147725,
,,,,,,,,,,,,1,0,1,0,146,0,146,0,,,,,,,146,,,0.2,788.2044296971126,Y,d,go,d,1,0.36715445576555794,,,,,,,,,,,,,,,,59,001,21,w,Psychologie,2023-01-24_12h11.52.021,00_bat_bachelor,2022.2.4,59.966566374147725,
,,,,,,,,,,,,1,0,1,0,147,0,147,0,,,,,,,147,,,0.2,788.8717244655691,X,l,go,l,1,0.4111806579894619,,,,,,,,,,,,,,,,59,001,21,w,Psychologie,2023-01-24_12h11.52.021,00_bat_bachelor,2022.2.4,59.966566374147725,
,,,,,,,,,,,,1,0,1,0,148,0,148,0,,,,,,,148,,,0.2,789.5892062491821,X,None,nogo,None,1,,,,,,,,,,,,,,,,,59,001,21,w,Psychologie,2023-01-24_12h11.52.021,00_bat_bachelor,2022.2.4,59.966566374147725,
,,,,,,,,,,,,1,0,1,0,149,0,149,0,,,,,,,149,,,0.2,790.5901244018987,Y,d,go,d,1,0.30113238317426294,,,,,,,,,,,,,,,,59,001,21,w,Psychologie,2023-01-24_12h11.52.021,00_bat_bachelor,2022.2.4,59.966566374147725,
,,,,,,,,,,,,1,0,1,0,150,0,150,0,,,,,,,150,,,0.2,791.2072420013428,X,l,go,l,1,0.6118454366569495,,,,,,,,,,,,,,,,59,001,21,w,Psychologie,2023-01-24_12h11.52.021,00_bat_bachelor,2022.2.4,59.966566374147725,
,,,,,,,,,,,,1,0,1,0,151,0,151,0,,,,,,,151,,,0.2,792.1251309229156,X,None,nogo,None,1,,,,,,,,,,,,,,,,,59,001,21,w,Psychologie,2023-01-24_12h11.52.021,00_bat_bachelor,2022.2.4,59.966566374147725,
,,,,,,,,,,,,1,0,1,0,152,0,152,0,,,,,,,152,,,0.2,793.1260515371669,Y,d,go,d,1,0.3015442801042809,,,,,,,,,,,,,,,,59,001,21,w,Psychologie,2023-01-24_12h11.52.021,00_bat_bachelor,2022.2.4,59.966566374147725,
,,,,,,,,,,,,1,0,1,0,153,0,153,0,,,,,,,153,,,0.2,793.7434333414149,X,l,go,l,1,0.4838931838803546,,,,,,,,,,,,,,,,59,001,21,w,Psychologie,2023-01-24_12h11.52.021,00_bat_bachelor,2022.2.4,59.966566374147725,
,,,,,,,,,,,,1,0,1,0,154,0,154,0,,,,,,,154,,,0.2,794.5274697097811,X,None,nogo,None,1,,,,,,,,,,,,,,,,,59,001,21,w,Psychologie,2023-01-24_12h11.52.021,00_bat_bachelor,2022.2.4,59.966566374147725,
,,,,,,,,,,,,1,0,1,0,155,0,155,0,,,,,,,155,,,0.2,795.5282791446825,Y,d,go,d,1,0.13913545435207197,,,,,,,,,,,,,,,,59,001,21,w,Psychologie,2023-01-24_12h11.52.021,00_bat_bachelor,2022.2.4,59.966566374147725,
,,,,,,,,,,,,1,0,1,0,156,0,156,0,,,,,,,156,,,0.2,795.9789042310913,X,l,go,l,1,0.23226231409353204,,,,,,,,,,,,,,,,59,001,21,w,Psychologie,2023-01-24_12h11.52.021,00_bat_bachelor,2022.2.4,59.966566374147725,
,,,,,,,,,,,,1,0,1,0,157,0,157,0,,,,,,,157,,,0.2,796.5127776252993,X,None,nogo,None,1,,,,,,,,,,,,,,,,,59,001,21,w,Psychologie,2023-01-24_12h11.52.021,00_bat_bachelor,2022.2.4,59.966566374147725,
,,,,,,,,,,,,1,0,1,0,158,0,158,0,,,,,,,158,,,0.2,797.5135624448467,Y,d,go,d,1,0.34589212295759353,,,,,,,,,,,,,,,,59,001,21,w,Psychologie,2023-01-24_12h11.52.021,00_bat_bachelor,2022.2.4,59.966566374147725,
,,,,,,,,,,,,1,0,1,0,159,0,159,0,,,,,,,159,,,0.2,798.1645302590405,X,l,go,l,1,0.4384204193338519,,,,,,,,,,,,,,,,59,001,21,w,Psychologie,2023-01-24_12h11.52.021,00_bat_bachelor,2022.2.4,59.966566374147725,
,,,,,,,,,,,,1,0,1,0,160,0,160,0,,,,,,,160,,,0.2,798.9150655404319,X,None,nogo,None,1,,,,,,,,,,,,,,,,,59,001,21,w,Psychologie,2023-01-24_12h11.52.021,00_bat_bachelor,2022.2.4,59.966566374147725,
,,,,,,,,,,,,1,0,1,0,161,0,161,0,,,,,,,161,,,0.2,799.9161880005886,Y,d,go,d,1,0.21514151465271425,,,,,,,,,,,,,,,,59,001,21,w,Psychologie,2023-01-24_12h11.52.021,00_bat_bachelor,2022.2.4,59.966566374147725,
,,,,,,,,,,,,1,0,1,0,162,0,162,0,,,,,,,162,,,0.2,800.433245005237,X,l,go,l,1,0.5216514963831287,,,,,,,,,,,,,,,,59,001,21,w,Psychologie,2023-01-24_12h11.52.021,00_bat_bachelor,2022.2.4,59.966566374147725,
,,,,,,,,,,,,1,0,1,0,163,0,163,0,,,,,,,163,,,0.2,801.2675803886195,Y,d,go,d,1,0.47985339398110227,,,,,,,,,,,,,,,,59,001,21,w,Psychologie,2023-01-24_12h11.52.021,00_bat_bachelor,2022.2.4,59.966566374147725,
,,,,,,,,,,,,1,0,1,0,164,0,164,0,,,,,,,164,,,0.2,802.0515905006068,X,l,go,l,1,0.5674307220906485,,,,,,,,,,,,,,,,59,001,21,w,Psychologie,2023-01-24_12h11.52.021,00_bat_bachelor,2022.2.4,59.966566374147725,
,,,,,,,,,,,,1,0,1,0,165,0,165,0,,,,,,,165,,,0.2,802.9190392791315,X,None,nogo,None,1,,,,,,,,,,,,,,,,,59,001,21,w,Psychologie,2023-01-24_12h11.52.021,00_bat_bachelor,2022.2.4,59.966566374147725,
,,,,,,,,,,,,1,0,1,0,166,0,166,0,,,,,,,166,,,0.2,803.9201642008229,Y,d,go,d,1,0.3872126874866808,,,,,,,,,,,,,,,,59,001,21,w,Psychologie,2023-01-24_12h11.52.021,00_bat_bachelor,2022.2.4,59.966566374147725,
,,,,,,,,,,,,1,0,1,0,167,0,167,0,,,,,,,167,,,0.2,804.6207085693841,X,l,go,l,1,0.3263795315888274,,,,,,,,,,,,,,,,59,001,21,w,Psychologie,2023-01-24_12h11.52.021,00_bat_bachelor,2022.2.4,59.966566374147725,
,,,,,,,,,,,,1,0,1,0,168,0,168,0,,,,,,,168,,,0.2,805.254731994175,X,None,nogo,None,1,,,,,,,,,,,,,,,,,59,001,21,w,Psychologie,2023-01-24_12h11.52.021,00_bat_bachelor,2022.2.4,59.966566374147725,
,,,,,,,,,,,,1,0,1,0,169,0,169,0,,,,,,,169,,,0.2,806.2556517879148,Y,d,go,d,1,0.1556531776113843,,,,,,,,,,,,,,,,59,001,21,w,Psychologie,2023-01-24_12h11.52.021,00_bat_bachelor,2022.2.4,59.966566374147725,
,,,,,,,,,,,,1,0,1,0,170,0,170,0,,,,,,,170,,,0.2,806.7226965464251,X,l,go,l,1,0.33638239107312984,,,,,,,,,,,,,,,,59,001,21,w,Psychologie,2023-01-24_12h11.52.021,00_bat_bachelor,2022.2.4,59.966566374147725,
,,,,,,,,,,,,1,0,1,0,171,0,171,0,,,,,,,171,,,0.2,807.3735166684928,Y,d,go,d,1,0.37371649896886083,,,,,,,,,,,,,,,,59,001,21,w,Psychologie,2023-01-24_12h11.52.021,00_bat_bachelor,2022.2.4,59.966566374147725,
,,,,,,,,,,,,1,0,1,0,172,0,172,0,,,,,,,172,,,0.2,808.0577586981435,X,l,go,l,1,0.20997187998909794,,,,,,,,,,,,,,,,59,001,21,w,Psychologie,2023-01-24_12h11.52.021,00_bat_bachelor,2022.2.4,59.966566374147725,
,,,,,,,,,,,,1,0,1,0,173,0,173,0,,,,,,,173,,,0.2,808.5747623695224,Y,d,go,d,1,0.259978792801121,,,,,,,,,,,,,,,,59,001,21,w,Psychologie,2023-01-24_12h11.52.021,00_bat_bachelor,2022.2.4,59.966566374147725,
,,,,,,,,,,,,1,0,1,0,174,0,174,0,,,,,,,174,,,0.2,809.1419473124752,Y,None,nogo,l,0,0.3651807146034116,,,,,,,,,,,,,,,,59,001,21,w,Psychologie,2023-01-24_12h11.52.021,00_bat_bachelor,2022.2.4,59.966566374147725,
,,,,,,,,,,,,1,0,1,0,175,0,175,0,,,,,,,175,,,0.2,809.8089848504806,X,l,go,None,0,,,,,,,,,,,,,,,,,59,001,21,w,Psychologie,2023-01-24_12h11.52.021,00_bat_bachelor,2022.2.4,59.966566374147725,
,,,,,,,,,,,,1,0,1,0,176,0,176,0,,,,,,,176,,,0.2,810.8103854641413,Y,d,go,l,0,0.21721905055710522,,,,,,,,,,,,,,,,59,001,21,w,Psychologie,2023-01-24_12h11.52.021,00_bat_bachelor,2022.2.4,59.966566374147725,
,,,,,,,,,,,,1,0,1,0,177,0,177,0,,,,,,,177,,,0.2,811.3274679046554,X,l,go,None,0,,,,,,,,,,,,,,,,,59,001,21,w,Psychologie,2023-01-24_12h11.52.021,00_bat_bachelor,2022.2.4,59.966566374147725,
,,,,,,,,,,,,1,0,1,0,178,0,178,0,,,,,,,178,,,0.2,812.3284336470551,Y,d,go,None,0,,,,,,,,,,,,,,,,,59,001,21,w,Psychologie,2023-01-24_12h11.52.021,00_bat_bachelor,2022.2.4,59.966566374147725,
,,,,,,,,,,,,1,0,1,0,179,0,179,0,,,,,,,179,,,0.2,813.3300139528037,X,l,go,None,0,,,,,,,,,814.1303826087606,,,,,,,,59,001,21,w,Psychologie,2023-01-24_12h11.52.021,00_bat_bachelor,2022.2.4,59.966566374147725,
,,,,,,,,,,,,1,0,1,0,180,0,180,0,,,,,,,180,,,0.2,814.3308447210111,Y,d,go,d,1,0.2799176400549186,,,,,,,,,,,,,,,,59,001,21,w,Psychologie,2023-01-24_12h11.52.021,00_bat_bachelor,2022.2.4,59.966566374147725,
,,,,,,,,,,,,1,0,1,0,181,0,181,0,,,,,,,181,,,0.2,814.914505130866,Y,None,nogo,None,1,,,,,,,,,,,,,,,,,59,001,21,w,Psychologie,2023-01-24_12h11.52.021,00_bat_bachelor,2022.2.4,59.966566374147725,
,,,,,,,,,,,,1,0,1,0,182,0,182,0,,,,,,,182,,,0.2,815.9155849244089,X,l,go,l,1,0.2635385832927568,,,,,,,,,,,,,,,,59,001,21,w,Psychologie,2023-01-24_12h11.52.021,00_bat_bachelor,2022.2.4,59.966566374147725,
,,,,,,,,,,,,1,0,1,0,183,0,183,0,,,,,,,183,,,0.2,816.482873251849,Y,d,go,d,1,0.2321019040336978,,,,,,,,,,,,,,,,59,001,21,w,Psychologie,2023-01-24_12h11.52.021,00_bat_bachelor,2022.2.4,59.966566374147725,
,,,,,,,,,,,,1,0,1,0,184,0,184,0,,,,,,,184,,,0.2,817.0164844925312,X,l,go,None,0,,,,,,,,,,,,,,,,,59,001,21,w,Psychologie,2023-01-24_12h11.52.021,00_bat_bachelor,2022.2.4,59.966566374147725,
,,,,,,,,,,,,1,0,1,0,185,0,185,0,,,,,,,185,,,0.2,818.0175253117632,X,None,nogo,None,1,,,,,,,,,,,,,,,,,59,001,21,w,Psychologie,2023-01-24_12h11.52.021,00_bat_bachelor,2022.2.4,59.966566374147725,
,,,,,,,,,,,,1,0,1,0,186,0,186,0,,,,,,,186,,,0.2,819.0184844900705,Y,d,go,d,1,0.5199916009896697,,,,,,,,,,,,,,,,59,001,21,w,Psychologie,2023-01-24_12h11.52.021,00_bat_bachelor,2022.2.4,59.966566374147725,
,,,,,,,,,,,,1,0,1,0,187,0,187,0,,,,,,,187,,,0.2,819.8527808991421,X,l,go,l,1,0.23049000858190993,,,,,,,,,,,,,,,,59,001,21,w,Psychologie,2023-01-24_12h11.52.021,00_bat_bachelor,2022.2.4,59.966566374147725,
,,,,,,,,,,,,1,0,1,0,188,0,188,0,,,,,,,188,,,0.2,820.3865902934267,Y,d,go,d,1,0.5524617148730613,,,,,,,,,,,,,,,,59,001,21,w,Psychologie,2023-01-24_12h11.52.021,00_bat_bachelor,2022.2.4,59.966566374147725,
,,,,,,,,,,,,1,0,1,0,189,0,189,0,,,,,,,189,,,0.2,821.2541071744326,X,l,go,l,1,0.23710866710280243,,,,,,,,,,,,,,,,59,001,21,w,Psychologie,2023-01-24_12h11.52.021,00_bat_bachelor,2022.2.4,59.966566374147725,
,,,,,,,,,,,,1,0,1,0,190,0,190,0,,,,,,,190,,,0.2,821.8046332660924,X,None,nogo,d,0,0.34191099965210014,,,,,,,,,,,,,,,,59,001,21,w,Psychologie,2023-01-24_12h11.52.021,00_bat_bachelor,2022.2.4,59.966566374147725,
,,,,,,,,,,,,1,0,1,0,191,0,191,0,,,,,,,191,,,0.2,822.4554127728261,Y,d,go,None,0,,,,,,,,,823.2561235822068,,,,,,,,59,001,21,w,Psychologie,2023-01-24_12h11.52.021,00_bat_bachelor,2022.2.4,59.966566374147725,
,,,,,,,,,,,,1,0,1,0,192,0,192,0,,,,,,,192,,,0.2,823.4563497973122,X,l,go,None,0,,,,,,,,,,,,,,,,,59,001,21,w,Psychologie,2023-01-24_12h11.52.021,00_bat_bachelor,2022.2.4,59.966566374147725,
,,,,,,,,,,,,1,0,1,0,193,0,193,0,,,,,,,193,,,0.2,824.4574751292621,Y,d,go,None,0,,,,,,,,,,,,,,,,,59,001,21,w,Psychologie,2023-01-24_12h11.52.021,00_bat_bachelor,2022.2.4,59.966566374147725,
,,,,,,,,,,,,1,0,1,0,194,0,194,0,,,,,,,194,,,0.2,825.4582086668197,X,l,go,None,0,,,,,,,,,,,,,,,,,59,001,21,w,Psychologie,2023-01-24_12h11.52.021,00_bat_bachelor,2022.2.4,59.966566374147725,
,,,,,,,,,,,,1,0,1,0,195,0,195,0,,,,,,,195,,,0.2,826.459272050126,Y,d,go,None,0,,,,,,,,,,,,,,,,,59,001,21,w,Psychologie,2023-01-24_12h11.52.021,00_bat_bachelor,2022.2.4,59.966566374147725,
,,,,,,,,,,,,1,0,1,0,196,0,196,0,,,,,,,196,,,0.2,827.4604187153818,Y,None,nogo,l,0,0.10245898667199071,,,,,,,,,,,,,,,,59,001,21,w,Psychologie,2023-01-24_12h11.52.021,00_bat_bachelor,2022.2.4,59.966566374147725,
,,,,,,,,,,,,1,0,1,0,197,0,197,0,,,,,,,197,,,0.2,827.8774147149761,Y,None,nogo,None,1,,,,,,,,,,,,,,,,,59,001,21,w,Psychologie,2023-01-24_12h11.52.021,00_bat_bachelor,2022.2.4,59.966566374147725,
,,,,,,,,,,,,1,0,1,0,198,0,198,0,,,,,,,198,,,0.2,828.8784305085974,X,l,go,d,0,0.12467762599226262,,,,,,,,,,,,,,,,59,001,21,w,Psychologie,2023-01-24_12h11.52.021,00_bat_bachelor,2022.2.4,59.966566374147725,
,,,,,,,,,,,,1,0,1,0,199,0,199,0,,,,,,,199,,,0.2,829.3121382824957,Y,d,go,d,1,0.3149387251578446,,,,,,,,,,,,,,,,59,001,21,w,Psychologie,2023-01-24_12h11.52.021,00_bat_bachelor,2022.2.4,59.966566374147725,
,,,,,,,,,,,,1,0,1,0,200,0,200,0,,,,,,,200,,,0.2,829.9293764971771,Y,None,nogo,None,1,,,,,,,,,,,,,,,,,59,001,21,w,Psychologie,2023-01-24_12h11.52.021,00_bat_bachelor,2022.2.4,59.966566374147725,
,,,,,,,,,,,,1,0,1,0,201,0,201,0,,,,,,,201,,,0.2,830.9305399829245,X,l,go,l,1,0.352381140612124,,,,,,,,,,,,,,,,59,001,21,w,Psychologie,2023-01-24_12h11.52.021,00_bat_bachelor,2022.2.4,59.966566374147725,
,,,,,,,,,,,,1,0,1,0,202,0,202,0,,,,,,,202,,,0.2,831.5976833669538,Y,d,go,d,1,0.21393700331282162,,,,,,,,,,,,,,,,59,001,21,w,Psychologie,2023-01-24_12h11.52.021,00_bat_bachelor,2022.2.4,59.966566374147725,
,,,,,,,,,,,,1,0,1,0,203,0,203,0,,,,,,,203,,,0.2,832.1149717559329,Y,None,nogo,l,0,0.39258621933549875,,,,,,,,,,,,,,,,59,001,21,w,Psychologie,2023-01-24_12h11.52.021,00_bat_bachelor,2022.2.4,59.966566374147725,
,,,,,,,,,,,,1,0,1,0,204,0,204,0,,,,,,,204,,,0.2,832.8156691499462,X,l,go,None,0,,,,,,,,,,,,,,,,,59,001,21,w,Psychologie,2023-01-24_12h11.52.021,00_bat_bachelor,2022.2.4,59.966566374147725,
,,,,,,,,,,,,1,0,1,0,205,0,205,0,,,,,,,205,,,0.2,833.8166582769336,Y,d,go,d,1,0.36198359033369343,,,,,,,,,,,,,,,,59,001,21,w,Psychologie,2023-01-24_12h11.52.021,00_bat_bachelor,2022.2.4,59.966566374147725,
