loop_instruction.thisRepN,loop_instruction.thisTrialN,loop_instruction.thisN,loop_instruction.thisIndex,loop_rsi_practice.thisRepN,loop_rsi_practice.thisTrialN,loop_rsi_practice.thisN,loop_rsi_practice.thisIndex,loop_practice.thisRepN,loop_practice.thisTrialN,loop_practice.thisN,loop_practice.thisIndex,loop_exp.thisRepN,loop_exp.thisTrialN,loop_exp.thisN,loop_exp.thisIndex,loop_trials.thisRepN,loop_trials.thisTrialN,loop_trials.thisN,loop_trials.thisIndex,map_condition,map_x_key,map_y_key,key_resp_welcome.started,key_resp_welcome.keys,key_resp_welcome.rt,index,text_empty_rsi_practice.started,text_empty_rsi_practice.stopped,rsi,stimulus.started,stimulus,correct,trial_type,key_resp_trial.keys,key_resp_trial.corr,key_resp_trial.rt,stimulus.stopped,key_resp_instruction_rsi.started,key_resp_instruction_rsi.keys,key_resp_instruction_rsi.rt,key_resp_instruction_rsi.stopped,key_resp_instruction_final.started,key_resp_instruction_final.keys,key_resp_instruction_final.rt,key_resp_break.started,key_resp_break.keys,key_resp_break.rt,key_resp_break.stopped,key_resp_end_screen.started,image_end_screen.started,key_resp_end_screen.keys,participant,session,date,expName,psychopyVersion,frameRate,
,,,,0,0,0,0,0,0,0,0,,,,,,,,,1,l,d,3709.681191933283,j,14.699447153820074,0,3724.4033477850753,3725.4302132656594,1,3725.4302132656594,X,l,go,l,1,0.44476666445552837,,,,,,,,,,,,,,,,5,001,2022-12-16_11h01.13.193,00_bat_bachelor,2022.2.4,59.95302585157003,
,,,,0,0,0,0,1,0,1,0,,,,,,,,,,,,,,,1,3726.5861547502136,3727.5879957216966,1,3727.5879957216966,Y,d,go,d,1,0.3093580482964171,,,,,,,,,,,,,,,,5,001,2022-12-16_11h01.13.193,00_bat_bachelor,2022.2.4,59.95302585157003,
,,,,0,0,0,0,2,0,2,0,,,,,,,,,,,,,,,2,3728.6044379194645,3729.6049727078644,1,3729.6049727078644,X,l,go,l,1,0.6426277047867188,,,,,,,,,,,,,,,,5,001,2022-12-16_11h01.13.193,00_bat_bachelor,2022.2.4,59.95302585157003,
,,,,0,0,0,0,3,0,3,0,,,,,,,,,,,,,,,3,3730.972604579496,3731.9735728228698,1,3731.9735728228698,X,None,nogo,None,1,,3732.77421893258,,,,,,,,,,,,,,,5,001,2022-12-16_11h01.13.193,00_bat_bachelor,2022.2.4,59.95302585157003,
,,,,0,0,0,0,4,0,4,0,,,,,,,,,,,,,,,4,3733.37469563607,3734.375245454794,1,3734.375245454794,Y,d,go,d,1,0.4161237275839085,,,,,,,,,,,,,,,,5,001,2022-12-16_11h01.13.193,00_bat_bachelor,2022.2.4,59.95302585157003,
,,,,0,0,0,0,5,0,5,0,,,,,,,,,,,,,,,5,3735.5094157667045,3736.5104644950043,1,3736.5104644950043,X,l,go,l,1,0.44138144903990906,,,,,,,,,,,,,,,,5,001,2022-12-16_11h01.13.193,00_bat_bachelor,2022.2.4,59.95302585157003,
,,,,0,0,0,0,6,0,6,0,,,,,,,,,,,,,,,6,3737.678205748569,3738.678505870077,1,3738.678505870077,X,None,nogo,None,1,,3739.479446283105,,,,,,,,,,,,,,,5,001,2022-12-16_11h01.13.193,00_bat_bachelor,2022.2.4,59.95302585157003,
,,,,0,0,0,0,7,0,7,0,,,,,,,,,,,,,,,7,3740.0795835923345,3741.0805663811625,1,3741.0805663811625,Y,d,go,d,1,0.39832443759951275,,,,,,,,,,,,,,,,5,001,2022-12-16_11h01.13.193,00_bat_bachelor,2022.2.4,59.95302585157003,
,,,,0,0,0,0,8,0,8,0,,,,,,,,,,,,,,,8,3742.198037525377,3743.1989107383415,1,3743.1989107383415,X,l,go,l,1,0.4726837824273389,,,,,,,,,,,,,,,,5,001,2022-12-16_11h01.13.193,00_bat_bachelor,2022.2.4,59.95302585157003,
,,,,0,0,0,0,9,0,9,0,,,,,,,,,,,,,,,9,3744.399543660169,3745.400583661176,1,3745.400583661176,Y,d,go,d,1,0.36697458900744095,,,,,,,,,,,,,,,,5,001,2022-12-16_11h01.13.193,00_bat_bachelor,2022.2.4,59.95302585157003,
,,,,0,0,0,0,10,0,10,0,,,,,,,,,,,,,,,10,3746.484466894035,3747.485486046542,1,3747.485486046542,X,l,go,l,1,0.3787612671148963,,,,,,,,,,,,,,,,5,001,2022-12-16_11h01.13.193,00_bat_bachelor,2022.2.4,59.95302585157003,
,,,,0,0,0,0,11,0,11,0,,,,,,,,,,,,,,,11,3748.5694046733697,3749.5704286743567,1,3749.5704286743567,Y,d,go,d,1,0.5170164314768044,,,,,,,,,,,,,,,,5,001,2022-12-16_11h01.13.193,00_bat_bachelor,2022.2.4,59.95302585157003,
,,,,0,0,0,0,12,0,12,0,,,,,,,,,,,,,,,12,3750.8044851437444,3751.805209508093,1,3751.805209508093,Y,None,nogo,None,1,,3752.606031133124,,,,,,,,,,,,,,,5,001,2022-12-16_11h01.13.193,00_bat_bachelor,2022.2.4,59.95302585157003,
,,,,0,0,0,0,13,0,13,0,,,,,,,,,,,,,,,13,3753.2062940182223,3754.2070775341417,1,3754.2070775341417,X,l,go,l,1,0.3282627938897349,,,,,,,,,,,,,,,,5,001,2022-12-16_11h01.13.193,00_bat_bachelor,2022.2.4,59.95302585157003,
,,,,0,0,0,0,14,0,14,0,,,,,,,,,,,,,,,14,3755.2413689613313,3756.2421713863587,1,3756.2421713863587,Y,d,go,d,1,0.26161836563551333,,,,,,,,,,,,,,,,5,001,2022-12-16_11h01.13.193,00_bat_bachelor,2022.2.4,59.95302585157003,
,,,,1,0,1,0,0,0,0,0,,,,,,,,,,,,,,,0,3774.3889288619976,3774.5891365712887,0.2,3774.5891365712887,X,l,go,None,0,,3775.3896915294026,3757.2803706961276,j,17.082832737723948,,,,,,,,,,,,5,001,2022-12-16_11h01.13.193,00_bat_bachelor,2022.2.4,59.95302585157003,
,,,,1,0,1,0,1,0,1,0,,,,,,,,,,,,,,,1,3775.9903088390856,3776.190103941917,0.2,3776.190103941917,Y,d,go,d,1,0.39499934345076326,,,,,,,,,,,,,,,,5,001,2022-12-16_11h01.13.193,00_bat_bachelor,2022.2.4,59.95302585157003,
,,,,1,0,1,0,2,0,2,0,,,,,,,,,,,,,,,2,3777.291145494455,3777.49113453686,0.2,3777.49113453686,X,l,go,l,1,0.22848427289864048,,,,,,,,,,,,,,,,5,001,2022-12-16_11h01.13.193,00_bat_bachelor,2022.2.4,59.95302585157003,
,,,,1,0,1,0,3,0,3,0,,,,,,,,,,,,,,,3,3778.425528170221,3778.6255492126656,0.2,3778.6255492126656,Y,d,go,d,1,0.3421944437723141,,,,,,,,,,,,,,,,5,001,2022-12-16_11h01.13.193,00_bat_bachelor,2022.2.4,59.95302585157003,
,,,,1,0,1,0,4,0,4,0,,,,,,,,,,,,,,,4,3779.676272655779,3779.876270425477,0.2,3779.876270425477,Y,None,nogo,l,0,0.2115189231117256,,,,,,,,,,,,,,,,5,001,2022-12-16_11h01.13.193,00_bat_bachelor,2022.2.4,59.95302585157003,
,,,,1,0,1,0,5,0,5,0,,,,,,,,,,,,,,,5,3781.2106523254915,3781.4108692469017,0.2,3781.4108692469017,X,l,go,None,0,,3782.2115420233167,,,,,,,,,,,,,,,5,001,2022-12-16_11h01.13.193,00_bat_bachelor,2022.2.4,59.95302585157003,
,,,,1,0,1,0,6,0,6,0,,,,,,,,,,,,,,,6,3782.811836908455,3783.0121900724334,0.2,3783.0121900724334,Y,d,go,d,1,0.34017698727257084,,,,,,,,,,,,,,,,5,001,2022-12-16_11h01.13.193,00_bat_bachelor,2022.2.4,59.95302585157003,
,,,,1,0,1,0,7,0,7,0,,,,,,,,,,,,,,,7,3784.0629556974163,3784.2631420733524,0.2,3784.2631420733524,X,l,go,l,1,0.2733628618734656,,,,,,,,,,,,,,,,5,001,2022-12-16_11h01.13.193,00_bat_bachelor,2022.2.4,59.95302585157003,
,,,,1,0,1,0,8,0,8,0,,,,,,,,,,,,,,,8,3785.247227391257,3785.447371100483,0.2,3785.447371100483,Y,d,go,d,1,0.36818671139189973,,,,,,,,,,,,,,,,5,001,2022-12-16_11h01.13.193,00_bat_bachelor,2022.2.4,59.95302585157003,
,,,,1,0,1,0,9,0,9,0,,,,,,,,,,,,,,,9,3786.5315210002736,3786.7316933155817,0.2,3786.7316933155817,Y,None,nogo,None,1,,3787.532309364673,,,,,,,,,,,,,,,5,001,2022-12-16_11h01.13.193,00_bat_bachelor,2022.2.4,59.95302585157003,
,,,,1,0,1,0,10,0,10,0,,,,,,,,,,,,,,,10,3788.132567401277,3788.3329205652553,0.2,3788.3329205652553,X,l,go,l,1,0.31523005398048554,,,,,,,,,,,,,,,,5,001,2022-12-16_11h01.13.193,00_bat_bachelor,2022.2.4,59.95302585157003,
,,,,1,0,1,0,11,0,11,0,,,,,,,,,,,,,,,11,3789.350299491198,3789.5504504731653,0.2,3789.5504504731653,Y,d,go,d,1,0.3302860685798805,,,,,,,,,,,,,,,,5,001,2022-12-16_11h01.13.193,00_bat_bachelor,2022.2.4,59.95302585157003,
,,,,1,0,1,0,12,0,12,0,,,,,,,,,,,,,,,12,3790.584749657937,3790.78484827622,0.2,3790.78484827622,Y,None,nogo,d,0,0.4242667657817947,,,,,,,,,,,,,,,,5,001,2022-12-16_11h01.13.193,00_bat_bachelor,2022.2.4,59.95302585157003,
,,,,1,0,1,0,13,0,13,0,,,,,,,,,,,,,,,13,3792.335987719751,3792.536176519934,0.2,3792.536176519934,X,l,go,l,1,0.3522196656122105,,,,,,,,,,,,,,,,5,001,2022-12-16_11h01.13.193,00_bat_bachelor,2022.2.4,59.95302585157003,
,,,,1,0,1,0,14,0,14,0,,,,,,,,,,,,,,,14,3793.603627736855,3793.8037636884983,0.2,3793.8037636884983,Y,d,go,d,1,0.33192194896400906,,,,,,,,,,,,,,,,5,001,2022-12-16_11h01.13.193,00_bat_bachelor,2022.2.4,59.95302585157003,
,,,,,,,,,,,,,,,,,,,,,,,,,,,,,,,,,,,,,,3794.9011945708626,None,,3794.9011945708626,3794.9011945708626,space,10.48641373513965,,,,,,,,5,001,2022-12-16_11h01.13.193,00_bat_bachelor,2022.2.4,59.95302585157003,
,,,,,,,,,,,,0,0,0,0,0,0,0,0,,,,,,,0,,,1,3806.413334703844,X,l,go,l,1,0.3623714330315124,,,,,,,,,,,,,,,,5,001,2022-12-16_11h01.13.193,00_bat_bachelor,2022.2.4,59.95302585157003,
,,,,,,,,,,,,0,0,0,0,1,0,1,0,,,,,,,1,,,1,3807.880877460251,Y,d,go,d,1,0.35147057397989556,,,,,,,,,,,,,,,,5,001,2022-12-16_11h01.13.193,00_bat_bachelor,2022.2.4,59.95302585157003,
,,,,,,,,,,,,0,0,0,0,2,0,2,0,,,,,,,2,,,1,3809.3487712472997,X,l,go,l,1,0.3247214571310906,,,,,,,,,,,,,,,,5,001,2022-12-16_11h01.13.193,00_bat_bachelor,2022.2.4,59.95302585157003,
,,,,,,,,,,,,0,0,0,0,3,0,3,0,,,,,,,3,,,1,3810.7831319109246,Y,d,go,l,0,0.3293813404307002,,,,,,,,,,,,,,,,5,001,2022-12-16_11h01.13.193,00_bat_bachelor,2022.2.4,59.95302585157003,
,,,,,,,,,,,,0,0,0,0,4,0,4,0,,,,,,,4,,,1,3812.2174775442254,X,l,go,l,1,0.31836605702119414,,,,,,,,,,,,,,,,5,001,2022-12-16_11h01.13.193,00_bat_bachelor,2022.2.4,59.95302585157003,
,,,,,,,,,,,,0,0,0,0,5,0,5,0,,,,,,,5,,,1,3813.651992389816,Y,d,go,d,1,0.34069432110118214,,,,,,,,,,,,,,,,5,001,2022-12-16_11h01.13.193,00_bat_bachelor,2022.2.4,59.95302585157003,
,,,,,,,,,,,,0,0,0,0,6,0,6,0,,,,,,,6,,,1,3815.102976584705,X,l,go,d,0,0.3296203709760448,,,,,,,,,,,,,,,,5,001,2022-12-16_11h01.13.193,00_bat_bachelor,2022.2.4,59.95302585157003,
,,,,,,,,,,,,0,0,0,0,7,0,7,0,,,,,,,7,,,1,3816.537413854472,X,None,nogo,l,0,0.4477014551666798,,,,,,,,,,,,,,,,5,001,2022-12-16_11h01.13.193,00_bat_bachelor,2022.2.4,59.95302585157003,
,,,,,,,,,,,,0,0,0,0,8,0,8,0,,,,,,,8,,,1,3818.0889707529423,Y,d,go,d,1,0.36768780181591865,,,,,,,,,,,,,,,,5,001,2022-12-16_11h01.13.193,00_bat_bachelor,2022.2.4,59.95302585157003,
,,,,,,,,,,,,0,0,0,0,9,0,9,0,,,,,,,9,,,1,3819.5734027378494,X,l,go,l,1,0.37076368360430934,,,,,,,,,,,,,,,,5,001,2022-12-16_11h01.13.193,00_bat_bachelor,2022.2.4,59.95302585157003,
,,,,,,,,,,,,0,0,0,0,10,0,10,0,,,,,,,10,,,1,3821.0576916923164,X,None,nogo,l,0,0.2948431251279544,,,,,,,,,,,,,,,,5,001,2022-12-16_11h01.13.193,00_bat_bachelor,2022.2.4,59.95302585157003,
,,,,,,,,,,,,0,0,0,0,11,0,11,0,,,,,,,11,,,1,3822.458634141716,X,None,nogo,l,0,0.2855165706278058,,,,,,,,,,,,,,,,5,001,2022-12-16_11h01.13.193,00_bat_bachelor,2022.2.4,59.95302585157003,
,,,,,,,,,,,,0,0,0,0,12,0,12,0,,,,,,,12,,,1,3823.859660954826,Y,d,go,d,1,0.35624827558058314,,,,,,,,,,,,,,,,5,001,2022-12-16_11h01.13.193,00_bat_bachelor,2022.2.4,59.95302585157003,
,,,,,,,,,,,,0,0,0,0,13,0,13,0,,,,,,,13,,,1,3825.327288559798,X,l,go,None,0,,,,,,,,,,,,,,,,,5,001,2022-12-16_11h01.13.193,00_bat_bachelor,2022.2.4,59.95302585157003,
,,,,,,,,,,,,0,0,0,0,14,0,14,0,,,,,,,14,,,1,3827.1289179431915,X,None,nogo,None,1,,3827.9292687799025,,,,,,,,,,,,,,,5,001,2022-12-16_11h01.13.193,00_bat_bachelor,2022.2.4,59.95302585157003,
,,,,,,,,,,,,0,0,0,0,15,0,15,0,,,,,,,15,,,1,3828.9302307202306,Y,d,go,d,1,0.19901563826715574,,,,,,,,,,,,,,,,5,001,2022-12-16_11h01.13.193,00_bat_bachelor,2022.2.4,59.95302585157003,
,,,,,,,,,,,,0,0,0,0,16,0,16,0,,,,,,,16,,,1,3830.2311594968924,X,l,go,l,1,0.48234633724496234,,,,,,,,,,,,,,,,5,001,2022-12-16_11h01.13.193,00_bat_bachelor,2022.2.4,59.95302585157003,
,,,,,,,,,,,,0,0,0,0,17,0,17,0,,,,,,,17,,,1,3831.832394019293,X,None,nogo,None,1,,,,,,,,,,,,,,,,,5,001,2022-12-16_11h01.13.193,00_bat_bachelor,2022.2.4,59.95302585157003,
,,,,,,,,,,,,0,0,0,0,18,0,18,0,,,,,,,18,,,1,3833.6341358876525,Y,d,go,d,1,0.3104227765870746,,,,,,,,,,,,,,,,5,001,2022-12-16_11h01.13.193,00_bat_bachelor,2022.2.4,59.95302585157003,
,,,,,,,,,,,,0,0,0,0,19,0,19,0,,,,,,,19,,,1,3835.0518977472966,X,l,go,l,1,0.36537701170891523,,,,,,,,,,,,,,,,5,001,2022-12-16_11h01.13.193,00_bat_bachelor,2022.2.4,59.95302585157003,
,,,,,,,,,,,,0,0,0,0,20,0,20,0,,,,,,,20,,,1,3836.5359869439853,X,None,nogo,None,1,,3837.336652932514,,,,,,,,,,,,,,,5,001,2022-12-16_11h01.13.193,00_bat_bachelor,2022.2.4,59.95302585157003,
,,,,,,,,,,,,0,0,0,0,21,0,21,0,,,,,,,21,,,1,3838.337428205996,Y,d,go,d,1,0.3582856108987471,,,,,,,,,,,,,,,,5,001,2022-12-16_11h01.13.193,00_bat_bachelor,2022.2.4,59.95302585157003,
,,,,,,,,,,,,0,0,0,0,22,0,22,0,,,,,,,22,,,1,3839.8052473263087,X,l,go,l,1,0.33069479624100495,,,,,,,,,,,,,,,,5,001,2022-12-16_11h01.13.193,00_bat_bachelor,2022.2.4,59.95302585157003,
,,,,,,,,,,,,0,0,0,0,23,0,23,0,,,,,,,23,,,1,3841.2393553836155,Y,d,go,d,1,0.35227251413743943,,,,,,,,,,,,,,,,5,001,2022-12-16_11h01.13.193,00_bat_bachelor,2022.2.4,59.95302585157003,
,,,,,,,,,,,,0,0,0,0,24,0,24,0,,,,,,,24,,,1,3842.707436807221,Y,None,nogo,None,1,,,,,,,,,,,,,,,,,5,001,2022-12-16_11h01.13.193,00_bat_bachelor,2022.2.4,59.95302585157003,
,,,,,,,,,,,,0,0,0,0,25,0,25,0,,,,,,,25,,,1,3844.508437826371,Y,None,nogo,d,0,0.3485139650583733,,,,,,,,,,,,,,,,5,001,2022-12-16_11h01.13.193,00_bat_bachelor,2022.2.4,59.95302585157003,
,,,,,,,,,,,,0,0,0,0,26,0,26,0,,,,,,,26,,,1,3845.9599257793307,X,l,go,l,1,0.38445290898380335,,,,,,,,,,,,,,,,5,001,2022-12-16_11h01.13.193,00_bat_bachelor,2022.2.4,59.95302585157003,
,,,,,,,,,,,,0,0,0,0,27,0,27,0,,,,,,,27,,,1,3847.460882386309,Y,d,go,d,1,0.33937504710047506,,,,,,,,,,,,,,,,5,001,2022-12-16_11h01.13.193,00_bat_bachelor,2022.2.4,59.95302585157003,
,,,,,,,,,,,,0,0,0,0,28,0,28,0,,,,,,,28,,,1,3848.912110460238,X,l,go,d,0,0.4411487215402303,,,,,,,,,,,,,,,,5,001,2022-12-16_11h01.13.193,00_bat_bachelor,2022.2.4,59.95302585157003,
,,,,,,,,,,,,0,0,0,0,29,0,29,0,,,,,,,29,,,1,3850.4630428732635,X,None,nogo,d,0,0.3931258870870806,,,,,,,,,,,,,,,,5,001,2022-12-16_11h01.13.193,00_bat_bachelor,2022.2.4,59.95302585157003,
,,,,,,,,,,,,0,0,0,0,30,0,30,0,,,,,,,30,,,1,3851.964543965616,Y,d,go,d,1,0.49159337651508395,,,,,,,,,,,,,,,,5,001,2022-12-16_11h01.13.193,00_bat_bachelor,2022.2.4,59.95302585157003,
,,,,,,,,,,,,0,0,0,0,31,0,31,0,,,,,,,31,,,1,3853.565683942492,X,l,go,l,1,0.361969978097477,,,,,,,,,,,,,,,,5,001,2022-12-16_11h01.13.193,00_bat_bachelor,2022.2.4,59.95302585157003,
,,,,,,,,,,,,0,0,0,0,32,0,32,0,,,,,,,32,,,1,3855.033312032305,X,None,nogo,l,0,0.3030201027577277,,,,,,,,,,,,,,,,5,001,2022-12-16_11h01.13.193,00_bat_bachelor,2022.2.4,59.95302585157003,
,,,,,,,,,,,,0,0,0,0,33,0,33,0,,,,,,,33,,,1,3856.4509347403073,Y,d,go,d,1,0.37332756487012375,,,,,,,,,,,,,,,,5,001,2022-12-16_11h01.13.193,00_bat_bachelor,2022.2.4,59.95302585157003,
,,,,,,,,,,,,0,0,0,0,34,0,34,0,,,,,,,34,,,1,3857.9355563011486,X,l,go,l,1,0.48875991921522655,,,,,,,,,,,,,,,,5,001,2022-12-16_11h01.13.193,00_bat_bachelor,2022.2.4,59.95302585157003,
,,,,,,,,,,,,0,0,0,0,35,0,35,0,,,,,,,35,,,1,3859.536656520402,Y,d,go,d,1,0.5353519644122571,,,,,,,,,,,,,,,,5,001,2022-12-16_11h01.13.193,00_bat_bachelor,2022.2.4,59.95302585157003,
,,,,,,,,,,,,0,0,0,0,36,0,36,0,,,,,,,36,,,1,3861.187929394364,Y,None,nogo,None,1,,,,,,,,,,,,,,,,,5,001,2022-12-16_11h01.13.193,00_bat_bachelor,2022.2.4,59.95302585157003,
,,,,,,,,,,,,0,0,0,0,37,0,37,0,,,,,,,37,,,1,3862.9895369595615,X,l,go,l,1,0.33105164508742746,,,,,,,,,,,,,,,,5,001,2022-12-16_11h01.13.193,00_bat_bachelor,2022.2.4,59.95302585157003,
,,,,,,,,,,,,0,0,0,0,38,0,38,0,,,,,,,38,,,1,3864.4237453806127,Y,d,go,d,1,0.3845057575381361,,,,,,,,,,,,,,,,5,001,2022-12-16_11h01.13.193,00_bat_bachelor,2022.2.4,59.95302585157003,
,,,,,,,,,,,,0,0,0,0,39,0,39,0,,,,,,,39,,,1,3865.925141745596,X,l,go,l,1,0.37083204729424324,,,,,,,,,,,,,,,,5,001,2022-12-16_11h01.13.193,00_bat_bachelor,2022.2.4,59.95302585157003,
,,,,,,,,,,,,0,0,0,0,40,0,40,0,,,,,,,40,,,1,3867.40935263937,X,None,nogo,None,1,,,,,,,,,,,,,,,,,5,001,2022-12-16_11h01.13.193,00_bat_bachelor,2022.2.4,59.95302585157003,
,,,,,,,,,,,,0,0,0,0,41,0,41,0,,,,,,,41,,,1,3869.2109815379226,Y,d,go,d,1,0.3329900712124072,,,,,,,,,,,,,,,,5,001,2022-12-16_11h01.13.193,00_bat_bachelor,2022.2.4,59.95302585157003,
,,,,,,,,,,,,0,0,0,0,42,0,42,0,,,,,,,42,,,1,3870.6454241410247,X,l,go,l,1,0.3388829253963195,,,,,,,,,,,,,,,,5,001,2022-12-16_11h01.13.193,00_bat_bachelor,2022.2.4,59.95302585157003,
,,,,,,,,,,,,0,0,0,0,43,0,43,0,,,,,,,43,,,1,3872.09646797234,X,None,nogo,None,1,,3872.8971300820704,,,,,,,,,,,,,,,5,001,2022-12-16_11h01.13.193,00_bat_bachelor,2022.2.4,59.95302585157003,
,,,,,,,,,,,,0,0,0,0,44,0,44,0,,,,,,,44,,,1,3873.8976702038053,Y,d,go,d,1,0.3179699354368495,,,,,,,,,,,,,,,,5,001,2022-12-16_11h01.13.193,00_bat_bachelor,2022.2.4,59.95302585157003,
,,,,,,,,,,,,0,0,0,0,45,0,45,0,,,,,,,45,,,1,3875.332223352467,X,l,go,d,0,0.33983613846066874,,,,,,,,,,,,,,,,5,001,2022-12-16_11h01.13.193,00_bat_bachelor,2022.2.4,59.95302585157003,
,,,,,,,,,,,,0,0,0,0,46,0,46,0,,,,,,,46,,,1,3876.7834281536343,Y,d,go,d,1,0.3925523107900517,,,,,,,,,,,,,,,,5,001,2022-12-16_11h01.13.193,00_bat_bachelor,2022.2.4,59.95302585157003,
,,,,,,,,,,,,0,0,0,0,47,0,47,0,,,,,,,47,,,1,3878.2845728820103,Y,None,nogo,None,1,,,,,,,,,,,,,,,,,5,001,2022-12-16_11h01.13.193,00_bat_bachelor,2022.2.4,59.95302585157003,
,,,,,,,,,,,,0,0,0,0,48,0,48,0,,,,,,,48,,,1,3880.085673295209,X,l,go,l,1,0.3377818334265612,,,,,,,,,,,,,,,,5,001,2022-12-16_11h01.13.193,00_bat_bachelor,2022.2.4,59.95302585157003,
,,,,,,,,,,,,0,0,0,0,49,0,49,0,,,,,,,49,,,1,3881.5367913084046,Y,d,go,d,1,0.4232951284648152,,,,,,,,,,,,,,,,5,001,2022-12-16_11h01.13.193,00_bat_bachelor,2022.2.4,59.95302585157003,
,,,,,,,,,,,,0,0,0,0,50,0,50,0,,,,,,,50,,,1,3883.0715651603095,X,l,go,l,1,0.4082410532719223,,,,,,,,,,,,,,,,5,001,2022-12-16_11h01.13.193,00_bat_bachelor,2022.2.4,59.95302585157003,
,,,,,,,,,,,,0,0,0,0,51,0,51,0,,,,,,,51,,,1,3884.58912202582,Y,d,go,d,1,0.2830540227878373,,,,,,,,,,,,,,,,5,001,2022-12-16_11h01.13.193,00_bat_bachelor,2022.2.4,59.95302585157003,
,,,,,,,,,,,,0,0,0,0,52,0,52,0,,,,,,,52,,,1,3885.9736533077958,X,l,go,l,1,0.3861426076036878,,,,,,,,,,,,,,,,5,001,2022-12-16_11h01.13.193,00_bat_bachelor,2022.2.4,59.95302585157003,
,,,,,,,,,,,,0,0,0,0,53,0,53,0,,,,,,,53,,,1,3887.4746060359903,Y,d,go,d,1,0.6302819958509644,,,,,,,,,,,,,,,,5,001,2022-12-16_11h01.13.193,00_bat_bachelor,2022.2.4,59.95302585157003,
,,,,,,,,,,,,0,0,0,0,54,0,54,0,,,,,,,54,,,1,3889.2095754759503,X,l,go,l,1,0.35071954294107854,,,,,,,,,,,,,,,,5,001,2022-12-16_11h01.13.193,00_bat_bachelor,2022.2.4,59.95302585157003,
,,,,,,,,,,,,0,0,0,0,55,0,55,0,,,,,,,55,,,1,3890.6604772465216,X,None,nogo,None,1,,,,,,,,,,,,,,,,,5,001,2022-12-16_11h01.13.193,00_bat_bachelor,2022.2.4,59.95302585157003,
,,,,,,,,,,,,0,0,0,0,56,0,56,0,,,,,,,56,,,1,3892.4618035993335,Y,d,go,d,1,0.3301493411854608,,,,,,,,,,,,,,,,5,001,2022-12-16_11h01.13.193,00_bat_bachelor,2022.2.4,59.95302585157003,
,,,,,,,,,,,,0,0,0,0,57,0,57,0,,,,,,,57,,,1,3893.896377596495,X,l,go,d,0,0.3513270586845465,,,,,,,,,,,,,,,,5,001,2022-12-16_11h01.13.193,00_bat_bachelor,2022.2.4,59.95302585157003,
,,,,,,,,,,,,0,0,0,0,58,0,58,0,,,,,,,58,,,1,3895.364212716813,Y,d,go,d,1,0.30804556216753554,,,,,,,,,,,,,,,,5,001,2022-12-16_11h01.13.193,00_bat_bachelor,2022.2.4,59.95302585157003,
,,,,,,,,,,,,0,0,0,0,59,0,59,0,,,,,,,59,,,1,3896.781835909671,Y,None,nogo,None,1,,,,,,,,,,,,,,,,,5,001,2022-12-16_11h01.13.193,00_bat_bachelor,2022.2.4,59.95302585157003,
,,,,,,,,,,,,0,0,0,0,60,0,60,0,,,,,,,60,,,1,3898.583367353567,X,l,go,l,1,0.36883495445363224,,,,,,,,,,,,,,,,5,001,2022-12-16_11h01.13.193,00_bat_bachelor,2022.2.4,59.95302585157003,
,,,,,,,,,,,,0,0,0,0,61,0,61,0,,,,,,,61,,,1,3900.067848793071,Y,d,go,d,1,0.4045285648171557,,,,,,,,,,,,,,,,5,001,2022-12-16_11h01.13.193,00_bat_bachelor,2022.2.4,59.95302585157003,
,,,,,,,,,,,,0,0,0,0,62,0,62,0,,,,,,,62,,,1,3901.585659234581,X,l,go,l,1,0.40688929437601473,,,,,,,,,,,,,,,,5,001,2022-12-16_11h01.13.193,00_bat_bachelor,2022.2.4,59.95302585157003,
,,,,,,,,,,,,0,0,0,0,63,0,63,0,,,,,,,63,,,1,3903.103609312602,X,None,nogo,l,0,0.31333526427624747,,,,,,,,,,,,,,,,5,001,2022-12-16_11h01.13.193,00_bat_bachelor,2022.2.4,59.95302585157003,
,,,,,,,,,,,,0,0,0,0,64,0,64,0,,,,,,,64,,,1,3904.5213648692006,Y,d,go,d,1,0.33435686041775625,,,,,,,,,,,,,,,,5,001,2022-12-16_11h01.13.193,00_bat_bachelor,2022.2.4,59.95302585157003,
,,,,,,,,,,,,0,0,0,0,65,0,65,0,,,,,,,65,,,1,3905.9723776701867,X,l,go,l,1,0.5000758089881856,,,,,,,,,,,,,,,,5,001,2022-12-16_11h01.13.193,00_bat_bachelor,2022.2.4,59.95302585157003,
,,,,,,,,,,,,0,0,0,0,66,0,66,0,,,,,,,66,,,1,3907.573571950139,X,None,nogo,None,1,,,,,,,,,,,,,,,,,5,001,2022-12-16_11h01.13.193,00_bat_bachelor,2022.2.4,59.95302585157003,
,,,,,,,,,,,,0,0,0,0,67,0,67,0,,,,,,,67,,,1,3909.3746665451326,Y,d,go,d,1,0.39382358474540524,,,,,,,,,,,,,,,,5,001,2022-12-16_11h01.13.193,00_bat_bachelor,2022.2.4,59.95302585157003,
,,,,,,,,,,,,0,0,0,0,68,0,68,0,,,,,,,68,,,1,3910.8760401222244,X,l,go,l,1,0.3651816175697604,,,,,,,,,,,,,,,,5,001,2022-12-16_11h01.13.193,00_bat_bachelor,2022.2.4,59.95302585157003,
,,,,,,,,,,,,0,0,0,0,69,0,69,0,,,,,,,69,,,1,3912.3439377880713,Y,d,go,d,1,0.33638837753096595,,,,,,,,,,,,,,,,5,001,2022-12-16_11h01.13.193,00_bat_bachelor,2022.2.4,59.95302585157003,
,,,,,,,,,,,,0,0,0,0,70,0,70,0,,,,,,,70,,,1,3913.795002952742,X,l,go,l,1,0.3418952919746516,,,,,,,,,,,,,,,,5,001,2022-12-16_11h01.13.193,00_bat_bachelor,2022.2.4,59.95302585157003,
,,,,,,,,,,,,0,0,0,0,71,0,71,0,,,,,,,71,,,1,3915.2461379356537,X,None,nogo,l,0,0.39516079815803096,,,,,,,,,,,,,,,,5,001,2022-12-16_11h01.13.193,00_bat_bachelor,2022.2.4,59.95302585157003,
,,,,,,,,,,,,0,0,0,0,72,0,72,0,,,,,,,72,,,1,3916.747044603195,Y,d,go,d,1,0.4128878456540406,,,,,,,,,,,,,,,,5,001,2022-12-16_11h01.13.193,00_bat_bachelor,2022.2.4,59.95302585157003,
,,,,,,,,,,,,0,0,0,0,73,0,73,0,,,,,,,73,,,1,3918.265069832807,X,l,go,l,1,0.3676785896823276,,,,,,,,,,,,,,,,5,001,2022-12-16_11h01.13.193,00_bat_bachelor,2022.2.4,59.95302585157003,
,,,,,,,,,,,,0,0,0,0,74,0,74,0,,,,,,,74,,,1,3919.749563878373,Y,d,go,d,1,0.33893431939941365,,,,,,,,,,,,,,,,5,001,2022-12-16_11h01.13.193,00_bat_bachelor,2022.2.4,59.95302585157003,
,,,,,,,,,,,,0,0,0,0,75,0,75,0,,,,,,,75,,,1,3921.2005917096685,Y,None,nogo,None,1,,,,,,,,,,,,,,,,,5,001,2022-12-16_11h01.13.193,00_bat_bachelor,2022.2.4,59.95302585157003,
,,,,,,,,,,,,0,0,0,0,76,0,76,0,,,,,,,76,,,1,3923.0019641231193,Y,None,nogo,d,0,0.3505648761201883,,,,,,,,,,,,,,,,5,001,2022-12-16_11h01.13.193,00_bat_bachelor,2022.2.4,59.95302585157003,
,,,,,,,,,,,,0,0,0,0,77,0,77,0,,,,,,,77,,,1,3924.4697541524947,X,l,go,l,1,0.4179966990923276,,,,,,,,,,,,,,,,5,001,2022-12-16_11h01.13.193,00_bat_bachelor,2022.2.4,59.95302585157003,
,,,,,,,,,,,,0,0,0,0,78,0,78,0,,,,,,,78,,,1,3926.0041347918886,Y,d,go,d,1,0.5974087518552551,,,,,,,,,,,,,,,,5,001,2022-12-16_11h01.13.193,00_bat_bachelor,2022.2.4,59.95302585157003,
,,,,,,,,,,,,0,0,0,0,79,0,79,0,,,,,,,79,,,1,3927.705904199669,Y,None,nogo,None,1,,3928.5060484907153,,,,,,,,,,,,,,,5,001,2022-12-16_11h01.13.193,00_bat_bachelor,2022.2.4,59.95302585157003,
,,,,,,,,,,,,0,0,0,0,80,0,80,0,,,,,,,80,,,1,3929.5067170974216,X,l,go,l,1,0.3739040502841817,,,,,,,,,,,,,,,,5,001,2022-12-16_11h01.13.193,00_bat_bachelor,2022.2.4,59.95302585157003,
,,,,,,,,,,,,0,0,0,0,81,0,81,0,,,,,,,81,,,1,3930.9913934462093,Y,d,go,d,1,0.42483500874368474,,,,,,,,,,,,,,,,5,001,2022-12-16_11h01.13.193,00_bat_bachelor,2022.2.4,59.95302585157003,
,,,,,,,,,,,,0,0,0,0,82,0,82,0,,,,,,,82,,,1,3932.526032025242,X,l,go,l,1,0.36317870653874706,,,,,,,,,,,,,,,,5,001,2022-12-16_11h01.13.193,00_bat_bachelor,2022.2.4,59.95302585157003,
,,,,,,,,,,,,0,0,0,0,83,0,83,0,,,,,,,83,,,1,3933.99375611516,X,None,nogo,None,1,,3934.7942974975012,,,,,,,,,,,,,,,5,001,2022-12-16_11h01.13.193,00_bat_bachelor,2022.2.4,59.95302585157003,
,,,,,,,,,,,,0,0,0,0,84,0,84,0,,,,,,,84,,,1,3935.7952933772613,Y,d,go,d,1,0.38843982193793636,,,,,,,,,,,,,,,,5,001,2022-12-16_11h01.13.193,00_bat_bachelor,2022.2.4,59.95302585157003,
,,,,,,,,,,,,0,0,0,0,85,0,85,0,,,,,,,85,,,1,3937.2962010144984,X,l,go,l,1,0.37715447766822763,,,,,,,,,,,,,,,,5,001,2022-12-16_11h01.13.193,00_bat_bachelor,2022.2.4,59.95302585157003,
,,,,,,,,,,,,0,0,0,0,86,0,86,0,,,,,,,86,,,1,3938.780761969232,Y,d,go,d,1,0.3639757982309675,,,,,,,,,,,,,,,,5,001,2022-12-16_11h01.13.193,00_bat_bachelor,2022.2.4,59.95302585157003,
,,,,,,,,,,,,0,0,0,0,87,0,87,0,,,,,,,87,,,1,3940.248444846977,X,l,go,l,1,0.3681222264858661,,,,,,,,,,,,,,,,5,001,2022-12-16_11h01.13.193,00_bat_bachelor,2022.2.4,59.95302585157003,
,,,,,,,,,,,,0,0,0,0,88,0,88,0,,,,,,,88,,,1,3941.7327856802876,X,None,nogo,None,1,,,,,,,,,,,,,,,,,5,001,2022-12-16_11h01.13.193,00_bat_bachelor,2022.2.4,59.95302585157003,
,,,,,,,,,,,,0,0,0,0,89,0,89,0,,,,,,,89,,,1,3943.5343612454453,Y,d,go,d,1,0.37912829777633306,,,,,,,,,,,,,,,,5,001,2022-12-16_11h01.13.193,00_bat_bachelor,2022.2.4,59.95302585157003,
,,,,,,,,,,,,0,0,0,0,90,0,90,0,,,,,,,90,,,1,3945.0187423212046,X,l,go,l,1,0.42990361973352265,,,,,,,,,,,,,,,,5,001,2022-12-16_11h01.13.193,00_bat_bachelor,2022.2.4,59.95302585157003,
,,,,,,,,,,,,0,0,0,0,91,0,91,0,,,,,,,91,,,1,3946.5533658699424,Y,d,go,d,1,0.464237713633338,,,,,,,,,,,,,,,,5,001,2022-12-16_11h01.13.193,00_bat_bachelor,2022.2.4,59.95302585157003,
,,,,,,,,,,,,0,0,0,0,92,0,92,0,,,,,,,92,,,1,3948.120939753644,Y,None,nogo,None,1,,3948.921673621022,,,,,,,,,,,,,,,5,001,2022-12-16_11h01.13.193,00_bat_bachelor,2022.2.4,59.95302585157003,
,,,,,,,,,,,,0,0,0,0,93,0,93,0,,,,,,,93,,,1,3949.922552652177,X,l,go,l,1,0.31080968606693204,,,,,,,,,,,,,,,,5,001,2022-12-16_11h01.13.193,00_bat_bachelor,2022.2.4,59.95302585157003,
,,,,,,,,,,,,0,0,0,0,94,0,94,0,,,,,,,94,,,1,3951.3403513603407,Y,d,go,d,1,0.29944967504707165,,,,,,,,,,,,,,,,5,001,2022-12-16_11h01.13.193,00_bat_bachelor,2022.2.4,59.95302585157003,
,,,,,,,,,,,,0,0,0,0,95,0,95,0,,,,,,,95,,,1,3952.741100355008,Y,None,nogo,None,1,,,,,,,,,,,,,,,,,5,001,2022-12-16_11h01.13.193,00_bat_bachelor,2022.2.4,59.95302585157003,
,,,,,,,,,,,,0,0,0,0,96,0,96,0,,,,,,,96,,,1,3954.5428562839807,X,l,go,l,1,0.31438981075189076,,,,,,,,,,,,,,,,5,001,2022-12-16_11h01.13.193,00_bat_bachelor,2022.2.4,59.95302585157003,
,,,,,,,,,,,,0,0,0,0,97,0,97,0,,,,,,,97,,,1,3955.9606268709176,Y,d,go,d,1,0.27199995145201683,,,,,,,,,,,,,,,,5,001,2022-12-16_11h01.13.193,00_bat_bachelor,2022.2.4,59.95302585157003,
,,,,,,,,,,,,0,0,0,0,98,0,98,0,,,,,,,98,,,1,3957.3448696677515,X,l,go,l,1,0.32769358121731784,,,,,,,,,,,,,,,,5,001,2022-12-16_11h01.13.193,00_bat_bachelor,2022.2.4,59.95302585157003,
,,,,,,,,,,,,0,0,0,0,99,0,99,0,,,,,,,99,,,1,3958.7793738466717,Y,d,go,d,1,0.2847025092341937,,,,,,,,,,,,,,,,5,001,2022-12-16_11h01.13.193,00_bat_bachelor,2022.2.4,59.95302585157003,
,,,,,,,,,,,,0,0,0,0,100,0,100,0,,,,,,,100,,,1,3960.180137871648,X,l,go,l,1,0.3550657289888477,,,,,,,,,,,,,,,,5,001,2022-12-16_11h01.13.193,00_bat_bachelor,2022.2.4,59.95302585157003,
,,,,,,,,,,,,0,0,0,0,101,0,101,0,,,,,,,101,,,1,3961.648297840773,X,None,nogo,None,1,,,,,,,,,,,,,,,,,5,001,2022-12-16_11h01.13.193,00_bat_bachelor,2022.2.4,59.95302585157003,
,,,,,,,,,,,,0,0,0,0,102,0,102,0,,,,,,,102,,,1,3963.4496784966614,Y,d,go,d,1,0.39912104442191776,,,,,,,,,,,,,,,,5,001,2022-12-16_11h01.13.193,00_bat_bachelor,2022.2.4,59.95302585157003,
,,,,,,,,,,,,0,0,0,0,103,0,103,0,,,,,,,103,,,1,3964.9504014064587,X,l,go,l,1,0.385593758590403,,,,,,,,,,,,,,,,5,001,2022-12-16_11h01.13.193,00_bat_bachelor,2022.2.4,59.95302585157003,
,,,,,,,,,,,,0,0,0,0,104,0,104,0,,,,,,,104,,,1,3966.4517260137945,X,None,nogo,l,0,0.4038080792670371,,,,,,,,,,,,,,,,5,001,2022-12-16_11h01.13.193,00_bat_bachelor,2022.2.4,59.95302585157003,
,,,,,,,,,,,,0,0,0,0,105,0,105,0,,,,,,,105,,,1,3967.9694268794556,Y,d,go,d,1,0.3581934895919403,,,,,,,,,,,,,,,,5,001,2022-12-16_11h01.13.193,00_bat_bachelor,2022.2.4,59.95302585157003,
,,,,,,,,,,,,0,0,0,0,106,0,106,0,,,,,,,106,,,1,3969.4374123029556,X,l,go,None,0,,,,,,,,,,,,,,,,,5,001,2022-12-16_11h01.13.193,00_bat_bachelor,2022.2.4,59.95302585157003,
,,,,,,,,,,,,0,0,0,0,107,0,107,0,,,,,,,107,,,1,3971.2386683526565,X,None,nogo,None,1,,,,,,,,,,,,,,,,,5,001,2022-12-16_11h01.13.193,00_bat_bachelor,2022.2.4,59.95302585157003,
,,,,,,,,,,,,0,0,0,0,108,0,108,0,,,,,,,108,,,1,3973.040140160141,Y,d,go,d,1,0.32808388462581206,,,,,,,,,,,,,,,,5,001,2022-12-16_11h01.13.193,00_bat_bachelor,2022.2.4,59.95302585157003,
,,,,,,,,,,,,0,0,0,0,109,0,109,0,,,,,,,109,,,1,3974.474669066345,X,l,go,l,1,0.26999364647781476,,,,,,,,,,,,,,,,5,001,2022-12-16_11h01.13.193,00_bat_bachelor,2022.2.4,59.95302585157003,
,,,,,,,,,,,,0,0,0,0,110,0,110,0,,,,,,,110,,,1,3975.859028711784,Y,d,go,d,1,0.3421765043603955,,,,,,,,,,,,,,,,5,001,2022-12-16_11h01.13.193,00_bat_bachelor,2022.2.4,59.95302585157003,
,,,,,,,,,,,,0,0,0,0,111,0,111,0,,,,,,,111,,,1,3977.3101714522927,Y,None,nogo,None,1,,,,,,,,,,,,,,,,,5,001,2022-12-16_11h01.13.193,00_bat_bachelor,2022.2.4,59.95302585157003,
,,,,,,,,,,,,0,0,0,0,112,0,112,0,,,,,,,112,,,1,3979.1115205929964,X,l,go,l,1,0.3042681039660238,,,,,,,,,,,,,,,,5,001,2022-12-16_11h01.13.193,00_bat_bachelor,2022.2.4,59.95302585157003,
,,,,,,,,,,,,0,0,0,0,113,0,113,0,,,,,,,113,,,1,3980.529030816033,Y,d,go,d,1,0.40798553786589764,,,,,,,,,,,,,,,,5,001,2022-12-16_11h01.13.193,00_bat_bachelor,2022.2.4,59.95302585157003,
,,,,,,,,,,,,0,0,0,0,114,0,114,0,,,,,,,114,,,1,3982.047122954784,Y,None,nogo,None,1,,,,,,,,,,,,,,,,,5,001,2022-12-16_11h01.13.193,00_bat_bachelor,2022.2.4,59.95302585157003,
,,,,,,,,,,,,0,0,0,0,115,0,115,0,,,,,,,115,,,1,3983.8484255499934,X,l,go,l,1,0.25694781565107405,,,,,,,,,,,,,,,,5,001,2022-12-16_11h01.13.193,00_bat_bachelor,2022.2.4,59.95302585157003,
,,,,,,,,,,,,0,0,0,0,116,0,116,0,,,,,,,116,,,1,3985.215889179046,Y,d,go,d,1,0.4243734325573314,,,,,,,,,,,,,,,,5,001,2022-12-16_11h01.13.193,00_bat_bachelor,2022.2.4,59.95302585157003,
,,,,,,,,,,,,0,0,0,0,117,0,117,0,,,,,,,117,,,1,3986.7506397582038,X,l,go,l,1,0.217288625673973,,,,,,,,,,,,,,,,5,001,2022-12-16_11h01.13.193,00_bat_bachelor,2022.2.4,59.95302585157003,
,,,,,,,,,,,,0,0,0,0,118,0,118,0,,,,,,,118,,,1,3988.0683428541524,Y,d,go,d,1,0.22884936415357515,,,,,,,,,,,,,,,,5,001,2022-12-16_11h01.13.193,00_bat_bachelor,2022.2.4,59.95302585157003,
,,,,,,,,,,,,0,0,0,0,119,0,119,0,,,,,,,119,,,1,3989.4023795417015,Y,None,nogo,l,0,0.27018661636975594,,,,,,,,,,,,,,,,5,001,2022-12-16_11h01.13.193,00_bat_bachelor,2022.2.4,59.95302585157003,
,,,,,,,,,,,,0,0,0,0,120,0,120,0,,,,,,,120,,,1,3990.787023793484,X,l,go,l,1,0.6295813891192665,,,,,,,,,,,,,,,,5,001,2022-12-16_11h01.13.193,00_bat_bachelor,2022.2.4,59.95302585157003,
,,,,,,,,,,,,0,0,0,0,121,0,121,0,,,,,,,121,,,1,3992.5215112935985,Y,d,go,None,0,,3993.322257282198,,,,,,,,,,,,,,,5,001,2022-12-16_11h01.13.193,00_bat_bachelor,2022.2.4,59.95302585157003,
,,,,,,,,,,,,0,0,0,0,122,0,122,0,,,,,,,122,,,1,3994.3231542527647,Y,None,nogo,None,1,,3995.123718907853,,,,,,,,,,,,,,,5,001,2022-12-16_11h01.13.193,00_bat_bachelor,2022.2.4,59.95302585157003,
,,,,,,,,,,,,0,0,0,0,123,0,123,0,,,,,,,123,,,1,3996.124459757062,X,l,go,l,1,0.36323252477450296,,,,,,,,,,,,,,,,5,001,2022-12-16_11h01.13.193,00_bat_bachelor,2022.2.4,59.95302585157003,
,,,,,,,,,,,,0,0,0,0,124,0,124,0,,,,,,,124,,,1,3997.592320089534,Y,d,go,d,1,0.3196673916245345,,,,,,,,,,,,,,,,5,001,2022-12-16_11h01.13.193,00_bat_bachelor,2022.2.4,59.95302585157003,
,,,,,,,,,,,,0,0,0,0,125,0,125,0,,,,,,,125,,,1,3999.0265624500025,Y,None,nogo,None,1,,,,,,,,,,,,,,,,,5,001,2022-12-16_11h01.13.193,00_bat_bachelor,2022.2.4,59.95302585157003,
,,,,,,,,,,,,0,0,0,0,126,0,126,0,,,,,,,126,,,1,4000.827848075496,X,l,go,l,1,0.36389676784165204,,,,,,,,,,,,,,,,5,001,2022-12-16_11h01.13.193,00_bat_bachelor,2022.2.4,59.95302585157003,
,,,,,,,,,,,,0,0,0,0,127,0,127,0,,,,,,,127,,,1,4002.2960531355784,Y,d,go,d,1,0.3679772566538304,,,,,,,,,,,,,,,,5,001,2022-12-16_11h01.13.193,00_bat_bachelor,2022.2.4,59.95302585157003,
,,,,,,,,,,,,0,0,0,0,128,0,128,0,,,,,,,128,,,1,4003.780102089804,Y,None,nogo,None,1,,,,,,,,,,,,,,,,,5,001,2022-12-16_11h01.13.193,00_bat_bachelor,2022.2.4,59.95302585157003,
,,,,,,,,,,,,0,0,0,0,129,0,129,0,,,,,,,129,,,1,4005.581740200476,X,l,go,l,1,0.33125043315521907,,,,,,,,,,,,,,,,5,001,2022-12-16_11h01.13.193,00_bat_bachelor,2022.2.4,59.95302585157003,
,,,,,,,,,,,,0,0,0,0,130,0,130,0,,,,,,,130,,,1,4007.01608437924,Y,d,go,d,1,0.28825111873447895,,,,,,,,,,,,,,,,5,001,2022-12-16_11h01.13.193,00_bat_bachelor,2022.2.4,59.95302585157003,
,,,,,,,,,,,,0,0,0,0,131,0,131,0,,,,,,,131,,,1,4008.4172217379237,Y,None,nogo,None,1,,4009.2178377870005,,,,,,,,,,,,,,,5,001,2022-12-16_11h01.13.193,00_bat_bachelor,2022.2.4,59.95302585157003,
,,,,,,,,,,,,0,0,0,0,132,0,132,0,,,,,,,132,,,1,4010.218390029957,Y,None,nogo,None,1,,,,,,,,,,,,,,,,,5,001,2022-12-16_11h01.13.193,00_bat_bachelor,2022.2.4,59.95302585157003,
,,,,,,,,,,,,0,0,0,0,133,0,133,0,,,,,,,133,,,1,4012.0201532316714,X,l,go,l,1,0.32439563862862997,,,,,,,,,,,,,,,,5,001,2022-12-16_11h01.13.193,00_bat_bachelor,2022.2.4,59.95302585157003,
,,,,,,,,,,,,0,0,0,0,134,0,134,0,,,,,,,134,,,1,4013.4544028648816,Y,d,go,d,1,0.2496343540115049,,,,,,,,,,,,,,,,5,001,2022-12-16_11h01.13.193,00_bat_bachelor,2022.2.4,59.95302585157003,
,,,,,,,,,,,,0,0,0,0,135,0,135,0,,,,,,,135,,,1,4014.8052521747886,X,l,go,l,1,0.45070121565368026,,,,,,,,,,,,,,,,5,001,2022-12-16_11h01.13.193,00_bat_bachelor,2022.2.4,59.95302585157003,
,,,,,,,,,,,,0,0,0,0,136,0,136,0,,,,,,,136,,,1,4016.3730403617374,X,None,nogo,d,0,0.21065443742554635,,,,,,,,,,,,,,,,5,001,2022-12-16_11h01.13.193,00_bat_bachelor,2022.2.4,59.95302585157003,
,,,,,,,,,,,,0,0,0,0,137,0,137,0,,,,,,,137,,,1,4017.6909853973193,X,None,nogo,None,1,,,,,,,,,,,,,,,,,5,001,2022-12-16_11h01.13.193,00_bat_bachelor,2022.2.4,59.95302585157003,
,,,,,,,,,,,,0,0,0,0,138,0,138,0,,,,,,,138,,,1,4019.492652114088,Y,d,go,l,0,0.34000438102521,,,,,,,,,,,,,,,,5,001,2022-12-16_11h01.13.193,00_bat_bachelor,2022.2.4,59.95302585157003,
,,,,,,,,,,,,0,0,0,0,139,0,139,0,,,,,,,139,,,1,4020.943989279025,X,l,go,l,1,0.3610797954170266,,,,,,,,,,,,,,,,5,001,2022-12-16_11h01.13.193,00_bat_bachelor,2022.2.4,59.95302585157003,
,,,,,,,,,,,,0,0,0,0,140,0,140,0,,,,,,,140,,,1,4022.411295429134,Y,d,go,d,1,0.3654080420383252,,,,,,,,,,,,,,,,5,001,2022-12-16_11h01.13.193,00_bat_bachelor,2022.2.4,59.95302585157003,
,,,,,,,,,,,,0,0,0,0,141,0,141,0,,,,,,,141,,,1,4023.8791223070293,Y,None,nogo,None,1,,,,,,,,,,,,,,,,,5,001,2022-12-16_11h01.13.193,00_bat_bachelor,2022.2.4,59.95302585157003,
,,,,,,,,,,,,0,0,0,0,142,0,142,0,,,,,,,142,,,1,4025.6803822355287,X,l,go,l,1,0.37593896134058014,,,,,,,,,,,,,,,,5,001,2022-12-16_11h01.13.193,00_bat_bachelor,2022.2.4,59.95302585157003,
,,,,,,,,,,,,0,0,0,0,143,0,143,0,,,,,,,143,,,1,4027.1648903417226,Y,d,go,d,1,0.28290323476539925,,,,,,,,,,,,,,,,5,001,2022-12-16_11h01.13.193,00_bat_bachelor,2022.2.4,59.95302585157003,
,,,,,,,,,,,,0,0,0,0,144,0,144,0,,,,,,,144,,,1,4028.5489707141533,X,l,go,l,1,0.37143713880504947,,,,,,,,,,,,,,,,5,001,2022-12-16_11h01.13.193,00_bat_bachelor,2022.2.4,59.95302585157003,
,,,,,,,,,,,,0,0,0,0,145,0,145,0,,,,,,,145,,,1,4030.0337028205686,Y,d,go,d,1,0.3754802942276001,,,,,,,,,,,,,,,,5,001,2022-12-16_11h01.13.193,00_bat_bachelor,2022.2.4,59.95302585157003,
,,,,,,,,,,,,0,0,0,0,146,0,146,0,,,,,,,146,,,1,4031.5179045022087,X,l,go,l,1,0.23398973277653567,,,,,,,,,,,,,,,,5,001,2022-12-16_11h01.13.193,00_bat_bachelor,2022.2.4,59.95302585157003,
,,,,,,,,,,,,0,0,0,0,147,0,147,0,,,,,,,147,,,1,4032.8691659337346,X,None,nogo,l,0,0.40328201816009823,,,,,,,,,,,,,,,,5,001,2022-12-16_11h01.13.193,00_bat_bachelor,2022.2.4,59.95302585157003,
,,,,,,,,,,,,0,0,0,0,148,0,148,0,,,,,,,148,,,1,4034.3870457086596,Y,d,go,d,1,0.5163497641624417,,,,,,,,,,,,,,,,5,001,2022-12-16_11h01.13.193,00_bat_bachelor,2022.2.4,59.95302585157003,
,,,,,,,,,,,,0,0,0,0,149,0,149,0,,,,,,,149,,,1,4036.004815519831,X,l,go,l,1,0.33978086567367427,,,,,,,,,,,,,,,,5,001,2022-12-16_11h01.13.193,00_bat_bachelor,2022.2.4,59.95302585157003,
,,,,,,,,,,,,0,0,0,0,150,0,150,0,,,,,,,150,,,1,4037.456273896998,Y,d,go,d,1,0.3450085071090143,,,,,,,,,,,,,,,,5,001,2022-12-16_11h01.13.193,00_bat_bachelor,2022.2.4,59.95302585157003,
,,,,,,,,,,,,0,0,0,0,151,0,151,0,,,,,,,151,,,1,4038.907206213058,X,l,go,l,1,0.36563737559481524,,,,,,,,,,,,,,,,5,001,2022-12-16_11h01.13.193,00_bat_bachelor,2022.2.4,59.95302585157003,
,,,,,,,,,,,,0,0,0,0,152,0,152,0,,,,,,,152,,,1,4040.37495503026,Y,d,go,d,1,0.36878889380022883,,,,,,,,,,,,,,,,5,001,2022-12-16_11h01.13.193,00_bat_bachelor,2022.2.4,59.95302585157003,
,,,,,,,,,,,,0,0,0,0,153,0,153,0,,,,,,,153,,,1,4041.859182408909,Y,None,nogo,None,1,,,,,,,,,,,,,,,,,5,001,2022-12-16_11h01.13.193,00_bat_bachelor,2022.2.4,59.95302585157003,
,,,,,,,,,,,,0,0,0,0,154,0,154,0,,,,,,,154,,,1,4043.6607676710555,X,l,go,l,1,0.26778176554944366,,,,,,,,,,,,,,,,5,001,2022-12-16_11h01.13.193,00_bat_bachelor,2022.2.4,59.95302585157003,
,,,,,,,,,,,,0,0,0,0,155,0,155,0,,,,,,,155,,,1,4045.04520198323,Y,d,go,d,1,0.4030492906604195,,,,,,,,,,,,,,,,5,001,2022-12-16_11h01.13.193,00_bat_bachelor,2022.2.4,59.95302585157003,
,,,,,,,,,,,,0,0,0,0,156,0,156,0,,,,,,,156,,,1,4046.5630352126464,Y,None,nogo,None,1,,,,,,,,,,,,,,,,,5,001,2022-12-16_11h01.13.193,00_bat_bachelor,2022.2.4,59.95302585157003,
,,,,,,,,,,,,0,0,0,0,157,0,157,0,,,,,,,157,,,1,4048.3641802319326,X,l,go,l,1,0.39644176910223905,,,,,,,,,,,,,,,,5,001,2022-12-16_11h01.13.193,00_bat_bachelor,2022.2.4,59.95302585157003,
,,,,,,,,,,,,0,0,0,0,158,0,158,0,,,,,,,158,,,1,4049.8655567181268,Y,d,go,d,1,0.30309525433403905,,,,,,,,,,,,,,,,5,001,2022-12-16_11h01.13.193,00_bat_bachelor,2022.2.4,59.95302585157003,
,,,,,,,,,,,,0,0,0,0,159,0,159,0,,,,,,,159,,,1,4051.283310335333,X,l,go,l,1,0.27784189651720226,,,,,,,,,,,,,,,,5,001,2022-12-16_11h01.13.193,00_bat_bachelor,2022.2.4,59.95302585157003,
,,,,,,,,,,,,0,0,0,0,160,0,160,0,,,,,,,160,,,1,4052.6675764049287,Y,d,go,d,1,0.23651725037780125,,,,,,,,,,,,,,,,5,001,2022-12-16_11h01.13.193,00_bat_bachelor,2022.2.4,59.95302585157003,
,,,,,,,,,,,,0,0,0,0,161,0,161,0,,,,,,,161,,,1,4054.0186526241596,X,l,go,l,1,0.2466215026070131,,,,,,,,,,,,,,,,5,001,2022-12-16_11h01.13.193,00_bat_bachelor,2022.2.4,59.95302585157003,
,,,,,,,,,,,,0,0,0,0,162,0,162,0,,,,,,,162,,,1,4055.3697729646374,X,None,nogo,None,1,,,,,,,,,,,,,,,,,5,001,2022-12-16_11h01.13.193,00_bat_bachelor,2022.2.4,59.95302585157003,
,,,,,,,,,,,,0,0,0,0,163,0,163,0,,,,,,,163,,,1,4057.171122105341,Y,d,go,d,1,0.24656622982001863,,,,,,,,,,,,,,,,5,001,2022-12-16_11h01.13.193,00_bat_bachelor,2022.2.4,59.95302585157003,
,,,,,,,,,,,,0,0,0,0,164,0,164,0,,,,,,,164,,,1,4058.522086809302,X,l,go,l,1,0.38215763404150493,,,,,,,,,,,,,,,,5,001,2022-12-16_11h01.13.193,00_bat_bachelor,2022.2.4,59.95302585157003,
,,,,,,,,,,,,0,0,0,0,165,0,165,0,,,,,,,165,,,1,4060.0065784306207,X,None,nogo,None,1,,,,,,,,,,,,,,,,,5,001,2022-12-16_11h01.13.193,00_bat_bachelor,2022.2.4,59.95302585157003,
,,,,,,,,,,,,0,0,0,0,166,0,166,0,,,,,,,166,,,1,4061.807852904589,Y,d,go,l,0,0.32798109664872754,,,,,,,,,,,,,,,,5,001,2022-12-16_11h01.13.193,00_bat_bachelor,2022.2.4,59.95302585157003,
,,,,,,,,,,,,0,0,0,0,167,0,167,0,,,,,,,167,,,1,4063.2420671438304,X,l,go,l,1,0.4297673771798145,,,,,,,,,,,,,,,,5,001,2022-12-16_11h01.13.193,00_bat_bachelor,2022.2.4,59.95302585157003,
,,,,,,,,,,,,0,0,0,0,168,0,168,0,,,,,,,168,,,1,4064.7766737228376,Y,d,go,d,1,0.22391554119531065,,,,,,,,,,,,,,,,5,001,2022-12-16_11h01.13.193,00_bat_bachelor,2022.2.4,59.95302585157003,
,,,,,,,,,,,,0,0,0,0,169,0,169,0,,,,,,,169,,,1,4066.111131744139,X,l,go,l,1,0.5207449199369876,,,,,,,,,,,,,,,,5,001,2022-12-16_11h01.13.193,00_bat_bachelor,2022.2.4,59.95302585157003,
,,,,,,,,,,,,0,0,0,0,170,0,170,0,,,,,,,170,,,1,4067.7460744204436,Y,d,go,d,1,0.3425968684023246,,,,,,,,,,,,,,,,5,001,2022-12-16_11h01.13.193,00_bat_bachelor,2022.2.4,59.95302585157003,
,,,,,,,,,,,,0,0,0,0,171,0,171,0,,,,,,,171,,,1,4069.1973102519405,Y,None,nogo,None,1,,4069.997726058413,,,,,,,,,,,,,,,5,001,2022-12-16_11h01.13.193,00_bat_bachelor,2022.2.4,59.95302585157003,
,,,,,,,,,,,,0,0,0,0,172,0,172,0,,,,,,,172,,,1,4070.9984509075875,X,l,go,l,1,0.35369069733133074,,,,,,,,,,,,,,,,5,001,2022-12-16_11h01.13.193,00_bat_bachelor,2022.2.4,59.95302585157003,
,,,,,,,,,,,,0,0,0,0,173,0,173,0,,,,,,,173,,,1,4072.46625936123,Y,d,go,l,0,0.3105764737119898,,,,,,,,,,,,,,,,5,001,2022-12-16_11h01.13.193,00_bat_bachelor,2022.2.4,59.95302585157003,
,,,,,,,,,,,,0,0,0,0,174,0,174,0,,,,,,,174,,,1,4073.8840047360136,Y,None,nogo,None,1,,,,,,,,,,,,,,,,,5,001,2022-12-16_11h01.13.193,00_bat_bachelor,2022.2.4,59.95302585157003,
,,,,,,,,,,,,0,0,0,0,175,0,175,0,,,,,,,175,,,1,4075.685476058643,X,l,go,l,1,0.27440286288037896,,,,,,,,,,,,,,,,5,001,2022-12-16_11h01.13.193,00_bat_bachelor,2022.2.4,59.95302585157003,
,,,,,,,,,,,,0,0,0,0,176,0,176,0,,,,,,,176,,,1,4077.0697028554714,Y,d,go,d,1,0.28286832563753705,,,,,,,,,,,,,,,,5,001,2022-12-16_11h01.13.193,00_bat_bachelor,2022.2.4,59.95302585157003,
,,,,,,,,,,,,0,0,0,0,177,0,177,0,,,,,,,177,,,1,4078.4543180163164,Y,None,nogo,None,1,,4079.254791034953,,,,,,,,,,,,,,,5,001,2022-12-16_11h01.13.193,00_bat_bachelor,2022.2.4,59.95302585157003,
,,,,,,,,,,,,0,0,0,0,178,0,178,0,,,,,,,178,,,1,4080.2555609751,X,l,go,l,1,0.2486758076265687,,,,,,,,,,,,,,,,5,001,2022-12-16_11h01.13.193,00_bat_bachelor,2022.2.4,59.95302585157003,
,,,,,,,,,,,,0,0,0,0,179,0,179,0,,,,,,,179,,,1,4081.606595012461,Y,d,go,d,1,0.2588198174635181,,,,,,,,,,,,,,,,5,001,2022-12-16_11h01.13.193,00_bat_bachelor,2022.2.4,59.95302585157003,
,,,,,,,,,,,,0,0,0,0,180,0,180,0,,,,,,,180,,,1,4082.9740988839767,X,l,go,d,0,0.34613044759316836,,,,,,,,,,,,,,,,5,001,2022-12-16_11h01.13.193,00_bat_bachelor,2022.2.4,59.95302585157003,
,,,,,,,,,,,,0,0,0,0,181,0,181,0,,,,,,,181,,,1,4084.425495200485,X,None,nogo,None,1,,4085.22601961311,,,,,,,,,,,,,,,5,001,2022-12-16_11h01.13.193,00_bat_bachelor,2022.2.4,59.95302585157003,
,,,,,,,,,,,,0,0,0,0,182,0,182,0,,,,,,,182,,,1,4086.2267371895723,Y,d,go,None,0,,4087.027399784143,,,,,,,,,,,,,,,5,001,2022-12-16_11h01.13.193,00_bat_bachelor,2022.2.4,59.95302585157003,
,,,,,,,,,,,,0,0,0,0,183,0,183,0,,,,,,,183,,,1,4088.028024754458,X,l,go,None,0,,4088.8289215310797,,,,,,,,,,,,,,,5,001,2022-12-16_11h01.13.193,00_bat_bachelor,2022.2.4,59.95302585157003,
,,,,,,,,,,,,0,0,0,0,184,0,184,0,,,,,,,184,,,1,4089.829330743596,Y,d,go,l,0,0.3398686233267654,,,,,,,,,,,,,,,,5,001,2022-12-16_11h01.13.193,00_bat_bachelor,2022.2.4,59.95302585157003,
,,,,,,,,,,,,0,0,0,0,185,0,185,0,,,,,,,185,,,1,4091.2806383327406,Y,None,nogo,d,0,0.4248723421333125,,,,,,,,,,,,,,,,5,001,2022-12-16_11h01.13.193,00_bat_bachelor,2022.2.4,59.95302585157003,
,,,,,,,,,,,,0,0,0,0,186,0,186,0,,,,,,,186,,,1,4092.8149889115157,X,l,go,l,1,0.36276076674403157,,,,,,,,,,,,,,,,5,001,2022-12-16_11h01.13.193,00_bat_bachelor,2022.2.4,59.95302585157003,
,,,,,,,,,,,,0,0,0,0,187,0,187,0,,,,,,,187,,,1,4094.2829462137743,Y,d,go,d,1,0.2380488882336067,,,,,,,,,,,,,,,,5,001,2022-12-16_11h01.13.193,00_bat_bachelor,2022.2.4,59.95302585157003,
,,,,,,,,,,,,0,0,0,0,188,0,188,0,,,,,,,188,,,1,4095.633790190346,X,l,go,l,1,0.2947781553666573,,,,,,,,,,,,,,,,5,001,2022-12-16_11h01.13.193,00_bat_bachelor,2022.2.4,59.95302585157003,
,,,,,,,,,,,,0,0,0,0,189,0,189,0,,,,,,,189,,,1,4097.034893124743,Y,d,go,d,1,0.4774256052041892,,,,,,,,,,,,,,,,5,001,2022-12-16_11h01.13.193,00_bat_bachelor,2022.2.4,59.95302585157003,
,,,,,,,,,,,,0,0,0,0,190,0,190,0,,,,,,,190,,,1,4098.619390661232,X,l,go,l,1,0.33332995032833423,,,,,,,,,,,,,,,,5,001,2022-12-16_11h01.13.193,00_bat_bachelor,2022.2.4,59.95302585157003,
,,,,,,,,,,,,0,0,0,0,191,0,191,0,,,,,,,191,,,1,4100.054033991793,Y,d,go,d,1,0.2905042118218262,,,,,,,,,,,,,,,,5,001,2022-12-16_11h01.13.193,00_bat_bachelor,2022.2.4,59.95302585157003,
,,,,,,,,,,,,0,0,0,0,192,0,192,0,,,,,,,192,,,1,4101.454886259293,X,l,go,l,1,0.3141687196184648,,,,,,,,,,,,,,,,5,001,2022-12-16_11h01.13.193,00_bat_bachelor,2022.2.4,59.95302585157003,
,,,,,,,,,,,,0,0,0,0,193,0,193,0,,,,,,,193,,,1,4102.87282121001,Y,d,go,d,1,0.46456013817805797,,,,,,,,,,,,,,,,5,001,2022-12-16_11h01.13.193,00_bat_bachelor,2022.2.4,59.95302585157003,
,,,,,,,,,,,,0,0,0,0,194,0,194,0,,,,,,,194,,,1,4104.440685518246,X,l,go,l,1,0.39956274181895424,,,,,,,,,,,,,,,,5,001,2022-12-16_11h01.13.193,00_bat_bachelor,2022.2.4,59.95302585157003,
,,,,,,,,,,,,0,0,0,0,195,0,195,0,,,,,,,195,,,1,4105.941647458574,X,None,nogo,None,1,,4106.742300356171,,,,,,,,,,,,,,,5,001,2022-12-16_11h01.13.193,00_bat_bachelor,2022.2.4,59.95302585157003,
,,,,,,,,,,,,0,0,0,0,196,0,196,0,,,,,,,196,,,1,4107.74306205388,X,None,nogo,None,1,,4108.543764406073,,,,,,,,,,,,,,,5,001,2022-12-16_11h01.13.193,00_bat_bachelor,2022.2.4,59.95302585157003,
,,,,,,,,,,,,0,0,0,0,197,0,197,0,,,,,,,197,,,1,4109.544420891558,Y,d,go,d,1,0.3198933312378358,,,,,,,,,,,,,,,,5,001,2022-12-16_11h01.13.193,00_bat_bachelor,2022.2.4,59.95302585157003,
,,,,,,,,,,,,0,0,0,0,198,0,198,0,,,,,,,198,,,1,4110.9789934341825,X,l,go,l,1,0.22969639528309926,,,,,,,,,,,,,,,,5,001,2022-12-16_11h01.13.193,00_bat_bachelor,2022.2.4,59.95302585157003,
,,,,,,,,,,,,0,0,0,0,199,0,199,0,,,,,,,199,,,1,4112.3133307280805,X,None,nogo,d,0,0.20812934407149442,,,,,,,,,,,,,,,,5,001,2022-12-16_11h01.13.193,00_bat_bachelor,2022.2.4,59.95302585157003,
,,,,,,,,,,,,0,0,0,0,200,0,200,0,,,,,,,200,,,1,4113.631229218168,Y,d,go,d,1,0.3301958866795758,,,,,,,,,,,,,,,,5,001,2022-12-16_11h01.13.193,00_bat_bachelor,2022.2.4,59.95302585157003,
,,,,,,,,,,,,0,0,0,0,201,0,201,0,,,,,,,201,,,1,4115.065278608759,X,l,go,l,1,0.20806534400617238,,,,,,,,,,,,,,,,5,001,2022-12-16_11h01.13.193,00_bat_bachelor,2022.2.4,59.95302585157003,
,,,,,,,,,,,,0,0,0,0,202,0,202,0,,,,,,,202,,,1,4116.383129098802,X,None,nogo,d,0,0.18528907949803397,,,,,,,,,,,,,,,,5,001,2022-12-16_11h01.13.193,00_bat_bachelor,2022.2.4,59.95302585157003,
,,,,,,,,,,,,0,0,0,0,203,0,203,0,,,,,,,203,,,1,4117.6841170270345,Y,d,go,d,1,0.3250661847414449,,,,,,,,,,,,,,,,5,001,2022-12-16_11h01.13.193,00_bat_bachelor,2022.2.4,59.95302585157003,
,,,,,,,,,,,,0,0,0,0,204,0,204,0,,,,,,,204,,,1,4119.118571266503,X,l,go,l,1,0.346526569177513,,,,,,,,,,,,,,,,5,001,2022-12-16_11h01.13.193,00_bat_bachelor,2022.2.4,59.95302585157003,
,,,,,,,,,,,,0,0,0,0,205,0,205,0,,,,,,,205,,,1,4120.569637400869,X,None,nogo,None,1,,,,,,,,,,,,,,,,,5,001,2022-12-16_11h01.13.193,00_bat_bachelor,2022.2.4,59.95302585157003,
,,,,,,,,,,,,0,0,0,0,206,0,206,0,,,,,,,206,,,1,4122.370911874823,Y,d,go,d,1,0.357864277146291,,,,,,,,,,,,,,,,5,001,2022-12-16_11h01.13.193,00_bat_bachelor,2022.2.4,59.95302585157003,
,,,,,,,,,,,,0,0,0,0,207,0,207,0,,,,,,,207,,,1,4123.838811964917,X,l,go,None,0,,4124.639468256457,,,,,,,,,,,,,,,5,001,2022-12-16_11h01.13.193,00_bat_bachelor,2022.2.4,59.95302585157003,
,,,,,,,,,,,,0,0,0,0,208,0,208,0,,,,,,,208,,,1,4125.64004328732,Y,d,go,d,1,0.2411354366777232,,,,,,,,,,,,,,,,5,001,2022-12-16_11h01.13.193,00_bat_bachelor,2022.2.4,59.95302585157003,
,,,,,,,,,,,,0,0,0,0,209,0,209,0,,,,,,,209,,,1,4126.9912450824195,X,l,go,l,1,0.21719941346964333,,,,,,,,,,,,,,,,5,001,2022-12-16_11h01.13.193,00_bat_bachelor,2022.2.4,59.95302585157003,
,,,,,,,,,,,,0,0,0,0,210,0,210,0,,,,,,,210,,,1,4128.308753269099,Y,d,go,d,1,0.30753162228211295,,,,,,,,,,,,,,,,5,001,2022-12-16_11h01.13.193,00_bat_bachelor,2022.2.4,59.95302585157003,
,,,,,,,,,,,,0,0,0,0,211,0,211,0,,,,,,,211,,,1,4129.726497189331,X,l,go,d,0,0.37787884200224653,,,,,,,,,,,,,,,,5,001,2022-12-16_11h01.13.193,00_bat_bachelor,2022.2.4,59.95302585157003,
,,,,,,,,,,,,0,0,0,0,212,0,212,0,,,,,,,212,,,1,4131.211086265306,Y,d,go,d,1,0.3013837375183357,,,,,,,,,,,,,,,,5,001,2022-12-16_11h01.13.193,00_bat_bachelor,2022.2.4,59.95302585157003,
,,,,,,,,,,,,0,0,0,0,213,0,213,0,,,,,,,213,,,1,4132.628874791641,X,l,go,l,1,0.35619397248956375,,,,,,,,,,,,,,,,5,001,2022-12-16_11h01.13.193,00_bat_bachelor,2022.2.4,59.95302585157003,
,,,,,,,,,,,,0,0,0,0,214,0,214,0,,,,,,,214,,,1,4134.096484457201,Y,d,go,d,1,0.1834704110660823,,,,,,,,,,,,,,,,5,001,2022-12-16_11h01.13.193,00_bat_bachelor,2022.2.4,59.95302585157003,
,,,,,,,,,,,,0,0,0,0,215,0,215,0,,,,,,,215,,,1,4135.381128127163,Y,None,nogo,l,0,0.22865445486968383,,,,,,,,,,,,,,,,5,001,2022-12-16_11h01.13.193,00_bat_bachelor,2022.2.4,59.95302585157003,
,,,,,,,,,,,,0,0,0,0,216,0,216,0,,,,,,,216,,,1,4136.715286996652,X,l,go,l,1,0.4138269980903715,,,,,,,,,,,,,,,,5,001,2022-12-16_11h01.13.193,00_bat_bachelor,2022.2.4,59.95302585157003,
,,,,,,,,,,,,0,0,0,0,217,0,217,0,,,,,,,217,,,1,4138.2327250741655,Y,d,go,d,1,0.24069228472944815,,,,,,,,,,,,,,,,5,001,2022-12-16_11h01.13.193,00_bat_bachelor,2022.2.4,59.95302585157003,
,,,,,,,,,,,,0,0,0,0,218,0,218,0,,,,,,,218,,,1,4139.583826505535,Y,None,nogo,d,0,0.3450599010975566,,,,,,,,,,,,,,,,5,001,2022-12-16_11h01.13.193,00_bat_bachelor,2022.2.4,59.95302585157003,
,,,,,,,,,,,,0,0,0,0,219,0,219,0,,,,,,,219,,,1,4141.0352257311315,X,l,go,l,1,0.4614226805861108,,,,,,,,,,,,,,,,5,001,2022-12-16_11h01.13.193,00_bat_bachelor,2022.2.4,59.95302585157003,
,,,,,,,,,,,,0,0,0,0,220,0,220,0,,,,,,,220,,,1,4142.603018766575,Y,d,go,d,1,0.3179345414537238,,,,,,,,,,,,,,,,5,001,2022-12-16_11h01.13.193,00_bat_bachelor,2022.2.4,59.95302585157003,
,,,,,,,,,,,,0,0,0,0,221,0,221,0,,,,,,,221,,,1,4144.037367308963,X,l,go,l,1,0.37138332055474166,,,,,,,,,,,,,,,,5,001,2022-12-16_11h01.13.193,00_bat_bachelor,2022.2.4,59.95302585157003,
,,,,,,,,,,,,0,0,0,0,222,0,222,0,,,,,,,222,,,1,4145.5218734757655,X,None,nogo,l,0,0.34280632314039394,,,,,,,,,,,,,,,,5,001,2022-12-16_11h01.13.193,00_bat_bachelor,2022.2.4,59.95302585157003,
,,,,,,,,,,,,0,0,0,0,223,0,223,0,,,,,,,223,,,1,4146.973023973842,Y,d,go,d,1,0.34799808576644864,,,,,,,,,,,,,,,,5,001,2022-12-16_11h01.13.193,00_bat_bachelor,2022.2.4,59.95302585157003,
,,,,,,,,,,,,0,0,0,0,224,0,224,0,,,,,,,224,,,1,4148.423996532365,X,l,go,l,1,0.31999563437420875,,,,,,,,,,,,,,,,5,001,2022-12-16_11h01.13.193,00_bat_bachelor,2022.2.4,59.95302585157003,
,,,,,,,,,,,,0,0,0,0,225,0,225,0,,,,,,,225,,,1,4149.858449317282,Y,d,go,d,1,0.2790554734528996,,,,,,,,,,,,,,,,5,001,2022-12-16_11h01.13.193,00_bat_bachelor,2022.2.4,59.95302585157003,
,,,,,,,,,,,,0,0,0,0,226,0,226,0,,,,,,,226,,,1,4151.242927750718,X,l,go,l,1,0.41380081624083687,,,,,,,,,,,,,,,,5,001,2022-12-16_11h01.13.193,00_bat_bachelor,2022.2.4,59.95302585157003,
,,,,,,,,,,,,0,0,0,0,227,0,227,0,,,,,,,227,,,1,4152.760693101285,Y,d,go,d,1,0.25582005697651766,,,,,,,,,,,,,,,,5,001,2022-12-16_11h01.13.193,00_bat_bachelor,2022.2.4,59.95302585157003,
,,,,,,,,,,,,0,0,0,0,228,0,228,0,,,,,,,228,,,1,4154.128454912439,X,l,go,l,1,0.2961847021797439,,,,,,,,,,,,,,,,5,001,2022-12-16_11h01.13.193,00_bat_bachelor,2022.2.4,59.95302585157003,
,,,,,,,,,,,,0,0,0,0,229,0,229,0,,,,,,,229,,,1,4155.529341604211,Y,d,go,d,1,0.31871466343000066,,,,,,,,,,,,,,,,5,001,2022-12-16_11h01.13.193,00_bat_bachelor,2022.2.4,59.95302585157003,
,,,,,,,,,,,,0,0,0,0,230,0,230,0,,,,,,,230,,,1,4156.963706631475,X,l,go,l,1,0.2297681529307738,,,,,,,,,,,,,,,,5,001,2022-12-16_11h01.13.193,00_bat_bachelor,2022.2.4,59.95302585157003,
,,,,,,,,,,,,0,0,0,0,231,0,231,0,,,,,,,231,,,1,4158.298198592194,X,None,nogo,l,0,0.22258753990172409,,,,,,,,,,,,,,,,5,001,2022-12-16_11h01.13.193,00_bat_bachelor,2022.2.4,59.95302585157003,
,,,,,,,,,,,,0,0,0,0,232,0,232,0,,,,,,,232,,,1,4159.6323986738425,X,None,nogo,None,1,,,,,,,,,,,,,,,,,5,001,2022-12-16_11h01.13.193,00_bat_bachelor,2022.2.4,59.95302585157003,
,,,,,,,,,,,,0,0,0,0,233,0,233,0,,,,,,,233,,,1,4161.434051329998,Y,d,go,d,1,0.33432922401698306,,,,,,,,,,,,,,,,5,001,2022-12-16_11h01.13.193,00_bat_bachelor,2022.2.4,59.95302585157003,
,,,,,,,,,,,,0,0,0,0,234,0,234,0,,,,,,,234,,,1,4162.885143646199,X,l,go,l,1,0.2283955455495743,,,,,,,,,,,,,,,,5,001,2022-12-16_11h01.13.193,00_bat_bachelor,2022.2.4,59.95302585157003,
,,,,,,,,,,,,0,0,0,0,235,0,235,0,,,,,,,235,,,1,4164.219498879524,X,None,nogo,l,0,0.4134231188945705,,,,,,,,,,,,,,,,5,001,2022-12-16_11h01.13.193,00_bat_bachelor,2022.2.4,59.95302585157003,
,,,,,,,,,,,,0,0,0,0,236,0,236,0,,,,,,,236,,,1,4165.7373253210535,Y,d,go,d,1,0.23912767715228256,,,,,,,,,,,,,,,,5,001,2022-12-16_11h01.13.193,00_bat_bachelor,2022.2.4,59.95302585157003,
,,,,,,,,,,,,0,0,0,0,237,0,237,0,,,,,,,237,,,1,4167.088357903864,X,l,go,l,1,0.37733775057131425,,,,,,,,,,,,,,,,5,001,2022-12-16_11h01.13.193,00_bat_bachelor,2022.2.4,59.95302585157003,
,,,,,,,,,,,,0,0,0,0,238,0,238,0,,,,,,,238,,,1,4168.572640070444,X,None,nogo,None,1,,4169.373127149709,,,,,,,,,,,,,,,5,001,2022-12-16_11h01.13.193,00_bat_bachelor,2022.2.4,59.95302585157003,
,,,,,,,,,,,,0,0,0,0,239,0,239,0,,,,,,,239,,,1,4170.373913089861,Y,d,go,d,1,0.27463704491674434,,,,,,,,,,,,,,,,5,001,2022-12-16_11h01.13.193,00_bat_bachelor,2022.2.4,59.95302585157003,
,,,,,,,,,,,,0,0,0,0,240,0,240,0,,,,,,,240,,,1,4171.758555887092,X,l,go,l,1,0.1861550197354518,,,,,,,,,,,,,,,,5,001,2022-12-16_11h01.13.193,00_bat_bachelor,2022.2.4,59.95302585157003,
,,,,,,,,,,,,0,0,0,0,241,0,241,0,,,,,,,241,,,1,4173.059640785112,Y,d,go,l,0,0.4211802173376782,,,,,,,,,,,,,,,,5,001,2022-12-16_11h01.13.193,00_bat_bachelor,2022.2.4,59.95302585157003,
,,,,,,,,,,,,0,0,0,0,242,0,242,0,,,,,,,242,,,1,4174.594073303349,X,l,go,l,1,0.389777035365114,,,,,,,,,,,,,,,,5,001,2022-12-16_11h01.13.193,00_bat_bachelor,2022.2.4,59.95302585157003,
,,,,,,,,,,,,0,0,0,0,243,0,243,0,,,,,,,243,,,1,4176.0951166982995,Y,d,go,d,1,0.24880914109235164,,,,,,,,,,,,,,,,5,001,2022-12-16_11h01.13.193,00_bat_bachelor,2022.2.4,59.95302585157003,
,,,,,,,,,,,,0,0,0,0,244,0,244,0,,,,,,,244,,,1,4177.4460649174,Y,None,nogo,l,0,0.17963961948407814,,,,,,,,,,,,,,,,5,001,2022-12-16_11h01.13.193,00_bat_bachelor,2022.2.4,59.95302585157003,
,,,,,,,,,,,,0,0,0,0,245,0,245,0,,,,,,,245,,,1,4178.73062179939,X,l,go,None,0,,,,,,,,,,,,,,,,,5,001,2022-12-16_11h01.13.193,00_bat_bachelor,2022.2.4,59.95302585157003,
,,,,,,,,,,,,0,0,0,0,246,0,246,0,,,,,,,246,,,1,4180.531947182506,Y,d,go,d,1,0.18090846919221804,,,,,,,,,,,,,,,,5,001,2022-12-16_11h01.13.193,00_bat_bachelor,2022.2.4,59.95302585157003,
,,,,,,,,,,,,0,0,0,0,247,0,247,0,,,,,,,247,,,1,4181.815994973091,Y,None,nogo,l,0,0.2408862243173644,,,,,,,,,,,,,,,,5,001,2022-12-16_11h01.13.193,00_bat_bachelor,2022.2.4,59.95302585157003,
,,,,,,,,,,,,0,0,0,0,248,0,248,0,,,,,,,248,,,1,4183.167297131935,X,l,go,l,1,0.441001327460981,,,,,,,,,,,,,,,,5,001,2022-12-16_11h01.13.193,00_bat_bachelor,2022.2.4,59.95302585157003,
,,,,,,,,,,,,0,0,0,0,249,0,249,0,,,,,,,249,,,1,4184.7184646966925,Y,d,go,d,1,0.18639356542553287,,,,,,,,,,,,,,,,5,001,2022-12-16_11h01.13.193,00_bat_bachelor,2022.2.4,59.95302585157003,
,,,,,,,,,,,,1,0,1,0,0,0,0,0,,,,,,,0,,,0.2,4231.070529522942,X,l,go,None,0,,,,,,,,,,4185.023165598221,space,45.82197721203556,,,,,5,001,2022-12-16_11h01.13.193,00_bat_bachelor,2022.2.4,59.95302585157003,
,,,,,,,,,,,,1,0,1,0,1,0,1,0,,,,,,,1,,,0.2,4232.071342614639,Y,d,go,d,1,0.41696009202860296,,,,,,,,,,,,,,,,5,001,2022-12-16_11h01.13.193,00_bat_bachelor,2022.2.4,59.95302585157003,
,,,,,,,,,,,,1,0,1,0,2,0,2,0,,,,,,,2,,,0.2,4232.788365370536,X,l,go,l,1,0.29239560759742744,,,,,,,,,,,,,,,,5,001,2022-12-16_11h01.13.193,00_bat_bachelor,2022.2.4,59.95302585157003,
,,,,,,,,,,,,1,0,1,0,3,0,3,0,,,,,,,3,,,0.2,4233.388856134654,Y,d,go,d,1,0.2356411283253692,,,,,,,,,,,,,,,,5,001,2022-12-16_11h01.13.193,00_bat_bachelor,2022.2.4,59.95302585157003,
,,,,,,,,,,,,1,0,1,0,4,0,4,0,,,,,,,4,,,0.2,4233.939066607578,Y,None,nogo,l,0,0.2464682903373614,,,,,,,,,,,,,,,,5,001,2022-12-16_11h01.13.193,00_bat_bachelor,2022.2.4,59.95302585157003,
,,,,,,,,,,,,1,0,1,0,5,0,5,0,,,,,,,5,,,0.2,4234.489783262819,X,l,go,None,0,,,,,,,,,,,,,,,,,5,001,2022-12-16_11h01.13.193,00_bat_bachelor,2022.2.4,59.95302585157003,
,,,,,,,,,,,,1,0,1,0,6,0,6,0,,,,,,,6,,,0.2,4235.490534778699,Y,d,go,d,1,0.4056674750172533,,,,,,,,,,,,,,,,5,001,2022-12-16_11h01.13.193,00_bat_bachelor,2022.2.4,59.95302585157003,
,,,,,,,,,,,,1,0,1,0,7,0,7,0,,,,,,,7,,,0.2,4236.207777656033,X,l,go,l,1,0.2653003085870296,,,,,,,,,,,,,,,,5,001,2022-12-16_11h01.13.193,00_bat_bachelor,2022.2.4,59.95302585157003,
,,,,,,,,,,,,1,0,1,0,8,0,8,0,,,,,,,8,,,0.2,4236.774866690786,X,None,nogo,l,0,0.3381052276818082,,,,,,,,,,,,,,,,5,001,2022-12-16_11h01.13.193,00_bat_bachelor,2022.2.4,59.95302585157003,
,,,,,,,,,,,,1,0,1,0,9,0,9,0,,,,,,,9,,,0.2,4237.42512477588,Y,d,go,d,1,0.455172977555776,,,,,,,,,,,,,,,,5,001,2022-12-16_11h01.13.193,00_bat_bachelor,2022.2.4,59.95302585157003,
,,,,,,,,,,,,1,0,1,0,10,0,10,0,,,,,,,10,,,0.2,4238.192746853572,X,l,go,l,1,0.3928563110821415,,,,,,,,,,,,,,,,5,001,2022-12-16_11h01.13.193,00_bat_bachelor,2022.2.4,59.95302585157003,
,,,,,,,,,,,,1,0,1,0,11,0,11,0,,,,,,,11,,,0.2,4238.893020502321,X,None,nogo,None,1,,4239.693863460721,,,,,,,,,,,,,,,5,001,2022-12-16_11h01.13.193,00_bat_bachelor,2022.2.4,59.95302585157003,
,,,,,,,,,,,,1,0,1,0,12,0,12,0,,,,,,,12,,,0.2,4239.893757957587,Y,d,go,d,1,0.33895419820328243,,,,,,,,,,,,,,,,5,001,2022-12-16_11h01.13.193,00_bat_bachelor,2022.2.4,59.95302585157003,
,,,,,,,,,,,,1,0,1,0,13,0,13,0,,,,,,,13,,,0.2,4240.5441537397855,X,l,go,l,1,0.3613454926380655,,,,,,,,,,,,,,,,5,001,2022-12-16_11h01.13.193,00_bat_bachelor,2022.2.4,59.95302585157003,
,,,,,,,,,,,,1,0,1,0,14,0,14,0,,,,,,,14,,,0.2,4241.211328204925,X,None,nogo,d,0,0.2686321906221565,,,,,,,,,,,,,,,,5,001,2022-12-16_11h01.13.193,00_bat_bachelor,2022.2.4,59.95302585157003,
,,,,,,,,,,,,1,0,1,0,15,0,15,0,,,,,,,15,,,0.2,4241.795381134914,Y,d,go,None,0,,,,,,,,,,,,,,,,,5,001,2022-12-16_11h01.13.193,00_bat_bachelor,2022.2.4,59.95302585157003,
,,,,,,,,,,,,1,0,1,0,16,0,16,0,,,,,,,16,,,0.2,4242.796095317433,X,l,go,l,1,0.26827000845514704,,,,,,,,,,,,,,,,5,001,2022-12-16_11h01.13.193,00_bat_bachelor,2022.2.4,59.95302585157003,
,,,,,,,,,,,,1,0,1,0,17,0,17,0,,,,,,,17,,,0.2,4243.379637216625,Y,d,go,d,1,0.03695342049468309,,,,,,,,,,,,,,,,5,001,2022-12-16_11h01.13.193,00_bat_bachelor,2022.2.4,59.95302585157003,
,,,,,,,,,,,,1,0,1,0,18,0,18,0,,,,,,,18,,,0.2,4243.730196102013,X,l,go,None,0,,4244.530794211678,,,,,,,,,,,,,,,5,001,2022-12-16_11h01.13.193,00_bat_bachelor,2022.2.4,59.95302585157003,
,,,,,,,,,,,,1,0,1,0,19,0,19,0,,,,,,,19,,,0.2,4244.730944223949,Y,d,go,None,0,,,,,,,,,,,,,,,,,5,001,2022-12-16_11h01.13.193,00_bat_bachelor,2022.2.4,59.95302585157003,
,,,,,,,,,,,,1,0,1,0,20,0,20,0,,,,,,,20,,,0.2,4245.732102528098,Y,None,nogo,None,1,,4246.532529001241,,,,,,,,,,,,,,,5,001,2022-12-16_11h01.13.193,00_bat_bachelor,2022.2.4,59.95302585157003,
,,,,,,,,,,,,1,0,1,0,21,0,21,0,,,,,,,21,,,0.2,4246.732693558981,Y,None,nogo,None,1,,4247.533490456728,,,,,,,,,,,,,,,5,001,2022-12-16_11h01.13.193,00_bat_bachelor,2022.2.4,59.95302585157003,
,,,,,,,,,,,,1,0,1,0,22,0,22,0,,,,,,,22,,,0.2,4247.733430529392,X,l,go,l,1,0.3389512891153572,,,,,,,,,,,,,,,,5,001,2022-12-16_11h01.13.193,00_bat_bachelor,2022.2.4,59.95302585157003,
,,,,,,,,,,,,1,0,1,0,23,0,23,0,,,,,,,23,,,0.2,4248.384109948238,Y,d,go,d,1,0.2804048080870416,,,,,,,,,,,,,,,,5,001,2022-12-16_11h01.13.193,00_bat_bachelor,2022.2.4,59.95302585157003,
,,,,,,,,,,,,1,0,1,0,24,0,24,0,,,,,,,24,,,0.2,4248.967939362861,Y,None,nogo,None,1,,4249.768389108751,,,,,,,,,,,,,,,5,001,2022-12-16_11h01.13.193,00_bat_bachelor,2022.2.4,59.95302585157003,
,,,,,,,,,,,,1,0,1,0,25,0,25,0,,,,,,,25,,,0.2,4249.968642878695,X,l,go,l,1,0.28008141384634655,,,,,,,,,,,,,,,,5,001,2022-12-16_11h01.13.193,00_bat_bachelor,2022.2.4,59.95302585157003,
,,,,,,,,,,,,1,0,1,0,26,0,26,0,,,,,,,26,,,0.2,4250.552473263015,Y,d,go,d,1,0.5915580795117421,,,,,,,,,,,,,,,,5,001,2022-12-16_11h01.13.193,00_bat_bachelor,2022.2.4,59.95302585157003,
,,,,,,,,,,,,1,0,1,0,27,0,27,0,,,,,,,27,,,0.2,4251.452914863432,X,l,go,l,1,0.3630046457546996,,,,,,,,,,,,,,,,5,001,2022-12-16_11h01.13.193,00_bat_bachelor,2022.2.4,59.95302585157003,
,,,,,,,,,,,,1,0,1,0,28,0,28,0,,,,,,,28,,,0.2,4252.120288116654,X,None,nogo,d,0,0.2721245576394722,,,,,,,,,,,,,,,,5,001,2022-12-16_11h01.13.193,00_bat_bachelor,2022.2.4,59.95302585157003,
,,,,,,,,,,,,1,0,1,0,29,0,29,0,,,,,,,29,,,0.2,4252.703928925024,Y,d,go,None,0,,4253.504710792447,,,,,,,,,,,,,,,5,001,2022-12-16_11h01.13.193,00_bat_bachelor,2022.2.4,59.95302585157003,
,,,,,,,,,,,,1,0,1,0,30,0,30,0,,,,,,,30,,,0.2,4253.7046605621,X,l,go,l,1,0.35140948301705066,,,,,,,,,,,,,,,,5,001,2022-12-16_11h01.13.193,00_bat_bachelor,2022.2.4,59.95302585157003,
,,,,,,,,,,,,1,0,1,0,31,0,31,0,,,,,,,31,,,0.2,4254.371840360574,Y,d,go,d,1,0.5637214464659337,,,,,,,,,,,,,,,,5,001,2022-12-16_11h01.13.193,00_bat_bachelor,2022.2.4,59.95302585157003,
,,,,,,,,,,,,1,0,1,0,32,0,32,0,,,,,,,32,,,0.2,4255.2560361270735,X,l,go,l,1,0.2715902540803654,,,,,,,,,,,,,,,,5,001,2022-12-16_11h01.13.193,00_bat_bachelor,2022.2.4,59.95302585157003,
,,,,,,,,,,,,1,0,1,0,33,0,33,0,,,,,,,33,,,0.2,4255.85646676991,Y,d,go,d,1,0.27964359523321036,,,,,,,,,,,,,,,,5,001,2022-12-16_11h01.13.193,00_bat_bachelor,2022.2.4,59.95302585157003,
,,,,,,,,,,,,1,0,1,0,34,0,34,0,,,,,,,34,,,0.2,4256.440162366227,Y,None,nogo,None,1,,4257.240982536721,,,,,,,,,,,,,,,5,001,2022-12-16_11h01.13.193,00_bat_bachelor,2022.2.4,59.95302585157003,
,,,,,,,,,,,,1,0,1,0,35,0,35,0,,,,,,,35,,,0.2,4257.440804791084,X,l,go,l,1,0.24825253449671436,,,,,,,,,,,,,,,,5,001,2022-12-16_11h01.13.193,00_bat_bachelor,2022.2.4,59.95302585157003,
,,,,,,,,,,,,1,0,1,0,36,0,36,0,,,,,,,36,,,0.2,4257.991221324832,Y,d,go,d,1,0.38569654656748753,,,,,,,,,,,,,,,,5,001,2022-12-16_11h01.13.193,00_bat_bachelor,2022.2.4,59.95302585157003,
,,,,,,,,,,,,1,0,1,0,37,0,37,0,,,,,,,37,,,0.2,4258.691788792043,Y,None,nogo,None,1,,4259.492255992489,,,,,,,,,,,,,,,5,001,2022-12-16_11h01.13.193,00_bat_bachelor,2022.2.4,59.95302585157003,
,,,,,,,,,,,,1,0,1,0,38,0,38,0,,,,,,,38,,,0.2,4259.692488913934,X,l,go,l,1,0.25151217401435133,,,,,,,,,,,,,,,,5,001,2022-12-16_11h01.13.193,00_bat_bachelor,2022.2.4,59.95302585157003,
,,,,,,,,,,,,1,0,1,0,39,0,39,0,,,,,,,39,,,0.2,4260.259609948713,Y,d,go,d,1,0.37329750423668884,,,,,,,,,,,,,,,,5,001,2022-12-16_11h01.13.193,00_bat_bachelor,2022.2.4,59.95302585157003,
,,,,,,,,,,,,1,0,1,0,40,0,40,0,,,,,,,40,,,0.2,4260.943450126986,Y,None,nogo,None,1,,,,,,,,,,,,,,,,,5,001,2022-12-16_11h01.13.193,00_bat_bachelor,2022.2.4,59.95302585157003,
,,,,,,,,,,,,1,0,1,0,41,0,41,0,,,,,,,41,,,0.2,4261.944347582408,X,l,go,l,1,0.2554733899742132,,,,,,,,,,,,,,,,5,001,2022-12-16_11h01.13.193,00_bat_bachelor,2022.2.4,59.95302585157003,
,,,,,,,,,,,,1,0,1,0,42,0,42,0,,,,,,,42,,,0.2,4262.511148616875,Y,d,go,d,1,0.08951395632175263,,,,,,,,,,,,,,,,5,001,2022-12-16_11h01.13.193,00_bat_bachelor,2022.2.4,59.95302585157003,
,,,,,,,,,,,,1,0,1,0,43,0,43,0,,,,,,,43,,,0.2,4262.911810823585,X,l,go,None,0,,4263.712390993838,,,,,,,,,,,,,,,5,001,2022-12-16_11h01.13.193,00_bat_bachelor,2022.2.4,59.95302585157003,
,,,,,,,,,,,,1,0,1,0,44,0,44,0,,,,,,,44,,,0.2,4263.91262052134,Y,d,go,d,1,0.6073971251753392,,,,,,,,,,,,,,,,5,001,2022-12-16_11h01.13.193,00_bat_bachelor,2022.2.4,59.95302585157003,
,,,,,,,,,,,,1,0,1,0,45,0,45,0,,,,,,,45,,,0.2,4264.829587228698,X,l,go,l,1,0.4595511636289302,,,,,,,,,,,,,,,,5,001,2022-12-16_11h01.13.193,00_bat_bachelor,2022.2.4,59.95302585157003,
,,,,,,,,,,,,1,0,1,0,46,0,46,0,,,,,,,46,,,0.2,4265.597068700197,Y,d,go,d,1,0.331912736830418,,,,,,,,,,,,,,,,5,001,2022-12-16_11h01.13.193,00_bat_bachelor,2022.2.4,59.95302585157003,
,,,,,,,,,,,,1,0,1,0,47,0,47,0,,,,,,,47,,,0.2,4266.230917072404,X,l,go,l,1,0.5457335502433125,,,,,,,,,,,,,,,,5,001,2022-12-16_11h01.13.193,00_bat_bachelor,2022.2.4,59.95302585157003,
,,,,,,,,,,,,1,0,1,0,48,0,48,0,,,,,,,48,,,0.2,4267.0815239578515,X,None,nogo,l,0,0.46314680347859394,,,,,,,,,,,,,,,,5,001,2022-12-16_11h01.13.193,00_bat_bachelor,2022.2.4,59.95302585157003,
,,,,,,,,,,,,1,0,1,0,49,0,49,0,,,,,,,49,,,0.2,4267.848593792587,Y,d,go,d,1,0.5122663662623381,,,,,,,,,,,,,,,,5,001,2022-12-16_11h01.13.193,00_bat_bachelor,2022.2.4,59.95302585157003,
,,,,,,,,,,,,1,0,1,0,50,0,50,0,,,,,,,50,,,0.2,4268.6660772519535,X,l,go,None,0,,4269.466698149525,,,,,,,,,,,,,,,5,001,2022-12-16_11h01.13.193,00_bat_bachelor,2022.2.4,59.95302585157003,
,,,,,,,,,,,,1,0,1,0,51,0,51,0,,,,,,,51,,,0.2,4269.66668234345,Y,d,go,d,1,0.4850430671358481,,,,,,,,,,,,,,,,5,001,2022-12-16_11h01.13.193,00_bat_bachelor,2022.2.4,59.95302585157003,
,,,,,,,,,,,,1,0,1,0,52,0,52,0,,,,,,,52,,,0.2,4270.467471483615,Y,None,nogo,l,0,0.3252431546134176,,,,,,,,,,,,,,,,5,001,2022-12-16_11h01.13.193,00_bat_bachelor,2022.2.4,59.95302585157003,
,,,,,,,,,,,,1,0,1,0,53,0,53,0,,,,,,,53,,,0.2,4271.101230643617,Y,None,nogo,None,1,,4271.9018723897025,,,,,,,,,,,,,,,5,001,2022-12-16_11h01.13.193,00_bat_bachelor,2022.2.4,59.95302585157003,
,,,,,,,,,,,,1,0,1,0,54,0,54,0,,,,,,,54,,,0.2,4272.101821189644,X,l,go,l,1,0.30631610595446546,,,,,,,,,,,,,,,,5,001,2022-12-16_11h01.13.193,00_bat_bachelor,2022.2.4,59.95302585157003,
,,,,,,,,,,,,1,0,1,0,55,0,55,0,,,,,,,55,,,0.2,4272.719160454944,Y,d,go,d,1,0.3937479482992785,,,,,,,,,,,,,,,,5,001,2022-12-16_11h01.13.193,00_bat_bachelor,2022.2.4,59.95302585157003,
,,,,,,,,,,,,1,0,1,0,56,0,56,0,,,,,,,56,,,0.2,4273.419739073695,X,l,go,l,1,0.5731139404233545,,,,,,,,,,,,,,,,5,001,2022-12-16_11h01.13.193,00_bat_bachelor,2022.2.4,59.95302585157003,
,,,,,,,,,,,,1,0,1,0,57,0,57,0,,,,,,,57,,,0.2,4274.303718597555,X,None,nogo,None,1,,4275.10426822232,,,,,,,,,,,,,,,5,001,2022-12-16_11h01.13.193,00_bat_bachelor,2022.2.4,59.95302585157003,
,,,,,,,,,,,,1,0,1,0,58,0,58,0,,,,,,,58,,,0.2,4275.304536052892,Y,d,go,d,1,0.49627847196825314,,,,,,,,,,,,,,,,5,001,2022-12-16_11h01.13.193,00_bat_bachelor,2022.2.4,59.95302585157003,
,,,,,,,,,,,,1,0,1,0,59,0,59,0,,,,,,,59,,,0.2,4276.104860707754,X,l,go,l,1,0.303828830801649,,,,,,,,,,,,,,,,5,001,2022-12-16_11h01.13.193,00_bat_bachelor,2022.2.4,59.95302585157003,
,,,,,,,,,,,,1,0,1,0,60,0,60,0,,,,,,,60,,,0.2,4276.721817912068,Y,d,go,d,1,0.6157021029212046,,,,,,,,,,,,,,,,5,001,2022-12-16_11h01.13.193,00_bat_bachelor,2022.2.4,59.95302585157003,
,,,,,,,,,,,,1,0,1,0,61,0,61,0,,,,,,,61,,,0.2,4277.639197710741,Y,None,nogo,l,0,0.3212121203978313,,,,,,,,,,,,,,,,5,001,2022-12-16_11h01.13.193,00_bat_bachelor,2022.2.4,59.95302585157003,
,,,,,,,,,,,,1,0,1,0,62,0,62,0,,,,,,,62,,,0.2,4278.272950082872,X,l,go,None,0,,,,,,,,,,,,,,,,,5,001,2022-12-16_11h01.13.193,00_bat_bachelor,2022.2.4,59.95302585157003,
,,,,,,,,,,,,1,0,1,0,63,0,63,0,,,,,,,63,,,0.2,4279.273971174771,Y,d,go,None,0,,,,,,,,,,,,,,,,,5,001,2022-12-16_11h01.13.193,00_bat_bachelor,2022.2.4,59.95302585157003,
,,,,,,,,,,,,1,0,1,0,64,0,64,0,,,,,,,64,,,0.2,4280.2747542058205,X,l,go,None,0,,4281.0750890425115,,,,,,,,,,,,,,,5,001,2022-12-16_11h01.13.193,00_bat_bachelor,2022.2.4,59.95302585157003,
,,,,,,,,,,,,1,0,1,0,65,0,65,0,,,,,,,65,,,0.2,4281.275591539976,Y,d,go,d,1,0.2847131759044714,,,,,,,,,,,,,,,,5,001,2022-12-16_11h01.13.193,00_bat_bachelor,2022.2.4,59.95302585157003,
,,,,,,,,,,,,1,0,1,0,66,0,66,0,,,,,,,66,,,0.2,4281.875962061546,Y,None,nogo,None,1,,,,,,,,,,,,,,,,,5,001,2022-12-16_11h01.13.193,00_bat_bachelor,2022.2.4,59.95302585157003,
,,,,,,,,,,,,1,0,1,0,67,0,67,0,,,,,,,67,,,0.2,4282.8767615774705,X,l,go,l,1,0.23563579499023035,,,,,,,,,,,,,,,,5,001,2022-12-16_11h01.13.193,00_bat_bachelor,2022.2.4,59.95302585157003,
,,,,,,,,,,,,1,0,1,0,68,0,68,0,,,,,,,68,,,0.2,4283.4271301111585,Y,d,go,None,0,,4284.227703008684,,,,,,,,,,,,,,,5,001,2022-12-16_11h01.13.193,00_bat_bachelor,2022.2.4,59.95302585157003,
,,,,,,,,,,,,1,0,1,0,69,0,69,0,,,,,,,69,,,0.2,4284.427714838996,X,l,go,l,1,0.46057419493445195,,,,,,,,,,,,,,,,5,001,2022-12-16_11h01.13.193,00_bat_bachelor,2022.2.4,59.95302585157003,
,,,,,,,,,,,,1,0,1,0,70,0,70,0,,,,,,,70,,,0.2,4285.194867582904,X,None,nogo,d,0,0.2691752214450389,,,,,,,,,,,,,,,,5,001,2022-12-16_11h01.13.193,00_bat_bachelor,2022.2.4,59.95302585157003,
,,,,,,,,,,,,1,0,1,0,71,0,71,0,,,,,,,71,,,0.2,4285.778696027832,Y,d,go,None,0,,4286.5795040771045,,,,,,,,,,,,,,,5,001,2022-12-16_11h01.13.193,00_bat_bachelor,2022.2.4,59.95302585157003,
,,,,,,,,,,,,1,0,1,0,72,0,72,0,,,,,,,72,,,0.2,4286.779705968205,X,l,go,None,0,,,,,,,,,,,,,,,,,5,001,2022-12-16_11h01.13.193,00_bat_bachelor,2022.2.4,59.95302585157003,
,,,,,,,,,,,,1,0,1,0,73,0,73,0,,,,,,,73,,,0.2,4287.780459908332,Y,d,go,None,0,,,,,,,,,,,,,,,,,5,001,2022-12-16_11h01.13.193,00_bat_bachelor,2022.2.4,59.95302585157003,
,,,,,,,,,,,,1,0,1,0,74,0,74,0,,,,,,,74,,,0.2,4288.780859908715,X,l,go,l,1,0.23561106767738238,,,,,,,,,,,,,,,,5,001,2022-12-16_11h01.13.193,00_bat_bachelor,2022.2.4,59.95302585157003,
,,,,,,,,,,,,1,0,1,0,75,0,75,0,,,,,,,75,,,0.2,4289.331441775954,X,None,nogo,d,0,0.2773037141887471,,,,,,,,,,,,,,,,5,001,2022-12-16_11h01.13.193,00_bat_bachelor,2022.2.4,59.95302585157003,
,,,,,,,,,,,,1,0,1,0,76,0,76,0,,,,,,,76,,,0.2,4289.915208645049,Y,d,go,None,0,,,,,,,,,,,,,,,,,5,001,2022-12-16_11h01.13.193,00_bat_bachelor,2022.2.4,59.95302585157003,
,,,,,,,,,,,,1,0,1,0,77,0,77,0,,,,,,,77,,,0.2,4290.915969857917,X,l,go,l,1,0.29189330407825764,,,,,,,,,,,,,,,,5,001,2022-12-16_11h01.13.193,00_bat_bachelor,2022.2.4,59.95302585157003,
,,,,,,,,,,,,1,0,1,0,78,0,78,0,,,,,,,78,,,0.2,4291.516313227941,Y,d,go,None,0,,,,,,,,,,,,,,,,,5,001,2022-12-16_11h01.13.193,00_bat_bachelor,2022.2.4,59.95302585157003,
,,,,,,,,,,,,1,0,1,0,79,0,79,0,,,,,,,79,,,0.2,4292.517383774437,X,l,go,l,1,0.2752974091999931,,,,,,,,,,,,,,,,5,001,2022-12-16_11h01.13.193,00_bat_bachelor,2022.2.4,59.95302585157003,
,,,,,,,,,,,,1,0,1,0,80,0,80,0,,,,,,,80,,,0.2,4293.102261432505,X,None,nogo,None,1,,,,,,,,,,,,,,,,,5,001,2022-12-16_11h01.13.193,00_bat_bachelor,2022.2.4,59.95302585157003,
,,,,,,,,,,,,1,0,1,0,81,0,81,0,,,,,,,81,,,0.2,4294.101941917033,Y,d,go,d,1,0.5629844760405831,,,,,,,,,,,,,,,,5,001,2022-12-16_11h01.13.193,00_bat_bachelor,2022.2.4,59.95302585157003,
,,,,,,,,,,,,1,0,1,0,82,0,82,0,,,,,,,82,,,0.2,4294.969183485271,X,l,go,l,1,0.28745063311362173,,,,,,,,,,,,,,,,5,001,2022-12-16_11h01.13.193,00_bat_bachelor,2022.2.4,59.95302585157003,
,,,,,,,,,,,,1,0,1,0,83,0,83,0,,,,,,,83,,,0.2,4295.569828431355,X,None,nogo,None,1,,,,,,,,,,,,,,,,,5,001,2022-12-16_11h01.13.193,00_bat_bachelor,2022.2.4,59.95302585157003,
,,,,,,,,,,,,1,0,1,0,84,0,84,0,,,,,,,84,,,0.2,4296.570252674195,Y,d,go,d,1,0.12617920400225557,,,,,,,,,,,,,,,,5,001,2022-12-16_11h01.13.193,00_bat_bachelor,2022.2.4,59.95302585157003,
,,,,,,,,,,,,1,0,1,0,85,0,85,0,,,,,,,85,,,0.2,4297.004163397985,X,l,go,None,0,,,,,,,,,,,,,,,,,5,001,2022-12-16_11h01.13.193,00_bat_bachelor,2022.2.4,59.95302585157003,
,,,,,,,,,,,,1,0,1,0,86,0,86,0,,,,,,,86,,,0.2,4298.004935277524,X,None,nogo,d,0,0.2279620905756019,,,,,,,,,,,,,,,,5,001,2022-12-16_11h01.13.193,00_bat_bachelor,2022.2.4,59.95302585157003,
,,,,,,,,,,,,1,0,1,0,87,0,87,0,,,,,,,87,,,0.2,4298.538493613087,Y,d,go,None,0,,,,,,,,,,,,,,,,,5,001,2022-12-16_11h01.13.193,00_bat_bachelor,2022.2.4,59.95302585157003,
,,,,,,,,,,,,1,0,1,0,88,0,88,0,,,,,,,88,,,0.2,4299.539441007946,X,l,go,l,1,0.18196156111662276,,,,,,,,,,,,,,,,5,001,2022-12-16_11h01.13.193,00_bat_bachelor,2022.2.4,59.95302585157003,
,,,,,,,,,,,,1,0,1,0,89,0,89,0,,,,,,,89,,,0.2,4300.0231762649055,X,None,nogo,None,1,,,,,,,,,,,,,,,,,5,001,2022-12-16_11h01.13.193,00_bat_bachelor,2022.2.4,59.95302585157003,
,,,,,,,,,,,,1,0,1,0,90,0,90,0,,,,,,,90,,,0.2,4301.023903053487,Y,d,go,d,1,0.12093216860375833,,,,,,,,,,,,,,,,5,001,2022-12-16_11h01.13.193,00_bat_bachelor,2022.2.4,59.95302585157003,
,,,,,,,,,,,,1,0,1,0,91,0,91,0,,,,,,,91,,,0.2,4301.457558261885,X,l,go,l,1,0.647501891333377,,,,,,,,,,,,,,,,5,001,2022-12-16_11h01.13.193,00_bat_bachelor,2022.2.4,59.95302585157003,
,,,,,,,,,,,,1,0,1,0,92,0,92,0,,,,,,,92,,,0.2,4302.408089607852,Y,d,go,d,1,0.3204227863025153,,,,,,,,,,,,,,,,5,001,2022-12-16_11h01.13.193,00_bat_bachelor,2022.2.4,59.95302585157003,
,,,,,,,,,,,,1,0,1,0,93,0,93,0,,,,,,,93,,,0.2,4303.041899192147,Y,None,nogo,l,0,0.3436092330230167,,,,,,,,,,,,,,,,5,001,2022-12-16_11h01.13.193,00_bat_bachelor,2022.2.4,59.95302585157003,
,,,,,,,,,,,,1,0,1,0,94,0,94,0,,,,,,,94,,,0.2,4303.692359459266,X,l,go,None,0,,4304.493043387192,,,,,,,,,,,,,,,5,001,2022-12-16_11h01.13.193,00_bat_bachelor,2022.2.4,59.95302585157003,
,,,,,,,,,,,,1,0,1,0,95,0,95,0,,,,,,,95,,,0.2,4304.693318005651,Y,d,go,d,1,0.5959367504256079,,,,,,,,,,,,,,,,5,001,2022-12-16_11h01.13.193,00_bat_bachelor,2022.2.4,59.95302585157003,
,,,,,,,,,,,,1,0,1,0,96,0,96,0,,,,,,,96,,,0.2,4305.594028697247,X,l,go,l,1,0.33439128469035495,,,,,,,,,,,,,,,,5,001,2022-12-16_11h01.13.193,00_bat_bachelor,2022.2.4,59.95302585157003,
,,,,,,,,,,,,1,0,1,0,97,0,97,0,,,,,,,97,,,0.2,4306.244535509861,X,None,nogo,None,1,,,,,,,,,,,,,,,,,5,001,2022-12-16_11h01.13.193,00_bat_bachelor,2022.2.4,59.95302585157003,
,,,,,,,,,,,,1,0,1,0,98,0,98,0,,,,,,,98,,,0.2,4307.245419874351,Y,d,go,d,1,0.01224503290723078,,,,,,,,,,,,,,,,5,001,2022-12-16_11h01.13.193,00_bat_bachelor,2022.2.4,59.95302585157003,
,,,,,,,,,,,,1,0,1,0,99,0,99,0,,,,,,,99,,,0.2,4307.56216490877,X,l,go,None,0,,,,,,,,,,,,,,,,,5,001,2022-12-16_11h01.13.193,00_bat_bachelor,2022.2.4,59.95302585157003,
,,,,,,,,,,,,1,0,1,0,100,0,100,0,,,,,,,100,,,0.2,4308.562992061081,X,None,nogo,l,0,0.2145215927012032,,,,,,,,,,,,,,,,5,001,2022-12-16_11h01.13.193,00_bat_bachelor,2022.2.4,59.95302585157003,
,,,,,,,,,,,,1,0,1,0,101,0,101,0,,,,,,,101,,,0.2,4309.080058259453,Y,d,go,None,0,,,,,,,,,,,,,,,,,5,001,2022-12-16_11h01.13.193,00_bat_bachelor,2022.2.4,59.95302585157003,
,,,,,,,,,,,,1,0,1,0,102,0,102,0,,,,,,,102,,,0.2,4310.080784078338,X,l,go,None,0,,,,,,,,,,,,,,,,,5,001,2022-12-16_11h01.13.193,00_bat_bachelor,2022.2.4,59.95302585157003,
,,,,,,,,,,,,1,0,1,0,103,0,103,0,,,,,,,103,,,0.2,4311.0813882001385,X,None,nogo,None,1,,,,,,,,,,,,,,,,,5,001,2022-12-16_11h01.13.193,00_bat_bachelor,2022.2.4,59.95302585157003,
,,,,,,,,,,,,1,0,1,0,104,0,104,0,,,,,,,104,,,0.2,4312.082048079566,Y,d,go,d,1,0.3904097632621415,,,,,,,,,,,,,,,,5,001,2022-12-16_11h01.13.193,00_bat_bachelor,2022.2.4,59.95302585157003,
,,,,,,,,,,,,1,0,1,0,105,0,105,0,,,,,,,105,,,0.2,4312.782884153101,X,l,go,l,1,0.26521352062991355,,,,,,,,,,,,,,,,5,001,2022-12-16_11h01.13.193,00_bat_bachelor,2022.2.4,59.95302585157003,
,,,,,,,,,,,,1,0,1,0,106,0,106,0,,,,,,,106,,,0.2,4313.349843733187,Y,d,go,d,1,0.40235062332067173,,,,,,,,,,,,,,,,5,001,2022-12-16_11h01.13.193,00_bat_bachelor,2022.2.4,59.95302585157003,
,,,,,,,,,,,,1,0,1,0,107,0,107,0,,,,,,,107,,,0.2,4314.067190368194,Y,None,nogo,l,0,0.2944940338784363,,,,,,,,,,,,,,,,5,001,2022-12-16_11h01.13.193,00_bat_bachelor,2022.2.4,59.95302585157003,
,,,,,,,,,,,,1,0,1,0,108,0,108,0,,,,,,,108,,,0.2,4314.667646708025,X,l,go,None,0,,,,,,,,,,,,,,,,,5,001,2022-12-16_11h01.13.193,00_bat_bachelor,2022.2.4,59.95302585157003,
,,,,,,,,,,,,1,0,1,0,109,0,109,0,,,,,,,109,,,0.2,4315.66844622395,Y,d,go,d,1,0.5804419475171017,,,,,,,,,,,,,,,,5,001,2022-12-16_11h01.13.193,00_bat_bachelor,2022.2.4,59.95302585157003,
,,,,,,,,,,,,1,0,1,0,110,0,110,0,,,,,,,110,,,0.2,4316.552396172032,Y,None,nogo,l,0,0.30477089232590515,,,,,,,,,,,,,,,,5,001,2022-12-16_11h01.13.193,00_bat_bachelor,2022.2.4,59.95302585157003,
,,,,,,,,,,,,1,0,1,0,111,0,111,0,,,,,,,111,,,0.2,4317.169567194738,X,l,go,None,0,,,,,,,,,,,,,,,,,5,001,2022-12-16_11h01.13.193,00_bat_bachelor,2022.2.4,59.95302585157003,
,,,,,,,,,,,,1,0,1,0,112,0,112,0,,,,,,,112,,,0.2,4318.170244528723,Y,d,go,None,0,,,,,,,,,,,,,,,,,5,001,2022-12-16_11h01.13.193,00_bat_bachelor,2022.2.4,59.95302585157003,
,,,,,,,,,,,,1,0,1,0,113,0,113,0,,,,,,,113,,,0.2,4319.171022226452,Y,None,nogo,None,1,,4319.971540820887,,,,,,,,,,,,,,,5,001,2022-12-16_11h01.13.193,00_bat_bachelor,2022.2.4,59.95302585157003,
,,,,,,,,,,,,1,0,1,0,114,0,114,0,,,,,,,114,,,0.2,4320.17187798486,X,l,go,l,1,0.3330889803910395,,,,,,,,,,,,,,,,5,001,2022-12-16_11h01.13.193,00_bat_bachelor,2022.2.4,59.95302585157003,
,,,,,,,,,,,,1,0,1,0,115,0,115,0,,,,,,,115,,,0.2,4320.805631811527,Y,d,go,None,0,,,,,,,,,,,,,,,,,5,001,2022-12-16_11h01.13.193,00_bat_bachelor,2022.2.4,59.95302585157003,
,,,,,,,,,,,,1,0,1,0,116,0,116,0,,,,,,,116,,,0.2,4321.806345994031,X,l,go,None,0,,,,,,,,,,,,,,,,,5,001,2022-12-16_11h01.13.193,00_bat_bachelor,2022.2.4,59.95302585157003,
,,,,,,,,,,,,1,0,1,0,117,0,117,0,,,,,,,117,,,0.2,4322.8072807828285,X,None,nogo,d,0,0.2103339522582246,,,,,,,,,,,,,,,,5,001,2022-12-16_11h01.13.193,00_bat_bachelor,2022.2.4,59.95302585157003,
,,,,,,,,,,,,1,0,1,0,118,0,118,0,,,,,,,118,,,0.2,4323.324228678044,Y,d,go,None,0,,4324.125075030373,,,,,,,,,,,,,,,5,001,2022-12-16_11h01.13.193,00_bat_bachelor,2022.2.4,59.95302585157003,
,,,,,,,,,,,,1,0,1,0,119,0,119,0,,,,,,,119,,,0.2,4324.32500298183,X,l,go,l,1,0.035841176999383606,,,,,,,,,,,,,,,,5,001,2022-12-16_11h01.13.193,00_bat_bachelor,2022.2.4,59.95302585157003,
,,,,,,,,,,,,1,0,1,0,120,0,120,0,,,,,,,120,,,0.2,4324.67544744286,X,None,nogo,d,0,0.43815283983713016,,,,,,,,,,,,,,,,5,001,2022-12-16_11h01.13.193,00_bat_bachelor,2022.2.4,59.95302585157003,
,,,,,,,,,,,,1,0,1,0,121,0,121,0,,,,,,,121,,,0.2,4325.426045988905,X,None,nogo,None,1,,,,,,,,,,,,,,,,,5,001,2022-12-16_11h01.13.193,00_bat_bachelor,2022.2.4,59.95302585157003,
,,,,,,,,,,,,1,0,1,0,122,0,122,0,,,,,,,122,,,0.2,4326.426645747051,Y,d,go,None,0,,,,,,,,,,,,,,,,,5,001,2022-12-16_11h01.13.193,00_bat_bachelor,2022.2.4,59.95302585157003,
,,,,,,,,,,,,1,0,1,0,123,0,123,0,,,,,,,123,,,0.2,4327.427388050812,X,l,go,l,1,0.21414728929812554,,,,,,,,,,,,,,,,5,001,2022-12-16_11h01.13.193,00_bat_bachelor,2022.2.4,59.95302585157003,
,,,,,,,,,,,,1,0,1,0,124,0,124,0,,,,,,,124,,,0.2,4327.9446515827,Y,d,go,d,1,0.48063579012523405,,,,,,,,,,,,,,,,5,001,2022-12-16_11h01.13.193,00_bat_bachelor,2022.2.4,59.95302585157003,
,,,,,,,,,,,,1,0,1,0,125,0,125,0,,,,,,,125,,,0.2,4328.72851997918,X,l,go,l,1,0.28796651239099447,,,,,,,,,,,,,,,,5,001,2022-12-16_11h01.13.193,00_bat_bachelor,2022.2.4,59.95302585157003,
,,,,,,,,,,,,1,0,1,0,126,0,126,0,,,,,,,126,,,0.2,4329.328931712909,Y,d,go,d,1,0.24852356505289208,,,,,,,,,,,,,,,,5,001,2022-12-16_11h01.13.193,00_bat_bachelor,2022.2.4,59.95302585157003,
,,,,,,,,,,,,1,0,1,0,127,0,127,0,,,,,,,127,,,0.2,4329.879402064878,Y,None,nogo,l,0,0.2570733915345045,,,,,,,,,,,,,,,,5,001,2022-12-16_11h01.13.193,00_bat_bachelor,2022.2.4,59.95302585157003,
,,,,,,,,,,,,1,0,1,0,128,0,128,0,,,,,,,128,,,0.2,4330.446533766342,X,l,go,None,0,,,,,,,,,,,,,,,,,5,001,2022-12-16_11h01.13.193,00_bat_bachelor,2022.2.4,59.95302585157003,
,,,,,,,,,,,,1,0,1,0,129,0,129,0,,,,,,,129,,,0.2,4331.447294979196,Y,d,go,d,1,0.4488941835879814,,,,,,,,,,,,,,,,5,001,2022-12-16_11h01.13.193,00_bat_bachelor,2022.2.4,59.95302585157003,
,,,,,,,,,,,,1,0,1,0,130,0,130,0,,,,,,,130,,,0.2,4332.197827585784,Y,None,nogo,None,1,,,,,,,,,,,,,,,,,5,001,2022-12-16_11h01.13.193,00_bat_bachelor,2022.2.4,59.95302585157003,
,,,,,,,,,,,,1,0,1,0,131,0,131,0,,,,,,,131,,,0.2,4333.198425889394,X,l,go,l,1,0.2338971266290173,,,,,,,,,,,,,,,,5,001,2022-12-16_11h01.13.193,00_bat_bachelor,2022.2.4,59.95302585157003,
,,,,,,,,,,,,1,0,1,0,132,0,132,0,,,,,,,132,,,0.2,4333.732191255462,Y,d,go,None,0,,4334.532801971203,,,,,,,,,,,,,,,5,001,2022-12-16_11h01.13.193,00_bat_bachelor,2022.2.4,59.95302585157003,
,,,,,,,,,,,,1,0,1,0,133,0,133,0,,,,,,,133,,,0.2,4334.733099377554,X,l,go,None,0,,4335.533668881137,,,,,,,,,,,,,,,5,001,2022-12-16_11h01.13.193,00_bat_bachelor,2022.2.4,59.95302585157003,
,,,,,,,,,,,,1,0,1,0,134,0,134,0,,,,,,,134,,,0.2,4335.733864469206,Y,d,go,d,1,0.4348689578764606,,,,,,,,,,,,,,,,5,001,2022-12-16_11h01.13.193,00_bat_bachelor,2022.2.4,59.95302585157003,
,,,,,,,,,,,,1,0,1,0,135,0,135,0,,,,,,,135,,,0.2,4336.484596348702,Y,None,nogo,None,1,,4337.285041246112,,,,,,,,,,,,,,,5,001,2022-12-16_11h01.13.193,00_bat_bachelor,2022.2.4,59.95302585157003,
,,,,,,,,,,,,1,0,1,0,136,0,136,0,,,,,,,136,,,0.2,4337.485173318957,X,l,go,l,1,0.1716313692741096,,,,,,,,,,,,,,,,5,001,2022-12-16_11h01.13.193,00_bat_bachelor,2022.2.4,59.95302585157003,
,,,,,,,,,,,,1,0,1,0,137,0,137,0,,,,,,,137,,,0.2,4337.96894445474,Y,d,go,d,1,0.5355119645682862,,,,,,,,,,,,,,,,5,001,2022-12-16_11h01.13.193,00_bat_bachelor,2022.2.4,59.95302585157003,
,,,,,,,,,,,,1,0,1,0,138,0,138,0,,,,,,,138,,,0.2,4338.819570249281,Y,None,nogo,None,1,,,,,,,,,,,,,,,,,5,001,2022-12-16_11h01.13.193,00_bat_bachelor,2022.2.4,59.95302585157003,
,,,,,,,,,,,,1,0,1,0,139,0,139,0,,,,,,,139,,,0.2,4339.8201510983345,X,l,go,l,1,0.2044183101679664,,,,,,,,,,,,,,,,5,001,2022-12-16_11h01.13.193,00_bat_bachelor,2022.2.4,59.95302585157003,
,,,,,,,,,,,,1,0,1,0,140,0,140,0,,,,,,,140,,,0.2,4340.337288569499,Y,d,go,d,1,0.18248616768687498,,,,,,,,,,,,,,,,5,001,2022-12-16_11h01.13.193,00_bat_bachelor,2022.2.4,59.95302585157003,
,,,,,,,,,,,,1,0,1,0,141,0,141,0,,,,,,,141,,,0.2,4340.820996674913,Y,None,nogo,None,1,,,,,,,,,,,,,,,,,5,001,2022-12-16_11h01.13.193,00_bat_bachelor,2022.2.4,59.95302585157003,
,,,,,,,,,,,,1,0,1,0,142,0,142,0,,,,,,,142,,,0.2,4341.8216963119485,X,l,go,l,1,0.3475748126220424,,,,,,,,,,,,,,,,5,001,2022-12-16_11h01.13.193,00_bat_bachelor,2022.2.4,59.95302585157003,
,,,,,,,,,,,,1,0,1,0,143,0,143,0,,,,,,,143,,,0.2,4342.472287003431,Y,d,go,d,1,0.43204180362226907,,,,,,,,,,,,,,,,5,001,2022-12-16_11h01.13.193,00_bat_bachelor,2022.2.4,59.95302585157003,
,,,,,,,,,,,,1,0,1,0,144,0,144,0,,,,,,,144,,,0.2,4343.206237290899,X,l,go,None,0,,4344.006891158206,,,,,,,,,,,,,,,5,001,2022-12-16_11h01.13.193,00_bat_bachelor,2022.2.4,59.95302585157003,
,,,,,,,,,,,,1,0,1,0,145,0,145,0,,,,,,,145,,,0.2,4344.2068346248125,Y,d,go,None,0,,,,,,,,,,,,,,,,,5,001,2022-12-16_11h01.13.193,00_bat_bachelor,2022.2.4,59.95302585157003,
,,,,,,,,,,,,1,0,1,0,146,0,146,0,,,,,,,146,,,0.2,4345.2076394740725,X,l,go,None,0,,,,,,,,,,,,,,,,,5,001,2022-12-16_11h01.13.193,00_bat_bachelor,2022.2.4,59.95302585157003,
,,,,,,,,,,,,1,0,1,0,147,0,147,0,,,,,,,147,,,0.2,4346.208693535707,Y,d,go,None,0,,,,,,,,,,,,,,,,,5,001,2022-12-16_11h01.13.193,00_bat_bachelor,2022.2.4,59.95302585157003,
,,,,,,,,,,,,1,0,1,0,148,0,148,0,,,,,,,148,,,0.2,4347.209335960579,X,l,go,l,1,0.20821128354873508,,,,,,,,,,,,,,,,5,001,2022-12-16_11h01.13.193,00_bat_bachelor,2022.2.4,59.95302585157003,
,,,,,,,,,,,,1,0,1,0,149,0,149,0,,,,,,,149,,,0.2,4347.726476340831,Y,d,go,d,1,0.13820976112037897,,,,,,,,,,,,,,,,5,001,2022-12-16_11h01.13.193,00_bat_bachelor,2022.2.4,59.95302585157003,
,,,,,,,,,,,,1,0,1,0,150,0,150,0,,,,,,,150,,,0.2,4348.1765432014945,X,l,go,l,1,0.21615262457635254,,,,,,,,,,,,,,,,5,001,2022-12-16_11h01.13.193,00_bat_bachelor,2022.2.4,59.95302585157003,
,,,,,,,,,,,,1,0,1,0,151,0,151,0,,,,,,,151,,,0.2,4348.693595339253,Y,d,go,d,1,0.06699999509146437,,,,,,,,,,,,,,,,5,001,2022-12-16_11h01.13.193,00_bat_bachelor,2022.2.4,59.95302585157003,
,,,,,,,,,,,,1,0,1,0,152,0,152,0,,,,,,,152,,,0.2,4349.060702119474,X,l,go,l,1,0.1965632722567534,,,,,,,,,,,,,,,,5,001,2022-12-16_11h01.13.193,00_bat_bachelor,2022.2.4,59.95302585157003,
,,,,,,,,,,,,1,0,1,0,153,0,153,0,,,,,,,153,,,0.2,4349.560951331834,Y,d,go,d,1,0.06379902230401058,,,,,,,,,,,,,,,,5,001,2022-12-16_11h01.13.193,00_bat_bachelor,2022.2.4,59.95302585157003,
,,,,,,,,,,,,1,0,1,0,154,0,154,0,,,,,,,154,,,0.2,4349.928061021157,Y,None,nogo,l,0,0.24073349688842427,,,,,,,,,,,,,,,,5,001,2022-12-16_11h01.13.193,00_bat_bachelor,2022.2.4,59.95302585157003,
,,,,,,,,,,,,1,0,1,0,155,0,155,0,,,,,,,155,,,0.2,4350.478488221575,Y,None,nogo,None,1,,4351.279126573703,,,,,,,,,,,,,,,5,001,2022-12-16_11h01.13.193,00_bat_bachelor,2022.2.4,59.95302585157003,
,,,,,,,,,,,,1,0,1,0,156,0,156,0,,,,,,,156,,,0.2,4351.47909185852,X,l,go,None,0,,,,,,,,,,,,,,,,,5,001,2022-12-16_11h01.13.193,00_bat_bachelor,2022.2.4,59.95302585157003,
,,,,,,,,,,,,1,0,1,0,157,0,157,0,,,,,,,157,,,0.2,4352.480206526263,Y,d,go,d,1,0.07256848533870652,,,,,,,,,,,,,,,,5,001,2022-12-16_11h01.13.193,00_bat_bachelor,2022.2.4,59.95302585157003,
,,,,,,,,,,,,1,0,1,0,158,0,158,0,,,,,,,158,,,0.2,4352.863485928232,X,l,go,l,1,0.23298124695429578,,,,,,,,,,,,,,,,5,001,2022-12-16_11h01.13.193,00_bat_bachelor,2022.2.4,59.95302585157003,
,,,,,,,,,,,,1,0,1,0,159,0,159,0,,,,,,,159,,,0.2,4353.397266809479,Y,d,go,d,1,0.05135634356702212,,,,,,,,,,,,,,,,5,001,2022-12-16_11h01.13.193,00_bat_bachelor,2022.2.4,59.95302585157003,
,,,,,,,,,,,,1,0,1,0,160,0,160,0,,,,,,,160,,,0.2,4353.76434740785,Y,None,nogo,l,0,0.036242631933419034,,,,,,,,,,,,,,,,5,001,2022-12-16_11h01.13.193,00_bat_bachelor,2022.2.4,59.95302585157003,
,,,,,,,,,,,,1,0,1,0,161,0,161,0,,,,,,,161,,,0.2,4354.114595020219,Y,None,nogo,d,0,0.3414846248924732,,,,,,,,,,,,,,,,5,001,2022-12-16_11h01.13.193,00_bat_bachelor,2022.2.4,59.95302585157003,
,,,,,,,,,,,,1,0,1,0,162,0,162,0,,,,,,,162,,,0.2,4354.765060135818,X,l,go,l,1,0.571826181592769,,,,,,,,,,,,,,,,5,001,2022-12-16_11h01.13.193,00_bat_bachelor,2022.2.4,59.95302585157003,
,,,,,,,,,,,,1,0,1,0,163,0,163,0,,,,,,,163,,,0.2,4355.648828265534,Y,d,go,d,1,0.5672147831792245,,,,,,,,,,,,,,,,5,001,2022-12-16_11h01.13.193,00_bat_bachelor,2022.2.4,59.95302585157003,
,,,,,,,,,,,,1,0,1,0,164,0,164,0,,,,,,,164,,,0.2,4356.516387409836,Y,None,nogo,None,1,,4357.317151822703,,,,,,,,,,,,,,,5,001,2022-12-16_11h01.13.193,00_bat_bachelor,2022.2.4,59.95302585157003,
,,,,,,,,,,,,1,0,1,0,165,0,165,0,,,,,,,165,,,0.2,4357.517029349852,X,l,go,l,1,0.5876341969124041,,,,,,,,,,,,,,,,5,001,2022-12-16_11h01.13.193,00_bat_bachelor,2022.2.4,59.95302585157003,
,,,,,,,,,,,,1,0,1,0,166,0,166,0,,,,,,,166,,,0.2,4358.417896647661,Y,d,go,d,1,0.42246943070495035,,,,,,,,,,,,,,,,5,001,2022-12-16_11h01.13.193,00_bat_bachelor,2022.2.4,59.95302585157003,
,,,,,,,,,,,,1,0,1,0,167,0,167,0,,,,,,,167,,,0.2,4359.15188572304,X,l,go,l,1,0.6173379833053332,,,,,,,,,,,,,,,,5,001,2022-12-16_11h01.13.193,00_bat_bachelor,2022.2.4,59.95302585157003,
,,,,,,,,,,,,1,0,1,0,168,0,168,0,,,,,,,168,,,0.2,4360.069091945785,Y,d,go,d,1,0.24351071171986405,,,,,,,,,,,,,,,,5,001,2022-12-16_11h01.13.193,00_bat_bachelor,2022.2.4,59.95302585157003,
,,,,,,,,,,,,1,0,1,0,169,0,169,0,,,,,,,169,,,0.2,4360.619477449189,Y,None,nogo,None,1,,,,,,,,,,,,,,,,,5,001,2022-12-16_11h01.13.193,00_bat_bachelor,2022.2.4,59.95302585157003,
,,,,,,,,,,,,1,0,1,0,170,0,170,0,,,,,,,170,,,0.2,4361.620166904409,X,l,go,l,1,0.3087020476523321,,,,,,,,,,,,,,,,5,001,2022-12-16_11h01.13.193,00_bat_bachelor,2022.2.4,59.95302585157003,
,,,,,,,,,,,,1,0,1,0,171,0,171,0,,,,,,,171,,,0.2,4362.237283139184,Y,d,go,d,1,0.2992857960925903,,,,,,,,,,,,,,,,5,001,2022-12-16_11h01.13.193,00_bat_bachelor,2022.2.4,59.95302585157003,
,,,,,,,,,,,,1,0,1,0,172,0,172,0,,,,,,,172,,,0.2,4362.837934388299,Y,None,nogo,None,1,,4363.638547528288,,,,,,,,,,,,,,,5,001,2022-12-16_11h01.13.193,00_bat_bachelor,2022.2.4,59.95302585157003,
,,,,,,,,,,,,1,0,1,0,173,0,173,0,,,,,,,173,,,0.2,4363.838695116312,X,l,go,l,1,0.21834026306169108,,,,,,,,,,,,,,,,5,001,2022-12-16_11h01.13.193,00_bat_bachelor,2022.2.4,59.95302585157003,
,,,,,,,,,,,,1,0,1,0,174,0,174,0,,,,,,,174,,,0.2,4364.372247148844,Y,d,go,d,1,0.10018596667214297,,,,,,,,,,,,,,,,5,001,2022-12-16_11h01.13.193,00_bat_bachelor,2022.2.4,59.95302585157003,
,,,,,,,,,,,,1,0,1,0,175,0,175,0,,,,,,,175,,,0.2,4364.772655779554,X,l,go,l,1,0.5803730989719043,,,,,,,,,,,,,,,,5,001,2022-12-16_11h01.13.193,00_bat_bachelor,2022.2.4,59.95302585157003,
,,,,,,,,,,,,1,0,1,0,176,0,176,0,,,,,,,176,,,0.2,4365.65675263686,X,None,nogo,None,1,,4366.457187837281,,,,,,,,,,,,,,,5,001,2022-12-16_11h01.13.193,00_bat_bachelor,2022.2.4,59.95302585157003,
,,,,,,,,,,,,1,0,1,0,177,0,177,0,,,,,,,177,,,0.2,4366.65746197087,Y,d,go,d,1,0.07122399918443989,,,,,,,,,,,,,,,,5,001,2022-12-16_11h01.13.193,00_bat_bachelor,2022.2.4,59.95302585157003,
,,,,,,,,,,,,1,0,1,0,178,0,178,0,,,,,,,178,,,0.2,4367.041108888356,X,l,go,l,1,0.4086575385153992,,,,,,,,,,,,,,,,5,001,2022-12-16_11h01.13.193,00_bat_bachelor,2022.2.4,59.95302585157003,
,,,,,,,,,,,,1,0,1,0,179,0,179,0,,,,,,,179,,,0.2,4367.758370189942,X,None,nogo,None,1,,4368.5589372692775,,,,,,,,,,,,,,,5,001,2022-12-16_11h01.13.193,00_bat_bachelor,2022.2.4,59.95302585157003,
,,,,,,,,,,,,1,0,1,0,180,0,180,0,,,,,,,180,,,0.2,4368.7588991601515,Y,d,go,d,1,0.09823541932564694,,,,,,,,,,,,,,,,5,001,2022-12-16_11h01.13.193,00_bat_bachelor,2022.2.4,59.95302585157003,
,,,,,,,,,,,,1,0,1,0,181,0,181,0,,,,,,,181,,,0.2,4369.159412518216,X,l,go,l,1,0.2733546194504015,,,,,,,,,,,,,,,,5,001,2022-12-16_11h01.13.193,00_bat_bachelor,2022.2.4,59.95302585157003,
,,,,,,,,,,,,1,0,1,0,182,0,182,0,,,,,,,182,,,0.2,4369.74318423582,X,None,nogo,d,0,0.31393356787157245,,,,,,,,,,,,,,,,5,001,2022-12-16_11h01.13.193,00_bat_bachelor,2022.2.4,59.95302585157003,
,,,,,,,,,,,,1,0,1,0,183,0,183,0,,,,,,,183,,,0.2,4370.360153561371,Y,d,go,l,0,0.5455672470270656,,,,,,,,,,,,,,,,5,001,2022-12-16_11h01.13.193,00_bat_bachelor,2022.2.4,59.95302585157003,
,,,,,,,,,,,,1,0,1,0,184,0,184,0,,,,,,,184,,,0.2,4371.210810386241,X,l,go,None,0,,,,,,,,,,,,,,,,,5,001,2022-12-16_11h01.13.193,00_bat_bachelor,2022.2.4,59.95302585157003,
,,,,,,,,,,,,1,0,1,0,185,0,185,0,,,,,,,185,,,0.2,4372.211702993169,X,None,nogo,d,0,0.052707132752402686,,,,,,,,,,,,,,,,5,001,2022-12-16_11h01.13.193,00_bat_bachelor,2022.2.4,59.95302585157003,
,,,,,,,,,,,,1,0,1,0,186,0,186,0,,,,,,,186,,,0.2,4372.578504803401,Y,d,go,l,0,0.1494068628817331,,,,,,,,,,,,,,,,5,001,2022-12-16_11h01.13.193,00_bat_bachelor,2022.2.4,59.95302585157003,
,,,,,,,,,,,,1,0,1,0,187,0,187,0,,,,,,,187,,,0.2,4373.029091422155,X,l,go,None,0,,4373.829614380244,,,,,,,,,,,,,,,5,001,2022-12-16_11h01.13.193,00_bat_bachelor,2022.2.4,59.95302585157003,
,,,,,,,,,,,,1,0,1,0,188,0,188,0,,,,,,,188,,,0.2,4374.029605846896,X,None,nogo,None,1,,,,,,,,,,,,,,,,,5,001,2022-12-16_11h01.13.193,00_bat_bachelor,2022.2.4,59.95302585157003,
,,,,,,,,,,,,1,0,1,0,189,0,189,0,,,,,,,189,,,0.2,4375.030520272019,Y,d,go,None,0,,4375.831176078718,,,,,,,,,,,,,,,5,001,2022-12-16_11h01.13.193,00_bat_bachelor,2022.2.4,59.95302585157003,
,,,,,,,,,,,,1,0,1,0,190,0,190,0,,,,,,,190,,,0.2,4376.031514212387,X,l,go,None,0,,4376.831975109802,,,,,,,,,,,,,,,5,001,2022-12-16_11h01.13.193,00_bat_bachelor,2022.2.4,59.95302585157003,
,,,,,,,,,,,,1,0,1,0,191,0,191,0,,,,,,,191,,,0.2,4377.032091667483,X,None,nogo,None,1,,,,,,,,,,,,,,,,,5,001,2022-12-16_11h01.13.193,00_bat_bachelor,2022.2.4,59.95302585157003,
,,,,,,,,,,,,1,0,1,0,192,0,192,0,,,,,,,192,,,0.2,4378.032886334928,Y,d,go,d,1,0.48789688808028586,,,,,,,,,,,,,,,,5,001,2022-12-16_11h01.13.193,00_bat_bachelor,2022.2.4,59.95302585157003,
,,,,,,,,,,,,1,0,1,0,193,0,193,0,,,,,,,193,,,0.2,4378.833472323371,X,l,go,l,1,0.2634947310871212,,,,,,,,,,,,,,,,5,001,2022-12-16_11h01.13.193,00_bat_bachelor,2022.2.4,59.95302585157003,
,,,,,,,,,,,,1,0,1,0,194,0,194,0,,,,,,,194,,,0.2,4379.400386327659,X,None,nogo,None,1,,4380.201175952665,,,,,,,,,,,,,,,5,001,2022-12-16_11h01.13.193,00_bat_bachelor,2022.2.4,59.95302585157003,
,,,,,,,,,,,,1,0,1,0,195,0,195,0,,,,,,,195,,,0.2,4380.401361358905,Y,d,go,d,1,0.47181444824673235,,,,,,,,,,,,,,,,5,001,2022-12-16_11h01.13.193,00_bat_bachelor,2022.2.4,59.95302585157003,
,,,,,,,,,,,,1,0,1,0,196,0,196,0,,,,,,,196,,,0.2,4381.1852598160185,X,l,go,l,1,0.2641691559838364,,,,,,,,,,,,,,,,5,001,2022-12-16_11h01.13.193,00_bat_bachelor,2022.2.4,59.95302585157003,
,,,,,,,,,,,,1,0,1,0,197,0,197,0,,,,,,,197,,,0.2,4381.752341578031,X,None,nogo,None,1,,4382.552779202699,,,,,,,,,,,,,,,5,001,2022-12-16_11h01.13.193,00_bat_bachelor,2022.2.4,59.95302585157003,
,,,,,,,,,,,,1,0,1,0,198,0,198,0,,,,,,,198,,,0.2,4382.752942305888,Y,d,go,d,1,0.23139191209338605,,,,,,,,,,,,,,,,5,001,2022-12-16_11h01.13.193,00_bat_bachelor,2022.2.4,59.95302585157003,
,,,,,,,,,,,,1,0,1,0,199,0,199,0,,,,,,,199,,,0.2,4383.28670185378,X,l,go,l,1,0.2420784678979544,,,,,,,,,,,,,,,,5,001,2022-12-16_11h01.13.193,00_bat_bachelor,2022.2.4,59.95302585157003,
,,,,,,,,,,,,1,0,1,0,200,0,200,0,,,,,,,200,,,0.2,4383.837292448283,Y,d,go,None,0,,4384.637735891141,,,,,,,,,,,,,,,5,001,2022-12-16_11h01.13.193,00_bat_bachelor,2022.2.4,59.95302585157003,
,,,,,,,,,,,,1,0,1,0,201,0,201,0,,,,,,,201,,,0.2,4384.8378631155065,Y,None,nogo,d,0,0.5959086291841231,,,,,,,,,,,,,,,,5,001,2022-12-16_11h01.13.193,00_bat_bachelor,2022.2.4,59.95302585157003,
,,,,,,,,,,,,1,0,1,0,202,0,202,0,,,,,,,202,,,0.2,4385.738535504046,X,l,go,l,1,0.23782488801225554,,,,,,,,,,,,,,,,5,001,2022-12-16_11h01.13.193,00_bat_bachelor,2022.2.4,59.95302585157003,
,,,,,,,,,,,,1,0,1,0,203,0,203,0,,,,,,,203,,,0.2,4386.289236644108,Y,d,go,d,1,0.40754093138093594,,,,,,,,,,,,,,,,5,001,2022-12-16_11h01.13.193,00_bat_bachelor,2022.2.4,59.95302585157003,
,,,,,,,,,,,,1,0,1,0,204,0,204,0,,,,,,,204,,,0.2,4387.006371884971,X,l,go,l,1,0.3623195542022586,,,,,,,,,,,,,,,,5,001,2022-12-16_11h01.13.193,00_bat_bachelor,2022.2.4,59.95302585157003,
,,,,,,,,,,,,1,0,1,0,205,0,205,0,,,,,,,205,,,0.2,4387.67331362261,Y,d,go,d,1,0.15927450881281402,,,,,,,,,,,,,,,,5,001,2022-12-16_11h01.13.193,00_bat_bachelor,2022.2.4,59.95302585157003,
,,,,,,,,,,,,1,0,1,0,206,0,206,0,,,,,,,206,,,0.2,4388.140559166612,Y,None,nogo,l,0,0.2674462500726804,,,,,,,,,,,,,,,,5,001,2022-12-16_11h01.13.193,00_bat_bachelor,2022.2.4,59.95302585157003,
,,,,,,,,,,,,1,0,1,0,207,0,207,0,,,,,,,207,,,0.2,4388.724166520406,X,l,go,None,0,,4389.524791296775,,,,,,,,,,,,,,,5,001,2022-12-16_11h01.13.193,00_bat_bachelor,2022.2.4,59.95302585157003,
,,,,,,,,,,,,1,0,1,0,208,0,208,0,,,,,,,208,,,0.2,4389.724920460532,Y,d,go,d,1,0.2995350084529491,,,,,,,,,,,,,,,,5,001,2022-12-16_11h01.13.193,00_bat_bachelor,2022.2.4,59.95302585157003,
,,,,,,,,,,,,1,0,1,0,209,0,209,0,,,,,,,209,,,0.2,4390.325603709687,Y,None,nogo,l,0,0.2918186373426579,,,,,,,,,,,,,,,,5,001,2022-12-16_11h01.13.193,00_bat_bachelor,2022.2.4,59.95302585157003,
,,,,,,,,,,,,1,0,1,0,210,0,210,0,,,,,,,210,,,0.2,4390.926047928297,X,l,go,None,0,,,,,,,,,,,,,,,,,5,001,2022-12-16_11h01.13.193,00_bat_bachelor,2022.2.4,59.95302585157003,
,,,,,,,,,,,,1,0,1,0,211,0,211,0,,,,,,,211,,,0.2,4391.926651080401,Y,d,go,d,1,0.14659522379224654,,,,,,,,,,,,,,,,5,001,2022-12-16_11h01.13.193,00_bat_bachelor,2022.2.4,59.95302585157003,
,,,,,,,,,,,,1,0,1,0,212,0,212,0,,,,,,,212,,,0.2,4392.377024365604,X,l,go,l,1,0.3678094989154488,,,,,,,,,,,,,,,,5,001,2022-12-16_11h01.13.193,00_bat_bachelor,2022.2.4,59.95302585157003,
,,,,,,,,,,,,1,0,1,0,213,0,213,0,,,,,,,213,,,0.2,4393.060747210431,Y,d,go,d,1,0.4993737477052491,,,,,,,,,,,,,,,,5,001,2022-12-16_11h01.13.193,00_bat_bachelor,2022.2.4,59.95302585157003,
,,,,,,,,,,,,1,0,1,0,214,0,214,0,,,,,,,214,,,0.2,4393.861451502016,X,l,go,l,1,0.3868024870316731,,,,,,,,,,,,,,,,5,001,2022-12-16_11h01.13.193,00_bat_bachelor,2022.2.4,59.95302585157003,
,,,,,,,,,,,,1,0,1,0,215,0,215,0,,,,,,,215,,,0.2,4394.561890484256,X,None,nogo,d,0,0.4543652192078298,,,,,,,,,,,,,,,,5,001,2022-12-16_11h01.13.193,00_bat_bachelor,2022.2.4,59.95302585157003,
,,,,,,,,,,,,1,0,1,0,216,0,216,0,,,,,,,216,,,0.2,4395.329195470738,Y,d,go,None,0,,,,,,,,,,,,,,,,,5,001,2022-12-16_11h01.13.193,00_bat_bachelor,2022.2.4,59.95302585157003,
,,,,,,,,,,,,1,0,1,0,217,0,217,0,,,,,,,217,,,0.2,4396.330111835268,X,l,go,None,0,,4397.130738066175,,,,,,,,,,,,,,,5,001,2022-12-16_11h01.13.193,00_bat_bachelor,2022.2.4,59.95302585157003,
,,,,,,,,,,,,1,0,1,0,218,0,218,0,,,,,,,218,,,0.2,4397.330851714767,X,None,nogo,d,0,0.18147865156061016,,,,,,,,,,,,,,,,5,001,2022-12-16_11h01.13.193,00_bat_bachelor,2022.2.4,59.95302585157003,
,,,,,,,,,,,,1,0,1,0,219,0,219,0,,,,,,,219,,,0.2,4397.814442486735,Y,d,go,l,0,0.49898877763189375,,,,,,,,,,,,,,,,5,001,2022-12-16_11h01.13.193,00_bat_bachelor,2022.2.4,59.95302585157003,
,,,,,,,,,,,,1,0,1,0,220,0,220,0,,,,,,,220,,,0.2,4398.6150808388775,X,l,go,None,0,,4399.415688645517,,,,,,,,,,,,,,,5,001,2022-12-16_11h01.13.193,00_bat_bachelor,2022.2.4,59.95302585157003,
,,,,,,,,,,,,1,0,1,0,221,0,221,0,,,,,,,221,,,0.2,4399.6160064155265,Y,d,go,d,1,0.08919734995288309,,,,,,,,,,,,,,,,5,001,2022-12-16_11h01.13.193,00_bat_bachelor,2022.2.4,59.95302585157003,
,,,,,,,,,,,,1,0,1,0,222,0,222,0,,,,,,,222,,,0.2,4400.01612704595,X,l,go,l,1,0.2653226116526639,,,,,,,,,,,,,,,,5,001,2022-12-16_11h01.13.193,00_bat_bachelor,2022.2.4,59.95302585157003,
,,,,,,,,,,,,1,0,1,0,223,0,223,0,,,,,,,223,,,0.2,4400.583409535437,Y,d,go,None,0,,4401.383857826775,,,,,,,,,,,,,,,5,001,2022-12-16_11h01.13.193,00_bat_bachelor,2022.2.4,59.95302585157003,
,,,,,,,,,,,,1,0,1,0,224,0,224,0,,,,,,,224,,,0.2,4401.584125657333,Y,None,nogo,None,1,,,,,,,,,,,,,,,,,5,001,2022-12-16_11h01.13.193,00_bat_bachelor,2022.2.4,59.95302585157003,
,,,,,,,,,,,,1,0,1,0,225,0,225,0,,,,,,,225,,,0.2,4402.585086627965,X,l,go,None,0,,,,,,,,,,,,,,,,,5,001,2022-12-16_11h01.13.193,00_bat_bachelor,2022.2.4,59.95302585157003,
,,,,,,,,,,,,1,0,1,0,226,0,226,0,,,,,,,226,,,0.2,4403.5854905071465,Y,d,go,d,1,0.48724525108991656,,,,,,,,,,,,,,,,5,001,2022-12-16_11h01.13.193,00_bat_bachelor,2022.2.4,59.95302585157003,
,,,,,,,,,,,,1,0,1,0,227,0,227,0,,,,,,,227,,,0.2,4404.386291768533,X,l,go,l,1,0.0703958771773614,,,,,,,,,,,,,,,,5,001,2022-12-16_11h01.13.193,00_bat_bachelor,2022.2.4,59.95302585157003,
,,,,,,,,,,,,1,0,1,0,228,0,228,0,,,,,,,228,,,0.2,4404.769691413036,Y,d,go,d,1,0.1661574245808879,,,,,,,,,,,,,,,,5,001,2022-12-16_11h01.13.193,00_bat_bachelor,2022.2.4,59.95302585157003,
,,,,,,,,,,,,1,0,1,0,229,0,229,0,,,,,,,229,,,0.2,4405.236947623707,Y,None,nogo,None,1,,4406.037562218247,,,,,,,,,,,,,,,5,001,2022-12-16_11h01.13.193,00_bat_bachelor,2022.2.4,59.95302585157003,
,,,,,,,,,,,,1,0,1,0,230,0,230,0,,,,,,,230,,,0.2,4406.237513927292,X,l,go,l,1,0.011406729070586152,,,,,,,,,,,,,,,,5,001,2022-12-16_11h01.13.193,00_bat_bachelor,2022.2.4,59.95302585157003,
,,,,,,,,,,,,1,0,1,0,231,0,231,0,,,,,,,231,,,0.2,4406.55460223477,Y,d,go,d,1,0.36590549706306774,,,,,,,,,,,,,,,,5,001,2022-12-16_11h01.13.193,00_bat_bachelor,2022.2.4,59.95302585157003,
,,,,,,,,,,,,1,0,1,0,232,0,232,0,,,,,,,232,,,0.2,4407.221815972676,Y,None,nogo,None,1,,4408.022403900512,,,,,,,,,,,,,,,5,001,2022-12-16_11h01.13.193,00_bat_bachelor,2022.2.4,59.95302585157003,
,,,,,,,,,,,,1,0,1,0,233,0,233,0,,,,,,,233,,,0.2,4408.222527246093,X,l,go,None,0,,,,,,,,,,,,,,,,,5,001,2022-12-16_11h01.13.193,00_bat_bachelor,2022.2.4,59.95302585157003,
,,,,,,,,,,,,1,0,1,0,234,0,234,0,,,,,,,234,,,0.2,4409.223128943646,Y,d,go,None,0,,4410.023798810958,,,,,,,,,,,,,,,5,001,2022-12-16_11h01.13.193,00_bat_bachelor,2022.2.4,59.95302585157003,
,,,,,,,,,,,,1,0,1,0,235,0,235,0,,,,,,,235,,,0.2,4410.22401815663,X,l,go,None,0,,4411.024713720937,,,,,,,,,,,,,,,5,001,2022-12-16_11h01.13.193,00_bat_bachelor,2022.2.4,59.95302585157003,
,,,,,,,,,,,,1,0,1,0,236,0,236,0,,,,,,,236,,,0.2,4411.224855975626,Y,d,go,d,1,0.07988049244158901,,,,,,,,,,,,,,,,5,001,2022-12-16_11h01.13.193,00_bat_bachelor,2022.2.4,59.95302585157003,
,,,,,,,,,,,,1,0,1,0,237,0,237,0,,,,,,,237,,,0.2,4411.608335135359,X,l,go,l,1,0.06511926600069273,,,,,,,,,,,,,,,,5,001,2022-12-16_11h01.13.193,00_bat_bachelor,2022.2.4,59.95302585157003,
,,,,,,,,,,,,1,0,1,0,238,0,238,0,,,,,,,238,,,0.2,4411.975274157841,Y,d,go,d,1,0.12945290413335897,,,,,,,,,,,,,,,,5,001,2022-12-16_11h01.13.193,00_bat_bachelor,2022.2.4,59.95302585157003,
,,,,,,,,,,,,1,0,1,0,239,0,239,0,,,,,,,239,,,0.2,4412.408969123848,X,l,go,l,1,0.14416370628168806,,,,,,,,,,,,,,,,5,001,2022-12-16_11h01.13.193,00_bat_bachelor,2022.2.4,59.95302585157003,
,,,,,,,,,,,,1,0,1,0,240,0,240,0,,,,,,,240,,,0.2,4412.859228954403,Y,d,go,d,1,0.6366529111255659,,,,,,,,,,,,,,,,5,001,2022-12-16_11h01.13.193,00_bat_bachelor,2022.2.4,59.95302585157003,
,,,,,,,,,,,,1,0,1,0,241,0,241,0,,,,,,,241,,,0.2,4413.8101680583495,Y,None,nogo,l,0,0.3108450800355058,,,,,,,,,,,,,,,,5,001,2022-12-16_11h01.13.193,00_bat_bachelor,2022.2.4,59.95302585157003,
,,,,,,,,,,,,1,0,1,0,242,0,242,0,,,,,,,242,,,0.2,4414.427021504991,X,l,go,None,0,,4415.227918281627,,,,,,,,,,,,,,,5,001,2022-12-16_11h01.13.193,00_bat_bachelor,2022.2.4,59.95302585157003,
,,,,,,,,,,,,1,0,1,0,243,0,243,0,,,,,,,243,,,0.2,4415.42818562733,Y,d,go,None,0,,4416.228625191405,,,,,,,,,,,,,,,5,001,2022-12-16_11h01.13.193,00_bat_bachelor,2022.2.4,59.95302585157003,
,,,,,,,,,,,,1,0,1,0,244,0,244,0,,,,,,,244,,,0.2,4416.428848900701,Y,None,nogo,None,1,,4417.229237555628,,,,,,,,,,,,,,,5,001,2022-12-16_11h01.13.193,00_bat_bachelor,2022.2.4,59.95302585157003,
,,,,,,,,,,,,1,0,1,0,245,0,245,0,,,,,,,245,,,0.2,4417.429276537485,X,l,go,d,0,0.13083084486424923,,,,,,,,,,,,,,,,5,001,2022-12-16_11h01.13.193,00_bat_bachelor,2022.2.4,59.95302585157003,
,,,,,,,,,,,,1,0,1,0,246,0,246,0,,,,,,,246,,,0.2,4417.86310241271,Y,d,go,None,0,,4418.663882825582,,,,,,,,,,,,,,,5,001,2022-12-16_11h01.13.193,00_bat_bachelor,2022.2.4,59.95302585157003,
,,,,,,,,,,,,1,0,1,0,247,0,247,0,,,,,,,247,,,0.2,4418.86397659537,X,l,go,l,1,0.08904171343601774,,,,,,,,,,,,,,,,5,001,2022-12-16_11h01.13.193,00_bat_bachelor,2022.2.4,59.95302585157003,
,,,,,,,,,,,,1,0,1,0,248,0,248,0,,,,,,,248,,,0.2,4419.264142801592,Y,d,go,None,0,,,,,,,,,,,,,,,,,5,001,2022-12-16_11h01.13.193,00_bat_bachelor,2022.2.4,59.95302585157003,
,,,,,,,,,,,,1,0,1,0,249,0,249,0,,,,,,,249,,,0.2,4420.264904014461,Y,None,nogo,None,1,,,,,,,,,,,,,,,,,5,001,2022-12-16_11h01.13.193,00_bat_bachelor,2022.2.4,59.95302585157003,
,,,,,,,,,,,,2,0,2,0,0,0,0,0,,,,,,,0,,,1,4476.174285744768,X,l,go,l,1,0.34769020666135475,,,,,,,,,4421.067645156509,space,54.08107709964679,,,,,5,001,2022-12-16_11h01.13.193,00_bat_bachelor,2022.2.4,59.95302585157003,
,,,,,,,,,,,,2,0,2,0,1,0,1,0,,,,,,,1,,,1,4477.625286424518,Y,d,go,d,1,0.33523880066059064,,,,,,,,,,,,,,,,5,001,2022-12-16_11h01.13.193,00_bat_bachelor,2022.2.4,59.95302585157003,
,,,,,,,,,,,,2,0,2,0,2,0,2,0,,,,,,,2,,,1,4479.076292437618,X,l,go,l,1,0.22958294062118512,,,,,,,,,,,,,,,,5,001,2022-12-16_11h01.13.193,00_bat_bachelor,2022.2.4,59.95302585157003,
,,,,,,,,,,,,2,0,2,0,3,0,3,0,,,,,,,3,,,1,4480.410801852908,Y,d,go,d,1,0.30188022286165506,,,,,,,,,,,,,,,,5,001,2022-12-16_11h01.13.193,00_bat_bachelor,2022.2.4,59.95302585157003,
