loop_instruction.thisRepN,loop_instruction.thisTrialN,loop_instruction.thisN,loop_instruction.thisIndex,loop_rsi_practice.thisRepN,loop_rsi_practice.thisTrialN,loop_rsi_practice.thisN,loop_rsi_practice.thisIndex,loop_practice.thisRepN,loop_practice.thisTrialN,loop_practice.thisN,loop_practice.thisIndex,loop_exp.thisRepN,loop_exp.thisTrialN,loop_exp.thisN,loop_exp.thisIndex,loop_trials.thisRepN,loop_trials.thisTrialN,loop_trials.thisN,loop_trials.thisIndex,map_condition,map_x_key,map_y_key,key_resp_welcome.started,key_resp_welcome.keys,key_resp_welcome.rt,index,text_empty_rsi_practice.started,text_empty_rsi_practice.stopped,rsi,stimulus.started,stimulus,correct,trial_type,key_resp_trial.keys,key_resp_trial.corr,key_resp_trial.rt,stimulus.stopped,key_resp_instruction_rsi.started,key_resp_instruction_rsi.keys,key_resp_instruction_rsi.rt,key_resp_instruction_rsi.stopped,key_resp_instruction_final.started,key_resp_instruction_final.keys,key_resp_instruction_final.rt,key_resp_break.started,key_resp_break.keys,key_resp_break.rt,key_resp_break.stopped,key_resp_end_screen.started,image_end_screen.started,key_resp_end_screen.stopped,image_end_screen.stopped,key_resp_end_screen.keys,participant,session,Alter,Geschlecht (w/m/d/andere),Studiengang,date,expName,psychopyVersion,frameRate,
,,,,0,0,0,0,0,0,0,0,,,,,,,,,0,d,l,245.14296796552662,j,11.528015781019349,0,256.7115506107366,257.7271656637604,1,257.7271656637604,X,d,go,d,1,0.6120881457318319,,,,,,,,,,,,,,,,,,60,001,22,w,Psychologie,2023-01-24_15h06.37.548,00_bat_bachelor,2022.2.4,59.95665672711451,
,,,,0,0,0,0,1,0,1,0,,,,,,,,,,,,,,,1,259.05296298612666,260.05398165427323,1,260.05398165427323,Y,l,go,l,1,0.21327447473595385,,,,,,,,,,,,,,,,,,60,001,22,w,Psychologie,2023-01-24_15h06.37.548,00_bat_bachelor,2022.2.4,59.95665672711451,
,,,,0,0,0,0,2,0,2,0,,,,,,,,,,,,,,,2,260.97140892811876,261.9721245655237,1,261.9721245655237,X,d,go,d,1,0.263206183721195,,,,,,,,,,,,,,,,,,60,001,22,w,Psychologie,2023-01-24_15h06.37.548,00_bat_bachelor,2022.2.4,59.95665672711451,
,,,,0,0,0,0,3,0,3,0,,,,,,,,,,,,,,,3,262.93933421479596,263.9400173673057,1,263.9400173673057,Y,l,go,l,1,0.39083352086890955,,,,,,,,,,,,,,,,,,60,001,22,w,Psychologie,2023-01-24_15h06.37.548,00_bat_bachelor,2022.2.4,59.95665672711451,
,,,,0,0,0,0,4,0,4,0,,,,,,,,,,,,,,,4,265.0408994534373,266.0417847880599,1,266.0417847880599,X,d,go,d,1,0.3204852973431116,,,,,,,,,,,,,,,,,,60,001,22,w,Psychologie,2023-01-24_15h06.37.548,00_bat_bachelor,2022.2.4,59.95665672711451,
,,,,0,0,0,0,5,0,5,0,,,,,,,,,,,,,,,5,267.0925286194397,268.0932301962166,1,268.0932301962166,Y,l,go,l,1,0.44477735691179987,,,,,,,,,,,,,,,,,,60,001,22,w,Psychologie,2023-01-24_15h06.37.548,00_bat_bachelor,2022.2.4,59.95665672711451,
,,,,0,0,0,0,6,0,6,0,,,,,,,,,,,,,,,6,269.2610413493967,270.26154171375674,1,270.26154171375674,X,d,go,d,1,0.35806547320680693,,,,,,,,,,,,,,,,,,60,001,22,w,Psychologie,2023-01-24_15h06.37.548,00_bat_bachelor,2022.2.4,59.95665672711451,
,,,,0,0,0,0,7,0,7,0,,,,,,,,,,,,,,,7,271.32924896375334,272.32981429791835,1,272.32981429791835,X,None,nogo,None,1,,273.1304292806308,,,,,,,,,,,,,,,,,60,001,22,w,Psychologie,2023-01-24_15h06.37.548,00_bat_bachelor,2022.2.4,59.95665672711451,
,,,,0,0,0,0,8,0,8,0,,,,,,,,,,,,,,,8,273.73114045741386,274.7324665199558,1,274.7324665199558,Y,l,go,l,1,0.3023863619164331,,,,,,,,,,,,,,,,,,60,001,22,w,Psychologie,2023-01-24_15h06.37.548,00_bat_bachelor,2022.2.4,59.95665672711451,
,,,,0,0,0,0,9,0,9,0,,,,,,,,,,,,,,,9,275.7662003872101,276.7668476608669,1,276.7668476608669,X,d,go,None,0,,277.5674141586642,,,,,,,,,,,,,,,,,60,001,22,w,Psychologie,2023-01-24_15h06.37.548,00_bat_bachelor,2022.2.4,59.95665672711451,
,,,,0,0,0,0,10,0,10,0,,,,,,,,,,,,,,,10,278.1676060619793,279.16858254824183,1,279.16858254824183,Y,l,go,l,1,0.5216875293845078,,,,,,,,,,,,,,,,,,60,001,22,w,Psychologie,2023-01-24_15h06.37.548,00_bat_bachelor,2022.2.4,59.95665672711451,
,,,,0,0,0,0,11,0,11,0,,,,,,,,,,,,,,,11,280.41956376179587,281.42009321710793,1,281.42009321710793,Y,None,nogo,d,0,0.3180106270738179,,,,,,,,,,,,,,,,,,60,001,22,w,Psychologie,2023-01-24_15h06.37.548,00_bat_bachelor,2022.2.4,59.95665672711451,
,,,,0,0,0,0,12,0,12,0,,,,,,,,,,,,,,,12,282.8874277150462,283.88822820106,1,283.88822820106,X,d,go,None,0,,284.6890177294845,,,,,,,,,,,,,,,,,60,001,22,w,Psychologie,2023-01-24_15h06.37.548,00_bat_bachelor,2022.2.4,59.95665672711451,
,,,,0,0,0,0,13,0,13,0,,,,,,,,,,,,,,,13,285.2898195730668,286.29057205902063,1,286.29057205902063,Y,l,go,l,1,0.26471939803741407,,,,,,,,,,,,,,,,,,60,001,22,w,Psychologie,2023-01-24_15h06.37.548,00_bat_bachelor,2022.2.4,59.95665672711451,
,,,,0,0,0,0,14,0,14,0,,,,,,,,,,,,,,,14,287.25812304212013,288.25882704314427,1,288.25882704314427,Y,None,nogo,l,0,0.37603495389339514,,,,,,,,,,,,,,,,,,60,001,22,w,Psychologie,2023-01-24_15h06.37.548,00_bat_bachelor,2022.2.4,59.95665672711451,
,,,,1,0,1,0,0,0,0,0,,,,,,,,,,,,,,,0,303.55350674450165,303.7534726111189,0.2,303.7534726111189,X,d,go,d,1,0.4818217744323192,,289.79046127098263,j,13.74434045930684,,,,,,,,,,,,,,60,001,22,w,Psychologie,2023-01-24_15h06.37.548,00_bat_bachelor,2022.2.4,59.95665672711451,
,,,,1,0,1,0,1,0,1,0,,,,,,,,,,,,,,,1,304.937920879398,305.138068564469,0.2,305.138068564469,Y,l,go,d,0,0.3129080741928192,,,,,,,,,,,,,,,,,,60,001,22,w,Psychologie,2023-01-24_15h06.37.548,00_bat_bachelor,2022.2.4,59.95665672711451,
,,,,1,0,1,0,2,0,2,0,,,,,,,,,,,,,,,2,306.15531416531303,306.35554185048386,0.2,306.35554185048386,X,d,go,d,1,0.34403151340666227,,,,,,,,,,,,,,,,,,60,001,22,w,Psychologie,2023-01-24_15h06.37.548,00_bat_bachelor,2022.2.4,59.95665672711451,
,,,,1,0,1,0,3,0,3,0,,,,,,,,,,,,,,,3,307.4062473787926,307.60661033689394,0.2,307.60661033689394,Y,l,go,d,0,0.2924193171202205,,,,,,,,,,,,,,,,,,60,001,22,w,Psychologie,2023-01-24_15h06.37.548,00_bat_bachelor,2022.2.4,59.95665672711451,
,,,,1,0,1,0,4,0,4,0,,,,,,,,,,,,,,,4,308.6074122774444,308.8075148715434,0.2,308.8075148715434,X,d,go,d,1,0.339358052064199,,,,,,,,,,,,,,,,,,60,001,22,w,Psychologie,2023-01-24_15h06.37.548,00_bat_bachelor,2022.2.4,59.95665672711451,
,,,,1,0,1,0,5,0,5,0,,,,,,,,,,,,,,,5,309.85842258195044,310.0583210545301,0.2,310.0583210545301,Y,l,go,l,1,0.3529949203802971,,,,,,,,,,,,,,,,,,60,001,22,w,Psychologie,2023-01-24_15h06.37.548,00_bat_bachelor,2022.2.4,59.95665672711451,
,,,,1,0,1,0,6,0,6,0,,,,,,,,,,,,,,,6,311.1259948499355,311.3259747771808,0.2,311.3259747771808,Y,None,nogo,l,0,0.34859442913148087,,,,,,,,,,,,,,,,,,60,001,22,w,Psychologie,2023-01-24_15h06.37.548,00_bat_bachelor,2022.2.4,59.95665672711451,
,,,,1,0,1,0,7,0,7,0,,,,,,,,,,,,,,,7,312.7939963064273,312.99419393095013,0.2,312.99419393095013,X,d,go,d,1,0.31268746781279333,,,,,,,,,,,,,,,,,,60,001,22,w,Psychologie,2023-01-24_15h06.37.548,00_bat_bachelor,2022.2.4,59.95665672711451,
,,,,1,0,1,0,8,0,8,0,,,,,,,,,,,,,,,8,314.01136050137575,314.21163473208435,0.2,314.21163473208435,Y,l,go,l,1,0.2954462306079222,,,,,,,,,,,,,,,,,,60,001,22,w,Psychologie,2023-01-24_15h06.37.548,00_bat_bachelor,2022.2.4,59.95665672711451,
,,,,1,0,1,0,9,0,9,0,,,,,,,,,,,,,,,9,315.21239643015724,315.41239138772653,0.2,315.41239138772653,X,d,go,None,0,,316.2132415222877,,,,,,,,,,,,,,,,,60,001,22,w,Psychologie,2023-01-24_15h06.37.548,00_bat_bachelor,2022.2.4,59.95665672711451,
,,,,1,0,1,0,10,0,10,0,,,,,,,,,,,,,,,10,316.81337766794604,317.0132877769065,0.2,317.0132877769065,X,None,nogo,d,0,0.4375351645576302,,,,,,,,,,,,,,,,,,60,001,22,w,Psychologie,2023-01-24_15h06.37.548,00_bat_bachelor,2022.2.4,59.95665672711451,
,,,,1,0,1,0,11,0,11,0,,,,,,,,,,,,,,,11,318.5647193668701,318.76481711246015,0.2,318.76481711246015,Y,l,go,None,0,,319.5652478524862,,,,,,,,,,,,,,,,,60,001,22,w,Psychologie,2023-01-24_15h06.37.548,00_bat_bachelor,2022.2.4,59.95665672711451,
,,,,1,0,1,0,12,0,12,0,,,,,,,,,,,,,,,12,320.1656875137269,320.3658613806474,0.2,320.3658613806474,X,d,go,d,1,0.3487418232834898,,,,,,,,,,,,,,,,,,60,001,22,w,Psychologie,2023-01-24_15h06.37.548,00_bat_bachelor,2022.2.4,59.95665672711451,
,,,,1,0,1,0,13,0,13,0,,,,,,,,,,,,,,,13,321.4166284847888,321.6170234429446,0.2,321.6170234429446,Y,l,go,None,0,,,,,,,,,,,,,,,,,,,60,001,22,w,Psychologie,2023-01-24_15h06.37.548,00_bat_bachelor,2022.2.4,59.95665672711451,
,,,,1,0,1,0,14,0,14,0,,,,,,,,,,,,,,,14,323.01864923925314,323.219009288252,0.2,323.219009288252,Y,None,nogo,None,1,,324.02124172786716,,,,,,,,,,,,,,,,,60,001,22,w,Psychologie,2023-01-24_15h06.37.548,00_bat_bachelor,2022.2.4,59.95665672711451,
,,,,,,,,,,,,,,,,,,,,,,,,,,,,,,,,,,,,,,324.6856436639646,None,,324.6856436639646,324.6856436639646,space,8.112197964073857,,,,,,,,,,60,001,22,w,Psychologie,2023-01-24_15h06.37.548,00_bat_bachelor,2022.2.4,59.95665672711451,
,,,,,,,,,,,,0,0,0,0,0,0,0,0,,,,,,,0,,,1,333.8264981718821,X,d,go,d,1,0.21618938805477228,,,,,,,,,,,,,,,,,,60,001,22,w,Psychologie,2023-01-24_15h06.37.548,00_bat_bachelor,2022.2.4,59.95665672711451,
,,,,,,,,,,,,0,0,0,0,1,0,1,0,,,,,,,1,,,1,335.1439769366989,Y,l,go,l,1,0.19536899412923958,,,,,,,,,,,,,,,,,,60,001,22,w,Psychologie,2023-01-24_15h06.37.548,00_bat_bachelor,2022.2.4,59.95665672711451,
,,,,,,,,,,,,0,0,0,0,2,0,2,0,,,,,,,2,,,1,336.4449795563414,X,d,go,d,1,0.2061874341161456,,,,,,,,,,,,,,,,,,60,001,22,w,Psychologie,2023-01-24_15h06.37.548,00_bat_bachelor,2022.2.4,59.95665672711451,
,,,,,,,,,,,,0,0,0,0,3,0,3,0,,,,,,,3,,,1,337.7635017166176,Y,l,go,l,1,0.21522065937460866,,,,,,,,,,,,,,,,,,60,001,22,w,Psychologie,2023-01-24_15h06.37.548,00_bat_bachelor,2022.2.4,59.95665672711451,
,,,,,,,,,,,,0,0,0,0,4,0,4,0,,,,,,,4,,,1,339.09771553607425,X,d,go,d,1,0.22483570365875494,,,,,,,,,,,,,,,,,,60,001,22,w,Psychologie,2023-01-24_15h06.37.548,00_bat_bachelor,2022.2.4,59.95665672711451,
,,,,,,,,,,,,0,0,0,0,5,0,5,0,,,,,,,5,,,1,340.4486008949316,Y,l,go,l,1,0.37905265524750575,,,,,,,,,,,,,,,,,,60,001,22,w,Psychologie,2023-01-24_15h06.37.548,00_bat_bachelor,2022.2.4,59.95665672711451,
,,,,,,,,,,,,0,0,0,0,6,0,6,0,,,,,,,6,,,1,341.9333012363204,X,d,go,d,1,0.28636936892871745,,,,,,,,,,,,,,,,,,60,001,22,w,Psychologie,2023-01-24_15h06.37.548,00_bat_bachelor,2022.2.4,59.95665672711451,
,,,,,,,,,,,,0,0,0,0,7,0,7,0,,,,,,,7,,,1,343.35086063155904,X,None,nogo,l,0,0.2272856466297526,,,,,,,,,,,,,,,,,,60,001,22,w,Psychologie,2023-01-24_15h06.37.548,00_bat_bachelor,2022.2.4,59.95665672711451,
,,,,,,,,,,,,0,0,0,0,8,0,8,0,,,,,,,8,,,1,344.7020693848317,Y,l,go,l,1,0.41281415890261997,,,,,,,,,,,,,,,,,,60,001,22,w,Psychologie,2023-01-24_15h06.37.548,00_bat_bachelor,2022.2.4,59.95665672711451,
,,,,,,,,,,,,0,0,0,0,9,0,9,0,,,,,,,9,,,1,346.23658313200576,X,d,go,d,1,0.35054594711982645,,,,,,,,,,,,,,,,,,60,001,22,w,Psychologie,2023-01-24_15h06.37.548,00_bat_bachelor,2022.2.4,59.95665672711451,
,,,,,,,,,,,,0,0,0,0,10,0,10,0,,,,,,,10,,,1,347.7043903579033,Y,l,go,l,1,0.3545246195717482,,,,,,,,,,,,,,,,,,60,001,22,w,Psychologie,2023-01-24_15h06.37.548,00_bat_bachelor,2022.2.4,59.95665672711451,
,,,,,,,,,,,,0,0,0,0,11,0,11,0,,,,,,,11,,,1,349.1888773656392,Y,None,nogo,l,0,0.35788074566517025,,,,,,,,,,,,,,,,,,60,001,22,w,Psychologie,2023-01-24_15h06.37.548,00_bat_bachelor,2022.2.4,59.95665672711451,
,,,,,,,,,,,,0,0,0,0,12,0,12,0,,,,,,,12,,,1,350.68971736686944,X,d,go,d,1,0.37684319748950657,,,,,,,,,,,,,,,,,,60,001,22,w,Psychologie,2023-01-24_15h06.37.548,00_bat_bachelor,2022.2.4,59.95665672711451,
,,,,,,,,,,,,0,0,0,0,13,0,13,0,,,,,,,13,,,1,352.20757557466277,Y,l,go,l,1,0.28256863613205496,,,,,,,,,,,,,,,,,,60,001,22,w,Psychologie,2023-01-24_15h06.37.548,00_bat_bachelor,2022.2.4,59.95665672711451,
,,,,,,,,,,,,0,0,0,0,14,0,14,0,,,,,,,14,,,1,353.64145111484686,Y,None,nogo,None,1,,,,,,,,,,,,,,,,,,,60,001,22,w,Psychologie,2023-01-24_15h06.37.548,00_bat_bachelor,2022.2.4,59.95665672711451,
,,,,,,,,,,,,0,0,0,0,15,0,15,0,,,,,,,15,,,1,355.442942704889,X,d,go,d,1,0.2807926335372031,,,,,,,,,,,,,,,,,,60,001,22,w,Psychologie,2023-01-24_15h06.37.548,00_bat_bachelor,2022.2.4,59.95665672711451,
,,,,,,,,,,,,0,0,0,0,16,0,16,0,,,,,,,16,,,1,356.8278029010544,Y,l,go,l,1,0.30324357528297696,,,,,,,,,,,,,,,,,,60,001,22,w,Psychologie,2023-01-24_15h06.37.548,00_bat_bachelor,2022.2.4,59.95665672711451,
,,,,,,,,,,,,0,0,0,0,17,0,17,0,,,,,,,17,,,1,358.2623334724922,Y,None,nogo,None,1,,359.0632757284038,,,,,,,,,,,,,,,,,60,001,22,w,Psychologie,2023-01-24_15h06.37.548,00_bat_bachelor,2022.2.4,59.95665672711451,
,,,,,,,,,,,,0,0,0,0,18,0,18,0,,,,,,,18,,,1,360.0638134261535,Y,None,nogo,None,1,,360.86462428794766,,,,,,,,,,,,,,,,,60,001,22,w,Psychologie,2023-01-24_15h06.37.548,00_bat_bachelor,2022.2.4,59.95665672711451,
,,,,,,,,,,,,0,0,0,0,19,0,19,0,,,,,,,19,,,1,361.8649685308628,X,d,go,d,1,0.3692839137656847,,,,,,,,,,,,,,,,,,60,001,22,w,Psychologie,2023-01-24_15h06.37.548,00_bat_bachelor,2022.2.4,59.95665672711451,
,,,,,,,,,,,,0,0,0,0,20,0,20,0,,,,,,,20,,,1,363.36643447239476,Y,l,go,l,1,0.34132169127406087,,,,,,,,,,,,,,,,,,60,001,22,w,Psychologie,2023-01-24_15h06.37.548,00_bat_bachelor,2022.2.4,59.95665672711451,
,,,,,,,,,,,,0,0,0,0,21,0,21,0,,,,,,,21,,,1,364.8341175769019,Y,None,nogo,None,1,,365.6348940143944,,,,,,,,,,,,,,,,,60,001,22,w,Psychologie,2023-01-24_15h06.37.548,00_bat_bachelor,2022.2.4,59.95665672711451,
,,,,,,,,,,,,0,0,0,0,22,0,22,0,,,,,,,22,,,1,366.6352595906792,X,d,go,d,1,0.3362016838218551,,,,,,,,,,,,,,,,,,60,001,22,w,Psychologie,2023-01-24_15h06.37.548,00_bat_bachelor,2022.2.4,59.95665672711451,
,,,,,,,,,,,,0,0,0,0,23,0,23,0,,,,,,,23,,,1,368.08637394382094,Y,l,go,l,1,0.43590267733088695,,,,,,,,,,,,,,,,,,60,001,22,w,Psychologie,2023-01-24_15h06.37.548,00_bat_bachelor,2022.2.4,59.95665672711451,
,,,,,,,,,,,,0,0,0,0,24,0,24,0,,,,,,,24,,,1,369.65425889105245,Y,None,nogo,None,1,,370.4548181161081,,,,,,,,,,,,,,,,,60,001,22,w,Psychologie,2023-01-24_15h06.37.548,00_bat_bachelor,2022.2.4,59.95665672711451,
,,,,,,,,,,,,0,0,0,0,25,0,25,0,,,,,,,25,,,1,371.45543920791533,X,d,go,d,1,0.34758933675766457,,,,,,,,,,,,,,,,,,60,001,22,w,Psychologie,2023-01-24_15h06.37.548,00_bat_bachelor,2022.2.4,59.95665672711451,
,,,,,,,,,,,,0,0,0,0,26,0,26,0,,,,,,,26,,,1,372.90659865202906,Y,l,go,l,1,0.23949851287761703,,,,,,,,,,,,,,,,,,60,001,22,w,Psychologie,2023-01-24_15h06.37.548,00_bat_bachelor,2022.2.4,59.95665672711451,
,,,,,,,,,,,,0,0,0,0,27,0,27,0,,,,,,,27,,,1,374.27438100516156,X,d,go,d,1,0.34536436382040847,,,,,,,,,,,,,,,,,,60,001,22,w,Psychologie,2023-01-24_15h06.37.548,00_bat_bachelor,2022.2.4,59.95665672711451,
,,,,,,,,,,,,0,0,0,0,28,0,28,0,,,,,,,28,,,1,375.7420519884472,Y,l,go,l,1,0.46110174429486506,,,,,,,,,,,,,,,,,,60,001,22,w,Psychologie,2023-01-24_15h06.37.548,00_bat_bachelor,2022.2.4,59.95665672711451,
,,,,,,,,,,,,0,0,0,0,29,0,29,0,,,,,,,29,,,1,377.3101958451298,X,d,go,l,0,0.3498516430845484,,,,,,,,,,,,,,,,,,60,001,22,w,Psychologie,2023-01-24_15h06.37.548,00_bat_bachelor,2022.2.4,59.95665672711451,
,,,,,,,,,,,,0,0,0,0,30,0,30,0,,,,,,,30,,,1,378.76119577387,X,None,nogo,d,0,0.3220455420232611,,,,,,,,,,,,,,,,,,60,001,22,w,Psychologie,2023-01-24_15h06.37.548,00_bat_bachelor,2022.2.4,59.95665672711451,
,,,,,,,,,,,,0,0,0,0,31,0,31,0,,,,,,,31,,,1,380.1954325266852,Y,l,go,l,1,0.34276945095916744,,,,,,,,,,,,,,,,,,60,001,22,w,Psychologie,2023-01-24_15h06.37.548,00_bat_bachelor,2022.2.4,59.95665672711451,
,,,,,,,,,,,,0,0,0,0,32,0,32,0,,,,,,,32,,,1,381.66341817709326,X,d,go,d,1,0.3798448988236487,,,,,,,,,,,,,,,,,,60,001,22,w,Psychologie,2023-01-24_15h06.37.548,00_bat_bachelor,2022.2.4,59.95665672711451,
,,,,,,,,,,,,0,0,0,0,33,0,33,0,,,,,,,33,,,1,383.1476734269236,X,None,nogo,d,0,0.38318599459307734,,,,,,,,,,,,,,,,,,60,001,22,w,Psychologie,2023-01-24_15h06.37.548,00_bat_bachelor,2022.2.4,59.95665672711451,
,,,,,,,,,,,,0,0,0,0,34,0,34,0,,,,,,,34,,,1,384.63234661675233,Y,l,go,l,1,0.43477976661233697,,,,,,,,,,,,,,,,,,60,001,22,w,Psychologie,2023-01-24_15h06.37.548,00_bat_bachelor,2022.2.4,59.95665672711451,
,,,,,,,,,,,,0,0,0,0,35,0,35,0,,,,,,,35,,,1,386.18356535791827,X,d,go,d,1,0.3077982485847315,,,,,,,,,,,,,,,,,,60,001,22,w,Psychologie,2023-01-24_15h06.37.548,00_bat_bachelor,2022.2.4,59.95665672711451,
,,,,,,,,,,,,0,0,0,0,36,0,36,0,,,,,,,36,,,1,387.6177613834152,X,None,nogo,None,1,,388.41867066959094,,,,,,,,,,,,,,,,,60,001,22,w,Psychologie,2023-01-24_15h06.37.548,00_bat_bachelor,2022.2.4,59.95665672711451,
,,,,,,,,,,,,0,0,0,0,37,0,37,0,,,,,,,37,,,1,389.4191909127694,Y,l,go,l,1,0.31957232631975785,,,,,,,,,,,,,,,,,,60,001,22,w,Psychologie,2023-01-24_15h06.37.548,00_bat_bachelor,2022.2.4,59.95665672711451,
,,,,,,,,,,,,0,0,0,0,38,0,38,0,,,,,,,38,,,1,390.8702853870782,X,d,go,d,1,0.2773152951558586,,,,,,,,,,,,,,,,,,60,001,22,w,Psychologie,2023-01-24_15h06.37.548,00_bat_bachelor,2022.2.4,59.95665672711451,
,,,,,,,,,,,,0,0,0,0,39,0,39,0,,,,,,,39,,,1,392.25462970370427,X,None,nogo,None,1,,393.05524662580865,,,,,,,,,,,,,,,,,60,001,22,w,Psychologie,2023-01-24_15h06.37.548,00_bat_bachelor,2022.2.4,59.95665672711451,
,,,,,,,,,,,,0,0,0,0,40,0,40,0,,,,,,,40,,,1,394.0560325663537,Y,l,go,l,1,0.3550317718327278,,,,,,,,,,,,,,,,,,60,001,22,w,Psychologie,2023-01-24_15h06.37.548,00_bat_bachelor,2022.2.4,59.95665672711451,
,,,,,,,,,,,,0,0,0,0,41,0,41,0,,,,,,,41,,,1,395.5241360351065,X,d,go,d,1,0.6154563930613222,,,,,,,,,,,,,,,,,,60,001,22,w,Psychologie,2023-01-24_15h06.37.548,00_bat_bachelor,2022.2.4,59.95665672711451,
,,,,,,,,,,,,0,0,0,0,42,0,42,0,,,,,,,42,,,1,397.2420827763708,Y,l,go,l,1,0.3538371034228476,,,,,,,,,,,,,,,,,,60,001,22,w,Psychologie,2023-01-24_15h06.37.548,00_bat_bachelor,2022.2.4,59.95665672711451,
,,,,,,,,,,,,0,0,0,0,43,0,43,0,,,,,,,43,,,1,398.709764911182,X,d,go,d,1,0.3729193129838677,,,,,,,,,,,,,,,,,,60,001,22,w,Psychologie,2023-01-24_15h06.37.548,00_bat_bachelor,2022.2.4,59.95665672711451,
,,,,,,,,,,,,0,0,0,0,44,0,44,0,,,,,,,44,,,1,400.2108967916138,Y,l,go,l,1,0.3607020831113914,,,,,,,,,,,,,,,,,,60,001,22,w,Psychologie,2023-01-24_15h06.37.548,00_bat_bachelor,2022.2.4,59.95665672711451,
,,,,,,,,,,,,0,0,0,0,45,0,45,0,,,,,,,45,,,1,401.6785716536833,X,d,go,d,1,0.36518790780974086,,,,,,,,,,,,,,,,,,60,001,22,w,Psychologie,2023-01-24_15h06.37.548,00_bat_bachelor,2022.2.4,59.95665672711451,
,,,,,,,,,,,,0,0,0,0,46,0,46,0,,,,,,,46,,,1,403.1462421521137,Y,l,go,l,1,0.4649785984220216,,,,,,,,,,,,,,,,,,60,001,22,w,Psychologie,2023-01-24_15h06.37.548,00_bat_bachelor,2022.2.4,59.95665672711451,
,,,,,,,,,,,,0,0,0,0,47,0,47,0,,,,,,,47,,,1,404.713809038265,Y,None,nogo,l,0,0.3211650559096597,,,,,,,,,,,,,,,,,,60,001,22,w,Psychologie,2023-01-24_15h06.37.548,00_bat_bachelor,2022.2.4,59.95665672711451,
,,,,,,,,,,,,0,0,0,0,48,0,48,0,,,,,,,48,,,1,406.14897476215265,X,d,go,d,1,0.37432246655225754,,,,,,,,,,,,,,,,,,60,001,22,w,Psychologie,2023-01-24_15h06.37.548,00_bat_bachelor,2022.2.4,59.95665672711451,
,,,,,,,,,,,,0,0,0,0,49,0,49,0,,,,,,,49,,,1,407.650191006338,Y,l,go,l,1,0.4406866843055468,,,,,,,,,,,,,,,,,,60,001,22,w,Psychologie,2023-01-24_15h06.37.548,00_bat_bachelor,2022.2.4,59.95665672711451,
,,,,,,,,,,,,0,0,0,0,50,0,50,0,,,,,,,50,,,1,409.2015716871392,X,d,go,d,1,0.29749326388991904,,,,,,,,,,,,,,,,,,60,001,22,w,Psychologie,2023-01-24_15h06.37.548,00_bat_bachelor,2022.2.4,59.95665672711451,
,,,,,,,,,,,,0,0,0,0,51,0,51,0,,,,,,,51,,,1,410.6187262332969,X,None,nogo,None,1,,411.419333458427,,,,,,,,,,,,,,,,,60,001,22,w,Psychologie,2023-01-24_15h06.37.548,00_bat_bachelor,2022.2.4,59.95665672711451,
,,,,,,,,,,,,0,0,0,0,52,0,52,0,,,,,,,52,,,1,412.4201266716991,Y,l,go,l,1,0.3761934995854972,,,,,,,,,,,,,,,,,,60,001,22,w,Psychologie,2023-01-24_15h06.37.548,00_bat_bachelor,2022.2.4,59.95665672711451,
,,,,,,,,,,,,0,0,0,0,53,0,53,0,,,,,,,53,,,1,413.9048245888407,X,d,go,d,1,0.42647672424209304,,,,,,,,,,,,,,,,,,60,001,22,w,Psychologie,2023-01-24_15h06.37.548,00_bat_bachelor,2022.2.4,59.95665672711451,
,,,,,,,,,,,,0,0,0,0,54,0,54,0,,,,,,,54,,,1,415.43908863868273,X,None,nogo,None,1,,416.2397123486735,,,,,,,,,,,,,,,,,60,001,22,w,Psychologie,2023-01-24_15h06.37.548,00_bat_bachelor,2022.2.4,59.95665672711451,
,,,,,,,,,,,,0,0,0,0,55,0,55,0,,,,,,,55,,,1,417.2405026528577,Y,l,go,l,1,0.3389900515176123,,,,,,,,,,,,,,,,,,60,001,22,w,Psychologie,2023-01-24_15h06.37.548,00_bat_bachelor,2022.2.4,59.95665672711451,
,,,,,,,,,,,,0,0,0,0,56,0,56,0,,,,,,,56,,,1,418.6915597937914,X,d,go,d,1,0.5355493677197956,,,,,,,,,,,,,,,,,,60,001,22,w,Psychologie,2023-01-24_15h06.37.548,00_bat_bachelor,2022.2.4,59.95665672711451,
,,,,,,,,,,,,0,0,0,0,57,0,57,0,,,,,,,57,,,1,420.34265698326635,X,None,nogo,None,1,,421.1432666326291,,,,,,,,,,,,,,,,,60,001,22,w,Psychologie,2023-01-24_15h06.37.548,00_bat_bachelor,2022.2.4,59.95665672711451,
,,,,,,,,,,,,0,0,0,0,58,0,58,0,,,,,,,58,,,1,422.1440661489469,Y,l,go,l,1,0.36314669271814637,,,,,,,,,,,,,,,,,,60,001,22,w,Psychologie,2023-01-24_15h06.37.548,00_bat_bachelor,2022.2.4,59.95665672711451,
,,,,,,,,,,,,0,0,0,0,59,0,59,0,,,,,,,59,,,1,423.61188452638453,X,d,go,d,1,0.41561901147360913,,,,,,,,,,,,,,,,,,60,001,22,w,Psychologie,2023-01-24_15h06.37.548,00_bat_bachelor,2022.2.4,59.95665672711451,
,,,,,,,,,,,,0,0,0,0,60,0,60,0,,,,,,,60,,,1,425.129822249437,X,None,nogo,None,1,,425.930253959159,,,,,,,,,,,,,,,,,60,001,22,w,Psychologie,2023-01-24_15h06.37.548,00_bat_bachelor,2022.2.4,59.95665672711451,
,,,,,,,,,,,,0,0,0,0,61,0,61,0,,,,,,,61,,,1,426.93123723332246,Y,l,go,l,1,0.3287500366277527,,,,,,,,,,,,,,,,,,60,001,22,w,Psychologie,2023-01-24_15h06.37.548,00_bat_bachelor,2022.2.4,59.95665672711451,
,,,,,,,,,,,,0,0,0,0,62,0,62,0,,,,,,,62,,,1,428.3654681679618,X,d,go,d,1,0.36529457462893333,,,,,,,,,,,,,,,,,,60,001,22,w,Psychologie,2023-01-24_15h06.37.548,00_bat_bachelor,2022.2.4,59.95665672711451,
,,,,,,,,,,,,0,0,0,0,63,0,63,0,,,,,,,63,,,1,429.83343830319063,Y,l,go,l,1,0.3538041336723836,,,,,,,,,,,,,,,,,,60,001,22,w,Psychologie,2023-01-24_15h06.37.548,00_bat_bachelor,2022.2.4,59.95665672711451,
,,,,,,,,,,,,0,0,0,0,64,0,64,0,,,,,,,64,,,1,431.3011800744425,Y,None,nogo,None,1,,432.10177420864056,,,,,,,,,,,,,,,,,60,001,22,w,Psychologie,2023-01-24_15h06.37.548,00_bat_bachelor,2022.2.4,59.95665672711451,
,,,,,,,,,,,,0,0,0,0,65,0,65,0,,,,,,,65,,,1,433.10237784589117,X,d,go,d,1,0.2845109419868095,,,,,,,,,,,,,,,,,,60,001,22,w,Psychologie,2023-01-24_15h06.37.548,00_bat_bachelor,2022.2.4,59.95665672711451,
,,,,,,,,,,,,0,0,0,0,66,0,66,0,,,,,,,66,,,1,434.503476126265,Y,l,go,l,1,0.3714967654668726,,,,,,,,,,,,,,,,,,60,001,22,w,Psychologie,2023-01-24_15h06.37.548,00_bat_bachelor,2022.2.4,59.95665672711451,
,,,,,,,,,,,,0,0,0,0,67,0,67,0,,,,,,,67,,,1,436.00480970396893,X,d,go,d,1,0.39062697511690203,,,,,,,,,,,,,,,,,,60,001,22,w,Psychologie,2023-01-24_15h06.37.548,00_bat_bachelor,2022.2.4,59.95665672711451,
,,,,,,,,,,,,0,0,0,0,68,0,68,0,,,,,,,68,,,1,437.5224216083734,X,None,nogo,None,1,,438.323276591429,,,,,,,,,,,,,,,,,60,001,22,w,Psychologie,2023-01-24_15h06.37.548,00_bat_bachelor,2022.2.4,59.95665672711451,
,,,,,,,,,,,,0,0,0,0,69,0,69,0,,,,,,,69,,,1,439.3240605925821,Y,l,go,l,1,0.49564240059407894,,,,,,,,,,,,,,,,,,60,001,22,w,Psychologie,2023-01-24_15h06.37.548,00_bat_bachelor,2022.2.4,59.95665672711451,
,,,,,,,,,,,,0,0,0,0,70,0,70,0,,,,,,,70,,,1,440.92526728524535,X,d,go,d,1,0.38189871999202296,,,,,,,,,,,,,,,,,,60,001,22,w,Psychologie,2023-01-24_15h06.37.548,00_bat_bachelor,2022.2.4,59.95665672711451,
,,,,,,,,,,,,0,0,0,0,71,0,71,0,,,,,,,71,,,1,442.4096578079916,X,None,nogo,None,1,,443.21037266963685,,,,,,,,,,,,,,,,,60,001,22,w,Psychologie,2023-01-24_15h06.37.548,00_bat_bachelor,2022.2.4,59.95665672711451,
,,,,,,,,,,,,0,0,0,0,72,0,72,0,,,,,,,72,,,1,444.21109024643374,Y,l,go,l,1,0.3439878769713687,,,,,,,,,,,,,,,,,,60,001,22,w,Psychologie,2023-01-24_15h06.37.548,00_bat_bachelor,2022.2.4,59.95665672711451,
,,,,,,,,,,,,0,0,0,0,73,0,73,0,,,,,,,73,,,1,445.66215320555784,X,d,go,d,1,0.38122623416711576,,,,,,,,,,,,,,,,,,60,001,22,w,Psychologie,2023-01-24_15h06.37.548,00_bat_bachelor,2022.2.4,59.95665672711451,
,,,,,,,,,,,,0,0,0,0,74,0,74,0,,,,,,,74,,,1,447.14647924336896,Y,l,go,l,1,0.352431525621796,,,,,,,,,,,,,,,,,,60,001,22,w,Psychologie,2023-01-24_15h06.37.548,00_bat_bachelor,2022.2.4,59.95665672711451,
,,,,,,,,,,,,0,0,0,0,75,0,75,0,,,,,,,75,,,1,448.614435802825,X,d,go,d,1,0.38881169975502416,,,,,,,,,,,,,,,,,,60,001,22,w,Psychologie,2023-01-24_15h06.37.548,00_bat_bachelor,2022.2.4,59.95665672711451,
,,,,,,,,,,,,0,0,0,0,76,0,76,0,,,,,,,76,,,1,450.1155618650664,X,None,nogo,None,1,,450.9161637568468,,,,,,,,,,,,,,,,,60,001,22,w,Psychologie,2023-01-24_15h06.37.548,00_bat_bachelor,2022.2.4,59.95665672711451,
,,,,,,,,,,,,0,0,0,0,77,0,77,0,,,,,,,77,,,1,451.9168604851293,Y,l,go,l,1,0.28589615611417685,,,,,,,,,,,,,,,,,,60,001,22,w,Psychologie,2023-01-24_15h06.37.548,00_bat_bachelor,2022.2.4,59.95665672711451,
,,,,,,,,,,,,0,0,0,0,78,0,78,0,,,,,,,78,,,1,453.31799803829927,X,d,go,d,1,0.3892820034525357,,,,,,,,,,,,,,,,,,60,001,22,w,Psychologie,2023-01-24_15h06.37.548,00_bat_bachelor,2022.2.4,59.95665672711451,
,,,,,,,,,,,,0,0,0,0,79,0,79,0,,,,,,,79,,,1,454.81916240362625,Y,l,go,l,1,0.3908320663322229,,,,,,,,,,,,,,,,,,60,001,22,w,Psychologie,2023-01-24_15h06.37.548,00_bat_bachelor,2022.2.4,59.95665672711451,
,,,,,,,,,,,,0,0,0,0,80,0,80,0,,,,,,,80,,,1,456.33681358082686,X,d,go,d,1,0.3306511303089792,,,,,,,,,,,,,,,,,,60,001,22,w,Psychologie,2023-01-24_15h06.37.548,00_bat_bachelor,2022.2.4,59.95665672711451,
,,,,,,,,,,,,0,0,0,0,81,0,81,0,,,,,,,81,,,1,457.77126415215025,Y,l,go,l,1,0.3202932970452821,,,,,,,,,,,,,,,,,,60,001,22,w,Psychologie,2023-01-24_15h06.37.548,00_bat_bachelor,2022.2.4,59.95665672711451,
,,,,,,,,,,,,0,0,0,0,82,0,82,0,,,,,,,82,,,1,459.20579714783526,Y,None,nogo,None,1,,460.00641891843406,,,,,,,,,,,,,,,,,60,001,22,w,Psychologie,2023-01-24_15h06.37.548,00_bat_bachelor,2022.2.4,59.95665672711451,
,,,,,,,,,,,,0,0,0,0,83,0,83,0,,,,,,,83,,,1,461.0072058286605,X,d,go,d,1,0.3479166099568829,,,,,,,,,,,,,,,,,,60,001,22,w,Psychologie,2023-01-24_15h06.37.548,00_bat_bachelor,2022.2.4,59.95665672711451,
,,,,,,,,,,,,0,0,0,0,84,0,84,0,,,,,,,84,,,1,462.4584525456303,Y,l,go,l,1,0.27246195476618595,,,,,,,,,,,,,,,,,,60,001,22,w,Psychologie,2023-01-24_15h06.37.548,00_bat_bachelor,2022.2.4,59.95665672711451,
,,,,,,,,,,,,0,0,0,0,85,0,85,0,,,,,,,85,,,1,463.8427837713243,X,d,go,d,1,0.29584720089042094,,,,,,,,,,,,,,,,,,60,001,22,w,Psychologie,2023-01-24_15h06.37.548,00_bat_bachelor,2022.2.4,59.95665672711451,
,,,,,,,,,,,,0,0,0,0,86,0,86,0,,,,,,,86,,,1,465.2604958940501,Y,l,go,l,1,0.31954953839886,,,,,,,,,,,,,,,,,,60,001,22,w,Psychologie,2023-01-24_15h06.37.548,00_bat_bachelor,2022.2.4,59.95665672711451,
,,,,,,,,,,,,0,0,0,0,87,0,87,0,,,,,,,87,,,1,466.69495034417196,X,d,go,d,1,0.30841740100004245,,,,,,,,,,,,,,,,,,60,001,22,w,Psychologie,2023-01-24_15h06.37.548,00_bat_bachelor,2022.2.4,59.95665672711451,
,,,,,,,,,,,,0,0,0,0,88,0,88,0,,,,,,,88,,,1,468.11244670901215,X,None,nogo,l,0,0.28213033245992847,,,,,,,,,,,,,,,,,,60,001,22,w,Psychologie,2023-01-24_15h06.37.548,00_bat_bachelor,2022.2.4,59.95665672711451,
,,,,,,,,,,,,0,0,0,0,89,0,89,0,,,,,,,89,,,1,469.51371080781973,Y,l,go,l,1,0.3541488614573609,,,,,,,,,,,,,,,,,,60,001,22,w,Psychologie,2023-01-24_15h06.37.548,00_bat_bachelor,2022.2.4,59.95665672711451,
,,,,,,,,,,,,0,0,0,0,90,0,90,0,,,,,,,90,,,1,470.9815640943998,X,d,go,d,1,0.29341034886601847,,,,,,,,,,,,,,,,,,60,001,22,w,Psychologie,2023-01-24_15h06.37.548,00_bat_bachelor,2022.2.4,59.95665672711451,
,,,,,,,,,,,,0,0,0,0,91,0,91,0,,,,,,,91,,,1,472.3826172838162,Y,l,go,l,1,0.380279323697323,,,,,,,,,,,,,,,,,,60,001,22,w,Psychologie,2023-01-24_15h06.37.548,00_bat_bachelor,2022.2.4,59.95665672711451,
,,,,,,,,,,,,0,0,0,0,92,0,92,0,,,,,,,92,,,1,473.88351207299274,X,d,go,d,1,0.3681770030671032,,,,,,,,,,,,,,,,,,60,001,22,w,Psychologie,2023-01-24_15h06.37.548,00_bat_bachelor,2022.2.4,59.95665672711451,
,,,,,,,,,,,,0,0,0,0,93,0,93,0,,,,,,,93,,,1,475.36823811137583,Y,l,go,l,1,0.354828620023909,,,,,,,,,,,,,,,,,,60,001,22,w,Psychologie,2023-01-24_15h06.37.548,00_bat_bachelor,2022.2.4,59.95665672711451,
,,,,,,,,,,,,0,0,0,0,94,0,94,0,,,,,,,94,,,1,476.8360021857079,X,d,go,d,1,0.3439752708945889,,,,,,,,,,,,,,,,,,60,001,22,w,Psychologie,2023-01-24_15h06.37.548,00_bat_bachelor,2022.2.4,59.95665672711451,
,,,,,,,,,,,,0,0,0,0,95,0,95,0,,,,,,,95,,,1,478.287081144852,Y,l,go,l,1,0.3642211185215274,,,,,,,,,,,,,,,,,,60,001,22,w,Psychologie,2023-01-24_15h06.37.548,00_bat_bachelor,2022.2.4,59.95665672711451,
,,,,,,,,,,,,0,0,0,0,96,0,96,0,,,,,,,96,,,1,479.7548660676839,Y,None,nogo,None,1,,480.55553292926925,,,,,,,,,,,,,,,,,60,001,22,w,Psychologie,2023-01-24_15h06.37.548,00_bat_bachelor,2022.2.4,59.95665672711451,
,,,,,,,,,,,,0,0,0,0,97,0,97,0,,,,,,,97,,,1,481.5560686876124,X,d,go,d,1,0.3914851581939729,,,,,,,,,,,,,,,,,,60,001,22,w,Psychologie,2023-01-24_15h06.37.548,00_bat_bachelor,2022.2.4,59.95665672711451,
,,,,,,,,,,,,0,0,0,0,98,0,98,0,,,,,,,98,,,1,483.05716274981387,Y,l,go,l,1,0.45736743582529016,,,,,,,,,,,,,,,,,,60,001,22,w,Psychologie,2023-01-24_15h06.37.548,00_bat_bachelor,2022.2.4,59.95665672711451,
,,,,,,,,,,,,0,0,0,0,99,0,99,0,,,,,,,99,,,1,484.6251296365517,X,d,go,d,1,0.3460979406518163,,,,,,,,,,,,,,,,,,60,001,22,w,Psychologie,2023-01-24_15h06.37.548,00_bat_bachelor,2022.2.4,59.95665672711451,
,,,,,,,,,,,,0,0,0,0,100,0,100,0,,,,,,,100,,,1,486.07639477778866,X,None,nogo,None,1,,486.87712370006193,,,,,,,,,,,,,,,,,60,001,22,w,Psychologie,2023-01-24_15h06.37.548,00_bat_bachelor,2022.2.4,59.95665672711451,
,,,,,,,,,,,,0,0,0,0,101,0,101,0,,,,,,,101,,,1,487.8778165495605,Y,l,go,l,1,0.6619660364522133,,,,,,,,,,,,,,,,,,60,001,22,w,Psychologie,2023-01-24_15h06.37.548,00_bat_bachelor,2022.2.4,59.95665672711451,
,,,,,,,,,,,,0,0,0,0,102,0,102,0,,,,,,,102,,,1,489.6457943938876,X,d,go,d,1,0.3327854364324594,,,,,,,,,,,,,,,,,,60,001,22,w,Psychologie,2023-01-24_15h06.37.548,00_bat_bachelor,2022.2.4,59.95665672711451,
,,,,,,,,,,,,0,0,0,0,103,0,103,0,,,,,,,103,,,1,491.09686801969656,Y,l,go,l,1,0.4180054391908925,,,,,,,,,,,,,,,,,,60,001,22,w,Psychologie,2023-01-24_15h06.37.548,00_bat_bachelor,2022.2.4,59.95665672711451,
,,,,,,,,,,,,0,0,0,0,104,0,104,0,,,,,,,104,,,1,492.63132697889523,X,d,go,d,1,0.3558695912361145,,,,,,,,,,,,,,,,,,60,001,22,w,Psychologie,2023-01-24_15h06.37.548,00_bat_bachelor,2022.2.4,59.95665672711451,
,,,,,,,,,,,,0,0,0,0,105,0,105,0,,,,,,,105,,,1,494.09912887145765,Y,l,go,l,1,0.32831900569726713,,,,,,,,,,,,,,,,,,60,001,22,w,Psychologie,2023-01-24_15h06.37.548,00_bat_bachelor,2022.2.4,59.95665672711451,
,,,,,,,,,,,,0,0,0,0,106,0,106,0,,,,,,,106,,,1,495.53337532127625,Y,None,nogo,None,1,,496.3340242434351,,,,,,,,,,,,,,,,,60,001,22,w,Psychologie,2023-01-24_15h06.37.548,00_bat_bachelor,2022.2.4,59.95665672711451,
,,,,,,,,,,,,0,0,0,0,107,0,107,0,,,,,,,107,,,1,497.3348014566873,X,d,go,d,1,0.3084314616135089,,,,,,,,,,,,,,,,,,60,001,22,w,Psychologie,2023-01-24_15h06.37.548,00_bat_bachelor,2022.2.4,59.95665672711451,
,,,,,,,,,,,,0,0,0,0,108,0,108,0,,,,,,,108,,,1,498.7527700646315,Y,l,go,l,1,0.3473420636728406,,,,,,,,,,,,,,,,,,60,001,22,w,Psychologie,2023-01-24_15h06.37.548,00_bat_bachelor,2022.2.4,59.95665672711451,
,,,,,,,,,,,,0,0,0,0,109,0,109,0,,,,,,,109,,,1,500.20386502381007,X,d,go,d,1,0.4485145744693,,,,,,,,,,,,,,,,,,60,001,22,w,Psychologie,2023-01-24_15h06.37.548,00_bat_bachelor,2022.2.4,59.95665672711451,
,,,,,,,,,,,,0,0,0,0,110,0,110,0,,,,,,,110,,,1,501.75497661330155,Y,l,go,l,1,0.2397690587094985,,,,,,,,,,,,,,,,,,60,001,22,w,Psychologie,2023-01-24_15h06.37.548,00_bat_bachelor,2022.2.4,59.95665672711451,
,,,,,,,,,,,,0,0,0,0,111,0,111,0,,,,,,,111,,,1,503.1228360574605,Y,None,nogo,None,1,,503.9233414642513,,,,,,,,,,,,,,,,,60,001,22,w,Psychologie,2023-01-24_15h06.37.548,00_bat_bachelor,2022.2.4,59.95665672711451,
,,,,,,,,,,,,0,0,0,0,112,0,112,0,,,,,,,112,,,1,504.92412449569383,X,d,go,d,1,0.2870699759951094,,,,,,,,,,,,,,,,,,60,001,22,w,Psychologie,2023-01-24_15h06.37.548,00_bat_bachelor,2022.2.4,59.95665672711451,
,,,,,,,,,,,,0,0,0,0,113,0,113,0,,,,,,,113,,,1,506.32521841244306,Y,l,go,l,1,0.24648906849324703,,,,,,,,,,,,,,,,,,60,001,22,w,Psychologie,2023-01-24_15h06.37.548,00_bat_bachelor,2022.2.4,59.95665672711451,
,,,,,,,,,,,,0,0,0,0,114,0,114,0,,,,,,,114,,,1,507.675980619606,Y,None,nogo,None,1,,508.47686469362816,,,,,,,,,,,,,,,,,60,001,22,w,Psychologie,2023-01-24_15h06.37.548,00_bat_bachelor,2022.2.4,59.95665672711451,
,,,,,,,,,,,,0,0,0,0,115,0,115,0,,,,,,,115,,,1,509.4774324520258,X,d,go,d,1,0.229869892806164,,,,,,,,,,,,,,,,,,60,001,22,w,Psychologie,2023-01-24_15h06.37.548,00_bat_bachelor,2022.2.4,59.95665672711451,
,,,,,,,,,,,,0,0,0,0,116,0,116,0,,,,,,,116,,,1,510.8119211809826,Y,l,go,l,1,0.31943608369329013,,,,,,,,,,,,,,,,,,60,001,22,w,Psychologie,2023-01-24_15h06.37.548,00_bat_bachelor,2022.2.4,59.95665672711451,
,,,,,,,,,,,,0,0,0,0,117,0,117,0,,,,,,,117,,,1,512.246388722022,Y,None,nogo,None,1,,513.0469542501232,,,,,,,,,,,,,,,,,60,001,22,w,Psychologie,2023-01-24_15h06.37.548,00_bat_bachelor,2022.2.4,59.95665672711451,
,,,,,,,,,,,,0,0,0,0,118,0,118,0,,,,,,,118,,,1,514.0475884328625,X,d,go,d,1,0.3792970192444045,,,,,,,,,,,,,,,,,,60,001,22,w,Psychologie,2023-01-24_15h06.37.548,00_bat_bachelor,2022.2.4,59.95665672711451,
,,,,,,,,,,,,0,0,0,0,119,0,119,0,,,,,,,119,,,1,515.5324361683888,Y,l,go,l,1,0.3672194259124808,,,,,,,,,,,,,,,,,,60,001,22,w,Psychologie,2023-01-24_15h06.37.548,00_bat_bachelor,2022.2.4,59.95665672711451,
,,,,,,,,,,,,0,0,0,0,120,0,120,0,,,,,,,120,,,1,516.9998429088591,X,d,go,d,1,0.3076750968757551,,,,,,,,,,,,,,,,,,60,001,22,w,Psychologie,2023-01-24_15h06.37.548,00_bat_bachelor,2022.2.4,59.95665672711451,
,,,,,,,,,,,,0,0,0,0,121,0,121,0,,,,,,,121,,,1,518.4178056986275,Y,l,go,l,1,0.31397231815208215,,,,,,,,,,,,,,,,,,60,001,22,w,Psychologie,2023-01-24_15h06.37.548,00_bat_bachelor,2022.2.4,59.95665672711451,
,,,,,,,,,,,,0,0,0,0,122,0,122,0,,,,,,,122,,,1,519.8355837608542,X,d,go,d,1,0.5276555380696664,,,,,,,,,,,,,,,,,,60,001,22,w,Psychologie,2023-01-24_15h06.37.548,00_bat_bachelor,2022.2.4,59.95665672711451,
,,,,,,,,,,,,0,0,0,0,123,0,123,0,,,,,,,123,,,1,521.4700418958237,Y,l,go,l,1,0.3011179964232724,,,,,,,,,,,,,,,,,,60,001,22,w,Psychologie,2023-01-24_15h06.37.548,00_bat_bachelor,2022.2.4,59.95665672711451,
,,,,,,,,,,,,0,0,0,0,124,0,124,0,,,,,,,124,,,1,522.9045908915286,Y,None,nogo,None,1,,523.7051312074618,,,,,,,,,,,,,,,,,60,001,22,w,Psychologie,2023-01-24_15h06.37.548,00_bat_bachelor,2022.2.4,59.95665672711451,
,,,,,,,,,,,,0,0,0,0,125,0,125,0,,,,,,,125,,,1,524.705965632922,X,d,go,d,1,0.28153299825498834,,,,,,,,,,,,,,,,,,60,001,22,w,Psychologie,2023-01-24_15h06.37.548,00_bat_bachelor,2022.2.4,59.95665672711451,
,,,,,,,,,,,,0,0,0,0,126,0,126,0,,,,,,,126,,,1,526.0902886161784,Y,l,go,l,1,0.30440187999920454,,,,,,,,,,,,,,,,,,60,001,22,w,Psychologie,2023-01-24_15h06.37.548,00_bat_bachelor,2022.2.4,59.95665672711451,
,,,,,,,,,,,,0,0,0,0,127,0,127,0,,,,,,,127,,,1,527.5245292478066,X,d,go,d,1,0.40704445354640484,,,,,,,,,,,,,,,,,,60,001,22,w,Psychologie,2023-01-24_15h06.37.548,00_bat_bachelor,2022.2.4,59.95665672711451,
,,,,,,,,,,,,0,0,0,0,128,0,128,0,,,,,,,128,,,1,529.0425881831616,Y,l,go,l,1,0.39291352390137035,,,,,,,,,,,,,,,,,,60,001,22,w,Psychologie,2023-01-24_15h06.37.548,00_bat_bachelor,2022.2.4,59.95665672711451,
,,,,,,,,,,,,0,0,0,0,129,0,129,0,,,,,,,129,,,1,530.5437326696701,X,d,go,d,1,0.36417990634799935,,,,,,,,,,,,,,,,,,60,001,22,w,Psychologie,2023-01-24_15h06.37.548,00_bat_bachelor,2022.2.4,59.95665672711451,
,,,,,,,,,,,,0,0,0,0,130,0,130,0,,,,,,,130,,,1,532.0115035318886,Y,l,go,l,1,0.32037766081339214,,,,,,,,,,,,,,,,,,60,001,22,w,Psychologie,2023-01-24_15h06.37.548,00_bat_bachelor,2022.2.4,59.95665672711451,
,,,,,,,,,,,,0,0,0,0,131,0,131,0,,,,,,,131,,,1,533.4457296180335,X,d,go,d,1,0.43723164896073285,,,,,,,,,,,,,,,,,,60,001,22,w,Psychologie,2023-01-24_15h06.37.548,00_bat_bachelor,2022.2.4,59.95665672711451,
,,,,,,,,,,,,0,0,0,0,132,0,132,0,,,,,,,132,,,1,534.9970899351611,Y,l,go,l,1,0.32621815416496247,,,,,,,,,,,,,,,,,,60,001,22,w,Psychologie,2023-01-24_15h06.37.548,00_bat_bachelor,2022.2.4,59.95665672711451,
,,,,,,,,,,,,0,0,0,0,133,0,133,0,,,,,,,133,,,1,536.4315041427908,X,d,go,d,1,0.3476504277641652,,,,,,,,,,,,,,,,,,60,001,22,w,Psychologie,2023-01-24_15h06.37.548,00_bat_bachelor,2022.2.4,59.95665672711451,
,,,,,,,,,,,,0,0,0,0,134,0,134,0,,,,,,,134,,,1,537.8823940107541,Y,l,go,l,1,0.27266559141571634,,,,,,,,,,,,,,,,,,60,001,22,w,Psychologie,2023-01-24_15h06.37.548,00_bat_bachelor,2022.2.4,59.95665672711451,
,,,,,,,,,,,,0,0,0,0,135,0,135,0,,,,,,,135,,,1,539.2669560246723,X,d,go,d,1,0.36012123378168326,,,,,,,,,,,,,,,,,,60,001,22,w,Psychologie,2023-01-24_15h06.37.548,00_bat_bachelor,2022.2.4,59.95665672711451,
,,,,,,,,,,,,0,0,0,0,136,0,136,0,,,,,,,136,,,1,540.7346895534865,Y,l,go,l,1,0.4121668852312723,,,,,,,,,,,,,,,,,,60,001,22,w,Psychologie,2023-01-24_15h06.37.548,00_bat_bachelor,2022.2.4,59.95665672711451,
,,,,,,,,,,,,0,0,0,0,137,0,137,0,,,,,,,137,,,1,542.2691436642053,X,d,go,d,1,0.33386665012221783,,,,,,,,,,,,,,,,,,60,001,22,w,Psychologie,2023-01-24_15h06.37.548,00_bat_bachelor,2022.2.4,59.95665672711451,
,,,,,,,,,,,,0,0,0,0,138,0,138,0,,,,,,,138,,,1,543.7205945026799,X,None,nogo,None,1,,544.5208419697155,,,,,,,,,,,,,,,,,60,001,22,w,Psychologie,2023-01-24_15h06.37.548,00_bat_bachelor,2022.2.4,59.95665672711451,
,,,,,,,,,,,,0,0,0,0,139,0,139,0,,,,,,,139,,,1,545.5217559104349,Y,l,go,l,1,0.28192427154863253,,,,,,,,,,,,,,,,,,60,001,22,w,Psychologie,2023-01-24_15h06.37.548,00_bat_bachelor,2022.2.4,59.95665672711451,
,,,,,,,,,,,,0,0,0,0,140,0,140,0,,,,,,,140,,,1,546.9061521059193,X,d,go,d,1,0.33746714022709057,,,,,,,,,,,,,,,,,,60,001,22,w,Psychologie,2023-01-24_15h06.37.548,00_bat_bachelor,2022.2.4,59.95665672711451,
,,,,,,,,,,,,0,0,0,0,141,0,141,0,,,,,,,141,,,1,548.357311550033,Y,l,go,l,1,0.374843194585992,,,,,,,,,,,,,,,,,,60,001,22,w,Psychologie,2023-01-24_15h06.37.548,00_bat_bachelor,2022.2.4,59.95665672711451,
,,,,,,,,,,,,0,0,0,0,142,0,142,0,,,,,,,142,,,1,549.8417636486265,X,d,go,d,1,0.32974882595590316,,,,,,,,,,,,,,,,,,60,001,22,w,Psychologie,2023-01-24_15h06.37.548,00_bat_bachelor,2022.2.4,59.95665672711451,
,,,,,,,,,,,,0,0,0,0,143,0,143,0,,,,,,,143,,,1,551.276116280409,X,None,nogo,None,1,,552.0767758692527,,,,,,,,,,,,,,,,,60,001,22,w,Psychologie,2023-01-24_15h06.37.548,00_bat_bachelor,2022.2.4,59.95665672711451,
,,,,,,,,,,,,0,0,0,0,144,0,144,0,,,,,,,144,,,1,553.0774595066032,Y,l,go,l,1,0.3415078733669361,,,,,,,,,,,,,,,,,,60,001,22,w,Psychologie,2023-01-24_15h06.37.548,00_bat_bachelor,2022.2.4,59.95665672711451,
,,,,,,,,,,,,0,0,0,0,145,0,145,0,,,,,,,145,,,1,554.5455232177337,X,d,go,d,1,0.26602606661617756,,,,,,,,,,,,,,,,,,60,001,22,w,Psychologie,2023-01-24_15h06.37.548,00_bat_bachelor,2022.2.4,59.95665672711451,
,,,,,,,,,,,,0,0,0,0,146,0,146,0,,,,,,,146,,,1,555.9129918734398,X,None,nogo,None,1,,556.713470128685,,,,,,,,,,,,,,,,,60,001,22,w,Psychologie,2023-01-24_15h06.37.548,00_bat_bachelor,2022.2.4,59.95665672711451,
,,,,,,,,,,,,0,0,0,0,147,0,147,0,,,,,,,147,,,1,557.7144694028684,Y,l,go,l,1,0.2979907191620441,,,,,,,,,,,,,,,,,,60,001,22,w,Psychologie,2023-01-24_15h06.37.548,00_bat_bachelor,2022.2.4,59.95665672711451,
,,,,,,,,,,,,0,0,0,0,148,0,148,0,,,,,,,148,,,1,559.1153490162687,X,d,go,d,1,0.3524019498145208,,,,,,,,,,,,,,,,,,60,001,22,w,Psychologie,2023-01-24_15h06.37.548,00_bat_bachelor,2022.2.4,59.95665672711451,
,,,,,,,,,,,,0,0,0,0,149,0,149,0,,,,,,,149,,,1,560.5832410907751,Y,l,go,l,1,0.6127620861079777,,,,,,,,,,,,,,,,,,60,001,22,w,Psychologie,2023-01-24_15h06.37.548,00_bat_bachelor,2022.2.4,59.95665672711451,
,,,,,,,,,,,,0,0,0,0,150,0,150,0,,,,,,,150,,,1,562.3012149835849,Y,None,nogo,None,1,,563.1016845115373,,,,,,,,,,,,,,,,,60,001,22,w,Psychologie,2023-01-24_15h06.37.548,00_bat_bachelor,2022.2.4,59.95665672711451,
,,,,,,,,,,,,0,0,0,0,151,0,151,0,,,,,,,151,,,1,564.1025776037568,Y,None,nogo,d,0,0.37185846296779346,,,,,,,,,,,,,,,,,,60,001,22,w,Psychologie,2023-01-24_15h06.37.548,00_bat_bachelor,2022.2.4,59.95665672711451,
,,,,,,,,,,,,0,0,0,0,152,0,152,0,,,,,,,152,,,1,565.6036333628581,X,d,go,d,1,0.3591854748374317,,,,,,,,,,,,,,,,,,60,001,22,w,Psychologie,2023-01-24_15h06.37.548,00_bat_bachelor,2022.2.4,59.95665672711451,
,,,,,,,,,,,,0,0,0,0,153,0,153,0,,,,,,,153,,,1,567.0715816798765,Y,l,go,l,1,0.364736513220123,,,,,,,,,,,,,,,,,,60,001,22,w,Psychologie,2023-01-24_15h06.37.548,00_bat_bachelor,2022.2.4,59.95665672711451,
,,,,,,,,,,,,0,0,0,0,154,0,154,0,,,,,,,154,,,1,568.5393249056942,Y,None,nogo,None,1,,569.3399811005802,,,,,,,,,,,,,,,,,60,001,22,w,Psychologie,2023-01-24_15h06.37.548,00_bat_bachelor,2022.2.4,59.95665672711451,
,,,,,,,,,,,,0,0,0,0,155,0,155,0,,,,,,,155,,,1,570.3407985563099,X,d,go,d,1,0.29382877371972427,,,,,,,,,,,,,,,,,,60,001,22,w,Psychologie,2023-01-24_15h06.37.548,00_bat_bachelor,2022.2.4,59.95665672711451,
,,,,,,,,,,,,0,0,0,0,156,0,156,0,,,,,,,156,,,1,571.7585378306103,Y,l,go,l,1,0.3650856046442641,,,,,,,,,,,,,,,,,,60,001,22,w,Psychologie,2023-01-24_15h06.37.548,00_bat_bachelor,2022.2.4,59.95665672711451,
,,,,,,,,,,,,0,0,0,0,157,0,157,0,,,,,,,157,,,1,573.2263450565079,Y,None,nogo,None,1,,574.0271326455259,,,,,,,,,,,,,,,,,60,001,22,w,Psychologie,2023-01-24_15h06.37.548,00_bat_bachelor,2022.2.4,59.95665672711451,
,,,,,,,,,,,,0,0,0,0,158,0,158,0,,,,,,,158,,,1,575.0274831914867,Y,None,nogo,d,0,0.21518575023219455,,,,,,,,,,,,,,,,,,60,001,22,w,Psychologie,2023-01-24_15h06.37.548,00_bat_bachelor,2022.2.4,59.95665672711451,
,,,,,,,,,,,,0,0,0,0,159,0,159,0,,,,,,,159,,,1,576.3619728901394,X,d,go,d,1,0.33699829105171375,,,,,,,,,,,,,,,,,,60,001,22,w,Psychologie,2023-01-24_15h06.37.548,00_bat_bachelor,2022.2.4,59.95665672711451,
,,,,,,,,,,,,0,0,0,0,160,0,160,0,,,,,,,160,,,1,577.8131294251652,Y,l,go,l,1,0.5177510388166411,,,,,,,,,,,,,,,,,,60,001,22,w,Psychologie,2023-01-24_15h06.37.548,00_bat_bachelor,2022.2.4,59.95665672711451,
,,,,,,,,,,,,0,0,0,0,161,0,161,0,,,,,,,161,,,1,579.4476927724027,Y,None,nogo,None,1,,580.2482616944471,,,,,,,,,,,,,,,,,60,001,22,w,Psychologie,2023-01-24_15h06.37.548,00_bat_bachelor,2022.2.4,59.95665672711451,
,,,,,,,,,,,,0,0,0,0,162,0,162,0,,,,,,,162,,,1,581.2490471501369,X,d,go,d,1,0.3461604861950036,,,,,,,,,,,,,,,,,,60,001,22,w,Psychologie,2023-01-24_15h06.37.548,00_bat_bachelor,2022.2.4,59.95665672711451,
,,,,,,,,,,,,0,0,0,0,163,0,163,0,,,,,,,163,,,1,582.7000383515697,Y,l,go,l,1,0.4622527762694517,,,,,,,,,,,,,,,,,,60,001,22,w,Psychologie,2023-01-24_15h06.37.548,00_bat_bachelor,2022.2.4,59.95665672711451,
,,,,,,,,,,,,0,0,0,0,164,0,164,0,,,,,,,164,,,1,584.2847073232115,X,d,go,d,1,0.39925923010741826,,,,,,,,,,,,,,,,,,60,001,22,w,Psychologie,2023-01-24_15h06.37.548,00_bat_bachelor,2022.2.4,59.95665672711451,
,,,,,,,,,,,,0,0,0,0,165,0,165,0,,,,,,,165,,,1,585.7856418700248,Y,l,go,l,1,0.6097885060153203,,,,,,,,,,,,,,,,,,60,001,22,w,Psychologie,2023-01-24_15h06.37.548,00_bat_bachelor,2022.2.4,59.95665672711451,
,,,,,,,,,,,,0,0,0,0,166,0,166,0,,,,,,,166,,,1,587.5036967326596,X,d,go,d,1,0.3637173602182884,,,,,,,,,,,,,,,,,,60,001,22,w,Psychologie,2023-01-24_15h06.37.548,00_bat_bachelor,2022.2.4,59.95665672711451,
,,,,,,,,,,,,0,0,0,0,167,0,167,0,,,,,,,167,,,1,588.9717240800819,Y,l,go,l,1,0.2549050807283493,,,,,,,,,,,,,,,,,,60,001,22,w,Psychologie,2023-01-24_15h06.37.548,00_bat_bachelor,2022.2.4,59.95665672711451,
,,,,,,,,,,,,0,0,0,0,168,0,168,0,,,,,,,168,,,1,590.356213851468,X,d,go,d,1,0.5203338304418139,,,,,,,,,,,,,,,,,,60,001,22,w,Psychologie,2023-01-24_15h06.37.548,00_bat_bachelor,2022.2.4,59.95665672711451,
,,,,,,,,,,,,0,0,0,0,169,0,169,0,,,,,,,169,,,1,591.9908610776183,X,None,nogo,l,0,0.24370360989996698,,,,,,,,,,,,,,,,,,60,001,22,w,Psychologie,2023-01-24_15h06.37.548,00_bat_bachelor,2022.2.4,59.95665672711451,
,,,,,,,,,,,,0,0,0,0,170,0,170,0,,,,,,,170,,,1,593.3586065822165,Y,l,go,l,1,0.3175102626992157,,,,,,,,,,,,,,,,,,60,001,22,w,Psychologie,2023-01-24_15h06.37.548,00_bat_bachelor,2022.2.4,59.95665672711451,
,,,,,,,,,,,,0,0,0,0,171,0,171,0,,,,,,,171,,,1,594.7919841822877,X,d,go,d,1,0.3550564991310239,,,,,,,,,,,,,,,,,,60,001,22,w,Psychologie,2023-01-24_15h06.37.548,00_bat_bachelor,2022.2.4,59.95665672711451,
,,,,,,,,,,,,0,0,0,0,172,0,172,0,,,,,,,172,,,1,596.2601341965637,Y,l,go,l,1,0.3121095275855623,,,,,,,,,,,,,,,,,,60,001,22,w,Psychologie,2023-01-24_15h06.37.548,00_bat_bachelor,2022.2.4,59.95665672711451,
,,,,,,,,,,,,0,0,0,0,173,0,173,0,,,,,,,173,,,1,597.6778957739152,X,d,go,d,1,0.3177488085057121,,,,,,,,,,,,,,,,,,60,001,22,w,Psychologie,2023-01-24_15h06.37.548,00_bat_bachelor,2022.2.4,59.95665672711451,
,,,,,,,,,,,,0,0,0,0,174,0,174,0,,,,,,,174,,,1,599.1120098598913,X,None,nogo,None,1,,,,,,,,,,,,,,,,,,,60,001,22,w,Psychologie,2023-01-24_15h06.37.548,00_bat_bachelor,2022.2.4,59.95665672711451,
,,,,,,,,,,,,0,0,0,0,175,0,175,0,,,,,,,175,,,1,600.9136551471311,Y,l,go,l,1,0.28181760472944006,,,,,,,,,,,,,,,,,,60,001,22,w,Psychologie,2023-01-24_15h06.37.548,00_bat_bachelor,2022.2.4,59.95665672711451,
,,,,,,,,,,,,0,0,0,0,176,0,176,0,,,,,,,176,,,1,602.2987946164358,X,d,go,d,1,0.28824185648409184,,,,,,,,,,,,,,,,,,60,001,22,w,Psychologie,2023-01-24_15h06.37.548,00_bat_bachelor,2022.2.4,59.95665672711451,
,,,,,,,,,,,,0,0,0,0,177,0,177,0,,,,,,,177,,,1,603.7164902542863,X,None,nogo,d,0,0.4070657869160641,,,,,,,,,,,,,,,,,,60,001,22,w,Psychologie,2023-01-24_15h06.37.548,00_bat_bachelor,2022.2.4,59.95665672711451,
,,,,,,,,,,,,0,0,0,0,178,0,178,0,,,,,,,178,,,1,605.2510946682596,X,None,nogo,None,1,,606.0519341361505,,,,,,,,,,,,,,,,,60,001,22,w,Psychologie,2023-01-24_15h06.37.548,00_bat_bachelor,2022.2.4,59.95665672711451,
,,,,,,,,,,,,0,0,0,0,179,0,179,0,,,,,,,179,,,1,607.0521760759002,Y,l,go,l,1,0.4632234443561174,,,,,,,,,,,,,,,,,,60,001,22,w,Psychologie,2023-01-24_15h06.37.548,00_bat_bachelor,2022.2.4,59.95665672711451,
,,,,,,,,,,,,0,0,0,0,180,0,180,0,,,,,,,180,,,1,608.6199461138604,X,d,go,d,1,0.4805243180016987,,,,,,,,,,,,,,,,,,60,001,22,w,Psychologie,2023-01-24_15h06.37.548,00_bat_bachelor,2022.2.4,59.95665672711451,
,,,,,,,,,,,,0,0,0,0,181,0,181,0,,,,,,,181,,,1,610.2040337513317,Y,l,go,l,1,0.3512635239167139,,,,,,,,,,,,,,,,,,60,001,22,w,Psychologie,2023-01-24_15h06.37.548,00_bat_bachelor,2022.2.4,59.95665672711451,
,,,,,,,,,,,,0,0,0,0,182,0,182,0,,,,,,,182,,,1,611.6725386752078,Y,None,nogo,None,1,,612.4734562038211,,,,,,,,,,,,,,,,,60,001,22,w,Psychologie,2023-01-24_15h06.37.548,00_bat_bachelor,2022.2.4,59.95665672711451,
,,,,,,,,,,,,0,0,0,0,183,0,183,0,,,,,,,183,,,1,613.4738285679923,X,d,go,d,1,0.3765949547087075,,,,,,,,,,,,,,,,,,60,001,22,w,Psychologie,2023-01-24_15h06.37.548,00_bat_bachelor,2022.2.4,59.95665672711451,
,,,,,,,,,,,,0,0,0,0,184,0,184,0,,,,,,,184,,,1,614.9914555027208,Y,l,go,l,1,0.26792958453006577,,,,,,,,,,,,,,,,,,60,001,22,w,Psychologie,2023-01-24_15h06.37.548,00_bat_bachelor,2022.2.4,59.95665672711451,
,,,,,,,,,,,,0,0,0,0,185,0,185,0,,,,,,,185,,,1,616.3760441833438,X,d,go,None,0,,617.1770804999978,,,,,,,,,,,,,,,,,60,001,22,w,Psychologie,2023-01-24_15h06.37.548,00_bat_bachelor,2022.2.4,59.95665672711451,
,,,,,,,,,,,,0,0,0,0,186,0,186,0,,,,,,,186,,,1,618.1774329853652,X,None,nogo,None,1,,618.9784789990081,,,,,,,,,,,,,,,,,60,001,22,w,Psychologie,2023-01-24_15h06.37.548,00_bat_bachelor,2022.2.4,59.95665672711451,
,,,,,,,,,,,,0,0,0,0,187,0,187,0,,,,,,,187,,,1,619.9787888176361,Y,l,go,l,1,0.511361211334588,,,,,,,,,,,,,,,,,,60,001,22,w,Psychologie,2023-01-24_15h06.37.548,00_bat_bachelor,2022.2.4,59.95665672711451,
,,,,,,,,,,,,0,0,0,0,188,0,188,0,,,,,,,188,,,1,621.630211825759,X,d,go,d,1,0.23682359988742974,,,,,,,,,,,,,,,,,,60,001,22,w,Psychologie,2023-01-24_15h06.37.548,00_bat_bachelor,2022.2.4,59.95665672711451,
,,,,,,,,,,,,0,0,0,0,189,0,189,0,,,,,,,189,,,1,623.0145454757003,Y,l,go,l,1,0.5649040770949796,,,,,,,,,,,,,,,,,,60,001,22,w,Psychologie,2023-01-24_15h06.37.548,00_bat_bachelor,2022.2.4,59.95665672711451,
,,,,,,,,,,,,0,0,0,0,190,0,190,0,,,,,,,190,,,1,624.7158909806894,Y,None,nogo,None,1,,625.5167944486748,,,,,,,,,,,,,,,,,60,001,22,w,Psychologie,2023-01-24_15h06.37.548,00_bat_bachelor,2022.2.4,59.95665672711451,
,,,,,,,,,,,,0,0,0,0,191,0,191,0,,,,,,,191,,,1,626.5171013582149,X,d,go,d,1,0.26140060533361975,,,,,,,,,,,,,,,,,,60,001,22,w,Psychologie,2023-01-24_15h06.37.548,00_bat_bachelor,2022.2.4,59.95665672711451,
,,,,,,,,,,,,0,0,0,0,192,0,192,0,,,,,,,192,,,1,627.9015043415857,Y,l,go,l,1,0.5896696888812585,,,,,,,,,,,,,,,,,,60,001,22,w,Psychologie,2023-01-24_15h06.37.548,00_bat_bachelor,2022.2.4,59.95665672711451,
,,,,,,,,,,,,0,0,0,0,193,0,193,0,,,,,,,193,,,1,629.6193036886834,Y,None,nogo,None,1,,630.4199972169736,,,,,,,,,,,,,,,,,60,001,22,w,Psychologie,2023-01-24_15h06.37.548,00_bat_bachelor,2022.2.4,59.95665672711451,
,,,,,,,,,,,,0,0,0,0,194,0,194,0,,,,,,,194,,,1,631.4205698238657,X,d,go,d,1,0.23859281458135229,,,,,,,,,,,,,,,,,,60,001,22,w,Psychologie,2023-01-24_15h06.37.548,00_bat_bachelor,2022.2.4,59.95665672711451,
,,,,,,,,,,,,0,0,0,0,195,0,195,0,,,,,,,195,,,1,632.78809035843,Y,l,go,l,1,0.34479805997398216,,,,,,,,,,,,,,,,,,60,001,22,w,Psychologie,2023-01-24_15h06.37.548,00_bat_bachelor,2022.2.4,59.95665672711451,
,,,,,,,,,,,,0,0,0,0,196,0,196,0,,,,,,,196,,,1,634.2389453172509,Y,None,nogo,l,0,0.4137600996764377,,,,,,,,,,,,,,,,,,60,001,22,w,Psychologie,2023-01-24_15h06.37.548,00_bat_bachelor,2022.2.4,59.95665672711451,
,,,,,,,,,,,,0,0,0,0,197,0,197,0,,,,,,,197,,,1,635.7567434037483,X,d,go,d,1,0.2870360365632223,,,,,,,,,,,,,,,,,,60,001,22,w,Psychologie,2023-01-24_15h06.37.548,00_bat_bachelor,2022.2.4,59.95665672711451,
,,,,,,,,,,,,0,0,0,0,198,0,198,0,,,,,,,198,,,1,637.1579963510303,Y,l,go,l,1,0.3099897669162601,,,,,,,,,,,,,,,,,,60,001,22,w,Psychologie,2023-01-24_15h06.37.548,00_bat_bachelor,2022.2.4,59.95665672711451,
,,,,,,,,,,,,0,0,0,0,199,0,199,0,,,,,,,199,,,1,638.5758015648025,Y,None,nogo,None,1,,,,,,,,,,,,,,,,,,,60,001,22,w,Psychologie,2023-01-24_15h06.37.548,00_bat_bachelor,2022.2.4,59.95665672711451,
,,,,,,,,,,,,0,0,0,0,200,0,200,0,,,,,,,200,,,1,640.3771389728063,Y,None,nogo,None,1,,641.1778029252891,,,,,,,,,,,,,,,,,60,001,22,w,Psychologie,2023-01-24_15h06.37.548,00_bat_bachelor,2022.2.4,59.95665672711451,
,,,,,,,,,,,,0,0,0,0,201,0,201,0,,,,,,,201,,,1,642.1784705626196,X,d,go,d,1,0.2818345744453836,,,,,,,,,,,,,,,,,,60,001,22,w,Psychologie,2023-01-24_15h06.37.548,00_bat_bachelor,2022.2.4,59.95665672711451,
,,,,,,,,,,,,0,0,0,0,202,0,202,0,,,,,,,202,,,1,643.5629268794146,Y,l,go,l,1,0.3846424815565115,,,,,,,,,,,,,,,,,,60,001,22,w,Psychologie,2023-01-24_15h06.37.548,00_bat_bachelor,2022.2.4,59.95665672711451,
,,,,,,,,,,,,0,0,0,0,203,0,203,0,,,,,,,203,,,1,645.0648272458056,X,d,go,d,1,0.3072154598485213,,,,,,,,,,,,,,,,,,60,001,22,w,Psychologie,2023-01-24_15h06.37.548,00_bat_bachelor,2022.2.4,59.95665672711451,
,,,,,,,,,,,,0,0,0,0,204,0,204,0,,,,,,,204,,,1,646.5160977203923,Y,l,go,l,1,0.27940887394652236,,,,,,,,,,,,,,,,,,60,001,22,w,Psychologie,2023-01-24_15h06.37.548,00_bat_bachelor,2022.2.4,59.95665672711451,
,,,,,,,,,,,,0,0,0,0,205,0,205,0,,,,,,,205,,,1,647.9170224247646,Y,None,nogo,d,0,0.3016930275771301,,,,,,,,,,,,,,,,,,60,001,22,w,Psychologie,2023-01-24_15h06.37.548,00_bat_bachelor,2022.2.4,59.95665672711451,
,,,,,,,,,,,,0,0,0,0,206,0,206,0,,,,,,,206,,,1,649.3512072987214,X,d,go,d,1,0.21155665404512547,,,,,,,,,,,,,,,,,,60,001,22,w,Psychologie,2023-01-24_15h06.37.548,00_bat_bachelor,2022.2.4,59.95665672711451,
,,,,,,,,,,,,0,0,0,0,207,0,207,0,,,,,,,207,,,1,650.6857765126479,Y,l,go,l,1,0.26882510098221246,,,,,,,,,,,,,,,,,,60,001,22,w,Psychologie,2023-01-24_15h06.37.548,00_bat_bachelor,2022.2.4,59.95665672711451,
,,,,,,,,,,,,0,0,0,0,208,0,208,0,,,,,,,208,,,1,652.0866464290593,Y,None,nogo,None,1,,652.8877932913456,,,,,,,,,,,,,,,,,60,001,22,w,Psychologie,2023-01-24_15h06.37.548,00_bat_bachelor,2022.2.4,59.95665672711451,
,,,,,,,,,,,,0,0,0,0,209,0,209,0,,,,,,,209,,,1,653.8882325646991,X,d,go,d,1,0.3147364404867403,,,,,,,,,,,,,,,,,,60,001,22,w,Psychologie,2023-01-24_15h06.37.548,00_bat_bachelor,2022.2.4,59.95665672711451,
,,,,,,,,,,,,0,0,0,0,210,0,210,0,,,,,,,210,,,1,655.3224159841193,Y,l,go,l,1,0.4167298009560909,,,,,,,,,,,,,,,,,,60,001,22,w,Psychologie,2023-01-24_15h06.37.548,00_bat_bachelor,2022.2.4,59.95665672711451,
,,,,,,,,,,,,0,0,0,0,211,0,211,0,,,,,,,211,,,1,656.8404438891303,X,d,go,None,0,,657.641340084374,,,,,,,,,,,,,,,,,60,001,22,w,Psychologie,2023-01-24_15h06.37.548,00_bat_bachelor,2022.2.4,59.95665672711451,
,,,,,,,,,,,,0,0,0,0,212,0,212,0,,,,,,,212,,,1,658.6416397211724,Y,l,go,l,1,0.5049199898494408,,,,,,,,,,,,,,,,,,60,001,22,w,Psychologie,2023-01-24_15h06.37.548,00_bat_bachelor,2022.2.4,59.95665672711451,
,,,,,,,,,,,,0,0,0,0,213,0,213,0,,,,,,,213,,,1,660.2928993351234,X,d,go,d,1,0.40591427007166203,,,,,,,,,,,,,,,,,,60,001,22,w,Psychologie,2023-01-24_15h06.37.548,00_bat_bachelor,2022.2.4,59.95665672711451,
,,,,,,,,,,,,0,0,0,0,214,0,214,0,,,,,,,214,,,1,661.8442019552022,Y,l,go,l,1,0.2791538432793459,,,,,,,,,,,,,,,,,,60,001,22,w,Psychologie,2023-01-24_15h06.37.548,00_bat_bachelor,2022.2.4,59.95665672711451,
,,,,,,,,,,,,0,0,0,0,215,0,215,0,,,,,,,215,,,1,663.2453429023153,X,d,go,d,1,0.5093898145278217,,,,,,,,,,,,,,,,,,60,001,22,w,Psychologie,2023-01-24_15h06.37.548,00_bat_bachelor,2022.2.4,59.95665672711451,
,,,,,,,,,,,,0,0,0,0,216,0,216,0,,,,,,,216,,,1,664.8798655222345,X,None,nogo,l,0,0.29986320674652234,,,,,,,,,,,,,,,,,,60,001,22,w,Psychologie,2023-01-24_15h06.37.548,00_bat_bachelor,2022.2.4,59.95665672711451,
,,,,,,,,,,,,0,0,0,0,217,0,217,0,,,,,,,217,,,1,666.314218154017,Y,l,go,l,1,0.3368295635445975,,,,,,,,,,,,,,,,,,60,001,22,w,Psychologie,2023-01-24_15h06.37.548,00_bat_bachelor,2022.2.4,59.95665672711451,
,,,,,,,,,,,,0,0,0,0,218,0,218,0,,,,,,,218,,,1,667.7819919253234,X,d,go,d,1,0.2770268098829547,,,,,,,,,,,,,,,,,,60,001,22,w,Psychologie,2023-01-24_15h06.37.548,00_bat_bachelor,2022.2.4,59.95665672711451,
,,,,,,,,,,,,0,0,0,0,219,0,219,0,,,,,,,219,,,1,669.1831401451782,X,None,nogo,d,0,0.39681559018208645,,,,,,,,,,,,,,,,,,60,001,22,w,Psychologie,2023-01-24_15h06.37.548,00_bat_bachelor,2022.2.4,59.95665672711451,
,,,,,,,,,,,,0,0,0,0,220,0,220,0,,,,,,,220,,,1,670.7008063526882,Y,l,go,l,1,0.6380697592685465,,,,,,,,,,,,,,,,,,60,001,22,w,Psychologie,2023-01-24_15h06.37.548,00_bat_bachelor,2022.2.4,59.95665672711451,
,,,,,,,,,,,,0,0,0,0,221,0,221,0,,,,,,,221,,,1,672.485699130717,X,d,go,d,1,0.2300968022318557,,,,,,,,,,,,,,,,,,60,001,22,w,Psychologie,2023-01-24_15h06.37.548,00_bat_bachelor,2022.2.4,59.95665672711451,
,,,,,,,,,,,,0,0,0,0,222,0,222,0,,,,,,,222,,,1,673.8531813622103,X,None,nogo,None,1,,674.6545401035692,,,,,,,,,,,,,,,,,60,001,22,w,Psychologie,2023-01-24_15h06.37.548,00_bat_bachelor,2022.2.4,59.95665672711451,
,,,,,,,,,,,,0,0,0,0,223,0,223,0,,,,,,,223,,,1,675.6546312552236,Y,l,go,l,1,0.30858903760963585,,,,,,,,,,,,,,,,,,60,001,22,w,Psychologie,2023-01-24_15h06.37.548,00_bat_bachelor,2022.2.4,59.95665672711451,
,,,,,,,,,,,,0,0,0,0,224,0,224,0,,,,,,,224,,,1,677.0892587965063,X,d,go,d,1,0.39473946593352593,,,,,,,,,,,,,,,,,,60,001,22,w,Psychologie,2023-01-24_15h06.37.548,00_bat_bachelor,2022.2.4,59.95665672711451,
,,,,,,,,,,,,0,0,0,0,225,0,225,0,,,,,,,225,,,1,678.5906840106909,Y,l,go,l,1,0.3169037163752364,,,,,,,,,,,,,,,,,,60,001,22,w,Psychologie,2023-01-24_15h06.37.548,00_bat_bachelor,2022.2.4,59.95665672711451,
,,,,,,,,,,,,0,0,0,0,226,0,226,0,,,,,,,226,,,1,680.0248208845878,Y,None,nogo,None,1,,680.825477564329,,,,,,,,,,,,,,,,,60,001,22,w,Psychologie,2023-01-24_15h06.37.548,00_bat_bachelor,2022.2.4,59.95665672711451,
,,,,,,,,,,,,0,0,0,0,227,0,227,0,,,,,,,227,,,1,681.825999746914,X,d,go,d,1,0.48980772544746287,,,,,,,,,,,,,,,,,,60,001,22,w,Psychologie,2023-01-24_15h06.37.548,00_bat_bachelor,2022.2.4,59.95665672711451,
,,,,,,,,,,,,0,0,0,0,228,0,228,0,,,,,,,228,,,1,683.4440699792613,Y,l,go,l,1,0.35861238309007604,,,,,,,,,,,,,,,,,,60,001,22,w,Psychologie,2023-01-24_15h06.37.548,00_bat_bachelor,2022.2.4,59.95665672711451,
,,,,,,,,,,,,0,0,0,0,229,0,229,0,,,,,,,229,,,1,684.9284939565987,Y,None,nogo,None,1,,685.729459485272,,,,,,,,,,,,,,,,,60,001,22,w,Psychologie,2023-01-24_15h06.37.548,00_bat_bachelor,2022.2.4,59.95665672711451,
,,,,,,,,,,,,0,0,0,0,230,0,230,0,,,,,,,230,,,1,686.7298924556089,Y,None,nogo,l,0,0.6581192429730436,,,,,,,,,,,,,,,,,,60,001,22,w,Psychologie,2023-01-24_15h06.37.548,00_bat_bachelor,2022.2.4,59.95665672711451,
,,,,,,,,,,,,0,0,0,0,231,0,231,0,,,,,,,231,,,1,688.5144303240231,X,d,go,d,1,0.3606186890392564,,,,,,,,,,,,,,,,,,60,001,22,w,Psychologie,2023-01-24_15h06.37.548,00_bat_bachelor,2022.2.4,59.95665672711451,
,,,,,,,,,,,,0,0,0,0,232,0,232,0,,,,,,,232,,,1,690.015882204927,Y,l,go,l,1,0.5398301012173761,,,,,,,,,,,,,,,,,,60,001,22,w,Psychologie,2023-01-24_15h06.37.548,00_bat_bachelor,2022.2.4,59.95665672711451,
,,,,,,,,,,,,0,0,0,0,233,0,233,0,,,,,,,233,,,1,691.6837818430795,Y,None,nogo,None,1,,692.4848288264184,,,,,,,,,,,,,,,,,60,001,22,w,Psychologie,2023-01-24_15h06.37.548,00_bat_bachelor,2022.2.4,59.95665672711451,
,,,,,,,,,,,,0,0,0,0,234,0,234,0,,,,,,,234,,,1,693.485042644912,X,d,go,d,1,0.5260744448605692,,,,,,,,,,,,,,,,,,60,001,22,w,Psychologie,2023-01-24_15h06.37.548,00_bat_bachelor,2022.2.4,59.95665672711451,
,,,,,,,,,,,,0,0,0,0,235,0,235,0,,,,,,,235,,,1,695.1530140407558,Y,l,go,l,1,0.2822932417766424,,,,,,,,,,,,,,,,,,60,001,22,w,Psychologie,2023-01-24_15h06.37.548,00_bat_bachelor,2022.2.4,59.95665672711451,
,,,,,,,,,,,,0,0,0,0,236,0,236,0,,,,,,,236,,,1,696.5538029873569,X,d,go,d,1,0.36864585224248003,,,,,,,,,,,,,,,,,,60,001,22,w,Psychologie,2023-01-24_15h06.37.548,00_bat_bachelor,2022.2.4,59.95665672711451,
,,,,,,,,,,,,0,0,0,0,237,0,237,0,,,,,,,237,,,1,698.055111837748,X,None,nogo,None,1,,698.8558800328028,,,,,,,,,,,,,,,,,60,001,22,w,Psychologie,2023-01-24_15h06.37.548,00_bat_bachelor,2022.2.4,59.95665672711451,
,,,,,,,,,,,,0,0,0,0,238,0,238,0,,,,,,,238,,,1,699.856620397506,Y,l,go,l,1,0.36296729851164855,,,,,,,,,,,,,,,,,,60,001,22,w,Psychologie,2023-01-24_15h06.37.548,00_bat_bachelor,2022.2.4,59.95665672711451,
,,,,,,,,,,,,0,0,0,0,239,0,239,0,,,,,,,239,,,1,701.3577168839547,X,d,go,d,1,0.5414616187626962,,,,,,,,,,,,,,,,,,60,001,22,w,Psychologie,2023-01-24_15h06.37.548,00_bat_bachelor,2022.2.4,59.95665672711451,
,,,,,,,,,,,,0,0,0,0,240,0,240,0,,,,,,,240,,,1,703.0255554311152,X,None,nogo,None,1,,703.8265616871213,,,,,,,,,,,,,,,,,60,001,22,w,Psychologie,2023-01-24_15h06.37.548,00_bat_bachelor,2022.2.4,59.95665672711451,
,,,,,,,,,,,,0,0,0,0,241,0,241,0,,,,,,,241,,,1,704.827113445499,Y,l,go,l,1,0.5285854788089637,,,,,,,,,,,,,,,,,,60,001,22,w,Psychologie,2023-01-24_15h06.37.548,00_bat_bachelor,2022.2.4,59.95665672711451,
,,,,,,,,,,,,0,0,0,0,242,0,242,0,,,,,,,242,,,1,706.4783240896795,X,d,go,d,1,0.3968844387563877,,,,,,,,,,,,,,,,,,60,001,22,w,Psychologie,2023-01-24_15h06.37.548,00_bat_bachelor,2022.2.4,59.95665672711451,
,,,,,,,,,,,,0,0,0,0,243,0,243,0,,,,,,,243,,,1,708.0130424432136,Y,l,go,l,1,0.5429084087372757,,,,,,,,,,,,,,,,,,60,001,22,w,Psychologie,2023-01-24_15h06.37.548,00_bat_bachelor,2022.2.4,59.95665672711451,
,,,,,,,,,,,,0,0,0,0,244,0,244,0,,,,,,,244,,,1,709.6974739842117,Y,None,nogo,None,1,,710.498394421913,,,,,,,,,,,,,,,,,60,001,22,w,Psychologie,2023-01-24_15h06.37.548,00_bat_bachelor,2022.2.4,59.95665672711451,
,,,,,,,,,,,,0,0,0,0,245,0,245,0,,,,,,,245,,,1,711.498687270825,X,d,go,d,1,0.40056201987317763,,,,,,,,,,,,,,,,,,60,001,22,w,Psychologie,2023-01-24_15h06.37.548,00_bat_bachelor,2022.2.4,59.95665672711451,
,,,,,,,,,,,,0,0,0,0,246,0,246,0,,,,,,,246,,,1,713.016531902831,Y,l,go,l,1,0.48335632211819757,,,,,,,,,,,,,,,,,,60,001,22,w,Psychologie,2023-01-24_15h06.37.548,00_bat_bachelor,2022.2.4,59.95665672711451,
,,,,,,,,,,,,0,0,0,0,247,0,247,0,,,,,,,247,,,1,714.617919444252,X,d,go,d,1,0.6570375444425736,,,,,,,,,,,,,,,,,,60,001,22,w,Psychologie,2023-01-24_15h06.37.548,00_bat_bachelor,2022.2.4,59.95665672711451,
,,,,,,,,,,,,0,0,0,0,248,0,248,0,,,,,,,248,,,1,716.4191778218374,Y,l,go,l,1,0.3602676582231652,,,,,,,,,,,,,,,,,,60,001,22,w,Psychologie,2023-01-24_15h06.37.548,00_bat_bachelor,2022.2.4,59.95665672711451,
,,,,,,,,,,,,0,0,0,0,249,0,249,0,,,,,,,249,,,1,717.9038204661629,Y,None,nogo,None,1,,718.7407962290454,,,,,,,,,,,,,,,,,60,001,22,w,Psychologie,2023-01-24_15h06.37.548,00_bat_bachelor,2022.2.4,59.95665672711451,
,,,,,,,,,,,,1,0,1,0,0,0,0,0,,,,,,,0,,,0.2,724.6754007399722,X,d,go,d,1,0.45579506989452057,,,,,,,,,718.7407962290454,space,5.6905532295495505,,,,,,,60,001,22,w,Psychologie,2023-01-24_15h06.37.548,00_bat_bachelor,2022.2.4,59.95665672711451,
,,,,,,,,,,,,1,0,1,0,1,0,1,0,,,,,,,1,,,0.2,725.4759987529687,Y,l,go,l,1,0.5195910414913669,,,,,,,,,,,,,,,,,,60,001,22,w,Psychologie,2023-01-24_15h06.37.548,00_bat_bachelor,2022.2.4,59.95665672711451,
,,,,,,,,,,,,1,0,1,0,2,0,2,0,,,,,,,2,,,0.2,726.3266545357474,X,d,go,d,1,0.32422833309101406,,,,,,,,,,,,,,,,,,60,001,22,w,Psychologie,2023-01-24_15h06.37.548,00_bat_bachelor,2022.2.4,59.95665672711451,
,,,,,,,,,,,,1,0,1,0,3,0,3,0,,,,,,,3,,,0.2,726.9938685971429,X,None,nogo,None,1,,727.7947982469777,,,,,,,,,,,,,,,,,60,001,22,w,Psychologie,2023-01-24_15h06.37.548,00_bat_bachelor,2022.2.4,59.95665672711451,
,,,,,,,,,,,,1,0,1,0,4,0,4,0,,,,,,,4,,,0.2,727.9945226587006,Y,l,go,l,1,0.3366176844283473,,,,,,,,,,,,,,,,,,60,001,22,w,Psychologie,2023-01-24_15h06.37.548,00_bat_bachelor,2022.2.4,59.95665672711451,
,,,,,,,,,,,,1,0,1,0,5,0,5,0,,,,,,,5,,,0.2,728.6783297139336,X,d,go,d,1,0.24455742932332214,,,,,,,,,,,,,,,,,,60,001,22,w,Psychologie,2023-01-24_15h06.37.548,00_bat_bachelor,2022.2.4,59.95665672711451,
,,,,,,,,,,,,1,0,1,0,6,0,6,0,,,,,,,6,,,0.2,729.2454127206001,Y,l,go,l,1,0.3985896533704363,,,,,,,,,,,,,,,,,,60,001,22,w,Psychologie,2023-01-24_15h06.37.548,00_bat_bachelor,2022.2.4,59.95665672711451,
,,,,,,,,,,,,1,0,1,0,7,0,7,0,,,,,,,7,,,0.2,729.9459485274419,Y,None,nogo,None,1,,730.7462595097168,,,,,,,,,,,,,,,,,60,001,22,w,Psychologie,2023-01-24_15h06.37.548,00_bat_bachelor,2022.2.4,59.95665672711451,
,,,,,,,,,,,,1,0,1,0,8,0,8,0,,,,,,,8,,,0.2,730.9465133767517,X,d,go,d,1,0.3776082895055879,,,,,,,,,,,,,,,,,,60,001,22,w,Psychologie,2023-01-24_15h06.37.548,00_bat_bachelor,2022.2.4,59.95665672711451,
,,,,,,,,,,,,1,0,1,0,9,0,9,0,,,,,,,9,,,0.2,731.6301997045375,Y,l,go,l,1,0.33294446697982494,,,,,,,,,,,,,,,,,,60,001,22,w,Psychologie,2023-01-24_15h06.37.548,00_bat_bachelor,2022.2.4,59.95665672711451,
,,,,,,,,,,,,1,0,1,0,10,0,10,0,,,,,,,10,,,0.2,732.2641574751469,Y,None,nogo,None,1,,733.0642953662464,,,,,,,,,,,,,,,,,60,001,22,w,Psychologie,2023-01-24_15h06.37.548,00_bat_bachelor,2022.2.4,59.95665672711451,
,,,,,,,,,,,,1,0,1,0,11,0,11,0,,,,,,,11,,,0.2,733.264820263983,X,d,go,d,1,0.4126992496458115,,,,,,,,,,,,,,,,,,60,001,22,w,Psychologie,2023-01-24_15h06.37.548,00_bat_bachelor,2022.2.4,59.95665672711451,
,,,,,,,,,,,,1,0,1,0,12,0,12,0,,,,,,,12,,,0.2,733.9819573070854,Y,l,go,l,1,0.3820999324088916,,,,,,,,,,,,,,,,,,60,001,22,w,Psychologie,2023-01-24_15h06.37.548,00_bat_bachelor,2022.2.4,59.95665672711451,
,,,,,,,,,,,,1,0,1,0,13,0,13,0,,,,,,,13,,,0.2,734.6658870291722,Y,None,nogo,None,1,,,,,,,,,,,,,,,,,,,60,001,22,w,Psychologie,2023-01-24_15h06.37.548,00_bat_bachelor,2022.2.4,59.95665672711451,
,,,,,,,,,,,,1,0,1,0,14,0,14,0,,,,,,,14,,,0.2,735.6666327272251,X,d,go,d,1,0.29819678005878814,,,,,,,,,,,,,,,,,,60,001,22,w,Psychologie,2023-01-24_15h06.37.548,00_bat_bachelor,2022.2.4,59.95665672711451,
,,,,,,,,,,,,1,0,1,0,15,0,15,0,,,,,,,15,,,0.2,736.2670534793579,Y,l,go,l,1,0.3369459273380926,,,,,,,,,,,,,,,,,,60,001,22,w,Psychologie,2023-01-24_15h06.37.548,00_bat_bachelor,2022.2.4,59.95665672711451,
,,,,,,,,,,,,1,0,1,0,16,0,16,0,,,,,,,16,,,0.2,736.917572728591,X,d,go,d,1,0.4217285961203743,,,,,,,,,,,,,,,,,,60,001,22,w,Psychologie,2023-01-24_15h06.37.548,00_bat_bachelor,2022.2.4,59.95665672711451,
,,,,,,,,,,,,1,0,1,0,17,0,17,0,,,,,,,17,,,0.2,737.6514816748822,X,None,nogo,None,1,,738.4518721724162,,,,,,,,,,,,,,,,,60,001,22,w,Psychologie,2023-01-24_15h06.37.548,00_bat_bachelor,2022.2.4,59.95665672711451,
,,,,,,,,,,,,1,0,1,0,18,0,18,0,,,,,,,18,,,0.2,738.6522128274664,Y,l,go,l,1,0.3675433051685104,,,,,,,,,,,,,,,,,,60,001,22,w,Psychologie,2023-01-24_15h06.37.548,00_bat_bachelor,2022.2.4,59.95665672711451,
,,,,,,,,,,,,1,0,1,0,19,0,19,0,,,,,,,19,,,0.2,739.3360756403563,X,d,go,d,1,0.22761195013299584,,,,,,,,,,,,,,,,,,60,001,22,w,Psychologie,2023-01-24_15h06.37.548,00_bat_bachelor,2022.2.4,59.95665672711451,
,,,,,,,,,,,,1,0,1,0,20,0,20,0,,,,,,,20,,,0.2,739.8697893863573,Y,l,go,l,1,0.3656276660331059,,,,,,,,,,,,,,,,,,60,001,22,w,Psychologie,2023-01-24_15h06.37.548,00_bat_bachelor,2022.2.4,59.95665672711451,
,,,,,,,,,,,,1,0,1,0,21,0,21,0,,,,,,,21,,,0.2,740.5369510840537,X,d,go,d,1,0.5790960977465147,,,,,,,,,,,,,,,,,,60,001,22,w,Psychologie,2023-01-24_15h06.37.548,00_bat_bachelor,2022.2.4,59.95665672711451,
,,,,,,,,,,,,1,0,1,0,22,0,22,0,,,,,,,22,,,0.2,741.4210071578273,Y,l,go,l,1,0.28718197616399266,,,,,,,,,,,,,,,,,,60,001,22,w,Psychologie,2023-01-24_15h06.37.548,00_bat_bachelor,2022.2.4,59.95665672711451,
,,,,,,,,,,,,1,0,1,0,23,0,23,0,,,,,,,23,,,0.2,742.0212465763616,X,d,go,d,1,0.47069303096213844,,,,,,,,,,,,,,,,,,60,001,22,w,Psychologie,2023-01-24_15h06.37.548,00_bat_bachelor,2022.2.4,59.95665672711451,
,,,,,,,,,,,,1,0,1,0,24,0,24,0,,,,,,,24,,,0.2,742.8053621411382,X,None,nogo,None,1,,,,,,,,,,,,,,,,,,,60,001,22,w,Psychologie,2023-01-24_15h06.37.548,00_bat_bachelor,2022.2.4,59.95665672711451,
,,,,,,,,,,,,1,0,1,0,25,0,25,0,,,,,,,25,,,0.2,743.8061800817231,Y,l,go,l,1,0.2538524731353391,,,,,,,,,,,,,,,,,,60,001,22,w,Psychologie,2023-01-24_15h06.37.548,00_bat_bachelor,2022.2.4,59.95665672711451,
,,,,,,,,,,,,1,0,1,0,26,0,26,0,,,,,,,26,,,0.2,744.3732344822783,X,d,go,d,1,0.2631863049027743,,,,,,,,,,,,,,,,,,60,001,22,w,Psychologie,2023-01-24_15h06.37.548,00_bat_bachelor,2022.2.4,59.95665672711451,
,,,,,,,,,,,,1,0,1,0,27,0,27,0,,,,,,,27,,,0.2,744.9403683981072,Y,l,go,l,1,0.3520227977569448,,,,,,,,,,,,,,,,,,60,001,22,w,Psychologie,2023-01-24_15h06.37.548,00_bat_bachelor,2022.2.4,59.95665672711451,
,,,,,,,,,,,,1,0,1,0,28,0,28,0,,,,,,,28,,,0.2,745.6075267018605,X,d,go,d,1,0.27711359788372647,,,,,,,,,,,,,,,,,,60,001,22,w,Psychologie,2023-01-24_15h06.37.548,00_bat_bachelor,2022.2.4,59.95665672711451,
,,,,,,,,,,,,1,0,1,0,29,0,29,0,,,,,,,29,,,0.2,746.1913607631868,Y,l,go,l,1,0.46133253250445705,,,,,,,,,,,,,,,,,,60,001,22,w,Psychologie,2023-01-24_15h06.37.548,00_bat_bachelor,2022.2.4,59.95665672711451,
,,,,,,,,,,,,1,0,1,0,30,0,30,0,,,,,,,30,,,0.2,746.9585851518787,X,d,go,d,1,0.3820897505793255,,,,,,,,,,,,,,,,,,60,001,22,w,Psychologie,2023-01-24_15h06.37.548,00_bat_bachelor,2022.2.4,59.95665672711451,
,,,,,,,,,,,,1,0,1,0,31,0,31,0,,,,,,,31,,,0.2,747.6422074795701,X,None,nogo,l,0,0.28970707074040547,,,,,,,,,,,,,,,,,,60,001,22,w,Psychologie,2023-01-24_15h06.37.548,00_bat_bachelor,2022.2.4,59.95665672711451,
,,,,,,,,,,,,1,0,1,0,32,0,32,0,,,,,,,32,,,0.2,748.2425671407109,X,None,nogo,d,0,0.5850539245875552,,,,,,,,,,,,,,,,,,60,001,22,w,Psychologie,2023-01-24_15h06.37.548,00_bat_bachelor,2022.2.4,59.95665672711451,
,,,,,,,,,,,,1,0,1,0,33,0,33,0,,,,,,,33,,,0.2,749.1434862693131,Y,l,go,None,0,,,,,,,,,,,,,,,,,,,60,001,22,w,Psychologie,2023-01-24_15h06.37.548,00_bat_bachelor,2022.2.4,59.95665672711451,
,,,,,,,,,,,,1,0,1,0,34,0,34,0,,,,,,,34,,,0.2,750.1443512402766,X,d,go,d,1,0.4766993427328998,,,,,,,,,,,,,,,,,,60,001,22,w,Psychologie,2023-01-24_15h06.37.548,00_bat_bachelor,2022.2.4,59.95665672711451,
,,,,,,,,,,,,1,0,1,0,35,0,35,0,,,,,,,35,,,0.2,750.9282108046755,Y,l,go,l,1,0.4281038781191455,,,,,,,,,,,,,,,,,,60,001,22,w,Psychologie,2023-01-24_15h06.37.548,00_bat_bachelor,2022.2.4,59.95665672711451,
,,,,,,,,,,,,1,0,1,0,36,0,36,0,,,,,,,36,,,0.2,751.6619684780162,Y,None,nogo,d,0,0.3011979965522187,,,,,,,,,,,,,,,,,,60,001,22,w,Psychologie,2023-01-24_15h06.37.548,00_bat_bachelor,2022.2.4,59.95665672711451,
,,,,,,,,,,,,1,0,1,0,37,0,37,0,,,,,,,37,,,0.2,752.2792697395489,X,d,go,None,0,,753.0795957521477,,,,,,,,,,,,,,,,,60,001,22,w,Psychologie,2023-01-24_15h06.37.548,00_bat_bachelor,2022.2.4,59.95665672711451,
,,,,,,,,,,,,1,0,1,0,38,0,38,0,,,,,,,38,,,0.2,753.2800144679059,Y,l,go,None,0,,,,,,,,,,,,,,,,,,,60,001,22,w,Psychologie,2023-01-24_15h06.37.548,00_bat_bachelor,2022.2.4,59.95665672711451,
,,,,,,,,,,,,1,0,1,0,39,0,39,0,,,,,,,39,,,0.2,754.2806103475596,X,d,go,d,1,0.3872703641827684,,,,,,,,,,,,,,,,,,60,001,22,w,Psychologie,2023-01-24_15h06.37.548,00_bat_bachelor,2022.2.4,59.95665672711451,
,,,,,,,,,,,,1,0,1,0,40,0,40,0,,,,,,,40,,,0.2,754.9813333061902,Y,l,go,l,1,0.37430210287857335,,,,,,,,,,,,,,,,,,60,001,22,w,Psychologie,2023-01-24_15h06.37.548,00_bat_bachelor,2022.2.4,59.95665672711451,
,,,,,,,,,,,,1,0,1,0,41,0,41,0,,,,,,,41,,,0.2,755.6650123612344,X,d,go,d,1,0.31584868452046067,,,,,,,,,,,,,,,,,,60,001,22,w,Psychologie,2023-01-24_15h06.37.548,00_bat_bachelor,2022.2.4,59.95665672711451,
,,,,,,,,,,,,1,0,1,0,42,0,42,0,,,,,,,42,,,0.2,756.2823097439687,Y,l,go,l,1,0.38595787741360255,,,,,,,,,,,,,,,,,,60,001,22,w,Psychologie,2023-01-24_15h06.37.548,00_bat_bachelor,2022.2.4,59.95665672711451,
,,,,,,,,,,,,1,0,1,0,43,0,43,0,,,,,,,43,,,0.2,756.9829594903713,X,d,go,d,1,0.3256038502440788,,,,,,,,,,,,,,,,,,60,001,22,w,Psychologie,2023-01-24_15h06.37.548,00_bat_bachelor,2022.2.4,59.95665672711451,
,,,,,,,,,,,,1,0,1,0,44,0,44,0,,,,,,,44,,,0.2,757.616424654203,X,None,nogo,l,0,0.3322215568332467,,,,,,,,,,,,,,,,,,60,001,22,w,Psychologie,2023-01-24_15h06.37.548,00_bat_bachelor,2022.2.4,59.95665672711451,
,,,,,,,,,,,,1,0,1,0,45,0,45,0,,,,,,,45,,,0.2,758.2504115157499,Y,l,go,l,1,0.5465375049388967,,,,,,,,,,,,,,,,,,60,001,22,w,Psychologie,2023-01-24_15h06.37.548,00_bat_bachelor,2022.2.4,59.95665672711451,
,,,,,,,,,,,,1,0,1,0,46,0,46,0,,,,,,,46,,,0.2,759.1011283895205,X,d,go,d,1,0.6069434109813301,,,,,,,,,,,,,,,,,,60,001,22,w,Psychologie,2023-01-24_15h06.37.548,00_bat_bachelor,2022.2.4,59.95665672711451,
,,,,,,,,,,,,1,0,1,0,47,0,47,0,,,,,,,47,,,0.2,760.0183355418267,Y,l,go,None,0,,,,,,,,,,,,,,,,,,,60,001,22,w,Psychologie,2023-01-24_15h06.37.548,00_bat_bachelor,2022.2.4,59.95665672711451,
,,,,,,,,,,,,1,0,1,0,48,0,48,0,,,,,,,48,,,0.2,761.019336755402,X,d,go,d,1,0.33653235097881407,,,,,,,,,,,,,,,,,,60,001,22,w,Psychologie,2023-01-24_15h06.37.548,00_bat_bachelor,2022.2.4,59.95665672711451,
,,,,,,,,,,,,1,0,1,0,49,0,49,0,,,,,,,49,,,0.2,761.6698574591865,X,None,nogo,d,0,0.3428877541591646,,,,,,,,,,,,,,,,,,60,001,22,w,Psychologie,2023-01-24_15h06.37.548,00_bat_bachelor,2022.2.4,59.95665672711451,
,,,,,,,,,,,,1,0,1,0,50,0,50,0,,,,,,,50,,,0.2,762.3202976780158,X,None,nogo,None,1,,,,,,,,,,,,,,,,,,,60,001,22,w,Psychologie,2023-01-24_15h06.37.548,00_bat_bachelor,2022.2.4,59.95665672711451,
,,,,,,,,,,,,1,0,1,0,51,0,51,0,,,,,,,51,,,0.2,763.3207621635374,Y,l,go,None,0,,,,,,,,,,,,,,,,,,,60,001,22,w,Psychologie,2023-01-24_15h06.37.548,00_bat_bachelor,2022.2.4,59.95665672711451,
,,,,,,,,,,,,1,0,1,0,52,0,52,0,,,,,,,52,,,0.2,764.3218613166537,X,d,go,d,1,0.2658127329632407,,,,,,,,,,,,,,,,,,60,001,22,w,Psychologie,2023-01-24_15h06.37.548,00_bat_bachelor,2022.2.4,59.95665672711451,
,,,,,,,,,,,,1,0,1,0,53,0,53,0,,,,,,,53,,,0.2,764.8889254141977,Y,l,go,l,1,0.4669456315750722,,,,,,,,,,,,,,,,,,60,001,22,w,Psychologie,2023-01-24_15h06.37.548,00_bat_bachelor,2022.2.4,59.95665672711451,
,,,,,,,,,,,,1,0,1,0,54,0,54,0,,,,,,,54,,,0.2,765.6561822877848,X,d,go,None,0,,766.4567681795452,,,,,,,,,,,,,,,,,60,001,22,w,Psychologie,2023-01-24_15h06.37.548,00_bat_bachelor,2022.2.4,59.95665672711451,
,,,,,,,,,,,,1,0,1,0,55,0,55,0,,,,,,,55,,,0.2,766.6569774404488,Y,l,go,None,0,,,,,,,,,,,,,,,,,,,60,001,22,w,Psychologie,2023-01-24_15h06.37.548,00_bat_bachelor,2022.2.4,59.95665672711451,
,,,,,,,,,,,,1,0,1,0,56,0,56,0,,,,,,,56,,,0.2,767.6576411989954,X,d,go,d,1,0.466719207004644,,,,,,,,,,,,,,,,,,60,001,22,w,Psychologie,2023-01-24_15h06.37.548,00_bat_bachelor,2022.2.4,59.95665672711451,
,,,,,,,,,,,,1,0,1,0,57,0,57,0,,,,,,,57,,,0.2,768.4423540979769,Y,l,go,l,1,0.25636884043342434,,,,,,,,,,,,,,,,,,60,001,22,w,Psychologie,2023-01-24_15h06.37.548,00_bat_bachelor,2022.2.4,59.95665672711451,
,,,,,,,,,,,,1,0,1,0,58,0,58,0,,,,,,,58,,,0.2,769.0428189713712,Y,None,nogo,None,1,,769.8432996508636,,,,,,,,,,,,,,,,,60,001,22,w,Psychologie,2023-01-24_15h06.37.548,00_bat_bachelor,2022.2.4,59.95665672711451,
,,,,,,,,,,,,1,0,1,0,59,0,59,0,,,,,,,59,,,0.2,770.043645639249,X,d,go,d,1,0.3848306030558888,,,,,,,,,,,,,,,,,,60,001,22,w,Psychologie,2023-01-24_15h06.37.548,00_bat_bachelor,2022.2.4,59.95665672711451,
,,,,,,,,,,,,1,0,1,0,60,0,60,0,,,,,,,60,,,0.2,770.7605305607722,Y,l,go,None,0,,771.5613142710063,,,,,,,,,,,,,,,,,60,001,22,w,Psychologie,2023-01-24_15h06.37.548,00_bat_bachelor,2022.2.4,59.95665672711451,
,,,,,,,,,,,,1,0,1,0,61,0,61,0,,,,,,,61,,,0.2,771.7612141981372,X,d,go,None,0,,772.561820938412,,,,,,,,,,,,,,,,,60,001,22,w,Psychologie,2023-01-24_15h06.37.548,00_bat_bachelor,2022.2.4,59.95665672711451,
,,,,,,,,,,,,1,0,1,0,62,0,62,0,,,,,,,62,,,0.2,772.7622115329141,Y,l,go,None,0,,773.5625845758768,,,,,,,,,,,,,,,,,60,001,22,w,Psychologie,2023-01-24_15h06.37.548,00_bat_bachelor,2022.2.4,59.95665672711451,
,,,,,,,,,,,,1,0,1,0,63,0,63,0,,,,,,,63,,,0.2,773.7629116551398,Y,None,nogo,None,1,,774.5635717288387,,,,,,,,,,,,,,,,,60,001,22,w,Psychologie,2023-01-24_15h06.37.548,00_bat_bachelor,2022.2.4,59.95665672711451,
,,,,,,,,,,,,1,0,1,0,64,0,64,0,,,,,,,64,,,0.2,774.7637373533216,X,d,go,d,1,0.2240904904610943,,,,,,,,,,,,,,,,,,60,001,22,w,Psychologie,2023-01-24_15h06.37.548,00_bat_bachelor,2022.2.4,59.95665672711451,
,,,,,,,,,,,,1,0,1,0,65,0,65,0,,,,,,,65,,,0.2,775.2972605535906,Y,l,go,l,1,0.41081221659260336,,,,,,,,,,,,,,,,,,60,001,22,w,Psychologie,2023-01-24_15h06.37.548,00_bat_bachelor,2022.2.4,59.95665672711451,
,,,,,,,,,,,,1,0,1,0,66,0,66,0,,,,,,,66,,,0.2,776.0144771119667,X,d,go,d,1,0.28438197208743077,,,,,,,,,,,,,,,,,,60,001,22,w,Psychologie,2023-01-24_15h06.37.548,00_bat_bachelor,2022.2.4,59.95665672711451,
,,,,,,,,,,,,1,0,1,0,67,0,67,0,,,,,,,67,,,0.2,776.6315757065313,X,None,nogo,None,1,,777.4322488711477,,,,,,,,,,,,,,,,,60,001,22,w,Psychologie,2023-01-24_15h06.37.548,00_bat_bachelor,2022.2.4,59.95665672711451,
,,,,,,,,,,,,1,0,1,0,68,0,68,0,,,,,,,68,,,0.2,777.6324658896483,X,None,nogo,d,0,0.39590892218984663,,,,,,,,,,,,,,,,,,60,001,22,w,Psychologie,2023-01-24_15h06.37.548,00_bat_bachelor,2022.2.4,59.95665672711451,
,,,,,,,,,,,,1,0,1,0,69,0,69,0,,,,,,,69,,,0.2,778.3330700602237,Y,l,go,l,1,0.31827777897706255,,,,,,,,,,,,,,,,,,60,001,22,w,Psychologie,2023-01-24_15h06.37.548,00_bat_bachelor,2022.2.4,59.95665672711451,
,,,,,,,,,,,,1,0,1,0,70,0,70,0,,,,,,,70,,,0.2,778.9666840727587,X,d,go,d,1,0.22878140637476463,,,,,,,,,,,,,,,,,,60,001,22,w,Psychologie,2023-01-24_15h06.37.548,00_bat_bachelor,2022.2.4,59.95665672711451,
,,,,,,,,,,,,1,0,1,0,71,0,71,0,,,,,,,71,,,0.2,779.5006164857477,X,None,nogo,None,1,,780.301330377697,,,,,,,,,,,,,,,,,60,001,22,w,Psychologie,2023-01-24_15h06.37.548,00_bat_bachelor,2022.2.4,59.95665672711451,
,,,,,,,,,,,,1,0,1,0,72,0,72,0,,,,,,,72,,,0.2,780.5013738201815,Y,l,go,d,0,0.2945613808406051,,,,,,,,,,,,,,,,,,60,001,22,w,Psychologie,2023-01-24_15h06.37.548,00_bat_bachelor,2022.2.4,59.95665672711451,
,,,,,,,,,,,,1,0,1,0,73,0,73,0,,,,,,,73,,,0.2,781.1180947172252,X,d,go,None,0,,781.9186185482977,,,,,,,,,,,,,,,,,60,001,22,w,Psychologie,2023-01-24_15h06.37.548,00_bat_bachelor,2022.2.4,59.95665672711451,
,,,,,,,,,,,,1,0,1,0,74,0,74,0,,,,,,,74,,,0.2,782.1189601730293,X,None,nogo,None,1,,782.919383155473,,,,,,,,,,,,,,,,,60,001,22,w,Psychologie,2023-01-24_15h06.37.548,00_bat_bachelor,2022.2.4,59.95665672711451,
,,,,,,,,,,,,1,0,1,0,75,0,75,0,,,,,,,75,,,0.2,783.119724295364,Y,l,go,l,1,0.34836364090733696,,,,,,,,,,,,,,,,,,60,001,22,w,Psychologie,2023-01-24_15h06.37.548,00_bat_bachelor,2022.2.4,59.95665672711451,
,,,,,,,,,,,,1,0,1,0,76,0,76,0,,,,,,,76,,,0.2,783.7701916657388,X,d,go,d,1,0.36955106566892937,,,,,,,,,,,,,,,,,,60,001,22,w,Psychologie,2023-01-24_15h06.37.548,00_bat_bachelor,2022.2.4,59.95665672711451,
,,,,,,,,,,,,1,0,1,0,77,0,77,0,,,,,,,77,,,0.2,784.453870720783,X,None,nogo,l,0,0.2617894543800503,,,,,,,,,,,,,,,,,,60,001,22,w,Psychologie,2023-01-24_15h06.37.548,00_bat_bachelor,2022.2.4,59.95665672711451,
,,,,,,,,,,,,1,0,1,0,78,0,78,0,,,,,,,78,,,0.2,785.0378769035742,Y,l,go,None,0,,785.8382596435258,,,,,,,,,,,,,,,,,60,001,22,w,Psychologie,2023-01-24_15h06.37.548,00_bat_bachelor,2022.2.4,59.95665672711451,
,,,,,,,,,,,,1,0,1,0,79,0,79,0,,,,,,,79,,,0.2,786.0384146013384,X,d,go,d,1,0.27682462777011096,,,,,,,,,,,,,,,,,,60,001,22,w,Psychologie,2023-01-24_15h06.37.548,00_bat_bachelor,2022.2.4,59.95665672711451,
,,,,,,,,,,,,1,0,1,0,80,0,80,0,,,,,,,80,,,0.2,786.62222199596,X,None,nogo,None,1,,,,,,,,,,,,,,,,,,,60,001,22,w,Psychologie,2023-01-24_15h06.37.548,00_bat_bachelor,2022.2.4,59.95665672711451,
,,,,,,,,,,,,1,0,1,0,81,0,81,0,,,,,,,81,,,0.2,787.6229424818594,Y,l,go,d,0,0.26183066656813025,,,,,,,,,,,,,,,,,,60,001,22,w,Psychologie,2023-01-24_15h06.37.548,00_bat_bachelor,2022.2.4,59.95665672711451,
,,,,,,,,,,,,1,0,1,0,82,0,82,0,,,,,,,82,,,0.2,788.1897326396138,X,d,go,None,0,,788.990565804459,,,,,,,,,,,,,,,,,60,001,22,w,Psychologie,2023-01-24_15h06.37.548,00_bat_bachelor,2022.2.4,59.95665672711451,
,,,,,,,,,,,,1,0,1,0,83,0,83,0,,,,,,,83,,,0.2,789.1904812467692,Y,l,go,None,0,,,,,,,,,,,,,,,,,,,60,001,22,w,Psychologie,2023-01-24_15h06.37.548,00_bat_bachelor,2022.2.4,59.95665672711451,
,,,,,,,,,,,,1,0,1,0,84,0,84,0,,,,,,,84,,,0.2,790.1916002786893,X,d,go,d,1,0.2529312596889213,,,,,,,,,,,,,,,,,,60,001,22,w,Psychologie,2023-01-24_15h06.37.548,00_bat_bachelor,2022.2.4,59.95665672711451,
,,,,,,,,,,,,1,0,1,0,85,0,85,0,,,,,,,85,,,0.2,790.7587269217911,Y,l,go,l,1,0.21281386799819302,,,,,,,,,,,,,,,,,,60,001,22,w,Psychologie,2023-01-24_15h06.37.548,00_bat_bachelor,2022.2.4,59.95665672711451,
,,,,,,,,,,,,1,0,1,0,86,0,86,0,,,,,,,86,,,0.2,791.275747310181,X,d,go,d,1,0.3522758890321711,,,,,,,,,,,,,,,,,,60,001,22,w,Psychologie,2023-01-24_15h06.37.548,00_bat_bachelor,2022.2.4,59.95665672711451,
,,,,,,,,,,,,1,0,1,0,87,0,87,0,,,,,,,87,,,0.2,791.9429584624886,Y,l,go,l,1,0.3255131834303029,,,,,,,,,,,,,,,,,,60,001,22,w,Psychologie,2023-01-24_15h06.37.548,00_bat_bachelor,2022.2.4,59.95665672711451,
,,,,,,,,,,,,1,0,1,0,88,0,88,0,,,,,,,88,,,0.2,792.5765152628155,X,d,go,d,1,0.2838214864314068,,,,,,,,,,,,,,,,,,60,001,22,w,Psychologie,2023-01-24_15h06.37.548,00_bat_bachelor,2022.2.4,59.95665672711451,
,,,,,,,,,,,,1,0,1,0,89,0,89,0,,,,,,,89,,,0.2,793.1604288394155,Y,l,go,l,1,0.3242108785052551,,,,,,,,,,,,,,,,,,60,001,22,w,Psychologie,2023-01-24_15h06.37.548,00_bat_bachelor,2022.2.4,59.95665672711451,
,,,,,,,,,,,,1,0,1,0,90,0,90,0,,,,,,,90,,,0.2,793.794039942848,Y,None,nogo,None,1,,,,,,,,,,,,,,,,,,,60,001,22,w,Psychologie,2023-01-24_15h06.37.548,00_bat_bachelor,2022.2.4,59.95665672711451,
,,,,,,,,,,,,1,0,1,0,91,0,91,0,,,,,,,91,,,0.2,794.7951390959643,X,d,go,d,1,0.22495158261153847,,,,,,,,,,,,,,,,,,60,001,22,w,Psychologie,2023-01-24_15h06.37.548,00_bat_bachelor,2022.2.4,59.95665672711451,
,,,,,,,,,,,,1,0,1,0,92,0,92,0,,,,,,,92,,,0.2,795.3286521144037,Y,l,go,l,1,0.29985060065519065,,,,,,,,,,,,,,,,,,60,001,22,w,Psychologie,2023-01-24_15h06.37.548,00_bat_bachelor,2022.2.4,59.95665672711451,
,,,,,,,,,,,,1,0,1,0,93,0,93,0,,,,,,,93,,,0.2,795.929317715374,X,d,go,d,1,0.30668939847964793,,,,,,,,,,,,,,,,,,60,001,22,w,Psychologie,2023-01-24_15h06.37.548,00_bat_bachelor,2022.2.4,59.95665672711451,
,,,,,,,,,,,,1,0,1,0,94,0,94,0,,,,,,,94,,,0.2,796.546231582397,Y,l,go,l,1,0.28222051440388896,,,,,,,,,,,,,,,,,,60,001,22,w,Psychologie,2023-01-24_15h06.37.548,00_bat_bachelor,2022.2.4,59.95665672711451,
,,,,,,,,,,,,1,0,1,0,95,0,95,0,,,,,,,95,,,0.2,797.1301931590715,X,d,go,d,1,0.25793975181295536,,,,,,,,,,,,,,,,,,60,001,22,w,Psychologie,2023-01-24_15h06.37.548,00_bat_bachelor,2022.2.4,59.95665672711451,
,,,,,,,,,,,,1,0,1,0,96,0,96,0,,,,,,,96,,,0.2,797.6973416203837,X,None,nogo,l,0,0.36348657199414447,,,,,,,,,,,,,,,,,,60,001,22,w,Psychologie,2023-01-24_15h06.37.548,00_bat_bachelor,2022.2.4,59.95665672711451,
,,,,,,,,,,,,1,0,1,0,97,0,97,0,,,,,,,97,,,0.2,798.3645101059519,Y,l,go,None,0,,,,,,,,,,,,,,,,,,,60,001,22,w,Psychologie,2023-01-24_15h06.37.548,00_bat_bachelor,2022.2.4,59.95665672711451,
,,,,,,,,,,,,1,0,1,0,98,0,98,0,,,,,,,98,,,0.2,799.3652558040048,X,d,go,None,0,,,,,,,,,,,,,,,,,,,60,001,22,w,Psychologie,2023-01-24_15h06.37.548,00_bat_bachelor,2022.2.4,59.95665672711451,
,,,,,,,,,,,,1,0,1,0,99,0,99,0,,,,,,,99,,,0.2,800.3659733808163,Y,l,go,l,1,0.4470634208410047,,,,,,,,,,,,,,,,,,60,001,22,w,Psychologie,2023-01-24_15h06.37.548,00_bat_bachelor,2022.2.4,59.95665672711451,
,,,,,,,,,,,,1,0,1,0,100,0,100,0,,,,,,,100,,,0.2,801.1166450181481,X,d,go,d,1,0.3188237191643566,,,,,,,,,,,,,,,,,,60,001,22,w,Psychologie,2023-01-24_15h06.37.548,00_bat_bachelor,2022.2.4,59.95665672711451,
,,,,,,,,,,,,1,0,1,0,101,0,101,0,,,,,,,101,,,0.2,801.7504287279007,Y,l,go,l,1,0.3099519486713689,,,,,,,,,,,,,,,,,,60,001,22,w,Psychologie,2023-01-24_15h06.37.548,00_bat_bachelor,2022.2.4,59.95665672711451,
,,,,,,,,,,,,1,0,1,0,102,0,102,0,,,,,,,102,,,0.2,802.3675433224853,X,d,go,d,1,0.39694504490762483,,,,,,,,,,,,,,,,,,60,001,22,w,Psychologie,2023-01-24_15h06.37.548,00_bat_bachelor,2022.2.4,59.95665672711451,
,,,,,,,,,,,,1,0,1,0,103,0,103,0,,,,,,,103,,,0.2,803.0681731900695,X,None,nogo,l,0,0.3200043269316666,,,,,,,,,,,,,,,,,,60,001,22,w,Psychologie,2023-01-24_15h06.37.548,00_bat_bachelor,2022.2.4,59.95665672711451,
,,,,,,,,,,,,1,0,1,0,104,0,104,0,,,,,,,104,,,0.2,803.7019132633868,X,None,nogo,None,1,,,,,,,,,,,,,,,,,,,60,001,22,w,Psychologie,2023-01-24_15h06.37.548,00_bat_bachelor,2022.2.4,59.95665672711451,
,,,,,,,,,,,,1,0,1,0,105,0,105,0,,,,,,,105,,,0.2,804.7025920522574,Y,l,go,None,0,,,,,,,,,,,,,,,,,,,60,001,22,w,Psychologie,2023-01-24_15h06.37.548,00_bat_bachelor,2022.2.4,59.95665672711451,
,,,,,,,,,,,,1,0,1,0,106,0,106,0,,,,,,,106,,,0.2,805.7034507201752,X,d,go,d,1,0.22945001340121962,,,,,,,,,,,,,,,,,,60,001,22,w,Psychologie,2023-01-24_15h06.37.548,00_bat_bachelor,2022.2.4,59.95665672711451,
,,,,,,,,,,,,1,0,1,0,107,0,107,0,,,,,,,107,,,0.2,806.2372158601938,X,None,nogo,l,0,0.27143261992023326,,,,,,,,,,,,,,,,,,60,001,22,w,Psychologie,2023-01-24_15h06.37.548,00_bat_bachelor,2022.2.4,59.95665672711451,
,,,,,,,,,,,,1,0,1,0,108,0,108,0,,,,,,,108,,,0.2,806.8209136789083,Y,l,go,None,0,,807.6213080552407,,,,,,,,,,,,,,,,,60,001,22,w,Psychologie,2023-01-24_15h06.37.548,00_bat_bachelor,2022.2.4,59.95665672711451,
,,,,,,,,,,,,1,0,1,0,109,0,109,0,,,,,,,109,,,0.2,807.8213927099132,X,d,go,d,1,0.31869668867147993,,,,,,,,,,,,,,,,,,60,001,22,w,Psychologie,2023-01-24_15h06.37.548,00_bat_bachelor,2022.2.4,59.95665672711451,
,,,,,,,,,,,,1,0,1,0,110,0,110,0,,,,,,,110,,,0.2,808.4555167837825,Y,l,go,l,1,0.2769060824357439,,,,,,,,,,,,,,,,,,60,001,22,w,Psychologie,2023-01-24_15h06.37.548,00_bat_bachelor,2022.2.4,59.95665672711451,
,,,,,,,,,,,,1,0,1,0,111,0,111,0,,,,,,,111,,,0.2,809.0393547239073,Y,None,nogo,None,1,,,,,,,,,,,,,,,,,,,60,001,22,w,Psychologie,2023-01-24_15h06.37.548,00_bat_bachelor,2022.2.4,59.95665672711451,
,,,,,,,,,,,,1,0,1,0,112,0,112,0,,,,,,,112,,,0.2,810.0400480582612,X,d,go,d,1,0.22892928538203705,,,,,,,,,,,,,,,,,,60,001,22,w,Psychologie,2023-01-24_15h06.37.548,00_bat_bachelor,2022.2.4,59.95665672711451,
,,,,,,,,,,,,1,0,1,0,113,0,113,0,,,,,,,113,,,0.2,810.5737521072733,Y,l,go,l,1,0.31807365745771676,,,,,,,,,,,,,,,,,,60,001,22,w,Psychologie,2023-01-24_15h06.37.548,00_bat_bachelor,2022.2.4,59.95665672711451,
,,,,,,,,,,,,1,0,1,0,114,0,114,0,,,,,,,114,,,0.2,811.2075935140747,Y,None,nogo,d,0,0.2768818399781594,,,,,,,,,,,,,,,,,,60,001,22,w,Psychologie,2023-01-24_15h06.37.548,00_bat_bachelor,2022.2.4,59.95665672711451,
,,,,,,,,,,,,1,0,1,0,115,0,115,0,,,,,,,115,,,0.2,811.7910920597787,X,d,go,None,0,,,,,,,,,,,,,,,,,,,60,001,22,w,Psychologie,2023-01-24_15h06.37.548,00_bat_bachelor,2022.2.4,59.95665672711451,
,,,,,,,,,,,,1,0,1,0,116,0,116,0,,,,,,,116,,,0.2,812.792096182442,Y,l,go,d,0,0.22877267909643706,,,,,,,,,,,,,,,,,,60,001,22,w,Psychologie,2023-01-24_15h06.37.548,00_bat_bachelor,2022.2.4,59.95665672711451,
,,,,,,,,,,,,1,0,1,0,117,0,117,0,,,,,,,117,,,0.2,813.3259694438311,X,d,go,None,0,,,,,,,,,,,,,,,,,,,60,001,22,w,Psychologie,2023-01-24_15h06.37.548,00_bat_bachelor,2022.2.4,59.95665672711451,
,,,,,,,,,,,,1,0,1,0,118,0,118,0,,,,,,,118,,,0.2,814.3275636279723,Y,l,go,d,0,0.22836298152105883,,,,,,,,,,,,,,,,,,60,001,22,w,Psychologie,2023-01-24_15h06.37.548,00_bat_bachelor,2022.2.4,59.95665672711451,
,,,,,,,,,,,,1,0,1,0,119,0,119,0,,,,,,,119,,,0.2,814.8777506100596,Y,None,nogo,d,0,0.20562258480640594,,,,,,,,,,,,,,,,,,60,001,22,w,Psychologie,2023-01-24_15h06.37.548,00_bat_bachelor,2022.2.4,59.95665672711451,
,,,,,,,,,,,,1,0,1,0,120,0,120,0,,,,,,,120,,,0.2,815.4115186591807,X,d,go,None,0,,816.2118980051891,,,,,,,,,,,,,,,,,60,001,22,w,Psychologie,2023-01-24_15h06.37.548,00_bat_bachelor,2022.2.4,59.95665672711451,
,,,,,,,,,,,,1,0,1,0,121,0,121,0,,,,,,,121,,,0.2,816.4123429028114,Y,l,go,None,0,,817.2126626123645,,,,,,,,,,,,,,,,,60,001,22,w,Psychologie,2023-01-24_15h06.37.548,00_bat_bachelor,2022.2.4,59.95665672711451,
,,,,,,,,,,,,1,0,1,0,122,0,122,0,,,,,,,122,,,0.2,817.4130435098778,X,d,go,d,1,0.18211176272598095,,,,,,,,,,,,,,,,,,60,001,22,w,Psychologie,2023-01-24_15h06.37.548,00_bat_bachelor,2022.2.4,59.95665672711451,
,,,,,,,,,,,,1,0,1,0,123,0,123,0,,,,,,,123,,,0.2,817.9301342014078,Y,l,go,l,1,0.2890845243819058,,,,,,,,,,,,,,,,,,60,001,22,w,Psychologie,2023-01-24_15h06.37.548,00_bat_bachelor,2022.2.4,59.95665672711451,
,,,,,,,,,,,,1,0,1,0,124,0,124,0,,,,,,,124,,,0.2,818.5472478262964,X,d,go,l,0,0.360158567171311,,,,,,,,,,,,,,,,,,60,001,22,w,Psychologie,2023-01-24_15h06.37.548,00_bat_bachelor,2022.2.4,59.95665672711451,
,,,,,,,,,,,,1,0,1,0,125,0,125,0,,,,,,,125,,,0.2,819.2143872209272,X,None,nogo,None,1,,820.0152940828557,,,,,,,,,,,,,,,,,60,001,22,w,Psychologie,2023-01-24_15h06.37.548,00_bat_bachelor,2022.2.4,59.95665672711451,
,,,,,,,,,,,,1,0,1,0,126,0,126,0,,,,,,,126,,,0.2,820.2152701313025,Y,l,go,None,0,,821.015589356015,,,,,,,,,,,,,,,,,60,001,22,w,Psychologie,2023-01-24_15h06.37.548,00_bat_bachelor,2022.2.4,59.95665672711451,
,,,,,,,,,,,,1,0,1,0,127,0,127,0,,,,,,,127,,,0.2,821.2161302537716,X,d,go,d,1,0.2680813423212385,,,,,,,,,,,,,,,,,,60,001,22,w,Psychologie,2023-01-24_15h06.37.548,00_bat_bachelor,2022.2.4,59.95665672711451,
,,,,,,,,,,,,1,0,1,0,128,0,128,0,,,,,,,128,,,0.2,821.7997087995755,Y,l,go,l,1,0.22784225350187626,,,,,,,,,,,,,,,,,,60,001,22,w,Psychologie,2023-01-24_15h06.37.548,00_bat_bachelor,2022.2.4,59.95665672711451,
,,,,,,,,,,,,1,0,1,0,129,0,129,0,,,,,,,129,,,0.2,822.3499709332973,Y,None,nogo,None,1,,823.1506440979138,,,,,,,,,,,,,,,,,60,001,22,w,Psychologie,2023-01-24_15h06.37.548,00_bat_bachelor,2022.2.4,59.95665672711451,
,,,,,,,,,,,,1,0,1,0,130,0,130,0,,,,,,,130,,,0.2,823.3506671767245,X,d,go,d,1,0.1812579433026258,,,,,,,,,,,,,,,,,,60,001,22,w,Psychologie,2023-01-24_15h06.37.548,00_bat_bachelor,2022.2.4,59.95665672711451,
,,,,,,,,,,,,1,0,1,0,131,0,131,0,,,,,,,131,,,0.2,823.8511314198258,Y,l,go,l,1,0.24108542426256463,,,,,,,,,,,,,,,,,,60,001,22,w,Psychologie,2023-01-24_15h06.37.548,00_bat_bachelor,2022.2.4,59.95665672711451,
,,,,,,,,,,,,1,0,1,0,132,0,132,0,,,,,,,132,,,0.2,824.418189699194,Y,None,nogo,None,1,,825.2190737732017,,,,,,,,,,,,,,,,,60,001,22,w,Psychologie,2023-01-24_15h06.37.548,00_bat_bachelor,2022.2.4,59.95665672711451,
,,,,,,,,,,,,1,0,1,0,133,0,133,0,,,,,,,133,,,0.2,825.4189964882389,X,d,go,d,1,0.16005354882508982,,,,,,,,,,,,,,,,,,60,001,22,w,Psychologie,2023-01-24_15h06.37.548,00_bat_bachelor,2022.2.4,59.95665672711451,
,,,,,,,,,,,,1,0,1,0,134,0,134,0,,,,,,,134,,,0.2,825.9195547920826,Y,l,go,l,1,0.14012042892863974,,,,,,,,,,,,,,,,,,60,001,22,w,Psychologie,2023-01-24_15h06.37.548,00_bat_bachelor,2022.2.4,59.95665672711451,
,,,,,,,,,,,,1,0,1,0,135,0,135,0,,,,,,,135,,,0.2,826.4030759802408,X,d,go,d,1,0.44133250341110397,,,,,,,,,,,,,,,,,,60,001,22,w,Psychologie,2023-01-24_15h06.37.548,00_bat_bachelor,2022.2.4,59.95665672711451,
,,,,,,,,,,,,1,0,1,0,136,0,136,0,,,,,,,136,,,0.2,827.153872708659,Y,l,go,l,1,0.45818489155499265,,,,,,,,,,,,,,,,,,60,001,22,w,Psychologie,2023-01-24_15h06.37.548,00_bat_bachelor,2022.2.4,59.95665672711451,
,,,,,,,,,,,,1,0,1,0,137,0,137,0,,,,,,,137,,,0.2,827.9377797882917,X,d,go,d,1,0.23383305007882882,,,,,,,,,,,,,,,,,,60,001,22,w,Psychologie,2023-01-24_15h06.37.548,00_bat_bachelor,2022.2.4,59.95665672711451,
,,,,,,,,,,,,1,0,1,0,138,0,138,0,,,,,,,138,,,0.2,828.5048647343501,X,None,nogo,l,0,0.25897635937144514,,,,,,,,,,,,,,,,,,60,001,22,w,Psychologie,2023-01-24_15h06.37.548,00_bat_bachelor,2022.2.4,59.95665672711451,
,,,,,,,,,,,,1,0,1,0,139,0,139,0,,,,,,,139,,,0.2,829.1050837892108,Y,l,go,None,0,,829.9054990140576,,,,,,,,,,,,,,,,,60,001,22,w,Psychologie,2023-01-24_15h06.37.548,00_bat_bachelor,2022.2.4,59.95665672711451,
,,,,,,,,,,,,1,0,1,0,140,0,140,0,,,,,,,140,,,0.2,830.1057945781213,X,d,go,d,1,0.3696625809825491,,,,,,,,,,,,,,,,,,60,001,22,w,Psychologie,2023-01-24_15h06.37.548,00_bat_bachelor,2022.2.4,59.95665672711451,
,,,,,,,,,,,,1,0,1,0,141,0,141,0,,,,,,,141,,,0.2,830.8062741424656,Y,l,go,l,1,0.5341413656860823,,,,,,,,,,,,,,,,,,60,001,22,w,Psychologie,2023-01-24_15h06.37.548,00_bat_bachelor,2022.2.4,59.95665672711451,
,,,,,,,,,,,,1,0,1,0,142,0,142,0,,,,,,,142,,,0.2,831.6401066280378,Y,None,nogo,None,1,,832.440820519987,,,,,,,,,,,,,,,,,60,001,22,w,Psychologie,2023-01-24_15h06.37.548,00_bat_bachelor,2022.2.4,59.95665672711451,
,,,,,,,,,,,,1,0,1,0,143,0,143,0,,,,,,,143,,,0.2,832.6410894173459,X,d,go,d,1,0.13943194308376405,,,,,,,,,,,,,,,,,,60,001,22,w,Psychologie,2023-01-24_15h06.37.548,00_bat_bachelor,2022.2.4,59.95665672711451,
,,,,,,,,,,,,1,0,1,0,144,0,144,0,,,,,,,144,,,0.2,833.0914003753714,Y,l,go,l,1,0.35991856681357604,,,,,,,,,,,,,,,,,,60,001,22,w,Psychologie,2023-01-24_15h06.37.548,00_bat_bachelor,2022.2.4,59.95665672711451,
,,,,,,,,,,,,1,0,1,0,145,0,145,0,,,,,,,145,,,0.2,833.7585557700222,X,d,go,d,1,0.5094993904494913,,,,,,,,,,,,,,,,,,60,001,22,w,Psychologie,2023-01-24_15h06.37.548,00_bat_bachelor,2022.2.4,59.95665672711451,
,,,,,,,,,,,,1,0,1,0,146,0,146,0,,,,,,,146,,,0.2,834.5758839891641,Y,l,go,l,1,0.25155089402687736,,,,,,,,,,,,,,,,,,60,001,22,w,Psychologie,2023-01-24_15h06.37.548,00_bat_bachelor,2022.2.4,59.95665672711451,
,,,,,,,,,,,,1,0,1,0,147,0,147,0,,,,,,,147,,,0.2,835.1425059042522,X,d,go,d,1,0.43747116447775625,,,,,,,,,,,,,,,,,,60,001,22,w,Psychologie,2023-01-24_15h06.37.548,00_bat_bachelor,2022.2.4,59.95665672711451,
,,,,,,,,,,,,1,0,1,0,148,0,148,0,,,,,,,148,,,0.2,835.8931867537322,X,None,nogo,l,0,0.29619483776332345,,,,,,,,,,,,,,,,,,60,001,22,w,Psychologie,2023-01-24_15h06.37.548,00_bat_bachelor,2022.2.4,59.95665672711451,
,,,,,,,,,,,,1,0,1,0,149,0,149,0,,,,,,,149,,,0.2,836.4935687179241,Y,l,go,None,0,,,,,,,,,,,,,,,,,,,60,001,22,w,Psychologie,2023-01-24_15h06.37.548,00_bat_bachelor,2022.2.4,59.95665672711451,
,,,,,,,,,,,,1,0,1,0,150,0,150,0,,,,,,,150,,,0.2,837.4940831429121,X,d,go,None,0,,,,,,,,,,,,,,,,,,,60,001,22,w,Psychologie,2023-01-24_15h06.37.548,00_bat_bachelor,2022.2.4,59.95665672711451,
,,,,,,,,,,,,1,0,1,0,151,0,151,0,,,,,,,151,,,0.2,838.4948642349627,X,None,nogo,None,1,,,,,,,,,,,,,,,,,,,60,001,22,w,Psychologie,2023-01-24_15h06.37.548,00_bat_bachelor,2022.2.4,59.95665672711451,
,,,,,,,,,,,,1,0,1,0,152,0,152,0,,,,,,,152,,,0.2,839.4960196305765,Y,l,go,d,0,0.22873292145959567,,,,,,,,,,,,,,,,,,60,001,22,w,Psychologie,2023-01-24_15h06.37.548,00_bat_bachelor,2022.2.4,59.95665672711451,
,,,,,,,,,,,,1,0,1,0,153,0,153,0,,,,,,,153,,,0.2,840.0294662246743,X,d,go,d,1,0.36699445589329116,,,,,,,,,,,,,,,,,,60,001,22,w,Psychologie,2023-01-24_15h06.37.548,00_bat_bachelor,2022.2.4,59.95665672711451,
,,,,,,,,,,,,1,0,1,0,154,0,154,0,,,,,,,154,,,0.2,840.6968621045235,X,None,nogo,None,1,,841.4974164810992,,,,,,,,,,,,,,,,,60,001,22,w,Psychologie,2023-01-24_15h06.37.548,00_bat_bachelor,2022.2.4,59.95665672711451,
,,,,,,,,,,,,1,0,1,0,155,0,155,0,,,,,,,155,,,0.2,841.6976165298693,Y,l,go,d,0,0.26692449215624947,,,,,,,,,,,,,,,,,,60,001,22,w,Psychologie,2023-01-24_15h06.37.548,00_bat_bachelor,2022.2.4,59.95665672711451,
,,,,,,,,,,,,1,0,1,0,156,0,156,0,,,,,,,156,,,0.2,842.2647072941181,X,d,go,None,0,,843.0650042157649,,,,,,,,,,,,,,,,,60,001,22,w,Psychologie,2023-01-24_15h06.37.548,00_bat_bachelor,2022.2.4,59.95665672711451,
,,,,,,,,,,,,1,0,1,0,157,0,157,0,,,,,,,157,,,0.2,843.2654820831231,Y,l,go,l,1,0.23413220203656238,,,,,,,,,,,,,,,,,,60,001,22,w,Psychologie,2023-01-24_15h06.37.548,00_bat_bachelor,2022.2.4,59.95665672711451,
,,,,,,,,,,,,1,0,1,0,158,0,158,0,,,,,,,158,,,0.2,843.8158082169393,X,d,go,d,1,0.2937104705051752,,,,,,,,,,,,,,,,,,60,001,22,w,Psychologie,2023-01-24_15h06.37.548,00_bat_bachelor,2022.2.4,59.95665672711451,
,,,,,,,,,,,,1,0,1,0,159,0,159,0,,,,,,,159,,,0.2,844.4163686056272,Y,l,go,l,1,0.4924564565590117,,,,,,,,,,,,,,,,,,60,001,22,w,Psychologie,2023-01-24_15h06.37.548,00_bat_bachelor,2022.2.4,59.95665672711451,
,,,,,,,,,,,,1,0,1,0,160,0,160,0,,,,,,,160,,,0.2,845.2168904972932,X,d,go,d,1,0.4908976664301008,,,,,,,,,,,,,,,,,,60,001,22,w,Psychologie,2023-01-24_15h06.37.548,00_bat_bachelor,2022.2.4,59.95665672711451,
,,,,,,,,,,,,1,0,1,0,161,0,161,0,,,,,,,161,,,0.2,846.0347792021057,Y,l,go,l,1,0.345242181836511,,,,,,,,,,,,,,,,,,60,001,22,w,Psychologie,2023-01-24_15h06.37.548,00_bat_bachelor,2022.2.4,59.95665672711451,
,,,,,,,,,,,,1,0,1,0,162,0,162,0,,,,,,,162,,,0.2,846.7185741361172,X,d,go,d,1,0.3003170255833538,,,,,,,,,,,,,,,,,,60,001,22,w,Psychologie,2023-01-24_15h06.37.548,00_bat_bachelor,2022.2.4,59.95665672711451,
,,,,,,,,,,,,1,0,1,0,163,0,163,0,,,,,,,163,,,0.2,847.3523336033977,Y,l,go,l,1,0.3392290821793722,,,,,,,,,,,,,,,,,,60,001,22,w,Psychologie,2023-01-24_15h06.37.548,00_bat_bachelor,2022.2.4,59.95665672711451,
,,,,,,,,,,,,1,0,1,0,164,0,164,0,,,,,,,164,,,0.2,848.0362618709332,X,d,go,d,1,0.24720470589818433,,,,,,,,,,,,,,,,,,60,001,22,w,Psychologie,2023-01-24_15h06.37.548,00_bat_bachelor,2022.2.4,59.95665672711451,
,,,,,,,,,,,,1,0,1,0,165,0,165,0,,,,,,,165,,,0.2,848.6201400535356,X,None,nogo,d,0,0.38288781233131886,,,,,,,,,,,,,,,,,,60,001,22,w,Psychologie,2023-01-24_15h06.37.548,00_bat_bachelor,2022.2.4,59.95665672711451,
,,,,,,,,,,,,1,0,1,0,166,0,166,0,,,,,,,166,,,0.2,849.3372833996837,Y,l,go,None,0,,850.1382925647922,,,,,,,,,,,,,,,,,60,001,22,w,Psychologie,2023-01-24_15h06.37.548,00_bat_bachelor,2022.2.4,59.95665672711451,
,,,,,,,,,,,,1,0,1,0,167,0,167,0,,,,,,,167,,,0.2,850.3379869158671,X,d,go,d,1,0.26520182298554573,,,,,,,,,,,,,,,,,,60,001,22,w,Psychologie,2023-01-24_15h06.37.548,00_bat_bachelor,2022.2.4,59.95665672711451,
,,,,,,,,,,,,1,0,1,0,168,0,168,0,,,,,,,168,,,0.2,850.9387184563238,Y,l,go,l,1,0.22435473326186184,,,,,,,,,,,,,,,,,,60,001,22,w,Psychologie,2023-01-24_15h06.37.548,00_bat_bachelor,2022.2.4,59.95665672711451,
,,,,,,,,,,,,1,0,1,0,169,0,169,0,,,,,,,169,,,0.2,851.5055779475078,Y,None,nogo,l,0,0.3779840476345271,,,,,,,,,,,,,,,,,,60,001,22,w,Psychologie,2023-01-24_15h06.37.548,00_bat_bachelor,2022.2.4,59.95665672711451,
,,,,,,,,,,,,1,0,1,0,170,0,170,0,,,,,,,170,,,0.2,852.2227508694632,X,d,go,None,0,,853.0237353072589,,,,,,,,,,,,,,,,,60,001,22,w,Psychologie,2023-01-24_15h06.37.548,00_bat_bachelor,2022.2.4,59.95665672711451,
,,,,,,,,,,,,1,0,1,0,171,0,171,0,,,,,,,171,,,0.2,853.2238015376497,Y,l,go,None,0,,854.0245110659598,,,,,,,,,,,,,,,,,60,001,22,w,Psychologie,2023-01-24_15h06.37.548,00_bat_bachelor,2022.2.4,59.95665672711451,
,,,,,,,,,,,,1,0,1,0,172,0,172,0,,,,,,,172,,,0.2,854.2244095385395,Y,None,nogo,d,0,0.010633695128490217,,,,,,,,,,,,,,,,,,60,001,22,w,Psychologie,2023-01-24_15h06.37.548,00_bat_bachelor,2022.2.4,59.95665672711451,
,,,,,,,,,,,,1,0,1,0,173,0,173,0,,,,,,,173,,,0.2,854.5748095633608,X,d,go,d,1,0.4601150761882309,,,,,,,,,,,,,,,,,,60,001,22,w,Psychologie,2023-01-24_15h06.37.548,00_bat_bachelor,2022.2.4,59.95665672711451,
,,,,,,,,,,,,1,0,1,0,174,0,174,0,,,,,,,174,,,0.2,855.3752150912187,Y,l,go,l,1,0.6199281571316533,,,,,,,,,,,,,,,,,,60,001,22,w,Psychologie,2023-01-24_15h06.37.548,00_bat_bachelor,2022.2.4,59.95665672711451,
,,,,,,,,,,,,1,0,1,0,175,0,175,0,,,,,,,175,,,0.2,856.3264964749105,Y,None,nogo,None,1,,857.126868063322,,,,,,,,,,,,,,,,,60,001,22,w,Psychologie,2023-01-24_15h06.37.548,00_bat_bachelor,2022.2.4,59.95665672711451,
,,,,,,,,,,,,1,0,1,0,176,0,176,0,,,,,,,176,,,0.2,857.3269473846594,X,d,go,d,1,0.25206677356618457,,,,,,,,,,,,,,,,,,60,001,22,w,Psychologie,2023-01-24_15h06.37.548,00_bat_bachelor,2022.2.4,59.95665672711451,
,,,,,,,,,,,,1,0,1,0,177,0,177,0,,,,,,,177,,,0.2,857.9272939548537,Y,l,go,l,1,0.24390870110073593,,,,,,,,,,,,,,,,,,60,001,22,w,Psychologie,2023-01-24_15h06.37.548,00_bat_bachelor,2022.2.4,59.95665672711451,
,,,,,,,,,,,,1,0,1,0,178,0,178,0,,,,,,,178,,,0.2,858.511192016289,Y,None,nogo,l,0,0.5563261252245866,,,,,,,,,,,,,,,,,,60,001,22,w,Psychologie,2023-01-24_15h06.37.548,00_bat_bachelor,2022.2.4,59.95665672711451,
,,,,,,,,,,,,1,0,1,0,179,0,179,0,,,,,,,179,,,0.2,859.4116922351968,X,d,go,d,1,0.5031381690641865,,,,,,,,,,,,,,,,,,60,001,22,w,Psychologie,2023-01-24_15h06.37.548,00_bat_bachelor,2022.2.4,59.95665672711451,
,,,,,,,,,,,,1,0,1,0,180,0,180,0,,,,,,,180,,,0.2,860.2625812304177,Y,l,go,l,1,0.4372893460240448,,,,,,,,,,,,,,,,,,60,001,22,w,Psychologie,2023-01-24_15h06.37.548,00_bat_bachelor,2022.2.4,59.95665672711451,
,,,,,,,,,,,,1,0,1,0,181,0,181,0,,,,,,,181,,,0.2,861.0296863462136,X,d,go,d,1,0.5016322274750564,,,,,,,,,,,,,,,,,,60,001,22,w,Psychologie,2023-01-24_15h06.37.548,00_bat_bachelor,2022.2.4,59.95665672711451,
,,,,,,,,,,,,1,0,1,0,182,0,182,0,,,,,,,182,,,0.2,861.8800958256033,Y,l,go,l,1,0.3862109687033808,,,,,,,,,,,,,,,,,,60,001,22,w,Psychologie,2023-01-24_15h06.37.548,00_bat_bachelor,2022.2.4,59.95665672711451,
,,,,,,,,,,,,1,0,1,0,183,0,183,0,,,,,,,183,,,0.2,862.5974462023441,Y,None,nogo,d,0,0.3429115117614856,,,,,,,,,,,,,,,,,,60,001,22,w,Psychologie,2023-01-24_15h06.37.548,00_bat_bachelor,2022.2.4,59.95665672711451,
,,,,,,,,,,,,1,0,1,0,184,0,184,0,,,,,,,184,,,0.2,863.2648057185143,X,d,go,None,0,,864.0655729438731,,,,,,,,,,,,,,,,,60,001,22,w,Psychologie,2023-01-24_15h06.37.548,00_bat_bachelor,2022.2.4,59.95665672711451,
,,,,,,,,,,,,1,0,1,0,185,0,185,0,,,,,,,185,,,0.2,864.2652784464735,Y,l,go,None,0,,865.0662677327491,,,,,,,,,,,,,,,,,60,001,22,w,Psychologie,2023-01-24_15h06.37.548,00_bat_bachelor,2022.2.4,59.95665672711451,
,,,,,,,,,,,,1,0,1,0,186,0,186,0,,,,,,,186,,,0.2,865.2662195387529,X,d,go,d,1,0.24912373899132945,,,,,,,,,,,,,,,,,,60,001,22,w,Psychologie,2023-01-24_15h06.37.548,00_bat_bachelor,2022.2.4,59.95665672711451,
,,,,,,,,,,,,1,0,1,0,187,0,187,0,,,,,,,187,,,0.2,865.8500943274121,X,None,nogo,None,1,,866.6507781587134,,,,,,,,,,,,,,,,,60,001,22,w,Psychologie,2023-01-24_15h06.37.548,00_bat_bachelor,2022.2.4,59.95665672711451,
,,,,,,,,,,,,1,0,1,0,188,0,188,0,,,,,,,188,,,0.2,866.8508521467011,X,None,nogo,None,1,,867.6516184023494,,,,,,,,,,,,,,,,,60,001,22,w,Psychologie,2023-01-24_15h06.37.548,00_bat_bachelor,2022.2.4,59.95665672711451,
,,,,,,,,,,,,1,0,1,0,189,0,189,0,,,,,,,189,,,0.2,867.8515925114043,Y,l,go,l,1,0.4959367040428333,,,,,,,,,,,,,,,,,,60,001,22,w,Psychologie,2023-01-24_15h06.37.548,00_bat_bachelor,2022.2.4,59.95665672711451,
,,,,,,,,,,,,1,0,1,0,190,0,190,0,,,,,,,190,,,0.2,868.6688955183927,X,d,go,d,1,0.2709821950265905,,,,,,,,,,,,,,,,,,60,001,22,w,Psychologie,2023-01-24_15h06.37.548,00_bat_bachelor,2022.2.4,59.95665672711451,
,,,,,,,,,,,,1,0,1,0,191,0,191,0,,,,,,,191,,,0.2,869.2859824765765,Y,l,go,l,1,0.39096976349537726,,,,,,,,,,,,,,,,,,60,001,22,w,Psychologie,2023-01-24_15h06.37.548,00_bat_bachelor,2022.2.4,59.95665672711451,
,,,,,,,,,,,,1,0,1,0,192,0,192,0,,,,,,,192,,,0.2,870.0032436410838,X,d,go,d,1,0.47278467037540395,,,,,,,,,,,,,,,,,,60,001,22,w,Psychologie,2023-01-24_15h06.37.548,00_bat_bachelor,2022.2.4,59.95665672711451,
,,,,,,,,,,,,1,0,1,0,193,0,193,0,,,,,,,193,,,0.2,870.820574284473,Y,l,go,l,1,0.2783208723703865,,,,,,,,,,,,,,,,,,60,001,22,w,Psychologie,2023-01-24_15h06.37.548,00_bat_bachelor,2022.2.4,59.95665672711451,
,,,,,,,,,,,,1,0,1,0,194,0,194,0,,,,,,,194,,,0.2,871.4377179700095,X,d,go,d,1,0.31835632454021834,,,,,,,,,,,,,,,,,,60,001,22,w,Psychologie,2023-01-24_15h06.37.548,00_bat_bachelor,2022.2.4,59.95665672711451,
,,,,,,,,,,,,1,0,1,0,195,0,195,0,,,,,,,195,,,0.2,872.0879404915468,Y,l,go,l,1,0.5148404891224345,,,,,,,,,,,,,,,,,,60,001,22,w,Psychologie,2023-01-24_15h06.37.548,00_bat_bachelor,2022.2.4,59.95665672711451,
,,,,,,,,,,,,1,0,1,0,196,0,196,0,,,,,,,196,,,0.2,872.9385414863646,X,d,go,d,1,0.2246340064011747,,,,,,,,,,,,,,,,,,60,001,22,w,Psychologie,2023-01-24_15h06.37.548,00_bat_bachelor,2022.2.4,59.95665672711451,
,,,,,,,,,,,,1,0,1,0,197,0,197,0,,,,,,,197,,,0.2,873.5059250995255,X,None,nogo,l,0,0.24883767796563916,,,,,,,,,,,,,,,,,,60,001,22,w,Psychologie,2023-01-24_15h06.37.548,00_bat_bachelor,2022.2.4,59.95665672711451,
