loop_instruction.thisRepN,loop_instruction.thisTrialN,loop_instruction.thisN,loop_instruction.thisIndex,loop_rsi_practice.thisRepN,loop_rsi_practice.thisTrialN,loop_rsi_practice.thisN,loop_rsi_practice.thisIndex,loop_practice.thisRepN,loop_practice.thisTrialN,loop_practice.thisN,loop_practice.thisIndex,loop_exp.thisRepN,loop_exp.thisTrialN,loop_exp.thisN,loop_exp.thisIndex,loop_trials.thisRepN,loop_trials.thisTrialN,loop_trials.thisN,loop_trials.thisIndex,map_condition,map_x_key,map_y_key,key_resp_welcome.started,key_resp_welcome.keys,key_resp_welcome.rt,index,text_empty_rsi_practice.started,text_empty_rsi_practice.stopped,rsi,stimulus.started,stimulus.stopped,stimulus,correct,trial_type,key_resp_trial.keys,key_resp_trial.corr,key_resp_trial.rt,key_resp_instruction_rsi.started,key_resp_instruction_rsi.keys,key_resp_instruction_rsi.rt,key_resp_instruction_rsi.stopped,key_resp_instruction_final.started,key_resp_instruction_final.keys,key_resp_instruction_final.rt,key_resp_break.started,key_resp_break.keys,key_resp_break.rt,key_resp_break.stopped,key_resp_end_screen.started,image_end_screen.started,key_resp_end_screen.keys,participant,session,Alter,Geschlecht (w/m/d/andere),Studiengang,date,expName,psychopyVersion,frameRate,
,,,,0,0,0,0,0,0,0,0,,,,,,,,,0,d,l,170.3959556868067,j,23.951094455900602,0,194.36646139808,195.3805195731111,1,195.3805195731111,196.17992864002008,X,d,go,None,0,,,,,,,,,,,,,,,,62,001,21,m,Bildungswissenschaften,2023-01-24_15h08.46.593,00_bat_bachelor,2022.2.4,59.96444289487263,
,,,,0,0,0,0,1,0,1,0,,,,,,,,,,,,,,,1,196.78036859130953,197.78009901568294,1,197.78009901568294,198.5803168094717,Y,l,go,None,0,,,,,,,,,,,,,,,,62,001,21,m,Bildungswissenschaften,2023-01-24_15h08.46.593,00_bat_bachelor,2022.2.4,59.96444289487263,
,,,,0,0,0,0,2,0,2,0,,,,,,,,,,,,,,,2,199.18028645799495,200.1801143368939,1,200.1801143368939,,X,d,go,d,1,0.4675659630447626,,,,,,,,,,,,,,,62,001,21,m,Bildungswissenschaften,2023-01-24_15h08.46.593,00_bat_bachelor,2022.2.4,59.96444289487263,
,,,,0,0,0,0,3,0,3,0,,,,,,,,,,,,,,,3,201.36338309652638,202.3637268539751,1,202.3637268539751,203.16367361764424,X,None,nogo,None,1,,,,,,,,,,,,,,,,62,001,21,m,Bildungswissenschaften,2023-01-24_15h08.46.593,00_bat_bachelor,2022.2.4,59.96444289487263,
,,,,0,0,0,0,4,0,4,0,,,,,,,,,,,,,,,4,203.76338678132743,204.76335575105622,1,204.76335575105622,,Y,l,go,l,1,0.4440081564243883,,,,,,,,,,,,,,,62,001,21,m,Bildungswissenschaften,2023-01-24_15h08.46.593,00_bat_bachelor,2022.2.4,59.96444289487263,
,,,,0,0,0,0,5,0,5,0,,,,,,,,,,,,,,,5,205.91349773888942,206.91363446612377,1,206.91363446612377,,X,d,go,d,1,0.43878973461687565,,,,,,,,,,,,,,,62,001,21,m,Bildungswissenschaften,2023-01-24_15h08.46.593,00_bat_bachelor,2022.2.4,59.96444289487263,
,,,,0,0,0,0,6,0,6,0,,,,,,,,,,,,,,,6,208.06332651467528,209.06332021171693,1,209.06332021171693,,Y,l,go,l,1,0.3040790121303871,,,,,,,,,,,,,,,62,001,21,m,Bildungswissenschaften,2023-01-24_15h08.46.593,00_bat_bachelor,2022.2.4,59.96444289487263,
,,,,0,0,0,0,7,0,7,0,,,,,,,,,,,,,,,7,210.07997814298142,211.0802438398823,1,211.0802438398823,,Y,None,nogo,l,0,0.49542243441101164,,,,,,,,,,,,,,,62,001,21,m,Bildungswissenschaften,2023-01-24_15h08.46.593,00_bat_bachelor,2022.2.4,59.96444289487263,
,,,,0,0,0,0,8,0,8,0,,,,,,,,,,,,,,,8,212.68040500336792,213.68012670055032,1,213.68012670055032,,X,d,go,d,1,0.5355974453268573,,,,,,,,,,,,,,,62,001,21,m,Bildungswissenschaften,2023-01-24_15h08.46.593,00_bat_bachelor,2022.2.4,59.96444289487263,
,,,,0,0,0,0,9,0,9,0,,,,,,,,,,,,,,,9,214.93033021560404,215.93003882176708,1,215.93003882176708,,Y,l,go,l,1,0.44552427681628615,,,,,,,,,,,,,,,62,001,21,m,Bildungswissenschaften,2023-01-24_15h08.46.593,00_bat_bachelor,2022.2.4,59.96444289487263,
,,,,0,0,0,0,10,0,10,0,,,,,,,,,,,,,,,10,217.08033111249097,218.0802889307961,1,218.0802889307961,,X,d,go,d,1,0.40750053769443184,,,,,,,,,,,,,,,62,001,21,m,Bildungswissenschaften,2023-01-24_15h08.46.593,00_bat_bachelor,2022.2.4,59.96444289487263,
,,,,0,0,0,0,11,0,11,0,,,,,,,,,,,,,,,11,219.19685517728794,220.19677760149352,1,220.19677760149352,,Y,l,go,l,1,0.33881596487481147,,,,,,,,,,,,,,,62,001,21,m,Bildungswissenschaften,2023-01-24_15h08.46.593,00_bat_bachelor,2022.2.4,59.96444289487263,
,,,,0,0,0,0,12,0,12,0,,,,,,,,,,,,,,,12,221.24699091049843,222.24693854688667,1,222.24693854688667,,X,d,go,d,1,0.4332736161304638,,,,,,,,,,,,,,,62,001,21,m,Bildungswissenschaften,2023-01-24_15h08.46.593,00_bat_bachelor,2022.2.4,59.96444289487263,
,,,,0,0,0,0,13,0,13,0,,,,,,,,,,,,,,,13,223.3804041792173,224.38014769449364,1,224.38014769449364,,Y,l,go,l,1,0.2670637572882697,,,,,,,,,,,,,,,62,001,21,m,Bildungswissenschaften,2023-01-24_15h08.46.593,00_bat_bachelor,2022.2.4,59.96444289487263,
,,,,0,0,0,0,14,0,14,0,,,,,,,,,,,,,,,14,225.36366042972077,226.36335933895316,1,226.36335933895316,,X,d,go,d,1,0.5245259355287999,,,,,,,,,,,,,,,62,001,21,m,Bildungswissenschaften,2023-01-24_15h08.46.593,00_bat_bachelor,2022.2.4,59.96444289487263,
,,,,1,0,1,0,0,0,0,0,,,,,,,,,,,,,,,0,246.397017019568,246.59696407418232,0.2,246.59696407418232,,X,d,go,d,1,0.5152173340320587,227.61743727640714,j,18.76215297181625,,,,,,,,,,,,62,001,21,m,Bildungswissenschaften,2023-01-24_15h08.46.593,00_bat_bachelor,2022.2.4,59.96444289487263,
,,,,1,0,1,0,1,0,1,0,,,,,,,,,,,,,,,1,247.81352106004488,248.01357866008766,0.2,248.01357866008766,,Y,l,go,l,1,0.2662695759208873,,,,,,,,,,,,,,,62,001,21,m,Bildungswissenschaften,2023-01-24_15h08.46.593,00_bat_bachelor,2022.2.4,59.96444289487263,
,,,,1,0,1,0,2,0,2,0,,,,,,,,,,,,,,,2,248.9803680095356,249.18004015507177,0.2,249.18004015507177,,X,d,go,d,1,0.2362579540349543,,,,,,,,,,,,,,,62,001,21,m,Bildungswissenschaften,2023-01-24_15h08.46.593,00_bat_bachelor,2022.2.4,59.96444289487263,
,,,,1,0,1,0,3,0,3,0,,,,,,,,,,,,,,,3,250.1303485428216,250.330283961026,0.2,250.330283961026,,X,None,nogo,l,0,0.20587154454551637,,,,,,,,,,,,,,,62,001,21,m,Bildungswissenschaften,2023-01-24_15h08.46.593,00_bat_bachelor,2022.2.4,59.96444289487263,
,,,,1,0,1,0,4,0,4,0,,,,,,,,,,,,,,,4,251.646644050139,251.84697025595233,0.2,251.84697025595233,,Y,l,go,l,1,0.46488911588676274,,,,,,,,,,,,,,,62,001,21,m,Bildungswissenschaften,2023-01-24_15h08.46.593,00_bat_bachelor,2022.2.4,59.96444289487263,
,,,,1,0,1,0,5,0,5,0,,,,,,,,,,,,,,,5,253.01364072063006,253.2136425630888,0.2,253.2136425630888,,X,d,go,d,1,0.4108265966642648,,,,,,,,,,,,,,,62,001,21,m,Bildungswissenschaften,2023-01-24_15h08.46.593,00_bat_bachelor,2022.2.4,59.96444289487263,
,,,,1,0,1,0,6,0,6,0,,,,,,,,,,,,,,,6,254.33024371869396,254.5303963489132,0.2,254.5303963489132,,Y,l,go,l,1,0.278031024732627,,,,,,,,,,,,,,,62,001,21,m,Bildungswissenschaften,2023-01-24_15h08.46.593,00_bat_bachelor,2022.2.4,59.96444289487263,
,,,,1,0,1,0,7,0,7,0,,,,,,,,,,,,,,,7,255.5136424176162,255.7135962600587,0.2,255.7135962600587,,Y,None,nogo,l,0,0.4548963934648782,,,,,,,,,,,,,,,62,001,21,m,Bildungswissenschaften,2023-01-24_15h08.46.593,00_bat_bachelor,2022.2.4,59.96444289487263,
,,,,1,0,1,0,8,0,8,0,,,,,,,,,,,,,,,8,257.2802713792771,257.4803100700956,0.2,257.4803100700956,,X,d,go,d,1,0.3670782543485984,,,,,,,,,,,,,,,62,001,21,m,Bildungswissenschaften,2023-01-24_15h08.46.593,00_bat_bachelor,2022.2.4,59.96444289487263,
,,,,1,0,1,0,9,0,9,0,,,,,,,,,,,,,,,9,258.56346057530027,258.7636970842723,0.2,258.7636970842723,,Y,l,go,l,1,0.3326477254740894,,,,,,,,,,,,,,,62,001,21,m,Bildungswissenschaften,2023-01-24_15h08.46.593,00_bat_bachelor,2022.2.4,59.96444289487263,
,,,,1,0,1,0,10,0,10,0,,,,,,,,,,,,,,,10,259.7966774319066,259.9968567288015,0.2,259.9968567288015,260.79694264393765,Y,None,nogo,None,1,,,,,,,,,,,,,,,,62,001,21,m,Bildungswissenschaften,2023-01-24_15h08.46.593,00_bat_bachelor,2022.2.4,59.96444289487263,
,,,,1,0,1,0,11,0,11,0,,,,,,,,,,,,,,,11,261.39661701978184,261.5970241953619,0.2,261.5970241953619,,X,d,go,d,1,0.34784820303320885,,,,,,,,,,,,,,,62,001,21,m,Bildungswissenschaften,2023-01-24_15h08.46.593,00_bat_bachelor,2022.2.4,59.96444289487263,
,,,,1,0,1,0,12,0,12,0,,,,,,,,,,,,,,,12,262.6468496257439,262.84684904397,0.2,262.84684904397,,Y,l,go,l,1,0.37662055261898786,,,,,,,,,,,,,,,62,001,21,m,Bildungswissenschaften,2023-01-24_15h08.46.593,00_bat_bachelor,2022.2.4,59.96444289487263,
,,,,1,0,1,0,13,0,13,0,,,,,,,,,,,,,,,13,263.930304518668,264.1303024822846,0.2,264.1303024822846,264.93014257925097,Y,None,nogo,None,1,,,,,,,,,,,,,,,,62,001,21,m,Bildungswissenschaften,2023-01-24_15h08.46.593,00_bat_bachelor,2022.2.4,59.96444289487263,
,,,,1,0,1,0,14,0,14,0,,,,,,,,,,,,,,,14,265.5303115004208,265.73029103979934,0.2,265.73029103979934,,X,d,go,d,1,0.2935296838404611,,,,,,,,,,,,,,,62,001,21,m,Bildungswissenschaften,2023-01-24_15h08.46.593,00_bat_bachelor,2022.2.4,59.96444289487263,
,,,,,,,,,,,,,,,,,,,,,,,,,,,,,,,,,,,,,,266.766439385945,None,,266.766439385945,266.766439385945,space,7.900980540784076,,,,,,,,62,001,21,m,Bildungswissenschaften,2023-01-24_15h08.46.593,00_bat_bachelor,2022.2.4,59.96444289487263,
,,,,,,,,,,,,0,0,0,0,0,0,0,0,,,,,,,0,,,1,275.6969126317417,,X,d,go,d,1,0.4387446438195184,,,,,,,,,,,,,,,62,001,21,m,Bildungswissenschaften,2023-01-24_15h08.46.593,00_bat_bachelor,2022.2.4,59.96444289487263,
,,,,,,,,,,,,0,0,0,0,1,0,1,0,,,,,,,1,,,1,277.24695648625493,,Y,l,go,l,1,0.26550157624296844,,,,,,,,,,,,,,,62,001,21,m,Bildungswissenschaften,2023-01-24_15h08.46.593,00_bat_bachelor,2022.2.4,59.96444289487263,
,,,,,,,,,,,,0,0,0,0,2,0,2,0,,,,,,,2,,,1,278.6134872176917,,X,d,go,d,1,0.32234518497716635,,,,,,,,,,,,,,,62,001,21,m,Bildungswissenschaften,2023-01-24_15h08.46.593,00_bat_bachelor,2022.2.4,59.96444289487263,
,,,,,,,,,,,,0,0,0,0,3,0,3,0,,,,,,,3,,,1,280.0469740377739,280.8466614076169,X,None,nogo,None,1,,,,,,,,,,,,,,,,62,001,21,m,Bildungswissenschaften,2023-01-24_15h08.46.593,00_bat_bachelor,2022.2.4,59.96444289487263,
,,,,,,,,,,,,0,0,0,0,4,0,4,0,,,,,,,4,,,1,281.84692904388066,,Y,l,go,l,1,0.3208310039481148,,,,,,,,,,,,,,,62,001,21,m,Bildungswissenschaften,2023-01-24_15h08.46.593,00_bat_bachelor,2022.2.4,59.96444289487263,
,,,,,,,,,,,,0,0,0,0,5,0,5,0,,,,,,,5,,,1,283.280367864063,,X,d,go,d,1,0.39200139371678233,,,,,,,,,,,,,,,62,001,21,m,Bildungswissenschaften,2023-01-24_15h08.46.593,00_bat_bachelor,2022.2.4,59.96444289487263,
,,,,,,,,,,,,0,0,0,0,6,0,6,0,,,,,,,6,,,1,284.7802856822964,285.57996868842747,X,None,nogo,None,1,,,,,,,,,,,,,,,,62,001,21,m,Bildungswissenschaften,2023-01-24_15h08.46.593,00_bat_bachelor,2022.2.4,59.96444289487263,
,,,,,,,,,,,,0,0,0,0,7,0,7,0,,,,,,,7,,,1,286.579910991597,,Y,l,go,l,1,0.3402060248190537,,,,,,,,,,,,,,,62,001,21,m,Bildungswissenschaften,2023-01-24_15h08.46.593,00_bat_bachelor,2022.2.4,59.96444289487263,
,,,,,,,,,,,,0,0,0,0,8,0,8,0,,,,,,,8,,,1,288.03010568232276,,X,d,go,d,1,0.42562368034850806,,,,,,,,,,,,,,,62,001,21,m,Bildungswissenschaften,2023-01-24_15h08.46.593,00_bat_bachelor,2022.2.4,59.96444289487263,
,,,,,,,,,,,,0,0,0,0,9,0,9,0,,,,,,,9,,,1,289.5633000904927,,Y,l,go,l,1,0.26859490806236863,,,,,,,,,,,,,,,62,001,21,m,Bildungswissenschaften,2023-01-24_15h08.46.593,00_bat_bachelor,2022.2.4,59.96444289487263,
,,,,,,,,,,,,0,0,0,0,10,0,10,0,,,,,,,10,,,1,290.9467350561172,,X,d,go,d,1,0.24499831337016076,,,,,,,,,,,,,,,62,001,21,m,Bildungswissenschaften,2023-01-24_15h08.46.593,00_bat_bachelor,2022.2.4,59.96444289487263,
,,,,,,,,,,,,0,0,0,0,11,0,11,0,,,,,,,11,,,1,292.29693561361637,293.09692164999433,X,None,nogo,None,1,,,,,,,,,,,,,,,,62,001,21,m,Bildungswissenschaften,2023-01-24_15h08.46.593,00_bat_bachelor,2022.2.4,59.96444289487263,
,,,,,,,,,,,,0,0,0,0,12,0,12,0,,,,,,,12,,,1,294.09684892266523,,Y,l,go,l,1,0.45557227195240557,,,,,,,,,,,,,,,62,001,21,m,Bildungswissenschaften,2023-01-24_15h08.46.593,00_bat_bachelor,2022.2.4,59.96444289487263,
,,,,,,,,,,,,0,0,0,0,13,0,13,0,,,,,,,13,,,1,295.66358222370036,,X,d,go,d,1,0.3602472272468731,,,,,,,,,,,,,,,62,001,21,m,Bildungswissenschaften,2023-01-24_15h08.46.593,00_bat_bachelor,2022.2.4,59.96444289487263,
,,,,,,,,,,,,0,0,0,0,14,0,14,0,,,,,,,14,,,1,297.1299868460046,,Y,l,go,l,1,0.33364360383711755,,,,,,,,,,,,,,,62,001,21,m,Bildungswissenschaften,2023-01-24_15h08.46.593,00_bat_bachelor,2022.2.4,59.96444289487263,
,,,,,,,,,,,,0,0,0,0,15,0,15,0,,,,,,,15,,,1,298.56361039343756,299.3634485510411,Y,None,nogo,None,1,,,,,,,,,,,,,,,,62,001,21,m,Bildungswissenschaften,2023-01-24_15h08.46.593,00_bat_bachelor,2022.2.4,59.96444289487263,
,,,,,,,,,,,,0,0,0,0,16,0,16,0,,,,,,,16,,,1,300.3635333995335,,X,d,go,d,1,0.31591270328499377,,,,,,,,,,,,,,,62,001,21,m,Bildungswissenschaften,2023-01-24_15h08.46.593,00_bat_bachelor,2022.2.4,59.96444289487263,
,,,,,,,,,,,,0,0,0,0,17,0,17,0,,,,,,,17,,,1,301.78027307626326,,Y,l,go,l,1,0.5320789015386254,,,,,,,,,,,,,,,62,001,21,m,Bildungswissenschaften,2023-01-24_15h08.46.593,00_bat_bachelor,2022.2.4,59.96444289487263,
,,,,,,,,,,,,0,0,0,0,18,0,18,0,,,,,,,18,,,1,303.4141515567899,,X,d,go,d,1,0.22608389833476394,,,,,,,,,,,,,,,62,001,21,m,Bildungswissenschaften,2023-01-24_15h08.46.593,00_bat_bachelor,2022.2.4,59.96444289487263,
,,,,,,,,,,,,0,0,0,0,19,0,19,0,,,,,,,19,,,1,304.7473203649279,305.54712894686963,X,None,nogo,None,1,,,,,,,,,,,,,,,,62,001,21,m,Bildungswissenschaften,2023-01-24_15h08.46.593,00_bat_bachelor,2022.2.4,59.96444289487263,
,,,,,,,,,,,,0,0,0,0,20,0,20,0,,,,,,,20,,,1,306.54744167393073,,Y,l,go,l,1,0.3567117138300091,,,,,,,,,,,,,,,62,001,21,m,Bildungswissenschaften,2023-01-24_15h08.46.593,00_bat_bachelor,2022.2.4,59.96444289487263,
,,,,,,,,,,,,0,0,0,0,21,0,21,0,,,,,,,21,,,1,308.0137735690223,,X,d,go,d,1,0.2981439846334979,,,,,,,,,,,,,,,62,001,21,m,Bildungswissenschaften,2023-01-24_15h08.46.593,00_bat_bachelor,2022.2.4,59.96444289487263,
,,,,,,,,,,,,0,0,0,0,22,0,22,0,,,,,,,22,,,1,309.4138218599837,,X,None,nogo,d,0,0.43395094911102206,,,,,,,,,,,,,,,62,001,21,m,Bildungswissenschaften,2023-01-24_15h08.46.593,00_bat_bachelor,2022.2.4,59.96444289487263,
,,,,,,,,,,,,0,0,0,0,23,0,23,0,,,,,,,23,,,1,310.9637071690522,,Y,l,go,l,1,0.37280140293296427,,,,,,,,,,,,,,,62,001,21,m,Bildungswissenschaften,2023-01-24_15h08.46.593,00_bat_bachelor,2022.2.4,59.96444289487263,
,,,,,,,,,,,,0,0,0,0,24,0,24,0,,,,,,,24,,,1,312.447063540807,,X,d,go,d,1,0.39309424173552543,,,,,,,,,,,,,,,62,001,21,m,Bildungswissenschaften,2023-01-24_15h08.46.593,00_bat_bachelor,2022.2.4,59.96444289487263,
,,,,,,,,,,,,0,0,0,0,25,0,25,0,,,,,,,25,,,1,313.9470870558871,,Y,l,go,l,1,0.36470734630711377,,,,,,,,,,,,,,,62,001,21,m,Bildungswissenschaften,2023-01-24_15h08.46.593,00_bat_bachelor,2022.2.4,59.96444289487263,
,,,,,,,,,,,,0,0,0,0,26,0,26,0,,,,,,,26,,,1,315.41382719331887,316.2137695932761,Y,None,nogo,None,1,,,,,,,,,,,,,,,,62,001,21,m,Bildungswissenschaften,2023-01-24_15h08.46.593,00_bat_bachelor,2022.2.4,59.96444289487263,
,,,,,,,,,,,,0,0,0,0,27,0,27,0,,,,,,,27,,,1,317.2137385630049,,X,d,go,d,1,0.2819752652430907,,,,,,,,,,,,,,,62,001,21,m,Bildungswissenschaften,2023-01-24_15h08.46.593,00_bat_bachelor,2022.2.4,59.96444289487263,
,,,,,,,,,,,,0,0,0,0,28,0,28,0,,,,,,,28,,,1,318.5971361952834,,Y,l,go,l,1,0.3545420179143548,,,,,,,,,,,,,,,62,001,21,m,Bildungswissenschaften,2023-01-24_15h08.46.593,00_bat_bachelor,2022.2.4,59.96444289487263,
,,,,,,,,,,,,0,0,0,0,29,0,29,0,,,,,,,29,,,1,320.0635117267957,320.86384103563614,Y,None,nogo,None,1,,,,,,,,,,,,,,,,62,001,21,m,Bildungswissenschaften,2023-01-24_15h08.46.593,00_bat_bachelor,2022.2.4,59.96444289487263,
,,,,,,,,,,,,0,0,0,0,30,0,30,0,,,,,,,30,,,1,321.863758126623,,X,d,go,d,1,0.3048712541349232,,,,,,,,,,,,,,,62,001,21,m,Bildungswissenschaften,2023-01-24_15h08.46.593,00_bat_bachelor,2022.2.4,59.96444289487263,
,,,,,,,,,,,,0,0,0,0,31,0,31,0,,,,,,,31,,,1,323.2800468944479,,Y,l,go,l,1,0.2794482361059636,,,,,,,,,,,,,,,62,001,21,m,Bildungswissenschaften,2023-01-24_15h08.46.593,00_bat_bachelor,2022.2.4,59.96444289487263,
,,,,,,,,,,,,0,0,0,0,32,0,32,0,,,,,,,32,,,1,324.663306344999,,X,d,go,d,1,0.30446931486949325,,,,,,,,,,,,,,,62,001,21,m,Bildungswissenschaften,2023-01-24_15h08.46.593,00_bat_bachelor,2022.2.4,59.96444289487263,
,,,,,,,,,,,,0,0,0,0,33,0,33,0,,,,,,,33,,,1,326.07988262793515,,Y,l,go,l,1,0.27957720577251166,,,,,,,,,,,,,,,62,001,21,m,Bildungswissenschaften,2023-01-24_15h08.46.593,00_bat_bachelor,2022.2.4,59.96444289487263,
,,,,,,,,,,,,0,0,0,0,34,0,34,0,,,,,,,34,,,1,327.46359201765154,,X,d,go,d,1,0.41690659371670336,,,,,,,,,,,,,,,62,001,21,m,Bildungswissenschaften,2023-01-24_15h08.46.593,00_bat_bachelor,2022.2.4,59.96444289487263,
,,,,,,,,,,,,0,0,0,0,35,0,35,0,,,,,,,35,,,1,328.9801604944514,329.7800980459433,X,None,nogo,None,1,,,,,,,,,,,,,,,,62,001,21,m,Bildungswissenschaften,2023-01-24_15h08.46.593,00_bat_bachelor,2022.2.4,59.96444289487263,
,,,,,,,,,,,,0,0,0,0,36,0,36,0,,,,,,,36,,,1,330.7802090762416,,Y,l,go,l,1,0.3159524608636275,,,,,,,,,,,,,,,62,001,21,m,Bildungswissenschaften,2023-01-24_15h08.46.593,00_bat_bachelor,2022.2.4,59.96444289487263,
,,,,,,,,,,,,0,0,0,0,37,0,37,0,,,,,,,37,,,1,332.19678196520545,,X,d,go,d,1,0.3394520857837051,,,,,,,,,,,,,,,62,001,21,m,Bildungswissenschaften,2023-01-24_15h08.46.593,00_bat_bachelor,2022.2.4,59.96444289487263,
,,,,,,,,,,,,0,0,0,0,38,0,38,0,,,,,,,38,,,1,333.6468646560097,334.4469369953731,X,None,nogo,None,1,,,,,,,,,,,,,,,,62,001,21,m,Bildungswissenschaften,2023-01-24_15h08.46.593,00_bat_bachelor,2022.2.4,59.96444289487263,
,,,,,,,,,,,,0,0,0,0,39,0,39,0,,,,,,,39,,,1,335.4465752985561,,Y,l,go,l,1,0.33752045047003776,,,,,,,,,,,,,,,62,001,21,m,Bildungswissenschaften,2023-01-24_15h08.46.593,00_bat_bachelor,2022.2.4,59.96444289487263,
,,,,,,,,,,,,0,0,0,0,40,0,40,0,,,,,,,40,,,1,336.89663956523873,,X,d,go,d,1,0.29506519821006805,,,,,,,,,,,,,,,62,001,21,m,Bildungswissenschaften,2023-01-24_15h08.46.593,00_bat_bachelor,2022.2.4,59.96444289487263,
,,,,,,,,,,,,0,0,0,0,41,0,41,0,,,,,,,41,,,1,338.2969186438713,339.0967708621174,X,None,nogo,None,1,,,,,,,,,,,,,,,,62,001,21,m,Bildungswissenschaften,2023-01-24_15h08.46.593,00_bat_bachelor,2022.2.4,59.96444289487263,
,,,,,,,,,,,,0,0,0,0,42,0,42,0,,,,,,,42,,,1,340.09691874089185,,Y,l,go,l,1,0.3912178789032623,,,,,,,,,,,,,,,62,001,21,m,Bildungswissenschaften,2023-01-24_15h08.46.593,00_bat_bachelor,2022.2.4,59.96444289487263,
,,,,,,,,,,,,0,0,0,0,43,0,43,0,,,,,,,43,,,1,341.59686468029395,,X,d,go,d,1,0.3625211655162275,,,,,,,,,,,,,,,62,001,21,m,Bildungswissenschaften,2023-01-24_15h08.46.593,00_bat_bachelor,2022.2.4,59.96444289487263,
,,,,,,,,,,,,0,0,0,0,44,0,44,0,,,,,,,44,,,1,343.0635349994991,,Y,l,go,l,1,0.3042962240288034,,,,,,,,,,,,,,,62,001,21,m,Bildungswissenschaften,2023-01-24_15h08.46.593,00_bat_bachelor,2022.2.4,59.96444289487263,
,,,,,,,,,,,,0,0,0,0,45,0,45,0,,,,,,,45,,,1,344.4802494640462,345.2799387733685,Y,None,nogo,None,1,,,,,,,,,,,,,,,,62,001,21,m,Bildungswissenschaften,2023-01-24_15h08.46.593,00_bat_bachelor,2022.2.4,59.96444289487263,
,,,,,,,,,,,,0,0,0,0,46,0,46,0,,,,,,,46,,,1,346.2800779248355,,X,d,go,d,1,0.3519955949159339,,,,,,,,,,,,,,,62,001,21,m,Bildungswissenschaften,2023-01-24_15h08.46.593,00_bat_bachelor,2022.2.4,59.96444289487263,
,,,,,,,,,,,,0,0,0,0,47,0,47,0,,,,,,,47,,,1,347.74691406206694,,Y,l,go,l,1,0.261857456760481,,,,,,,,,,,,,,,62,001,21,m,Bildungswissenschaften,2023-01-24_15h08.46.593,00_bat_bachelor,2022.2.4,59.96444289487263,
,,,,,,,,,,,,0,0,0,0,48,0,48,0,,,,,,,48,,,1,349.11332212691195,,X,d,go,d,1,0.33482178510166705,,,,,,,,,,,,,,,62,001,21,m,Bildungswissenschaften,2023-01-24_15h08.46.593,00_bat_bachelor,2022.2.4,59.96444289487263,
,,,,,,,,,,,,0,0,0,0,49,0,49,0,,,,,,,49,,,1,350.5632768177893,,Y,l,go,l,1,0.3406394791090861,,,,,,,,,,,,,,,62,001,21,m,Bildungswissenschaften,2023-01-24_15h08.46.593,00_bat_bachelor,2022.2.4,59.96444289487263,
,,,,,,,,,,,,0,0,0,0,50,0,50,0,,,,,,,50,,,1,352.01350011467,,X,d,go,d,1,0.2823616892565042,,,,,,,,,,,,,,,62,001,21,m,Bildungswissenschaften,2023-01-24_15h08.46.593,00_bat_bachelor,2022.2.4,59.96444289487263,
,,,,,,,,,,,,0,0,0,0,51,0,51,0,,,,,,,51,,,1,353.3967008985346,,Y,l,go,l,1,0.30653816240374,,,,,,,,,,,,,,,62,001,21,m,Bildungswissenschaften,2023-01-24_15h08.46.593,00_bat_bachelor,2022.2.4,59.96444289487263,
,,,,,,,,,,,,0,0,0,0,52,0,52,0,,,,,,,52,,,1,354.81358166609425,,X,d,go,d,1,0.2979451968567446,,,,,,,,,,,,,,,62,001,21,m,Bildungswissenschaften,2023-01-24_15h08.46.593,00_bat_bachelor,2022.2.4,59.96444289487263,
,,,,,,,,,,,,0,0,0,0,53,0,53,0,,,,,,,53,,,1,356.213356502587,,Y,l,go,l,1,0.2747990263160318,,,,,,,,,,,,,,,62,001,21,m,Bildungswissenschaften,2023-01-24_15h08.46.593,00_bat_bachelor,2022.2.4,59.96444289487263,
,,,,,,,,,,,,0,0,0,0,54,0,54,0,,,,,,,54,,,1,357.59690734697506,,X,d,go,d,1,0.2834928402444348,,,,,,,,,,,,,,,62,001,21,m,Bildungswissenschaften,2023-01-24_15h08.46.593,00_bat_bachelor,2022.2.4,59.96444289487263,
,,,,,,,,,,,,0,0,0,0,55,0,55,0,,,,,,,55,,,1,358.9967869105749,,Y,l,go,l,1,0.4349574940279126,,,,,,,,,,,,,,,62,001,21,m,Bildungswissenschaften,2023-01-24_15h08.46.593,00_bat_bachelor,2022.2.4,59.96444289487263,
,,,,,,,,,,,,0,0,0,0,56,0,56,0,,,,,,,56,,,1,360.54680167429615,361.346859953017,Y,None,nogo,None,1,,,,,,,,,,,,,,,,62,001,21,m,Bildungswissenschaften,2023-01-24_15h08.46.593,00_bat_bachelor,2022.2.4,59.96444289487263,
,,,,,,,,,,,,0,0,0,0,57,0,57,0,,,,,,,57,,,1,362.34688274085056,,X,d,go,d,1,0.3332533009815961,,,,,,,,,,,,,,,62,001,21,m,Bildungswissenschaften,2023-01-24_15h08.46.593,00_bat_bachelor,2022.2.4,59.96444289487263,
,,,,,,,,,,,,0,0,0,0,58,0,58,0,,,,,,,58,,,1,363.7798900461057,,Y,l,go,l,1,0.3232828815234825,,,,,,,,,,,,,,,62,001,21,m,Bildungswissenschaften,2023-01-24_15h08.46.593,00_bat_bachelor,2022.2.4,59.96444289487263,
,,,,,,,,,,,,0,0,0,0,59,0,59,0,,,,,,,59,,,1,365.21321686625015,366.01342108438257,Y,None,nogo,None,1,,,,,,,,,,,,,,,,62,001,21,m,Bildungswissenschaften,2023-01-24_15h08.46.593,00_bat_bachelor,2022.2.4,59.96444289487263,
,,,,,,,,,,,,0,0,0,0,60,0,60,0,,,,,,,60,,,1,367.01369453885127,,X,d,go,d,1,0.3379204502562061,,,,,,,,,,,,,,,62,001,21,m,Bildungswissenschaften,2023-01-24_15h08.46.593,00_bat_bachelor,2022.2.4,59.96444289487263,
,,,,,,,,,,,,0,0,0,0,61,0,61,0,,,,,,,61,,,1,368.46325747238006,,Y,l,go,l,1,0.3285274850204587,,,,,,,,,,,,,,,62,001,21,m,Bildungswissenschaften,2023-01-24_15h08.46.593,00_bat_bachelor,2022.2.4,59.96444289487263,
,,,,,,,,,,,,0,0,0,0,62,0,62,0,,,,,,,62,,,1,369.8968960499624,370.69653929863125,Y,None,nogo,None,1,,,,,,,,,,,,,,,,62,001,21,m,Bildungswissenschaften,2023-01-24_15h08.46.593,00_bat_bachelor,2022.2.4,59.96444289487263,
,,,,,,,,,,,,0,0,0,0,63,0,63,0,,,,,,,63,,,1,371.69660911674146,,X,d,go,d,1,0.31066809978801757,,,,,,,,,,,,,,,62,001,21,m,Bildungswissenschaften,2023-01-24_15h08.46.593,00_bat_bachelor,2022.2.4,59.96444289487263,
,,,,,,,,,,,,0,0,0,0,64,0,64,0,,,,,,,64,,,1,373.1135640661232,,Y,l,go,l,1,0.31862639891915023,,,,,,,,,,,,,,,62,001,21,m,Bildungswissenschaften,2023-01-24_15h08.46.593,00_bat_bachelor,2022.2.4,59.96444289487263,
,,,,,,,,,,,,0,0,0,0,65,0,65,0,,,,,,,65,,,1,374.5467076137429,375.34667716524564,Y,None,nogo,None,1,,,,,,,,,,,,,,,,62,001,21,m,Bildungswissenschaften,2023-01-24_15h08.46.593,00_bat_bachelor,2022.2.4,59.96444289487263,
,,,,,,,,,,,,0,0,0,0,66,0,66,0,,,,,,,66,,,1,376.3464628623333,,X,d,go,d,1,0.31681646045763046,,,,,,,,,,,,,,,62,001,21,m,Bildungswissenschaften,2023-01-24_15h08.46.593,00_bat_bachelor,2022.2.4,59.96444289487263,
,,,,,,,,,,,,0,0,0,0,67,0,67,0,,,,,,,67,,,1,377.76320593291894,,Y,l,go,l,1,0.2759413287276402,,,,,,,,,,,,,,,62,001,21,m,Bildungswissenschaften,2023-01-24_15h08.46.593,00_bat_bachelor,2022.2.4,59.96444289487263,
,,,,,,,,,,,,0,0,0,0,68,0,68,0,,,,,,,68,,,1,379.14656574709807,,X,d,go,d,1,0.22166887018829584,,,,,,,,,,,,,,,62,001,21,m,Bildungswissenschaften,2023-01-24_15h08.46.593,00_bat_bachelor,2022.2.4,59.96444289487263,
,,,,,,,,,,,,0,0,0,0,69,0,69,0,,,,,,,69,,,1,380.47991152491886,381.279904349125,X,None,nogo,None,1,,,,,,,,,,,,,,,,62,001,21,m,Bildungswissenschaften,2023-01-24_15h08.46.593,00_bat_bachelor,2022.2.4,59.96444289487263,
,,,,,,,,,,,,0,0,0,0,70,0,70,0,,,,,,,70,,,1,382.28022725810297,,Y,l,go,l,1,0.25523055088706315,,,,,,,,,,,,,,,62,001,21,m,Bildungswissenschaften,2023-01-24_15h08.46.593,00_bat_bachelor,2022.2.4,59.96444289487263,
,,,,,,,,,,,,0,0,0,0,71,0,71,0,,,,,,,71,,,1,383.64659605012275,,X,d,go,d,1,0.28049114462919533,,,,,,,,,,,,,,,62,001,21,m,Bildungswissenschaften,2023-01-24_15h08.46.593,00_bat_bachelor,2022.2.4,59.96444289487263,
,,,,,,,,,,,,0,0,0,0,72,0,72,0,,,,,,,72,,,1,385.0302259246819,385.83021971862763,X,None,nogo,None,1,,,,,,,,,,,,,,,,62,001,21,m,Bildungswissenschaften,2023-01-24_15h08.46.593,00_bat_bachelor,2022.2.4,59.96444289487263,
,,,,,,,,,,,,0,0,0,0,73,0,73,0,,,,,,,73,,,1,386.83019693079405,,Y,l,go,l,1,0.29776240908540785,,,,,,,,,,,,,,,62,001,21,m,Bildungswissenschaften,2023-01-24_15h08.46.593,00_bat_bachelor,2022.2.4,59.96444289487263,
,,,,,,,,,,,,0,0,0,0,74,0,74,0,,,,,,,74,,,1,388.2301918884041,,X,d,go,d,1,0.33719996572472155,,,,,,,,,,,,,,,62,001,21,m,Bildungswissenschaften,2023-01-24_15h08.46.593,00_bat_bachelor,2022.2.4,59.96444289487263,
,,,,,,,,,,,,0,0,0,0,75,0,75,0,,,,,,,75,,,1,389.6802222155966,390.48010400962085,X,None,nogo,None,1,,,,,,,,,,,,,,,,62,001,21,m,Bildungswissenschaften,2023-01-24_15h08.46.593,00_bat_bachelor,2022.2.4,59.96444289487263,
,,,,,,,,,,,,0,0,0,0,76,0,76,0,,,,,,,76,,,1,391.48021600954235,392.28008810663596,X,None,nogo,None,1,,,,,,,,,,,,,,,,62,001,21,m,Bildungswissenschaften,2023-01-24_15h08.46.593,00_bat_bachelor,2022.2.4,59.96444289487263,
,,,,,,,,,,,,0,0,0,0,77,0,77,0,,,,,,,77,,,1,393.2798815612914,,Y,l,go,l,1,0.3590341368690133,,,,,,,,,,,,,,,62,001,21,m,Bildungswissenschaften,2023-01-24_15h08.46.593,00_bat_bachelor,2022.2.4,59.96444289487263,
,,,,,,,,,,,,0,0,0,0,78,0,78,0,,,,,,,78,,,1,394.7469096984714,,X,d,go,d,1,0.28507635463029146,,,,,,,,,,,,,,,62,001,21,m,Bildungswissenschaften,2023-01-24_15h08.46.593,00_bat_bachelor,2022.2.4,59.96444289487263,
,,,,,,,,,,,,0,0,0,0,79,0,79,0,,,,,,,79,,,1,396.14657205017284,396.9468208742328,X,None,nogo,None,1,,,,,,,,,,,,,,,,62,001,21,m,Bildungswissenschaften,2023-01-24_15h08.46.593,00_bat_bachelor,2022.2.4,59.96444289487263,
,,,,,,,,,,,,0,0,0,0,80,0,80,0,,,,,,,80,,,1,397.94656438950915,,Y,l,go,l,1,0.3498520808061585,,,,,,,,,,,,,,,62,001,21,m,Bildungswissenschaften,2023-01-24_15h08.46.593,00_bat_bachelor,2022.2.4,59.96444289487263,
,,,,,,,,,,,,0,0,0,0,81,0,81,0,,,,,,,81,,,1,399.396870595403,,X,d,go,d,1,0.3557502598268911,,,,,,,,,,,,,,,62,001,21,m,Bildungswissenschaften,2023-01-24_15h08.46.593,00_bat_bachelor,2022.2.4,59.96444289487263,
,,,,,,,,,,,,0,0,0,0,82,0,82,0,,,,,,,82,,,1,400.8632635814138,401.6634677995462,X,None,nogo,None,1,,,,,,,,,,,,,,,,62,001,21,m,Bildungswissenschaften,2023-01-24_15h08.46.593,00_bat_bachelor,2022.2.4,59.96444289487263,
,,,,,,,,,,,,0,0,0,0,83,0,83,0,,,,,,,83,,,1,402.6635725267697,,Y,l,go,l,1,0.38413618539925665,,,,,,,,,,,,,,,62,001,21,m,Bildungswissenschaften,2023-01-24_15h08.46.593,00_bat_bachelor,2022.2.4,59.96444289487263,
,,,,,,,,,,,,0,0,0,0,84,0,84,0,,,,,,,84,,,1,404.1633526480291,,X,d,go,d,1,0.35673595627304167,,,,,,,,,,,,,,,62,001,21,m,Bildungswissenschaften,2023-01-24_15h08.46.593,00_bat_bachelor,2022.2.4,59.96444289487263,
,,,,,,,,,,,,0,0,0,0,85,0,85,0,,,,,,,85,,,1,405.6301645429339,406.43022670049686,X,None,nogo,None,1,,,,,,,,,,,,,,,,62,001,21,m,Bildungswissenschaften,2023-01-24_15h08.46.593,00_bat_bachelor,2022.2.4,59.96444289487263,
,,,,,,,,,,,,0,0,0,0,86,0,86,0,,,,,,,86,,,1,407.43019082176033,,Y,l,go,l,1,0.28978277661371976,,,,,,,,,,,,,,,62,001,21,m,Bildungswissenschaften,2023-01-24_15h08.46.593,00_bat_bachelor,2022.2.4,59.96444289487263,
,,,,,,,,,,,,0,0,0,0,87,0,87,0,,,,,,,87,,,1,408.83027790044434,,X,d,go,d,1,0.4095732639543712,,,,,,,,,,,,,,,62,001,21,m,Bildungswissenschaften,2023-01-24_15h08.46.593,00_bat_bachelor,2022.2.4,59.96444289487263,
,,,,,,,,,,,,0,0,0,0,88,0,88,0,,,,,,,88,,,1,410.3468381348066,,Y,l,go,l,1,0.3006816803244874,,,,,,,,,,,,,,,62,001,21,m,Bildungswissenschaften,2023-01-24_15h08.46.593,00_bat_bachelor,2022.2.4,59.96444289487263,
,,,,,,,,,,,,0,0,0,0,89,0,89,0,,,,,,,89,,,1,411.763509932789,,X,d,go,d,1,0.26077479065861553,,,,,,,,,,,,,,,62,001,21,m,Bildungswissenschaften,2023-01-24_15h08.46.593,00_bat_bachelor,2022.2.4,59.96444289487263,
,,,,,,,,,,,,0,0,0,0,90,0,90,0,,,,,,,90,,,1,413.1305143609643,413.93018476106226,X,None,nogo,None,1,,,,,,,,,,,,,,,,62,001,21,m,Bildungswissenschaften,2023-01-24_15h08.46.593,00_bat_bachelor,2022.2.4,59.96444289487263,
,,,,,,,,,,,,0,0,0,0,91,0,91,0,,,,,,,91,,,1,414.93011154897977,,Y,l,go,l,1,0.32608094078022987,,,,,,,,,,,,,,,62,001,21,m,Bildungswissenschaften,2023-01-24_15h08.46.593,00_bat_bachelor,2022.2.4,59.96444289487263,
,,,,,,,,,,,,0,0,0,0,92,0,92,0,,,,,,,92,,,1,416.36356685403734,,X,d,go,d,1,0.5729326999280602,,,,,,,,,,,,,,,62,001,21,m,Bildungswissenschaften,2023-01-24_15h08.46.593,00_bat_bachelor,2022.2.4,59.96444289487263,
,,,,,,,,,,,,0,0,0,0,93,0,93,0,,,,,,,93,,,1,418.04674421972595,418.8468679529615,X,None,nogo,None,1,,,,,,,,,,,,,,,,62,001,21,m,Bildungswissenschaften,2023-01-24_15h08.46.593,00_bat_bachelor,2022.2.4,59.96444289487263,
,,,,,,,,,,,,0,0,0,0,94,0,94,0,,,,,,,94,,,1,419.8468679529615,,Y,l,go,l,1,0.3371354809496552,,,,,,,,,,,,,,,62,001,21,m,Bildungswissenschaften,2023-01-24_15h08.46.593,00_bat_bachelor,2022.2.4,59.96444289487263,
,,,,,,,,,,,,0,0,0,0,95,0,95,0,,,,,,,95,,,1,421.29686482576653,,X,d,go,d,1,0.37514903815463185,,,,,,,,,,,,,,,62,001,21,m,Bildungswissenschaften,2023-01-24_15h08.46.593,00_bat_bachelor,2022.2.4,59.96444289487263,
,,,,,,,,,,,,0,0,0,0,96,0,96,0,,,,,,,96,,,1,422.7798978036735,,Y,l,go,l,1,0.3315621502697468,,,,,,,,,,,,,,,62,001,21,m,Bildungswissenschaften,2023-01-24_15h08.46.593,00_bat_bachelor,2022.2.4,59.96444289487263,
,,,,,,,,,,,,0,0,0,0,97,0,97,0,,,,,,,97,,,1,424.21353686612565,,Y,None,nogo,d,0,0.2744029052555561,,,,,,,,,,,,,,,62,001,21,m,Bildungswissenschaften,2023-01-24_15h08.46.593,00_bat_bachelor,2022.2.4,59.96444289487263,
,,,,,,,,,,,,0,0,0,0,98,0,98,0,,,,,,,98,,,1,425.59685304388404,,X,d,go,d,1,0.4589046339970082,,,,,,,,,,,,,,,62,001,21,m,Bildungswissenschaften,2023-01-24_15h08.46.593,00_bat_bachelor,2022.2.4,59.96444289487263,
,,,,,,,,,,,,0,0,0,0,99,0,99,0,,,,,,,99,,,1,427.16323386027943,,Y,l,go,l,1,0.30077865009661764,,,,,,,,,,,,,,,62,001,21,m,Bildungswissenschaften,2023-01-24_15h08.46.593,00_bat_bachelor,2022.2.4,59.96444289487263,
,,,,,,,,,,,,0,0,0,0,100,0,100,0,,,,,,,100,,,1,428.57992408249993,429.3802112095291,Y,None,nogo,None,1,,,,,,,,,,,,,,,,62,001,21,m,Bildungswissenschaften,2023-01-24_15h08.46.593,00_bat_bachelor,2022.2.4,59.96444289487263,
,,,,,,,,,,,,0,0,0,0,101,0,101,0,,,,,,,101,,,1,430.38027133070864,,X,d,go,d,1,0.2998142868746072,,,,,,,,,,,,,,,62,001,21,m,Bildungswissenschaften,2023-01-24_15h08.46.593,00_bat_bachelor,2022.2.4,59.96444289487263,
,,,,,,,,,,,,0,0,0,0,102,0,102,0,,,,,,,102,,,1,431.77988277340773,,Y,l,go,l,1,0.3073488286463544,,,,,,,,,,,,,,,62,001,21,m,Bildungswissenschaften,2023-01-24_15h08.46.593,00_bat_bachelor,2022.2.4,59.96444289487263,
,,,,,,,,,,,,0,0,0,0,103,0,103,0,,,,,,,103,,,1,433.19686002575327,433.9968494561035,Y,None,nogo,None,1,,,,,,,,,,,,,,,,62,001,21,m,Bildungswissenschaften,2023-01-24_15h08.46.593,00_bat_bachelor,2022.2.4,59.96444289487263,
,,,,,,,,,,,,0,0,0,0,104,0,104,0,,,,,,,104,,,1,434.996790789417,,X,d,go,d,1,0.2916828969027847,,,,,,,,,,,,,,,62,001,21,m,Bildungswissenschaften,2023-01-24_15h08.46.593,00_bat_bachelor,2022.2.4,59.96444289487263,
,,,,,,,,,,,,0,0,0,0,105,0,105,0,,,,,,,105,,,1,436.39685556513723,,Y,l,go,l,1,0.2988819236634299,,,,,,,,,,,,,,,62,001,21,m,Bildungswissenschaften,2023-01-24_15h08.46.593,00_bat_bachelor,2022.2.4,59.96444289487263,
,,,,,,,,,,,,0,0,0,0,106,0,106,0,,,,,,,106,,,1,437.7969838560093,,X,d,go,d,1,0.22777892788872123,,,,,,,,,,,,,,,62,001,21,m,Bildungswissenschaften,2023-01-24_15h08.46.593,00_bat_bachelor,2022.2.4,59.96444289487263,
,,,,,,,,,,,,0,0,0,0,107,0,107,0,,,,,,,107,,,1,439.1301739974879,,Y,l,go,l,1,0.20584051427431405,,,,,,,,,,,,,,,62,001,21,m,Bildungswissenschaften,2023-01-24_15h08.46.593,00_bat_bachelor,2022.2.4,59.96444289487263,
,,,,,,,,,,,,0,0,0,0,108,0,108,0,,,,,,,108,,,1,440.44689141970593,,X,d,go,d,1,0.23260995582677424,,,,,,,,,,,,,,,62,001,21,m,Bildungswissenschaften,2023-01-24_15h08.46.593,00_bat_bachelor,2022.2.4,59.96444289487263,
,,,,,,,,,,,,0,0,0,0,109,0,109,0,,,,,,,109,,,1,441.7801518641645,,X,None,nogo,l,0,0.06739694497082382,,,,,,,,,,,,,,,62,001,21,m,Bildungswissenschaften,2023-01-24_15h08.46.593,00_bat_bachelor,2022.2.4,59.96444289487263,
,,,,,,,,,,,,0,0,0,0,110,0,110,0,,,,,,,110,,,1,442.96353504795115,,Y,l,go,l,1,0.3081624039914459,,,,,,,,,,,,,,,62,001,21,m,Bildungswissenschaften,2023-01-24_15h08.46.593,00_bat_bachelor,2022.2.4,59.96444289487263,
,,,,,,,,,,,,0,0,0,0,111,0,111,0,,,,,,,111,,,1,444.38010599755216,,X,d,go,d,1,0.4279858610825613,,,,,,,,,,,,,,,62,001,21,m,Bildungswissenschaften,2023-01-24_15h08.46.593,00_bat_bachelor,2022.2.4,59.96444289487263,
,,,,,,,,,,,,0,0,0,0,112,0,112,0,,,,,,,112,,,1,445.91359519341495,446.7132112905383,X,None,nogo,None,1,,,,,,,,,,,,,,,,62,001,21,m,Bildungswissenschaften,2023-01-24_15h08.46.593,00_bat_bachelor,2022.2.4,59.96444289487263,
,,,,,,,,,,,,0,0,0,0,113,0,113,0,,,,,,,113,,,1,447.71339892677497,448.5132322360296,X,None,nogo,None,1,,,,,,,,,,,,,,,,62,001,21,m,Bildungswissenschaften,2023-01-24_15h08.46.593,00_bat_bachelor,2022.2.4,59.96444289487263,
,,,,,,,,,,,,0,0,0,0,114,0,114,0,,,,,,,114,,,1,449.5134998721769,,Y,l,go,l,1,0.3182913687778637,,,,,,,,,,,,,,,62,001,21,m,Bildungswissenschaften,2023-01-24_15h08.46.593,00_bat_bachelor,2022.2.4,59.96444289487263,
,,,,,,,,,,,,0,0,0,0,115,0,115,0,,,,,,,115,,,1,450.94692754081916,,X,d,go,d,1,0.4856348028406501,,,,,,,,,,,,,,,62,001,21,m,Bildungswissenschaften,2023-01-24_15h08.46.593,00_bat_bachelor,2022.2.4,59.96444289487263,
,,,,,,,,,,,,0,0,0,0,116,0,116,0,,,,,,,116,,,1,452.5464884622488,453.34654722583946,X,None,nogo,None,1,,,,,,,,,,,,,,,,62,001,21,m,Bildungswissenschaften,2023-01-24_15h08.46.593,00_bat_bachelor,2022.2.4,59.96444289487263,
,,,,,,,,,,,,0,0,0,0,117,0,117,0,,,,,,,117,,,1,454.3469312257366,,Y,l,go,l,1,0.25306958227884024,,,,,,,,,,,,,,,62,001,21,m,Bildungswissenschaften,2023-01-24_15h08.46.593,00_bat_bachelor,2022.2.4,59.96444289487263,
,,,,,,,,,,,,0,0,0,0,118,0,118,0,,,,,,,118,,,1,455.7133218359668,,X,d,go,d,1,0.34237669047433883,,,,,,,,,,,,,,,62,001,21,m,Bildungswissenschaften,2023-01-24_15h08.46.593,00_bat_bachelor,2022.2.4,59.96444289487263,
,,,,,,,,,,,,0,0,0,0,119,0,119,0,,,,,,,119,,,1,457.163239678368,,Y,l,go,l,1,0.2680630295071751,,,,,,,,,,,,,,,62,001,21,m,Bildungswissenschaften,2023-01-24_15h08.46.593,00_bat_bachelor,2022.2.4,59.96444289487263,
,,,,,,,,,,,,0,0,0,0,120,0,120,0,,,,,,,120,,,1,458.54684046213515,459.346845407621,Y,None,nogo,None,1,,,,,,,,,,,,,,,,62,001,21,m,Bildungswissenschaften,2023-01-24_15h08.46.593,00_bat_bachelor,2022.2.4,59.96444289487263,
,,,,,,,,,,,,0,0,0,0,121,0,121,0,,,,,,,121,,,1,460.3464681956684,,X,d,go,d,1,0.31648579391185194,,,,,,,,,,,,,,,62,001,21,m,Bildungswissenschaften,2023-01-24_15h08.46.593,00_bat_bachelor,2022.2.4,59.96444289487263,
,,,,,,,,,,,,0,0,0,0,122,0,122,0,,,,,,,122,,,1,461.76357975101564,,Y,l,go,l,1,0.42080089484807104,,,,,,,,,,,,,,,62,001,21,m,Bildungswissenschaften,2023-01-24_15h08.46.593,00_bat_bachelor,2022.2.4,59.96444289487263,
,,,,,,,,,,,,0,0,0,0,123,0,123,0,,,,,,,123,,,1,463.29653318959754,,X,d,go,d,1,0.2626753958174959,,,,,,,,,,,,,,,62,001,21,m,Bildungswissenschaften,2023-01-24_15h08.46.593,00_bat_bachelor,2022.2.4,59.96444289487263,
,,,,,,,,,,,,0,0,0,0,124,0,124,0,,,,,,,124,,,1,464.6632059814874,,Y,l,go,l,1,0.27196605794597417,,,,,,,,,,,,,,,62,001,21,m,Bildungswissenschaften,2023-01-24_15h08.46.593,00_bat_bachelor,2022.2.4,59.96444289487263,
,,,,,,,,,,,,0,0,0,0,125,0,125,0,,,,,,,125,,,1,466.0468814318301,466.84687425603624,Y,None,nogo,None,1,,,,,,,,,,,,,,,,62,001,21,m,Bildungswissenschaften,2023-01-24_15h08.46.593,00_bat_bachelor,2022.2.4,59.96444289487263,
,,,,,,,,,,,,0,0,0,0,126,0,126,0,,,,,,,126,,,1,467.84678213484585,,X,d,go,d,1,0.27360387530643493,,,,,,,,,,,,,,,62,001,21,m,Bildungswissenschaften,2023-01-24_15h08.46.593,00_bat_bachelor,2022.2.4,59.96444289487263,
,,,,,,,,,,,,0,0,0,0,127,0,127,0,,,,,,,127,,,1,469.230150676216,,Y,l,go,l,1,0.31409937085118145,,,,,,,,,,,,,,,62,001,21,m,Bildungswissenschaften,2023-01-24_15h08.46.593,00_bat_bachelor,2022.2.4,59.96444289487263,
,,,,,,,,,,,,0,0,0,0,128,0,128,0,,,,,,,128,,,1,470.6464811410988,,X,d,go,d,1,0.28880144376307726,,,,,,,,,,,,,,,62,001,21,m,Bildungswissenschaften,2023-01-24_15h08.46.593,00_bat_bachelor,2022.2.4,59.96444289487263,
,,,,,,,,,,,,0,0,0,0,129,0,129,0,,,,,,,129,,,1,472.04652070475277,,Y,l,go,l,1,0.18503567588049918,,,,,,,,,,,,,,,62,001,21,m,Bildungswissenschaften,2023-01-24_15h08.46.593,00_bat_bachelor,2022.2.4,59.96444289487263,
,,,,,,,,,,,,0,0,0,0,130,0,130,0,,,,,,,130,,,1,473.34668637730647,,Y,None,nogo,d,0,0.2126957835862413,,,,,,,,,,,,,,,62,001,21,m,Bildungswissenschaften,2023-01-24_15h08.46.593,00_bat_bachelor,2022.2.4,59.96444289487263,
,,,,,,,,,,,,0,0,0,0,131,0,131,0,,,,,,,131,,,1,474.66342755709775,,X,d,go,d,1,0.3842733975034207,,,,,,,,,,,,,,,62,001,21,m,Bildungswissenschaften,2023-01-24_15h08.46.593,00_bat_bachelor,2022.2.4,59.96444289487263,
,,,,,,,,,,,,0,0,0,0,132,0,132,0,,,,,,,132,,,1,476.16344234498683,,Y,l,go,l,1,0.18037192057818174,,,,,,,,,,,,,,,62,001,21,m,Bildungswissenschaften,2023-01-24_15h08.46.593,00_bat_bachelor,2022.2.4,59.96444289487263,
,,,,,,,,,,,,0,0,0,0,133,0,133,0,,,,,,,133,,,1,477.4468206318561,478.24653612286784,Y,None,nogo,None,1,,,,,,,,,,,,,,,,62,001,21,m,Bildungswissenschaften,2023-01-24_15h08.46.593,00_bat_bachelor,2022.2.4,59.96444289487263,
,,,,,,,,,,,,0,0,0,0,134,0,134,0,,,,,,,134,,,1,479.2468076378573,,X,d,go,d,1,0.28128484124317765,,,,,,,,,,,,,,,62,001,21,m,Bildungswissenschaften,2023-01-24_15h08.46.593,00_bat_bachelor,2022.2.4,59.96444289487263,
,,,,,,,,,,,,0,0,0,0,135,0,135,0,,,,,,,135,,,1,480.6300161794061,,Y,l,go,l,1,0.25825115549378097,,,,,,,,,,,,,,,62,001,21,m,Bildungswissenschaften,2023-01-24_15h08.46.593,00_bat_bachelor,2022.2.4,59.96444289487263,
,,,,,,,,,,,,0,0,0,0,136,0,136,0,,,,,,,136,,,1,481.9970380620798,,X,d,go,d,1,0.41076502099167556,,,,,,,,,,,,,,,62,001,21,m,Bildungswissenschaften,2023-01-24_15h08.46.593,00_bat_bachelor,2022.2.4,59.96444289487263,
,,,,,,,,,,,,0,0,0,0,137,0,137,0,,,,,,,137,,,1,483.51350423588883,484.31318821175955,X,None,nogo,None,1,,,,,,,,,,,,,,,,62,001,21,m,Bildungswissenschaften,2023-01-24_15h08.46.593,00_bat_bachelor,2022.2.4,59.96444289487263,
,,,,,,,,,,,,0,0,0,0,138,0,138,0,,,,,,,138,,,1,485.31347718136385,,Y,l,go,l,1,0.24690910044591874,,,,,,,,,,,,,,,62,001,21,m,Bildungswissenschaften,2023-01-24_15h08.46.593,00_bat_bachelor,2022.2.4,59.96444289487263,
,,,,,,,,,,,,0,0,0,0,139,0,139,0,,,,,,,139,,,1,486.6632205268834,,X,d,go,d,1,0.35259292798582464,,,,,,,,,,,,,,,62,001,21,m,Bildungswissenschaften,2023-01-24_15h08.46.593,00_bat_bachelor,2022.2.4,59.96444289487263,
,,,,,,,,,,,,0,0,0,0,140,0,140,0,,,,,,,140,,,1,488.1301259974716,,X,None,nogo,l,0,0.21419154049362987,,,,,,,,,,,,,,,62,001,21,m,Bildungswissenschaften,2023-01-24_15h08.46.593,00_bat_bachelor,2022.2.4,59.96444289487263,
,,,,,,,,,,,,0,0,0,0,141,0,141,0,,,,,,,141,,,1,489.4464618441416,,Y,l,go,l,1,0.2572169742779806,,,,,,,,,,,,,,,62,001,21,m,Bildungswissenschaften,2023-01-24_15h08.46.593,00_bat_bachelor,2022.2.4,59.96444289487263,
,,,,,,,,,,,,0,0,0,0,142,0,142,0,,,,,,,142,,,1,490.81321851478424,,X,d,go,d,1,0.3150584006216377,,,,,,,,,,,,,,,62,001,21,m,Bildungswissenschaften,2023-01-24_15h08.46.593,00_bat_bachelor,2022.2.4,59.96444289487263,
,,,,,,,,,,,,0,0,0,0,143,0,143,0,,,,,,,143,,,1,492.22980934311636,493.03018180350773,X,None,nogo,None,1,,,,,,,,,,,,,,,,62,001,21,m,Bildungswissenschaften,2023-01-24_15h08.46.593,00_bat_bachelor,2022.2.4,59.96444289487263,
,,,,,,,,,,,,0,0,0,0,144,0,144,0,,,,,,,144,,,1,494.0301105307881,,Y,l,go,l,1,0.2975859242724255,,,,,,,,,,,,,,,62,001,21,m,Bildungswissenschaften,2023-01-24_15h08.46.593,00_bat_bachelor,2022.2.4,59.96444289487263,
,,,,,,,,,,,,0,0,0,0,145,0,145,0,,,,,,,145,,,1,495.4302087611286,,X,d,go,d,1,0.3213197310687974,,,,,,,,,,,,,,,62,001,21,m,Bildungswissenschaften,2023-01-24_15h08.46.593,00_bat_bachelor,2022.2.4,59.96444289487263,
,,,,,,,,,,,,0,0,0,0,146,0,146,0,,,,,,,146,,,1,496.8634837025311,,Y,l,go,l,1,0.26388848607894033,,,,,,,,,,,,,,,62,001,21,m,Bildungswissenschaften,2023-01-24_15h08.46.593,00_bat_bachelor,2022.2.4,59.96444289487263,
,,,,,,,,,,,,0,0,0,0,147,0,147,0,,,,,,,147,,,1,498.2301453429973,499.0298021673225,Y,None,nogo,None,1,,,,,,,,,,,,,,,,62,001,21,m,Bildungswissenschaften,2023-01-24_15h08.46.593,00_bat_bachelor,2022.2.4,59.96444289487263,
,,,,,,,,,,,,0,0,0,0,148,0,148,0,,,,,,,148,,,1,500.02980071282946,,X,d,go,d,1,0.21763008425477892,,,,,,,,,,,,,,,62,001,21,m,Bildungswissenschaften,2023-01-24_15h08.46.593,00_bat_bachelor,2022.2.4,59.96444289487263,
,,,,,,,,,,,,0,0,0,0,149,0,149,0,,,,,,,149,,,1,501.36317703605164,,Y,l,go,l,1,0.32419391139410436,,,,,,,,,,,,,,,62,001,21,m,Bildungswissenschaften,2023-01-24_15h08.46.593,00_bat_bachelor,2022.2.4,59.96444289487263,
,,,,,,,,,,,,0,0,0,0,150,0,150,0,,,,,,,150,,,1,502.7968820378883,,X,d,go,d,1,0.21940608334261924,,,,,,,,,,,,,,,62,001,21,m,Bildungswissenschaften,2023-01-24_15h08.46.593,00_bat_bachelor,2022.2.4,59.96444289487263,
,,,,,,,,,,,,0,0,0,0,151,0,151,0,,,,,,,151,,,1,504.1301449065795,504.9298647613032,X,None,nogo,None,1,,,,,,,,,,,,,,,,62,001,21,m,Bildungswissenschaften,2023-01-24_15h08.46.593,00_bat_bachelor,2022.2.4,59.96444289487263,
,,,,,,,,,,,,0,0,0,0,152,0,152,0,,,,,,,152,,,1,505.9303287609946,,Y,l,go,l,1,0.35013038374017924,,,,,,,,,,,,,,,62,001,21,m,Bildungswissenschaften,2023-01-24_15h08.46.593,00_bat_bachelor,2022.2.4,59.96444289487263,
,,,,,,,,,,,,0,0,0,0,153,0,153,0,,,,,,,153,,,1,507.37982817948796,,X,d,go,d,1,0.27560532896313816,,,,,,,,,,,,,,,62,001,21,m,Bildungswissenschaften,2023-01-24_15h08.46.593,00_bat_bachelor,2022.2.4,59.96444289487263,
,,,,,,,,,,,,0,0,0,0,154,0,154,0,,,,,,,154,,,1,508.7635254479246,509.5635071207071,X,None,nogo,None,1,,,,,,,,,,,,,,,,62,001,21,m,Bildungswissenschaften,2023-01-24_15h08.46.593,00_bat_bachelor,2022.2.4,59.96444289487263,
,,,,,,,,,,,,0,0,0,0,155,0,155,0,,,,,,,155,,,1,510.56316675723065,511.36342430859804,X,None,nogo,None,1,,,,,,,,,,,,,,,,62,001,21,m,Bildungswissenschaften,2023-01-24_15h08.46.593,00_bat_bachelor,2022.2.4,59.96444289487263,
,,,,,,,,,,,,0,0,0,0,156,0,156,0,,,,,,,156,,,1,512.3633462480502,,Y,l,go,l,1,0.3479791119461879,,,,,,,,,,,,,,,62,001,21,m,Bildungswissenschaften,2023-01-24_15h08.46.593,00_bat_bachelor,2022.2.4,59.96444289487263,
,,,,,,,,,,,,0,0,0,0,157,0,157,0,,,,,,,157,,,1,513.8134643328376,,X,d,go,d,1,0.25774206477217376,,,,,,,,,,,,,,,62,001,21,m,Bildungswissenschaften,2023-01-24_15h08.46.593,00_bat_bachelor,2022.2.4,59.96444289487263,
,,,,,,,,,,,,0,0,0,0,158,0,158,0,,,,,,,158,,,1,515.1799887611996,515.9801338277757,X,None,nogo,None,1,,,,,,,,,,,,,,,,62,001,21,m,Bildungswissenschaften,2023-01-24_15h08.46.593,00_bat_bachelor,2022.2.4,59.96444289487263,
,,,,,,,,,,,,0,0,0,0,159,0,159,0,,,,,,,159,,,1,516.9799195248634,,Y,l,go,l,1,0.3238957297289744,,,,,,,,,,,,,,,62,001,21,m,Bildungswissenschaften,2023-01-24_15h08.46.593,00_bat_bachelor,2022.2.4,59.96444289487263,
,,,,,,,,,,,,0,0,0,0,160,0,160,0,,,,,,,160,,,1,518.4131585875293,,X,d,go,d,1,0.4424343388527632,,,,,,,,,,,,,,,62,001,21,m,Bildungswissenschaften,2023-01-24_15h08.46.593,00_bat_bachelor,2022.2.4,59.96444289487263,
,,,,,,,,,,,,0,0,0,0,161,0,161,0,,,,,,,161,,,1,519.9634312904673,,Y,l,go,l,1,0.2998322262428701,,,,,,,,,,,,,,,62,001,21,m,Bildungswissenschaften,2023-01-24_15h08.46.593,00_bat_bachelor,2022.2.4,59.96444289487263,
,,,,,,,,,,,,0,0,0,0,162,0,162,0,,,,,,,162,,,1,521.3631663693814,,X,d,go,d,1,0.4363223419059068,,,,,,,,,,,,,,,62,001,21,m,Bildungswissenschaften,2023-01-24_15h08.46.593,00_bat_bachelor,2022.2.4,59.96444289487263,
,,,,,,,,,,,,0,0,0,0,163,0,163,0,,,,,,,163,,,1,522.9134691328509,523.7131162602454,X,None,nogo,None,1,,,,,,,,,,,,,,,,62,001,21,m,Bildungswissenschaften,2023-01-24_15h08.46.593,00_bat_bachelor,2022.2.4,59.96444289487263,
,,,,,,,,,,,,0,0,0,0,164,0,164,0,,,,,,,164,,,1,524.7131526238518,,Y,l,go,l,1,0.3181817930890247,,,,,,,,,,,,,,,62,001,21,m,Bildungswissenschaften,2023-01-24_15h08.46.593,00_bat_bachelor,2022.2.4,59.96444289487263,
,,,,,,,,,,,,0,0,0,0,165,0,165,0,,,,,,,165,,,1,526.1466501107207,,X,d,go,d,1,0.292851381120272,,,,,,,,,,,,,,,62,001,21,m,Bildungswissenschaften,2023-01-24_15h08.46.593,00_bat_bachelor,2022.2.4,59.96444289487263,
,,,,,,,,,,,,0,0,0,0,166,0,166,0,,,,,,,166,,,1,527.5467973105842,,Y,l,go,l,1,0.33367996744345874,,,,,,,,,,,,,,,62,001,21,m,Bildungswissenschaften,2023-01-24_15h08.46.593,00_bat_bachelor,2022.2.4,59.96444289487263,
,,,,,,,,,,,,0,0,0,0,167,0,167,0,,,,,,,167,,,1,528.9967956378823,,Y,None,nogo,d,0,0.30762858607340604,,,,,,,,,,,,,,,62,001,21,m,Bildungswissenschaften,2023-01-24_15h08.46.593,00_bat_bachelor,2022.2.4,59.96444289487263,
,,,,,,,,,,,,0,0,0,0,168,0,168,0,,,,,,,168,,,1,530.4131901026703,,Y,None,nogo,l,0,0.5232532088411972,,,,,,,,,,,,,,,62,001,21,m,Bildungswissenschaften,2023-01-24_15h08.46.593,00_bat_bachelor,2022.2.4,59.96444289487263,
,,,,,,,,,,,,0,0,0,0,169,0,169,0,,,,,,,169,,,1,532.0466414318653,,X,d,go,d,1,0.5047397633315995,,,,,,,,,,,,,,,62,001,21,m,Bildungswissenschaften,2023-01-24_15h08.46.593,00_bat_bachelor,2022.2.4,59.96444289487263,
,,,,,,,,,,,,0,0,0,0,170,0,170,0,,,,,,,170,,,1,533.6635031934129,,Y,l,go,l,1,0.3767640677979216,,,,,,,,,,,,,,,62,001,21,m,Bildungswissenschaften,2023-01-24_15h08.46.593,00_bat_bachelor,2022.2.4,59.96444289487263,
,,,,,,,,,,,,0,0,0,0,171,0,171,0,,,,,,,171,,,1,535.146623444045,535.9467908137012,Y,None,nogo,None,1,,,,,,,,,,,,,,,,62,001,21,m,Bildungswissenschaften,2023-01-24_15h08.46.593,00_bat_bachelor,2022.2.4,59.96444289487263,
,,,,,,,,,,,,0,0,0,0,172,0,172,0,,,,,,,172,,,1,536.9467728742165,,X,d,go,d,1,0.3253730623982847,,,,,,,,,,,,,,,62,001,21,m,Bildungswissenschaften,2023-01-24_15h08.46.593,00_bat_bachelor,2022.2.4,59.96444289487263,
,,,,,,,,,,,,0,0,0,0,173,0,173,0,,,,,,,173,,,1,538.3797986037098,,Y,l,go,l,1,0.3162632486782968,,,,,,,,,,,,,,,62,001,21,m,Bildungswissenschaften,2023-01-24_15h08.46.593,00_bat_bachelor,2022.2.4,59.96444289487263,
,,,,,,,,,,,,0,0,0,0,174,0,174,0,,,,,,,174,,,1,539.7967904015677,,X,d,go,d,1,0.4193080470431596,,,,,,,,,,,,,,,62,001,21,m,Bildungswissenschaften,2023-01-24_15h08.46.593,00_bat_bachelor,2022.2.4,59.96444289487263,
,,,,,,,,,,,,0,0,0,0,175,0,175,0,,,,,,,175,,,1,541.3301419005729,542.1301269672113,X,None,nogo,None,1,,,,,,,,,,,,,,,,62,001,21,m,Bildungswissenschaften,2023-01-24_15h08.46.593,00_bat_bachelor,2022.2.4,59.96444289487263,
,,,,,,,,,,,,0,0,0,0,176,0,176,0,,,,,,,176,,,1,543.1300683005247,,Y,l,go,l,1,0.2855621725320816,,,,,,,,,,,,,,,62,001,21,m,Bildungswissenschaften,2023-01-24_15h08.46.593,00_bat_bachelor,2022.2.4,59.96444289487263,
,,,,,,,,,,,,0,0,0,0,177,0,177,0,,,,,,,177,,,1,544.5297931976384,,X,d,go,d,1,0.26120339648332447,,,,,,,,,,,,,,,62,001,21,m,Bildungswissenschaften,2023-01-24_15h08.46.593,00_bat_bachelor,2022.2.4,59.96444289487263,
,,,,,,,,,,,,0,0,0,0,178,0,178,0,,,,,,,178,,,1,545.8964063532185,,Y,l,go,l,1,0.23856825602706522,,,,,,,,,,,,,,,62,001,21,m,Bildungswissenschaften,2023-01-24_15h08.46.593,00_bat_bachelor,2022.2.4,59.96444289487263,
,,,,,,,,,,,,0,0,0,0,179,0,179,0,,,,,,,179,,,1,547.2465768500697,,X,d,go,d,1,0.23344728874508291,,,,,,,,,,,,,,,62,001,21,m,Bildungswissenschaften,2023-01-24_15h08.46.593,00_bat_bachelor,2022.2.4,59.96444289487263,
,,,,,,,,,,,,0,0,0,0,180,0,180,0,,,,,,,180,,,1,548.5800186278066,549.3801069671754,X,None,nogo,None,1,,,,,,,,,,,,,,,,62,001,21,m,Bildungswissenschaften,2023-01-24_15h08.46.593,00_bat_bachelor,2022.2.4,59.96444289487263,
,,,,,,,,,,,,0,0,0,0,181,0,181,0,,,,,,,181,,,1,550.3798179976875,,Y,l,go,l,1,0.3158773094182834,,,,,,,,,,,,,,,62,001,21,m,Bildungswissenschaften,2023-01-24_15h08.46.593,00_bat_bachelor,2022.2.4,59.96444289487263,
,,,,,,,,,,,,0,0,0,0,182,0,182,0,,,,,,,182,,,1,551.7965295531321,,X,d,go,d,1,0.3223994879517704,,,,,,,,,,,,,,,62,001,21,m,Bildungswissenschaften,2023-01-24_15h08.46.593,00_bat_bachelor,2022.2.4,59.96444289487263,
,,,,,,,,,,,,0,0,0,0,183,0,183,0,,,,,,,183,,,1,553.2297627977096,,Y,l,go,l,1,0.26589042448904365,,,,,,,,,,,,,,,62,001,21,m,Bildungswissenschaften,2023-01-24_15h08.46.593,00_bat_bachelor,2022.2.4,59.96444289487263,
,,,,,,,,,,,,0,0,0,0,184,0,184,0,,,,,,,184,,,1,554.5964952259092,,X,d,go,d,1,0.3547786239068955,,,,,,,,,,,,,,,62,001,21,m,Bildungswissenschaften,2023-01-24_15h08.46.593,00_bat_bachelor,2022.2.4,59.96444289487263,
,,,,,,,,,,,,0,0,0,0,185,0,185,0,,,,,,,185,,,1,556.0635025146184,,Y,l,go,l,1,0.23277141025755554,,,,,,,,,,,,,,,62,001,21,m,Bildungswissenschaften,2023-01-24_15h08.46.593,00_bat_bachelor,2022.2.4,59.96444289487263,
,,,,,,,,,,,,0,0,0,0,186,0,186,0,,,,,,,186,,,1,557.3967804136919,558.1964765107259,Y,None,nogo,None,1,,,,,,,,,,,,,,,,62,001,21,m,Bildungswissenschaften,2023-01-24_15h08.46.593,00_bat_bachelor,2022.2.4,59.96444289487263,
,,,,,,,,,,,,0,0,0,0,187,0,187,0,,,,,,,187,,,1,559.196780510596,,X,d,go,d,1,0.3319136652862653,,,,,,,,,,,,,,,62,001,21,m,Bildungswissenschaften,2023-01-24_15h08.46.593,00_bat_bachelor,2022.2.4,59.96444289487263,
,,,,,,,,,,,,0,0,0,0,188,0,188,0,,,,,,,188,,,1,560.6300855126465,,Y,l,go,l,1,0.22555444401223212,,,,,,,,,,,,,,,62,001,21,m,Bildungswissenschaften,2023-01-24_15h08.46.593,00_bat_bachelor,2022.2.4,59.96444289487263,
,,,,,,,,,,,,0,0,0,0,189,0,189,0,,,,,,,189,,,1,561.9634400176583,,X,d,go,d,1,0.2369071658467874,,,,,,,,,,,,,,,62,001,21,m,Bildungswissenschaften,2023-01-24_15h08.46.593,00_bat_bachelor,2022.2.4,59.96444289487263,
,,,,,,,,,,,,0,0,0,0,190,0,190,0,,,,,,,190,,,1,563.3133055450162,,X,None,nogo,l,0,0.2147893583169207,,,,,,,,,,,,,,,62,001,21,m,Bildungswissenschaften,2023-01-24_15h08.46.593,00_bat_bachelor,2022.2.4,59.96444289487263,
,,,,,,,,,,,,0,0,0,0,191,0,191,0,,,,,,,191,,,1,564.6298367854906,,Y,l,go,l,1,0.3544140178710222,,,,,,,,,,,,,,,62,001,21,m,Bildungswissenschaften,2023-01-24_15h08.46.593,00_bat_bachelor,2022.2.4,59.96444289487263,
,,,,,,,,,,,,0,0,0,0,192,0,192,0,,,,,,,192,,,1,566.0967728015967,,X,d,go,d,1,0.2945803500479087,,,,,,,,,,,,,,,62,001,21,m,Bildungswissenschaften,2023-01-24_15h08.46.593,00_bat_bachelor,2022.2.4,59.96444289487263,
,,,,,,,,,,,,0,0,0,0,193,0,193,0,,,,,,,193,,,1,567.4967619410018,568.2967494318727,X,None,nogo,None,1,,,,,,,,,,,,,,,,62,001,21,m,Bildungswissenschaften,2023-01-24_15h08.46.593,00_bat_bachelor,2022.2.4,59.96444289487263,
,,,,,,,,,,,,0,0,0,0,194,0,194,0,,,,,,,194,,,1,569.2965074925451,,Y,l,go,l,1,0.2471985548036173,,,,,,,,,,,,,,,62,001,21,m,Bildungswissenschaften,2023-01-24_15h08.46.593,00_bat_bachelor,2022.2.4,59.96444289487263,
,,,,,,,,,,,,0,0,0,0,195,0,195,0,,,,,,,195,,,1,570.6465039289324,,X,d,go,d,1,0.38548648776486516,,,,,,,,,,,,,,,62,001,21,m,Bildungswissenschaften,2023-01-24_15h08.46.593,00_bat_bachelor,2022.2.4,59.96444289487263,
,,,,,,,,,,,,0,0,0,0,196,0,196,0,,,,,,,196,,,1,572.1466137471143,572.9467820863938,X,None,nogo,None,1,,,,,,,,,,,,,,,,62,001,21,m,Bildungswissenschaften,2023-01-24_15h08.46.593,00_bat_bachelor,2022.2.4,59.96444289487263,
,,,,,,,,,,,,0,0,0,0,197,0,197,0,,,,,,,197,,,1,573.9467806319008,,Y,l,go,l,1,0.20449312101118267,,,,,,,,,,,,,,,62,001,21,m,Bildungswissenschaften,2023-01-24_15h08.46.593,00_bat_bachelor,2022.2.4,59.96444289487263,
,,,,,,,,,,,,0,0,0,0,198,0,198,0,,,,,,,198,,,1,575.2634481146233,,X,d,go,d,1,0.21598353958688676,,,,,,,,,,,,,,,62,001,21,m,Bildungswissenschaften,2023-01-24_15h08.46.593,00_bat_bachelor,2022.2.4,59.96444289487263,
,,,,,,,,,,,,0,0,0,0,199,0,199,0,,,,,,,199,,,1,576.5797878401354,,Y,l,go,l,1,0.2761590256122872,,,,,,,,,,,,,,,62,001,21,m,Bildungswissenschaften,2023-01-24_15h08.46.593,00_bat_bachelor,2022.2.4,59.96444289487263,
,,,,,,,,,,,,0,0,0,0,200,0,200,0,,,,,,,200,,,1,577.9635156540899,,X,d,go,d,1,0.23648098425474018,,,,,,,,,,,,,,,62,001,21,m,Bildungswissenschaften,2023-01-24_15h08.46.593,00_bat_bachelor,2022.2.4,59.96444289487263,
,,,,,,,,,,,,0,0,0,0,201,0,201,0,,,,,,,201,,,1,579.3131305148127,,Y,l,go,l,1,0.2152053581085056,,,,,,,,,,,,,,,62,001,21,m,Bildungswissenschaften,2023-01-24_15h08.46.593,00_bat_bachelor,2022.2.4,59.96444289487263,
,,,,,,,,,,,,0,0,0,0,202,0,202,0,,,,,,,202,,,1,580.6300932702143,,X,d,go,d,1,0.21037142118439078,,,,,,,,,,,,,,,62,001,21,m,Bildungswissenschaften,2023-01-24_15h08.46.593,00_bat_bachelor,2022.2.4,59.96444289487263,
,,,,,,,,,,,,0,0,0,0,203,0,203,0,,,,,,,203,,,1,581.9464649956208,,X,None,nogo,l,0,0.07758409157395363,,,,,,,,,,,,,,,62,001,21,m,Bildungswissenschaften,2023-01-24_15h08.46.593,00_bat_bachelor,2022.2.4,59.96444289487263,
,,,,,,,,,,,,0,0,0,0,204,0,204,0,,,,,,,204,,,1,583.1300954520702,,Y,l,go,l,1,0.3502210503211245,,,,,,,,,,,,,,,62,001,21,m,Bildungswissenschaften,2023-01-24_15h08.46.593,00_bat_bachelor,2022.2.4,59.96444289487263,
,,,,,,,,,,,,0,0,0,0,205,0,205,0,,,,,,,205,,,1,584.5797563249944,,X,d,go,d,1,0.35554662358481437,,,,,,,,,,,,,,,62,001,21,m,Bildungswissenschaften,2023-01-24_15h08.46.593,00_bat_bachelor,2022.2.4,59.96444289487263,
,,,,,,,,,,,,0,0,0,0,206,0,206,0,,,,,,,206,,,1,586.0468213106506,,Y,l,go,l,1,0.2814821746433154,,,,,,,,,,,,,,,62,001,21,m,Bildungswissenschaften,2023-01-24_15h08.46.593,00_bat_bachelor,2022.2.4,59.96444289487263,
,,,,,,,,,,,,0,0,0,0,207,0,207,0,,,,,,,207,,,1,587.4300957914675,588.2297385552665,Y,None,nogo,None,1,,,,,,,,,,,,,,,,62,001,21,m,Bildungswissenschaften,2023-01-24_15h08.46.593,00_bat_bachelor,2022.2.4,59.96444289487263,
,,,,,,,,,,,,0,0,0,0,208,0,208,0,,,,,,,208,,,1,589.2301303126151,,X,d,go,d,1,0.26572121249046177,,,,,,,,,,,,,,,62,001,21,m,Bildungswissenschaften,2023-01-24_15h08.46.593,00_bat_bachelor,2022.2.4,59.96444289487263,
,,,,,,,,,,,,0,0,0,0,209,0,209,0,,,,,,,209,,,1,590.5964918319369,,Y,l,go,l,1,0.24272485997062176,,,,,,,,,,,,,,,62,001,21,m,Bildungswissenschaften,2023-01-24_15h08.46.593,00_bat_bachelor,2022.2.4,59.96444289487263,
,,,,,,,,,,,,0,0,0,0,210,0,210,0,,,,,,,210,,,1,591.9464805107564,,X,d,go,d,1,0.3012164680985734,,,,,,,,,,,,,,,62,001,21,m,Bildungswissenschaften,2023-01-24_15h08.46.593,00_bat_bachelor,2022.2.4,59.96444289487263,
,,,,,,,,,,,,0,0,0,0,211,0,211,0,,,,,,,211,,,1,593.3633651571581,,Y,l,go,l,1,0.3241948811337352,,,,,,,,,,,,,,,62,001,21,m,Bildungswissenschaften,2023-01-24_15h08.46.593,00_bat_bachelor,2022.2.4,59.96444289487263,
,,,,,,,,,,,,0,0,0,0,212,0,212,0,,,,,,,212,,,1,594.7964131896151,595.5968045591144,Y,None,nogo,None,1,,,,,,,,,,,,,,,,62,001,21,m,Bildungswissenschaften,2023-01-24_15h08.46.593,00_bat_bachelor,2022.2.4,59.96444289487263,
,,,,,,,,,,,,0,0,0,0,213,0,213,0,,,,,,,213,,,1,596.5965742561966,,X,d,go,d,1,0.29093138210009784,,,,,,,,,,,,,,,62,001,21,m,Bildungswissenschaften,2023-01-24_15h08.46.593,00_bat_bachelor,2022.2.4,59.96444289487263,
,,,,,,,,,,,,0,0,0,0,214,0,214,0,,,,,,,214,,,1,597.9964441228658,,Y,l,go,l,1,0.26667393930256367,,,,,,,,,,,,,,,62,001,21,m,Bildungswissenschaften,2023-01-24_15h08.46.593,00_bat_bachelor,2022.2.4,59.96444289487263,
,,,,,,,,,,,,0,0,0,0,215,0,215,0,,,,,,,215,,,1,599.3631523087388,,X,d,go,d,1,0.244848495349288,,,,,,,,,,,,,,,62,001,21,m,Bildungswissenschaften,2023-01-24_15h08.46.593,00_bat_bachelor,2022.2.4,59.96444289487263,
,,,,,,,,,,,,0,0,0,0,216,0,216,0,,,,,,,216,,,1,600.7134886237327,,Y,l,go,l,1,0.2707136949757114,,,,,,,,,,,,,,,62,001,21,m,Bildungswissenschaften,2023-01-24_15h08.46.593,00_bat_bachelor,2022.2.4,59.96444289487263,
,,,,,,,,,,,,0,0,0,0,217,0,217,0,,,,,,,217,,,1,602.0967975287931,,X,d,go,d,1,0.278777206200175,,,,,,,,,,,,,,,62,001,21,m,Bildungswissenschaften,2023-01-24_15h08.46.593,00_bat_bachelor,2022.2.4,59.96444289487263,
,,,,,,,,,,,,0,0,0,0,218,0,218,0,,,,,,,218,,,1,603.4799619490514,,Y,l,go,l,1,0.2240514145232737,,,,,,,,,,,,,,,62,001,21,m,Bildungswissenschaften,2023-01-24_15h08.46.593,00_bat_bachelor,2022.2.4,59.96444289487263,
,,,,,,,,,,,,0,0,0,0,219,0,219,0,,,,,,,219,,,1,604.8133683329215,,Y,None,nogo,d,0,0.21812317497096956,,,,,,,,,,,,,,,62,001,21,m,Bildungswissenschaften,2023-01-24_15h08.46.593,00_bat_bachelor,2022.2.4,59.96444289487263,
,,,,,,,,,,,,0,0,0,0,220,0,220,0,,,,,,,220,,,1,606.1464411411434,,X,d,go,d,1,0.324830032302998,,,,,,,,,,,,,,,62,001,21,m,Bildungswissenschaften,2023-01-24_15h08.46.593,00_bat_bachelor,2022.2.4,59.96444289487263,
,,,,,,,,,,,,0,0,0,0,221,0,221,0,,,,,,,221,,,1,607.5800598399946,,Y,l,go,l,1,0.2836586582707241,,,,,,,,,,,,,,,62,001,21,m,Bildungswissenschaften,2023-01-24_15h08.46.593,00_bat_bachelor,2022.2.4,59.96444289487263,
,,,,,,,,,,,,0,0,0,0,222,0,222,0,,,,,,,222,,,1,608.9797517673578,,X,d,go,d,1,0.3074904044624418,,,,,,,,,,,,,,,62,001,21,m,Bildungswissenschaften,2023-01-24_15h08.46.593,00_bat_bachelor,2022.2.4,59.96444289487263,
,,,,,,,,,,,,0,0,0,0,223,0,223,0,,,,,,,223,,,1,610.396475928952,611.1968614802463,X,None,nogo,None,1,,,,,,,,,,,,,,,,62,001,21,m,Bildungswissenschaften,2023-01-24_15h08.46.593,00_bat_bachelor,2022.2.4,59.96444289487263,
,,,,,,,,,,,,0,0,0,0,224,0,224,0,,,,,,,224,,,1,612.196556510753,,Y,l,go,l,1,0.29081259423401207,,,,,,,,,,,,,,,62,001,21,m,Bildungswissenschaften,2023-01-24_15h08.46.593,00_bat_bachelor,2022.2.4,59.96444289487263,
,,,,,,,,,,,,0,0,0,0,225,0,225,0,,,,,,,225,,,1,613.5964113471564,,X,d,go,d,1,0.3949075740529224,,,,,,,,,,,,,,,62,001,21,m,Bildungswissenschaften,2023-01-24_15h08.46.593,00_bat_bachelor,2022.2.4,59.96444289487263,
,,,,,,,,,,,,0,0,0,0,226,0,226,0,,,,,,,226,,,1,615.0965977712767,,Y,l,go,l,1,0.31908942898735404,,,,,,,,,,,,,,,62,001,21,m,Bildungswissenschaften,2023-01-24_15h08.46.593,00_bat_bachelor,2022.2.4,59.96444289487263,
,,,,,,,,,,,,0,0,0,0,227,0,227,0,,,,,,,227,,,1,616.5298067734111,617.3298034764593,Y,None,nogo,None,1,,,,,,,,,,,,,,,,62,001,21,m,Bildungswissenschaften,2023-01-24_15h08.46.593,00_bat_bachelor,2022.2.4,59.96444289487263,
,,,,,,,,,,,,0,0,0,0,228,0,228,0,,,,,,,228,,,1,618.3300812945236,,X,d,go,d,1,0.2701503012795001,,,,,,,,,,,,,,,62,001,21,m,Bildungswissenschaften,2023-01-24_15h08.46.593,00_bat_bachelor,2022.2.4,59.96444289487263,
,,,,,,,,,,,,0,0,0,0,229,0,229,0,,,,,,,229,,,1,619.7134037753567,,Y,l,go,l,1,0.29451150144450366,,,,,,,,,,,,,,,62,001,21,m,Bildungswissenschaften,2023-01-24_15h08.46.593,00_bat_bachelor,2022.2.4,59.96444289487263,
,,,,,,,,,,,,0,0,0,0,230,0,230,0,,,,,,,230,,,1,621.1134050359251,,X,d,go,d,1,0.44616379169747233,,,,,,,,,,,,,,,62,001,21,m,Bildungswissenschaften,2023-01-24_15h08.46.593,00_bat_bachelor,2022.2.4,59.96444289487263,
,,,,,,,,,,,,0,0,0,0,231,0,231,0,,,,,,,231,,,1,622.6633965268265,,Y,l,go,l,1,0.2719103003619239,,,,,,,,,,,,,,,62,001,21,m,Bildungswissenschaften,2023-01-24_15h08.46.593,00_bat_bachelor,2022.2.4,59.96444289487263,
,,,,,,,,,,,,0,0,0,0,232,0,232,0,,,,,,,232,,,1,624.0463946441887,,X,d,go,d,1,0.5372755051357672,,,,,,,,,,,,,,,62,001,21,m,Bildungswissenschaften,2023-01-24_15h08.46.593,00_bat_bachelor,2022.2.4,59.96444289487263,
,,,,,,,,,,,,0,0,0,0,233,0,233,0,,,,,,,233,,,1,625.6967351773055,626.4966775773792,X,None,nogo,None,1,,,,,,,,,,,,,,,,62,001,21,m,Bildungswissenschaften,2023-01-24_15h08.46.593,00_bat_bachelor,2022.2.4,59.96444289487263,
,,,,,,,,,,,,0,0,0,0,234,0,234,0,,,,,,,234,,,1,627.4964259411208,,X,None,nogo,l,0,0.23957431607414037,,,,,,,,,,,,,,,62,001,21,m,Bildungswissenschaften,2023-01-24_15h08.46.593,00_bat_bachelor,2022.2.4,59.96444289487263,
,,,,,,,,,,,,0,0,0,0,235,0,235,0,,,,,,,235,,,1,628.8465886804042,,Y,l,go,l,1,0.3289037273498252,,,,,,,,,,,,,,,62,001,21,m,Bildungswissenschaften,2023-01-24_15h08.46.593,00_bat_bachelor,2022.2.4,59.96444289487263,
,,,,,,,,,,,,0,0,0,0,236,0,236,0,,,,,,,236,,,1,630.2798233794747,,X,d,go,d,1,0.28823853482026607,,,,,,,,,,,,,,,62,001,21,m,Bildungswissenschaften,2023-01-24_15h08.46.593,00_bat_bachelor,2022.2.4,59.96444289487263,
,,,,,,,,,,,,0,0,0,0,237,0,237,0,,,,,,,237,,,1,631.6799177309731,,Y,l,go,l,1,0.391329878824763,,,,,,,,,,,,,,,62,001,21,m,Bildungswissenschaften,2023-01-24_15h08.46.593,00_bat_bachelor,2022.2.4,59.96444289487263,
,,,,,,,,,,,,0,0,0,0,238,0,238,0,,,,,,,238,,,1,633.1797676703427,,X,d,go,d,1,0.2511529771145433,,,,,,,,,,,,,,,62,001,21,m,Bildungswissenschaften,2023-01-24_15h08.46.593,00_bat_bachelor,2022.2.4,59.96444289487263,
,,,,,,,,,,,,0,0,0,0,239,0,239,0,,,,,,,239,,,1,634.5465771894669,,Y,l,go,l,1,0.2613949115620926,,,,,,,,,,,,,,,62,001,21,m,Bildungswissenschaften,2023-01-24_15h08.46.593,00_bat_bachelor,2022.2.4,59.96444289487263,
,,,,,,,,,,,,0,0,0,0,240,0,240,0,,,,,,,240,,,1,635.9132320421049,,X,d,go,d,1,0.22248729411512613,,,,,,,,,,,,,,,62,001,21,m,Bildungswissenschaften,2023-01-24_15h08.46.593,00_bat_bachelor,2022.2.4,59.96444289487263,
,,,,,,,,,,,,0,0,0,0,241,0,241,0,,,,,,,241,,,1,637.2466869106283,,Y,l,go,l,1,0.29790349991526455,,,,,,,,,,,,,,,62,001,21,m,Bildungswissenschaften,2023-01-24_15h08.46.593,00_bat_bachelor,2022.2.4,59.96444289487263,
,,,,,,,,,,,,0,0,0,0,242,0,242,0,,,,,,,242,,,1,638.6468050197,,X,d,go,d,1,0.5935833565890789,,,,,,,,,,,,,,,62,001,21,m,Bildungswissenschaften,2023-01-24_15h08.46.593,00_bat_bachelor,2022.2.4,59.96444289487263,
,,,,,,,,,,,,0,0,0,0,243,0,243,0,,,,,,,243,,,1,640.3464245592477,,X,None,nogo,l,0,0.25306182471103966,,,,,,,,,,,,,,,62,001,21,m,Bildungswissenschaften,2023-01-24_15h08.46.593,00_bat_bachelor,2022.2.4,59.96444289487263,
,,,,,,,,,,,,0,0,0,0,244,0,244,0,,,,,,,244,,,1,641.7133887449745,,Y,l,go,l,1,0.34245378139894456,,,,,,,,,,,,,,,62,001,21,m,Bildungswissenschaften,2023-01-24_15h08.46.593,00_bat_bachelor,2022.2.4,59.96444289487263,
,,,,,,,,,,,,0,0,0,0,245,0,245,0,,,,,,,245,,,1,643.1630360421259,,X,d,go,d,1,0.3160382790956646,,,,,,,,,,,,,,,62,001,21,m,Bildungswissenschaften,2023-01-24_15h08.46.593,00_bat_bachelor,2022.2.4,59.96444289487263,
,,,,,,,,,,,,0,0,0,0,246,0,246,0,,,,,,,246,,,1,644.5800229915185,,X,None,nogo,d,0,0.5472236215136945,,,,,,,,,,,,,,,62,001,21,m,Bildungswissenschaften,2023-01-24_15h08.46.593,00_bat_bachelor,2022.2.4,59.96444289487263,
,,,,,,,,,,,,0,0,0,0,247,0,247,0,,,,,,,247,,,1,646.2297821915708,,Y,l,go,l,1,0.36991413158830255,,,,,,,,,,,,,,,62,001,21,m,Bildungswissenschaften,2023-01-24_15h08.46.593,00_bat_bachelor,2022.2.4,59.96444289487263,
,,,,,,,,,,,,0,0,0,0,248,0,248,0,,,,,,,248,,,1,647.713378563174,,X,d,go,d,1,0.2788722364930436,,,,,,,,,,,,,,,62,001,21,m,Bildungswissenschaften,2023-01-24_15h08.46.593,00_bat_bachelor,2022.2.4,59.96444289487263,
,,,,,,,,,,,,0,0,0,0,249,0,249,0,,,,,,,249,,,1,649.096723346971,649.9000252605183,X,None,nogo,None,1,,,,,,,,,,,,,,,,62,001,21,m,Bildungswissenschaften,2023-01-24_15h08.46.593,00_bat_bachelor,2022.2.4,59.96444289487263,
,,,,,,,,,,,,1,0,1,0,0,0,0,0,,,,,,,0,,,0.2,675.1966912985081,675.9967040015617,X,d,go,None,0,,,,,,,,,649.9000252605183,space,25.070757913170382,,,,,62,001,21,m,Bildungswissenschaften,2023-01-24_15h08.46.593,00_bat_bachelor,2022.2.4,59.96444289487263,
,,,,,,,,,,,,1,0,1,0,1,0,1,0,,,,,,,1,,,0.2,676.1966554197716,,Y,l,go,l,1,0.40355823654681444,,,,,,,,,,,,,,,62,001,21,m,Bildungswissenschaften,2023-01-24_15h08.46.593,00_bat_bachelor,2022.2.4,59.96444289487263,
,,,,,,,,,,,,1,0,1,0,2,0,2,0,,,,,,,2,,,0.2,676.9134109510342,,X,d,go,d,1,0.3586811674758792,,,,,,,,,,,,,,,62,001,21,m,Bildungswissenschaften,2023-01-24_15h08.46.593,00_bat_bachelor,2022.2.4,59.96444289487263,
,,,,,,,,,,,,1,0,1,0,3,0,3,0,,,,,,,3,,,0.2,677.5799604461063,,Y,l,go,l,1,0.2518133403500542,,,,,,,,,,,,,,,62,001,21,m,Bildungswissenschaften,2023-01-24_15h08.46.593,00_bat_bachelor,2022.2.4,59.96444289487263,
,,,,,,,,,,,,1,0,1,0,4,0,4,0,,,,,,,4,,,0.2,678.1466539894463,678.9466380864615,Y,None,nogo,None,1,,,,,,,,,,,,,,,,62,001,21,m,Bildungswissenschaften,2023-01-24_15h08.46.593,00_bat_bachelor,2022.2.4,59.96444289487263,
,,,,,,,,,,,,1,0,1,0,5,0,5,0,,,,,,,5,,,0.2,679.146662231884,,X,d,go,d,1,0.3333017857512459,,,,,,,,,,,,,,,62,001,21,m,Bildungswissenschaften,2023-01-24_15h08.46.593,00_bat_bachelor,2022.2.4,59.96444289487263,
,,,,,,,,,,,,1,0,1,0,6,0,6,0,,,,,,,6,,,0.2,679.780009803595,,Y,l,go,l,1,0.4039519333746284,,,,,,,,,,,,,,,62,001,21,m,Bildungswissenschaften,2023-01-24_15h08.46.593,00_bat_bachelor,2022.2.4,59.96444289487263,
,,,,,,,,,,,,1,0,1,0,7,0,7,0,,,,,,,7,,,0.2,680.4965616986156,681.296635492472,Y,None,nogo,None,1,,,,,,,,,,,,,,,,62,001,21,m,Bildungswissenschaften,2023-01-24_15h08.46.593,00_bat_bachelor,2022.2.4,59.96444289487263,
,,,,,,,,,,,,1,0,1,0,8,0,8,0,,,,,,,8,,,0.2,681.4964041229105,,X,d,go,d,1,0.25504000554792583,,,,,,,,,,,,,,,62,001,21,m,Bildungswissenschaften,2023-01-24_15h08.46.593,00_bat_bachelor,2022.2.4,59.96444289487263,
,,,,,,,,,,,,1,0,1,0,9,0,9,0,,,,,,,9,,,0.2,682.0633808177663,,Y,l,go,l,1,0.3760692802025005,,,,,,,,,,,,,,,62,001,21,m,Bildungswissenschaften,2023-01-24_15h08.46.593,00_bat_bachelor,2022.2.4,59.96444289487263,
,,,,,,,,,,,,1,0,1,0,10,0,10,0,,,,,,,10,,,0.2,682.7467540621292,,X,d,go,d,1,0.3008775591151789,,,,,,,,,,,,,,,62,001,21,m,Bildungswissenschaften,2023-01-24_15h08.46.593,00_bat_bachelor,2022.2.4,59.96444289487263,
,,,,,,,,,,,,1,0,1,0,11,0,11,0,,,,,,,11,,,0.2,683.3635081873508,684.1630525270011,X,None,nogo,None,1,,,,,,,,,,,,,,,,62,001,21,m,Bildungswissenschaften,2023-01-24_15h08.46.593,00_bat_bachelor,2022.2.4,59.96444289487263,
,,,,,,,,,,,,1,0,1,0,12,0,12,0,,,,,,,12,,,0.2,684.3634078238392,685.1634990721941,X,None,nogo,None,1,,,,,,,,,,,,,,,,62,001,21,m,Bildungswissenschaften,2023-01-24_15h08.46.593,00_bat_bachelor,2022.2.4,59.96444289487263,
,,,,,,,,,,,,1,0,1,0,13,0,13,0,,,,,,,13,,,0.2,685.3631668542512,,Y,l,go,l,1,0.40492793289013207,,,,,,,,,,,,,,,62,001,21,m,Bildungswissenschaften,2023-01-24_15h08.46.593,00_bat_bachelor,2022.2.4,59.96444289487263,
,,,,,,,,,,,,1,0,1,0,14,0,14,0,,,,,,,14,,,0.2,686.0799611733528,,X,d,go,d,1,0.2962380461394787,,,,,,,,,,,,,,,62,001,21,m,Bildungswissenschaften,2023-01-24_15h08.46.593,00_bat_bachelor,2022.2.4,59.96444289487263,
,,,,,,,,,,,,1,0,1,0,15,0,15,0,,,,,,,15,,,0.2,686.679734458332,,Y,l,go,l,1,0.31976094387937337,,,,,,,,,,,,,,,62,001,21,m,Bildungswissenschaften,2023-01-24_15h08.46.593,00_bat_bachelor,2022.2.4,59.96444289487263,
,,,,,,,,,,,,1,0,1,0,16,0,16,0,,,,,,,16,,,0.2,687.3132100299699,,X,d,go,d,1,0.32707730401307344,,,,,,,,,,,,,,,62,001,21,m,Bildungswissenschaften,2023-01-24_15h08.46.593,00_bat_bachelor,2022.2.4,59.96444289487263,
,,,,,,,,,,,,1,0,1,0,17,0,17,0,,,,,,,17,,,0.2,687.9466928743059,688.7466837591492,X,None,nogo,None,1,,,,,,,,,,,,,,,,62,001,21,m,Bildungswissenschaften,2023-01-24_15h08.46.593,00_bat_bachelor,2022.2.4,59.96444289487263,
,,,,,,,,,,,,1,0,1,0,18,0,18,0,,,,,,,18,,,0.2,688.9468029348645,,Y,l,go,l,1,0.37341570563148707,,,,,,,,,,,,,,,62,001,21,m,Bildungswissenschaften,2023-01-24_15h08.46.593,00_bat_bachelor,2022.2.4,59.96444289487263,
,,,,,,,,,,,,1,0,1,0,19,0,19,0,,,,,,,19,,,0.2,689.6301155732945,,X,d,go,d,1,0.3774157038424164,,,,,,,,,,,,,,,62,001,21,m,Bildungswissenschaften,2023-01-24_15h08.46.593,00_bat_bachelor,2022.2.4,59.96444289487263,
,,,,,,,,,,,,1,0,1,0,20,0,20,0,,,,,,,20,,,0.2,690.3133869995363,,Y,l,go,l,1,0.35025353520177305,,,,,,,,,,,,,,,62,001,21,m,Bildungswissenschaften,2023-01-24_15h08.46.593,00_bat_bachelor,2022.2.4,59.96444289487263,
,,,,,,,,,,,,1,0,1,0,21,0,21,0,,,,,,,21,,,0.2,690.9633551692823,691.763221448171,Y,None,nogo,None,1,,,,,,,,,,,,,,,,62,001,21,m,Bildungswissenschaften,2023-01-24_15h08.46.593,00_bat_bachelor,2022.2.4,59.96444289487263,
,,,,,,,,,,,,1,0,1,0,22,0,22,0,,,,,,,22,,,0.2,691.9633435328724,,X,d,go,d,1,0.3013013164745644,,,,,,,,,,,,,,,62,001,21,m,Bildungswissenschaften,2023-01-24_15h08.46.593,00_bat_bachelor,2022.2.4,59.96444289487263,
,,,,,,,,,,,,1,0,1,0,23,0,23,0,,,,,,,23,,,0.2,692.5796991128009,,Y,l,go,l,1,0.3553885630099103,,,,,,,,,,,,,,,62,001,21,m,Bildungswissenschaften,2023-01-24_15h08.46.593,00_bat_bachelor,2022.2.4,59.96444289487263,
,,,,,,,,,,,,1,0,1,0,24,0,24,0,,,,,,,24,,,0.2,693.2466893349774,,X,d,go,d,1,0.34497305285185575,,,,,,,,,,,,,,,62,001,21,m,Bildungswissenschaften,2023-01-24_15h08.46.593,00_bat_bachelor,2022.2.4,59.96444289487263,
,,,,,,,,,,,,1,0,1,0,25,0,25,0,,,,,,,25,,,0.2,693.8967389591271,,Y,l,go,l,1,0.30332555796485394,,,,,,,,,,,,,,,62,001,21,m,Bildungswissenschaften,2023-01-24_15h08.46.593,00_bat_bachelor,2022.2.4,59.96444289487263,
,,,,,,,,,,,,1,0,1,0,26,0,26,0,,,,,,,26,,,0.2,694.5134189025266,,X,d,go,d,1,0.4069036893779412,,,,,,,,,,,,,,,62,001,21,m,Bildungswissenschaften,2023-01-24_15h08.46.593,00_bat_bachelor,2022.2.4,59.96444289487263,
,,,,,,,,,,,,1,0,1,0,27,0,27,0,,,,,,,27,,,0.2,695.230067282333,,Y,l,go,l,1,0.2655903034610674,,,,,,,,,,,,,,,62,001,21,m,Bildungswissenschaften,2023-01-24_15h08.46.593,00_bat_bachelor,2022.2.4,59.96444289487263,
,,,,,,,,,,,,1,0,1,0,28,0,28,0,,,,,,,28,,,0.2,695.7965954925166,696.5963963168906,Y,None,nogo,None,1,,,,,,,,,,,,,,,,62,001,21,m,Bildungswissenschaften,2023-01-24_15h08.46.593,00_bat_bachelor,2022.2.4,59.96444289487263,
,,,,,,,,,,,,1,0,1,0,29,0,29,0,,,,,,,29,,,0.2,696.7967351288535,,X,d,go,d,1,0.25080728030297905,,,,,,,,,,,,,,,62,001,21,m,Bildungswissenschaften,2023-01-24_15h08.46.593,00_bat_bachelor,2022.2.4,59.96444289487263,
,,,,,,,,,,,,1,0,1,0,30,0,30,0,,,,,,,30,,,0.2,697.3633491571527,,Y,l,go,l,1,0.5482204694999382,,,,,,,,,,,,,,,62,001,21,m,Bildungswissenschaften,2023-01-24_15h08.46.593,00_bat_bachelor,2022.2.4,59.96444289487263,
,,,,,,,,,,,,1,0,1,0,31,0,31,0,,,,,,,31,,,0.2,698.2133274116786,,X,d,go,d,1,0.35477135120891035,,,,,,,,,,,,,,,62,001,21,m,Bildungswissenschaften,2023-01-24_15h08.46.593,00_bat_bachelor,2022.2.4,59.96444289487263,
,,,,,,,,,,,,1,0,1,0,32,0,32,0,,,,,,,32,,,0.2,698.8800228460459,,Y,l,go,l,1,0.16714719962328672,,,,,,,,,,,,,,,62,001,21,m,Bildungswissenschaften,2023-01-24_15h08.46.593,00_bat_bachelor,2022.2.4,59.96444289487263,
,,,,,,,,,,,,1,0,1,0,33,0,33,0,,,,,,,33,,,0.2,699.363207581453,700.1634714358952,Y,None,nogo,None,1,,,,,,,,,,,,,,,,62,001,21,m,Bildungswissenschaften,2023-01-24_15h08.46.593,00_bat_bachelor,2022.2.4,59.96444289487263,
,,,,,,,,,,,,1,0,1,0,34,0,34,0,,,,,,,34,,,0.2,700.3630461270222,,X,d,go,d,1,0.18871131038758904,,,,,,,,,,,,,,,62,001,21,m,Bildungswissenschaften,2023-01-24_15h08.46.593,00_bat_bachelor,2022.2.4,59.96444289487263,
,,,,,,,,,,,,1,0,1,0,35,0,35,0,,,,,,,35,,,0.2,700.8632975207875,,Y,l,go,l,1,0.343994144233875,,,,,,,,,,,,,,,62,001,21,m,Bildungswissenschaften,2023-01-24_15h08.46.593,00_bat_bachelor,2022.2.4,59.96444289487263,
,,,,,,,,,,,,1,0,1,0,36,0,36,0,,,,,,,36,,,0.2,701.5133374480065,702.313065060298,Y,None,nogo,None,1,,,,,,,,,,,,,,,,62,001,21,m,Bildungswissenschaften,2023-01-24_15h08.46.593,00_bat_bachelor,2022.2.4,59.96444289487263,
,,,,,,,,,,,,1,0,1,0,37,0,37,0,,,,,,,37,,,0.2,702.513140599709,,X,d,go,d,1,0.2307786839082837,,,,,,,,,,,,,,,62,001,21,m,Bildungswissenschaften,2023-01-24_15h08.46.593,00_bat_bachelor,2022.2.4,59.96444289487263,
,,,,,,,,,,,,1,0,1,0,38,0,38,0,,,,,,,38,,,0.2,703.0463301592972,,Y,l,go,l,1,0.43342246452812105,,,,,,,,,,,,,,,62,001,21,m,Bildungswissenschaften,2023-01-24_15h08.46.593,00_bat_bachelor,2022.2.4,59.96444289487263,
,,,,,,,,,,,,1,0,1,0,39,0,39,0,,,,,,,39,,,0.2,703.780017076293,704.5798552340129,Y,None,nogo,None,1,,,,,,,,,,,,,,,,62,001,21,m,Bildungswissenschaften,2023-01-24_15h08.46.593,00_bat_bachelor,2022.2.4,59.96444289487263,
,,,,,,,,,,,,1,0,1,0,40,0,40,0,,,,,,,40,,,0.2,704.7798226522282,,X,d,go,d,1,0.380434853839688,,,,,,,,,,,,,,,62,001,21,m,Bildungswissenschaften,2023-01-24_15h08.46.593,00_bat_bachelor,2022.2.4,59.96444289487263,
,,,,,,,,,,,,1,0,1,0,41,0,41,0,,,,,,,41,,,0.2,705.4633917752653,,Y,l,go,l,1,0.4165250181686133,,,,,,,,,,,,,,,62,001,21,m,Bildungswissenschaften,2023-01-24_15h08.46.593,00_bat_bachelor,2022.2.4,59.96444289487263,
,,,,,,,,,,,,1,0,1,0,42,0,42,0,,,,,,,42,,,0.2,706.1797070644097,,X,d,go,d,1,0.2924281086307019,,,,,,,,,,,,,,,62,001,21,m,Bildungswissenschaften,2023-01-24_15h08.46.593,00_bat_bachelor,2022.2.4,59.96444289487263,
,,,,,,,,,,,,1,0,1,0,43,0,43,0,,,,,,,43,,,0.2,706.7799041067483,,Y,l,go,l,1,0.34707632451318204,,,,,,,,,,,,,,,62,001,21,m,Bildungswissenschaften,2023-01-24_15h08.46.593,00_bat_bachelor,2022.2.4,59.96444289487263,
,,,,,,,,,,,,1,0,1,0,44,0,44,0,,,,,,,44,,,0.2,707.4297433068277,708.2300144339679,Y,None,nogo,None,1,,,,,,,,,,,,,,,,62,001,21,m,Bildungswissenschaften,2023-01-24_15h08.46.593,00_bat_bachelor,2022.2.4,59.96444289487263,
,,,,,,,,,,,,1,0,1,0,45,0,45,0,,,,,,,45,,,0.2,708.4299658520613,,X,d,go,d,1,0.378463945700787,,,,,,,,,,,,,,,62,001,21,m,Bildungswissenschaften,2023-01-24_15h08.46.593,00_bat_bachelor,2022.2.4,59.96444289487263,
,,,,,,,,,,,,1,0,1,0,46,0,46,0,,,,,,,46,,,0.2,709.1130472179502,,Y,l,go,l,1,0.27116945234593004,,,,,,,,,,,,,,,62,001,21,m,Bildungswissenschaften,2023-01-24_15h08.46.593,00_bat_bachelor,2022.2.4,59.96444289487263,
,,,,,,,,,,,,1,0,1,0,47,0,47,0,,,,,,,47,,,0.2,709.6966561470181,710.4963570926338,Y,None,nogo,None,1,,,,,,,,,,,,,,,,62,001,21,m,Bildungswissenschaften,2023-01-24_15h08.46.593,00_bat_bachelor,2022.2.4,59.96444289487263,
,,,,,,,,,,,,1,0,1,0,48,0,48,0,,,,,,,48,,,0.2,710.696361844195,,X,d,go,d,1,0.031331023084931076,,,,,,,,,,,,,,,62,001,21,m,Bildungswissenschaften,2023-01-24_15h08.46.593,00_bat_bachelor,2022.2.4,59.96444289487263,
,,,,,,,,,,,,1,0,1,0,49,0,49,0,,,,,,,49,,,0.2,711.029675622005,,Y,l,go,l,1,0.5136221832362935,,,,,,,,,,,,,,,62,001,21,m,Bildungswissenschaften,2023-01-24_15h08.46.593,00_bat_bachelor,2022.2.4,59.96444289487263,
,,,,,,,,,,,,1,0,1,0,50,0,50,0,,,,,,,50,,,0.2,711.846400074428,,X,d,go,d,1,0.4498316687531769,,,,,,,,,,,,,,,62,001,21,m,Bildungswissenschaften,2023-01-24_15h08.46.593,00_bat_bachelor,2022.2.4,59.96444289487263,
,,,,,,,,,,,,1,0,1,0,51,0,51,0,,,,,,,51,,,0.2,712.5966212864732,713.3967450197088,X,None,nogo,None,1,,,,,,,,,,,,,,,,62,001,21,m,Bildungswissenschaften,2023-01-24_15h08.46.593,00_bat_bachelor,2022.2.4,59.96444289487263,
,,,,,,,,,,,,1,0,1,0,52,0,52,0,,,,,,,52,,,0.2,713.5966755894478,,X,None,nogo,d,0,0.39440818037837744,,,,,,,,,,,,,,,62,001,21,m,Bildungswissenschaften,2023-01-24_15h08.46.593,00_bat_bachelor,2022.2.4,59.96444289487263,
,,,,,,,,,,,,1,0,1,0,53,0,53,0,,,,,,,53,,,0.2,714.2963567047846,,Y,l,go,l,1,0.4320130106061697,,,,,,,,,,,,,,,62,001,21,m,Bildungswissenschaften,2023-01-24_15h08.46.593,00_bat_bachelor,2022.2.4,59.96444289487263,
,,,,,,,,,,,,1,0,1,0,54,0,54,0,,,,,,,54,,,0.2,715.0297061674064,,X,d,go,d,1,0.4498893655836582,,,,,,,,,,,,,,,62,001,21,m,Bildungswissenschaften,2023-01-24_15h08.46.593,00_bat_bachelor,2022.2.4,59.96444289487263,
,,,,,,,,,,,,1,0,1,0,55,0,55,0,,,,,,,55,,,0.2,715.7801135611953,,Y,l,go,l,1,0.3395141464425251,,,,,,,,,,,,,,,62,001,21,m,Bildungswissenschaften,2023-01-24_15h08.46.593,00_bat_bachelor,2022.2.4,59.96444289487263,
,,,,,,,,,,,,1,0,1,0,56,0,56,0,,,,,,,56,,,0.2,716.4298722763779,717.2300086157629,Y,None,nogo,None,1,,,,,,,,,,,,,,,,62,001,21,m,Bildungswissenschaften,2023-01-24_15h08.46.593,00_bat_bachelor,2022.2.4,59.96444289487263,
,,,,,,,,,,,,1,0,1,0,57,0,57,0,,,,,,,57,,,0.2,717.4299808824435,,X,d,go,d,1,0.1780756792286411,,,,,,,,,,,,,,,62,001,21,m,Bildungswissenschaften,2023-01-24_15h08.46.593,00_bat_bachelor,2022.2.4,59.96444289487263,
,,,,,,,,,,,,1,0,1,0,58,0,58,0,,,,,,,58,,,0.2,717.9133062238107,,Y,l,go,l,1,0.3823412772035226,,,,,,,,,,,,,,,62,001,21,m,Bildungswissenschaften,2023-01-24_15h08.46.593,00_bat_bachelor,2022.2.4,59.96444289487263,
,,,,,,,,,,,,1,0,1,0,59,0,59,0,,,,,,,59,,,0.2,718.5966411652043,719.3964589593234,Y,None,nogo,None,1,,,,,,,,,,,,,,,,62,001,21,m,Bildungswissenschaften,2023-01-24_15h08.46.593,00_bat_bachelor,2022.2.4,59.96444289487263,
,,,,,,,,,,,,1,0,1,0,60,0,60,0,,,,,,,60,,,0.2,719.5967856500065,,X,d,go,d,1,0.21941675012931228,,,,,,,,,,,,,,,62,001,21,m,Bildungswissenschaften,2023-01-24_15h08.46.593,00_bat_bachelor,2022.2.4,59.96444289487263,
,,,,,,,,,,,,1,0,1,0,61,0,61,0,,,,,,,61,,,0.2,720.1300707247574,,Y,l,go,l,1,0.3090671307872981,,,,,,,,,,,,,,,62,001,21,m,Bildungswissenschaften,2023-01-24_15h08.46.593,00_bat_bachelor,2022.2.4,59.96444289487263,
,,,,,,,,,,,,1,0,1,0,62,0,62,0,,,,,,,62,,,0.2,720.7466313955374,,X,d,go,d,1,0.3169987633591518,,,,,,,,,,,,,,,62,001,21,m,Bildungswissenschaften,2023-01-24_15h08.46.593,00_bat_bachelor,2022.2.4,59.96444289487263,
,,,,,,,,,,,,1,0,1,0,63,0,63,0,,,,,,,63,,,0.2,721.3634272177005,722.1633395571262,X,None,nogo,None,1,,,,,,,,,,,,,,,,62,001,21,m,Bildungswissenschaften,2023-01-24_15h08.46.593,00_bat_bachelor,2022.2.4,59.96444289487263,
,,,,,,,,,,,,1,0,1,0,64,0,64,0,,,,,,,64,,,0.2,722.3633501268923,,Y,l,go,l,1,0.332516816444695,,,,,,,,,,,,,,,62,001,21,m,Bildungswissenschaften,2023-01-24_15h08.46.593,00_bat_bachelor,2022.2.4,59.96444289487263,
,,,,,,,,,,,,1,0,1,0,65,0,65,0,,,,,,,65,,,0.2,722.9963495775592,723.796509674401,X,d,go,None,0,,,,,,,,,,,,,,,,62,001,21,m,Bildungswissenschaften,2023-01-24_15h08.46.593,00_bat_bachelor,2022.2.4,59.96444289487263,
,,,,,,,,,,,,1,0,1,0,66,0,66,0,,,,,,,66,,,0.2,723.996746183373,,Y,l,go,l,1,0.3469754761317745,,,,,,,,,,,,,,,62,001,21,m,Bildungswissenschaften,2023-01-24_15h08.46.593,00_bat_bachelor,2022.2.4,59.96444289487263,
,,,,,,,,,,,,1,0,1,0,67,0,67,0,,,,,,,67,,,0.2,724.6466144743608,,Y,None,nogo,l,0,0.49717661540489644,,,,,,,,,,,,,,,62,001,21,m,Bildungswissenschaften,2023-01-24_15h08.46.593,00_bat_bachelor,2022.2.4,59.96444289487263,
,,,,,,,,,,,,1,0,1,0,68,0,68,0,,,,,,,68,,,0.2,725.446625722805,,X,d,go,d,1,0.6246747354744002,,,,,,,,,,,,,,,62,001,21,m,Bildungswissenschaften,2023-01-24_15h08.46.593,00_bat_bachelor,2022.2.4,59.96444289487263,
,,,,,,,,,,,,1,0,1,0,69,0,69,0,,,,,,,69,,,0.2,726.3800735126715,,Y,l,go,l,1,0.4434631869662553,,,,,,,,,,,,,,,62,001,21,m,Bildungswissenschaften,2023-01-24_15h08.46.593,00_bat_bachelor,2022.2.4,59.96444289487263,
,,,,,,,,,,,,1,0,1,0,70,0,70,0,,,,,,,70,,,0.2,727.1300576338544,,X,d,go,d,1,0.5574568285373971,,,,,,,,,,,,,,,62,001,21,m,Bildungswissenschaften,2023-01-24_15h08.46.593,00_bat_bachelor,2022.2.4,59.96444289487263,
,,,,,,,,,,,,1,0,1,0,71,0,71,0,,,,,,,71,,,0.2,727.9966167288367,,Y,l,go,l,1,0.3638181345304474,,,,,,,,,,,,,,,62,001,21,m,Bildungswissenschaften,2023-01-24_15h08.46.593,00_bat_bachelor,2022.2.4,59.96444289487263,
,,,,,,,,,,,,1,0,1,0,72,0,72,0,,,,,,,72,,,0.2,728.6634231935022,729.4635367449373,Y,None,nogo,None,1,,,,,,,,,,,,,,,,62,001,21,m,Bildungswissenschaften,2023-01-24_15h08.46.593,00_bat_bachelor,2022.2.4,59.96444289487263,
,,,,,,,,,,,,1,0,1,0,73,0,73,0,,,,,,,73,,,0.2,729.6633330116747,,X,d,go,d,1,0.24808873608708382,,,,,,,,,,,,,,,62,001,21,m,Bildungswissenschaften,2023-01-24_15h08.46.593,00_bat_bachelor,2022.2.4,59.96444289487263,
,,,,,,,,,,,,1,0,1,0,74,0,74,0,,,,,,,74,,,0.2,730.2133375934791,,Y,l,go,l,1,0.45089106215164065,,,,,,,,,,,,,,,62,001,21,m,Bildungswissenschaften,2023-01-24_15h08.46.593,00_bat_bachelor,2022.2.4,59.96444289487263,
,,,,,,,,,,,,1,0,1,0,75,0,75,0,,,,,,,75,,,0.2,730.979996615788,,X,d,go,d,1,0.4360682814149186,,,,,,,,,,,,,,,62,001,21,m,Bildungswissenschaften,2023-01-24_15h08.46.593,00_bat_bachelor,2022.2.4,59.96444289487263,
,,,,,,,,,,,,1,0,1,0,76,0,76,0,,,,,,,76,,,0.2,731.7300209794194,,Y,l,go,l,1,0.24570376775227487,,,,,,,,,,,,,,,62,001,21,m,Bildungswissenschaften,2023-01-24_15h08.46.593,00_bat_bachelor,2022.2.4,59.96444289487263,
,,,,,,,,,,,,1,0,1,0,77,0,77,0,,,,,,,77,,,0.2,732.2799891976174,733.079884567298,Y,None,nogo,None,1,,,,,,,,,,,,,,,,62,001,21,m,Bildungswissenschaften,2023-01-24_15h08.46.593,00_bat_bachelor,2022.2.4,59.96444289487263,
,,,,,,,,,,,,1,0,1,0,78,0,78,0,,,,,,,78,,,0.2,733.2799955005758,,X,d,go,d,1,0.2484901905991137,,,,,,,,,,,,,,,62,001,21,m,Bildungswissenschaften,2023-01-24_15h08.46.593,00_bat_bachelor,2022.2.4,59.96444289487263,
,,,,,,,,,,,,1,0,1,0,79,0,79,0,,,,,,,79,,,0.2,733.83007087023,,Y,l,go,l,1,0.49840425117872655,,,,,,,,,,,,,,,62,001,21,m,Bildungswissenschaften,2023-01-24_15h08.46.593,00_bat_bachelor,2022.2.4,59.96444289487263,
,,,,,,,,,,,,1,0,1,0,80,0,80,0,,,,,,,80,,,0.2,734.6296981188934,735.4296230643522,Y,None,nogo,None,1,,,,,,,,,,,,,,,,62,001,21,m,Bildungswissenschaften,2023-01-24_15h08.46.593,00_bat_bachelor,2022.2.4,59.96444289487263,
,,,,,,,,,,,,1,0,1,0,81,0,81,0,,,,,,,81,,,0.2,735.6296889068326,736.4299789429642,Y,None,nogo,None,1,,,,,,,,,,,,,,,,62,001,21,m,Bildungswissenschaften,2023-01-24_15h08.46.593,00_bat_bachelor,2022.2.4,59.96444289487263,
,,,,,,,,,,,,1,0,1,0,82,0,82,0,,,,,,,82,,,0.2,736.6298518157564,,X,d,go,d,1,0.3055107688996941,,,,,,,,,,,,,,,62,001,21,m,Bildungswissenschaften,2023-01-24_15h08.46.593,00_bat_bachelor,2022.2.4,59.96444289487263,
,,,,,,,,,,,,1,0,1,0,83,0,83,0,,,,,,,83,,,0.2,737.2466156380251,,Y,l,go,l,1,0.3447315983939916,,,,,,,,,,,,,,,62,001,21,m,Bildungswissenschaften,2023-01-24_15h08.46.593,00_bat_bachelor,2022.2.4,59.96444289487263,
,,,,,,,,,,,,1,0,1,0,84,0,84,0,,,,,,,84,,,0.2,737.8967050197534,,X,d,go,d,1,0.3352033606497571,,,,,,,,,,,,,,,62,001,21,m,Bildungswissenschaften,2023-01-24_15h08.46.593,00_bat_bachelor,2022.2.4,59.96444289487263,
,,,,,,,,,,,,1,0,1,0,85,0,85,0,,,,,,,85,,,0.2,738.5465844622813,,X,None,nogo,l,0,0.38990733411628753,,,,,,,,,,,,,,,62,001,21,m,Bildungswissenschaften,2023-01-24_15h08.46.593,00_bat_bachelor,2022.2.4,59.96444289487263,
,,,,,,,,,,,,1,0,1,0,86,0,86,0,,,,,,,86,,,0.2,739.2466583045898,,Y,l,go,d,0,0.2496237657032907,,,,,,,,,,,,,,,62,001,21,m,Bildungswissenschaften,2023-01-24_15h08.46.593,00_bat_bachelor,2022.2.4,59.96444289487263,
,,,,,,,,,,,,1,0,1,0,87,0,87,0,,,,,,,87,,,0.2,739.7966527045937,740.5966586198192,X,d,go,None,0,,,,,,,,,,,,,,,,62,001,21,m,Bildungswissenschaften,2023-01-24_15h08.46.593,00_bat_bachelor,2022.2.4,59.96444289487263,
,,,,,,,,,,,,1,0,1,0,88,0,88,0,,,,,,,88,,,0.2,740.7966599774081,,Y,l,go,l,1,0.36333134688902646,,,,,,,,,,,,,,,62,001,21,m,Bildungswissenschaften,2023-01-24_15h08.46.593,00_bat_bachelor,2022.2.4,59.96444289487263,
,,,,,,,,,,,,1,0,1,0,89,0,89,0,,,,,,,89,,,0.2,741.4633398965234,742.2633050844306,Y,None,nogo,None,1,,,,,,,,,,,,,,,,62,001,21,m,Bildungswissenschaften,2023-01-24_15h08.46.593,00_bat_bachelor,2022.2.4,59.96444289487263,
,,,,,,,,,,,,1,0,1,0,90,0,90,0,,,,,,,90,,,0.2,742.4633185631828,,X,d,go,d,1,0.2480969785246998,,,,,,,,,,,,,,,62,001,21,m,Bildungswissenschaften,2023-01-24_15h08.46.593,00_bat_bachelor,2022.2.4,59.96444289487263,
,,,,,,,,,,,,1,0,1,0,91,0,91,0,,,,,,,91,,,0.2,743.0131854481297,,Y,l,go,l,1,0.3874995777150616,,,,,,,,,,,,,,,62,001,21,m,Bildungswissenschaften,2023-01-24_15h08.46.593,00_bat_bachelor,2022.2.4,59.96444289487263,
,,,,,,,,,,,,1,0,1,0,92,0,92,0,,,,,,,92,,,0.2,743.7133266844321,744.513294296572,Y,None,nogo,None,1,,,,,,,,,,,,,,,,62,001,21,m,Bildungswissenschaften,2023-01-24_15h08.46.593,00_bat_bachelor,2022.2.4,59.96444289487263,
,,,,,,,,,,,,1,0,1,0,93,0,93,0,,,,,,,93,,,0.2,744.713131775381,,X,d,go,d,1,0.2864130812231451,,,,,,,,,,,,,,,62,001,21,m,Bildungswissenschaften,2023-01-24_15h08.46.593,00_bat_bachelor,2022.2.4,59.96444289487263,
,,,,,,,,,,,,1,0,1,0,94,0,94,0,,,,,,,94,,,0.2,745.3134728176519,,Y,l,go,l,1,0.40577350824605674,,,,,,,,,,,,,,,62,001,21,m,Bildungswissenschaften,2023-01-24_15h08.46.593,00_bat_bachelor,2022.2.4,59.96444289487263,
,,,,,,,,,,,,1,0,1,0,95,0,95,0,,,,,,,95,,,0.2,746.0299883490661,746.8299496581312,Y,None,nogo,None,1,,,,,,,,,,,,,,,,62,001,21,m,Bildungswissenschaften,2023-01-24_15h08.46.593,00_bat_bachelor,2022.2.4,59.96444289487263,
,,,,,,,,,,,,1,0,1,0,96,0,96,0,,,,,,,96,,,0.2,747.0297333189519,,X,d,go,d,1,0.4012518135132268,,,,,,,,,,,,,,,62,001,21,m,Bildungswissenschaften,2023-01-24_15h08.46.593,00_bat_bachelor,2022.2.4,59.96444289487263,
,,,,,,,,,,,,1,0,1,0,97,0,97,0,,,,,,,97,,,0.2,747.7466561228503,,Y,l,go,l,1,0.5014912800397724,,,,,,,,,,,,,,,62,001,21,m,Bildungswissenschaften,2023-01-24_15h08.46.593,00_bat_bachelor,2022.2.4,59.96444289487263,
,,,,,,,,,,,,1,0,1,0,98,0,98,0,,,,,,,98,,,0.2,748.5630062724231,,X,d,go,d,1,0.5163208486046642,,,,,,,,,,,,,,,62,001,21,m,Bildungswissenschaften,2023-01-24_15h08.46.593,00_bat_bachelor,2022.2.4,59.96444289487263,
,,,,,,,,,,,,1,0,1,0,99,0,99,0,,,,,,,99,,,0.2,749.3799881794257,750.1799368824577,X,None,nogo,None,1,,,,,,,,,,,,,,,,62,001,21,m,Bildungswissenschaften,2023-01-24_15h08.46.593,00_bat_bachelor,2022.2.4,59.96444289487263,
,,,,,,,,,,,,1,0,1,0,100,0,100,0,,,,,,,100,,,0.2,750.3799726642901,,Y,l,go,l,1,0.33170275622978806,,,,,,,,,,,,,,,62,001,21,m,Bildungswissenschaften,2023-01-24_15h08.46.593,00_bat_bachelor,2022.2.4,59.96444289487263,
,,,,,,,,,,,,1,0,1,0,101,0,101,0,,,,,,,101,,,0.2,751.0133115086937,,X,d,go,d,1,0.5785680911503732,,,,,,,,,,,,,,,62,001,21,m,Bildungswissenschaften,2023-01-24_15h08.46.593,00_bat_bachelor,2022.2.4,59.96444289487263,
,,,,,,,,,,,,1,0,1,0,102,0,102,0,,,,,,,102,,,0.2,751.8966318076709,,Y,l,go,l,1,0.38250370137393475,,,,,,,,,,,,,,,62,001,21,m,Bildungswissenschaften,2023-01-24_15h08.46.593,00_bat_bachelor,2022.2.4,59.96444289487263,
,,,,,,,,,,,,1,0,1,0,103,0,103,0,,,,,,,103,,,0.2,752.5799672339344,753.3801195732085,Y,None,nogo,None,1,,,,,,,,,,,,,,,,62,001,21,m,Bildungswissenschaften,2023-01-24_15h08.46.593,00_bat_bachelor,2022.2.4,59.96444289487263,
,,,,,,,,,,,,1,0,1,0,104,0,104,0,,,,,,,104,,,0.2,753.5798562036362,,X,d,go,d,1,0.3159413094399497,,,,,,,,,,,,,,,62,001,21,m,Bildungswissenschaften,2023-01-24_15h08.46.593,00_bat_bachelor,2022.2.4,59.96444289487263,
,,,,,,,,,,,,1,0,1,0,105,0,105,0,,,,,,,105,,,0.2,754.1966263288632,,Y,l,go,l,1,0.40345447906292975,,,,,,,,,,,,,,,62,001,21,m,Bildungswissenschaften,2023-01-24_15h08.46.593,00_bat_bachelor,2022.2.4,59.96444289487263,
,,,,,,,,,,,,1,0,1,0,106,0,106,0,,,,,,,106,,,0.2,754.9133556783199,,X,d,go,d,1,0.37419388722628355,,,,,,,,,,,,,,,62,001,21,m,Bildungswissenschaften,2023-01-24_15h08.46.593,00_bat_bachelor,2022.2.4,59.96444289487263,
,,,,,,,,,,,,1,0,1,0,107,0,107,0,,,,,,,107,,,0.2,755.5967226197245,756.3967013834044,X,None,nogo,None,1,,,,,,,,,,,,,,,,62,001,21,m,Bildungswissenschaften,2023-01-24_15h08.46.593,00_bat_bachelor,2022.2.4,59.96444289487263,
,,,,,,,,,,,,1,0,1,0,108,0,108,0,,,,,,,108,,,0.2,756.5966498925118,757.3966441713274,X,None,nogo,None,1,,,,,,,,,,,,,,,,62,001,21,m,Bildungswissenschaften,2023-01-24_15h08.46.593,00_bat_bachelor,2022.2.4,59.96444289487263,
,,,,,,,,,,,,1,0,1,0,109,0,109,0,,,,,,,109,,,0.2,757.5965713470941,,Y,l,go,l,1,0.33160578657407314,,,,,,,,,,,,,,,62,001,21,m,Bildungswissenschaften,2023-01-24_15h08.46.593,00_bat_bachelor,2022.2.4,59.96444289487263,
,,,,,,,,,,,,1,0,1,0,110,0,110,0,,,,,,,110,,,0.2,758.2298457067227,,X,d,go,d,1,0.5782844548812136,,,,,,,,,,,,,,,62,001,21,m,Bildungswissenschaften,2023-01-24_15h08.46.593,00_bat_bachelor,2022.2.4,59.96444289487263,
,,,,,,,,,,,,1,0,1,0,111,0,111,0,,,,,,,111,,,0.2,759.1130016421666,759.9132950722706,X,None,nogo,None,1,,,,,,,,,,,,,,,,62,001,21,m,Bildungswissenschaften,2023-01-24_15h08.46.593,00_bat_bachelor,2022.2.4,59.96444289487263,
,,,,,,,,,,,,1,0,1,0,112,0,112,0,,,,,,,112,,,0.2,760.1133633389836,,Y,l,go,l,1,0.3747592201689258,,,,,,,,,,,,,,,62,001,21,m,Bildungswissenschaften,2023-01-24_15h08.46.593,00_bat_bachelor,2022.2.4,59.96444289487263,
,,,,,,,,,,,,1,0,1,0,113,0,113,0,,,,,,,113,,,0.2,760.7967137955129,,X,d,go,d,1,0.34778371825814247,,,,,,,,,,,,,,,62,001,21,m,Bildungswissenschaften,2023-01-24_15h08.46.593,00_bat_bachelor,2022.2.4,59.96444289487263,
,,,,,,,,,,,,1,0,1,0,114,0,114,0,,,,,,,114,,,0.2,761.4466417228105,,Y,l,go,l,1,0.3533240790711716,,,,,,,,,,,,,,,62,001,21,m,Bildungswissenschaften,2023-01-24_15h08.46.593,00_bat_bachelor,2022.2.4,59.96444289487263,
,,,,,,,,,,,,1,0,1,0,115,0,115,0,,,,,,,115,,,0.2,762.1133240662748,762.9131234360393,Y,None,nogo,None,1,,,,,,,,,,,,,,,,62,001,21,m,Bildungswissenschaften,2023-01-24_15h08.46.593,00_bat_bachelor,2022.2.4,59.96444289487263,
,,,,,,,,,,,,1,0,1,0,116,0,116,0,,,,,,,116,,,0.2,763.1131820057053,,X,d,go,d,1,0.22246790013741702,,,,,,,,,,,,,,,62,001,21,m,Bildungswissenschaften,2023-01-24_15h08.46.593,00_bat_bachelor,2022.2.4,59.96444289487263,
,,,,,,,,,,,,1,0,1,0,117,0,117,0,,,,,,,117,,,0.2,763.6466712015681,,Y,l,go,l,1,0.37662831018678844,,,,,,,,,,,,,,,62,001,21,m,Bildungswissenschaften,2023-01-24_15h08.46.593,00_bat_bachelor,2022.2.4,59.96444289487263,
,,,,,,,,,,,,1,0,1,0,118,0,118,0,,,,,,,118,,,0.2,764.3296012947103,,X,d,go,d,1,0.3343771791551262,,,,,,,,,,,,,,,62,001,21,m,Bildungswissenschaften,2023-01-24_15h08.46.593,00_bat_bachelor,2022.2.4,59.96444289487263,
,,,,,,,,,,,,1,0,1,0,119,0,119,0,,,,,,,119,,,0.2,764.9800252218265,,Y,l,go,l,1,0.24389285943470895,,,,,,,,,,,,,,,62,001,21,m,Bildungswissenschaften,2023-01-24_15h08.46.593,00_bat_bachelor,2022.2.4,59.96444289487263,
,,,,,,,,,,,,1,0,1,0,120,0,120,0,,,,,,,120,,,0.2,765.5299745309167,,X,d,go,d,1,0.2695534529630095,,,,,,,,,,,,,,,62,001,21,m,Bildungswissenschaften,2023-01-24_15h08.46.593,00_bat_bachelor,2022.2.4,59.96444289487263,
,,,,,,,,,,,,1,0,1,0,121,0,121,0,,,,,,,121,,,0.2,766.1131490360713,,Y,l,go,l,1,0.2466487369965762,,,,,,,,,,,,,,,62,001,21,m,Bildungswissenschaften,2023-01-24_15h08.46.593,00_bat_bachelor,2022.2.4,59.96444289487263,
,,,,,,,,,,,,1,0,1,0,122,0,122,0,,,,,,,122,,,0.2,766.6633218601346,767.4631692299154,Y,None,nogo,None,1,,,,,,,,,,,,,,,,62,001,21,m,Bildungswissenschaften,2023-01-24_15h08.46.593,00_bat_bachelor,2022.2.4,59.96444289487263,
,,,,,,,,,,,,1,0,1,0,123,0,123,0,,,,,,,123,,,0.2,767.6631594360806,,X,d,go,d,1,0.28001841774675995,,,,,,,,,,,,,,,62,001,21,m,Bildungswissenschaften,2023-01-24_15h08.46.593,00_bat_bachelor,2022.2.4,59.96444289487263,
,,,,,,,,,,,,1,0,1,0,124,0,124,0,,,,,,,124,,,0.2,768.2466500622686,,Y,l,go,l,1,0.4172964117024094,,,,,,,,,,,,,,,62,001,21,m,Bildungswissenschaften,2023-01-24_15h08.46.593,00_bat_bachelor,2022.2.4,59.96444289487263,
,,,,,,,,,,,,1,0,1,0,125,0,125,0,,,,,,,125,,,0.2,768.9797537067207,,X,d,go,d,1,0.4358796754386276,,,,,,,,,,,,,,,62,001,21,m,Bildungswissenschaften,2023-01-24_15h08.46.593,00_bat_bachelor,2022.2.4,59.96444289487263,
,,,,,,,,,,,,1,0,1,0,126,0,126,0,,,,,,,126,,,0.2,769.730032130843,,Y,l,go,l,1,0.3257143954979256,,,,,,,,,,,,,,,62,001,21,m,Bildungswissenschaften,2023-01-24_15h08.46.593,00_bat_bachelor,2022.2.4,59.96444289487263,
,,,,,,,,,,,,1,0,1,0,127,0,127,0,,,,,,,127,,,0.2,770.363435945008,,X,d,go,d,1,0.41238005051855,,,,,,,,,,,,,,,62,001,21,m,Bildungswissenschaften,2023-01-24_15h08.46.593,00_bat_bachelor,2022.2.4,59.96444289487263,
,,,,,,,,,,,,1,0,1,0,128,0,128,0,,,,,,,128,,,0.2,771.080062506604,771.8803118155338,X,None,nogo,None,1,,,,,,,,,,,,,,,,62,001,21,m,Bildungswissenschaften,2023-01-24_15h08.46.593,00_bat_bachelor,2022.2.4,59.96444289487263,
,,,,,,,,,,,,1,0,1,0,129,0,129,0,,,,,,,129,,,0.2,772.0803640822414,,Y,l,go,l,1,0.487211529398337,,,,,,,,,,,,,,,62,001,21,m,Bildungswissenschaften,2023-01-24_15h08.46.593,00_bat_bachelor,2022.2.4,59.96444289487263,
,,,,,,,,,,,,1,0,1,0,130,0,130,0,,,,,,,130,,,0.2,772.8966701106401,,X,d,go,d,1,0.4547737268730998,,,,,,,,,,,,,,,62,001,21,m,Bildungswissenschaften,2023-01-24_15h08.46.593,00_bat_bachelor,2022.2.4,59.96444289487263,
,,,,,,,,,,,,1,0,1,0,131,0,131,0,,,,,,,131,,,0.2,773.6635865872959,774.4636545630638,X,None,nogo,None,1,,,,,,,,,,,,,,,,62,001,21,m,Bildungswissenschaften,2023-01-24_15h08.46.593,00_bat_bachelor,2022.2.4,59.96444289487263,
,,,,,,,,,,,,1,0,1,0,132,0,132,0,,,,,,,132,,,0.2,774.6637679205742,,Y,l,go,l,1,0.33601063292007893,,,,,,,,,,,,,,,62,001,21,m,Bildungswissenschaften,2023-01-24_15h08.46.593,00_bat_bachelor,2022.2.4,59.96444289487263,
,,,,,,,,,,,,1,0,1,0,133,0,133,0,,,,,,,133,,,0.2,775.3133501510601,,X,d,go,d,1,0.42161447019316256,,,,,,,,,,,,,,,62,001,21,m,Bildungswissenschaften,2023-01-24_15h08.46.593,00_bat_bachelor,2022.2.4,59.96444289487263,
,,,,,,,,,,,,1,0,1,0,134,0,134,0,,,,,,,134,,,0.2,776.0467485833215,,Y,l,go,l,1,0.3127064018044621,,,,,,,,,,,,,,,62,001,21,m,Bildungswissenschaften,2023-01-24_15h08.46.593,00_bat_bachelor,2022.2.4,59.96444289487263,
,,,,,,,,,,,,1,0,1,0,135,0,135,0,,,,,,,135,,,0.2,776.6636205266695,,X,d,go,d,1,0.3035025274148211,,,,,,,,,,,,,,,62,001,21,m,Bildungswissenschaften,2023-01-24_15h08.46.593,00_bat_bachelor,2022.2.4,59.96444289487263,
,,,,,,,,,,,,1,0,1,0,136,0,136,0,,,,,,,136,,,0.2,777.2803145307116,,Y,l,go,l,1,0.3431732961907983,,,,,,,,,,,,,,,62,001,21,m,Bildungswissenschaften,2023-01-24_15h08.46.593,00_bat_bachelor,2022.2.4,59.96444289487263,
,,,,,,,,,,,,1,0,1,0,137,0,137,0,,,,,,,137,,,0.2,777.9299985793186,,X,d,go,d,1,0.28625744488090277,,,,,,,,,,,,,,,62,001,21,m,Bildungswissenschaften,2023-01-24_15h08.46.593,00_bat_bachelor,2022.2.4,59.96444289487263,
,,,,,,,,,,,,1,0,1,0,138,0,138,0,,,,,,,138,,,0.2,778.5300865308382,,Y,l,go,l,1,0.43759312911424786,,,,,,,,,,,,,,,62,001,21,m,Bildungswissenschaften,2023-01-24_15h08.46.593,00_bat_bachelor,2022.2.4,59.96444289487263,
,,,,,,,,,,,,1,0,1,0,139,0,139,0,,,,,,,139,,,0.2,779.2800444702152,,X,d,go,d,1,0.2959461675491184,,,,,,,,,,,,,,,62,001,21,m,Bildungswissenschaften,2023-01-24_15h08.46.593,00_bat_bachelor,2022.2.4,59.96444289487263,
,,,,,,,,,,,,1,0,1,0,140,0,140,0,,,,,,,140,,,0.2,779.87999666424,,Y,l,go,l,1,0.3036038607824594,,,,,,,,,,,,,,,62,001,21,m,Bildungswissenschaften,2023-01-24_15h08.46.593,00_bat_bachelor,2022.2.4,59.96444289487263,
,,,,,,,,,,,,1,0,1,0,141,0,141,0,,,,,,,141,,,0.2,780.4967789106304,781.2967125833966,Y,None,nogo,None,1,,,,,,,,,,,,,,,,62,001,21,m,Bildungswissenschaften,2023-01-24_15h08.46.593,00_bat_bachelor,2022.2.4,59.96444289487263,
,,,,,,,,,,,,1,0,1,0,142,0,142,0,,,,,,,142,,,0.2,781.4965277592419,782.296797431889,Y,None,nogo,None,1,,,,,,,,,,,,,,,,62,001,21,m,Bildungswissenschaften,2023-01-24_15h08.46.593,00_bat_bachelor,2022.2.4,59.96444289487263,
,,,,,,,,,,,,1,0,1,0,143,0,143,0,,,,,,,143,,,0.2,782.496503031929,,X,d,go,d,1,0.2788470243103802,,,,,,,,,,,,,,,62,001,21,m,Bildungswissenschaften,2023-01-24_15h08.46.593,00_bat_bachelor,2022.2.4,59.96444289487263,
,,,,,,,,,,,,1,0,1,0,144,0,144,0,,,,,,,144,,,0.2,783.0801381429192,,Y,l,go,l,1,0.4793099573580548,,,,,,,,,,,,,,,62,001,21,m,Bildungswissenschaften,2023-01-24_15h08.46.593,00_bat_bachelor,2022.2.4,59.96444289487263,
,,,,,,,,,,,,1,0,1,0,145,0,145,0,,,,,,,145,,,0.2,783.8634400662268,,X,d,go,d,1,0.5281147821806371,,,,,,,,,,,,,,,62,001,21,m,Bildungswissenschaften,2023-01-24_15h08.46.593,00_bat_bachelor,2022.2.4,59.96444289487263,
,,,,,,,,,,,,1,0,1,0,146,0,146,0,,,,,,,146,,,0.2,784.6965291168308,785.4965694561834,X,None,nogo,None,1,,,,,,,,,,,,,,,,62,001,21,m,Bildungswissenschaften,2023-01-24_15h08.46.593,00_bat_bachelor,2022.2.4,59.96444289487263,
,,,,,,,,,,,,1,0,1,0,147,0,147,0,,,,,,,147,,,0.2,785.6965349350357,,Y,l,go,l,1,0.26312630460597575,,,,,,,,,,,,,,,62,001,21,m,Bildungswissenschaften,2023-01-24_15h08.46.593,00_bat_bachelor,2022.2.4,59.96444289487263,
,,,,,,,,,,,,1,0,1,0,148,0,148,0,,,,,,,148,,,0.2,786.2633782965131,,X,d,go,d,1,0.3680712233763188,,,,,,,,,,,,,,,62,001,21,m,Bildungswissenschaften,2023-01-24_15h08.46.593,00_bat_bachelor,2022.2.4,59.96444289487263,
,,,,,,,,,,,,1,0,1,0,149,0,149,0,,,,,,,149,,,0.2,786.9467340863775,,Y,l,go,l,1,0.3569657743209973,,,,,,,,,,,,,,,62,001,21,m,Bildungswissenschaften,2023-01-24_15h08.46.593,00_bat_bachelor,2022.2.4,59.96444289487263,
,,,,,,,,,,,,1,0,1,0,150,0,150,0,,,,,,,150,,,0.2,787.6131192179164,788.4132885268191,Y,None,nogo,None,1,,,,,,,,,,,,,,,,62,001,21,m,Bildungswissenschaften,2023-01-24_15h08.46.593,00_bat_bachelor,2022.2.4,59.96444289487263,
,,,,,,,,,,,,1,0,1,0,151,0,151,0,,,,,,,151,,,0.2,788.613566732849,789.4133229510626,Y,None,nogo,None,1,,,,,,,,,,,,,,,,62,001,21,m,Bildungswissenschaften,2023-01-24_15h08.46.593,00_bat_bachelor,2022.2.4,59.96444289487263,
,,,,,,,,,,,,1,0,1,0,152,0,152,0,,,,,,,152,,,0.2,789.6134784903843,,X,d,go,d,1,0.28269574977457523,,,,,,,,,,,,,,,62,001,21,m,Bildungswissenschaften,2023-01-24_15h08.46.593,00_bat_bachelor,2022.2.4,59.96444289487263,
,,,,,,,,,,,,1,0,1,0,153,0,153,0,,,,,,,153,,,0.2,790.1967853590613,,Y,l,go,l,1,0.3388925709296018,,,,,,,,,,,,,,,62,001,21,m,Bildungswissenschaften,2023-01-24_15h08.46.593,00_bat_bachelor,2022.2.4,59.96444289487263,
,,,,,,,,,,,,1,0,1,0,154,0,154,0,,,,,,,154,,,0.2,790.8464854077902,791.6468520499766,Y,None,nogo,None,1,,,,,,,,,,,,,,,,62,001,21,m,Bildungswissenschaften,2023-01-24_15h08.46.593,00_bat_bachelor,2022.2.4,59.96444289487263,
,,,,,,,,,,,,1,0,1,0,155,0,155,0,,,,,,,155,,,0.2,791.8466444379883,,X,d,go,d,1,0.30461186019238085,,,,,,,,,,,,,,,62,001,21,m,Bildungswissenschaften,2023-01-24_15h08.46.593,00_bat_bachelor,2022.2.4,59.96444289487263,
,,,,,,,,,,,,1,0,1,0,156,0,156,0,,,,,,,156,,,0.2,792.4635236540344,,Y,l,go,l,1,0.4085987189318985,,,,,,,,,,,,,,,62,001,21,m,Bildungswissenschaften,2023-01-24_15h08.46.593,00_bat_bachelor,2022.2.4,59.96444289487263,
,,,,,,,,,,,,1,0,1,0,157,0,157,0,,,,,,,157,,,0.2,793.1800789430272,793.9797905551968,Y,None,nogo,None,1,,,,,,,,,,,,,,,,62,001,21,m,Bildungswissenschaften,2023-01-24_15h08.46.593,00_bat_bachelor,2022.2.4,59.96444289487263,
,,,,,,,,,,,,1,0,1,0,158,0,158,0,,,,,,,158,,,0.2,794.1801778520457,,X,d,go,d,1,0.3077944042161107,,,,,,,,,,,,,,,62,001,21,m,Bildungswissenschaften,2023-01-24_15h08.46.593,00_bat_bachelor,2022.2.4,59.96444289487263,
,,,,,,,,,,,,1,0,1,0,159,0,159,0,,,,,,,159,,,0.2,794.796769553097,,Y,l,go,l,1,0.3786418850068003,,,,,,,,,,,,,,,62,001,21,m,Bildungswissenschaften,2023-01-24_15h08.46.593,00_bat_bachelor,2022.2.4,59.96444289487263,
,,,,,,,,,,,,1,0,1,0,160,0,160,0,,,,,,,160,,,0.2,795.4801883732434,,X,d,go,d,1,0.33529499697033316,,,,,,,,,,,,,,,62,001,21,m,Bildungswissenschaften,2023-01-24_15h08.46.593,00_bat_bachelor,2022.2.4,59.96444289487263,
,,,,,,,,,,,,1,0,1,0,161,0,161,0,,,,,,,161,,,0.2,796.1299829672789,,Y,l,go,l,1,0.22994135110639036,,,,,,,,,,,,,,,62,001,21,m,Bildungswissenschaften,2023-01-24_15h08.46.593,00_bat_bachelor,2022.2.4,59.96444289487263,
,,,,,,,,,,,,1,0,1,0,162,0,162,0,,,,,,,162,,,0.2,796.6634193146601,,X,d,go,d,1,0.32060797372832894,,,,,,,,,,,,,,,62,001,21,m,Bildungswissenschaften,2023-01-24_15h08.46.593,00_bat_bachelor,2022.2.4,59.96444289487263,
,,,,,,,,,,,,1,0,1,0,163,0,163,0,,,,,,,163,,,0.2,797.2967877348419,,X,None,nogo,l,0,0.2630841227946803,,,,,,,,,,,,,,,62,001,21,m,Bildungswissenschaften,2023-01-24_15h08.46.593,00_bat_bachelor,2022.2.4,59.96444289487263,
,,,,,,,,,,,,1,0,1,0,164,0,164,0,,,,,,,164,,,0.2,797.8631622481626,798.663399435929,Y,l,go,None,0,,,,,,,,,,,,,,,,62,001,21,m,Bildungswissenschaften,2023-01-24_15h08.46.593,00_bat_bachelor,2022.2.4,59.96444289487263,
,,,,,,,,,,,,1,0,1,0,165,0,165,0,,,,,,,165,,,0.2,798.8632519451203,,X,d,go,d,1,0.4879790440900251,,,,,,,,,,,,,,,62,001,21,m,Bildungswissenschaften,2023-01-24_15h08.46.593,00_bat_bachelor,2022.2.4,59.96444289487263,
,,,,,,,,,,,,1,0,1,0,166,0,166,0,,,,,,,166,,,0.2,799.6635759206256,,Y,l,go,l,1,0.29699731850996614,,,,,,,,,,,,,,,62,001,21,m,Bildungswissenschaften,2023-01-24_15h08.46.593,00_bat_bachelor,2022.2.4,59.96444289487263,
,,,,,,,,,,,,1,0,1,0,167,0,167,0,,,,,,,167,,,0.2,800.2634835086064,,X,d,go,d,1,0.4324353134725243,,,,,,,,,,,,,,,62,001,21,m,Bildungswissenschaften,2023-01-24_15h08.46.593,00_bat_bachelor,2022.2.4,59.96444289487263,
,,,,,,,,,,,,1,0,1,0,168,0,168,0,,,,,,,168,,,0.2,800.9966957591241,,X,None,nogo,l,0,0.2591583066387102,,,,,,,,,,,,,,,62,001,21,m,Bildungswissenschaften,2023-01-24_15h08.46.593,00_bat_bachelor,2022.2.4,59.96444289487263,
,,,,,,,,,,,,1,0,1,0,169,0,169,0,,,,,,,169,,,0.2,801.5632574238116,,Y,l,go,d,0,0.3970641790656373,,,,,,,,,,,,,,,62,001,21,m,Bildungswissenschaften,2023-01-24_15h08.46.593,00_bat_bachelor,2022.2.4,59.96444289487263,
,,,,,,,,,,,,1,0,1,0,170,0,170,0,,,,,,,170,,,0.2,802.263397205621,803.0634283329127,X,d,go,None,0,,,,,,,,,,,,,,,,62,001,21,m,Bildungswissenschaften,2023-01-24_15h08.46.593,00_bat_bachelor,2022.2.4,59.96444289487263,
,,,,,,,,,,,,1,0,1,0,171,0,171,0,,,,,,,171,,,0.2,803.2634864177089,804.063175242045,X,None,nogo,None,1,,,,,,,,,,,,,,,,62,001,21,m,Bildungswissenschaften,2023-01-24_15h08.46.593,00_bat_bachelor,2022.2.4,59.96444289487263,
,,,,,,,,,,,,1,0,1,0,172,0,172,0,,,,,,,172,,,0.2,804.2633947813883,,Y,l,go,l,1,0.3043485877569765,,,,,,,,,,,,,,,62,001,21,m,Bildungswissenschaften,2023-01-24_15h08.46.593,00_bat_bachelor,2022.2.4,59.96444289487263,
,,,,,,,,,,,,1,0,1,0,173,0,173,0,,,,,,,173,,,0.2,804.8800684217131,805.6800171248615,X,d,go,None,0,,,,,,,,,,,,,,,,62,001,21,m,Bildungswissenschaften,2023-01-24_15h08.46.593,00_bat_bachelor,2022.2.4,59.96444289487263,
,,,,,,,,,,,,1,0,1,0,174,0,174,0,,,,,,,174,,,0.2,805.8797726642806,806.680085973232,Y,l,go,None,0,,,,,,,,,,,,,,,,62,001,21,m,Bildungswissenschaften,2023-01-24_15h08.46.593,00_bat_bachelor,2022.2.4,59.96444289487263,
,,,,,,,,,,,,1,0,1,0,175,0,175,0,,,,,,,175,,,0.2,806.8800921792863,,X,d,go,d,1,0.2320984408725053,,,,,,,,,,,,,,,62,001,21,m,Bildungswissenschaften,2023-01-24_15h08.46.593,00_bat_bachelor,2022.2.4,59.96444289487263,
