loop_instruction.thisRepN,loop_instruction.thisTrialN,loop_instruction.thisN,loop_instruction.thisIndex,loop_rsi_practice.thisRepN,loop_rsi_practice.thisTrialN,loop_rsi_practice.thisN,loop_rsi_practice.thisIndex,loop_practice.thisRepN,loop_practice.thisTrialN,loop_practice.thisN,loop_practice.thisIndex,loop_exp.thisRepN,loop_exp.thisTrialN,loop_exp.thisN,loop_exp.thisIndex,loop_trials.thisRepN,loop_trials.thisTrialN,loop_trials.thisN,loop_trials.thisIndex,map_condition,map_x_key,map_y_key,key_resp_welcome.started,key_resp_welcome.keys,key_resp_welcome.rt,index,text_empty_rsi_practice.started,text_empty_rsi_practice.stopped,rsi,stimulus.started,stimulus.stopped,stimulus,correct,trial_type,key_resp_trial.keys,key_resp_trial.corr,key_resp_trial.rt,key_resp_instruction_rsi.started,key_resp_instruction_rsi.keys,key_resp_instruction_rsi.rt,key_resp_instruction_rsi.stopped,key_resp_instruction_final.started,key_resp_instruction_final.keys,key_resp_instruction_final.rt,key_resp_break.started,key_resp_break.keys,key_resp_break.rt,key_resp_break.stopped,key_resp_end_screen.started,image_end_screen.started,key_resp_end_screen.keys,participant,session,Alter,Geschlecht (w/m/d/andere),Studiengang,date,expName,psychopyVersion,frameRate,
,,,,0,0,0,0,0,0,0,0,,,,,,,,,1,l,d,1137.3580929172458,j,11.13158027047757,0,1148.519039748353,1149.5326154993381,1,1149.5326154993381,1150.3327620204072,X,l,go,None,0,,,,,,,,,,,,,,,,65,001,20,m,Psychologie,2023-01-25_09h15.51.110,00_bat_bachelor,2022.2.4,60.00509136249535,
,,,,0,0,0,0,1,0,1,0,,,,,,,,,,,,,,,1,1150.9327704567695,1151.9327176084043,1,1151.9327176084043,,Y,d,go,d,1,0.3937270523747429,,,,,,,,,,,,,,,65,001,20,m,Psychologie,2023-01-25_09h15.51.110,00_bat_bachelor,2022.2.4,60.00509136249535,
,,,,0,0,0,0,2,0,2,0,,,,,,,,,,,,,,,2,1153.0328533173306,1154.0327830143506,1,1154.0327830143506,,X,l,go,l,1,0.38883202453143895,,,,,,,,,,,,,,,65,001,20,m,Psychologie,2023-01-25_09h15.51.110,00_bat_bachelor,2022.2.4,60.00509136249535,
,,,,0,0,0,0,3,0,3,0,,,,,,,,,,,,,,,3,1155.132766965893,1156.1327868446242,1,1156.1327868446242,,X,None,nogo,l,0,0.33738283731509,,,,,,,,,,,,,,,65,001,20,m,Psychologie,2023-01-25_09h15.51.110,00_bat_bachelor,2022.2.4,60.00509136249535,
,,,,0,0,0,0,4,0,4,0,,,,,,,,,,,,,,,4,1157.5826140205609,1158.582748808316,1,1158.582748808316,,Y,d,go,d,1,0.33466962655074894,,,,,,,,,,,,,,,65,001,20,m,Psychologie,2023-01-25_09h15.51.110,00_bat_bachelor,2022.2.4,60.00509136249535,
,,,,0,0,0,0,5,0,5,0,,,,,,,,,,,,,,,5,1159.632511208416,1160.6328646627953,1,1160.6328646627953,,X,l,go,l,1,0.39672632375732064,,,,,,,,,,,,,,,65,001,20,m,Psychologie,2023-01-25_09h15.51.110,00_bat_bachelor,2022.2.4,60.00509136249535,
,,,,0,0,0,0,6,0,6,0,,,,,,,,,,,,,,,6,1161.7327618264826,1162.7326973417075,1,1162.7326973417075,1163.5325568326516,X,None,nogo,None,1,,,,,,,,,,,,,,,,65,001,20,m,Psychologie,2023-01-25_09h15.51.110,00_bat_bachelor,2022.2.4,60.00509136249535,
,,,,0,0,0,0,7,0,7,0,,,,,,,,,,,,,,,7,1164.132767450763,1165.1327737537213,1,1165.1327737537213,,Y,d,go,d,1,0.344891682267189,,,,,,,,,,,,,,,65,001,20,m,Psychologie,2023-01-25_09h15.51.110,00_bat_bachelor,2022.2.4,60.00509136249535,
,,,,0,0,0,0,8,0,8,0,,,,,,,,,,,,,,,8,1166.182783911354,1167.1829060930759,1,1167.1829060930759,,X,l,go,l,1,0.4388499396154657,,,,,,,,,,,,,,,65,001,20,m,Psychologie,2023-01-25_09h15.51.110,00_bat_bachelor,2022.2.4,60.00509136249535,
,,,,0,0,0,0,9,0,9,0,,,,,,,,,,,,,,,9,1168.3327290507732,1169.3325923235388,1,1169.3325923235388,,Y,d,go,d,1,0.36920294305309653,,,,,,,,,,,,,,,65,001,20,m,Psychologie,2023-01-25_09h15.51.110,00_bat_bachelor,2022.2.4,60.00509136249535,
,,,,0,0,0,0,10,0,10,0,,,,,,,,,,,,,,,10,1170.416057010414,1171.415879071108,1,1171.415879071108,,X,l,go,l,1,0.25395645352546126,,,,,,,,,,,,,,,65,001,20,m,Psychologie,2023-01-25_09h15.51.110,00_bat_bachelor,2022.2.4,60.00509136249535,
,,,,0,0,0,0,11,0,11,0,,,,,,,,,,,,,,,11,1172.3824114509625,1173.3826291477308,1,1173.3826291477308,1174.1825264568906,X,None,nogo,None,1,,,,,,,,,,,,,,,,65,001,20,m,Psychologie,2023-01-25_09h15.51.110,00_bat_bachelor,2022.2.4,60.00509136249535,
,,,,0,0,0,0,12,0,12,0,,,,,,,,,,,,,,,12,1174.7827661659103,1175.782382650883,1,1175.782382650883,,X,None,nogo,l,0,0.4157958901487291,,,,,,,,,,,,,,,65,001,20,m,Psychologie,2023-01-25_09h15.51.110,00_bat_bachelor,2022.2.4,60.00509136249535,
,,,,0,0,0,0,13,0,13,0,,,,,,,,,,,,,,,13,1177.2993821578566,1178.299079612596,1,1178.299079612596,,Y,d,go,d,1,0.39405190071556717,,,,,,,,,,,,,,,65,001,20,m,Psychologie,2023-01-25_09h15.51.110,00_bat_bachelor,2022.2.4,60.00509136249535,
,,,,0,0,0,0,14,0,14,0,,,,,,,,,,,,,,,14,1179.3993132609176,1180.3992744730785,1,1180.3992744730785,,X,l,go,l,1,0.3745217283722013,,,,,,,,,,,,,,,65,001,20,m,Psychologie,2023-01-25_09h15.51.110,00_bat_bachelor,2022.2.4,60.00509136249535,
,,,,1,0,1,0,0,0,0,0,,,,,,,,,,,,,,,0,1198.5993757093092,1198.7993741577957,0.2,1198.7993741577957,,X,l,go,l,1,0.5981744684977457,1181.494335760246,j,17.075351449195296,,,,,,,,,,,,65,001,20,m,Psychologie,2023-01-25_09h15.51.110,00_bat_bachelor,2022.2.4,60.00509136249535,
,,,,1,0,1,0,1,0,1,0,,,,,,,,,,,,,,,1,1200.0994234669488,1200.2993831275962,0.2,1200.2993831275962,,Y,d,go,d,1,0.395004142774269,,,,,,,,,,,,,,,65,001,20,m,Psychologie,2023-01-25_09h15.51.110,00_bat_bachelor,2022.2.4,60.00509136249535,
,,,,1,0,1,0,2,0,2,0,,,,,,,,,,,,,,,2,1201.3990708368365,1201.5994101335527,0.2,1201.5994101335527,,X,l,go,l,1,0.2624907523859292,,,,,,,,,,,,,,,65,001,20,m,Psychologie,2023-01-25_09h15.51.110,00_bat_bachelor,2022.2.4,60.00509136249535,
,,,,1,0,1,0,3,0,3,0,,,,,,,,,,,,,,,3,1202.5657888165442,1202.7660529619316,0.2,1202.7660529619316,,Y,d,go,d,1,0.4722588930744678,,,,,,,,,,,,,,,65,001,20,m,Psychologie,2023-01-25_09h15.51.110,00_bat_bachelor,2022.2.4,60.00509136249535,
,,,,1,0,1,0,4,0,4,0,,,,,,,,,,,,,,,4,1203.9493925094139,1204.149445260875,0.2,1204.149445260875,,X,l,go,l,1,0.3841314207529649,,,,,,,,,,,,,,,65,001,20,m,Psychologie,2023-01-25_09h15.51.110,00_bat_bachelor,2022.2.4,60.00509136249535,
,,,,1,0,1,0,5,0,5,0,,,,,,,,,,,,,,,5,1205.2490040004486,1205.4494189335965,0.2,1205.4494189335965,1206.2490820609964,X,None,nogo,None,1,,,,,,,,,,,,,,,,65,001,20,m,Psychologie,2023-01-25_09h15.51.110,00_bat_bachelor,2022.2.4,60.00509136249535,
,,,,1,0,1,0,6,0,6,0,,,,,,,,,,,,,,,6,1206.8492786184652,1207.0496188850375,0.2,1207.0496188850375,,Y,d,go,d,1,0.3485309531679377,,,,,,,,,,,,,,,65,001,20,m,Psychologie,2023-01-25_09h15.51.110,00_bat_bachelor,2022.2.4,60.00509136249535,
,,,,1,0,1,0,7,0,7,0,,,,,,,,,,,,,,,7,1208.0990991034778,1208.2993802184938,0.2,1208.2993802184938,,X,l,go,l,1,0.34616974217351526,,,,,,,,,,,,,,,65,001,20,m,Psychologie,2023-01-25_09h15.51.110,00_bat_bachelor,2022.2.4,60.00509136249535,
,,,,1,0,1,0,8,0,8,0,,,,,,,,,,,,,,,8,1209.3493952244753,1209.5490562185878,0.2,1209.5490562185878,,Y,d,go,d,1,0.39321020420175046,,,,,,,,,,,,,,,65,001,20,m,Psychologie,2023-01-25_09h15.51.110,00_bat_bachelor,2022.2.4,60.00509136249535,
,,,,1,0,1,0,9,0,9,0,,,,,,,,,,,,,,,9,1210.649315079092,1210.8493649214506,0.2,1210.8493649214506,1211.6494396850467,Y,None,nogo,None,1,,,,,,,,,,,,,,,,65,001,20,m,Psychologie,2023-01-25_09h15.51.110,00_bat_bachelor,2022.2.4,60.00509136249535,
,,,,1,0,1,0,10,0,10,0,,,,,,,,,,,,,,,10,1212.249396242667,1212.449262327631,0.2,1212.449262327631,1213.249016121612,Y,None,nogo,None,1,,,,,,,,,,,,,,,,65,001,20,m,Psychologie,2023-01-25_09h15.51.110,00_bat_bachelor,2022.2.4,60.00509136249535,
,,,,1,0,1,0,11,0,11,0,,,,,,,,,,,,,,,11,1213.8493435882265,1214.0493905214826,0.2,1214.0493905214826,,X,l,go,l,1,0.27686601819004864,,,,,,,,,,,,,,,65,001,20,m,Psychologie,2023-01-25_09h15.51.110,00_bat_bachelor,2022.2.4,60.00509136249535,
,,,,1,0,1,0,12,0,12,0,,,,,,,,,,,,,,,12,1215.0327175598359,1215.2327455841005,0.2,1215.2327455841005,,Y,d,go,d,1,0.612468279665336,,,,,,,,,,,,,,,65,001,20,m,Psychologie,2023-01-25_09h15.51.110,00_bat_bachelor,2022.2.4,60.00509136249535,
,,,,1,0,1,0,13,0,13,0,,,,,,,,,,,,,,,13,1216.5493742791004,1216.7492772124242,0.2,1216.7492772124242,,Y,None,nogo,d,0,0.3437193190911785,,,,,,,,,,,,,,,65,001,20,m,Psychologie,2023-01-25_09h15.51.110,00_bat_bachelor,2022.2.4,60.00509136249535,
,,,,1,0,1,0,14,0,14,0,,,,,,,,,,,,,,,14,1218.1994011154165,1218.3991682912456,0.2,1218.3991682912456,,X,l,go,l,1,0.3581067060586065,,,,,,,,,,,,,,,65,001,20,m,Psychologie,2023-01-25_09h15.51.110,00_bat_bachelor,2022.2.4,60.00509136249535,
,,,,,,,,,,,,,,,,,,,,,,,,,,,,,,,,,,,,,,1219.4964652138297,None,,1219.4964652138297,1219.4964652138297,space,4.575955812586471,,,,,,,,65,001,20,m,Psychologie,2023-01-25_09h15.51.110,00_bat_bachelor,2022.2.4,60.00509136249535,
,,,,,,,,,,,,0,0,0,0,0,0,0,0,,,,,,,0,,,1,1225.0992775275372,,X,l,go,l,1,0.26679523510392755,,,,,,,,,,,,,,,65,001,20,m,Psychologie,2023-01-25_09h15.51.110,00_bat_bachelor,2022.2.4,60.00509136249535,
,,,,,,,,,,,,0,0,0,0,1,0,1,0,,,,,,,1,,,1,1226.4660720163956,,Y,d,go,d,1,0.3242332679219544,,,,,,,,,,,,,,,65,001,20,m,Psychologie,2023-01-25_09h15.51.110,00_bat_bachelor,2022.2.4,60.00509136249535,
,,,,,,,,,,,,0,0,0,0,2,0,2,0,,,,,,,2,,,1,1227.8990977458889,,X,l,go,l,1,0.31478842406067997,,,,,,,,,,,,,,,65,001,20,m,Psychologie,2023-01-25_09h15.51.110,00_bat_bachelor,2022.2.4,60.00509136249535,
,,,,,,,,,,,,0,0,0,0,3,0,3,0,,,,,,,3,,,1,1229.316053180024,1230.1160406710114,X,None,nogo,None,1,,,,,,,,,,,,,,,,65,001,20,m,Psychologie,2023-01-25_09h15.51.110,00_bat_bachelor,2022.2.4,60.00509136249535,
,,,,,,,,,,,,0,0,0,0,4,0,4,0,,,,,,,4,,,1,1231.1160687921802,,Y,d,go,d,1,0.2973804324865341,,,,,,,,,,,,,,,65,001,20,m,Psychologie,2023-01-25_09h15.51.110,00_bat_bachelor,2022.2.4,60.00509136249535,
,,,,,,,,,,,,0,0,0,0,5,0,5,0,,,,,,,5,,,1,1232.5160666588927,,X,l,go,l,1,0.33873604878317565,,,,,,,,,,,,,,,65,001,20,m,Psychologie,2023-01-25_09h15.51.110,00_bat_bachelor,2022.2.4,60.00509136249535,
,,,,,,,,,,,,0,0,0,0,6,0,6,0,,,,,,,6,,,1,1233.9660678951768,,Y,d,go,d,1,0.29558164544869214,,,,,,,,,,,,,,,65,001,20,m,Psychologie,2023-01-25_09h15.51.110,00_bat_bachelor,2022.2.4,60.00509136249535,
,,,,,,,,,,,,0,0,0,0,7,0,7,0,,,,,,,7,,,1,1235.3659193377243,,Y,None,nogo,d,0,0.2724873536499217,,,,,,,,,,,,,,,65,001,20,m,Psychologie,2023-01-25_09h15.51.110,00_bat_bachelor,2022.2.4,60.00509136249535,
,,,,,,,,,,,,0,0,0,0,8,0,8,0,,,,,,,8,,,1,1236.7490003640996,,X,l,go,l,1,0.3446448943577707,,,,,,,,,,,,,,,65,001,20,m,Psychologie,2023-01-25_09h15.51.110,00_bat_bachelor,2022.2.4,60.00509136249535,
,,,,,,,,,,,,0,0,0,0,9,0,9,0,,,,,,,9,,,1,1238.199359418475,,Y,d,go,d,1,0.3501673159189522,,,,,,,,,,,,,,,65,001,20,m,Psychologie,2023-01-25_09h15.51.110,00_bat_bachelor,2022.2.4,60.00509136249535,
,,,,,,,,,,,,0,0,0,0,10,0,10,0,,,,,,,10,,,1,1239.6490076852497,,X,l,go,l,1,0.3244897526456043,,,,,,,,,,,,,,,65,001,20,m,Psychologie,2023-01-25_09h15.51.110,00_bat_bachelor,2022.2.4,60.00509136249535,
,,,,,,,,,,,,0,0,0,0,11,0,11,0,,,,,,,11,,,1,1241.082433414529,1241.8827224810375,X,None,nogo,None,1,,,,,,,,,,,,,,,,65,001,20,m,Psychologie,2023-01-25_09h15.51.110,00_bat_bachelor,2022.2.4,60.00509136249535,
,,,,,,,,,,,,0,0,0,0,12,0,12,0,,,,,,,12,,,1,1242.8827103598742,,Y,d,go,d,1,0.355633010272868,,,,,,,,,,,,,,,65,001,20,m,Psychologie,2023-01-25_09h15.51.110,00_bat_bachelor,2022.2.4,60.00509136249535,
,,,,,,,,,,,,0,0,0,0,13,0,13,0,,,,,,,13,,,1,1244.3494631032227,,X,l,go,l,1,0.44078351452481,,,,,,,,,,,,,,,65,001,20,m,Psychologie,2023-01-25_09h15.51.110,00_bat_bachelor,2022.2.4,60.00509136249535,
,,,,,,,,,,,,0,0,0,0,14,0,14,0,,,,,,,14,,,1,1245.8993416245794,,Y,d,go,d,1,0.28260177292395383,,,,,,,,,,,,,,,65,001,20,m,Psychologie,2023-01-25_09h15.51.110,00_bat_bachelor,2022.2.4,60.00509136249535,
,,,,,,,,,,,,0,0,0,0,15,0,15,0,,,,,,,15,,,1,1247.2824434994254,,Y,None,nogo,d,0,0.33943471510428935,,,,,,,,,,,,,,,65,001,20,m,Psychologie,2023-01-25_09h15.51.110,00_bat_bachelor,2022.2.4,60.00509136249535,
,,,,,,,,,,,,0,0,0,0,16,0,16,0,,,,,,,16,,,1,1248.7327210992808,,X,l,go,l,1,0.3291287807514891,,,,,,,,,,,,,,,65,001,20,m,Psychologie,2023-01-25_09h15.51.110,00_bat_bachelor,2022.2.4,60.00509136249535,
,,,,,,,,,,,,0,0,0,0,17,0,17,0,,,,,,,17,,,1,1250.166048404295,,Y,d,go,d,1,0.4637595033273101,,,,,,,,,,,,,,,65,001,20,m,Psychologie,2023-01-25_09h15.51.110,00_bat_bachelor,2022.2.4,60.00509136249535,
,,,,,,,,,,,,0,0,0,0,18,0,18,0,,,,,,,18,,,1,1251.732664856827,,X,l,go,l,1,0.4014225638238713,,,,,,,,,,,,,,,65,001,20,m,Psychologie,2023-01-25_09h15.51.110,00_bat_bachelor,2022.2.4,60.00509136249535,
,,,,,,,,,,,,0,0,0,0,19,0,19,0,,,,,,,19,,,1,1253.2494272729382,1254.049375006347,X,None,nogo,None,1,,,,,,,,,,,,,,,,65,001,20,m,Psychologie,2023-01-25_09h15.51.110,00_bat_bachelor,2022.2.4,60.00509136249535,
,,,,,,,,,,,,0,0,0,0,20,0,20,0,,,,,,,20,,,1,1255.049113673158,,Y,d,go,d,1,0.38062499824445695,,,,,,,,,,,,,,,65,001,20,m,Psychologie,2023-01-25_09h15.51.110,00_bat_bachelor,2022.2.4,60.00509136249535,
,,,,,,,,,,,,0,0,0,0,21,0,21,0,,,,,,,21,,,1,1256.5325718629174,,X,l,go,l,1,0.4647975635016337,,,,,,,,,,,,,,,65,001,20,m,Psychologie,2023-01-25_09h15.51.110,00_bat_bachelor,2022.2.4,60.00509136249535,
,,,,,,,,,,,,0,0,0,0,22,0,22,0,,,,,,,22,,,1,1258.099436072982,,Y,d,go,d,1,0.3712955480441451,,,,,,,,,,,,,,,65,001,20,m,Psychologie,2023-01-25_09h15.51.110,00_bat_bachelor,2022.2.4,60.00509136249535,
,,,,,,,,,,,,0,0,0,0,23,0,23,0,,,,,,,23,,,1,1259.5827837174293,,X,l,go,l,1,0.34301822853740305,,,,,,,,,,,,,,,65,001,20,m,Psychologie,2023-01-25_09h15.51.110,00_bat_bachelor,2022.2.4,60.00509136249535,
,,,,,,,,,,,,0,0,0,0,24,0,24,0,,,,,,,24,,,1,1261.0326472568559,1261.8327103841584,X,None,nogo,None,1,,,,,,,,,,,,,,,,65,001,20,m,Psychologie,2023-01-25_09h15.51.110,00_bat_bachelor,2022.2.4,60.00509136249535,
,,,,,,,,,,,,0,0,0,0,25,0,25,0,,,,,,,25,,,1,1262.8326919599203,1263.6326416325755,X,None,nogo,None,1,,,,,,,,,,,,,,,,65,001,20,m,Psychologie,2023-01-25_09h15.51.110,00_bat_bachelor,2022.2.4,60.00509136249535,
,,,,,,,,,,,,0,0,0,0,26,0,26,0,,,,,,,26,,,1,1264.6326736325864,,Y,d,go,d,1,0.3014657638268545,,,,,,,,,,,,,,,65,001,20,m,Psychologie,2023-01-25_09h15.51.110,00_bat_bachelor,2022.2.4,60.00509136249535,
,,,,,,,,,,,,0,0,0,0,27,0,27,0,,,,,,,27,,,1,1266.0490220368374,,X,l,go,l,1,0.4368024254217744,,,,,,,,,,,,,,,65,001,20,m,Psychologie,2023-01-25_09h15.51.110,00_bat_bachelor,2022.2.4,60.00509136249535,
,,,,,,,,,,,,0,0,0,0,28,0,28,0,,,,,,,28,,,1,1267.5993466185173,1268.399139685207,X,None,nogo,None,1,,,,,,,,,,,,,,,,65,001,20,m,Psychologie,2023-01-25_09h15.51.110,00_bat_bachelor,2022.2.4,60.00509136249535,
,,,,,,,,,,,,0,0,0,0,29,0,29,0,,,,,,,29,,,1,1269.3993573820917,,Y,d,go,d,1,0.3665765201440081,,,,,,,,,,,,,,,65,001,20,m,Psychologie,2023-01-25_09h15.51.110,00_bat_bachelor,2022.2.4,60.00509136249535,
,,,,,,,,,,,,0,0,0,0,30,0,30,0,,,,,,,30,,,1,1270.866012671031,,X,l,go,l,1,0.40400098683312535,,,,,,,,,,,,,,,65,001,20,m,Psychologie,2023-01-25_09h15.51.110,00_bat_bachelor,2022.2.4,60.00509136249535,
,,,,,,,,,,,,0,0,0,0,31,0,31,0,,,,,,,31,,,1,1272.3826684204396,,Y,d,go,d,1,0.34302598610520363,,,,,,,,,,,,,,,65,001,20,m,Psychologie,2023-01-25_09h15.51.110,00_bat_bachelor,2022.2.4,60.00509136249535,
,,,,,,,,,,,,0,0,0,0,32,0,32,0,,,,,,,32,,,1,1273.8325469902484,1274.6327143599046,Y,None,nogo,None,1,,,,,,,,,,,,,,,,65,001,20,m,Psychologie,2023-01-25_09h15.51.110,00_bat_bachelor,2022.2.4,60.00509136249535,
,,,,,,,,,,,,0,0,0,0,33,0,33,0,,,,,,,33,,,1,1275.6323546024505,,X,l,go,l,1,0.38969214528333396,,,,,,,,,,,,,,,65,001,20,m,Psychologie,2023-01-25_09h15.51.110,00_bat_bachelor,2022.2.4,60.00509136249535,
,,,,,,,,,,,,0,0,0,0,34,0,34,0,,,,,,,34,,,1,1277.132493026671,,Y,d,go,d,1,0.37663809093646705,,,,,,,,,,,,,,,65,001,20,m,Psychologie,2023-01-25_09h15.51.110,00_bat_bachelor,2022.2.4,60.00509136249535,
,,,,,,,,,,,,0,0,0,0,35,0,35,0,,,,,,,35,,,1,1278.6159943679813,1279.415867919568,Y,None,nogo,None,1,,,,,,,,,,,,,,,,65,001,20,m,Psychologie,2023-01-25_09h15.51.110,00_bat_bachelor,2022.2.4,60.00509136249535,
,,,,,,,,,,,,0,0,0,0,36,0,36,0,,,,,,,36,,,1,1280.4160041619325,1281.216005713446,Y,None,nogo,None,1,,,,,,,,,,,,,,,,65,001,20,m,Psychologie,2023-01-25_09h15.51.110,00_bat_bachelor,2022.2.4,60.00509136249535,
,,,,,,,,,,,,0,0,0,0,37,0,37,0,,,,,,,37,,,1,1282.2160323801218,,X,l,go,l,1,0.3019171574851498,,,,,,,,,,,,,,,65,001,20,m,Psychologie,2023-01-25_09h15.51.110,00_bat_bachelor,2022.2.4,60.00509136249535,
,,,,,,,,,,,,0,0,0,0,38,0,38,0,,,,,,,38,,,1,1283.632668784121,,Y,d,go,d,1,0.5172731742495671,,,,,,,,,,,,,,,65,001,20,m,Psychologie,2023-01-25_09h15.51.110,00_bat_bachelor,2022.2.4,60.00509136249535,
,,,,,,,,,,,,0,0,0,0,39,0,39,0,,,,,,,39,,,1,1285.26604641648,,X,l,go,l,1,0.4047020773869008,,,,,,,,,,,,,,,65,001,20,m,Psychologie,2023-01-25_09h15.51.110,00_bat_bachelor,2022.2.4,60.00509136249535,
,,,,,,,,,,,,0,0,0,0,40,0,40,0,,,,,,,40,,,1,1286.7826565902214,,Y,d,go,d,1,0.42250909900758415,,,,,,,,,,,,,,,65,001,20,m,Psychologie,2023-01-25_09h15.51.110,00_bat_bachelor,2022.2.4,60.00509136249535,
,,,,,,,,,,,,0,0,0,0,41,0,41,0,,,,,,,41,,,1,1288.31578602863,,X,l,go,l,1,0.37796754494775087,,,,,,,,,,,,,,,65,001,20,m,Psychologie,2023-01-25_09h15.51.110,00_bat_bachelor,2022.2.4,60.00509136249535,
,,,,,,,,,,,,0,0,0,0,42,0,42,0,,,,,,,42,,,1,1289.7994173093466,,Y,d,go,d,1,0.3665847625816241,,,,,,,,,,,,,,,65,001,20,m,Psychologie,2023-01-25_09h15.51.110,00_bat_bachelor,2022.2.4,60.00509136249535,
,,,,,,,,,,,,0,0,0,0,43,0,43,0,,,,,,,43,,,1,1291.2659887195332,1292.0660033619497,Y,None,nogo,None,1,,,,,,,,,,,,,,,,65,001,20,m,Psychologie,2023-01-25_09h15.51.110,00_bat_bachelor,2022.2.4,60.00509136249535,
,,,,,,,,,,,,0,0,0,0,44,0,44,0,,,,,,,44,,,1,1293.0660217861878,,Y,None,nogo,d,0,0.36371446086559445,,,,,,,,,,,,,,,65,001,20,m,Psychologie,2023-01-25_09h15.51.110,00_bat_bachelor,2022.2.4,60.00509136249535,
,,,,,,,,,,,,0,0,0,0,45,0,45,0,,,,,,,45,,,1,1294.5323226510081,,X,l,go,l,1,0.35315882961731404,,,,,,,,,,,,,,,65,001,20,m,Psychologie,2023-01-25_09h15.51.110,00_bat_bachelor,2022.2.4,60.00509136249535,
,,,,,,,,,,,,0,0,0,0,46,0,46,0,,,,,,,46,,,1,1295.9990201216424,,Y,d,go,d,1,0.4071641367627308,,,,,,,,,,,,,,,65,001,20,m,Psychologie,2023-01-25_09h15.51.110,00_bat_bachelor,2022.2.4,60.00509136249535,
,,,,,,,,,,,,0,0,0,0,47,0,47,0,,,,,,,47,,,1,1297.516008477076,1298.3160236043623,Y,None,nogo,None,1,,,,,,,,,,,,,,,,65,001,20,m,Psychologie,2023-01-25_09h15.51.110,00_bat_bachelor,2022.2.4,60.00509136249535,
,,,,,,,,,,,,0,0,0,0,48,0,48,0,,,,,,,48,,,1,1299.3156808166532,1300.1156634590589,Y,None,nogo,None,1,,,,,,,,,,,,,,,,65,001,20,m,Psychologie,2023-01-25_09h15.51.110,00_bat_bachelor,2022.2.4,60.00509136249535,
,,,,,,,,,,,,0,0,0,0,49,0,49,0,,,,,,,49,,,1,1301.1160285497317,,X,l,go,l,1,0.36161167407408357,,,,,,,,,,,,,,,65,001,20,m,Psychologie,2023-01-25_09h15.51.110,00_bat_bachelor,2022.2.4,60.00509136249535,
,,,,,,,,,,,,0,0,0,0,50,0,50,0,,,,,,,50,,,1,1302.582327960059,,Y,d,go,d,1,0.39971638284623623,,,,,,,,,,,,,,,65,001,20,m,Psychologie,2023-01-25_09h15.51.110,00_bat_bachelor,2022.2.4,60.00509136249535,
,,,,,,,,,,,,0,0,0,0,51,0,51,0,,,,,,,51,,,1,1304.08253571752,,X,l,go,l,1,0.3391549576772377,,,,,,,,,,,,,,,65,001,20,m,Psychologie,2023-01-25_09h15.51.110,00_bat_bachelor,2022.2.4,60.00509136249535,
,,,,,,,,,,,,0,0,0,0,52,0,52,0,,,,,,,52,,,1,1305.532686287188,,X,None,nogo,l,0,0.32929702301044017,,,,,,,,,,,,,,,65,001,20,m,Psychologie,2023-01-25_09h15.51.110,00_bat_bachelor,2022.2.4,60.00509136249535,
,,,,,,,,,,,,0,0,0,0,53,0,53,0,,,,,,,53,,,1,1306.965920986142,,Y,d,go,d,1,0.3514550728723407,,,,,,,,,,,,,,,65,001,20,m,Psychologie,2023-01-25_09h15.51.110,00_bat_bachelor,2022.2.4,60.00509136249535,
,,,,,,,,,,,,0,0,0,0,54,0,54,0,,,,,,,54,,,1,1308.4323168812552,,X,l,go,l,1,0.5016086971154436,,,,,,,,,,,,,,,65,001,20,m,Psychologie,2023-01-25_09h15.51.110,00_bat_bachelor,2022.2.4,60.00509136249535,
,,,,,,,,,,,,0,0,0,0,55,0,55,0,,,,,,,55,,,1,1310.0495059153764,,Y,d,go,d,1,0.5321488034678623,,,,,,,,,,,,,,,65,001,20,m,Psychologie,2023-01-25_09h15.51.110,00_bat_bachelor,2022.2.4,60.00509136249535,
,,,,,,,,,,,,0,0,0,0,56,0,56,0,,,,,,,56,,,1,1311.6824180933181,,X,l,go,l,1,0.4512882366543636,,,,,,,,,,,,,,,65,001,20,m,Psychologie,2023-01-25_09h15.51.110,00_bat_bachelor,2022.2.4,60.00509136249535,
,,,,,,,,,,,,0,0,0,0,57,0,57,0,,,,,,,57,,,1,1313.2493046063464,,Y,d,go,d,1,0.48445961449760944,,,,,,,,,,,,,,,65,001,20,m,Psychologie,2023-01-25_09h15.51.110,00_bat_bachelor,2022.2.4,60.00509136249535,
,,,,,,,,,,,,0,0,0,0,58,0,58,0,,,,,,,58,,,1,1314.849336315412,1315.6492864730535,Y,None,nogo,None,1,,,,,,,,,,,,,,,,65,001,20,m,Psychologie,2023-01-25_09h15.51.110,00_bat_bachelor,2022.2.4,60.00509136249535,
,,,,,,,,,,,,0,0,0,0,59,0,59,0,,,,,,,59,,,1,1316.6493461093633,,X,l,go,l,1,0.3970351720927283,,,,,,,,,,,,,,,65,001,20,m,Psychologie,2023-01-25_09h15.51.110,00_bat_bachelor,2022.2.4,60.00509136249535,
,,,,,,,,,,,,0,0,0,0,60,0,60,0,,,,,,,60,,,1,1318.149090836756,,Y,d,go,d,1,0.48033161647617817,,,,,,,,,,,,,,,65,001,20,m,Psychologie,2023-01-25_09h15.51.110,00_bat_bachelor,2022.2.4,60.00509136249535,
,,,,,,,,,,,,0,0,0,0,61,0,61,0,,,,,,,61,,,1,1319.732269705506,,X,l,go,l,1,0.38536342012230307,,,,,,,,,,,,,,,65,001,20,m,Psychologie,2023-01-25_09h15.51.110,00_bat_bachelor,2022.2.4,60.00509136249535,
,,,,,,,,,,,,0,0,0,0,62,0,62,0,,,,,,,62,,,1,1321.2325744326226,,Y,d,go,d,1,0.5009648186387494,,,,,,,,,,,,,,,65,001,20,m,Psychologie,2023-01-25_09h15.51.110,00_bat_bachelor,2022.2.4,60.00509136249535,
,,,,,,,,,,,,0,0,0,0,63,0,63,0,,,,,,,63,,,1,1322.8493101336062,1323.649309745757,Y,None,nogo,None,1,,,,,,,,,,,,,,,,65,001,20,m,Psychologie,2023-01-25_09h15.51.110,00_bat_bachelor,2022.2.4,60.00509136249535,
,,,,,,,,,,,,0,0,0,0,64,0,64,0,,,,,,,64,,,1,1324.649358230643,1325.4492691154592,Y,None,nogo,None,1,,,,,,,,,,,,,,,,65,001,20,m,Psychologie,2023-01-25_09h15.51.110,00_bat_bachelor,2022.2.4,60.00509136249535,
,,,,,,,,,,,,0,0,0,0,65,0,65,0,,,,,,,65,,,1,1326.449332630611,,X,l,go,l,1,0.32511617662385106,,,,,,,,,,,,,,,65,001,20,m,Psychologie,2023-01-25_09h15.51.110,00_bat_bachelor,2022.2.4,60.00509136249535,
,,,,,,,,,,,,0,0,0,0,66,0,66,0,,,,,,,66,,,1,1327.882623572019,,Y,d,go,d,1,0.3786725142272189,,,,,,,,,,,,,,,65,001,20,m,Psychologie,2023-01-25_09h15.51.110,00_bat_bachelor,2022.2.4,60.00509136249535,
,,,,,,,,,,,,0,0,0,0,67,0,67,0,,,,,,,67,,,1,1329.3658475801349,1330.165998464916,Y,None,nogo,None,1,,,,,,,,,,,,,,,,65,001,20,m,Psychologie,2023-01-25_09h15.51.110,00_bat_bachelor,2022.2.4,60.00509136249535,
,,,,,,,,,,,,0,0,0,0,68,0,68,0,,,,,,,68,,,1,1331.1659747073427,,X,l,go,l,1,0.39207953808363527,,,,,,,,,,,,,,,65,001,20,m,Psychologie,2023-01-25_09h15.51.110,00_bat_bachelor,2022.2.4,60.00509136249535,
,,,,,,,,,,,,0,0,0,0,69,0,69,0,,,,,,,69,,,1,1332.6659725256031,,Y,d,go,d,1,0.3954526273300871,,,,,,,,,,,,,,,65,001,20,m,Psychologie,2023-01-25_09h15.51.110,00_bat_bachelor,2022.2.4,60.00509136249535,
,,,,,,,,,,,,0,0,0,0,70,0,70,0,,,,,,,70,,,1,1334.1658311922802,1334.9659864406567,Y,None,nogo,None,1,,,,,,,,,,,,,,,,65,001,20,m,Psychologie,2023-01-25_09h15.51.110,00_bat_bachelor,2022.2.4,60.00509136249535,
,,,,,,,,,,,,0,0,0,0,71,0,71,0,,,,,,,71,,,1,1335.965982561931,,X,l,go,l,1,0.3914904474513605,,,,,,,,,,,,,,,65,001,20,m,Psychologie,2023-01-25_09h15.51.110,00_bat_bachelor,2022.2.4,60.00509136249535,
,,,,,,,,,,,,0,0,0,0,72,0,72,0,,,,,,,72,,,1,1337.465784016531,,Y,d,go,d,1,0.4272654603701085,,,,,,,,,,,,,,,65,001,20,m,Psychologie,2023-01-25_09h15.51.110,00_bat_bachelor,2022.2.4,60.00509136249535,
,,,,,,,,,,,,0,0,0,0,73,0,73,0,,,,,,,73,,,1,1338.9989100610837,1339.7992257942678,Y,None,nogo,None,1,,,,,,,,,,,,,,,,65,001,20,m,Psychologie,2023-01-25_09h15.51.110,00_bat_bachelor,2022.2.4,60.00509136249535,
,,,,,,,,,,,,0,0,0,0,74,0,74,0,,,,,,,74,,,1,1340.7994095517788,,X,l,go,l,1,0.4230288563994691,,,,,,,,,,,,,,,65,001,20,m,Psychologie,2023-01-25_09h15.51.110,00_bat_bachelor,2022.2.4,60.00509136249535,
,,,,,,,,,,,,0,0,0,0,75,0,75,0,,,,,,,75,,,1,1342.3326442022808,,Y,d,go,d,1,0.2650454178219661,,,,,,,,,,,,,,,65,001,20,m,Psychologie,2023-01-25_09h15.51.110,00_bat_bachelor,2022.2.4,60.00509136249535,
,,,,,,,,,,,,0,0,0,0,76,0,76,0,,,,,,,76,,,1,1343.6992767518386,1344.499395151739,Y,None,nogo,None,1,,,,,,,,,,,,,,,,65,001,20,m,Psychologie,2023-01-25_09h15.51.110,00_bat_bachelor,2022.2.4,60.00509136249535,
,,,,,,,,,,,,0,0,0,0,77,0,77,0,,,,,,,77,,,1,1345.4991745458683,,X,l,go,l,1,0.33133338566403836,,,,,,,,,,,,,,,65,001,20,m,Psychologie,2023-01-25_09h15.51.110,00_bat_bachelor,2022.2.4,60.00509136249535,
,,,,,,,,,,,,0,0,0,0,78,0,78,0,,,,,,,78,,,1,1346.9326099720784,,Y,d,go,d,1,0.3847990568028763,,,,,,,,,,,,,,,65,001,20,m,Psychologie,2023-01-25_09h15.51.110,00_bat_bachelor,2022.2.4,60.00509136249535,
,,,,,,,,,,,,0,0,0,0,79,0,79,0,,,,,,,79,,,1,1348.43269797205,1349.2326694629155,Y,None,nogo,None,1,,,,,,,,,,,,,,,,65,001,20,m,Psychologie,2023-01-25_09h15.51.110,00_bat_bachelor,2022.2.4,60.00509136249535,
,,,,,,,,,,,,0,0,0,0,80,0,80,0,,,,,,,80,,,1,1350.2326364932815,,X,l,go,l,1,0.300755946082063,,,,,,,,,,,,,,,65,001,20,m,Psychologie,2023-01-25_09h15.51.110,00_bat_bachelor,2022.2.4,60.00509136249535,
,,,,,,,,,,,,0,0,0,0,81,0,81,0,,,,,,,81,,,1,1351.6493955638725,,Y,d,go,d,1,0.2928887982852757,,,,,,,,,,,,,,,65,001,20,m,Psychologie,2023-01-25_09h15.51.110,00_bat_bachelor,2022.2.4,60.00509136249535,
,,,,,,,,,,,,0,0,0,0,82,0,82,0,,,,,,,82,,,1,1353.0492828851566,,X,l,go,l,1,0.39633408142253757,,,,,,,,,,,,,,,65,001,20,m,Psychologie,2023-01-25_09h15.51.110,00_bat_bachelor,2022.2.4,60.00509136249535,
,,,,,,,,,,,,0,0,0,0,83,0,83,0,,,,,,,83,,,1,1354.549309794209,,Y,d,go,d,1,0.3528650115476921,,,,,,,,,,,,,,,65,001,20,m,Psychologie,2023-01-25_09h15.51.110,00_bat_bachelor,2022.2.4,60.00509136249535,
,,,,,,,,,,,,0,0,0,0,84,0,84,0,,,,,,,84,,,1,1356.0157357499702,,X,l,go,l,1,0.37360827426891774,,,,,,,,,,,,,,,65,001,20,m,Psychologie,2023-01-25_09h15.51.110,00_bat_bachelor,2022.2.4,60.00509136249535,
,,,,,,,,,,,,0,0,0,0,85,0,85,0,,,,,,,85,,,1,1357.4995420607738,1358.2994364608312,X,None,nogo,None,1,,,,,,,,,,,,,,,,65,001,20,m,Psychologie,2023-01-25_09h15.51.110,00_bat_bachelor,2022.2.4,60.00509136249535,
,,,,,,,,,,,,0,0,0,0,86,0,86,0,,,,,,,86,,,1,1359.2989811883308,,Y,d,go,d,1,0.30690139753278345,,,,,,,,,,,,,,,65,001,20,m,Psychologie,2023-01-25_09h15.51.110,00_bat_bachelor,2022.2.4,60.00509136249535,
,,,,,,,,,,,,0,0,0,0,87,0,87,0,,,,,,,87,,,1,1360.7159380770754,,X,l,go,l,1,0.3776339692994952,,,,,,,,,,,,,,,65,001,20,m,Psychologie,2023-01-25_09h15.51.110,00_bat_bachelor,2022.2.4,60.00509136249535,
,,,,,,,,,,,,0,0,0,0,88,0,88,0,,,,,,,88,,,1,1362.199297842686,1362.9993735760218,X,None,nogo,None,1,,,,,,,,,,,,,,,,65,001,20,m,Psychologie,2023-01-25_09h15.51.110,00_bat_bachelor,2022.2.4,60.00509136249535,
,,,,,,,,,,,,0,0,0,0,89,0,89,0,,,,,,,89,,,1,1363.9992368487874,,Y,d,go,d,1,0.438926545670256,,,,,,,,,,,,,,,65,001,20,m,Psychologie,2023-01-25_09h15.51.110,00_bat_bachelor,2022.2.4,60.00509136249535,
,,,,,,,,,,,,0,0,0,0,90,0,90,0,,,,,,,90,,,1,1365.5492962185526,,X,l,go,l,1,0.4404058175859973,,,,,,,,,,,,,,,65,001,20,m,Psychologie,2023-01-25_09h15.51.110,00_bat_bachelor,2022.2.4,60.00509136249535,
,,,,,,,,,,,,0,0,0,0,91,0,91,0,,,,,,,91,,,1,1367.099294982152,,Y,d,go,d,1,0.4104383169906214,,,,,,,,,,,,,,,65,001,20,m,Psychologie,2023-01-25_09h15.51.110,00_bat_bachelor,2022.2.4,60.00509136249535,
,,,,,,,,,,,,0,0,0,0,92,0,92,0,,,,,,,92,,,1,1368.6157441863324,1369.4160065861652,Y,None,nogo,None,1,,,,,,,,,,,,,,,,65,001,20,m,Psychologie,2023-01-25_09h15.51.110,00_bat_bachelor,2022.2.4,60.00509136249535,
,,,,,,,,,,,,0,0,0,0,93,0,93,0,,,,,,,93,,,1,1370.415936768055,,X,l,go,l,1,0.32580514589790255,,,,,,,,,,,,,,,65,001,20,m,Psychologie,2023-01-25_09h15.51.110,00_bat_bachelor,2022.2.4,60.00509136249535,
,,,,,,,,,,,,0,0,0,0,94,0,94,0,,,,,,,94,,,1,1371.8492650428088,,Y,d,go,d,1,0.2204078637296334,,,,,,,,,,,,,,,65,001,20,m,Psychologie,2023-01-25_09h15.51.110,00_bat_bachelor,2022.2.4,60.00509136249535,
,,,,,,,,,,,,0,0,0,0,95,0,95,0,,,,,,,95,,,1,1373.1825802751118,1373.9822555236751,Y,None,nogo,None,1,,,,,,,,,,,,,,,,65,001,20,m,Psychologie,2023-01-25_09h15.51.110,00_bat_bachelor,2022.2.4,60.00509136249535,
,,,,,,,,,,,,0,0,0,0,96,0,96,0,,,,,,,96,,,1,1374.982669099234,,X,l,go,l,1,0.23973052098881453,,,,,,,,,,,,,,,65,001,20,m,Psychologie,2023-01-25_09h15.51.110,00_bat_bachelor,2022.2.4,60.00509136249535,
,,,,,,,,,,,,0,0,0,0,97,0,97,0,,,,,,,97,,,1,1376.3326189902145,,Y,d,go,d,1,0.5053148770239204,,,,,,,,,,,,,,,65,001,20,m,Psychologie,2023-01-25_09h15.51.110,00_bat_bachelor,2022.2.4,60.00509136249535,
,,,,,,,,,,,,0,0,0,0,98,0,98,0,,,,,,,98,,,1,1377.9491665700916,1378.7492253336823,Y,None,nogo,None,1,,,,,,,,,,,,,,,,65,001,20,m,Psychologie,2023-01-25_09h15.51.110,00_bat_bachelor,2022.2.4,60.00509136249535,
,,,,,,,,,,,,0,0,0,0,99,0,99,0,,,,,,,99,,,1,1379.7493004851276,1380.5492569458438,Y,None,nogo,None,1,,,,,,,,,,,,,,,,65,001,20,m,Psychologie,2023-01-25_09h15.51.110,00_bat_bachelor,2022.2.4,60.00509136249535,
,,,,,,,,,,,,0,0,0,0,100,0,100,0,,,,,,,100,,,1,1381.5492370669963,,X,l,go,l,1,0.2817852885928005,,,,,,,,,,,,,,,65,001,20,m,Psychologie,2023-01-25_09h15.51.110,00_bat_bachelor,2022.2.4,60.00509136249535,
,,,,,,,,,,,,0,0,0,0,101,0,101,0,,,,,,,101,,,1,1382.932779184077,,Y,d,go,d,1,0.625639182399027,,,,,,,,,,,,,,,65,001,20,m,Psychologie,2023-01-25_09h15.51.110,00_bat_bachelor,2022.2.4,60.00509136249535,
,,,,,,,,,,,,0,0,0,0,102,0,102,0,,,,,,,102,,,1,1384.6661553133745,,X,l,go,l,1,0.3803025741362944,,,,,,,,,,,,,,,65,001,20,m,Psychologie,2023-01-25_09h15.51.110,00_bat_bachelor,2022.2.4,60.00509136249535,
,,,,,,,,,,,,0,0,0,0,103,0,103,0,,,,,,,103,,,1,1386.1492818669649,,X,None,nogo,l,0,0.41627152636647224,,,,,,,,,,,,,,,65,001,20,m,Psychologie,2023-01-25_09h15.51.110,00_bat_bachelor,2022.2.4,60.00509136249535,
,,,,,,,,,,,,0,0,0,0,104,0,104,0,,,,,,,104,,,1,1387.6658590710722,,Y,d,go,d,1,0.5317187431501225,,,,,,,,,,,,,,,65,001,20,m,Psychologie,2023-01-25_09h15.51.110,00_bat_bachelor,2022.2.4,60.00509136249535,
,,,,,,,,,,,,0,0,0,0,105,0,105,0,,,,,,,105,,,1,1389.2989200974116,,X,l,go,l,1,0.46632289595436305,,,,,,,,,,,,,,,65,001,20,m,Psychologie,2023-01-25_09h15.51.110,00_bat_bachelor,2022.2.4,60.00509136249535,
,,,,,,,,,,,,0,0,0,0,106,0,106,0,,,,,,,106,,,1,1390.8659389740787,1391.6659594347002,X,None,nogo,None,1,,,,,,,,,,,,,,,,65,001,20,m,Psychologie,2023-01-25_09h15.51.110,00_bat_bachelor,2022.2.4,60.00509136249535,
,,,,,,,,,,,,0,0,0,0,107,0,107,0,,,,,,,107,,,1,1392.6657228287077,,Y,d,go,d,1,0.3802749377209693,,,,,,,,,,,,,,,65,001,20,m,Psychologie,2023-01-25_09h15.51.110,00_bat_bachelor,2022.2.4,60.00509136249535,
,,,,,,,,,,,,0,0,0,0,108,0,108,0,,,,,,,108,,,1,1394.1489293823252,,X,l,go,l,1,0.41655419289600104,,,,,,,,,,,,,,,65,001,20,m,Psychologie,2023-01-25_09h15.51.110,00_bat_bachelor,2022.2.4,60.00509136249535,
,,,,,,,,,,,,0,0,0,0,109,0,109,0,,,,,,,109,,,1,1395.6656767681707,,Y,d,go,d,1,0.45211393327917904,,,,,,,,,,,,,,,65,001,20,m,Psychologie,2023-01-25_09h15.51.110,00_bat_bachelor,2022.2.4,60.00509136249535,
,,,,,,,,,,,,0,0,0,0,110,0,110,0,,,,,,,110,,,1,1397.2324280084576,1398.0323587721214,Y,None,nogo,None,1,,,,,,,,,,,,,,,,65,001,20,m,Psychologie,2023-01-25_09h15.51.110,00_bat_bachelor,2022.2.4,60.00509136249535,
,,,,,,,,,,,,0,0,0,0,111,0,111,0,,,,,,,111,,,1,1399.032307863119,,X,l,go,l,1,0.31716515007428825,,,,,,,,,,,,,,,65,001,20,m,Psychologie,2023-01-25_09h15.51.110,00_bat_bachelor,2022.2.4,60.00509136249535,
,,,,,,,,,,,,0,0,0,0,112,0,112,0,,,,,,,112,,,1,1400.4492114185123,,Y,d,go,d,1,0.40388898691162467,,,,,,,,,,,,,,,65,001,20,m,Psychologie,2023-01-25_09h15.51.110,00_bat_bachelor,2022.2.4,60.00509136249535,
,,,,,,,,,,,,0,0,0,0,113,0,113,0,,,,,,,113,,,1,1401.965932622552,,X,l,go,l,1,0.4883505216566846,,,,,,,,,,,,,,,65,001,20,m,Psychologie,2023-01-25_09h15.51.110,00_bat_bachelor,2022.2.4,60.00509136249535,
,,,,,,,,,,,,0,0,0,0,114,0,114,0,,,,,,,114,,,1,1403.5659400891745,1404.3659581255633,X,None,nogo,None,1,,,,,,,,,,,,,,,,65,001,20,m,Psychologie,2023-01-25_09h15.51.110,00_bat_bachelor,2022.2.4,60.00509136249535,
,,,,,,,,,,,,0,0,0,0,115,0,115,0,,,,,,,115,,,1,1405.3657312166179,,Y,d,go,d,1,0.33553798974025995,,,,,,,,,,,,,,,65,001,20,m,Psychologie,2023-01-25_09h15.51.110,00_bat_bachelor,2022.2.4,60.00509136249535,
,,,,,,,,,,,,0,0,0,0,116,0,116,0,,,,,,,116,,,1,1406.815936574014,,X,l,go,l,1,0.3901125086704269,,,,,,,,,,,,,,,65,001,20,m,Psychologie,2023-01-25_09h15.51.110,00_bat_bachelor,2022.2.4,60.00509136249535,
,,,,,,,,,,,,0,0,0,0,117,0,117,0,,,,,,,117,,,1,1408.3159518467728,1409.1158898831345,X,None,nogo,None,1,,,,,,,,,,,,,,,,65,001,20,m,Psychologie,2023-01-25_09h15.51.110,00_bat_bachelor,2022.2.4,60.00509136249535,
,,,,,,,,,,,,0,0,0,0,118,0,118,0,,,,,,,118,,,1,1410.1160169134382,,Y,d,go,d,1,0.3220626023830846,,,,,,,,,,,,,,,65,001,20,m,Psychologie,2023-01-25_09h15.51.110,00_bat_bachelor,2022.2.4,60.00509136249535,
,,,,,,,,,,,,0,0,0,0,119,0,119,0,,,,,,,119,,,1,1411.5491400973406,,X,l,go,l,1,0.4084363786969334,,,,,,,,,,,,,,,65,001,20,m,Psychologie,2023-01-25_09h15.51.110,00_bat_bachelor,2022.2.4,60.00509136249535,
,,,,,,,,,,,,0,0,0,0,120,0,120,0,,,,,,,120,,,1,1413.0658899074188,1413.8656073379098,X,None,nogo,None,1,,,,,,,,,,,,,,,,65,001,20,m,Psychologie,2023-01-25_09h15.51.110,00_bat_bachelor,2022.2.4,60.00509136249535,
,,,,,,,,,,,,0,0,0,0,121,0,121,0,,,,,,,121,,,1,1414.8659472165164,,Y,d,go,d,1,0.340046108700335,,,,,,,,,,,,,,,65,001,20,m,Psychologie,2023-01-25_09h15.51.110,00_bat_bachelor,2022.2.4,60.00509136249535,
,,,,,,,,,,,,0,0,0,0,122,0,122,0,,,,,,,122,,,1,1416.3159402104793,,X,l,go,l,1,0.3463976208586246,,,,,,,,,,,,,,,65,001,20,m,Psychologie,2023-01-25_09h15.51.110,00_bat_bachelor,2022.2.4,60.00509136249535,
,,,,,,,,,,,,0,0,0,0,123,0,123,0,,,,,,,123,,,1,1417.7655443560798,,Y,d,go,d,1,0.41553892055526376,,,,,,,,,,,,,,,65,001,20,m,Psychologie,2023-01-25_09h15.51.110,00_bat_bachelor,2022.2.4,60.00509136249535,
,,,,,,,,,,,,0,0,0,0,124,0,124,0,,,,,,,124,,,1,1419.2825947720557,1420.0825720811263,Y,None,nogo,None,1,,,,,,,,,,,,,,,,65,001,20,m,Psychologie,2023-01-25_09h15.51.110,00_bat_bachelor,2022.2.4,60.00509136249535,
,,,,,,,,,,,,0,0,0,0,125,0,125,0,,,,,,,125,,,1,1421.0823495357763,,X,l,go,l,1,0.2987966741202399,,,,,,,,,,,,,,,65,001,20,m,Psychologie,2023-01-25_09h15.51.110,00_bat_bachelor,2022.2.4,60.00509136249535,
,,,,,,,,,,,,0,0,0,0,126,0,126,0,,,,,,,126,,,1,1422.4823871600674,,Y,d,go,d,1,0.4349992749048397,,,,,,,,,,,,,,,65,001,20,m,Psychologie,2023-01-25_09h15.51.110,00_bat_bachelor,2022.2.4,60.00509136249535,
,,,,,,,,,,,,0,0,0,0,127,0,127,0,,,,,,,127,,,1,1424.0324634993449,1424.83258820232,Y,None,nogo,None,1,,,,,,,,,,,,,,,,65,001,20,m,Psychologie,2023-01-25_09h15.51.110,00_bat_bachelor,2022.2.4,60.00509136249535,
,,,,,,,,,,,,0,0,0,0,128,0,128,0,,,,,,,128,,,1,1425.8325591114117,,X,l,go,l,1,0.31685145338997245,,,,,,,,,,,,,,,65,001,20,m,Psychologie,2023-01-25_09h15.51.110,00_bat_bachelor,2022.2.4,60.00509136249535,
,,,,,,,,,,,,0,0,0,0,129,0,129,0,,,,,,,129,,,1,1427.2491126065142,,Y,d,go,d,1,0.3879864491755143,,,,,,,,,,,,,,,65,001,20,m,Psychologie,2023-01-25_09h15.51.110,00_bat_bachelor,2022.2.4,60.00509136249535,
,,,,,,,,,,,,0,0,0,0,130,0,130,0,,,,,,,130,,,1,1428.7489601216512,1429.5492550063645,Y,None,nogo,None,1,,,,,,,,,,,,,,,,65,001,20,m,Psychologie,2023-01-25_09h15.51.110,00_bat_bachelor,2022.2.4,60.00509136249535,
,,,,,,,,,,,,0,0,0,0,131,0,131,0,,,,,,,131,,,1,1430.5491129459115,,X,l,go,l,1,0.320721996948123,,,,,,,,,,,,,,,65,001,20,m,Psychologie,2023-01-25_09h15.51.110,00_bat_bachelor,2022.2.4,60.00509136249535,
,,,,,,,,,,,,0,0,0,0,132,0,132,0,,,,,,,132,,,1,1431.9825507963542,,Y,d,go,d,1,0.43896727287210524,,,,,,,,,,,,,,,65,001,20,m,Psychologie,2023-01-25_09h15.51.110,00_bat_bachelor,2022.2.4,60.00509136249535,
,,,,,,,,,,,,0,0,0,0,133,0,133,0,,,,,,,133,,,1,1433.5323614388471,,X,l,go,l,1,0.34548901522066444,,,,,,,,,,,,,,,65,001,20,m,Psychologie,2023-01-25_09h15.51.110,00_bat_bachelor,2022.2.4,60.00509136249535,
,,,,,,,,,,,,0,0,0,0,134,0,134,0,,,,,,,134,,,1,1434.9823098267661,,Y,d,go,d,1,0.3508693762123585,,,,,,,,,,,,,,,65,001,20,m,Psychologie,2023-01-25_09h15.51.110,00_bat_bachelor,2022.2.4,60.00509136249535,
,,,,,,,,,,,,0,0,0,0,135,0,135,0,,,,,,,135,,,1,1436.4490480247186,,X,l,go,l,1,0.3885066913207993,,,,,,,,,,,,,,,65,001,20,m,Psychologie,2023-01-25_09h15.51.110,00_bat_bachelor,2022.2.4,60.00509136249535,
,,,,,,,,,,,,0,0,0,0,136,0,136,0,,,,,,,136,,,1,1437.9489832974505,,Y,d,go,d,1,0.2963918268214911,,,,,,,,,,,,,,,65,001,20,m,Psychologie,2023-01-25_09h15.51.110,00_bat_bachelor,2022.2.4,60.00509136249535,
,,,,,,,,,,,,0,0,0,0,137,0,137,0,,,,,,,137,,,1,1439.3491072246106,1440.1492527760565,Y,None,nogo,None,1,,,,,,,,,,,,,,,,65,001,20,m,Psychologie,2023-01-25_09h15.51.110,00_bat_bachelor,2022.2.4,60.00509136249535,
,,,,,,,,,,,,0,0,0,0,138,0,138,0,,,,,,,138,,,1,1441.1495199274505,,X,l,go,l,1,0.27967910771258175,,,,,,,,,,,,,,,65,001,20,m,Psychologie,2023-01-25_09h15.51.110,00_bat_bachelor,2022.2.4,60.00509136249535,
,,,,,,,,,,,,0,0,0,0,139,0,139,0,,,,,,,139,,,1,1442.5325796204852,,Y,d,go,d,1,0.353061375208199,,,,,,,,,,,,,,,65,001,20,m,Psychologie,2023-01-25_09h15.51.110,00_bat_bachelor,2022.2.4,60.00509136249535,
,,,,,,,,,,,,0,0,0,0,140,0,140,0,,,,,,,140,,,1,1443.999230545829,,X,l,go,l,1,0.3901415995787829,,,,,,,,,,,,,,,65,001,20,m,Psychologie,2023-01-25_09h15.51.110,00_bat_bachelor,2022.2.4,60.00509136249535,
,,,,,,,,,,,,0,0,0,0,141,0,141,0,,,,,,,141,,,1,1445.5161141739227,,Y,d,go,d,1,0.39427396131213754,,,,,,,,,,,,,,,65,001,20,m,Psychologie,2023-01-25_09h15.51.110,00_bat_bachelor,2022.2.4,60.00509136249535,
,,,,,,,,,,,,0,0,0,0,142,0,142,0,,,,,,,142,,,1,1447.0156164772343,1447.815890028607,Y,None,nogo,None,1,,,,,,,,,,,,,,,,65,001,20,m,Psychologie,2023-01-25_09h15.51.110,00_bat_bachelor,2022.2.4,60.00509136249535,
,,,,,,,,,,,,0,0,0,0,143,0,143,0,,,,,,,143,,,1,1448.8156926954398,,X,l,go,l,1,0.40637819783296436,,,,,,,,,,,,,,,65,001,20,m,Psychologie,2023-01-25_09h15.51.110,00_bat_bachelor,2022.2.4,60.00509136249535,
,,,,,,,,,,,,0,0,0,0,144,0,144,0,,,,,,,144,,,1,1450.3325229902985,,Y,d,go,d,1,0.4738986499141902,,,,,,,,,,,,,,,65,001,20,m,Psychologie,2023-01-25_09h15.51.110,00_bat_bachelor,2022.2.4,60.00509136249535,
,,,,,,,,,,,,0,0,0,0,145,0,145,0,,,,,,,145,,,1,1451.9157653742004,,X,l,go,l,1,0.4096669234568253,,,,,,,,,,,,,,,65,001,20,m,Psychologie,2023-01-25_09h15.51.110,00_bat_bachelor,2022.2.4,60.00509136249535,
,,,,,,,,,,,,0,0,0,0,146,0,146,0,,,,,,,146,,,1,1453.4326373660006,,Y,d,go,d,1,0.4135549215134233,,,,,,,,,,,,,,,65,001,20,m,Psychologie,2023-01-25_09h15.51.110,00_bat_bachelor,2022.2.4,60.00509136249535,
,,,,,,,,,,,,0,0,0,0,147,0,147,0,,,,,,,147,,,1,1454.949248994235,,X,l,go,l,1,0.38448390539269894,,,,,,,,,,,,,,,65,001,20,m,Psychologie,2023-01-25_09h15.51.110,00_bat_bachelor,2022.2.4,60.00509136249535,
,,,,,,,,,,,,0,0,0,0,148,0,148,0,,,,,,,148,,,1,1456.4489171156893,,Y,d,go,d,1,0.40442668355535716,,,,,,,,,,,,,,,65,001,20,m,Psychologie,2023-01-25_09h15.51.110,00_bat_bachelor,2022.2.4,60.00509136249535,
,,,,,,,,,,,,0,0,0,0,149,0,149,0,,,,,,,149,,,1,1457.965729955933,1458.765675749979,Y,None,nogo,None,1,,,,,,,,,,,,,,,,65,001,20,m,Psychologie,2023-01-25_09h15.51.110,00_bat_bachelor,2022.2.4,60.00509136249535,
,,,,,,,,,,,,0,0,0,0,150,0,150,0,,,,,,,150,,,1,1459.7655535681406,,X,l,go,l,1,0.3671234289649874,,,,,,,,,,,,,,,65,001,20,m,Psychologie,2023-01-25_09h15.51.110,00_bat_bachelor,2022.2.4,60.00509136249535,
,,,,,,,,,,,,0,0,0,0,151,0,151,0,,,,,,,151,,,1,1461.249199879123,,Y,d,go,d,1,0.38818184297997504,,,,,,,,,,,,,,,65,001,20,m,Psychologie,2023-01-25_09h15.51.110,00_bat_bachelor,2022.2.4,60.00509136249535,
,,,,,,,,,,,,0,0,0,0,152,0,152,0,,,,,,,152,,,1,1462.7492282427847,,X,l,go,l,1,0.28001074388157576,,,,,,,,,,,,,,,65,001,20,m,Psychologie,2023-01-25_09h15.51.110,00_bat_bachelor,2022.2.4,60.00509136249535,
,,,,,,,,,,,,0,0,0,0,153,0,153,0,,,,,,,153,,,1,1464.1323049055645,,Y,d,go,d,1,0.27301971695851535,,,,,,,,,,,,,,,65,001,20,m,Psychologie,2023-01-25_09h15.51.110,00_bat_bachelor,2022.2.4,60.00509136249535,
,,,,,,,,,,,,0,0,0,0,154,0,154,0,,,,,,,154,,,1,1465.5157364772167,1466.3155280894134,Y,None,nogo,None,1,,,,,,,,,,,,,,,,65,001,20,m,Psychologie,2023-01-25_09h15.51.110,00_bat_bachelor,2022.2.4,60.00509136249535,
,,,,,,,,,,,,0,0,0,0,155,0,155,0,,,,,,,155,,,1,1467.3155596045544,,X,l,go,l,1,0.24213100469205528,,,,,,,,,,,,,,,65,001,20,m,Psychologie,2023-01-25_09h15.51.110,00_bat_bachelor,2022.2.4,60.00509136249535,
,,,,,,,,,,,,0,0,0,0,156,0,156,0,,,,,,,156,,,1,1468.6658881619805,,Y,d,go,d,1,0.2516311212675646,,,,,,,,,,,,,,,65,001,20,m,Psychologie,2023-01-25_09h15.51.110,00_bat_bachelor,2022.2.4,60.00509136249535,
,,,,,,,,,,,,0,0,0,0,157,0,157,0,,,,,,,157,,,1,1470.0322055601282,,X,l,go,l,1,0.2613542681792751,,,,,,,,,,,,,,,65,001,20,m,Psychologie,2023-01-25_09h15.51.110,00_bat_bachelor,2022.2.4,60.00509136249535,
,,,,,,,,,,,,0,0,0,0,158,0,158,0,,,,,,,158,,,1,1471.3992245336995,,Y,d,go,d,1,0.22182071150746197,,,,,,,,,,,,,,,65,001,20,m,Psychologie,2023-01-25_09h15.51.110,00_bat_bachelor,2022.2.4,60.00509136249535,
,,,,,,,,,,,,0,0,0,0,159,0,159,0,,,,,,,159,,,1,1472.7324326145463,,X,l,go,l,1,0.31288103095721453,,,,,,,,,,,,,,,65,001,20,m,Psychologie,2023-01-25_09h15.51.110,00_bat_bachelor,2022.2.4,60.00509136249535,
,,,,,,,,,,,,0,0,0,0,160,0,160,0,,,,,,,160,,,1,1474.1492464730982,1474.9492237821687,X,None,nogo,None,1,,,,,,,,,,,,,,,,65,001,20,m,Psychologie,2023-01-25_09h15.51.110,00_bat_bachelor,2022.2.4,60.00509136249535,
,,,,,,,,,,,,0,0,0,0,161,0,161,0,,,,,,,161,,,1,1475.9492388124345,,Y,d,go,d,1,0.3120369102107361,,,,,,,,,,,,,,,65,001,20,m,Psychologie,2023-01-25_09h15.51.110,00_bat_bachelor,2022.2.4,60.00509136249535,
,,,,,,,,,,,,0,0,0,0,162,0,162,0,,,,,,,162,,,1,1477.3658761861734,,X,l,go,l,1,0.2722032325109467,,,,,,,,,,,,,,,65,001,20,m,Psychologie,2023-01-25_09h15.51.110,00_bat_bachelor,2022.2.4,60.00509136249535,
,,,,,,,,,,,,0,0,0,0,163,0,163,0,,,,,,,163,,,1,1478.7489552731859,,Y,d,go,d,1,0.2641004486940801,,,,,,,,,,,,,,,65,001,20,m,Psychologie,2023-01-25_09h15.51.110,00_bat_bachelor,2022.2.4,60.00509136249535,
,,,,,,,,,,,,0,0,0,0,164,0,164,0,,,,,,,164,,,1,1480.115579580306,1480.9157023439184,Y,None,nogo,None,1,,,,,,,,,,,,,,,,65,001,20,m,Psychologie,2023-01-25_09h15.51.110,00_bat_bachelor,2022.2.4,60.00509136249535,
,,,,,,,,,,,,0,0,0,0,165,0,165,0,,,,,,,165,,,1,1481.9157416166272,,X,l,go,l,1,0.2813988644629717,,,,,,,,,,,,,,,65,001,20,m,Psychologie,2023-01-25_09h15.51.110,00_bat_bachelor,2022.2.4,60.00509136249535,
,,,,,,,,,,,,0,0,0,0,166,0,166,0,,,,,,,166,,,1,1483.2992633699905,,Y,d,go,d,1,0.2902167995925993,,,,,,,,,,,,,,,65,001,20,m,Psychologie,2023-01-25_09h15.51.110,00_bat_bachelor,2022.2.4,60.00509136249535,
,,,,,,,,,,,,0,0,0,0,167,0,167,0,,,,,,,167,,,1,1484.698843782302,,X,l,go,l,1,0.26634820515755564,,,,,,,,,,,,,,,65,001,20,m,Psychologie,2023-01-25_09h15.51.110,00_bat_bachelor,2022.2.4,60.00509136249535,
,,,,,,,,,,,,0,0,0,0,168,0,168,0,,,,,,,168,,,1,1486.0657439681236,,Y,d,go,d,1,0.30862600274849683,,,,,,,,,,,,,,,65,001,20,m,Psychologie,2023-01-25_09h15.51.110,00_bat_bachelor,2022.2.4,60.00509136249535,
,,,,,,,,,,,,0,0,0,0,169,0,169,0,,,,,,,169,,,1,1487.4822533419356,,X,l,go,l,1,0.18736012221779674,,,,,,,,,,,,,,,65,001,20,m,Psychologie,2023-01-25_09h15.51.110,00_bat_bachelor,2022.2.4,60.00509136249535,
,,,,,,,,,,,,0,0,0,0,170,0,170,0,,,,,,,170,,,1,1488.782570287236,1489.5825752326054,X,None,nogo,None,1,,,,,,,,,,,,,,,,65,001,20,m,Psychologie,2023-01-25_09h15.51.110,00_bat_bachelor,2022.2.4,60.00509136249535,
,,,,,,,,,,,,0,0,0,0,171,0,171,0,,,,,,,171,,,1,1490.582354141865,,Y,d,go,d,1,0.25577657378744334,,,,,,,,,,,,,,,65,001,20,m,Psychologie,2023-01-25_09h15.51.110,00_bat_bachelor,2022.2.4,60.00509136249535,
,,,,,,,,,,,,0,0,0,0,172,0,172,0,,,,,,,172,,,1,1491.9488780853571,,X,l,go,l,1,0.26419984246604145,,,,,,,,,,,,,,,65,001,20,m,Psychologie,2023-01-25_09h15.51.110,00_bat_bachelor,2022.2.4,60.00509136249535,
,,,,,,,,,,,,0,0,0,0,173,0,173,0,,,,,,,173,,,1,1493.315677422681,,Y,d,go,d,1,0.2579962090821937,,,,,,,,,,,,,,,65,001,20,m,Psychologie,2023-01-25_09h15.51.110,00_bat_bachelor,2022.2.4,60.00509136249535,
,,,,,,,,,,,,0,0,0,0,174,0,174,0,,,,,,,174,,,1,1494.6824917902704,1495.482302311575,Y,None,nogo,None,1,,,,,,,,,,,,,,,,65,001,20,m,Psychologie,2023-01-25_09h15.51.110,00_bat_bachelor,2022.2.4,60.00509136249535,
,,,,,,,,,,,,0,0,0,0,175,0,175,0,,,,,,,175,,,1,1496.4825660689967,1497.2825443478068,Y,None,nogo,None,1,,,,,,,,,,,,,,,,65,001,20,m,Psychologie,2023-01-25_09h15.51.110,00_bat_bachelor,2022.2.4,60.00509136249535,
,,,,,,,,,,,,0,0,0,0,176,0,176,0,,,,,,,176,,,1,1498.282562287175,,X,l,go,l,1,0.23554143216460943,,,,,,,,,,,,,,,65,001,20,m,Psychologie,2023-01-25_09h15.51.110,00_bat_bachelor,2022.2.4,60.00509136249535,
,,,,,,,,,,,,0,0,0,0,177,0,177,0,,,,,,,177,,,1,1499.6323085419135,,Y,d,go,d,1,0.24484421557281166,,,,,,,,,,,,,,,65,001,20,m,Psychologie,2023-01-25_09h15.51.110,00_bat_bachelor,2022.2.4,60.00509136249535,
,,,,,,,,,,,,0,0,0,0,178,0,178,0,,,,,,,178,,,1,1500.9825425539166,,X,l,go,l,1,0.23875209724064916,,,,,,,,,,,,,,,65,001,20,m,Psychologie,2023-01-25_09h15.51.110,00_bat_bachelor,2022.2.4,60.00509136249535,
,,,,,,,,,,,,0,0,0,0,179,0,179,0,,,,,,,179,,,1,1502.3323785054963,,Y,d,go,d,1,0.21702507743611932,,,,,,,,,,,,,,,65,001,20,m,Psychologie,2023-01-25_09h15.51.110,00_bat_bachelor,2022.2.4,60.00509136249535,
,,,,,,,,,,,,0,0,0,0,180,0,180,0,,,,,,,180,,,1,1503.6658581013326,,X,l,go,l,1,0.24359136761631817,,,,,,,,,,,,,,,65,001,20,m,Psychologie,2023-01-25_09h15.51.110,00_bat_bachelor,2022.2.4,60.00509136249535,
,,,,,,,,,,,,0,0,0,0,181,0,181,0,,,,,,,181,,,1,1505.0155975681264,,Y,d,go,d,1,0.2216534388717264,,,,,,,,,,,,,,,65,001,20,m,Psychologie,2023-01-25_09h15.51.110,00_bat_bachelor,2022.2.4,60.00509136249535,
,,,,,,,,,,,,0,0,0,0,182,0,182,0,,,,,,,182,,,1,1506.3489821337862,,X,l,go,l,1,0.280436925473623,,,,,,,,,,,,,,,65,001,20,m,Psychologie,2023-01-25_09h15.51.110,00_bat_bachelor,2022.2.4,60.00509136249535,
,,,,,,,,,,,,0,0,0,0,183,0,183,0,,,,,,,183,,,1,1507.7325504326727,,Y,d,go,d,1,0.22463574050925672,,,,,,,,,,,,,,,65,001,20,m,Psychologie,2023-01-25_09h15.51.110,00_bat_bachelor,2022.2.4,60.00509136249535,
,,,,,,,,,,,,0,0,0,0,184,0,184,0,,,,,,,184,,,1,1509.0658031195635,1509.8657750952989,Y,None,nogo,None,1,,,,,,,,,,,,,,,,65,001,20,m,Psychologie,2023-01-25_09h15.51.110,00_bat_bachelor,2022.2.4,60.00509136249535,
,,,,,,,,,,,,0,0,0,0,185,0,185,0,,,,,,,185,,,1,1510.865562246996,,X,l,go,l,1,0.2914997080806643,,,,,,,,,,,,,,,65,001,20,m,Psychologie,2023-01-25_09h15.51.110,00_bat_bachelor,2022.2.4,60.00509136249535,
,,,,,,,,,,,,0,0,0,0,186,0,186,0,,,,,,,186,,,1,1512.2654946590774,,Y,d,go,d,1,0.3005183703498915,,,,,,,,,,,,,,,65,001,20,m,Psychologie,2023-01-25_09h15.51.110,00_bat_bachelor,2022.2.4,60.00509136249535,
,,,,,,,,,,,,0,0,0,0,187,0,187,0,,,,,,,187,,,1,1513.6822110631038,1514.4821621904848,Y,None,nogo,None,1,,,,,,,,,,,,,,,,65,001,20,m,Psychologie,2023-01-25_09h15.51.110,00_bat_bachelor,2022.2.4,60.00509136249535,
,,,,,,,,,,,,0,0,0,0,188,0,188,0,,,,,,,188,,,1,1515.482152008568,,X,l,go,l,1,0.2345276145497337,,,,,,,,,,,,,,,65,001,20,m,Psychologie,2023-01-25_09h15.51.110,00_bat_bachelor,2022.2.4,60.00509136249535,
,,,,,,,,,,,,0,0,0,0,189,0,189,0,,,,,,,189,,,1,1516.8323205661727,,Y,d,go,d,1,0.2617237225640565,,,,,,,,,,,,,,,65,001,20,m,Psychologie,2023-01-25_09h15.51.110,00_bat_bachelor,2022.2.4,60.00509136249535,
,,,,,,,,,,,,0,0,0,0,190,0,190,0,,,,,,,190,,,1,1518.1991470549256,,X,l,go,l,1,0.33454599021933973,,,,,,,,,,,,,,,65,001,20,m,Psychologie,2023-01-25_09h15.51.110,00_bat_bachelor,2022.2.4,60.00509136249535,
,,,,,,,,,,,,0,0,0,0,191,0,191,0,,,,,,,191,,,1,1519.6489010186633,,Y,d,go,d,1,0.3092538812197745,,,,,,,,,,,,,,,65,001,20,m,Psychologie,2023-01-25_09h15.51.110,00_bat_bachelor,2022.2.4,60.00509136249535,
,,,,,,,,,,,,0,0,0,0,192,0,192,0,,,,,,,192,,,1,1521.0656814227114,,X,l,go,l,1,0.28401025710627437,,,,,,,,,,,,,,,65,001,20,m,Psychologie,2023-01-25_09h15.51.110,00_bat_bachelor,2022.2.4,60.00509136249535,
,,,,,,,,,,,,0,0,0,0,193,0,193,0,,,,,,,193,,,1,1522.4658494710457,,Y,d,go,d,1,0.2761149882571772,,,,,,,,,,,,,,,65,001,20,m,Psychologie,2023-01-25_09h15.51.110,00_bat_bachelor,2022.2.4,60.00509136249535,
,,,,,,,,,,,,0,0,0,0,194,0,194,0,,,,,,,194,,,1,1523.8490395883564,1524.6491870791651,Y,None,nogo,None,1,,,,,,,,,,,,,,,,65,001,20,m,Psychologie,2023-01-25_09h15.51.110,00_bat_bachelor,2022.2.4,60.00509136249535,
,,,,,,,,,,,,0,0,0,0,195,0,195,0,,,,,,,195,,,1,1525.6491904731374,,X,l,go,l,1,0.22824010241311044,,,,,,,,,,,,,,,65,001,20,m,Psychologie,2023-01-25_09h15.51.110,00_bat_bachelor,2022.2.4,60.00509136249535,
,,,,,,,,,,,,0,0,0,0,196,0,196,0,,,,,,,196,,,1,1526.9822564934148,,Y,d,go,d,1,0.23989973310381174,,,,,,,,,,,,,,,65,001,20,m,Psychologie,2023-01-25_09h15.51.110,00_bat_bachelor,2022.2.4,60.00509136249535,
,,,,,,,,,,,,0,0,0,0,197,0,197,0,,,,,,,197,,,1,1528.332445414504,1529.1321492692223,Y,None,nogo,None,1,,,,,,,,,,,,,,,,65,001,20,m,Psychologie,2023-01-25_09h15.51.110,00_bat_bachelor,2022.2.4,60.00509136249535,
,,,,,,,,,,,,0,0,0,0,198,0,198,0,,,,,,,198,,,1,1530.132164299488,,X,l,go,l,1,0.2887123154941946,,,,,,,,,,,,,,,65,001,20,m,Psychologie,2023-01-25_09h15.51.110,00_bat_bachelor,2022.2.4,60.00509136249535,
,,,,,,,,,,,,0,0,0,0,199,0,199,0,,,,,,,199,,,1,1531.5324918630067,,Y,d,go,d,1,0.281655834056437,,,,,,,,,,,,,,,65,001,20,m,Psychologie,2023-01-25_09h15.51.110,00_bat_bachelor,2022.2.4,60.00509136249535,
,,,,,,,,,,,,0,0,0,0,200,0,200,0,,,,,,,200,,,1,1532.9158041620394,,X,l,go,l,1,0.2739855346735567,,,,,,,,,,,,,,,65,001,20,m,Psychologie,2023-01-25_09h15.51.110,00_bat_bachelor,2022.2.4,60.00509136249535,
,,,,,,,,,,,,0,0,0,0,201,0,201,0,,,,,,,201,,,1,1534.299168339814,,Y,d,go,d,1,0.21812374365981668,,,,,,,,,,,,,,,65,001,20,m,Psychologie,2023-01-25_09h15.51.110,00_bat_bachelor,2022.2.4,60.00509136249535,
,,,,,,,,,,,,0,0,0,0,202,0,202,0,,,,,,,202,,,1,1535.632225632784,1536.4325554266106,Y,None,nogo,None,1,,,,,,,,,,,,,,,,65,001,20,m,Psychologie,2023-01-25_09h15.51.110,00_bat_bachelor,2022.2.4,60.00509136249535,
,,,,,,,,,,,,0,0,0,0,203,0,203,0,,,,,,,203,,,1,1537.4322950630449,,X,l,go,l,1,0.23750215850304812,,,,,,,,,,,,,,,65,001,20,m,Psychologie,2023-01-25_09h15.51.110,00_bat_bachelor,2022.2.4,60.00509136249535,
,,,,,,,,,,,,0,0,0,0,204,0,204,0,,,,,,,204,,,1,1538.782247378258,,Y,d,go,d,1,0.34336053137667477,,,,,,,,,,,,,,,65,001,20,m,Psychologie,2023-01-25_09h15.51.110,00_bat_bachelor,2022.2.4,60.00509136249535,
,,,,,,,,,,,,0,0,0,0,205,0,205,0,,,,,,,205,,,1,1540.2322490995284,,X,l,go,l,1,0.26940808235667646,,,,,,,,,,,,,,,65,001,20,m,Psychologie,2023-01-25_09h15.51.110,00_bat_bachelor,2022.2.4,60.00509136249535,
,,,,,,,,,,,,0,0,0,0,206,0,206,0,,,,,,,206,,,1,1541.615791216609,,Y,d,go,d,1,0.21339695807546377,,,,,,,,,,,,,,,65,001,20,m,Psychologie,2023-01-25_09h15.51.110,00_bat_bachelor,2022.2.4,60.00509136249535,
,,,,,,,,,,,,0,0,0,0,207,0,207,0,,,,,,,207,,,1,1542.9324970024172,1543.732470432762,Y,None,nogo,None,1,,,,,,,,,,,,,,,,65,001,20,m,Psychologie,2023-01-25_09h15.51.110,00_bat_bachelor,2022.2.4,60.00509136249535,
,,,,,,,,,,,,0,0,0,0,208,0,208,0,,,,,,,208,,,1,1544.7325232811272,,X,l,go,l,1,0.24926651641726494,,,,,,,,,,,,,,,65,001,20,m,Psychologie,2023-01-25_09h15.51.110,00_bat_bachelor,2022.2.4,60.00509136249535,
,,,,,,,,,,,,0,0,0,0,209,0,209,0,,,,,,,209,,,1,1546.0824688085122,,Y,d,go,d,1,0.1951579365413636,,,,,,,,,,,,,,,65,001,20,m,Psychologie,2023-01-25_09h15.51.110,00_bat_bachelor,2022.2.4,60.00509136249535,
,,,,,,,,,,,,0,0,0,0,210,0,210,0,,,,,,,210,,,1,1547.3821845419006,,X,l,go,l,1,0.20767817285377532,,,,,,,,,,,,,,,65,001,20,m,Psychologie,2023-01-25_09h15.51.110,00_bat_bachelor,2022.2.4,60.00509136249535,
,,,,,,,,,,,,0,0,0,0,211,0,211,0,,,,,,,211,,,1,1548.69881469151,,X,None,nogo,d,0,0.18657757714390755,,,,,,,,,,,,,,,65,001,20,m,Psychologie,2023-01-25_09h15.51.110,00_bat_bachelor,2022.2.4,60.00509136249535,
,,,,,,,,,,,,0,0,0,0,212,0,212,0,,,,,,,212,,,1,1549.9990419398528,,Y,d,go,d,1,0.37428803159855306,,,,,,,,,,,,,,,65,001,20,m,Psychologie,2023-01-25_09h15.51.110,00_bat_bachelor,2022.2.4,60.00509136249535,
,,,,,,,,,,,,0,0,0,0,213,0,213,0,,,,,,,213,,,1,1551.4824652206153,,X,l,go,l,1,0.44373914948664606,,,,,,,,,,,,,,,65,001,20,m,Psychologie,2023-01-25_09h15.51.110,00_bat_bachelor,2022.2.4,60.00509136249535,
,,,,,,,,,,,,0,0,0,0,214,0,214,0,,,,,,,214,,,1,1553.032487741788,1553.8325852932176,X,None,nogo,None,1,,,,,,,,,,,,,,,,65,001,20,m,Psychologie,2023-01-25_09h15.51.110,00_bat_bachelor,2022.2.4,60.00509136249535,
,,,,,,,,,,,,0,0,0,0,215,0,215,0,,,,,,,215,,,1,1554.832271111547,,Y,d,go,d,1,0.26157729828264564,,,,,,,,,,,,,,,65,001,20,m,Psychologie,2023-01-25_09h15.51.110,00_bat_bachelor,2022.2.4,60.00509136249535,
,,,,,,,,,,,,0,0,0,0,216,0,216,0,,,,,,,216,,,1,1556.1992474185536,,X,l,go,l,1,0.35009555832948536,,,,,,,,,,,,,,,65,001,20,m,Psychologie,2023-01-25_09h15.51.110,00_bat_bachelor,2022.2.4,60.00509136249535,
,,,,,,,,,,,,0,0,0,0,217,0,217,0,,,,,,,217,,,1,1557.649187564035,,Y,d,go,d,1,0.2441571856616065,,,,,,,,,,,,,,,65,001,20,m,Psychologie,2023-01-25_09h15.51.110,00_bat_bachelor,2022.2.4,60.00509136249535,
,,,,,,,,,,,,0,0,0,0,218,0,218,0,,,,,,,218,,,1,1558.9991709095193,,X,l,go,l,1,0.349925376707688,,,,,,,,,,,,,,,65,001,20,m,Psychologie,2023-01-25_09h15.51.110,00_bat_bachelor,2022.2.4,60.00509136249535,
,,,,,,,,,,,,0,0,0,0,219,0,219,0,,,,,,,219,,,1,1560.4489738428965,,Y,d,go,d,1,0.2597780264914036,,,,,,,,,,,,,,,65,001,20,m,Psychologie,2023-01-25_09h15.51.110,00_bat_bachelor,2022.2.4,60.00509136249535,
,,,,,,,,,,,,0,0,0,0,220,0,220,0,,,,,,,220,,,1,1561.8158357256325,,X,l,go,l,1,0.19051357510033995,,,,,,,,,,,,,,,65,001,20,m,Psychologie,2023-01-25_09h15.51.110,00_bat_bachelor,2022.2.4,60.00509136249535,
,,,,,,,,,,,,0,0,0,0,221,0,221,0,,,,,,,221,,,1,1563.1157846711576,,Y,d,go,d,1,0.18618436518590897,,,,,,,,,,,,,,,65,001,20,m,Psychologie,2023-01-25_09h15.51.110,00_bat_bachelor,2022.2.4,60.00509136249535,
,,,,,,,,,,,,0,0,0,0,222,0,222,0,,,,,,,222,,,1,1564.415563434828,,X,l,go,l,1,0.21478798775933683,,,,,,,,,,,,,,,65,001,20,m,Psychologie,2023-01-25_09h15.51.110,00_bat_bachelor,2022.2.4,60.00509136249535,
,,,,,,,,,,,,0,0,0,0,223,0,223,0,,,,,,,223,,,1,1565.7324597660918,,Y,d,go,d,1,0.1776224299101159,,,,,,,,,,,,,,,65,001,20,m,Psychologie,2023-01-25_09h15.51.110,00_bat_bachelor,2022.2.4,60.00509136249535,
,,,,,,,,,,,,0,0,0,0,224,0,224,0,,,,,,,224,,,1,1567.015943264938,,X,l,go,l,1,0.17436521942727268,,,,,,,,,,,,,,,65,001,20,m,Psychologie,2023-01-25_09h15.51.110,00_bat_bachelor,2022.2.4,60.00509136249535,
,,,,,,,,,,,,0,0,0,0,225,0,225,0,,,,,,,225,,,1,1568.299164460972,,X,None,nogo,d,0,0.1548428046517074,,,,,,,,,,,,,,,65,001,20,m,Psychologie,2023-01-25_09h15.51.110,00_bat_bachelor,2022.2.4,60.00509136249535,
,,,,,,,,,,,,0,0,0,0,226,0,226,0,,,,,,,226,,,1,1569.565902755945,,Y,d,go,d,1,0.37638984876684844,,,,,,,,,,,,,,,65,001,20,m,Psychologie,2023-01-25_09h15.51.110,00_bat_bachelor,2022.2.4,60.00509136249535,
,,,,,,,,,,,,0,0,0,0,227,0,227,0,,,,,,,227,,,1,1571.0490937943105,,X,l,go,l,1,0.3805459678405896,,,,,,,,,,,,,,,65,001,20,m,Psychologie,2023-01-25_09h15.51.110,00_bat_bachelor,2022.2.4,60.00509136249535,
,,,,,,,,,,,,0,0,0,0,228,0,228,0,,,,,,,228,,,1,1572.5321340450319,,Y,d,go,d,1,0.24135476269293576,,,,,,,,,,,,,,,65,001,20,m,Psychologie,2023-01-25_09h15.51.110,00_bat_bachelor,2022.2.4,60.00509136249535,
,,,,,,,,,,,,0,0,0,0,229,0,229,0,,,,,,,229,,,1,1573.8826929053757,,X,l,go,l,1,0.251563242636621,,,,,,,,,,,,,,,65,001,20,m,Psychologie,2023-01-25_09h15.51.110,00_bat_bachelor,2022.2.4,60.00509136249535,
,,,,,,,,,,,,0,0,0,0,230,0,230,0,,,,,,,230,,,1,1575.2491756366799,,Y,d,go,d,1,0.30799570004455745,,,,,,,,,,,,,,,65,001,20,m,Psychologie,2023-01-25_09h15.51.110,00_bat_bachelor,2022.2.4,60.00509136249535,
,,,,,,,,,,,,0,0,0,0,231,0,231,0,,,,,,,231,,,1,1576.6657941014273,1577.4660288649611,Y,None,nogo,None,1,,,,,,,,,,,,,,,,65,001,20,m,Psychologie,2023-01-25_09h15.51.110,00_bat_bachelor,2022.2.4,60.00509136249535,
,,,,,,,,,,,,0,0,0,0,232,0,232,0,,,,,,,232,,,1,1578.4657762589632,,X,l,go,l,1,0.22770434501580894,,,,,,,,,,,,,,,65,001,20,m,Psychologie,2023-01-25_09h15.51.110,00_bat_bachelor,2022.2.4,60.00509136249535,
,,,,,,,,,,,,0,0,0,0,233,0,233,0,,,,,,,233,,,1,1579.7991574306507,,Y,d,go,d,1,0.23899791529402137,,,,,,,,,,,,,,,65,001,20,m,Psychologie,2023-01-25_09h15.51.110,00_bat_bachelor,2022.2.4,60.00509136249535,
,,,,,,,,,,,,0,0,0,0,234,0,234,0,,,,,,,234,,,1,1581.1491558064008,1581.9492145699915,Y,None,nogo,None,1,,,,,,,,,,,,,,,,65,001,20,m,Psychologie,2023-01-25_09h15.51.110,00_bat_bachelor,2022.2.4,60.00509136249535,
,,,,,,,,,,,,0,0,0,0,235,0,235,0,,,,,,,235,,,1,1582.948931903462,1583.7489552731859,Y,None,nogo,None,1,,,,,,,,,,,,,,,,65,001,20,m,Psychologie,2023-01-25_09h15.51.110,00_bat_bachelor,2022.2.4,60.00509136249535,
,,,,,,,,,,,,0,0,0,0,236,0,236,0,,,,,,,236,,,1,1584.749225818552,,X,l,go,l,1,0.2807370466180146,,,,,,,,,,,,,,,65,001,20,m,Psychologie,2023-01-25_09h15.51.110,00_bat_bachelor,2022.2.4,60.00509136249535,
,,,,,,,,,,,,0,0,0,0,237,0,237,0,,,,,,,237,,,1,1586.1323950872757,,Y,d,go,d,1,0.321590360137634,,,,,,,,,,,,,,,65,001,20,m,Psychologie,2023-01-25_09h15.51.110,00_bat_bachelor,2022.2.4,60.00509136249535,
,,,,,,,,,,,,0,0,0,0,238,0,238,0,,,,,,,238,,,1,1587.5656879681628,1588.3654611561215,Y,None,nogo,None,1,,,,,,,,,,,,,,,,65,001,20,m,Psychologie,2023-01-25_09h15.51.110,00_bat_bachelor,2022.2.4,60.00509136249535,
,,,,,,,,,,,,0,0,0,0,239,0,239,0,,,,,,,239,,,1,1589.3654844288249,,X,l,go,l,1,0.25529705884400755,,,,,,,,,,,,,,,65,001,20,m,Psychologie,2023-01-25_09h15.51.110,00_bat_bachelor,2022.2.4,60.00509136249535,
,,,,,,,,,,,,0,0,0,0,240,0,240,0,,,,,,,240,,,1,1590.732350190403,,Y,d,go,d,1,0.23296591825783253,,,,,,,,,,,,,,,65,001,20,m,Psychologie,2023-01-25_09h15.51.110,00_bat_bachelor,2022.2.4,60.00509136249535,
,,,,,,,,,,,,0,0,0,0,241,0,241,0,,,,,,,241,,,1,1592.0656901499024,,X,l,go,l,1,0.371676154085435,,,,,,,,,,,,,,,65,001,20,m,Psychologie,2023-01-25_09h15.51.110,00_bat_bachelor,2022.2.4,60.00509136249535,
,,,,,,,,,,,,0,0,0,0,242,0,242,0,,,,,,,242,,,1,1593.5488123398973,1594.3492575276177,X,None,nogo,None,1,,,,,,,,,,,,,,,,65,001,20,m,Psychologie,2023-01-25_09h15.51.110,00_bat_bachelor,2022.2.4,60.00509136249535,
,,,,,,,,,,,,0,0,0,0,243,0,243,0,,,,,,,243,,,1,1595.3491464973195,1596.1488110793289,X,None,nogo,None,1,,,,,,,,,,,,,,,,65,001,20,m,Psychologie,2023-01-25_09h15.51.110,00_bat_bachelor,2022.2.4,60.00509136249535,
,,,,,,,,,,,,0,0,0,0,244,0,244,0,,,,,,,244,,,1,1597.1491916852538,,Y,d,go,d,1,0.28000056208111346,,,,,,,,,,,,,,,65,001,20,m,Psychologie,2023-01-25_09h15.51.110,00_bat_bachelor,2022.2.4,60.00509136249535,
,,,,,,,,,,,,0,0,0,0,245,0,245,0,,,,,,,245,,,1,1598.532102045021,,X,l,go,l,1,0.3045736411586404,,,,,,,,,,,,,,,65,001,20,m,Psychologie,2023-01-25_09h15.51.110,00_bat_bachelor,2022.2.4,60.00509136249535,
,,,,,,,,,,,,0,0,0,0,246,0,246,0,,,,,,,246,,,1,1599.9491491155932,,Y,d,go,d,1,0.20043405529577285,,,,,,,,,,,,,,,65,001,20,m,Psychologie,2023-01-25_09h15.51.110,00_bat_bachelor,2022.2.4,60.00509136249535,
,,,,,,,,,,,,0,0,0,0,247,0,247,0,,,,,,,247,,,1,1601.265662416583,1602.0654739076272,Y,None,nogo,None,1,,,,,,,,,,,,,,,,65,001,20,m,Psychologie,2023-01-25_09h15.51.110,00_bat_bachelor,2022.2.4,60.00509136249535,
,,,,,,,,,,,,0,0,0,0,248,0,248,0,,,,,,,248,,,1,1603.0657827559626,1603.8657266105292,Y,None,nogo,None,1,,,,,,,,,,,,,,,,65,001,20,m,Psychologie,2023-01-25_09h15.51.110,00_bat_bachelor,2022.2.4,60.00509136249535,
,,,,,,,,,,,,0,0,0,0,249,0,249,0,,,,,,,249,,,1,1604.8655617621262,,X,l,go,l,1,0.2119569587521255,,,,,,,,,,,,,,,65,001,20,m,Psychologie,2023-01-25_09h15.51.110,00_bat_bachelor,2022.2.4,60.00509136249535,
,,,,,,,,,,,,1,0,1,0,0,0,0,0,,,,,,,0,,,0.2,1638.899141867063,1639.6991152974078,X,l,go,None,0,,,,,,,,,1605.1862030612538,space,33.49445815512445,,,,,65,001,20,m,Psychologie,2023-01-25_09h15.51.110,00_bat_bachelor,2022.2.4,60.00509136249535,
,,,,,,,,,,,,1,0,1,0,1,0,1,0,,,,,,,1,,,0.2,1639.8991171397502,,Y,d,go,d,1,0.4428756346460432,,,,,,,,,,,,,,,65,001,20,m,Psychologie,2023-01-25_09h15.51.110,00_bat_bachelor,2022.2.4,60.00509136249535,
,,,,,,,,,,,,1,0,1,0,2,0,2,0,,,,,,,2,,,0.2,1640.6487521702657,,X,l,go,l,1,0.45992677786853164,,,,,,,,,,,,,,,65,001,20,m,Psychologie,2023-01-25_09h15.51.110,00_bat_bachelor,2022.2.4,60.00509136249535,
,,,,,,,,,,,,1,0,1,0,3,0,3,0,,,,,,,3,,,0.2,1641.415517374291,,Y,d,go,d,1,0.38214742159470916,,,,,,,,,,,,,,,65,001,20,m,Psychologie,2023-01-25_09h15.51.110,00_bat_bachelor,2022.2.4,60.00509136249535,
,,,,,,,,,,,,1,0,1,0,4,0,4,0,,,,,,,4,,,0.2,1642.099105891306,,X,l,go,l,1,0.35401604138314724,,,,,,,,,,,,,,,65,001,20,m,Psychologie,2023-01-25_09h15.51.110,00_bat_bachelor,2022.2.4,60.00509136249535,
,,,,,,,,,,,,1,0,1,0,5,0,5,0,,,,,,,5,,,0.2,1642.765860961983,1643.5657883316744,X,None,nogo,None,1,,,,,,,,,,,,,,,,65,001,20,m,Psychologie,2023-01-25_09h15.51.110,00_bat_bachelor,2022.2.4,60.00509136249535,
,,,,,,,,,,,,1,0,1,0,6,0,6,0,,,,,,,6,,,0.2,1643.7656301741954,,Y,d,go,d,1,0.28729025553911924,,,,,,,,,,,,,,,65,001,20,m,Psychologie,2023-01-25_09h15.51.110,00_bat_bachelor,2022.2.4,60.00509136249535,
,,,,,,,,,,,,1,0,1,0,7,0,7,0,,,,,,,7,,,0.2,1644.3657481862465,,X,l,go,l,1,0.36008391715586185,,,,,,,,,,,,,,,65,001,20,m,Psychologie,2023-01-25_09h15.51.110,00_bat_bachelor,2022.2.4,60.00509136249535,
,,,,,,,,,,,,1,0,1,0,8,0,8,0,,,,,,,8,,,0.2,1645.0320756208384,,X,None,nogo,l,0,0.36543179338332266,,,,,,,,,,,,,,,65,001,20,m,Psychologie,2023-01-25_09h15.51.110,00_bat_bachelor,2022.2.4,60.00509136249535,
,,,,,,,,,,,,1,0,1,0,9,0,9,0,,,,,,,9,,,0.2,1645.6991380852414,,Y,d,go,d,1,0.3388160488102585,,,,,,,,,,,,,,,65,001,20,m,Psychologie,2023-01-25_09h15.51.110,00_bat_bachelor,2022.2.4,60.00509136249535,
,,,,,,,,,,,,1,0,1,0,10,0,10,0,,,,,,,10,,,0.2,1646.3491096488433,,X,l,go,l,1,0.3763108184793964,,,,,,,,,,,,,,,65,001,20,m,Psychologie,2023-01-25_09h15.51.110,00_bat_bachelor,2022.2.4,60.00509136249535,
,,,,,,,,,,,,1,0,1,0,11,0,11,0,,,,,,,11,,,0.2,1647.0323253176175,,Y,d,go,d,1,0.36517530865967274,,,,,,,,,,,,,,,65,001,20,m,Psychologie,2023-01-25_09h15.51.110,00_bat_bachelor,2022.2.4,60.00509136249535,
,,,,,,,,,,,,1,0,1,0,12,0,12,0,,,,,,,12,,,0.2,1647.6989567519631,1648.499026182224,Y,None,nogo,None,1,,,,,,,,,,,,,,,,65,001,20,m,Psychologie,2023-01-25_09h15.51.110,00_bat_bachelor,2022.2.4,60.00509136249535,
,,,,,,,,,,,,1,0,1,0,13,0,13,0,,,,,,,13,,,0.2,1648.6991143276682,,X,l,go,l,1,0.2664626291953027,,,,,,,,,,,,,,,65,001,20,m,Psychologie,2023-01-25_09h15.51.110,00_bat_bachelor,2022.2.4,60.00509136249535,
,,,,,,,,,,,,1,0,1,0,14,0,14,0,,,,,,,14,,,0.2,1649.2657540529035,,Y,d,go,d,1,0.32406211644411087,,,,,,,,,,,,,,,65,001,20,m,Psychologie,2023-01-25_09h15.51.110,00_bat_bachelor,2022.2.4,60.00509136249535,
,,,,,,,,,,,,1,0,1,0,15,0,15,0,,,,,,,15,,,0.2,1649.8991113216616,,X,l,go,l,1,0.39420656743459404,,,,,,,,,,,,,,,65,001,20,m,Psychologie,2023-01-25_09h15.51.110,00_bat_bachelor,2022.2.4,60.00509136249535,
,,,,,,,,,,,,1,0,1,0,16,0,16,0,,,,,,,16,,,0.2,1650.5989141338505,,Y,d,go,d,1,0.3025746117345989,,,,,,,,,,,,,,,65,001,20,m,Psychologie,2023-01-25_09h15.51.110,00_bat_bachelor,2022.2.4,60.00509136249535,
,,,,,,,,,,,,1,0,1,0,17,0,17,0,,,,,,,17,,,0.2,1651.215525228763,,X,l,go,l,1,0.3096975174266845,,,,,,,,,,,,,,,65,001,20,m,Psychologie,2023-01-25_09h15.51.110,00_bat_bachelor,2022.2.4,60.00509136249535,
,,,,,,,,,,,,1,0,1,0,18,0,18,0,,,,,,,18,,,0.2,1651.8324868690688,,Y,d,go,d,1,0.33266380929853767,,,,,,,,,,,,,,,65,001,20,m,Psychologie,2023-01-25_09h15.51.110,00_bat_bachelor,2022.2.4,60.00509136249535,
,,,,,,,,,,,,1,0,1,0,19,0,19,0,,,,,,,19,,,0.2,1652.4654805015307,,X,l,go,l,1,0.4521667816443369,,,,,,,,,,,,,,,65,001,20,m,Psychologie,2023-01-25_09h15.51.110,00_bat_bachelor,2022.2.4,60.00509136249535,
,,,,,,,,,,,,1,0,1,0,20,0,20,0,,,,,,,20,,,0.2,1653.2324575842358,,Y,d,go,d,1,0.2934822525130585,,,,,,,,,,,,,,,65,001,20,m,Psychologie,2023-01-25_09h15.51.110,00_bat_bachelor,2022.2.4,60.00509136249535,
,,,,,,,,,,,,1,0,1,0,21,0,21,0,,,,,,,21,,,0.2,1653.8320466268342,,X,l,go,l,1,0.5738646620884538,,,,,,,,,,,,,,,65,001,20,m,Psychologie,2023-01-25_09h15.51.110,00_bat_bachelor,2022.2.4,60.00509136249535,
,,,,,,,,,,,,1,0,1,0,22,0,22,0,,,,,,,22,,,0.2,1654.715742683271,,Y,d,go,d,1,0.31469387852121145,,,,,,,,,,,,,,,65,001,20,m,Psychologie,2023-01-25_09h15.51.110,00_bat_bachelor,2022.2.4,60.00509136249535,
,,,,,,,,,,,,1,0,1,0,23,0,23,0,,,,,,,23,,,0.2,1655.3323140207212,1656.132234602468,Y,None,nogo,None,1,,,,,,,,,,,,,,,,65,001,20,m,Psychologie,2023-01-25_09h15.51.110,00_bat_bachelor,2022.2.4,60.00509136249535,
,,,,,,,,,,,,1,0,1,0,24,0,24,0,,,,,,,24,,,0.2,1656.3324109902605,,X,l,go,l,1,0.24925439525395632,,,,,,,,,,,,,,,65,001,20,m,Psychologie,2023-01-25_09h15.51.110,00_bat_bachelor,2022.2.4,60.00509136249535,
,,,,,,,,,,,,1,0,1,0,25,0,25,0,,,,,,,25,,,0.2,1656.8824655115604,,Y,d,go,d,1,0.25882384506985545,,,,,,,,,,,,,,,65,001,20,m,Psychologie,2023-01-25_09h15.51.110,00_bat_bachelor,2022.2.4,60.00509136249535,
,,,,,,,,,,,,1,0,1,0,26,0,26,0,,,,,,,26,,,0.2,1657.4491076610284,1658.2490655762376,Y,None,nogo,None,1,,,,,,,,,,,,,,,,65,001,20,m,Psychologie,2023-01-25_09h15.51.110,00_bat_bachelor,2022.2.4,60.00509136249535,
,,,,,,,,,,,,1,0,1,0,27,0,27,0,,,,,,,27,,,0.2,1658.4491018428234,,X,l,go,l,1,0.2282944053877145,,,,,,,,,,,,,,,65,001,20,m,Psychologie,2023-01-25_09h15.51.110,00_bat_bachelor,2022.2.4,60.00509136249535,
,,,,,,,,,,,,1,0,1,0,28,0,28,0,,,,,,,28,,,0.2,1658.9821755237645,,Y,d,go,d,1,0.2392534303944558,,,,,,,,,,,,,,,65,001,20,m,Psychologie,2023-01-25_09h15.51.110,00_bat_bachelor,2022.2.4,60.00509136249535,
,,,,,,,,,,,,1,0,1,0,29,0,29,0,,,,,,,29,,,0.2,1659.5324734387686,,Y,None,nogo,d,0,0.36153506813570857,,,,,,,,,,,,,,,65,001,20,m,Psychologie,2023-01-25_09h15.51.110,00_bat_bachelor,2022.2.4,60.00509136249535,
,,,,,,,,,,,,1,0,1,0,30,0,30,0,,,,,,,30,,,0.2,1660.1991994185373,,X,l,go,l,1,0.3178963012760505,,,,,,,,,,,,,,,65,001,20,m,Psychologie,2023-01-25_09h15.51.110,00_bat_bachelor,2022.2.4,60.00509136249535,
,,,,,,,,,,,,1,0,1,0,31,0,31,0,,,,,,,31,,,0.2,1660.8323835963383,,Y,d,go,d,1,0.3412611384410411,,,,,,,,,,,,,,,65,001,20,m,Psychologie,2023-01-25_09h15.51.110,00_bat_bachelor,2022.2.4,60.00509136249535,
,,,,,,,,,,,,1,0,1,0,32,0,32,0,,,,,,,32,,,0.2,1661.482376978267,,X,l,go,l,1,0.31481315137352794,,,,,,,,,,,,,,,65,001,20,m,Psychologie,2023-01-25_09h15.51.110,00_bat_bachelor,2022.2.4,60.00509136249535,
,,,,,,,,,,,,1,0,1,0,33,0,33,0,,,,,,,33,,,0.2,1662.09885716415,1662.8990521701053,X,None,nogo,None,1,,,,,,,,,,,,,,,,65,001,20,m,Psychologie,2023-01-25_09h15.51.110,00_bat_bachelor,2022.2.4,60.00509136249535,
,,,,,,,,,,,,1,0,1,0,34,0,34,0,,,,,,,34,,,0.2,1663.0989308611024,,Y,d,go,d,1,0.23477149312384427,,,,,,,,,,,,,,,65,001,20,m,Psychologie,2023-01-25_09h15.51.110,00_bat_bachelor,2022.2.4,60.00509136249535,
,,,,,,,,,,,,1,0,1,0,35,0,35,0,,,,,,,35,,,0.2,1663.6487337460276,,X,l,go,l,1,0.3081857606302947,,,,,,,,,,,,,,,65,001,20,m,Psychologie,2023-01-25_09h15.51.110,00_bat_bachelor,2022.2.4,60.00509136249535,
,,,,,,,,,,,,1,0,1,0,36,0,36,0,,,,,,,36,,,0.2,1664.2655062954873,,Y,d,go,d,1,0.22051453031599522,,,,,,,,,,,,,,,65,001,20,m,Psychologie,2023-01-25_09h15.51.110,00_bat_bachelor,2022.2.4,60.00509136249535,
,,,,,,,,,,,,1,0,1,0,37,0,37,0,,,,,,,37,,,0.2,1664.798799127806,,Y,None,nogo,l,0,0.1981964805163443,,,,,,,,,,,,,,,65,001,20,m,Psychologie,2023-01-25_09h15.51.110,00_bat_bachelor,2022.2.4,60.00509136249535,
,,,,,,,,,,,,1,0,1,0,38,0,38,0,,,,,,,38,,,0.2,1665.2987402187428,,X,l,go,d,0,0.25813681504223496,,,,,,,,,,,,,,,65,001,20,m,Psychologie,2023-01-25_09h15.51.110,00_bat_bachelor,2022.2.4,60.00509136249535,
,,,,,,,,,,,,1,0,1,0,39,0,39,0,,,,,,,39,,,0.2,1665.8657503681025,1666.6657417378156,Y,d,go,None,0,,,,,,,,,,,,,,,,65,001,20,m,Psychologie,2023-01-25_09h15.51.110,00_bat_bachelor,2022.2.4,60.00509136249535,
,,,,,,,,,,,,1,0,1,0,40,0,40,0,,,,,,,40,,,0.2,1666.8657557014376,,X,l,go,l,1,0.2755598369985819,,,,,,,,,,,,,,,65,001,20,m,Psychologie,2023-01-25_09h15.51.110,00_bat_bachelor,2022.2.4,60.00509136249535,
,,,,,,,,,,,,1,0,1,0,41,0,41,0,,,,,,,41,,,0.2,1667.4490853579482,,X,None,nogo,d,0,0.20520593167748302,,,,,,,,,,,,,,,65,001,20,m,Psychologie,2023-01-25_09h15.51.110,00_bat_bachelor,2022.2.4,60.00509136249535,
,,,,,,,,,,,,1,0,1,0,42,0,42,0,,,,,,,42,,,0.2,1667.9655219560955,1668.765423143981,Y,d,go,None,0,,,,,,,,,,,,,,,,65,001,20,m,Psychologie,2023-01-25_09h15.51.110,00_bat_bachelor,2022.2.4,60.00509136249535,
,,,,,,,,,,,,1,0,1,0,43,0,43,0,,,,,,,43,,,0.2,1668.96536535013,,X,l,go,l,1,0.256168331252411,,,,,,,,,,,,,,,65,001,20,m,Psychologie,2023-01-25_09h15.51.110,00_bat_bachelor,2022.2.4,60.00509136249535,
,,,,,,,,,,,,1,0,1,0,44,0,44,0,,,,,,,44,,,0.2,1669.5320637420518,,Y,d,go,d,1,0.21704447141382843,,,,,,,,,,,,,,,65,001,20,m,Psychologie,2023-01-25_09h15.51.110,00_bat_bachelor,2022.2.4,60.00509136249535,
,,,,,,,,,,,,1,0,1,0,45,0,45,0,,,,,,,45,,,0.2,1670.065748331719,1670.8654264895013,Y,None,nogo,None,1,,,,,,,,,,,,,,,,65,001,20,m,Psychologie,2023-01-25_09h15.51.110,00_bat_bachelor,2022.2.4,60.00509136249535,
,,,,,,,,,,,,1,0,1,0,46,0,46,0,,,,,,,46,,,0.2,1671.065614998457,,X,l,go,l,1,0.18867357610724866,,,,,,,,,,,,,,,65,001,20,m,Psychologie,2023-01-25_09h15.51.110,00_bat_bachelor,2022.2.4,60.00509136249535,
,,,,,,,,,,,,1,0,1,0,47,0,47,0,,,,,,,47,,,0.2,1671.5654629985802,,Y,d,go,d,1,0.2155986538855359,,,,,,,,,,,,,,,65,001,20,m,Psychologie,2023-01-25_09h15.51.110,00_bat_bachelor,2022.2.4,60.00509136249535,
,,,,,,,,,,,,1,0,1,0,48,0,48,0,,,,,,,48,,,0.2,1672.0823902630946,,X,l,go,l,1,0.5307092890143394,,,,,,,,,,,,,,,65,001,20,m,Psychologie,2023-01-25_09h15.51.110,00_bat_bachelor,2022.2.4,60.00509136249535,
,,,,,,,,,,,,1,0,1,0,49,0,49,0,,,,,,,49,,,0.2,1672.9156291318359,,Y,d,go,d,1,0.2419239745941013,,,,,,,,,,,,,,,65,001,20,m,Psychologie,2023-01-25_09h15.51.110,00_bat_bachelor,2022.2.4,60.00509136249535,
,,,,,,,,,,,,1,0,1,0,50,0,50,0,,,,,,,50,,,0.2,1673.4654082591878,,X,l,go,l,1,0.33139932504855096,,,,,,,,,,,,,,,65,001,20,m,Psychologie,2023-01-25_09h15.51.110,00_bat_bachelor,2022.2.4,60.00509136249535,
,,,,,,,,,,,,1,0,1,0,51,0,51,0,,,,,,,51,,,0.2,1674.0989555882988,,X,None,nogo,d,0,0.2110231410479173,,,,,,,,,,,,,,,65,001,20,m,Psychologie,2023-01-25_09h15.51.110,00_bat_bachelor,2022.2.4,60.00509136249535,
,,,,,,,,,,,,1,0,1,0,52,0,52,0,,,,,,,52,,,0.2,1674.6157456408255,,Y,d,go,l,0,0.4460858149686828,,,,,,,,,,,,,,,65,001,20,m,Psychologie,2023-01-25_09h15.51.110,00_bat_bachelor,2022.2.4,60.00509136249535,
,,,,,,,,,,,,1,0,1,0,53,0,53,0,,,,,,,53,,,0.2,1675.3657685498474,1676.1657473135274,X,l,go,None,0,,,,,,,,,,,,,,,,65,001,20,m,Psychologie,2023-01-25_09h15.51.110,00_bat_bachelor,2022.2.4,60.00509136249535,
,,,,,,,,,,,,1,0,1,0,54,0,54,0,,,,,,,54,,,0.2,1676.3654563076561,,Y,d,go,d,1,0.3914245080668479,,,,,,,,,,,,,,,65,001,20,m,Psychologie,2023-01-25_09h15.51.110,00_bat_bachelor,2022.2.4,60.00509136249535,
,,,,,,,,,,,,1,0,1,0,55,0,55,0,,,,,,,55,,,0.2,1677.0654215440154,,X,l,go,l,1,0.34845822595525533,,,,,,,,,,,,,,,65,001,20,m,Psychologie,2023-01-25_09h15.51.110,00_bat_bachelor,2022.2.4,60.00509136249535,
,,,,,,,,,,,,1,0,1,0,56,0,56,0,,,,,,,56,,,0.2,1677.7154086227529,,Y,d,go,d,1,0.40238692704588175,,,,,,,,,,,,,,,65,001,20,m,Psychologie,2023-01-25_09h15.51.110,00_bat_bachelor,2022.2.4,60.00509136249535,
,,,,,,,,,,,,1,0,1,0,57,0,57,0,,,,,,,57,,,0.2,1678.4320666996064,1679.2320212208433,Y,None,nogo,None,1,,,,,,,,,,,,,,,,65,001,20,m,Psychologie,2023-01-25_09h15.51.110,00_bat_bachelor,2022.2.4,60.00509136249535,
,,,,,,,,,,,,1,0,1,0,58,0,58,0,,,,,,,58,,,0.2,1679.4322683964856,,X,l,go,l,1,0.22173343889880925,,,,,,,,,,,,,,,65,001,20,m,Psychologie,2023-01-25_09h15.51.110,00_bat_bachelor,2022.2.4,60.00509136249535,
,,,,,,,,,,,,1,0,1,0,59,0,59,0,,,,,,,59,,,0.2,1679.9656329862773,,Y,d,go,d,1,0.24815718352328986,,,,,,,,,,,,,,,65,001,20,m,Psychologie,2023-01-25_09h15.51.110,00_bat_bachelor,2022.2.4,60.00509136249535,
,,,,,,,,,,,,1,0,1,0,60,0,60,0,,,,,,,60,,,0.2,1680.5155168409692,,X,l,go,l,1,0.497227608342655,,,,,,,,,,,,,,,65,001,20,m,Psychologie,2023-01-25_09h15.51.110,00_bat_bachelor,2022.2.4,60.00509136249535,
,,,,,,,,,,,,1,0,1,0,61,0,61,0,,,,,,,61,,,0.2,1681.3156202106038,,X,None,nogo,l,0,0.3224398142192513,,,,,,,,,,,,,,,65,001,20,m,Psychologie,2023-01-25_09h15.51.110,00_bat_bachelor,2022.2.4,60.00509136249535,
,,,,,,,,,,,,1,0,1,0,62,0,62,0,,,,,,,62,,,0.2,1681.949071054929,,Y,d,go,d,1,0.3126696372637525,,,,,,,,,,,,,,,65,001,20,m,Psychologie,2023-01-25_09h15.51.110,00_bat_bachelor,2022.2.4,60.00509136249535,
,,,,,,,,,,,,1,0,1,0,63,0,63,0,,,,,,,63,,,0.2,1682.565676331753,,X,l,go,l,1,0.46410277590621263,,,,,,,,,,,,,,,65,001,20,m,Psychologie,2023-01-25_09h15.51.110,00_bat_bachelor,2022.2.4,60.00509136249535,
,,,,,,,,,,,,1,0,1,0,64,0,64,0,,,,,,,64,,,0.2,1683.3320769298589,,Y,d,go,d,1,0.36905457952525467,,,,,,,,,,,,,,,65,001,20,m,Psychologie,2023-01-25_09h15.51.110,00_bat_bachelor,2022.2.4,60.00509136249535,
,,,,,,,,,,,,1,0,1,0,65,0,65,0,,,,,,,65,,,0.2,1684.0156349014724,1684.8155622711638,Y,None,nogo,None,1,,,,,,,,,,,,,,,,65,001,20,m,Psychologie,2023-01-25_09h15.51.110,00_bat_bachelor,2022.2.4,60.00509136249535,
,,,,,,,,,,,,1,0,1,0,66,0,66,0,,,,,,,66,,,0.2,1685.0154429015238,,X,l,go,l,1,0.22143089352175593,,,,,,,,,,,,,,,65,001,20,m,Psychologie,2023-01-25_09h15.51.110,00_bat_bachelor,2022.2.4,60.00509136249535,
,,,,,,,,,,,,1,0,1,0,67,0,67,0,,,,,,,67,,,0.2,1685.548857430811,,Y,d,go,d,1,0.24851645610760897,,,,,,,,,,,,,,,65,001,20,m,Psychologie,2023-01-25_09h15.51.110,00_bat_bachelor,2022.2.4,60.00509136249535,
,,,,,,,,,,,,1,0,1,0,68,0,68,0,,,,,,,68,,,0.2,1686.0990254065255,1686.899091927684,Y,None,nogo,None,1,,,,,,,,,,,,,,,,65,001,20,m,Psychologie,2023-01-25_09h15.51.110,00_bat_bachelor,2022.2.4,60.00509136249535,
,,,,,,,,,,,,1,0,1,0,69,0,69,0,,,,,,,69,,,0.2,1687.0987577702617,,X,l,go,l,1,0.202996478183195,,,,,,,,,,,,,,,65,001,20,m,Psychologie,2023-01-25_09h15.51.110,00_bat_bachelor,2022.2.4,60.00509136249535,
,,,,,,,,,,,,1,0,1,0,70,0,70,0,,,,,,,70,,,0.2,1687.615392671316,,Y,d,go,d,1,0.23001949535682797,,,,,,,,,,,,,,,65,001,20,m,Psychologie,2023-01-25_09h15.51.110,00_bat_bachelor,2022.2.4,60.00509136249535,
,,,,,,,,,,,,1,0,1,0,71,0,71,0,,,,,,,71,,,0.2,1688.1490442913491,,X,l,go,l,1,0.24044567218516022,,,,,,,,,,,,,,,65,001,20,m,Psychologie,2023-01-25_09h15.51.110,00_bat_bachelor,2022.2.4,60.00509136249535,
,,,,,,,,,,,,1,0,1,0,72,0,72,0,,,,,,,72,,,0.2,1688.6991356610088,,X,None,nogo,d,0,0.1875366069143638,,,,,,,,,,,,,,,65,001,20,m,Psychologie,2023-01-25_09h15.51.110,00_bat_bachelor,2022.2.4,60.00509136249535,
,,,,,,,,,,,,1,0,1,0,73,0,73,0,,,,,,,73,,,0.2,1689.198947782279,1689.9990870307665,Y,d,go,None,0,,,,,,,,,,,,,,,,65,001,20,m,Psychologie,2023-01-25_09h15.51.110,00_bat_bachelor,2022.2.4,60.00509136249535,
,,,,,,,,,,,,1,0,1,0,74,0,74,0,,,,,,,74,,,0.2,1690.1988634186564,,X,l,go,l,1,0.23849367315415293,,,,,,,,,,,,,,,65,001,20,m,Psychologie,2023-01-25_09h15.51.110,00_bat_bachelor,2022.2.4,60.00509136249535,
,,,,,,,,,,,,1,0,1,0,75,0,75,0,,,,,,,75,,,0.2,1690.7489581822883,,Y,d,go,d,1,0.16882340388838202,,,,,,,,,,,,,,,65,001,20,m,Psychologie,2023-01-25_09h15.51.110,00_bat_bachelor,2022.2.4,60.00509136249535,
,,,,,,,,,,,,1,0,1,0,76,0,76,0,,,,,,,76,,,0.2,1691.2325099478476,1692.032289438881,X,l,go,None,0,,,,,,,,,,,,,,,,65,001,20,m,Psychologie,2023-01-25_09h15.51.110,00_bat_bachelor,2022.2.4,60.00509136249535,
,,,,,,,,,,,,1,0,1,0,77,0,77,0,,,,,,,77,,,0.2,1692.2324338266626,1693.032240953995,X,None,nogo,None,1,,,,,,,,,,,,,,,,65,001,20,m,Psychologie,2023-01-25_09h15.51.110,00_bat_bachelor,2022.2.4,60.00509136249535,
,,,,,,,,,,,,1,0,1,0,78,0,78,0,,,,,,,78,,,0.2,1693.232075523818,,Y,d,go,d,1,0.22933149570599198,,,,,,,,,,,,,,,65,001,20,m,Psychologie,2023-01-25_09h15.51.110,00_bat_bachelor,2022.2.4,60.00509136249535,
,,,,,,,,,,,,1,0,1,0,79,0,79,0,,,,,,,79,,,0.2,1693.765493446961,,X,l,go,l,1,0.3840538449585438,,,,,,,,,,,,,,,65,001,20,m,Psychologie,2023-01-25_09h15.51.110,00_bat_bachelor,2022.2.4,60.00509136249535,
,,,,,,,,,,,,1,0,1,0,80,0,80,0,,,,,,,80,,,0.2,1694.4657384408638,,Y,d,go,d,1,0.3724708203226328,,,,,,,,,,,,,,,65,001,20,m,Psychologie,2023-01-25_09h15.51.110,00_bat_bachelor,2022.2.4,60.00509136249535,
,,,,,,,,,,,,1,0,1,0,81,0,81,0,,,,,,,81,,,0.2,1695.1487286551856,,X,l,go,d,0,0.32868902338668704,,,,,,,,,,,,,,,65,001,20,m,Psychologie,2023-01-25_09h15.51.110,00_bat_bachelor,2022.2.4,60.00509136249535,
,,,,,,,,,,,,1,0,1,0,82,0,82,0,,,,,,,82,,,0.2,1695.78238071152,,X,None,nogo,l,0,0.3672751864651218,,,,,,,,,,,,,,,65,001,20,m,Psychologie,2023-01-25_09h15.51.110,00_bat_bachelor,2022.2.4,60.00509136249535,
,,,,,,,,,,,,1,0,1,0,83,0,83,0,,,,,,,83,,,0.2,1696.465578440926,,Y,d,go,d,1,0.22774167836178094,,,,,,,,,,,,,,,65,001,20,m,Psychologie,2023-01-25_09h15.51.110,00_bat_bachelor,2022.2.4,60.00509136249535,
,,,,,,,,,,,,1,0,1,0,84,0,84,0,,,,,,,84,,,0.2,1696.9990273943404,,X,l,go,l,1,0.2863346196245402,,,,,,,,,,,,,,,65,001,20,m,Psychologie,2023-01-25_09h15.51.110,00_bat_bachelor,2022.2.4,60.00509136249535,
,,,,,,,,,,,,1,0,1,0,85,0,85,0,,,,,,,85,,,0.2,1697.5987376490375,,X,None,nogo,l,0,0.27893389598466456,,,,,,,,,,,,,,,65,001,20,m,Psychologie,2023-01-25_09h15.51.110,00_bat_bachelor,2022.2.4,60.00509136249535,
,,,,,,,,,,,,1,0,1,0,86,0,86,0,,,,,,,86,,,0.2,1698.1822777297348,,Y,d,go,d,1,0.35151713353116065,,,,,,,,,,,,,,,65,001,20,m,Psychologie,2023-01-25_09h15.51.110,00_bat_bachelor,2022.2.4,60.00509136249535,
,,,,,,,,,,,,1,0,1,0,87,0,87,0,,,,,,,87,,,0.2,1698.8491355882725,,X,l,go,l,1,0.372126093134284,,,,,,,,,,,,,,,65,001,20,m,Psychologie,2023-01-25_09h15.51.110,00_bat_bachelor,2022.2.4,60.00509136249535,
,,,,,,,,,,,,1,0,1,0,88,0,88,0,,,,,,,88,,,0.2,1699.5324559842702,,Y,d,go,d,1,0.31361800024751574,,,,,,,,,,,,,,,65,001,20,m,Psychologie,2023-01-25_09h15.51.110,00_bat_bachelor,2022.2.4,60.00509136249535,
,,,,,,,,,,,,1,0,1,0,89,0,89,0,,,,,,,89,,,0.2,1700.148957018624,1700.949061842868,Y,None,nogo,None,1,,,,,,,,,,,,,,,,65,001,20,m,Psychologie,2023-01-25_09h15.51.110,00_bat_bachelor,2022.2.4,60.00509136249535,
,,,,,,,,,,,,1,0,1,0,90,0,90,0,,,,,,,90,,,0.2,1701.1488905944861,,X,l,go,l,1,0.23288494860753417,,,,,,,,,,,,,,,65,001,20,m,Psychologie,2023-01-25_09h15.51.110,00_bat_bachelor,2022.2.4,60.00509136249535,
,,,,,,,,,,,,1,0,1,0,91,0,91,0,,,,,,,91,,,0.2,1701.6823710630415,,Y,d,go,d,1,0.32348223798908293,,,,,,,,,,,,,,,65,001,20,m,Psychologie,2023-01-25_09h15.51.110,00_bat_bachelor,2022.2.4,60.00509136249535,
,,,,,,,,,,,,1,0,1,0,92,0,92,0,,,,,,,92,,,0.2,1702.3156803317834,,X,l,go,l,1,0.2503467582864687,,,,,,,,,,,,,,,65,001,20,m,Psychologie,2023-01-25_09h15.51.110,00_bat_bachelor,2022.2.4,60.00509136249535,
,,,,,,,,,,,,1,0,1,0,93,0,93,0,,,,,,,93,,,0.2,1702.8653877015458,,Y,d,go,d,1,0.22818337508942932,,,,,,,,,,,,,,,65,001,20,m,Psychologie,2023-01-25_09h15.51.110,00_bat_bachelor,2022.2.4,60.00509136249535,
,,,,,,,,,,,,1,0,1,0,94,0,94,0,,,,,,,94,,,0.2,1703.3990839277394,1704.1990384489764,Y,None,nogo,None,1,,,,,,,,,,,,,,,,65,001,20,m,Psychologie,2023-01-25_09h15.51.110,00_bat_bachelor,2022.2.4,60.00509136249535,
,,,,,,,,,,,,1,0,1,0,95,0,95,0,,,,,,,95,,,0.2,1704.3990465943934,,X,l,go,l,1,0.21442338172346354,,,,,,,,,,,,,,,65,001,20,m,Psychologie,2023-01-25_09h15.51.110,00_bat_bachelor,2022.2.4,60.00509136249535,
,,,,,,,,,,,,1,0,1,0,96,0,96,0,,,,,,,96,,,0.2,1704.9157421013806,,Y,d,go,d,1,0.2097504143603146,,,,,,,,,,,,,,,65,001,20,m,Psychologie,2023-01-25_09h15.51.110,00_bat_bachelor,2022.2.4,60.00509136249535,
,,,,,,,,,,,,1,0,1,0,97,0,97,0,,,,,,,97,,,0.2,1705.432255790336,,X,l,go,l,1,0.23730531008914113,,,,,,,,,,,,,,,65,001,20,m,Psychologie,2023-01-25_09h15.51.110,00_bat_bachelor,2022.2.4,60.00509136249535,
,,,,,,,,,,,,1,0,1,0,98,0,98,0,,,,,,,98,,,0.2,1705.98228412983,,X,None,nogo,d,0,0.18270994257181883,,,,,,,,,,,,,,,65,001,20,m,Psychologie,2023-01-25_09h15.51.110,00_bat_bachelor,2022.2.4,60.00509136249535,
,,,,,,,,,,,,1,0,1,0,99,0,99,0,,,,,,,99,,,0.2,1706.4654106834205,1707.2657865377842,Y,d,go,None,0,,,,,,,,,,,,,,,,65,001,20,m,Psychologie,2023-01-25_09h15.51.110,00_bat_bachelor,2022.2.4,60.00509136249535,
,,,,,,,,,,,,1,0,1,0,100,0,100,0,,,,,,,100,,,0.2,1707.4653806227725,,X,l,go,l,1,0.2681164466775954,,,,,,,,,,,,,,,65,001,20,m,Psychologie,2023-01-25_09h15.51.110,00_bat_bachelor,2022.2.4,60.00509136249535,
,,,,,,,,,,,,1,0,1,0,101,0,101,0,,,,,,,101,,,0.2,1708.0490254306933,1708.8490410428494,X,None,nogo,None,1,,,,,,,,,,,,,,,,65,001,20,m,Psychologie,2023-01-25_09h15.51.110,00_bat_bachelor,2022.2.4,60.00509136249535,
,,,,,,,,,,,,1,0,1,0,102,0,102,0,,,,,,,102,,,0.2,1709.0488203399582,1709.8488131641643,X,None,nogo,None,1,,,,,,,,,,,,,,,,65,001,20,m,Psychologie,2023-01-25_09h15.51.110,00_bat_bachelor,2022.2.4,60.00509136249535,
,,,,,,,,,,,,1,0,1,0,103,0,103,0,,,,,,,103,,,0.2,1710.0490845822496,,Y,d,go,d,1,0.27614407904911786,,,,,,,,,,,,,,,65,001,20,m,Psychologie,2023-01-25_09h15.51.110,00_bat_bachelor,2022.2.4,60.00509136249535,
,,,,,,,,,,,,1,0,1,0,104,0,104,0,,,,,,,104,,,0.2,1710.632331814617,,X,l,go,l,1,0.5412256475538015,,,,,,,,,,,,,,,65,001,20,m,Psychologie,2023-01-25_09h15.51.110,00_bat_bachelor,2022.2.4,60.00509136249535,
,,,,,,,,,,,,1,0,1,0,105,0,105,0,,,,,,,105,,,0.2,1711.4820977055933,,Y,d,go,d,1,0.23467597796116024,,,,,,,,,,,,,,,65,001,20,m,Psychologie,2023-01-25_09h15.51.110,00_bat_bachelor,2022.2.4,60.00509136249535,
,,,,,,,,,,,,1,0,1,0,106,0,106,0,,,,,,,106,,,0.2,1712.0320756208384,,X,l,go,l,1,0.24529997282661498,,,,,,,,,,,,,,,65,001,20,m,Psychologie,2023-01-25_09h15.51.110,00_bat_bachelor,2022.2.4,60.00509136249535,
,,,,,,,,,,,,1,0,1,0,107,0,107,0,,,,,,,107,,,0.2,1712.5820346268592,,X,None,nogo,d,0,0.2547700288705528,,,,,,,,,,,,,,,65,001,20,m,Psychologie,2023-01-25_09h15.51.110,00_bat_bachelor,2022.2.4,60.00509136249535,
,,,,,,,,,,,,1,0,1,0,108,0,108,0,,,,,,,108,,,0.2,1713.148920170148,,Y,d,go,d,1,0.4556993859587237,,,,,,,,,,,,,,,65,001,20,m,Psychologie,2023-01-25_09h15.51.110,00_bat_bachelor,2022.2.4,60.00509136249535,
,,,,,,,,,,,,1,0,1,0,109,0,109,0,,,,,,,109,,,0.2,1713.9154031925136,,X,l,go,l,1,0.3777896056417376,,,,,,,,,,,,,,,65,001,20,m,Psychologie,2023-01-25_09h15.51.110,00_bat_bachelor,2022.2.4,60.00509136249535,
,,,,,,,,,,,,1,0,1,0,110,0,110,0,,,,,,,110,,,0.2,1714.5989437096287,,Y,d,go,d,1,0.20699938538018614,,,,,,,,,,,,,,,65,001,20,m,Psychologie,2023-01-25_09h15.51.110,00_bat_bachelor,2022.2.4,60.00509136249535,
,,,,,,,,,,,,1,0,1,0,111,0,111,0,,,,,,,111,,,0.2,1715.115529640927,1715.9157910711365,Y,None,nogo,None,1,,,,,,,,,,,,,,,,65,001,20,m,Psychologie,2023-01-25_09h15.51.110,00_bat_bachelor,2022.2.4,60.00509136249535,
,,,,,,,,,,,,1,0,1,0,112,0,112,0,,,,,,,112,,,0.2,1716.1153735198313,,Y,None,nogo,l,0,0.22572616417892277,,,,,,,,,,,,,,,65,001,20,m,Psychologie,2023-01-25_09h15.51.110,00_bat_bachelor,2022.2.4,60.00509136249535,
,,,,,,,,,,,,1,0,1,0,113,0,113,0,,,,,,,113,,,0.2,1716.6490430792328,,X,l,go,l,1,0.3966855964390561,,,,,,,,,,,,,,,65,001,20,m,Psychologie,2023-01-25_09h15.51.110,00_bat_bachelor,2022.2.4,60.00509136249535,
,,,,,,,,,,,,1,0,1,0,114,0,114,0,,,,,,,114,,,0.2,1717.3489384974819,,Y,d,go,d,1,0.20891453593503684,,,,,,,,,,,,,,,65,001,20,m,Psychologie,2023-01-25_09h15.51.110,00_bat_bachelor,2022.2.4,60.00509136249535,
,,,,,,,,,,,,1,0,1,0,115,0,115,0,,,,,,,115,,,0.2,1717.865721277194,,X,l,go,l,1,0.30088394589256495,,,,,,,,,,,,,,,65,001,20,m,Psychologie,2023-01-25_09h15.51.110,00_bat_bachelor,2022.2.4,60.00509136249535,
,,,,,,,,,,,,1,0,1,0,116,0,116,0,,,,,,,116,,,0.2,1718.4824017054634,,Y,d,go,d,1,0.2278691935352981,,,,,,,,,,,,,,,65,001,20,m,Psychologie,2023-01-25_09h15.51.110,00_bat_bachelor,2022.2.4,60.00509136249535,
,,,,,,,,,,,,1,0,1,0,117,0,117,0,,,,,,,117,,,0.2,1719.0155321136117,,X,l,go,l,1,0.25414360489230603,,,,,,,,,,,,,,,65,001,20,m,Psychologie,2023-01-25_09h15.51.110,00_bat_bachelor,2022.2.4,60.00509136249535,
,,,,,,,,,,,,1,0,1,0,118,0,118,0,,,,,,,118,,,0.2,1719.582404081244,1720.3824124205858,X,None,nogo,None,1,,,,,,,,,,,,,,,,65,001,20,m,Psychologie,2023-01-25_09h15.51.110,00_bat_bachelor,2022.2.4,60.00509136249535,
,,,,,,,,,,,,1,0,1,0,119,0,119,0,,,,,,,119,,,0.2,1720.5820802026428,,Y,d,go,d,1,0.2548461500555277,,,,,,,,,,,,,,,65,001,20,m,Psychologie,2023-01-25_09h15.51.110,00_bat_bachelor,2022.2.4,60.00509136249535,
,,,,,,,,,,,,1,0,1,0,120,0,120,0,,,,,,,120,,,0.2,1721.1488978671841,,X,l,go,l,1,0.3442575007211417,,,,,,,,,,,,,,,65,001,20,m,Psychologie,2023-01-25_09h15.51.110,00_bat_bachelor,2022.2.4,60.00509136249535,
,,,,,,,,,,,,1,0,1,0,121,0,121,0,,,,,,,121,,,0.2,1721.7989227641374,1722.5987866187934,Y,d,go,None,0,,,,,,,,,,,,,,,,65,001,20,m,Psychologie,2023-01-25_09h15.51.110,00_bat_bachelor,2022.2.4,60.00509136249535,
,,,,,,,,,,,,1,0,1,0,122,0,122,0,,,,,,,122,,,0.2,1722.7988330671797,,X,l,go,l,1,0.40728292462881655,,,,,,,,,,,,,,,65,001,20,m,Psychologie,2023-01-25_09h15.51.110,00_bat_bachelor,2022.2.4,60.00509136249535,
,,,,,,,,,,,,1,0,1,0,123,0,123,0,,,,,,,123,,,0.2,1723.5156749014277,1724.3156779075507,Y,d,go,None,0,,,,,,,,,,,,,,,,65,001,20,m,Psychologie,2023-01-25_09h15.51.110,00_bat_bachelor,2022.2.4,60.00509136249535,
,,,,,,,,,,,,1,0,1,0,124,0,124,0,,,,,,,124,,,0.2,1724.5157330832444,,X,l,go,l,1,0.22546580072958022,,,,,,,,,,,,,,,65,001,20,m,Psychologie,2023-01-25_09h15.51.110,00_bat_bachelor,2022.2.4,60.00509136249535,
,,,,,,,,,,,,1,0,1,0,125,0,125,0,,,,,,,125,,,0.2,1725.0489110065391,,X,None,nogo,d,0,0.17268328077625483,,,,,,,,,,,,,,,65,001,20,m,Psychologie,2023-01-25_09h15.51.110,00_bat_bachelor,2022.2.4,60.00509136249535,
,,,,,,,,,,,,1,0,1,0,126,0,126,0,,,,,,,126,,,0.2,1725.5324773176108,1726.332088081399,Y,d,go,None,0,,,,,,,,,,,,,,,,65,001,20,m,Psychologie,2023-01-25_09h15.51.110,00_bat_bachelor,2022.2.4,60.00509136249535,
,,,,,,,,,,,,1,0,1,0,127,0,127,0,,,,,,,127,,,0.2,1726.5323982873233,,X,l,go,l,1,0.2569702703040093,,,,,,,,,,,,,,,65,001,20,m,Psychologie,2023-01-25_09h15.51.110,00_bat_bachelor,2022.2.4,60.00509136249535,
,,,,,,,,,,,,1,0,1,0,128,0,128,0,,,,,,,128,,,0.2,1727.0988324369537,,Y,d,go,d,1,0.21839380403980613,,,,,,,,,,,,,,,65,001,20,m,Psychologie,2023-01-25_09h15.51.110,00_bat_bachelor,2022.2.4,60.00509136249535,
,,,,,,,,,,,,1,0,1,0,129,0,129,0,,,,,,,129,,,0.2,1727.6324879357126,,X,l,go,l,1,0.24555694253649563,,,,,,,,,,,,,,,65,001,20,m,Psychologie,2023-01-25_09h15.51.110,00_bat_bachelor,2022.2.4,60.00509136249535,
,,,,,,,,,,,,1,0,1,0,130,0,130,0,,,,,,,130,,,0.2,1728.1823999115732,1728.9823907964164,X,None,nogo,None,1,,,,,,,,,,,,,,,,65,001,20,m,Psychologie,2023-01-25_09h15.51.110,00_bat_bachelor,2022.2.4,60.00509136249535,
,,,,,,,,,,,,1,0,1,0,131,0,131,0,,,,,,,131,,,0.2,1729.1820483965566,,Y,d,go,d,1,0.2157494417624548,,,,,,,,,,,,,,,65,001,20,m,Psychologie,2023-01-25_09h15.51.110,00_bat_bachelor,2022.2.4,60.00509136249535,
,,,,,,,,,,,,1,0,1,0,132,0,132,0,,,,,,,132,,,0.2,1729.6990639034193,,X,l,go,l,1,0.25783233041875064,,,,,,,,,,,,,,,65,001,20,m,Psychologie,2023-01-25_09h15.51.110,00_bat_bachelor,2022.2.4,60.00509136249535,
,,,,,,,,,,,,1,0,1,0,133,0,133,0,,,,,,,133,,,0.2,1730.2654549016152,,Y,d,go,d,1,0.22112398454919457,,,,,,,,,,,,,,,65,001,20,m,Psychologie,2023-01-25_09h15.51.110,00_bat_bachelor,2022.2.4,60.00509136249535,
,,,,,,,,,,,,1,0,1,0,134,0,134,0,,,,,,,134,,,0.2,1730.7990337944357,1731.5989975277334,Y,None,nogo,None,1,,,,,,,,,,,,,,,,65,001,20,m,Psychologie,2023-01-25_09h15.51.110,00_bat_bachelor,2022.2.4,60.00509136249535,
,,,,,,,,,,,,1,0,1,0,135,0,135,0,,,,,,,135,,,0.2,1731.7990880974103,,X,l,go,l,1,0.1901504237903282,,,,,,,,,,,,,,,65,001,20,m,Psychologie,2023-01-25_09h15.51.110,00_bat_bachelor,2022.2.4,60.00509136249535,
,,,,,,,,,,,,1,0,1,0,136,0,136,0,,,,,,,136,,,0.2,1732.2991019155597,,Y,d,go,d,1,0.18661588011309505,,,,,,,,,,,,,,,65,001,20,m,Psychologie,2023-01-25_09h15.51.110,00_bat_bachelor,2022.2.4,60.00509136249535,
,,,,,,,,,,,,1,0,1,0,137,0,137,0,,,,,,,137,,,0.2,1732.798708461225,,X,l,go,l,1,0.22987404093146324,,,,,,,,,,,,,,,65,001,20,m,Psychologie,2023-01-25_09h15.51.110,00_bat_bachelor,2022.2.4,60.00509136249535,
,,,,,,,,,,,,1,0,1,0,138,0,138,0,,,,,,,138,,,0.2,1733.3320075966185,,X,None,nogo,d,0,0.20933780842460692,,,,,,,,,,,,,,,65,001,20,m,Psychologie,2023-01-25_09h15.51.110,00_bat_bachelor,2022.2.4,60.00509136249535,
,,,,,,,,,,,,1,0,1,0,139,0,139,0,,,,,,,139,,,0.2,1733.8487957096659,,Y,d,go,d,1,0.541015223483555,,,,,,,,,,,,,,,65,001,20,m,Psychologie,2023-01-25_09h15.51.110,00_bat_bachelor,2022.2.4,60.00509136249535,
,,,,,,,,,,,,1,0,1,0,140,0,140,0,,,,,,,140,,,0.2,1734.6991986912908,,X,l,go,l,1,0.21907695522531867,,,,,,,,,,,,,,,65,001,20,m,Psychologie,2023-01-25_09h15.51.110,00_bat_bachelor,2022.2.4,60.00509136249535,
,,,,,,,,,,,,1,0,1,0,141,0,141,0,,,,,,,141,,,0.2,1735.2321337056346,,X,None,nogo,d,0,0.24508276081178337,,,,,,,,,,,,,,,65,001,20,m,Psychologie,2023-01-25_09h15.51.110,00_bat_bachelor,2022.2.4,60.00509136249535,
,,,,,,,,,,,,1,0,1,0,142,0,142,0,,,,,,,142,,,0.2,1735.7820597420214,1736.5822658995166,Y,d,go,None,0,,,,,,,,,,,,,,,,65,001,20,m,Psychologie,2023-01-25_09h15.51.110,00_bat_bachelor,2022.2.4,60.00509136249535,
,,,,,,,,,,,,1,0,1,0,143,0,143,0,,,,,,,143,,,0.2,1736.782023378415,,X,l,go,l,1,0.24676712369546294,,,,,,,,,,,,,,,65,001,20,m,Psychologie,2023-01-25_09h15.51.110,00_bat_bachelor,2022.2.4,60.00509136249535,
,,,,,,,,,,,,1,0,1,0,144,0,144,0,,,,,,,144,,,0.2,1737.3323717175517,1738.1320469662314,X,None,nogo,None,1,,,,,,,,,,,,,,,,65,001,20,m,Psychologie,2023-01-25_09h15.51.110,00_bat_bachelor,2022.2.4,60.00509136249535,
,,,,,,,,,,,,1,0,1,0,145,0,145,0,,,,,,,145,,,0.2,1738.3322616571095,,Y,d,go,d,1,0.2325775547651574,,,,,,,,,,,,,,,65,001,20,m,Psychologie,2023-01-25_09h15.51.110,00_bat_bachelor,2022.2.4,60.00509136249535,
,,,,,,,,,,,,1,0,1,0,146,0,146,0,,,,,,,146,,,0.2,1738.8657120651333,,X,l,go,l,1,0.26004178391303867,,,,,,,,,,,,,,,65,001,20,m,Psychologie,2023-01-25_09h15.51.110,00_bat_bachelor,2022.2.4,60.00509136249535,
,,,,,,,,,,,,1,0,1,0,147,0,147,0,,,,,,,147,,,0.2,1739.432337729726,1740.2323441297049,X,None,nogo,None,1,,,,,,,,,,,,,,,,65,001,20,m,Psychologie,2023-01-25_09h15.51.110,00_bat_bachelor,2022.2.4,60.00509136249535,
,,,,,,,,,,,,1,0,1,0,148,0,148,0,,,,,,,148,,,0.2,1740.4323532448616,,X,None,nogo,d,0,0.21387453353963792,,,,,,,,,,,,,,,65,001,20,m,Psychologie,2023-01-25_09h15.51.110,00_bat_bachelor,2022.2.4,60.00509136249535,
,,,,,,,,,,,,1,0,1,0,149,0,149,0,,,,,,,149,,,0.2,1740.9487331156852,1741.748725455138,Y,d,go,None,0,,,,,,,,,,,,,,,,65,001,20,m,Psychologie,2023-01-25_09h15.51.110,00_bat_bachelor,2022.2.4,60.00509136249535,
,,,,,,,,,,,,1,0,1,0,150,0,150,0,,,,,,,150,,,0.2,1741.9490201459266,,X,l,go,l,1,0.20006169169209898,,,,,,,,,,,,,,,65,001,20,m,Psychologie,2023-01-25_09h15.51.110,00_bat_bachelor,2022.2.4,60.00509136249535,
,,,,,,,,,,,,1,0,1,0,151,0,151,0,,,,,,,151,,,0.2,1742.4488089944934,,Y,d,go,d,1,0.3559816161869094,,,,,,,,,,,,,,,65,001,20,m,Psychologie,2023-01-25_09h15.51.110,00_bat_bachelor,2022.2.4,60.00509136249535,
,,,,,,,,,,,,1,0,1,0,152,0,152,0,,,,,,,152,,,0.2,1743.1157163075404,,X,l,go,l,1,0.5220857780659571,,,,,,,,,,,,,,,65,001,20,m,Psychologie,2023-01-25_09h15.51.110,00_bat_bachelor,2022.2.4,60.00509136249535,
,,,,,,,,,,,,1,0,1,0,153,0,153,0,,,,,,,153,,,0.2,1743.9489076611353,,X,None,nogo,l,0,0.29621534212492406,,,,,,,,,,,,,,,65,001,20,m,Psychologie,2023-01-25_09h15.51.110,00_bat_bachelor,2022.2.4,60.00509136249535,
,,,,,,,,,,,,1,0,1,0,154,0,154,0,,,,,,,154,,,0.2,1744.5490950064268,,Y,d,go,d,1,0.36896779178641737,,,,,,,,,,,,,,,65,001,20,m,Psychologie,2023-01-25_09h15.51.110,00_bat_bachelor,2022.2.4,60.00509136249535,
,,,,,,,,,,,,1,0,1,0,155,0,155,0,,,,,,,155,,,0.2,1745.232028978411,,X,l,go,l,1,0.2769668665714562,,,,,,,,,,,,,,,65,001,20,m,Psychologie,2023-01-25_09h15.51.110,00_bat_bachelor,2022.2.4,60.00509136249535,
,,,,,,,,,,,,1,0,1,0,156,0,156,0,,,,,,,156,,,0.2,1745.8154958470259,,Y,d,go,d,1,0.25465269561391324,,,,,,,,,,,,,,,65,001,20,m,Psychologie,2023-01-25_09h15.51.110,00_bat_bachelor,2022.2.4,60.00509136249535,
,,,,,,,,,,,,1,0,1,0,157,0,157,0,,,,,,,157,,,0.2,1746.3820550874807,1747.1823436691193,Y,None,nogo,None,1,,,,,,,,,,,,,,,,65,001,20,m,Psychologie,2023-01-25_09h15.51.110,00_bat_bachelor,2022.2.4,60.00509136249535,
,,,,,,,,,,,,1,0,1,0,158,0,158,0,,,,,,,158,,,0.2,1747.3822296328144,,X,l,go,l,1,0.23878167290240526,,,,,,,,,,,,,,,65,001,20,m,Psychologie,2023-01-25_09h15.51.110,00_bat_bachelor,2022.2.4,60.00509136249535,
,,,,,,,,,,,,1,0,1,0,159,0,159,0,,,,,,,159,,,0.2,1747.9323893660912,,Y,d,go,d,1,0.24929609219543636,,,,,,,,,,,,,,,65,001,20,m,Psychologie,2023-01-25_09h15.51.110,00_bat_bachelor,2022.2.4,60.00509136249535,
,,,,,,,,,,,,1,0,1,0,160,0,160,0,,,,,,,160,,,0.2,1748.4824453417677,1749.2823523479747,Y,None,nogo,None,1,,,,,,,,,,,,,,,,65,001,20,m,Psychologie,2023-01-25_09h15.51.110,00_bat_bachelor,2022.2.4,60.00509136249535,
,,,,,,,,,,,,1,0,1,0,161,0,161,0,,,,,,,161,,,0.2,1749.4824404933024,,X,l,go,l,1,0.21947453077882528,,,,,,,,,,,,,,,65,001,20,m,Psychologie,2023-01-25_09h15.51.110,00_bat_bachelor,2022.2.4,60.00509136249535,
,,,,,,,,,,,,1,0,1,0,162,0,162,0,,,,,,,162,,,0.2,1750.0157498104963,,Y,d,go,d,1,0.23033367714378983,,,,,,,,,,,,,,,65,001,20,m,Psychologie,2023-01-25_09h15.51.110,00_bat_bachelor,2022.2.4,60.00509136249535,
,,,,,,,,,,,,1,0,1,0,163,0,163,0,,,,,,,163,,,0.2,1750.5487434915267,1751.3486441945424,Y,None,nogo,None,1,,,,,,,,,,,,,,,,65,001,20,m,Psychologie,2023-01-25_09h15.51.110,00_bat_bachelor,2022.2.4,60.00509136249535,
,,,,,,,,,,,,1,0,1,0,164,0,164,0,,,,,,,164,,,0.2,1751.5490494307596,,X,l,go,l,1,0.16899213113356382,,,,,,,,,,,,,,,65,001,20,m,Psychologie,2023-01-25_09h15.51.110,00_bat_bachelor,2022.2.4,60.00509136249535,
,,,,,,,,,,,,1,0,1,0,165,0,165,0,,,,,,,165,,,0.2,1752.0323805903317,,Y,d,go,d,1,0.45409841707441956,,,,,,,,,,,,,,,65,001,20,m,Psychologie,2023-01-25_09h15.51.110,00_bat_bachelor,2022.2.4,60.00509136249535,
,,,,,,,,,,,,1,0,1,0,166,0,166,0,,,,,,,166,,,0.2,1752.7986759763444,,X,l,go,l,1,0.45434035640209913,,,,,,,,,,,,,,,65,001,20,m,Psychologie,2023-01-25_09h15.51.110,00_bat_bachelor,2022.2.4,60.00509136249535,
,,,,,,,,,,,,1,0,1,0,167,0,167,0,,,,,,,167,,,0.2,1753.565707846894,,Y,d,go,d,1,0.24770191102288663,,,,,,,,,,,,,,,65,001,20,m,Psychologie,2023-01-25_09h15.51.110,00_bat_bachelor,2022.2.4,60.00509136249535,
,,,,,,,,,,,,1,0,1,0,168,0,168,0,,,,,,,168,,,0.2,1754.1156896408647,,Y,None,nogo,d,0,0.40192729083355516,,,,,,,,,,,,,,,65,001,20,m,Psychologie,2023-01-25_09h15.51.110,00_bat_bachelor,2022.2.4,60.00509136249535,
,,,,,,,,,,,,1,0,1,0,169,0,169,0,,,,,,,169,,,0.2,1754.8323414146435,,X,l,go,l,1,0.2928204347845167,,,,,,,,,,,,,,,65,001,20,m,Psychologie,2023-01-25_09h15.51.110,00_bat_bachelor,2022.2.4,60.00509136249535,
,,,,,,,,,,,,1,0,1,0,170,0,170,0,,,,,,,170,,,0.2,1755.432408032706,,Y,d,go,d,1,0.26908565824851394,,,,,,,,,,,,,,,65,001,20,m,Psychologie,2023-01-25_09h15.51.110,00_bat_bachelor,2022.2.4,60.00509136249535,
,,,,,,,,,,,,1,0,1,0,171,0,171,0,,,,,,,171,,,0.2,1756.0155849620933,,X,l,go,l,1,0.3578904636669904,,,,,,,,,,,,,,,65,001,20,m,Psychologie,2023-01-25_09h15.51.110,00_bat_bachelor,2022.2.4,60.00509136249535,
,,,,,,,,,,,,1,0,1,0,172,0,172,0,,,,,,,172,,,0.2,1756.6822556691477,,Y,d,go,d,1,0.2836359542561695,,,,,,,,,,,,,,,65,001,20,m,Psychologie,2023-01-25_09h15.51.110,00_bat_bachelor,2022.2.4,60.00509136249535,
,,,,,,,,,,,,1,0,1,0,173,0,173,0,,,,,,,173,,,0.2,1757.2657026590314,,X,l,go,l,1,0.2594420266104862,,,,,,,,,,,,,,,65,001,20,m,Psychologie,2023-01-25_09h15.51.110,00_bat_bachelor,2022.2.4,60.00509136249535,
,,,,,,,,,,,,1,0,1,0,174,0,174,0,,,,,,,174,,,0.2,1757.8323414146435,,Y,d,go,d,1,0.2693925672210753,,,,,,,,,,,,,,,65,001,20,m,Psychologie,2023-01-25_09h15.51.110,00_bat_bachelor,2022.2.4,60.00509136249535,
,,,,,,,,,,,,1,0,1,0,175,0,175,0,,,,,,,175,,,0.2,1758.41539276822,,X,l,go,l,1,0.24570385145489126,,,,,,,,,,,,,,,65,001,20,m,Psychologie,2023-01-25_09h15.51.110,00_bat_bachelor,2022.2.4,60.00509136249535,
,,,,,,,,,,,,1,0,1,0,176,0,176,0,,,,,,,176,,,0.2,1758.965396865271,1759.7655395076144,X,None,nogo,None,1,,,,,,,,,,,,,,,,65,001,20,m,Psychologie,2023-01-25_09h15.51.110,00_bat_bachelor,2022.2.4,60.00509136249535,
,,,,,,,,,,,,1,0,1,0,177,0,177,0,,,,,,,177,,,0.2,1759.965392501559,,Y,d,go,d,1,0.19928205583710223,,,,,,,,,,,,,,,65,001,20,m,Psychologie,2023-01-25_09h15.51.110,00_bat_bachelor,2022.2.4,60.00509136249535,
,,,,,,,,,,,,1,0,1,0,178,0,178,0,,,,,,,178,,,0.2,1760.465368986479,,X,l,go,l,1,0.24370385240763426,,,,,,,,,,,,,,,65,001,20,m,Psychologie,2023-01-25_09h15.51.110,00_bat_bachelor,2022.2.4,60.00509136249535,
,,,,,,,,,,,,1,0,1,0,179,0,179,0,,,,,,,179,,,0.2,1761.0153958712472,,Y,d,go,d,1,0.22212228702846915,,,,,,,,,,,,,,,65,001,20,m,Psychologie,2023-01-25_09h15.51.110,00_bat_bachelor,2022.2.4,60.00509136249535,
,,,,,,,,,,,,1,0,1,0,180,0,180,0,,,,,,,180,,,0.2,1761.5490237338236,1762.3489530428778,Y,None,nogo,None,1,,,,,,,,,,,,,,,,65,001,20,m,Psychologie,2023-01-25_09h15.51.110,00_bat_bachelor,2022.2.4,60.00509136249535,
,,,,,,,,,,,,1,0,1,0,181,0,181,0,,,,,,,181,,,0.2,1762.5490421580616,,X,l,go,l,1,0.17687430907972157,,,,,,,,,,,,,,,65,001,20,m,Psychologie,2023-01-25_09h15.51.110,00_bat_bachelor,2022.2.4,60.00509136249535,
,,,,,,,,,,,,1,0,1,0,182,0,182,0,,,,,,,182,,,0.2,1763.0323548933957,,Y,d,go,d,1,0.2057222950970754,,,,,,,,,,,,,,,65,001,20,m,Psychologie,2023-01-25_09h15.51.110,00_bat_bachelor,2022.2.4,60.00509136249535,
,,,,,,,,,,,,1,0,1,0,183,0,183,0,,,,,,,183,,,0.2,1763.548779855133,,X,l,go,l,1,0.2004844795446843,,,,,,,,,,,,,,,65,001,20,m,Psychologie,2023-01-25_09h15.51.110,00_bat_bachelor,2022.2.4,60.00509136249535,
,,,,,,,,,,,,1,0,1,0,184,0,184,0,,,,,,,184,,,0.2,1764.0487451885128,,Y,d,go,d,1,0.2448015488917008,,,,,,,,,,,,,,,65,001,20,m,Psychologie,2023-01-25_09h15.51.110,00_bat_bachelor,2022.2.4,60.00509136249535,
,,,,,,,,,,,,1,0,1,0,185,0,185,0,,,,,,,185,,,0.2,1764.599011588376,,X,l,go,l,1,0.2391307638026774,,,,,,,,,,,,,,,65,001,20,m,Psychologie,2023-01-25_09h15.51.110,00_bat_bachelor,2022.2.4,60.00509136249535,
,,,,,,,,,,,,1,0,1,0,186,0,186,0,,,,,,,186,,,0.2,1765.1490433216095,,Y,d,go,d,1,0.2967564328573644,,,,,,,,,,,,,,,65,001,20,m,Psychologie,2023-01-25_09h15.51.110,00_bat_bachelor,2022.2.4,60.00509136249535,
,,,,,,,,,,,,1,0,1,0,187,0,187,0,,,,,,,187,,,0.2,1765.7490086065372,,X,l,go,l,1,0.2722861416405067,,,,,,,,,,,,,,,65,001,20,m,Psychologie,2023-01-25_09h15.51.110,00_bat_bachelor,2022.2.4,60.00509136249535,
,,,,,,,,,,,,1,0,1,0,188,0,188,0,,,,,,,188,,,0.2,1766.3320454147179,,X,None,nogo,d,0,0.23329076648224145,,,,,,,,,,,,,,,65,001,20,m,Psychologie,2023-01-25_09h15.51.110,00_bat_bachelor,2022.2.4,60.00509136249535,
,,,,,,,,,,,,1,0,1,0,189,0,189,0,,,,,,,189,,,0.2,1766.8653595803771,,Y,d,go,d,1,0.4201163729885593,,,,,,,,,,,,,,,65,001,20,m,Psychologie,2023-01-25_09h15.51.110,00_bat_bachelor,2022.2.4,60.00509136249535,
,,,,,,,,,,,,1,0,1,0,190,0,190,0,,,,,,,190,,,0.2,1767.5990309822373,,X,l,go,l,1,0.23116664635017514,,,,,,,,,,,,,,,65,001,20,m,Psychologie,2023-01-25_09h15.51.110,00_bat_bachelor,2022.2.4,60.00509136249535,
,,,,,,,,,,,,1,0,1,0,191,0,191,0,,,,,,,191,,,0.2,1768.1321560570505,,Y,d,go,d,1,0.24099839921109378,,,,,,,,,,,,,,,65,001,20,m,Psychologie,2023-01-25_09h15.51.110,00_bat_bachelor,2022.2.4,60.00509136249535,
,,,,,,,,,,,,1,0,1,0,192,0,192,0,,,,,,,192,,,0.2,1768.6824098508805,,Y,None,nogo,d,0,0.3950535971671343,,,,,,,,,,,,,,,65,001,20,m,Psychologie,2023-01-25_09h15.51.110,00_bat_bachelor,2022.2.4,60.00509136249535,
,,,,,,,,,,,,1,0,1,0,193,0,193,0,,,,,,,193,,,0.2,1769.3820589662064,,Y,None,nogo,l,0,0.2879646795336157,,,,,,,,,,,,,,,65,001,20,m,Psychologie,2023-01-25_09h15.51.110,00_bat_bachelor,2022.2.4,60.00509136249535,
,,,,,,,,,,,,1,0,1,0,194,0,194,0,,,,,,,194,,,0.2,1769.9820111602312,,X,l,go,l,1,0.5351669838419184,,,,,,,,,,,,,,,65,001,20,m,Psychologie,2023-01-25_09h15.51.110,00_bat_bachelor,2022.2.4,60.00509136249535,
,,,,,,,,,,,,1,0,1,0,195,0,195,0,,,,,,,195,,,0.2,1770.8320296572056,,Y,d,go,d,1,0.27718844218179584,,,,,,,,,,,,,,,65,001,20,m,Psychologie,2023-01-25_09h15.51.110,00_bat_bachelor,2022.2.4,60.00509136249535,
,,,,,,,,,,,,1,0,1,0,196,0,196,0,,,,,,,196,,,0.2,1771.415688040899,1772.2157303196145,Y,None,nogo,None,1,,,,,,,,,,,,,,,,65,001,20,m,Psychologie,2023-01-25_09h15.51.110,00_bat_bachelor,2022.2.4,60.00509136249535,
,,,,,,,,,,,,1,0,1,0,197,0,197,0,,,,,,,197,,,0.2,1772.4157428287435,,Y,None,nogo,l,0,0.2302851922577247,,,,,,,,,,,,,,,65,001,20,m,Psychologie,2023-01-25_09h15.51.110,00_bat_bachelor,2022.2.4,60.00509136249535,
,,,,,,,,,,,,1,0,1,0,198,0,198,0,,,,,,,198,,,0.2,1772.9490550549235,,X,l,go,l,1,0.4167234048945829,,,,,,,,,,,,,,,65,001,20,m,Psychologie,2023-01-25_09h15.51.110,00_bat_bachelor,2022.2.4,60.00509136249535,
