loop_instruction.thisRepN,loop_instruction.thisTrialN,loop_instruction.thisN,loop_instruction.thisIndex,loop_rsi_practice.thisRepN,loop_rsi_practice.thisTrialN,loop_rsi_practice.thisN,loop_rsi_practice.thisIndex,loop_practice.thisRepN,loop_practice.thisTrialN,loop_practice.thisN,loop_practice.thisIndex,loop_exp.thisRepN,loop_exp.thisTrialN,loop_exp.thisN,loop_exp.thisIndex,loop_trials.thisRepN,loop_trials.thisTrialN,loop_trials.thisN,loop_trials.thisIndex,map_condition,map_x_key,map_y_key,key_resp_welcome.started,key_resp_welcome.keys,key_resp_welcome.rt,index,text_empty_rsi_practice.started,text_empty_rsi_practice.stopped,rsi,stimulus.started,stimulus,correct,trial_type,key_resp_trial.keys,key_resp_trial.corr,key_resp_trial.rt,key_resp_instruction_rsi.started,key_resp_instruction_rsi.keys,key_resp_instruction_rsi.rt,key_resp_instruction_rsi.stopped,key_resp_instruction_final.started,key_resp_instruction_final.keys,key_resp_instruction_final.rt,stimulus.stopped,key_resp_break.started,key_resp_break.keys,key_resp_break.rt,key_resp_break.stopped,key_resp_end_screen.started,image_end_screen.started,key_resp_end_screen.stopped,image_end_screen.stopped,key_resp_end_screen.keys,participant,session,Alter,Geschlecht (w/m/d/andere),Studiengang,date,expName,psychopyVersion,frameRate,
,,,,0,0,0,0,0,0,0,0,,,,,,,,,0,d,l,513.2897536335804,j,23.903571005444974,0,537.2232381428767,538.2378660429677,1,538.2378660429677,X,d,go,None,0,,,,,,,,,,,,,,,,,,,68,001,23,w,Psychologie,2023-01-25_12h01.46.313,00_bat_bachelor,2022.2.4,59.95386815534916,
,,,,0,0,0,0,1,0,1,0,,,,,,,,,,,,,,,1,539.6387267472455,540.6394278391672,1,540.6394278391672,Y,l,go,l,1,0.4545880493533332,,,,,,,,,,,,,,,,,,68,001,23,w,Psychologie,2023-01-25_12h01.46.313,00_bat_bachelor,2022.2.4,59.95386815534916,
,,,,0,0,0,0,2,0,2,0,,,,,,,,,,,,,,,2,541.8068414160225,542.8077795991849,1,542.8077795991849,X,d,go,d,1,0.2547346677456517,,,,,,,,,,,,,,,,,,68,001,23,w,Psychologie,2023-01-25_12h01.46.313,00_bat_bachelor,2022.2.4,59.95386815534916,
,,,,0,0,0,0,3,0,3,0,,,,,,,,,,,,,,,3,543.7753713096317,544.7760035529791,1,544.7760035529791,Y,l,go,l,1,0.49329356019734405,,,,,,,,,,,,,,,,,,68,001,23,w,Psychologie,2023-01-25_12h01.46.313,00_bat_bachelor,2022.2.4,59.95386815534916,
,,,,0,0,0,0,4,0,4,0,,,,,,,,,,,,,,,4,545.976951239194,546.9773071185045,1,546.9773071185045,Y,None,nogo,l,0,0.5008334499434568,,,,,,,,,,,,,,,,,,68,001,23,w,Psychologie,2023-01-25_12h01.46.313,00_bat_bachelor,2022.2.4,59.95386815534916,
,,,,0,0,0,0,5,0,5,0,,,,,,,,,,,,,,,5,548.5962069278175,549.5970268077799,1,549.5970268077799,X,d,go,d,1,0.3607731250231154,,,,,,,,,,,,,,,,,,68,001,23,w,Psychologie,2023-01-25_12h01.46.313,00_bat_bachelor,2022.2.4,59.95386815534916,
,,,,0,0,0,0,6,0,6,0,,,,,,,,,,,,,,,6,550.6806322627235,551.6815452337614,1,551.6815452337614,Y,l,go,l,1,0.32407731405692175,,,,,,,,,,,,,,,,,,68,001,23,w,Psychologie,2023-01-25_12h01.46.313,00_bat_bachelor,2022.2.4,59.95386815534916,
,,,,0,0,0,0,7,0,7,0,,,,,,,,,,,,,,,7,552.7157135258894,553.7163913450495,1,553.7163913450495,X,d,go,d,1,0.481705664540641,,,,,,,,,,,,,,,,,,68,001,23,w,Psychologie,2023-01-25_12h01.46.313,00_bat_bachelor,2022.2.4,59.95386815534916,
,,,,0,0,0,0,8,0,8,0,,,,,,,,,,,,,,,8,554.9008211890759,555.9014471293776,1,555.9014471293776,Y,l,go,l,1,0.28028573520714417,,,,,,,,,,,,,,,,,,68,001,23,w,Psychologie,2023-01-25_12h01.46.313,00_bat_bachelor,2022.2.4,59.95386815534916,
,,,,0,0,0,0,9,0,9,0,,,,,,,,,,,,,,,9,556.8854640758364,557.8863358346571,1,557.8863358346571,X,d,go,l,0,0.37575399529305287,,,,,,,,,,,,,,,,,,68,001,23,w,Psychologie,2023-01-25_12h01.46.313,00_bat_bachelor,2022.2.4,59.95386815534916,
,,,,0,0,0,0,10,0,10,0,,,,,,,,,,,,,,,10,558.9706249269657,559.9711737762555,1,559.9711737762555,X,None,nogo,d,0,0.29120114503894,,,,,,,,,,,,,,,,,,68,001,23,w,Psychologie,2023-01-25_12h01.46.313,00_bat_bachelor,2022.2.4,59.95386815534916,
,,,,0,0,0,0,11,0,11,0,,,,,,,,,,,,,,,11,561.3888107473613,562.3893043238204,1,562.3893043238204,Y,l,go,l,1,0.4969590200926177,,,,,,,,,,,,,,,,,,68,001,23,w,Psychologie,2023-01-25_12h01.46.313,00_bat_bachelor,2022.2.4,59.95386815534916,
,,,,0,0,0,0,12,0,12,0,,,,,,,,,,,,,,,12,563.5903111616499,564.5912415872444,1,564.5912415872444,X,d,go,d,1,0.4075208293797914,,,,,,,,,,,,,,,,,,68,001,23,w,Psychologie,2023-01-25_12h01.46.313,00_bat_bachelor,2022.2.4,59.95386815534916,
,,,,0,0,0,0,13,0,13,0,,,,,,,,,,,,,,,13,565.708694364148,566.7094502440596,1,566.7094502440596,X,None,nogo,d,0,0.46543558026314713,,,,,,,,,,,,,,,,,,68,001,23,w,Psychologie,2023-01-25_12h01.46.313,00_bat_bachelor,2022.2.4,59.95386815534916,
,,,,0,0,0,0,14,0,14,0,,,,,,,,,,,,,,,14,568.2776779796404,569.2781114348327,1,569.2781114348327,X,None,nogo,d,0,0.4717235894058831,,,,,,,,,,,,,,,,,,68,001,23,w,Psychologie,2023-01-25_12h01.46.313,00_bat_bachelor,2022.2.4,59.95386815534916,
,,,,1,0,1,0,0,0,0,0,,,,,,,,,,,,,,,0,597.1496268842893,597.3494836598402,0.2,597.3494836598402,X,d,go,d,1,0.5291510668757837,570.8902606888732,j,26.23991719164769,,,,,,,,,,,,,,,68,001,23,w,Psychologie,2023-01-25_12h01.46.313,00_bat_bachelor,2022.2.4,59.95386815534916,
,,,,1,0,1,0,1,0,1,0,,,,,,,,,,,,,,,1,598.5838568492327,598.7838168976596,0.2,598.7838168976596,Y,l,go,l,1,0.4701449204585515,,,,,,,,,,,,,,,,,,68,001,23,w,Psychologie,2023-01-25_12h01.46.313,00_bat_bachelor,2022.2.4,59.95386815534916,
,,,,1,0,1,0,2,0,2,0,,,,,,,,,,,,,,,2,599.9681124384515,600.1683871540008,0.2,600.1683871540008,X,d,go,d,1,0.3980895429267548,,,,,,,,,,,,,,,,,,68,001,23,w,Psychologie,2023-01-25_12h01.46.313,00_bat_bachelor,2022.2.4,59.95386815534916,
,,,,1,0,1,0,3,0,3,0,,,,,,,,,,,,,,,3,601.2689463305869,601.468950985145,0.2,601.468950985145,X,None,nogo,None,1,,,,,,,,,,,,,,,,,,,68,001,23,w,Psychologie,2023-01-25_12h01.46.313,00_bat_bachelor,2022.2.4,59.95386815534916,
,,,,1,0,1,0,4,0,4,0,,,,,,,,,,,,,,,4,602.8704764176509,603.0704616782314,0.2,603.0704616782314,Y,l,go,l,1,0.31258299431647174,,,,,,,,,,,,,,,,,,68,001,23,w,Psychologie,2023-01-25_12h01.46.313,00_bat_bachelor,2022.2.4,59.95386815534916,
,,,,1,0,1,0,5,0,5,0,,,,,,,,,,,,,,,5,604.087824612594,604.2877565397648,0.2,604.2877565397648,X,d,go,d,1,0.3736953256011475,,,,,,,,,,,,,,,,,,68,001,23,w,Psychologie,2023-01-25_12h01.46.313,00_bat_bachelor,2022.2.4,59.95386815534916,
,,,,1,0,1,0,6,0,6,0,,,,,,,,,,,,,,,6,605.3722851475759,605.5722049534961,0.2,605.5722049534961,Y,l,go,l,1,0.4495431935065426,,,,,,,,,,,,,,,,,,68,001,23,w,Psychologie,2023-01-25_12h01.46.313,00_bat_bachelor,2022.2.4,59.95386815534916,
,,,,1,0,1,0,7,0,7,0,,,,,,,,,,,,,,,7,606.723346506682,606.9234617068432,0.2,606.9234617068432,Y,None,nogo,l,0,0.4747466241242364,,,,,,,,,,,,,,,,,,68,001,23,w,Psychologie,2023-01-25_12h01.46.313,00_bat_bachelor,2022.2.4,59.95386815534916,
,,,,1,0,1,0,8,0,8,0,,,,,,,,,,,,,,,8,608.507895041781,608.7081678179384,0.2,608.7081678179384,X,d,go,d,1,0.43431698955828324,,,,,,,,,,,,,,,,,,68,001,23,w,Psychologie,2023-01-25_12h01.46.313,00_bat_bachelor,2022.2.4,59.95386815534916,
,,,,1,0,1,0,9,0,9,0,,,,,,,,,,,,,,,9,609.859114461753,610.0591506314813,0.2,610.0591506314813,Y,l,go,l,1,0.37941800063708797,,,,,,,,,,,,,,,,,,68,001,23,w,Psychologie,2023-01-25_12h01.46.313,00_bat_bachelor,2022.2.4,59.95386815534916,
,,,,1,0,1,0,10,0,10,0,,,,,,,,,,,,,,,10,611.1433180266467,611.3434531056264,0.2,611.3434531056264,X,d,go,d,1,0.5187510517716873,,,,,,,,,,,,,,,,,,68,001,23,w,Psychologie,2023-01-25_12h01.46.313,00_bat_bachelor,2022.2.4,59.95386815534916,
,,,,1,0,1,0,11,0,11,0,,,,,,,,,,,,,,,11,612.5777821737283,612.777951192169,0.2,612.777951192169,Y,l,go,l,1,0.6041392971819732,,,,,,,,,,,,,,,,,,68,001,23,w,Psychologie,2023-01-25_12h01.46.313,00_bat_bachelor,2022.2.4,59.95386815534916,
,,,,1,0,1,0,12,0,12,0,,,,,,,,,,,,,,,12,614.095238926413,614.2957066119416,0.2,614.2957066119416,X,d,go,d,1,0.4626350913604256,,,,,,,,,,,,,,,,,,68,001,23,w,Psychologie,2023-01-25_12h01.46.313,00_bat_bachelor,2022.2.4,59.95386815534916,
,,,,1,0,1,0,13,0,13,0,,,,,,,,,,,,,,,13,615.4629524309712,615.6634986620629,0.2,615.6634986620629,X,None,nogo,None,1,,,,,,,,,,,,,,,,,,,68,001,23,w,Psychologie,2023-01-25_12h01.46.313,00_bat_bachelor,2022.2.4,59.95386815534916,
,,,,1,0,1,0,14,0,14,0,,,,,,,,,,,,,,,14,617.0642022752145,617.2643460814725,0.2,617.2643460814725,Y,l,go,l,1,0.325700589135522,,,,,,,,,,,,,,,,,,68,001,23,w,Psychologie,2023-01-25_12h01.46.313,00_bat_bachelor,2022.2.4,59.95386815534916,
,,,,,,,,,,,,,,,,,,,,,,,,,,,,,,,,,,,,,618.3306467839575,None,,618.3306467839575,618.3306467839575,space,12.606708028179128,,,,,,,,,,,68,001,23,w,Psychologie,2023-01-25_12h01.46.313,00_bat_bachelor,2022.2.4,59.95386815534916,
,,,,,,,,,,,,0,0,0,0,0,0,0,0,,,,,,,0,,,1,631.9589066068875,X,d,go,d,1,0.3829704906383995,,,,,,,,,,,,,,,,,,68,001,23,w,Psychologie,2023-01-25_12h01.46.313,00_bat_bachelor,2022.2.4,59.95386815534916,
,,,,,,,,,,,,0,0,0,0,1,0,1,0,,,,,,,1,,,1,633.4433533721603,Y,l,go,l,1,0.44980840603238903,,,,,,,,,,,,,,,,,,68,001,23,w,Psychologie,2023-01-25_12h01.46.313,00_bat_bachelor,2022.2.4,59.95386815534916,
,,,,,,,,,,,,0,0,0,0,2,0,2,0,,,,,,,2,,,1,634.994839265215,X,d,go,d,1,0.4510690139431972,,,,,,,,,,,,,,,,,,68,001,23,w,Psychologie,2023-01-25_12h01.46.313,00_bat_bachelor,2022.2.4,59.95386815534916,
,,,,,,,,,,,,0,0,0,0,3,0,3,0,,,,,,,3,,,1,636.5627872428449,Y,l,go,l,1,0.43540790025144815,,,,,,,,,,,,,,,,,,68,001,23,w,Psychologie,2023-01-25_12h01.46.313,00_bat_bachelor,2022.2.4,59.95386815534916,
,,,,,,,,,,,,0,0,0,0,4,0,4,0,,,,,,,4,,,1,638.1136079228309,Y,None,nogo,None,1,,,,,,,,,,,,,,,,,,,68,001,23,w,Psychologie,2023-01-25_12h01.46.313,00_bat_bachelor,2022.2.4,59.95386815534916,
,,,,,,,,,,,,0,0,0,0,5,0,5,0,,,,,,,5,,,1,639.9152871495171,X,d,go,d,1,0.25010969131835736,,,,,,,,,,,,,,,,,,68,001,23,w,Psychologie,2023-01-25_12h01.46.313,00_bat_bachelor,2022.2.4,59.95386815534916,
,,,,,,,,,,,,0,0,0,0,6,0,6,0,,,,,,,6,,,1,641.266228750872,Y,l,go,l,1,0.5648568157921545,,,,,,,,,,,,,,,,,,68,001,23,w,Psychologie,2023-01-25_12h01.46.313,00_bat_bachelor,2022.2.4,59.95386815534916,
,,,,,,,,,,,,0,0,0,0,7,0,7,0,,,,,,,7,,,1,642.9342350558436,X,d,go,d,1,0.46423121489351615,,,,,,,,,,,,,,,,,,68,001,23,w,Psychologie,2023-01-25_12h01.46.313,00_bat_bachelor,2022.2.4,59.95386815534916,
,,,,,,,,,,,,0,0,0,0,8,0,8,0,,,,,,,8,,,1,644.5018101844471,Y,l,go,l,1,0.5284349446592387,,,,,,,,,,,,,,,,,,68,001,23,w,Psychologie,2023-01-25_12h01.46.313,00_bat_bachelor,2022.2.4,59.95386815534916,
,,,,,,,,,,,,0,0,0,0,9,0,9,0,,,,,,,9,,,1,646.136628077511,X,d,go,d,1,0.526058213901706,,,,,,,,,,,,,,,,,,68,001,23,w,Psychologie,2023-01-25_12h01.46.313,00_bat_bachelor,2022.2.4,59.95386815534916,
,,,,,,,,,,,,0,0,0,0,10,0,10,0,,,,,,,10,,,1,647.7713766371598,Y,l,go,l,1,0.5553406807594001,,,,,,,,,,,,,,,,,,68,001,23,w,Psychologie,2023-01-25_12h01.46.313,00_bat_bachelor,2022.2.4,59.95386815534916,
,,,,,,,,,,,,0,0,0,0,11,0,11,0,,,,,,,11,,,1,649.4391817297146,X,d,go,d,1,0.5021061790757813,,,,,,,,,,,,,,,,,,68,001,23,w,Psychologie,2023-01-25_12h01.46.313,00_bat_bachelor,2022.2.4,59.95386815534916,
,,,,,,,,,,,,0,0,0,0,12,0,12,0,,,,,,,12,,,1,651.0568146281003,Y,l,go,l,1,0.516588139522355,,,,,,,,,,,,,,,,,,68,001,23,w,Psychologie,2023-01-25_12h01.46.313,00_bat_bachelor,2022.2.4,59.95386815534916,
,,,,,,,,,,,,0,0,0,0,13,0,13,0,,,,,,,13,,,1,652.6750560122018,Y,None,nogo,None,1,,,,,,,,,,,,,,,,,,,68,001,23,w,Psychologie,2023-01-25_12h01.46.313,00_bat_bachelor,2022.2.4,59.95386815534916,
,,,,,,,,,,,,0,0,0,0,14,0,14,0,,,,,,,14,,,1,654.476440450584,X,d,go,d,1,0.2652321375499014,,,,,,,,,,,,,,,,,,68,001,23,w,Psychologie,2023-01-25_12h01.46.313,00_bat_bachelor,2022.2.4,59.95386815534916,
,,,,,,,,,,,,0,0,0,0,15,0,15,0,,,,,,,15,,,1,655.8441238944943,Y,l,go,l,1,0.46540842874674127,,,,,,,,,,,,,,,,,,68,001,23,w,Psychologie,2023-01-25_12h01.46.313,00_bat_bachelor,2022.2.4,59.95386815534916,
,,,,,,,,,,,,0,0,0,0,16,0,16,0,,,,,,,16,,,1,657.4117887201719,Y,None,nogo,None,1,,,,,,,,,,,,,,,,,,,68,001,23,w,Psychologie,2023-01-25_12h01.46.313,00_bat_bachelor,2022.2.4,59.95386815534916,
,,,,,,,,,,,,0,0,0,0,17,0,17,0,,,,,,,17,,,1,659.2133370375668,Y,None,nogo,l,0,0.617025618936168,,,,,,,,,,,,,,,,,,68,001,23,w,Psychologie,2023-01-25_12h01.46.313,00_bat_bachelor,2022.2.4,59.95386815534916,
,,,,,,,,,,,,0,0,0,0,18,0,18,0,,,,,,,18,,,1,660.931901961565,X,d,go,d,1,0.3866422535502352,,,,,,,,,,,,,,,,,,68,001,23,w,Psychologie,2023-01-25_12h01.46.313,00_bat_bachelor,2022.2.4,59.95386815534916,
,,,,,,,,,,,,0,0,0,0,19,0,19,0,,,,,,,19,,,1,662.4325184472837,Y,l,go,l,1,0.4380997829430271,,,,,,,,,,,,,,,,,,68,001,23,w,Psychologie,2023-01-25_12h01.46.313,00_bat_bachelor,2022.2.4,59.95386815534916,
,,,,,,,,,,,,0,0,0,0,20,0,20,0,,,,,,,20,,,1,663.9836436125624,X,d,go,d,1,0.4234743071428966,,,,,,,,,,,,,,,,,,68,001,23,w,Psychologie,2023-01-25_12h01.46.313,00_bat_bachelor,2022.2.4,59.95386815534916,
,,,,,,,,,,,,0,0,0,0,21,0,21,0,,,,,,,21,,,1,665.5179129957396,X,None,nogo,None,1,,,,,,,,,,,,,,,,,,,68,001,23,w,Psychologie,2023-01-25_12h01.46.313,00_bat_bachelor,2022.2.4,59.95386815534916,
,,,,,,,,,,,,0,0,0,0,22,0,22,0,,,,,,,22,,,1,667.3195985254715,Y,l,go,l,1,0.26988475036341697,,,,,,,,,,,,,,,,,,68,001,23,w,Psychologie,2023-01-25_12h01.46.313,00_bat_bachelor,2022.2.4,59.95386815534916,
,,,,,,,,,,,,0,0,0,0,23,0,23,0,,,,,,,23,,,1,668.7039990845951,X,d,go,d,1,0.5818803556903731,,,,,,,,,,,,,,,,,,68,001,23,w,Psychologie,2023-01-25_12h01.46.313,00_bat_bachelor,2022.2.4,59.95386815534916,
,,,,,,,,,,,,0,0,0,0,24,0,24,0,,,,,,,24,,,1,670.3886817774619,Y,l,go,l,1,0.4819364527647849,,,,,,,,,,,,,,,,,,68,001,23,w,Psychologie,2023-01-25_12h01.46.313,00_bat_bachelor,2022.2.4,59.95386815534916,
,,,,,,,,,,,,0,0,0,0,25,0,25,0,,,,,,,25,,,1,671.9730501426093,X,d,go,d,1,0.5141411056683864,,,,,,,,,,,,,,,,,,68,001,23,w,Psychologie,2023-01-25_12h01.46.313,00_bat_bachelor,2022.2.4,59.95386815534916,
,,,,,,,,,,,,0,0,0,0,26,0,26,0,,,,,,,26,,,1,673.5910665566917,Y,l,go,l,1,0.49538035108707845,,,,,,,,,,,,,,,,,,68,001,23,w,Psychologie,2023-01-25_12h01.46.313,00_bat_bachelor,2022.2.4,59.95386815534916,
,,,,,,,,,,,,0,0,0,0,27,0,27,0,,,,,,,27,,,1,675.1922184613941,X,d,go,d,1,0.4465715528349392,,,,,,,,,,,,,,,,,,68,001,23,w,Psychologie,2023-01-25_12h01.46.313,00_bat_bachelor,2022.2.4,59.95386815534916,
,,,,,,,,,,,,0,0,0,0,28,0,28,0,,,,,,,28,,,1,676.7434798692993,X,None,nogo,None,1,,,,,,,,,677.5440453974006,,,,,,,,,,68,001,23,w,Psychologie,2023-01-25_12h01.46.313,00_bat_bachelor,2022.2.4,59.95386815534916,
,,,,,,,,,,,,0,0,0,0,29,0,29,0,,,,,,,29,,,1,678.5448686713353,Y,l,go,l,1,0.46867194861988537,,,,,,,,,,,,,,,,,,68,001,23,w,Psychologie,2023-01-25_12h01.46.313,00_bat_bachelor,2022.2.4,59.95386815534916,
,,,,,,,,,,,,0,0,0,0,30,0,30,0,,,,,,,30,,,1,680.1290300058608,X,d,go,d,1,0.38916104508098215,,,,,,,,,,,,,,,,,,68,001,23,w,Psychologie,2023-01-25_12h01.46.313,00_bat_bachelor,2022.2.4,59.95386815534916,
,,,,,,,,,,,,0,0,0,0,31,0,31,0,,,,,,,31,,,1,681.630479462503,Y,l,go,l,1,0.5835055702191312,,,,,,,,,,,,,,,,,,68,001,23,w,Psychologie,2023-01-25_12h01.46.313,00_bat_bachelor,2022.2.4,59.95386815534916,
,,,,,,,,,,,,0,0,0,0,32,0,32,0,,,,,,,32,,,1,683.3148082154803,Y,None,nogo,None,1,,,,,,,,,,,,,,,,,,,68,001,23,w,Psychologie,2023-01-25_12h01.46.313,00_bat_bachelor,2022.2.4,59.95386815534916,
,,,,,,,,,,,,0,0,0,0,33,0,33,0,,,,,,,33,,,1,685.1163638056314,X,d,go,d,1,0.3615585806837771,,,,,,,,,,,,,,,,,,68,001,23,w,Psychologie,2023-01-25_12h01.46.313,00_bat_bachelor,2022.2.4,59.95386815534916,
,,,,,,,,,,,,0,0,0,0,34,0,34,0,,,,,,,34,,,1,686.5839601221087,Y,l,go,l,1,0.4146946579858195,,,,,,,,,,,,,,,,,,68,001,23,w,Psychologie,2023-01-25_12h01.46.313,00_bat_bachelor,2022.2.4,59.95386815534916,
,,,,,,,,,,,,0,0,0,0,35,0,35,0,,,,,,,35,,,1,688.101780026831,Y,None,nogo,None,1,,,,,,,,,,,,,,,,,,,68,001,23,w,Psychologie,2023-01-25_12h01.46.313,00_bat_bachelor,2022.2.4,59.95386815534916,
,,,,,,,,,,,,0,0,0,0,36,0,36,0,,,,,,,36,,,1,689.9033462836524,X,d,go,d,1,0.23070748129975982,,,,,,,,,,,,,,,,,,68,001,23,w,Psychologie,2023-01-25_12h01.46.313,00_bat_bachelor,2022.2.4,59.95386815534916,
,,,,,,,,,,,,0,0,0,0,37,0,37,0,,,,,,,37,,,1,691.237825800461,Y,l,go,l,1,0.3845641899097245,,,,,,,,,,,,,,,,,,68,001,23,w,Psychologie,2023-01-25_12h01.46.313,00_bat_bachelor,2022.2.4,59.95386815534916,
,,,,,,,,,,,,0,0,0,0,38,0,38,0,,,,,,,38,,,1,692.7386498016713,X,d,go,d,1,0.45091822583344765,,,,,,,,,,,,,,,,,,68,001,23,w,Psychologie,2023-01-25_12h01.46.313,00_bat_bachelor,2022.2.4,59.95386815534916,
,,,,,,,,,,,,0,0,0,0,39,0,39,0,,,,,,,39,,,1,694.3067155976314,Y,l,go,l,1,0.5310909484978765,,,,,,,,,,,,,,,,,,68,001,23,w,Psychologie,2023-01-25_12h01.46.313,00_bat_bachelor,2022.2.4,59.95386815534916,
,,,,,,,,,,,,0,0,0,0,40,0,40,0,,,,,,,40,,,1,695.9412978540058,Y,None,nogo,None,1,,,,,,,,,,,,,,,,,,,68,001,23,w,Psychologie,2023-01-25_12h01.46.313,00_bat_bachelor,2022.2.4,59.95386815534916,
,,,,,,,,,,,,0,0,0,0,41,0,41,0,,,,,,,41,,,1,697.7427167166898,X,d,go,d,1,0.2800214923918247,,,,,,,,,,,,,,,,,,68,001,23,w,Psychologie,2023-01-25_12h01.46.313,00_bat_bachelor,2022.2.4,59.95386815534916,
,,,,,,,,,,,,0,0,0,0,42,0,42,0,,,,,,,42,,,1,699.1272060032061,Y,l,go,l,1,0.4311596516345162,,,,,,,,,,,,,,,,,,68,001,23,w,Psychologie,2023-01-25_12h01.46.313,00_bat_bachelor,2022.2.4,59.95386815534916,
,,,,,,,,,,,,0,0,0,0,43,0,43,0,,,,,,,43,,,1,700.6617464170849,X,d,go,d,1,0.44771143328398466,,,,,,,,,,,,,,,,,,68,001,23,w,Psychologie,2023-01-25_12h01.46.313,00_bat_bachelor,2022.2.4,59.95386815534916,
,,,,,,,,,,,,0,0,0,0,44,0,44,0,,,,,,,44,,,1,702.2128997036198,Y,l,go,l,1,0.5461843037919607,,,,,,,,,,,,,,,,,,68,001,23,w,Psychologie,2023-01-25_12h01.46.313,00_bat_bachelor,2022.2.4,59.95386815534916,
,,,,,,,,,,,,0,0,0,0,45,0,45,0,,,,,,,45,,,1,703.864145741798,X,d,go,d,1,0.3986800892453175,,,,,,,,,,,,,,,,,,68,001,23,w,Psychologie,2023-01-25_12h01.46.313,00_bat_bachelor,2022.2.4,59.95386815534916,
,,,,,,,,,,,,0,0,0,0,46,0,46,0,,,,,,,46,,,1,705.3650909552816,Y,l,go,l,1,0.4178219352615997,,,,,,,,,,,,,,,,,,68,001,23,w,Psychologie,2023-01-25_12h01.46.313,00_bat_bachelor,2022.2.4,59.95386815534916,
,,,,,,,,,,,,0,0,0,0,47,0,47,0,,,,,,,47,,,1,706.8994645810453,X,d,go,d,1,0.449816648470005,,,,,,,,,,,,,,,,,,68,001,23,w,Psychologie,2023-01-25_12h01.46.313,00_bat_bachelor,2022.2.4,59.95386815534916,
,,,,,,,,,,,,0,0,0,0,48,0,48,0,,,,,,,48,,,1,708.4510013832769,X,None,nogo,None,1,,,,,,,,,709.2515402446734,,,,,,,,,,68,001,23,w,Psychologie,2023-01-25_12h01.46.313,00_bat_bachelor,2022.2.4,59.95386815534916,
,,,,,,,,,,,,0,0,0,0,49,0,49,0,,,,,,,49,,,1,710.2523770943517,Y,l,go,l,1,0.2980544883175753,,,,,,,,,,,,,,,,,,68,001,23,w,Psychologie,2023-01-25_12h01.46.313,00_bat_bachelor,2022.2.4,59.95386815534916,
,,,,,,,,,,,,0,0,0,0,50,0,50,0,,,,,,,50,,,1,711.6533885867393,X,d,go,d,1,0.4487107074819505,,,,,,,,,,,,,,,,,,68,001,23,w,Psychologie,2023-01-25_12h01.46.313,00_bat_bachelor,2022.2.4,59.95386815534916,
,,,,,,,,,,,,0,0,0,0,51,0,51,0,,,,,,,51,,,1,713.2042519334645,X,None,nogo,None,1,,,,,,,,,,,,,,,,,,,68,001,23,w,Psychologie,2023-01-25_12h01.46.313,00_bat_bachelor,2022.2.4,59.95386815534916,
,,,,,,,,,,,,0,0,0,0,52,0,52,0,,,,,,,52,,,1,715.0059820692986,Y,l,go,l,1,0.40809683021507226,,,,,,,,,,,,,,,,,,68,001,23,w,Psychologie,2023-01-25_12h01.46.313,00_bat_bachelor,2022.2.4,59.95386815534916,
,,,,,,,,,,,,0,0,0,0,53,0,53,0,,,,,,,53,,,1,716.5234713068639,X,d,go,d,1,0.3952046902559232,,,,,,,,,,,,,,,,,,68,001,23,w,Psychologie,2023-01-25_12h01.46.313,00_bat_bachelor,2022.2.4,59.95386815534916,
,,,,,,,,,,,,0,0,0,0,54,0,54,0,,,,,,,54,,,1,718.0249256120005,Y,l,go,l,1,0.4300677712599281,,,,,,,,,,,,,,,,,,68,001,23,w,Psychologie,2023-01-25_12h01.46.313,00_bat_bachelor,2022.2.4,59.95386815534916,
,,,,,,,,,,,,0,0,0,0,55,0,55,0,,,,,,,55,,,1,719.5595130562724,Y,None,nogo,None,1,,,,,,,,,,,,,,,,,,,68,001,23,w,Psychologie,2023-01-25_12h01.46.313,00_bat_bachelor,2022.2.4,59.95386815534916,
,,,,,,,,,,,,0,0,0,0,56,0,56,0,,,,,,,56,,,1,721.3607724035392,X,d,go,d,1,0.26132716218126006,,,,,,,,,,,,,,,,,,68,001,23,w,Psychologie,2023-01-25_12h01.46.313,00_bat_bachelor,2022.2.4,59.95386815534916,
,,,,,,,,,,,,0,0,0,0,57,0,57,0,,,,,,,57,,,1,722.7282303925604,Y,l,go,l,1,0.44584718815167435,,,,,,,,,,,,,,,,,,68,001,23,w,Psychologie,2023-01-25_12h01.46.313,00_bat_bachelor,2022.2.4,59.95386815534916,
,,,,,,,,,,,,0,0,0,0,58,0,58,0,,,,,,,58,,,1,724.2797938615258,X,d,go,d,1,0.5432063600746915,,,,,,,,,,,,,,,,,,68,001,23,w,Psychologie,2023-01-25_12h01.46.313,00_bat_bachelor,2022.2.4,59.95386815534916,
,,,,,,,,,,,,0,0,0,0,59,0,59,0,,,,,,,59,,,1,725.9308925055375,X,None,nogo,None,1,,,,,,,,,,,,,,,,,,,68,001,23,w,Psychologie,2023-01-25_12h01.46.313,00_bat_bachelor,2022.2.4,59.95386815534916,
,,,,,,,,,,,,0,0,0,0,60,0,60,0,,,,,,,60,,,1,727.7322866409086,Y,l,go,l,1,0.30525643820874393,,,,,,,,,,,,,,,,,,68,001,23,w,Psychologie,2023-01-25_12h01.46.313,00_bat_bachelor,2022.2.4,59.95386815534916,
,,,,,,,,,,,,0,0,0,0,61,0,61,0,,,,,,,61,,,1,729.1501640971983,X,d,go,d,1,0.36124779234523885,,,,,,,,,,,,,,,,,,68,001,23,w,Psychologie,2023-01-25_12h01.46.313,00_bat_bachelor,2022.2.4,59.95386815534916,
,,,,,,,,,,,,0,0,0,0,62,0,62,0,,,,,,,62,,,1,730.6178879290528,Y,l,go,l,1,0.4605259973905049,,,,,,,,,,,,,,,,,,68,001,23,w,Psychologie,2023-01-25_12h01.46.313,00_bat_bachelor,2022.2.4,59.95386815534916,
,,,,,,,,,,,,0,0,0,0,63,0,63,0,,,,,,,63,,,1,732.1856652397546,X,d,go,d,1,0.5739763442252297,,,,,,,,,,,,,,,,,,68,001,23,w,Psychologie,2023-01-25_12h01.46.313,00_bat_bachelor,2022.2.4,59.95386815534916,
,,,,,,,,,,,,0,0,0,0,64,0,64,0,,,,,,,64,,,1,733.8702732658421,X,None,nogo,None,1,,,,,,,,,,,,,,,,,,,68,001,23,w,Psychologie,2023-01-25_12h01.46.313,00_bat_bachelor,2022.2.4,59.95386815534916,
,,,,,,,,,,,,0,0,0,0,65,0,65,0,,,,,,,65,,,1,735.67158885565,Y,l,go,l,1,0.30246661594719626,,,,,,,,,,,,,,,,,,68,001,23,w,Psychologie,2023-01-25_12h01.46.313,00_bat_bachelor,2022.2.4,59.95386815534916,
,,,,,,,,,,,,0,0,0,0,66,0,66,0,,,,,,,66,,,1,737.089561827248,X,d,go,d,1,0.3880260131554678,,,,,,,,,,,,,,,,,,68,001,23,w,Psychologie,2023-01-25_12h01.46.313,00_bat_bachelor,2022.2.4,59.95386815534916,
,,,,,,,,,,,,0,0,0,0,67,0,67,0,,,,,,,67,,,1,738.590350434446,Y,l,go,l,1,0.5194414770230651,,,,,,,,,,,,,,,,,,68,001,23,w,Psychologie,2023-01-25_12h01.46.313,00_bat_bachelor,2022.2.4,59.95386815534916,
,,,,,,,,,,,,0,0,0,0,68,0,68,0,,,,,,,68,,,1,740.2252381457947,Y,None,nogo,None,1,,,,,,,,,,,,,,,,,,,68,001,23,w,Psychologie,2023-01-25_12h01.46.313,00_bat_bachelor,2022.2.4,59.95386815534916,
,,,,,,,,,,,,0,0,0,0,69,0,69,0,,,,,,,69,,,1,742.026680766081,X,d,go,d,1,0.26717589795589447,,,,,,,,,,,,,,,,,,68,001,23,w,Psychologie,2023-01-25_12h01.46.313,00_bat_bachelor,2022.2.4,59.95386815534916,
,,,,,,,,,,,,0,0,0,0,70,0,70,0,,,,,,,70,,,1,743.4110638706479,Y,l,go,l,1,0.6275124220992438,,,,,,,,,,,,,,,,,,68,001,23,w,Psychologie,2023-01-25_12h01.46.313,00_bat_bachelor,2022.2.4,59.95386815534916,
,,,,,,,,,,,,0,0,0,0,71,0,71,0,,,,,,,71,,,1,745.1456637270167,Y,None,nogo,None,1,,,,,,,,,,,,,,,,,,,68,001,23,w,Psychologie,2023-01-25_12h01.46.313,00_bat_bachelor,2022.2.4,59.95386815534916,
,,,,,,,,,,,,0,0,0,0,72,0,72,0,,,,,,,72,,,1,746.946969134995,Y,None,nogo,d,0,0.24378434880054556,,,,,,,,,,,,,,,,,,68,001,23,w,Psychologie,2023-01-25_12h01.46.313,00_bat_bachelor,2022.2.4,59.95386815534916,
,,,,,,,,,,,,0,0,0,0,73,0,73,0,,,,,,,73,,,1,748.2980649184028,X,d,go,d,1,0.5256325163063593,,,,,,,,,,,,,,,,,,68,001,23,w,Psychologie,2023-01-25_12h01.46.313,00_bat_bachelor,2022.2.4,59.95386815534916,
,,,,,,,,,,,,0,0,0,0,74,0,74,0,,,,,,,74,,,1,749.9324440229393,Y,l,go,l,1,0.6656787806423381,,,,,,,,,,,,,,,,,,68,001,23,w,Psychologie,2023-01-25_12h01.46.313,00_bat_bachelor,2022.2.4,59.95386815534916,
,,,,,,,,,,,,0,0,0,0,75,0,75,0,,,,,,,75,,,1,751.7006579888402,X,d,go,d,1,0.36975253201671876,,,,,,,,,,,,,,,,,,68,001,23,w,Psychologie,2023-01-25_12h01.46.313,00_bat_bachelor,2022.2.4,59.95386815534916,
,,,,,,,,,,,,0,0,0,0,76,0,76,0,,,,,,,76,,,1,753.1852060875681,X,None,nogo,None,1,,,,,,,,,,,,,,,,,,,68,001,23,w,Psychologie,2023-01-25_12h01.46.313,00_bat_bachelor,2022.2.4,59.95386815534916,
,,,,,,,,,,,,0,0,0,0,77,0,77,0,,,,,,,77,,,1,754.9862050708325,Y,l,go,l,1,0.37992903165286407,,,,,,,,,,,,,,,,,,68,001,23,w,Psychologie,2023-01-25_12h01.46.313,00_bat_bachelor,2022.2.4,59.95386815534916,
,,,,,,,,,,,,0,0,0,0,78,0,78,0,,,,,,,78,,,1,756.4710101396486,X,d,go,d,1,0.5755729525990319,,,,,,,,,,,,,,,,,,68,001,23,w,Psychologie,2023-01-25_12h01.46.313,00_bat_bachelor,2022.2.4,59.95386815534916,
,,,,,,,,,,,,0,0,0,0,79,0,79,0,,,,,,,79,,,1,758.1554455594451,Y,l,go,l,1,0.4747936544881668,,,,,,,,,,,,,,,,,,68,001,23,w,Psychologie,2023-01-25_12h01.46.313,00_bat_bachelor,2022.2.4,59.95386815534916,
,,,,,,,,,,,,0,0,0,0,80,0,80,0,,,,,,,80,,,1,759.7400689552596,X,d,go,d,1,0.3459580731578171,,,,,,,,,,,,,,,,,,68,001,23,w,Psychologie,2023-01-25_12h01.46.313,00_bat_bachelor,2022.2.4,59.95386815534916,
,,,,,,,,,,,,0,0,0,0,81,0,81,0,,,,,,,81,,,1,761.1913142176636,Y,l,go,l,1,0.480431480857078,,,,,,,,,,,,,,,,,,68,001,23,w,Psychologie,2023-01-25_12h01.46.313,00_bat_bachelor,2022.2.4,59.95386815534916,
,,,,,,,,,,,,0,0,0,0,82,0,82,0,,,,,,,82,,,1,762.7758338557614,X,d,go,d,1,0.431081590912072,,,,,,,,,,,,,,,,,,68,001,23,w,Psychologie,2023-01-25_12h01.46.313,00_bat_bachelor,2022.2.4,59.95386815534916,
,,,,,,,,,,,,0,0,0,0,83,0,83,0,,,,,,,83,,,1,764.3104033605778,Y,l,go,l,1,0.431940743670566,,,,,,,,,,,,,,,,,,68,001,23,w,Psychologie,2023-01-25_12h01.46.313,00_bat_bachelor,2022.2.4,59.95386815534916,
,,,,,,,,,,,,0,0,0,0,84,0,84,0,,,,,,,84,,,1,765.8450659564696,X,d,go,d,1,0.4493802842043806,,,,,,,,,,,,,,,,,,68,001,23,w,Psychologie,2023-01-25_12h01.46.313,00_bat_bachelor,2022.2.4,59.95386815534916,
,,,,,,,,,,,,0,0,0,0,85,0,85,0,,,,,,,85,,,1,767.3960936670483,Y,l,go,l,1,0.5142244997259695,,,,,,,,,,,,,,,,,,68,001,23,w,Psychologie,2023-01-25_12h01.46.313,00_bat_bachelor,2022.2.4,59.95386815534916,
,,,,,,,,,,,,0,0,0,0,86,0,86,0,,,,,,,86,,,1,769.0138584444067,X,d,go,d,1,0.27358511940110475,,,,,,,,,,,,,,,,,,68,001,23,w,Psychologie,2023-01-25_12h01.46.313,00_bat_bachelor,2022.2.4,59.95386815534916,
,,,,,,,,,,,,0,0,0,0,87,0,87,0,,,,,,,87,,,1,770.3981043366366,Y,l,go,l,1,0.4403485134826042,,,,,,,,,,,,,,,,,,68,001,23,w,Psychologie,2023-01-25_12h01.46.313,00_bat_bachelor,2022.2.4,59.95386815534916,
,,,,,,,,,,,,0,0,0,0,88,0,88,0,,,,,,,88,,,1,771.9496212600498,Y,None,nogo,None,1,,,,,,,,,,,,,,,,,,,68,001,23,w,Psychologie,2023-01-25_12h01.46.313,00_bat_bachelor,2022.2.4,59.95386815534916,
,,,,,,,,,,,,0,0,0,0,89,0,89,0,,,,,,,89,,,1,773.7506435160758,X,d,go,d,1,0.30354298115707934,,,,,,,,,,,,,,,,,,68,001,23,w,Psychologie,2023-01-25_12h01.46.313,00_bat_bachelor,2022.2.4,59.95386815534916,
,,,,,,,,,,,,0,0,0,0,90,0,90,0,,,,,,,90,,,1,775.1686736998963,Y,l,go,l,1,0.357763666077517,,,,,,,,,,,,,,,,,,68,001,23,w,Psychologie,2023-01-25_12h01.46.313,00_bat_bachelor,2022.2.4,59.95386815534916,
,,,,,,,,,,,,0,0,0,0,91,0,91,0,,,,,,,91,,,1,776.6362758345786,X,d,go,d,1,0.5226148149522487,,,,,,,,,,,,,,,,,,68,001,23,w,Psychologie,2023-01-25_12h01.46.313,00_bat_bachelor,2022.2.4,59.95386815534916,
,,,,,,,,,,,,0,0,0,0,92,0,92,0,,,,,,,92,,,1,778.271047666989,X,None,nogo,None,1,,,,,,,,,,,,,,,,,,,68,001,23,w,Psychologie,2023-01-25_12h01.46.313,00_bat_bachelor,2022.2.4,59.95386815534916,
,,,,,,,,,,,,0,0,0,0,93,0,93,0,,,,,,,93,,,1,780.0723850749782,X,None,nogo,None,1,,,,,,,,,,,,,,,,,,,68,001,23,w,Psychologie,2023-01-25_12h01.46.313,00_bat_bachelor,2022.2.4,59.95386815534916,
,,,,,,,,,,,,0,0,0,0,94,0,94,0,,,,,,,94,,,1,781.8733981188852,Y,l,go,l,1,0.46787679597036913,,,,,,,,,,,,,,,,,,68,001,23,w,Psychologie,2023-01-25_12h01.46.313,00_bat_bachelor,2022.2.4,59.95386815534916,
,,,,,,,,,,,,0,0,0,0,95,0,95,0,,,,,,,95,,,1,783.4579507267044,X,d,go,d,1,0.4844557291653473,,,,,,,,,,,,,,,,,,68,001,23,w,Psychologie,2023-01-25_12h01.46.313,00_bat_bachelor,2022.2.4,59.95386815534916,
,,,,,,,,,,,,0,0,0,0,96,0,96,0,,,,,,,96,,,1,785.0593111165799,X,None,nogo,None,1,,,,,,,,,,,,,,,,,,,68,001,23,w,Psychologie,2023-01-25_12h01.46.313,00_bat_bachelor,2022.2.4,59.95386815534916,
,,,,,,,,,,,,0,0,0,0,97,0,97,0,,,,,,,97,,,1,786.8609404037998,Y,l,go,l,1,0.394697053154232,,,,,,,,,,,,,,,,,,68,001,23,w,Psychologie,2023-01-25_12h01.46.313,00_bat_bachelor,2022.2.4,59.95386815534916,
,,,,,,,,,,,,0,0,0,0,98,0,98,0,,,,,,,98,,,1,788.3618094959529,X,d,go,d,1,0.42949613407836296,,,,,,,,,,,,,,,,,,68,001,23,w,Psychologie,2023-01-25_12h01.46.313,00_bat_bachelor,2022.2.4,59.95386815534916,
,,,,,,,,,,,,0,0,0,0,99,0,99,0,,,,,,,99,,,1,789.896512819163,Y,l,go,l,1,0.44668791664298624,,,,,,,,,,,,,,,,,,68,001,23,w,Psychologie,2023-01-25_12h01.46.313,00_bat_bachelor,2022.2.4,59.95386815534916,
,,,,,,,,,,,,0,0,0,0,100,0,100,0,,,,,,,100,,,1,791.4477233178914,Y,None,nogo,None,1,,,,,,,,,,,,,,,,,,,68,001,23,w,Psychologie,2023-01-25_12h01.46.313,00_bat_bachelor,2022.2.4,59.95386815534916,
,,,,,,,,,,,,0,0,0,0,101,0,101,0,,,,,,,101,,,1,793.2490776956256,X,d,go,d,1,0.30898492847336456,,,,,,,,,,,,,,,,,,68,001,23,w,Psychologie,2023-01-25_12h01.46.313,00_bat_bachelor,2022.2.4,59.95386815534916,
,,,,,,,,,,,,0,0,0,0,102,0,102,0,,,,,,,102,,,1,794.6664795148827,Y,l,go,l,1,0.4609676949912682,,,,,,,,,,,,,,,,,,68,001,23,w,Psychologie,2023-01-25_12h01.46.313,00_bat_bachelor,2022.2.4,59.95386815534916,
,,,,,,,,,,,,0,0,0,0,103,0,103,0,,,,,,,103,,,1,796.2343659166363,X,d,go,d,1,0.44469664100324735,,,,,,,,,,,,,,,,,,68,001,23,w,Psychologie,2023-01-25_12h01.46.313,00_bat_bachelor,2022.2.4,59.95386815534916,
,,,,,,,,,,,,0,0,0,0,104,0,104,0,,,,,,,104,,,1,797.7859356886183,Y,l,go,l,1,0.41363720191293396,,,,,,,,,,,,,,,,,,68,001,23,w,Psychologie,2023-01-25_12h01.46.313,00_bat_bachelor,2022.2.4,59.95386815534916,
,,,,,,,,,,,,0,0,0,0,105,0,105,0,,,,,,,105,,,1,799.3036974114366,Y,None,nogo,None,1,,,,,,,,,800.1039889997337,,,,,,,,,,68,001,23,w,Psychologie,2023-01-25_12h01.46.313,00_bat_bachelor,2022.2.4,59.95386815534916,
,,,,,,,,,,,,0,0,0,0,106,0,106,0,,,,,,,106,,,1,801.10499700121,X,d,go,d,1,0.3252564672729932,,,,,,,,,,,,,,,,,,68,001,23,w,Psychologie,2023-01-25_12h01.46.313,00_bat_bachelor,2022.2.4,59.95386815534916,
,,,,,,,,,,,,0,0,0,0,107,0,107,0,,,,,,,107,,,1,802.5394800574286,Y,l,go,l,1,0.4108158644521609,,,,,,,,,,,,,,,,,,68,001,23,w,Psychologie,2023-01-25_12h01.46.313,00_bat_bachelor,2022.2.4,59.95386815534916,
,,,,,,,,,,,,0,0,0,0,108,0,108,0,,,,,,,108,,,1,804.0570163253578,X,d,go,d,1,0.4622108483163174,,,,,,,,,,,,,,,,,,68,001,23,w,Psychologie,2023-01-25_12h01.46.313,00_bat_bachelor,2022.2.4,59.95386815534916,
,,,,,,,,,,,,0,0,0,0,109,0,109,0,,,,,,,109,,,1,805.6252227275982,Y,l,go,l,1,0.4930584083485883,,,,,,,,,,,,,,,,,,68,001,23,w,Psychologie,2023-01-25_12h01.46.313,00_bat_bachelor,2022.2.4,59.95386815534916,
,,,,,,,,,,,,0,0,0,0,110,0,110,0,,,,,,,110,,,1,807.2263377837662,X,d,go,d,1,0.4285744357621297,,,,,,,,,,,,,,,,,,68,001,23,w,Psychologie,2023-01-25_12h01.46.313,00_bat_bachelor,2022.2.4,59.95386815534916,
,,,,,,,,,,,,0,0,0,0,111,0,111,0,,,,,,,111,,,1,808.7606246215,X,None,nogo,None,1,,,,,,,,,,,,,,,,,,,68,001,23,w,Psychologie,2023-01-25_12h01.46.313,00_bat_bachelor,2022.2.4,59.95386815534916,
,,,,,,,,,,,,0,0,0,0,112,0,112,0,,,,,,,112,,,1,810.5619819083367,X,None,nogo,d,0,0.5809499300958123,,,,,,,,,,,,,,,,,,68,001,23,w,Psychologie,2023-01-25_12h01.46.313,00_bat_bachelor,2022.2.4,59.95386815534916,
,,,,,,,,,,,,0,0,0,0,113,0,113,0,,,,,,,113,,,1,812.2473729658814,Y,l,go,l,1,0.5107583128556143,,,,,,,,,,,,,,,,,,68,001,23,w,Psychologie,2023-01-25_12h01.46.313,00_bat_bachelor,2022.2.4,59.95386815534916,
,,,,,,,,,,,,0,0,0,0,114,0,114,0,,,,,,,114,,,1,813.8652579858317,X,d,go,d,1,0.3649631917360239,,,,,,,,,,,,,,,,,,68,001,23,w,Psychologie,2023-01-25_12h01.46.313,00_bat_bachelor,2022.2.4,59.95386815534916,
,,,,,,,,,,,,0,0,0,0,115,0,115,0,,,,,,,115,,,1,815.3329517570091,Y,l,go,l,1,0.401513547898503,,,,,,,,,,,,,,,,,,68,001,23,w,Psychologie,2023-01-25_12h01.46.313,00_bat_bachelor,2022.2.4,59.95386815534916,
,,,,,,,,,,,,0,0,0,0,116,0,116,0,,,,,,,116,,,1,816.8507803890097,Y,None,nogo,None,1,,,,,,,,,817.651385189878,,,,,,,,,,68,001,23,w,Psychologie,2023-01-25_12h01.46.313,00_bat_bachelor,2022.2.4,59.95386815534916,
,,,,,,,,,,,,0,0,0,0,117,0,117,0,,,,,,,117,,,1,818.652130887931,X,d,go,d,1,0.29834539783769287,,,,,,,,,,,,,,,,,,68,001,23,w,Psychologie,2023-01-25_12h01.46.313,00_bat_bachelor,2022.2.4,59.95386815534916,
,,,,,,,,,,,,0,0,0,0,118,0,118,0,,,,,,,118,,,1,820.0530250468291,Y,l,go,l,1,0.48098954229499213,,,,,,,,,,,,,,,,,,68,001,23,w,Psychologie,2023-01-25_12h01.46.313,00_bat_bachelor,2022.2.4,59.95386815534916,
,,,,,,,,,,,,0,0,0,0,119,0,119,0,,,,,,,119,,,1,821.6542598607484,X,d,go,d,1,0.4316643796337303,,,,,,,,,,,,,,,,,,68,001,23,w,Psychologie,2023-01-25_12h01.46.313,00_bat_bachelor,2022.2.4,59.95386815534916,
,,,,,,,,,,,,0,0,0,0,120,0,120,0,,,,,,,120,,,1,823.1890058506688,X,None,nogo,d,0,0.3690262279123999,,,,,,,,,,,,,,,,,,68,001,23,w,Psychologie,2023-01-25_12h01.46.313,00_bat_bachelor,2022.2.4,59.95386815534916,
,,,,,,,,,,,,0,0,0,0,121,0,121,0,,,,,,,121,,,1,824.6732067973935,Y,l,go,l,1,0.3566092401742935,,,,,,,,,,,,,,,,,,68,001,23,w,Psychologie,2023-01-25_12h01.46.313,00_bat_bachelor,2022.2.4,59.95386815534916,
,,,,,,,,,,,,0,0,0,0,122,0,122,0,,,,,,,122,,,1,826.1412050538638,X,d,go,d,1,0.4414767575508449,,,,,,,,,,,,,,,,,,68,001,23,w,Psychologie,2023-01-25_12h01.46.313,00_bat_bachelor,2022.2.4,59.95386815534916,
,,,,,,,,,,,,0,0,0,0,123,0,123,0,,,,,,,123,,,1,827.6925406436785,Y,l,go,l,1,0.5542565579526126,,,,,,,,,,,,,,,,,,68,001,23,w,Psychologie,2023-01-25_12h01.46.313,00_bat_bachelor,2022.2.4,59.95386815534916,
,,,,,,,,,,,,0,0,0,0,124,0,124,0,,,,,,,124,,,1,829.3603913120751,Y,None,nogo,None,1,,,,,,,,,830.1609078704205,,,,,,,,,,68,001,23,w,Psychologie,2023-01-25_12h01.46.313,00_bat_bachelor,2022.2.4,59.95386815534916,
,,,,,,,,,,,,0,0,0,0,125,0,125,0,,,,,,,125,,,1,831.161706901883,Y,None,nogo,None,1,,,,,,,,,831.9621080661018,,,,,,,,,,68,001,23,w,Psychologie,2023-01-25_12h01.46.313,00_bat_bachelor,2022.2.4,59.95386815534916,
,,,,,,,,,,,,0,0,0,0,126,0,126,0,,,,,,,126,,,1,832.9630758250714,X,d,go,d,1,0.30691413758904673,,,,,,,,,,,,,,,,,,68,001,23,w,Psychologie,2023-01-25_12h01.46.313,00_bat_bachelor,2022.2.4,59.95386815534916,
,,,,,,,,,,,,0,0,0,0,127,0,127,0,,,,,,,127,,,1,834.3974008204532,Y,l,go,l,1,0.47253522695973516,,,,,,,,,,,,,,,,,,68,001,23,w,Psychologie,2023-01-25_12h01.46.313,00_bat_bachelor,2022.2.4,59.95386815534916,
,,,,,,,,,,,,0,0,0,0,128,0,128,0,,,,,,,128,,,1,835.9817973068566,X,d,go,d,1,0.37652490549953654,,,,,,,,,,,,,,,,,,68,001,23,w,Psychologie,2023-01-25_12h01.46.313,00_bat_bachelor,2022.2.4,59.95386815534916,
,,,,,,,,,,,,0,0,0,0,129,0,129,0,,,,,,,129,,,1,837.4662765570101,Y,l,go,l,1,0.4611218770442065,,,,,,,,,,,,,,,,,,68,001,23,w,Psychologie,2023-01-25_12h01.46.313,00_bat_bachelor,2022.2.4,59.95386815534916,
,,,,,,,,,,,,0,0,0,0,130,0,130,0,,,,,,,130,,,1,839.0341736254632,Y,None,nogo,None,1,,,,,,,,,839.8347953960765,,,,,,,,,,68,001,23,w,Psychologie,2023-01-25_12h01.46.313,00_bat_bachelor,2022.2.4,59.95386815534916,
,,,,,,,,,,,,0,0,0,0,131,0,131,0,,,,,,,131,,,1,840.8353175786324,X,d,go,d,1,0.41827478443155997,,,,,,,,,,,,,,,,,,68,001,23,w,Psychologie,2023-01-25_12h01.46.313,00_bat_bachelor,2022.2.4,59.95386815534916,
,,,,,,,,,,,,0,0,0,0,132,0,132,0,,,,,,,132,,,1,842.3700223563937,Y,l,go,l,1,0.5968927411886398,,,,,,,,,,,,,,,,,,68,001,23,w,Psychologie,2023-01-25_12h01.46.313,00_bat_bachelor,2022.2.4,59.95386815534916,
,,,,,,,,,,,,0,0,0,0,133,0,133,0,,,,,,,133,,,1,844.0713290734566,Y,None,nogo,None,1,,,,,,,,,844.8719794501376,,,,,,,,,,68,001,23,w,Psychologie,2023-01-25_12h01.46.313,00_bat_bachelor,2022.2.4,59.95386815534916,
,,,,,,,,,,,,0,0,0,0,134,0,134,0,,,,,,,134,,,1,845.8727377542818,X,d,go,d,1,0.30984650549362414,,,,,,,,,,,,,,,,,,68,001,23,w,Psychologie,2023-01-25_12h01.46.313,00_bat_bachelor,2022.2.4,59.95386815534916,
,,,,,,,,,,,,0,0,0,0,135,0,135,0,,,,,,,135,,,1,847.2904843013093,Y,l,go,l,1,0.5561552273866255,,,,,,,,,,,,,,,,,,68,001,23,w,Psychologie,2023-01-25_12h01.46.313,00_bat_bachelor,2022.2.4,59.95386815534916,
,,,,,,,,,,,,0,0,0,0,136,0,136,0,,,,,,,136,,,1,848.9583747273427,Y,None,nogo,None,1,,,,,,,,,,,,,,,,,,,68,001,23,w,Psychologie,2023-01-25_12h01.46.313,00_bat_bachelor,2022.2.4,59.95386815534916,
,,,,,,,,,,,,0,0,0,0,137,0,137,0,,,,,,,137,,,1,850.7597397717473,X,d,go,d,1,0.28655919889570214,,,,,,,,,,,,,,,,,,68,001,23,w,Psychologie,2023-01-25_12h01.46.313,00_bat_bachelor,2022.2.4,59.95386815534916,
,,,,,,,,,,,,0,0,0,0,138,0,138,0,,,,,,,138,,,1,852.1608462945733,Y,l,go,l,1,0.5652951194788329,,,,,,,,,,,,,,,,,,68,001,23,w,Psychologie,2023-01-25_12h01.46.313,00_bat_bachelor,2022.2.4,59.95386815534916,
,,,,,,,,,,,,0,0,0,0,139,0,139,0,,,,,,,139,,,1,853.8286625386681,X,d,go,d,1,0.5949189201346599,,,,,,,,,,,,,,,,,,68,001,23,w,Psychologie,2023-01-25_12h01.46.313,00_bat_bachelor,2022.2.4,59.95386815534916,
,,,,,,,,,,,,0,0,0,0,140,0,140,0,,,,,,,140,,,1,855.530032770941,Y,l,go,l,1,0.5251496065466199,,,,,,,,,,,,,,,,,,68,001,23,w,Psychologie,2023-01-25_12h01.46.313,00_bat_bachelor,2022.2.4,59.95386815534916,
,,,,,,,,,,,,0,0,0,0,141,0,141,0,,,,,,,141,,,1,857.1646004818322,X,d,go,d,1,0.4414030604530126,,,,,,,,,,,,,,,,,,68,001,23,w,Psychologie,2023-01-25_12h01.46.313,00_bat_bachelor,2022.2.4,59.95386815534916,
,,,,,,,,,,,,0,0,0,0,142,0,142,0,,,,,,,142,,,1,858.7155220104614,X,None,nogo,None,1,,,,,,,,,859.5161185688921,,,,,,,,,,68,001,23,w,Psychologie,2023-01-25_12h01.46.313,00_bat_bachelor,2022.2.4,59.95386815534916,
,,,,,,,,,,,,0,0,0,0,143,0,143,0,,,,,,,143,,,1,860.5167997819954,Y,l,go,l,1,0.32135197677416727,,,,,,,,,,,,,,,,,,68,001,23,w,Psychologie,2023-01-25_12h01.46.313,00_bat_bachelor,2022.2.4,59.95386815534916,
,,,,,,,,,,,,0,0,0,0,144,0,144,0,,,,,,,144,,,1,861.9513783535222,X,d,go,d,1,0.5671263948606793,,,,,,,,,,,,,,,,,,68,001,23,w,Psychologie,2023-01-25_12h01.46.313,00_bat_bachelor,2022.2.4,59.95386815534916,
,,,,,,,,,,,,0,0,0,0,145,0,145,0,,,,,,,145,,,1,863.6192721734697,X,None,nogo,None,1,,,,,,,,,,,,,,,,,,,68,001,23,w,Psychologie,2023-01-25_12h01.46.313,00_bat_bachelor,2022.2.4,59.95386815534916,
,,,,,,,,,,,,0,0,0,0,146,0,146,0,,,,,,,146,,,1,865.4208515212231,Y,l,go,l,1,0.37833193843835033,,,,,,,,,,,,,,,,,,68,001,23,w,Psychologie,2023-01-25_12h01.46.313,00_bat_bachelor,2022.2.4,59.95386815534916,
,,,,,,,,,,,,0,0,0,0,147,0,147,0,,,,,,,147,,,1,866.9050868922495,X,d,go,d,1,0.34936607809504494,,,,,,,,,,,,,,,,,,68,001,23,w,Psychologie,2023-01-25_12h01.46.313,00_bat_bachelor,2022.2.4,59.95386815534916,
,,,,,,,,,,,,0,0,0,0,148,0,148,0,,,,,,,148,,,1,868.3561299725552,Y,l,go,None,0,,,,,,,,,,,,,,,,,,,68,001,23,w,Psychologie,2023-01-25_12h01.46.313,00_bat_bachelor,2022.2.4,59.95386815534916,
,,,,,,,,,,,,0,0,0,0,149,0,149,0,,,,,,,149,,,1,870.1578678659862,X,d,go,d,1,0.4252057035919279,,,,,,,,,,,,,,,,,,68,001,23,w,Psychologie,2023-01-25_12h01.46.313,00_bat_bachelor,2022.2.4,59.95386815534916,
,,,,,,,,,,,,0,0,0,0,150,0,150,0,,,,,,,150,,,1,871.6922996736539,Y,l,go,l,1,0.47492892743321136,,,,,,,,,,,,,,,,,,68,001,23,w,Psychologie,2023-01-25_12h01.46.313,00_bat_bachelor,2022.2.4,59.95386815534916,
,,,,,,,,,,,,0,0,0,0,151,0,151,0,,,,,,,151,,,1,873.2768857360643,X,d,go,d,1,0.3621311876049731,,,,,,,,,,,,,,,,,,68,001,23,w,Psychologie,2023-01-25_12h01.46.313,00_bat_bachelor,2022.2.4,59.95386815534916,
,,,,,,,,,,,,0,0,0,0,152,0,152,0,,,,,,,152,,,1,874.7445911436516,X,None,nogo,None,1,,,,,,,,,,,,,,,,,,,68,001,23,w,Psychologie,2023-01-25_12h01.46.313,00_bat_bachelor,2022.2.4,59.95386815534916,
,,,,,,,,,,,,0,0,0,0,153,0,153,0,,,,,,,153,,,1,876.5460740064154,Y,l,go,l,1,0.3246353754948359,,,,,,,,,,,,,,,,,,68,001,23,w,Psychologie,2023-01-25_12h01.46.313,00_bat_bachelor,2022.2.4,59.95386815534916,
,,,,,,,,,,,,0,0,0,0,154,0,154,0,,,,,,,154,,,1,877.9804120927292,X,d,go,d,1,0.3788856362225488,,,,,,,,,,,,,,,,,,68,001,23,w,Psychologie,2023-01-25_12h01.46.313,00_bat_bachelor,2022.2.4,59.95386815534916,
,,,,,,,,,,,,0,0,0,0,155,0,155,0,,,,,,,155,,,1,879.4649243126041,X,None,nogo,None,1,,,,,,,,,,,,,,,,,,,68,001,23,w,Psychologie,2023-01-25_12h01.46.313,00_bat_bachelor,2022.2.4,59.95386815534916,
,,,,,,,,,,,,0,0,0,0,156,0,156,0,,,,,,,156,,,1,881.2663528722769,Y,l,go,l,1,0.4683267360087484,,,,,,,,,,,,,,,,,,68,001,23,w,Psychologie,2023-01-25_12h01.46.313,00_bat_bachelor,2022.2.4,59.95386815534916,
,,,,,,,,,,,,0,0,0,0,157,0,157,0,,,,,,,157,,,1,882.8508317830274,X,d,go,d,1,0.40340882338932715,,,,,,,,,,,,,,,,,,68,001,23,w,Psychologie,2023-01-25_12h01.46.313,00_bat_bachelor,2022.2.4,59.95386815534916,
,,,,,,,,,,,,0,0,0,0,158,0,158,0,,,,,,,158,,,1,884.3686807786871,Y,l,go,l,1,0.34251661362941377,,,,,,,,,,,,,,,,,,68,001,23,w,Psychologie,2023-01-25_12h01.46.313,00_bat_bachelor,2022.2.4,59.95386815534916,
,,,,,,,,,,,,0,0,0,0,159,0,159,0,,,,,,,159,,,1,885.8195842224231,X,d,go,d,1,0.49017307080794126,,,,,,,,,,,,,,,,,,68,001,23,w,Psychologie,2023-01-25_12h01.46.313,00_bat_bachelor,2022.2.4,59.95386815534916,
,,,,,,,,,,,,0,0,0,0,160,0,160,0,,,,,,,160,,,1,887.4210629154695,X,None,nogo,None,1,,,,,,,,,888.2216434738948,,,,,,,,,,68,001,23,w,Psychologie,2023-01-25_12h01.46.313,00_bat_bachelor,2022.2.4,59.95386815534916,
,,,,,,,,,,,,0,0,0,0,161,0,161,0,,,,,,,161,,,1,889.2223397173511,Y,l,go,l,1,0.30450152803678066,,,,,,,,,,,,,,,,,,68,001,23,w,Psychologie,2023-01-25_12h01.46.313,00_bat_bachelor,2022.2.4,59.95386815534916,
,,,,,,,,,,,,0,0,0,0,162,0,162,0,,,,,,,162,,,1,890.6400377794344,X,d,go,d,1,0.4700954658619594,,,,,,,,,,,,,,,,,,68,001,23,w,Psychologie,2023-01-25_12h01.46.313,00_bat_bachelor,2022.2.4,59.95386815534916,
,,,,,,,,,,,,0,0,0,0,163,0,163,0,,,,,,,163,,,1,892.2246825086186,X,None,nogo,None,1,,,,,,,,,893.0252853700949,,,,,,,,,,68,001,23,w,Psychologie,2023-01-25_12h01.46.313,00_bat_bachelor,2022.2.4,59.95386815534916,
,,,,,,,,,,,,0,0,0,0,164,0,164,0,,,,,,,164,,,1,894.0260441590799,Y,l,go,l,1,0.33242059891927056,,,,,,,,,,,,,,,,,,68,001,23,w,Psychologie,2023-01-25_12h01.46.313,00_bat_bachelor,2022.2.4,59.95386815534916,
,,,,,,,,,,,,0,0,0,0,165,0,165,0,,,,,,,165,,,1,895.4604040636041,X,d,go,d,1,0.3701166537357494,,,,,,,,,,,,,,,,,,68,001,23,w,Psychologie,2023-01-25_12h01.46.313,00_bat_bachelor,2022.2.4,59.95386815534916,
,,,,,,,,,,,,0,0,0,0,166,0,166,0,,,,,,,166,,,1,896.944935192616,Y,l,go,l,1,0.437782691558823,,,,,,,,,,,,,,,,,,68,001,23,w,Psychologie,2023-01-25_12h01.46.313,00_bat_bachelor,2022.2.4,59.95386815534916,
,,,,,,,,,,,,0,0,0,0,167,0,167,0,,,,,,,167,,,1,898.4961883580836,X,d,go,d,1,0.42325176132726483,,,,,,,,,,,,,,,,,,68,001,23,w,Psychologie,2023-01-25_12h01.46.313,00_bat_bachelor,2022.2.4,59.95386815534916,
,,,,,,,,,,,,0,0,0,0,168,0,168,0,,,,,,,168,,,1,900.0303263471287,Y,l,go,l,1,0.43984572487534024,,,,,,,,,,,,,,,,,,68,001,23,w,Psychologie,2023-01-25_12h01.46.313,00_bat_bachelor,2022.2.4,59.95386815534916,
,,,,,,,,,,,,0,0,0,0,169,0,169,0,,,,,,,169,,,1,901.5815349064651,Y,None,nogo,None,1,,,,,,,,,,,,,,,,,,,68,001,23,w,Psychologie,2023-01-25_12h01.46.313,00_bat_bachelor,2022.2.4,59.95386815534916,
,,,,,,,,,,,,0,0,0,0,170,0,170,0,,,,,,,170,,,1,903.3830216480419,X,d,go,d,1,0.28668719908455387,,,,,,,,,,,,,,,,,,68,001,23,w,Psychologie,2023-01-25_12h01.46.313,00_bat_bachelor,2022.2.4,59.95386815534916,
,,,,,,,,,,,,0,0,0,0,171,0,171,0,,,,,,,171,,,1,904.7843022317102,Y,l,go,l,1,0.3750499942689203,,,,,,,,,,,,,,,,,,68,001,23,w,Psychologie,2023-01-25_12h01.46.313,00_bat_bachelor,2022.2.4,59.95386815534916,
,,,,,,,,,,,,0,0,0,0,172,0,172,0,,,,,,,172,,,1,906.2684173601156,X,d,go,d,1,0.42574194676126353,,,,,,,,,,,,,,,,,,68,001,23,w,Psychologie,2023-01-25_12h01.46.313,00_bat_bachelor,2022.2.4,59.95386815534916,
,,,,,,,,,,,,0,0,0,0,173,0,173,0,,,,,,,173,,,1,907.8032719562761,Y,l,go,l,1,0.5874415759171825,,,,,,,,,,,,,,,,,,68,001,23,w,Psychologie,2023-01-25_12h01.46.313,00_bat_bachelor,2022.2.4,59.95386815534916,
,,,,,,,,,,,,0,0,0,0,174,0,174,0,,,,,,,174,,,1,909.5046625522373,X,d,go,d,1,0.6148641612380743,,,,,,,,,,,,,,,,,,68,001,23,w,Psychologie,2023-01-25_12h01.46.313,00_bat_bachelor,2022.2.4,59.95386815534916,
,,,,,,,,,,,,0,0,0,0,175,0,175,0,,,,,,,175,,,1,911.2223964447039,Y,l,go,l,1,0.41650363031658344,,,,,,,,,,,,,,,,,,68,001,23,w,Psychologie,2023-01-25_12h01.46.313,00_bat_bachelor,2022.2.4,59.95386815534916,
,,,,,,,,,,,,0,0,0,0,176,0,176,0,,,,,,,176,,,1,912.7401712584251,X,d,go,d,1,0.4496988301107194,,,,,,,,,,,,,,,,,,68,001,23,w,Psychologie,2023-01-25_12h01.46.313,00_bat_bachelor,2022.2.4,59.95386815534916,
,,,,,,,,,,,,0,0,0,0,177,0,177,0,,,,,,,177,,,1,914.2915073331096,X,None,nogo,None,1,,,,,,,,,,,,,,,,,,,68,001,23,w,Psychologie,2023-01-25_12h01.46.313,00_bat_bachelor,2022.2.4,59.95386815534916,
,,,,,,,,,,,,0,0,0,0,178,0,178,0,,,,,,,178,,,1,916.0928888623894,Y,l,go,d,0,0.37707957296515815,,,,,,,,,,,,,,,,,,68,001,23,w,Psychologie,2023-01-25_12h01.46.313,00_bat_bachelor,2022.2.4,59.95386815534916,
,,,,,,,,,,,,0,0,0,0,179,0,179,0,,,,,,,179,,,1,917.5772556275188,X,d,go,d,1,0.5246666967286728,,,,,,,,,,,,,,,,,,68,001,23,w,Psychologie,2023-01-25_12h01.46.313,00_bat_bachelor,2022.2.4,59.95386815534916,
,,,,,,,,,,,,0,0,0,0,180,0,180,0,,,,,,,180,,,1,919.2116531563515,Y,l,go,l,1,0.47472577562439255,,,,,,,,,,,,,,,,,,68,001,23,w,Psychologie,2023-01-25_12h01.46.313,00_bat_bachelor,2022.2.4,59.95386815534916,
,,,,,,,,,,,,0,0,0,0,181,0,181,0,,,,,,,181,,,1,920.7965543707542,Y,None,nogo,None,1,,,,,,,,,,,,,,,,,,,68,001,23,w,Psychologie,2023-01-25_12h01.46.313,00_bat_bachelor,2022.2.4,59.95386815534916,
,,,,,,,,,,,,0,0,0,0,182,0,182,0,,,,,,,182,,,1,922.59784571809,X,d,go,d,1,0.5137444990104996,,,,,,,,,,,,,,,,,,68,001,23,w,Psychologie,2023-01-25_12h01.46.313,00_bat_bachelor,2022.2.4,59.95386815534916,
,,,,,,,,,,,,0,0,0,0,183,0,183,0,,,,,,,183,,,1,924.215725404676,Y,l,go,l,1,0.46327848624787293,,,,,,,,,,,,,,,,,,68,001,23,w,Psychologie,2023-01-25_12h01.46.313,00_bat_bachelor,2022.2.4,59.95386815534916,
,,,,,,,,,,,,0,0,0,0,184,0,184,0,,,,,,,184,,,1,925.7840840495774,Y,None,nogo,None,1,,,,,,,,,926.5847528505547,,,,,,,,,,68,001,23,w,Psychologie,2023-01-25_12h01.46.313,00_bat_bachelor,2022.2.4,59.95386815534916,
,,,,,,,,,,,,0,0,0,0,185,0,185,0,,,,,,,185,,,1,927.5856343063642,X,d,go,d,1,0.2612083741405513,,,,,,,,,,,,,,,,,,68,001,23,w,Psychologie,2023-01-25_12h01.46.313,00_bat_bachelor,2022.2.4,59.95386815534916,
,,,,,,,,,,,,0,0,0,0,186,0,186,0,,,,,,,186,,,1,928.9533419927466,Y,l,go,l,1,0.46033690619515255,,,,,,,,,,,,,,,,,,68,001,23,w,Psychologie,2023-01-25_12h01.46.313,00_bat_bachelor,2022.2.4,59.95386815534916,
,,,,,,,,,,,,0,0,0,0,187,0,187,0,,,,,,,187,,,1,930.5379532673105,X,d,go,d,1,0.41198289644671604,,,,,,,,,,,,,,,,,,68,001,23,w,Psychologie,2023-01-25_12h01.46.313,00_bat_bachelor,2022.2.4,59.95386815534916,
,,,,,,,,,,,,0,0,0,0,188,0,188,0,,,,,,,188,,,1,932.0722381656815,X,None,nogo,None,1,,,,,,,,,932.8728439362603,,,,,,,,,,68,001,23,w,Psychologie,2023-01-25_12h01.46.313,00_bat_bachelor,2022.2.4,59.95386815534916,
,,,,,,,,,,,,0,0,0,0,189,0,189,0,,,,,,,189,,,1,933.8735959373589,Y,l,go,l,1,0.3564560278027784,,,,,,,,,,,,,,,,,,68,001,23,w,Psychologie,2023-01-25_12h01.46.313,00_bat_bachelor,2022.2.4,59.95386815534916,
,,,,,,,,,,,,0,0,0,0,190,0,190,0,,,,,,,190,,,1,935.3416174665908,X,d,go,d,1,0.4875868852250278,,,,,,,,,,,,,,,,,,68,001,23,w,Psychologie,2023-01-25_12h01.46.313,00_bat_bachelor,2022.2.4,59.95386815534916,
,,,,,,,,,,,,0,0,0,0,191,0,191,0,,,,,,,191,,,1,936.9589812736667,X,None,nogo,None,1,,,,,,,,,937.7595569835976,,,,,,,,,,68,001,23,w,Psychologie,2023-01-25_12h01.46.313,00_bat_bachelor,2022.2.4,59.95386815534916,
,,,,,,,,,,,,0,0,0,0,192,0,192,0,,,,,,,192,,,1,938.7605688638578,Y,l,go,l,1,0.3492540779407136,,,,,,,,,,,,,,,,,,68,001,23,w,Psychologie,2023-01-25_12h01.46.313,00_bat_bachelor,2022.2.4,59.95386815534916,
,,,,,,,,,,,,0,0,0,0,193,0,193,0,,,,,,,193,,,1,940.2115954592882,X,d,go,d,1,0.37095301860244945,,,,,,,,,,,,,,,,,,68,001,23,w,Psychologie,2023-01-25_12h01.46.313,00_bat_bachelor,2022.2.4,59.95386815534916,
,,,,,,,,,,,,0,0,0,0,194,0,194,0,,,,,,,194,,,1,941.6960000426625,Y,l,go,l,1,0.5024101795279421,,,,,,,,,,,,,,,,,,68,001,23,w,Psychologie,2023-01-25_12h01.46.313,00_bat_bachelor,2022.2.4,59.95386815534916,
,,,,,,,,,,,,0,0,0,0,195,0,195,0,,,,,,,195,,,1,943.3137226381514,X,d,go,d,1,0.26106873754179105,,,,,,,,,,,,,,,,,,68,001,23,w,Psychologie,2023-01-25_12h01.46.313,00_bat_bachelor,2022.2.4,59.95386815534916,
,,,,,,,,,,,,0,0,0,0,196,0,196,0,,,,,,,196,,,1,944.6813483849983,Y,l,go,l,1,0.41423502095858566,,,,,,,,,,,,,,,,,,68,001,23,w,Psychologie,2023-01-25_12h01.46.313,00_bat_bachelor,2022.2.4,59.95386815534916,
,,,,,,,,,,,,0,0,0,0,197,0,197,0,,,,,,,197,,,1,946.1991949563962,X,d,go,d,1,0.5112640105653554,,,,,,,,,,,,,,,,,,68,001,23,w,Psychologie,2023-01-25_12h01.46.313,00_bat_bachelor,2022.2.4,59.95386815534916,
,,,,,,,,,,,,0,0,0,0,198,0,198,0,,,,,,,198,,,1,947.8171842189331,Y,l,go,l,1,0.5425130257499404,,,,,,,,,,,,,,,,,,68,001,23,w,Psychologie,2023-01-25_12h01.46.313,00_bat_bachelor,2022.2.4,59.95386815534916,
,,,,,,,,,,,,0,0,0,0,199,0,199,0,,,,,,,199,,,1,949.4682848023367,Y,None,nogo,d,0,0.3141805724008009,,,,,,,,,,,,,,,,,,68,001,23,w,Psychologie,2023-01-25_12h01.46.313,00_bat_bachelor,2022.2.4,59.95386815534916,
,,,,,,,,,,,,0,0,0,0,200,0,200,0,,,,,,,200,,,1,950.8861215313373,X,d,go,d,1,0.4973405963683035,,,,,,,,,,,,,,,,,,68,001,23,w,Psychologie,2023-01-25_12h01.46.313,00_bat_bachelor,2022.2.4,59.95386815534916,
,,,,,,,,,,,,0,0,0,0,201,0,201,0,,,,,,,201,,,1,952.4870528296451,Y,l,go,l,1,0.38368758259457536,,,,,,,,,,,,,,,,,,68,001,23,w,Psychologie,2023-01-25_12h01.46.313,00_bat_bachelor,2022.2.4,59.95386815534916,
,,,,,,,,,,,,0,0,0,0,202,0,202,0,,,,,,,202,,,1,953.971717292181,X,d,go,d,1,0.43464474761276506,,,,,,,,,,,,,,,,,,68,001,23,w,Psychologie,2023-01-25_12h01.46.313,00_bat_bachelor,2022.2.4,59.95386815534916,
,,,,,,,,,,,,0,0,0,0,203,0,203,0,,,,,,,203,,,1,955.5229500939895,X,None,nogo,None,1,,,,,,,,,956.3237551375933,,,,,,,,,,68,001,23,w,Psychologie,2023-01-25_12h01.46.313,00_bat_bachelor,2022.2.4,59.95386815534916,
,,,,,,,,,,,,0,0,0,0,204,0,204,0,,,,,,,204,,,1,957.3244848356117,Y,l,go,l,1,0.28205737413372844,,,,,,,,,,,,,,,,,,68,001,23,w,Psychologie,2023-01-25_12h01.46.313,00_bat_bachelor,2022.2.4,59.95386815534916,
,,,,,,,,,,,,0,0,0,0,205,0,205,0,,,,,,,205,,,1,958.7088267279905,X,d,go,d,1,0.44990198194864206,,,,,,,,,,,,,,,,,,68,001,23,w,Psychologie,2023-01-25_12h01.46.313,00_bat_bachelor,2022.2.4,59.95386815534916,
,,,,,,,,,,,,0,0,0,0,206,0,206,0,,,,,,,206,,,1,960.2599911660363,Y,l,go,l,1,0.3710829581832513,,,,,,,,,,,,,,,,,,68,001,23,w,Psychologie,2023-01-25_12h01.46.313,00_bat_bachelor,2022.2.4,59.95386815534916,
,,,,,,,,,,,,0,0,0,0,207,0,207,0,,,,,,,207,,,1,961.7441169611411,Y,None,nogo,None,1,,,,,,,,,962.544944307796,,,,,,,,,,68,001,23,w,Psychologie,2023-01-25_12h01.46.313,00_bat_bachelor,2022.2.4,59.95386815534916,
,,,,,,,,,,,,0,0,0,0,208,0,208,0,,,,,,,208,,,1,963.5458310969698,X,d,go,d,1,0.3009092803695239,,,,,,,,,,,,,,,,,,68,001,23,w,Psychologie,2023-01-25_12h01.46.313,00_bat_bachelor,2022.2.4,59.95386815534916,
,,,,,,,,,,,,0,0,0,0,209,0,209,0,,,,,,,209,,,1,964.9636110985884,Y,l,go,l,1,0.34035418622079305,,,,,,,,,,,,,,,,,,68,001,23,w,Psychologie,2023-01-25_12h01.46.313,00_bat_bachelor,2022.2.4,59.95386815534916,
,,,,,,,,,,,,0,0,0,0,210,0,210,0,,,,,,,210,,,1,966.4146687243774,Y,None,nogo,None,1,,,,,,,,,967.2153287980473,,,,,,,,,,68,001,23,w,Psychologie,2023-01-25_12h01.46.313,00_bat_bachelor,2022.2.4,59.95386815534916,
,,,,,,,,,,,,0,0,0,0,211,0,211,0,,,,,,,211,,,1,968.21610698101,Y,None,nogo,l,0,0.6545083401433658,,,,,,,,,,,,,,,,,,68,001,23,w,Psychologie,2023-01-25_12h01.46.313,00_bat_bachelor,2022.2.4,59.95386815534916,
,,,,,,,,,,,,0,0,0,0,212,0,212,0,,,,,,,212,,,1,969.9839883403329,X,d,go,d,1,0.29482733210898004,,,,,,,,,,,,,,,,,,68,001,23,w,Psychologie,2023-01-25_12h01.46.313,00_bat_bachelor,2022.2.4,59.95386815534916,
,,,,,,,,,,,,0,0,0,0,213,0,213,0,,,,,,,213,,,1,971.3851588632679,Y,l,go,l,1,0.3816027310676873,,,,,,,,,,,,,,,,,,68,001,23,w,Psychologie,2023-01-25_12h01.46.313,00_bat_bachelor,2022.2.4,59.95386815534916,
,,,,,,,,,,,,0,0,0,0,214,0,214,0,,,,,,,214,,,1,972.8692822341109,X,d,go,d,1,0.3842917046858929,,,,,,,,,,,,,,,,,,68,001,23,w,Psychologie,2023-01-25_12h01.46.313,00_bat_bachelor,2022.2.4,59.95386815534916,
,,,,,,,,,,,,0,0,0,0,215,0,215,0,,,,,,,215,,,1,974.3706507209572,Y,l,go,l,1,0.4519126515078824,,,,,,,,,,,,,,,,,,68,001,23,w,Psychologie,2023-01-25_12h01.46.313,00_bat_bachelor,2022.2.4,59.95386815534916,
,,,,,,,,,,,,0,0,0,0,216,0,216,0,,,,,,,216,,,1,975.938570577302,X,d,go,d,1,0.4839660314610228,,,,,,,,,,,,,,,,,,68,001,23,w,Psychologie,2023-01-25_12h01.46.313,00_bat_bachelor,2022.2.4,59.95386815534916,
,,,,,,,,,,,,0,0,0,0,217,0,217,0,,,,,,,217,,,1,977.539614360634,X,None,nogo,None,1,,,,,,,,,978.3404024345218,,,,,,,,,,68,001,23,w,Psychologie,2023-01-25_12h01.46.313,00_bat_bachelor,2022.2.4,59.95386815534916,
,,,,,,,,,,,,0,0,0,0,218,0,218,0,,,,,,,218,,,1,979.3411161325348,Y,l,go,l,1,0.3613757925631944,,,,,,,,,,,,,,,,,,68,001,23,w,Psychologie,2023-01-25_12h01.46.313,00_bat_bachelor,2022.2.4,59.95386815534916,
,,,,,,,,,,,,0,0,0,0,219,0,219,0,,,,,,,219,,,1,980.8086780247395,X,d,go,d,1,0.5095413413946517,,,,,,,,,,,,,,,,,,68,001,23,w,Psychologie,2023-01-25_12h01.46.313,00_bat_bachelor,2022.2.4,59.95386815534916,
,,,,,,,,,,,,0,0,0,0,220,0,220,0,,,,,,,220,,,1,982.4269155300572,Y,l,go,l,1,0.380283456412144,,,,,,,,,,,,,,,,,,68,001,23,w,Psychologie,2023-01-25_12h01.46.313,00_bat_bachelor,2022.2.4,59.95386815534916,
,,,,,,,,,,,,0,0,0,0,221,0,221,0,,,,,,,221,,,1,983.9113967196026,X,d,go,d,1,0.5114947987894993,,,,,,,,,,,,,,,,,,68,001,23,w,Psychologie,2023-01-25_12h01.46.313,00_bat_bachelor,2022.2.4,59.95386815534916,
,,,,,,,,,,,,0,0,0,0,222,0,222,0,,,,,,,222,,,1,985.5293573760428,X,None,nogo,None,1,,,,,,,,,,,,,,,,,,,68,001,23,w,Psychologie,2023-01-25_12h01.46.313,00_bat_bachelor,2022.2.4,59.95386815534916,
,,,,,,,,,,,,0,0,0,0,223,0,223,0,,,,,,,223,,,1,987.3303267834999,Y,l,go,l,1,0.2772777308418881,,,,,,,,,,,,,,,,,,68,001,23,w,Psychologie,2023-01-25_12h01.46.313,00_bat_bachelor,2022.2.4,59.95386815534916,
,,,,,,,,,,,,0,0,0,0,224,0,224,0,,,,,,,224,,,1,988.7148611610173,X,d,go,d,1,0.3965365709736943,,,,,,,,,,,,,,,,,,68,001,23,w,Psychologie,2023-01-25_12h01.46.313,00_bat_bachelor,2022.2.4,59.95386815534916,
,,,,,,,,,,,,0,0,0,0,225,0,225,0,,,,,,,225,,,1,990.216369769274,X,None,nogo,None,1,,,,,,,,,,,,,,,,,,,68,001,23,w,Psychologie,2023-01-25_12h01.46.313,00_bat_bachelor,2022.2.4,59.95386815534916,
,,,,,,,,,,,,0,0,0,0,226,0,226,0,,,,,,,226,,,1,992.0175559043128,Y,l,go,l,1,0.21393266899394803,,,,,,,,,,,,,,,,,,68,001,23,w,Psychologie,2023-01-25_12h01.46.313,00_bat_bachelor,2022.2.4,59.95386815534916,
,,,,,,,,,,,,0,0,0,0,227,0,227,0,,,,,,,227,,,1,993.3352412148961,X,d,go,d,1,0.3035017689689994,,,,,,,,,,,,,,,,,,68,001,23,w,Psychologie,2023-01-25_12h01.46.313,00_bat_bachelor,2022.2.4,59.95386815534916,
,,,,,,,,,,,,0,0,0,0,228,0,228,0,,,,,,,228,,,1,994.7527550343075,Y,l,go,l,1,0.3576894841680769,,,,,,,,,,,,,,,,,,68,001,23,w,Psychologie,2023-01-25_12h01.46.313,00_bat_bachelor,2022.2.4,59.95386815534916,
,,,,,,,,,,,,0,0,0,0,229,0,229,0,,,,,,,229,,,1,996.2207881999202,X,d,go,d,1,0.265764986834256,,,,,,,,,,,,,,,,,,68,001,23,w,Psychologie,2023-01-25_12h01.46.313,00_bat_bachelor,2022.2.4,59.95386815534916,
,,,,,,,,,,,,0,0,0,0,230,0,230,0,,,,,,,230,,,1,997.5886234016216,Y,l,go,l,1,0.38525461516110227,,,,,,,,,,,,,,,,,,68,001,23,w,Psychologie,2023-01-25_12h01.46.313,00_bat_bachelor,2022.2.4,59.95386815534916,
,,,,,,,,,,,,0,0,0,0,231,0,231,0,,,,,,,231,,,1,999.089599160623,X,d,go,d,1,0.38860104425111786,,,,,,,,,,,,,,,,,,68,001,23,w,Psychologie,2023-01-25_12h01.46.313,00_bat_bachelor,2022.2.4,59.95386815534916,
,,,,,,,,,,,,0,0,0,0,232,0,232,0,,,,,,,232,,,1,1000.5908270411892,X,None,nogo,None,1,,,,,,,,,,,,,,,,,,,68,001,23,w,Psychologie,2023-01-25_12h01.46.313,00_bat_bachelor,2022.2.4,59.95386815534916,
,,,,,,,,,,,,0,0,0,0,233,0,233,0,,,,,,,233,,,1,1002.3921280855138,Y,l,go,l,1,0.2863478046201635,,,,,,,,,,,,,,,,,,68,001,23,w,Psychologie,2023-01-25_12h01.46.313,00_bat_bachelor,2022.2.4,59.95386815534916,
,,,,,,,,,,,,0,0,0,0,234,0,234,0,,,,,,,234,,,1,1003.7931851537141,X,d,go,d,1,0.4531199259799905,,,,,,,,,,,,,,,,,,68,001,23,w,Psychologie,2023-01-25_12h01.46.313,00_bat_bachelor,2022.2.4,59.95386815534916,
,,,,,,,,,,,,0,0,0,0,235,0,235,0,,,,,,,235,,,1,1005.3610361615138,Y,l,go,l,1,0.30958468694007024,,,,,,,,,,,,,,,,,,68,001,23,w,Psychologie,2023-01-25_12h01.46.313,00_bat_bachelor,2022.2.4,59.95386815534916,
,,,,,,,,,,,,0,0,0,0,236,0,236,0,,,,,,,236,,,1,1006.7784850111348,X,d,go,d,1,0.4590520558413118,,,,,,,,,,,,,,,,,,68,001,23,w,Psychologie,2023-01-25_12h01.46.313,00_bat_bachelor,2022.2.4,59.95386815534916,
,,,,,,,,,,,,0,0,0,0,237,0,237,0,,,,,,,237,,,1,1008.3466414739087,X,None,nogo,None,1,,,,,,,,,,,,,,,,,,,68,001,23,w,Psychologie,2023-01-25_12h01.46.313,00_bat_bachelor,2022.2.4,59.95386815534916,
,,,,,,,,,,,,0,0,0,0,238,0,238,0,,,,,,,238,,,1,1010.14800312437,Y,l,go,l,1,0.24407234918908216,,,,,,,,,,,,,,,,,,68,001,23,w,Psychologie,2023-01-25_12h01.46.313,00_bat_bachelor,2022.2.4,59.95386815534916,
,,,,,,,,,,,,0,0,0,0,239,0,239,0,,,,,,,239,,,1,1011.4990281197825,X,d,go,d,1,0.4912339208240155,,,,,,,,,,,,,,,,,,68,001,23,w,Psychologie,2023-01-25_12h01.46.313,00_bat_bachelor,2022.2.4,59.95386815534916,
,,,,,,,,,,,,0,0,0,0,240,0,240,0,,,,,,,240,,,1,1013.1003162671113,Y,l,go,l,1,0.3466305589827243,,,,,,,,,,,,,,,,,,68,001,23,w,Psychologie,2023-01-25_12h01.46.313,00_bat_bachelor,2022.2.4,59.95386815534916,
,,,,,,,,,,,,0,0,0,0,241,0,241,0,,,,,,,241,,,1,1014.5513671050139,Y,None,nogo,None,1,,,,,,,,,1015.352071784815,,,,,,,,,,68,001,23,w,Psychologie,2023-01-25_12h01.46.313,00_bat_bachelor,2022.2.4,59.95386815534916,
,,,,,,,,,,,,0,0,0,0,242,0,242,0,,,,,,,242,,,1,1016.3528591799259,X,d,go,d,1,0.29519436295959167,,,,,,,,,,,,,,,,,,68,001,23,w,Psychologie,2023-01-25_12h01.46.313,00_bat_bachelor,2022.2.4,59.95386815534916,
,,,,,,,,,,,,0,0,0,0,243,0,243,0,,,,,,,243,,,1,1017.7539341875236,Y,l,go,l,1,0.5579040783923119,,,,,,,,,,,,,,,,,,68,001,23,w,Psychologie,2023-01-25_12h01.46.313,00_bat_bachelor,2022.2.4,59.95386815534916,
,,,,,,,,,,,,0,0,0,0,244,0,244,0,,,,,,,244,,,1,1019.421507037332,X,d,go,d,1,0.37752805845229886,,,,,,,,,,,,,,,,,,68,001,23,w,Psychologie,2023-01-25_12h01.46.313,00_bat_bachelor,2022.2.4,59.95386815534916,
,,,,,,,,,,,,0,0,0,0,245,0,245,0,,,,,,,245,,,1,1020.9063237425289,Y,l,go,l,1,0.3323725988448132,,,,,,,,,,,,,,,,,,68,001,23,w,Psychologie,2023-01-25_12h01.46.313,00_bat_bachelor,2022.2.4,59.95386815534916,
,,,,,,,,,,,,0,0,0,0,246,0,246,0,,,,,,,246,,,1,1022.3407636471675,X,d,go,d,1,0.41763720771996304,,,,,,,,,,,,,,,,,,68,001,23,w,Psychologie,2023-01-25_12h01.46.313,00_bat_bachelor,2022.2.4,59.95386815534916,
,,,,,,,,,,,,0,0,0,0,247,0,247,0,,,,,,,247,,,1,1023.8748638179677,Y,l,go,l,1,0.32397598060197197,,,,,,,,,,,,,,,,,,68,001,23,w,Psychologie,2023-01-25_12h01.46.313,00_bat_bachelor,2022.2.4,59.95386815534916,
,,,,,,,,,,,,0,0,0,0,248,0,248,0,,,,,,,248,,,1,1025.3094632379944,Y,None,nogo,None,1,,,,,,,,,,,,,,,,,,,68,001,23,w,Psychologie,2023-01-25_12h01.46.313,00_bat_bachelor,2022.2.4,59.95386815534916,
,,,,,,,,,,,,0,0,0,0,249,0,249,0,,,,,,,249,,,1,1027.1109882826568,X,d,go,d,1,0.28783774620387703,,,,,,,,,,,,,,,,,,68,001,23,w,Psychologie,2023-01-25_12h01.46.313,00_bat_bachelor,2022.2.4,59.95386815534916,
,,,,,,,,,,,,1,0,1,0,0,0,0,0,,,,,,,0,,,0.2,1037.8362378223974,X,d,go,None,0,,,,,,,,,1038.6368280778115,1027.5235096099495,space,10.08630824094871,,,,,,,68,001,23,w,Psychologie,2023-01-25_12h01.46.313,00_bat_bachelor,2022.2.4,59.95386815534916,
,,,,,,,,,,,,1,0,1,0,1,0,1,0,,,,,,,1,,,0.2,1038.83705915694,Y,l,go,None,0,,,,,,,,,1039.637313411833,,,,,,,,,,68,001,23,w,Psychologie,2023-01-25_12h01.46.313,00_bat_bachelor,2022.2.4,59.95386815534916,
,,,,,,,,,,,,1,0,1,0,2,0,2,0,,,,,,,2,,,0.2,1039.8373970968241,X,d,go,None,0,,,,,,,,,,,,,,,,,,,68,001,23,w,Psychologie,2023-01-25_12h01.46.313,00_bat_bachelor,2022.2.4,59.95386815534916,
,,,,,,,,,,,,1,0,1,0,3,0,3,0,,,,,,,3,,,0.2,1040.8378770975105,Y,l,go,l,1,0.5294924007030204,,,,,,,,,,,,,,,,,,68,001,23,w,Psychologie,2023-01-25_12h01.46.313,00_bat_bachelor,2022.2.4,59.95386815534916,
,,,,,,,,,,,,1,0,1,0,4,0,4,0,,,,,,,4,,,0.2,1041.671853583306,X,d,go,None,0,,,,,,,,,1042.4727245663817,,,,,,,,,,68,001,23,w,Psychologie,2023-01-25_12h01.46.313,00_bat_bachelor,2022.2.4,59.95386815534916,
,,,,,,,,,,,,1,0,1,0,5,0,5,0,,,,,,,5,,,0.2,1042.6726026753022,X,None,nogo,None,1,,,,,,,,,,,,,,,,,,,68,001,23,w,Psychologie,2023-01-25_12h01.46.313,00_bat_bachelor,2022.2.4,59.95386815534916,
,,,,,,,,,,,,1,0,1,0,6,0,6,0,,,,,,,6,,,0.2,1043.6737120102334,Y,l,go,None,0,,,,,,,,,,,,,,,,,,,68,001,23,w,Psychologie,2023-01-25_12h01.46.313,00_bat_bachelor,2022.2.4,59.95386815534916,
,,,,,,,,,,,,1,0,1,0,7,0,7,0,,,,,,,7,,,0.2,1044.6744009809336,X,d,go,d,1,0.2919415097567253,,,,,,,,,,,,,,,,,,68,001,23,w,Psychologie,2023-01-25_12h01.46.313,00_bat_bachelor,2022.2.4,59.95386815534916,
,,,,,,,,,,,,1,0,1,0,8,0,8,0,,,,,,,8,,,0.2,1045.2748285209527,X,None,nogo,d,0,0.4600455118343234,,,,,,,,,,,,,,,,,,68,001,23,w,Psychologie,2023-01-25_12h01.46.313,00_bat_bachelor,2022.2.4,59.95386815534916,
,,,,,,,,,,,,1,0,1,0,9,0,9,0,,,,,,,9,,,0.2,1046.0421256370319,X,None,nogo,d,0,0.331942052784143,,,,,,,,,,,,,,,,,,68,001,23,w,Psychologie,2023-01-25_12h01.46.313,00_bat_bachelor,2022.2.4,59.95386815534916,
,,,,,,,,,,,,1,0,1,0,10,0,10,0,,,,,,,10,,,0.2,1046.6760625591269,Y,l,go,d,0,0.29096065982594155,,,,,,,,,,,,,,,,,,68,001,23,w,Psychologie,2023-01-25_12h01.46.313,00_bat_bachelor,2022.2.4,59.95386815534916,
,,,,,,,,,,,,1,0,1,0,11,0,11,0,,,,,,,11,,,0.2,1047.2764033111162,X,d,go,d,1,0.37844102949020453,,,,,,,,,,,,,,,,,,68,001,23,w,Psychologie,2023-01-25_12h01.46.313,00_bat_bachelor,2022.2.4,59.95386815534916,
,,,,,,,,,,,,1,0,1,0,12,0,12,0,,,,,,,12,,,0.2,1047.9603073362086,Y,l,go,l,1,0.5738667683035601,,,,,,,,,,,,,,,,,,68,001,23,w,Psychologie,2023-01-25_12h01.46.313,00_bat_bachelor,2022.2.4,59.95386815534916,
,,,,,,,,,,,,1,0,1,0,13,0,13,0,,,,,,,13,,,0.2,1048.8442208643246,X,d,go,None,0,,,,,,,,,,,,,,,,,,,68,001,23,w,Psychologie,2023-01-25_12h01.46.313,00_bat_bachelor,2022.2.4,59.95386815534916,
,,,,,,,,,,,,1,0,1,0,14,0,14,0,,,,,,,14,,,0.2,1049.8450485018839,X,None,nogo,d,0,0.017387413419783115,,,,,,,,,,,,,,,,,,68,001,23,w,Psychologie,2023-01-25_12h01.46.313,00_bat_bachelor,2022.2.4,59.95386815534916,
,,,,,,,,,,,,1,0,1,0,15,0,15,0,,,,,,,15,,,0.2,1050.1786460780131,Y,l,go,None,0,,,,,,,,,,,,,,,,,,,68,001,23,w,Psychologie,2023-01-25_12h01.46.313,00_bat_bachelor,2022.2.4,59.95386815534916,
,,,,,,,,,,,,1,0,1,0,16,0,16,0,,,,,,,16,,,0.2,1051.1794043821574,X,d,go,l,0,0.4749187455745414,,,,,,,,,,,,,,,,,,68,001,23,w,Psychologie,2023-01-25_12h01.46.313,00_bat_bachelor,2022.2.4,59.95386815534916,
,,,,,,,,,,,,1,0,1,0,17,0,17,0,,,,,,,17,,,0.2,1051.963933038438,Y,l,go,d,0,0.04376854270230979,,,,,,,,,,,,,,,,,,68,001,23,w,Psychologie,2023-01-25_12h01.46.313,00_bat_bachelor,2022.2.4,59.95386815534916,
,,,,,,,,,,,,1,0,1,0,18,0,18,0,,,,,,,18,,,0.2,1052.313619850116,X,d,go,d,1,0.4784106294391677,,,,,,,,,,,,,,,,,,68,001,23,w,Psychologie,2023-01-25_12h01.46.313,00_bat_bachelor,2022.2.4,59.95386815534916,
,,,,,,,,,,,,1,0,1,0,19,0,19,0,,,,,,,19,,,0.2,1053.097475535731,Y,l,go,l,1,0.5414778726990335,,,,,,,,,,,,,,,,,,68,001,23,w,Psychologie,2023-01-25_12h01.46.313,00_bat_bachelor,2022.2.4,59.95386815534916,
,,,,,,,,,,,,1,0,1,0,20,0,20,0,,,,,,,20,,,0.2,1053.9481419851654,Y,None,nogo,None,1,,,,,,,,,1054.748483512929,,,,,,,,,,68,001,23,w,Psychologie,2023-01-25_12h01.46.313,00_bat_bachelor,2022.2.4,59.95386815534916,
,,,,,,,,,,,,1,0,1,0,21,0,21,0,,,,,,,21,,,0.2,1054.9489158044744,X,d,go,d,1,0.5939826763642486,,,,,,,,,,,,,,,,,,68,001,23,w,Psychologie,2023-01-25_12h01.46.313,00_bat_bachelor,2022.2.4,59.95386815534916,
,,,,,,,,,,,,1,0,1,0,22,0,22,0,,,,,,,22,,,0.2,1055.8496589328279,Y,l,go,l,1,0.6058251177892089,,,,,,,,,,,,,,,,,,68,001,23,w,Psychologie,2023-01-25_12h01.46.313,00_bat_bachelor,2022.2.4,59.95386815534916,
,,,,,,,,,,,,1,0,1,0,23,0,23,0,,,,,,,23,,,0.2,1056.7670639035932,X,d,go,None,0,,,,,,,,,,,,,,,,,,,68,001,23,w,Psychologie,2023-01-25_12h01.46.313,00_bat_bachelor,2022.2.4,59.95386815534916,
,,,,,,,,,,,,1,0,1,0,24,0,24,0,,,,,,,24,,,0.2,1057.7677446318557,Y,l,go,l,1,0.47963147971313447,,,,,,,,,,,,,,,,,,68,001,23,w,Psychologie,2023-01-25_12h01.46.313,00_bat_bachelor,2022.2.4,59.95386815534916,
,,,,,,,,,,,,1,0,1,0,25,0,25,0,,,,,,,25,,,0.2,1058.5517622570915,Y,None,nogo,None,1,,,,,,,,,,,,,,,,,,,68,001,23,w,Psychologie,2023-01-25_12h01.46.313,00_bat_bachelor,2022.2.4,59.95386815534916,
,,,,,,,,,,,,1,0,1,0,26,0,26,0,,,,,,,26,,,0.2,1059.5525346218783,X,d,go,d,1,0.215232549700886,,,,,,,,,,,,,,,,,,68,001,23,w,Psychologie,2023-01-25_12h01.46.313,00_bat_bachelor,2022.2.4,59.95386815534916,
,,,,,,,,,,,,1,0,1,0,27,0,27,0,,,,,,,27,,,0.2,1060.0695079798752,Y,l,go,l,1,0.4330161391699221,,,,,,,,,,,,,,,,,,68,001,23,w,Psychologie,2023-01-25_12h01.46.313,00_bat_bachelor,2022.2.4,59.95386815534916,
,,,,,,,,,,,,1,0,1,0,28,0,28,0,,,,,,,28,,,0.2,1060.8034983808466,X,d,go,d,1,0.5786633813404478,,,,,,,,,,,,,,,,,,68,001,23,w,Psychologie,2023-01-25_12h01.46.313,00_bat_bachelor,2022.2.4,59.95386815534916,
,,,,,,,,,,,,1,0,1,0,29,0,29,0,,,,,,,29,,,0.2,1061.6874826969288,X,None,nogo,d,0,0.5922963708580937,,,,,,,,,,,,,,,,,,68,001,23,w,Psychologie,2023-01-25_12h01.46.313,00_bat_bachelor,2022.2.4,59.95386815534916,
,,,,,,,,,,,,1,0,1,0,30,0,30,0,,,,,,,30,,,0.2,1062.5880813402473,Y,l,go,l,1,0.411108228523517,,,,,,,,,,,,,,,,,,68,001,23,w,Psychologie,2023-01-25_12h01.46.313,00_bat_bachelor,2022.2.4,59.95386815534916,
,,,,,,,,,,,,1,0,1,0,31,0,31,0,,,,,,,31,,,0.2,1063.305176686321,X,d,go,d,1,0.446346097975038,,,,,,,,,,,,,,,,,,68,001,23,w,Psychologie,2023-01-25_12h01.46.313,00_bat_bachelor,2022.2.4,59.95386815534916,
,,,,,,,,,,,,1,0,1,0,32,0,32,0,,,,,,,32,,,0.2,1064.0558837176359,Y,l,go,l,1,0.4308091056882404,,,,,,,,,,,,,,,,,,68,001,23,w,Psychologie,2023-01-25_12h01.46.313,00_bat_bachelor,2022.2.4,59.95386815534916,
,,,,,,,,,,,,1,0,1,0,33,0,33,0,,,,,,,33,,,0.2,1064.7898891489313,X,d,go,d,1,0.4656411563337315,,,,,,,,,,,,,,,,,,68,001,23,w,Psychologie,2023-01-25_12h01.46.313,00_bat_bachelor,2022.2.4,59.95386815534916,
,,,,,,,,,,,,1,0,1,0,34,0,34,0,,,,,,,34,,,0.2,1065.5570155980822,Y,l,go,l,1,0.4992615688825026,,,,,,,,,,,,,,,,,,68,001,23,w,Psychologie,2023-01-25_12h01.46.313,00_bat_bachelor,2022.2.4,59.95386815534916,
,,,,,,,,,,,,1,0,1,0,35,0,35,0,,,,,,,35,,,0.2,1066.3576373686956,Y,None,nogo,None,1,,,,,,,,,,,,,,,,,,,68,001,23,w,Psychologie,2023-01-25_12h01.46.313,00_bat_bachelor,2022.2.4,59.95386815534916,
,,,,,,,,,,,,1,0,1,0,36,0,36,0,,,,,,,36,,,0.2,1067.358498460846,X,d,go,None,0,,,,,,,,,,,,,,,,,,,68,001,23,w,Psychologie,2023-01-25_12h01.46.313,00_bat_bachelor,2022.2.4,59.95386815534916,
,,,,,,,,,,,,1,0,1,0,37,0,37,0,,,,,,,37,,,0.2,1068.3591753103246,Y,l,go,l,1,0.5597130507521797,,,,,,,,,,,,,,,,,,68,001,23,w,Psychologie,2023-01-25_12h01.46.313,00_bat_bachelor,2022.2.4,59.95386815534916,
,,,,,,,,,,,,1,0,1,0,38,0,38,0,,,,,,,38,,,0.2,1069.226548693172,X,d,go,None,0,,,,,,,,,,,,,,,,,,,68,001,23,w,Psychologie,2023-01-25_12h01.46.313,00_bat_bachelor,2022.2.4,59.95386815534916,
,,,,,,,,,,,,1,0,1,0,39,0,39,0,,,,,,,39,,,0.2,1070.227261906315,Y,l,go,l,1,0.5155597743869293,,,,,,,,,,,,,,,,,,68,001,23,w,Psychologie,2023-01-25_12h01.46.313,00_bat_bachelor,2022.2.4,59.95386815534916,
,,,,,,,,,,,,1,0,1,0,40,0,40,0,,,,,,,40,,,0.2,1071.0445188526355,Y,None,nogo,None,1,,,,,,,,,,,,,,,,,,,68,001,23,w,Psychologie,2023-01-25_12h01.46.313,00_bat_bachelor,2022.2.4,59.95386815534916,
,,,,,,,,,,,,1,0,1,0,41,0,41,0,,,,,,,41,,,0.2,1072.0451704899315,X,d,go,d,1,0.48880482639651746,,,,,,,,,,,,,,,,,,68,001,23,w,Psychologie,2023-01-25_12h01.46.313,00_bat_bachelor,2022.2.4,59.95386815534916,
,,,,,,,,,,,,1,0,1,0,42,0,42,0,,,,,,,42,,,0.2,1072.8459396547114,Y,l,go,l,1,0.5207379637577105,,,,,,,,,,,,,,,,,,68,001,23,w,Psychologie,2023-01-25_12h01.46.313,00_bat_bachelor,2022.2.4,59.95386815534916,
,,,,,,,,,,,,1,0,1,0,43,0,43,0,,,,,,,43,,,0.2,1073.6799568678252,Y,None,nogo,None,1,,,,,,,,,,,,,,,,,,,68,001,23,w,Psychologie,2023-01-25_12h01.46.313,00_bat_bachelor,2022.2.4,59.95386815534916,
,,,,,,,,,,,,1,0,1,0,44,0,44,0,,,,,,,44,,,0.2,1074.6807258386398,X,d,go,d,1,0.3820715802430641,,,,,,,,,,,,,,,,,,68,001,23,w,Psychologie,2023-01-25_12h01.46.313,00_bat_bachelor,2022.2.4,59.95386815534916,
,,,,,,,,,,,,1,0,1,0,45,0,45,0,,,,,,,45,,,0.2,1075.364491196844,Y,l,go,l,1,0.529305248928722,,,,,,,,,,,,,,,,,,68,001,23,w,Psychologie,2023-01-25_12h01.46.313,00_bat_bachelor,2022.2.4,59.95386815534916,
,,,,,,,,,,,,1,0,1,0,46,0,46,0,,,,,,,46,,,0.2,1076.1981864700792,X,d,go,d,1,0.4966705348051619,,,,,,,,,,,,,,,,,,68,001,23,w,Psychologie,2023-01-25_12h01.46.313,00_bat_bachelor,2022.2.4,59.95386815534916,
,,,,,,,,,,,,1,0,1,0,47,0,47,0,,,,,,,47,,,0.2,1076.9986569677421,X,None,nogo,None,1,,,,,,,,,,,,,,,,,,,68,001,23,w,Psychologie,2023-01-25_12h01.46.313,00_bat_bachelor,2022.2.4,59.95386815534916,
,,,,,,,,,,,,1,0,1,0,48,0,48,0,,,,,,,48,,,0.2,1077.9999767272384,Y,l,go,l,1,0.43898075391189195,,,,,,,,,,,,,,,,,,68,001,23,w,Psychologie,2023-01-25_12h01.46.313,00_bat_bachelor,2022.2.4,59.95386815534916,
,,,,,,,,,,,,1,0,1,0,49,0,49,0,,,,,,,49,,,0.2,1078.7504195157671,X,d,go,d,1,0.5046603646187577,,,,,,,,,,,,,,,,,,68,001,23,w,Psychologie,2023-01-25_12h01.46.313,00_bat_bachelor,2022.2.4,59.95386815534916,
,,,,,,,,,,,,1,0,1,0,50,0,50,0,,,,,,,50,,,0.2,1079.5677870076906,Y,l,go,l,1,0.64747026929399,,,,,,,,,,,,,,,,,,68,001,23,w,Psychologie,2023-01-25_12h01.46.313,00_bat_bachelor,2022.2.4,59.95386815534916,
,,,,,,,,,,,,1,0,1,0,51,0,51,0,,,,,,,51,,,0.2,1080.5184783299046,Y,None,nogo,None,1,,,,,,,,,,,,,,,,,,,68,001,23,w,Psychologie,2023-01-25_12h01.46.313,00_bat_bachelor,2022.2.4,59.95386815534916,
,,,,,,,,,,,,1,0,1,0,52,0,52,0,,,,,,,52,,,0.2,1081.5192220885656,X,d,go,d,1,0.3922635950730182,,,,,,,,,,,,,,,,,,68,001,23,w,Psychologie,2023-01-25_12h01.46.313,00_bat_bachelor,2022.2.4,59.95386815534916,
,,,,,,,,,,,,1,0,1,0,53,0,53,0,,,,,,,53,,,0.2,1082.2198349864339,Y,l,go,None,0,,,,,,,,,,,,,,,,,,,68,001,23,w,Psychologie,2023-01-25_12h01.46.313,00_bat_bachelor,2022.2.4,59.95386815534916,
,,,,,,,,,,,,1,0,1,0,54,0,54,0,,,,,,,54,,,0.2,1083.2205995935947,X,d,go,d,1,0.4497162846964784,,,,,,,,,,,,,,,,,,68,001,23,w,Psychologie,2023-01-25_12h01.46.313,00_bat_bachelor,2022.2.4,59.95386815534916,
,,,,,,,,,,,,1,0,1,0,55,0,55,0,,,,,,,55,,,0.2,1083.971166988369,Y,l,go,l,1,0.38785437651677057,,,,,,,,,,,,,,,,,,68,001,23,w,Psychologie,2023-01-25_12h01.46.313,00_bat_bachelor,2022.2.4,59.95386815534916,
,,,,,,,,,,,,1,0,1,0,56,0,56,0,,,,,,,56,,,0.2,1084.6716906739748,X,d,go,d,1,0.5998168666264974,,,,,,,,,,,,,,,,,,68,001,23,w,Psychologie,2023-01-25_12h01.46.313,00_bat_bachelor,2022.2.4,59.95386815534916,
,,,,,,,,,,,,1,0,1,0,57,0,57,0,,,,,,,57,,,0.2,1085.5720318623353,X,None,nogo,None,1,,,,,,,,,1086.372662360227,,,,,,,,,,68,001,23,w,Psychologie,2023-01-25_12h01.46.313,00_bat_bachelor,2022.2.4,59.95386815534916,
,,,,,,,,,,,,1,0,1,0,58,0,58,0,,,,,,,58,,,0.2,1086.5729099242308,Y,l,go,l,1,0.33019659569254145,,,,,,,,,,,,,,,,,,68,001,23,w,Psychologie,2023-01-25_12h01.46.313,00_bat_bachelor,2022.2.4,59.95386815534916,
,,,,,,,,,,,,1,0,1,0,59,0,59,0,,,,,,,59,,,0.2,1087.206996664725,X,d,go,d,1,0.41578702320111915,,,,,,,,,,,,,,,,,,68,001,23,w,Psychologie,2023-01-25_12h01.46.313,00_bat_bachelor,2022.2.4,59.95386815534916,
,,,,,,,,,,,,1,0,1,0,60,0,60,0,,,,,,,60,,,0.2,1087.9238331013185,X,None,nogo,None,1,,,,,,,,,1088.7247462662926,,,,,,,,,,68,001,23,w,Psychologie,2023-01-25_12h01.46.313,00_bat_bachelor,2022.2.4,59.95386815534916,
,,,,,,,,,,,,1,0,1,0,61,0,61,0,,,,,,,61,,,0.2,1088.9248052239418,Y,l,go,l,1,0.29862370126647875,,,,,,,,,,,,,,,,,,68,001,23,w,Psychologie,2023-01-25_12h01.46.313,00_bat_bachelor,2022.2.4,59.95386815534916,
,,,,,,,,,,,,1,0,1,0,62,0,62,0,,,,,,,62,,,0.2,1089.5253394307801,X,d,go,d,1,0.3686475607100874,,,,,,,,,,,,,,,,,,68,001,23,w,Psychologie,2023-01-25_12h01.46.313,00_bat_bachelor,2022.2.4,59.95386815534916,
,,,,,,,,,,,,1,0,1,0,63,0,63,0,,,,,,,63,,,0.2,1090.2089001826535,X,None,nogo,None,1,,,,,,,,,,,,,,,,,,,68,001,23,w,Psychologie,2023-01-25_12h01.46.313,00_bat_bachelor,2022.2.4,59.95386815534916,
,,,,,,,,,,,,1,0,1,0,64,0,64,0,,,,,,,64,,,0.2,1091.2099736387609,Y,l,go,l,1,0.2366386414214503,,,,,,,,,,,,,,,,,,68,001,23,w,Psychologie,2023-01-25_12h01.46.313,00_bat_bachelor,2022.2.4,59.95386815534916,
,,,,,,,,,,,,1,0,1,0,65,0,65,0,,,,,,,65,,,0.2,1091.7603880151,X,d,go,d,1,0.2950523021572735,,,,,,,,,,,,,,,,,,68,001,23,w,Psychologie,2023-01-25_12h01.46.313,00_bat_bachelor,2022.2.4,59.95386815534916,
,,,,,,,,,,,,1,0,1,0,66,0,66,0,,,,,,,66,,,0.2,1092.360812161176,Y,l,go,l,1,0.5743656781269237,,,,,,,,,,,,,,,,,,68,001,23,w,Psychologie,2023-01-25_12h01.46.313,00_bat_bachelor,2022.2.4,59.95386815534916,
,,,,,,,,,,,,1,0,1,0,67,0,67,0,,,,,,,67,,,0.2,1093.244545325404,Y,None,nogo,None,1,,,,,,,,,,,,,,,,,,,68,001,23,w,Psychologie,2023-01-25_12h01.46.313,00_bat_bachelor,2022.2.4,59.95386815534916,
,,,,,,,,,,,,1,0,1,0,68,0,68,0,,,,,,,68,,,0.2,1094.2457055695122,X,d,go,d,1,0.30520552906091325,,,,,,,,,,,,,,,,,,68,001,23,w,Psychologie,2023-01-25_12h01.46.313,00_bat_bachelor,2022.2.4,59.95386815534916,
,,,,,,,,,,,,1,0,1,0,69,0,69,0,,,,,,,69,,,0.2,1094.8627585882496,Y,l,go,l,1,0.3131580254412256,,,,,,,,,,,,,,,,,,68,001,23,w,Psychologie,2023-01-25_12h01.46.313,00_bat_bachelor,2022.2.4,59.95386815534916,
,,,,,,,,,,,,1,0,1,0,70,0,70,0,,,,,,,70,,,0.2,1095.4799502738751,X,d,go,d,1,0.4142020512081217,,,,,,,,,,,,,,,,,,68,001,23,w,Psychologie,2023-01-25_12h01.46.313,00_bat_bachelor,2022.2.4,59.95386815534916,
,,,,,,,,,,,,1,0,1,0,71,0,71,0,,,,,,,71,,,0.2,1096.1970892563695,X,None,nogo,None,1,,,,,,,,,1096.9977774512954,,,,,,,,,,68,001,23,w,Psychologie,2023-01-25_12h01.46.313,00_bat_bachelor,2022.2.4,59.95386815534916,
,,,,,,,,,,,,1,0,1,0,72,0,72,0,,,,,,,72,,,0.2,1097.1979231969744,Y,l,go,l,1,0.360178215050837,,,,,,,,,,,,,,,,,,68,001,23,w,Psychologie,2023-01-25_12h01.46.313,00_bat_bachelor,2022.2.4,59.95386815534916,
,,,,,,,,,,,,1,0,1,0,73,0,73,0,,,,,,,73,,,0.2,1097.8647571366164,X,d,go,d,1,0.2855342276743613,,,,,,,,,,,,,,,,,,68,001,23,w,Psychologie,2023-01-25_12h01.46.313,00_bat_bachelor,2022.2.4,59.95386815534916,
,,,,,,,,,,,,1,0,1,0,74,0,74,0,,,,,,,74,,,0.2,1098.4653965557227,Y,l,go,l,1,0.29419896757462993,,,,,,,,,,,,,,,,,,68,001,23,w,Psychologie,2023-01-25_12h01.46.313,00_bat_bachelor,2022.2.4,59.95386815534916,
,,,,,,,,,,,,1,0,1,0,75,0,75,0,,,,,,,75,,,0.2,1099.0659220352827,Y,None,nogo,d,0,0.3008472196816001,,,,,,,,,,,,,,,,,,68,001,23,w,Psychologie,2023-01-25_12h01.46.313,00_bat_bachelor,2022.2.4,59.95386815534916,
,,,,,,,,,,,,1,0,1,0,76,0,76,0,,,,,,,76,,,0.2,1099.6831733573345,Y,None,nogo,l,0,0.30784068439970724,,,,,,,,,,,,,,,,,,68,001,23,w,Psychologie,2023-01-25_12h01.46.313,00_bat_bachelor,2022.2.4,59.95386815534916,
,,,,,,,,,,,,1,0,1,0,77,0,77,0,,,,,,,77,,,0.2,1100.3002700125217,X,d,go,None,0,,,,,,,,,,,,,,,,,,,68,001,23,w,Psychologie,2023-01-25_12h01.46.313,00_bat_bachelor,2022.2.4,59.95386815534916,
,,,,,,,,,,,,1,0,1,0,78,0,78,0,,,,,,,78,,,0.2,1101.3010627409385,Y,l,go,d,0,0.5626008125254884,,,,,,,,,,,,,,,,,,68,001,23,w,Psychologie,2023-01-25_12h01.46.313,00_bat_bachelor,2022.2.4,59.95386815534916,
,,,,,,,,,,,,1,0,1,0,79,0,79,0,,,,,,,79,,,0.2,1102.1684026691946,X,d,go,d,1,0.5273784582386725,,,,,,,,,,,,,,,,,,68,001,23,w,Psychologie,2023-01-25_12h01.46.313,00_bat_bachelor,2022.2.4,59.95386815534916,
,,,,,,,,,,,,1,0,1,0,80,0,80,0,,,,,,,80,,,0.2,1103.0023127306195,Y,l,go,l,1,0.428321829327615,,,,,,,,,,,,,,,,,,68,001,23,w,Psychologie,2023-01-25_12h01.46.313,00_bat_bachelor,2022.2.4,59.95386815534916,
,,,,,,,,,,,,1,0,1,0,81,0,81,0,,,,,,,81,,,0.2,1103.7359981614572,X,d,go,d,1,0.5907438837748487,,,,,,,,,,,,,,,,,,68,001,23,w,Psychologie,2023-01-25_12h01.46.313,00_bat_bachelor,2022.2.4,59.95386815534916,
,,,,,,,,,,,,1,0,1,0,82,0,82,0,,,,,,,82,,,0.2,1104.637007472018,Y,l,go,l,1,0.3630877950345166,,,,,,,,,,,,,,,,,,68,001,23,w,Psychologie,2023-01-25_12h01.46.313,00_bat_bachelor,2022.2.4,59.95386815534916,
,,,,,,,,,,,,1,0,1,0,83,0,83,0,,,,,,,83,,,0.2,1105.3041347454127,X,d,go,d,1,0.35041044326499104,,,,,,,,,,,,,,,,,,68,001,23,w,Psychologie,2023-01-25_12h01.46.313,00_bat_bachelor,2022.2.4,59.95386815534916,
,,,,,,,,,,,,1,0,1,0,84,0,84,0,,,,,,,84,,,0.2,1105.9545512066106,X,None,nogo,l,0,0.46796455365256406,,,,,,,,,,,,,,,,,,68,001,23,w,Psychologie,2023-01-25_12h01.46.313,00_bat_bachelor,2022.2.4,59.95386815534916,
,,,,,,,,,,,,1,0,1,0,85,0,85,0,,,,,,,85,,,0.2,1106.7384325892199,Y,l,go,None,0,,,,,,,,,,,,,,,,,,,68,001,23,w,Psychologie,2023-01-25_12h01.46.313,00_bat_bachelor,2022.2.4,59.95386815534916,
,,,,,,,,,,,,1,0,1,0,86,0,86,0,,,,,,,86,,,0.2,1107.7393140450586,X,d,go,d,1,0.332247992628254,,,,,,,,,,,,,,,,,,68,001,23,w,Psychologie,2023-01-25_12h01.46.313,00_bat_bachelor,2022.2.4,59.95386815534916,
,,,,,,,,,,,,1,0,1,0,87,0,87,0,,,,,,,87,,,0.2,1108.3731379972887,Y,l,go,l,1,0.5144004999892786,,,,,,,,,,,,,,,,,,68,001,23,w,Psychologie,2023-01-25_12h01.46.313,00_bat_bachelor,2022.2.4,59.95386815534916,
,,,,,,,,,,,,1,0,1,0,88,0,88,0,,,,,,,88,,,0.2,1109.1903469435347,Y,None,nogo,None,1,,,,,,,,,,,,,,,,,,,68,001,23,w,Psychologie,2023-01-25_12h01.46.313,00_bat_bachelor,2022.2.4,59.95386815534916,
,,,,,,,,,,,,1,0,1,0,89,0,89,0,,,,,,,89,,,0.2,1110.1908502169827,X,d,go,d,1,0.24900859882473014,,,,,,,,,,,,,,,,,,68,001,23,w,Psychologie,2023-01-25_12h01.46.313,00_bat_bachelor,2022.2.4,59.95386815534916,
,,,,,,,,,,,,1,0,1,0,90,0,90,0,,,,,,,90,,,0.2,1110.7412641085102,Y,l,go,l,1,0.41744278321857564,,,,,,,,,,,,,,,,,,68,001,23,w,Psychologie,2023-01-25_12h01.46.313,00_bat_bachelor,2022.2.4,59.95386815534916,
,,,,,,,,,,,,1,0,1,0,91,0,91,0,,,,,,,91,,,0.2,1111.4755871160014,Y,None,nogo,None,1,,,,,,,,,,,,,,,,,,,68,001,23,w,Psychologie,2023-01-25_12h01.46.313,00_bat_bachelor,2022.2.4,59.95386815534916,
,,,,,,,,,,,,1,0,1,0,92,0,92,0,,,,,,,92,,,0.2,1112.4759187528398,X,d,go,d,1,0.6503449401352555,,,,,,,,,,,,,,,,,,68,001,23,w,Psychologie,2023-01-25_12h01.46.313,00_bat_bachelor,2022.2.4,59.95386815534916,
,,,,,,,,,,,,1,0,1,0,93,0,93,0,,,,,,,93,,,0.2,1113.4269184391596,Y,l,go,l,1,0.3877355884760618,,,,,,,,,,,,,,,,,,68,001,23,w,Psychologie,2023-01-25_12h01.46.313,00_bat_bachelor,2022.2.4,59.95386815534916,
,,,,,,,,,,,,1,0,1,0,94,0,94,0,,,,,,,94,,,0.2,1114.127547821874,Y,None,nogo,None,1,,,,,,,,,,,,,,,,,,,68,001,23,w,Psychologie,2023-01-25_12h01.46.313,00_bat_bachelor,2022.2.4,59.95386815534916,
,,,,,,,,,,,,1,0,1,0,95,0,95,0,,,,,,,95,,,0.2,1115.127944428532,X,d,go,d,1,0.38287012683576904,,,,,,,,,,,,,,,,,,68,001,23,w,Psychologie,2023-01-25_12h01.46.313,00_bat_bachelor,2022.2.4,59.95386815534916,
,,,,,,,,,,,,1,0,1,0,96,0,96,0,,,,,,,96,,,0.2,1115.8121442116098,Y,l,go,l,1,0.38652201092918403,,,,,,,,,,,,,,,,,,68,001,23,w,Psychologie,2023-01-25_12h01.46.313,00_bat_bachelor,2022.2.4,59.95386815534916,
,,,,,,,,,,,,1,0,1,0,97,0,97,0,,,,,,,97,,,0.2,1116.512683897221,X,d,go,d,1,0.533693618956022,,,,,,,,,,,,,,,,,,68,001,23,w,Psychologie,2023-01-25_12h01.46.313,00_bat_bachelor,2022.2.4,59.95386815534916,
,,,,,,,,,,,,1,0,1,0,98,0,98,0,,,,,,,98,,,0.2,1117.3463733523095,Y,l,go,None,0,,,,,,,,,,,,,,,,,,,68,001,23,w,Psychologie,2023-01-25_12h01.46.313,00_bat_bachelor,2022.2.4,59.95386815534916,
,,,,,,,,,,,,1,0,1,0,99,0,99,0,,,,,,,99,,,0.2,1118.34739589924,Y,None,nogo,d,0,0.34779468190390617,,,,,,,,,,,,,,,,,,68,001,23,w,Psychologie,2023-01-25_12h01.46.313,00_bat_bachelor,2022.2.4,59.95386815534916,
,,,,,,,,,,,,1,0,1,0,100,0,100,0,,,,,,,100,,,0.2,1118.997894784814,X,d,go,None,0,,,,,,,,,,,,,,,,,,,68,001,23,w,Psychologie,2023-01-25_12h01.46.313,00_bat_bachelor,2022.2.4,59.95386815534916,
,,,,,,,,,,,,1,0,1,0,101,0,101,0,,,,,,,101,,,0.2,1119.998328724847,Y,l,go,l,1,0.4242461870308034,,,,,,,,,,,,,,,,,,68,001,23,w,Psychologie,2023-01-25_12h01.46.313,00_bat_bachelor,2022.2.4,59.95386815534916,
,,,,,,,,,,,,1,0,1,0,102,0,102,0,,,,,,,102,,,0.2,1120.732608580758,Y,None,nogo,None,1,,,,,,,,,1121.5328327750321,,,,,,,,,,68,001,23,w,Psychologie,2023-01-25_12h01.46.313,00_bat_bachelor,2022.2.4,59.95386815534916,
,,,,,,,,,,,,1,0,1,0,103,0,103,0,,,,,,,103,,,0.2,1121.73328882418,X,d,go,d,1,0.04935933870729059,,,,,,,,,,,,,,,,,,68,001,23,w,Psychologie,2023-01-25_12h01.46.313,00_bat_bachelor,2022.2.4,59.95386815534916,
,,,,,,,,,,,,1,0,1,0,104,0,104,0,,,,,,,104,,,0.2,1122.0835923640116,Y,l,go,None,0,,,,,,,,,,,,,,,,,,,68,001,23,w,Psychologie,2023-01-25_12h01.46.313,00_bat_bachelor,2022.2.4,59.95386815534916,
,,,,,,,,,,,,1,0,1,0,105,0,105,0,,,,,,,105,,,0.2,1123.0840248494933,Y,None,nogo,None,1,,,,,,,,,1123.884621407924,,,,,,,,,,68,001,23,w,Psychologie,2023-01-25_12h01.46.313,00_bat_bachelor,2022.2.4,59.95386815534916,
,,,,,,,,,,,,1,0,1,0,106,0,106,0,,,,,,,106,,,0.2,1124.0850934571063,X,d,go,l,0,0.4813614216109272,,,,,,,,,,,,,,,,,,68,001,23,w,Psychologie,2023-01-25_12h01.46.313,00_bat_bachelor,2022.2.4,59.95386815534916,
,,,,,,,,,,,,1,0,1,0,107,0,107,0,,,,,,,107,,,0.2,1124.8689995670284,Y,l,go,None,0,,,,,,,,,,,,,,,,,,,68,001,23,w,Psychologie,2023-01-25_12h01.46.313,00_bat_bachelor,2022.2.4,59.95386815534916,
,,,,,,,,,,,,1,0,1,0,108,0,108,0,,,,,,,108,,,0.2,1125.8694616283174,Y,None,nogo,None,1,,,,,,,,,,,,,,,,,,,68,001,23,w,Psychologie,2023-01-25_12h01.46.313,00_bat_bachelor,2022.2.4,59.95386815534916,
,,,,,,,,,,,,1,0,1,0,109,0,109,0,,,,,,,109,,,0.2,1126.8704691449238,X,d,go,None,0,,,,,,,,,,,,,,,,,,,68,001,23,w,Psychologie,2023-01-25_12h01.46.313,00_bat_bachelor,2022.2.4,59.95386815534916,
,,,,,,,,,,,,1,0,1,0,110,0,110,0,,,,,,,110,,,0.2,1127.8713442977169,Y,l,go,l,1,0.5676956078095827,,,,,,,,,,,,,,,,,,68,001,23,w,Psychologie,2023-01-25_12h01.46.313,00_bat_bachelor,2022.2.4,59.95386815534916,
,,,,,,,,,,,,1,0,1,0,111,0,111,0,,,,,,,111,,,0.2,1128.7550129769952,X,d,go,None,0,,,,,,,,,,,,,,,,,,,68,001,23,w,Psychologie,2023-01-25_12h01.46.313,00_bat_bachelor,2022.2.4,59.95386815534916,
,,,,,,,,,,,,1,0,1,0,112,0,112,0,,,,,,,112,,,0.2,1129.7561387968017,Y,l,go,l,1,0.4118093204451725,,,,,,,,,,,,,,,,,,68,001,23,w,Psychologie,2023-01-25_12h01.46.313,00_bat_bachelor,2022.2.4,59.95386815534916,
,,,,,,,,,,,,1,0,1,0,113,0,113,0,,,,,,,113,,,0.2,1130.473210385273,X,d,go,None,0,,,,,,,,,,,,,,,,,,,68,001,23,w,Psychologie,2023-01-25_12h01.46.313,00_bat_bachelor,2022.2.4,59.95386815534916,
,,,,,,,,,,,,1,0,1,0,114,0,114,0,,,,,,,114,,,0.2,1131.4740132955194,Y,l,go,l,1,0.5805988993088249,,,,,,,,,,,,,,,,,,68,001,23,w,Psychologie,2023-01-25_12h01.46.313,00_bat_bachelor,2022.2.4,59.95386815534916,
,,,,,,,,,,,,1,0,1,0,115,0,115,0,,,,,,,115,,,0.2,1132.358038338949,X,d,go,d,1,0.1448775382596068,,,,,,,,,,,,,,,,,,68,001,23,w,Psychologie,2023-01-25_12h01.46.313,00_bat_bachelor,2022.2.4,59.95386815534916,
,,,,,,,,,,,,1,0,1,0,116,0,116,0,,,,,,,116,,,0.2,1132.8084496607771,Y,l,go,l,1,0.5272674277657643,,,,,,,,,,,,,,,,,,68,001,23,w,Psychologie,2023-01-25_12h01.46.313,00_bat_bachelor,2022.2.4,59.95386815534916,
,,,,,,,,,,,,1,0,1,0,117,0,117,0,,,,,,,117,,,0.2,1133.6424353586917,Y,None,nogo,d,0,0.39645366175682284,,,,,,,,,,,,,,,,,,68,001,23,w,Psychologie,2023-01-25_12h01.46.313,00_bat_bachelor,2022.2.4,59.95386815534916,
,,,,,,,,,,,,1,0,1,0,118,0,118,0,,,,,,,118,,,0.2,1134.3429619534,X,d,go,l,0,0.20774938727845438,,,,,,,,,,,,,,,,,,68,001,23,w,Psychologie,2023-01-25_12h01.46.313,00_bat_bachelor,2022.2.4,59.95386815534916,
,,,,,,,,,,,,1,0,1,0,119,0,119,0,,,,,,,119,,,0.2,1134.8599828266306,Y,l,go,None,0,,,,,,,,,,,,,,,,,,,68,001,23,w,Psychologie,2023-01-25_12h01.46.313,00_bat_bachelor,2022.2.4,59.95386815534916,
,,,,,,,,,,,,1,0,1,0,120,0,120,0,,,,,,,120,,,0.2,1135.8604555545899,X,d,go,l,0,0.5301134925393853,,,,,,,,,,,,,,,,,,68,001,23,w,Psychologie,2023-01-25_12h01.46.313,00_bat_bachelor,2022.2.4,59.95386815534916,
,,,,,,,,,,,,1,0,1,0,121,0,121,0,,,,,,,121,,,0.2,1136.6947854954342,Y,l,go,d,0,0.14452117410837673,,,,,,,,,,,,,,,,,,68,001,23,w,Psychologie,2023-01-25_12h01.46.313,00_bat_bachelor,2022.2.4,59.95386815534916,
,,,,,,,,,,,,1,0,1,0,122,0,122,0,,,,,,,122,,,0.2,1137.1451551202335,Y,None,nogo,l,0,0.6060428151104134,,,,,,,,,,,,,,,,,,68,001,23,w,Psychologie,2023-01-25_12h01.46.313,00_bat_bachelor,2022.2.4,59.95386815534916,
,,,,,,,,,,,,1,0,1,0,123,0,123,0,,,,,,,123,,,0.2,1138.0626531820453,X,d,go,None,0,,,,,,,,,,,,,,,,,,,68,001,23,w,Psychologie,2023-01-25_12h01.46.313,00_bat_bachelor,2022.2.4,59.95386815534916,
,,,,,,,,,,,,1,0,1,0,124,0,124,0,,,,,,,124,,,0.2,1139.0632548798749,Y,l,go,l,1,0.655163371382514,,,,,,,,,,,,,,,,,,68,001,23,w,Psychologie,2023-01-25_12h01.46.313,00_bat_bachelor,2022.2.4,59.95386815534916,
,,,,,,,,,,,,1,0,1,0,125,0,125,0,,,,,,,125,,,0.2,1140.030605620268,X,d,go,d,1,0.5519874637539033,,,,,,,,,,,,,,,,,,68,001,23,w,Psychologie,2023-01-25_12h01.46.313,00_bat_bachelor,2022.2.4,59.95386815534916,
,,,,,,,,,,,,1,0,1,0,126,0,126,0,,,,,,,126,,,0.2,1140.8979019121034,Y,l,go,l,1,0.37252441482269205,,,,,,,,,,,,,,,,,,68,001,23,w,Psychologie,2023-01-25_12h01.46.313,00_bat_bachelor,2022.2.4,59.95386815534916,
,,,,,,,,,,,,1,0,1,0,127,0,127,0,,,,,,,127,,,0.2,1141.5818345432635,Y,None,nogo,None,1,,,,,,,,,,,,,,,,,,,68,001,23,w,Psychologie,2023-01-25_12h01.46.313,00_bat_bachelor,2022.2.4,59.95386815534916,
,,,,,,,,,,,,1,0,1,0,128,0,128,0,,,,,,,128,,,0.2,1142.582603998948,X,d,go,d,1,0.08167259782203473,,,,,,,,,,,,,,,,,,68,001,23,w,Psychologie,2023-01-25_12h01.46.313,00_bat_bachelor,2022.2.4,59.95386815534916,
,,,,,,,,,,,,1,0,1,0,129,0,129,0,,,,,,,129,,,0.2,1142.9662137690466,Y,l,go,l,1,0.6414072301704437,,,,,,,,,,,,,,,,,,68,001,23,w,Psychologie,2023-01-25_12h01.46.313,00_bat_bachelor,2022.2.4,59.95386815534916,
,,,,,,,,,,,,1,0,1,0,130,0,130,0,,,,,,,130,,,0.2,1143.9168313941627,X,d,go,d,1,0.6019487485173158,,,,,,,,,,,,,,,,,,68,001,23,w,Psychologie,2023-01-25_12h01.46.313,00_bat_bachelor,2022.2.4,59.95386815534916,
,,,,,,,,,,,,1,0,1,0,131,0,131,0,,,,,,,131,,,0.2,1144.8343459408497,Y,l,go,l,1,0.6290028484945651,,,,,,,,,,,,,,,,,,68,001,23,w,Psychologie,2023-01-25_12h01.46.313,00_bat_bachelor,2022.2.4,59.95386815534916,
,,,,,,,,,,,,1,0,1,0,132,0,132,0,,,,,,,132,,,0.2,1145.7683216024016,X,d,go,d,1,0.6068883920961525,,,,,,,,,,,,,,,,,,68,001,23,w,Psychologie,2023-01-25_12h01.46.313,00_bat_bachelor,2022.2.4,59.95386815534916,
,,,,,,,,,,,,1,0,1,0,133,0,133,0,,,,,,,133,,,0.2,1146.6856499669957,X,None,nogo,None,1,,,,,,,,,,,,,,,,,,,68,001,23,w,Psychologie,2023-01-25_12h01.46.313,00_bat_bachelor,2022.2.4,59.95386815534916,
,,,,,,,,,,,,1,0,1,0,134,0,134,0,,,,,,,134,,,0.2,1147.686432513583,Y,l,go,l,1,0.4485938588040881,,,,,,,,,,,,,,,,,,68,001,23,w,Psychologie,2023-01-25_12h01.46.313,00_bat_bachelor,2022.2.4,59.95386815534916,
,,,,,,,,,,,,1,0,1,0,135,0,135,0,,,,,,,135,,,0.2,1148.437104150944,X,d,go,d,1,0.4654753378999885,,,,,,,,,,,,,,,,,,68,001,23,w,Psychologie,2023-01-25_12h01.46.313,00_bat_bachelor,2022.2.4,59.95386815534916,
,,,,,,,,,,,,1,0,1,0,136,0,136,0,,,,,,,136,,,0.2,1149.204341145698,Y,l,go,l,1,0.5472897599393036,,,,,,,,,,,,,,,,,,68,001,23,w,Psychologie,2023-01-25_12h01.46.313,00_bat_bachelor,2022.2.4,59.95386815534916,
,,,,,,,,,,,,1,0,1,0,137,0,137,0,,,,,,,137,,,0.2,1150.0550114739453,Y,None,nogo,None,1,,,,,,,,,,,,,,,,,,,68,001,23,w,Psychologie,2023-01-25_12h01.46.313,00_bat_bachelor,2022.2.4,59.95386815534916,
,,,,,,,,,,,,1,0,1,0,138,0,138,0,,,,,,,138,,,0.2,1151.0556907476566,X,d,go,d,1,0.5992127445642836,,,,,,,,,,,,,,,,,,68,001,23,w,Psychologie,2023-01-25_12h01.46.313,00_bat_bachelor,2022.2.4,59.95386815534916,
,,,,,,,,,,,,1,0,1,0,139,0,139,0,,,,,,,139,,,0.2,1151.9562719363894,Y,l,go,l,1,0.5307418571028393,,,,,,,,,,,,,,,,,,68,001,23,w,Psychologie,2023-01-25_12h01.46.313,00_bat_bachelor,2022.2.4,59.95386815534916,
,,,,,,,,,,,,1,0,1,0,140,0,140,0,,,,,,,140,,,0.2,1152.7903613920498,X,d,go,d,1,0.49705938386614434,,,,,,,,,,,,,,,,,,68,001,23,w,Psychologie,2023-01-25_12h01.46.313,00_bat_bachelor,2022.2.4,59.95386815534916,
,,,,,,,,,,,,1,0,1,0,141,0,141,0,,,,,,,141,,,0.2,1153.5907043743646,X,None,nogo,d,0,0.6241858717985451,,,,,,,,,,,,,,,,,,68,001,23,w,Psychologie,2023-01-25_12h01.46.313,00_bat_bachelor,2022.2.4,59.95386815534916,
,,,,,,,,,,,,1,0,1,0,142,0,142,0,,,,,,,142,,,0.2,1154.524678581336,Y,l,go,l,1,0.49068604124477133,,,,,,,,,,,,,,,,,,68,001,23,w,Psychologie,2023-01-25_12h01.46.313,00_bat_bachelor,2022.2.4,59.95386815534916,
,,,,,,,,,,,,1,0,1,0,143,0,143,0,,,,,,,143,,,0.2,1155.325588352367,X,d,go,d,1,0.4420256068406161,,,,,,,,,,,,,,,,,,68,001,23,w,Psychologie,2023-01-25_12h01.46.313,00_bat_bachelor,2022.2.4,59.95386815534916,
,,,,,,,,,,,,1,0,1,0,144,0,144,0,,,,,,,144,,,0.2,1156.0762662927445,X,None,nogo,None,1,,,,,,,,,,,,,,,,,,,68,001,23,w,Psychologie,2023-01-25_12h01.46.313,00_bat_bachelor,2022.2.4,59.95386815534916,
,,,,,,,,,,,,1,0,1,0,145,0,145,0,,,,,,,145,,,0.2,1157.0770192635537,Y,l,go,l,1,0.43459044452174567,,,,,,,,,,,,,,,,,,68,001,23,w,Psychologie,2023-01-25_12h01.46.313,00_bat_bachelor,2022.2.4,59.95386815534916,
,,,,,,,,,,,,1,0,1,0,146,0,146,0,,,,,,,146,,,0.2,1157.827481446031,X,d,go,None,0,,,,,,,,,,,,,,,,,,,68,001,23,w,Psychologie,2023-01-25_12h01.46.313,00_bat_bachelor,2022.2.4,59.95386815534916,
,,,,,,,,,,,,1,0,1,0,147,0,147,0,,,,,,,147,,,0.2,1158.8283551442728,Y,l,go,l,1,0.60235020366963,,,,,,,,,,,,,,,,,,68,001,23,w,Psychologie,2023-01-25_12h01.46.313,00_bat_bachelor,2022.2.4,59.95386815534916,
,,,,,,,,,,,,1,0,1,0,148,0,148,0,,,,,,,148,,,0.2,1159.7453222962213,Y,None,nogo,None,1,,,,,,,,,,,,,,,,,,,68,001,23,w,Psychologie,2023-01-25_12h01.46.313,00_bat_bachelor,2022.2.4,59.95386815534916,
,,,,,,,,,,,,1,0,1,0,149,0,149,0,,,,,,,149,,,0.2,1160.7461159943487,Y,None,nogo,None,1,,,,,,,,,,,,,,,,,,,68,001,23,w,Psychologie,2023-01-25_12h01.46.313,00_bat_bachelor,2022.2.4,59.95386815534916,
,,,,,,,,,,,,1,0,1,0,150,0,150,0,,,,,,,150,,,0.2,1161.7471676322457,X,d,go,d,1,0.3872599514143076,,,,,,,,,,,,,,,,,,68,001,23,w,Psychologie,2023-01-25_12h01.46.313,00_bat_bachelor,2022.2.4,59.95386815534916,
,,,,,,,,,,,,1,0,1,0,151,0,151,0,,,,,,,151,,,0.2,1162.4476850148058,Y,l,go,l,1,0.47065740605467,,,,,,,,,,,,,,,,,,68,001,23,w,Psychologie,2023-01-25_12h01.46.313,00_bat_bachelor,2022.2.4,59.95386815534916,
,,,,,,,,,,,,1,0,1,0,152,0,152,0,,,,,,,152,,,0.2,1163.2314510033175,Y,None,nogo,None,1,,,,,,,,,,,,,,,,,,,68,001,23,w,Psychologie,2023-01-25_12h01.46.313,00_bat_bachelor,2022.2.4,59.95386815534916,
,,,,,,,,,,,,1,0,1,0,153,0,153,0,,,,,,,153,,,0.2,1164.2324076107761,X,d,go,d,1,0.46360139577882364,,,,,,,,,,,,,,,,,,68,001,23,w,Psychologie,2023-01-25_12h01.46.313,00_bat_bachelor,2022.2.4,59.95386815534916,
,,,,,,,,,,,,1,0,1,0,154,0,154,0,,,,,,,154,,,0.2,1164.9994719992392,Y,l,go,l,1,0.5270516698947176,,,,,,,,,,,,,,,,,,68,001,23,w,Psychologie,2023-01-25_12h01.46.313,00_bat_bachelor,2022.2.4,59.95386815534916,
,,,,,,,,,,,,1,0,1,0,155,0,155,0,,,,,,,155,,,0.2,1165.8337253339123,Y,None,nogo,None,1,,,,,,,,,,,,,,,,,,,68,001,23,w,Psychologie,2023-01-25_12h01.46.313,00_bat_bachelor,2022.2.4,59.95386815534916,
,,,,,,,,,,,,1,0,1,0,156,0,156,0,,,,,,,156,,,0.2,1166.83442254705,X,d,go,d,1,0.38920128758763894,,,,,,,,,,,,,,,,,,68,001,23,w,Psychologie,2023-01-25_12h01.46.313,00_bat_bachelor,2022.2.4,59.95386815534916,
,,,,,,,,,,,,1,0,1,0,157,0,157,0,,,,,,,157,,,0.2,1167.5346276867203,Y,l,go,None,0,,,,,,,,,,,,,,,,,,,68,001,23,w,Psychologie,2023-01-25_12h01.46.313,00_bat_bachelor,2022.2.4,59.95386815534916,
,,,,,,,,,,,,1,0,1,0,158,0,158,0,,,,,,,158,,,0.2,1168.5354015060293,X,d,go,None,0,,,,,,,,,,,,,,,,,,,68,001,23,w,Psychologie,2023-01-25_12h01.46.313,00_bat_bachelor,2022.2.4,59.95386815534916,
,,,,,,,,,,,,1,0,1,0,159,0,159,0,,,,,,,159,,,0.2,1169.5361995678104,Y,l,go,l,1,0.4864038532250561,,,,,,,,,,,,,,,,,,68,001,23,w,Psychologie,2023-01-25_12h01.46.313,00_bat_bachelor,2022.2.4,59.95386815534916,
,,,,,,,,,,,,1,0,1,0,160,0,160,0,,,,,,,160,,,0.2,1170.337162672222,X,d,go,None,0,,,,,,,,,1171.1377180184936,,,,,,,,,,68,001,23,w,Psychologie,2023-01-25_12h01.46.313,00_bat_bachelor,2022.2.4,59.95386815534916,
,,,,,,,,,,,,1,0,1,0,161,0,161,0,,,,,,,161,,,0.2,1171.337915643031,Y,l,go,l,1,0.5583103820390534,,,,,,,,,,,,,,,,,,68,001,23,w,Psychologie,2023-01-25_12h01.46.313,00_bat_bachelor,2022.2.4,59.95386815534916,
,,,,,,,,,,,,1,0,1,0,162,0,162,0,,,,,,,162,,,0.2,1172.205062116438,X,d,go,None,0,,,,,,,,,,,,,,,,,,,68,001,23,w,Psychologie,2023-01-25_12h01.46.313,00_bat_bachelor,2022.2.4,59.95386815534916,
,,,,,,,,,,,,1,0,1,0,163,0,163,0,,,,,,,163,,,0.2,1173.205620177876,X,None,nogo,None,1,,,,,,,,,,,,,,,,,,,68,001,23,w,Psychologie,2023-01-25_12h01.46.313,00_bat_bachelor,2022.2.4,59.95386815534916,
,,,,,,,,,,,,1,0,1,0,164,0,164,0,,,,,,,164,,,0.2,1174.2064395729976,Y,l,go,l,1,0.4570942348218523,,,,,,,,,,,,,,,,,,68,001,23,w,Psychologie,2023-01-25_12h01.46.313,00_bat_bachelor,2022.2.4,59.95386815534916,
,,,,,,,,,,,,1,0,1,0,165,0,165,0,,,,,,,165,,,0.2,1174.9739863864088,X,d,go,d,1,0.5687807002977934,,,,,,,,,,,,,,,,,,68,001,23,w,Psychologie,2023-01-25_12h01.46.313,00_bat_bachelor,2022.2.4,59.95386815534916,
,,,,,,,,,,,,1,0,1,0,166,0,166,0,,,,,,,166,,,0.2,1175.8579983389063,Y,l,go,l,1,0.6616875021136366,,,,,,,,,,,,,,,,,,68,001,23,w,Psychologie,2023-01-25_12h01.46.313,00_bat_bachelor,2022.2.4,59.95386815534916,
,,,,,,,,,,,,1,0,1,0,167,0,167,0,,,,,,,167,,,0.2,1176.8250610788818,Y,None,nogo,None,1,,,,,,,,,,,,,,,,,,,68,001,23,w,Psychologie,2023-01-25_12h01.46.313,00_bat_bachelor,2022.2.4,59.95386815534916,
,,,,,,,,,,,,1,0,1,0,168,0,168,0,,,,,,,168,,,0.2,1177.825815504213,X,d,go,d,1,0.35709214996313676,,,,,,,,,,,,,,,,,,68,001,23,w,Psychologie,2023-01-25_12h01.46.313,00_bat_bachelor,2022.2.4,59.95386815534916,
,,,,,,,,,,,,1,0,1,0,169,0,169,0,,,,,,,169,,,0.2,1178.4933190205775,Y,l,go,l,1,0.5213168736663647,,,,,,,,,,,,,,,,,,68,001,23,w,Psychologie,2023-01-25_12h01.46.313,00_bat_bachelor,2022.2.4,59.95386815534916,
,,,,,,,,,,,,1,0,1,0,170,0,170,0,,,,,,,170,,,0.2,1179.3272281123209,X,d,go,d,1,0.6481762097100727,,,,,,,,,,,,,,,,,,68,001,23,w,Psychologie,2023-01-25_12h01.46.313,00_bat_bachelor,2022.2.4,59.95386815534916,
,,,,,,,,,,,,1,0,1,0,171,0,171,0,,,,,,,171,,,0.2,1180.2780134952918,X,None,nogo,d,0,0.5781799866817892,,,,,,,,,,,,,,,,,,68,001,23,w,Psychologie,2023-01-25_12h01.46.313,00_bat_bachelor,2022.2.4,59.95386815534916,
,,,,,,,,,,,,1,0,1,0,172,0,172,0,,,,,,,172,,,0.2,1181.1619968416926,Y,l,go,l,1,0.4143858090683352,,,,,,,,,,,,,,,,,,68,001,23,w,Psychologie,2023-01-25_12h01.46.313,00_bat_bachelor,2022.2.4,59.95386815534916,
,,,,,,,,,,,,1,0,1,0,173,0,173,0,,,,,,,173,,,0.2,1181.8792269758414,X,d,go,d,1,0.44927943556103855,,,,,,,,,,,,,,,,,,68,001,23,w,Psychologie,2023-01-25_12h01.46.313,00_bat_bachelor,2022.2.4,59.95386815534916,
,,,,,,,,,,,,1,0,1,0,174,0,174,0,,,,,,,174,,,0.2,1182.6298530373606,Y,l,go,l,1,0.46552139858249575,,,,,,,,,,,,,,,,,,68,001,23,w,Psychologie,2023-01-25_12h01.46.313,00_bat_bachelor,2022.2.4,59.95386815534916,
,,,,,,,,,,,,1,0,1,0,175,0,175,0,,,,,,,175,,,0.2,1183.397108456411,X,d,go,None,0,,,,,,,,,1184.197743802768,,,,,,,,,,68,001,23,w,Psychologie,2023-01-25_12h01.46.313,00_bat_bachelor,2022.2.4,59.95386815534916,
,,,,,,,,,,,,1,0,1,0,176,0,176,0,,,,,,,176,,,0.2,1184.3976291844156,Y,l,go,l,1,0.5051791532314382,,,,,,,,,,,,,,,,,,68,001,23,w,Psychologie,2023-01-25_12h01.46.313,00_bat_bachelor,2022.2.4,59.95386815534916,
,,,,,,,,,,,,1,0,1,0,177,0,177,0,,,,,,,177,,,0.2,1185.2151571614377,Y,None,nogo,l,0,0.6321126711845864,,,,,,,,,,,,,,,,,,68,001,23,w,Psychologie,2023-01-25_12h01.46.313,00_bat_bachelor,2022.2.4,59.95386815534916,
,,,,,,,,,,,,1,0,1,0,178,0,178,0,,,,,,,178,,,0.2,1186.148936459067,X,d,go,d,1,0.6105761550425086,,,,,,,,,,,,,,,,,,68,001,23,w,Psychologie,2023-01-25_12h01.46.313,00_bat_bachelor,2022.2.4,59.95386815534916,
,,,,,,,,,,,,1,0,1,0,179,0,179,0,,,,,,,179,,,0.2,1187.066595490789,Y,l,go,l,1,0.5401299919758458,,,,,,,,,,,,,,,,,,68,001,23,w,Psychologie,2023-01-25_12h01.46.313,00_bat_bachelor,2022.2.4,59.95386815534916,
,,,,,,,,,,,,1,0,1,0,180,0,180,0,,,,,,,180,,,0.2,1187.9172280008206,X,d,go,d,1,0.6182687722903211,,,,,,,,,,,,,,,,,,68,001,23,w,Psychologie,2023-01-25_12h01.46.313,00_bat_bachelor,2022.2.4,59.95386815534916,
,,,,,,,,,,,,1,0,1,0,181,0,181,0,,,,,,,181,,,0.2,1188.8512938443164,X,None,nogo,None,1,,,,,,,,,,,,,,,,,,,68,001,23,w,Psychologie,2023-01-25_12h01.46.313,00_bat_bachelor,2022.2.4,59.95386815534916,
,,,,,,,,,,,,1,0,1,0,182,0,182,0,,,,,,,182,,,0.2,1189.8516729963594,Y,l,go,l,1,0.3473864388652146,,,,,,,,,,,,,,,,,,68,001,23,w,Psychologie,2023-01-25_12h01.46.313,00_bat_bachelor,2022.2.4,59.95386815534916,
,,,,,,,,,,,,1,0,1,0,183,0,183,0,,,,,,,183,,,0.2,1190.502520488517,X,d,go,d,1,0.49669429240748286,,,,,,,,,,,,,,,,,,68,001,23,w,Psychologie,2023-01-25_12h01.46.313,00_bat_bachelor,2022.2.4,59.95386815534916,
,,,,,,,,,,,,1,0,1,0,184,0,184,0,,,,,,,184,,,0.2,1191.30315195609,Y,l,go,l,1,0.5126792853698134,,,,,,,,,,,,,,,,,,68,001,23,w,Psychologie,2023-01-25_12h01.46.313,00_bat_bachelor,2022.2.4,59.95386815534916,
,,,,,,,,,,,,1,0,1,0,185,0,185,0,,,,,,,185,,,0.2,1192.1205567814177,Y,None,nogo,None,1,,,,,,,,,,,,,,,,,,,68,001,23,w,Psychologie,2023-01-25_12h01.46.313,00_bat_bachelor,2022.2.4,59.95386815534916,
,,,,,,,,,,,,1,0,1,0,186,0,186,0,,,,,,,186,,,0.2,1193.121134721645,X,d,go,d,1,0.43773372180294245,,,,,,,,,,,,,,,,,,68,001,23,w,Psychologie,2023-01-25_12h01.46.313,00_bat_bachelor,2022.2.4,59.95386815534916,
,,,,,,,,,,,,1,0,1,0,187,0,187,0,,,,,,,187,,,0.2,1193.8714722979057,Y,l,go,l,1,0.5189488702453673,,,,,,,,,,,,,,,,,,68,001,23,w,Psychologie,2023-01-25_12h01.46.313,00_bat_bachelor,2022.2.4,59.95386815534916,
,,,,,,,,,,,,1,0,1,0,188,0,188,0,,,,,,,188,,,0.2,1194.7058099963178,X,d,go,d,1,0.5491627323790453,,,,,,,,,,,,,,,,,,68,001,23,w,Psychologie,2023-01-25_12h01.46.313,00_bat_bachelor,2022.2.4,59.95386815534916,
,,,,,,,,,,,,1,0,1,0,189,0,189,0,,,,,,,189,,,0.2,1195.5563872335188,X,None,nogo,None,1,,,,,,,,,1196.3570439132745,,,,,,,,,,68,001,23,w,Psychologie,2023-01-25_12h01.46.313,00_bat_bachelor,2022.2.4,59.95386815534916,
,,,,,,,,,,,,1,0,1,0,190,0,190,0,,,,,,,190,,,0.2,1196.5571809316461,Y,l,go,l,1,0.42609394728788175,,,,,,,,,,,,,,,,,,68,001,23,w,Psychologie,2023-01-25_12h01.46.313,00_bat_bachelor,2022.2.4,59.95386815534916,
,,,,,,,,,,,,1,0,1,0,191,0,191,0,,,,,,,191,,,0.2,1197.290959938371,X,d,go,d,1,0.6195429559447803,,,,,,,,,,,,,,,,,,68,001,23,w,Psychologie,2023-01-25_12h01.46.313,00_bat_bachelor,2022.2.4,59.95386815534916,
,,,,,,,,,,,,1,0,1,0,192,0,192,0,,,,,,,192,,,0.2,1198.2250558425148,X,None,nogo,None,1,,,,,,,,,,,,,,,,,,,68,001,23,w,Psychologie,2023-01-25_12h01.46.313,00_bat_bachelor,2022.2.4,59.95386815534916,
,,,,,,,,,,,,1,0,1,0,193,0,193,0,,,,,,,193,,,0.2,1199.225840328494,Y,l,go,l,1,0.3646194336179178,,,,,,,,,,,,,,,,,,68,001,23,w,Psychologie,2023-01-25_12h01.46.313,00_bat_bachelor,2022.2.4,59.95386815534916,
,,,,,,,,,,,,1,0,1,0,194,0,194,0,,,,,,,194,,,0.2,1199.8930252989521,X,d,go,d,1,0.6261301170452498,,,,,,,,,,,,,,,,,,68,001,23,w,Psychologie,2023-01-25_12h01.46.313,00_bat_bachelor,2022.2.4,59.95386815534916,
,,,,,,,,,,,,1,0,1,0,195,0,195,0,,,,,,,195,,,0.2,1200.827045566606,Y,l,go,l,1,0.47634032342466526,,,,,,,,,,,,,,,,,,68,001,23,w,Psychologie,2023-01-25_12h01.46.313,00_bat_bachelor,2022.2.4,59.95386815534916,
,,,,,,,,,,,,1,0,1,0,196,0,196,0,,,,,,,196,,,0.2,1201.6109831917274,X,d,go,d,1,0.6038159027521033,,,,,,,,,,,,,,,,,,68,001,23,w,Psychologie,2023-01-25_12h01.46.313,00_bat_bachelor,2022.2.4,59.95386815534916,
,,,,,,,,,,,,1,0,1,0,197,0,197,0,,,,,,,197,,,0.2,1202.52846088988,Y,l,go,l,1,0.43783166134380735,,,,,,,,,,,,,,,,,,68,001,23,w,Psychologie,2023-01-25_12h01.46.313,00_bat_bachelor,2022.2.4,59.95386815534916,
,,,,,,,,,,,,1,0,1,0,198,0,198,0,,,,,,,198,,,0.2,1203.2788905874768,Y,None,nogo,l,0,0.5520107365155127,,,,,,,,,,,,,,,,,,68,001,23,w,Psychologie,2023-01-25_12h01.46.313,00_bat_bachelor,2022.2.4,59.95386815534916,
,,,,,,,,,,,,1,0,1,0,199,0,199,0,,,,,,,199,,,0.2,1204.1462368187786,X,d,go,d,1,0.45209059116314165,,,,,,,,,,,,,,,,,,68,001,23,w,Psychologie,2023-01-25_12h01.46.313,00_bat_bachelor,2022.2.4,59.95386815534916,
,,,,,,,,,,,,1,0,1,0,200,0,200,0,,,,,,,200,,,0.2,1204.9132304192462,Y,l,go,l,1,0.5009454500977881,,,,,,,,,,,,,,,,,,68,001,23,w,Psychologie,2023-01-25_12h01.46.313,00_bat_bachelor,2022.2.4,59.95386815534916,
,,,,,,,,,,,,1,0,1,0,201,0,201,0,,,,,,,201,,,0.2,1205.7304645776458,X,d,go,d,1,0.6127376127114985,,,,,,,,,,,,,,,,,,68,001,23,w,Psychologie,2023-01-25_12h01.46.313,00_bat_bachelor,2022.2.4,59.95386815534916,
,,,,,,,,,,,,1,0,1,0,202,0,202,0,,,,,,,202,,,0.2,1206.6478457908088,X,None,nogo,None,1,,,,,,,,,1207.4485155614675,,,,,,,,,,68,001,23,w,Psychologie,2023-01-25_12h01.46.313,00_bat_bachelor,2022.2.4,59.95386815534916,
