loop_instruction.thisRepN,loop_instruction.thisTrialN,loop_instruction.thisN,loop_instruction.thisIndex,loop_rsi_practice.thisRepN,loop_rsi_practice.thisTrialN,loop_rsi_practice.thisN,loop_rsi_practice.thisIndex,loop_practice.thisRepN,loop_practice.thisTrialN,loop_practice.thisN,loop_practice.thisIndex,loop_exp.thisRepN,loop_exp.thisTrialN,loop_exp.thisN,loop_exp.thisIndex,loop_trials.thisRepN,loop_trials.thisTrialN,loop_trials.thisN,loop_trials.thisIndex,map_condition,map_x_key,map_y_key,key_resp_welcome.started,key_resp_welcome.keys,key_resp_welcome.rt,index,text_empty_rsi_practice.started,text_empty_rsi_practice.stopped,rsi,stimulus.started,stimulus,correct,trial_type,key_resp_trial.keys,key_resp_trial.corr,key_resp_trial.rt,stimulus.stopped,key_resp_instruction_rsi.started,key_resp_instruction_rsi.keys,key_resp_instruction_rsi.rt,key_resp_instruction_rsi.stopped,key_resp_instruction_final.started,key_resp_instruction_final.keys,key_resp_instruction_final.rt,key_resp_break.started,key_resp_break.keys,key_resp_break.rt,key_resp_break.stopped,key_resp_end_screen.started,image_end_screen.started,key_resp_end_screen.stopped,image_end_screen.stopped,key_resp_end_screen.keys,participant,session,Alter,Geschlecht (w/m/d/andere),Studiengang,date,expName,psychopyVersion,frameRate,
,,,,0,0,0,0,0,0,0,0,,,,,,,,,1,l,d,506.49299757927656,j,15.405847226735204,0,521.922060159035,522.9346671833191,1,522.9346671833191,X,l,go,l,1,0.43231654702685773,,,,,,,,,,,,,,,,,,69,001,23,m,Psychologie,2023-01-25_12h02.01.304,00_bat_bachelor,2022.2.4,59.985196406715524,
,,,,0,0,0,0,1,0,1,0,,,,,,,,,,,,,,,1,524.0685449365992,525.069260572549,1,525.069260572549,Y,d,go,d,1,0.37717814976349473,,,,,,,,,,,,,,,,,,69,001,23,m,Psychologie,2023-01-25_12h02.01.304,00_bat_bachelor,2022.2.4,59.985196406715524,
,,,,0,0,0,0,2,0,2,0,,,,,,,,,,,,,,,2,526.1536828347016,527.1543819857761,1,527.1543819857761,X,l,go,l,1,0.22896488825790584,,,,,,,,,,,,,,,,,,69,001,23,m,Psychologie,2023-01-25_12h02.01.304,00_bat_bachelor,2022.2.4,59.985196406715524,
,,,,0,0,0,0,3,0,3,0,,,,,,,,,,,,,,,3,528.0884901389945,529.0891960780136,1,529.0891960780136,Y,d,go,d,1,0.32637671986594796,,,,,,,,,,,,,,,,,,69,001,23,m,Psychologie,2023-01-25_12h02.01.304,00_bat_bachelor,2022.2.4,59.985196406715524,
,,,,0,0,0,0,4,0,4,0,,,,,,,,,,,,,,,4,530.1231446675956,531.123935939977,1,531.123935939977,X,l,go,l,1,0.3706690617837012,,,,,,,,,,,,,,,,,,69,001,23,m,Psychologie,2023-01-25_12h02.01.304,00_bat_bachelor,2022.2.4,59.985196406715524,
,,,,0,0,0,0,5,0,5,0,,,,,,,,,,,,,,,5,532.2082510506734,533.2090331108775,1,533.2090331108775,Y,d,go,d,1,0.3018846104387194,,,,,,,,,,,,,,,,,,69,001,23,m,Psychologie,2023-01-25_12h02.01.304,00_bat_bachelor,2022.2.4,59.985196406715524,
,,,,0,0,0,0,6,0,6,0,,,,,,,,,,,,,,,6,534.2264546782244,535.2272614655085,1,535.2272614655085,Y,None,nogo,None,1,,536.0278181682806,,,,,,,,,,,,,,,,,69,001,23,m,Psychologie,2023-01-25_12h02.01.304,00_bat_bachelor,2022.2.4,59.985196406715524,
,,,,0,0,0,0,7,0,7,0,,,,,,,,,,,,,,,7,536.628344422672,537.628846725449,1,537.628846725449,X,l,go,l,1,0.36325864121317863,,,,,,,,,,,,,,,,,,69,001,23,m,Psychologie,2023-01-25_12h02.01.304,00_bat_bachelor,2022.2.4,59.985196406715524,
,,,,0,0,0,0,8,0,8,0,,,,,,,,,,,,,,,8,538.6965645106975,539.6973034194671,1,539.6973034194671,Y,d,go,d,1,0.40716019575484097,,,,,,,,,,,,,,,,,,69,001,23,m,Psychologie,2023-01-25_12h02.01.304,00_bat_bachelor,2022.2.4,59.985196406715524,
,,,,0,0,0,0,9,0,9,0,,,,,,,,,,,,,,,9,540.8146299081855,541.8155899075791,1,541.8155899075791,X,l,go,l,1,0.19199423934333026,,,,,,,,,,,,,,,,,,69,001,23,m,Psychologie,2023-01-25_12h02.01.304,00_bat_bachelor,2022.2.4,59.985196406715524,
,,,,0,0,0,0,10,0,10,0,,,,,,,,,,,,,,,10,542.7162629254162,543.7169940767344,1,543.7169940767344,X,None,nogo,None,1,,544.5174470217898,,,,,,,,,,,,,,,,,69,001,23,m,Psychologie,2023-01-25_12h02.01.304,00_bat_bachelor,2022.2.4,59.985196406715524,
,,,,0,0,0,0,11,0,11,0,,,,,,,,,,,,,,,11,545.1181143668946,546.1188906091265,1,546.1188906091265,Y,d,go,d,1,0.32030448014847934,,,,,,,,,,,,,,,,,,69,001,23,m,Psychologie,2023-01-25_12h02.01.304,00_bat_bachelor,2022.2.4,59.985196406715524,
,,,,0,0,0,0,12,0,12,0,,,,,,,,,,,,,,,12,547.1527936228085,548.1537938648835,1,548.1537938648835,X,l,go,l,1,0.33391610998660326,,,,,,,,,,,,,,,,,,69,001,23,m,Psychologie,2023-01-25_12h02.01.304,00_bat_bachelor,2022.2.4,59.985196406715524,
,,,,0,0,0,0,13,0,13,0,,,,,,,,,,,,,,,13,549.1877012422774,550.1886020903476,1,550.1886020903476,Y,d,go,d,1,0.3787141488865018,,,,,,,,,,,,,,,,,,69,001,23,m,Psychologie,2023-01-25_12h02.01.304,00_bat_bachelor,2022.2.4,59.985196406715524,
,,,,0,0,0,0,14,0,14,0,,,,,,,,,,,,,,,14,551.2727639889345,552.2734073826578,1,552.2734073826578,Y,None,nogo,None,1,,553.0741376611404,,,,,,,,,,,,,,,,,69,001,23,m,Psychologie,2023-01-25_12h02.01.304,00_bat_bachelor,2022.2.4,59.985196406715524,
,,,,1,0,1,0,0,0,0,0,,,,,,,,,,,,,,,0,572.872376789106,573.072723843623,0.2,573.072723843623,X,l,go,l,1,0.4068940137512982,,553.696143662557,j,19.14673559460789,,,,,,,,,,,,,,69,001,23,m,Psychologie,2023-01-25_12h02.01.304,00_bat_bachelor,2022.2.4,59.985196406715524,
,,,,1,0,1,0,1,0,1,0,,,,,,,,,,,,,,,1,574.1902568775695,574.3904119320214,0.2,574.3904119320214,Y,d,go,d,1,0.2569425713736564,,,,,,,,,,,,,,,,,,69,001,23,m,Psychologie,2023-01-25_12h02.01.304,00_bat_bachelor,2022.2.4,59.985196406715524,
,,,,1,0,1,0,2,0,2,0,,,,,,,,,,,,,,,2,575.3579455234576,575.5580249417108,0.2,575.5580249417108,X,l,go,l,1,0.27347395732067525,,,,,,,,,,,,,,,,,,69,001,23,m,Psychologie,2023-01-25_12h02.01.304,00_bat_bachelor,2022.2.4,59.985196406715524,
,,,,1,0,1,0,3,0,3,0,,,,,,,,,,,,,,,3,576.5418411919381,576.742226064438,0.2,576.742226064438,X,None,nogo,d,0,0.2737401390913874,,,,,,,,,,,,,,,,,,69,001,23,m,Psychologie,2023-01-25_12h02.01.304,00_bat_bachelor,2022.2.4,59.985196406715524,
,,,,1,0,1,0,4,0,4,0,,,,,,,,,,,,,,,4,578.1435422333889,578.3439794697333,0.2,578.3439794697333,Y,d,go,d,1,0.4795950697734952,,,,,,,,,,,,,,,,,,69,001,23,m,Psychologie,2023-01-25_12h02.01.304,00_bat_bachelor,2022.2.4,59.985196406715524,
,,,,1,0,1,0,5,0,5,0,,,,,,,,,,,,,,,5,579.5448782811873,579.7447991541121,0.2,579.7447991541121,X,l,go,l,1,0.3256155080161989,,,,,,,,,,,,,,,,,,69,001,23,m,Psychologie,2023-01-25_12h02.01.304,00_bat_bachelor,2022.2.4,59.985196406715524,
,,,,1,0,1,0,6,0,6,0,,,,,,,,,,,,,,,6,580.7958304020576,580.9959806080442,0.2,580.9959806080442,Y,d,go,d,1,0.3065216988325119,,,,,,,,,,,,,,,,,,69,001,23,m,Psychologie,2023-01-25_12h02.01.304,00_bat_bachelor,2022.2.4,59.985196406715524,
,,,,1,0,1,0,7,0,7,0,,,,,,,,,,,,,,,7,582.0133987814188,582.2133152906317,0.2,582.2133152906317,X,l,go,l,1,0.30489406338892877,,,,,,,,,,,,,,,,,,69,001,23,m,Psychologie,2023-01-25_12h02.01.304,00_bat_bachelor,2022.2.4,59.985196406715524,
,,,,1,0,1,0,8,0,8,0,,,,,,,,,,,,,,,8,583.2477050919551,583.4478809949942,0.2,583.4478809949942,X,None,nogo,None,1,,584.2484847279266,,,,,,,,,,,,,,,,,69,001,23,m,Psychologie,2023-01-25_12h02.01.304,00_bat_bachelor,2022.2.4,59.985196406715524,
,,,,1,0,1,0,9,0,9,0,,,,,,,,,,,,,,,9,584.8489275884349,585.0490744004492,0.2,585.0490744004492,Y,d,go,d,1,0.3016489741858095,,,,,,,,,,,,,,,,,,69,001,23,m,Psychologie,2023-01-25_12h02.01.304,00_bat_bachelor,2022.2.4,59.985196406715524,
,,,,1,0,1,0,10,0,10,0,,,,,,,,,,,,,,,10,586.0663301497698,586.2666243556887,0.2,586.2666243556887,X,l,go,l,1,0.3163170882035047,,,,,,,,,,,,,,,,,,69,001,23,m,Psychologie,2023-01-25_12h02.01.304,00_bat_bachelor,2022.2.4,59.985196406715524,
,,,,1,0,1,0,11,0,11,0,,,,,,,,,,,,,,,11,587.3004279755987,587.5003856967669,0.2,587.5003856967669,Y,d,go,d,1,0.33017211174592376,,,,,,,,,,,,,,,,,,69,001,23,m,Psychologie,2023-01-25_12h02.01.304,00_bat_bachelor,2022.2.4,59.985196406715524,
,,,,1,0,1,0,12,0,12,0,,,,,,,,,,,,,,,12,588.5512060357723,588.7511904237326,0.2,588.7511904237326,Y,None,nogo,d,0,0.36115391505882144,,,,,,,,,,,,,,,,,,69,001,23,m,Psychologie,2023-01-25_12h02.01.304,00_bat_bachelor,2022.2.4,59.985196406715524,
,,,,1,0,1,0,13,0,13,0,,,,,,,,,,,,,,,13,590.2188726211898,590.41889337264,0.2,590.41889337264,X,l,go,l,1,0.38826808356679976,,,,,,,,,,,,,,,,,,69,001,23,m,Psychologie,2023-01-25_12h02.01.304,00_bat_bachelor,2022.2.4,59.985196406715524,
,,,,1,0,1,0,14,0,14,0,,,,,,,,,,,,,,,14,591.5199338085949,591.7198551662732,0.2,591.7198551662732,Y,d,go,d,1,0.3343612006865442,,,,,,,,,,,,,,,,,,69,001,23,m,Psychologie,2023-01-25_12h02.01.304,00_bat_bachelor,2022.2.4,59.985196406715524,
,,,,,,,,,,,,,,,,,,,,,,,,,,,,,,,,,,,,,,592.8004466423299,None,,592.8004466423299,592.8004466423299,space,8.905874620424584,,,,,,,,,,69,001,23,m,Psychologie,2023-01-25_12h02.01.304,00_bat_bachelor,2022.2.4,59.985196406715524,
,,,,,,,,,,,,0,0,0,0,0,0,0,0,,,,,,,0,,,1,602.7288684952073,X,l,go,l,1,0.3819626320619136,,,,,,,,,,,,,,,,,,69,001,23,m,Psychologie,2023-01-25_12h02.01.304,00_bat_bachelor,2022.2.4,59.985196406715524,
,,,,,,,,,,,,0,0,0,0,1,0,1,0,,,,,,,1,,,1,604.2132973512635,Y,d,go,d,1,0.16059061815030873,,,,,,,,,,,,,,,,,,69,001,23,m,Psychologie,2023-01-25_12h02.01.304,00_bat_bachelor,2022.2.4,59.985196406715524,
,,,,,,,,,,,,0,0,0,0,2,0,2,0,,,,,,,2,,,1,605.4976802435704,X,l,go,l,1,0.2051084148697555,,,,,,,,,,,,,,,,,,69,001,23,m,Psychologie,2023-01-25_12h02.01.304,00_bat_bachelor,2022.2.4,59.985196406715524,
,,,,,,,,,,,,0,0,0,0,3,0,3,0,,,,,,,3,,,1,606.831999596674,Y,d,go,d,1,0.23007373604923487,,,,,,,,,,,,,,,,,,69,001,23,m,Psychologie,2023-01-25_12h02.01.304,00_bat_bachelor,2022.2.4,59.985196406715524,
,,,,,,,,,,,,0,0,0,0,4,0,4,0,,,,,,,4,,,1,608.1831533657387,X,l,go,l,1,0.35145743493922055,,,,,,,,,,,,,,,,,,69,001,23,m,Psychologie,2023-01-25_12h02.01.304,00_bat_bachelor,2022.2.4,59.985196406715524,
,,,,,,,,,,,,0,0,0,0,5,0,5,0,,,,,,,5,,,1,609.6509727754164,Y,d,go,d,1,0.25995299429632723,,,,,,,,,,,,,,,,,,69,001,23,m,Psychologie,2023-01-25_12h02.01.304,00_bat_bachelor,2022.2.4,59.985196406715524,
,,,,,,,,,,,,0,0,0,0,6,0,6,0,,,,,,,6,,,1,611.0184489607345,X,l,go,l,1,0.3002831565681845,,,,,,,,,,,,,,,,,,69,001,23,m,Psychologie,2023-01-25_12h02.01.304,00_bat_bachelor,2022.2.4,59.985196406715524,
,,,,,,,,,,,,0,0,0,0,7,0,7,0,,,,,,,7,,,1,612.4195993116591,X,None,nogo,None,1,,613.2202175902203,,,,,,,,,,,,,,,,,69,001,23,m,Psychologie,2023-01-25_12h02.01.304,00_bat_bachelor,2022.2.4,59.985196406715524,
,,,,,,,,,,,,0,0,0,0,8,0,8,0,,,,,,,8,,,1,614.2209943172056,Y,d,go,d,1,0.28205334721133113,,,,,,,,,,,,,,,,,,69,001,23,m,Psychologie,2023-01-25_12h02.01.304,00_bat_bachelor,2022.2.4,59.985196406715524,
,,,,,,,,,,,,0,0,0,0,9,0,9,0,,,,,,,9,,,1,615.6052850398701,X,l,go,l,1,0.33749186573550105,,,,,,,,,,,,,,,,,,69,001,23,m,Psychologie,2023-01-25_12h02.01.304,00_bat_bachelor,2022.2.4,59.985196406715524,
,,,,,,,,,,,,0,0,0,0,10,0,10,0,,,,,,,10,,,1,617.0567039726302,Y,d,go,d,1,0.29421043233014643,,,,,,,,,,,,,,,,,,69,001,23,m,Psychologie,2023-01-25_12h02.01.304,00_bat_bachelor,2022.2.4,59.985196406715524,
,,,,,,,,,,,,0,0,0,0,11,0,11,0,,,,,,,11,,,1,618.4574838995468,X,l,go,l,1,0.23782403534278274,,,,,,,,,,,,,,,,,,69,001,23,m,Psychologie,2023-01-25_12h02.01.304,00_bat_bachelor,2022.2.4,59.985196406715524,
,,,,,,,,,,,,0,0,0,0,12,0,12,0,,,,,,,12,,,1,619.8086701533757,X,None,nogo,None,1,,620.6091187349521,,,,,,,,,,,,,,,,,69,001,23,m,Psychologie,2023-01-25_12h02.01.304,00_bat_bachelor,2022.2.4,59.985196406715524,
,,,,,,,,,,,,0,0,0,0,13,0,13,0,,,,,,,13,,,1,621.609902249882,Y,d,go,d,1,0.20486114220693707,,,,,,,,,,,,,,,,,,69,001,23,m,Psychologie,2023-01-25_12h02.01.304,00_bat_bachelor,2022.2.4,59.985196406715524,
,,,,,,,,,,,,0,0,0,0,14,0,14,0,,,,,,,14,,,1,622.9275685199536,X,l,go,l,1,0.3276082342490554,,,,,,,,,,,,,,,,,,69,001,23,m,Psychologie,2023-01-25_12h02.01.304,00_bat_bachelor,2022.2.4,59.985196406715524,
,,,,,,,,,,,,0,0,0,0,15,0,15,0,,,,,,,15,,,1,624.3623862485401,Y,d,go,d,1,0.30076218652538955,,,,,,,,,,,,,,,,,,69,001,23,m,Psychologie,2023-01-25_12h02.01.304,00_bat_bachelor,2022.2.4,59.985196406715524,
,,,,,,,,,,,,0,0,0,0,16,0,16,0,,,,,,,16,,,1,625.7799045916181,Y,None,nogo,d,0,0.33852313784882426,,,,,,,,,,,,,,,,,,69,001,23,m,Psychologie,2023-01-25_12h02.01.304,00_bat_bachelor,2022.2.4,59.985196406715524,
,,,,,,,,,,,,0,0,0,0,17,0,17,0,,,,,,,17,,,1,627.2969651892781,X,l,go,l,1,0.31006545503623784,,,,,,,,,,,,,,,,,,69,001,23,m,Psychologie,2023-01-25_12h02.01.304,00_bat_bachelor,2022.2.4,59.985196406715524,
,,,,,,,,,,,,0,0,0,0,18,0,18,0,,,,,,,18,,,1,628.7148912898265,Y,d,go,d,1,0.2682220812421292,,,,,,,,,,,,,,,,,,69,001,23,m,Psychologie,2023-01-25_12h02.01.304,00_bat_bachelor,2022.2.4,59.985196406715524,
,,,,,,,,,,,,0,0,0,0,19,0,19,0,,,,,,,19,,,1,630.0993240731768,Y,None,nogo,None,1,,630.8999118062202,,,,,,,,,,,,,,,,,69,001,23,m,Psychologie,2023-01-25_12h02.01.304,00_bat_bachelor,2022.2.4,59.985196406715524,
,,,,,,,,,,,,0,0,0,0,20,0,20,0,,,,,,,20,,,1,631.900469381595,X,l,go,l,1,0.24982984783127904,,,,,,,,,,,,,,,,,,69,001,23,m,Psychologie,2023-01-25_12h02.01.304,00_bat_bachelor,2022.2.4,59.985196406715524,
,,,,,,,,,,,,0,0,0,0,21,0,21,0,,,,,,,21,,,1,633.2516284841113,Y,d,go,d,1,0.3083083648234606,,,,,,,,,,,,,,,,,,69,001,23,m,Psychologie,2023-01-25_12h02.01.304,00_bat_bachelor,2022.2.4,59.985196406715524,
,,,,,,,,,,,,0,0,0,0,22,0,22,0,,,,,,,22,,,1,634.6694251301233,X,l,go,l,1,0.24926790851168334,,,,,,,,,,,,,,,,,,69,001,23,m,Psychologie,2023-01-25_12h02.01.304,00_bat_bachelor,2022.2.4,59.985196406715524,
,,,,,,,,,,,,0,0,0,0,23,0,23,0,,,,,,,23,,,1,636.0203878688626,Y,d,go,d,1,0.3546443423256278,,,,,,,,,,,,,,,,,,69,001,23,m,Psychologie,2023-01-25_12h02.01.304,00_bat_bachelor,2022.2.4,59.985196406715524,
,,,,,,,,,,,,0,0,0,0,24,0,24,0,,,,,,,24,,,1,637.4883052178193,X,l,go,l,1,0.3107975758612156,,,,,,,,,,,,,,,,,,69,001,23,m,Psychologie,2023-01-25_12h02.01.304,00_bat_bachelor,2022.2.4,59.985196406715524,
,,,,,,,,,,,,0,0,0,0,25,0,25,0,,,,,,,25,,,1,638.9057862274349,Y,d,go,d,1,0.2531922704074532,,,,,,,,,,,,,,,,,,69,001,23,m,Psychologie,2023-01-25_12h02.01.304,00_bat_bachelor,2022.2.4,59.985196406715524,
,,,,,,,,,,,,0,0,0,0,26,0,26,0,,,,,,,26,,,1,640.2737778066657,Y,None,nogo,None,1,,641.0743776608724,,,,,,,,,,,,,,,,,69,001,23,m,Psychologie,2023-01-25_12h02.01.304,00_bat_bachelor,2022.2.4,59.985196406715524,
,,,,,,,,,,,,0,0,0,0,27,0,27,0,,,,,,,27,,,1,642.0750709939748,X,l,go,l,1,0.204249263741076,,,,,,,,,,,,,,,,,,69,001,23,m,Psychologie,2023-01-25_12h02.01.304,00_bat_bachelor,2022.2.4,59.985196406715524,
,,,,,,,,,,,,0,0,0,0,28,0,28,0,,,,,,,28,,,1,643.392741143005,Y,d,go,d,1,0.3580314922146499,,,,,,,,,,,,,,,,,,69,001,23,m,Psychologie,2023-01-25_12h02.01.304,00_bat_bachelor,2022.2.4,59.985196406715524,
,,,,,,,,,,,,0,0,0,0,29,0,29,0,,,,,,,29,,,1,644.8604883099906,X,l,go,l,1,0.2987447332125157,,,,,,,,,,,,,,,,,,69,001,23,m,Psychologie,2023-01-25_12h02.01.304,00_bat_bachelor,2022.2.4,59.985196406715524,
,,,,,,,,,,,,0,0,0,0,30,0,30,0,,,,,,,30,,,1,646.2616391459014,Y,d,go,d,1,0.32104096468538046,,,,,,,,,,,,,,,,,,69,001,23,m,Psychologie,2023-01-25_12h02.01.304,00_bat_bachelor,2022.2.4,59.985196406715524,
,,,,,,,,,,,,0,0,0,0,31,0,31,0,,,,,,,31,,,1,647.6960656018928,Y,None,nogo,None,1,,648.4966256986372,,,,,,,,,,,,,,,,,69,001,23,m,Psychologie,2023-01-25_12h02.01.304,00_bat_bachelor,2022.2.4,59.985196406715524,
,,,,,,,,,,,,0,0,0,0,32,0,32,0,,,,,,,32,,,1,649.4974339406472,Y,None,nogo,None,1,,650.2980716130696,,,,,,,,,,,,,,,,,69,001,23,m,Psychologie,2023-01-25_12h02.01.304,00_bat_bachelor,2022.2.4,59.985196406715524,
,,,,,,,,,,,,0,0,0,0,33,0,33,0,,,,,,,33,,,1,651.2985680976417,X,l,go,l,1,0.24522621370851994,,,,,,,,,,,,,,,,,,69,001,23,m,Psychologie,2023-01-25_12h02.01.304,00_bat_bachelor,2022.2.4,59.985196406715524,
,,,,,,,,,,,,0,0,0,0,34,0,34,0,,,,,,,34,,,1,652.649791684933,Y,d,go,d,1,0.23728633858263493,,,,,,,,,,,,,,,,,,69,001,23,m,Psychologie,2023-01-25_12h02.01.304,00_bat_bachelor,2022.2.4,59.985196406715524,
,,,,,,,,,,,,0,0,0,0,35,0,35,0,,,,,,,35,,,1,654.0008038785309,X,l,go,l,1,0.24667833396233618,,,,,,,,,,,,,,,,,,69,001,23,m,Psychologie,2023-01-25_12h02.01.304,00_bat_bachelor,2022.2.4,59.985196406715524,
,,,,,,,,,,,,0,0,0,0,36,0,36,0,,,,,,,36,,,1,655.3519072234631,X,None,nogo,None,1,,,,,,,,,,,,,,,,,,,69,001,23,m,Psychologie,2023-01-25_12h02.01.304,00_bat_bachelor,2022.2.4,59.985196406715524,
,,,,,,,,,,,,0,0,0,0,37,0,37,0,,,,,,,37,,,1,657.1531368955038,Y,d,go,d,1,0.31064921198412776,,,,,,,,,,,,,,,,,,69,001,23,m,Psychologie,2023-01-25_12h02.01.304,00_bat_bachelor,2022.2.4,59.985196406715524,
,,,,,,,,,,,,0,0,0,0,38,0,38,0,,,,,,,38,,,1,658.5708370564971,X,l,go,l,1,0.5248571082483977,,,,,,,,,,,,,,,,,,69,001,23,m,Psychologie,2023-01-25_12h02.01.304,00_bat_bachelor,2022.2.4,59.985196406715524,
,,,,,,,,,,,,0,0,0,0,39,0,39,0,,,,,,,39,,,1,660.2054365065414,Y,d,go,d,1,0.2977663092315197,,,,,,,,,,,,,,,,,,69,001,23,m,Psychologie,2023-01-25_12h02.01.304,00_bat_bachelor,2022.2.4,59.985196406715524,
,,,,,,,,,,,,0,0,0,0,40,0,40,0,,,,,,,40,,,1,661.6065863727126,X,l,go,l,1,0.4005231079645455,,,,,,,,,,,,,,,,,,69,001,23,m,Psychologie,2023-01-25_12h02.01.304,00_bat_bachelor,2022.2.4,59.985196406715524,
,,,,,,,,,,,,0,0,0,0,41,0,41,0,,,,,,,41,,,1,663.1078559476882,Y,d,go,d,1,0.29263855423778296,,,,,,,,,,,,,,,,,,69,001,23,m,Psychologie,2023-01-25_12h02.01.304,00_bat_bachelor,2022.2.4,59.985196406715524,
,,,,,,,,,,,,0,0,0,0,42,0,42,0,,,,,,,42,,,1,664.5086222989485,X,l,go,l,1,0.20242526452057064,,,,,,,,,,,,,,,,,,69,001,23,m,Psychologie,2023-01-25_12h02.01.304,00_bat_bachelor,2022.2.4,59.985196406715524,
,,,,,,,,,,,,0,0,0,0,43,0,43,0,,,,,,,43,,,1,665.8265552355442,Y,d,go,d,1,0.2934240084141493,,,,,,,,,,,,,,,,,,69,001,23,m,Psychologie,2023-01-25_12h02.01.304,00_bat_bachelor,2022.2.4,59.985196406715524,
,,,,,,,,,,,,0,0,0,0,44,0,44,0,,,,,,,44,,,1,667.2275737079326,X,l,go,l,1,0.21911083231680095,,,,,,,,,,,,,,,,,,69,001,23,m,Psychologie,2023-01-25_12h02.01.304,00_bat_bachelor,2022.2.4,59.985196406715524,
,,,,,,,,,,,,0,0,0,0,45,0,45,0,,,,,,,45,,,1,668.5619609397836,Y,d,go,d,1,0.2622948114294559,,,,,,,,,,,,,,,,,,69,001,23,m,Psychologie,2023-01-25_12h02.01.304,00_bat_bachelor,2022.2.4,59.985196406715524,
,,,,,,,,,,,,0,0,0,0,46,0,46,0,,,,,,,46,,,1,669.9296460947953,X,l,go,l,1,0.23786427779123187,,,,,,,,,,,,,,,,,,69,001,23,m,Psychologie,2023-01-25_12h02.01.304,00_bat_bachelor,2022.2.4,59.985196406715524,
,,,,,,,,,,,,0,0,0,0,47,0,47,0,,,,,,,47,,,1,671.2806844699662,Y,d,go,d,1,0.2627975989598781,,,,,,,,,,,,,,,,,,69,001,23,m,Psychologie,2023-01-25_12h02.01.304,00_bat_bachelor,2022.2.4,59.985196406715524,
,,,,,,,,,,,,0,0,0,0,48,0,48,0,,,,,,,48,,,1,672.6483424736653,X,l,go,l,1,0.17453049030154943,,,,,,,,,,,,,,,,,,69,001,23,m,Psychologie,2023-01-25_12h02.01.304,00_bat_bachelor,2022.2.4,59.985196406715524,
,,,,,,,,,,,,0,0,0,0,49,0,49,0,,,,,,,49,,,1,673.9330216082744,Y,d,go,d,1,0.20136393164284527,,,,,,,,,,,,,,,,,,69,001,23,m,Psychologie,2023-01-25_12h02.01.304,00_bat_bachelor,2022.2.4,59.985196406715524,
,,,,,,,,,,,,0,0,0,0,50,0,50,0,,,,,,,50,,,1,675.2501758786384,X,l,go,l,1,0.2928887358866632,,,,,,,,,,,,,,,,,,69,001,23,m,Psychologie,2023-01-25_12h02.01.304,00_bat_bachelor,2022.2.4,59.985196406715524,
,,,,,,,,,,,,0,0,0,0,51,0,51,0,,,,,,,51,,,1,676.6513267145492,X,None,nogo,None,1,,,,,,,,,,,,,,,,,,,69,001,23,m,Psychologie,2023-01-25_12h02.01.304,00_bat_bachelor,2022.2.4,59.985196406715524,
,,,,,,,,,,,,0,0,0,0,52,0,52,0,,,,,,,52,,,1,678.4529379622545,Y,d,go,d,1,0.19464732916094363,,,,,,,,,,,,,,,,,,69,001,23,m,Psychologie,2023-01-25_12h02.01.304,00_bat_bachelor,2022.2.4,59.985196406715524,
,,,,,,,,,,,,0,0,0,0,53,0,53,0,,,,,,,53,,,1,679.7712214442436,X,l,go,l,1,0.33108653547242284,,,,,,,,,,,,,,,,,,69,001,23,m,Psychologie,2023-01-25_12h02.01.304,00_bat_bachelor,2022.2.4,59.985196406715524,
,,,,,,,,,,,,0,0,0,0,54,0,54,0,,,,,,,54,,,1,681.2057855972089,X,None,nogo,d,0,0.2090531401336193,,,,,,,,,,,,,,,,,,69,001,23,m,Psychologie,2023-01-25_12h02.01.304,00_bat_bachelor,2022.2.4,59.985196406715524,
,,,,,,,,,,,,0,0,0,0,55,0,55,0,,,,,,,55,,,1,682.539792223135,Y,d,go,d,1,0.47495458694174886,,,,,,,,,,,,,,,,,,69,001,23,m,Psychologie,2023-01-25_12h02.01.304,00_bat_bachelor,2022.2.4,59.985196406715524,
,,,,,,,,,,,,0,0,0,0,56,0,56,0,,,,,,,56,,,1,684.1412915678229,X,l,go,l,1,0.26524414331652224,,,,,,,,,,,,,,,,,,69,001,23,m,Psychologie,2023-01-25_12h02.01.304,00_bat_bachelor,2022.2.4,59.985196406715524,
,,,,,,,,,,,,0,0,0,0,57,0,57,0,,,,,,,57,,,1,685.5256084725261,Y,d,go,d,1,0.3213459341786802,,,,,,,,,,,,,,,,,,69,001,23,m,Psychologie,2023-01-25_12h02.01.304,00_bat_bachelor,2022.2.4,59.985196406715524,
,,,,,,,,,,,,0,0,0,0,58,0,58,0,,,,,,,58,,,1,686.9598220800981,X,l,go,l,1,0.19888344802893698,,,,,,,,,,,,,,,,,,69,001,23,m,Psychologie,2023-01-25_12h02.01.304,00_bat_bachelor,2022.2.4,59.985196406715524,
,,,,,,,,,,,,0,0,0,0,59,0,59,0,,,,,,,59,,,1,688.2778219259344,X,None,nogo,None,1,,689.0781783864368,,,,,,,,,,,,,,,,,69,001,23,m,Psychologie,2023-01-25_12h02.01.304,00_bat_bachelor,2022.2.4,59.985196406715524,
,,,,,,,,,,,,0,0,0,0,60,0,60,0,,,,,,,60,,,1,690.0790142647456,Y,d,go,d,1,0.2323016137816012,,,,,,,,,,,,,,,,,,69,001,23,m,Psychologie,2023-01-25_12h02.01.304,00_bat_bachelor,2022.2.4,59.985196406715524,
,,,,,,,,,,,,0,0,0,0,61,0,61,0,,,,,,,61,,,1,691.4135076783132,X,l,go,l,1,0.19336878415197134,,,,,,,,,,,,,,,,,,69,001,23,m,Psychologie,2023-01-25_12h02.01.304,00_bat_bachelor,2022.2.4,59.985196406715524,
,,,,,,,,,,,,0,0,0,0,62,0,62,0,,,,,,,62,,,1,692.7472689710557,Y,d,go,d,1,0.267261111875996,,,,,,,,,,,,,,,,,,69,001,23,m,Psychologie,2023-01-25_12h02.01.304,00_bat_bachelor,2022.2.4,59.985196406715524,
,,,,,,,,,,,,0,0,0,0,63,0,63,0,,,,,,,63,,,1,694.1150976412464,X,l,go,l,1,0.19530187407508492,,,,,,,,,,,,,,,,,,69,001,23,m,Psychologie,2023-01-25_12h02.01.304,00_bat_bachelor,2022.2.4,59.985196406715524,
,,,,,,,,,,,,0,0,0,0,64,0,64,0,,,,,,,64,,,1,695.4160962831229,X,None,nogo,d,0,0.23922233772464097,,,,,,,,,,,,,,,,,,69,001,23,m,Psychologie,2023-01-25_12h02.01.304,00_bat_bachelor,2022.2.4,59.985196406715524,
,,,,,,,,,,,,0,0,0,0,65,0,65,0,,,,,,,65,,,1,696.7671579311136,Y,d,go,d,1,0.4235252784565091,,,,,,,,,,,,,,,,,,69,001,23,m,Psychologie,2023-01-25_12h02.01.304,00_bat_bachelor,2022.2.4,59.985196406715524,
,,,,,,,,,,,,0,0,0,0,66,0,66,0,,,,,,,66,,,1,698.3012609449215,X,l,go,l,1,0.37767269485630095,,,,,,,,,,,,,,,,,,69,001,23,m,Psychologie,2023-01-25_12h02.01.304,00_bat_bachelor,2022.2.4,59.985196406715524,
,,,,,,,,,,,,0,0,0,0,67,0,67,0,,,,,,,67,,,1,699.7857256797142,X,None,nogo,None,1,,700.5865587459411,,,,,,,,,,,,,,,,,69,001,23,m,Psychologie,2023-01-25_12h02.01.304,00_bat_bachelor,2022.2.4,59.985196406715524,
,,,,,,,,,,,,0,0,0,0,68,0,68,0,,,,,,,68,,,1,701.5871342609171,Y,d,go,d,1,0.30839078896678984,,,,,,,,,,,,,,,,,,69,001,23,m,Psychologie,2023-01-25_12h02.01.304,00_bat_bachelor,2022.2.4,59.985196406715524,
,,,,,,,,,,,,0,0,0,0,69,0,69,0,,,,,,,69,,,1,703.0050792703405,X,l,go,l,1,0.49060403392650187,,,,,,,,,,,,,,,,,,69,001,23,m,Psychologie,2023-01-25_12h02.01.304,00_bat_bachelor,2022.2.4,59.985196406715524,
,,,,,,,,,,,,0,0,0,0,70,0,70,0,,,,,,,70,,,1,704.606308554532,Y,d,go,d,1,0.3141313921660185,,,,,,,,,,,,,,,,,,69,001,23,m,Psychologie,2023-01-25_12h02.01.304,00_bat_bachelor,2022.2.4,59.985196406715524,
,,,,,,,,,,,,0,0,0,0,71,0,71,0,,,,,,,71,,,1,706.0240824127104,Y,None,nogo,None,1,,706.8246168124024,,,,,,,,,,,,,,,,,69,001,23,m,Psychologie,2023-01-25_12h02.01.304,00_bat_bachelor,2022.2.4,59.985196406715524,
,,,,,,,,,,,,0,0,0,0,72,0,72,0,,,,,,,72,,,1,707.8254914786667,Y,None,nogo,None,1,,,,,,,,,,,,,,,,,,,69,001,23,m,Psychologie,2023-01-25_12h02.01.304,00_bat_bachelor,2022.2.4,59.985196406715524,
,,,,,,,,,,,,0,0,0,0,73,0,73,0,,,,,,,73,,,1,709.6265136357397,X,l,go,l,1,0.38071123883128166,,,,,,,,,,,,,,,,,,69,001,23,m,Psychologie,2023-01-25_12h02.01.304,00_bat_bachelor,2022.2.4,59.985196406715524,
,,,,,,,,,,,,0,0,0,0,74,0,74,0,,,,,,,74,,,1,711.1110268551856,Y,d,go,d,1,0.3196625409182161,,,,,,,,,,,,,,,,,,69,001,23,m,Psychologie,2023-01-25_12h02.01.304,00_bat_bachelor,2022.2.4,59.985196406715524,
,,,,,,,,,,,,0,0,0,0,75,0,75,0,,,,,,,75,,,1,712.545661311131,Y,None,nogo,None,1,,713.3463081957307,,,,,,,,,,,,,,,,,69,001,23,m,Psychologie,2023-01-25_12h02.01.304,00_bat_bachelor,2022.2.4,59.985196406715524,
,,,,,,,,,,,,0,0,0,0,76,0,76,0,,,,,,,76,,,1,714.3468197106849,X,l,go,l,1,0.31593793677166104,,,,,,,,,,,,,,,,,,69,001,23,m,Psychologie,2023-01-25_12h02.01.304,00_bat_bachelor,2022.2.4,59.985196406715524,
,,,,,,,,,,,,0,0,0,0,77,0,77,0,,,,,,,77,,,1,715.7645780534949,Y,d,go,d,1,0.3383912593126297,,,,,,,,,,,,,,,,,,69,001,23,m,Psychologie,2023-01-25_12h02.01.304,00_bat_bachelor,2022.2.4,59.985196406715524,
,,,,,,,,,,,,0,0,0,0,78,0,78,0,,,,,,,78,,,1,717.2159669257235,Y,None,nogo,None,1,,,,,,,,,,,,,,,,,,,69,001,23,m,Psychologie,2023-01-25_12h02.01.304,00_bat_bachelor,2022.2.4,59.985196406715524,
,,,,,,,,,,,,0,0,0,0,79,0,79,0,,,,,,,79,,,1,719.0171035069507,X,l,go,l,1,0.3820489349309355,,,,,,,,,,,,,,,,,,69,001,23,m,Psychologie,2023-01-25_12h02.01.304,00_bat_bachelor,2022.2.4,59.985196406715524,
,,,,,,,,,,,,0,0,0,0,80,0,80,0,,,,,,,80,,,1,720.5016603628173,Y,d,go,d,1,0.2888693439308554,,,,,,,,,,,,,,,,,,69,001,23,m,Psychologie,2023-01-25_12h02.01.304,00_bat_bachelor,2022.2.4,59.985196406715524,
,,,,,,,,,,,,0,0,0,0,81,0,81,0,,,,,,,81,,,1,721.9025639260653,X,l,go,l,1,0.4407053915783763,,,,,,,,,,,,,,,,,,69,001,23,m,Psychologie,2023-01-25_12h02.01.304,00_bat_bachelor,2022.2.4,59.985196406715524,
,,,,,,,,,,,,0,0,0,0,82,0,82,0,,,,,,,82,,,1,723.4537447497714,Y,d,go,d,1,0.31308799888938665,,,,,,,,,,,,,,,,,,69,001,23,m,Psychologie,2023-01-25_12h02.01.304,00_bat_bachelor,2022.2.4,59.985196406715524,
,,,,,,,,,,,,0,0,0,0,83,0,83,0,,,,,,,83,,,1,724.8715069713071,Y,None,nogo,None,1,,725.6722469467204,,,,,,,,,,,,,,,,,69,001,23,m,Psychologie,2023-01-25_12h02.01.304,00_bat_bachelor,2022.2.4,59.985196406715524,
,,,,,,,,,,,,0,0,0,0,84,0,84,0,,,,,,,84,,,1,726.6727962798905,X,l,go,l,1,0.32645962852984667,,,,,,,,,,,,,,,,,,69,001,23,m,Psychologie,2023-01-25_12h02.01.304,00_bat_bachelor,2022.2.4,59.985196406715524,
,,,,,,,,,,,,0,0,0,0,85,0,85,0,,,,,,,85,,,1,728.1075228569098,Y,d,go,d,1,0.31565527035854757,,,,,,,,,,,,,,,,,,69,001,23,m,Psychologie,2023-01-25_12h02.01.304,00_bat_bachelor,2022.2.4,59.985196406715524,
,,,,,,,,,,,,0,0,0,0,86,0,86,0,,,,,,,86,,,1,729.5251696847845,X,l,go,l,1,0.29054643400013447,,,,,,,,,,,,,,,,,,69,001,23,m,Psychologie,2023-01-25_12h02.01.304,00_bat_bachelor,2022.2.4,59.985196406715524,
,,,,,,,,,,,,0,0,0,0,87,0,87,0,,,,,,,87,,,1,730.9261571266688,X,None,nogo,None,1,,,,,,,,,,,,,,,,,,,69,001,23,m,Psychologie,2023-01-25_12h02.01.304,00_bat_bachelor,2022.2.4,59.985196406715524,
,,,,,,,,,,,,0,0,0,0,88,0,88,0,,,,,,,88,,,1,732.7274032838177,Y,d,go,d,1,0.2875874051824212,,,,,,,,,,,,,,,,,,69,001,23,m,Psychologie,2023-01-25_12h02.01.304,00_bat_bachelor,2022.2.4,59.985196406715524,
,,,,,,,,,,,,0,0,0,0,89,0,89,0,,,,,,,89,,,1,734.1283533922397,X,l,go,l,1,0.21524271299131215,,,,,,,,,,,,,,,,,,69,001,23,m,Psychologie,2023-01-25_12h02.01.304,00_bat_bachelor,2022.2.4,59.985196406715524,
,,,,,,,,,,,,0,0,0,0,90,0,90,0,,,,,,,90,,,1,735.4462106928695,Y,d,go,d,1,0.30522957840003073,,,,,,,,,,,,,,,,,,69,001,23,m,Psychologie,2023-01-25_12h02.01.304,00_bat_bachelor,2022.2.4,59.985196406715524,
,,,,,,,,,,,,0,0,0,0,91,0,91,0,,,,,,,91,,,1,736.8638293994591,Y,None,nogo,None,1,,737.6645470717922,,,,,,,,,,,,,,,,,69,001,23,m,Psychologie,2023-01-25_12h02.01.304,00_bat_bachelor,2022.2.4,59.985196406715524,
,,,,,,,,,,,,0,0,0,0,92,0,92,0,,,,,,,92,,,1,738.6651739806402,X,l,go,l,1,0.2531326338648796,,,,,,,,,,,,,,,,,,69,001,23,m,Psychologie,2023-01-25_12h02.01.304,00_bat_bachelor,2022.2.4,59.985196406715524,
,,,,,,,,,,,,0,0,0,0,93,0,93,0,,,,,,,93,,,1,740.0332799837925,Y,d,go,d,1,0.3254569626878947,,,,,,,,,,,,,,,,,,69,001,23,m,Psychologie,2023-01-25_12h02.01.304,00_bat_bachelor,2022.2.4,59.985196406715524,
,,,,,,,,,,,,0,0,0,0,94,0,94,0,,,,,,,94,,,1,741.4675202581566,X,l,go,l,1,0.3644062769599259,,,,,,,,,,,,,,,,,,69,001,23,m,Psychologie,2023-01-25_12h02.01.304,00_bat_bachelor,2022.2.4,59.985196406715524,
,,,,,,,,,,,,0,0,0,0,95,0,95,0,,,,,,,95,,,1,742.9350269406568,Y,d,go,d,1,0.36724312393926084,,,,,,,,,,,,,,,,,,69,001,23,m,Psychologie,2023-01-25_12h02.01.304,00_bat_bachelor,2022.2.4,59.985196406715524,
,,,,,,,,,,,,0,0,0,0,96,0,96,0,,,,,,,96,,,1,744.4030640469864,Y,None,nogo,l,0,0.3398288341704756,,,,,,,,,,,,,,,,,,69,001,23,m,Psychologie,2023-01-25_12h02.01.304,00_bat_bachelor,2022.2.4,59.985196406715524,
,,,,,,,,,,,,0,0,0,0,97,0,97,0,,,,,,,97,,,1,745.8543530404568,X,l,go,l,1,0.5209254736546427,,,,,,,,,,,,,,,,,,69,001,23,m,Psychologie,2023-01-25_12h02.01.304,00_bat_bachelor,2022.2.4,59.985196406715524,
,,,,,,,,,,,,0,0,0,0,98,0,98,0,,,,,,,98,,,1,747.4889326114208,Y,d,go,d,1,0.37429475714452565,,,,,,,,,,,,,,,,,,69,001,23,m,Psychologie,2023-01-25_12h02.01.304,00_bat_bachelor,2022.2.4,59.985196406715524,
,,,,,,,,,,,,0,0,0,0,99,0,99,0,,,,,,,99,,,1,748.9734308007173,Y,None,nogo,None,1,,749.7739845945034,,,,,,,,,,,,,,,,,69,001,23,m,Psychologie,2023-01-25_12h02.01.304,00_bat_bachelor,2022.2.4,59.985196406715524,
,,,,,,,,,,,,0,0,0,0,100,0,100,0,,,,,,,100,,,1,750.7746948972344,X,l,go,l,1,0.4487902361433953,,,,,,,,,,,,,,,,,,69,001,23,m,Psychologie,2023-01-25_12h02.01.304,00_bat_bachelor,2022.2.4,59.985196406715524,
,,,,,,,,,,,,0,0,0,0,101,0,101,0,,,,,,,101,,,1,752.3259765692055,Y,d,go,d,1,0.32153260079212487,,,,,,,,,,,,,,,,,,69,001,23,m,Psychologie,2023-01-25_12h02.01.304,00_bat_bachelor,2022.2.4,59.985196406715524,
,,,,,,,,,,,,0,0,0,0,102,0,102,0,,,,,,,102,,,1,753.7603380556684,X,l,go,l,1,0.3910457792226225,,,,,,,,,,,,,,,,,,69,001,23,m,Psychologie,2023-01-25_12h02.01.304,00_bat_bachelor,2022.2.4,59.985196406715524,
,,,,,,,,,,,,0,0,0,0,103,0,103,0,,,,,,,103,,,1,755.2614650854375,Y,d,go,d,1,0.2819369835779071,,,,,,,,,,,,,,,,,,69,001,23,m,Psychologie,2023-01-25_12h02.01.304,00_bat_bachelor,2022.2.4,59.985196406715524,
,,,,,,,,,,,,0,0,0,0,104,0,104,0,,,,,,,104,,,1,756.6457068384625,Y,None,nogo,None,1,,,,,,,,,,,,,,,,,,,69,001,23,m,Psychologie,2023-01-25_12h02.01.304,00_bat_bachelor,2022.2.4,59.985196406715524,
,,,,,,,,,,,,0,0,0,0,105,0,105,0,,,,,,,105,,,1,758.4478766312823,X,l,go,l,1,0.19919181149452925,,,,,,,,,,,,,,,,,,69,001,23,m,Psychologie,2023-01-25_12h02.01.304,00_bat_bachelor,2022.2.4,59.985196406715524,
,,,,,,,,,,,,0,0,0,0,106,0,106,0,,,,,,,106,,,1,759.7488621824887,Y,d,go,d,1,0.29054643400013447,,,,,,,,,,,,,,,,,,69,001,23,m,Psychologie,2023-01-25_12h02.01.304,00_bat_bachelor,2022.2.4,59.985196406715524,
,,,,,,,,,,,,0,0,0,0,107,0,107,0,,,,,,,107,,,1,761.1498869576026,X,l,go,l,1,0.29640630981884897,,,,,,,,,,,,,,,,,,69,001,23,m,Psychologie,2023-01-25_12h02.01.304,00_bat_bachelor,2022.2.4,59.985196406715524,
,,,,,,,,,,,,0,0,0,0,108,0,108,0,,,,,,,108,,,1,762.5840734138619,X,None,nogo,None,1,,763.3846878134646,,,,,,,,,,,,,,,,,69,001,23,m,Psychologie,2023-01-25_12h02.01.304,00_bat_bachelor,2022.2.4,59.985196406715524,
,,,,,,,,,,,,0,0,0,0,109,0,109,0,,,,,,,109,,,1,764.3858354492113,Y,d,go,d,1,0.26082620583474636,,,,,,,,,,,,,,,,,,69,001,23,m,Psychologie,2023-01-25_12h02.01.304,00_bat_bachelor,2022.2.4,59.985196406715524,
,,,,,,,,,,,,0,0,0,0,110,0,110,0,,,,,,,110,,,1,765.7698565963656,X,l,go,l,1,0.28512049722485244,,,,,,,,,,,,,,,,,,69,001,23,m,Psychologie,2023-01-25_12h02.01.304,00_bat_bachelor,2022.2.4,59.985196406715524,
,,,,,,,,,,,,0,0,0,0,111,0,111,0,,,,,,,111,,,1,767.1876905756071,Y,d,go,d,1,0.2754327445290983,,,,,,,,,,,,,,,,,,69,001,23,m,Psychologie,2023-01-25_12h02.01.304,00_bat_bachelor,2022.2.4,59.985196406715524,
,,,,,,,,,,,,0,0,0,0,112,0,112,0,,,,,,,112,,,1,768.5722052983474,X,l,go,l,1,0.1863278178498149,,,,,,,,,,,,,,,,,,69,001,23,m,Psychologie,2023-01-25_12h02.01.304,00_bat_bachelor,2022.2.4,59.985196406715524,
,,,,,,,,,,,,0,0,0,0,113,0,113,0,,,,,,,113,,,1,769.8729658797383,X,None,nogo,d,0,0.18122042645700276,,,,,,,,,,,,,,,,,,69,001,23,m,Psychologie,2023-01-25_12h02.01.304,00_bat_bachelor,2022.2.4,59.985196406715524,
,,,,,,,,,,,,0,0,0,0,114,0,114,0,,,,,,,114,,,1,771.1575160447974,Y,d,go,d,1,0.3066763656679541,,,,,,,,,,,,,,,,,,69,001,23,m,Psychologie,2023-01-25_12h02.01.304,00_bat_bachelor,2022.2.4,59.985196406715524,
,,,,,,,,,,,,0,0,0,0,115,0,115,0,,,,,,,115,,,1,772.5751085695811,X,l,go,l,1,0.21574016730301082,,,,,,,,,,,,,,,,,,69,001,23,m,Psychologie,2023-01-25_12h02.01.304,00_bat_bachelor,2022.2.4,59.985196406715524,
,,,,,,,,,,,,0,0,0,0,116,0,116,0,,,,,,,116,,,1,773.9093619834166,Y,d,go,d,1,0.5926771964877844,,,,,,,,,,,,,,,,,,69,001,23,m,Psychologie,2023-01-25_12h02.01.304,00_bat_bachelor,2022.2.4,59.985196406715524,
,,,,,,,,,,,,0,0,0,0,117,0,117,0,,,,,,,117,,,1,775.643776172772,X,l,go,l,1,0.21881701424717903,,,,,,,,,,,,,,,,,,69,001,23,m,Psychologie,2023-01-25_12h02.01.304,00_bat_bachelor,2022.2.4,59.985196406715524,
,,,,,,,,,,,,0,0,0,0,118,0,118,0,,,,,,,118,,,1,776.9782594044227,Y,d,go,d,1,0.2924470391590148,,,,,,,,,,,,,,,,,,69,001,23,m,Psychologie,2023-01-25_12h02.01.304,00_bat_bachelor,2022.2.4,59.985196406715524,
,,,,,,,,,,,,0,0,0,0,119,0,119,0,,,,,,,119,,,1,778.379320058506,X,l,go,l,1,0.235181127442047,,,,,,,,,,,,,,,,,,69,001,23,m,Psychologie,2023-01-25_12h02.01.304,00_bat_bachelor,2022.2.4,59.985196406715524,
,,,,,,,,,,,,0,0,0,0,120,0,120,0,,,,,,,120,,,1,779.7303424337879,X,None,nogo,None,1,,780.5308894396294,,,,,,,,,,,,,,,,,69,001,23,m,Psychologie,2023-01-25_12h02.01.304,00_bat_bachelor,2022.2.4,59.985196406715524,
,,,,,,,,,,,,0,0,0,0,121,0,121,0,,,,,,,121,,,1,781.5317359846085,Y,d,go,d,1,0.2672984453383833,,,,,,,,,,,,,,,,,,69,001,23,m,Psychologie,2023-01-25_12h02.01.304,00_bat_bachelor,2022.2.4,59.985196406715524,
,,,,,,,,,,,,0,0,0,0,122,0,122,0,,,,,,,122,,,1,782.8994332610164,X,l,go,l,1,0.3548906452488154,,,,,,,,,,,,,,,,,,69,001,23,m,Psychologie,2023-01-25_12h02.01.304,00_bat_bachelor,2022.2.4,59.985196406715524,
,,,,,,,,,,,,0,0,0,0,123,0,123,0,,,,,,,123,,,1,784.3668129129801,Y,d,go,d,1,0.2650618404150009,,,,,,,,,,,,,,,,,,69,001,23,m,Psychologie,2023-01-25_12h02.01.304,00_bat_bachelor,2022.2.4,59.985196406715524,
,,,,,,,,,,,,0,0,0,0,124,0,124,0,,,,,,,124,,,1,785.7343050986528,X,l,go,l,1,0.20867107971571386,,,,,,,,,,,,,,,,,,69,001,23,m,Psychologie,2023-01-25_12h02.01.304,00_bat_bachelor,2022.2.4,59.985196406715524,
,,,,,,,,,,,,0,0,0,0,125,0,125,0,,,,,,,125,,,1,787.0522060352378,X,None,nogo,None,1,,787.852595950244,,,,,,,,,,,,,,,,,69,001,23,m,Psychologie,2023-01-25_12h02.01.304,00_bat_bachelor,2022.2.4,59.985196406715524,
,,,,,,,,,,,,0,0,0,0,126,0,126,0,,,,,,,126,,,1,788.8535782529507,Y,d,go,d,1,0.22481216304004192,,,,,,,,,,,,,,,,,,69,001,23,m,Psychologie,2023-01-25_12h02.01.304,00_bat_bachelor,2022.2.4,59.985196406715524,
,,,,,,,,,,,,0,0,0,0,127,0,127,0,,,,,,,127,,,1,790.1879126362037,X,l,go,l,1,0.23481603688560426,,,,,,,,,,,,,,,,,,69,001,23,m,Psychologie,2023-01-25_12h02.01.304,00_bat_bachelor,2022.2.4,59.985196406715524,
,,,,,,,,,,,,0,0,0,0,128,0,128,0,,,,,,,128,,,1,791.5390290720388,X,None,nogo,None,1,,,,,,,,,,,,,,,,,,,69,001,23,m,Psychologie,2023-01-25_12h02.01.304,00_bat_bachelor,2022.2.4,59.985196406715524,
,,,,,,,,,,,,0,0,0,0,129,0,129,0,,,,,,,129,,,1,793.3402951078024,Y,d,go,d,1,0.2820518927183002,,,,,,,,,,,,,,,,,,69,001,23,m,Psychologie,2023-01-25_12h02.01.304,00_bat_bachelor,2022.2.4,59.985196406715524,
,,,,,,,,,,,,0,0,0,0,130,0,130,0,,,,,,,130,,,1,794.7245848607272,X,l,go,l,1,0.24268318433314562,,,,,,,,,,,,,,,,,,69,001,23,m,Psychologie,2023-01-25_12h02.01.304,00_bat_bachelor,2022.2.4,59.985196406715524,
,,,,,,,,,,,,0,0,0,0,131,0,131,0,,,,,,,131,,,1,796.0757265088614,Y,d,go,d,1,0.34814786072820425,,,,,,,,,,,,,,,,,,69,001,23,m,Psychologie,2023-01-25_12h02.01.304,00_bat_bachelor,2022.2.4,59.985196406715524,
,,,,,,,,,,,,0,0,0,0,132,0,132,0,,,,,,,132,,,1,797.5269582900219,X,l,go,l,1,0.2723001397680491,,,,,,,,,,,,,,,,,,69,001,23,m,Psychologie,2023-01-25_12h02.01.304,00_bat_bachelor,2022.2.4,59.985196406715524,
,,,,,,,,,,,,0,0,0,0,133,0,133,0,,,,,,,133,,,1,798.9112979823258,Y,d,go,d,1,0.5038903304375708,,,,,,,,,,,,,,,,,,69,001,23,m,Psychologie,2023-01-25_12h02.01.304,00_bat_bachelor,2022.2.4,59.985196406715524,
,,,,,,,,,,,,0,0,0,0,134,0,134,0,,,,,,,134,,,1,800.5291187737603,X,l,go,l,1,0.19864005432464182,,,,,,,,,,,,,,,,,,69,001,23,m,Psychologie,2023-01-25_12h02.01.304,00_bat_bachelor,2022.2.4,59.985196406715524,
,,,,,,,,,,,,0,0,0,0,135,0,135,0,,,,,,,135,,,1,801.8300946278032,Y,d,go,d,1,0.2418671848718077,,,,,,,,,,,,,,,,,,69,001,23,m,Psychologie,2023-01-25_12h02.01.304,00_bat_bachelor,2022.2.4,59.985196406715524,
,,,,,,,,,,,,0,0,0,0,136,0,136,0,,,,,,,136,,,1,803.1809385789093,X,l,go,l,1,0.2338419766165316,,,,,,,,,,,,,,,,,,69,001,23,m,Psychologie,2023-01-25_12h02.01.304,00_bat_bachelor,2022.2.4,59.985196406715524,
,,,,,,,,,,,,0,0,0,0,137,0,137,0,,,,,,,137,,,1,804.5153389016632,Y,d,go,d,1,0.37149912212044,,,,,,,,,,,,,,,,,,69,001,23,m,Psychologie,2023-01-25_12h02.01.304,00_bat_bachelor,2022.2.4,59.985196406715524,
,,,,,,,,,,,,0,0,0,0,138,0,138,0,,,,,,,138,,,1,806.0000092121772,X,l,go,l,1,0.2309134933166206,,,,,,,,,,,,,,,,,,69,001,23,m,Psychologie,2023-01-25_12h02.01.304,00_bat_bachelor,2022.2.4,59.985196406715524,
,,,,,,,,,,,,0,0,0,0,139,0,139,0,,,,,,,139,,,1,807.3340905047953,X,None,nogo,None,1,,,,,,,,,,,,,,,,,,,69,001,23,m,Psychologie,2023-01-25_12h02.01.304,00_bat_bachelor,2022.2.4,59.985196406715524,
,,,,,,,,,,,,0,0,0,0,140,0,140,0,,,,,,,140,,,1,809.1356973887887,Y,d,go,d,1,0.24762621242552996,,,,,,,,,,,,,,,,,,69,001,23,m,Psychologie,2023-01-25_12h02.01.304,00_bat_bachelor,2022.2.4,59.985196406715524,
,,,,,,,,,,,,0,0,0,0,141,0,141,0,,,,,,,141,,,1,810.4869074004237,X,l,go,l,1,0.20921798865310848,,,,,,,,,,,,,,,,,,69,001,23,m,Psychologie,2023-01-25_12h02.01.304,00_bat_bachelor,2022.2.4,59.985196406715524,
,,,,,,,,,,,,0,0,0,0,142,0,142,0,,,,,,,142,,,1,811.8043472464196,X,None,nogo,d,0,0.2179903481155634,,,,,,,,,,,,,,,,,,69,001,23,m,Psychologie,2023-01-25_12h02.01.304,00_bat_bachelor,2022.2.4,59.985196406715524,
,,,,,,,,,,,,0,0,0,0,143,0,143,0,,,,,,,143,,,1,813.1385070844553,Y,d,go,d,1,0.4364804239012301,,,,,,,,,,,,,,,,,,69,001,23,m,Psychologie,2023-01-25_12h02.01.304,00_bat_bachelor,2022.2.4,59.985196406715524,
,,,,,,,,,,,,0,0,0,0,144,0,144,0,,,,,,,144,,,1,814.6898934836499,X,l,go,l,1,0.37420263583771884,,,,,,,,,,,,,,,,,,69,001,23,m,Psychologie,2023-01-25_12h02.01.304,00_bat_bachelor,2022.2.4,59.985196406715524,
,,,,,,,,,,,,0,0,0,0,145,0,145,0,,,,,,,145,,,1,816.1742806427646,X,None,nogo,l,0,0.4247451568953693,,,,,,,,,,,,,,,,,,69,001,23,m,Psychologie,2023-01-25_12h02.01.304,00_bat_bachelor,2022.2.4,59.985196406715524,
,,,,,,,,,,,,0,0,0,0,146,0,146,0,,,,,,,146,,,1,817.70870802016,Y,d,go,d,1,0.4414816335774958,,,,,,,,,,,,,,,,,,69,001,23,m,Psychologie,2023-01-25_12h02.01.304,00_bat_bachelor,2022.2.4,59.985196406715524,
,,,,,,,,,,,,0,0,0,0,147,0,147,0,,,,,,,147,,,1,819.259903389262,X,l,go,l,1,0.36420118622481823,,,,,,,,,,,,,,,,,,69,001,23,m,Psychologie,2023-01-25_12h02.01.304,00_bat_bachelor,2022.2.4,59.985196406715524,
,,,,,,,,,,,,0,0,0,0,148,0,148,0,,,,,,,148,,,1,820.7277688593604,X,None,nogo,None,1,,,,,,,,,,,,,,,,,,,69,001,23,m,Psychologie,2023-01-25_12h02.01.304,00_bat_bachelor,2022.2.4,59.985196406715524,
,,,,,,,,,,,,0,0,0,0,149,0,149,0,,,,,,,149,,,1,822.5292875010055,Y,d,go,d,1,0.2942012201528996,,,,,,,,,,,,,,,,,,69,001,23,m,Psychologie,2023-01-25_12h02.01.304,00_bat_bachelor,2022.2.4,59.985196406715524,
,,,,,,,,,,,,0,0,0,0,150,0,150,0,,,,,,,150,,,1,823.9302802763414,X,l,go,l,1,0.2842497096862644,,,,,,,,,,,,,,,,,,69,001,23,m,Psychologie,2023-01-25_12h02.01.304,00_bat_bachelor,2022.2.4,59.985196406715524,
,,,,,,,,,,,,0,0,0,0,151,0,151,0,,,,,,,151,,,1,825.3311814151239,X,None,nogo,None,1,,,,,,,,,,,,,,,,,,,69,001,23,m,Psychologie,2023-01-25_12h02.01.304,00_bat_bachelor,2022.2.4,59.985196406715524,
,,,,,,,,,,,,0,0,0,0,152,0,152,0,,,,,,,152,,,1,827.133470480796,Y,d,go,d,1,0.26532171899452806,,,,,,,,,,,,,,,,,,69,001,23,m,Psychologie,2023-01-25_12h02.01.304,00_bat_bachelor,2022.2.4,59.985196406715524,
,,,,,,,,,,,,0,0,0,0,153,0,153,0,,,,,,,153,,,1,828.5176787793171,X,l,go,l,1,0.20974162477068603,,,,,,,,,,,,,,,,,,69,001,23,m,Psychologie,2023-01-25_12h02.01.304,00_bat_bachelor,2022.2.4,59.985196406715524,
,,,,,,,,,,,,0,0,0,0,154,0,154,0,,,,,,,154,,,1,829.8353460193612,Y,d,go,d,1,0.33143708063289523,,,,,,,,,,,,,,,,,,69,001,23,m,Psychologie,2023-01-25_12h02.01.304,00_bat_bachelor,2022.2.4,59.985196406715524,
,,,,,,,,,,,,0,0,0,0,155,0,155,0,,,,,,,155,,,1,831.2699974449351,X,l,go,l,1,0.2399612464942038,,,,,,,,,,,,,,,,,,69,001,23,m,Psychologie,2023-01-25_12h02.01.304,00_bat_bachelor,2022.2.4,59.985196406715524,
,,,,,,,,,,,,0,0,0,0,156,0,156,0,,,,,,,156,,,1,832.6541194403544,X,None,nogo,None,1,,833.4547498400789,,,,,,,,,,,,,,,,,69,001,23,m,Psychologie,2023-01-25_12h02.01.304,00_bat_bachelor,2022.2.4,59.985196406715524,
,,,,,,,,,,,,0,0,0,0,157,0,157,0,,,,,,,157,,,1,834.4557685062755,Y,d,go,d,1,0.25561651145108044,,,,,,,,,,,,,,,,,,69,001,23,m,Psychologie,2023-01-25_12h02.01.304,00_bat_bachelor,2022.2.4,59.985196406715524,
,,,,,,,,,,,,0,0,0,0,158,0,158,0,,,,,,,158,,,1,835.8232398433611,X,l,go,l,1,0.23081361455842853,,,,,,,,,,,,,,,,,,69,001,23,m,Psychologie,2023-01-25_12h02.01.304,00_bat_bachelor,2022.2.4,59.985196406715524,
,,,,,,,,,,,,0,0,0,0,159,0,159,0,,,,,,,159,,,1,837.1742617336567,Y,d,go,d,1,0.46431604656390846,,,,,,,,,,,,,,,,,,69,001,23,m,Psychologie,2023-01-25_12h02.01.304,00_bat_bachelor,2022.2.4,59.985196406715524,
,,,,,,,,,,,,0,0,0,0,160,0,160,0,,,,,,,160,,,1,838.7590469047427,X,l,go,l,1,0.3350036246702075,,,,,,,,,,,,,,,,,,69,001,23,m,Psychologie,2023-01-25_12h02.01.304,00_bat_bachelor,2022.2.4,59.985196406715524,
,,,,,,,,,,,,0,0,0,0,161,0,161,0,,,,,,,161,,,1,840.2268275264651,Y,d,go,d,1,0.2912557669915259,,,,,,,,,,,,,,,,,,69,001,23,m,Psychologie,2023-01-25_12h02.01.304,00_bat_bachelor,2022.2.4,59.985196406715524,
,,,,,,,,,,,,0,0,0,0,162,0,162,0,,,,,,,162,,,1,841.6445519300178,Y,None,nogo,None,1,,842.4451454812661,,,,,,,,,,,,,,,,,69,001,23,m,Psychologie,2023-01-25_12h02.01.304,00_bat_bachelor,2022.2.4,59.985196406715524,
,,,,,,,,,,,,0,0,0,0,163,0,163,0,,,,,,,163,,,1,843.4459522685502,X,l,go,l,1,0.2885764956008643,,,,,,,,,,,,,,,,,,69,001,23,m,Psychologie,2023-01-25_12h02.01.304,00_bat_bachelor,2022.2.4,59.985196406715524,
,,,,,,,,,,,,0,0,0,0,164,0,164,0,,,,,,,164,,,1,844.846739953151,Y,d,go,d,1,0.23130379593931139,,,,,,,,,,,,,,,,,,69,001,23,m,Psychologie,2023-01-25_12h02.01.304,00_bat_bachelor,2022.2.4,59.985196406715524,
,,,,,,,,,,,,0,0,0,0,165,0,165,0,,,,,,,165,,,1,846.2145065627992,X,l,go,l,1,0.23891155002638698,,,,,,,,,,,,,,,,,,69,001,23,m,Psychologie,2023-01-25_12h02.01.304,00_bat_bachelor,2022.2.4,59.985196406715524,
,,,,,,,,,,,,0,0,0,0,166,0,166,0,,,,,,,166,,,1,847.5824288085569,Y,d,go,d,1,0.2635146896354854,,,,,,,,,,,,,,,,,,69,001,23,m,Psychologie,2023-01-25_12h02.01.304,00_bat_bachelor,2022.2.4,59.985196406715524,
,,,,,,,,,,,,0,0,0,0,167,0,167,0,,,,,,,167,,,1,848.9666725010611,Y,None,nogo,None,1,,849.7672335675452,,,,,,,,,,,,,,,,,69,001,23,m,Psychologie,2023-01-25_12h02.01.304,00_bat_bachelor,2022.2.4,59.985196406715524,
,,,,,,,,,,,,0,0,0,0,168,0,168,0,,,,,,,168,,,1,850.7679763550404,X,l,go,l,1,0.3265629012603313,,,,,,,,,,,,,,,,,,69,001,23,m,Psychologie,2023-01-25_12h02.01.304,00_bat_bachelor,2022.2.4,59.985196406715524,
,,,,,,,,,,,,0,0,0,0,169,0,169,0,,,,,,,169,,,1,852.2190544393379,Y,d,go,d,1,0.3470390127040446,,,,,,,,,,,,,,,,,,69,001,23,m,Psychologie,2023-01-25_12h02.01.304,00_bat_bachelor,2022.2.4,59.985196406715524,
,,,,,,,,,,,,0,0,0,0,170,0,170,0,,,,,,,170,,,1,853.6871720305644,Y,None,nogo,None,1,,854.4879750362597,,,,,,,,,,,,,,,,,69,001,23,m,Psychologie,2023-01-25_12h02.01.304,00_bat_bachelor,2022.2.4,59.985196406715524,
,,,,,,,,,,,,0,0,0,0,171,0,171,0,,,,,,,171,,,1,855.4885423085652,Y,None,nogo,None,1,,856.2891479809768,,,,,,,,,,,,,,,,,69,001,23,m,Psychologie,2023-01-25_12h02.01.304,00_bat_bachelor,2022.2.4,59.985196406715524,
,,,,,,,,,,,,0,0,0,0,172,0,172,0,,,,,,,172,,,1,857.2898384048603,X,l,go,l,1,0.2531321491114795,,,,,,,,,,,,,,,,,,69,001,23,m,Psychologie,2023-01-25_12h02.01.304,00_bat_bachelor,2022.2.4,59.985196406715524,
,,,,,,,,,,,,0,0,0,0,173,0,173,0,,,,,,,173,,,1,858.6575250145979,Y,d,go,d,1,0.2767379558645189,,,,,,,,,,,,,,,,,,69,001,23,m,Psychologie,2023-01-25_12h02.01.304,00_bat_bachelor,2022.2.4,59.985196406715524,
,,,,,,,,,,,,0,0,0,0,174,0,174,0,,,,,,,174,,,1,860.0584140322171,X,l,go,l,1,0.38050469337031245,,,,,,,,,,,,,,,,,,69,001,23,m,Psychologie,2023-01-25_12h02.01.304,00_bat_bachelor,2022.2.4,59.985196406715524,
,,,,,,,,,,,,0,0,0,0,175,0,175,0,,,,,,,175,,,1,861.5430411912967,X,None,nogo,None,1,,862.3437705000397,,,,,,,,,,,,,,,,,69,001,23,m,Psychologie,2023-01-25_12h02.01.304,00_bat_bachelor,2022.2.4,59.985196406715524,
,,,,,,,,,,,,0,0,0,0,176,0,176,0,,,,,,,176,,,1,863.3444410450757,Y,d,go,d,1,0.2618279024027288,,,,,,,,,,,,,,,,,,69,001,23,m,Psychologie,2023-01-25_12h02.01.304,00_bat_bachelor,2022.2.4,59.985196406715524,
,,,,,,,,,,,,0,0,0,0,177,0,177,0,,,,,,,177,,,1,864.7288267982658,X,l,go,l,1,0.2531816035043448,,,,,,,,,,,,,,,,,,69,001,23,m,Psychologie,2023-01-25_12h02.01.304,00_bat_bachelor,2022.2.4,59.985196406715524,
,,,,,,,,,,,,0,0,0,0,178,0,178,0,,,,,,,178,,,1,866.11317715724,Y,d,go,d,1,0.3254802352748811,,,,,,,,,,,,,,,,,,69,001,23,m,Psychologie,2023-01-25_12h02.01.304,00_bat_bachelor,2022.2.4,59.985196406715524,
,,,,,,,,,,,,0,0,0,0,179,0,179,0,,,,,,,179,,,1,867.5642649384681,Y,None,nogo,None,1,,868.3650218837429,,,,,,,,,,,,,,,,,69,001,23,m,Psychologie,2023-01-25_12h02.01.304,00_bat_bachelor,2022.2.4,59.985196406715524,
,,,,,,,,,,,,0,0,0,0,180,0,180,0,,,,,,,180,,,1,869.3656560650561,X,l,go,l,1,0.2891646164935082,,,,,,,,,,,,,,,,,,69,001,23,m,Psychologie,2023-01-25_12h02.01.304,00_bat_bachelor,2022.2.4,59.985196406715524,
,,,,,,,,,,,,0,0,0,0,181,0,181,0,,,,,,,181,,,1,870.7667555070948,Y,d,go,d,1,0.35995827917940915,,,,,,,,,,,,,,,,,,69,001,23,m,Psychologie,2023-01-25_12h02.01.304,00_bat_bachelor,2022.2.4,59.985196406715524,
,,,,,,,,,,,,0,0,0,0,182,0,182,0,,,,,,,182,,,1,872.2342714015394,X,l,go,l,1,0.25173918018117547,,,,,,,,,,,,,,,,,,69,001,23,m,Psychologie,2023-01-25_12h02.01.304,00_bat_bachelor,2022.2.4,59.985196406715524,
,,,,,,,,,,,,0,0,0,0,183,0,183,0,,,,,,,183,,,1,873.6022174051031,Y,d,go,d,1,0.2929561296477914,,,,,,,,,,,,,,,,,,69,001,23,m,Psychologie,2023-01-25_12h02.01.304,00_bat_bachelor,2022.2.4,59.985196406715524,
,,,,,,,,,,,,0,0,0,0,184,0,184,0,,,,,,,184,,,1,875.0199607175309,Y,None,nogo,None,1,,875.8206342689227,,,,,,,,,,,,,,,,,69,001,23,m,Psychologie,2023-01-25_12h02.01.304,00_bat_bachelor,2022.2.4,59.985196406715524,
,,,,,,,,,,,,0,0,0,0,185,0,185,0,,,,,,,185,,,1,876.8211268745363,X,l,go,l,1,0.3043209726456553,,,,,,,,,,,,,,,,,,69,001,23,m,Psychologie,2023-01-25_12h02.01.304,00_bat_bachelor,2022.2.4,59.985196406715524,
,,,,,,,,,,,,0,0,0,0,186,0,186,0,,,,,,,186,,,1,878.272469201358,Y,d,go,d,1,0.3263747801538557,,,,,,,,,,,,,,,,,,69,001,23,m,Psychologie,2023-01-25_12h02.01.304,00_bat_bachelor,2022.2.4,59.985196406715524,
,,,,,,,,,,,,0,0,0,0,187,0,187,0,,,,,,,187,,,1,879.7067739604972,Y,None,nogo,None,1,,880.5073917540722,,,,,,,,,,,,,,,,,69,001,23,m,Psychologie,2023-01-25_12h02.01.304,00_bat_bachelor,2022.2.4,59.985196406715524,
,,,,,,,,,,,,0,0,0,0,188,0,188,0,,,,,,,188,,,1,881.508287753677,X,l,go,l,1,0.3072785472031683,,,,,,,,,,,,,,,,,,69,001,23,m,Psychologie,2023-01-25_12h02.01.304,00_bat_bachelor,2022.2.4,59.985196406715524,
,,,,,,,,,,,,0,0,0,0,189,0,189,0,,,,,,,189,,,1,882.9260228236672,Y,d,go,d,1,0.36141282389871776,,,,,,,,,,,,,,,,,,69,001,23,m,Psychologie,2023-01-25_12h02.01.304,00_bat_bachelor,2022.2.4,59.985196406715524,
,,,,,,,,,,,,0,0,0,0,190,0,190,0,,,,,,,190,,,1,884.3935702333692,X,l,go,l,1,0.2527209979016334,,,,,,,,,,,,,,,,,,69,001,23,m,Psychologie,2023-01-25_12h02.01.304,00_bat_bachelor,2022.2.4,59.985196406715524,
,,,,,,,,,,,,0,0,0,0,191,0,191,0,,,,,,,191,,,1,885.7612461764365,X,None,nogo,None,1,,886.5619837276172,,,,,,,,,,,,,,,,,69,001,23,m,Psychologie,2023-01-25_12h02.01.304,00_bat_bachelor,2022.2.4,59.985196406715524,
,,,,,,,,,,,,0,0,0,0,192,0,192,0,,,,,,,192,,,1,887.5626649393234,Y,d,go,d,1,0.34781089099124074,,,,,,,,,,,,,,,,,,69,001,23,m,Psychologie,2023-01-25_12h02.01.304,00_bat_bachelor,2022.2.4,59.985196406715524,
,,,,,,,,,,,,0,0,0,0,193,0,193,0,,,,,,,193,,,1,889.0306957426947,X,l,go,l,1,0.3849716002587229,,,,,,,,,,,,,,,,,,69,001,23,m,Psychologie,2023-01-25_12h02.01.304,00_bat_bachelor,2022.2.4,59.985196406715524,
,,,,,,,,,,,,0,0,0,0,194,0,194,0,,,,,,,194,,,1,890.5317408330739,Y,d,go,d,1,0.2904266766272485,,,,,,,,,,,,,,,,,,69,001,23,m,Psychologie,2023-01-25_12h02.01.304,00_bat_bachelor,2022.2.4,59.985196406715524,
,,,,,,,,,,,,0,0,0,0,195,0,195,0,,,,,,,195,,,1,891.9662647435907,X,l,go,l,1,0.2645997800864279,,,,,,,,,,,,,,,,,,69,001,23,m,Psychologie,2023-01-25_12h02.01.304,00_bat_bachelor,2022.2.4,59.985196406715524,
,,,,,,,,,,,,0,0,0,0,196,0,196,0,,,,,,,196,,,1,893.3506204360165,Y,d,go,d,1,0.3199224197305739,,,,,,,,,,,,,,,,,,69,001,23,m,Psychologie,2023-01-25_12h02.01.304,00_bat_bachelor,2022.2.4,59.985196406715524,
,,,,,,,,,,,,0,0,0,0,197,0,197,0,,,,,,,197,,,1,894.8183365729637,Y,None,nogo,l,0,0.2767510467674583,,,,,,,,,,,,,,,,,,69,001,23,m,Psychologie,2023-01-25_12h02.01.304,00_bat_bachelor,2022.2.4,59.985196406715524,
,,,,,,,,,,,,0,0,0,0,198,0,198,0,,,,,,,198,,,1,896.2025846291799,X,l,go,l,1,0.524595774943009,,,,,,,,,,,,,,,,,,69,001,23,m,Psychologie,2023-01-25_12h02.01.304,00_bat_bachelor,2022.2.4,59.985196406715524,
,,,,,,,,,,,,0,0,0,0,199,0,199,0,,,,,,,199,,,1,897.8373940181918,Y,d,go,d,1,0.2970089763402939,,,,,,,,,,,,,,,,,,69,001,23,m,Psychologie,2023-01-25_12h02.01.304,00_bat_bachelor,2022.2.4,59.985196406715524,
,,,,,,,,,,,,0,0,0,0,200,0,200,0,,,,,,,200,,,1,899.2719058075454,Y,None,nogo,None,1,,900.0721871166024,,,,,,,,,,,,,,,,,69,001,23,m,Psychologie,2023-01-25_12h02.01.304,00_bat_bachelor,2022.2.4,59.985196406715524,
,,,,,,,,,,,,0,0,0,0,201,0,201,0,,,,,,,201,,,1,901.0729357223026,X,l,go,l,1,0.32523732632398605,,,,,,,,,,,,,,,,,,69,001,23,m,Psychologie,2023-01-25_12h02.01.304,00_bat_bachelor,2022.2.4,59.985196406715524,
,,,,,,,,,,,,0,0,0,0,202,0,202,0,,,,,,,202,,,1,902.5238048369065,Y,d,go,d,1,0.5704696921166033,,,,,,,,,,,,,,,,,,69,001,23,m,Psychologie,2023-01-25_12h02.01.304,00_bat_bachelor,2022.2.4,59.985196406715524,
,,,,,,,,,,,,0,0,0,0,203,0,203,0,,,,,,,203,,,1,904.208521110937,X,l,go,l,1,0.2942627959419042,,,,,,,,,,,,,,,,,,69,001,23,m,Psychologie,2023-01-25_12h02.01.304,00_bat_bachelor,2022.2.4,59.985196406715524,
,,,,,,,,,,,,0,0,0,0,204,0,204,0,,,,,,,204,,,1,905.6097655226476,Y,d,go,d,1,0.574051266303286,,,,,,,,,,,,,,,,,,69,001,23,m,Psychologie,2023-01-25_12h02.01.304,00_bat_bachelor,2022.2.4,59.985196406715524,
,,,,,,,,,,,,0,0,0,0,205,0,205,0,,,,,,,205,,,1,907.2942476149183,X,l,go,l,1,0.34507440752349794,,,,,,,,,,,,,,,,,,69,001,23,m,Psychologie,2023-01-25_12h02.01.304,00_bat_bachelor,2022.2.4,59.985196406715524,
,,,,,,,,,,,,0,0,0,0,206,0,206,0,,,,,,,206,,,1,908.7454018204007,Y,d,go,d,1,0.4618733813986182,,,,,,,,,,,,,,,,,,69,001,23,m,Psychologie,2023-01-25_12h02.01.304,00_bat_bachelor,2022.2.4,59.985196406715524,
,,,,,,,,,,,,0,0,0,0,207,0,207,0,,,,,,,207,,,1,910.3130897877272,X,l,go,l,1,0.26916947471909225,,,,,,,,,,,,,,,,,,69,001,23,m,Psychologie,2023-01-25_12h02.01.304,00_bat_bachelor,2022.2.4,59.985196406715524,
,,,,,,,,,,,,0,0,0,0,208,0,208,0,,,,,,,208,,,1,911.6974406316876,Y,d,go,d,1,0.3895970524754375,,,,,,,,,,,,,,,,,,69,001,23,m,Psychologie,2023-01-25_12h02.01.304,00_bat_bachelor,2022.2.4,59.985196406715524,
,,,,,,,,,,,,0,0,0,0,209,0,209,0,,,,,,,209,,,1,913.1985739644151,X,l,go,l,1,0.24759227316826582,,,,,,,,,,,,,,,,,,69,001,23,m,Psychologie,2023-01-25_12h02.01.304,00_bat_bachelor,2022.2.4,59.985196406715524,
,,,,,,,,,,,,0,0,0,0,210,0,210,0,,,,,,,210,,,1,914.5662954831496,X,None,nogo,d,0,0.20845095859840512,,,,,,,,,,,,,,,,,,69,001,23,m,Psychologie,2023-01-25_12h02.01.304,00_bat_bachelor,2022.2.4,59.985196406715524,
,,,,,,,,,,,,0,0,0,0,211,0,211,0,,,,,,,211,,,1,915.9008591996972,Y,d,go,d,1,0.36189379333518445,,,,,,,,,,,,,,,,,,69,001,23,m,Psychologie,2023-01-25_12h02.01.304,00_bat_bachelor,2022.2.4,59.985196406715524,
,,,,,,,,,,,,0,0,0,0,212,0,212,0,,,,,,,212,,,1,917.3686858818401,X,l,go,l,1,0.39779389719478786,,,,,,,,,,,,,,,,,,69,001,23,m,Psychologie,2023-01-25_12h02.01.304,00_bat_bachelor,2022.2.4,59.985196406715524,
,,,,,,,,,,,,0,0,0,0,213,0,213,0,,,,,,,213,,,1,918.8697649117094,X,None,nogo,None,1,,919.6703880387358,,,,,,,,,,,,,,,,,69,001,23,m,Psychologie,2023-01-25_12h02.01.304,00_bat_bachelor,2022.2.4,59.985196406715524,
,,,,,,,,,,,,0,0,0,0,214,0,214,0,,,,,,,214,,,1,920.6711356746964,Y,d,go,d,1,0.3116421813610941,,,,,,,,,,,,,,,,,,69,001,23,m,Psychologie,2023-01-25_12h02.01.304,00_bat_bachelor,2022.2.4,59.985196406715524,
,,,,,,,,,,,,0,0,0,0,215,0,215,0,,,,,,,215,,,1,922.088887714548,X,l,go,l,1,0.2858327392023057,,,,,,,,,,,,,,,,,,69,001,23,m,Psychologie,2023-01-25_12h02.01.304,00_bat_bachelor,2022.2.4,59.985196406715524,
,,,,,,,,,,,,0,0,0,0,216,0,216,0,,,,,,,216,,,1,923.4897549140733,X,None,nogo,None,1,,924.2905899197794,,,,,,,,,,,,,,,,,69,001,23,m,Psychologie,2023-01-25_12h02.01.304,00_bat_bachelor,2022.2.4,59.985196406715524,
,,,,,,,,,,,,0,0,0,0,217,0,217,0,,,,,,,217,,,1,925.2913322225213,Y,d,go,d,1,0.33181623206473887,,,,,,,,,,,,,,,,,,69,001,23,m,Psychologie,2023-01-25_12h02.01.304,00_bat_bachelor,2022.2.4,59.985196406715524,
,,,,,,,,,,,,0,0,0,0,218,0,218,0,,,,,,,218,,,1,926.7257208602969,X,l,go,l,1,0.3680271238554269,,,,,,,,,,,,,,,,,,69,001,23,m,Psychologie,2023-01-25_12h02.01.304,00_bat_bachelor,2022.2.4,59.985196406715524,
,,,,,,,,,,,,0,0,0,0,219,0,219,0,,,,,,,219,,,1,928.2266830415465,Y,d,go,d,1,0.3717066370882094,,,,,,,,,,,,,,,,,,69,001,23,m,Psychologie,2023-01-25_12h02.01.304,00_bat_bachelor,2022.2.4,59.985196406715524,
,,,,,,,,,,,,0,0,0,0,220,0,220,0,,,,,,,220,,,1,929.7114231702872,X,l,go,l,1,0.24679421284236014,,,,,,,,,,,,,,,,,,69,001,23,m,Psychologie,2023-01-25_12h02.01.304,00_bat_bachelor,2022.2.4,59.985196406715524,
,,,,,,,,,,,,0,0,0,0,221,0,221,0,,,,,,,221,,,1,931.0957148626912,Y,d,go,d,1,0.33505501854233444,,,,,,,,,,,,,,,,,,69,001,23,m,Psychologie,2023-01-25_12h02.01.304,00_bat_bachelor,2022.2.4,59.985196406715524,
,,,,,,,,,,,,0,0,0,0,222,0,222,0,,,,,,,222,,,1,932.5465631289408,Y,None,nogo,l,0,0.21231859317049384,,,,,,,,,,,,,,,,,,69,001,23,m,Psychologie,2023-01-25_12h02.01.304,00_bat_bachelor,2022.2.4,59.985196406715524,
,,,,,,,,,,,,0,0,0,0,223,0,223,0,,,,,,,223,,,1,933.8638279447332,X,l,go,l,1,0.49614875856786966,,,,,,,,,,,,,,,,,,69,001,23,m,Psychologie,2023-01-25_12h02.01.304,00_bat_bachelor,2022.2.4,59.985196406715524,
,,,,,,,,,,,,0,0,0,0,224,0,224,0,,,,,,,224,,,1,935.4653209864628,Y,d,go,d,1,0.2861294662579894,,,,,,,,,,,,,,,,,,69,001,23,m,Psychologie,2023-01-25_12h02.01.304,00_bat_bachelor,2022.2.4,59.985196406715524,
,,,,,,,,,,,,0,0,0,0,225,0,225,0,,,,,,,225,,,1,936.8661847922485,Y,None,nogo,None,1,,,,,,,,,,,,,,,,,,,69,001,23,m,Psychologie,2023-01-25_12h02.01.304,00_bat_bachelor,2022.2.4,59.985196406715524,
,,,,,,,,,,,,0,0,0,0,226,0,226,0,,,,,,,226,,,1,938.6674610096961,X,l,go,l,1,0.3634462773334235,,,,,,,,,,,,,,,,,,69,001,23,m,Psychologie,2023-01-25_12h02.01.304,00_bat_bachelor,2022.2.4,59.985196406715524,
,,,,,,,,,,,,0,0,0,0,227,0,227,0,,,,,,,227,,,1,940.1354859948624,Y,d,go,d,1,0.3828804499935359,,,,,,,,,,,,,,,,,,69,001,23,m,Psychologie,2023-01-25_12h02.01.304,00_bat_bachelor,2022.2.4,59.985196406715524,
,,,,,,,,,,,,0,0,0,0,228,0,228,0,,,,,,,228,,,1,941.6199546086136,X,l,go,l,1,0.2909464337863028,,,,,,,,,,,,,,,,,,69,001,23,m,Psychologie,2023-01-25_12h02.01.304,00_bat_bachelor,2022.2.4,59.985196406715524,
,,,,,,,,,,,,0,0,0,0,229,0,229,0,,,,,,,229,,,1,943.0211461714935,X,None,nogo,None,1,,,,,,,,,,,,,,,,,,,69,001,23,m,Psychologie,2023-01-25_12h02.01.304,00_bat_bachelor,2022.2.4,59.985196406715524,
,,,,,,,,,,,,0,0,0,0,230,0,230,0,,,,,,,230,,,1,944.8225116012618,Y,d,go,d,1,0.30418473039753735,,,,,,,,,,,,,,,,,,69,001,23,m,Psychologie,2023-01-25_12h02.01.304,00_bat_bachelor,2022.2.4,59.985196406715524,
,,,,,,,,,,,,0,0,0,0,231,0,231,0,,,,,,,231,,,1,946.2401909139007,X,l,go,l,1,0.35867730993777514,,,,,,,,,,,,,,,,,,69,001,23,m,Psychologie,2023-01-25_12h02.01.304,00_bat_bachelor,2022.2.4,59.985196406715524,
,,,,,,,,,,,,0,0,0,0,232,0,232,0,,,,,,,232,,,1,947.7078076568432,Y,d,go,d,1,0.3310264144092798,,,,,,,,,,,,,,,,,,69,001,23,m,Psychologie,2023-01-25_12h02.01.304,00_bat_bachelor,2022.2.4,59.985196406715524,
,,,,,,,,,,,,0,0,0,0,233,0,233,0,,,,,,,233,,,1,949.142426597653,X,l,go,l,1,0.24052415532059968,,,,,,,,,,,,,,,,,,69,001,23,m,Psychologie,2023-01-25_12h02.01.304,00_bat_bachelor,2022.2.4,59.985196406715524,
,,,,,,,,,,,,0,0,0,0,234,0,234,0,,,,,,,234,,,1,950.4935105487239,Y,d,go,d,1,0.31402375595644116,,,,,,,,,,,,,,,,,,69,001,23,m,Psychologie,2023-01-25_12h02.01.304,00_bat_bachelor,2022.2.4,59.985196406715524,
,,,,,,,,,,,,0,0,0,0,235,0,235,0,,,,,,,235,,,1,951.911159315845,X,l,go,l,1,0.25602135993540287,,,,,,,,,,,,,,,,,,69,001,23,m,Psychologie,2023-01-25_12h02.01.304,00_bat_bachelor,2022.2.4,59.985196406715524,
,,,,,,,,,,,,0,0,0,0,236,0,236,0,,,,,,,236,,,1,953.278826046735,X,None,nogo,None,1,,,,,,,,,,,,,,,,,,,69,001,23,m,Psychologie,2023-01-25_12h02.01.304,00_bat_bachelor,2022.2.4,59.985196406715524,
,,,,,,,,,,,,0,0,0,0,237,0,237,0,,,,,,,237,,,1,955.0802923247684,Y,d,go,d,1,0.4794476756360382,,,,,,,,,,,,,,,,,,69,001,23,m,Psychologie,2023-01-25_12h02.01.304,00_bat_bachelor,2022.2.4,59.985196406715524,
,,,,,,,,,,,,0,0,0,0,238,0,238,0,,,,,,,238,,,1,956.6646454960573,X,l,go,l,1,0.23860415630042553,,,,,,,,,,,,,,,,,,69,001,23,m,Psychologie,2023-01-25_12h02.01.304,00_bat_bachelor,2022.2.4,59.985196406715524,
,,,,,,,,,,,,0,0,0,0,239,0,239,0,,,,,,,239,,,1,958.0157638711389,X,None,nogo,None,1,,,,,,,,,,,,,,,,,,,69,001,23,m,Psychologie,2023-01-25_12h02.01.304,00_bat_bachelor,2022.2.4,59.985196406715524,
,,,,,,,,,,,,0,0,0,0,240,0,240,0,,,,,,,240,,,1,959.8171656643972,Y,d,go,d,1,0.30121309543028474,,,,,,,,,,,,,,,,,,69,001,23,m,Psychologie,2023-01-25_12h02.01.304,00_bat_bachelor,2022.2.4,59.985196406715524,
,,,,,,,,,,,,0,0,0,0,241,0,241,0,,,,,,,241,,,1,961.2347460680176,X,l,go,l,1,0.228310827864334,,,,,,,,,,,,,,,,,,69,001,23,m,Psychologie,2023-01-25_12h02.01.304,00_bat_bachelor,2022.2.4,59.985196406715524,
,,,,,,,,,,,,0,0,0,0,242,0,242,0,,,,,,,242,,,1,962.5690610574093,Y,d,go,d,1,0.30110642896033823,,,,,,,,,,,,,,,,,,69,001,23,m,Psychologie,2023-01-25_12h02.01.304,00_bat_bachelor,2022.2.4,59.985196406715524,
,,,,,,,,,,,,0,0,0,0,243,0,243,0,,,,,,,243,,,1,963.986707885284,Y,None,nogo,None,1,,,,,,,,,,,,,,,,,,,69,001,23,m,Psychologie,2023-01-25_12h02.01.304,00_bat_bachelor,2022.2.4,59.985196406715524,
,,,,,,,,,,,,0,0,0,0,244,0,244,0,,,,,,,244,,,1,965.7885014358908,Y,None,nogo,None,1,,,,,,,,,,,,,,,,,,,69,001,23,m,Psychologie,2023-01-25_12h02.01.304,00_bat_bachelor,2022.2.4,59.985196406715524,
,,,,,,,,,,,,0,0,0,0,245,0,245,0,,,,,,,245,,,1,967.589748077793,X,l,go,l,1,0.2901265553664416,,,,,,,,,,,,,,,,,,69,001,23,m,Psychologie,2023-01-25_12h02.01.304,00_bat_bachelor,2022.2.4,59.985196406715524,
,,,,,,,,,,,,0,0,0,0,246,0,246,0,,,,,,,246,,,1,968.9908470348455,Y,d,go,d,1,0.2966181884985417,,,,,,,,,,,,,,,,,,69,001,23,m,Psychologie,2023-01-25_12h02.01.304,00_bat_bachelor,2022.2.4,59.985196406715524,
,,,,,,,,,,,,0,0,0,0,247,0,247,0,,,,,,,247,,,1,970.3917825978715,X,l,go,l,1,0.2542817243374884,,,,,,,,,,,,,,,,,,69,001,23,m,Psychologie,2023-01-25_12h02.01.304,00_bat_bachelor,2022.2.4,59.985196406715524,
,,,,,,,,,,,,0,0,0,0,248,0,248,0,,,,,,,248,,,1,971.759558419697,Y,d,go,d,1,0.2787670458201319,,,,,,,,,,,,,,,,,,69,001,23,m,Psychologie,2023-01-25_12h02.01.304,00_bat_bachelor,2022.2.4,59.985196406715524,
,,,,,,,,,,,,0,0,0,0,249,0,249,0,,,,,,,249,,,1,973.1440750816837,X,l,go,l,1,0.3510128289926797,,,,,,,,,,,,,,,,,,69,001,23,m,Psychologie,2023-01-25_12h02.01.304,00_bat_bachelor,2022.2.4,59.985196406715524,
,,,,,,,,,,,,1,0,1,0,0,0,0,0,,,,,,,0,,,0.2,984.16901664529,X,l,go,None,0,,,,,,,,,,973.6147851564456,space,10.332646292401478,,,,,,,69,001,23,m,Psychologie,2023-01-25_12h02.01.304,00_bat_bachelor,2022.2.4,59.985196406715524,
,,,,,,,,,,,,1,0,1,0,1,0,1,0,,,,,,,1,,,0.2,985.1696042814292,Y,d,go,d,1,0.3888566892128438,,,,,,,,,,,,,,,,,,69,001,23,m,Psychologie,2023-01-25_12h02.01.304,00_bat_bachelor,2022.2.4,59.985196406715524,
,,,,,,,,,,,,1,0,1,0,2,0,2,0,,,,,,,2,,,0.2,985.8703462446574,X,l,go,l,1,0.34487852873280644,,,,,,,,,,,,,,,,,,69,001,23,m,Psychologie,2023-01-25_12h02.01.304,00_bat_bachelor,2022.2.4,59.985196406715524,
,,,,,,,,,,,,1,0,1,0,3,0,3,0,,,,,,,3,,,0.2,986.5207357476465,Y,d,go,d,1,0.3494361024349928,,,,,,,,,,,,,,,,,,69,001,23,m,Psychologie,2023-01-25_12h02.01.304,00_bat_bachelor,2022.2.4,59.985196406715524,
,,,,,,,,,,,,1,0,1,0,4,0,4,0,,,,,,,4,,,0.2,987.1714020988438,X,l,go,l,1,0.27582935034297407,,,,,,,,,,,,,,,,,,69,001,23,m,Psychologie,2023-01-25_12h02.01.304,00_bat_bachelor,2022.2.4,59.985196406715524,
,,,,,,,,,,,,1,0,1,0,5,0,5,0,,,,,,,5,,,0.2,987.7550750279333,Y,d,go,d,1,0.315962664084509,,,,,,,,,,,,,,,,,,69,001,23,m,Psychologie,2023-01-25_12h02.01.304,00_bat_bachelor,2022.2.4,59.985196406715524,
,,,,,,,,,,,,1,0,1,0,6,0,6,0,,,,,,,6,,,0.2,988.3722422437277,Y,None,nogo,l,0,0.29146958515048027,,,,,,,,,,,,,,,,,,69,001,23,m,Psychologie,2023-01-25_12h02.01.304,00_bat_bachelor,2022.2.4,59.985196406715524,
,,,,,,,,,,,,1,0,1,0,7,0,7,0,,,,,,,7,,,0.2,988.9726855889894,X,l,go,l,1,0.5070748140569776,,,,,,,,,,,,,,,,,,69,001,23,m,Psychologie,2023-01-25_12h02.01.304,00_bat_bachelor,2022.2.4,59.985196406715524,
,,,,,,,,,,,,1,0,1,0,8,0,8,0,,,,,,,8,,,0.2,989.7899913745932,Y,d,go,d,1,0.3451868921983987,,,,,,,,,,,,,,,,,,69,001,23,m,Psychologie,2023-01-25_12h02.01.304,00_bat_bachelor,2022.2.4,59.985196406715524,
,,,,,,,,,,,,1,0,1,0,9,0,9,0,,,,,,,9,,,0.2,990.440330453217,Y,None,nogo,None,1,,,,,,,,,,,,,,,,,,,69,001,23,m,Psychologie,2023-01-25_12h02.01.304,00_bat_bachelor,2022.2.4,59.985196406715524,
,,,,,,,,,,,,1,0,1,0,10,0,10,0,,,,,,,10,,,0.2,991.4412826951593,X,l,go,l,1,0.3255752653349191,,,,,,,,,,,,,,,,,,69,001,23,m,Psychologie,2023-01-25_12h02.01.304,00_bat_bachelor,2022.2.4,59.985196406715524,
,,,,,,,,,,,,1,0,1,0,11,0,11,0,,,,,,,11,,,0.2,992.0752261453308,Y,d,go,d,1,0.3640474893618375,,,,,,,,,,,,,,,,,,69,001,23,m,Psychologie,2023-01-25_12h02.01.304,00_bat_bachelor,2022.2.4,59.985196406715524,
,,,,,,,,,,,,1,0,1,0,12,0,12,0,,,,,,,12,,,0.2,992.7421906704549,X,l,go,l,1,0.43227242585271597,,,,,,,,,,,,,,,,,,69,001,23,m,Psychologie,2023-01-25_12h02.01.304,00_bat_bachelor,2022.2.4,59.985196406715524,
,,,,,,,,,,,,1,0,1,0,13,0,13,0,,,,,,,13,,,0.2,993.4761587993708,Y,d,go,d,1,0.3715553644578904,,,,,,,,,,,,,,,,,,69,001,23,m,Psychologie,2023-01-25_12h02.01.304,00_bat_bachelor,2022.2.4,59.985196406715524,
,,,,,,,,,,,,1,0,1,0,14,0,14,0,,,,,,,14,,,0.2,994.1598331346177,X,l,go,l,1,0.42253036983311176,,,,,,,,,,,,,,,,,,69,001,23,m,Psychologie,2023-01-25_12h02.01.304,00_bat_bachelor,2022.2.4,59.985196406715524,
,,,,,,,,,,,,1,0,1,0,15,0,15,0,,,,,,,15,,,0.2,994.8937682940159,X,None,nogo,None,1,,995.6944976027589,,,,,,,,,,,,,,,,,69,001,23,m,Psychologie,2023-01-25_12h02.01.304,00_bat_bachelor,2022.2.4,59.985196406715524,
,,,,,,,,,,,,1,0,1,0,16,0,16,0,,,,,,,16,,,0.2,995.8946385965683,Y,d,go,d,1,0.3040746699552983,,,,,,,,,,,,,,,,,,69,001,23,m,Psychologie,2023-01-25_12h02.01.304,00_bat_bachelor,2022.2.4,59.985196406715524,
,,,,,,,,,,,,1,0,1,0,17,0,17,0,,,,,,,17,,,0.2,996.5118324791547,X,l,go,l,1,0.29536582552827895,,,,,,,,,,,,,,,,,,69,001,23,m,Psychologie,2023-01-25_12h02.01.304,00_bat_bachelor,2022.2.4,59.985196406715524,
,,,,,,,,,,,,1,0,1,0,18,0,18,0,,,,,,,18,,,0.2,997.1122011577245,Y,d,go,d,1,0.28729795082472265,,,,,,,,,,,,,,,,,,69,001,23,m,Psychologie,2023-01-25_12h02.01.304,00_bat_bachelor,2022.2.4,59.985196406715524,
,,,,,,,,,,,,1,0,1,0,19,0,19,0,,,,,,,19,,,0.2,997.712834563572,X,l,go,l,1,0.27935953019186854,,,,,,,,,,,,,,,,,,69,001,23,m,Psychologie,2023-01-25_12h02.01.304,00_bat_bachelor,2022.2.4,59.985196406715524,
,,,,,,,,,,,,1,0,1,0,20,0,20,0,,,,,,,20,,,0.2,998.2965137956198,Y,d,go,d,1,0.2386497319675982,,,,,,,,,,,,,,,,,,69,001,23,m,Psychologie,2023-01-25_12h02.01.304,00_bat_bachelor,2022.2.4,59.985196406715524,
,,,,,,,,,,,,1,0,1,0,21,0,21,0,,,,,,,21,,,0.2,998.846947953105,Y,None,nogo,None,1,,,,,,,,,,,,,,,,,,,69,001,23,m,Psychologie,2023-01-25_12h02.01.304,00_bat_bachelor,2022.2.4,59.985196406715524,
,,,,,,,,,,,,1,0,1,0,22,0,22,0,,,,,,,22,,,0.2,999.847536558751,X,l,go,l,1,0.28790013235993683,,,,,,,,,,,,,,,,,,69,001,23,m,Psychologie,2023-01-25_12h02.01.304,00_bat_bachelor,2022.2.4,59.985196406715524,
,,,,,,,,,,,,1,0,1,0,23,0,23,0,,,,,,,23,,,0.2,1000.448158812942,Y,d,go,d,1,0.2631641442421824,,,,,,,,,,,,,,,,,,69,001,23,m,Psychologie,2023-01-25_12h02.01.304,00_bat_bachelor,2022.2.4,59.985196406715524,
,,,,,,,,,,,,1,0,1,0,24,0,24,0,,,,,,,24,,,0.2,1001.0152087199967,X,l,go,l,1,0.23897361056879163,,,,,,,,,,,,,,,,,,69,001,23,m,Psychologie,2023-01-25_12h02.01.304,00_bat_bachelor,2022.2.4,59.985196406715524,
,,,,,,,,,,,,1,0,1,0,25,0,25,0,,,,,,,25,,,0.2,1001.5830915961415,Y,d,go,d,1,0.26335129560902715,,,,,,,,,,,,,,,,,,69,001,23,m,Psychologie,2023-01-25_12h02.01.304,00_bat_bachelor,2022.2.4,59.985196406715524,
,,,,,,,,,,,,1,0,1,0,26,0,26,0,,,,,,,26,,,0.2,1002.1833400323521,X,l,go,l,1,0.2700911711435765,,,,,,,,,,,,,,,,,,69,001,23,m,Psychologie,2023-01-25_12h02.01.304,00_bat_bachelor,2022.2.4,59.985196406715524,
,,,,,,,,,,,,1,0,1,0,27,0,27,0,,,,,,,27,,,0.2,1002.800597429974,X,None,nogo,None,1,,1003.6013674661517,,,,,,,,,,,,,,,,,69,001,23,m,Psychologie,2023-01-25_12h02.01.304,00_bat_bachelor,2022.2.4,59.985196406715524,
,,,,,,,,,,,,1,0,1,0,28,0,28,0,,,,,,,28,,,0.2,1003.8014871266205,Y,d,go,d,1,0.2367554297670722,,,,,,,,,,,,,,,,,,69,001,23,m,Psychologie,2023-01-25_12h02.01.304,00_bat_bachelor,2022.2.4,59.985196406715524,
,,,,,,,,,,,,1,0,1,0,29,0,29,0,,,,,,,29,,,0.2,1004.3683493970893,X,l,go,l,1,0.19796320609748363,,,,,,,,,,,,,,,,,,69,001,23,m,Psychologie,2023-01-25_12h02.01.304,00_bat_bachelor,2022.2.4,59.985196406715524,
,,,,,,,,,,,,1,0,1,0,30,0,30,0,,,,,,,30,,,0.2,1004.9021450171713,X,None,nogo,d,0,0.24011009489186108,,,,,,,,,,,,,,,,,,69,001,23,m,Psychologie,2023-01-25_12h02.01.304,00_bat_bachelor,2022.2.4,59.985196406715524,
,,,,,,,,,,,,1,0,1,0,31,0,31,0,,,,,,,31,,,0.2,1005.4860535825137,Y,d,go,d,1,0.5359678906388581,,,,,,,,,,,,,,,,,,69,001,23,m,Psychologie,2023-01-25_12h02.01.304,00_bat_bachelor,2022.2.4,59.985196406715524,
,,,,,,,,,,,,1,0,1,0,32,0,32,0,,,,,,,32,,,0.2,1006.3533574044704,X,l,go,l,1,0.34188410616479814,,,,,,,,,,,,,,,,,,69,001,23,m,Psychologie,2023-01-25_12h02.01.304,00_bat_bachelor,2022.2.4,59.985196406715524,
,,,,,,,,,,,,1,0,1,0,33,0,33,0,,,,,,,33,,,0.2,1007.0204145356547,X,None,nogo,l,0,0.5370520113501698,,,,,,,,,,,,,,,,,,69,001,23,m,Psychologie,2023-01-25_12h02.01.304,00_bat_bachelor,2022.2.4,59.985196406715524,
,,,,,,,,,,,,1,0,1,0,34,0,34,0,,,,,,,34,,,0.2,1007.9042201677803,Y,d,go,d,1,0.3907970520667732,,,,,,,,,,,,,,,,,,69,001,23,m,Psychologie,2023-01-25_12h02.01.304,00_bat_bachelor,2022.2.4,59.985196406715524,
,,,,,,,,,,,,1,0,1,0,35,0,35,0,,,,,,,35,,,0.2,1008.6048932825215,X,l,go,l,1,0.5859426544047892,,,,,,,,,,,,,,,,,,69,001,23,m,Psychologie,2023-01-25_12h02.01.304,00_bat_bachelor,2022.2.4,59.985196406715524,
,,,,,,,,,,,,1,0,1,0,36,0,36,0,,,,,,,36,,,0.2,1009.5054067852907,Y,d,go,d,1,0.3249110234901309,,,,,,,,,,,,,,,,,,69,001,23,m,Psychologie,2023-01-25_12h02.01.304,00_bat_bachelor,2022.2.4,59.985196406715524,
,,,,,,,,,,,,1,0,1,0,37,0,37,0,,,,,,,37,,,0.2,1010.1392765385099,X,l,go,l,1,0.33193744416348636,,,,,,,,,,,,,,,,,,69,001,23,m,Psychologie,2023-01-25_12h02.01.304,00_bat_bachelor,2022.2.4,59.985196406715524,
,,,,,,,,,,,,1,0,1,0,38,0,38,0,,,,,,,38,,,0.2,1010.7730144131929,Y,d,go,None,0,,1011.5736986310221,,,,,,,,,,,,,,,,,69,001,23,m,Psychologie,2023-01-25_12h02.01.304,00_bat_bachelor,2022.2.4,59.985196406715524,
,,,,,,,,,,,,1,0,1,0,39,0,39,0,,,,,,,39,,,0.2,1011.7736539279576,X,l,go,l,1,0.4735116786323488,,,,,,,,,,,,,,,,,,69,001,23,m,Psychologie,2023-01-25_12h02.01.304,00_bat_bachelor,2022.2.4,59.985196406715524,
,,,,,,,,,,,,1,0,1,0,40,0,40,0,,,,,,,40,,,0.2,1012.5577926991973,X,None,nogo,l,0,0.6491605630144477,,,,,,,,,,,,,,,,,,69,001,23,m,Psychologie,2023-01-25_12h02.01.304,00_bat_bachelor,2022.2.4,59.985196406715524,
,,,,,,,,,,,,1,0,1,0,41,0,41,0,,,,,,,41,,,0.2,1013.5084632686339,Y,d,go,d,1,0.5633012109901756,,,,,,,,,,,,,,,,,,69,001,23,m,Psychologie,2023-01-25_12h02.01.304,00_bat_bachelor,2022.2.4,59.985196406715524,
,,,,,,,,,,,,1,0,1,0,42,0,42,0,,,,,,,42,,,0.2,1014.3757850299589,X,l,go,l,1,0.4477153276093304,,,,,,,,,,,,,,,,,,69,001,23,m,Psychologie,2023-01-25_12h02.01.304,00_bat_bachelor,2022.2.4,59.985196406715524,
,,,,,,,,,,,,1,0,1,0,43,0,43,0,,,,,,,43,,,0.2,1015.1263834538404,X,None,nogo,None,1,,1015.9269799143076,,,,,,,,,,,,,,,,,69,001,23,m,Psychologie,2023-01-25_12h02.01.304,00_bat_bachelor,2022.2.4,59.985196406715524,
,,,,,,,,,,,,1,0,1,0,44,0,44,0,,,,,,,44,,,0.2,1016.1271403019782,Y,d,go,d,1,0.24857166642323136,,,,,,,,,,,,,,,,,,69,001,23,m,Psychologie,2023-01-25_12h02.01.304,00_bat_bachelor,2022.2.4,59.985196406715524,
,,,,,,,,,,,,1,0,1,0,45,0,45,0,,,,,,,45,,,0.2,1016.6773620957974,X,l,go,l,1,0.3688101537991315,,,,,,,,,,,,,,,,,,69,001,23,m,Psychologie,2023-01-25_12h02.01.304,00_bat_bachelor,2022.2.4,59.985196406715524,
,,,,,,,,,,,,1,0,1,0,46,0,46,0,,,,,,,46,,,0.2,1017.36112224916,X,None,nogo,None,1,,,,,,,,,,,,,,,,,,,69,001,23,m,Psychologie,2023-01-25_12h02.01.304,00_bat_bachelor,2022.2.4,59.985196406715524,
,,,,,,,,,,,,1,0,1,0,47,0,47,0,,,,,,,47,,,0.2,1018.3619707336184,Y,d,go,d,1,0.3010225500911474,,,,,,,,,,,,,,,,,,69,001,23,m,Psychologie,2023-01-25_12h02.01.304,00_bat_bachelor,2022.2.4,59.985196406715524,
,,,,,,,,,,,,1,0,1,0,48,0,48,0,,,,,,,48,,,0.2,1018.9788819495589,X,l,go,l,1,0.32499199314042926,,,,,,,,,,,,,,,,,,69,001,23,m,Psychologie,2023-01-25_12h02.01.304,00_bat_bachelor,2022.2.4,59.985196406715524,
,,,,,,,,,,,,1,0,1,0,49,0,49,0,,,,,,,49,,,0.2,1019.6128186120186,Y,d,go,d,1,0.32999902102164924,,,,,,,,,,,,,,,,,,69,001,23,m,Psychologie,2023-01-25_12h02.01.304,00_bat_bachelor,2022.2.4,59.985196406715524,
,,,,,,,,,,,,1,0,1,0,50,0,50,0,,,,,,,50,,,0.2,1020.2467116380576,Y,None,nogo,l,0,0.3354327152483165,,,,,,,,,,,,,,,,,,69,001,23,m,Psychologie,2023-01-25_12h02.01.304,00_bat_bachelor,2022.2.4,59.985196406715524,
,,,,,,,,,,,,1,0,1,0,51,0,51,0,,,,,,,51,,,0.2,1020.8970162924379,Y,None,nogo,d,0,0.4852396729402244,,,,,,,,,,,,,,,,,,69,001,23,m,Psychologie,2023-01-25_12h02.01.304,00_bat_bachelor,2022.2.4,59.985196406715524,
,,,,,,,,,,,,1,0,1,0,52,0,52,0,,,,,,,52,,,0.2,1021.6975439041853,X,l,go,l,1,0.5164222032763064,,,,,,,,,,,,,,,,,,69,001,23,m,Psychologie,2023-01-25_12h02.01.304,00_bat_bachelor,2022.2.4,59.985196406715524,
,,,,,,,,,,,,1,0,1,0,53,0,53,0,,,,,,,53,,,0.2,1022.5151284774765,Y,d,go,d,1,0.3082647284027189,,,,,,,,,,,,,,,,,,69,001,23,m,Psychologie,2023-01-25_12h02.01.304,00_bat_bachelor,2022.2.4,59.985196406715524,
,,,,,,,,,,,,1,0,1,0,54,0,54,0,,,,,,,54,,,0.2,1023.1321875723079,Y,None,nogo,None,1,,1023.9329411233775,,,,,,,,,,,,,,,,,69,001,23,m,Psychologie,2023-01-25_12h02.01.304,00_bat_bachelor,2022.2.4,59.985196406715524,
,,,,,,,,,,,,1,0,1,0,55,0,55,0,,,,,,,55,,,0.2,1024.1329512083903,X,l,go,l,1,0.16261728387326002,,,,,,,,,,,,,,,,,,69,001,23,m,Psychologie,2023-01-25_12h02.01.304,00_bat_bachelor,2022.2.4,59.985196406715524,
,,,,,,,,,,,,1,0,1,0,56,0,56,0,,,,,,,56,,,0.2,1024.6000462544616,Y,d,go,d,1,0.33471707929857075,,,,,,,,,,,,,,,,,,69,001,23,m,Psychologie,2023-01-25_12h02.01.304,00_bat_bachelor,2022.2.4,59.985196406715524,
,,,,,,,,,,,,1,0,1,0,57,0,57,0,,,,,,,57,,,0.2,1025.250342181651,X,l,go,l,1,0.29319564485922456,,,,,,,,,,,,,,,,,,69,001,23,m,Psychologie,2023-01-25_12h02.01.304,00_bat_bachelor,2022.2.4,59.985196406715524,
,,,,,,,,,,,,1,0,1,0,58,0,58,0,,,,,,,58,,,0.2,1025.850996920839,X,None,nogo,None,1,,,,,,,,,,,,,,,,,,,69,001,23,m,Psychologie,2023-01-25_12h02.01.304,00_bat_bachelor,2022.2.4,59.985196406715524,
,,,,,,,,,,,,1,0,1,0,59,0,59,0,,,,,,,59,,,0.2,1026.8518298901618,Y,d,go,d,1,0.2753013502806425,,,,,,,,,,,,,,,,,,69,001,23,m,Psychologie,2023-01-25_12h02.01.304,00_bat_bachelor,2022.2.4,59.985196406715524,
,,,,,,,,,,,,1,0,1,0,60,0,60,0,,,,,,,60,,,0.2,1027.435492152581,X,l,go,l,1,0.3321556260343641,,,,,,,,,,,,,,,,,,69,001,23,m,Psychologie,2023-01-25_12h02.01.304,00_bat_bachelor,2022.2.4,59.985196406715524,
,,,,,,,,,,,,1,0,1,0,61,0,61,0,,,,,,,61,,,0.2,1028.0691912393086,Y,d,go,d,1,0.30598691129125655,,,,,,,,,,,,,,,,,,69,001,23,m,Psychologie,2023-01-25_12h02.01.304,00_bat_bachelor,2022.2.4,59.985196406715524,
,,,,,,,,,,,,1,0,1,0,62,0,62,0,,,,,,,62,,,0.2,1028.6865092429798,X,l,go,l,1,0.31356993806548417,,,,,,,,,,,,,,,,,,69,001,23,m,Psychologie,2023-01-25_12h02.01.304,00_bat_bachelor,2022.2.4,59.985196406715524,
,,,,,,,,,,,,1,0,1,0,63,0,63,0,,,,,,,63,,,0.2,1029.3036255498882,X,None,nogo,l,0,0.39905789657495916,,,,,,,,,,,,,,,,,,69,001,23,m,Psychologie,2023-01-25_12h02.01.304,00_bat_bachelor,2022.2.4,59.985196406715524,
,,,,,,,,,,,,1,0,1,0,64,0,64,0,,,,,,,64,,,0.2,1030.0041270283982,Y,d,go,d,1,0.4020411679521203,,,,,,,,,,,,,,,,,,69,001,23,m,Psychologie,2023-01-25_12h02.01.304,00_bat_bachelor,2022.2.4,59.985196406715524,
,,,,,,,,,,,,1,0,1,0,65,0,65,0,,,,,,,65,,,0.2,1030.721364498837,X,l,go,l,1,0.43805133225396276,,,,,,,,,,,,,,,,,,69,001,23,m,Psychologie,2023-01-25_12h02.01.304,00_bat_bachelor,2022.2.4,59.985196406715524,
,,,,,,,,,,,,1,0,1,0,66,0,66,0,,,,,,,66,,,0.2,1031.4719527408015,Y,d,go,d,1,0.32697162847034633,,,,,,,,,,,,,,,,,,69,001,23,m,Psychologie,2023-01-25_12h02.01.304,00_bat_bachelor,2022.2.4,59.985196406715524,
,,,,,,,,,,,,1,0,1,0,67,0,67,0,,,,,,,67,,,0.2,1032.1057948577218,X,l,go,l,1,0.365159246372059,,,,,,,,,,,,,,,,,,69,001,23,m,Psychologie,2023-01-25_12h02.01.304,00_bat_bachelor,2022.2.4,59.985196406715524,
,,,,,,,,,,,,1,0,1,0,68,0,68,0,,,,,,,68,,,0.2,1032.7729504131712,X,None,nogo,None,1,,,,,,,,,,,,,,,,,,,69,001,23,m,Psychologie,2023-01-25_12h02.01.304,00_bat_bachelor,2022.2.4,59.985196406715524,
,,,,,,,,,,,,1,0,1,0,69,0,69,0,,,,,,,69,,,0.2,1033.7736980491318,Y,d,go,d,1,0.3141221802216023,,,,,,,,,,,,,,,,,,69,001,23,m,Psychologie,2023-01-25_12h02.01.304,00_bat_bachelor,2022.2.4,59.985196406715524,
,,,,,,,,,,,,1,0,1,0,70,0,70,0,,,,,,,70,,,0.2,1034.3908002953976,X,l,go,l,1,0.3352804728783667,,,,,,,,,,,,,,,,,,69,001,23,m,Psychologie,2023-01-25_12h02.01.304,00_bat_bachelor,2022.2.4,59.985196406715524,
,,,,,,,,,,,,1,0,1,0,71,0,71,0,,,,,,,71,,,0.2,1035.041278040735,Y,d,go,d,1,0.3108494544867426,,,,,,,,,,,,,,,,,,69,001,23,m,Psychologie,2023-01-25_12h02.01.304,00_bat_bachelor,2022.2.4,59.985196406715524,
,,,,,,,,,,,,1,0,1,0,72,0,72,0,,,,,,,72,,,0.2,1035.6584631958976,Y,None,nogo,l,0,0.29980897484347224,,,,,,,,,,,,,,,,,,69,001,23,m,Psychologie,2023-01-25_12h02.01.304,00_bat_bachelor,2022.2.4,59.985196406715524,
,,,,,,,,,,,,1,0,1,0,73,0,73,0,,,,,,,73,,,0.2,1036.2587833898142,X,l,go,l,1,0.5963077403139323,,,,,,,,,,,,,,,,,,69,001,23,m,Psychologie,2023-01-25_12h02.01.304,00_bat_bachelor,2022.2.4,59.985196406715524,
,,,,,,,,,,,,1,0,1,0,74,0,74,0,,,,,,,74,,,0.2,1037.1594113167375,Y,d,go,d,1,0.3831956014037132,,,,,,,,,,,,,,,,,,69,001,23,m,Psychologie,2023-01-25_12h02.01.304,00_bat_bachelor,2022.2.4,59.985196406715524,
,,,,,,,,,,,,1,0,1,0,75,0,75,0,,,,,,,75,,,0.2,1037.843575348612,X,l,go,l,1,0.25970232766121626,,,,,,,,,,,,,,,,,,69,001,23,m,Psychologie,2023-01-25_12h02.01.304,00_bat_bachelor,2022.2.4,59.985196406715524,
,,,,,,,,,,,,1,0,1,0,76,0,76,0,,,,,,,76,,,0.2,1038.410372164799,Y,d,go,d,1,0.3005633989814669,,,,,,,,,,,,,,,,,,69,001,23,m,Psychologie,2023-01-25_12h02.01.304,00_bat_bachelor,2022.2.4,59.985196406715524,
,,,,,,,,,,,,1,0,1,0,77,0,77,0,,,,,,,77,,,0.2,1039.0107185402885,X,l,go,l,1,0.35687415953725576,,,,,,,,,,,,,,,,,,69,001,23,m,Psychologie,2023-01-25_12h02.01.304,00_bat_bachelor,2022.2.4,59.985196406715524,
,,,,,,,,,,,,1,0,1,0,78,0,78,0,,,,,,,78,,,0.2,1039.678135913564,Y,d,go,d,1,0.2968630369286984,,,,,,,,,,,,,,,,,,69,001,23,m,Psychologie,2023-01-25_12h02.01.304,00_bat_bachelor,2022.2.4,59.985196406715524,
,,,,,,,,,,,,1,0,1,0,79,0,79,0,,,,,,,79,,,0.2,1040.2786418043543,X,l,go,l,1,0.27280292729847133,,,,,,,,,,,,,,,,,,69,001,23,m,Psychologie,2023-01-25_12h02.01.304,00_bat_bachelor,2022.2.4,59.985196406715524,
,,,,,,,,,,,,1,0,1,0,80,0,80,0,,,,,,,80,,,0.2,1040.8623913393822,Y,d,go,d,1,0.28102498408406973,,,,,,,,,,,,,,,,,,69,001,23,m,Psychologie,2023-01-25_12h02.01.304,00_bat_bachelor,2022.2.4,59.985196406715524,
,,,,,,,,,,,,1,0,1,0,81,0,81,0,,,,,,,81,,,0.2,1041.4461786928587,X,l,go,l,1,0.3520499193109572,,,,,,,,,,,,,,,,,,69,001,23,m,Psychologie,2023-01-25_12h02.01.304,00_bat_bachelor,2022.2.4,59.985196406715524,
,,,,,,,,,,,,1,0,1,0,82,0,82,0,,,,,,,82,,,0.2,1042.1132033390459,Y,d,go,d,1,0.2622608719393611,,,,,,,,,,,,,,,,,,69,001,23,m,Psychologie,2023-01-25_12h02.01.304,00_bat_bachelor,2022.2.4,59.985196406715524,
,,,,,,,,,,,,1,0,1,0,83,0,83,0,,,,,,,83,,,0.2,1042.680441367207,Y,None,nogo,None,1,,,,,,,,,,,,,,,,,,,69,001,23,m,Psychologie,2023-01-25_12h02.01.304,00_bat_bachelor,2022.2.4,59.985196406715524,
,,,,,,,,,,,,1,0,1,0,84,0,84,0,,,,,,,84,,,0.2,1043.681019791169,X,l,go,l,1,0.3262976894620806,,,,,,,,,,,,,,,,,,69,001,23,m,Psychologie,2023-01-25_12h02.01.304,00_bat_bachelor,2022.2.4,59.985196406715524,
,,,,,,,,,,,,1,0,1,0,85,0,85,0,,,,,,,85,,,0.2,1044.3150345140602,Y,d,go,d,1,0.26797189959324896,,,,,,,,,,,,,,,,,,69,001,23,m,Psychologie,2023-01-25_12h02.01.304,00_bat_bachelor,2022.2.4,59.985196406715524,
,,,,,,,,,,,,1,0,1,0,86,0,86,0,,,,,,,86,,,0.2,1044.8987913217861,X,l,go,l,1,0.27614983497187495,,,,,,,,,,,,,,,,,,69,001,23,m,Psychologie,2023-01-25_12h02.01.304,00_bat_bachelor,2022.2.4,59.985196406715524,
,,,,,,,,,,,,1,0,1,0,87,0,87,0,,,,,,,87,,,0.2,1045.482570432825,Y,d,go,d,1,0.26764268754050136,,,,,,,,,,,,,,,,,,69,001,23,m,Psychologie,2023-01-25_12h02.01.304,00_bat_bachelor,2022.2.4,59.985196406715524,
,,,,,,,,,,,,1,0,1,0,88,0,88,0,,,,,,,88,,,0.2,1046.066397543531,X,l,go,l,1,0.2615500842221081,,,,,,,,,,,,,,,,,,69,001,23,m,Psychologie,2023-01-25_12h02.01.304,00_bat_bachelor,2022.2.4,59.985196406715524,
,,,,,,,,,,,,1,0,1,0,89,0,89,0,,,,,,,89,,,0.2,1046.633383450564,Y,d,go,d,1,0.28552631521597505,,,,,,,,,,,,,,,,,,69,001,23,m,Psychologie,2023-01-25_12h02.01.304,00_bat_bachelor,2022.2.4,59.985196406715524,
,,,,,,,,,,,,1,0,1,0,90,0,90,0,,,,,,,90,,,0.2,1047.2339727350045,X,l,go,l,1,0.22931058495305479,,,,,,,,,,,,,,,,,,69,001,23,m,Psychologie,2023-01-25_12h02.01.304,00_bat_bachelor,2022.2.4,59.985196406715524,
,,,,,,,,,,,,1,0,1,0,91,0,91,0,,,,,,,91,,,0.2,1047.7677014460787,X,None,nogo,d,0,0.2552436632104218,,,,,,,,,,,,,,,,,,69,001,23,m,Psychologie,2023-01-25_12h02.01.304,00_bat_bachelor,2022.2.4,59.985196406715524,
,,,,,,,,,,,,1,0,1,0,92,0,92,0,,,,,,,92,,,0.2,1048.3347639590502,Y,d,go,d,1,0.48822682281024754,,,,,,,,,,,,,,,,,,69,001,23,m,Psychologie,2023-01-25_12h02.01.304,00_bat_bachelor,2022.2.4,59.985196406715524,
,,,,,,,,,,,,1,0,1,0,93,0,93,0,,,,,,,93,,,0.2,1049.1353415101767,X,l,go,l,1,0.34475537738762796,,,,,,,,,,,,,,,,,,69,001,23,m,Psychologie,2023-01-25_12h02.01.304,00_bat_bachelor,2022.2.4,59.985196406715524,
,,,,,,,,,,,,1,0,1,0,94,0,94,0,,,,,,,94,,,0.2,1049.7859870127868,Y,d,go,d,1,0.39698129147291183,,,,,,,,,,,,,,,,,,69,001,23,m,Psychologie,2023-01-25_12h02.01.304,00_bat_bachelor,2022.2.4,59.985196406715524,
,,,,,,,,,,,,1,0,1,0,95,0,95,0,,,,,,,95,,,0.2,1050.4862470370717,X,l,go,l,1,0.4321342441253364,,,,,,,,,,,,,,,,,,69,001,23,m,Psychologie,2023-01-25_12h02.01.304,00_bat_bachelor,2022.2.4,59.985196406715524,
,,,,,,,,,,,,1,0,1,0,96,0,96,0,,,,,,,96,,,0.2,1051.220122075174,Y,d,go,d,1,0.2590875399764627,,,,,,,,,,,,,,,,,,69,001,23,m,Psychologie,2023-01-25_12h02.01.304,00_bat_bachelor,2022.2.4,59.985196406715524,
,,,,,,,,,,,,1,0,1,0,97,0,97,0,,,,,,,97,,,0.2,1051.7873717395123,Y,None,nogo,l,0,0.26801553578116,,,,,,,,,,,,,,,,,,69,001,23,m,Psychologie,2023-01-25_12h02.01.304,00_bat_bachelor,2022.2.4,59.985196406715524,
,,,,,,,,,,,,1,0,1,0,98,0,98,0,,,,,,,98,,,0.2,1052.3709389716387,X,l,go,l,1,0.48437809757888317,,,,,,,,,,,,,,,,,,69,001,23,m,Psychologie,2023-01-25_12h02.01.304,00_bat_bachelor,2022.2.4,59.985196406715524,
,,,,,,,,,,,,1,0,1,0,99,0,99,0,,,,,,,99,,,0.2,1053.1718554317486,Y,d,go,d,1,0.3395912586711347,,,,,,,,,,,,,,,,,,69,001,23,m,Psychologie,2023-01-25_12h02.01.304,00_bat_bachelor,2022.2.4,59.985196406715524,
,,,,,,,,,,,,1,0,1,0,100,0,100,0,,,,,,,100,,,0.2,1053.8222502679564,Y,None,nogo,l,0,0.3125207263510674,,,,,,,,,,,,,,,,,,69,001,23,m,Psychologie,2023-01-25_12h02.01.304,00_bat_bachelor,2022.2.4,59.985196406715524,
,,,,,,,,,,,,1,0,1,0,101,0,101,0,,,,,,,101,,,0.2,1054.4394674233627,X,l,go,l,1,0.49651433411054313,,,,,,,,,,,,,,,,,,69,001,23,m,Psychologie,2023-01-25_12h02.01.304,00_bat_bachelor,2022.2.4,59.985196406715524,
,,,,,,,,,,,,1,0,1,0,102,0,102,0,,,,,,,102,,,0.2,1055.2402083685156,Y,d,go,d,1,0.35074082924984396,,,,,,,,,,,,,,,,,,69,001,23,m,Psychologie,2023-01-25_12h02.01.304,00_bat_bachelor,2022.2.4,59.985196406715524,
,,,,,,,,,,,,1,0,1,0,103,0,103,0,,,,,,,103,,,0.2,1055.890354962321,X,l,go,l,1,0.4364634540397674,,,,,,,,,,,,,,,,,,69,001,23,m,Psychologie,2023-01-25_12h02.01.304,00_bat_bachelor,2022.2.4,59.985196406715524,
,,,,,,,,,,,,1,0,1,0,104,0,104,0,,,,,,,104,,,0.2,1056.6410270831548,Y,d,go,d,1,0.29491297737695277,,,,,,,,,,,,,,,,,,69,001,23,m,Psychologie,2023-01-25_12h02.01.304,00_bat_bachelor,2022.2.4,59.985196406715524,
,,,,,,,,,,,,1,0,1,0,105,0,105,0,,,,,,,105,,,0.2,1057.241517943563,X,l,go,l,1,0.34868798148818314,,,,,,,,,,,,,,,,,,69,001,23,m,Psychologie,2023-01-25_12h02.01.304,00_bat_bachelor,2022.2.4,59.985196406715524,
,,,,,,,,,,,,1,0,1,0,106,0,106,0,,,,,,,106,,,0.2,1057.8920529007446,Y,d,go,d,1,0.37073209206573665,,,,,,,,,,,,,,,,,,69,001,23,m,Psychologie,2023-01-25_12h02.01.304,00_bat_bachelor,2022.2.4,59.985196406715524,
,,,,,,,,,,,,1,0,1,0,107,0,107,0,,,,,,,107,,,0.2,1058.5760263875127,X,l,go,l,1,0.2954516438767314,,,,,,,,,,,,,,,,,,69,001,23,m,Psychologie,2023-01-25_12h02.01.304,00_bat_bachelor,2022.2.4,59.985196406715524,
,,,,,,,,,,,,1,0,1,0,108,0,108,0,,,,,,,108,,,0.2,1059.1763965205755,X,None,nogo,d,0,0.33505889726802707,,,,,,,,,,,,,,,,,,69,001,23,m,Psychologie,2023-01-25_12h02.01.304,00_bat_bachelor,2022.2.4,59.985196406715524,
,,,,,,,,,,,,1,0,1,0,109,0,109,0,,,,,,,109,,,0.2,1059.826872811187,X,None,nogo,l,0,0.48357131029479206,,,,,,,,,,,,,,,,,,69,001,23,m,Psychologie,2023-01-25_12h02.01.304,00_bat_bachelor,2022.2.4,59.985196406715524,
,,,,,,,,,,,,1,0,1,0,110,0,110,0,,,,,,,110,,,0.2,1060.6108190978412,Y,d,go,d,1,0.6282703913748264,,,,,,,,,,,,,,,,,,69,001,23,m,Psychologie,2023-01-25_12h02.01.304,00_bat_bachelor,2022.2.4,59.985196406715524,
,,,,,,,,,,,,1,0,1,0,111,0,111,0,,,,,,,111,,,0.2,1061.5448419176973,X,l,go,l,1,0.23787445947527885,,,,,,,,,,,,,,,,,,69,001,23,m,Psychologie,2023-01-25_12h02.01.304,00_bat_bachelor,2022.2.4,59.985196406715524,
,,,,,,,,,,,,1,0,1,0,112,0,112,0,,,,,,,112,,,0.2,1062.0952469841577,X,None,nogo,d,0,0.3762942710891366,,,,,,,,,,,,,,,,,,69,001,23,m,Psychologie,2023-01-25_12h02.01.304,00_bat_bachelor,2022.2.4,59.985196406715524,
,,,,,,,,,,,,1,0,1,0,113,0,113,0,,,,,,,113,,,0.2,1062.779129804112,Y,d,go,d,1,0.39680529152974486,,,,,,,,,,,,,,,,,,69,001,23,m,Psychologie,2023-01-25_12h02.01.304,00_bat_bachelor,2022.2.4,59.985196406715524,
,,,,,,,,,,,,1,0,1,0,114,0,114,0,,,,,,,114,,,0.2,1063.4795265553985,X,l,go,l,1,0.4148823737632483,,,,,,,,,,,,,,,,,,69,001,23,m,Psychologie,2023-01-25_12h02.01.304,00_bat_bachelor,2022.2.4,59.985196406715524,
,,,,,,,,,,,,1,0,1,0,115,0,115,0,,,,,,,115,,,0.2,1064.1968992985785,X,None,nogo,d,0,0.2912387973628938,,,,,,,,,,,,,,,,,,69,001,23,m,Psychologie,2023-01-25_12h02.01.304,00_bat_bachelor,2022.2.4,59.985196406715524,
,,,,,,,,,,,,1,0,1,0,116,0,116,0,,,,,,,116,,,0.2,1064.7973358558957,Y,d,go,d,1,0.6497254113201052,,,,,,,,,,,,,,,,,,69,001,23,m,Psychologie,2023-01-25_12h02.01.304,00_bat_bachelor,2022.2.4,59.985196406715524,
,,,,,,,,,,,,1,0,1,0,117,0,117,0,,,,,,,117,,,0.2,1065.7480772130657,X,l,go,l,1,0.3713114857673645,,,,,,,,,,,,,,,,,,69,001,23,m,Psychologie,2023-01-25_12h02.01.304,00_bat_bachelor,2022.2.4,59.985196406715524,
,,,,,,,,,,,,1,0,1,0,118,0,118,0,,,,,,,118,,,0.2,1066.431848517852,X,None,nogo,l,0,0.48663991456851363,,,,,,,,,,,,,,,,,,69,001,23,m,Psychologie,2023-01-25_12h02.01.304,00_bat_bachelor,2022.2.4,59.985196406715524,
,,,,,,,,,,,,1,0,1,0,119,0,119,0,,,,,,,119,,,0.2,1067.2324997661635,X,None,nogo,l,0,0.3912722032982856,,,,,,,,,,,,,,,,,,69,001,23,m,Psychologie,2023-01-25_12h02.01.304,00_bat_bachelor,2022.2.4,59.985196406715524,
,,,,,,,,,,,,1,0,1,0,120,0,120,0,,,,,,,120,,,0.2,1067.9328499720432,Y,d,go,d,1,0.4587926552630961,,,,,,,,,,,,,,,,,,69,001,23,m,Psychologie,2023-01-25_12h02.01.304,00_bat_bachelor,2022.2.4,59.985196406715524,
,,,,,,,,,,,,1,0,1,0,121,0,121,0,,,,,,,121,,,0.2,1068.7002435394097,X,l,go,l,1,0.3790666335262358,,,,,,,,,,,,,,,,,,69,001,23,m,Psychologie,2023-01-25_12h02.01.304,00_bat_bachelor,2022.2.4,59.985196406715524,
,,,,,,,,,,,,1,0,1,0,122,0,122,0,,,,,,,122,,,0.2,1069.3842165409587,Y,d,go,None,0,,1070.1846956680529,,,,,,,,,,,,,,,,,69,001,23,m,Psychologie,2023-01-25_12h02.01.304,00_bat_bachelor,2022.2.4,59.985196406715524,
,,,,,,,,,,,,1,0,1,0,123,0,123,0,,,,,,,123,,,0.2,1070.3849190862384,X,l,go,l,1,0.2787510456983,,,,,,,,,,,,,,,,,,69,001,23,m,Psychologie,2023-01-25_12h02.01.304,00_bat_bachelor,2022.2.4,59.985196406715524,
,,,,,,,,,,,,1,0,1,0,124,0,124,0,,,,,,,124,,,0.2,1070.9685328637715,Y,d,go,d,1,0.38172893528826535,,,,,,,,,,,,,,,,,,69,001,23,m,Psychologie,2023-01-25_12h02.01.304,00_bat_bachelor,2022.2.4,59.985196406715524,
,,,,,,,,,,,,1,0,1,0,125,0,125,0,,,,,,,125,,,0.2,1071.6525058655534,X,l,go,l,1,0.5130646291654557,,,,,,,,,,,,,,,,,,69,001,23,m,Psychologie,2023-01-25_12h02.01.304,00_bat_bachelor,2022.2.4,59.985196406715524,
,,,,,,,,,,,,1,0,1,0,126,0,126,0,,,,,,,126,,,0.2,1072.4865660672076,Y,d,go,d,1,0.4324605471920222,,,,,,,,,,,,,,,,,,69,001,23,m,Psychologie,2023-01-25_12h02.01.304,00_bat_bachelor,2022.2.4,59.985196406715524,
,,,,,,,,,,,,1,0,1,0,127,0,127,0,,,,,,,127,,,0.2,1073.2203480144963,X,l,go,l,1,0.40257595549337566,,,,,,,,,,,,,,,,,,69,001,23,m,Psychologie,2023-01-25_12h02.01.304,00_bat_bachelor,2022.2.4,59.985196406715524,
,,,,,,,,,,,,1,0,1,0,128,0,128,0,,,,,,,128,,,0.2,1073.9376785757486,Y,d,go,d,1,0.3415917425882071,,,,,,,,,,,,,,,,,,69,001,23,m,Psychologie,2023-01-25_12h02.01.304,00_bat_bachelor,2022.2.4,59.985196406715524,
,,,,,,,,,,,,1,0,1,0,129,0,129,0,,,,,,,129,,,0.2,1074.5881228663493,Y,None,nogo,None,1,,1075.3888468418736,,,,,,,,,,,,,,,,,69,001,23,m,Psychologie,2023-01-25_12h02.01.304,00_bat_bachelor,2022.2.4,59.985196406715524,
,,,,,,,,,,,,1,0,1,0,130,0,130,0,,,,,,,130,,,0.2,1075.5888976538554,X,l,go,l,1,0.1946099956985563,,,,,,,,,,,,,,,,,,69,001,23,m,Psychologie,2023-01-25_12h02.01.304,00_bat_bachelor,2022.2.4,59.985196406715524,
,,,,,,,,,,,,1,0,1,0,131,0,131,0,,,,,,,131,,,0.2,1076.0892605627887,Y,d,go,d,1,0.49482657737098634,,,,,,,,,,,,,,,,,,69,001,23,m,Psychologie,2023-01-25_12h02.01.304,00_bat_bachelor,2022.2.4,59.985196406715524,
,,,,,,,,,,,,1,0,1,0,132,0,132,0,,,,,,,132,,,0.2,1076.8900068411604,X,l,go,l,1,0.2689682624768466,,,,,,,,,,,,,,,,,,69,001,23,m,Psychologie,2023-01-25_12h02.01.304,00_bat_bachelor,2022.2.4,59.985196406715524,
,,,,,,,,,,,,1,0,1,0,133,0,133,0,,,,,,,133,,,0.2,1077.473426679615,Y,d,go,d,1,0.42177012795582414,,,,,,,,,,,,,,,,,,69,001,23,m,Psychologie,2023-01-25_12h02.01.304,00_bat_bachelor,2022.2.4,59.985196406715524,
,,,,,,,,,,,,1,0,1,0,134,0,134,0,,,,,,,134,,,0.2,1078.2075931115542,X,l,go,l,1,0.31197818112559617,,,,,,,,,,,,,,,,,,69,001,23,m,Psychologie,2023-01-25_12h02.01.304,00_bat_bachelor,2022.2.4,59.985196406715524,
,,,,,,,,,,,,1,0,1,0,135,0,135,0,,,,,,,135,,,0.2,1078.8246914788615,Y,d,go,d,1,0.4144469799939543,,,,,,,,,,,,,,,,,,69,001,23,m,Psychologie,2023-01-25_12h02.01.304,00_bat_bachelor,2022.2.4,59.985196406715524,
,,,,,,,,,,,,1,0,1,0,136,0,136,0,,,,,,,136,,,0.2,1079.541911009932,X,l,go,l,1,0.2732232909183949,,,,,,,,,,,,,,,,,,69,001,23,m,Psychologie,2023-01-25_12h02.01.304,00_bat_bachelor,2022.2.4,59.985196406715524,
,,,,,,,,,,,,1,0,1,0,137,0,137,0,,,,,,,137,,,0.2,1080.1256843027659,X,None,nogo,None,1,,1080.9262807630002,,,,,,,,,,,,,,,,,69,001,23,m,Psychologie,2023-01-25_12h02.01.304,00_bat_bachelor,2022.2.4,59.985196406715524,
,,,,,,,,,,,,1,0,1,0,138,0,138,0,,,,,,,138,,,0.2,1081.126377150882,Y,d,go,d,1,0.6405957189854234,,,,,,,,,,,,,,,,,,69,001,23,m,Psychologie,2023-01-25_12h02.01.304,00_bat_bachelor,2022.2.4,59.985196406715524,
,,,,,,,,,,,,1,0,1,0,139,0,139,0,,,,,,,139,,,0.2,1082.0770937807392,X,l,go,l,1,0.44174296665005386,,,,,,,,,,,,,,,,,,69,001,23,m,Psychologie,2023-01-25_12h02.01.304,00_bat_bachelor,2022.2.4,59.985196406715524,
,,,,,,,,,,,,1,0,1,0,140,0,140,0,,,,,,,140,,,0.2,1082.8275278413203,X,None,nogo,None,1,,1083.6283075741958,,,,,,,,,,,,,,,,,69,001,23,m,Psychologie,2023-01-25_12h02.01.304,00_bat_bachelor,2022.2.4,59.985196406715524,
,,,,,,,,,,,,1,0,1,0,141,0,141,0,,,,,,,141,,,0.2,1083.8285372953396,X,None,nogo,None,1,,1084.6290998163167,,,,,,,,,,,,,,,,,69,001,23,m,Psychologie,2023-01-25_12h02.01.304,00_bat_bachelor,2022.2.4,59.985196406715524,
,,,,,,,,,,,,1,0,1,0,142,0,142,0,,,,,,,142,,,0.2,1084.8292970524635,Y,d,go,d,1,0.2811112869530916,,,,,,,,,,,,,,,,,,69,001,23,m,Psychologie,2023-01-25_12h02.01.304,00_bat_bachelor,2022.2.4,59.985196406715524,
,,,,,,,,,,,,1,0,1,0,143,0,143,0,,,,,,,143,,,0.2,1085.4130213754252,X,l,go,l,1,0.30628897179849446,,,,,,,,,,,,,,,,,,69,001,23,m,Psychologie,2023-01-25_12h02.01.304,00_bat_bachelor,2022.2.4,59.985196406715524,
,,,,,,,,,,,,1,0,1,0,144,0,144,0,,,,,,,144,,,0.2,1086.0301304096356,Y,d,go,d,1,0.2963704310823232,,,,,,,,,,,,,,,,,,69,001,23,m,Psychologie,2023-01-25_12h02.01.304,00_bat_bachelor,2022.2.4,59.985196406715524,
,,,,,,,,,,,,1,0,1,0,145,0,145,0,,,,,,,145,,,0.2,1086.630470967153,X,l,go,l,1,0.3361696847714484,,,,,,,,,,,,,,,,,,69,001,23,m,Psychologie,2023-01-25_12h02.01.304,00_bat_bachelor,2022.2.4,59.985196406715524,
,,,,,,,,,,,,1,0,1,0,146,0,146,0,,,,,,,146,,,0.2,1087.2809458032716,X,None,nogo,None,1,,1088.0817022635601,,,,,,,,,,,,,,,,,69,001,23,m,Psychologie,2023-01-25_12h02.01.304,00_bat_bachelor,2022.2.4,59.985196406715524,
,,,,,,,,,,,,1,0,1,0,147,0,147,0,,,,,,,147,,,0.2,1088.28174871183,Y,d,go,d,1,0.23773676273413002,,,,,,,,,,,,,,,,,,69,001,23,m,Psychologie,2023-01-25_12h02.01.304,00_bat_bachelor,2022.2.4,59.985196406715524,
,,,,,,,,,,,,1,0,1,0,148,0,148,0,,,,,,,148,,,0.2,1088.8323705054354,X,l,go,l,1,0.3113987874239683,,,,,,,,,,,,,,,,,,69,001,23,m,Psychologie,2023-01-25_12h02.01.304,00_bat_bachelor,2022.2.4,59.985196406715524,
,,,,,,,,,,,,1,0,1,0,149,0,149,0,,,,,,,149,,,0.2,1089.449280751869,X,None,nogo,d,0,0.25366548215970397,,,,,,,,,,,,,,,,,,69,001,23,m,Psychologie,2023-01-25_12h02.01.304,00_bat_bachelor,2022.2.4,59.985196406715524,
,,,,,,,,,,,,1,0,1,0,150,0,150,0,,,,,,,150,,,0.2,1090.0163408406079,Y,d,go,d,1,0.5181308086030185,,,,,,,,,,,,,,,,,,69,001,23,m,Psychologie,2023-01-25_12h02.01.304,00_bat_bachelor,2022.2.4,59.985196406715524,
,,,,,,,,,,,,1,0,1,0,151,0,151,0,,,,,,,151,,,0.2,1090.850335102994,X,l,go,l,1,0.40464189392514527,,,,,,,,,,,,,,,,,,69,001,23,m,Psychologie,2023-01-25_12h02.01.304,00_bat_bachelor,2022.2.4,59.985196406715524,
,,,,,,,,,,,,1,0,1,0,152,0,152,0,,,,,,,152,,,0.2,1091.567654997576,Y,d,go,d,1,0.2960378252901137,,,,,,,,,,,,,,,,,,69,001,23,m,Psychologie,2023-01-25_12h02.01.304,00_bat_bachelor,2022.2.4,59.985196406715524,
,,,,,,,,,,,,1,0,1,0,153,0,153,0,,,,,,,153,,,0.2,1092.1681899791583,Y,None,nogo,l,0,0.38237184402532876,,,,,,,,,,,,,,,,,,69,001,23,m,Psychologie,2023-01-25_12h02.01.304,00_bat_bachelor,2022.2.4,59.985196406715524,
,,,,,,,,,,,,1,0,1,0,154,0,154,0,,,,,,,154,,,0.2,1092.8520097688306,X,l,go,None,0,,,,,,,,,,,,,,,,,,,69,001,23,m,Psychologie,2023-01-25_12h02.01.304,00_bat_bachelor,2022.2.4,59.985196406715524,
,,,,,,,,,,,,1,0,1,0,155,0,155,0,,,,,,,155,,,0.2,1093.852527101757,Y,d,go,d,1,0.3303035057615489,,,,,,,,,,,,,,,,,,69,001,23,m,Psychologie,2023-01-25_12h02.01.304,00_bat_bachelor,2022.2.4,59.985196406715524,
,,,,,,,,,,,,1,0,1,0,156,0,156,0,,,,,,,156,,,0.2,1094.4866315217223,Y,None,nogo,l,0,0.2878821927588433,,,,,,,,,,,,,,,,,,69,001,23,m,Psychologie,2023-01-25_12h02.01.304,00_bat_bachelor,2022.2.4,59.985196406715524,
,,,,,,,,,,,,1,0,1,0,157,0,157,0,,,,,,,157,,,0.2,1095.0870501396712,X,l,go,l,1,0.5838374432642013,,,,,,,,,,,,,,,,,,69,001,23,m,Psychologie,2023-01-25_12h02.01.304,00_bat_bachelor,2022.2.4,59.985196406715524,
,,,,,,,,,,,,1,0,1,0,158,0,158,0,,,,,,,158,,,0.2,1095.9710356504656,Y,d,go,d,1,0.3398836222477257,,,,,,,,,,,,,,,,,,69,001,23,m,Psychologie,2023-01-25_12h02.01.304,00_bat_bachelor,2022.2.4,59.985196406715524,
,,,,,,,,,,,,1,0,1,0,159,0,159,0,,,,,,,159,,,0.2,1096.6213795775548,X,l,go,l,1,0.39444359578192234,,,,,,,,,,,,,,,,,,69,001,23,m,Psychologie,2023-01-25_12h02.01.304,00_bat_bachelor,2022.2.4,59.985196406715524,
,,,,,,,,,,,,1,0,1,0,160,0,160,0,,,,,,,160,,,0.2,1097.3219314801972,X,None,nogo,None,1,,1098.1226646678988,,,,,,,,,,,,,,,,,69,001,23,m,Psychologie,2023-01-25_12h02.01.304,00_bat_bachelor,2022.2.4,59.985196406715524,
,,,,,,,,,,,,1,0,1,0,161,0,161,0,,,,,,,161,,,0.2,1098.3228037222289,Y,d,go,l,0,0.3081396375782788,,,,,,,,,,,,,,,,,,69,001,23,m,Psychologie,2023-01-25_12h02.01.304,00_bat_bachelor,2022.2.4,59.985196406715524,
,,,,,,,,,,,,1,0,1,0,162,0,162,0,,,,,,,162,,,0.2,1098.9398371200077,X,l,go,l,1,0.42755485232919455,,,,,,,,,,,,,,,,,,69,001,23,m,Psychologie,2023-01-25_12h02.01.304,00_bat_bachelor,2022.2.4,59.985196406715524,
,,,,,,,,,,,,1,0,1,0,163,0,163,0,,,,,,,163,,,0.2,1099.6738900975324,X,None,nogo,None,1,,,,,,,,,,,,,,,,,,,69,001,23,m,Psychologie,2023-01-25_12h02.01.304,00_bat_bachelor,2022.2.4,59.985196406715524,
,,,,,,,,,,,,1,0,1,0,164,0,164,0,,,,,,,164,,,0.2,1100.6747114304453,Y,d,go,d,1,0.30924363690428436,,,,,,,,,,,,,,,,,,69,001,23,m,Psychologie,2023-01-25_12h02.01.304,00_bat_bachelor,2022.2.4,59.985196406715524,
,,,,,,,,,,,,1,0,1,0,165,0,165,0,,,,,,,165,,,0.2,1101.2916119799484,X,l,go,l,1,0.4439155717846006,,,,,,,,,,,,,,,,,,69,001,23,m,Psychologie,2023-01-25_12h02.01.304,00_bat_bachelor,2022.2.4,59.985196406715524,
,,,,,,,,,,,,1,0,1,0,166,0,166,0,,,,,,,166,,,0.2,1102.042171131121,X,None,nogo,None,1,,,,,,,,,,,,,,,,,,,69,001,23,m,Psychologie,2023-01-25_12h02.01.304,00_bat_bachelor,2022.2.4,59.985196406715524,
,,,,,,,,,,,,1,0,1,0,167,0,167,0,,,,,,,167,,,0.2,1103.0429565852974,Y,d,go,d,1,0.4680338632315397,,,,,,,,,,,,,,,,,,69,001,23,m,Psychologie,2023-01-25_12h02.01.304,00_bat_bachelor,2022.2.4,59.985196406715524,
,,,,,,,,,,,,1,0,1,0,168,0,168,0,,,,,,,168,,,0.2,1103.827073538443,X,l,go,l,1,0.35567755391821265,,,,,,,,,,,,,,,,,,69,001,23,m,Psychologie,2023-01-25_12h02.01.304,00_bat_bachelor,2022.2.4,59.985196406715524,
,,,,,,,,,,,,1,0,1,0,169,0,169,0,,,,,,,169,,,0.2,1104.4942218209617,X,None,nogo,l,0,0.4409672094043344,,,,,,,,,,,,,,,,,,69,001,23,m,Psychologie,2023-01-25_12h02.01.304,00_bat_bachelor,2022.2.4,59.985196406715524,
,,,,,,,,,,,,1,0,1,0,170,0,170,0,,,,,,,170,,,0.2,1105.244594790507,Y,d,go,d,1,0.34597283136099577,,,,,,,,,,,,,,,,,,69,001,23,m,Psychologie,2023-01-25_12h02.01.304,00_bat_bachelor,2022.2.4,59.985196406715524,
,,,,,,,,,,,,1,0,1,0,171,0,171,0,,,,,,,171,,,0.2,1105.8952538690064,X,l,go,l,1,0.36835536593571305,,,,,,,,,,,,,,,,,,69,001,23,m,Psychologie,2023-01-25_12h02.01.304,00_bat_bachelor,2022.2.4,59.985196406715524,
,,,,,,,,,,,,1,0,1,0,172,0,172,0,,,,,,,172,,,0.2,1106.5790949920192,X,None,nogo,None,1,,,,,,,,,,,,,,,,,,,69,001,23,m,Psychologie,2023-01-25_12h02.01.304,00_bat_bachelor,2022.2.4,59.985196406715524,
,,,,,,,,,,,,1,0,1,0,173,0,173,0,,,,,,,173,,,0.2,1107.5797505069058,Y,d,go,d,1,0.3949337771628052,,,,,,,,,,,,,,,,,,69,001,23,m,Psychologie,2023-01-25_12h02.01.304,00_bat_bachelor,2022.2.4,59.985196406715524,
,,,,,,,,,,,,1,0,1,0,174,0,174,0,,,,,,,174,,,0.2,1108.2802999853157,X,l,go,l,1,0.2863389207050204,,,,,,,,,,,,,,,,,,69,001,23,m,Psychologie,2023-01-25_12h02.01.304,00_bat_bachelor,2022.2.4,59.985196406715524,
,,,,,,,,,,,,1,0,1,0,175,0,175,0,,,,,,,175,,,0.2,1108.8808878152631,X,None,nogo,d,0,0.2943311594426632,,,,,,,,,,,,,,,,,,69,001,23,m,Psychologie,2023-01-25_12h02.01.304,00_bat_bachelor,2022.2.4,59.985196406715524,
,,,,,,,,,,,,1,0,1,0,176,0,176,0,,,,,,,176,,,0.2,1109.4813098271843,Y,d,go,d,1,0.43037133594043553,,,,,,,,,,,,,,,,,,69,001,23,m,Psychologie,2023-01-25_12h02.01.304,00_bat_bachelor,2022.2.4,59.985196406715524,
,,,,,,,,,,,,1,0,1,0,177,0,177,0,,,,,,,177,,,0.2,1110.2152755321003,X,l,go,l,1,0.4645463495980948,,,,,,,,,,,,,,,,,,69,001,23,m,Psychologie,2023-01-25_12h02.01.304,00_bat_bachelor,2022.2.4,59.985196406715524,
,,,,,,,,,,,,1,0,1,0,178,0,178,0,,,,,,,178,,,0.2,1110.9825629175175,Y,d,go,d,1,0.38444650964811444,,,,,,,,,,,,,,,,,,69,001,23,m,Psychologie,2023-01-25_12h02.01.304,00_bat_bachelor,2022.2.4,59.985196406715524,
,,,,,,,,,,,,1,0,1,0,179,0,179,0,,,,,,,179,,,0.2,1111.6828011234757,X,l,go,l,1,0.3876082052011043,,,,,,,,,,,,,,,,,,69,001,23,m,Psychologie,2023-01-25_12h02.01.304,00_bat_bachelor,2022.2.4,59.985196406715524,
,,,,,,,,,,,,1,0,1,0,180,0,180,0,,,,,,,180,,,0.2,1112.3835876928642,Y,d,go,d,1,0.34370810515247285,,,,,,,,,,,,,,,,,,69,001,23,m,Psychologie,2023-01-25_12h02.01.304,00_bat_bachelor,2022.2.4,59.985196406715524,
,,,,,,,,,,,,1,0,1,0,181,0,181,0,,,,,,,181,,,0.2,1113.033884104807,X,l,go,l,1,0.36535609466955066,,,,,,,,,,,,,,,,,,69,001,23,m,Psychologie,2023-01-25_12h02.01.304,00_bat_bachelor,2022.2.4,59.985196406715524,
,,,,,,,,,,,,1,0,1,0,182,0,182,0,,,,,,,182,,,0.2,1113.701204508543,X,None,nogo,None,1,,,,,,,,,,,,,,,,,,,69,001,23,m,Psychologie,2023-01-25_12h02.01.304,00_bat_bachelor,2022.2.4,59.985196406715524,
,,,,,,,,,,,,1,0,1,0,183,0,183,0,,,,,,,183,,,0.2,1114.7018382051028,Y,d,go,l,0,0.2804140751250088,,,,,,,,,,,,,,,,,,69,001,23,m,Psychologie,2023-01-25_12h02.01.304,00_bat_bachelor,2022.2.4,59.985196406715524,
,,,,,,,,,,,,1,0,1,0,184,0,184,0,,,,,,,184,,,0.2,1115.285938285524,X,l,go,l,1,0.40056722913868725,,,,,,,,,,,,,,,,,,69,001,23,m,Psychologie,2023-01-25_12h02.01.304,00_bat_bachelor,2022.2.4,59.985196406715524,
,,,,,,,,,,,,1,0,1,0,185,0,185,0,,,,,,,185,,,0.2,1115.9863195219077,Y,d,go,d,1,0.3405861675273627,,,,,,,,,,,,,,,,,,69,001,23,m,Psychologie,2023-01-25_12h02.01.304,00_bat_bachelor,2022.2.4,59.985196406715524,
,,,,,,,,,,,,1,0,1,0,186,0,186,0,,,,,,,186,,,0.2,1116.6369369032327,Y,None,nogo,l,0,0.26662305160425603,,,,,,,,,,,,,,,,,,69,001,23,m,Psychologie,2023-01-25_12h02.01.304,00_bat_bachelor,2022.2.4,59.985196406715524,
,,,,,,,,,,,,1,0,1,0,187,0,187,0,,,,,,,187,,,0.2,1117.2039436586201,X,l,go,l,1,0.49875966645777225,,,,,,,,,,,,,,,,,,69,001,23,m,Psychologie,2023-01-25_12h02.01.304,00_bat_bachelor,2022.2.4,59.985196406715524,
,,,,,,,,,,,,1,0,1,0,188,0,188,0,,,,,,,188,,,0.2,1118.0045391493477,Y,d,go,d,1,0.3073367290198803,,,,,,,,,,,,,,,,,,69,001,23,m,Psychologie,2023-01-25_12h02.01.304,00_bat_bachelor,2022.2.4,59.985196406715524,
,,,,,,,,,,,,1,0,1,0,189,0,189,0,,,,,,,189,,,0.2,1118.6216593349818,Y,None,nogo,l,0,0.31373672583140433,,,,,,,,,,,,,,,,,,69,001,23,m,Psychologie,2023-01-25_12h02.01.304,00_bat_bachelor,2022.2.4,59.985196406715524,
,,,,,,,,,,,,1,0,1,0,190,0,190,0,,,,,,,190,,,0.2,1119.2388173388317,X,l,go,l,1,0.5121288720984012,,,,,,,,,,,,,,,,,,69,001,23,m,Psychologie,2023-01-25_12h02.01.304,00_bat_bachelor,2022.2.4,59.985196406715524,
,,,,,,,,,,,,1,0,1,0,191,0,191,0,,,,,,,191,,,0.2,1120.0560455485247,Y,d,go,d,1,0.3185187841299921,,,,,,,,,,,,,,,,,,69,001,23,m,Psychologie,2023-01-25_12h02.01.304,00_bat_bachelor,2022.2.4,59.985196406715524,
,,,,,,,,,,,,1,0,1,0,192,0,192,0,,,,,,,192,,,0.2,1120.6897320293356,X,l,go,l,1,0.4522976283915341,,,,,,,,,,,,,,,,,,69,001,23,m,Psychologie,2023-01-25_12h02.01.304,00_bat_bachelor,2022.2.4,59.985196406715524,
,,,,,,,,,,,,1,0,1,0,193,0,193,0,,,,,,,193,,,0.2,1121.4571798995603,X,None,nogo,None,1,,1122.2575930871535,,,,,,,,,,,,,,,,,69,001,23,m,Psychologie,2023-01-25_12h02.01.304,00_bat_bachelor,2022.2.4,59.985196406715524,
,,,,,,,,,,,,1,0,1,0,194,0,194,0,,,,,,,194,,,0.2,1122.4579382021911,Y,d,go,d,1,0.46208622958511114,,,,,,,,,,,,,,,,,,69,001,23,m,Psychologie,2023-01-25_12h02.01.304,00_bat_bachelor,2022.2.4,59.985196406715524,
,,,,,,,,,,,,1,0,1,0,195,0,195,0,,,,,,,195,,,0.2,1123.225187284872,X,l,go,l,1,0.36614154907874763,,,,,,,,,,,,,,,,,,69,001,23,m,Psychologie,2023-01-25_12h02.01.304,00_bat_bachelor,2022.2.4,59.985196406715524,
