loop_instruction.thisRepN,loop_instruction.thisTrialN,loop_instruction.thisN,loop_instruction.thisIndex,loop_rsi_practice.thisRepN,loop_rsi_practice.thisTrialN,loop_rsi_practice.thisN,loop_rsi_practice.thisIndex,loop_practice.thisRepN,loop_practice.thisTrialN,loop_practice.thisN,loop_practice.thisIndex,loop_exp.thisRepN,loop_exp.thisTrialN,loop_exp.thisN,loop_exp.thisIndex,loop_trials.thisRepN,loop_trials.thisTrialN,loop_trials.thisN,loop_trials.thisIndex,map_condition,map_x_key,map_y_key,key_resp_welcome.started,key_resp_welcome.keys,key_resp_welcome.rt,index,text_empty_rsi_practice.started,text_empty_rsi_practice.stopped,rsi,stimulus.started,stimulus,correct,trial_type,key_resp_trial.keys,key_resp_trial.corr,key_resp_trial.rt,stimulus.stopped,key_resp_instruction_rsi.started,key_resp_instruction_rsi.keys,key_resp_instruction_rsi.rt,key_resp_instruction_rsi.stopped,key_resp_instruction_final.started,key_resp_instruction_final.keys,key_resp_instruction_final.rt,key_resp_break.started,key_resp_break.keys,key_resp_break.rt,key_resp_break.stopped,key_resp_end_screen.started,image_end_screen.started,key_resp_end_screen.stopped,image_end_screen.stopped,key_resp_end_screen.keys,participant,session,Alter,Geschlecht (w/m/d/andere),Studiengang,date,expName,psychopyVersion,frameRate,
,,,,0,0,0,0,0,0,0,0,,,,,,,,,1,l,d,194.90004543037503,j,15.324495174078038,0,210.25814679972245,211.27061372695607,1,211.27061372695607,X,l,go,None,0,,,,,,,,,,,,,,,,,,,71,001,20,w,Psychologie,2023-01-25_13h33.01.561,00_bat_bachelor,2022.2.4,59.951079842963544,
,,,,0,0,0,0,1,0,1,0,,,,,,,,,,,,,,,1,212.67157770410995,213.6723849780101,1,213.6723849780101,Y,d,go,d,1,0.5808106984186452,,,,,,,,,,,,,,,,,,71,001,20,w,Psychologie,2023-01-25_13h33.01.561,00_bat_bachelor,2022.2.4,59.951079842963544,
,,,,0,0,0,0,2,0,2,0,,,,,,,,,,,,,,,2,214.95667290667188,215.95742151382728,1,215.95742151382728,X,l,go,l,1,0.39190957514801994,,,,,,,,,,,,,,,,,,71,001,20,w,Psychologie,2023-01-25_13h33.01.561,00_bat_bachelor,2022.2.4,59.951079842963544,
,,,,0,0,0,0,3,0,3,0,,,,,,,,,,,,,,,3,217.05808638752205,218.05901826766785,1,218.05901826766785,Y,d,go,d,1,0.49851288174977526,,,,,,,,,,,,,,,,,,71,001,20,w,Psychologie,2023-01-25_13h33.01.561,00_bat_bachelor,2022.2.4,59.951079842963544,
,,,,0,0,0,0,4,0,4,0,,,,,,,,,,,,,,,4,219.25979916576762,220.26075868229964,1,220.26075868229964,X,l,go,l,1,0.3767381591896992,,,,,,,,,,,,,,,,,,71,001,20,w,Psychologie,2023-01-25_13h33.01.561,00_bat_bachelor,2022.2.4,59.951079842963544,
,,,,0,0,0,0,5,0,5,0,,,,,,,,,,,,,,,5,221.34470450138906,222.34559032085235,1,222.34559032085235,Y,d,go,d,1,0.3709364537789952,,,,,,,,,,,,,,,,,,71,001,20,w,Psychologie,2023-01-25_13h33.01.561,00_bat_bachelor,2022.2.4,59.951079842963544,
,,,,0,0,0,0,6,0,6,0,,,,,,,,,,,,,,,6,223.42980668577366,224.43035989868804,1,224.43035989868804,Y,None,nogo,None,1,,225.23121973025263,,,,,,,,,,,,,,,,,71,001,20,w,Psychologie,2023-01-25_13h33.01.561,00_bat_bachelor,2022.2.4,59.951079842963544,
,,,,0,0,0,0,7,0,7,0,,,,,,,,,,,,,,,7,225.8316167247831,226.83236824101186,1,226.83236824101186,X,l,go,l,1,0.316181949863676,,,,,,,,,,,,,,,,,,71,001,20,w,Psychologie,2023-01-25_13h33.01.561,00_bat_bachelor,2022.2.4,59.951079842963544,
,,,,0,0,0,0,8,0,8,0,,,,,,,,,,,,,,,8,227.84986111495527,228.8504201460746,1,228.8504201460746,Y,d,go,d,1,0.3633471093780827,,,,,,,,,,,,,,,,,,71,001,20,w,Psychologie,2023-01-25_13h33.01.561,00_bat_bachelor,2022.2.4,59.951079842963544,
,,,,0,0,0,0,9,0,9,0,,,,,,,,,,,,,,,9,229.91809685056796,230.91891479113838,1,230.91891479113838,X,l,go,l,1,0.4061122624843847,,,,,,,,,,,,,,,,,,71,001,20,w,Psychologie,2023-01-25_13h33.01.561,00_bat_bachelor,2022.2.4,59.951079842963544,
,,,,0,0,0,0,10,0,10,0,,,,,,,,,,,,,,,10,232.0361731435114,233.03713750856696,1,233.03713750856696,X,None,nogo,None,1,,233.83779176406097,,,,,,,,,,,,,,,,,71,001,20,w,Psychologie,2023-01-25_13h33.01.561,00_bat_bachelor,2022.2.4,59.951079842963544,
,,,,0,0,0,0,11,0,11,0,,,,,,,,,,,,,,,11,234.43804524320876,235.4392651237722,1,235.4392651237722,Y,d,go,d,1,0.5081657442788128,,,,,,,,,,,,,,,,,,71,001,20,w,Psychologie,2023-01-25_13h33.01.561,00_bat_bachelor,2022.2.4,59.951079842963544,
,,,,0,0,0,0,12,0,12,0,,,,,,,,,,,,,,,12,236.6734661917144,237.67399516215664,1,237.67399516215664,X,l,go,l,1,0.2910914891399443,,,,,,,,,,,,,,,,,,71,001,20,w,Psychologie,2023-01-25_13h33.01.561,00_bat_bachelor,2022.2.4,59.951079842963544,
,,,,0,0,0,0,13,0,13,0,,,,,,,,,,,,,,,13,238.67481940580183,239.6755631644628,1,239.6755631644628,Y,d,go,d,1,0.32111092674313113,,,,,,,,,,,,,,,,,,71,001,20,w,Psychologie,2023-01-25_13h33.01.561,00_bat_bachelor,2022.2.4,59.951079842963544,
,,,,0,0,0,0,14,0,14,0,,,,,,,,,,,,,,,14,240.70984394158586,241.7104752152227,1,241.7104752152227,X,l,go,l,1,0.36631196216330864,,,,,,,,,,,,,,,,,,71,001,20,w,Psychologie,2023-01-25_13h33.01.561,00_bat_bachelor,2022.2.4,59.951079842963544,
,,,,1,0,1,0,0,0,0,0,,,,,,,,,,,,,,,0,260.8250436242961,261.0252073093725,0.2,261.0252073093725,X,l,go,l,1,0.6031593369843904,,242.79765012991265,j,18.002910706331022,,,,,,,,,,,,,,71,001,20,w,Psychologie,2023-01-25_13h33.01.561,00_bat_bachelor,2022.2.4,59.951079842963544,
,,,,1,0,1,0,1,0,1,0,,,,,,,,,,,,,,,1,262.3428950442176,262.5430175171059,0.2,262.5430175171059,Y,d,go,d,1,0.41485021461267024,,,,,,,,,,,,,,,,,,71,001,20,w,Psychologie,2023-01-25_13h33.01.561,00_bat_bachelor,2022.2.4,59.951079842963544,
,,,,1,0,1,0,2,0,2,0,,,,,,,,,,,,,,,2,263.6605425365269,263.86075664593955,0.2,263.86075664593955,X,l,go,l,1,0.3764676133287139,,,,,,,,,,,,,,,,,,71,001,20,w,Psychologie,2023-01-25_13h33.01.561,00_bat_bachelor,2022.2.4,59.951079842963544,
,,,,1,0,1,0,3,0,3,0,,,,,,,,,,,,,,,3,264.94484646522324,265.1450193624478,0.2,265.1450193624478,X,None,nogo,l,0,0.3405160458642058,,,,,,,,,,,,,,,,,,71,001,20,w,Psychologie,2023-01-25_13h33.01.561,00_bat_bachelor,2022.2.4,59.951079842963544,
,,,,1,0,1,0,4,0,4,0,,,,,,,,,,,,,,,4,266.6128125277173,266.81275851553073,0.2,266.81275851553073,X,None,nogo,None,1,,267.61359265007195,,,,,,,,,,,,,,,,,71,001,20,w,Psychologie,2023-01-25_13h33.01.561,00_bat_bachelor,2022.2.4,59.951079842963544,
,,,,1,0,1,0,5,0,5,0,,,,,,,,,,,,,,,5,268.21399158399436,268.41399866278516,0.2,268.41399866278516,Y,d,go,d,1,0.3500253930396866,,,,,,,,,,,,,,,,,,71,001,20,w,Psychologie,2023-01-25_13h33.01.561,00_bat_bachelor,2022.2.4,59.951079842963544,
,,,,1,0,1,0,6,0,6,0,,,,,,,,,,,,,,,6,269.46473085778416,269.6651020583231,0.2,269.6651020583231,X,l,go,l,1,0.34858102729776874,,,,,,,,,,,,,,,,,,71,001,20,w,Psychologie,2023-01-25_13h33.01.561,00_bat_bachelor,2022.2.4,59.951079842963544,
,,,,1,0,1,0,7,0,7,0,,,,,,,,,,,,,,,7,270.71597049594857,270.9158835140115,0.2,270.9158835140115,Y,d,go,d,1,0.3923032727034297,,,,,,,,,,,,,,,,,,71,001,20,w,Psychologie,2023-01-25_13h33.01.561,00_bat_bachelor,2022.2.4,59.951079842963544,
,,,,1,0,1,0,8,0,8,0,,,,,,,,,,,,,,,8,272.01698329742067,272.21705873994506,0.2,272.21705873994506,X,l,go,l,1,0.38774617519811727,,,,,,,,,,,,,,,,,,71,001,20,w,Psychologie,2023-01-25_13h33.01.561,00_bat_bachelor,2022.2.4,59.951079842963544,
,,,,1,0,1,0,9,0,9,0,,,,,,,,,,,,,,,9,273.3178564623231,273.51807154144626,0.2,273.51807154144626,Y,d,go,d,1,0.4475930501066614,,,,,,,,,,,,,,,,,,71,001,20,w,Psychologie,2023-01-25_13h33.01.561,00_bat_bachelor,2022.2.4,59.951079842963544,
,,,,1,0,1,0,10,0,10,0,,,,,,,,,,,,,,,10,274.6687573363597,274.8688972638338,0.2,274.8688972638338,X,l,go,l,1,0.34384938405128196,,,,,,,,,,,,,,,,,,71,001,20,w,Psychologie,2023-01-25_13h33.01.561,00_bat_bachelor,2022.2.4,59.951079842963544,
,,,,1,0,1,0,11,0,11,0,,,,,,,,,,,,,,,11,275.9198898228642,276.1200830837479,0.2,276.1200830837479,X,None,nogo,None,1,,276.92081152118044,,,,,,,,,,,,,,,,,71,001,20,w,Psychologie,2023-01-25_13h33.01.561,00_bat_bachelor,2022.2.4,59.951079842963544,
,,,,1,0,1,0,12,0,12,0,,,,,,,,,,,,,,,12,277.52114548528334,277.7211932914215,0.2,277.7211932914215,Y,d,go,d,1,0.38752847790601663,,,,,,,,,,,,,,,,,,71,001,20,w,Psychologie,2023-01-25_13h33.01.561,00_bat_bachelor,2022.2.4,59.951079842963544,
,,,,1,0,1,0,13,0,13,0,,,,,,,,,,,,,,,13,278.8222227717051,279.0222933657642,0.2,279.0222933657642,X,l,go,l,1,0.3021911416435614,,,,,,,,,,,,,,,,,,71,001,20,w,Psychologie,2023-01-25_13h33.01.561,00_bat_bachelor,2022.2.4,59.951079842963544,
,,,,1,0,1,0,14,0,14,0,,,,,,,,,,,,,,,14,280.0396863607457,280.2396585303941,0.2,280.2396585303941,X,None,nogo,None,1,,281.04047569521936,,,,,,,,,,,,,,,,,71,001,20,w,Psychologie,2023-01-25_13h33.01.561,00_bat_bachelor,2022.2.4,59.951079842963544,
,,,,,,,,,,,,,,,,,,,,,,,,,,,,,,,,,,,,,,281.67501916366746,None,,281.67501916366746,281.67501916366746,space,8.084896280110115,,,,,,,,,,71,001,20,w,Psychologie,2023-01-25_13h33.01.561,00_bat_bachelor,2022.2.4,59.951079842963544,
,,,,,,,,,,,,0,0,0,0,0,0,0,0,,,,,,,0,,,1,290.78104404514306,X,l,go,l,1,0.2877949994872324,,,,,,,,,,,,,,,,,,71,001,20,w,Psychologie,2023-01-25_13h33.01.561,00_bat_bachelor,2022.2.4,59.951079842963544,
,,,,,,,,,,,,0,0,0,0,1,0,1,0,,,,,,,1,,,1,292.182143295242,Y,d,go,d,1,0.3577117072418332,,,,,,,,,,,,,,,,,,71,001,20,w,Psychologie,2023-01-25_13h33.01.561,00_bat_bachelor,2022.2.4,59.951079842963544,
,,,,,,,,,,,,0,0,0,0,2,0,2,0,,,,,,,2,,,1,293.6499272483634,X,l,go,l,1,0.2515622195205651,,,,,,,,,,,,,,,,,,71,001,20,w,Psychologie,2023-01-25_13h33.01.561,00_bat_bachelor,2022.2.4,59.951079842963544,
,,,,,,,,,,,,0,0,0,0,3,0,3,0,,,,,,,3,,,1,295.017527298216,X,None,nogo,None,1,,,,,,,,,,,,,,,,,,,71,001,20,w,Psychologie,2023-01-25_13h33.01.561,00_bat_bachelor,2022.2.4,59.951079842963544,
,,,,,,,,,,,,0,0,0,0,4,0,4,0,,,,,,,4,,,1,296.8190634943894,Y,d,go,d,1,0.4423930425255094,,,,,,,,,,,,,,,,,,71,001,20,w,Psychologie,2023-01-25_13h33.01.561,00_bat_bachelor,2022.2.4,59.951079842963544,
,,,,,,,,,,,,0,0,0,0,5,0,5,0,,,,,,,5,,,1,298.37027884161216,X,l,go,l,1,0.2987171972054057,,,,,,,,,,,,,,,,,,71,001,20,w,Psychologie,2023-01-25_13h33.01.561,00_bat_bachelor,2022.2.4,59.951079842963544,
,,,,,,,,,,,,0,0,0,0,6,0,6,0,,,,,,,6,,,1,299.771291788551,Y,d,go,d,1,0.225786182039883,,,,,,,,,,,,,,,,,,71,001,20,w,Psychologie,2023-01-25_13h33.01.561,00_bat_bachelor,2022.2.4,59.951079842963544,
,,,,,,,,,,,,0,0,0,0,7,0,7,0,,,,,,,7,,,1,301.1056083960284,X,l,go,l,1,0.39609770246897824,,,,,,,,,,,,,,,,,,71,001,20,w,Psychologie,2023-01-25_13h33.01.561,00_bat_bachelor,2022.2.4,59.951079842963544,
,,,,,,,,,,,,0,0,0,0,8,0,8,0,,,,,,,8,,,1,302.6067354279803,X,None,nogo,None,1,,303.407424107776,,,,,,,,,,,,,,,,,71,001,20,w,Psychologie,2023-01-25_13h33.01.561,00_bat_bachelor,2022.2.4,59.951079842963544,
,,,,,,,,,,,,0,0,0,0,9,0,9,0,,,,,,,9,,,1,304.40814313912415,Y,d,go,d,1,0.3417577446671203,,,,,,,,,,,,,,,,,,71,001,20,w,Psychologie,2023-01-25_13h33.01.561,00_bat_bachelor,2022.2.4,59.951079842963544,
,,,,,,,,,,,,0,0,0,0,10,0,10,0,,,,,,,10,,,1,305.859322946897,X,l,go,l,1,0.29756471066502854,,,,,,,,,,,,,,,,,,71,001,20,w,Psychologie,2023-01-25_13h33.01.561,00_bat_bachelor,2022.2.4,59.951079842963544,
,,,,,,,,,,,,0,0,0,0,11,0,11,0,,,,,,,11,,,1,307.26025492401095,X,None,nogo,l,0,0.33661979777389206,,,,,,,,,,,,,,,,,,71,001,20,w,Psychologie,2023-01-25_13h33.01.561,00_bat_bachelor,2022.2.4,59.951079842963544,
,,,,,,,,,,,,0,0,0,0,12,0,12,0,,,,,,,12,,,1,308.7112005496165,Y,d,go,d,1,0.45298311856458895,,,,,,,,,,,,,,,,,,71,001,20,w,Psychologie,2023-01-25_13h33.01.561,00_bat_bachelor,2022.2.4,59.951079842963544,
,,,,,,,,,,,,0,0,0,0,13,0,13,0,,,,,,,13,,,1,310.27905737559195,X,l,go,l,1,0.26088538457406685,,,,,,,,,,,,,,,,,,71,001,20,w,Psychologie,2023-01-25_13h33.01.561,00_bat_bachelor,2022.2.4,59.951079842963544,
,,,,,,,,,,,,0,0,0,0,14,0,14,0,,,,,,,14,,,1,311.64685136510525,X,None,nogo,None,1,,,,,,,,,,,,,,,,,,,71,001,20,w,Psychologie,2023-01-25_13h33.01.561,00_bat_bachelor,2022.2.4,59.951079842963544,
,,,,,,,,,,,,0,0,0,0,15,0,15,0,,,,,,,15,,,1,313.44833422786905,Y,d,go,d,1,0.35684237265377305,,,,,,,,,,,,,,,,,,71,001,20,w,Psychologie,2023-01-25_13h33.01.561,00_bat_bachelor,2022.2.4,59.951079842963544,
,,,,,,,,,,,,0,0,0,0,16,0,16,0,,,,,,,16,,,1,314.91619042353705,X,l,go,l,1,0.28121268688119017,,,,,,,,,,,,,,,,,,71,001,20,w,Psychologie,2023-01-25_13h33.01.561,00_bat_bachelor,2022.2.4,59.951079842963544,
,,,,,,,,,,,,0,0,0,0,17,0,17,0,,,,,,,17,,,1,316.3002874670783,Y,d,go,d,1,0.20769645873224363,,,,,,,,,,,,,,,,,,71,001,20,w,Psychologie,2023-01-25_13h33.01.561,00_bat_bachelor,2022.2.4,59.951079842963544,
,,,,,,,,,,,,0,0,0,0,18,0,18,0,,,,,,,18,,,1,317.6181662324816,X,l,go,l,1,0.21791756452876143,,,,,,,,,,,,,,,,,,71,001,20,w,Psychologie,2023-01-25_13h33.01.561,00_bat_bachelor,2022.2.4,59.951079842963544,
,,,,,,,,,,,,0,0,0,0,19,0,19,0,,,,,,,19,,,1,318.952495930891,Y,d,go,d,1,0.35591485613258556,,,,,,,,,,,,,,,,,,71,001,20,w,Psychologie,2023-01-25_13h33.01.561,00_bat_bachelor,2022.2.4,59.951079842963544,
,,,,,,,,,,,,0,0,0,0,20,0,20,0,,,,,,,20,,,1,320.42038606602,X,l,go,l,1,0.3127826721756719,,,,,,,,,,,,,,,,,,71,001,20,w,Psychologie,2023-01-25_13h33.01.561,00_bat_bachelor,2022.2.4,59.951079842963544,
,,,,,,,,,,,,0,0,0,0,21,0,21,0,,,,,,,21,,,1,321.83782909743604,Y,d,go,d,1,0.36701208440354094,,,,,,,,,,,,,,,,,,71,001,20,w,Psychologie,2023-01-25_13h33.01.561,00_bat_bachelor,2022.2.4,59.951079842963544,
,,,,,,,,,,,,0,0,0,0,22,0,22,0,,,,,,,22,,,1,323.3056489294104,X,l,go,l,1,0.30765684656216763,,,,,,,,,,,,,,,,,,71,001,20,w,Psychologie,2023-01-25_13h33.01.561,00_bat_bachelor,2022.2.4,59.951079842963544,
,,,,,,,,,,,,0,0,0,0,23,0,23,0,,,,,,,23,,,1,324.72423426553723,X,None,nogo,None,1,,325.5251227031986,,,,,,,,,,,,,,,,,71,001,20,w,Psychologie,2023-01-25_13h33.01.561,00_bat_bachelor,2022.2.4,59.951079842963544,
,,,,,,,,,,,,0,0,0,0,24,0,24,0,,,,,,,24,,,1,326.5258572497405,Y,d,go,d,1,0.28647717941203155,,,,,,,,,,,,,,,,,,71,001,20,w,Psychologie,2023-01-25_13h33.01.561,00_bat_bachelor,2022.2.4,59.951079842963544,
,,,,,,,,,,,,0,0,0,0,25,0,25,0,,,,,,,25,,,1,327.943201856775,X,l,go,l,1,0.24494790684548207,,,,,,,,,,,,,,,,,,71,001,20,w,Psychologie,2023-01-25_13h33.01.561,00_bat_bachelor,2022.2.4,59.951079842963544,
,,,,,,,,,,,,0,0,0,0,26,0,26,0,,,,,,,26,,,1,329.3107437247236,Y,d,go,d,1,0.23804171499796212,,,,,,,,,,,,,,,,,,71,001,20,w,Psychologie,2023-01-25_13h33.01.561,00_bat_bachelor,2022.2.4,59.951079842963544,
,,,,,,,,,,,,0,0,0,0,27,0,27,0,,,,,,,27,,,1,330.662123629736,Y,None,nogo,d,0,0.40672462701331824,,,,,,,,,,,,,,,,,,71,001,20,w,Psychologie,2023-01-25_13h33.01.561,00_bat_bachelor,2022.2.4,59.951079842963544,
,,,,,,,,,,,,0,0,0,0,28,0,28,0,,,,,,,28,,,1,332.19621992178145,X,l,go,None,0,,332.9968368438713,,,,,,,,,,,,,,,,,71,001,20,w,Psychologie,2023-01-25_13h33.01.561,00_bat_bachelor,2022.2.4,59.951079842963544,
,,,,,,,,,,,,0,0,0,0,29,0,29,0,,,,,,,29,,,1,333.9975825419242,Y,d,go,d,1,0.2393716563237831,,,,,,,,,,,,,,,,,,71,001,20,w,Psychologie,2023-01-25_13h33.01.561,00_bat_bachelor,2022.2.4,59.951079842963544,
,,,,,,,,,,,,0,0,0,0,30,0,30,0,,,,,,,30,,,1,335.34841650677845,X,l,go,l,1,0.2654652700293809,,,,,,,,,,,,,,,,,,71,001,20,w,Psychologie,2023-01-25_13h33.01.561,00_bat_bachelor,2022.2.4,59.951079842963544,
,,,,,,,,,,,,0,0,0,0,31,0,31,0,,,,,,,31,,,1,336.71624492059345,X,None,nogo,None,1,,,,,,,,,,,,,,,,,,,71,001,20,w,Psychologie,2023-01-25_13h33.01.561,00_bat_bachelor,2022.2.4,59.951079842963544,
,,,,,,,,,,,,0,0,0,0,32,0,32,0,,,,,,,32,,,1,338.5172899645404,Y,d,go,d,1,0.45482893942971714,,,,,,,,,,,,,,,,,,71,001,20,w,Psychologie,2023-01-25_13h33.01.561,00_bat_bachelor,2022.2.4,59.951079842963544,
,,,,,,,,,,,,0,0,0,0,33,0,33,0,,,,,,,33,,,1,340.0854682455247,X,l,go,l,1,0.35853546601720154,,,,,,,,,,,,,,,,,,71,001,20,w,Psychologie,2023-01-25_13h33.01.561,00_bat_bachelor,2022.2.4,59.951079842963544,
,,,,,,,,,,,,0,0,0,0,34,0,34,0,,,,,,,34,,,1,341.55345728987595,Y,d,go,d,1,0.3628734117082786,,,,,,,,,,,,,,,,,,71,001,20,w,Psychologie,2023-01-25_13h33.01.561,00_bat_bachelor,2022.2.4,59.951079842963544,
,,,,,,,,,,,,0,0,0,0,35,0,35,0,,,,,,,35,,,1,343.03796611583675,Y,None,nogo,None,1,,343.83852485602256,,,,,,,,,,,,,,,,,71,001,20,w,Psychologie,2023-01-25_13h33.01.561,00_bat_bachelor,2022.2.4,59.951079842963544,
,,,,,,,,,,,,0,0,0,0,36,0,36,0,,,,,,,36,,,1,344.83914643269964,X,l,go,l,1,0.2616228402184788,,,,,,,,,,,,,,,,,,71,001,20,w,Psychologie,2023-01-25_13h33.01.561,00_bat_bachelor,2022.2.4,59.951079842963544,
,,,,,,,,,,,,0,0,0,0,37,0,37,0,,,,,,,37,,,1,346.20679545230814,Y,d,go,d,1,0.22250035908655263,,,,,,,,,,,,,,,,,,71,001,20,w,Psychologie,2023-01-25_13h33.01.561,00_bat_bachelor,2022.2.4,59.951079842963544,
,,,,,,,,,,,,0,0,0,0,38,0,38,0,,,,,,,38,,,1,347.5411493931897,X,l,go,l,1,0.2477197896805592,,,,,,,,,,,,,,,,,,71,001,20,w,Psychologie,2023-01-25_13h33.01.561,00_bat_bachelor,2022.2.4,59.951079842963544,
,,,,,,,,,,,,0,0,0,0,39,0,39,0,,,,,,,39,,,1,348.891874266963,Y,d,go,d,1,0.33638076711213216,,,,,,,,,,,,,,,,,,71,001,20,w,Psychologie,2023-01-25_13h33.01.561,00_bat_bachelor,2022.2.4,59.951079842963544,
,,,,,,,,,,,,0,0,0,0,40,0,40,0,,,,,,,40,,,1,350.3433163781592,X,l,go,l,1,0.3416690172452945,,,,,,,,,,,,,,,,,,71,001,20,w,Psychologie,2023-01-25_13h33.01.561,00_bat_bachelor,2022.2.4,59.951079842963544,
,,,,,,,,,,,,0,0,0,0,41,0,41,0,,,,,,,41,,,1,351.79432745839586,X,None,nogo,None,1,,,,,,,,,,,,,,,,,,,71,001,20,w,Psychologie,2023-01-25_13h33.01.561,00_bat_bachelor,2022.2.4,59.951079842963544,
,,,,,,,,,,,,0,0,0,0,42,0,42,0,,,,,,,42,,,1,353.59579044237034,Y,d,go,d,1,0.4337011511088349,,,,,,,,,,,,,,,,,,71,001,20,w,Psychologie,2023-01-25_13h33.01.561,00_bat_bachelor,2022.2.4,59.951079842963544,
,,,,,,,,,,,,0,0,0,0,43,0,43,0,,,,,,,43,,,1,355.13029497739626,X,l,go,l,1,0.41880125063471496,,,,,,,,,,,,,,,,,,71,001,20,w,Psychologie,2023-01-25_13h33.01.561,00_bat_bachelor,2022.2.4,59.951079842963544,
,,,,,,,,,,,,0,0,0,0,44,0,44,0,,,,,,,44,,,1,356.6644872695615,X,None,nogo,l,0,0.3556830982561223,,,,,,,,,,,,,,,,,,71,001,20,w,Psychologie,2023-01-25_13h33.01.561,00_bat_bachelor,2022.2.4,59.951079842963544,
,,,,,,,,,,,,0,0,0,0,45,0,45,0,,,,,,,45,,,1,358.132443829003,Y,d,go,d,1,0.3770615535613615,,,,,,,,,,,,,,,,,,71,001,20,w,Psychologie,2023-01-25_13h33.01.561,00_bat_bachelor,2022.2.4,59.951079842963544,
,,,,,,,,,,,,0,0,0,0,46,0,46,0,,,,,,,46,,,1,359.6169928974414,X,l,go,l,1,0.39673527915147133,,,,,,,,,,,,,,,,,,71,001,20,w,Psychologie,2023-01-25_13h33.01.561,00_bat_bachelor,2022.2.4,59.951079842963544,
,,,,,,,,,,,,0,0,0,0,47,0,47,0,,,,,,,47,,,1,361.1181509597227,Y,d,go,d,1,0.4319033303181641,,,,,,,,,,,,,,,,,,71,001,20,w,Psychologie,2023-01-25_13h33.01.561,00_bat_bachelor,2022.2.4,59.951079842963544,
,,,,,,,,,,,,0,0,0,0,48,0,48,0,,,,,,,48,,,1,362.6526099189359,X,l,go,l,1,0.43204878506367095,,,,,,,,,,,,,,,,,,71,001,20,w,Psychologie,2023-01-25_13h33.01.561,00_bat_bachelor,2022.2.4,59.951079842963544,
,,,,,,,,,,,,0,0,0,0,49,0,49,0,,,,,,,49,,,1,364.1871658479795,Y,d,go,d,1,0.5146108445478603,,,,,,,,,,,,,,,,,,71,001,20,w,Psychologie,2023-01-25_13h33.01.561,00_bat_bachelor,2022.2.4,59.951079842963544,
,,,,,,,,,,,,0,0,0,0,50,0,50,0,,,,,,,50,,,1,365.8051502620219,Y,None,nogo,None,1,,,,,,,,,,,,,,,,,,,71,001,20,w,Psychologie,2023-01-25_13h33.01.561,00_bat_bachelor,2022.2.4,59.951079842963544,
,,,,,,,,,,,,0,0,0,0,51,0,51,0,,,,,,,51,,,1,367.6063611244026,X,l,go,l,1,0.2629910846299026,,,,,,,,,,,,,,,,,,71,001,20,w,Psychologie,2023-01-25_13h33.01.561,00_bat_bachelor,2022.2.4,59.951079842963544,
,,,,,,,,,,,,0,0,0,0,52,0,52,0,,,,,,,52,,,1,368.974220568547,Y,d,go,d,1,0.2234938150504604,,,,,,,,,,,,,,,,,,71,001,20,w,Psychologie,2023-01-25_13h33.01.561,00_bat_bachelor,2022.2.4,59.951079842963544,
,,,,,,,,,,,,0,0,0,0,53,0,53,0,,,,,,,53,,,1,370.3084528122854,X,l,go,l,1,0.3294430600653868,,,,,,,,,,,,,,,,,,71,001,20,w,Psychologie,2023-01-25_13h33.01.561,00_bat_bachelor,2022.2.4,59.951079842963544,
,,,,,,,,,,,,0,0,0,0,54,0,54,0,,,,,,,54,,,1,371.74265998930787,Y,d,go,d,1,0.41440318364766426,,,,,,,,,,,,,,,,,,71,001,20,w,Psychologie,2023-01-25_13h33.01.561,00_bat_bachelor,2022.2.4,59.951079842963544,
,,,,,,,,,,,,0,0,0,0,55,0,55,0,,,,,,,55,,,1,373.2606699549069,X,l,go,l,1,0.5772940872411709,,,,,,,,,,,,,,,,,,71,001,20,w,Psychologie,2023-01-25_13h33.01.561,00_bat_bachelor,2022.2.4,59.951079842963544,
,,,,,,,,,,,,0,0,0,0,56,0,56,0,,,,,,,56,,,1,374.9452416173299,X,None,nogo,None,1,,375.7457135695149,,,,,,,,,,,,,,,,,71,001,20,w,Psychologie,2023-01-25_13h33.01.561,00_bat_bachelor,2022.2.4,59.951079842963544,
,,,,,,,,,,,,0,0,0,0,57,0,57,0,,,,,,,57,,,1,376.746477691835,Y,d,go,d,1,0.2909741556213703,,,,,,,,,,,,,,,,,,71,001,20,w,Psychologie,2023-01-25_13h33.01.561,00_bat_bachelor,2022.2.4,59.951079842963544,
,,,,,,,,,,,,0,0,0,0,58,0,58,0,,,,,,,58,,,1,378.1475478509674,X,l,go,l,1,0.23314473815844394,,,,,,,,,,,,,,,,,,71,001,20,w,Psychologie,2023-01-25_13h33.01.561,00_bat_bachelor,2022.2.4,59.951079842963544,
,,,,,,,,,,,,0,0,0,0,59,0,59,0,,,,,,,59,,,1,379.48211997398175,X,None,nogo,None,1,,,,,,,,,,,,,,,,,,,71,001,20,w,Psychologie,2023-01-25_13h33.01.561,00_bat_bachelor,2022.2.4,59.951079842963544,
,,,,,,,,,,,,0,0,0,0,60,0,60,0,,,,,,,60,,,1,381.2836697459279,Y,d,go,d,1,0.37821646433440037,,,,,,,,,,,,,,,,,,71,001,20,w,Psychologie,2023-01-25_13h33.01.561,00_bat_bachelor,2022.2.4,59.951079842963544,
,,,,,,,,,,,,0,0,0,0,61,0,61,0,,,,,,,61,,,1,382.7680631777912,X,l,go,l,1,0.2363529852591455,,,,,,,,,,,,,,,,,,71,001,20,w,Psychologie,2023-01-25_13h33.01.561,00_bat_bachelor,2022.2.4,59.951079842963544,
,,,,,,,,,,,,0,0,0,0,62,0,62,0,,,,,,,62,,,1,384.1190101124812,Y,d,go,d,1,0.2131170726788696,,,,,,,,,,,,,,,,,,71,001,20,w,Psychologie,2023-01-25_13h33.01.561,00_bat_bachelor,2022.2.4,59.951079842963544,
,,,,,,,,,,,,0,0,0,0,63,0,63,0,,,,,,,63,,,1,385.436521847063,X,l,go,l,1,0.35250782090588473,,,,,,,,,,,,,,,,,,71,001,20,w,Psychologie,2023-01-25_13h33.01.561,00_bat_bachelor,2022.2.4,59.951079842963544,
,,,,,,,,,,,,0,0,0,0,64,0,64,0,,,,,,,64,,,1,386.9045627702726,Y,d,go,d,1,0.4046344421803951,,,,,,,,,,,,,,,,,,71,001,20,w,Psychologie,2023-01-25_13h33.01.561,00_bat_bachelor,2022.2.4,59.951079842963544,
,,,,,,,,,,,,0,0,0,0,65,0,65,0,,,,,,,65,,,1,388.422241583874,X,l,go,l,1,0.37384118523914367,,,,,,,,,,,,,,,,,,71,001,20,w,Psychologie,2023-01-25_13h33.01.561,00_bat_bachelor,2022.2.4,59.951079842963544,
,,,,,,,,,,,,0,0,0,0,66,0,66,0,,,,,,,66,,,1,389.9065758640936,Y,d,go,d,1,0.2497682775137946,,,,,,,,,,,,,,,,,,71,001,20,w,Psychologie,2023-01-25_13h33.01.561,00_bat_bachelor,2022.2.4,59.951079842963544,
,,,,,,,,,,,,0,0,0,0,67,0,67,0,,,,,,,67,,,1,391.2578888599528,Y,None,nogo,None,1,,,,,,,,,,,,,,,,,,,71,001,20,w,Psychologie,2023-01-25_13h33.01.561,00_bat_bachelor,2022.2.4,59.951079842963544,
,,,,,,,,,,,,0,0,0,0,68,0,68,0,,,,,,,68,,,1,393.05912929811166,X,l,go,l,1,0.2342424367670901,,,,,,,,,,,,,,,,,,71,001,20,w,Psychologie,2023-01-25_13h33.01.561,00_bat_bachelor,2022.2.4,59.951079842963544,
,,,,,,,,,,,,0,0,0,0,69,0,69,0,,,,,,,69,,,1,394.4102687179693,Y,d,go,d,1,0.2753261328616645,,,,,,,,,,,,,,,,,,71,001,20,w,Psychologie,2023-01-25_13h33.01.561,00_bat_bachelor,2022.2.4,59.951079842963544,
,,,,,,,,,,,,0,0,0,0,70,0,70,0,,,,,,,70,,,1,395.79466394375777,X,l,go,l,1,0.2819787486223504,,,,,,,,,,,,,,,,,,71,001,20,w,Psychologie,2023-01-25_13h33.01.561,00_bat_bachelor,2022.2.4,59.951079842963544,
,,,,,,,,,,,,0,0,0,0,71,0,71,0,,,,,,,71,,,1,397.1789389269252,Y,d,go,d,1,0.21085864515043795,,,,,,,,,,,,,,,,,,71,001,20,w,Psychologie,2023-01-25_13h33.01.561,00_bat_bachelor,2022.2.4,59.951079842963544,
,,,,,,,,,,,,0,0,0,0,72,0,72,0,,,,,,,72,,,1,398.4964089644782,X,l,go,l,1,0.3482842995726969,,,,,,,,,,,,,,,,,,71,001,20,w,Psychologie,2023-01-25_13h33.01.561,00_bat_bachelor,2022.2.4,59.951079842963544,
,,,,,,,,,,,,0,0,0,0,73,0,73,0,,,,,,,73,,,1,399.94749762059655,X,None,nogo,None,1,,,,,,,,,,,,,,,,,,,71,001,20,w,Psychologie,2023-01-25_13h33.01.561,00_bat_bachelor,2022.2.4,59.951079842963544,
,,,,,,,,,,,,0,0,0,0,74,0,74,0,,,,,,,74,,,1,401.7490692107531,Y,d,go,d,1,0.43965412947000004,,,,,,,,,,,,,,,,,,71,001,20,w,Psychologie,2023-01-25_13h33.01.561,00_bat_bachelor,2022.2.4,59.951079842963544,
,,,,,,,,,,,,0,0,0,0,75,0,75,0,,,,,,,75,,,1,403.30039995210245,X,l,go,l,1,0.2166239868674893,,,,,,,,,,,,,,,,,,71,001,20,w,Psychologie,2023-01-25_13h33.01.561,00_bat_bachelor,2022.2.4,59.951079842963544,
,,,,,,,,,,,,0,0,0,0,76,0,76,0,,,,,,,76,,,1,404.6180469595711,X,None,nogo,d,0,0.2581013805465773,,,,,,,,,,,,,,,,,,71,001,20,w,Psychologie,2023-01-25_13h33.01.561,00_bat_bachelor,2022.2.4,59.951079842963544,
,,,,,,,,,,,,0,0,0,0,77,0,77,0,,,,,,,77,,,1,405.98573282771395,X,None,nogo,l,0,0.3963144300796557,,,,,,,,,,,,,,,,,,71,001,20,w,Psychologie,2023-01-25_13h33.01.561,00_bat_bachelor,2022.2.4,59.951079842963544,
,,,,,,,,,,,,0,0,0,0,78,0,78,0,,,,,,,78,,,1,407.4868719808874,Y,d,go,d,1,0.49520814965944737,,,,,,,,,,,,,,,,,,71,001,20,w,Psychologie,2023-01-25_13h33.01.561,00_bat_bachelor,2022.2.4,59.951079842963544,
,,,,,,,,,,,,0,0,0,0,79,0,79,0,,,,,,,79,,,1,409.0881722494669,X,l,go,l,1,0.4940071782330051,,,,,,,,,,,,,,,,,,71,001,20,w,Psychologie,2023-01-25_13h33.01.561,00_bat_bachelor,2022.2.4,59.951079842963544,
,,,,,,,,,,,,0,0,0,0,80,0,80,0,,,,,,,80,,,1,410.68933385115815,Y,d,go,d,1,0.46092349372338504,,,,,,,,,,,,,,,,,,71,001,20,w,Psychologie,2023-01-25_13h33.01.561,00_bat_bachelor,2022.2.4,59.951079842963544,
,,,,,,,,,,,,0,0,0,0,81,0,81,0,,,,,,,81,,,1,412.2572357681056,X,l,go,l,1,0.46098943322431296,,,,,,,,,,,,,,,,,,71,001,20,w,Psychologie,2023-01-25_13h33.01.561,00_bat_bachelor,2022.2.4,59.951079842963544,
,,,,,,,,,,,,0,0,0,0,82,0,82,0,,,,,,,82,,,1,413.825169685093,Y,d,go,None,0,,,,,,,,,,,,,,,,,,,71,001,20,w,Psychologie,2023-01-25_13h33.01.561,00_bat_bachelor,2022.2.4,59.951079842963544,
,,,,,,,,,,,,0,0,0,0,83,0,83,0,,,,,,,83,,,1,415.6261458804365,X,l,go,l,1,0.4987732457520906,,,,,,,,,,,,,,,,,,71,001,20,w,Psychologie,2023-01-25_13h33.01.561,00_bat_bachelor,2022.2.4,59.951079842963544,
,,,,,,,,,,,,0,0,0,0,84,0,84,0,,,,,,,84,,,1,417.2273564519128,Y,d,go,d,1,0.4329389681806788,,,,,,,,,,,,,,,,,,71,001,20,w,Psychologie,2023-01-25_13h33.01.561,00_bat_bachelor,2022.2.4,59.951079842963544,
,,,,,,,,,,,,0,0,0,0,85,0,85,0,,,,,,,85,,,1,418.7621940783283,Y,None,nogo,None,1,,,,,,,,,,,,,,,,,,,71,001,20,w,Psychologie,2023-01-25_13h33.01.561,00_bat_bachelor,2022.2.4,59.951079842963544,
,,,,,,,,,,,,0,0,0,0,86,0,86,0,,,,,,,86,,,1,420.56354360756814,X,l,go,l,1,0.2658613918174524,,,,,,,,,,,,,,,,,,71,001,20,w,Psychologie,2023-01-25_13h33.01.561,00_bat_bachelor,2022.2.4,59.951079842963544,
,,,,,,,,,,,,0,0,0,0,87,0,87,0,,,,,,,87,,,1,421.931317718263,Y,d,go,d,1,0.4009714065177832,,,,,,,,,,,,,,,,,,71,001,20,w,Psychologie,2023-01-25_13h33.01.561,00_bat_bachelor,2022.2.4,59.951079842963544,
,,,,,,,,,,,,0,0,0,0,88,0,88,0,,,,,,,88,,,1,423.4491337442014,Y,None,nogo,l,0,0.2127141630044207,,,,,,,,,,,,,,,,,,71,001,20,w,Psychologie,2023-01-25_13h33.01.561,00_bat_bachelor,2022.2.4,59.951079842963544,
,,,,,,,,,,,,0,0,0,0,89,0,89,0,,,,,,,89,,,1,424.76651553917327,X,l,go,l,1,0.5418613084184472,,,,,,,,,,,,,,,,,,71,001,20,w,Psychologie,2023-01-25_13h33.01.561,00_bat_bachelor,2022.2.4,59.951079842963544,
,,,,,,,,,,,,0,0,0,0,90,0,90,0,,,,,,,90,,,1,426.41784739564173,Y,d,go,d,1,0.34856648184359074,,,,,,,,,,,,,,,,,,71,001,20,w,Psychologie,2023-01-25_13h33.01.561,00_bat_bachelor,2022.2.4,59.951079842963544,
,,,,,,,,,,,,0,0,0,0,91,0,91,0,,,,,,,91,,,1,427.86904417315964,X,l,go,l,1,0.33544500821153633,,,,,,,,,,,,,,,,,,71,001,20,w,Psychologie,2023-01-25_13h33.01.561,00_bat_bachelor,2022.2.4,59.951079842963544,
,,,,,,,,,,,,0,0,0,0,92,0,92,0,,,,,,,92,,,1,429.31996701084427,X,None,nogo,None,1,,,,,,,,,,,,,,,,,,,71,001,20,w,Psychologie,2023-01-25_13h33.01.561,00_bat_bachelor,2022.2.4,59.951079842963544,
,,,,,,,,,,,,0,0,0,0,93,0,93,0,,,,,,,93,,,1,431.1220816321147,Y,d,go,d,1,0.18528042614343576,,,,,,,,,,,,,,,,,,71,001,20,w,Psychologie,2023-01-25_13h33.01.561,00_bat_bachelor,2022.2.4,59.951079842963544,
,,,,,,,,,,,,0,0,0,0,94,0,94,0,,,,,,,94,,,1,432.43976403359557,X,l,go,l,1,0.2294414600764867,,,,,,,,,,,,,,,,,,71,001,20,w,Psychologie,2023-01-25_13h33.01.561,00_bat_bachelor,2022.2.4,59.951079842963544,
,,,,,,,,,,,,0,0,0,0,95,0,95,0,,,,,,,95,,,1,433.7743662172579,X,None,nogo,None,1,,434.57486435130704,,,,,,,,,,,,,,,,,71,001,20,w,Psychologie,2023-01-25_13h33.01.561,00_bat_bachelor,2022.2.4,59.951079842963544,
,,,,,,,,,,,,0,0,0,0,96,0,96,0,,,,,,,96,,,1,435.575717201049,Y,d,go,d,1,0.245279543712968,,,,,,,,,,,,,,,,,,71,001,20,w,Psychologie,2023-01-25_13h33.01.561,00_bat_bachelor,2022.2.4,59.951079842963544,
,,,,,,,,,,,,0,0,0,0,97,0,97,0,,,,,,,97,,,1,436.9433894934191,X,l,go,l,1,0.3657432340842206,,,,,,,,,,,,,,,,,,71,001,20,w,Psychologie,2023-01-25_13h33.01.561,00_bat_bachelor,2022.2.4,59.951079842963544,
,,,,,,,,,,,,0,0,0,0,98,0,98,0,,,,,,,98,,,1,438.4109867796069,Y,d,go,d,1,0.3542178839852568,,,,,,,,,,,,,,,,,,71,001,20,w,Psychologie,2023-01-25_13h33.01.561,00_bat_bachelor,2022.2.4,59.951079842963544,
,,,,,,,,,,,,0,0,0,0,99,0,99,0,,,,,,,99,,,1,439.8787547327229,Y,None,nogo,None,1,,440.6796926250099,,,,,,,,,,,,,,,,,71,001,20,w,Psychologie,2023-01-25_13h33.01.561,00_bat_bachelor,2022.2.4,59.951079842963544,
,,,,,,,,,,,,0,0,0,0,100,0,100,0,,,,,,,100,,,1,441.680340383522,X,l,go,l,1,0.1566302026330959,,,,,,,,,,,,,,,,,,71,001,20,w,Psychologie,2023-01-25_13h33.01.561,00_bat_bachelor,2022.2.4,59.951079842963544,
,,,,,,,,,,,,0,0,0,0,101,0,101,0,,,,,,,101,,,1,442.9478971363278,Y,d,go,d,1,0.15220159012824297,,,,,,,,,,,,,,,,,,71,001,20,w,Psychologie,2023-01-25_13h33.01.561,00_bat_bachelor,2022.2.4,59.951079842963544,
,,,,,,,,,,,,0,0,0,0,102,0,102,0,,,,,,,102,,,1,444.2323329439969,Y,None,nogo,l,0,0.22784727593534626,,,,,,,,,,,,,,,,,,71,001,20,w,Psychologie,2023-01-25_13h33.01.561,00_bat_bachelor,2022.2.4,59.951079842963544,
,,,,,,,,,,,,0,0,0,0,103,0,103,0,,,,,,,103,,,1,445.59980063000694,X,l,go,l,1,0.6210968176310416,,,,,,,,,,,,,,,,,,71,001,20,w,Psychologie,2023-01-25_13h33.01.561,00_bat_bachelor,2022.2.4,59.951079842963544,
,,,,,,,,,,,,0,0,0,0,104,0,104,0,,,,,,,104,,,1,447.33454545630957,Y,d,go,d,1,0.4858428027073387,,,,,,,,,,,,,,,,,,71,001,20,w,Psychologie,2023-01-25_13h33.01.561,00_bat_bachelor,2022.2.4,59.951079842963544,
,,,,,,,,,,,,0,0,0,0,105,0,105,0,,,,,,,105,,,1,448.9523378700542,Y,None,nogo,None,1,,449.7528466708027,,,,,,,,,,,,,,,,,71,001,20,w,Psychologie,2023-01-25_13h33.01.561,00_bat_bachelor,2022.2.4,59.951079842963544,
,,,,,,,,,,,,0,0,0,0,106,0,106,0,,,,,,,106,,,1,450.75355406577,X,l,go,l,1,0.2828999620687682,,,,,,,,,,,,,,,,,,71,001,20,w,Psychologie,2023-01-25_13h33.01.561,00_bat_bachelor,2022.2.4,59.951079842963544,
,,,,,,,,,,,,0,0,0,0,107,0,107,0,,,,,,,107,,,1,452.1376021395263,Y,d,go,d,1,0.6597504496166948,,,,,,,,,,,,,,,,,,71,001,20,w,Psychologie,2023-01-25_13h33.01.561,00_bat_bachelor,2022.2.4,59.951079842963544,
,,,,,,,,,,,,0,0,0,0,108,0,108,0,,,,,,,108,,,1,453.90543937761686,Y,None,nogo,None,1,,,,,,,,,,,,,,,,,,,71,001,20,w,Psychologie,2023-01-25_13h33.01.561,00_bat_bachelor,2022.2.4,59.951079842963544,
,,,,,,,,,,,,0,0,0,0,109,0,109,0,,,,,,,109,,,1,455.70699399805744,X,l,go,l,1,0.21030009890091605,,,,,,,,,,,,,,,,,,71,001,20,w,Psychologie,2023-01-25_13h33.01.561,00_bat_bachelor,2022.2.4,59.951079842963544,
,,,,,,,,,,,,0,0,0,0,110,0,110,0,,,,,,,110,,,1,457.0254604006768,Y,d,go,d,1,0.2508087638707366,,,,,,,,,,,,,,,,,,71,001,20,w,Psychologie,2023-01-25_13h33.01.561,00_bat_bachelor,2022.2.4,59.951079842963544,
,,,,,,,,,,,,0,0,0,0,111,0,111,0,,,,,,,111,,,1,458.4098493234196,Y,None,nogo,None,1,,459.2100900025398,,,,,,,,,,,,,,,,,71,001,20,w,Psychologie,2023-01-25_13h33.01.561,00_bat_bachelor,2022.2.4,59.951079842963544,
,,,,,,,,,,,,0,0,0,0,112,0,112,0,,,,,,,112,,,1,460.2109229734633,X,l,go,l,1,0.23350352657143958,,,,,,,,,,,,,,,,,,71,001,20,w,Psychologie,2023-01-25_13h33.01.561,00_bat_bachelor,2022.2.4,59.951079842963544,
,,,,,,,,,,,,0,0,0,0,113,0,113,0,,,,,,,113,,,1,461.54528079312877,Y,d,go,d,1,0.3233169905433897,,,,,,,,,,,,,,,,,,71,001,20,w,Psychologie,2023-01-25_13h33.01.561,00_bat_bachelor,2022.2.4,59.951079842963544,
,,,,,,,,,,,,0,0,0,0,114,0,114,0,,,,,,,114,,,1,462.9794448185712,X,l,go,l,1,0.4248027139401529,,,,,,,,,,,,,,,,,,71,001,20,w,Psychologie,2023-01-25_13h33.01.561,00_bat_bachelor,2022.2.4,59.951079842963544,
,,,,,,,,,,,,0,0,0,0,115,0,115,0,,,,,,,115,,,1,464.51415638421895,X,None,nogo,None,1,,465.31460070001776,,,,,,,,,,,,,,,,,71,001,20,w,Psychologie,2023-01-25_13h33.01.561,00_bat_bachelor,2022.2.4,59.951079842963544,
,,,,,,,,,,,,0,0,0,0,116,0,116,0,,,,,,,116,,,1,466.31558203478926,X,None,nogo,l,0,0.3850824137334712,,,,,,,,,,,,,,,,,,71,001,20,w,Psychologie,2023-01-25_13h33.01.561,00_bat_bachelor,2022.2.4,59.951079842963544,
,,,,,,,,,,,,0,0,0,0,117,0,117,0,,,,,,,117,,,1,467.8167493092187,Y,d,go,d,1,0.24417069359333254,,,,,,,,,,,,,,,,,,71,001,20,w,Psychologie,2023-01-25_13h33.01.561,00_bat_bachelor,2022.2.4,59.951079842963544,
,,,,,,,,,,,,0,0,0,0,118,0,118,0,,,,,,,118,,,1,469.18409675260773,X,l,go,l,1,0.49354075331939384,,,,,,,,,,,,,,,,,,71,001,20,w,Psychologie,2023-01-25_13h33.01.561,00_bat_bachelor,2022.2.4,59.951079842963544,
,,,,,,,,,,,,0,0,0,0,119,0,119,0,,,,,,,119,,,1,470.78496938419994,Y,d,go,d,1,0.39632752098259516,,,,,,,,,,,,,,,,,,71,001,20,w,Psychologie,2023-01-25_13h33.01.561,00_bat_bachelor,2022.2.4,59.951079842963544,
,,,,,,,,,,,,0,0,0,0,120,0,120,0,,,,,,,120,,,1,472.28645859847893,X,l,go,l,1,0.4786180649243761,,,,,,,,,,,,,,,,,,71,001,20,w,Psychologie,2023-01-25_13h33.01.561,00_bat_bachelor,2022.2.4,59.951079842963544,
,,,,,,,,,,,,0,0,0,0,121,0,121,0,,,,,,,121,,,1,473.8707532665576,X,None,nogo,None,1,,474.6716247344739,,,,,,,,,,,,,,,,,71,001,20,w,Psychologie,2023-01-25_13h33.01.561,00_bat_bachelor,2022.2.4,59.951079842963544,
,,,,,,,,,,,,0,0,0,0,122,0,122,0,,,,,,,122,,,1,475.6722133414005,X,None,nogo,l,0,0.3568292817217298,,,,,,,,,,,,,,,,,,71,001,20,w,Psychologie,2023-01-25_13h33.01.561,00_bat_bachelor,2022.2.4,59.951079842963544,
,,,,,,,,,,,,0,0,0,0,123,0,123,0,,,,,,,123,,,1,477.1397980215261,Y,d,go,d,1,0.2974774378235452,,,,,,,,,,,,,,,,,,71,001,20,w,Psychologie,2023-01-25_13h33.01.561,00_bat_bachelor,2022.2.4,59.951079842963544,
,,,,,,,,,,,,0,0,0,0,124,0,124,0,,,,,,,124,,,1,478.54119690839434,X,l,go,l,1,0.43193581519881263,,,,,,,,,,,,,,,,,,71,001,20,w,Psychologie,2023-01-25_13h33.01.561,00_bat_bachelor,2022.2.4,59.951079842963544,
,,,,,,,,,,,,0,0,0,0,125,0,125,0,,,,,,,125,,,1,480.07581877693883,X,None,nogo,None,1,,,,,,,,,,,,,,,,,,,71,001,20,w,Psychologie,2023-01-25_13h33.01.561,00_bat_bachelor,2022.2.4,59.951079842963544,
,,,,,,,,,,,,0,0,0,0,126,0,126,0,,,,,,,126,,,1,481.8768313360051,Y,d,go,d,1,0.4723664194752928,,,,,,,,,,,,,,,,,,71,001,20,w,Psychologie,2023-01-25_13h33.01.561,00_bat_bachelor,2022.2.4,59.951079842963544,
,,,,,,,,,,,,0,0,0,0,127,0,127,0,,,,,,,127,,,1,483.4615735198604,X,l,go,l,1,0.3752991267538164,,,,,,,,,,,,,,,,,,71,001,20,w,Psychologie,2023-01-25_13h33.01.561,00_bat_bachelor,2022.2.4,59.951079842963544,
,,,,,,,,,,,,0,0,0,0,128,0,128,0,,,,,,,128,,,1,484.9461250125314,Y,d,go,d,1,0.17115482984809205,,,,,,,,,,,,,,,,,,71,001,20,w,Psychologie,2023-01-25_13h33.01.561,00_bat_bachelor,2022.2.4,59.951079842963544,
,,,,,,,,,,,,0,0,0,0,129,0,129,0,,,,,,,129,,,1,486.23039936542045,X,l,go,l,1,0.23081164387986064,,,,,,,,,,,,,,,,,,71,001,20,w,Psychologie,2023-01-25_13h33.01.561,00_bat_bachelor,2022.2.4,59.951079842963544,
,,,,,,,,,,,,0,0,0,0,130,0,130,0,,,,,,,130,,,1,487.56444106341223,Y,d,go,d,1,0.2725741288741119,,,,,,,,,,,,,,,,,,71,001,20,w,Psychologie,2023-01-25_13h33.01.561,00_bat_bachelor,2022.2.4,59.951079842963544,
,,,,,,,,,,,,0,0,0,0,131,0,131,0,,,,,,,131,,,1,488.94913592599914,Y,None,nogo,None,1,,,,,,,,,,,,,,,,,,,71,001,20,w,Psychologie,2023-01-25_13h33.01.561,00_bat_bachelor,2022.2.4,59.951079842963544,
,,,,,,,,,,,,0,0,0,0,132,0,132,0,,,,,,,132,,,1,490.75052763713757,X,l,go,l,1,0.3668065083620604,,,,,,,,,,,,,,,,,,71,001,20,w,Psychologie,2023-01-25_13h33.01.561,00_bat_bachelor,2022.2.4,59.951079842963544,
,,,,,,,,,,,,0,0,0,0,133,0,133,0,,,,,,,133,,,1,492.2181186202797,Y,d,go,d,1,0.2270492141833529,,,,,,,,,,,,,,,,,,71,001,20,w,Psychologie,2023-01-25_13h33.01.561,00_bat_bachelor,2022.2.4,59.951079842963544,
,,,,,,,,,,,,0,0,0,0,134,0,134,0,,,,,,,134,,,1,493.55236056100694,Y,None,nogo,None,1,,,,,,,,,,,,,,,,,,,71,001,20,w,Psychologie,2023-01-25_13h33.01.561,00_bat_bachelor,2022.2.4,59.951079842963544,
,,,,,,,,,,,,0,0,0,0,135,0,135,0,,,,,,,135,,,1,495.3539869391243,X,l,go,l,1,0.19573474436765537,,,,,,,,,,,,,,,,,,71,001,20,w,Psychologie,2023-01-25_13h33.01.561,00_bat_bachelor,2022.2.4,59.951079842963544,
,,,,,,,,,,,,0,0,0,0,136,0,136,0,,,,,,,136,,,1,496.65496725571575,Y,d,go,d,1,0.15846778108971193,,,,,,,,,,,,,,,,,,71,001,20,w,Psychologie,2023-01-25_13h33.01.561,00_bat_bachelor,2022.2.4,59.951079842963544,
,,,,,,,,,,,,0,0,0,0,137,0,137,0,,,,,,,137,,,1,497.92265976627823,X,l,go,l,1,0.18581424510921352,,,,,,,,,,,,,,,,,,71,001,20,w,Psychologie,2023-01-25_13h33.01.561,00_bat_bachelor,2022.2.4,59.951079842963544,
,,,,,,,,,,,,0,0,0,0,138,0,138,0,,,,,,,138,,,1,499.2234233552881,Y,d,go,d,1,0.32610293399193324,,,,,,,,,,,,,,,,,,71,001,20,w,Psychologie,2023-01-25_13h33.01.561,00_bat_bachelor,2022.2.4,59.951079842963544,
,,,,,,,,,,,,0,0,0,0,139,0,139,0,,,,,,,139,,,1,500.6578613205056,X,l,go,l,1,0.2513387040235102,,,,,,,,,,,,,,,,,,71,001,20,w,Psychologie,2023-01-25_13h33.01.561,00_bat_bachelor,2022.2.4,59.951079842963544,
,,,,,,,,,,,,0,0,0,0,140,0,140,0,,,,,,,140,,,1,502.025459915807,Y,d,go,d,1,0.37180336413439363,,,,,,,,,,,,,,,,,,71,001,20,w,Psychologie,2023-01-25_13h33.01.561,00_bat_bachelor,2022.2.4,59.951079842963544,
,,,,,,,,,,,,0,0,0,0,141,0,141,0,,,,,,,141,,,1,503.51027128766873,Y,None,nogo,None,1,,,,,,,,,,,,,,,,,,,71,001,20,w,Psychologie,2023-01-25_13h33.01.561,00_bat_bachelor,2022.2.4,59.951079842963544,
,,,,,,,,,,,,0,0,0,0,142,0,142,0,,,,,,,142,,,1,505.3112916043028,X,l,go,l,1,0.2687947294325568,,,,,,,,,,,,,,,,,,71,001,20,w,Psychologie,2023-01-25_13h33.01.561,00_bat_bachelor,2022.2.4,59.951079842963544,
,,,,,,,,,,,,0,0,0,0,143,0,143,0,,,,,,,143,,,1,506.6959738607984,Y,d,go,d,1,0.40558814053656533,,,,,,,,,,,,,,,,,,71,001,20,w,Psychologie,2023-01-25_13h33.01.561,00_bat_bachelor,2022.2.4,59.951079842963544,
,,,,,,,,,,,,0,0,0,0,144,0,144,0,,,,,,,144,,,1,508.213905765675,X,l,go,l,1,0.24793942636460997,,,,,,,,,,,,,,,,,,71,001,20,w,Psychologie,2023-01-25_13h33.01.561,00_bat_bachelor,2022.2.4,59.951079842963544,
,,,,,,,,,,,,0,0,0,0,145,0,145,0,,,,,,,145,,,1,509.564856579178,Y,d,go,d,1,0.2404834155458957,,,,,,,,,,,,,,,,,,71,001,20,w,Psychologie,2023-01-25_13h33.01.561,00_bat_bachelor,2022.2.4,59.951079842963544,
,,,,,,,,,,,,0,0,0,0,146,0,146,0,,,,,,,146,,,1,510.9156013317697,X,l,go,l,1,0.20098808535840362,,,,,,,,,,,,,,,,,,71,001,20,w,Psychologie,2023-01-25_13h33.01.561,00_bat_bachelor,2022.2.4,59.951079842963544,
,,,,,,,,,,,,0,0,0,0,147,0,147,0,,,,,,,147,,,1,512.2335256730148,Y,d,go,d,1,0.24431178471422754,,,,,,,,,,,,,,,,,,71,001,20,w,Psychologie,2023-01-25_13h33.01.561,00_bat_bachelor,2022.2.4,59.951079842963544,
,,,,,,,,,,,,0,0,0,0,148,0,148,0,,,,,,,148,,,1,513.5846738201217,X,l,go,l,1,0.25186621997272596,,,,,,,,,,,,,,,,,,71,001,20,w,Psychologie,2023-01-25_13h33.01.561,00_bat_bachelor,2022.2.4,59.951079842963544,
,,,,,,,,,,,,0,0,0,0,149,0,149,0,,,,,,,149,,,1,514.9523713246454,Y,d,go,d,1,0.3244588104134891,,,,,,,,,,,,,,,,,,71,001,20,w,Psychologie,2023-01-25_13h33.01.561,00_bat_bachelor,2022.2.4,59.951079842963544,
,,,,,,,,,,,,0,0,0,0,150,0,150,0,,,,,,,150,,,1,516.3864645621215,X,l,go,l,1,0.20211293545435183,,,,,,,,,,,,,,,,,,71,001,20,w,Psychologie,2023-01-25_13h33.01.561,00_bat_bachelor,2022.2.4,59.951079842963544,
,,,,,,,,,,,,0,0,0,0,151,0,151,0,,,,,,,151,,,1,517.7044146003609,X,None,nogo,None,1,,,,,,,,,,,,,,,,,,,71,001,20,w,Psychologie,2023-01-25_13h33.01.561,00_bat_bachelor,2022.2.4,59.951079842963544,
,,,,,,,,,,,,0,0,0,0,152,0,152,0,,,,,,,152,,,1,519.5058848570334,Y,d,go,d,1,0.2349377104837913,,,,,,,,,,,,,,,,,,71,001,20,w,Psychologie,2023-01-25_13h33.01.561,00_bat_bachelor,2022.2.4,59.951079842963544,
,,,,,,,,,,,,0,0,0,0,153,0,153,0,,,,,,,153,,,1,520.8565103367437,X,l,go,l,1,0.14886388831655495,,,,,,,,,,,,,,,,,,71,001,20,w,Psychologie,2023-01-25_13h33.01.561,00_bat_bachelor,2022.2.4,59.951079842963544,
,,,,,,,,,,,,0,0,0,0,154,0,154,0,,,,,,,154,,,1,522.1074755502632,Y,d,go,d,1,0.25771495571825653,,,,,,,,,,,,,,,,,,71,001,20,w,Psychologie,2023-01-25_13h33.01.561,00_bat_bachelor,2022.2.4,59.951079842963544,
,,,,,,,,,,,,0,0,0,0,155,0,155,0,,,,,,,155,,,1,523.4754945097957,Y,None,nogo,d,0,0.42494525958318263,,,,,,,,,,,,,,,,,,71,001,20,w,Psychologie,2023-01-25_13h33.01.561,00_bat_bachelor,2022.2.4,59.951079842963544,
,,,,,,,,,,,,0,0,0,0,156,0,156,0,,,,,,,156,,,1,525.0096834080177,X,l,go,l,1,0.41181942229741253,,,,,,,,,,,,,,,,,,71,001,20,w,Psychologie,2023-01-25_13h33.01.561,00_bat_bachelor,2022.2.4,59.951079842963544,
,,,,,,,,,,,,0,0,0,0,157,0,157,0,,,,,,,157,,,1,526.5275299794448,Y,d,go,d,1,0.20563439512625337,,,,,,,,,,,,,,,,,,71,001,20,w,Psychologie,2023-01-25_13h33.01.561,00_bat_bachelor,2022.2.4,59.951079842963544,
,,,,,,,,,,,,0,0,0,0,158,0,158,0,,,,,,,158,,,1,527.8452245021472,Y,None,nogo,None,1,,,,,,,,,,,,,,,,,,,71,001,20,w,Psychologie,2023-01-25_13h33.01.561,00_bat_bachelor,2022.2.4,59.951079842963544,
,,,,,,,,,,,,0,0,0,0,159,0,159,0,,,,,,,159,,,1,529.6469250622031,X,l,go,l,1,0.2070603366009891,,,,,,,,,,,,,,,,,,71,001,20,w,Psychologie,2023-01-25_13h33.01.561,00_bat_bachelor,2022.2.4,59.951079842963544,
,,,,,,,,,,,,0,0,0,0,160,0,160,0,,,,,,,160,,,1,530.9645502514613,Y,d,go,d,1,0.32976499991491437,,,,,,,,,,,,,,,,,,71,001,20,w,Psychologie,2023-01-25_13h33.01.561,00_bat_bachelor,2022.2.4,59.951079842963544,
,,,,,,,,,,,,0,0,0,0,161,0,161,0,,,,,,,161,,,1,532.3986527010566,Y,None,nogo,l,0,0.22237672252231278,,,,,,,,,,,,,,,,,,71,001,20,w,Psychologie,2023-01-25_13h33.01.561,00_bat_bachelor,2022.2.4,59.951079842963544,
,,,,,,,,,,,,0,0,0,0,162,0,162,0,,,,,,,162,,,1,533.7333421575895,X,l,go,l,1,0.3270309353538323,,,,,,,,,,,,,,,,,,71,001,20,w,Psychologie,2023-01-25_13h33.01.561,00_bat_bachelor,2022.2.4,59.951079842963544,
,,,,,,,,,,,,0,0,0,0,163,0,163,0,,,,,,,163,,,1,535.1676608499256,Y,d,go,d,1,0.25292222149437293,,,,,,,,,,,,,,,,,,71,001,20,w,Psychologie,2023-01-25_13h33.01.561,00_bat_bachelor,2022.2.4,59.951079842963544,
,,,,,,,,,,,,0,0,0,0,164,0,164,0,,,,,,,164,,,1,536.5351469602028,Y,None,nogo,l,0,0.1976765653816983,,,,,,,,,,,,,,,,,,71,001,20,w,Psychologie,2023-01-25_13h33.01.561,00_bat_bachelor,2022.2.4,59.951079842963544,
,,,,,,,,,,,,0,0,0,0,165,0,165,0,,,,,,,165,,,1,537.8361680041126,X,l,go,None,0,,,,,,,,,,,,,,,,,,,71,001,20,w,Psychologie,2023-01-25_13h33.01.561,00_bat_bachelor,2022.2.4,59.951079842963544,
,,,,,,,,,,,,0,0,0,0,166,0,166,0,,,,,,,166,,,1,539.6378433520149,Y,d,go,d,1,0.3920918784569949,,,,,,,,,,,,,,,,,,71,001,20,w,Psychologie,2023-01-25_13h33.01.561,00_bat_bachelor,2022.2.4,59.951079842963544,
,,,,,,,,,,,,0,0,0,0,167,0,167,0,,,,,,,167,,,1,541.1386857774633,X,l,go,l,1,0.3790024048939813,,,,,,,,,,,,,,,,,,71,001,20,w,Psychologie,2023-01-25_13h33.01.561,00_bat_bachelor,2022.2.4,59.951079842963544,
,,,,,,,,,,,,0,0,0,0,168,0,168,0,,,,,,,168,,,1,542.6234583613987,Y,d,go,d,1,0.22167708512279205,,,,,,,,,,,,,,,,,,71,001,20,w,Psychologie,2023-01-25_13h33.01.561,00_bat_bachelor,2022.2.4,59.951079842963544,
,,,,,,,,,,,,0,0,0,0,169,0,169,0,,,,,,,169,,,1,543.9585555760714,X,l,go,l,1,0.2305391586269252,,,,,,,,,,,,,,,,,,71,001,20,w,Psychologie,2023-01-25_13h33.01.561,00_bat_bachelor,2022.2.4,59.951079842963544,
,,,,,,,,,,,,0,0,0,0,170,0,170,0,,,,,,,170,,,1,545.3091282072128,Y,d,go,d,1,0.24012947562732734,,,,,,,,,,,,,,,,,,71,001,20,w,Psychologie,2023-01-25_13h33.01.561,00_bat_bachelor,2022.2.4,59.951079842963544,
,,,,,,,,,,,,0,0,0,0,171,0,171,0,,,,,,,171,,,1,546.6603485968662,Y,None,nogo,None,1,,547.460781761125,,,,,,,,,,,,,,,,,71,001,20,w,Psychologie,2023-01-25_13h33.01.561,00_bat_bachelor,2022.2.4,59.951079842963544,
,,,,,,,,,,,,0,0,0,0,172,0,172,0,,,,,,,172,,,1,548.4615531562013,X,l,go,l,1,0.19172698096372187,,,,,,,,,,,,,,,,,,71,001,20,w,Psychologie,2023-01-25_13h33.01.561,00_bat_bachelor,2022.2.4,59.951079842963544,
,,,,,,,,,,,,0,0,0,0,173,0,173,0,,,,,,,173,,,1,549.7790857392829,Y,d,go,d,1,0.2338472846604418,,,,,,,,,,,,,,,,,,71,001,20,w,Psychologie,2023-01-25_13h33.01.561,00_bat_bachelor,2022.2.4,59.951079842963544,
,,,,,,,,,,,,0,0,0,0,174,0,174,0,,,,,,,174,,,1,551.1135783470236,X,l,go,l,1,0.26039714145008475,,,,,,,,,,,,,,,,,,71,001,20,w,Psychologie,2023-01-25_13h33.01.561,00_bat_bachelor,2022.2.4,59.951079842963544,
,,,,,,,,,,,,0,0,0,0,175,0,175,0,,,,,,,175,,,1,552.4814654275833,Y,d,go,d,1,0.23461237669107504,,,,,,,,,,,,,,,,,,71,001,20,w,Psychologie,2023-01-25_13h33.01.561,00_bat_bachelor,2022.2.4,59.951079842963544,
,,,,,,,,,,,,0,0,0,0,176,0,176,0,,,,,,,176,,,1,553.8490325076855,Y,None,nogo,l,0,0.21214155611232854,,,,,,,,,,,,,,,,,,71,001,20,w,Psychologie,2023-01-25_13h33.01.561,00_bat_bachelor,2022.2.4,59.951079842963544,
,,,,,,,,,,,,0,0,0,0,177,0,177,0,,,,,,,177,,,1,555.1665146664309,X,l,go,l,1,0.4470446856576018,,,,,,,,,,,,,,,,,,71,001,20,w,Psychologie,2023-01-25_13h33.01.561,00_bat_bachelor,2022.2.4,59.951079842963544,
,,,,,,,,,,,,0,0,0,0,178,0,178,0,,,,,,,178,,,1,556.7176723166194,Y,d,go,d,1,0.2558909530634992,,,,,,,,,,,,,,,,,,71,001,20,w,Psychologie,2023-01-25_13h33.01.561,00_bat_bachelor,2022.2.4,59.951079842963544,
,,,,,,,,,,,,0,0,0,0,179,0,179,0,,,,,,,179,,,1,558.0853610938648,X,l,go,l,1,0.19942008308134973,,,,,,,,,,,,,,,,,,71,001,20,w,Psychologie,2023-01-25_13h33.01.561,00_bat_bachelor,2022.2.4,59.951079842963544,
,,,,,,,,,,,,0,0,0,0,180,0,180,0,,,,,,,180,,,1,559.3863574104616,Y,d,go,d,1,0.38694811341702007,,,,,,,,,,,,,,,,,,71,001,20,w,Psychologie,2023-01-25_13h33.01.561,00_bat_bachelor,2022.2.4,59.951079842963544,
,,,,,,,,,,,,0,0,0,0,181,0,181,0,,,,,,,181,,,1,560.8875508667261,X,l,go,l,1,0.4855751659779344,,,,,,,,,,,,,,,,,,71,001,20,w,Psychologie,2023-01-25_13h33.01.561,00_bat_bachelor,2022.2.4,59.951079842963544,
,,,,,,,,,,,,0,0,0,0,182,0,182,0,,,,,,,182,,,1,562.4885354984726,Y,d,go,d,1,0.3881631454860326,,,,,,,,,,,,,,,,,,71,001,20,w,Psychologie,2023-01-25_13h33.01.561,00_bat_bachelor,2022.2.4,59.951079842963544,
,,,,,,,,,,,,0,0,0,0,183,0,183,0,,,,,,,183,,,1,563.9899679853988,Y,None,nogo,None,1,,564.7903492707992,,,,,,,,,,,,,,,,,71,001,20,w,Psychologie,2023-01-25_13h33.01.561,00_bat_bachelor,2022.2.4,59.951079842963544,
,,,,,,,,,,,,0,0,0,0,184,0,184,0,,,,,,,184,,,1,565.7910731506418,X,l,go,l,1,0.2852907534397673,,,,,,,,,,,,,,,,,,71,001,20,w,Psychologie,2023-01-25_13h33.01.561,00_bat_bachelor,2022.2.4,59.951079842963544,
,,,,,,,,,,,,0,0,0,0,185,0,185,0,,,,,,,185,,,1,567.1923474312935,Y,d,go,d,1,0.22902012610575184,,,,,,,,,,,,,,,,,,71,001,20,w,Psychologie,2023-01-25_13h33.01.561,00_bat_bachelor,2022.2.4,59.951079842963544,
,,,,,,,,,,,,0,0,0,0,186,0,186,0,,,,,,,186,,,1,568.5267934935109,X,l,go,l,1,0.19036310017690994,,,,,,,,,,,,,,,,,,71,001,20,w,Psychologie,2023-01-25_13h33.01.561,00_bat_bachelor,2022.2.4,59.951079842963544,
,,,,,,,,,,,,0,0,0,0,187,0,187,0,,,,,,,187,,,1,569.8276753856917,X,None,nogo,l,0,0.3146697052579839,,,,,,,,,,,,,,,,,,71,001,20,w,Psychologie,2023-01-25_13h33.01.561,00_bat_bachelor,2022.2.4,59.951079842963544,
,,,,,,,,,,,,0,0,0,0,188,0,188,0,,,,,,,188,,,1,571.2454621752258,Y,d,go,d,1,0.3991575857216958,,,,,,,,,,,,,,,,,,71,001,20,w,Psychologie,2023-01-25_13h33.01.561,00_bat_bachelor,2022.2.4,59.951079842963544,
,,,,,,,,,,,,0,0,0,0,189,0,189,0,,,,,,,189,,,1,572.7466134496208,X,l,go,l,1,0.30720933075645007,,,,,,,,,,,,,,,,,,71,001,20,w,Psychologie,2023-01-25_13h33.01.561,00_bat_bachelor,2022.2.4,59.951079842963544,
,,,,,,,,,,,,0,0,0,0,190,0,190,0,,,,,,,190,,,1,574.1641117538675,X,None,nogo,None,1,,,,,,,,,,,,,,,,,,,71,001,20,w,Psychologie,2023-01-25_13h33.01.561,00_bat_bachelor,2022.2.4,59.951079842963544,
,,,,,,,,,,,,0,0,0,0,191,0,191,0,,,,,,,191,,,1,575.9657536471495,Y,d,go,d,1,0.5124154474178795,,,,,,,,,,,,,,,,,,71,001,20,w,Psychologie,2023-01-25_13h33.01.561,00_bat_bachelor,2022.2.4,59.951079842963544,
,,,,,,,,,,,,0,0,0,0,192,0,192,0,,,,,,,192,,,1,577.5836241216166,X,l,go,l,1,0.2697120640950743,,,,,,,,,,,,,,,,,,71,001,20,w,Psychologie,2023-01-25_13h33.01.561,00_bat_bachelor,2022.2.4,59.951079842963544,
,,,,,,,,,,,,0,0,0,0,193,0,193,0,,,,,,,193,,,1,578.9680062565021,Y,d,go,d,1,0.3420879269542638,,,,,,,,,,,,,,,,,,71,001,20,w,Psychologie,2023-01-25_13h33.01.561,00_bat_bachelor,2022.2.4,59.951079842963544,
,,,,,,,,,,,,0,0,0,0,194,0,194,0,,,,,,,194,,,1,580.4191632763541,Y,None,nogo,None,1,,,,,,,,,,,,,,,,,,,71,001,20,w,Psychologie,2023-01-25_13h33.01.561,00_bat_bachelor,2022.2.4,59.951079842963544,
,,,,,,,,,,,,0,0,0,0,195,0,195,0,,,,,,,195,,,1,582.2205763208331,X,l,go,l,1,0.25620658992556855,,,,,,,,,,,,,,,,,,71,001,20,w,Psychologie,2023-01-25_13h33.01.561,00_bat_bachelor,2022.2.4,59.951079842963544,
,,,,,,,,,,,,0,0,0,0,196,0,196,0,,,,,,,196,,,1,583.5882069161744,Y,d,go,d,1,0.28187014238210395,,,,,,,,,,,,,,,,,,71,001,20,w,Psychologie,2023-01-25_13h33.01.561,00_bat_bachelor,2022.2.4,59.951079842963544,
,,,,,,,,,,,,0,0,0,0,197,0,197,0,,,,,,,197,,,1,584.9726035965141,Y,None,nogo,None,1,,585.773192397377,,,,,,,,,,,,,,,,,71,001,20,w,Psychologie,2023-01-25_13h33.01.561,00_bat_bachelor,2022.2.4,59.951079842963544,
,,,,,,,,,,,,0,0,0,0,198,0,198,0,,,,,,,198,,,1,586.7735739736818,X,l,go,l,1,0.21538325780420564,,,,,,,,,,,,,,,,,,71,001,20,w,Psychologie,2023-01-25_13h33.01.561,00_bat_bachelor,2022.2.4,59.951079842963544,
,,,,,,,,,,,,0,0,0,0,199,0,199,0,,,,,,,199,,,1,588.0915395270858,Y,d,go,d,1,0.19499001602525823,,,,,,,,,,,,,,,,,,71,001,20,w,Psychologie,2023-01-25_13h33.01.561,00_bat_bachelor,2022.2.4,59.951079842963544,
,,,,,,,,,,,,0,0,0,0,200,0,200,0,,,,,,,200,,,1,589.3924878436083,Y,None,nogo,d,0,0.5728737172030378,,,,,,,,,,,,,,,,,,71,001,20,w,Psychologie,2023-01-25_13h33.01.561,00_bat_bachelor,2022.2.4,59.951079842963544,
,,,,,,,,,,,,0,0,0,0,201,0,201,0,,,,,,,201,,,1,591.0768461723637,X,l,go,l,1,0.29614604194648564,,,,,,,,,,,,,,,,,,71,001,20,w,Psychologie,2023-01-25_13h33.01.561,00_bat_bachelor,2022.2.4,59.951079842963544,
,,,,,,,,,,,,0,0,0,0,202,0,202,0,,,,,,,202,,,1,592.477894028445,Y,d,go,None,0,,,,,,,,,,,,,,,,,,,71,001,20,w,Psychologie,2023-01-25_13h33.01.561,00_bat_bachelor,2022.2.4,59.951079842963544,
,,,,,,,,,,,,0,0,0,0,203,0,203,0,,,,,,,203,,,1,594.2795228308241,X,l,go,l,1,0.4691906572843436,,,,,,,,,,,,,,,,,,71,001,20,w,Psychologie,2023-01-25_13h33.01.561,00_bat_bachelor,2022.2.4,59.951079842963544,
,,,,,,,,,,,,0,0,0,0,204,0,204,0,,,,,,,204,,,1,595.8641583478602,Y,d,go,d,1,0.21417016512714326,,,,,,,,,,,,,,,,,,71,001,20,w,Psychologie,2023-01-25_13h33.01.561,00_bat_bachelor,2022.2.4,59.951079842963544,
,,,,,,,,,,,,0,0,0,0,205,0,205,0,,,,,,,205,,,1,597.1817879007722,Y,None,nogo,None,1,,,,,,,,,,,,,,,,,,,71,001,20,w,Psychologie,2023-01-25_13h33.01.561,00_bat_bachelor,2022.2.4,59.951079842963544,
,,,,,,,,,,,,0,0,0,0,206,0,206,0,,,,,,,206,,,1,598.9831796118815,X,l,go,l,1,0.2460179690096993,,,,,,,,,,,,,,,,,,71,001,20,w,Psychologie,2023-01-25_13h33.01.561,00_bat_bachelor,2022.2.4,59.951079842963544,
,,,,,,,,,,,,0,0,0,0,207,0,207,0,,,,,,,207,,,1,600.3339306675189,Y,d,go,d,1,0.20699488194077276,,,,,,,,,,,,,,,,,,71,001,20,w,Psychologie,2023-01-25_13h33.01.561,00_bat_bachelor,2022.2.4,59.951079842963544,
,,,,,,,,,,,,0,0,0,0,208,0,208,0,,,,,,,208,,,1,601.6518865239632,X,l,go,l,1,0.2974725893291179,,,,,,,,,,,,,,,,,,71,001,20,w,Psychologie,2023-01-25_13h33.01.561,00_bat_bachelor,2022.2.4,59.951079842963544,
,,,,,,,,,,,,0,0,0,0,209,0,209,0,,,,,,,209,,,1,603.052824319253,Y,d,go,d,1,0.22428945256979205,,,,,,,,,,,,,,,,,,71,001,20,w,Psychologie,2023-01-25_13h33.01.561,00_bat_bachelor,2022.2.4,59.951079842963544,
,,,,,,,,,,,,0,0,0,0,210,0,210,0,,,,,,,210,,,1,604.3873571694712,X,l,go,l,1,0.21781283707241528,,,,,,,,,,,,,,,,,,71,001,20,w,Psychologie,2023-01-25_13h33.01.561,00_bat_bachelor,2022.2.4,59.951079842963544,
,,,,,,,,,,,,0,0,0,0,211,0,211,0,,,,,,,211,,,1,605.7213615340879,Y,d,go,d,1,0.19657159407506697,,,,,,,,,,,,,,,,,,71,001,20,w,Psychologie,2023-01-25_13h33.01.561,00_bat_bachelor,2022.2.4,59.951079842963544,
,,,,,,,,,,,,0,0,0,0,212,0,212,0,,,,,,,212,,,1,607.0224276689696,X,l,go,l,1,0.22346181501052342,,,,,,,,,,,,,,,,,,71,001,20,w,Psychologie,2023-01-25_13h33.01.561,00_bat_bachelor,2022.2.4,59.951079842963544,
,,,,,,,,,,,,0,0,0,0,213,0,213,0,,,,,,,213,,,1,608.3569682767848,X,None,nogo,None,1,,,,,,,,,,,,,,,,,,,71,001,20,w,Psychologie,2023-01-25_13h33.01.561,00_bat_bachelor,2022.2.4,59.951079842963544,
,,,,,,,,,,,,0,0,0,0,214,0,214,0,,,,,,,214,,,1,610.158084108727,Y,d,go,d,1,0.5121618713019416,,,,,,,,,,,,,,,,,,71,001,20,w,Psychologie,2023-01-25_13h33.01.561,00_bat_bachelor,2022.2.4,59.951079842963544,
,,,,,,,,,,,,0,0,0,0,215,0,215,0,,,,,,,215,,,1,611.7762338563334,X,l,go,l,1,0.20507924281992018,,,,,,,,,,,,,,,,,,71,001,20,w,Psychologie,2023-01-25_13h33.01.561,00_bat_bachelor,2022.2.4,59.951079842963544,
,,,,,,,,,,,,0,0,0,0,216,0,216,0,,,,,,,216,,,1,613.0938958941551,Y,d,go,d,1,0.2320998881768901,,,,,,,,,,,,,,,,,,71,001,20,w,Psychologie,2023-01-25_13h33.01.561,00_bat_bachelor,2022.2.4,59.951079842963544,
,,,,,,,,,,,,0,0,0,0,217,0,217,0,,,,,,,217,,,1,614.428023895307,Y,None,nogo,None,1,,,,,,,,,,,,,,,,,,,71,001,20,w,Psychologie,2023-01-25_13h33.01.561,00_bat_bachelor,2022.2.4,59.951079842963544,
,,,,,,,,,,,,0,0,0,0,218,0,218,0,,,,,,,218,,,1,616.2296037279011,X,l,go,l,1,0.11991257348563522,,,,,,,,,,,,,,,,,,71,001,20,w,Psychologie,2023-01-25_13h33.01.561,00_bat_bachelor,2022.2.4,59.951079842963544,
,,,,,,,,,,,,0,0,0,0,219,0,219,0,,,,,,,219,,,1,617.4639924324583,Y,d,go,d,1,0.19735462553217076,,,,,,,,,,,,,,,,,,71,001,20,w,Psychologie,2023-01-25_13h33.01.561,00_bat_bachelor,2022.2.4,59.951079842963544,
,,,,,,,,,,,,0,0,0,0,220,0,220,0,,,,,,,220,,,1,618.7649562641745,Y,None,nogo,l,0,0.1444328515790403,,,,,,,,,,,,,,,,,,71,001,20,w,Psychologie,2023-01-25_13h33.01.561,00_bat_bachelor,2022.2.4,59.951079842963544,
,,,,,,,,,,,,0,0,0,0,221,0,221,0,,,,,,,221,,,1,620.0159399019612,X,l,go,l,1,0.47883915615966544,,,,,,,,,,,,,,,,,,71,001,20,w,Psychologie,2023-01-25_13h33.01.561,00_bat_bachelor,2022.2.4,59.951079842963544,
,,,,,,,,,,,,0,0,0,0,222,0,222,0,,,,,,,222,,,1,621.6004396612407,Y,d,go,d,1,0.3170386783895083,,,,,,,,,,,,,,,,,,71,001,20,w,Psychologie,2023-01-25_13h33.01.561,00_bat_bachelor,2022.2.4,59.951079842963544,
,,,,,,,,,,,,0,0,0,0,223,0,223,0,,,,,,,223,,,1,623.0178885108617,X,l,go,l,1,0.2912611863575876,,,,,,,,,,,,,,,,,,71,001,20,w,Psychologie,2023-01-25_13h33.01.561,00_bat_bachelor,2022.2.4,59.951079842963544,
,,,,,,,,,,,,0,0,0,0,224,0,224,0,,,,,,,224,,,1,624.4192233976501,X,None,nogo,None,1,,,,,,,,,,,,,,,,,,,71,001,20,w,Psychologie,2023-01-25_13h33.01.561,00_bat_bachelor,2022.2.4,59.951079842963544,
,,,,,,,,,,,,0,0,0,0,225,0,225,0,,,,,,,225,,,1,626.2203663811379,Y,d,go,d,1,0.16154027040465735,,,,,,,,,,,,,,,,,,71,001,20,w,Psychologie,2023-01-25_13h33.01.561,00_bat_bachelor,2022.2.4,59.951079842963544,
,,,,,,,,,,,,0,0,0,0,226,0,226,0,,,,,,,226,,,1,627.4881820434239,X,l,go,l,1,0.22033211347297765,,,,,,,,,,,,,,,,,,71,001,20,w,Psychologie,2023-01-25_13h33.01.561,00_bat_bachelor,2022.2.4,59.951079842963544,
,,,,,,,,,,,,0,0,0,0,227,0,227,0,,,,,,,227,,,1,628.8226746511646,Y,d,go,d,1,0.35913425477338023,,,,,,,,,,,,,,,,,,71,001,20,w,Psychologie,2023-01-25_13h33.01.561,00_bat_bachelor,2022.2.4,59.951079842963544,
,,,,,,,,,,,,0,0,0,0,228,0,228,0,,,,,,,228,,,1,630.2903621192963,X,l,go,l,1,0.2664199380960781,,,,,,,,,,,,,,,,,,71,001,20,w,Psychologie,2023-01-25_13h33.01.561,00_bat_bachelor,2022.2.4,59.951079842963544,
,,,,,,,,,,,,0,0,0,0,229,0,229,0,,,,,,,229,,,1,631.6580751390138,Y,d,go,d,1,0.2591918063699268,,,,,,,,,,,,,,,,,,71,001,20,w,Psychologie,2023-01-25_13h33.01.561,00_bat_bachelor,2022.2.4,59.951079842963544,
,,,,,,,,,,,,0,0,0,0,230,0,230,0,,,,,,,230,,,1,633.0263976141578,Y,None,nogo,None,1,,633.8266799903067,,,,,,,,,,,,,,,,,71,001,20,w,Psychologie,2023-01-25_13h33.01.561,00_bat_bachelor,2022.2.4,59.951079842963544,
,,,,,,,,,,,,0,0,0,0,231,0,231,0,,,,,,,231,,,1,634.8275449612702,X,l,go,l,1,0.35398030787473544,,,,,,,,,,,,,,,,,,71,001,20,w,Psychologie,2023-01-25_13h33.01.561,00_bat_bachelor,2022.2.4,59.951079842963544,
,,,,,,,,,,,,0,0,0,0,232,0,232,0,,,,,,,232,,,1,636.2954098842165,Y,d,go,d,1,0.23003685488947667,,,,,,,,,,,,,,,,,,71,001,20,w,Psychologie,2023-01-25_13h33.01.561,00_bat_bachelor,2022.2.4,59.951079842963544,
,,,,,,,,,,,,0,0,0,0,233,0,233,0,,,,,,,233,,,1,637.6297570372117,X,l,go,l,1,0.36746687296545133,,,,,,,,,,,,,,,,,,71,001,20,w,Psychologie,2023-01-25_13h33.01.561,00_bat_bachelor,2022.2.4,59.951079842963544,
,,,,,,,,,,,,0,0,0,0,234,0,234,0,,,,,,,234,,,1,639.097507535771,X,None,nogo,None,1,,639.8979145181656,,,,,,,,,,,,,,,,,71,001,20,w,Psychologie,2023-01-25_13h33.01.561,00_bat_bachelor,2022.2.4,59.951079842963544,
,,,,,,,,,,,,0,0,0,0,235,0,235,0,,,,,,,235,,,1,640.8986902768665,Y,d,go,d,1,0.1863883065234404,,,,,,,,,,,,,,,,,,71,001,20,w,Psychologie,2023-01-25_13h33.01.561,00_bat_bachelor,2022.2.4,59.951079842963544,
,,,,,,,,,,,,0,0,0,0,236,0,236,0,,,,,,,236,,,1,642.1995202902181,X,l,go,l,1,0.05335005241795443,,,,,,,,,,,,,,,,,,71,001,20,w,Psychologie,2023-01-25_13h33.01.561,00_bat_bachelor,2022.2.4,59.951079842963544,
,,,,,,,,,,,,0,0,0,0,237,0,237,0,,,,,,,237,,,1,643.3667913214013,Y,d,go,d,1,0.27860856190091,,,,,,,,,,,,,,,,,,71,001,20,w,Psychologie,2023-01-25_13h33.01.561,00_bat_bachelor,2022.2.4,59.951079842963544,
,,,,,,,,,,,,0,0,0,0,238,0,238,0,,,,,,,238,,,1,644.7513334564865,Y,None,nogo,None,1,,,,,,,,,,,,,,,,,,,71,001,20,w,Psychologie,2023-01-25_13h33.01.561,00_bat_bachelor,2022.2.4,59.951079842963544,
,,,,,,,,,,,,0,0,0,0,239,0,239,0,,,,,,,239,,,1,646.5528216525854,X,l,go,l,1,0.16531433651107363,,,,,,,,,,,,,,,,,,71,001,20,w,Psychologie,2023-01-25_13h33.01.561,00_bat_bachelor,2022.2.4,59.951079842963544,
,,,,,,,,,,,,0,0,0,0,240,0,240,0,,,,,,,240,,,1,647.8204647085513,Y,d,go,d,1,0.2089420363190584,,,,,,,,,,,,,,,,,,71,001,20,w,Psychologie,2023-01-25_13h33.01.561,00_bat_bachelor,2022.2.4,59.951079842963544,
,,,,,,,,,,,,0,0,0,0,241,0,241,0,,,,,,,241,,,1,649.1381989888905,X,l,go,l,1,0.17119070867192931,,,,,,,,,,,,,,,,,,71,001,20,w,Psychologie,2023-01-25_13h33.01.561,00_bat_bachelor,2022.2.4,59.951079842963544,
,,,,,,,,,,,,0,0,0,0,242,0,242,0,,,,,,,242,,,1,650.4222575838794,Y,d,go,d,1,0.5826453677727841,,,,,,,,,,,,,,,,,,71,001,20,w,Psychologie,2023-01-25_13h33.01.561,00_bat_bachelor,2022.2.4,59.951079842963544,
,,,,,,,,,,,,0,0,0,0,243,0,243,0,,,,,,,243,,,1,652.1071235497366,X,l,go,l,1,0.22667927423026413,,,,,,,,,,,,,,,,,,71,001,20,w,Psychologie,2023-01-25_13h33.01.561,00_bat_bachelor,2022.2.4,59.951079842963544,
,,,,,,,,,,,,0,0,0,0,244,0,244,0,,,,,,,244,,,1,653.4411565204791,Y,d,go,d,1,0.3807245891948696,,,,,,,,,,,,,,,,,,71,001,20,w,Psychologie,2023-01-25_13h33.01.561,00_bat_bachelor,2022.2.4,59.951079842963544,
,,,,,,,,,,,,0,0,0,0,245,0,245,0,,,,,,,245,,,1,654.9256284978765,Y,None,nogo,l,0,0.19185449631186202,,,,,,,,,,,,,,,,,,71,001,20,w,Psychologie,2023-01-25_13h33.01.561,00_bat_bachelor,2022.2.4,59.951079842963544,
,,,,,,,,,,,,0,0,0,0,246,0,246,0,,,,,,,246,,,1,656.2267600873893,X,l,go,l,1,0.4907892341725528,,,,,,,,,,,,,,,,,,71,001,20,w,Psychologie,2023-01-25_13h33.01.561,00_bat_bachelor,2022.2.4,59.951079842963544,
,,,,,,,,,,,,0,0,0,0,247,0,247,0,,,,,,,247,,,1,657.8279871437408,Y,d,go,d,1,0.1844212733558379,,,,,,,,,,,,,,,,,,71,001,20,w,Psychologie,2023-01-25_13h33.01.561,00_bat_bachelor,2022.2.4,59.951079842963544,
,,,,,,,,,,,,0,0,0,0,248,0,248,0,,,,,,,248,,,1,659.128811823728,Y,None,nogo,d,0,0.38780484194285236,,,,,,,,,,,,,,,,,,71,001,20,w,Psychologie,2023-01-25_13h33.01.561,00_bat_bachelor,2022.2.4,59.951079842963544,
,,,,,,,,,,,,0,0,0,0,249,0,249,0,,,,,,,249,,,1,660.6301177650166,Y,None,nogo,d,0,0.2952282224141527,,,,,,,,,,,,,,,,,,71,001,20,w,Psychologie,2023-01-25_13h33.01.561,00_bat_bachelor,2022.2.4,59.951079842963544,
,,,,,,,,,,,,1,0,1,0,0,0,0,0,,,,,,,0,,,0.2,688.0181750567281,X,l,go,None,0,,688.8186770695902,,,,,,,,661.0370090235374,space,26.75537677051034,,,,,,,71,001,20,w,Psychologie,2023-01-25_13h33.01.561,00_bat_bachelor,2022.2.4,59.951079842963544,
,,,,,,,,,,,,1,0,1,0,1,0,1,0,,,,,,,1,,,0.2,689.0187757848762,Y,d,go,None,0,,689.8194518585806,,,,,,,,,,,,,,,,,71,001,20,w,Psychologie,2023-01-25_13h33.01.561,00_bat_bachelor,2022.2.4,59.951079842963544,
,,,,,,,,,,,,1,0,1,0,2,0,2,0,,,,,,,2,,,0.2,690.0195413617475,X,l,go,None,0,,690.8201582838665,,,,,,,,,,,,,,,,,71,001,20,w,Psychologie,2023-01-25_13h33.01.561,00_bat_bachelor,2022.2.4,59.951079842963544,
,,,,,,,,,,,,1,0,1,0,3,0,3,0,,,,,,,3,,,0.2,691.0205619692861,Y,d,go,d,1,0.3687454202736262,,,,,,,,,,,,,,,,,,71,001,20,w,Psychologie,2023-01-25_13h33.01.561,00_bat_bachelor,2022.2.4,59.951079842963544,
,,,,,,,,,,,,1,0,1,0,4,0,4,0,,,,,,,4,,,0.2,691.704378721508,X,l,go,l,1,0.3413703501573764,,,,,,,,,,,,,,,,,,71,001,20,w,Psychologie,2023-01-25_13h33.01.561,00_bat_bachelor,2022.2.4,59.951079842963544,
,,,,,,,,,,,,1,0,1,0,5,0,5,0,,,,,,,5,,,0.2,692.354661849211,X,None,nogo,l,0,0.217207260458963,,,,,,,,,,,,,,,,,,71,001,20,w,Psychologie,2023-01-25_13h33.01.561,00_bat_bachelor,2022.2.4,59.951079842963544,
,,,,,,,,,,,,1,0,1,0,6,0,6,0,,,,,,,6,,,0.2,692.8883935346385,Y,d,go,d,1,0.6443749121099245,,,,,,,,,,,,,,,,,,71,001,20,w,Psychologie,2023-01-25_13h33.01.561,00_bat_bachelor,2022.2.4,59.951079842963544,
,,,,,,,,,,,,1,0,1,0,7,0,7,0,,,,,,,7,,,0.2,693.8557946993387,X,l,go,l,1,0.38189016666729003,,,,,,,,,,,,,,,,,,71,001,20,w,Psychologie,2023-01-25_13h33.01.561,00_bat_bachelor,2022.2.4,59.951079842963544,
,,,,,,,,,,,,1,0,1,0,8,0,8,0,,,,,,,8,,,0.2,694.5396541182708,Y,d,go,d,1,0.3696375427825842,,,,,,,,,,,,,,,,,,71,001,20,w,Psychologie,2023-01-25_13h33.01.561,00_bat_bachelor,2022.2.4,59.951079842963544,
,,,,,,,,,,,,1,0,1,0,9,0,9,0,,,,,,,9,,,0.2,695.2234694159415,Y,None,nogo,None,1,,,,,,,,,,,,,,,,,,,71,001,20,w,Psychologie,2023-01-25_13h33.01.561,00_bat_bachelor,2022.2.4,59.951079842963544,
,,,,,,,,,,,,1,0,1,0,10,0,10,0,,,,,,,10,,,0.2,696.2241554775683,Y,None,nogo,l,0,0.060641214542556554,,,,,,,,,,,,,,,,,,71,001,20,w,Psychologie,2023-01-25_13h33.01.561,00_bat_bachelor,2022.2.4,59.951079842963544,
,,,,,,,,,,,,1,0,1,0,11,0,11,0,,,,,,,11,,,0.2,696.5909918899124,X,l,go,None,0,,,,,,,,,,,,,,,,,,,71,001,20,w,Psychologie,2023-01-25_13h33.01.561,00_bat_bachelor,2022.2.4,59.951079842963544,
,,,,,,,,,,,,1,0,1,0,12,0,12,0,,,,,,,12,,,0.2,697.5919989216782,Y,d,go,d,1,0.3890067830507178,,,,,,,,,,,,,,,,,,71,001,20,w,Psychologie,2023-01-25_13h33.01.561,00_bat_bachelor,2022.2.4,59.951079842963544,
,,,,,,,,,,,,1,0,1,0,13,0,13,0,,,,,,,13,,,0.2,698.2922889099864,X,l,go,l,1,0.36087728760321625,,,,,,,,,,,,,,,,,,71,001,20,w,Psychologie,2023-01-25_13h33.01.561,00_bat_bachelor,2022.2.4,59.951079842963544,
,,,,,,,,,,,,1,0,1,0,14,0,14,0,,,,,,,14,,,0.2,698.959720668674,Y,d,go,d,1,0.2376751690171659,,,,,,,,,,,,,,,,,,71,001,20,w,Psychologie,2023-01-25_13h33.01.561,00_bat_bachelor,2022.2.4,59.951079842963544,
,,,,,,,,,,,,1,0,1,0,15,0,15,0,,,,,,,15,,,0.2,699.5098872871022,Y,None,nogo,d,0,0.4081491139368154,,,,,,,,,,,,,,,,,,71,001,20,w,Psychologie,2023-01-25_13h33.01.561,00_bat_bachelor,2022.2.4,59.951079842963544,
,,,,,,,,,,,,1,0,1,0,16,0,16,0,,,,,,,16,,,0.2,700.2273322094406,X,l,go,l,1,0.47464375611161813,,,,,,,,,,,,,,,,,,71,001,20,w,Psychologie,2023-01-25_13h33.01.561,00_bat_bachelor,2022.2.4,59.951079842963544,
,,,,,,,,,,,,1,0,1,0,17,0,17,0,,,,,,,17,,,0.2,701.0112645012268,Y,d,go,d,1,0.5381943940010387,,,,,,,,,,,,,,,,,,71,001,20,w,Psychologie,2023-01-25_13h33.01.561,00_bat_bachelor,2022.2.4,59.951079842963544,
,,,,,,,,,,,,1,0,1,0,18,0,18,0,,,,,,,18,,,0.2,701.8617452534381,X,l,go,l,1,0.45634118403540924,,,,,,,,,,,,,,,,,,71,001,20,w,Psychologie,2023-01-25_13h33.01.561,00_bat_bachelor,2022.2.4,59.951079842963544,
,,,,,,,,,,,,1,0,1,0,19,0,19,0,,,,,,,19,,,0.2,702.6289686724194,Y,d,go,d,1,0.5846962798386812,,,,,,,,,,,,,,,,,,71,001,20,w,Psychologie,2023-01-25_13h33.01.561,00_bat_bachelor,2022.2.4,59.951079842963544,
,,,,,,,,,,,,1,0,1,0,20,0,20,0,,,,,,,20,,,0.2,703.5296691340627,X,l,go,l,1,0.45160323777236044,,,,,,,,,,,,,,,,,,71,001,20,w,Psychologie,2023-01-25_13h33.01.561,00_bat_bachelor,2022.2.4,59.951079842963544,
,,,,,,,,,,,,1,0,1,0,21,0,21,0,,,,,,,21,,,0.2,704.296892553044,X,None,nogo,None,1,,705.0977102027391,,,,,,,,,,,,,,,,,71,001,20,w,Psychologie,2023-01-25_13h33.01.561,00_bat_bachelor,2022.2.4,59.951079842963544,
,,,,,,,,,,,,1,0,1,0,22,0,22,0,,,,,,,22,,,0.2,705.297833645338,Y,d,go,d,1,0.3959784295584541,,,,,,,,,,,,,,,,,,71,001,20,w,Psychologie,2023-01-25_13h33.01.561,00_bat_bachelor,2022.2.4,59.951079842963544,
,,,,,,,,,,,,1,0,1,0,23,0,23,0,,,,,,,23,,,0.2,705.9979762394796,X,l,go,l,1,0.22311320842709392,,,,,,,,,,,,,,,,,,71,001,20,w,Psychologie,2023-01-25_13h33.01.561,00_bat_bachelor,2022.2.4,59.951079842963544,
,,,,,,,,,,,,1,0,1,0,24,0,24,0,,,,,,,24,,,0.2,706.5318111977831,Y,d,go,d,1,0.05783733169664629,,,,,,,,,,,,,,,,,,71,001,20,w,Psychologie,2023-01-25_13h33.01.561,00_bat_bachelor,2022.2.4,59.951079842963544,
,,,,,,,,,,,,1,0,1,0,25,0,25,0,,,,,,,25,,,0.2,706.8988090649364,Y,None,nogo,None,1,,,,,,,,,,,,,,,,,,,71,001,20,w,Psychologie,2023-01-25_13h33.01.561,00_bat_bachelor,2022.2.4,59.951079842963544,
,,,,,,,,,,,,1,0,1,0,26,0,26,0,,,,,,,26,,,0.2,707.8997103995644,Y,None,nogo,d,0,0.5784693616733421,,,,,,,,,,,,,,,,,,71,001,20,w,Psychologie,2023-01-25_13h33.01.561,00_bat_bachelor,2022.2.4,59.951079842963544,
,,,,,,,,,,,,1,0,1,0,27,0,27,0,,,,,,,27,,,0.2,708.7836467156012,X,l,go,l,1,0.3820976821007207,,,,,,,,,,,,,,,,,,71,001,20,w,Psychologie,2023-01-25_13h33.01.561,00_bat_bachelor,2022.2.4,59.951079842963544,
,,,,,,,,,,,,1,0,1,0,28,0,28,0,,,,,,,28,,,0.2,709.467525528511,Y,d,go,d,1,0.43400806066347286,,,,,,,,,,,,,,,,,,71,001,20,w,Psychologie,2023-01-25_13h33.01.561,00_bat_bachelor,2022.2.4,59.951079842963544,
,,,,,,,,,,,,1,0,1,0,29,0,29,0,,,,,,,29,,,0.2,710.2014684142487,X,l,go,l,1,0.34060040963231586,,,,,,,,,,,,,,,,,,71,001,20,w,Psychologie,2023-01-25_13h33.01.561,00_bat_bachelor,2022.2.4,59.951079842963544,
,,,,,,,,,,,,1,0,1,0,30,0,30,0,,,,,,,30,,,0.2,710.851865481498,Y,d,go,d,1,0.4734689665201586,,,,,,,,,,,,,,,,,,71,001,20,w,Psychologie,2023-01-25_13h33.01.561,00_bat_bachelor,2022.2.4,59.951079842963544,
,,,,,,,,,,,,1,0,1,0,31,0,31,0,,,,,,,31,,,0.2,711.6358244399889,Y,None,nogo,None,1,,,,,,,,,,,,,,,,,,,71,001,20,w,Psychologie,2023-01-25_13h33.01.561,00_bat_bachelor,2022.2.4,59.951079842963544,
,,,,,,,,,,,,1,0,1,0,32,0,32,0,,,,,,,32,,,0.2,712.6363829862385,X,l,go,l,1,0.4167086415691301,,,,,,,,,,,,,,,,,,71,001,20,w,Psychologie,2023-01-25_13h33.01.561,00_bat_bachelor,2022.2.4,59.951079842963544,
,,,,,,,,,,,,1,0,1,0,33,0,33,0,,,,,,,33,,,0.2,713.3535583324556,Y,d,go,d,1,0.4357651541067753,,,,,,,,,,,,,,,,,,71,001,20,w,Psychologie,2023-01-25_13h33.01.561,00_bat_bachelor,2022.2.4,59.951079842963544,
,,,,,,,,,,,,1,0,1,0,34,0,34,0,,,,,,,34,,,0.2,714.1044399094826,X,l,go,l,1,0.2781886824814137,,,,,,,,,,,,,,,,,,71,001,20,w,Psychologie,2023-01-25_13h33.01.561,00_bat_bachelor,2022.2.4,59.951079842963544,
,,,,,,,,,,,,1,0,1,0,35,0,35,0,,,,,,,35,,,0.2,714.6878928793594,X,None,nogo,None,1,,,,,,,,,,,,,,,,,,,71,001,20,w,Psychologie,2023-01-25_13h33.01.561,00_bat_bachelor,2022.2.4,59.951079842963544,
,,,,,,,,,,,,1,0,1,0,36,0,36,0,,,,,,,36,,,0.2,715.688838335278,Y,d,go,d,1,0.3253266904503107,,,,,,,,,,,,,,,,,,71,001,20,w,Psychologie,2023-01-25_13h33.01.561,00_bat_bachelor,2022.2.4,59.951079842963544,
,,,,,,,,,,,,1,0,1,0,37,0,37,0,,,,,,,37,,,0.2,716.3225890752801,X,l,go,l,1,0.23440001273411326,,,,,,,,,,,,,,,,,,71,001,20,w,Psychologie,2023-01-25_13h33.01.561,00_bat_bachelor,2022.2.4,59.951079842963544,
,,,,,,,,,,,,1,0,1,0,38,0,38,0,,,,,,,38,,,0.2,716.8731115730188,X,None,nogo,d,0,0.26061241450952366,,,,,,,,,,,,,,,,,,71,001,20,w,Psychologie,2023-01-25_13h33.01.561,00_bat_bachelor,2022.2.4,59.951079842963544,
,,,,,,,,,,,,1,0,1,0,39,0,39,0,,,,,,,39,,,0.2,717.4404214890965,Y,d,go,None,0,,,,,,,,,,,,,,,,,,,71,001,20,w,Psychologie,2023-01-25_13h33.01.561,00_bat_bachelor,2022.2.4,59.951079842963544,
,,,,,,,,,,,,1,0,1,0,40,0,40,0,,,,,,,40,,,0.2,718.4410028232669,X,l,go,l,1,0.5812868203502148,,,,,,,,,,,,,,,,,,71,001,20,w,Psychologie,2023-01-25_13h33.01.561,00_bat_bachelor,2022.2.4,59.951079842963544,
,,,,,,,,,,,,1,0,1,0,41,0,41,0,,,,,,,41,,,0.2,719.3251694426581,X,None,nogo,None,1,,,,,,,,,,,,,,,,,,,71,001,20,w,Psychologie,2023-01-25_13h33.01.561,00_bat_bachelor,2022.2.4,59.951079842963544,
,,,,,,,,,,,,1,0,1,0,42,0,42,0,,,,,,,42,,,0.2,720.3258487163694,Y,d,go,d,1,0.42460053181275725,,,,,,,,,,,,,,,,,,71,001,20,w,Psychologie,2023-01-25_13h33.01.561,00_bat_bachelor,2022.2.4,59.951079842963544,
,,,,,,,,,,,,1,0,1,0,43,0,43,0,,,,,,,43,,,0.2,721.0598008142551,X,l,go,l,1,0.23353649632190354,,,,,,,,,,,,,,,,,,71,001,20,w,Psychologie,2023-01-25_13h33.01.561,00_bat_bachelor,2022.2.4,59.951079842963544,
,,,,,,,,,,,,1,0,1,0,44,0,44,0,,,,,,,44,,,0.2,721.5932241356059,Y,d,go,d,1,0.3085252114688046,,,,,,,,,,,,,,,,,,71,001,20,w,Psychologie,2023-01-25_13h33.01.561,00_bat_bachelor,2022.2.4,59.951079842963544,
,,,,,,,,,,,,1,0,1,0,45,0,45,0,,,,,,,45,,,0.2,722.2106301245512,Y,None,nogo,None,1,,723.0112402587547,,,,,,,,,,,,,,,,,71,001,20,w,Psychologie,2023-01-25_13h33.01.561,00_bat_bachelor,2022.2.4,59.951079842963544,
,,,,,,,,,,,,1,0,1,0,46,0,46,0,,,,,,,46,,,0.2,723.2110500039416,X,l,go,l,1,0.2579127741919365,,,,,,,,,,,,,,,,,,71,001,20,w,Psychologie,2023-01-25_13h33.01.561,00_bat_bachelor,2022.2.4,59.951079842963544,
,,,,,,,,,,,,1,0,1,0,47,0,47,0,,,,,,,47,,,0.2,723.7785271930043,Y,d,go,d,1,0.2827322042430751,,,,,,,,,,,,,,,,,,71,001,20,w,Psychologie,2023-01-25_13h33.01.561,00_bat_bachelor,2022.2.4,59.951079842963544,
,,,,,,,,,,,,1,0,1,0,48,0,48,0,,,,,,,48,,,0.2,724.3622865875659,Y,None,nogo,l,0,0.35487194554298185,,,,,,,,,,,,,,,,,,71,001,20,w,Psychologie,2023-01-25_13h33.01.561,00_bat_bachelor,2022.2.4,59.951079842963544,
,,,,,,,,,,,,1,0,1,0,49,0,49,0,,,,,,,49,,,0.2,725.0292567698343,X,l,go,None,0,,725.8299289647257,,,,,,,,,,,,,,,,,71,001,20,w,Psychologie,2023-01-25_13h33.01.561,00_bat_bachelor,2022.2.4,59.951079842963544,
,,,,,,,,,,,,1,0,1,0,50,0,50,0,,,,,,,50,,,0.2,726.0299622253806,Y,d,go,d,1,0.39859903944307007,,,,,,,,,,,,,,,,,,71,001,20,w,Psychologie,2023-01-25_13h33.01.561,00_bat_bachelor,2022.2.4,59.951079842963544,
,,,,,,,,,,,,1,0,1,0,51,0,51,0,,,,,,,51,,,0.2,726.730685668881,X,l,go,l,1,0.2748504958290141,,,,,,,,,,,,,,,,,,71,001,20,w,Psychologie,2023-01-25_13h33.01.561,00_bat_bachelor,2022.2.4,59.951079842963544,
,,,,,,,,,,,,1,0,1,0,52,0,52,0,,,,,,,52,,,0.2,727.3144974271418,X,None,nogo,d,0,0.25111034006113186,,,,,,,,,,,,,,,,,,71,001,20,w,Psychologie,2023-01-25_13h33.01.561,00_bat_bachelor,2022.2.4,59.951079842963544,
,,,,,,,,,,,,1,0,1,0,53,0,53,0,,,,,,,53,,,0.2,727.8812909788394,X,None,nogo,None,1,,,,,,,,,,,,,,,,,,,71,001,20,w,Psychologie,2023-01-25_13h33.01.561,00_bat_bachelor,2022.2.4,59.951079842963544,
,,,,,,,,,,,,1,0,1,0,54,0,54,0,,,,,,,54,,,0.2,728.8820958285069,Y,d,go,d,1,0.36326904865563847,,,,,,,,,,,,,,,,,,71,001,20,w,Psychologie,2023-01-25_13h33.01.561,00_bat_bachelor,2022.2.4,59.951079842963544,
,,,,,,,,,,,,1,0,1,0,55,0,55,0,,,,,,,55,,,0.2,729.5494883143983,X,l,go,l,1,0.2711321873648558,,,,,,,,,,,,,,,,,,71,001,20,w,Psychologie,2023-01-25_13h33.01.561,00_bat_bachelor,2022.2.4,59.951079842963544,
,,,,,,,,,,,,1,0,1,0,56,0,56,0,,,,,,,56,,,0.2,730.1332064967719,Y,d,go,d,1,0.4087745693977922,,,,,,,,,,,,,,,,,,71,001,20,w,Psychologie,2023-01-25_13h33.01.561,00_bat_bachelor,2022.2.4,59.951079842963544,
,,,,,,,,,,,,1,0,1,0,57,0,57,0,,,,,,,57,,,0.2,730.850250448857,Y,None,nogo,None,1,,,,,,,,,,,,,,,,,,,71,001,20,w,Psychologie,2023-01-25_13h33.01.561,00_bat_bachelor,2022.2.4,59.951079842963544,
,,,,,,,,,,,,1,0,1,0,58,0,58,0,,,,,,,58,,,0.2,731.8511236622289,X,l,go,l,1,0.274829162430251,,,,,,,,,,,,,,,,,,71,001,20,w,Psychologie,2023-01-25_13h33.01.561,00_bat_bachelor,2022.2.4,59.951079842963544,
,,,,,,,,,,,,1,0,1,0,59,0,59,0,,,,,,,59,,,0.2,732.4350522691675,Y,d,go,d,1,0.49079068869468756,,,,,,,,,,,,,,,,,,71,001,20,w,Psychologie,2023-01-25_13h33.01.561,00_bat_bachelor,2022.2.4,59.951079842963544,
,,,,,,,,,,,,1,0,1,0,60,0,60,0,,,,,,,60,,,0.2,733.2356357366662,X,l,go,l,1,0.3619822589389514,,,,,,,,,,,,,,,,,,71,001,20,w,Psychologie,2023-01-25_13h33.01.561,00_bat_bachelor,2022.2.4,59.951079842963544,
,,,,,,,,,,,,1,0,1,0,61,0,61,0,,,,,,,61,,,0.2,733.9026641008386,X,None,nogo,None,1,,,,,,,,,,,,,,,,,,,71,001,20,w,Psychologie,2023-01-25_13h33.01.561,00_bat_bachelor,2022.2.4,59.951079842963544,
,,,,,,,,,,,,1,0,1,0,62,0,62,0,,,,,,,62,,,0.2,734.9036672538205,X,None,nogo,l,0,0.3257882668694947,,,,,,,,,,,,,,,,,,71,001,20,w,Psychologie,2023-01-25_13h33.01.561,00_bat_bachelor,2022.2.4,59.951079842963544,
,,,,,,,,,,,,1,0,1,0,63,0,63,0,,,,,,,63,,,0.2,735.5375038121128,Y,d,go,d,1,0.21985938554280438,,,,,,,,,,,,,,,,,,71,001,20,w,Psychologie,2023-01-25_13h33.01.561,00_bat_bachelor,2022.2.4,59.951079842963544,
,,,,,,,,,,,,1,0,1,0,64,0,64,0,,,,,,,64,,,0.2,736.0712374369323,X,l,go,l,1,0.3898877540486865,,,,,,,,,,,,,,,,,,71,001,20,w,Psychologie,2023-01-25_13h33.01.561,00_bat_bachelor,2022.2.4,59.951079842963544,
,,,,,,,,,,,,1,0,1,0,65,0,65,0,,,,,,,65,,,0.2,736.7716253647814,X,None,nogo,l,0,0.4271479294693563,,,,,,,,,,,,,,,,,,71,001,20,w,Psychologie,2023-01-25_13h33.01.561,00_bat_bachelor,2022.2.4,59.951079842963544,
,,,,,,,,,,,,1,0,1,0,66,0,66,0,,,,,,,66,,,0.2,737.5053156440845,Y,d,go,d,1,0.6514328617486171,,,,,,,,,,,,,,,,,,71,001,20,w,Psychologie,2023-01-25_13h33.01.561,00_bat_bachelor,2022.2.4,59.951079842963544,
,,,,,,,,,,,,1,0,1,0,67,0,67,0,,,,,,,67,,,0.2,738.4730819002434,X,l,go,l,1,0.4200943434552755,,,,,,,,,,,,,,,,,,71,001,20,w,Psychologie,2023-01-25_13h33.01.561,00_bat_bachelor,2022.2.4,59.951079842963544,
,,,,,,,,,,,,1,0,1,0,68,0,68,0,,,,,,,68,,,0.2,739.2069161797408,Y,d,go,d,1,0.4066131116996985,,,,,,,,,,,,,,,,,,71,001,20,w,Psychologie,2023-01-25_13h33.01.561,00_bat_bachelor,2022.2.4,59.951079842963544,
,,,,,,,,,,,,1,0,1,0,69,0,69,0,,,,,,,69,,,0.2,739.9241652230266,X,l,go,l,1,0.34579314445727505,,,,,,,,,,,,,,,,,,71,001,20,w,Psychologie,2023-01-25_13h33.01.561,00_bat_bachelor,2022.2.4,59.951079842963544,
,,,,,,,,,,,,1,0,1,0,70,0,70,0,,,,,,,70,,,0.2,740.574332956603,Y,d,go,d,1,0.3986140697961673,,,,,,,,,,,,,,,,,,71,001,20,w,Psychologie,2023-01-25_13h33.01.561,00_bat_bachelor,2022.2.4,59.951079842963544,
,,,,,,,,,,,,1,0,1,0,71,0,71,0,,,,,,,71,,,0.2,741.2749051271239,X,l,go,l,1,0.338428770104656,,,,,,,,,,,,,,,,,,71,001,20,w,Psychologie,2023-01-25_13h33.01.561,00_bat_bachelor,2022.2.4,59.951079842963544,
,,,,,,,,,,,,1,0,1,0,72,0,72,0,,,,,,,72,,,0.2,741.9256168614957,Y,d,go,d,1,0.3129203693533782,,,,,,,,,,,,,,,,,,71,001,20,w,Psychologie,2023-01-25_13h33.01.561,00_bat_bachelor,2022.2.4,59.951079842963544,
,,,,,,,,,,,,1,0,1,0,73,0,73,0,,,,,,,73,,,0.2,742.5425467285386,X,l,go,l,1,0.4153947002487257,,,,,,,,,,,,,,,,,,71,001,20,w,Psychologie,2023-01-25_13h33.01.561,00_bat_bachelor,2022.2.4,59.951079842963544,
,,,,,,,,,,,,1,0,1,0,74,0,74,0,,,,,,,74,,,0.2,743.2597598929715,X,None,nogo,d,0,0.30565781335462816,,,,,,,,,,,,,,,,,,71,001,20,w,Psychologie,2023-01-25_13h33.01.561,00_bat_bachelor,2022.2.4,59.951079842963544,
,,,,,,,,,,,,1,0,1,0,75,0,75,0,,,,,,,75,,,0.2,743.8771653970762,Y,d,go,None,0,,,,,,,,,,,,,,,,,,,71,001,20,w,Psychologie,2023-01-25_13h33.01.561,00_bat_bachelor,2022.2.4,59.951079842963544,
,,,,,,,,,,,,1,0,1,0,76,0,76,0,,,,,,,76,,,0.2,744.8776104886492,X,l,go,l,1,0.25497749721398577,,,,,,,,,,,,,,,,,,71,001,20,w,Psychologie,2023-01-25_13h33.01.561,00_bat_bachelor,2022.2.4,59.951079842963544,
,,,,,,,,,,,,1,0,1,0,77,0,77,0,,,,,,,77,,,0.2,745.445136162627,Y,d,go,d,1,0.3278328759188298,,,,,,,,,,,,,,,,,,71,001,20,w,Psychologie,2023-01-25_13h33.01.561,00_bat_bachelor,2022.2.4,59.951079842963544,
,,,,,,,,,,,,1,0,1,0,78,0,78,0,,,,,,,78,,,0.2,746.079133206018,Y,None,nogo,l,0,0.286504815769149,,,,,,,,,,,,,,,,,,71,001,20,w,Psychologie,2023-01-25_13h33.01.561,00_bat_bachelor,2022.2.4,59.951079842963544,
,,,,,,,,,,,,1,0,1,0,79,0,79,0,,,,,,,79,,,0.2,746.6794060791435,Y,None,nogo,None,1,,747.4800084557501,,,,,,,,,,,,,,,,,71,001,20,w,Psychologie,2023-01-25_13h33.01.561,00_bat_bachelor,2022.2.4,59.951079842963544,
,,,,,,,,,,,,1,0,1,0,80,0,80,0,,,,,,,80,,,0.2,747.6801624438667,X,l,go,l,1,0.6054284312122036,,,,,,,,,,,,,,,,,,71,001,20,w,Psychologie,2023-01-25_13h33.01.561,00_bat_bachelor,2022.2.4,59.951079842963544,
,,,,,,,,,,,,1,0,1,0,81,0,81,0,,,,,,,81,,,0.2,748.5975087478873,Y,d,go,d,1,0.23242231289623305,,,,,,,,,,,,,,,,,,71,001,20,w,Psychologie,2023-01-25_13h33.01.561,00_bat_bachelor,2022.2.4,59.951079842963544,
,,,,,,,,,,,,1,0,1,0,82,0,82,0,,,,,,,82,,,0.2,749.130913160101,Y,None,nogo,None,1,,749.9318515372288,,,,,,,,,,,,,,,,,71,001,20,w,Psychologie,2023-01-25_13h33.01.561,00_bat_bachelor,2022.2.4,59.951079842963544,
,,,,,,,,,,,,1,0,1,0,83,0,83,0,,,,,,,83,,,0.2,750.1317524340702,X,l,go,l,1,0.29792592333978973,,,,,,,,,,,,,,,,,,71,001,20,w,Psychologie,2023-01-25_13h33.01.561,00_bat_bachelor,2022.2.4,59.951079842963544,
,,,,,,,,,,,,1,0,1,0,84,0,84,0,,,,,,,84,,,0.2,750.7324568229669,Y,d,go,d,1,0.33709349544369616,,,,,,,,,,,,,,,,,,71,001,20,w,Psychologie,2023-01-25_13h33.01.561,00_bat_bachelor,2022.2.4,59.951079842963544,
,,,,,,,,,,,,1,0,1,0,85,0,85,0,,,,,,,85,,,0.2,751.3827142536466,X,l,go,l,1,0.4547431211103685,,,,,,,,,,,,,,,,,,71,001,20,w,Psychologie,2023-01-25_13h33.01.561,00_bat_bachelor,2022.2.4,59.951079842963544,
,,,,,,,,,,,,1,0,1,0,86,0,86,0,,,,,,,86,,,0.2,752.1501190062263,Y,d,go,d,1,0.40757311310153455,,,,,,,,,,,,,,,,,,71,001,20,w,Psychologie,2023-01-25_13h33.01.561,00_bat_bachelor,2022.2.4,59.951079842963544,
,,,,,,,,,,,,1,0,1,0,87,0,87,0,,,,,,,87,,,0.2,752.8670499884174,Y,None,nogo,None,1,,,,,,,,,,,,,,,,,,,71,001,20,w,Psychologie,2023-01-25_13h33.01.561,00_bat_bachelor,2022.2.4,59.951079842963544,
,,,,,,,,,,,,1,0,1,0,88,0,88,0,,,,,,,88,,,0.2,753.867830110772,Y,None,nogo,d,0,0.4825637676403858,,,,,,,,,,,,,,,,,,71,001,20,w,Psychologie,2023-01-25_13h33.01.561,00_bat_bachelor,2022.2.4,59.951079842963544,
,,,,,,,,,,,,1,0,1,0,89,0,89,0,,,,,,,89,,,0.2,754.6518385238887,X,l,go,None,0,,,,,,,,,,,,,,,,,,,71,001,20,w,Psychologie,2023-01-25_13h33.01.561,00_bat_bachelor,2022.2.4,59.951079842963544,
,,,,,,,,,,,,1,0,1,0,90,0,90,0,,,,,,,90,,,0.2,755.6528198586311,Y,d,go,None,0,,756.453237992595,,,,,,,,,,,,,,,,,71,001,20,w,Psychologie,2023-01-25_13h33.01.561,00_bat_bachelor,2022.2.4,59.951079842963544,
,,,,,,,,,,,,1,0,1,0,91,0,91,0,,,,,,,91,,,0.2,756.6532547683746,X,l,go,l,1,0.2877537873282563,,,,,,,,,,,,,,,,,,71,001,20,w,Psychologie,2023-01-25_13h33.01.561,00_bat_bachelor,2022.2.4,59.951079842963544,
,,,,,,,,,,,,1,0,1,0,92,0,92,0,,,,,,,92,,,0.2,757.2541593999777,Y,d,go,d,1,0.24864682133193128,,,,,,,,,,,,,,,,,,71,001,20,w,Psychologie,2023-01-25_13h33.01.561,00_bat_bachelor,2022.2.4,59.951079842963544,
,,,,,,,,,,,,1,0,1,0,93,0,93,0,,,,,,,93,,,0.2,757.8045408065955,X,l,go,l,1,0.28875984938349575,,,,,,,,,,,,,,,,,,71,001,20,w,Psychologie,2023-01-25_13h33.01.561,00_bat_bachelor,2022.2.4,59.951079842963544,
,,,,,,,,,,,,1,0,1,0,94,0,94,0,,,,,,,94,,,0.2,758.4046342855145,Y,d,go,d,1,0.2966910124232527,,,,,,,,,,,,,,,,,,71,001,20,w,Psychologie,2023-01-25_13h33.01.561,00_bat_bachelor,2022.2.4,59.951079842963544,
,,,,,,,,,,,,1,0,1,0,95,0,95,0,,,,,,,95,,,0.2,759.0051806136034,X,l,go,l,1,0.33569712977623567,,,,,,,,,,,,,,,,,,71,001,20,w,Psychologie,2023-01-25_13h33.01.561,00_bat_bachelor,2022.2.4,59.951079842963544,
,,,,,,,,,,,,1,0,1,0,96,0,96,0,,,,,,,96,,,0.2,759.6558108933095,Y,d,go,d,1,0.45341657372773625,,,,,,,,,,,,,,,,,,71,001,20,w,Psychologie,2023-01-25_13h33.01.561,00_bat_bachelor,2022.2.4,59.951079842963544,
,,,,,,,,,,,,1,0,1,0,97,0,97,0,,,,,,,97,,,0.2,760.4228238877258,X,l,go,l,1,0.5347868739045225,,,,,,,,,,,,,,,,,,71,001,20,w,Psychologie,2023-01-25_13h33.01.561,00_bat_bachelor,2022.2.4,59.951079842963544,
,,,,,,,,,,,,1,0,1,0,98,0,98,0,,,,,,,98,,,0.2,761.2738588225911,X,None,nogo,None,1,,,,,,,,,,,,,,,,,,,71,001,20,w,Psychologie,2023-01-25_13h33.01.561,00_bat_bachelor,2022.2.4,59.951079842963544,
,,,,,,,,,,,,1,0,1,0,99,0,99,0,,,,,,,99,,,0.2,762.2745589448023,Y,d,go,d,1,0.3951803678064607,,,,,,,,,,,,,,,,,,71,001,20,w,Psychologie,2023-01-25_13h33.01.561,00_bat_bachelor,2022.2.4,59.951079842963544,
,,,,,,,,,,,,1,0,1,0,100,0,100,0,,,,,,,100,,,0.2,762.975069539476,X,l,go,l,1,0.366063234541798,,,,,,,,,,,,,,,,,,71,001,20,w,Psychologie,2023-01-25_13h33.01.561,00_bat_bachelor,2022.2.4,59.951079842963544,
,,,,,,,,,,,,1,0,1,0,101,0,101,0,,,,,,,101,,,0.2,763.6422535402526,Y,d,go,d,1,0.4826757677947171,,,,,,,,,,,,,,,,,,71,001,20,w,Psychologie,2023-01-25_13h33.01.561,00_bat_bachelor,2022.2.4,59.951079842963544,
,,,,,,,,,,,,1,0,1,0,102,0,102,0,,,,,,,102,,,0.2,764.4262440139137,X,l,go,l,1,0.46712859367835335,,,,,,,,,,,,,,,,,,71,001,20,w,Psychologie,2023-01-25_13h33.01.561,00_bat_bachelor,2022.2.4,59.951079842963544,
,,,,,,,,,,,,1,0,1,0,103,0,103,0,,,,,,,103,,,0.2,765.1935774936865,X,None,nogo,d,0,0.40427274466492236,,,,,,,,,,,,,,,,,,71,001,20,w,Psychologie,2023-01-25_13h33.01.561,00_bat_bachelor,2022.2.4,59.951079842963544,
,,,,,,,,,,,,1,0,1,0,104,0,104,0,,,,,,,104,,,0.2,765.910689809476,Y,d,go,None,0,,,,,,,,,,,,,,,,,,,71,001,20,w,Psychologie,2023-01-25_13h33.01.561,00_bat_bachelor,2022.2.4,59.951079842963544,
,,,,,,,,,,,,1,0,1,0,105,0,105,0,,,,,,,105,,,0.2,766.9114810833707,X,l,go,l,1,0.3343220974493306,,,,,,,,,,,,,,,,,,71,001,20,w,Psychologie,2023-01-25_13h33.01.561,00_bat_bachelor,2022.2.4,59.951079842963544,
,,,,,,,,,,,,1,0,1,0,106,0,106,0,,,,,,,106,,,0.2,767.5620580296672,Y,d,go,d,1,0.3876273871283047,,,,,,,,,,,,,,,,,,71,001,20,w,Psychologie,2023-01-25_13h33.01.561,00_bat_bachelor,2022.2.4,59.951079842963544,
,,,,,,,,,,,,1,0,1,0,107,0,107,0,,,,,,,107,,,0.2,768.2624769878457,Y,None,nogo,None,1,,,,,,,,,,,,,,,,,,,71,001,20,w,Psychologie,2023-01-25_13h33.01.561,00_bat_bachelor,2022.2.4,59.951079842963544,
,,,,,,,,,,,,1,0,1,0,108,0,108,0,,,,,,,108,,,0.2,769.2639029293205,X,l,go,l,1,0.44473243987886235,,,,,,,,,,,,,,,,,,71,001,20,w,Psychologie,2023-01-25_13h33.01.561,00_bat_bachelor,2022.2.4,59.951079842963544,
,,,,,,,,,,,,1,0,1,0,109,0,109,0,,,,,,,109,,,0.2,770.0476112207689,Y,d,go,d,1,0.4765395164722577,,,,,,,,,,,,,,,,,,71,001,20,w,Psychologie,2023-01-25_13h33.01.561,00_bat_bachelor,2022.2.4,59.951079842963544,
,,,,,,,,,,,,1,0,1,0,110,0,110,0,,,,,,,110,,,0.2,770.8485360220948,X,l,go,l,1,0.38153283280553296,,,,,,,,,,,,,,,,,,71,001,20,w,Psychologie,2023-01-25_13h33.01.561,00_bat_bachelor,2022.2.4,59.951079842963544,
,,,,,,,,,,,,1,0,1,0,111,0,111,0,,,,,,,111,,,0.2,771.548884192307,X,None,nogo,d,0,0.3526314574119169,,,,,,,,,,,,,,,,,,71,001,20,w,Psychologie,2023-01-25_13h33.01.561,00_bat_bachelor,2022.2.4,59.951079842963544,
,,,,,,,,,,,,1,0,1,0,112,0,112,0,,,,,,,112,,,0.2,772.2161438295443,Y,d,go,None,0,,773.016798569879,,,,,,,,,,,,,,,,,71,001,20,w,Psychologie,2023-01-25_13h33.01.561,00_bat_bachelor,2022.2.4,59.951079842963544,
,,,,,,,,,,,,1,0,1,0,113,0,113,0,,,,,,,113,,,0.2,773.2169491640525,X,l,go,l,1,0.3167211021936964,,,,,,,,,,,,,,,,,,71,001,20,w,Psychologie,2023-01-25_13h33.01.561,00_bat_bachelor,2022.2.4,59.951079842963544,
,,,,,,,,,,,,1,0,1,0,114,0,114,0,,,,,,,114,,,0.2,773.8672696251015,X,None,nogo,d,0,0.14499333722051233,,,,,,,,,,,,,,,,,,71,001,20,w,Psychologie,2023-01-25_13h33.01.561,00_bat_bachelor,2022.2.4,59.951079842963544,
,,,,,,,,,,,,1,0,1,0,115,0,115,0,,,,,,,115,,,0.2,774.351144268323,Y,d,go,None,0,,775.1517044630891,,,,,,,,,,,,,,,,,71,001,20,w,Psychologie,2023-01-25_13h33.01.561,00_bat_bachelor,2022.2.4,59.951079842963544,
,,,,,,,,,,,,1,0,1,0,116,0,116,0,,,,,,,116,,,0.2,775.3518846330408,X,l,go,l,1,0.1966991093941033,,,,,,,,,,,,,,,,,,71,001,20,w,Psychologie,2023-01-25_13h33.01.561,00_bat_bachelor,2022.2.4,59.951079842963544,
,,,,,,,,,,,,1,0,1,0,117,0,117,0,,,,,,,117,,,0.2,775.868713021162,Y,d,go,d,1,0.4006198908609804,,,,,,,,,,,,,,,,,,71,001,20,w,Psychologie,2023-01-25_13h33.01.561,00_bat_bachelor,2022.2.4,59.951079842963544,
,,,,,,,,,,,,1,0,1,0,118,0,118,0,,,,,,,118,,,0.2,776.5859528522997,Y,None,nogo,None,1,,777.3867898959434,,,,,,,,,,,,,,,,,71,001,20,w,Psychologie,2023-01-25_13h33.01.561,00_bat_bachelor,2022.2.4,59.951079842963544,
,,,,,,,,,,,,1,0,1,0,119,0,119,0,,,,,,,119,,,0.2,777.5868449748086,X,l,go,l,1,0.026344922225689515,,,,,,,,,,,,,,,,,,71,001,20,w,Psychologie,2023-01-25_13h33.01.561,00_bat_bachelor,2022.2.4,59.951079842963544,
,,,,,,,,,,,,1,0,1,0,120,0,120,0,,,,,,,120,,,0.2,777.9372105753282,Y,d,go,d,1,0.6354813233774621,,,,,,,,,,,,,,,,,,71,001,20,w,Psychologie,2023-01-25_13h33.01.561,00_bat_bachelor,2022.2.4,59.951079842963544,
,,,,,,,,,,,,1,0,1,0,121,0,121,0,,,,,,,121,,,0.2,778.904415376106,X,l,go,None,0,,779.7052446621819,,,,,,,,,,,,,,,,,71,001,20,w,Psychologie,2023-01-25_13h33.01.561,00_bat_bachelor,2022.2.4,59.951079842963544,
,,,,,,,,,,,,1,0,1,0,122,0,122,0,,,,,,,122,,,0.2,779.9054704079463,X,None,nogo,l,0,0.2838648119359277,,,,,,,,,,,,,,,,,,71,001,20,w,Psychologie,2023-01-25_13h33.01.561,00_bat_bachelor,2022.2.4,59.951079842963544,
,,,,,,,,,,,,1,0,1,0,123,0,123,0,,,,,,,123,,,0.2,780.522267426335,Y,d,go,d,1,0.2744907377054915,,,,,,,,,,,,,,,,,,71,001,20,w,Psychologie,2023-01-25_13h33.01.561,00_bat_bachelor,2022.2.4,59.951079842963544,
,,,,,,,,,,,,1,0,1,0,124,0,124,0,,,,,,,124,,,0.2,781.1395313544781,X,l,go,l,1,0.2808005650585983,,,,,,,,,,,,,,,,,,71,001,20,w,Psychologie,2023-01-25_13h33.01.561,00_bat_bachelor,2022.2.4,59.951079842963544,
,,,,,,,,,,,,1,0,1,0,125,0,125,0,,,,,,,125,,,0.2,781.7567623128707,X,None,nogo,d,0,0.3033252038876526,,,,,,,,,,,,,,,,,,71,001,20,w,Psychologie,2023-01-25_13h33.01.561,00_bat_bachelor,2022.2.4,59.951079842963544,
,,,,,,,,,,,,1,0,1,0,126,0,126,0,,,,,,,126,,,0.2,782.4072922287742,Y,d,go,None,0,,783.2079969086044,,,,,,,,,,,,,,,,,71,001,20,w,Psychologie,2023-01-25_13h33.01.561,00_bat_bachelor,2022.2.4,59.951079842963544,
,,,,,,,,,,,,1,0,1,0,127,0,127,0,,,,,,,127,,,0.2,783.4079715024855,X,l,go,None,0,,784.2086781217076,,,,,,,,,,,,,,,,,71,001,20,w,Psychologie,2023-01-25_13h33.01.561,00_bat_bachelor,2022.2.4,59.951079842963544,
,,,,,,,,,,,,1,0,1,0,128,0,128,0,,,,,,,128,,,0.2,784.4088393825514,Y,d,go,d,1,0.452682512026513,,,,,,,,,,,,,,,,,,71,001,20,w,Psychologie,2023-01-25_13h33.01.561,00_bat_bachelor,2022.2.4,59.951079842963544,
,,,,,,,,,,,,1,0,1,0,129,0,129,0,,,,,,,129,,,0.2,785.1758402557753,X,l,go,l,1,0.24488924010074697,,,,,,,,,,,,,,,,,,71,001,20,w,Psychologie,2023-01-25_13h33.01.561,00_bat_bachelor,2022.2.4,59.951079842963544,
,,,,,,,,,,,,1,0,1,0,130,0,130,0,,,,,,,130,,,0.2,785.7428679896111,Y,d,go,d,1,0.31836425606161356,,,,,,,,,,,,,,,,,,71,001,20,w,Psychologie,2023-01-25_13h33.01.561,00_bat_bachelor,2022.2.4,59.951079842963544,
,,,,,,,,,,,,1,0,1,0,131,0,131,0,,,,,,,131,,,0.2,786.3767617601261,X,l,go,l,1,0.40405407769139856,,,,,,,,,,,,,,,,,,71,001,20,w,Psychologie,2023-01-25_13h33.01.561,00_bat_bachelor,2022.2.4,59.951079842963544,
,,,,,,,,,,,,1,0,1,0,132,0,132,0,,,,,,,132,,,0.2,787.1275458824821,Y,d,go,d,1,0.4221496191457845,,,,,,,,,,,,,,,,,,71,001,20,w,Psychologie,2023-01-25_13h33.01.561,00_bat_bachelor,2022.2.4,59.951079842963544,
,,,,,,,,,,,,1,0,1,0,133,0,133,0,,,,,,,133,,,0.2,787.8778723072028,X,l,go,l,1,0.21484313579276204,,,,,,,,,,,,,,,,,,71,001,20,w,Psychologie,2023-01-25_13h33.01.561,00_bat_bachelor,2022.2.4,59.951079842963544,
,,,,,,,,,,,,1,0,1,0,134,0,134,0,,,,,,,134,,,0.2,788.4284234110382,Y,d,go,d,1,0.6565955359255895,,,,,,,,,,,,,,,,,,71,001,20,w,Psychologie,2023-01-25_13h33.01.561,00_bat_bachelor,2022.2.4,59.951079842963544,
,,,,,,,,,,,,1,0,1,0,135,0,135,0,,,,,,,135,,,0.2,789.4293019577744,X,l,go,l,1,0.5842482791922521,,,,,,,,,,,,,,,,,,71,001,20,w,Psychologie,2023-01-25_13h33.01.561,00_bat_bachelor,2022.2.4,59.951079842963544,
,,,,,,,,,,,,1,0,1,0,136,0,136,0,,,,,,,136,,,0.2,790.3299534496327,X,None,nogo,l,0,0.4663334409997333,,,,,,,,,,,,,,,,,,71,001,20,w,Psychologie,2023-01-25_13h33.01.561,00_bat_bachelor,2022.2.4,59.951079842963544,
,,,,,,,,,,,,1,0,1,0,137,0,137,0,,,,,,,137,,,0.2,791.1304496442899,X,None,nogo,None,1,,791.9308411115198,,,,,,,,,,,,,,,,,71,001,20,w,Psychologie,2023-01-25_13h33.01.561,00_bat_bachelor,2022.2.4,59.951079842963544,
,,,,,,,,,,,,1,0,1,0,138,0,138,0,,,,,,,138,,,0.2,792.1308050387306,Y,d,go,d,1,0.42619180685142055,,,,,,,,,,,,,,,,,,71,001,20,w,Psychologie,2023-01-25_13h33.01.561,00_bat_bachelor,2022.2.4,59.951079842963544,
,,,,,,,,,,,,1,0,1,0,139,0,139,0,,,,,,,139,,,0.2,792.8814000699203,X,l,go,l,1,0.2360087423294317,,,,,,,,,,,,,,,,,,71,001,20,w,Psychologie,2023-01-25_13h33.01.561,00_bat_bachelor,2022.2.4,59.951079842963544,
,,,,,,,,,,,,1,0,1,0,140,0,140,0,,,,,,,140,,,0.2,793.4319870525796,Y,d,go,d,1,0.3891978136380203,,,,,,,,,,,,,,,,,,71,001,20,w,Psychologie,2023-01-25_13h33.01.561,00_bat_bachelor,2022.2.4,59.951079842963544,
,,,,,,,,,,,,1,0,1,0,141,0,141,0,,,,,,,141,,,0.2,794.1325723140326,Y,None,nogo,None,1,,794.9330636601953,,,,,,,,,,,,,,,,,71,001,20,w,Psychologie,2023-01-25_13h33.01.561,00_bat_bachelor,2022.2.4,59.951079842963544,
,,,,,,,,,,,,1,0,1,0,142,0,142,0,,,,,,,142,,,0.2,795.1331163148279,X,l,go,l,1,0.2398099600104615,,,,,,,,,,,,,,,,,,71,001,20,w,Psychologie,2023-01-25_13h33.01.561,00_bat_bachelor,2022.2.4,59.951079842963544,
,,,,,,,,,,,,1,0,1,0,143,0,143,0,,,,,,,143,,,0.2,795.6835209942074,Y,d,go,d,1,0.1216051819792483,,,,,,,,,,,,,,,,,,71,001,20,w,Psychologie,2023-01-25_13h33.01.561,00_bat_bachelor,2022.2.4,59.951079842963544,
,,,,,,,,,,,,1,0,1,0,144,0,144,0,,,,,,,144,,,0.2,796.1172127765603,X,l,go,l,1,0.5836868238111492,,,,,,,,,,,,,,,,,,71,001,20,w,Psychologie,2023-01-25_13h33.01.561,00_bat_bachelor,2022.2.4,59.951079842963544,
,,,,,,,,,,,,1,0,1,0,145,0,145,0,,,,,,,145,,,0.2,797.0181251172617,Y,d,go,None,0,,797.8184753723326,,,,,,,,,,,,,,,,,71,001,20,w,Psychologie,2023-01-25_13h33.01.561,00_bat_bachelor,2022.2.4,59.951079842963544,
,,,,,,,,,,,,1,0,1,0,146,0,146,0,,,,,,,146,,,0.2,798.0186797847273,X,l,go,l,1,0.4416575263312552,,,,,,,,,,,,,,,,,,71,001,20,w,Psychologie,2023-01-25_13h33.01.561,00_bat_bachelor,2022.2.4,59.951079842963544,
,,,,,,,,,,,,1,0,1,0,147,0,147,0,,,,,,,147,,,0.2,798.7857538701792,X,None,nogo,None,1,,799.5865201258275,,,,,,,,,,,,,,,,,71,001,20,w,Psychologie,2023-01-25_13h33.01.561,00_bat_bachelor,2022.2.4,59.951079842963544,
,,,,,,,,,,,,1,0,1,0,148,0,148,0,,,,,,,148,,,0.2,799.7865897501761,Y,d,go,d,1,0.41873822023626417,,,,,,,,,,,,,,,,,,71,001,20,w,Psychologie,2023-01-25_13h33.01.561,00_bat_bachelor,2022.2.4,59.951079842963544,
,,,,,,,,,,,,1,0,1,0,149,0,149,0,,,,,,,149,,,0.2,800.520526332868,X,l,go,l,1,0.2453110589121934,,,,,,,,,,,,,,,,,,71,001,20,w,Psychologie,2023-01-25_13h33.01.561,00_bat_bachelor,2022.2.4,59.951079842963544,
,,,,,,,,,,,,1,0,1,0,150,0,150,0,,,,,,,150,,,0.2,801.0707845877914,X,None,nogo,d,0,0.3187700748385396,,,,,,,,,,,,,,,,,,71,001,20,w,Psychologie,2023-01-25_13h33.01.561,00_bat_bachelor,2022.2.4,59.951079842963544,
,,,,,,,,,,,,1,0,1,0,151,0,151,0,,,,,,,151,,,0.2,801.704600297584,Y,d,go,None,0,,802.505359765375,,,,,,,,,,,,,,,,,71,001,20,w,Psychologie,2023-01-25_13h33.01.561,00_bat_bachelor,2022.2.4,59.951079842963544,
,,,,,,,,,,,,1,0,1,0,152,0,152,0,,,,,,,152,,,0.2,802.7055549656507,X,l,go,l,1,0.4280594459269196,,,,,,,,,,,,,,,,,,71,001,20,w,Psychologie,2023-01-25_13h33.01.561,00_bat_bachelor,2022.2.4,59.951079842963544,
,,,,,,,,,,,,1,0,1,0,153,0,153,0,,,,,,,153,,,0.2,803.4394033057906,X,None,nogo,d,0,0.42982041818322614,,,,,,,,,,,,,,,,,,71,001,20,w,Psychologie,2023-01-25_13h33.01.561,00_bat_bachelor,2022.2.4,59.951079842963544,
,,,,,,,,,,,,1,0,1,0,154,0,154,0,,,,,,,154,,,0.2,804.1733544339659,X,None,nogo,None,1,,804.9740115985624,,,,,,,,,,,,,,,,,71,001,20,w,Psychologie,2023-01-25_13h33.01.561,00_bat_bachelor,2022.2.4,59.951079842963544,
,,,,,,,,,,,,1,0,1,0,155,0,155,0,,,,,,,155,,,0.2,805.1737011011282,Y,d,go,d,1,0.48728280479554087,,,,,,,,,,,,,,,,,,71,001,20,w,Psychologie,2023-01-25_13h33.01.561,00_bat_bachelor,2022.2.4,59.951079842963544,
,,,,,,,,,,,,1,0,1,0,156,0,156,0,,,,,,,156,,,0.2,805.9745686902897,X,l,go,l,1,0.3911687256186269,,,,,,,,,,,,,,,,,,71,001,20,w,Psychologie,2023-01-25_13h33.01.561,00_bat_bachelor,2022.2.4,59.951079842963544,
,,,,,,,,,,,,1,0,1,0,157,0,157,0,,,,,,,157,,,0.2,806.6751592850778,X,None,nogo,l,0,0.6512617099797353,,,,,,,,,,,,,,,,,,71,001,20,w,Psychologie,2023-01-25_13h33.01.561,00_bat_bachelor,2022.2.4,59.951079842963544,
,,,,,,,,,,,,1,0,1,0,158,0,158,0,,,,,,,158,,,0.2,807.642489176942,Y,d,go,d,1,0.48328764748293906,,,,,,,,,,,,,,,,,,71,001,20,w,Psychologie,2023-01-25_13h33.01.561,00_bat_bachelor,2022.2.4,59.951079842963544,
,,,,,,,,,,,,1,0,1,0,159,0,159,0,,,,,,,159,,,0.2,808.4264966203482,X,l,go,l,1,0.24423517857212573,,,,,,,,,,,,,,,,,,71,001,20,w,Psychologie,2023-01-25_13h33.01.561,00_bat_bachelor,2022.2.4,59.951079842963544,
,,,,,,,,,,,,1,0,1,0,160,0,160,0,,,,,,,160,,,0.2,808.9767000873107,Y,d,go,d,1,0.348461269546533,,,,,,,,,,,,,,,,,,71,001,20,w,Psychologie,2023-01-25_13h33.01.561,00_bat_bachelor,2022.2.4,59.951079842963544,
,,,,,,,,,,,,1,0,1,0,161,0,161,0,,,,,,,161,,,0.2,809.6274234580633,X,l,go,l,1,0.6112456517876126,,,,,,,,,,,,,,,,,,71,001,20,w,Psychologie,2023-01-25_13h33.01.561,00_bat_bachelor,2022.2.4,59.951079842963544,
,,,,,,,,,,,,1,0,1,0,162,0,162,0,,,,,,,162,,,0.2,810.544735822652,Y,d,go,d,1,0.23686110723065212,,,,,,,,,,,,,,,,,,71,001,20,w,Psychologie,2023-01-25_13h33.01.561,00_bat_bachelor,2022.2.4,59.951079842963544,
,,,,,,,,,,,,1,0,1,0,163,0,163,0,,,,,,,163,,,0.2,811.0952122597082,X,l,go,l,1,0.1989478399627842,,,,,,,,,,,,,,,,,,71,001,20,w,Psychologie,2023-01-25_13h33.01.561,00_bat_bachelor,2022.2.4,59.951079842963544,
,,,,,,,,,,,,1,0,1,0,164,0,164,0,,,,,,,164,,,0.2,811.5955358965439,X,None,nogo,d,0,0.3698925734497607,,,,,,,,,,,,,,,,,,71,001,20,w,Psychologie,2023-01-25_13h33.01.561,00_bat_bachelor,2022.2.4,59.951079842963544,
,,,,,,,,,,,,1,0,1,0,165,0,165,0,,,,,,,165,,,0.2,812.2794311943289,Y,d,go,None,0,,,,,,,,,,,,,,,,,,,71,001,20,w,Psychologie,2023-01-25_13h33.01.561,00_bat_bachelor,2022.2.4,59.951079842963544,
,,,,,,,,,,,,1,0,1,0,166,0,166,0,,,,,,,166,,,0.2,813.2802210136433,X,l,go,None,0,,,,,,,,,,,,,,,,,,,71,001,20,w,Psychologie,2023-01-25_13h33.01.561,00_bat_bachelor,2022.2.4,59.951079842963544,
,,,,,,,,,,,,1,0,1,0,167,0,167,0,,,,,,,167,,,0.2,814.2806190748233,X,None,nogo,l,0,0.4211353146529291,,,,,,,,,,,,,,,,,,71,001,20,w,Psychologie,2023-01-25_13h33.01.561,00_bat_bachelor,2022.2.4,59.951079842963544,
,,,,,,,,,,,,1,0,1,0,168,0,168,0,,,,,,,168,,,0.2,815.014783536637,Y,d,go,d,1,0.08645410055760294,,,,,,,,,,,,,,,,,,71,001,20,w,Psychologie,2023-01-25_13h33.01.561,00_bat_bachelor,2022.2.4,59.951079842963544,
,,,,,,,,,,,,1,0,1,0,169,0,169,0,,,,,,,169,,,0.2,815.4149843611813,X,l,go,l,1,0.31152400371502154,,,,,,,,,,,,,,,,,,71,001,20,w,Psychologie,2023-01-25_13h33.01.561,00_bat_bachelor,2022.2.4,59.951079842963544,
,,,,,,,,,,,,1,0,1,0,170,0,170,0,,,,,,,170,,,0.2,816.0322167741251,Y,d,go,d,1,0.15789081054390408,,,,,,,,,,,,,,,,,,71,001,20,w,Psychologie,2023-01-25_13h33.01.561,00_bat_bachelor,2022.2.4,59.951079842963544,
,,,,,,,,,,,,1,0,1,0,171,0,171,0,,,,,,,171,,,0.2,816.4992724837794,Y,None,nogo,l,0,0.20208093541441485,,,,,,,,,,,,,,,,,,71,001,20,w,Psychologie,2023-01-25_13h33.01.561,00_bat_bachelor,2022.2.4,59.951079842963544,
,,,,,,,,,,,,1,0,1,0,172,0,172,0,,,,,,,172,,,0.2,817.0162783267151,X,l,go,d,0,0.16525857881060801,,,,,,,,,,,,,,,,,,71,001,20,w,Psychologie,2023-01-25_13h33.01.561,00_bat_bachelor,2022.2.4,59.951079842963544,
,,,,,,,,,,,,1,0,1,0,173,0,173,0,,,,,,,173,,,0.2,817.4834033697844,Y,d,go,l,0,0.3057431468332652,,,,,,,,,,,,,,,,,,71,001,20,w,Psychologie,2023-01-25_13h33.01.561,00_bat_bachelor,2022.2.4,59.951079842963544,
,,,,,,,,,,,,1,0,1,0,174,0,174,0,,,,,,,174,,,0.2,818.1005577220058,Y,None,nogo,None,1,,818.9011111288855,,,,,,,,,,,,,,,,,71,001,20,w,Psychologie,2023-01-25_13h33.01.561,00_bat_bachelor,2022.2.4,59.951079842963544,
,,,,,,,,,,,,1,0,1,0,175,0,175,0,,,,,,,175,,,0.2,819.1010915409715,X,l,go,l,1,0.5293618963332847,,,,,,,,,,,,,,,,,,71,001,20,w,Psychologie,2023-01-25_13h33.01.561,00_bat_bachelor,2022.2.4,59.951079842963544,
,,,,,,,,,,,,1,0,1,0,176,0,176,0,,,,,,,176,,,0.2,819.9352357845928,Y,d,go,d,1,0.3023511418723501,,,,,,,,,,,,,,,,,,71,001,20,w,Psychologie,2023-01-25_13h33.01.561,00_bat_bachelor,2022.2.4,59.951079842963544,
,,,,,,,,,,,,1,0,1,0,177,0,177,0,,,,,,,177,,,0.2,820.5523469852342,X,l,go,l,1,0.3895309050567448,,,,,,,,,,,,,,,,,,71,001,20,w,Psychologie,2023-01-25_13h33.01.561,00_bat_bachelor,2022.2.4,59.951079842963544,
,,,,,,,,,,,,1,0,1,0,178,0,178,0,,,,,,,178,,,0.2,821.2528250950272,X,None,nogo,None,1,,,,,,,,,,,,,,,,,,,71,001,20,w,Psychologie,2023-01-25_13h33.01.561,00_bat_bachelor,2022.2.4,59.951079842963544,
,,,,,,,,,,,,1,0,1,0,179,0,179,0,,,,,,,179,,,0.2,822.2537899448944,Y,d,go,d,1,0.4957405141030904,,,,,,,,,,,,,,,,,,71,001,20,w,Psychologie,2023-01-25_13h33.01.561,00_bat_bachelor,2022.2.4,59.951079842963544,
,,,,,,,,,,,,1,0,1,0,180,0,180,0,,,,,,,180,,,0.2,823.0540233512875,X,l,go,l,1,0.2237439972232096,,,,,,,,,,,,,,,,,,71,001,20,w,Psychologie,2023-01-25_13h33.01.561,00_bat_bachelor,2022.2.4,59.951079842963544,
,,,,,,,,,,,,1,0,1,0,181,0,181,0,,,,,,,181,,,0.2,823.5881293402927,Y,d,go,d,1,0.2817949907621369,,,,,,,,,,,,,,,,,,71,001,20,w,Psychologie,2023-01-25_13h33.01.561,00_bat_bachelor,2022.2.4,59.951079842963544,
,,,,,,,,,,,,1,0,1,0,182,0,182,0,,,,,,,182,,,0.2,824.1715275222086,Y,None,nogo,l,0,0.3218275338294916,,,,,,,,,,,,,,,,,,71,001,20,w,Psychologie,2023-01-25_13h33.01.561,00_bat_bachelor,2022.2.4,59.951079842963544,
,,,,,,,,,,,,1,0,1,0,183,0,183,0,,,,,,,183,,,0.2,824.8057112325332,X,l,go,None,0,,825.6061948211282,,,,,,,,,,,,,,,,,71,001,20,w,Psychologie,2023-01-25_13h33.01.561,00_bat_bachelor,2022.2.4,59.951079842963544,
,,,,,,,,,,,,1,0,1,0,184,0,184,0,,,,,,,184,,,0.2,825.8063977790007,Y,d,go,None,0,,,,,,,,,,,,,,,,,,,71,001,20,w,Psychologie,2023-01-25_13h33.01.561,00_bat_bachelor,2022.2.4,59.951079842963544,
,,,,,,,,,,,,1,0,1,0,185,0,185,0,,,,,,,185,,,0.2,826.8070765678713,Y,None,nogo,None,1,,,,,,,,,,,,,,,,,,,71,001,20,w,Psychologie,2023-01-25_13h33.01.561,00_bat_bachelor,2022.2.4,59.951079842963544,
,,,,,,,,,,,,1,0,1,0,186,0,186,0,,,,,,,186,,,0.2,827.8078547508048,X,l,go,l,1,0.5581619382137433,,,,,,,,,,,,,,,,,,71,001,20,w,Psychologie,2023-01-25_13h33.01.561,00_bat_bachelor,2022.2.4,59.951079842963544,
,,,,,,,,,,,,1,0,1,0,187,0,187,0,,,,,,,187,,,0.2,828.6752683761297,Y,d,go,d,1,0.314297825912945,,,,,,,,,,,,,,,,,,71,001,20,w,Psychologie,2023-01-25_13h33.01.561,00_bat_bachelor,2022.2.4,59.951079842963544,
,,,,,,,,,,,,1,0,1,0,188,0,188,0,,,,,,,188,,,0.2,829.2923892737599,Y,None,nogo,None,1,,,,,,,,,,,,,,,,,,,71,001,20,w,Psychologie,2023-01-25_13h33.01.561,00_bat_bachelor,2022.2.4,59.951079842963544,
,,,,,,,,,,,,1,0,1,0,189,0,189,0,,,,,,,189,,,0.2,830.2931485476147,X,l,go,l,1,0.3450455070124008,,,,,,,,,,,,,,,,,,71,001,20,w,Psychologie,2023-01-25_13h33.01.561,00_bat_bachelor,2022.2.4,59.951079842963544,
,,,,,,,,,,,,1,0,1,0,190,0,190,0,,,,,,,190,,,0.2,830.9433860994759,Y,d,go,d,1,0.30181877745781094,,,,,,,,,,,,,,,,,,71,001,20,w,Psychologie,2023-01-25_13h33.01.561,00_bat_bachelor,2022.2.4,59.951079842963544,
,,,,,,,,,,,,1,0,1,0,191,0,191,0,,,,,,,191,,,0.2,831.5607314822846,Y,None,nogo,None,1,,,,,,,,,,,,,,,,,,,71,001,20,w,Psychologie,2023-01-25_13h33.01.561,00_bat_bachelor,2022.2.4,59.951079842963544,
,,,,,,,,,,,,1,0,1,0,192,0,192,0,,,,,,,192,,,0.2,832.5612948770286,X,l,go,l,1,0.2672538787010126,,,,,,,,,,,,,,,,,,71,001,20,w,Psychologie,2023-01-25_13h33.01.561,00_bat_bachelor,2022.2.4,59.951079842963544,
,,,,,,,,,,,,1,0,1,0,193,0,193,0,,,,,,,193,,,0.2,833.1453379083541,Y,d,go,d,1,0.06831395297194831,,,,,,,,,,,,,,,,,,71,001,20,w,Psychologie,2023-01-25_13h33.01.561,00_bat_bachelor,2022.2.4,59.951079842963544,
,,,,,,,,,,,,1,0,1,0,194,0,194,0,,,,,,,194,,,0.2,833.5286999205418,X,l,go,l,1,0.2603447777510155,,,,,,,,,,,,,,,,,,71,001,20,w,Psychologie,2023-01-25_13h33.01.561,00_bat_bachelor,2022.2.4,59.951079842963544,
,,,,,,,,,,,,1,0,1,0,195,0,195,0,,,,,,,195,,,0.2,834.0960263214947,X,None,nogo,d,0,0.38198713649762794,,,,,,,,,,,,,,,,,,71,001,20,w,Psychologie,2023-01-25_13h33.01.561,00_bat_bachelor,2022.2.4,59.951079842963544,
,,,,,,,,,,,,1,0,1,0,196,0,196,0,,,,,,,196,,,0.2,834.7798920434725,Y,d,go,None,0,,,,,,,,,,,,,,,,,,,71,001,20,w,Psychologie,2023-01-25_13h33.01.561,00_bat_bachelor,2022.2.4,59.951079842963544,
,,,,,,,,,,,,1,0,1,0,197,0,197,0,,,,,,,197,,,0.2,835.7808122872375,X,l,go,l,1,0.3937330929620657,,,,,,,,,,,,,,,,,,71,001,20,w,Psychologie,2023-01-25_13h33.01.561,00_bat_bachelor,2022.2.4,59.951079842963544,
