loop_instruction.thisRepN,loop_instruction.thisTrialN,loop_instruction.thisN,loop_instruction.thisIndex,loop_rsi_practice.thisRepN,loop_rsi_practice.thisTrialN,loop_rsi_practice.thisN,loop_rsi_practice.thisIndex,loop_practice.thisRepN,loop_practice.thisTrialN,loop_practice.thisN,loop_practice.thisIndex,loop_exp.thisRepN,loop_exp.thisTrialN,loop_exp.thisN,loop_exp.thisIndex,loop_trials.thisRepN,loop_trials.thisTrialN,loop_trials.thisN,loop_trials.thisIndex,map_condition,map_x_key,map_y_key,key_resp_welcome.started,key_resp_welcome.keys,key_resp_welcome.rt,index,text_empty_rsi_practice.started,text_empty_rsi_practice.stopped,rsi,stimulus.started,stimulus,correct,trial_type,key_resp_trial.keys,key_resp_trial.corr,key_resp_trial.rt,stimulus.stopped,key_resp_instruction_rsi.started,key_resp_instruction_rsi.keys,key_resp_instruction_rsi.rt,key_resp_instruction_rsi.stopped,key_resp_instruction_final.started,key_resp_instruction_final.keys,key_resp_instruction_final.rt,key_resp_break.started,key_resp_break.keys,key_resp_break.rt,key_resp_break.stopped,key_resp_end_screen.started,image_end_screen.started,key_resp_end_screen.stopped,image_end_screen.stopped,key_resp_end_screen.keys,participant,session,Alter,Geschlecht (w/m/d/andere),Studiengang,date,expName,psychopyVersion,frameRate,
,,,,0,0,0,0,0,0,0,0,,,,,,,,,0,d,l,232.73897758102976,j,18.626181164057925,0,251.39090162864886,252.40549216698855,1,252.40549216698855,X,d,go,d,1,0.36363535188138485,,,,,,,,,,,,,,,,,,72,001,21,m,Psychologie,2023-01-25_13h33.12.437,00_bat_bachelor,2022.2.4,59.942135873471976,
,,,,0,0,0,0,1,0,1,0,,,,,,,,,,,,,,,1,253.4728851041291,254.4733791644685,1,254.4733791644685,Y,l,go,l,1,0.18348513636738062,,,,,,,,,,,,,,,,,,72,001,21,m,Psychologie,2023-01-25_13h33.12.437,00_bat_bachelor,2022.2.4,59.942135873471976,
,,,,0,0,0,0,2,0,2,0,,,,,,,,,,,,,,,2,255.35760467499495,256.35826018988155,1,256.35826018988155,X,d,go,d,1,0.1698158096987754,,,,,,,,,,,,,,,,,,72,001,21,m,Psychologie,2023-01-25_13h33.12.437,00_bat_bachelor,2022.2.4,59.942135873471976,
,,,,0,0,0,0,3,0,3,0,,,,,,,,,,,,,,,3,257.24228206439875,258.2430980638601,1,258.2430980638601,X,None,nogo,None,1,,,,,,,,,,,,,,,,,,,72,001,21,m,Psychologie,2023-01-25_13h33.12.437,00_bat_bachelor,2022.2.4,59.942135873471976,
,,,,0,0,0,0,4,0,4,0,,,,,,,,,,,,,,,4,259.64419993013144,260.64495726302266,1,260.64495726302266,Y,l,go,l,1,0.38101861625909805,,,,,,,,,,,,,,,,,,72,001,21,m,Psychologie,2023-01-25_13h33.12.437,00_bat_bachelor,2022.2.4,59.942135873471976,
,,,,0,0,0,0,5,0,5,0,,,,,,,,,,,,,,,5,261.72904885862954,262.72982073714957,1,262.72982073714957,X,d,go,d,1,0.3279830056708306,,,,,,,,,,,,,,,,,,72,001,21,m,Psychologie,2023-01-25_13h33.12.437,00_bat_bachelor,2022.2.4,59.942135873471976,
,,,,0,0,0,0,6,0,6,0,,,,,,,,,,,,,,,6,263.7639380537439,264.76488059875555,1,264.76488059875555,X,None,nogo,d,0,0.48393929353915155,,,,,,,,,,,,,,,,,,72,001,21,m,Psychologie,2023-01-25_13h33.12.437,00_bat_bachelor,2022.2.4,59.942135873471976,
,,,,0,0,0,0,7,0,7,0,,,,,,,,,,,,,,,7,266.34944370924495,267.3498534061946,1,267.3498534061946,Y,l,go,l,1,0.6174441985785961,,,,,,,,,,,,,,,,,,72,001,21,m,Psychologie,2023-01-25_13h33.12.437,00_bat_bachelor,2022.2.4,59.942135873471976,
,,,,0,0,0,0,8,0,8,0,,,,,,,,,,,,,,,8,268.70116281160153,269.70188862946816,1,269.70188862946816,X,d,go,d,1,0.4121061163023114,,,,,,,,,,,,,,,,,,72,001,21,m,Psychologie,2023-01-25_13h33.12.437,00_bat_bachelor,2022.2.4,59.942135873471976,
,,,,0,0,0,0,9,0,9,0,,,,,,,,,,,,,,,9,270.81932469364256,271.8201479660347,1,271.8201479660347,Y,l,go,l,1,0.38938612723723054,,,,,,,,,,,,,,,,,,72,001,21,m,Psychologie,2023-01-25_13h33.12.437,00_bat_bachelor,2022.2.4,59.942135873471976,
,,,,0,0,0,0,10,0,10,0,,,,,,,,,,,,,,,10,272.92114379582927,273.9215617349837,1,273.9215617349837,X,d,go,d,1,0.4156513267662376,,,,,,,,,,,,,,,,,,72,001,21,m,Psychologie,2023-01-25_13h33.12.437,00_bat_bachelor,2022.2.4,59.942135873471976,
,,,,0,0,0,0,11,0,11,0,,,,,,,,,,,,,,,11,275.0392950112,276.04006785945967,1,276.04006785945967,X,None,nogo,d,0,0.4729797837790102,,,,,,,,,,,,,,,,,,72,001,21,m,Psychologie,2023-01-25_13h33.12.437,00_bat_bachelor,2022.2.4,59.942135873471976,
,,,,0,0,0,0,12,0,12,0,,,,,,,,,,,,,,,12,277.6253427271731,278.6258906056173,1,278.6258906056173,Y,l,go,None,0,,279.42689336882904,,,,,,,,,,,,,,,,,72,001,21,m,Psychologie,2023-01-25_13h33.12.437,00_bat_bachelor,2022.2.4,59.942135873471976,
,,,,0,0,0,0,13,0,13,0,,,,,,,,,,,,,,,13,280.02702786563896,281.02771344105713,1,281.02771344105713,X,d,go,d,1,0.25216195126995444,,,,,,,,,,,,,,,,,,72,001,21,m,Psychologie,2023-01-25_13h33.12.437,00_bat_bachelor,2022.2.4,59.942135873471976,
,,,,0,0,0,0,14,0,14,0,,,,,,,,,,,,,,,14,282.01203490328044,283.01255320594646,1,283.01255320594646,Y,l,go,l,1,0.28314763330854475,,,,,,,,,,,,,,,,,,72,001,21,m,Psychologie,2023-01-25_13h33.12.437,00_bat_bachelor,2022.2.4,59.942135873471976,
,,,,1,0,1,0,0,0,0,0,,,,,,,,,,,,,,,0,300.59244044008665,300.7925625247881,0.2,300.7925625247881,X,d,go,d,1,0.42374780774116516,,284.04808531003073,j,16.51664230809547,,,,,,,,,,,,,,72,001,21,m,Psychologie,2023-01-25_13h33.12.437,00_bat_bachelor,2022.2.4,59.942135873471976,
,,,,1,0,1,0,1,0,1,0,,,,,,,,,,,,,,,1,301.9270230657421,302.12674902938306,0.2,302.12674902938306,Y,l,go,l,1,0.32258325070142746,,,,,,,,,,,,,,,,,,72,001,21,m,Psychologie,2023-01-25_13h33.12.437,00_bat_bachelor,2022.2.4,59.942135873471976,
,,,,1,0,1,0,2,0,2,0,,,,,,,,,,,,,,,2,303.16107483091764,303.36104467348196,0.2,303.36104467348196,X,d,go,d,1,0.39968575863167644,,,,,,,,,,,,,,,,,,72,001,21,m,Psychologie,2023-01-25_13h33.12.437,00_bat_bachelor,2022.2.4,59.942135873471976,
,,,,1,0,1,0,3,0,3,0,,,,,,,,,,,,,,,3,304.461944503244,304.66242489102297,0.2,304.66242489102297,X,None,nogo,l,0,0.3149914969690144,,,,,,,,,,,,,,,,,,72,001,21,m,Psychologie,2023-01-25_13h33.12.437,00_bat_bachelor,2022.2.4,59.942135873471976,
,,,,1,0,1,0,4,0,4,0,,,,,,,,,,,,,,,4,306.09667922579683,306.29684688639827,0.2,306.29684688639827,Y,l,go,l,1,0.5202132153790444,,,,,,,,,,,,,,,,,,72,001,21,m,Psychologie,2023-01-25_13h33.12.437,00_bat_bachelor,2022.2.4,59.942135873471976,
,,,,1,0,1,0,5,0,5,0,,,,,,,,,,,,,,,5,307.5311134394724,307.7311288577039,0.2,307.7311288577039,X,d,go,d,1,0.3981143655255437,,,,,,,,,,,,,,,,,,72,001,21,m,Psychologie,2023-01-25_13h33.12.437,00_bat_bachelor,2022.2.4,59.942135873471976,
,,,,1,0,1,0,6,0,6,0,,,,,,,,,,,,,,,6,308.84862504317425,309.04888385511003,0.2,309.04888385511003,Y,l,go,l,1,0.4401090117171407,,,,,,,,,,,,,,,,,,72,001,21,m,Psychologie,2023-01-25_13h33.12.437,00_bat_bachelor,2022.2.4,59.942135873471976,
,,,,1,0,1,0,7,0,7,0,,,,,,,,,,,,,,,7,310.19962560012937,310.39997701812536,0.2,310.39997701812536,X,d,go,d,1,0.4486651287879795,,,,,,,,,,,,,,,,,,72,001,21,m,Psychologie,2023-01-25_13h33.12.437,00_bat_bachelor,2022.2.4,59.942135873471976,
,,,,1,0,1,0,8,0,8,0,,,,,,,,,,,,,,,8,311.55068530887365,311.7508049693424,0.2,311.7508049693424,Y,l,go,l,1,0.4415218597277999,,,,,,,,,,,,,,,,,,72,001,21,m,Psychologie,2023-01-25_13h33.12.437,00_bat_bachelor,2022.2.4,59.942135873471976,
,,,,1,0,1,0,9,0,9,0,,,,,,,,,,,,,,,9,312.918387433514,313.1187306090724,0.2,313.1187306090724,X,d,go,d,1,0.37025789427571,,,,,,,,,,,,,,,,,,72,001,21,m,Psychologie,2023-01-25_13h33.12.437,00_bat_bachelor,2022.2.4,59.942135873471976,
,,,,1,0,1,0,10,0,10,0,,,,,,,,,,,,,,,10,314.2028348108288,314.4029641682282,0.2,314.4029641682282,X,None,nogo,None,1,,315.20357808307745,,,,,,,,,,,,,,,,,72,001,21,m,Psychologie,2023-01-25_13h33.12.437,00_bat_bachelor,2022.2.4,59.942135873471976,
,,,,1,0,1,0,11,0,11,0,,,,,,,,,,,,,,,11,315.80402870103717,316.0039912709035,0.2,316.0039912709035,Y,l,go,l,1,0.39691097219474614,,,,,,,,,,,,,,,,,,72,001,21,m,Psychologie,2023-01-25_13h33.12.437,00_bat_bachelor,2022.2.4,59.942135873471976,
,,,,1,0,1,0,12,0,12,0,,,,,,,,,,,,,,,12,317.10503025213256,317.30517706414685,0.2,317.30517706414685,X,d,go,d,1,0.3752891644835472,,,,,,,,,,,,,,,,,,72,001,21,m,Psychologie,2023-01-25_13h33.12.437,00_bat_bachelor,2022.2.4,59.942135873471976,
,,,,1,0,1,0,13,0,13,0,,,,,,,,,,,,,,,13,318.40586937894113,318.60622564540245,0.2,318.60622564540245,Y,l,go,l,1,0.48181129479780793,,,,,,,,,,,,,,,,,,72,001,21,m,Psychologie,2023-01-25_13h33.12.437,00_bat_bachelor,2022.2.4,59.942135873471976,
,,,,1,0,1,0,14,0,14,0,,,,,,,,,,,,,,,14,319.80691597238183,320.0070749055594,0.2,320.0070749055594,X,d,go,d,1,0.36256723129190505,,,,,,,,,,,,,,,,,,72,001,21,m,Psychologie,2023-01-25_13h33.12.437,00_bat_bachelor,2022.2.4,59.942135873471976,
,,,,,,,,,,,,,,,,,,,,,,,,,,,,,,,,,,,,,,321.1047732825391,None,,321.1047732825391,321.1047732825391,j,11.363399715861306,,,,,,,,,,72,001,21,m,Psychologie,2023-01-25_13h33.12.437,00_bat_bachelor,2022.2.4,59.942135873471976,
,,,,,,,,,,,,0,0,0,0,0,0,0,0,,,,,,,0,,,1,333.50042254524305,X,d,go,d,1,0.4844294753856957,,,,,,,,,,,,,,,,,,72,001,21,m,Psychologie,2023-01-25_13h33.12.437,00_bat_bachelor,2022.2.4,59.942135873471976,
,,,,,,,,,,,,0,0,0,0,1,0,1,0,,,,,,,1,,,1,335.1021880717017,Y,l,go,l,1,0.45054634008556604,,,,,,,,,,,,,,,,,,72,001,21,m,Psychologie,2023-01-25_13h33.12.437,00_bat_bachelor,2022.2.4,59.942135873471976,
,,,,,,,,,,,,0,0,0,0,2,0,2,0,,,,,,,2,,,1,336.6529228349682,X,d,go,d,1,0.3723664991557598,,,,,,,,,,,,,,,,,,72,001,21,m,Psychologie,2023-01-25_13h33.12.437,00_bat_bachelor,2022.2.4,59.942135873471976,
,,,,,,,,,,,,0,0,0,0,3,0,3,0,,,,,,,3,,,1,338.13740599388257,X,None,nogo,None,1,,,,,,,,,,,,,,,,,,,72,001,21,m,Psychologie,2023-01-25_13h33.12.437,00_bat_bachelor,2022.2.4,59.942135873471976,
,,,,,,,,,,,,0,0,0,0,4,0,4,0,,,,,,,4,,,1,339.9385168782901,Y,l,go,l,1,0.39891484985128045,,,,,,,,,,,,,,,,,,72,001,21,m,Psychologie,2023-01-25_13h33.12.437,00_bat_bachelor,2022.2.4,59.942135873471976,
,,,,,,,,,,,,0,0,0,0,5,0,5,0,,,,,,,5,,,1,341.43986063520424,X,d,go,d,1,0.5126127342227846,,,,,,,,,,,,,,,,,,72,001,21,m,Psychologie,2023-01-25_13h33.12.437,00_bat_bachelor,2022.2.4,59.942135873471976,
,,,,,,,,,,,,0,0,0,0,6,0,6,0,,,,,,,6,,,1,343.0578923355788,X,None,nogo,None,1,,,,,,,,,,,,,,,,,,,72,001,21,m,Psychologie,2023-01-25_13h33.12.437,00_bat_bachelor,2022.2.4,59.942135873471976,
,,,,,,,,,,,,0,0,0,0,7,0,7,0,,,,,,,7,,,1,344.859152068384,Y,l,go,l,1,0.35789135470986366,,,,,,,,,,,,,,,,,,72,001,21,m,Psychologie,2023-01-25_13h33.12.437,00_bat_bachelor,2022.2.4,59.942135873471976,
,,,,,,,,,,,,0,0,0,0,8,0,8,0,,,,,,,8,,,1,346.3269467505161,X,d,go,d,1,0.3629245643969625,,,,,,,,,,,,,,,,,,72,001,21,m,Psychologie,2023-01-25_13h33.12.437,00_bat_bachelor,2022.2.4,59.942135873471976,
,,,,,,,,,,,,0,0,0,0,9,0,9,0,,,,,,,9,,,1,347.7946876147762,X,None,nogo,None,1,,348.59532625670545,,,,,,,,,,,,,,,,,72,001,21,m,Psychologie,2023-01-25_13h33.12.437,00_bat_bachelor,2022.2.4,59.942135873471976,
,,,,,,,,,,,,0,0,0,0,10,0,10,0,,,,,,,10,,,1,349.5960103776306,Y,l,go,l,1,0.6297050411812961,,,,,,,,,,,,,,,,,,72,001,21,m,Psychologie,2023-01-25_13h33.12.437,00_bat_bachelor,2022.2.4,59.942135873471976,
,,,,,,,,,,,,0,0,0,0,11,0,11,0,,,,,,,11,,,1,351.33085220330395,X,d,go,d,1,0.4143286608159542,,,,,,,,,,,,,,,,,,72,001,21,m,Psychologie,2023-01-25_13h33.12.437,00_bat_bachelor,2022.2.4,59.942135873471976,
,,,,,,,,,,,,0,0,0,0,12,0,12,0,,,,,,,12,,,1,352.8482531644404,Y,l,go,l,1,0.4811068100389093,,,,,,,,,,,,,,,,,,72,001,21,m,Psychologie,2023-01-25_13h33.12.437,00_bat_bachelor,2022.2.4,59.942135873471976,
,,,,,,,,,,,,0,0,0,0,13,0,13,0,,,,,,,13,,,1,354.4328739719931,Y,None,nogo,None,1,,,,,,,,,,,,,,,,,,,72,001,21,m,Psychologie,2023-01-25_13h33.12.437,00_bat_bachelor,2022.2.4,59.942135873471976,
,,,,,,,,,,,,0,0,0,0,14,0,14,0,,,,,,,14,,,1,356.23425540165044,X,d,go,d,1,0.24647274217568338,,,,,,,,,,,,,,,,,,72,001,21,m,Psychologie,2023-01-25_13h33.12.437,00_bat_bachelor,2022.2.4,59.942135873471976,
,,,,,,,,,,,,0,0,0,0,15,0,15,0,,,,,,,15,,,1,357.58547559496947,Y,l,go,l,1,0.4798559017945081,,,,,,,,,,,,,,,,,,72,001,21,m,Psychologie,2023-01-25_13h33.12.437,00_bat_bachelor,2022.2.4,59.942135873471976,
,,,,,,,,,,,,0,0,0,0,16,0,16,0,,,,,,,16,,,1,359.1700760386884,X,d,go,d,1,0.43211774318479,,,,,,,,,,,,,,,,,,72,001,21,m,Psychologie,2023-01-25_13h33.12.437,00_bat_bachelor,2022.2.4,59.942135873471976,
,,,,,,,,,,,,0,0,0,0,17,0,17,0,,,,,,,17,,,1,360.7046377188526,X,None,nogo,None,1,,,,,,,,,,,,,,,,,,,72,001,21,m,Psychologie,2023-01-25_13h33.12.437,00_bat_bachelor,2022.2.4,59.942135873471976,
,,,,,,,,,,,,0,0,0,0,18,0,18,0,,,,,,,18,,,1,362.5064942999743,Y,l,go,l,1,0.3252484614495188,,,,,,,,,,,,,,,,,,72,001,21,m,Psychologie,2023-01-25_13h33.12.437,00_bat_bachelor,2022.2.4,59.942135873471976,
,,,,,,,,,,,,0,0,0,0,19,0,19,0,,,,,,,19,,,1,363.95777214178815,X,d,go,d,1,0.6180880770552903,,,,,,,,,,,,,,,,,,72,001,21,m,Psychologie,2023-01-25_13h33.12.437,00_bat_bachelor,2022.2.4,59.942135873471976,
,,,,,,,,,,,,0,0,0,0,20,0,20,0,,,,,,,20,,,1,365.70868038362823,X,None,nogo,None,1,,366.50942811672576,,,,,,,,,,,,,,,,,72,001,21,m,Psychologie,2023-01-25_13h33.12.437,00_bat_bachelor,2022.2.4,59.942135873471976,
,,,,,,,,,,,,0,0,0,0,21,0,21,0,,,,,,,21,,,1,367.5101587830577,Y,l,go,l,1,0.29789720196276903,,,,,,,,,,,,,,,,,,72,001,21,m,Psychologie,2023-01-25_13h33.12.437,00_bat_bachelor,2022.2.4,59.942135873471976,
,,,,,,,,,,,,0,0,0,0,22,0,22,0,,,,,,,22,,,1,368.9281803984195,X,d,go,d,1,0.24032680573873222,,,,,,,,,,,,,,,,,,72,001,21,m,Psychologie,2023-01-25_13h33.12.437,00_bat_bachelor,2022.2.4,59.942135873471976,
,,,,,,,,,,,,0,0,0,0,23,0,23,0,,,,,,,23,,,1,370.27893804665655,X,None,nogo,None,1,,371.0796300219372,,,,,,,,,,,,,,,,,72,001,21,m,Psychologie,2023-01-25_13h33.12.437,00_bat_bachelor,2022.2.4,59.942135873471976,
,,,,,,,,,,,,0,0,0,0,24,0,24,0,,,,,,,24,,,1,372.0801492945757,Y,l,go,l,1,0.3196547671686858,,,,,,,,,,,,,,,,,,72,001,21,m,Psychologie,2023-01-25_13h33.12.437,00_bat_bachelor,2022.2.4,59.942135873471976,
,,,,,,,,,,,,0,0,0,0,25,0,25,0,,,,,,,25,,,1,373.5314717423171,X,d,go,d,1,0.5650645876303315,,,,,,,,,,,,,,,,,,72,001,21,m,Psychologie,2023-01-25_13h33.12.437,00_bat_bachelor,2022.2.4,59.942135873471976,
,,,,,,,,,,,,0,0,0,0,26,0,26,0,,,,,,,26,,,1,375.1992367519997,Y,l,go,None,0,,376.0000358787365,,,,,,,,,,,,,,,,,72,001,21,m,Psychologie,2023-01-25_13h33.12.437,00_bat_bachelor,2022.2.4,59.942135873471976,
,,,,,,,,,,,,0,0,0,0,27,0,27,0,,,,,,,27,,,1,377.00080096931197,Y,None,nogo,None,1,,377.80135864182375,,,,,,,,,,,,,,,,,72,001,21,m,Psychologie,2023-01-25_13h33.12.437,00_bat_bachelor,2022.2.4,59.942135873471976,
,,,,,,,,,,,,0,0,0,0,28,0,28,0,,,,,,,28,,,1,378.8017043385189,X,d,go,d,1,0.494970076251775,,,,,,,,,,,,,,,,,,72,001,21,m,Psychologie,2023-01-25_13h33.12.437,00_bat_bachelor,2022.2.4,59.942135873471976,
,,,,,,,,,,,,0,0,0,0,29,0,29,0,,,,,,,29,,,1,380.4030383499339,Y,l,go,l,1,0.5898912423290312,,,,,,,,,,,,,,,,,,72,001,21,m,Psychologie,2023-01-25_13h33.12.437,00_bat_bachelor,2022.2.4,59.942135873471976,
,,,,,,,,,,,,0,0,0,0,30,0,30,0,,,,,,,30,,,1,382.1043485554401,X,d,go,d,1,0.5364949046634138,,,,,,,,,,,,,,,,,,72,001,21,m,Psychologie,2023-01-25_13h33.12.437,00_bat_bachelor,2022.2.4,59.942135873471976,
,,,,,,,,,,,,0,0,0,0,31,0,31,0,,,,,,,31,,,1,383.7556641185656,Y,l,go,l,1,0.4532867025118321,,,,,,,,,,,,,,,,,,72,001,21,m,Psychologie,2023-01-25_13h33.12.437,00_bat_bachelor,2022.2.4,59.942135873471976,
,,,,,,,,,,,,0,0,0,0,32,0,32,0,,,,,,,32,,,1,385.32352420687675,X,d,go,d,1,0.24645528756082058,,,,,,,,,,,,,,,,,,72,001,21,m,Psychologie,2023-01-25_13h33.12.437,00_bat_bachelor,2022.2.4,59.942135873471976,
,,,,,,,,,,,,0,0,0,0,33,0,33,0,,,,,,,33,,,1,386.6743550670799,Y,l,go,l,1,0.3510743882507086,,,,,,,,,,,,,,,,,,72,001,21,m,Psychologie,2023-01-25_13h33.12.437,00_bat_bachelor,2022.2.4,59.942135873471976,
,,,,,,,,,,,,0,0,0,0,34,0,34,0,,,,,,,34,,,1,388.1422234461643,X,d,go,d,1,0.3548169319983572,,,,,,,,,,,,,,,,,,72,001,21,m,Psychologie,2023-01-25_13h33.12.437,00_bat_bachelor,2022.2.4,59.942135873471976,
,,,,,,,,,,,,0,0,0,0,35,0,35,0,,,,,,,35,,,1,389.6100995829329,X,None,nogo,None,1,,390.4105350736063,,,,,,,,,,,,,,,,,72,001,21,m,Psychologie,2023-01-25_13h33.12.437,00_bat_bachelor,2022.2.4,59.942135873471976,
,,,,,,,,,,,,0,0,0,0,36,0,36,0,,,,,,,36,,,1,391.4115265882574,Y,l,go,l,1,0.39891048637218773,,,,,,,,,,,,,,,,,,72,001,21,m,Psychologie,2023-01-25_13h33.12.437,00_bat_bachelor,2022.2.4,59.942135873471976,
,,,,,,,,,,,,0,0,0,0,37,0,37,0,,,,,,,37,,,1,392.9124199212529,X,d,go,d,1,0.49770849919877946,,,,,,,,,,,,,,,,,,72,001,21,m,Psychologie,2023-01-25_13h33.12.437,00_bat_bachelor,2022.2.4,59.942135873471976,
,,,,,,,,,,,,0,0,0,0,38,0,38,0,,,,,,,38,,,1,394.5133956298232,X,None,nogo,d,0,0.5426539320033044,,,,,,,,,,,,,,,,,,72,001,21,m,Psychologie,2023-01-25_13h33.12.437,00_bat_bachelor,2022.2.4,59.942135873471976,
,,,,,,,,,,,,0,0,0,0,39,0,39,0,,,,,,,39,,,1,396.16485470789485,Y,l,go,l,1,0.5712483422830701,,,,,,,,,,,,,,,,,,72,001,21,m,Psychologie,2023-01-25_13h33.12.437,00_bat_bachelor,2022.2.4,59.942135873471976,
,,,,,,,,,,,,0,0,0,0,40,0,40,0,,,,,,,40,,,1,397.8494521942921,X,d,go,d,1,0.2636581885162741,,,,,,,,,,,,,,,,,,72,001,21,m,Psychologie,2023-01-25_13h33.12.437,00_bat_bachelor,2022.2.4,59.942135873471976,
,,,,,,,,,,,,0,0,0,0,41,0,41,0,,,,,,,41,,,1,399.2170864401851,Y,l,go,l,1,0.3676881983410567,,,,,,,,,,,,,,,,,,72,001,21,m,Psychologie,2023-01-25_13h33.12.437,00_bat_bachelor,2022.2.4,59.942135873471976,
,,,,,,,,,,,,0,0,0,0,42,0,42,0,,,,,,,42,,,1,400.70165735669434,Y,None,nogo,None,1,,,,,,,,,,,,,,,,,,,72,001,21,m,Psychologie,2023-01-25_13h33.12.437,00_bat_bachelor,2022.2.4,59.942135873471976,
,,,,,,,,,,,,0,0,0,0,43,0,43,0,,,,,,,43,,,1,402.5030935741961,X,d,go,d,1,0.3941080644726753,,,,,,,,,,,,,,,,,,72,001,21,m,Psychologie,2023-01-25_13h33.12.437,00_bat_bachelor,2022.2.4,59.942135873471976,
,,,,,,,,,,,,0,0,0,0,44,0,44,0,,,,,,,44,,,1,404.0039495737292,Y,l,go,l,1,0.46186463767662644,,,,,,,,,,,,,,,,,,72,001,21,m,Psychologie,2023-01-25_13h33.12.437,00_bat_bachelor,2022.2.4,59.942135873471976,
,,,,,,,,,,,,0,0,0,0,45,0,45,0,,,,,,,45,,,1,405.57201523776166,Y,None,nogo,None,1,,,,,,,,,,,,,,,,,,,72,001,21,m,Psychologie,2023-01-25_13h33.12.437,00_bat_bachelor,2022.2.4,59.942135873471976,
,,,,,,,,,,,,0,0,0,0,46,0,46,0,,,,,,,46,,,1,407.3733724250924,Y,None,nogo,None,1,,,,,,,,,,,,,,,,,,,72,001,21,m,Psychologie,2023-01-25_13h33.12.437,00_bat_bachelor,2022.2.4,59.942135873471976,
,,,,,,,,,,,,0,0,0,0,47,0,47,0,,,,,,,47,,,1,409.17455118801445,X,d,go,d,1,0.33063027705065906,,,,,,,,,,,,,,,,,,72,001,21,m,Psychologie,2023-01-25_13h33.12.437,00_bat_bachelor,2022.2.4,59.942135873471976,
,,,,,,,,,,,,0,0,0,0,48,0,48,0,,,,,,,48,,,1,410.6090435835067,Y,l,go,l,1,0.33559221401810646,,,,,,,,,,,,,,,,,,72,001,21,m,Psychologie,2023-01-25_13h33.12.437,00_bat_bachelor,2022.2.4,59.942135873471976,
,,,,,,,,,,,,0,0,0,0,49,0,49,0,,,,,,,49,,,1,412.060237061698,X,d,go,d,1,0.3405541512183845,,,,,,,,,,,,,,,,,,72,001,21,m,Psychologie,2023-01-25_13h33.12.437,00_bat_bachelor,2022.2.4,59.942135873471976,
,,,,,,,,,,,,0,0,0,0,50,0,50,0,,,,,,,50,,,1,413.5114620551467,Y,l,go,l,1,0.32947973208501935,,,,,,,,,,,,,,,,,,72,001,21,m,Psychologie,2023-01-25_13h33.12.437,00_bat_bachelor,2022.2.4,59.942135873471976,
,,,,,,,,,,,,0,0,0,0,51,0,51,0,,,,,,,51,,,1,414.9457648748066,X,d,go,d,1,0.3030816842801869,,,,,,,,,,,,,,,,,,72,001,21,m,Psychologie,2023-01-25_13h33.12.437,00_bat_bachelor,2022.2.4,59.942135873471976,
,,,,,,,,,,,,0,0,0,0,52,0,52,0,,,,,,,52,,,1,416.3636119449511,Y,l,go,l,1,0.1978667052462697,,,,,,,,,,,,,,,,,,72,001,21,m,Psychologie,2023-01-25_13h33.12.437,00_bat_bachelor,2022.2.4,59.942135873471976,
,,,,,,,,,,,,0,0,0,0,53,0,53,0,,,,,,,53,,,1,417.6646280414425,X,d,go,d,1,0.5296663017943501,,,,,,,,,,,,,,,,,,72,001,21,m,Psychologie,2023-01-25_13h33.12.437,00_bat_bachelor,2022.2.4,59.942135873471976,
,,,,,,,,,,,,0,0,0,0,54,0,54,0,,,,,,,54,,,1,419.29919209727086,X,None,nogo,None,1,,,,,,,,,,,,,,,,,,,72,001,21,m,Psychologie,2023-01-25_13h33.12.437,00_bat_bachelor,2022.2.4,59.942135873471976,
,,,,,,,,,,,,0,0,0,0,55,0,55,0,,,,,,,55,,,1,421.1006191028282,Y,l,go,l,1,0.4522922788746655,,,,,,,,,,,,,,,,,,72,001,21,m,Psychologie,2023-01-25_13h33.12.437,00_bat_bachelor,2022.2.4,59.942135873471976,
,,,,,,,,,,,,0,0,0,0,56,0,56,0,,,,,,,56,,,1,422.66838319110684,X,d,go,d,1,0.4998234072700143,,,,,,,,,,,,,,,,,,72,001,21,m,Psychologie,2023-01-25_13h33.12.437,00_bat_bachelor,2022.2.4,59.942135873471976,
,,,,,,,,,,,,0,0,0,0,57,0,57,0,,,,,,,57,,,1,424.2695014451165,Y,l,go,l,1,0.4509196733124554,,,,,,,,,,,,,,,,,,72,001,21,m,Psychologie,2023-01-25_13h33.12.437,00_bat_bachelor,2022.2.4,59.942135873471976,
,,,,,,,,,,,,0,0,0,0,58,0,58,0,,,,,,,58,,,1,425.8375351091381,Y,None,nogo,None,1,,,,,,,,,,,,,,,,,,,72,001,21,m,Psychologie,2023-01-25_13h33.12.437,00_bat_bachelor,2022.2.4,59.942135873471976,
,,,,,,,,,,,,0,0,0,0,59,0,59,0,,,,,,,59,,,1,427.63891653879546,X,d,go,d,1,0.42686004866845906,,,,,,,,,,,,,,,,,,72,001,21,m,Psychologie,2023-01-25_13h33.12.437,00_bat_bachelor,2022.2.4,59.942135873471976,
,,,,,,,,,,,,0,0,0,0,60,0,60,0,,,,,,,60,,,1,429.1734079159796,Y,l,go,l,1,0.5559353800490499,,,,,,,,,,,,,,,,,,72,001,21,m,Psychologie,2023-01-25_13h33.12.437,00_bat_bachelor,2022.2.4,59.942135873471976,
,,,,,,,,,,,,0,0,0,0,61,0,61,0,,,,,,,61,,,1,430.8411370466929,Y,None,nogo,d,0,0.3287277326453477,,,,,,,,,,,,,,,,,,72,001,21,m,Psychologie,2023-01-25_13h33.12.437,00_bat_bachelor,2022.2.4,59.942135873471976,
,,,,,,,,,,,,0,0,0,0,62,0,62,0,,,,,,,62,,,1,432.2755261694547,X,d,go,None,0,,,,,,,,,,,,,,,,,,,72,001,21,m,Psychologie,2023-01-25_13h33.12.437,00_bat_bachelor,2022.2.4,59.942135873471976,
,,,,,,,,,,,,0,0,0,0,63,0,63,0,,,,,,,63,,,1,434.07709135650657,Y,l,go,None,0,,,,,,,,,,,,,,,,,,,72,001,21,m,Psychologie,2023-01-25_13h33.12.437,00_bat_bachelor,2022.2.4,59.942135873471976,
,,,,,,,,,,,,0,0,0,0,64,0,64,0,,,,,,,64,,,1,435.8784558165353,X,d,go,None,0,,,,,,,,,,,,,,,,,,,72,001,21,m,Psychologie,2023-01-25_13h33.12.437,00_bat_bachelor,2022.2.4,59.942135873471976,
,,,,,,,,,,,,0,0,0,0,65,0,65,0,,,,,,,65,,,1,437.67987845814787,Y,l,go,None,0,,,,,,,,,,,,,,,,,,,72,001,21,m,Psychologie,2023-01-25_13h33.12.437,00_bat_bachelor,2022.2.4,59.942135873471976,
,,,,,,,,,,,,0,0,0,0,66,0,66,0,,,,,,,66,,,1,439.4813563725911,Y,None,nogo,None,1,,440.2818796208594,,,,,,,,,,,,,,,,,72,001,21,m,Psychologie,2023-01-25_13h33.12.437,00_bat_bachelor,2022.2.4,59.942135873471976,
,,,,,,,,,,,,0,0,0,0,67,0,67,0,,,,,,,67,,,1,441.2826548933517,X,d,go,d,1,0.4313075616955757,,,,,,,,,,,,,,,,,,72,001,21,m,Psychologie,2023-01-25_13h33.12.437,00_bat_bachelor,2022.2.4,59.942135873471976,
,,,,,,,,,,,,0,0,0,0,68,0,68,0,,,,,,,68,,,1,442.81689802813344,Y,l,go,l,1,0.4001749705057591,,,,,,,,,,,,,,,,,,72,001,21,m,Psychologie,2023-01-25_13h33.12.437,00_bat_bachelor,2022.2.4,59.942135873471976,
,,,,,,,,,,,,0,0,0,0,69,0,69,0,,,,,,,69,,,1,444.31827814877033,X,d,go,d,1,0.40212793950922787,,,,,,,,,,,,,,,,,,72,001,21,m,Psychologie,2023-01-25_13h33.12.437,00_bat_bachelor,2022.2.4,59.942135873471976,
,,,,,,,,,,,,0,0,0,0,70,0,70,0,,,,,,,70,,,1,445.83605971583165,Y,l,go,l,1,0.2774734543636441,,,,,,,,,,,,,,,,,,72,001,21,m,Psychologie,2023-01-25_13h33.12.437,00_bat_bachelor,2022.2.4,59.942135873471976,
,,,,,,,,,,,,0,0,0,0,71,0,71,0,,,,,,,71,,,1,447.220198196359,X,d,go,d,1,0.5083737061358988,,,,,,,,,,,,,,,,,,72,001,21,m,Psychologie,2023-01-25_13h33.12.437,00_bat_bachelor,2022.2.4,59.942135873471976,
,,,,,,,,,,,,0,0,0,0,72,0,72,0,,,,,,,72,,,1,448.8380917147733,Y,l,go,l,1,0.3626593523658812,,,,,,,,,,,,,,,,,,72,001,21,m,Psychologie,2023-01-25_13h33.12.437,00_bat_bachelor,2022.2.4,59.942135873471976,
,,,,,,,,,,,,0,0,0,0,73,0,73,0,,,,,,,73,,,1,450.30609148787335,X,d,go,d,1,0.3345890629570931,,,,,,,,,,,,,,,,,,72,001,21,m,Psychologie,2023-01-25_13h33.12.437,00_bat_bachelor,2022.2.4,59.942135873471976,
,,,,,,,,,,,,0,0,0,0,74,0,74,0,,,,,,,74,,,1,451.75720157218166,X,None,nogo,l,0,0.308348590740934,,,,,,,,,,,,,,,,,,72,001,21,m,Psychologie,2023-01-25_13h33.12.437,00_bat_bachelor,2022.2.4,59.942135873471976,
,,,,,,,,,,,,0,0,0,0,75,0,75,0,,,,,,,75,,,1,453.1749764000997,Y,l,go,l,1,0.6656846599653363,,,,,,,,,,,,,,,,,,72,001,21,m,Psychologie,2023-01-25_13h33.12.437,00_bat_bachelor,2022.2.4,59.942135873471976,
,,,,,,,,,,,,0,0,0,0,76,0,76,0,,,,,,,76,,,1,454.9430569973774,X,d,go,d,1,0.5139484913088381,,,,,,,,,,,,,,,,,,72,001,21,m,Psychologie,2023-01-25_13h33.12.437,00_bat_bachelor,2022.2.4,59.942135873471976,
,,,,,,,,,,,,0,0,0,0,77,0,77,0,,,,,,,77,,,1,456.56074833427556,Y,l,go,None,0,,,,,,,,,,,,,,,,,,,72,001,21,m,Psychologie,2023-01-25_13h33.12.437,00_bat_bachelor,2022.2.4,59.942135873471976,
,,,,,,,,,,,,0,0,0,0,78,0,78,0,,,,,,,78,,,1,458.3626795816235,Y,None,nogo,None,1,,459.1632493752986,,,,,,,,,,,,,,,,,72,001,21,m,Psychologie,2023-01-25_13h33.12.437,00_bat_bachelor,2022.2.4,59.942135873471976,
,,,,,,,,,,,,0,0,0,0,79,0,79,0,,,,,,,79,,,1,460.16380549641326,X,d,go,d,1,0.4297201684676111,,,,,,,,,,,,,,,,,,72,001,21,m,Psychologie,2023-01-25_13h33.12.437,00_bat_bachelor,2022.2.4,59.942135873471976,
,,,,,,,,,,,,0,0,0,0,80,0,80,0,,,,,,,80,,,1,461.69832838862203,Y,l,go,l,1,0.46180888009257615,,,,,,,,,,,,,,,,,,72,001,21,m,Psychologie,2023-01-25_13h33.12.437,00_bat_bachelor,2022.2.4,59.942135873471976,
,,,,,,,,,,,,0,0,0,0,81,0,81,0,,,,,,,81,,,1,463.26577199227177,Y,None,nogo,None,1,,464.0666826344095,,,,,,,,,,,,,,,,,72,001,21,m,Psychologie,2023-01-25_13h33.12.437,00_bat_bachelor,2022.2.4,59.942135873471976,
,,,,,,,,,,,,0,0,0,0,82,0,82,0,,,,,,,82,,,1,465.0674336643424,X,d,go,d,1,0.3418336655013263,,,,,,,,,,,,,,,,,,72,001,21,m,Psychologie,2023-01-25_13h33.12.437,00_bat_bachelor,2022.2.4,59.942135873471976,
,,,,,,,,,,,,0,0,0,0,83,0,83,0,,,,,,,83,,,1,466.5182930820156,Y,l,go,l,1,0.44315046491101384,,,,,,,,,,,,,,,,,,72,001,21,m,Psychologie,2023-01-25_13h33.12.437,00_bat_bachelor,2022.2.4,59.942135873471976,
,,,,,,,,,,,,0,0,0,0,84,0,84,0,,,,,,,84,,,1,468.06968093593605,Y,None,nogo,None,1,,,,,,,,,,,,,,,,,,,72,001,21,m,Psychologie,2023-01-25_13h33.12.437,00_bat_bachelor,2022.2.4,59.942135873471976,
,,,,,,,,,,,,0,0,0,0,85,0,85,0,,,,,,,85,,,1,469.87106866855174,X,d,go,d,1,0.4016445456072688,,,,,,,,,,,,,,,,,,72,001,21,m,Psychologie,2023-01-25_13h33.12.437,00_bat_bachelor,2022.2.4,59.942135873471976,
,,,,,,,,,,,,0,0,0,0,86,0,86,0,,,,,,,86,,,1,471.3888744781725,Y,l,go,l,1,0.5489962317515165,,,,,,,,,,,,,,,,,,72,001,21,m,Psychologie,2023-01-25_13h33.12.437,00_bat_bachelor,2022.2.4,59.942135873471976,
,,,,,,,,,,,,0,0,0,0,87,0,87,0,,,,,,,87,,,1,473.0399679807015,Y,None,nogo,None,1,,,,,,,,,,,,,,,,,,,72,001,21,m,Psychologie,2023-01-25_13h33.12.437,00_bat_bachelor,2022.2.4,59.942135873471976,
,,,,,,,,,,,,0,0,0,0,88,0,88,0,,,,,,,88,,,1,474.84152153134346,X,d,go,d,1,0.31177986203692853,,,,,,,,,,,,,,,,,,72,001,21,m,Psychologie,2023-01-25_13h33.12.437,00_bat_bachelor,2022.2.4,59.942135873471976,
,,,,,,,,,,,,0,0,0,0,89,0,89,0,,,,,,,89,,,1,476.2591785409022,Y,l,go,l,1,0.4617458498105407,,,,,,,,,,,,,,,,,,72,001,21,m,Psychologie,2023-01-25_13h33.12.437,00_bat_bachelor,2022.2.4,59.942135873471976,
,,,,,,,,,,,,0,0,0,0,90,0,90,0,,,,,,,90,,,1,477.82683838694356,X,d,go,d,1,0.3339243361260742,,,,,,,,,,,,,,,,,,72,001,21,m,Psychologie,2023-01-25_13h33.12.437,00_bat_bachelor,2022.2.4,59.942135873471976,
,,,,,,,,,,,,0,0,0,0,91,0,91,0,,,,,,,91,,,1,479.2612420551013,X,None,nogo,d,0,0.451107794418931,,,,,,,,,,,,,,,,,,72,001,21,m,Psychologie,2023-01-25_13h33.12.437,00_bat_bachelor,2022.2.4,59.942135873471976,
,,,,,,,,,,,,0,0,0,0,92,0,92,0,,,,,,,92,,,1,480.82917099189945,Y,l,go,l,1,0.48376814229413867,,,,,,,,,,,,,,,,,,72,001,21,m,Psychologie,2023-01-25_13h33.12.437,00_bat_bachelor,2022.2.4,59.942135873471976,
,,,,,,,,,,,,0,0,0,0,93,0,93,0,,,,,,,93,,,1,482.4139484053012,X,d,go,d,1,0.37113256053999066,,,,,,,,,,,,,,,,,,72,001,21,m,Psychologie,2023-01-25_13h33.12.437,00_bat_bachelor,2022.2.4,59.942135873471976,
,,,,,,,,,,,,0,0,0,0,94,0,94,0,,,,,,,94,,,1,483.89834477659315,Y,l,go,l,1,0.3745158314704895,,,,,,,,,,,,,,,,,,72,001,21,m,Psychologie,2023-01-25_13h33.12.437,00_bat_bachelor,2022.2.4,59.942135873471976,
,,,,,,,,,,,,0,0,0,0,95,0,95,0,,,,,,,95,,,1,485.38293654168956,X,d,go,d,1,0.60108347912319,,,,,,,,,,,,,,,,,,72,001,21,m,Psychologie,2023-01-25_13h33.12.437,00_bat_bachelor,2022.2.4,59.942135873471976,
,,,,,,,,,,,,0,0,0,0,96,0,96,0,,,,,,,96,,,1,487.1008392239455,X,None,nogo,None,1,,487.901471078163,,,,,,,,,,,,,,,,,72,001,21,m,Psychologie,2023-01-25_13h33.12.437,00_bat_bachelor,2022.2.4,59.942135873471976,
,,,,,,,,,,,,0,0,0,0,97,0,97,0,,,,,,,97,,,1,488.9022225928493,Y,l,go,l,1,0.33113936777226627,,,,,,,,,,,,,,,,,,72,001,21,m,Psychologie,2023-01-25_13h33.12.437,00_bat_bachelor,2022.2.4,59.942135873471976,
,,,,,,,,,,,,0,0,0,0,98,0,98,0,,,,,,,98,,,1,490.3363348671701,X,d,go,d,1,0.32015125174075365,,,,,,,,,,,,,,,,,,72,001,21,m,Psychologie,2023-01-25_13h33.12.437,00_bat_bachelor,2022.2.4,59.942135873471976,
,,,,,,,,,,,,0,0,0,0,99,0,99,0,,,,,,,99,,,1,491.77110508061014,X,None,nogo,None,1,,,,,,,,,,,,,,,,,,,72,001,21,m,Psychologie,2023-01-25_13h33.12.437,00_bat_bachelor,2022.2.4,59.942135873471976,
,,,,,,,,,,,,0,0,0,0,100,0,100,0,,,,,,,100,,,1,493.57218057103455,Y,l,go,l,1,0.42904816870577633,,,,,,,,,,,,,,,,,,72,001,21,m,Psychologie,2023-01-25_13h33.12.437,00_bat_bachelor,2022.2.4,59.942135873471976,
,,,,,,,,,,,,0,0,0,0,101,0,101,0,,,,,,,101,,,1,495.1068367967382,X,d,go,d,1,0.397320669144392,,,,,,,,,,,,,,,,,,72,001,21,m,Psychologie,2023-01-25_13h33.12.437,00_bat_bachelor,2022.2.4,59.942135873471976,
,,,,,,,,,,,,0,0,0,0,102,0,102,0,,,,,,,102,,,1,496.6082096444443,X,None,nogo,None,1,,,,,,,,,,,,,,,,,,,72,001,21,m,Psychologie,2023-01-25_13h33.12.437,00_bat_bachelor,2022.2.4,59.942135873471976,
,,,,,,,,,,,,0,0,0,0,103,0,103,0,,,,,,,103,,,1,498.4094790741801,Y,l,go,l,1,0.4243756860960275,,,,,,,,,,,,,,,,,,72,001,21,m,Psychologie,2023-01-25_13h33.12.437,00_bat_bachelor,2022.2.4,59.942135873471976,
,,,,,,,,,,,,0,0,0,0,104,0,104,0,,,,,,,104,,,1,499.9437823302578,X,d,go,d,1,0.44197470787912607,,,,,,,,,,,,,,,,,,72,001,21,m,Psychologie,2023-01-25_13h33.12.437,00_bat_bachelor,2022.2.4,59.942135873471976,
,,,,,,,,,,,,0,0,0,0,105,0,105,0,,,,,,,105,,,1,501.4952201235574,X,None,nogo,None,1,,,,,,,,,,,,,,,,,,,72,001,21,m,Psychologie,2023-01-25_13h33.12.437,00_bat_bachelor,2022.2.4,59.942135873471976,
,,,,,,,,,,,,0,0,0,0,106,0,106,0,,,,,,,106,,,1,503.29623791691847,Y,l,go,l,1,0.41702344734221697,,,,,,,,,,,,,,,,,,72,001,21,m,Psychologie,2023-01-25_13h33.12.437,00_bat_bachelor,2022.2.4,59.942135873471976,
,,,,,,,,,,,,0,0,0,0,107,0,107,0,,,,,,,107,,,1,504.8148708776571,X,d,go,d,1,0.3688329253345728,,,,,,,,,,,,,,,,,,72,001,21,m,Psychologie,2023-01-25_13h33.12.437,00_bat_bachelor,2022.2.4,59.942135873471976,
,,,,,,,,,,,,0,0,0,0,108,0,108,0,,,,,,,108,,,1,506.3159964529332,Y,l,go,l,1,0.4995931042358279,,,,,,,,,,,,,,,,,,72,001,21,m,Psychologie,2023-01-25_13h33.12.437,00_bat_bachelor,2022.2.4,59.942135873471976,
,,,,,,,,,,,,0,0,0,0,109,0,109,0,,,,,,,109,,,1,507.93437239550985,Y,None,nogo,None,1,,508.7348912800662,,,,,,,,,,,,,,,,,72,001,21,m,Psychologie,2023-01-25_13h33.12.437,00_bat_bachelor,2022.2.4,59.942135873471976,
,,,,,,,,,,,,0,0,0,0,110,0,110,0,,,,,,,110,,,1,509.7355501889251,X,d,go,d,1,0.32985597429797053,,,,,,,,,,,,,,,,,,72,001,21,m,Psychologie,2023-01-25_13h33.12.437,00_bat_bachelor,2022.2.4,59.942135873471976,
,,,,,,,,,,,,0,0,0,0,111,0,111,0,,,,,,,111,,,1,511.18617639457807,Y,l,go,l,1,0.5907508782111108,,,,,,,,,,,,,,,,,,72,001,21,m,Psychologie,2023-01-25_13h33.12.437,00_bat_bachelor,2022.2.4,59.942135873471976,
,,,,,,,,,,,,0,0,0,0,112,0,112,0,,,,,,,112,,,1,512.8876257515512,Y,None,nogo,None,1,,513.6880680299364,,,,,,,,,,,,,,,,,72,001,21,m,Psychologie,2023-01-25_13h33.12.437,00_bat_bachelor,2022.2.4,59.942135873471976,
,,,,,,,,,,,,0,0,0,0,113,0,113,0,,,,,,,113,,,1,514.6888447569218,X,d,go,d,1,0.24036510870791972,,,,,,,,,,,,,,,,,,72,001,21,m,Psychologie,2023-01-25_13h33.12.437,00_bat_bachelor,2022.2.4,59.942135873471976,
,,,,,,,,,,,,0,0,0,0,114,0,114,0,,,,,,,114,,,1,516.0397876170464,Y,l,go,l,1,0.40872187563218176,,,,,,,,,,,,,,,,,,72,001,21,m,Psychologie,2023-01-25_13h33.12.437,00_bat_bachelor,2022.2.4,59.942135873471976,
,,,,,,,,,,,,0,0,0,0,115,0,115,0,,,,,,,115,,,1,517.5744210549165,X,d,go,d,1,0.3948120642453432,,,,,,,,,,,,,,,,,,72,001,21,m,Psychologie,2023-01-25_13h33.12.437,00_bat_bachelor,2022.2.4,59.942135873471976,
,,,,,,,,,,,,0,0,0,0,116,0,116,0,,,,,,,116,,,1,519.0757289330941,Y,l,go,l,1,0.36506468476727605,,,,,,,,,,,,,,,,,,72,001,21,m,Psychologie,2023-01-25_13h33.12.437,00_bat_bachelor,2022.2.4,59.942135873471976,
,,,,,,,,,,,,0,0,0,0,117,0,117,0,,,,,,,117,,,1,520.5433010698762,Y,None,nogo,None,1,,521.3440759542864,,,,,,,,,,,,,,,,,72,001,21,m,Psychologie,2023-01-25_13h33.12.437,00_bat_bachelor,2022.2.4,59.942135873471976,
,,,,,,,,,,,,0,0,0,0,118,0,118,0,,,,,,,118,,,1,522.3447925602086,X,d,go,d,1,0.2798128470312804,,,,,,,,,,,,,,,,,,72,001,21,m,Psychologie,2023-01-25_13h33.12.437,00_bat_bachelor,2022.2.4,59.942135873471976,
,,,,,,,,,,,,0,0,0,0,119,0,119,0,,,,,,,119,,,1,523.7293887373526,Y,l,go,l,1,0.2397624421864748,,,,,,,,,,,,,,,,,,72,001,21,m,Psychologie,2023-01-25_13h33.12.437,00_bat_bachelor,2022.2.4,59.942135873471976,
,,,,,,,,,,,,0,0,0,0,120,0,120,0,,,,,,,120,,,1,525.0801885672845,Y,None,nogo,None,1,,525.8808611487038,,,,,,,,,,,,,,,,,72,001,21,m,Psychologie,2023-01-25_13h33.12.437,00_bat_bachelor,2022.2.4,59.942135873471976,
,,,,,,,,,,,,0,0,0,0,121,0,121,0,,,,,,,121,,,1,526.8815956937615,X,d,go,d,1,0.3353992444463074,,,,,,,,,,,,,,,,,,72,001,21,m,Psychologie,2023-01-25_13h33.12.437,00_bat_bachelor,2022.2.4,59.942135873471976,
,,,,,,,,,,,,0,0,0,0,122,0,122,0,,,,,,,122,,,1,528.3325283236336,Y,l,go,l,1,0.4360435593407601,,,,,,,,,,,,,,,,,,72,001,21,m,Psychologie,2023-01-25_13h33.12.437,00_bat_bachelor,2022.2.4,59.942135873471976,
,,,,,,,,,,,,0,0,0,0,123,0,123,0,,,,,,,123,,,1,529.8838550865185,X,d,go,d,1,0.4214181120041758,,,,,,,,,,,,,,,,,,72,001,21,m,Psychologie,2023-01-25_13h33.12.437,00_bat_bachelor,2022.2.4,59.942135873471976,
,,,,,,,,,,,,0,0,0,0,124,0,124,0,,,,,,,124,,,1,531.4183493729215,X,None,nogo,None,1,,532.2189855908509,,,,,,,,,,,,,,,,,72,001,21,m,Psychologie,2023-01-25_13h33.12.437,00_bat_bachelor,2022.2.4,59.942135873471976,
,,,,,,,,,,,,0,0,0,0,125,0,125,0,,,,,,,125,,,1,533.2197191661689,Y,l,go,l,1,0.3817221310455352,,,,,,,,,,,,,,,,,,72,001,21,m,Psychologie,2023-01-25_13h33.12.437,00_bat_bachelor,2022.2.4,59.942135873471976,
,,,,,,,,,,,,0,0,0,0,126,0,126,0,,,,,,,126,,,1,534.7040035375394,X,d,go,d,1,0.4651645147241652,,,,,,,,,,,,,,,,,,72,001,21,m,Psychologie,2023-01-25_13h33.12.437,00_bat_bachelor,2022.2.4,59.942135873471976,
,,,,,,,,,,,,0,0,0,0,127,0,127,0,,,,,,,127,,,1,536.2718825349584,Y,l,go,l,1,0.3202681003604084,,,,,,,,,,,,,,,,,,72,001,21,m,Psychologie,2023-01-25_13h33.12.437,00_bat_bachelor,2022.2.4,59.942135873471976,
,,,,,,,,,,,,0,0,0,0,128,0,128,0,,,,,,,128,,,1,537.7067327483092,Y,None,nogo,None,1,,538.5071294510271,,,,,,,,,,,,,,,,,72,001,21,m,Psychologie,2023-01-25_13h33.12.437,00_bat_bachelor,2022.2.4,59.942135873471976,
,,,,,,,,,,,,0,0,0,0,129,0,129,0,,,,,,,129,,,1,539.5079134507105,Y,None,nogo,None,1,,540.3085166988894,,,,,,,,,,,,,,,,,72,001,21,m,Psychologie,2023-01-25_13h33.12.437,00_bat_bachelor,2022.2.4,59.942135873471976,
,,,,,,,,,,,,0,0,0,0,130,0,130,0,,,,,,,130,,,1,541.3092769409996,X,d,go,d,1,0.21158015285618603,,,,,,,,,,,,,,,,,,72,001,21,m,Psychologie,2023-01-25_13h33.12.437,00_bat_bachelor,2022.2.4,59.942135873471976,
,,,,,,,,,,,,0,0,0,0,131,0,131,0,,,,,,,131,,,1,542.6268704838585,Y,l,go,l,1,0.4780028115492314,,,,,,,,,,,,,,,,,,72,001,21,m,Psychologie,2023-01-25_13h33.12.437,00_bat_bachelor,2022.2.4,59.942135873471976,
,,,,,,,,,,,,0,0,0,0,132,0,132,0,,,,,,,132,,,1,544.2112828067038,Y,None,nogo,None,1,,545.0120702972636,,,,,,,,,,,,,,,,,72,001,21,m,Psychologie,2023-01-25_13h33.12.437,00_bat_bachelor,2022.2.4,59.942135873471976,
,,,,,,,,,,,,0,0,0,0,133,0,133,0,,,,,,,133,,,1,546.0128130847588,X,d,go,d,1,0.2597570994403213,,,,,,,,,,,,,,,,,,72,001,21,m,Psychologie,2023-01-25_13h33.12.437,00_bat_bachelor,2022.2.4,59.942135873471976,
,,,,,,,,,,,,0,0,0,0,134,0,134,0,,,,,,,134,,,1,547.3972187165637,Y,l,go,l,1,0.42750392691232264,,,,,,,,,,,,,,,,,,72,001,21,m,Psychologie,2023-01-25_13h33.12.437,00_bat_bachelor,2022.2.4,59.942135873471976,
,,,,,,,,,,,,0,0,0,0,135,0,135,0,,,,,,,135,,,1,548.931670821039,Y,None,nogo,None,1,,549.732269705506,,,,,,,,,,,,,,,,,72,001,21,m,Psychologie,2023-01-25_13h33.12.437,00_bat_bachelor,2022.2.4,59.942135873471976,
,,,,,,,,,,,,0,0,0,0,136,0,136,0,,,,,,,136,,,1,550.7326697052922,X,d,go,d,1,0.34106081747449934,,,,,,,,,,,,,,,,,,72,001,21,m,Psychologie,2023-01-25_13h33.12.437,00_bat_bachelor,2022.2.4,59.942135873471976,
,,,,,,,,,,,,0,0,0,0,137,0,137,0,,,,,,,137,,,1,552.1838025774341,Y,l,go,l,1,0.552110412158072,,,,,,,,,,,,,,,,,,72,001,21,m,Psychologie,2023-01-25_13h33.12.437,00_bat_bachelor,2022.2.4,59.942135873471976,
,,,,,,,,,,,,0,0,0,0,138,0,138,0,,,,,,,138,,,1,553.8519380111247,Y,None,nogo,None,1,,554.6524122897536,,,,,,,,,,,,,,,,,72,001,21,m,Psychologie,2023-01-25_13h33.12.437,00_bat_bachelor,2022.2.4,59.942135873471976,
,,,,,,,,,,,,0,0,0,0,139,0,139,0,,,,,,,139,,,1,555.6533170165494,X,d,go,d,1,0.36494347266852856,,,,,,,,,,,,,,,,,,72,001,21,m,Psychologie,2023-01-25_13h33.12.437,00_bat_bachelor,2022.2.4,59.942135873471976,
,,,,,,,,,,,,0,0,0,0,140,0,140,0,,,,,,,140,,,1,557.120922123082,Y,l,go,l,1,0.3355112443678081,,,,,,,,,,,,,,,,,,72,001,21,m,Psychologie,2023-01-25_13h33.12.437,00_bat_bachelor,2022.2.4,59.942135873471976,
,,,,,,,,,,,,0,0,0,0,141,0,141,0,,,,,,,141,,,1,558.5719580256846,Y,None,nogo,None,1,,,,,,,,,,,,,,,,,,,72,001,21,m,Psychologie,2023-01-25_13h33.12.437,00_bat_bachelor,2022.2.4,59.942135873471976,
,,,,,,,,,,,,0,0,0,0,142,0,142,0,,,,,,,142,,,1,560.3734897582326,X,d,go,d,1,0.34756214753724635,,,,,,,,,,,,,,,,,,72,001,21,m,Psychologie,2023-01-25_13h33.12.437,00_bat_bachelor,2022.2.4,59.942135873471976,
,,,,,,,,,,,,0,0,0,0,143,0,143,0,,,,,,,143,,,1,561.8241145096254,Y,l,go,l,1,0.5916633626911789,,,,,,,,,,,,,,,,,,72,001,21,m,Psychologie,2023-01-25_13h33.12.437,00_bat_bachelor,2022.2.4,59.942135873471976,
,,,,,,,,,,,,0,0,0,0,144,0,144,0,,,,,,,144,,,1,563.5257519874722,X,d,go,d,1,0.44251094991341233,,,,,,,,,,,,,,,,,,72,001,21,m,Psychologie,2023-01-25_13h33.12.437,00_bat_bachelor,2022.2.4,59.942135873471976,
,,,,,,,,,,,,0,0,0,0,145,0,145,0,,,,,,,145,,,1,565.0768785080872,Y,l,go,l,1,0.28416678449139,,,,,,,,,,,,,,,,,,72,001,21,m,Psychologie,2023-01-25_13h33.12.437,00_bat_bachelor,2022.2.4,59.942135873471976,
,,,,,,,,,,,,0,0,0,0,146,0,146,0,,,,,,,146,,,1,566.4779978287406,Y,None,nogo,None,1,,,,,,,,,,,,,,,,,,,72,001,21,m,Psychologie,2023-01-25_13h33.12.437,00_bat_bachelor,2022.2.4,59.942135873471976,
,,,,,,,,,,,,0,0,0,0,147,0,147,0,,,,,,,147,,,1,568.2791024101898,X,d,go,d,1,0.4573424579575658,,,,,,,,,,,,,,,,,,72,001,21,m,Psychologie,2023-01-25_13h33.12.437,00_bat_bachelor,2022.2.4,59.942135873471976,
,,,,,,,,,,,,0,0,0,0,148,0,148,0,,,,,,,148,,,1,569.8469421349,Y,l,go,l,1,0.47435190435498953,,,,,,,,,,,,,,,,,,72,001,21,m,Psychologie,2023-01-25_13h33.12.437,00_bat_bachelor,2022.2.4,59.942135873471976,
,,,,,,,,,,,,0,0,0,0,149,0,149,0,,,,,,,149,,,1,571.4314877907746,X,d,go,d,1,0.37857546587474644,,,,,,,,,,,,,,,,,,72,001,21,m,Psychologie,2023-01-25_13h33.12.437,00_bat_bachelor,2022.2.4,59.942135873471976,
,,,,,,,,,,,,0,0,0,0,150,0,150,0,,,,,,,150,,,1,572.9162284042686,Y,l,go,l,1,0.34854202601127326,,,,,,,,,,,,,,,,,,72,001,21,m,Psychologie,2023-01-25_13h33.12.437,00_bat_bachelor,2022.2.4,59.942135873471976,
,,,,,,,,,,,,0,0,0,0,151,0,151,0,,,,,,,151,,,1,574.3671886704396,X,d,go,d,1,0.46577299921773374,,,,,,,,,,,,,,,,,,72,001,21,m,Psychologie,2023-01-25_13h33.12.437,00_bat_bachelor,2022.2.4,59.942135873471976,
,,,,,,,,,,,,0,0,0,0,152,0,152,0,,,,,,,152,,,1,575.9351748193149,Y,l,go,l,1,0.3537478414364159,,,,,,,,,,,,,,,,,,72,001,21,m,Psychologie,2023-01-25_13h33.12.437,00_bat_bachelor,2022.2.4,59.942135873471976,
,,,,,,,,,,,,0,0,0,0,153,0,153,0,,,,,,,153,,,1,577.4027231987566,Y,None,nogo,d,0,0.32547779474407434,,,,,,,,,,,,,,,,,,72,001,21,m,Psychologie,2023-01-25_13h33.12.437,00_bat_bachelor,2022.2.4,59.942135873471976,
,,,,,,,,,,,,0,0,0,0,154,0,154,0,,,,,,,154,,,1,578.8374318364076,X,d,go,d,1,0.5395761150866747,,,,,,,,,,,,,,,,,,72,001,21,m,Psychologie,2023-01-25_13h33.12.437,00_bat_bachelor,2022.2.4,59.942135873471976,
,,,,,,,,,,,,0,0,0,0,155,0,155,0,,,,,,,155,,,1,580.4885393995792,Y,l,go,l,1,0.5040585566312075,,,,,,,,,,,,,,,,,,72,001,21,m,Psychologie,2023-01-25_13h33.12.437,00_bat_bachelor,2022.2.4,59.942135873471976,
,,,,,,,,,,,,0,0,0,0,156,0,156,0,,,,,,,156,,,1,582.1064144938719,Y,None,nogo,None,1,,,,,,,,,,,,,,,,,,,72,001,21,m,Psychologie,2023-01-25_13h33.12.437,00_bat_bachelor,2022.2.4,59.942135873471976,
,,,,,,,,,,,,0,0,0,0,157,0,157,0,,,,,,,157,,,1,583.908066468779,X,d,go,d,1,0.4130064796190709,,,,,,,,,,,,,,,,,,72,001,21,m,Psychologie,2023-01-25_13h33.12.437,00_bat_bachelor,2022.2.4,59.942135873471976,
,,,,,,,,,,,,0,0,0,0,158,0,158,0,,,,,,,158,,,1,585.4256923997309,Y,l,go,l,1,0.43066950142383575,,,,,,,,,,,,,,,,,,72,001,21,m,Psychologie,2023-01-25_13h33.12.437,00_bat_bachelor,2022.2.4,59.942135873471976,
,,,,,,,,,,,,0,0,0,0,159,0,159,0,,,,,,,159,,,1,586.9601212313864,X,d,go,d,1,0.41631605359725654,,,,,,,,,,,,,,,,,,72,001,21,m,Psychologie,2023-01-25_13h33.12.437,00_bat_bachelor,2022.2.4,59.942135873471976,
,,,,,,,,,,,,0,0,0,0,160,0,160,0,,,,,,,160,,,1,588.4781243742909,X,None,nogo,None,1,,,,,,,,,,,,,,,,,,,72,001,21,m,Psychologie,2023-01-25_13h33.12.437,00_bat_bachelor,2022.2.4,59.942135873471976,
,,,,,,,,,,,,0,0,0,0,161,0,161,0,,,,,,,161,,,1,590.2795213190839,Y,l,go,l,1,0.2988067774567753,,,,,,,,,,,,,,,,,,72,001,21,m,Psychologie,2023-01-25_13h33.12.437,00_bat_bachelor,2022.2.4,59.942135873471976,
,,,,,,,,,,,,0,0,0,0,162,0,162,0,,,,,,,162,,,1,591.6805417307187,X,d,go,d,1,0.43209398561157286,,,,,,,,,,,,,,,,,,72,001,21,m,Psychologie,2023-01-25_13h33.12.437,00_bat_bachelor,2022.2.4,59.942135873471976,
,,,,,,,,,,,,0,0,0,0,163,0,163,0,,,,,,,163,,,1,593.2150563804898,Y,l,go,l,1,0.3696843187790364,,,,,,,,,,,,,,,,,,72,001,21,m,Psychologie,2023-01-25_13h33.12.437,00_bat_bachelor,2022.2.4,59.942135873471976,
,,,,,,,,,,,,0,0,0,0,164,0,164,0,,,,,,,164,,,1,594.6994799033273,X,d,go,d,1,0.40543993772007525,,,,,,,,,,,,,,,,,,72,001,21,m,Psychologie,2023-01-25_13h33.12.437,00_bat_bachelor,2022.2.4,59.942135873471976,
,,,,,,,,,,,,0,0,0,0,165,0,165,0,,,,,,,165,,,1,596.2171858341899,X,None,nogo,None,1,,,,,,,,,,,,,,,,,,,72,001,21,m,Psychologie,2023-01-25_13h33.12.437,00_bat_bachelor,2022.2.4,59.942135873471976,
,,,,,,,,,,,,0,0,0,0,166,0,166,0,,,,,,,166,,,1,598.0187190212309,Y,l,go,None,0,,,,,,,,,,,,,,,,,,,72,001,21,m,Psychologie,2023-01-25_13h33.12.437,00_bat_bachelor,2022.2.4,59.942135873471976,
,,,,,,,,,,,,0,0,0,0,167,0,167,0,,,,,,,167,,,1,599.8198017843533,X,d,go,d,1,0.48469905089586973,,,,,,,,,,,,,,,,,,72,001,21,m,Psychologie,2023-01-25_13h33.12.437,00_bat_bachelor,2022.2.4,59.942135873471976,
,,,,,,,,,,,,0,0,0,0,168,0,168,0,,,,,,,168,,,1,601.4213147049304,Y,l,go,l,1,0.2759553943760693,,,,,,,,,,,,,,,,,,72,001,21,m,Psychologie,2023-01-25_13h33.12.437,00_bat_bachelor,2022.2.4,59.942135873471976,
,,,,,,,,,,,,0,0,0,0,169,0,169,0,,,,,,,169,,,1,602.8056689426303,X,d,go,d,1,0.5713530695065856,,,,,,,,,,,,,,,,,,72,001,21,m,Psychologie,2023-01-25_13h33.12.437,00_bat_bachelor,2022.2.4,59.942135873471976,
,,,,,,,,,,,,0,0,0,0,170,0,170,0,,,,,,,170,,,1,604.4902649743017,Y,l,go,None,0,,,,,,,,,,,,,,,,,,,72,001,21,m,Psychologie,2023-01-25_13h33.12.437,00_bat_bachelor,2022.2.4,59.942135873471976,
,,,,,,,,,,,,0,0,0,0,171,0,171,0,,,,,,,171,,,1,606.2914001010358,X,d,go,None,0,,607.0923005612567,,,,,,,,,,,,,,,,,72,001,21,m,Psychologie,2023-01-25_13h33.12.437,00_bat_bachelor,2022.2.4,59.942135873471976,
,,,,,,,,,,,,0,0,0,0,172,0,172,0,,,,,,,172,,,1,608.0929764397442,Y,l,go,l,1,0.32342543196864426,,,,,,,,,,,,,,,,,,72,001,21,m,Psychologie,2023-01-25_13h33.12.437,00_bat_bachelor,2022.2.4,59.942135873471976,
,,,,,,,,,,,,0,0,0,0,173,0,173,0,,,,,,,173,,,1,609.5273524716031,X,d,go,d,1,0.47375748050399125,,,,,,,,,,,,,,,,,,72,001,21,m,Psychologie,2023-01-25_13h33.12.437,00_bat_bachelor,2022.2.4,59.942135873471976,
,,,,,,,,,,,,0,0,0,0,174,0,174,0,,,,,,,174,,,1,611.1119917032775,Y,l,go,l,1,0.3935296405106783,,,,,,,,,,,,,,,,,,72,001,21,m,Psychologie,2023-01-25_13h33.12.437,00_bat_bachelor,2022.2.4,59.942135873471976,
,,,,,,,,,,,,0,0,0,0,175,0,175,0,,,,,,,175,,,1,612.6128782483283,X,d,go,d,1,0.39595824549905956,,,,,,,,,,,,,,,,,,72,001,21,m,Psychologie,2023-01-25_13h33.12.437,00_bat_bachelor,2022.2.4,59.942135873471976,
,,,,,,,,,,,,0,0,0,0,176,0,176,0,,,,,,,176,,,1,614.1140343688894,Y,l,go,l,1,0.3189502826426178,,,,,,,,,,,,,,,,,,72,001,21,m,Psychologie,2023-01-25_13h33.12.437,00_bat_bachelor,2022.2.4,59.942135873471976,
,,,,,,,,,,,,0,0,0,0,177,0,177,0,,,,,,,177,,,1,615.5486125824973,Y,None,nogo,None,1,,,,,,,,,,,,,,,,,,,72,001,21,m,Psychologie,2023-01-25_13h33.12.437,00_bat_bachelor,2022.2.4,59.942135873471976,
,,,,,,,,,,,,0,0,0,0,178,0,178,0,,,,,,,178,,,1,617.3501913454384,Y,None,nogo,None,1,,,,,,,,,,,,,,,,,,,72,001,21,m,Psychologie,2023-01-25_13h33.12.437,00_bat_bachelor,2022.2.4,59.942135873471976,
,,,,,,,,,,,,0,0,0,0,179,0,179,0,,,,,,,179,,,1,619.1514612599276,X,d,go,d,1,0.32177064497955143,,,,,,,,,,,,,,,,,,72,001,21,m,Psychologie,2023-01-25_13h33.12.437,00_bat_bachelor,2022.2.4,59.942135873471976,
,,,,,,,,,,,,0,0,0,0,180,0,180,0,,,,,,,180,,,1,620.5859158372041,Y,l,go,l,1,0.4234287776052952,,,,,,,,,,,,,,,,,,72,001,21,m,Psychologie,2023-01-25_13h33.12.437,00_bat_bachelor,2022.2.4,59.942135873471976,
,,,,,,,,,,,,0,0,0,0,181,0,181,0,,,,,,,181,,,1,622.1201308509335,X,d,go,d,1,0.3277570663485676,,,,,,,,,,,,,,,,,,72,001,21,m,Psychologie,2023-01-25_13h33.12.437,00_bat_bachelor,2022.2.4,59.942135873471976,
,,,,,,,,,,,,0,0,0,0,182,0,182,0,,,,,,,182,,,1,623.5548157310113,Y,l,go,l,1,0.31739731365814805,,,,,,,,,,,,,,,,,,72,001,21,m,Psychologie,2023-01-25_13h33.12.437,00_bat_bachelor,2022.2.4,59.942135873471976,
,,,,,,,,,,,,0,0,0,0,183,0,183,0,,,,,,,183,,,1,624.9730749221053,X,d,go,d,1,0.4990447408054024,,,,,,,,,,,,,,,,,,72,001,21,m,Psychologie,2023-01-25_13h33.12.437,00_bat_bachelor,2022.2.4,59.942135873471976,
,,,,,,,,,,,,0,0,0,0,184,0,184,0,,,,,,,184,,,1,626.5743197214324,Y,l,go,l,1,0.4184590829536319,,,,,,,,,,,,,,,,,,72,001,21,m,Psychologie,2023-01-25_13h33.12.437,00_bat_bachelor,2022.2.4,59.942135873471976,
,,,,,,,,,,,,0,0,0,0,185,0,185,0,,,,,,,185,,,1,628.125742969336,X,d,go,d,1,0.4518903396092355,,,,,,,,,,,,,,,,,,72,001,21,m,Psychologie,2023-01-25_13h33.12.437,00_bat_bachelor,2022.2.4,59.942135873471976,
,,,,,,,,,,,,0,0,0,0,186,0,186,0,,,,,,,186,,,1,629.6932728760876,X,None,nogo,None,1,,630.4939978211187,,,,,,,,,,,,,,,,,72,001,21,m,Psychologie,2023-01-25_13h33.12.437,00_bat_bachelor,2022.2.4,59.942135873471976,
,,,,,,,,,,,,0,0,0,0,187,0,187,0,,,,,,,187,,,1,631.4949161235709,Y,l,go,l,1,0.47283529909327626,,,,,,,,,,,,,,,,,,72,001,21,m,Psychologie,2023-01-25_13h33.12.437,00_bat_bachelor,2022.2.4,59.942135873471976,
,,,,,,,,,,,,0,0,0,0,188,0,188,0,,,,,,,188,,,1,633.0962937714066,X,d,go,d,1,0.48822195804677904,,,,,,,,,,,,,,,,,,72,001,21,m,Psychologie,2023-01-25_13h33.12.437,00_bat_bachelor,2022.2.4,59.942135873471976,
,,,,,,,,,,,,0,0,0,0,189,0,189,0,,,,,,,189,,,1,634.714054441778,Y,l,go,l,1,0.5658335569314659,,,,,,,,,,,,,,,,,,72,001,21,m,Psychologie,2023-01-25_13h33.12.437,00_bat_bachelor,2022.2.4,59.942135873471976,
,,,,,,,,,,,,0,0,0,0,190,0,190,0,,,,,,,190,,,1,636.3986606551334,Y,None,nogo,None,1,,637.1991368732415,,,,,,,,,,,,,,,,,72,001,21,m,Psychologie,2023-01-25_13h33.12.437,00_bat_bachelor,2022.2.4,59.942135873471976,
,,,,,,,,,,,,0,0,0,0,191,0,191,0,,,,,,,191,,,1,638.2000323878601,X,d,go,d,1,0.40804260317236185,,,,,,,,,,,,,,,,,,72,001,21,m,Psychologie,2023-01-25_13h33.12.437,00_bat_bachelor,2022.2.4,59.942135873471976,
,,,,,,,,,,,,0,0,0,0,192,0,192,0,,,,,,,192,,,1,639.7512558782473,Y,l,go,l,1,0.441445738542825,,,,,,,,,,,,,,,,,,72,001,21,m,Psychologie,2023-01-25_13h33.12.437,00_bat_bachelor,2022.2.4,59.942135873471976,
,,,,,,,,,,,,0,0,0,0,193,0,193,0,,,,,,,193,,,1,641.3189021483995,Y,None,nogo,None,1,,642.1197546084877,,,,,,,,,,,,,,,,,72,001,21,m,Psychologie,2023-01-25_13h33.12.437,00_bat_bachelor,2022.2.4,59.942135873471976,
,,,,,,,,,,,,0,0,0,0,194,0,194,0,,,,,,,194,,,1,643.1202224872541,Y,None,nogo,None,1,,643.9208412505686,,,,,,,,,,,,,,,,,72,001,21,m,Psychologie,2023-01-25_13h33.12.437,00_bat_bachelor,2022.2.4,59.942135873471976,
,,,,,,,,,,,,0,0,0,0,195,0,195,0,,,,,,,195,,,1,644.9218191893306,X,d,go,d,1,0.4710694816894829,,,,,,,,,,,,,,,,,,72,001,21,m,Psychologie,2023-01-25_13h33.12.437,00_bat_bachelor,2022.2.4,59.942135873471976,
,,,,,,,,,,,,0,0,0,0,196,0,196,0,,,,,,,196,,,1,646.5063284817152,Y,l,go,l,1,0.5186830344609916,,,,,,,,,,,,,,,,,,72,001,21,m,Psychologie,2023-01-25_13h33.12.437,00_bat_bachelor,2022.2.4,59.942135873471976,
,,,,,,,,,,,,0,0,0,0,197,0,197,0,,,,,,,197,,,1,648.1576275599655,Y,None,nogo,None,1,,648.9580620808993,,,,,,,,,,,,,,,,,72,001,21,m,Psychologie,2023-01-25_13h33.12.437,00_bat_bachelor,2022.2.4,59.942135873471976,
,,,,,,,,,,,,0,0,0,0,198,0,198,0,,,,,,,198,,,1,649.9590051108971,X,d,go,d,1,0.408839208772406,,,,,,,,,,,,,,,,,,72,001,21,m,Psychologie,2023-01-25_13h33.12.437,00_bat_bachelor,2022.2.4,59.942135873471976,
,,,,,,,,,,,,0,0,0,0,199,0,199,0,,,,,,,199,,,1,651.4935575788841,Y,l,go,None,0,,652.2941210696008,,,,,,,,,,,,,,,,,72,001,21,m,Psychologie,2023-01-25_13h33.12.437,00_bat_bachelor,2022.2.4,59.942135873471976,
,,,,,,,,,,,,0,0,0,0,200,0,200,0,,,,,,,200,,,1,653.2948934328742,X,d,go,d,1,0.40170224267058074,,,,,,,,,,,,,,,,,,72,001,21,m,Psychologie,2023-01-25_13h33.12.437,00_bat_bachelor,2022.2.4,59.942135873471976,
,,,,,,,,,,,,0,0,0,0,201,0,201,0,,,,,,,201,,,1,654.829423597781,Y,l,go,l,1,0.30692410678602755,,,,,,,,,,,,,,,,,,72,001,21,m,Psychologie,2023-01-25_13h33.12.437,00_bat_bachelor,2022.2.4,59.942135873471976,
,,,,,,,,,,,,0,0,0,0,202,0,202,0,,,,,,,202,,,1,656.246933213668,Y,None,nogo,d,0,0.2331112939864397,,,,,,,,,,,,,,,,,,72,001,21,m,Psychologie,2023-01-25_13h33.12.437,00_bat_bachelor,2022.2.4,59.942135873471976,
,,,,,,,,,,,,0,0,0,0,203,0,203,0,,,,,,,203,,,1,657.5981795887928,X,d,go,d,1,0.46662778686732054,,,,,,,,,,,,,,,,,,72,001,21,m,Psychologie,2023-01-25_13h33.12.437,00_bat_bachelor,2022.2.4,59.942135873471976,
,,,,,,,,,,,,0,0,0,0,204,0,204,0,,,,,,,204,,,1,659.165811313549,Y,l,go,l,1,0.32244894769974053,,,,,,,,,,,,,,,,,,72,001,21,m,Psychologie,2023-01-25_13h33.12.437,00_bat_bachelor,2022.2.4,59.942135873471976,
,,,,,,,,,,,,0,0,0,0,205,0,205,0,,,,,,,205,,,1,660.6004666178487,X,d,go,d,1,0.4403587088454515,,,,,,,,,,,,,,,,,,72,001,21,m,Psychologie,2023-01-25_13h33.12.437,00_bat_bachelor,2022.2.4,59.942135873471976,
,,,,,,,,,,,,0,0,0,0,206,0,206,0,,,,,,,206,,,1,662.1515698658768,X,None,nogo,None,1,,662.9523103260435,,,,,,,,,,,,,,,,,72,001,21,m,Psychologie,2023-01-25_13h33.12.437,00_bat_bachelor,2022.2.4,59.942135873471976,
,,,,,,,,,,,,0,0,0,0,207,0,207,0,,,,,,,207,,,1,663.9527849925216,Y,l,go,l,1,0.3515645698644221,,,,,,,,,,,,,,,,,,72,001,21,m,Psychologie,2023-01-25_13h33.12.437,00_bat_bachelor,2022.2.4,59.942135873471976,
,,,,,,,,,,,,0,0,0,0,208,0,208,0,,,,,,,208,,,1,665.4205544628203,X,d,go,d,1,0.46704427152872086,,,,,,,,,,,,,,,,,,72,001,21,m,Psychologie,2023-01-25_13h33.12.437,00_bat_bachelor,2022.2.4,59.942135873471976,
,,,,,,,,,,,,0,0,0,0,209,0,209,0,,,,,,,209,,,1,667.0053798761219,Y,l,go,l,1,0.4670554231852293,,,,,,,,,,,,,,,,,,72,001,21,m,Psychologie,2023-01-25_13h33.12.437,00_bat_bachelor,2022.2.4,59.942135873471976,
,,,,,,,,,,,,0,0,0,0,210,0,210,0,,,,,,,210,,,1,668.5899391078856,Y,None,nogo,d,0,0.2587253423407674,,,,,,,,,,,,,,,,,,72,001,21,m,Psychologie,2023-01-25_13h33.12.437,00_bat_bachelor,2022.2.4,59.942135873471976,
,,,,,,,,,,,,0,0,0,0,211,0,211,0,,,,,,,211,,,1,669.974073224701,X,d,go,d,1,0.5864129408728331,,,,,,,,,,,,,,,,,,72,001,21,m,Psychologie,2023-01-25_13h33.12.437,00_bat_bachelor,2022.2.4,59.942135873471976,
,,,,,,,,,,,,0,0,0,0,212,0,212,0,,,,,,,212,,,1,671.6755376118235,Y,l,go,l,1,0.43693228624761105,,,,,,,,,,,,,,,,,,72,001,21,m,Psychologie,2023-01-25_13h33.12.437,00_bat_bachelor,2022.2.4,59.942135873471976,
,,,,,,,,,,,,0,0,0,0,213,0,213,0,,,,,,,213,,,1,673.2267261932138,Y,None,nogo,None,1,,674.0270729565527,,,,,,,,,,,,,,,,,72,001,21,m,Psychologie,2023-01-25_13h33.12.437,00_bat_bachelor,2022.2.4,59.942135873471976,
,,,,,,,,,,,,0,0,0,0,214,0,214,0,,,,,,,214,,,1,675.0278957439587,X,d,go,d,1,0.4598219720646739,,,,,,,,,,,,,,,,,,72,001,21,m,Psychologie,2023-01-25_13h33.12.437,00_bat_bachelor,2022.2.4,59.942135873471976,
,,,,,,,,,,,,0,0,0,0,215,0,215,0,,,,,,,215,,,1,676.6127337634098,Y,l,go,l,1,0.4438418585341424,,,,,,,,,,,,,,,,,,72,001,21,m,Psychologie,2023-01-25_13h33.12.437,00_bat_bachelor,2022.2.4,59.942135873471976,
,,,,,,,,,,,,0,0,0,0,216,0,216,0,,,,,,,216,,,1,678.1969802682288,Y,None,nogo,None,1,,678.9976576981135,,,,,,,,,,,,,,,,,72,001,21,m,Psychologie,2023-01-25_13h33.12.437,00_bat_bachelor,2022.2.4,59.942135873471976,
,,,,,,,,,,,,0,0,0,0,217,0,217,0,,,,,,,217,,,1,679.9983680008445,X,d,go,d,1,0.3859020078089088,,,,,,,,,,,,,,,,,,72,001,21,m,Psychologie,2023-01-25_13h33.12.437,00_bat_bachelor,2022.2.4,59.942135873471976,
,,,,,,,,,,,,0,0,0,0,218,0,218,0,,,,,,,218,,,1,681.4996899394318,Y,l,go,l,1,0.22923396271653473,,,,,,,,,,,,,,,,,,72,001,21,m,Psychologie,2023-01-25_13h33.12.437,00_bat_bachelor,2022.2.4,59.942135873471976,
,,,,,,,,,,,,0,0,0,0,219,0,219,0,,,,,,,219,,,1,682.8507283148356,Y,None,nogo,d,0,0.23695856472477317,,,,,,,,,,,,,,,,,,72,001,21,m,Psychologie,2023-01-25_13h33.12.437,00_bat_bachelor,2022.2.4,59.942135873471976,
,,,,,,,,,,,,0,0,0,0,220,0,220,0,,,,,,,220,,,1,684.2182011064142,Y,None,nogo,None,1,,685.0188028998673,,,,,,,,,,,,,,,,,72,001,21,m,Psychologie,2023-01-25_13h33.12.437,00_bat_bachelor,2022.2.4,59.942135873471976,
,,,,,,,,,,,,0,0,0,0,221,0,221,0,,,,,,,221,,,1,686.0198637479916,X,d,go,None,0,,686.8204878445249,,,,,,,,,,,,,,,,,72,001,21,m,Psychologie,2023-01-25_13h33.12.437,00_bat_bachelor,2022.2.4,59.942135873471976,
,,,,,,,,,,,,0,0,0,0,222,0,222,0,,,,,,,222,,,1,687.8209794806316,Y,l,go,l,1,0.3869880677666515,,,,,,,,,,,,,,,,,,72,001,21,m,Psychologie,2023-01-25_13h33.12.437,00_bat_bachelor,2022.2.4,59.942135873471976,
,,,,,,,,,,,,0,0,0,0,223,0,223,0,,,,,,,223,,,1,689.3390820173081,Y,None,nogo,None,1,,690.1396799322683,,,,,,,,,,,,,,,,,72,001,21,m,Psychologie,2023-01-25_13h33.12.437,00_bat_bachelor,2022.2.4,59.942135873471976,
,,,,,,,,,,,,0,0,0,0,224,0,224,0,,,,,,,224,,,1,691.1401899927296,X,d,go,d,1,0.4118215104099363,,,,,,,,,,,,,,,,,,72,001,21,m,Psychologie,2023-01-25_13h33.12.437,00_bat_bachelor,2022.2.4,59.942135873471976,
,,,,,,,,,,,,0,0,0,0,225,0,225,0,,,,,,,225,,,1,692.6748956728261,Y,l,go,l,1,0.34926251065917313,,,,,,,,,,,,,,,,,,72,001,21,m,Psychologie,2023-01-25_13h33.12.437,00_bat_bachelor,2022.2.4,59.942135873471976,
,,,,,,,,,,,,0,0,0,0,226,0,226,0,,,,,,,226,,,1,694.1426292641554,X,d,go,d,1,0.2258584490045905,,,,,,,,,,,,,,,,,,72,001,21,m,Psychologie,2023-01-25_13h33.12.437,00_bat_bachelor,2022.2.4,59.942135873471976,
,,,,,,,,,,,,0,0,0,0,227,0,227,0,,,,,,,227,,,1,695.4934921243694,Y,l,go,l,1,0.34631657251156867,,,,,,,,,,,,,,,,,,72,001,21,m,Psychologie,2023-01-25_13h33.12.437,00_bat_bachelor,2022.2.4,59.942135873471976,
,,,,,,,,,,,,0,0,0,0,228,0,228,0,,,,,,,228,,,1,696.9612649884075,Y,None,nogo,None,1,,697.7622270244174,,,,,,,,,,,,,,,,,72,001,21,m,Psychologie,2023-01-25_13h33.12.437,00_bat_bachelor,2022.2.4,59.942135873471976,
,,,,,,,,,,,,0,0,0,0,229,0,229,0,,,,,,,229,,,1,698.7626391453668,X,d,go,d,1,0.3411122113466263,,,,,,,,,,,,,,,,,,72,001,21,m,Psychologie,2023-01-25_13h33.12.437,00_bat_bachelor,2022.2.4,59.942135873471976,
,,,,,,,,,,,,0,0,0,0,230,0,230,0,,,,,,,230,,,1,700.2306660700124,Y,l,go,l,1,0.3458448152523488,,,,,,,,,,,,,,,,,,72,001,21,m,Psychologie,2023-01-25_13h33.12.437,00_bat_bachelor,2022.2.4,59.942135873471976,
,,,,,,,,,,,,0,0,0,0,231,0,231,0,,,,,,,231,,,1,701.7150958958082,Y,None,nogo,None,1,,702.5155032651965,,,,,,,,,,,,,,,,,72,001,21,m,Psychologie,2023-01-25_13h33.12.437,00_bat_bachelor,2022.2.4,59.942135873471976,
,,,,,,,,,,,,0,0,0,0,232,0,232,0,,,,,,,232,,,1,703.5165035070386,Y,None,nogo,None,1,,704.3170742704533,,,,,,,,,,,,,,,,,72,001,21,m,Psychologie,2023-01-25_13h33.12.437,00_bat_bachelor,2022.2.4,59.942135873471976,
,,,,,,,,,,,,0,0,0,0,233,0,233,0,,,,,,,233,,,1,705.3178733005188,X,d,go,d,1,0.23510741419158876,,,,,,,,,,,,,,,,,,72,001,21,m,Psychologie,2023-01-25_13h33.12.437,00_bat_bachelor,2022.2.4,59.942135873471976,
,,,,,,,,,,,,0,0,0,0,234,0,234,0,,,,,,,234,,,1,706.6685475546401,Y,l,go,l,1,0.4035339991096407,,,,,,,,,,,,,,,,,,72,001,21,m,Psychologie,2023-01-25_13h33.12.437,00_bat_bachelor,2022.2.4,59.942135873471976,
,,,,,,,,,,,,0,0,0,0,235,0,235,0,,,,,,,235,,,1,708.1859145765193,X,d,go,d,1,0.2639083699323237,,,,,,,,,,,,,,,,,,72,001,21,m,Psychologie,2023-01-25_13h33.12.437,00_bat_bachelor,2022.2.4,59.942135873471976,
,,,,,,,,,,,,0,0,0,0,236,0,236,0,,,,,,,236,,,1,709.5534164588898,Y,l,go,None,0,,710.3541763131507,,,,,,,,,,,,,,,,,72,001,21,m,Psychologie,2023-01-25_13h33.12.437,00_bat_bachelor,2022.2.4,59.942135873471976,
,,,,,,,,,,,,0,0,0,0,237,0,237,0,,,,,,,237,,,1,711.3550490399357,X,d,go,d,1,0.3740227408707142,,,,,,,,,,,,,,,,,,72,001,21,m,Psychologie,2023-01-25_13h33.12.437,00_bat_bachelor,2022.2.4,59.942135873471976,
,,,,,,,,,,,,0,0,0,0,238,0,238,0,,,,,,,238,,,1,712.8397755927872,X,None,nogo,l,0,0.3768120729364455,,,,,,,,,,,,,,,,,,72,001,21,m,Psychologie,2023-01-25_13h33.12.437,00_bat_bachelor,2022.2.4,59.942135873471976,
,,,,,,,,,,,,0,0,0,0,239,0,239,0,,,,,,,239,,,1,714.3239911156707,Y,l,go,None,0,,715.1243310912978,,,,,,,,,,,,,,,,,72,001,21,m,Psychologie,2023-01-25_13h33.12.437,00_bat_bachelor,2022.2.4,59.942135873471976,
,,,,,,,,,,,,0,0,0,0,240,0,240,0,,,,,,,240,,,1,716.1253163029905,X,d,go,d,1,0.4355359231121838,,,,,,,,,,,,,,,,,,72,001,21,m,Psychologie,2023-01-25_13h33.12.437,00_bat_bachelor,2022.2.4,59.942135873471976,
,,,,,,,,,,,,0,0,0,0,241,0,241,0,,,,,,,241,,,1,717.6765994294547,X,None,nogo,None,1,,,,,,,,,,,,,,,,,,,72,001,21,m,Psychologie,2023-01-25_13h33.12.437,00_bat_bachelor,2022.2.4,59.942135873471976,
,,,,,,,,,,,,0,0,0,0,242,0,242,0,,,,,,,242,,,1,719.4779255865142,Y,l,go,l,1,0.41034272336401045,,,,,,,,,,,,,,,,,,72,001,21,m,Psychologie,2023-01-25_13h33.12.437,00_bat_bachelor,2022.2.4,59.942135873471976,
,,,,,,,,,,,,0,0,0,0,243,0,243,0,,,,,,,243,,,1,720.9954821839929,X,d,go,d,1,0.5248808497563004,,,,,,,,,,,,,,,,,,72,001,21,m,Psychologie,2023-01-25_13h33.12.437,00_bat_bachelor,2022.2.4,59.942135873471976,
,,,,,,,,,,,,0,0,0,0,244,0,244,0,,,,,,,244,,,1,722.6300297551788,X,None,nogo,None,1,,723.4310029426124,,,,,,,,,,,,,,,,,72,001,21,m,Psychologie,2023-01-25_13h33.12.437,00_bat_bachelor,2022.2.4,59.942135873471976,
,,,,,,,,,,,,0,0,0,0,245,0,245,0,,,,,,,245,,,1,724.4317054876592,Y,l,go,l,1,0.32130664540454745,,,,,,,,,,,,,,,,,,72,001,21,m,Psychologie,2023-01-25_13h33.12.437,00_bat_bachelor,2022.2.4,59.942135873471976,
,,,,,,,,,,,,0,0,0,0,246,0,246,0,,,,,,,246,,,1,725.865810489282,X,d,go,d,1,0.42264283867552876,,,,,,,,,,,,,,,,,,72,001,21,m,Psychologie,2023-01-25_13h33.12.437,00_bat_bachelor,2022.2.4,59.942135873471976,
,,,,,,,,,,,,0,0,0,0,247,0,247,0,,,,,,,247,,,1,727.4005598057993,Y,l,go,l,1,0.3448853006120771,,,,,,,,,,,,,,,,,,72,001,21,m,Psychologie,2023-01-25_13h33.12.437,00_bat_bachelor,2022.2.4,59.942135873471976,
,,,,,,,,,,,,0,0,0,0,248,0,248,0,,,,,,,248,,,1,728.8516887992155,Y,None,nogo,None,1,,,,,,,,,,,,,,,,,,,72,001,21,m,Psychologie,2023-01-25_13h33.12.437,00_bat_bachelor,2022.2.4,59.942135873471976,
,,,,,,,,,,,,0,0,0,0,249,0,249,0,,,,,,,249,,,1,730.6530842895154,X,d,go,d,1,0.5801729441154748,,,,,,,,,,,,,,,,,,72,001,21,m,Psychologie,2023-01-25_13h33.12.437,00_bat_bachelor,2022.2.4,59.942135873471976,
,,,,,,,,,,,,1,0,1,0,0,0,0,0,,,,,,,0,,,0.2,767.1645531323738,X,d,go,d,1,0.6445409129373729,,,,,,,,,731.3404066227376,space,35.592531725764275,,,,,,,72,001,21,m,Psychologie,2023-01-25_13h33.12.437,00_bat_bachelor,2022.2.4,59.942135873471976,
,,,,,,,,,,,,1,0,1,0,1,0,1,0,,,,,,,1,,,0.2,768.1153807926457,Y,l,go,l,1,0.46005227509886026,,,,,,,,,,,,,,,,,,72,001,21,m,Psychologie,2023-01-25_13h33.12.437,00_bat_bachelor,2022.2.4,59.942135873471976,
,,,,,,,,,,,,1,0,1,0,2,0,2,0,,,,,,,2,,,0.2,768.8996005335357,X,d,go,d,1,0.5245986678637564,,,,,,,,,,,,,,,,,,72,001,21,m,Psychologie,2023-01-25_13h33.12.437,00_bat_bachelor,2022.2.4,59.942135873471976,
,,,,,,,,,,,,1,0,1,0,3,0,3,0,,,,,,,3,,,0.2,769.7499307878315,Y,l,go,l,1,0.4103116928599775,,,,,,,,,,,,,,,,,,72,001,21,m,Psychologie,2023-01-25_13h33.12.437,00_bat_bachelor,2022.2.4,59.942135873471976,
,,,,,,,,,,,,1,0,1,0,4,0,4,0,,,,,,,4,,,0.2,770.4841190380976,X,d,go,d,1,0.42926586559042335,,,,,,,,,,,,,,,,,,72,001,21,m,Psychologie,2023-01-25_13h33.12.437,00_bat_bachelor,2022.2.4,59.942135873471976,
,,,,,,,,,,,,1,0,1,0,5,0,5,0,,,,,,,5,,,0.2,771.2178520155139,X,None,nogo,None,1,,772.0185827789828,,,,,,,,,,,,,,,,,72,001,21,m,Psychologie,2023-01-25_13h33.12.437,00_bat_bachelor,2022.2.4,59.942135873471976,
,,,,,,,,,,,,1,0,1,0,6,0,6,0,,,,,,,6,,,0.2,772.2186675304547,Y,l,go,l,1,0.4208508392330259,,,,,,,,,,,,,,,,,,72,001,21,m,Psychologie,2023-01-25_13h33.12.437,00_bat_bachelor,2022.2.4,59.942135873471976,
,,,,,,,,,,,,1,0,1,0,7,0,7,0,,,,,,,7,,,0.2,772.9691331058275,X,d,go,d,1,0.3909647932741791,,,,,,,,,,,,,,,,,,72,001,21,m,Psychologie,2023-01-25_13h33.12.437,00_bat_bachelor,2022.2.4,59.942135873471976,
,,,,,,,,,,,,1,0,1,0,8,0,8,0,,,,,,,8,,,0.2,773.6698837964796,Y,l,go,l,1,0.3788620112463832,,,,,,,,,,,,,,,,,,72,001,21,m,Psychologie,2023-01-25_13h33.12.437,00_bat_bachelor,2022.2.4,59.942135873471976,
,,,,,,,,,,,,1,0,1,0,9,0,9,0,,,,,,,9,,,0.2,774.3534752225969,Y,None,nogo,None,1,,775.1543388343416,,,,,,,,,,,,,,,,,72,001,21,m,Psychologie,2023-01-25_13h33.12.437,00_bat_bachelor,2022.2.4,59.942135873471976,
,,,,,,,,,,,,1,0,1,0,10,0,10,0,,,,,,,10,,,0.2,775.3544279492926,X,d,go,d,1,0.29435296123847365,,,,,,,,,,,,,,,,,,72,001,21,m,Psychologie,2023-01-25_13h33.12.437,00_bat_bachelor,2022.2.4,59.942135873471976,
,,,,,,,,,,,,1,0,1,0,11,0,11,0,,,,,,,11,,,0.2,775.9548470522277,Y,l,go,l,1,0.5724638567771763,,,,,,,,,,,,,,,,,,72,001,21,m,Psychologie,2023-01-25_13h33.12.437,00_bat_bachelor,2022.2.4,59.942135873471976,
,,,,,,,,,,,,1,0,1,0,12,0,12,0,,,,,,,12,,,0.2,776.8556471003685,X,d,go,d,1,0.39301715581677854,,,,,,,,,,,,,,,,,,72,001,21,m,Psychologie,2023-01-25_13h33.12.437,00_bat_bachelor,2022.2.4,59.942135873471976,
,,,,,,,,,,,,1,0,1,0,13,0,13,0,,,,,,,13,,,0.2,777.5559832456056,X,None,nogo,None,1,,778.35680225119,,,,,,,,,,,,,,,,,72,001,21,m,Psychologie,2023-01-25_13h33.12.437,00_bat_bachelor,2022.2.4,59.942135873471976,
,,,,,,,,,,,,1,0,1,0,14,0,14,0,,,,,,,14,,,0.2,778.5567090634722,Y,l,go,l,1,0.3715218936558813,,,,,,,,,,,,,,,,,,72,001,21,m,Psychologie,2023-01-25_13h33.12.437,00_bat_bachelor,2022.2.4,59.942135873471976,
,,,,,,,,,,,,1,0,1,0,15,0,15,0,,,,,,,15,,,0.2,779.2573467842303,X,d,go,d,1,0.4393739819061011,,,,,,,,,,,,,,,,,,72,001,21,m,Psychologie,2023-01-25_13h33.12.437,00_bat_bachelor,2022.2.4,59.942135873471976,
,,,,,,,,,,,,1,0,1,0,16,0,16,0,,,,,,,16,,,0.2,780.0077764810994,Y,l,go,l,1,0.48799650371074677,,,,,,,,,,,,,,,,,,72,001,21,m,Psychologie,2023-01-25_13h33.12.437,00_bat_bachelor,2022.2.4,59.942135873471976,
,,,,,,,,,,,,1,0,1,0,17,0,17,0,,,,,,,17,,,0.2,780.8250866301823,X,d,go,d,1,0.45465591410174966,,,,,,,,,,,,,,,,,,72,001,21,m,Psychologie,2023-01-25_13h33.12.437,00_bat_bachelor,2022.2.4,59.942135873471976,
,,,,,,,,,,,,1,0,1,0,18,0,18,0,,,,,,,18,,,0.2,781.6091686743312,X,None,nogo,None,1,,782.4098781042267,,,,,,,,,,,,,,,,,72,001,21,m,Psychologie,2023-01-25_13h33.12.437,00_bat_bachelor,2022.2.4,59.942135873471976,
,,,,,,,,,,,,1,0,1,0,19,0,19,0,,,,,,,19,,,0.2,782.610001643654,Y,l,go,l,1,0.3337352452799678,,,,,,,,,,,,,,,,,,72,001,21,m,Psychologie,2023-01-25_13h33.12.437,00_bat_bachelor,2022.2.4,59.942135873471976,
,,,,,,,,,,,,1,0,1,0,20,0,20,0,,,,,,,20,,,0.2,783.2605991463643,X,d,go,d,1,0.355404568137601,,,,,,,,,,,,,,,,,,72,001,21,m,Psychologie,2023-01-25_13h33.12.437,00_bat_bachelor,2022.2.4,59.942135873471976,
,,,,,,,,,,,,1,0,1,0,21,0,21,0,,,,,,,21,,,0.2,783.9443796633277,X,None,nogo,None,1,,784.7446915176697,,,,,,,,,,,,,,,,,72,001,21,m,Psychologie,2023-01-25_13h33.12.437,00_bat_bachelor,2022.2.4,59.942135873471976,
,,,,,,,,,,,,1,0,1,0,22,0,22,0,,,,,,,22,,,0.2,784.9450443903916,X,None,nogo,d,0,0.43168962211348116,,,,,,,,,,,,,,,,,,72,001,21,m,Psychologie,2023-01-25_13h33.12.437,00_bat_bachelor,2022.2.4,59.942135873471976,
,,,,,,,,,,,,1,0,1,0,23,0,23,0,,,,,,,23,,,0.2,785.695603056578,Y,l,go,None,0,,786.4963289715815,,,,,,,,,,,,,,,,,72,001,21,m,Psychologie,2023-01-25_13h33.12.437,00_bat_bachelor,2022.2.4,59.942135873471976,
,,,,,,,,,,,,1,0,1,0,24,0,24,0,,,,,,,24,,,0.2,786.6964719046373,X,d,go,None,0,,787.4968458197545,,,,,,,,,,,,,,,,,72,001,21,m,Psychologie,2023-01-25_13h33.12.437,00_bat_bachelor,2022.2.4,59.942135873471976,
,,,,,,,,,,,,1,0,1,0,25,0,25,0,,,,,,,25,,,0.2,787.6969771166332,X,None,nogo,d,0,0.6381738856434822,,,,,,,,,,,,,,,,,,72,001,21,m,Psychologie,2023-01-25_13h33.12.437,00_bat_bachelor,2022.2.4,59.942135873471976,
,,,,,,,,,,,,1,0,1,0,26,0,26,0,,,,,,,26,,,0.2,788.6646387081128,Y,l,go,None,0,,789.465246804757,,,,,,,,,,,,,,,,,72,001,21,m,Psychologie,2023-01-25_13h33.12.437,00_bat_bachelor,2022.2.4,59.942135873471976,
,,,,,,,,,,,,1,0,1,0,27,0,27,0,,,,,,,27,,,0.2,789.6651768896263,X,d,go,d,1,0.5902999695390463,,,,,,,,,,,,,,,,,,72,001,21,m,Psychologie,2023-01-25_13h33.12.437,00_bat_bachelor,2022.2.4,59.942135873471976,
,,,,,,,,,,,,1,0,1,0,28,0,28,0,,,,,,,28,,,0.2,790.5825092932209,Y,l,go,l,1,0.5377947827801108,,,,,,,,,,,,,,,,,,72,001,21,m,Psychologie,2023-01-25_13h33.12.437,00_bat_bachelor,2022.2.4,59.942135873471976,
,,,,,,,,,,,,1,0,1,0,29,0,29,0,,,,,,,29,,,0.2,791.449869357748,X,d,go,d,1,0.47006972460076213,,,,,,,,,,,,,,,,,,72,001,21,m,Psychologie,2023-01-25_13h33.12.437,00_bat_bachelor,2022.2.4,59.942135873471976,
,,,,,,,,,,,,1,0,1,0,30,0,30,0,,,,,,,30,,,0.2,792.2504473936278,X,None,nogo,None,1,,793.0512101568747,,,,,,,,,,,,,,,,,72,001,21,m,Psychologie,2023-01-25_13h33.12.437,00_bat_bachelor,2022.2.4,59.942135873471976,
,,,,,,,,,,,,1,0,1,0,31,0,31,0,,,,,,,31,,,0.2,793.2514219386503,Y,l,go,l,1,0.44505591853521764,,,,,,,,,,,,,,,,,,72,001,21,m,Psychologie,2023-01-25_13h33.12.437,00_bat_bachelor,2022.2.4,59.942135873471976,
,,,,,,,,,,,,1,0,1,0,32,0,32,0,,,,,,,32,,,0.2,794.0020513930358,X,d,go,d,1,0.46156451664865017,,,,,,,,,,,,,,,,,,72,001,21,m,Psychologie,2023-01-25_13h33.12.437,00_bat_bachelor,2022.2.4,59.942135873471976,
,,,,,,,,,,,,1,0,1,0,33,0,33,0,,,,,,,33,,,0.2,794.7857533160131,Y,l,go,l,1,0.4628149401396513,,,,,,,,,,,,,,,,,,72,001,21,m,Psychologie,2023-01-25_13h33.12.437,00_bat_bachelor,2022.2.4,59.942135873471976,
,,,,,,,,,,,,1,0,1,0,34,0,34,0,,,,,,,34,,,0.2,795.5698896630201,X,d,go,d,1,0.5268124849535525,,,,,,,,,,,,,,,,,,72,001,21,m,Psychologie,2023-01-25_13h33.12.437,00_bat_bachelor,2022.2.4,59.942135873471976,
,,,,,,,,,,,,1,0,1,0,35,0,35,0,,,,,,,35,,,0.2,796.403737016255,Y,l,go,None,0,,797.2042670524679,,,,,,,,,,,,,,,,,72,001,21,m,Psychologie,2023-01-25_13h33.12.437,00_bat_bachelor,2022.2.4,59.942135873471976,
,,,,,,,,,,,,1,0,1,0,36,0,36,0,,,,,,,36,,,0.2,797.404523440171,X,d,go,None,0,,798.2052343247924,,,,,,,,,,,,,,,,,72,001,21,m,Psychologie,2023-01-25_13h33.12.437,00_bat_bachelor,2022.2.4,59.942135873471976,
,,,,,,,,,,,,1,0,1,0,37,0,37,0,,,,,,,37,,,0.2,798.405116409529,X,None,nogo,None,1,,799.2059960213955,,,,,,,,,,,,,,,,,72,001,21,m,Psychologie,2023-01-25_13h33.12.437,00_bat_bachelor,2022.2.4,59.942135873471976,
,,,,,,,,,,,,1,0,1,0,38,0,38,0,,,,,,,38,,,0.2,799.4061772576533,Y,l,go,None,0,,800.2068798996042,,,,,,,,,,,,,,,,,72,001,21,m,Psychologie,2023-01-25_13h33.12.437,00_bat_bachelor,2022.2.4,59.942135873471976,
,,,,,,,,,,,,1,0,1,0,39,0,39,0,,,,,,,39,,,0.2,800.4066790754441,X,d,go,None,0,,801.2075325055048,,,,,,,,,,,,,,,,,72,001,21,m,Psychologie,2023-01-25_13h33.12.437,00_bat_bachelor,2022.2.4,59.942135873471976,
,,,,,,,,,,,,1,0,1,0,40,0,40,0,,,,,,,40,,,0.2,801.4073903479148,Y,l,go,None,0,,802.2080401415005,,,,,,,,,,,,,,,,,72,001,21,m,Psychologie,2023-01-25_13h33.12.437,00_bat_bachelor,2022.2.4,59.942135873471976,
,,,,,,,,,,,,1,0,1,0,41,0,41,0,,,,,,,41,,,0.2,802.4081651354209,Y,None,nogo,None,1,,803.2090985653922,,,,,,,,,,,,,,,,,72,001,21,m,Psychologie,2023-01-25_13h33.12.437,00_bat_bachelor,2022.2.4,59.942135873471976,
,,,,,,,,,,,,1,0,1,0,42,0,42,0,,,,,,,42,,,0.2,803.4089990744833,X,d,go,None,0,,804.2098398981616,,,,,,,,,,,,,,,,,72,001,21,m,Psychologie,2023-01-25_13h33.12.437,00_bat_bachelor,2022.2.4,59.942135873471976,
,,,,,,,,,,,,1,0,1,0,43,0,43,0,,,,,,,43,,,0.2,804.4097568921279,Y,l,go,l,1,0.2942773250397295,,,,,,,,,,,,,,,,,,72,001,21,m,Psychologie,2023-01-25_13h33.12.437,00_bat_bachelor,2022.2.4,59.942135873471976,
,,,,,,,,,,,,1,0,1,0,44,0,44,0,,,,,,,44,,,0.2,805.027083623223,Y,None,nogo,d,0,0.5583213181234896,,,,,,,,,,,,,,,,,,72,001,21,m,Psychologie,2023-01-25_13h33.12.437,00_bat_bachelor,2022.2.4,59.942135873471976,
,,,,,,,,,,,,1,0,1,0,45,0,45,0,,,,,,,45,,,0.2,805.8944078087807,X,d,go,None,0,,806.69501008722,,,,,,,,,,,,,,,,,72,001,21,m,Psychologie,2023-01-25_13h33.12.437,00_bat_bachelor,2022.2.4,59.942135873471976,
,,,,,,,,,,,,1,0,1,0,46,0,46,0,,,,,,,46,,,0.2,806.895115687279,Y,l,go,None,0,,807.6958163899835,,,,,,,,,,,,,,,,,72,001,21,m,Psychologie,2023-01-25_13h33.12.437,00_bat_bachelor,2022.2.4,59.942135873471976,
,,,,,,,,,,,,1,0,1,0,47,0,47,0,,,,,,,47,,,0.2,807.8956771413796,Y,None,nogo,l,0,0.36087171686813235,,,,,,,,,,,,,,,,,,72,001,21,m,Psychologie,2023-01-25_13h33.12.437,00_bat_bachelor,2022.2.4,59.942135873471976,
,,,,,,,,,,,,1,0,1,0,48,0,48,0,,,,,,,48,,,0.2,808.5630373028107,X,d,go,d,1,0.42908889590762556,,,,,,,,,,,,,,,,,,72,001,21,m,Psychologie,2023-01-25_13h33.12.437,00_bat_bachelor,2022.2.4,59.942135873471976,
,,,,,,,,,,,,1,0,1,0,49,0,49,0,,,,,,,49,,,0.2,809.3136090601329,Y,l,go,l,1,0.44683773582801223,,,,,,,,,,,,,,,,,,72,001,21,m,Psychologie,2023-01-25_13h33.12.437,00_bat_bachelor,2022.2.4,59.942135873471976,
,,,,,,,,,,,,1,0,1,0,50,0,50,0,,,,,,,50,,,0.2,810.080757294083,Y,None,nogo,d,0,0.3986229714937508,,,,,,,,,,,,,,,,,,72,001,21,m,Psychologie,2023-01-25_13h33.12.437,00_bat_bachelor,2022.2.4,59.942135873471976,
,,,,,,,,,,,,1,0,1,0,51,0,51,0,,,,,,,51,,,0.2,810.7980704009533,X,d,go,None,0,,811.5987206792925,,,,,,,,,,,,,,,,,72,001,21,m,Psychologie,2023-01-25_13h33.12.437,00_bat_bachelor,2022.2.4,59.942135873471976,
,,,,,,,,,,,,1,0,1,0,52,0,52,0,,,,,,,52,,,0.2,811.7987390067428,Y,l,go,l,1,0.6015882061328739,,,,,,,,,,,,,,,,,,72,001,21,m,Psychologie,2023-01-25_13h33.12.437,00_bat_bachelor,2022.2.4,59.942135873471976,
,,,,,,,,,,,,1,0,1,0,53,0,53,0,,,,,,,53,,,0.2,812.7327031597961,Y,None,nogo,None,1,,813.5335851958953,,,,,,,,,,,,,,,,,72,001,21,m,Psychologie,2023-01-25_13h33.12.437,00_bat_bachelor,2022.2.4,59.942135873471976,
,,,,,,,,,,,,1,0,1,0,54,0,54,0,,,,,,,54,,,0.2,813.733515765518,X,d,go,d,1,0.3787495265714824,,,,,,,,,,,,,,,,,,72,001,21,m,Psychologie,2023-01-25_13h33.12.437,00_bat_bachelor,2022.2.4,59.942135873471976,
,,,,,,,,,,,,1,0,1,0,55,0,55,0,,,,,,,55,,,0.2,814.434052638011,Y,l,go,None,0,,815.2349933406804,,,,,,,,,,,,,,,,,72,001,21,m,Psychologie,2023-01-25_13h33.12.437,00_bat_bachelor,2022.2.4,59.942135873471976,
,,,,,,,,,,,,1,0,1,0,56,0,56,0,,,,,,,56,,,0.2,815.4348308194894,X,d,go,d,1,0.5970204509794712,,,,,,,,,,,,,,,,,,72,001,21,m,Psychologie,2023-01-25_13h33.12.437,00_bat_bachelor,2022.2.4,59.942135873471976,
,,,,,,,,,,,,1,0,1,0,57,0,57,0,,,,,,,57,,,0.2,816.3521292838268,X,None,nogo,None,1,,817.152841137955,,,,,,,,,,,,,,,,,72,001,21,m,Psychologie,2023-01-25_13h33.12.437,00_bat_bachelor,2022.2.4,59.942135873471976,
,,,,,,,,,,,,1,0,1,0,58,0,58,0,,,,,,,58,,,0.2,817.3529166774824,Y,l,go,l,1,0.35854008165188134,,,,,,,,,,,,,,,,,,72,001,21,m,Psychologie,2023-01-25_13h33.12.437,00_bat_bachelor,2022.2.4,59.942135873471976,
,,,,,,,,,,,,1,0,1,0,59,0,59,0,,,,,,,59,,,0.2,818.0368193760514,X,d,go,d,1,0.571048584766686,,,,,,,,,,,,,,,,,,72,001,21,m,Psychologie,2023-01-25_13h33.12.437,00_bat_bachelor,2022.2.4,59.942135873471976,
,,,,,,,,,,,,1,0,1,0,60,0,60,0,,,,,,,60,,,0.2,818.937733363593,X,None,nogo,None,1,,819.7384258238599,,,,,,,,,,,,,,,,,72,001,21,m,Psychologie,2023-01-25_13h33.12.437,00_bat_bachelor,2022.2.4,59.942135873471976,
,,,,,,,,,,,,1,0,1,0,61,0,61,0,,,,,,,61,,,0.2,819.9385842722841,Y,l,go,l,1,0.509841826511547,,,,,,,,,,,,,,,,,,72,001,21,m,Psychologie,2023-01-25_13h33.12.437,00_bat_bachelor,2022.2.4,59.942135873471976,
,,,,,,,,,,,,1,0,1,0,62,0,62,0,,,,,,,62,,,0.2,820.7723201103508,X,d,go,d,1,0.36450129095464945,,,,,,,,,,,,,,,,,,72,001,21,m,Psychologie,2023-01-25_13h33.12.437,00_bat_bachelor,2022.2.4,59.942135873471976,
,,,,,,,,,,,,1,0,1,0,63,0,63,0,,,,,,,63,,,0.2,821.4396211202256,X,None,nogo,None,1,,822.2400018230546,,,,,,,,,,,,,,,,,72,001,21,m,Psychologie,2023-01-25_13h33.12.437,00_bat_bachelor,2022.2.4,59.942135873471976,
,,,,,,,,,,,,1,0,1,0,64,0,64,0,,,,,,,64,,,0.2,822.440106453374,Y,l,go,l,1,0.4891911700833589,,,,,,,,,,,,,,,,,,72,001,21,m,Psychologie,2023-01-25_13h33.12.437,00_bat_bachelor,2022.2.4,59.942135873471976,
,,,,,,,,,,,,1,0,1,0,65,0,65,0,,,,,,,65,,,0.2,823.2407620651647,X,d,go,d,1,0.40754951257258654,,,,,,,,,,,,,,,,,,72,001,21,m,Psychologie,2023-01-25_13h33.12.437,00_bat_bachelor,2022.2.4,59.942135873471976,
,,,,,,,,,,,,1,0,1,0,66,0,66,0,,,,,,,66,,,0.2,823.9579602628946,Y,l,go,l,1,0.44279991975054145,,,,,,,,,,,,,,,,,,72,001,21,m,Psychologie,2023-01-25_13h33.12.437,00_bat_bachelor,2022.2.4,59.942135873471976,
,,,,,,,,,,,,1,0,1,0,67,0,67,0,,,,,,,67,,,0.2,824.7085485048592,X,d,go,d,1,0.28382157254964113,,,,,,,,,,,,,,,,,,72,001,21,m,Psychologie,2023-01-25_13h33.12.437,00_bat_bachelor,2022.2.4,59.942135873471976,
,,,,,,,,,,,,1,0,1,0,68,0,68,0,,,,,,,68,,,0.2,825.2925346461125,X,None,nogo,l,0,0.6271416484378278,,,,,,,,,,,,,,,,,,72,001,21,m,Psychologie,2023-01-25_13h33.12.437,00_bat_bachelor,2022.2.4,59.942135873471976,
,,,,,,,,,,,,1,0,1,0,69,0,69,0,,,,,,,69,,,0.2,826.243254669942,X,None,nogo,None,1,,827.0438937968574,,,,,,,,,,,,,,,,,72,001,21,m,Psychologie,2023-01-25_13h33.12.437,00_bat_bachelor,2022.2.4,59.942135873471976,
,,,,,,,,,,,,1,0,1,0,70,0,70,0,,,,,,,70,,,0.2,827.2437947909348,Y,l,go,None,0,,828.0446491905022,,,,,,,,,,,,,,,,,72,001,21,m,Psychologie,2023-01-25_13h33.12.437,00_bat_bachelor,2022.2.4,59.942135873471976,
,,,,,,,,,,,,1,0,1,0,71,0,71,0,,,,,,,71,,,0.2,828.2447223055642,X,d,go,None,0,,829.0452237357385,,,,,,,,,,,,,,,,,72,001,21,m,Psychologie,2023-01-25_13h33.12.437,00_bat_bachelor,2022.2.4,59.942135873471976,
,,,,,,,,,,,,1,0,1,0,72,0,72,0,,,,,,,72,,,0.2,829.2453336992767,X,None,nogo,None,1,,830.0461871291045,,,,,,,,,,,,,,,,,72,001,21,m,Psychologie,2023-01-25_13h33.12.437,00_bat_bachelor,2022.2.4,59.942135873471976,
,,,,,,,,,,,,1,0,1,0,73,0,73,0,,,,,,,73,,,0.2,830.2463072745595,Y,l,go,l,1,0.4101972687058151,,,,,,,,,,,,,,,,,,72,001,21,m,Psychologie,2023-01-25_13h33.12.437,00_bat_bachelor,2022.2.4,59.942135873471976,
,,,,,,,,,,,,1,0,1,0,74,0,74,0,,,,,,,74,,,0.2,830.9801139489282,X,d,go,d,1,0.26772364089265466,,,,,,,,,,,,,,,,,,72,001,21,m,Psychologie,2023-01-25_13h33.12.437,00_bat_bachelor,2022.2.4,59.942135873471976,
,,,,,,,,,,,,1,0,1,0,75,0,75,0,,,,,,,75,,,0.2,831.5803953548893,Y,l,go,l,1,0.4672925139311701,,,,,,,,,,,,,,,,,,72,001,21,m,Psychologie,2023-01-25_13h33.12.437,00_bat_bachelor,2022.2.4,59.942135873471976,
,,,,,,,,,,,,1,0,1,0,76,0,76,0,,,,,,,76,,,0.2,832.3643237021752,Y,None,nogo,None,1,,833.1652270713821,,,,,,,,,,,,,,,,,72,001,21,m,Psychologie,2023-01-25_13h33.12.437,00_bat_bachelor,2022.2.4,59.942135873471976,
,,,,,,,,,,,,1,0,1,0,77,0,77,0,,,,,,,77,,,0.2,833.3653438228648,X,d,go,d,1,0.3144348911009729,,,,,,,,,,,,,,,,,,72,001,21,m,Psychologie,2023-01-25_13h33.12.437,00_bat_bachelor,2022.2.4,59.942135873471976,
,,,,,,,,,,,,1,0,1,0,78,0,78,0,,,,,,,78,,,0.2,833.9988945459481,Y,l,go,l,1,0.6085074758157134,,,,,,,,,,,,,,,,,,72,001,21,m,Psychologie,2023-01-25_13h33.12.437,00_bat_bachelor,2022.2.4,59.942135873471976,
,,,,,,,,,,,,1,0,1,0,79,0,79,0,,,,,,,79,,,0.2,834.933123426279,Y,None,nogo,None,1,,835.733780977549,,,,,,,,,,,,,,,,,72,001,21,m,Psychologie,2023-01-25_13h33.12.437,00_bat_bachelor,2022.2.4,59.942135873471976,
,,,,,,,,,,,,1,0,1,0,80,0,80,0,,,,,,,80,,,0.2,835.933839547215,X,d,go,d,1,0.4181536284741014,,,,,,,,,,,,,,,,,,72,001,21,m,Psychologie,2023-01-25_13h33.12.437,00_bat_bachelor,2022.2.4,59.942135873471976,
,,,,,,,,,,,,1,0,1,0,81,0,81,0,,,,,,,81,,,0.2,836.6843477895018,Y,l,go,None,0,,837.485145946499,,,,,,,,,,,,,,,,,72,001,21,m,Psychologie,2023-01-25_13h33.12.437,00_bat_bachelor,2022.2.4,59.942135873471976,
,,,,,,,,,,,,1,0,1,0,82,0,82,0,,,,,,,82,,,0.2,837.6852224555332,Y,None,nogo,d,0,0.42752526025287807,,,,,,,,,,,,,,,,,,72,001,21,m,Psychologie,2023-01-25_13h33.12.437,00_bat_bachelor,2022.2.4,59.942135873471976,
,,,,,,,,,,,,1,0,1,0,83,0,83,0,,,,,,,83,,,0.2,838.4192177362274,X,d,go,None,0,,839.2196338328067,,,,,,,,,,,,,,,,,72,001,21,m,Psychologie,2023-01-25_13h33.12.437,00_bat_bachelor,2022.2.4,59.942135873471976,
,,,,,,,,,,,,1,0,1,0,84,0,84,0,,,,,,,84,,,0.2,839.4197564024944,Y,l,go,l,1,0.4678064528852701,,,,,,,,,,,,,,,,,,72,001,21,m,Psychologie,2023-01-25_13h33.12.437,00_bat_bachelor,2022.2.4,59.942135873471976,
,,,,,,,,,,,,1,0,1,0,85,0,85,0,,,,,,,85,,,0.2,840.2205564992037,X,d,go,d,1,0.3552595984656364,,,,,,,,,,,,,,,,,,72,001,21,m,Psychologie,2023-01-25_13h33.12.437,00_bat_bachelor,2022.2.4,59.942135873471976,
,,,,,,,,,,,,1,0,1,0,86,0,86,0,,,,,,,86,,,0.2,840.9044107131194,Y,l,go,l,1,0.3913997020572424,,,,,,,,,,,,,,,,,,72,001,21,m,Psychologie,2023-01-25_13h33.12.437,00_bat_bachelor,2022.2.4,59.942135873471976,
,,,,,,,,,,,,1,0,1,0,87,0,87,0,,,,,,,87,,,0.2,841.6215832137968,Y,None,nogo,None,1,,842.4222679163795,,,,,,,,,,,,,,,,,72,001,21,m,Psychologie,2023-01-25_13h33.12.437,00_bat_bachelor,2022.2.4,59.942135873471976,
,,,,,,,,,,,,1,0,1,0,88,0,88,0,,,,,,,88,,,0.2,842.6224113346543,X,d,go,d,1,0.305639743572101,,,,,,,,,,,,,,,,,,72,001,21,m,Psychologie,2023-01-25_13h33.12.437,00_bat_bachelor,2022.2.4,59.942135873471976,
,,,,,,,,,,,,1,0,1,0,89,0,89,0,,,,,,,89,,,0.2,843.2396057019942,Y,l,go,l,1,0.39329061028547585,,,,,,,,,,,,,,,,,,72,001,21,m,Psychologie,2023-01-25_13h33.12.437,00_bat_bachelor,2022.2.4,59.942135873471976,
,,,,,,,,,,,,1,0,1,0,90,0,90,0,,,,,,,90,,,0.2,843.9567563845776,Y,None,nogo,d,0,0.3629105039872229,,,,,,,,,,,,,,,,,,72,001,21,m,Psychologie,2023-01-25_13h33.12.437,00_bat_bachelor,2022.2.4,59.942135873471976,
,,,,,,,,,,,,1,0,1,0,91,0,91,0,,,,,,,91,,,0.2,844.6404985985719,X,d,go,d,1,0.6409515810664743,,,,,,,,,,,,,,,,,,72,001,21,m,Psychologie,2023-01-25_13h33.12.437,00_bat_bachelor,2022.2.4,59.942135873471976,
,,,,,,,,,,,,1,0,1,0,92,0,92,0,,,,,,,92,,,0.2,845.5913912283722,Y,l,go,l,1,0.4576973670627922,,,,,,,,,,,,,,,,,,72,001,21,m,Psychologie,2023-01-25_13h33.12.437,00_bat_bachelor,2022.2.4,59.942135873471976,
,,,,,,,,,,,,1,0,1,0,93,0,93,0,,,,,,,93,,,0.2,846.3753118179739,X,d,go,d,1,0.5538675021380186,,,,,,,,,,,,,,,,,,72,001,21,m,Psychologie,2023-01-25_13h33.12.437,00_bat_bachelor,2022.2.4,59.942135873471976,
,,,,,,,,,,,,1,0,1,0,94,0,94,0,,,,,,,94,,,0.2,847.2426360035315,X,None,nogo,l,0,0.4062811494804919,,,,,,,,,,,,,,,,,,72,001,21,m,Psychologie,2023-01-25_13h33.12.437,00_bat_bachelor,2022.2.4,59.942135873471976,
,,,,,,,,,,,,1,0,1,0,95,0,95,0,,,,,,,95,,,0.2,847.959555413574,Y,l,go,None,0,,848.7601930859964,,,,,,,,,,,,,,,,,72,001,21,m,Psychologie,2023-01-25_13h33.12.437,00_bat_bachelor,2022.2.4,59.942135873471976,
,,,,,,,,,,,,1,0,1,0,96,0,96,0,,,,,,,96,,,0.2,848.9604708070401,X,d,go,d,1,0.6558475741185248,,,,,,,,,,,,,,,,,,72,001,21,m,Psychologie,2023-01-25_13h33.12.437,00_bat_bachelor,2022.2.4,59.942135873471976,
,,,,,,,,,,,,1,0,1,0,97,0,97,0,,,,,,,97,,,0.2,849.9443752996158,X,None,nogo,None,1,,850.7450129720382,,,,,,,,,,,,,,,,,72,001,21,m,Psychologie,2023-01-25_13h33.12.437,00_bat_bachelor,2022.2.4,59.942135873471976,
,,,,,,,,,,,,1,0,1,0,98,0,98,0,,,,,,,98,,,0.2,850.9451976022683,Y,l,go,l,1,0.41459532734006643,,,,,,,,,,,,,,,,,,72,001,21,m,Psychologie,2023-01-25_13h33.12.437,00_bat_bachelor,2022.2.4,59.942135873471976,
,,,,,,,,,,,,1,0,1,0,99,0,99,0,,,,,,,99,,,0.2,851.6792917917483,X,d,go,d,1,0.3048479864373803,,,,,,,,,,,,,,,,,,72,001,21,m,Psychologie,2023-01-25_13h33.12.437,00_bat_bachelor,2022.2.4,59.942135873471976,
,,,,,,,,,,,,1,0,1,0,100,0,100,0,,,,,,,100,,,0.2,852.3128696663771,Y,l,go,l,1,0.31215949822217226,,,,,,,,,,,,,,,,,,72,001,21,m,Psychologie,2023-01-25_13h33.12.437,00_bat_bachelor,2022.2.4,59.942135873471976,
,,,,,,,,,,,,1,0,1,0,101,0,101,0,,,,,,,101,,,0.2,852.9302332459483,Y,None,nogo,None,1,,853.7306566154584,,,,,,,,,,,,,,,,,72,001,21,m,Psychologie,2023-01-25_13h33.12.437,00_bat_bachelor,2022.2.4,59.942135873471976,
,,,,,,,,,,,,1,0,1,0,102,0,102,0,,,,,,,102,,,0.2,853.9310167606454,X,d,go,d,1,0.4055112104397267,,,,,,,,,,,,,,,,,,72,001,21,m,Psychologie,2023-01-25_13h33.12.437,00_bat_bachelor,2022.2.4,59.942135873471976,
,,,,,,,,,,,,1,0,1,0,103,0,103,0,,,,,,,103,,,0.2,854.6646469505504,Y,l,go,l,1,0.35956747527234256,,,,,,,,,,,,,,,,,,72,001,21,m,Psychologie,2023-01-25_13h33.12.437,00_bat_bachelor,2022.2.4,59.942135873471976,
,,,,,,,,,,,,1,0,1,0,104,0,104,0,,,,,,,104,,,0.2,855.3482519523241,X,d,go,d,1,0.47568620671518147,,,,,,,,,,,,,,,,,,72,001,21,m,Psychologie,2023-01-25_13h33.12.437,00_bat_bachelor,2022.2.4,59.942135873471976,
,,,,,,,,,,,,1,0,1,0,105,0,105,0,,,,,,,105,,,0.2,856.1483955644071,X,None,nogo,None,1,,856.9489963883534,,,,,,,,,,,,,,,,,72,001,21,m,Psychologie,2023-01-25_13h33.12.437,00_bat_bachelor,2022.2.4,59.942135873471976,
,,,,,,,,,,,,1,0,1,0,106,0,106,0,,,,,,,106,,,0.2,857.1494088971522,Y,l,go,None,0,,857.9497929939535,,,,,,,,,,,,,,,,,72,001,21,m,Psychologie,2023-01-25_13h33.12.437,00_bat_bachelor,2022.2.4,59.942135873471976,
,,,,,,,,,,,,1,0,1,0,107,0,107,0,,,,,,,107,,,0.2,858.1502021090128,X,d,go,d,1,0.4426748286932707,,,,,,,,,,,,,,,,,,72,001,21,m,Psychologie,2023-01-25_13h33.12.437,00_bat_bachelor,2022.2.4,59.942135873471976,
,,,,,,,,,,,,1,0,1,0,108,0,108,0,,,,,,,108,,,0.2,858.9005901087075,Y,l,go,l,1,0.3002976858988404,,,,,,,,,,,,,,,,,,72,001,21,m,Psychologie,2023-01-25_13h33.12.437,00_bat_bachelor,2022.2.4,59.942135873471976,
,,,,,,,,,,,,1,0,1,0,109,0,109,0,,,,,,,109,,,0.2,859.5012928477954,Y,None,nogo,None,1,,,,,,,,,,,,,,,,,,,72,001,21,m,Psychologie,2023-01-25_13h33.12.437,00_bat_bachelor,2022.2.4,59.942135873471976,
,,,,,,,,,,,,1,0,1,0,110,0,110,0,,,,,,,110,,,0.2,860.5020225443877,X,d,go,d,1,0.39509424567222595,,,,,,,,,,,,,,,,,,72,001,21,m,Psychologie,2023-01-25_13h33.12.437,00_bat_bachelor,2022.2.4,59.942135873471976,
,,,,,,,,,,,,1,0,1,0,111,0,111,0,,,,,,,111,,,0.2,861.2025652350858,Y,l,go,l,1,0.2544354049023241,,,,,,,,,,,,,,,,,,72,001,21,m,Psychologie,2023-01-25_13h33.12.437,00_bat_bachelor,2022.2.4,59.942135873471976,
,,,,,,,,,,,,1,0,1,0,112,0,112,0,,,,,,,112,,,0.2,861.7696418086998,Y,None,nogo,d,0,0.32725767279043794,,,,,,,,,,,,,,,,,,72,001,21,m,Psychologie,2023-01-25_13h33.12.437,00_bat_bachelor,2022.2.4,59.942135873471976,
,,,,,,,,,,,,1,0,1,0,113,0,113,0,,,,,,,113,,,0.2,862.4034679254983,X,d,go,None,0,,,,,,,,,,,,,,,,,,,72,001,21,m,Psychologie,2023-01-25_13h33.12.437,00_bat_bachelor,2022.2.4,59.942135873471976,
,,,,,,,,,,,,1,0,1,0,114,0,114,0,,,,,,,114,,,0.2,863.4041030767839,Y,l,go,None,0,,,,,,,,,,,,,,,,,,,72,001,21,m,Psychologie,2023-01-25_13h33.12.437,00_bat_bachelor,2022.2.4,59.942135873471976,
,,,,,,,,,,,,1,0,1,0,115,0,115,0,,,,,,,115,,,0.2,864.4049947126769,X,d,go,d,1,0.6196386215742677,,,,,,,,,,,,,,,,,,72,001,21,m,Psychologie,2023-01-25_13h33.12.437,00_bat_bachelor,2022.2.4,59.942135873471976,
,,,,,,,,,,,,1,0,1,0,116,0,116,0,,,,,,,116,,,0.2,865.3390267447103,X,None,nogo,d,0,0.6305380102712661,,,,,,,,,,,,,,,,,,72,001,21,m,Psychologie,2023-01-25_13h33.12.437,00_bat_bachelor,2022.2.4,59.942135873471976,
,,,,,,,,,,,,1,0,1,0,117,0,117,0,,,,,,,117,,,0.2,866.2729826555587,Y,l,go,None,0,,,,,,,,,,,,,,,,,,,72,001,21,m,Psychologie,2023-01-25_13h33.12.437,00_bat_bachelor,2022.2.4,59.942135873471976,
,,,,,,,,,,,,1,0,1,0,118,0,118,0,,,,,,,118,,,0.2,867.2737409581896,X,d,go,None,0,,,,,,,,,,,,,,,,,,,72,001,21,m,Psychologie,2023-01-25_13h33.12.437,00_bat_bachelor,2022.2.4,59.942135873471976,
,,,,,,,,,,,,1,0,1,0,119,0,119,0,,,,,,,119,,,0.2,868.27453659405,X,None,nogo,None,1,,,,,,,,,,,,,,,,,,,72,001,21,m,Psychologie,2023-01-25_13h33.12.437,00_bat_bachelor,2022.2.4,59.942135873471976,
,,,,,,,,,,,,1,0,1,0,120,0,120,0,,,,,,,120,,,0.2,869.2753690786194,Y,l,go,l,1,0.45357421739026904,,,,,,,,,,,,,,,,,,72,001,21,m,Psychologie,2023-01-25_13h33.12.437,00_bat_bachelor,2022.2.4,59.942135873471976,
,,,,,,,,,,,,1,0,1,0,121,0,121,0,,,,,,,121,,,0.2,870.0423495552968,X,d,go,d,1,0.5181118831969798,,,,,,,,,,,,,,,,,,72,001,21,m,Psychologie,2023-01-25_13h33.12.437,00_bat_bachelor,2022.2.4,59.942135873471976,
,,,,,,,,,,,,1,0,1,0,122,0,122,0,,,,,,,122,,,0.2,870.8765799386892,Y,l,go,l,1,0.5656842237804085,,,,,,,,,,,,,,,,,,72,001,21,m,Psychologie,2023-01-25_13h33.12.437,00_bat_bachelor,2022.2.4,59.942135873471976,
,,,,,,,,,,,,1,0,1,0,123,0,123,0,,,,,,,123,,,0.2,871.7438716392498,Y,None,nogo,None,1,,,,,,,,,,,,,,,,,,,72,001,21,m,Psychologie,2023-01-25_13h33.12.437,00_bat_bachelor,2022.2.4,59.942135873471976,
,,,,,,,,,,,,1,0,1,0,124,0,124,0,,,,,,,124,,,0.2,872.744611517759,X,d,go,d,1,0.48849007952958345,,,,,,,,,,,,,,,,,,72,001,21,m,Psychologie,2023-01-25_13h33.12.437,00_bat_bachelor,2022.2.4,59.942135873471976,
,,,,,,,,,,,,1,0,1,0,125,0,125,0,,,,,,,125,,,0.2,873.5449553721119,Y,l,go,l,1,0.39206345938146114,,,,,,,,,,,,,,,,,,72,001,21,m,Psychologie,2023-01-25_13h33.12.437,00_bat_bachelor,2022.2.4,59.942135873471976,
,,,,,,,,,,,,1,0,1,0,126,0,126,0,,,,,,,126,,,0.2,874.2457152747083,Y,None,nogo,None,1,,,,,,,,,,,,,,,,,,,72,001,21,m,Psychologie,2023-01-25_13h33.12.437,00_bat_bachelor,2022.2.4,59.942135873471976,
,,,,,,,,,,,,1,0,1,0,127,0,127,0,,,,,,,127,,,0.2,875.2465560017154,X,d,go,d,1,0.5466122329235077,,,,,,,,,,,,,,,,,,72,001,21,m,Psychologie,2023-01-25_13h33.12.437,00_bat_bachelor,2022.2.4,59.942135873471976,
,,,,,,,,,,,,1,0,1,0,128,0,128,0,,,,,,,128,,,0.2,876.0971723166294,Y,l,go,l,1,0.2559447376988828,,,,,,,,,,,,,,,,,,72,001,21,m,Psychologie,2023-01-25_13h33.12.437,00_bat_bachelor,2022.2.4,59.942135873471976,
,,,,,,,,,,,,1,0,1,0,129,0,129,0,,,,,,,129,,,0.2,876.6641276779119,X,d,go,None,0,,877.4648545624223,,,,,,,,,,,,,,,,,72,001,21,m,Psychologie,2023-01-25_13h33.12.437,00_bat_bachelor,2022.2.4,59.942135873471976,
,,,,,,,,,,,,1,0,1,0,130,0,130,0,,,,,,,130,,,0.2,877.6648685261607,Y,l,go,l,1,0.46472863643430173,,,,,,,,,,,,,,,,,,72,001,21,m,Psychologie,2023-01-25_13h33.12.437,00_bat_bachelor,2022.2.4,59.942135873471976,
,,,,,,,,,,,,1,0,1,0,131,0,131,0,,,,,,,131,,,0.2,878.4323042752221,Y,None,nogo,d,0,0.4812881432007998,,,,,,,,,,,,,,,,,,72,001,21,m,Psychologie,2023-01-25_13h33.12.437,00_bat_bachelor,2022.2.4,59.942135873471976,
,,,,,,,,,,,,1,0,1,0,132,0,132,0,,,,,,,132,,,0.2,879.2160338347312,X,d,go,None,0,,,,,,,,,,,,,,,,,,,72,001,21,m,Psychologie,2023-01-25_13h33.12.437,00_bat_bachelor,2022.2.4,59.942135873471976,
,,,,,,,,,,,,1,0,1,0,133,0,133,0,,,,,,,133,,,0.2,880.2167659555562,Y,l,go,l,1,0.5515799880959094,,,,,,,,,,,,,,,,,,72,001,21,m,Psychologie,2023-01-25_13h33.12.437,00_bat_bachelor,2022.2.4,59.942135873471976,
,,,,,,,,,,,,1,0,1,0,134,0,134,0,,,,,,,134,,,0.2,881.08405668661,X,d,go,d,1,0.6444187310989946,,,,,,,,,,,,,,,,,,72,001,21,m,Psychologie,2023-01-25_13h33.12.437,00_bat_bachelor,2022.2.4,59.942135873471976,
,,,,,,,,,,,,1,0,1,0,135,0,135,0,,,,,,,135,,,0.2,882.0350603465922,Y,l,go,l,1,0.5746505223214626,,,,,,,,,,,,,,,,,,72,001,21,m,Psychologie,2023-01-25_13h33.12.437,00_bat_bachelor,2022.2.4,59.942135873471976,
,,,,,,,,,,,,1,0,1,0,136,0,136,0,,,,,,,136,,,0.2,882.9190196755808,Y,None,nogo,None,1,,,,,,,,,,,,,,,,,,,72,001,21,m,Psychologie,2023-01-25_13h33.12.437,00_bat_bachelor,2022.2.4,59.942135873471976,
,,,,,,,,,,,,1,0,1,0,137,0,137,0,,,,,,,137,,,0.2,883.9199520389084,X,d,go,d,1,0.3364581528585404,,,,,,,,,,,,,,,,,,72,001,21,m,Psychologie,2023-01-25_13h33.12.437,00_bat_bachelor,2022.2.4,59.942135873471976,
,,,,,,,,,,,,1,0,1,0,138,0,138,0,,,,,,,138,,,0.2,884.5703871173318,Y,l,go,l,1,0.40681836125440896,,,,,,,,,,,,,,,,,,72,001,21,m,Psychologie,2023-01-25_13h33.12.437,00_bat_bachelor,2022.2.4,59.942135873471976,
,,,,,,,,,,,,1,0,1,0,139,0,139,0,,,,,,,139,,,0.2,885.2874025274068,X,d,go,None,0,,,,,,,,,,,,,,,,,,,72,001,21,m,Psychologie,2023-01-25_13h33.12.437,00_bat_bachelor,2022.2.4,59.942135873471976,
,,,,,,,,,,,,1,0,1,0,140,0,140,0,,,,,,,140,,,0.2,886.2882922238205,X,None,nogo,None,1,,,,,,,,,,,,,,,,,,,72,001,21,m,Psychologie,2023-01-25_13h33.12.437,00_bat_bachelor,2022.2.4,59.942135873471976,
,,,,,,,,,,,,1,0,1,0,141,0,141,0,,,,,,,141,,,0.2,887.288953556912,Y,l,go,l,1,0.599580449750647,,,,,,,,,,,,,,,,,,72,001,21,m,Psychologie,2023-01-25_13h33.12.437,00_bat_bachelor,2022.2.4,59.942135873471976,
,,,,,,,,,,,,1,0,1,0,142,0,142,0,,,,,,,142,,,0.2,888.1897589382716,X,d,go,None,0,,,,,,,,,,,,,,,,,,,72,001,21,m,Psychologie,2023-01-25_13h33.12.437,00_bat_bachelor,2022.2.4,59.942135873471976,
,,,,,,,,,,,,1,0,1,0,143,0,143,0,,,,,,,143,,,0.2,889.190316028893,Y,l,go,l,1,0.5054912832565606,,,,,,,,,,,,,,,,,,72,001,21,m,Psychologie,2023-01-25_13h33.12.437,00_bat_bachelor,2022.2.4,59.942135873471976,
,,,,,,,,,,,,1,0,1,0,144,0,144,0,,,,,,,144,,,0.2,890.0079558750149,Y,None,nogo,None,1,,,,,,,,,,,,,,,,,,,72,001,21,m,Psychologie,2023-01-25_13h33.12.437,00_bat_bachelor,2022.2.4,59.942135873471976,
,,,,,,,,,,,,1,0,1,0,145,0,145,0,,,,,,,145,,,0.2,891.0086007229984,Y,None,nogo,l,0,0.4490229468792677,,,,,,,,,,,,,,,,,,72,001,21,m,Psychologie,2023-01-25_13h33.12.437,00_bat_bachelor,2022.2.4,59.942135873471976,
,,,,,,,,,,,,1,0,1,0,146,0,146,0,,,,,,,146,,,0.2,891.759135147091,X,d,go,None,0,,892.5597965770867,,,,,,,,,,,,,,,,,72,001,21,m,Psychologie,2023-01-25_13h33.12.437,00_bat_bachelor,2022.2.4,59.942135873471976,
,,,,,,,,,,,,1,0,1,0,147,0,147,0,,,,,,,147,,,0.2,892.7596500560176,Y,l,go,l,1,0.45694148843176663,,,,,,,,,,,,,,,,,,72,001,21,m,Psychologie,2023-01-25_13h33.12.437,00_bat_bachelor,2022.2.4,59.942135873471976,
,,,,,,,,,,,,1,0,1,0,148,0,148,0,,,,,,,148,,,0.2,893.5271449566353,X,d,go,d,1,0.4566995492205024,,,,,,,,,,,,,,,,,,72,001,21,m,Psychologie,2023-01-25_13h33.12.437,00_bat_bachelor,2022.2.4,59.942135873471976,
,,,,,,,,,,,,1,0,1,0,149,0,149,0,,,,,,,149,,,0.2,894.2944216753822,X,None,nogo,l,0,0.42685374547727406,,,,,,,,,,,,,,,,,,72,001,21,m,Psychologie,2023-01-25_13h33.12.437,00_bat_bachelor,2022.2.4,59.942135873471976,
,,,,,,,,,,,,1,0,1,0,150,0,150,0,,,,,,,150,,,0.2,895.0283335619606,Y,l,go,None,0,,,,,,,,,,,,,,,,,,,72,001,21,m,Psychologie,2023-01-25_13h33.12.437,00_bat_bachelor,2022.2.4,59.942135873471976,
,,,,,,,,,,,,1,0,1,0,151,0,151,0,,,,,,,151,,,0.2,896.0290613193065,X,d,go,d,1,0.49974486185237765,,,,,,,,,,,,,,,,,,72,001,21,m,Psychologie,2023-01-25_13h33.12.437,00_bat_bachelor,2022.2.4,59.942135873471976,
,,,,,,,,,,,,1,0,1,0,152,0,152,0,,,,,,,152,,,0.2,896.829492446268,Y,l,go,l,1,0.5155320055782795,,,,,,,,,,,,,,,,,,72,001,21,m,Psychologie,2023-01-25_13h33.12.437,00_bat_bachelor,2022.2.4,59.942135873471976,
,,,,,,,,,,,,1,0,1,0,153,0,153,0,,,,,,,153,,,0.2,897.6467293833848,X,d,go,d,1,0.44953494681976736,,,,,,,,,,,,,,,,,,72,001,21,m,Psychologie,2023-01-25_13h33.12.437,00_bat_bachelor,2022.2.4,59.942135873471976,
,,,,,,,,,,,,1,0,1,0,154,0,154,0,,,,,,,154,,,0.2,898.3974378679413,Y,l,go,l,1,0.4670583321712911,,,,,,,,,,,,,,,,,,72,001,21,m,Psychologie,2023-01-25_13h33.12.437,00_bat_bachelor,2022.2.4,59.942135873471976,
,,,,,,,,,,,,1,0,1,0,155,0,155,0,,,,,,,155,,,0.2,899.164897374576,X,d,go,d,1,0.5156488539651036,,,,,,,,,,,,,,,,,,72,001,21,m,Psychologie,2023-01-25_13h33.12.437,00_bat_bachelor,2022.2.4,59.942135873471976,
,,,,,,,,,,,,1,0,1,0,156,0,156,0,,,,,,,156,,,0.2,899.981789099751,X,None,nogo,None,1,,,,,,,,,,,,,,,,,,,72,001,21,m,Psychologie,2023-01-25_13h33.12.437,00_bat_bachelor,2022.2.4,59.942135873471976,
,,,,,,,,,,,,1,0,1,0,157,0,157,0,,,,,,,157,,,0.2,900.9828717659693,Y,l,go,None,0,,,,,,,,,,,,,,,,,,,72,001,21,m,Psychologie,2023-01-25_13h33.12.437,00_bat_bachelor,2022.2.4,59.942135873471976,
,,,,,,,,,,,,1,0,1,0,158,0,158,0,,,,,,,158,,,0.2,901.9835733412765,X,d,go,d,1,0.46528766630217433,,,,,,,,,,,,,,,,,,72,001,21,m,Psychologie,2023-01-25_13h33.12.437,00_bat_bachelor,2022.2.4,59.942135873471976,
,,,,,,,,,,,,1,0,1,0,159,0,159,0,,,,,,,159,,,0.2,902.7505916361697,Y,l,go,l,1,0.4818840220104903,,,,,,,,,,,,,,,,,,72,001,21,m,Psychologie,2023-01-25_13h33.12.437,00_bat_bachelor,2022.2.4,59.942135873471976,
,,,,,,,,,,,,1,0,1,0,160,0,160,0,,,,,,,160,,,0.2,903.5348419225775,X,d,go,d,1,0.4346709540113807,,,,,,,,,,,,,,,,,,72,001,21,m,Psychologie,2023-01-25_13h33.12.437,00_bat_bachelor,2022.2.4,59.942135873471976,
,,,,,,,,,,,,1,0,1,0,161,0,161,0,,,,,,,161,,,0.2,904.2851499223616,X,None,nogo,None,1,,,,,,,,,,,,,,,,,,,72,001,21,m,Psychologie,2023-01-25_13h33.12.437,00_bat_bachelor,2022.2.4,59.942135873471976,
,,,,,,,,,,,,1,0,1,0,162,0,162,0,,,,,,,162,,,0.2,905.2861259218771,Y,l,go,l,1,0.4266568971797824,,,,,,,,,,,,,,,,,,72,001,21,m,Psychologie,2023-01-25_13h33.12.437,00_bat_bachelor,2022.2.4,59.942135873471976,
,,,,,,,,,,,,1,0,1,0,163,0,163,0,,,,,,,163,,,0.2,906.019723626785,X,d,go,d,1,0.3657250478863716,,,,,,,,,,,,,,,,,,72,001,21,m,Psychologie,2023-01-25_13h33.12.437,00_bat_bachelor,2022.2.4,59.942135873471976,
,,,,,,,,,,,,1,0,1,0,164,0,164,0,,,,,,,164,,,0.2,906.6872079093009,Y,l,go,l,1,0.4821317794267088,,,,,,,,,,,,,,,,,,72,001,21,m,Psychologie,2023-01-25_13h33.12.437,00_bat_bachelor,2022.2.4,59.942135873471976,
,,,,,,,,,,,,1,0,1,0,165,0,165,0,,,,,,,165,,,0.2,907.4710417110473,X,d,go,d,1,0.563007376389578,,,,,,,,,,,,,,,,,,72,001,21,m,Psychologie,2023-01-25_13h33.12.437,00_bat_bachelor,2022.2.4,59.942135873471976,
,,,,,,,,,,,,1,0,1,0,166,0,166,0,,,,,,,166,,,0.2,908.338450744981,X,None,nogo,l,0,0.36556747229769826,,,,,,,,,,,,,,,,,,72,001,21,m,Psychologie,2023-01-25_13h33.12.437,00_bat_bachelor,2022.2.4,59.942135873471976,
,,,,,,,,,,,,1,0,1,0,167,0,167,0,,,,,,,167,,,0.2,909.005554421572,Y,l,go,None,0,,,,,,,,,,,,,,,,,,,72,001,21,m,Psychologie,2023-01-25_13h33.12.437,00_bat_bachelor,2022.2.4,59.942135873471976,
,,,,,,,,,,,,1,0,1,0,168,0,168,0,,,,,,,168,,,0.2,910.006295269588,X,d,go,d,1,0.4427911923266947,,,,,,,,,,,,,,,,,,72,001,21,m,Psychologie,2023-01-25_13h33.12.437,00_bat_bachelor,2022.2.4,59.942135873471976,
,,,,,,,,,,,,1,0,1,0,169,0,169,0,,,,,,,169,,,0.2,910.7567075118423,X,None,nogo,l,0,0.5085763726383448,,,,,,,,,,,,,,,,,,72,001,21,m,Psychologie,2023-01-25_13h33.12.437,00_bat_bachelor,2022.2.4,59.942135873471976,
,,,,,,,,,,,,1,0,1,0,170,0,170,0,,,,,,,170,,,0.2,911.5742678428069,Y,l,go,None,0,,,,,,,,,,,,,,,,,,,72,001,21,m,Psychologie,2023-01-25_13h33.12.437,00_bat_bachelor,2022.2.4,59.942135873471976,
,,,,,,,,,,,,1,0,1,0,171,0,171,0,,,,,,,171,,,0.2,912.5747808122542,X,d,go,None,0,,913.3756352118216,,,,,,,,,,,,,,,,,72,001,21,m,Psychologie,2023-01-25_13h33.12.437,00_bat_bachelor,2022.2.4,59.942135873471976,
,,,,,,,,,,,,1,0,1,0,172,0,172,0,,,,,,,172,,,0.2,913.5754901452456,X,None,nogo,None,1,,,,,,,,,,,,,,,,,,,72,001,21,m,Psychologie,2023-01-25_13h33.12.437,00_bat_bachelor,2022.2.4,59.942135873471976,
,,,,,,,,,,,,1,0,1,0,173,0,173,0,,,,,,,173,,,0.2,914.5765694174916,Y,l,go,l,1,0.4809138404671103,,,,,,,,,,,,,,,,,,72,001,21,m,Psychologie,2023-01-25_13h33.12.437,00_bat_bachelor,2022.2.4,59.942135873471976,
,,,,,,,,,,,,1,0,1,0,174,0,174,0,,,,,,,174,,,0.2,915.3602684314828,X,d,go,d,1,0.40018369792960584,,,,,,,,,,,,,,,,,,72,001,21,m,Psychologie,2023-01-25_13h33.12.437,00_bat_bachelor,2022.2.4,59.942135873471976,
,,,,,,,,,,,,1,0,1,0,175,0,175,0,,,,,,,175,,,0.2,916.0609667582903,Y,l,go,l,1,0.4040033323690295,,,,,,,,,,,,,,,,,,72,001,21,m,Psychologie,2023-01-25_13h33.12.437,00_bat_bachelor,2022.2.4,59.942135873471976,
,,,,,,,,,,,,1,0,1,0,176,0,176,0,,,,,,,176,,,0.2,916.7782459256705,X,d,go,d,1,0.48614583793096244,,,,,,,,,,,,,,,,,,72,001,21,m,Psychologie,2023-01-25_13h33.12.437,00_bat_bachelor,2022.2.4,59.942135873471976,
,,,,,,,,,,,,1,0,1,0,177,0,177,0,,,,,,,177,,,0.2,917.5787575375289,Y,l,go,l,1,0.45412403531372547,,,,,,,,,,,,,,,,,,72,001,21,m,Psychologie,2023-01-25_13h33.12.437,00_bat_bachelor,2022.2.4,59.942135873471976,
,,,,,,,,,,,,1,0,1,0,178,0,178,0,,,,,,,178,,,0.2,918.346152074635,X,d,go,d,1,0.4387446488253772,,,,,,,,,,,,,,,,,,72,001,21,m,Psychologie,2023-01-25_13h33.12.437,00_bat_bachelor,2022.2.4,59.942135873471976,
,,,,,,,,,,,,1,0,1,0,179,0,179,0,,,,,,,179,,,0.2,919.0966729228385,Y,l,go,l,1,0.3282680963166058,,,,,,,,,,,,,,,,,,72,001,21,m,Psychologie,2023-01-25_13h33.12.437,00_bat_bachelor,2022.2.4,59.942135873471976,
,,,,,,,,,,,,1,0,1,0,180,0,180,0,,,,,,,180,,,0.2,919.7302037670743,Y,None,nogo,None,1,,,,,,,,,,,,,,,,,,,72,001,21,m,Psychologie,2023-01-25_13h33.12.437,00_bat_bachelor,2022.2.4,59.942135873471976,
,,,,,,,,,,,,1,0,1,0,181,0,181,0,,,,,,,181,,,0.2,920.7312132213265,X,d,go,d,1,0.4375262251123786,,,,,,,,,,,,,,,,,,72,001,21,m,Psychologie,2023-01-25_13h33.12.437,00_bat_bachelor,2022.2.4,59.942135873471976,
,,,,,,,,,,,,1,0,1,0,182,0,182,0,,,,,,,182,,,0.2,921.4817394027486,Y,l,go,l,1,0.39161885366775095,,,,,,,,,,,,,,,,,,72,001,21,m,Psychologie,2023-01-25_13h33.12.437,00_bat_bachelor,2022.2.4,59.942135873471976,
,,,,,,,,,,,,1,0,1,0,183,0,183,0,,,,,,,183,,,0.2,922.1823184571695,Y,None,nogo,d,0,0.3951635791454464,,,,,,,,,,,,,,,,,,72,001,21,m,Psychologie,2023-01-25_13h33.12.437,00_bat_bachelor,2022.2.4,59.942135873471976,
,,,,,,,,,,,,1,0,1,0,184,0,184,0,,,,,,,184,,,0.2,922.8828592083883,X,d,go,d,1,0.6536051509901881,,,,,,,,,,,,,,,,,,72,001,21,m,Psychologie,2023-01-25_13h33.12.437,00_bat_bachelor,2022.2.4,59.942135873471976,
,,,,,,,,,,,,1,0,1,0,185,0,185,0,,,,,,,185,,,0.2,923.8502715877257,Y,l,go,l,1,0.47019384568557143,,,,,,,,,,,,,,,,,,72,001,21,m,Psychologie,2023-01-25_13h33.12.437,00_bat_bachelor,2022.2.4,59.942135873471976,
,,,,,,,,,,,,1,0,1,0,186,0,186,0,,,,,,,186,,,0.2,924.6339444199111,X,d,go,d,1,0.5179320045281202,,,,,,,,,,,,,,,,,,72,001,21,m,Psychologie,2023-01-25_13h33.12.437,00_bat_bachelor,2022.2.4,59.942135873471976,
,,,,,,,,,,,,1,0,1,0,187,0,187,0,,,,,,,187,,,0.2,925.4681660761125,X,None,nogo,l,0,0.49979092250578105,,,,,,,,,,,,,,,,,,72,001,21,m,Psychologie,2023-01-25_13h33.12.437,00_bat_bachelor,2022.2.4,59.942135873471976,
,,,,,,,,,,,,1,0,1,0,188,0,188,0,,,,,,,188,,,0.2,926.2686772029847,Y,l,go,l,1,0.5488633834756911,,,,,,,,,,,,,,,,,,72,001,21,m,Psychologie,2023-01-25_13h33.12.437,00_bat_bachelor,2022.2.4,59.942135873471976,
,,,,,,,,,,,,1,0,1,0,189,0,189,0,,,,,,,189,,,0.2,927.1194142452441,X,d,go,d,1,0.5302883621770889,,,,,,,,,,,,,,,,,,72,001,21,m,Psychologie,2023-01-25_13h33.12.437,00_bat_bachelor,2022.2.4,59.942135873471976,
,,,,,,,,,,,,1,0,1,0,190,0,190,0,,,,,,,190,,,0.2,927.9531418408733,X,None,nogo,l,0,0.6396463697310537,,,,,,,,,,,,,,,,,,72,001,21,m,Psychologie,2023-01-25_13h33.12.437,00_bat_bachelor,2022.2.4,59.942135873471976,
,,,,,,,,,,,,1,0,1,0,191,0,191,0,,,,,,,191,,,0.2,928.9041362889111,Y,l,go,None,0,,,,,,,,,,,,,,,,,,,72,001,21,m,Psychologie,2023-01-25_13h33.12.437,00_bat_bachelor,2022.2.4,59.942135873471976,
,,,,,,,,,,,,1,0,1,0,192,0,192,0,,,,,,,192,,,0.2,929.904610470403,X,d,go,None,0,,,,,,,,,,,,,,,,,,,72,001,21,m,Psychologie,2023-01-25_13h33.12.437,00_bat_bachelor,2022.2.4,59.942135873471976,
,,,,,,,,,,,,1,0,1,0,193,0,193,0,,,,,,,193,,,0.2,930.9056097427383,X,None,nogo,d,0,0.4711407544091344,,,,,,,,,,,,,,,,,,72,001,21,m,Psychologie,2023-01-25_13h33.12.437,00_bat_bachelor,2022.2.4,59.942135873471976,
,,,,,,,,,,,,1,0,1,0,194,0,194,0,,,,,,,194,,,0.2,931.6893436657265,Y,l,go,l,1,0.4079262395389378,,,,,,,,,,,,,,,,,,72,001,21,m,Psychologie,2023-01-25_13h33.12.437,00_bat_bachelor,2022.2.4,59.942135873471976,
,,,,,,,,,,,,1,0,1,0,195,0,195,0,,,,,,,195,,,0.2,932.4068027117755,X,d,go,d,1,0.490752381272614,,,,,,,,,,,,,,,,,,72,001,21,m,Psychologie,2023-01-25_13h33.12.437,00_bat_bachelor,2022.2.4,59.942135873471976,
,,,,,,,,,,,,1,0,1,0,196,0,196,0,,,,,,,196,,,0.2,933.2073109298944,Y,l,go,l,1,0.37828116305172443,,,,,,,,,,,,,,,,,,72,001,21,m,Psychologie,2023-01-25_13h33.12.437,00_bat_bachelor,2022.2.4,59.942135873471976,
,,,,,,,,,,,,1,0,1,0,197,0,197,0,,,,,,,197,,,0.2,933.8911811436992,X,d,go,d,1,0.46163384988904,,,,,,,,,,,,,,,,,,72,001,21,m,Psychologie,2023-01-25_13h33.12.437,00_bat_bachelor,2022.2.4,59.942135873471976,
