loop_instruction.thisRepN,loop_instruction.thisTrialN,loop_instruction.thisN,loop_instruction.thisIndex,loop_rsi_practice.thisRepN,loop_rsi_practice.thisTrialN,loop_rsi_practice.thisN,loop_rsi_practice.thisIndex,loop_practice.thisRepN,loop_practice.thisTrialN,loop_practice.thisN,loop_practice.thisIndex,loop_exp.thisRepN,loop_exp.thisTrialN,loop_exp.thisN,loop_exp.thisIndex,loop_trials.thisRepN,loop_trials.thisTrialN,loop_trials.thisN,loop_trials.thisIndex,map_condition,map_x_key,map_y_key,key_resp_welcome.started,key_resp_welcome.keys,key_resp_welcome.rt,index,text_empty_rsi_practice.started,text_empty_rsi_practice.stopped,rsi,stimulus.started,stimulus.stopped,stimulus,correct,trial_type,key_resp_trial.keys,key_resp_trial.corr,key_resp_trial.rt,key_resp_instruction_rsi.started,key_resp_instruction_rsi.keys,key_resp_instruction_rsi.rt,key_resp_instruction_rsi.stopped,key_resp_instruction_final.started,key_resp_instruction_final.keys,key_resp_instruction_final.rt,key_resp_break.started,key_resp_break.keys,key_resp_break.rt,key_resp_break.stopped,key_resp_end_screen.started,image_end_screen.started,key_resp_end_screen.keys,participant,session,Alter,Geschlecht (w/m/d/andere),Studiengang,date,expName,psychopyVersion,frameRate,
,,,,0,0,0,0,0,0,0,0,,,,,,,,,1,l,d,79.1798980946187,j,9.553268246701919,0,88.75470605841838,89.76858386979438,1,89.76858386979438,90.5679740277119,X,l,go,None,0,,,,,,,,,,,,,,,,73,001,25,w,Psychologie,2023-01-25_13h39.05.967,00_bat_bachelor,2022.2.4,59.92593885879286,
,,,,0,0,0,0,1,0,1,0,,,,,,,,,,,,,,,1,91.16835579718463,92.16831943357829,1,92.16831943357829,92.96800777316093,Y,d,go,None,0,,,,,,,,,,,,,,,,73,001,25,w,Psychologie,2023-01-25_13h39.05.967,00_bat_bachelor,2022.2.4,59.92593885879286,
,,,,0,0,0,0,2,0,2,0,,,,,,,,,,,,,,,2,93.5682785124518,94.56816893664654,1,94.56816893664654,,X,l,go,l,1,0.2433178515639156,,,,,,,,,,,,,,,73,001,25,w,Psychologie,2023-01-25_13h39.05.967,00_bat_bachelor,2022.2.4,59.92593885879286,
,,,,0,0,0,0,3,0,3,0,,,,,,,,,,,,,,,3,95.51799150649458,96.51804823370185,1,96.51804823370185,,Y,d,go,d,1,0.22891688894014806,,,,,,,,,,,,,,,73,001,25,w,Psychologie,2023-01-25_13h39.05.967,00_bat_bachelor,2022.2.4,59.92593885879286,
,,,,0,0,0,0,4,0,4,0,,,,,,,,,,,,,,,4,97.45150426600594,98.45152753870934,1,98.45152753870934,99.25182727188803,Y,None,nogo,None,1,,,,,,,,,,,,,,,,73,001,25,w,Psychologie,2023-01-25_13h39.05.967,00_bat_bachelor,2022.2.4,59.92593885879286,
,,,,0,0,0,0,5,0,5,0,,,,,,,,,,,,,,,5,99.85150940541644,100.85133873880841,1,100.85133873880841,101.65136938123032,Y,None,nogo,None,1,,,,,,,,,,,,,,,,73,001,25,w,Psychologie,2023-01-25_13h39.05.967,00_bat_bachelor,2022.2.4,59.92593885879286,
,,,,0,0,0,0,6,0,6,0,,,,,,,,,,,,,,,6,102.25167309015524,103.25130993884522,1,103.25130993884522,,X,l,go,l,1,0.34424337837845087,,,,,,,,,,,,,,,73,001,25,w,Psychologie,2023-01-25_13h39.05.967,00_bat_bachelor,2022.2.4,59.92593885879286,
,,,,0,0,0,0,7,0,7,0,,,,,,,,,,,,,,,7,104.30151015694719,105.30164785380475,1,105.30164785380475,,Y,d,go,d,1,0.24552924442104995,,,,,,,,,,,,,,,73,001,25,w,Psychologie,2023-01-25_13h39.05.967,00_bat_bachelor,2022.2.4,59.92593885879286,
,,,,0,0,0,0,8,0,8,0,,,,,,,,,,,,,,,8,106.2514592721127,107.25129345396999,1,107.25129345396999,,X,l,go,l,1,0.3440295603359118,,,,,,,,,,,,,,,73,001,25,w,Psychologie,2023-01-25_13h39.05.967,00_bat_bachelor,2022.2.4,59.92593885879286,
,,,,0,0,0,0,9,0,9,0,,,,,,,,,,,,,,,9,108.3013103994308,109.3016386416275,1,109.3016386416275,,Y,d,go,d,1,0.37332360667642206,,,,,,,,,,,,,,,73,001,25,w,Psychologie,2023-01-25_13h39.05.967,00_bat_bachelor,2022.2.4,59.92593885879286,
,,,,0,0,0,0,10,0,10,0,,,,,,,,,,,,,,,10,110.38465241959784,111.38491714675911,1,111.38491714675911,112.18485372862779,Y,None,nogo,None,1,,,,,,,,,,,,,,,,73,001,25,w,Psychologie,2023-01-25_13h39.05.967,00_bat_bachelor,2022.2.4,59.92593885879286,
,,,,0,0,0,0,11,0,11,0,,,,,,,,,,,,,,,11,112.78482434677426,113.78483210434206,1,113.78483210434206,,X,l,go,l,1,0.3695068813394755,,,,,,,,,,,,,,,73,001,25,w,Psychologie,2023-01-25_13h39.05.967,00_bat_bachelor,2022.2.4,59.92593885879286,
,,,,0,0,0,0,12,0,12,0,,,,,,,,,,,,,,,12,114.86795739736408,115.86827254877426,1,115.86827254877426,,Y,d,go,d,1,0.301733338390477,,,,,,,,,,,,,,,73,001,25,w,Psychologie,2023-01-25_13h39.05.967,00_bat_bachelor,2022.2.4,59.92593885879286,
,,,,0,0,0,0,13,0,13,0,,,,,,,,,,,,,,,13,116.8848432074301,117.88496005581692,1,117.88496005581692,,X,l,go,l,1,0.38161645107902586,,,,,,,,,,,,,,,73,001,25,w,Psychologie,2023-01-25_13h39.05.967,00_bat_bachelor,2022.2.4,59.92593885879286,
,,,,0,0,0,0,14,0,14,0,,,,,,,,,,,,,,,14,118.96823371236678,119.96829383354634,1,119.96829383354634,,Y,d,go,d,1,0.2667554159415886,,,,,,,,,,,,,,,73,001,25,w,Psychologie,2023-01-25_13h39.05.967,00_bat_bachelor,2022.2.4,59.92593885879286,
,,,,1,0,1,0,0,0,0,0,,,,,,,,,,,,,,,0,131.6846037893556,131.88476466201246,0.2,131.88476466201246,,X,l,go,l,1,0.3332465352723375,120.94640245032497,j,10.715839319396764,,,,,,,,,,,,73,001,25,w,Psychologie,2023-01-25_13h39.05.967,00_bat_bachelor,2022.2.4,59.92593885879286,
,,,,1,0,1,0,1,0,1,0,,,,,,,,,,,,,,,1,132.9181590700755,133.1182651547715,0.2,133.1182651547715,,Y,d,go,d,1,0.2519282716093585,,,,,,,,,,,,,,,73,001,25,w,Psychologie,2023-01-25_13h39.05.967,00_bat_bachelor,2022.2.4,59.92593885879286,
,,,,1,0,1,0,2,0,2,0,,,,,,,,,,,,,,,2,134.08471268625,134.28471113473643,0.2,134.28471113473643,,X,l,go,l,1,0.2366298547713086,,,,,,,,,,,,,,,73,001,25,w,Psychologie,2023-01-25_13h39.05.967,00_bat_bachelor,2022.2.4,59.92593885879286,
,,,,1,0,1,0,3,0,3,0,,,,,,,,,,,,,,,3,135.2346709165722,135.43490160733927,0.2,135.43490160733927,136.23461079539265,X,None,nogo,None,1,,,,,,,,,,,,,,,,73,001,25,w,Psychologie,2023-01-25_13h39.05.967,00_bat_bachelor,2022.2.4,59.92593885879286,
,,,,1,0,1,0,4,0,4,0,,,,,,,,,,,,,,,4,136.8346231104806,137.03463658934925,0.2,137.03463658934925,,Y,d,go,d,1,0.31971442059148103,,,,,,,,,,,,,,,73,001,25,w,Psychologie,2023-01-25_13h39.05.967,00_bat_bachelor,2022.2.4,59.92593885879286,
,,,,1,0,1,0,5,0,5,0,,,,,,,,,,,,,,,5,138.06794808828272,138.268010051921,0.2,138.268010051921,,X,l,go,l,1,0.3496601029764861,,,,,,,,,,,,,,,73,001,25,w,Psychologie,2023-01-25_13h39.05.967,00_bat_bachelor,2022.2.4,59.92593885879286,
,,,,1,0,1,0,6,0,6,0,,,,,,,,,,,,,,,6,139.31816227000672,139.51822520338465,0.2,139.51822520338465,,Y,d,go,d,1,0.3158841193653643,,,,,,,,,,,,,,,73,001,25,w,Psychologie,2023-01-25_13h39.05.967,00_bat_bachelor,2022.2.4,59.92593885879286,
,,,,1,0,1,0,7,0,7,0,,,,,,,,,,,,,,,7,140.53459416504484,140.73464934085496,0.2,140.73464934085496,141.53481864987407,Y,None,nogo,None,1,,,,,,,,,,,,,,,,73,001,25,w,Psychologie,2023-01-25_13h39.05.967,00_bat_bachelor,2022.2.4,59.92593885879286,
,,,,1,0,1,0,8,0,8,0,,,,,,,,,,,,,,,8,142.13496090425178,142.33484541345388,0.2,142.33484541345388,,X,l,go,l,1,0.29987200594041497,,,,,,,,,,,,,,,73,001,25,w,Psychologie,2023-01-25_13h39.05.967,00_bat_bachelor,2022.2.4,59.92593885879286,
,,,,1,0,1,0,9,0,9,0,,,,,,,,,,,,,,,9,143.3347770498367,143.53480313473847,0.2,143.53480313473847,,Y,d,go,d,1,0.3636208235984668,,,,,,,,,,,,,,,73,001,25,w,Psychologie,2023-01-25_13h39.05.967,00_bat_bachelor,2022.2.4,59.92593885879286,
,,,,1,0,1,0,10,0,10,0,,,,,,,,,,,,,,,10,144.601316557033,144.80159330833703,0.2,144.80159330833703,,X,l,go,l,1,0.31406545359641314,,,,,,,,,,,,,,,73,001,25,w,Psychologie,2023-01-25_13h39.05.967,00_bat_bachelor,2022.2.4,59.92593885879286,
,,,,1,0,1,0,11,0,11,0,,,,,,,,,,,,,,,11,145.8181382700568,146.0181464154739,0.2,146.0181464154739,146.81794675497804,X,None,nogo,None,1,,,,,,,,,,,,,,,,73,001,25,w,Psychologie,2023-01-25_13h39.05.967,00_bat_bachelor,2022.2.4,59.92593885879286,
,,,,1,0,1,0,12,0,12,0,,,,,,,,,,,,,,,12,147.41827422147617,147.6182915790705,0.2,147.6182915790705,,Y,d,go,d,1,0.3605536735849455,,,,,,,,,,,,,,,73,001,25,w,Psychologie,2023-01-25_13h39.05.967,00_bat_bachelor,2022.2.4,59.92593885879286,
,,,,1,0,1,0,13,0,13,0,,,,,,,,,,,,,,,13,148.68480597110465,148.88495617709123,0.2,148.88495617709123,,X,l,go,l,1,0.4536542344139889,,,,,,,,,,,,,,,73,001,25,w,Psychologie,2023-01-25_13h39.05.967,00_bat_bachelor,2022.2.4,59.92593885879286,
,,,,1,0,1,0,14,0,14,0,,,,,,,,,,,,,,,14,150.0514394902857,150.25125660549384,0.2,150.25125660549384,,Y,d,go,d,1,0.3508004661416635,,,,,,,,,,,,,,,73,001,25,w,Psychologie,2023-01-25_13h39.05.967,00_bat_bachelor,2022.2.4,59.92593885879286,
,,,,,,,,,,,,,,,,,,,,,,,,,,,,,,,,,,,,,,151.34772686171345,None,,151.34772686171345,151.34772686171345,space,5.337411866523325,,,,,,,,73,001,25,w,Psychologie,2023-01-25_13h39.05.967,00_bat_bachelor,2022.2.4,59.92593885879286,
,,,,,,,,,,,,0,0,0,0,0,0,0,0,,,,,,,0,,,1,157.71792983380146,,X,l,go,l,1,0.22942549467552453,,,,,,,,,,,,,,,73,001,25,w,Psychologie,2023-01-25_13h39.05.967,00_bat_bachelor,2022.2.4,59.92593885879286,
,,,,,,,,,,,,0,0,0,0,1,0,1,0,,,,,,,1,,,1,159.05144627811387,,Y,d,go,d,1,0.22310889163054526,,,,,,,,,,,,,,,73,001,25,w,Psychologie,2023-01-25_13h39.05.967,00_bat_bachelor,2022.2.4,59.92593885879286,
,,,,,,,,,,,,0,0,0,0,2,0,2,0,,,,,,,2,,,1,160.38494090433232,,X,l,go,l,1,0.20158405369147658,,,,,,,,,,,,,,,73,001,25,w,Psychologie,2023-01-25_13h39.05.967,00_bat_bachelor,2022.2.4,59.92593885879286,
,,,,,,,,,,,,0,0,0,0,3,0,3,0,,,,,,,3,,,1,161.7014857205795,,Y,d,go,d,1,0.32576193287968636,,,,,,,,,,,,,,,73,001,25,w,Psychologie,2023-01-25_13h39.05.967,00_bat_bachelor,2022.2.4,59.92593885879286,
,,,,,,,,,,,,0,0,0,0,4,0,4,0,,,,,,,4,,,1,163.13494248013012,,X,l,go,l,1,0.2838109228760004,,,,,,,,,,,,,,,73,001,25,w,Psychologie,2023-01-25_13h39.05.967,00_bat_bachelor,2022.2.4,59.92593885879286,
,,,,,,,,,,,,0,0,0,0,5,0,5,0,,,,,,,5,,,1,164.53481477103196,165.33478577714413,X,None,nogo,None,1,,,,,,,,,,,,,,,,73,001,25,w,Psychologie,2023-01-25_13h39.05.967,00_bat_bachelor,2022.2.4,59.92593885879286,
,,,,,,,,,,,,0,0,0,0,6,0,6,0,,,,,,,6,,,1,166.3347925649723,,Y,d,go,d,1,0.36401306581683457,,,,,,,,,,,,,,,73,001,25,w,Psychologie,2023-01-25_13h39.05.967,00_bat_bachelor,2022.2.4,59.92593885879286,
,,,,,,,,,,,,0,0,0,0,7,0,7,0,,,,,,,7,,,1,167.8013373084832,,X,l,go,l,1,0.38531826762482524,,,,,,,,,,,,,,,73,001,25,w,Psychologie,2023-01-25_13h39.05.967,00_bat_bachelor,2022.2.4,59.92593885879286,
,,,,,,,,,,,,0,0,0,0,8,0,8,0,,,,,,,8,,,1,169.30151597503573,,X,None,nogo,l,0,0.35695755400229245,,,,,,,,,,,,,,,73,001,25,w,Psychologie,2023-01-25_13h39.05.967,00_bat_bachelor,2022.2.4,59.92593885879286,
,,,,,,,,,,,,0,0,0,0,9,0,9,0,,,,,,,9,,,1,170.76795890042558,,Y,d,go,d,1,0.3945997175760567,,,,,,,,,,,,,,,73,001,25,w,Psychologie,2023-01-25_13h39.05.967,00_bat_bachelor,2022.2.4,59.92593885879286,
,,,,,,,,,,,,0,0,0,0,10,0,10,0,,,,,,,10,,,1,172.26881053636316,,X,l,go,l,1,0.5255615934729576,,,,,,,,,,,,,,,73,001,25,w,Psychologie,2023-01-25_13h39.05.967,00_bat_bachelor,2022.2.4,59.92593885879286,
,,,,,,,,,,,,0,0,0,0,11,0,11,0,,,,,,,11,,,1,173.91858719103038,,Y,d,go,d,1,0.44356793630868196,,,,,,,,,,,,,,,73,001,25,w,Psychologie,2023-01-25_13h39.05.967,00_bat_bachelor,2022.2.4,59.92593885879286,
,,,,,,,,,,,,0,0,0,0,12,0,12,0,,,,,,,12,,,1,175.46854086383246,,X,l,go,l,1,0.3011364901904017,,,,,,,,,,,,,,,73,001,25,w,Psychologie,2023-01-25_13h39.05.967,00_bat_bachelor,2022.2.4,59.92593885879286,
,,,,,,,,,,,,0,0,0,0,13,0,13,0,,,,,,,13,,,1,176.88459932873957,,Y,d,go,d,1,0.4064440755173564,,,,,,,,,,,,,,,73,001,25,w,Psychologie,2023-01-25_13h39.05.967,00_bat_bachelor,2022.2.4,59.92593885879286,
,,,,,,,,,,,,0,0,0,0,14,0,14,0,,,,,,,14,,,1,178.40163180534728,,X,l,go,l,1,0.5052663306705654,,,,,,,,,,,,,,,73,001,25,w,Psychologie,2023-01-25_13h39.05.967,00_bat_bachelor,2022.2.4,59.92593885879286,
,,,,,,,,,,,,0,0,0,0,15,0,15,0,,,,,,,15,,,1,180.01812023366801,180.81819742149673,X,None,nogo,None,1,,,,,,,,,,,,,,,,73,001,25,w,Psychologie,2023-01-25_13h39.05.967,00_bat_bachelor,2022.2.4,59.92593885879286,
,,,,,,,,,,,,0,0,0,0,16,0,16,0,,,,,,,16,,,1,181.81803936103825,,Y,d,go,d,1,0.33585550368297845,,,,,,,,,,,,,,,73,001,25,w,Psychologie,2023-01-25_13h39.05.967,00_bat_bachelor,2022.2.4,59.92593885879286,
,,,,,,,,,,,,0,0,0,0,17,0,17,0,,,,,,,17,,,1,183.26789174892474,,X,l,go,l,1,0.279273712891154,,,,,,,,,,,,,,,73,001,25,w,Psychologie,2023-01-25_13h39.05.967,00_bat_bachelor,2022.2.4,59.92593885879286,
,,,,,,,,,,,,0,0,0,0,18,0,18,0,,,,,,,18,,,1,184.65117495704908,,Y,d,go,d,1,0.39903607906308025,,,,,,,,,,,,,,,73,001,25,w,Psychologie,2023-01-25_13h39.05.967,00_bat_bachelor,2022.2.4,59.92593885879286,
,,,,,,,,,,,,0,0,0,0,19,0,19,0,,,,,,,19,,,1,186.15123144187964,,X,l,go,l,1,0.4352169099729508,,,,,,,,,,,,,,,73,001,25,w,Psychologie,2023-01-25_13h39.05.967,00_bat_bachelor,2022.2.4,59.92593885879286,
,,,,,,,,,,,,0,0,0,0,20,0,20,0,,,,,,,20,,,1,187.70142172055785,188.50158327200916,X,None,nogo,None,1,,,,,,,,,,,,,,,,73,001,25,w,Psychologie,2023-01-25_13h39.05.967,00_bat_bachelor,2022.2.4,59.92593885879286,
,,,,,,,,,,,,0,0,0,0,21,0,21,0,,,,,,,21,,,1,189.50125163584016,,Y,d,go,l,0,0.3165503009222448,,,,,,,,,,,,,,,73,001,25,w,Psychologie,2023-01-25_13h39.05.967,00_bat_bachelor,2022.2.4,59.92593885879286,
,,,,,,,,,,,,0,0,0,0,22,0,22,0,,,,,,,22,,,1,190.91831519117113,,X,l,go,l,1,0.4046898945234716,,,,,,,,,,,,,,,73,001,25,w,Psychologie,2023-01-25_13h39.05.967,00_bat_bachelor,2022.2.4,59.92593885879286,
,,,,,,,,,,,,0,0,0,0,23,0,23,0,,,,,,,23,,,1,192.43458984990139,,Y,d,go,d,1,0.23192682676017284,,,,,,,,,,,,,,,73,001,25,w,Psychologie,2023-01-25_13h39.05.967,00_bat_bachelor,2022.2.4,59.92593885879286,
,,,,,,,,,,,,0,0,0,0,24,0,24,0,,,,,,,24,,,1,193.76802387007046,194.5680084519554,Y,None,nogo,None,1,,,,,,,,,,,,,,,,73,001,25,w,Psychologie,2023-01-25_13h39.05.967,00_bat_bachelor,2022.2.4,59.92593885879286,
,,,,,,,,,,,,0,0,0,0,25,0,25,0,,,,,,,25,,,1,195.56817184574902,196.36789848830085,Y,None,nogo,None,1,,,,,,,,,,,,,,,,73,001,25,w,Psychologie,2023-01-25_13h39.05.967,00_bat_bachelor,2022.2.4,59.92593885879286,
,,,,,,,,,,,,0,0,0,0,26,0,26,0,,,,,,,26,,,1,197.36792370048352,,X,l,go,l,1,0.21012756461277604,,,,,,,,,,,,,,,73,001,25,w,Psychologie,2023-01-25_13h39.05.967,00_bat_bachelor,2022.2.4,59.92593885879286,
,,,,,,,,,,,,0,0,0,0,27,0,27,0,,,,,,,27,,,1,198.68491409218404,,Y,d,go,d,1,0.39781571610365063,,,,,,,,,,,,,,,73,001,25,w,Psychologie,2023-01-25_13h39.05.967,00_bat_bachelor,2022.2.4,59.92593885879286,
,,,,,,,,,,,,0,0,0,0,28,0,28,0,,,,,,,28,,,1,200.1846268195659,,Y,None,nogo,d,0,0.4655873195733875,,,,,,,,,,,,,,,73,001,25,w,Psychologie,2023-01-25_13h39.05.967,00_bat_bachelor,2022.2.4,59.92593885879286,
,,,,,,,,,,,,0,0,0,0,29,0,29,0,,,,,,,29,,,1,201.75125296914484,,X,l,go,l,1,0.33940362313296646,,,,,,,,,,,,,,,73,001,25,w,Psychologie,2023-01-25_13h39.05.967,00_bat_bachelor,2022.2.4,59.92593885879286,
,,,,,,,,,,,,0,0,0,0,30,0,30,0,,,,,,,30,,,1,203.20142826600932,,Y,d,go,d,1,0.28164704516530037,,,,,,,,,,,,,,,73,001,25,w,Psychologie,2023-01-25_13h39.05.967,00_bat_bachelor,2022.2.4,59.92593885879286,
,,,,,,,,,,,,0,0,0,0,31,0,31,0,,,,,,,31,,,1,204.58483947406057,,X,l,go,l,1,0.30611491203308105,,,,,,,,,,,,,,,73,001,25,w,Psychologie,2023-01-25_13h39.05.967,00_bat_bachelor,2022.2.4,59.92593885879286,
,,,,,,,,,,,,0,0,0,0,32,0,32,0,,,,,,,32,,,1,206.0012416964164,,Y,d,go,d,1,0.3460935592884198,,,,,,,,,,,,,,,73,001,25,w,Psychologie,2023-01-25_13h39.05.967,00_bat_bachelor,2022.2.4,59.92593885879286,
,,,,,,,,,,,,0,0,0,0,33,0,33,0,,,,,,,33,,,1,207.45142717508134,,X,l,go,l,1,0.30324461043346673,,,,,,,,,,,,,,,73,001,25,w,Psychologie,2023-01-25_13h39.05.967,00_bat_bachelor,2022.2.4,59.92593885879286,
,,,,,,,,,,,,0,0,0,0,34,0,34,0,,,,,,,34,,,1,208.86825606389903,,Y,d,go,d,1,0.2791045008925721,,,,,,,,,,,,,,,73,001,25,w,Psychologie,2023-01-25_13h39.05.967,00_bat_bachelor,2022.2.4,59.92593885879286,
,,,,,,,,,,,,0,0,0,0,35,0,35,0,,,,,,,35,,,1,210.2514592721127,211.05156409624033,Y,None,nogo,None,1,,,,,,,,,,,,,,,,73,001,25,w,Psychologie,2023-01-25_13h39.05.967,00_bat_bachelor,2022.2.4,59.92593885879286,
,,,,,,,,,,,,0,0,0,0,36,0,36,0,,,,,,,36,,,1,212.05120142980013,,X,l,go,l,1,0.21410719898995012,,,,,,,,,,,,,,,73,001,25,w,Psychologie,2023-01-25_13h39.05.967,00_bat_bachelor,2022.2.4,59.92593885879286,
,,,,,,,,,,,,0,0,0,0,37,0,37,0,,,,,,,37,,,1,213.36821170034818,,Y,d,go,d,1,0.27516365435440093,,,,,,,,,,,,,,,73,001,25,w,Psychologie,2023-01-25_13h39.05.967,00_bat_bachelor,2022.2.4,59.92593885879286,
,,,,,,,,,,,,0,0,0,0,38,0,38,0,,,,,,,38,,,1,214.75125442363787,,X,l,go,l,1,0.26682620379142463,,,,,,,,,,,,,,,73,001,25,w,Psychologie,2023-01-25_13h39.05.967,00_bat_bachelor,2022.2.4,59.92593885879286,
,,,,,,,,,,,,0,0,0,0,39,0,39,0,,,,,,,39,,,1,216.11809157917742,216.91820416087285,X,None,nogo,None,1,,,,,,,,,,,,,,,,73,001,25,w,Psychologie,2023-01-25_13h39.05.967,00_bat_bachelor,2022.2.4,59.92593885879286,
,,,,,,,,,,,,0,0,0,0,40,0,40,0,,,,,,,40,,,1,217.91821143368725,,Y,d,go,d,1,0.26814838487189263,,,,,,,,,,,,,,,73,001,25,w,Psychologie,2023-01-25_13h39.05.967,00_bat_bachelor,2022.2.4,59.92593885879286,
,,,,,,,,,,,,0,0,0,0,41,0,41,0,,,,,,,41,,,1,219.30154845991638,,X,l,go,l,1,0.37304724322166294,,,,,,,,,,,,,,,73,001,25,w,Psychologie,2023-01-25_13h39.05.967,00_bat_bachelor,2022.2.4,59.92593885879286,
,,,,,,,,,,,,0,0,0,0,42,0,42,0,,,,,,,42,,,1,220.78475598315708,221.58453741355333,X,None,nogo,None,1,,,,,,,,,,,,,,,,73,001,25,w,Psychologie,2023-01-25_13h39.05.967,00_bat_bachelor,2022.2.4,59.92593885879286,
,,,,,,,,,,,,0,0,0,0,43,0,43,0,,,,,,,43,,,1,222.58473183773458,,Y,d,go,d,1,0.2572489962913096,,,,,,,,,,,,,,,73,001,25,w,Psychologie,2023-01-25_13h39.05.967,00_bat_bachelor,2022.2.4,59.92593885879286,
,,,,,,,,,,,,0,0,0,0,44,0,44,0,,,,,,,44,,,1,223.95126305392478,,X,l,go,l,1,0.3317944146692753,,,,,,,,,,,,,,,73,001,25,w,Psychologie,2023-01-25_13h39.05.967,00_bat_bachelor,2022.2.4,59.92593885879286,
,,,,,,,,,,,,0,0,0,0,45,0,45,0,,,,,,,45,,,1,225.3848318135133,,Y,d,go,d,1,0.2728872917359695,,,,,,,,,,,,,,,73,001,25,w,Psychologie,2023-01-25_13h39.05.967,00_bat_bachelor,2022.2.4,59.92593885879286,
,,,,,,,,,,,,0,0,0,0,46,0,46,0,,,,,,,46,,,1,226.76789150654804,,Y,None,nogo,l,0,0.33033599122427404,,,,,,,,,,,,,,,73,001,25,w,Psychologie,2023-01-25_13h39.05.967,00_bat_bachelor,2022.2.4,59.92593885879286,
,,,,,,,,,,,,0,0,0,0,47,0,47,0,,,,,,,47,,,1,228.20141275087371,,X,l,go,l,1,0.38484990410506725,,,,,,,,,,,,,,,73,001,25,w,Psychologie,2023-01-25_13h39.05.967,00_bat_bachelor,2022.2.4,59.92593885879286,
,,,,,,,,,,,,0,0,0,0,48,0,48,0,,,,,,,48,,,1,229.7012079025153,,Y,d,go,d,1,0.30970521341077983,,,,,,,,,,,,,,,73,001,25,w,Psychologie,2023-01-25_13h39.05.967,00_bat_bachelor,2022.2.4,59.92593885879286,
,,,,,,,,,,,,0,0,0,0,49,0,49,0,,,,,,,49,,,1,231.11790151859168,,Y,None,nogo,l,0,0.2198667114134878,,,,,,,,,,,,,,,73,001,25,w,Psychologie,2023-01-25_13h39.05.967,00_bat_bachelor,2022.2.4,59.92593885879286,
,,,,,,,,,,,,0,0,0,0,50,0,50,0,,,,,,,50,,,1,232.45122014486697,,X,l,go,l,1,0.24708512239158154,,,,,,,,,,,,,,,73,001,25,w,Psychologie,2023-01-25_13h39.05.967,00_bat_bachelor,2022.2.4,59.92593885879286,
,,,,,,,,,,,,0,0,0,0,51,0,51,0,,,,,,,51,,,1,233.80152445996646,,Y,d,go,d,1,0.3046744278399274,,,,,,,,,,,,,,,73,001,25,w,Psychologie,2023-01-25_13h39.05.967,00_bat_bachelor,2022.2.4,59.92593885879286,
,,,,,,,,,,,,0,0,0,0,52,0,52,0,,,,,,,52,,,1,235.21783650049474,,X,l,go,l,1,0.2963185531552881,,,,,,,,,,,,,,,73,001,25,w,Psychologie,2023-01-25_13h39.05.967,00_bat_bachelor,2022.2.4,59.92593885879286,
,,,,,,,,,,,,0,0,0,0,53,0,53,0,,,,,,,53,,,1,236.6180835791165,237.41788488836028,X,None,nogo,None,1,,,,,,,,,,,,,,,,73,001,25,w,Psychologie,2023-01-25_13h39.05.967,00_bat_bachelor,2022.2.4,59.92593885879286,
,,,,,,,,,,,,0,0,0,0,54,0,54,0,,,,,,,54,,,1,238.4180211307248,,Y,d,go,d,1,0.29699297703336924,,,,,,,,,,,,,,,73,001,25,w,Psychologie,2023-01-25_13h39.05.967,00_bat_bachelor,2022.2.4,59.92593885879286,
,,,,,,,,,,,,0,0,0,0,55,0,55,0,,,,,,,55,,,1,239.81835693656467,,X,l,go,l,1,0.3039204888045788,,,,,,,,,,,,,,,73,001,25,w,Psychologie,2023-01-25_13h39.05.967,00_bat_bachelor,2022.2.4,59.92593885879286,
,,,,,,,,,,,,0,0,0,0,56,0,56,0,,,,,,,56,,,1,241.23453273484483,,Y,d,go,d,1,0.3437289544381201,,,,,,,,,,,,,,,73,001,25,w,Psychologie,2023-01-25_13h39.05.967,00_bat_bachelor,2022.2.4,59.92593885879286,
,,,,,,,,,,,,0,0,0,0,57,0,57,0,,,,,,,57,,,1,242.6845460924087,,X,l,go,l,1,0.28584631567355245,,,,,,,,,,,,,,,73,001,25,w,Psychologie,2023-01-25_13h39.05.967,00_bat_bachelor,2022.2.4,59.92593885879286,
,,,,,,,,,,,,0,0,0,0,58,0,58,0,,,,,,,58,,,1,244.08582298876718,,Y,d,go,d,1,0.27596607815939933,,,,,,,,,,,,,,,73,001,25,w,Psychologie,2023-01-25_13h39.05.967,00_bat_bachelor,2022.2.4,59.92593885879286,
,,,,,,,,,,,,0,0,0,0,59,0,59,0,,,,,,,59,,,1,245.5019168476574,,X,l,go,l,1,0.2678414760157466,,,,,,,,,,,,,,,73,001,25,w,Psychologie,2023-01-25_13h39.05.967,00_bat_bachelor,2022.2.4,59.92593885879286,
,,,,,,,,,,,,0,0,0,0,60,0,60,0,,,,,,,60,,,1,246.90172853250988,,Y,d,go,d,1,0.27644801733549684,,,,,,,,,,,,,,,73,001,25,w,Psychologie,2023-01-25_13h39.05.967,00_bat_bachelor,2022.2.4,59.92593885879286,
,,,,,,,,,,,,0,0,0,0,61,0,61,0,,,,,,,61,,,1,248.28537828591652,,X,l,go,l,1,0.30133333848789334,,,,,,,,,,,,,,,73,001,25,w,Psychologie,2023-01-25_13h39.05.967,00_bat_bachelor,2022.2.4,59.92593885879286,
,,,,,,,,,,,,0,0,0,0,62,0,62,0,,,,,,,62,,,1,249.70186584151816,,Y,d,go,d,1,0.26063178258482367,,,,,,,,,,,,,,,73,001,25,w,Psychologie,2023-01-25_13h39.05.967,00_bat_bachelor,2022.2.4,59.92593885879286,
,,,,,,,,,,,,0,0,0,0,63,0,63,0,,,,,,,63,,,1,251.08554711006582,,Y,None,nogo,l,0,0.2998385514365509,,,,,,,,,,,,,,,73,001,25,w,Psychologie,2023-01-25_13h39.05.967,00_bat_bachelor,2022.2.4,59.92593885879286,
,,,,,,,,,,,,0,0,0,0,64,0,64,0,,,,,,,64,,,1,252.51864265766926,,X,l,go,l,1,0.5471261891070753,,,,,,,,,,,,,,,73,001,25,w,Psychologie,2023-01-25_13h39.05.967,00_bat_bachelor,2022.2.4,59.92593885879286,
,,,,,,,,,,,,0,0,0,0,65,0,65,0,,,,,,,65,,,1,254.1850205163937,,Y,d,go,d,1,0.25691396615002304,,,,,,,,,,,,,,,73,001,25,w,Psychologie,2023-01-25_13h39.05.967,00_bat_bachelor,2022.2.4,59.92593885879286,
,,,,,,,,,,,,0,0,0,0,66,0,66,0,,,,,,,66,,,1,255.55176458100323,256.3519644354237,Y,None,nogo,None,1,,,,,,,,,,,,,,,,73,001,25,w,Psychologie,2023-01-25_13h39.05.967,00_bat_bachelor,2022.2.4,59.92593885879286,
,,,,,,,,,,,,0,0,0,0,67,0,67,0,,,,,,,67,,,1,257.3518020112533,,X,l,go,l,1,0.2108766551828012,,,,,,,,,,,,,,,73,001,25,w,Psychologie,2023-01-25_13h39.05.967,00_bat_bachelor,2022.2.4,59.92593885879286,
,,,,,,,,,,,,0,0,0,0,68,0,68,0,,,,,,,68,,,1,258.6684210093226,,Y,d,go,d,1,0.2542594219557941,,,,,,,,,,,,,,,73,001,25,w,Psychologie,2023-01-25_13h39.05.967,00_bat_bachelor,2022.2.4,59.92593885879286,
,,,,,,,,,,,,0,0,0,0,69,0,69,0,,,,,,,69,,,1,260.0351408314891,,X,l,go,l,1,0.29536097776144743,,,,,,,,,,,,,,,73,001,25,w,Psychologie,2023-01-25_13h39.05.967,00_bat_bachelor,2022.2.4,59.92593885879286,
,,,,,,,,,,,,0,0,0,0,70,0,70,0,,,,,,,70,,,1,261.43506984971464,,Y,d,go,d,1,0.35041064815595746,,,,,,,,,,,,,,,73,001,25,w,Psychologie,2023-01-25_13h39.05.967,00_bat_bachelor,2022.2.4,59.92593885879286,
,,,,,,,,,,,,0,0,0,0,71,0,71,0,,,,,,,71,,,1,262.90180077496916,,X,l,go,l,1,0.24316124548204243,,,,,,,,,,,,,,,73,001,25,w,Psychologie,2023-01-25_13h39.05.967,00_bat_bachelor,2022.2.4,59.92593885879286,
,,,,,,,,,,,,0,0,0,0,72,0,72,0,,,,,,,72,,,1,264.2685797485756,,Y,d,go,d,1,0.2858099521836266,,,,,,,,,,,,,,,73,001,25,w,Psychologie,2023-01-25_13h39.05.967,00_bat_bachelor,2022.2.4,59.92593885879286,
,,,,,,,,,,,,0,0,0,0,73,0,73,0,,,,,,,73,,,1,265.668566463748,,X,l,go,l,1,0.27800777403172106,,,,,,,,,,,,,,,73,001,25,w,Psychologie,2023-01-25_13h39.05.967,00_bat_bachelor,2022.2.4,59.92593885879286,
,,,,,,,,,,,,0,0,0,0,74,0,74,0,,,,,,,74,,,1,267.0519447021652,,Y,d,go,d,1,0.3989366851747036,,,,,,,,,,,,,,,73,001,25,w,Psychologie,2023-01-25_13h39.05.967,00_bat_bachelor,2022.2.4,59.92593885879286,
,,,,,,,,,,,,0,0,0,0,75,0,75,0,,,,,,,75,,,1,268.55173452047165,,X,l,go,l,1,0.2427127609262243,,,,,,,,,,,,,,,73,001,25,w,Psychologie,2023-01-25_13h39.05.967,00_bat_bachelor,2022.2.4,59.92593885879286,
,,,,,,,,,,,,0,0,0,0,76,0,76,0,,,,,,,76,,,1,269.9017455022549,,Y,d,go,d,1,0.23574888554867357,,,,,,,,,,,,,,,73,001,25,w,Psychologie,2023-01-25_13h39.05.967,00_bat_bachelor,2022.2.4,59.92593885879286,
,,,,,,,,,,,,0,0,0,0,77,0,77,0,,,,,,,77,,,1,271.26842071837746,272.06858566380106,Y,None,nogo,None,1,,,,,,,,,,,,,,,,73,001,25,w,Psychologie,2023-01-25_13h39.05.967,00_bat_bachelor,2022.2.4,59.92593885879286,
,,,,,,,,,,,,0,0,0,0,78,0,78,0,,,,,,,78,,,1,273.0684101487277,,X,l,go,l,1,0.23727276362478733,,,,,,,,,,,,,,,73,001,25,w,Psychologie,2023-01-25_13h39.05.967,00_bat_bachelor,2022.2.4,59.92593885879286,
,,,,,,,,,,,,0,0,0,0,79,0,79,0,,,,,,,79,,,1,274.41858597891405,,Y,d,go,d,1,0.2314322815509513,,,,,,,,,,,,,,,73,001,25,w,Psychologie,2023-01-25_13h39.05.967,00_bat_bachelor,2022.2.4,59.92593885879286,
,,,,,,,,,,,,0,0,0,0,80,0,80,0,,,,,,,80,,,1,275.75167672650423,,X,l,go,l,1,0.22632682952098548,,,,,,,,,,,,,,,73,001,25,w,Psychologie,2023-01-25_13h39.05.967,00_bat_bachelor,2022.2.4,59.92593885879286,
,,,,,,,,,,,,0,0,0,0,81,0,81,0,,,,,,,81,,,1,277.08548359491397,,Y,d,go,d,1,0.25356511934660375,,,,,,,,,,,,,,,73,001,25,w,Psychologie,2023-01-25_13h39.05.967,00_bat_bachelor,2022.2.4,59.92593885879286,
,,,,,,,,,,,,0,0,0,0,82,0,82,0,,,,,,,82,,,1,278.4517699627904,279.2517409689026,Y,None,nogo,None,1,,,,,,,,,,,,,,,,73,001,25,w,Psychologie,2023-01-25_13h39.05.967,00_bat_bachelor,2022.2.4,59.92593885879286,
,,,,,,,,,,,,0,0,0,0,83,0,83,0,,,,,,,83,,,1,280.2520449687727,,X,l,go,l,1,0.22108028654474765,,,,,,,,,,,,,,,73,001,25,w,Psychologie,2023-01-25_13h39.05.967,00_bat_bachelor,2022.2.4,59.92593885879286,
,,,,,,,,,,,,0,0,0,0,84,0,84,0,,,,,,,84,,,1,281.60200649604667,,Y,d,go,d,1,0.23238937195856124,,,,,,,,,,,,,,,73,001,25,w,Psychologie,2023-01-25_13h39.05.967,00_bat_bachelor,2022.2.4,59.92593885879286,
,,,,,,,,,,,,0,0,0,0,85,0,85,0,,,,,,,85,,,1,282.935025001294,,X,l,go,l,1,0.3708183958660811,,,,,,,,,,,,,,,73,001,25,w,Psychologie,2023-01-25_13h39.05.967,00_bat_bachelor,2022.2.4,59.92593885879286,
,,,,,,,,,,,,0,0,0,0,86,0,86,0,,,,,,,86,,,1,284.4183634335641,285.21826413669623,X,None,nogo,None,1,,,,,,,,,,,,,,,,73,001,25,w,Psychologie,2023-01-25_13h39.05.967,00_bat_bachelor,2022.2.4,59.92593885879286,
,,,,,,,,,,,,0,0,0,0,87,0,87,0,,,,,,,87,,,1,286.2182854699204,,Y,d,go,d,1,0.4323020023293793,,,,,,,,,,,,,,,73,001,25,w,Psychologie,2023-01-25_13h39.05.967,00_bat_bachelor,2022.2.4,59.92593885879286,
,,,,,,,,,,,,0,0,0,0,88,0,88,0,,,,,,,88,,,1,287.7511705448851,,X,l,go,l,1,0.3385110175004229,,,,,,,,,,,,,,,73,001,25,w,Psychologie,2023-01-25_13h39.05.967,00_bat_bachelor,2022.2.4,59.92593885879286,
,,,,,,,,,,,,0,0,0,0,89,0,89,0,,,,,,,89,,,1,289.20105978136417,,X,None,nogo,d,0,0.248959545744583,,,,,,,,,,,,,,,73,001,25,w,Psychologie,2023-01-25_13h39.05.967,00_bat_bachelor,2022.2.4,59.92593885879286,
,,,,,,,,,,,,0,0,0,0,90,0,90,0,,,,,,,90,,,1,290.55120991461445,,Y,d,go,d,1,0.2439859724836424,,,,,,,,,,,,,,,73,001,25,w,Psychologie,2023-01-25_13h39.05.967,00_bat_bachelor,2022.2.4,59.92593885879286,
,,,,,,,,,,,,0,0,0,0,91,0,91,0,,,,,,,91,,,1,291.90151956293266,,X,l,go,l,1,0.3007069146260619,,,,,,,,,,,,,,,73,001,25,w,Psychologie,2023-01-25_13h39.05.967,00_bat_bachelor,2022.2.4,59.92593885879286,
,,,,,,,,,,,,0,0,0,0,92,0,92,0,,,,,,,92,,,1,293.3180109973764,,Y,d,go,d,1,0.26117820653598756,,,,,,,,,,,,,,,73,001,25,w,Psychologie,2023-01-25_13h39.05.967,00_bat_bachelor,2022.2.4,59.92593885879286,
,,,,,,,,,,,,0,0,0,0,93,0,93,0,,,,,,,93,,,1,294.6849077892257,,X,l,go,l,1,0.31689793709665537,,,,,,,,,,,,,,,73,001,25,w,Psychologie,2023-01-25_13h39.05.967,00_bat_bachelor,2022.2.4,59.92593885879286,
,,,,,,,,,,,,0,0,0,0,94,0,94,0,,,,,,,94,,,1,296.1014418902341,,Y,d,go,d,1,0.4367262425366789,,,,,,,,,,,,,,,73,001,25,w,Psychologie,2023-01-25_13h39.05.967,00_bat_bachelor,2022.2.4,59.92593885879286,
,,,,,,,,,,,,0,0,0,0,95,0,95,0,,,,,,,95,,,1,297.65125059336424,,X,l,go,l,1,0.3753153634024784,,,,,,,,,,,,,,,73,001,25,w,Psychologie,2023-01-25_13h39.05.967,00_bat_bachelor,2022.2.4,59.92593885879286,
,,,,,,,,,,,,0,0,0,0,96,0,96,0,,,,,,,96,,,1,299.1347267226083,299.9345280317357,X,None,nogo,None,1,,,,,,,,,,,,,,,,73,001,25,w,Psychologie,2023-01-25_13h39.05.967,00_bat_bachelor,2022.2.4,59.92593885879286,
,,,,,,,,,,,,0,0,0,0,97,0,97,0,,,,,,,97,,,1,300.9345396681456,,Y,d,go,d,1,0.37207560730166733,,,,,,,,,,,,,,,73,001,25,w,Psychologie,2023-01-25_13h39.05.967,00_bat_bachelor,2022.2.4,59.92593885879286,
,,,,,,,,,,,,0,0,0,0,98,0,98,0,,,,,,,98,,,1,302.41785773681477,,X,l,go,l,1,0.3443689540727064,,,,,,,,,,,,,,,73,001,25,w,Psychologie,2023-01-25_13h39.05.967,00_bat_bachelor,2022.2.4,59.92593885879286,
,,,,,,,,,,,,0,0,0,0,99,0,99,0,,,,,,,99,,,1,303.86810285190586,,Y,d,go,d,1,0.43168188142590225,,,,,,,,,,,,,,,73,001,25,w,Psychologie,2023-01-25_13h39.05.967,00_bat_bachelor,2022.2.4,59.92593885879286,
,,,,,,,,,,,,0,0,0,0,100,0,100,0,,,,,,,100,,,1,305.4011784722097,,X,l,go,l,1,0.27367662475444376,,,,,,,,,,,,,,,73,001,25,w,Psychologie,2023-01-25_13h39.05.967,00_bat_bachelor,2022.2.4,59.92593885879286,
,,,,,,,,,,,,0,0,0,0,101,0,101,0,,,,,,,101,,,1,306.7847370741656,,Y,d,go,d,1,0.2819437722209841,,,,,,,,,,,,,,,73,001,25,w,Psychologie,2023-01-25_13h39.05.967,00_bat_bachelor,2022.2.4,59.92593885879286,
,,,,,,,,,,,,0,0,0,0,102,0,102,0,,,,,,,102,,,1,308.16785931261256,,X,l,go,l,1,0.3059786695521325,,,,,,,,,,,,,,,73,001,25,w,Psychologie,2023-01-25_13h39.05.967,00_bat_bachelor,2022.2.4,59.92593885879286,
,,,,,,,,,,,,0,0,0,0,103,0,103,0,,,,,,,103,,,1,309.58543971623294,,Y,d,go,d,1,0.2801891063572839,,,,,,,,,,,,,,,73,001,25,w,Psychologie,2023-01-25_13h39.05.967,00_bat_bachelor,2022.2.4,59.92593885879286,
,,,,,,,,,,,,0,0,0,0,104,0,104,0,,,,,,,104,,,1,311.00253624119796,,X,l,go,l,1,0.3508591328281909,,,,,,,,,,,,,,,73,001,25,w,Psychologie,2023-01-25_13h39.05.967,00_bat_bachelor,2022.2.4,59.92593885879286,
,,,,,,,,,,,,0,0,0,0,105,0,105,0,,,,,,,105,,,1,312.50226933229715,,Y,d,go,d,1,0.38765232695732266,,,,,,,,,,,,,,,73,001,25,w,Psychologie,2023-01-25_13h39.05.967,00_bat_bachelor,2022.2.4,59.92593885879286,
,,,,,,,,,,,,0,0,0,0,106,0,106,0,,,,,,,106,,,1,314.0186317486223,314.81863717886154,Y,None,nogo,None,1,,,,,,,,,,,,,,,,73,001,25,w,Psychologie,2023-01-25_13h39.05.967,00_bat_bachelor,2022.2.4,59.92593885879286,
,,,,,,,,,,,,0,0,0,0,107,0,107,0,,,,,,,107,,,1,315.81853633048013,,X,l,go,l,1,0.30312533769756556,,,,,,,,,,,,,,,73,001,25,w,Psychologie,2023-01-25_13h39.05.967,00_bat_bachelor,2022.2.4,59.92593885879286,
,,,,,,,,,,,,0,0,0,0,108,0,108,0,,,,,,,108,,,1,317.25171284773387,,Y,d,go,d,1,0.2140296233119443,,,,,,,,,,,,,,,73,001,25,w,Psychologie,2023-01-25_13h39.05.967,00_bat_bachelor,2022.2.4,59.92593885879286,
,,,,,,,,,,,,0,0,0,0,109,0,109,0,,,,,,,109,,,1,318.58521280717105,,X,l,go,l,1,0.257467178045772,,,,,,,,,,,,,,,73,001,25,w,Psychologie,2023-01-25_13h39.05.967,00_bat_bachelor,2022.2.4,59.92593885879286,
,,,,,,,,,,,,0,0,0,0,110,0,110,0,,,,,,,110,,,1,319.95166353858076,,Y,d,go,d,1,0.25073457520920783,,,,,,,,,,,,,,,73,001,25,w,Psychologie,2023-01-25_13h39.05.967,00_bat_bachelor,2022.2.4,59.92593885879286,
,,,,,,,,,,,,0,0,0,0,111,0,111,0,,,,,,,111,,,1,321.31836348201614,,X,l,go,l,1,0.24397142697125673,,,,,,,,,,,,,,,73,001,25,w,Psychologie,2023-01-25_13h39.05.967,00_bat_bachelor,2022.2.4,59.92593885879286,
,,,,,,,,,,,,0,0,0,0,112,0,112,0,,,,,,,112,,,1,322.66839919111226,,Y,d,go,d,1,0.3171001188457012,,,,,,,,,,,,,,,73,001,25,w,Psychologie,2023-01-25_13h39.05.967,00_bat_bachelor,2022.2.4,59.92593885879286,
,,,,,,,,,,,,0,0,0,0,113,0,113,0,,,,,,,113,,,1,324.0850341406185,324.8851986011723,Y,None,nogo,None,1,,,,,,,,,,,,,,,,73,001,25,w,Psychologie,2023-01-25_13h39.05.967,00_bat_bachelor,2022.2.4,59.92593885879286,
,,,,,,,,,,,,0,0,0,0,114,0,114,0,,,,,,,114,,,1,325.8852689041523,,X,l,go,l,1,0.3011772175086662,,,,,,,,,,,,,,,73,001,25,w,Psychologie,2023-01-25_13h39.05.967,00_bat_bachelor,2022.2.4,59.92593885879286,
,,,,,,,,,,,,0,0,0,0,115,0,115,0,,,,,,,115,,,1,327.30170942947734,,Y,d,go,d,1,0.3073638810310513,,,,,,,,,,,,,,,73,001,25,w,Psychologie,2023-01-25_13h39.05.967,00_bat_bachelor,2022.2.4,59.92593885879286,
,,,,,,,,,,,,0,0,0,0,116,0,116,0,,,,,,,116,,,1,328.73501879523974,329.5350634981878,Y,None,nogo,None,1,,,,,,,,,,,,,,,,73,001,25,w,Psychologie,2023-01-25_13h39.05.967,00_bat_bachelor,2022.2.4,59.92593885879286,
,,,,,,,,,,,,0,0,0,0,117,0,117,0,,,,,,,117,,,1,330.5350474981824,,X,l,go,l,1,0.22728876839391887,,,,,,,,,,,,,,,73,001,25,w,Psychologie,2023-01-25_13h39.05.967,00_bat_bachelor,2022.2.4,59.92593885879286,
,,,,,,,,,,,,0,0,0,0,118,0,118,0,,,,,,,118,,,1,331.86840685177594,,Y,d,go,d,1,0.2701241414761171,,,,,,,,,,,,,,,73,001,25,w,Psychologie,2023-01-25_13h39.05.967,00_bat_bachelor,2022.2.4,59.92593885879286,
,,,,,,,,,,,,0,0,0,0,119,0,119,0,,,,,,,119,,,1,333.2519223021809,334.051945187035,Y,None,nogo,None,1,,,,,,,,,,,,,,,,73,001,25,w,Psychologie,2023-01-25_13h39.05.967,00_bat_bachelor,2022.2.4,59.92593885879286,
,,,,,,,,,,,,0,0,0,0,120,0,120,0,,,,,,,120,,,1,335.05168433859944,,X,l,go,l,1,0.23783761181402951,,,,,,,,,,,,,,,73,001,25,w,Psychologie,2023-01-25_13h39.05.967,00_bat_bachelor,2022.2.4,59.92593885879286,
,,,,,,,,,,,,0,0,0,0,121,0,121,0,,,,,,,121,,,1,336.40171132038813,,Y,d,go,d,1,0.26401844760403037,,,,,,,,,,,,,,,73,001,25,w,Psychologie,2023-01-25_13h39.05.967,00_bat_bachelor,2022.2.4,59.92593885879286,
,,,,,,,,,,,,0,0,0,0,122,0,122,0,,,,,,,122,,,1,337.76836956688203,338.5685286941007,Y,None,nogo,None,1,,,,,,,,,,,,,,,,73,001,25,w,Psychologie,2023-01-25_13h39.05.967,00_bat_bachelor,2022.2.4,59.92593885879286,
,,,,,,,,,,,,0,0,0,0,123,0,123,0,,,,,,,123,,,1,339.56867366377264,,X,l,go,l,1,0.24969554541166872,,,,,,,,,,,,,,,73,001,25,w,Psychologie,2023-01-25_13h39.05.967,00_bat_bachelor,2022.2.4,59.92593885879286,
,,,,,,,,,,,,0,0,0,0,124,0,124,0,,,,,,,124,,,1,340.91837288811803,,Y,d,go,d,1,0.3066681238124147,,,,,,,,,,,,,,,73,001,25,w,Psychologie,2023-01-25_13h39.05.967,00_bat_bachelor,2022.2.4,59.92593885879286,
,,,,,,,,,,,,0,0,0,0,125,0,125,0,,,,,,,125,,,1,342.3516468598973,,X,l,go,l,1,0.25013045431114733,,,,,,,,,,,,,,,73,001,25,w,Psychologie,2023-01-25_13h39.05.967,00_bat_bachelor,2022.2.4,59.92593885879286,
,,,,,,,,,,,,0,0,0,0,126,0,126,0,,,,,,,126,,,1,343.70170681132004,,X,None,nogo,d,0,0.4513429627986625,,,,,,,,,,,,,,,73,001,25,w,Psychologie,2023-01-25_13h39.05.967,00_bat_bachelor,2022.2.4,59.92593885879286,
,,,,,,,,,,,,0,0,0,0,127,0,127,0,,,,,,,127,,,1,345.2850451951381,,Y,d,go,d,1,0.24482136603910476,,,,,,,,,,,,,,,73,001,25,w,Psychologie,2023-01-25_13h39.05.967,00_bat_bachelor,2022.2.4,59.92593885879286,
,,,,,,,,,,,,0,0,0,0,128,0,128,0,,,,,,,128,,,1,346.6350227224175,,X,l,go,l,1,0.23921506572514772,,,,,,,,,,,,,,,73,001,25,w,Psychologie,2023-01-25_13h39.05.967,00_bat_bachelor,2022.2.4,59.92593885879286,
,,,,,,,,,,,,0,0,0,0,129,0,129,0,,,,,,,129,,,1,347.98502837098204,,Y,d,go,d,1,0.3128620602656156,,,,,,,,,,,,,,,73,001,25,w,Psychologie,2023-01-25_13h39.05.967,00_bat_bachelor,2022.2.4,59.92593885879286,
,,,,,,,,,,,,0,0,0,0,130,0,130,0,,,,,,,130,,,1,349.40160319930874,,X,l,go,l,1,0.2237231944454834,,,,,,,,,,,,,,,73,001,25,w,Psychologie,2023-01-25_13h39.05.967,00_bat_bachelor,2022.2.4,59.92593885879286,
,,,,,,,,,,,,0,0,0,0,131,0,131,0,,,,,,,131,,,1,350.7350415830733,351.53505040728487,X,None,nogo,None,1,,,,,,,,,,,,,,,,73,001,25,w,Psychologie,2023-01-25_13h39.05.967,00_bat_bachelor,2022.2.4,59.92593885879286,
,,,,,,,,,,,,0,0,0,0,132,0,132,0,,,,,,,132,,,1,352.5349694376346,,Y,d,go,d,1,0.24250960955396295,,,,,,,,,,,,,,,73,001,25,w,Psychologie,2023-01-25_13h39.05.967,00_bat_bachelor,2022.2.4,59.92593885879286,
,,,,,,,,,,,,0,0,0,0,133,0,133,0,,,,,,,133,,,1,353.90188513847534,,X,l,go,l,1,0.3482196187833324,,,,,,,,,,,,,,,73,001,25,w,Psychologie,2023-01-25_13h39.05.967,00_bat_bachelor,2022.2.4,59.92593885879286,
,,,,,,,,,,,,0,0,0,0,134,0,134,0,,,,,,,134,,,1,355.3518771628151,,Y,d,go,d,1,0.577883992344141,,,,,,,,,,,,,,,73,001,25,w,Psychologie,2023-01-25_13h39.05.967,00_bat_bachelor,2022.2.4,59.92593885879286,
,,,,,,,,,,,,0,0,0,0,135,0,135,0,,,,,,,135,,,1,357.03522277087905,,X,l,go,l,1,0.25517675490118563,,,,,,,,,,,,,,,73,001,25,w,Psychologie,2023-01-25_13h39.05.967,00_bat_bachelor,2022.2.4,59.92593885879286,
,,,,,,,,,,,,0,0,0,0,136,0,136,0,,,,,,,136,,,1,358.40168853255454,359.2016886295751,X,None,nogo,None,1,,,,,,,,,,,,,,,,73,001,25,w,Psychologie,2023-01-25_13h39.05.967,00_bat_bachelor,2022.2.4,59.92593885879286,
,,,,,,,,,,,,0,0,0,0,137,0,137,0,,,,,,,137,,,1,360.201615902246,,Y,d,go,d,1,0.14397050580009818,,,,,,,,,,,,,,,73,001,25,w,Psychologie,2023-01-25_13h39.05.967,00_bat_bachelor,2022.2.4,59.92593885879286,
,,,,,,,,,,,,0,0,0,0,138,0,138,0,,,,,,,138,,,1,361.46828922757413,,X,l,go,l,1,0.23756464221514761,,,,,,,,,,,,,,,73,001,25,w,Psychologie,2023-01-25_13h39.05.967,00_bat_bachelor,2022.2.4,59.92593885879286,
,,,,,,,,,,,,0,0,0,0,139,0,139,0,,,,,,,139,,,1,362.81853002740536,,Y,d,go,d,1,0.3119049697415903,,,,,,,,,,,,,,,73,001,25,w,Psychologie,2023-01-25_13h39.05.967,00_bat_bachelor,2022.2.4,59.92593885879286,
,,,,,,,,,,,,0,0,0,0,140,0,140,0,,,,,,,140,,,1,364.2349981891457,,X,l,go,l,1,0.2557134819217026,,,,,,,,,,,,,,,73,001,25,w,Psychologie,2023-01-25_13h39.05.967,00_bat_bachelor,2022.2.4,59.92593885879286,
,,,,,,,,,,,,0,0,0,0,141,0,141,0,,,,,,,141,,,1,365.6016918295063,,Y,d,go,d,1,0.2478250009007752,,,,,,,,,,,,,,,73,001,25,w,Psychologie,2023-01-25_13h39.05.967,00_bat_bachelor,2022.2.4,59.92593885879286,
,,,,,,,,,,,,0,0,0,0,142,0,142,0,,,,,,,142,,,1,366.95185262942687,,X,l,go,l,1,0.2253959208028391,,,,,,,,,,,,,,,73,001,25,w,Psychologie,2023-01-25_13h39.05.967,00_bat_bachelor,2022.2.4,59.92593885879286,
,,,,,,,,,,,,0,0,0,0,143,0,143,0,,,,,,,143,,,1,368.30184470221866,,X,None,nogo,d,0,0.2045576279051602,,,,,,,,,,,,,,,73,001,25,w,Psychologie,2023-01-25_13h39.05.967,00_bat_bachelor,2022.2.4,59.92593885879286,
,,,,,,,,,,,,0,0,0,0,144,0,144,0,,,,,,,144,,,1,369.6184341243934,,Y,d,go,d,1,0.16684176749549806,,,,,,,,,,,,,,,73,001,25,w,Psychologie,2023-01-25_13h39.05.967,00_bat_bachelor,2022.2.4,59.92593885879286,
,,,,,,,,,,,,0,0,0,0,145,0,145,0,,,,,,,145,,,1,370.9019263506634,,X,l,go,l,1,0.27641019911970943,,,,,,,,,,,,,,,73,001,25,w,Psychologie,2023-01-25_13h39.05.967,00_bat_bachelor,2022.2.4,59.92593885879286,
,,,,,,,,,,,,0,0,0,0,146,0,146,0,,,,,,,146,,,1,372.2848885891726,,X,None,nogo,d,0,0.22131349856499583,,,,,,,,,,,,,,,73,001,25,w,Psychologie,2023-01-25_13h39.05.967,00_bat_bachelor,2022.2.4,59.92593885879286,
,,,,,,,,,,,,0,0,0,0,147,0,147,0,,,,,,,147,,,1,373.6182101245504,,Y,d,go,d,1,0.28097650001291186,,,,,,,,,,,,,,,73,001,25,w,Psychologie,2023-01-25_13h39.05.967,00_bat_bachelor,2022.2.4,59.92593885879286,
,,,,,,,,,,,,0,0,0,0,148,0,148,0,,,,,,,148,,,1,375.00145260535646,,X,l,go,l,1,0.27312923106364906,,,,,,,,,,,,,,,73,001,25,w,Psychologie,2023-01-25_13h39.05.967,00_bat_bachelor,2022.2.4,59.92593885879286,
,,,,,,,,,,,,0,0,0,0,149,0,149,0,,,,,,,149,,,1,376.3849016316235,,Y,d,go,d,1,0.25002621195744723,,,,,,,,,,,,,,,73,001,25,w,Psychologie,2023-01-25_13h39.05.967,00_bat_bachelor,2022.2.4,59.92593885879286,
,,,,,,,,,,,,0,0,0,0,150,0,150,0,,,,,,,150,,,1,377.7350522497436,,X,l,go,l,1,0.2759811084251851,,,,,,,,,,,,,,,73,001,25,w,Psychologie,2023-01-25_13h39.05.967,00_bat_bachelor,2022.2.4,59.92593885879286,
,,,,,,,,,,,,0,0,0,0,151,0,151,0,,,,,,,151,,,1,379.1180721851997,379.91797288833186,X,None,nogo,None,1,,,,,,,,,,,,,,,,73,001,25,w,Psychologie,2023-01-25_13h39.05.967,00_bat_bachelor,2022.2.4,59.92593885879286,
,,,,,,,,,,,,0,0,0,0,152,0,152,0,,,,,,,152,,,1,380.91775713081006,,Y,d,go,d,1,0.22940125223249197,,,,,,,,,,,,,,,73,001,25,w,Psychologie,2023-01-25_13h39.05.967,00_bat_bachelor,2022.2.4,59.92593885879286,
,,,,,,,,,,,,0,0,0,0,153,0,153,0,,,,,,,153,,,1,382.2514592721127,,X,l,go,l,1,0.23925724742002785,,,,,,,,,,,,,,,73,001,25,w,Psychologie,2023-01-25_13h39.05.967,00_bat_bachelor,2022.2.4,59.92593885879286,
,,,,,,,,,,,,0,0,0,0,154,0,154,0,,,,,,,154,,,1,383.601323829731,384.40131471457426,X,None,nogo,None,1,,,,,,,,,,,,,,,,73,001,25,w,Psychologie,2023-01-25_13h39.05.967,00_bat_bachelor,2022.2.4,59.92593885879286,
,,,,,,,,,,,,0,0,0,0,155,0,155,0,,,,,,,155,,,1,385.40109847229905,,Y,d,go,d,1,0.2575704506598413,,,,,,,,,,,,,,,73,001,25,w,Psychologie,2023-01-25_13h39.05.967,00_bat_bachelor,2022.2.4,59.92593885879286,
,,,,,,,,,,,,0,0,0,0,156,0,156,0,,,,,,,156,,,1,386.76776059751865,,X,l,go,l,1,0.28172219649422914,,,,,,,,,,,,,,,73,001,25,w,Psychologie,2023-01-25_13h39.05.967,00_bat_bachelor,2022.2.4,59.92593885879286,
,,,,,,,,,,,,0,0,0,0,157,0,157,0,,,,,,,157,,,1,388.1511136237532,,Y,d,go,d,1,0.30701963882893324,,,,,,,,,,,,,,,73,001,25,w,Psychologie,2023-01-25_13h39.05.967,00_bat_bachelor,2022.2.4,59.92593885879286,
,,,,,,,,,,,,0,0,0,0,158,0,158,0,,,,,,,158,,,1,389.567986633745,,X,l,go,l,1,0.5547480036038905,,,,,,,,,,,,,,,73,001,25,w,Psychologie,2023-01-25_13h39.05.967,00_bat_bachelor,2022.2.4,59.92593885879286,
,,,,,,,,,,,,0,0,0,0,159,0,159,0,,,,,,,159,,,1,391.2344556439202,,Y,d,go,d,1,0.29715443146415055,,,,,,,,,,,,,,,73,001,25,w,Psychologie,2023-01-25_13h39.05.967,00_bat_bachelor,2022.2.4,59.92593885879286,
,,,,,,,,,,,,0,0,0,0,160,0,160,0,,,,,,,160,,,1,392.6344370257575,,X,l,go,l,1,0.33610326109919697,,,,,,,,,,,,,,,73,001,25,w,Psychologie,2023-01-25_13h39.05.967,00_bat_bachelor,2022.2.4,59.92593885879286,
,,,,,,,,,,,,0,0,0,0,161,0,161,0,,,,,,,161,,,1,394.08478104986716,,Y,d,go,d,1,0.2618167516775429,,,,,,,,,,,,,,,73,001,25,w,Psychologie,2023-01-25_13h39.05.967,00_bat_bachelor,2022.2.4,59.92593885879286,
,,,,,,,,,,,,0,0,0,0,162,0,162,0,,,,,,,162,,,1,395.4510630540317,396.25129636307247,Y,None,nogo,None,1,,,,,,,,,,,,,,,,73,001,25,w,Psychologie,2023-01-25_13h39.05.967,00_bat_bachelor,2022.2.4,59.92593885879286,
,,,,,,,,,,,,0,0,0,0,163,0,163,0,,,,,,,163,,,1,397.2514282417251,,X,l,go,l,1,0.23088876670226455,,,,,,,,,,,,,,,73,001,25,w,Psychologie,2023-01-25_13h39.05.967,00_bat_bachelor,2022.2.4,59.92593885879286,
,,,,,,,,,,,,0,0,0,0,164,0,164,0,,,,,,,164,,,1,398.5847289286321,,Y,d,go,d,1,0.27479710907209665,,,,,,,,,,,,,,,73,001,25,w,Psychologie,2023-01-25_13h39.05.967,00_bat_bachelor,2022.2.4,59.92593885879286,
,,,,,,,,,,,,0,0,0,0,165,0,165,0,,,,,,,165,,,1,399.96795395493973,,Y,None,nogo,l,0,0.31515151378698647,,,,,,,,,,,,,,,73,001,25,w,Psychologie,2023-01-25_13h39.05.967,00_bat_bachelor,2022.2.4,59.92593885879286,
,,,,,,,,,,,,0,0,0,0,166,0,166,0,,,,,,,166,,,1,401.3848982376512,,X,l,go,l,1,0.19330914854072034,,,,,,,,,,,,,,,73,001,25,w,Psychologie,2023-01-25_13h39.05.967,00_bat_bachelor,2022.2.4,59.92593885879286,
,,,,,,,,,,,,0,0,0,0,167,0,167,0,,,,,,,167,,,1,402.6846968801692,,Y,d,go,d,1,0.3182909060269594,,,,,,,,,,,,,,,73,001,25,w,Psychologie,2023-01-25_13h39.05.967,00_bat_bachelor,2022.2.4,59.92593885879286,
,,,,,,,,,,,,0,0,0,0,168,0,168,0,,,,,,,168,,,1,404.1179795792559,404.91810719121713,Y,None,nogo,None,1,,,,,,,,,,,,,,,,73,001,25,w,Psychologie,2023-01-25_13h39.05.967,00_bat_bachelor,2022.2.4,59.92593885879286,
,,,,,,,,,,,,0,0,0,0,169,0,169,0,,,,,,,169,,,1,405.918048524647,,X,l,go,l,1,0.2201324081979692,,,,,,,,,,,,,,,73,001,25,w,Psychologie,2023-01-25_13h39.05.967,00_bat_bachelor,2022.2.4,59.92593885879286,
,,,,,,,,,,,,0,0,0,0,170,0,170,0,,,,,,,170,,,1,407.25108351465315,,Y,d,go,d,1,0.26413141714874655,,,,,,,,,,,,,,,73,001,25,w,Psychologie,2023-01-25_13h39.05.967,00_bat_bachelor,2022.2.4,59.92593885879286,
,,,,,,,,,,,,0,0,0,0,171,0,171,0,,,,,,,171,,,1,408.61795024585444,409.41794500953984,Y,None,nogo,None,1,,,,,,,,,,,,,,,,73,001,25,w,Psychologie,2023-01-25_13h39.05.967,00_bat_bachelor,2022.2.4,59.92593885879286,
,,,,,,,,,,,,0,0,0,0,172,0,172,0,,,,,,,172,,,1,410.4177554338239,,X,l,go,l,1,0.26414693240076303,,,,,,,,,,,,,,,73,001,25,w,Psychologie,2023-01-25_13h39.05.967,00_bat_bachelor,2022.2.4,59.92593885879286,
,,,,,,,,,,,,0,0,0,0,173,0,173,0,,,,,,,173,,,1,411.7844369530212,,Y,d,go,d,1,0.22516658762469888,,,,,,,,,,,,,,,73,001,25,w,Psychologie,2023-01-25_13h39.05.967,00_bat_bachelor,2022.2.4,59.92593885879286,
,,,,,,,,,,,,0,0,0,0,174,0,174,0,,,,,,,174,,,1,413.117897639866,,X,l,go,l,1,0.22039325663354248,,,,,,,,,,,,,,,73,001,25,w,Psychologie,2023-01-25_13h39.05.967,00_bat_bachelor,2022.2.4,59.92593885879286,
,,,,,,,,,,,,0,0,0,0,175,0,175,0,,,,,,,175,,,1,414.4514373568818,,Y,d,go,d,1,0.27964850061107427,,,,,,,,,,,,,,,73,001,25,w,Psychologie,2023-01-25_13h39.05.967,00_bat_bachelor,2022.2.4,59.92593885879286,
,,,,,,,,,,,,0,0,0,0,176,0,176,0,,,,,,,176,,,1,415.83482480735984,,X,l,go,l,1,0.2554099669214338,,,,,,,,,,,,,,,73,001,25,w,Psychologie,2023-01-25_13h39.05.967,00_bat_bachelor,2022.2.4,59.92593885879286,
,,,,,,,,,,,,0,0,0,0,177,0,177,0,,,,,,,177,,,1,417.20110972074326,,Y,d,go,d,1,0.28161843901034445,,,,,,,,,,,,,,,73,001,25,w,Psychologie,2023-01-25_13h39.05.967,00_bat_bachelor,2022.2.4,59.92593885879286,
,,,,,,,,,,,,0,0,0,0,178,0,178,0,,,,,,,178,,,1,418.5845519590657,,X,l,go,l,1,0.2900276470463723,,,,,,,,,,,,,,,73,001,25,w,Psychologie,2023-01-25_13h39.05.967,00_bat_bachelor,2022.2.4,59.92593885879286,
,,,,,,,,,,,,0,0,0,0,179,0,179,0,,,,,,,179,,,1,419.9843486136524,420.78451598330867,X,None,nogo,None,1,,,,,,,,,,,,,,,,73,001,25,w,Psychologie,2023-01-25_13h39.05.967,00_bat_bachelor,2022.2.4,59.92593885879286,
,,,,,,,,,,,,0,0,0,0,180,0,180,0,,,,,,,180,,,1,421.78449222573545,,Y,d,go,d,1,0.2900000107474625,,,,,,,,,,,,,,,73,001,25,w,Psychologie,2023-01-25_13h39.05.967,00_bat_bachelor,2022.2.4,59.92593885879286,
,,,,,,,,,,,,0,0,0,0,181,0,181,0,,,,,,,181,,,1,423.18449397117365,,X,l,go,l,1,0.26577456784434617,,,,,,,,,,,,,,,73,001,25,w,Psychologie,2023-01-25_13h39.05.967,00_bat_bachelor,2022.2.4,59.92593885879286,
,,,,,,,,,,,,0,0,0,0,182,0,182,0,,,,,,,182,,,1,424.55117161164526,,Y,d,go,d,1,0.29078885877970606,,,,,,,,,,,,,,,73,001,25,w,Psychologie,2023-01-25_13h39.05.967,00_bat_bachelor,2022.2.4,59.92593885879286,
,,,,,,,,,,,,0,0,0,0,183,0,183,0,,,,,,,183,,,1,425.9513052357361,,X,l,go,l,1,0.29855127935297787,,,,,,,,,,,,,,,73,001,25,w,Psychologie,2023-01-25_13h39.05.967,00_bat_bachelor,2022.2.4,59.92593885879286,
,,,,,,,,,,,,0,0,0,0,184,0,184,0,,,,,,,184,,,1,427.35106601170264,,X,None,nogo,d,0,0.25958305585663766,,,,,,,,,,,,,,,73,001,25,w,Psychologie,2023-01-25_13h39.05.967,00_bat_bachelor,2022.2.4,59.92593885879286,
,,,,,,,,,,,,0,0,0,0,185,0,185,0,,,,,,,185,,,1,428.7177892278414,,Y,d,go,d,1,0.18891399924177676,,,,,,,,,,,,,,,73,001,25,w,Psychologie,2023-01-25_13h39.05.967,00_bat_bachelor,2022.2.4,59.92593885879286,
,,,,,,,,,,,,0,0,0,0,186,0,186,0,,,,,,,186,,,1,430.01817114278674,,X,l,go,l,1,0.24756124336272478,,,,,,,,,,,,,,,73,001,25,w,Psychologie,2023-01-25_13h39.05.967,00_bat_bachelor,2022.2.4,59.92593885879286,
,,,,,,,,,,,,0,0,0,0,187,0,187,0,,,,,,,187,,,1,431.36798333679326,432.1678869489115,X,None,nogo,None,1,,,,,,,,,,,,,,,,73,001,25,w,Psychologie,2023-01-25_13h39.05.967,00_bat_bachelor,2022.2.4,59.92593885879286,
,,,,,,,,,,,,0,0,0,0,188,0,188,0,,,,,,,188,,,1,433.16811288823374,,Y,d,go,d,1,0.23454112850595266,,,,,,,,,,,,,,,73,001,25,w,Psychologie,2023-01-25_13h39.05.967,00_bat_bachelor,2022.2.4,59.92593885879286,
,,,,,,,,,,,,0,0,0,0,189,0,189,0,,,,,,,189,,,1,434.517721930868,,X,l,go,l,1,0.30820703227072954,,,,,,,,,,,,,,,73,001,25,w,Psychologie,2023-01-25_13h39.05.967,00_bat_bachelor,2022.2.4,59.92593885879286,
,,,,,,,,,,,,0,0,0,0,190,0,190,0,,,,,,,190,,,1,435.9346167590702,436.73475018923637,X,None,nogo,None,1,,,,,,,,,,,,,,,,73,001,25,w,Psychologie,2023-01-25_13h39.05.967,00_bat_bachelor,2022.2.4,59.92593885879286,
,,,,,,,,,,,,0,0,0,0,191,0,191,0,,,,,,,191,,,1,437.73464934085496,,Y,d,go,d,1,0.19654551055282354,,,,,,,,,,,,,,,73,001,25,w,Psychologie,2023-01-25_13h39.05.967,00_bat_bachelor,2022.2.4,59.92593885879286,
,,,,,,,,,,,,0,0,0,0,192,0,192,0,,,,,,,192,,,1,439.03461380139925,,X,l,go,l,1,0.272038807393983,,,,,,,,,,,,,,,73,001,25,w,Psychologie,2023-01-25_13h39.05.967,00_bat_bachelor,2022.2.4,59.92593885879286,
,,,,,,,,,,,,0,0,0,0,193,0,193,0,,,,,,,193,,,1,440.4179134943988,441.21809153072536,X,None,nogo,None,1,,,,,,,,,,,,,,,,73,001,25,w,Psychologie,2023-01-25_13h39.05.967,00_bat_bachelor,2022.2.4,59.92593885879286,
,,,,,,,,,,,,0,0,0,0,194,0,194,0,,,,,,,194,,,1,442.21793298528064,,Y,d,go,d,1,0.2090672014746815,,,,,,,,,,,,,,,73,001,25,w,Psychologie,2023-01-25_13h39.05.967,00_bat_bachelor,2022.2.4,59.92593885879286,
,,,,,,,,,,,,0,0,0,0,195,0,195,0,,,,,,,195,,,1,443.53461064992007,,X,l,go,l,1,0.3312300513498485,,,,,,,,,,,,,,,73,001,25,w,Psychologie,2023-01-25_13h39.05.967,00_bat_bachelor,2022.2.4,59.92593885879286,
,,,,,,,,,,,,0,0,0,0,196,0,196,0,,,,,,,196,,,1,444.9679675307125,,Y,d,go,d,1,0.33828119945246726,,,,,,,,,,,,,,,73,001,25,w,Psychologie,2023-01-25_13h39.05.967,00_bat_bachelor,2022.2.4,59.92593885879286,
,,,,,,,,,,,,0,0,0,0,197,0,197,0,,,,,,,197,,,1,446.417766585364,447.21808280341793,Y,None,nogo,None,1,,,,,,,,,,,,,,,,73,001,25,w,Psychologie,2023-01-25_13h39.05.967,00_bat_bachelor,2022.2.4,59.92593885879286,
,,,,,,,,,,,,0,0,0,0,198,0,198,0,,,,,,,198,,,1,448.2177550459746,,X,l,go,l,1,0.20746574772056192,,,,,,,,,,,,,,,73,001,25,w,Psychologie,2023-01-25_13h39.05.967,00_bat_bachelor,2022.2.4,59.92593885879286,
,,,,,,,,,,,,0,0,0,0,199,0,199,0,,,,,,,199,,,1,449.53438180161174,,Y,d,go,d,1,0.36374882352538407,,,,,,,,,,,,,,,73,001,25,w,Psychologie,2023-01-25_13h39.05.967,00_bat_bachelor,2022.2.4,59.92593885879286,
,,,,,,,,,,,,0,0,0,0,200,0,200,0,,,,,,,200,,,1,451.0012916357955,451.8014134296682,Y,None,nogo,None,1,,,,,,,,,,,,,,,,73,001,25,w,Psychologie,2023-01-25_13h39.05.967,00_bat_bachelor,2022.2.4,59.92593885879286,
,,,,,,,,,,,,0,0,0,0,201,0,201,0,,,,,,,201,,,1,452.80109197529964,,X,l,go,l,1,0.20047569053713232,,,,,,,,,,,,,,,73,001,25,w,Psychologie,2023-01-25_13h39.05.967,00_bat_bachelor,2022.2.4,59.92593885879286,
,,,,,,,,,,,,0,0,0,0,202,0,202,0,,,,,,,202,,,1,454.11787727626506,,Y,d,go,d,1,0.2602274192031473,,,,,,,,,,,,,,,73,001,25,w,Psychologie,2023-01-25_13h39.05.967,00_bat_bachelor,2022.2.4,59.92593885879286,
,,,,,,,,,,,,0,0,0,0,203,0,203,0,,,,,,,203,,,1,455.4846101893345,456.28437271062285,Y,None,nogo,None,1,,,,,,,,,,,,,,,,73,001,25,w,Psychologie,2023-01-25_13h39.05.967,00_bat_bachelor,2022.2.4,59.92593885879286,
,,,,,,,,,,,,0,0,0,0,204,0,204,0,,,,,,,204,,,1,457.28451622568537,,X,l,go,l,1,0.19847035815473646,,,,,,,,,,,,,,,73,001,25,w,Psychologie,2023-01-25_13h39.05.967,00_bat_bachelor,2022.2.4,59.92593885879286,
,,,,,,,,,,,,0,0,0,0,205,0,205,0,,,,,,,205,,,1,458.5846246862784,,Y,d,go,d,1,0.30615369987208396,,,,,,,,,,,,,,,73,001,25,w,Psychologie,2023-01-25_13h39.05.967,00_bat_bachelor,2022.2.4,59.92593885879286,
,,,,,,,,,,,,0,0,0,0,206,0,206,0,,,,,,,206,,,1,460.00139005994424,,X,l,go,l,1,0.26456438668537885,,,,,,,,,,,,,,,73,001,25,w,Psychologie,2023-01-25_13h39.05.967,00_bat_bachelor,2022.2.4,59.92593885879286,
,,,,,,,,,,,,0,0,0,0,207,0,207,0,,,,,,,207,,,1,461.36794794281013,462.1680891306605,X,None,nogo,None,1,,,,,,,,,,,,,,,,73,001,25,w,Psychologie,2023-01-25_13h39.05.967,00_bat_bachelor,2022.2.4,59.92593885879286,
,,,,,,,,,,,,0,0,0,0,208,0,208,0,,,,,,,208,,,1,463.1677148278104,,Y,d,go,d,1,0.2019932655384764,,,,,,,,,,,,,,,73,001,25,w,Psychologie,2023-01-25_13h39.05.967,00_bat_bachelor,2022.2.4,59.92593885879286,
,,,,,,,,,,,,0,0,0,0,209,0,209,0,,,,,,,209,,,1,464.4847255832283,,X,l,go,l,1,0.2460073047550395,,,,,,,,,,,,,,,73,001,25,w,Psychologie,2023-01-25_13h39.05.967,00_bat_bachelor,2022.2.4,59.92593885879286,
,,,,,,,,,,,,0,0,0,0,210,0,210,0,,,,,,,210,,,1,465.8345072318334,,Y,d,go,d,1,0.2881609812611714,,,,,,,,,,,,,,,73,001,25,w,Psychologie,2023-01-25_13h39.05.967,00_bat_bachelor,2022.2.4,59.92593885879286,
,,,,,,,,,,,,0,0,0,0,211,0,211,0,,,,,,,211,,,1,467.2346117651323,468.0344295591349,Y,None,nogo,None,1,,,,,,,,,,,,,,,,73,001,25,w,Psychologie,2023-01-25_13h39.05.967,00_bat_bachelor,2022.2.4,59.92593885879286,
,,,,,,,,,,,,0,0,0,0,212,0,212,0,,,,,,,212,,,1,469.0346579226898,,X,l,go,l,1,0.2402589439880103,,,,,,,,,,,,,,,73,001,25,w,Psychologie,2023-01-25_13h39.05.967,00_bat_bachelor,2022.2.4,59.92593885879286,
,,,,,,,,,,,,0,0,0,0,213,0,213,0,,,,,,,213,,,1,470.3847498741234,,Y,d,go,d,1,0.29809746134560555,,,,,,,,,,,,,,,73,001,25,w,Psychologie,2023-01-25_13h39.05.967,00_bat_bachelor,2022.2.4,59.92593885879286,
,,,,,,,,,,,,0,0,0,0,214,0,214,0,,,,,,,214,,,1,471.784582407563,,X,l,go,l,1,0.29001649550627917,,,,,,,,,,,,,,,73,001,25,w,Psychologie,2023-01-25_13h39.05.967,00_bat_bachelor,2022.2.4,59.92593885879286,
,,,,,,,,,,,,0,0,0,0,215,0,215,0,,,,,,,215,,,1,473.184515789384,,Y,d,go,d,1,0.3138802415924147,,,,,,,,,,,,,,,73,001,25,w,Psychologie,2023-01-25_13h39.05.967,00_bat_bachelor,2022.2.4,59.92593885879286,
,,,,,,,,,,,,0,0,0,0,216,0,216,0,,,,,,,216,,,1,474.6012583752163,,X,l,go,l,1,0.25720778421964496,,,,,,,,,,,,,,,73,001,25,w,Psychologie,2023-01-25_13h39.05.967,00_bat_bachelor,2022.2.4,59.92593885879286,
,,,,,,,,,,,,0,0,0,0,217,0,217,0,,,,,,,217,,,1,475.9677338338224,,Y,d,go,d,1,0.28258910530712456,,,,,,,,,,,,,,,73,001,25,w,Psychologie,2023-01-25_13h39.05.967,00_bat_bachelor,2022.2.4,59.92593885879286,
,,,,,,,,,,,,0,0,0,0,218,0,218,0,,,,,,,218,,,1,477.35124395100866,,X,l,go,l,1,0.2596179648535326,,,,,,,,,,,,,,,73,001,25,w,Psychologie,2023-01-25_13h39.05.967,00_bat_bachelor,2022.2.4,59.92593885879286,
,,,,,,,,,,,,0,0,0,0,219,0,219,0,,,,,,,219,,,1,478.7180617124541,,Y,d,go,d,1,0.25174499896820635,,,,,,,,,,,,,,,73,001,25,w,Psychologie,2023-01-25_13h39.05.967,00_bat_bachelor,2022.2.4,59.92593885879286,
,,,,,,,,,,,,0,0,0,0,220,0,220,0,,,,,,,220,,,1,480.0845740196528,,X,l,go,l,1,0.26197869097813964,,,,,,,,,,,,,,,73,001,25,w,Psychologie,2023-01-25_13h39.05.967,00_bat_bachelor,2022.2.4,59.92593885879286,
,,,,,,,,,,,,0,0,0,0,221,0,221,0,,,,,,,221,,,1,481.45108438737225,,Y,d,go,d,1,0.2553445124067366,,,,,,,,,,,,,,,73,001,25,w,Psychologie,2023-01-25_13h39.05.967,00_bat_bachelor,2022.2.4,59.92593885879286,
,,,,,,,,,,,,0,0,0,0,222,0,222,0,,,,,,,222,,,1,482.8179385125404,,Y,None,nogo,l,0,0.26428220502566546,,,,,,,,,,,,,,,73,001,25,w,Psychologie,2023-01-25_13h39.05.967,00_bat_bachelor,2022.2.4,59.92593885879286,
,,,,,,,,,,,,0,0,0,0,223,0,223,0,,,,,,,223,,,1,484.18454730452504,,X,l,go,l,1,0.24180221592541784,,,,,,,,,,,,,,,73,001,25,w,Psychologie,2023-01-25_13h39.05.967,00_bat_bachelor,2022.2.4,59.92593885879286,
,,,,,,,,,,,,0,0,0,0,224,0,224,0,,,,,,,224,,,1,485.534738649847,,Y,d,go,d,1,0.20345217385329306,,,,,,,,,,,,,,,73,001,25,w,Psychologie,2023-01-25_13h39.05.967,00_bat_bachelor,2022.2.4,59.92593885879286,
,,,,,,,,,,,,0,0,0,0,225,0,225,0,,,,,,,225,,,1,486.8513271023985,,X,l,go,l,1,0.21532319847028702,,,,,,,,,,,,,,,73,001,25,w,Psychologie,2023-01-25_13h39.05.967,00_bat_bachelor,2022.2.4,59.92593885879286,
,,,,,,,,,,,,0,0,0,0,226,0,226,0,,,,,,,226,,,1,488.1679310700856,,X,None,nogo,d,0,0.2577566324034706,,,,,,,,,,,,,,,73,001,25,w,Psychologie,2023-01-25_13h39.05.967,00_bat_bachelor,2022.2.4,59.92593885879286,
,,,,,,,,,,,,0,0,0,0,227,0,227,0,,,,,,,227,,,1,489.5347236195812,,X,None,nogo,l,0,0.4120949818752706,,,,,,,,,,,,,,,73,001,25,w,Psychologie,2023-01-25_13h39.05.967,00_bat_bachelor,2022.2.4,59.92593885879286,
,,,,,,,,,,,,0,0,0,0,228,0,228,0,,,,,,,228,,,1,491.0514312478481,,Y,d,go,d,1,0.2551277852617204,,,,,,,,,,,,,,,73,001,25,w,Psychologie,2023-01-25_13h39.05.967,00_bat_bachelor,2022.2.4,59.92593885879286,
,,,,,,,,,,,,0,0,0,0,229,0,229,0,,,,,,,229,,,1,492.41770646418445,,X,l,go,l,1,0.3128644844982773,,,,,,,,,,,,,,,73,001,25,w,Psychologie,2023-01-25_13h39.05.967,00_bat_bachelor,2022.2.4,59.92593885879286,
,,,,,,,,,,,,0,0,0,0,230,0,230,0,,,,,,,230,,,1,493.83477535285056,494.63442248036154,X,None,nogo,None,1,,,,,,,,,,,,,,,,73,001,25,w,Psychologie,2023-01-25_13h39.05.967,00_bat_bachelor,2022.2.4,59.92593885879286,
,,,,,,,,,,,,0,0,0,0,231,0,231,0,,,,,,,231,,,1,495.63459266209975,,Y,d,go,d,1,0.21591859206091613,,,,,,,,,,,,,,,73,001,25,w,Psychologie,2023-01-25_13h39.05.967,00_bat_bachelor,2022.2.4,59.92593885879286,
,,,,,,,,,,,,0,0,0,0,232,0,232,0,,,,,,,232,,,1,496.9511098419316,,X,l,go,l,1,0.26013869186863303,,,,,,,,,,,,,,,73,001,25,w,Psychologie,2023-01-25_13h39.05.967,00_bat_bachelor,2022.2.4,59.92593885879286,
,,,,,,,,,,,,0,0,0,0,233,0,233,0,,,,,,,233,,,1,498.31770893686917,,Y,d,go,d,1,0.2041421129833907,,,,,,,,,,,,,,,73,001,25,w,Psychologie,2023-01-25_13h39.05.967,00_bat_bachelor,2022.2.4,59.92593885879286,
,,,,,,,,,,,,0,0,0,0,234,0,234,0,,,,,,,234,,,1,499.6345398136182,500.434598092339,Y,None,nogo,None,1,,,,,,,,,,,,,,,,73,001,25,w,Psychologie,2023-01-25_13h39.05.967,00_bat_bachelor,2022.2.4,59.92593885879286,
,,,,,,,,,,,,0,0,0,0,235,0,235,0,,,,,,,235,,,1,501.4347202741774,,X,l,go,l,1,0.2076228385558352,,,,,,,,,,,,,,,73,001,25,w,Psychologie,2023-01-25_13h39.05.967,00_bat_bachelor,2022.2.4,59.92593885879286,
,,,,,,,,,,,,0,0,0,0,236,0,236,0,,,,,,,236,,,1,502.75104496919084,,Y,d,go,d,1,0.3316348996013403,,,,,,,,,,,,,,,73,001,25,w,Psychologie,2023-01-25_13h39.05.967,00_bat_bachelor,2022.2.4,59.92593885879286,
,,,,,,,,,,,,0,0,0,0,237,0,237,0,,,,,,,237,,,1,504.1846573650837,,X,l,go,l,1,0.24112294346559793,,,,,,,,,,,,,,,73,001,25,w,Psychologie,2023-01-25_13h39.05.967,00_bat_bachelor,2022.2.4,59.92593885879286,
,,,,,,,,,,,,0,0,0,0,238,0,238,0,,,,,,,238,,,1,505.53454858937766,,X,None,nogo,d,0,0.20439374912530184,,,,,,,,,,,,,,,73,001,25,w,Psychologie,2023-01-25_13h39.05.967,00_bat_bachelor,2022.2.4,59.92593885879286,
,,,,,,,,,,,,0,0,0,0,239,0,239,0,,,,,,,239,,,1,506.851253890316,,Y,d,go,d,1,0.18338478973601013,,,,,,,,,,,,,,,73,001,25,w,Psychologie,2023-01-25_13h39.05.967,00_bat_bachelor,2022.2.4,59.92593885879286,
,,,,,,,,,,,,0,0,0,0,240,0,240,0,,,,,,,240,,,1,508.1343955711927,,X,l,go,l,1,0.21262744220439345,,,,,,,,,,,,,,,73,001,25,w,Psychologie,2023-01-25_13h39.05.967,00_bat_bachelor,2022.2.4,59.92593885879286,
,,,,,,,,,,,,0,0,0,0,241,0,241,0,,,,,,,241,,,1,509.4514213569928,,Y,d,go,d,1,0.23897118703462183,,,,,,,,,,,,,,,73,001,25,w,Psychologie,2023-01-25_13h39.05.967,00_bat_bachelor,2022.2.4,59.92593885879286,
,,,,,,,,,,,,0,0,0,0,242,0,242,0,,,,,,,242,,,1,510.8012611872982,511.6012210418703,Y,None,nogo,None,1,,,,,,,,,,,,,,,,73,001,25,w,Psychologie,2023-01-25_13h39.05.967,00_bat_bachelor,2022.2.4,59.92593885879286,
,,,,,,,,,,,,0,0,0,0,243,0,243,0,,,,,,,243,,,1,512.6011647995329,,X,l,go,l,1,0.20924465591087937,,,,,,,,,,,,,,,73,001,25,w,Psychologie,2023-01-25_13h39.05.967,00_bat_bachelor,2022.2.4,59.92593885879286,
,,,,,,,,,,,,0,0,0,0,244,0,244,0,,,,,,,244,,,1,513.9177265854087,,Y,d,go,d,1,0.23585943086072803,,,,,,,,,,,,,,,73,001,25,w,Psychologie,2023-01-25_13h39.05.967,00_bat_bachelor,2022.2.4,59.92593885879286,
,,,,,,,,,,,,0,0,0,0,245,0,245,0,,,,,,,245,,,1,515.2679125973955,516.0679548762273,Y,None,nogo,None,1,,,,,,,,,,,,,,,,73,001,25,w,Psychologie,2023-01-25_13h39.05.967,00_bat_bachelor,2022.2.4,59.92593885879286,
,,,,,,,,,,,,0,0,0,0,246,0,246,0,,,,,,,246,,,1,517.0679112398066,,X,l,go,l,1,0.23824003583285958,,,,,,,,,,,,,,,73,001,25,w,Psychologie,2023-01-25_13h39.05.967,00_bat_bachelor,2022.2.4,59.92593885879286,
,,,,,,,,,,,,0,0,0,0,247,0,247,0,,,,,,,247,,,1,518.4179396762047,,Y,d,go,d,1,0.2803122578188777,,,,,,,,,,,,,,,73,001,25,w,Psychologie,2023-01-25_13h39.05.967,00_bat_bachelor,2022.2.4,59.92593885879286,
,,,,,,,,,,,,0,0,0,0,248,0,248,0,,,,,,,248,,,1,519.8012005812488,520.6012506176485,Y,None,nogo,None,1,,,,,,,,,,,,,,,,73,001,25,w,Psychologie,2023-01-25_13h39.05.967,00_bat_bachelor,2022.2.4,59.92593885879286,
,,,,,,,,,,,,0,0,0,0,249,0,249,0,,,,,,,249,,,1,521.601364072063,,X,l,go,l,1,0.2165474402718246,,,,,,,,,,,,,,,73,001,25,w,Psychologie,2023-01-25_13h39.05.967,00_bat_bachelor,2022.2.4,59.92593885879286,
,,,,,,,,,,,,1,0,1,0,0,0,0,0,,,,,,,0,,,0.2,525.1846835468896,,X,l,go,l,1,0.5220377163495868,,,,,,,,521.9256150664296,space,3.031717469333671,,,,,73,001,25,w,Psychologie,2023-01-25_13h39.05.967,00_bat_bachelor,2022.2.4,59.92593885879286,
,,,,,,,,,,,,1,0,1,0,1,0,1,0,,,,,,,1,,,0.2,526.0180838700617,,Y,d,go,d,1,0.34529695357196033,,,,,,,,,,,,,,,73,001,25,w,Psychologie,2023-01-25_13h39.05.967,00_bat_bachelor,2022.2.4,59.92593885879286,
,,,,,,,,,,,,1,0,1,0,2,0,2,0,,,,,,,2,,,0.2,526.6676665854175,,X,l,go,l,1,0.22144828643649817,,,,,,,,,,,,,,,73,001,25,w,Psychologie,2023-01-25_13h39.05.967,00_bat_bachelor,2022.2.4,59.92593885879286,
,,,,,,,,,,,,1,0,1,0,3,0,3,0,,,,,,,3,,,0.2,527.201239660033,,Y,d,go,d,1,0.28174207534175366,,,,,,,,,,,,,,,73,001,25,w,Psychologie,2023-01-25_13h39.05.967,00_bat_bachelor,2022.2.4,59.92593885879286,
,,,,,,,,,,,,1,0,1,0,4,0,4,0,,,,,,,4,,,0.2,527.7845184075413,,X,l,go,l,1,0.20965532248374075,,,,,,,,,,,,,,,73,001,25,w,Psychologie,2023-01-25_13h39.05.967,00_bat_bachelor,2022.2.4,59.92593885879286,
,,,,,,,,,,,,1,0,1,0,5,0,5,0,,,,,,,5,,,0.2,528.3012493085116,,Y,d,go,d,1,0.2848024375271052,,,,,,,,,,,,,,,73,001,25,w,Psychologie,2023-01-25_13h39.05.967,00_bat_bachelor,2022.2.4,59.92593885879286,
,,,,,,,,,,,,1,0,1,0,6,0,6,0,,,,,,,6,,,0.2,528.9013396842638,,Y,None,nogo,l,0,0.19818769162520766,,,,,,,,,,,,,,,73,001,25,w,Psychologie,2023-01-25_13h39.05.967,00_bat_bachelor,2022.2.4,59.92593885879286,
,,,,,,,,,,,,1,0,1,0,7,0,7,0,,,,,,,7,,,0.2,529.4012347145472,,X,l,go,l,1,0.4013056537369266,,,,,,,,,,,,,,,73,001,25,w,Psychologie,2023-01-25_13h39.05.967,00_bat_bachelor,2022.2.4,59.92593885879286,
,,,,,,,,,,,,1,0,1,0,8,0,8,0,,,,,,,8,,,0.2,530.1178224884206,,Y,d,go,d,1,0.197447813116014,,,,,,,,,,,,,,,73,001,25,w,Psychologie,2023-01-25_13h39.05.967,00_bat_bachelor,2022.2.4,59.92593885879286,
,,,,,,,,,,,,1,0,1,0,9,0,9,0,,,,,,,9,,,0.2,530.6176709732972,,X,l,go,l,1,0.3043941855430603,,,,,,,,,,,,,,,73,001,25,w,Psychologie,2023-01-25_13h39.05.967,00_bat_bachelor,2022.2.4,59.92593885879286,
,,,,,,,,,,,,1,0,1,0,10,0,10,0,,,,,,,10,,,0.2,531.2343417046359,,Y,d,go,d,1,0.31149236392229795,,,,,,,,,,,,,,,73,001,25,w,Psychologie,2023-01-25_13h39.05.967,00_bat_bachelor,2022.2.4,59.92593885879286,
,,,,,,,,,,,,1,0,1,0,11,0,11,0,,,,,,,11,,,0.2,531.8511292843614,,X,l,go,l,1,0.2542376038618386,,,,,,,,,,,,,,,73,001,25,w,Psychologie,2023-01-25_13h39.05.967,00_bat_bachelor,2022.2.4,59.92593885879286,
,,,,,,,,,,,,1,0,1,0,12,0,12,0,,,,,,,12,,,0.2,532.4176783430157,,Y,d,go,d,1,0.2643815989140421,,,,,,,,,,,,,,,73,001,25,w,Psychologie,2023-01-25_13h39.05.967,00_bat_bachelor,2022.2.4,59.92593885879286,
,,,,,,,,,,,,1,0,1,0,13,0,13,0,,,,,,,13,,,0.2,532.9845983105479,,X,l,go,l,1,0.3540368281537667,,,,,,,,,,,,,,,73,001,25,w,Psychologie,2023-01-25_13h39.05.967,00_bat_bachelor,2022.2.4,59.92593885879286,
,,,,,,,,,,,,1,0,1,0,14,0,14,0,,,,,,,14,,,0.2,533.651225381298,,Y,d,go,d,1,0.4551461124792695,,,,,,,,,,,,,,,73,001,25,w,Psychologie,2023-01-25_13h39.05.967,00_bat_bachelor,2022.2.4,59.92593885879286,
,,,,,,,,,,,,1,0,1,0,15,0,15,0,,,,,,,15,,,0.2,534.4179595549358,,X,l,go,l,1,0.32847174967173487,,,,,,,,,,,,,,,73,001,25,w,Psychologie,2023-01-25_13h39.05.967,00_bat_bachelor,2022.2.4,59.92593885879286,
,,,,,,,,,,,,1,0,1,0,16,0,16,0,,,,,,,16,,,0.2,535.0513173084473,,Y,d,go,d,1,0.398878988227807,,,,,,,,,,,,,,,73,001,25,w,Psychologie,2023-01-25_13h39.05.967,00_bat_bachelor,2022.2.4,59.92593885879286,
,,,,,,,,,,,,1,0,1,0,17,0,17,0,,,,,,,17,,,0.2,535.7512941812165,536.5509980359348,Y,None,nogo,None,1,,,,,,,,,,,,,,,,73,001,25,w,Psychologie,2023-01-25_13h39.05.967,00_bat_bachelor,2022.2.4,59.92593885879286,
,,,,,,,,,,,,1,0,1,0,18,0,18,0,,,,,,,18,,,0.2,536.751384363044,,X,l,go,l,1,0.21814356069080532,,,,,,,,,,,,,,,73,001,25,w,Psychologie,2023-01-25_13h39.05.967,00_bat_bachelor,2022.2.4,59.92593885879286,
,,,,,,,,,,,,1,0,1,0,19,0,19,0,,,,,,,19,,,0.2,537.2843746501021,,Y,d,go,d,1,0.2631069328635931,,,,,,,,,,,,,,,73,001,25,w,Psychologie,2023-01-25_13h39.05.967,00_bat_bachelor,2022.2.4,59.92593885879286,
,,,,,,,,,,,,1,0,1,0,20,0,20,0,,,,,,,20,,,0.2,537.8512306176126,,Y,None,nogo,l,0,0.350105193676427,,,,,,,,,,,,,,,73,001,25,w,Psychologie,2023-01-25_13h39.05.967,00_bat_bachelor,2022.2.4,59.92593885879286,
,,,,,,,,,,,,1,0,1,0,21,0,21,0,,,,,,,21,,,0.2,538.5010538176866,,X,l,go,l,1,0.5176197792170569,,,,,,,,,,,,,,,73,001,25,w,Psychologie,2023-01-25_13h39.05.967,00_bat_bachelor,2022.2.4,59.92593885879286,
,,,,,,,,,,,,1,0,1,0,22,0,22,0,,,,,,,22,,,0.2,539.3346432317048,,Y,d,go,d,1,0.21284416934940964,,,,,,,,,,,,,,,73,001,25,w,Psychologie,2023-01-25_13h39.05.967,00_bat_bachelor,2022.2.4,59.92593885879286,
,,,,,,,,,,,,1,0,1,0,23,0,23,0,,,,,,,23,,,0.2,539.8512184964493,,X,l,go,l,1,0.22313652792945504,,,,,,,,,,,,,,,73,001,25,w,Psychologie,2023-01-25_13h39.05.967,00_bat_bachelor,2022.2.4,59.92593885879286,
,,,,,,,,,,,,1,0,1,0,24,0,24,0,,,,,,,24,,,0.2,540.3846853893483,,Y,d,go,d,1,0.34614010469522327,,,,,,,,,,,,,,,73,001,25,w,Psychologie,2023-01-25_13h39.05.967,00_bat_bachelor,2022.2.4,59.92593885879286,
,,,,,,,,,,,,1,0,1,0,25,0,25,0,,,,,,,25,,,0.2,541.0345226499485,,X,l,go,l,1,0.5442238874966279,,,,,,,,,,,,,,,73,001,25,w,Psychologie,2023-01-25_13h39.05.967,00_bat_bachelor,2022.2.4,59.92593885879286,
,,,,,,,,,,,,1,0,1,0,26,0,26,0,,,,,,,26,,,0.2,541.8843602985144,,Y,d,go,d,1,0.30148315674159676,,,,,,,,,,,,,,,73,001,25,w,Psychologie,2023-01-25_13h39.05.967,00_bat_bachelor,2022.2.4,59.92593885879286,
,,,,,,,,,,,,1,0,1,0,27,0,27,0,,,,,,,27,,,0.2,542.5012230298016,543.3013336721342,Y,None,nogo,None,1,,,,,,,,,,,,,,,,73,001,25,w,Psychologie,2023-01-25_13h39.05.967,00_bat_bachelor,2022.2.4,59.92593885879286,
,,,,,,,,,,,,1,0,1,0,28,0,28,0,,,,,,,28,,,0.2,543.500999514712,,X,l,go,l,1,0.4452435717685148,,,,,,,,,,,,,,,73,001,25,w,Psychologie,2023-01-25_13h39.05.967,00_bat_bachelor,2022.2.4,59.92593885879286,
,,,,,,,,,,,,1,0,1,0,29,0,29,0,,,,,,,29,,,0.2,544.2509913934628,,Y,d,go,d,1,0.2239908305928111,,,,,,,,,,,,,,,73,001,25,w,Psychologie,2023-01-25_13h39.05.967,00_bat_bachelor,2022.2.4,59.92593885879286,
,,,,,,,,,,,,1,0,1,0,30,0,30,0,,,,,,,30,,,0.2,544.7843579227338,545.5846867468208,Y,None,nogo,None,1,,,,,,,,,,,,,,,,73,001,25,w,Psychologie,2023-01-25_13h39.05.967,00_bat_bachelor,2022.2.4,59.92593885879286,
,,,,,,,,,,,,1,0,1,0,31,0,31,0,,,,,,,31,,,0.2,545.784337074263,,Y,None,nogo,l,0,0.2259030721616,,,,,,,,,,,,,,,73,001,25,w,Psychologie,2023-01-25_13h39.05.967,00_bat_bachelor,2022.2.4,59.92593885879286,
,,,,,,,,,,,,1,0,1,0,32,0,32,0,,,,,,,32,,,0.2,546.3180526943179,,X,l,go,l,1,0.508855662192218,,,,,,,,,,,,,,,73,001,25,w,Psychologie,2023-01-25_13h39.05.967,00_bat_bachelor,2022.2.4,59.92593885879286,
,,,,,,,,,,,,1,0,1,0,33,0,33,0,,,,,,,33,,,0.2,547.1345555711305,,Y,d,go,d,1,0.21912634815089405,,,,,,,,,,,,,,,73,001,25,w,Psychologie,2023-01-25_13h39.05.967,00_bat_bachelor,2022.2.4,59.92593885879286,
,,,,,,,,,,,,1,0,1,0,34,0,34,0,,,,,,,34,,,0.2,547.6678736156318,,X,l,go,l,1,0.2474676676793024,,,,,,,,,,,,,,,73,001,25,w,Psychologie,2023-01-25_13h39.05.967,00_bat_bachelor,2022.2.4,59.92593885879286,
,,,,,,,,,,,,1,0,1,0,35,0,35,0,,,,,,,35,,,0.2,548.2177312884014,,X,None,nogo,d,0,0.20819641405250877,,,,,,,,,,,,,,,73,001,25,w,Psychologie,2023-01-25_13h39.05.967,00_bat_bachelor,2022.2.4,59.92593885879286,
,,,,,,,,,,,,1,0,1,0,36,0,36,0,,,,,,,36,,,0.2,548.7345295832492,,Y,d,go,d,1,0.3953604444395751,,,,,,,,,,,,,,,73,001,25,w,Psychologie,2023-01-25_13h39.05.967,00_bat_bachelor,2022.2.4,59.92593885879286,
,,,,,,,,,,,,1,0,1,0,37,0,37,0,,,,,,,37,,,0.2,549.4345612438628,,X,l,go,l,1,0.3361997458850965,,,,,,,,,,,,,,,73,001,25,w,Psychologie,2023-01-25_13h39.05.967,00_bat_bachelor,2022.2.4,59.92593885879286,
,,,,,,,,,,,,1,0,1,0,38,0,38,0,,,,,,,38,,,0.2,550.0843252924969,550.8845358135877,X,None,nogo,None,1,,,,,,,,,,,,,,,,73,001,25,w,Psychologie,2023-01-25_13h39.05.967,00_bat_bachelor,2022.2.4,59.92593885879286,
,,,,,,,,,,,,1,0,1,0,39,0,39,0,,,,,,,39,,,0.2,551.084566262085,,Y,d,go,d,1,0.2692582025192678,,,,,,,,,,,,,,,73,001,25,w,Psychologie,2023-01-25_13h39.05.967,00_bat_bachelor,2022.2.4,59.92593885879286,
,,,,,,,,,,,,1,0,1,0,40,0,40,0,,,,,,,40,,,0.2,551.6678905852605,,X,l,go,l,1,0.37471560609992594,,,,,,,,,,,,,,,73,001,25,w,Psychologie,2023-01-25_13h39.05.967,00_bat_bachelor,2022.2.4,59.92593885879286,
,,,,,,,,,,,,1,0,1,0,41,0,41,0,,,,,,,41,,,0.2,552.3512231025379,553.1509846540866,X,None,nogo,None,1,,,,,,,,,,,,,,,,73,001,25,w,Psychologie,2023-01-25_13h39.05.967,00_bat_bachelor,2022.2.4,59.92593885879286,
,,,,,,,,,,,,1,0,1,0,42,0,42,0,,,,,,,42,,,0.2,553.3509758298751,554.1512149570044,X,None,nogo,None,1,,,,,,,,,,,,,,,,73,001,25,w,Psychologie,2023-01-25_13h39.05.967,00_bat_bachelor,2022.2.4,59.92593885879286,
,,,,,,,,,,,,1,0,1,0,43,0,43,0,,,,,,,43,,,0.2,554.3513971630018,,Y,d,go,d,1,0.26718887023162097,,,,,,,,,,,,,,,73,001,25,w,Psychologie,2023-01-25_13h39.05.967,00_bat_bachelor,2022.2.4,59.92593885879286,
,,,,,,,,,,,,1,0,1,0,44,0,44,0,,,,,,,44,,,0.2,554.9180053730961,,X,l,go,l,1,0.3883466296829283,,,,,,,,,,,,,,,73,001,25,w,Psychologie,2023-01-25_13h39.05.967,00_bat_bachelor,2022.2.4,59.92593885879286,
,,,,,,,,,,,,1,0,1,0,45,0,45,0,,,,,,,45,,,0.2,555.6180060034385,556.4180124034174,X,None,nogo,None,1,,,,,,,,,,,,,,,,73,001,25,w,Psychologie,2023-01-25_13h39.05.967,00_bat_bachelor,2022.2.4,59.92593885879286,
,,,,,,,,,,,,1,0,1,0,46,0,46,0,,,,,,,46,,,0.2,556.6178862459492,,Y,d,go,d,1,0.239809489576146,,,,,,,,,,,,,,,73,001,25,w,Psychologie,2023-01-25_13h39.05.967,00_bat_bachelor,2022.2.4,59.92593885879286,
,,,,,,,,,,,,1,0,1,0,47,0,47,0,,,,,,,47,,,0.2,557.1677972520702,,X,l,go,l,1,0.31504630169365555,,,,,,,,,,,,,,,73,001,25,w,Psychologie,2023-01-25_13h39.05.967,00_bat_bachelor,2022.2.4,59.92593885879286,
,,,,,,,,,,,,1,0,1,0,48,0,48,0,,,,,,,48,,,0.2,557.7846730741439,,Y,d,go,d,1,0.4335558199090883,,,,,,,,,,,,,,,73,001,25,w,Psychologie,2023-01-25_13h39.05.967,00_bat_bachelor,2022.2.4,59.92593885879286,
,,,,,,,,,,,,1,0,1,0,49,0,49,0,,,,,,,49,,,0.2,558.5180972033413,,X,l,go,l,1,0.4205274626147002,,,,,,,,,,,,,,,73,001,25,w,Psychologie,2023-01-25_13h39.05.967,00_bat_bachelor,2022.2.4,59.92593885879286,
,,,,,,,,,,,,1,0,1,0,50,0,50,0,,,,,,,50,,,0.2,559.2512866661418,560.0510724601336,X,None,nogo,None,1,,,,,,,,,,,,,,,,73,001,25,w,Psychologie,2023-01-25_13h39.05.967,00_bat_bachelor,2022.2.4,59.92593885879286,
,,,,,,,,,,,,1,0,1,0,51,0,51,0,,,,,,,51,,,0.2,560.2512207267573,,Y,d,go,d,1,0.2867457092506811,,,,,,,,,,,,,,,73,001,25,w,Psychologie,2023-01-25_13h39.05.967,00_bat_bachelor,2022.2.4,59.92593885879286,
,,,,,,,,,,,,1,0,1,0,52,0,52,0,,,,,,,52,,,0.2,560.8512107388815,,X,l,go,l,1,0.3909357193624601,,,,,,,,,,,,,,,73,001,25,w,Psychologie,2023-01-25_13h39.05.967,00_bat_bachelor,2022.2.4,59.92593885879286,
,,,,,,,,,,,,1,0,1,0,53,0,53,0,,,,,,,53,,,0.2,561.5510950055905,562.3509797087172,X,None,nogo,None,1,,,,,,,,,,,,,,,,73,001,25,w,Psychologie,2023-01-25_13h39.05.967,00_bat_bachelor,2022.2.4,59.92593885879286,
,,,,,,,,,,,,1,0,1,0,54,0,54,0,,,,,,,54,,,0.2,562.5511890661437,,Y,d,go,d,1,0.1956436928594485,,,,,,,,,,,,,,,73,001,25,w,Psychologie,2023-01-25_13h39.05.967,00_bat_bachelor,2022.2.4,59.92593885879286,
,,,,,,,,,,,,1,0,1,0,55,0,55,0,,,,,,,55,,,0.2,563.0511708842823,,X,l,go,l,1,0.2872257090639323,,,,,,,,,,,,,,,73,001,25,w,Psychologie,2023-01-25_13h39.05.967,00_bat_bachelor,2022.2.4,59.92593885879286,
,,,,,,,,,,,,1,0,1,0,56,0,56,0,,,,,,,56,,,0.2,563.6512248964282,,Y,d,go,d,1,0.3274269016692415,,,,,,,,,,,,,,,73,001,25,w,Psychologie,2023-01-25_13h39.05.967,00_bat_bachelor,2022.2.4,59.92593885879286,
,,,,,,,,,,,,1,0,1,0,57,0,57,0,,,,,,,57,,,0.2,564.2843179227784,565.0846011711983,Y,None,nogo,None,1,,,,,,,,,,,,,,,,73,001,25,w,Psychologie,2023-01-25_13h39.05.967,00_bat_bachelor,2022.2.4,59.92593885879286,
,,,,,,,,,,,,1,0,1,0,58,0,58,0,,,,,,,58,,,0.2,565.2845424074912,,X,l,go,l,1,0.27823274373076856,,,,,,,,,,,,,,,73,001,25,w,Psychologie,2023-01-25_13h39.05.967,00_bat_bachelor,2022.2.4,59.92593885879286,
,,,,,,,,,,,,1,0,1,0,59,0,59,0,,,,,,,59,,,0.2,565.8678696398856,,Y,d,go,d,1,0.38232239021454006,,,,,,,,,,,,,,,73,001,25,w,Psychologie,2023-01-25_13h39.05.967,00_bat_bachelor,2022.2.4,59.92593885879286,
,,,,,,,,,,,,1,0,1,0,60,0,60,0,,,,,,,60,,,0.2,566.5511522176675,,X,l,go,l,1,0.45159508392680436,,,,,,,,,,,,,,,73,001,25,w,Psychologie,2023-01-25_13h39.05.967,00_bat_bachelor,2022.2.4,59.92593885879286,
,,,,,,,,,,,,1,0,1,0,61,0,61,0,,,,,,,61,,,0.2,567.3179659064626,568.1178418822819,X,None,nogo,None,1,,,,,,,,,,,,,,,,73,001,25,w,Psychologie,2023-01-25_13h39.05.967,00_bat_bachelor,2022.2.4,59.92593885879286,
,,,,,,,,,,,,1,0,1,0,62,0,62,0,,,,,,,62,,,0.2,568.317980451975,,Y,d,go,d,1,0.2683321424992755,,,,,,,,,,,,,,,73,001,25,w,Psychologie,2023-01-25_13h39.05.967,00_bat_bachelor,2022.2.4,59.92593885879286,
,,,,,,,,,,,,1,0,1,0,63,0,63,0,,,,,,,63,,,0.2,568.90101338143,,X,l,go,l,1,0.261133115622215,,,,,,,,,,,,,,,73,001,25,w,Psychologie,2023-01-25_13h39.05.967,00_bat_bachelor,2022.2.4,59.92593885879286,
,,,,,,,,,,,,1,0,1,0,64,0,64,0,,,,,,,64,,,0.2,569.4679968639975,,Y,d,go,d,1,0.28567467955872416,,,,,,,,,,,,,,,73,001,25,w,Psychologie,2023-01-25_13h39.05.967,00_bat_bachelor,2022.2.4,59.92593885879286,
,,,,,,,,,,,,1,0,1,0,65,0,65,0,,,,,,,65,,,0.2,570.0679737852188,570.8680068518734,Y,None,nogo,None,1,,,,,,,,,,,,,,,,73,001,25,w,Psychologie,2023-01-25_13h39.05.967,00_bat_bachelor,2022.2.4,59.92593885879286,
,,,,,,,,,,,,1,0,1,0,66,0,66,0,,,,,,,66,,,0.2,571.067873906577,,X,l,go,l,1,0.38248190528247505,,,,,,,,,,,,,,,73,001,25,w,Psychologie,2023-01-25_13h39.05.967,00_bat_bachelor,2022.2.4,59.92593885879286,
,,,,,,,,,,,,1,0,1,0,67,0,67,0,,,,,,,67,,,0.2,571.751143393456,,Y,d,go,d,1,0.3232504188781604,,,,,,,,,,,,,,,73,001,25,w,Psychologie,2023-01-25_13h39.05.967,00_bat_bachelor,2022.2.4,59.92593885879286,
,,,,,,,,,,,,1,0,1,0,68,0,68,0,,,,,,,68,,,0.2,572.3845030863304,,X,l,go,l,1,0.28165480273310095,,,,,,,,,,,,,,,73,001,25,w,Psychologie,2023-01-25_13h39.05.967,00_bat_bachelor,2022.2.4,59.92593885879286,
,,,,,,,,,,,,1,0,1,0,69,0,69,0,,,,,,,69,,,0.2,572.9678438943811,,Y,d,go,d,1,0.46663895540405065,,,,,,,,,,,,,,,73,001,25,w,Psychologie,2023-01-25_13h39.05.967,00_bat_bachelor,2022.2.4,59.92593885879286,
,,,,,,,,,,,,1,0,1,0,70,0,70,0,,,,,,,70,,,0.2,573.7345145529835,,X,l,go,l,1,0.24362185143399984,,,,,,,,,,,,,,,73,001,25,w,Psychologie,2023-01-25_13h39.05.967,00_bat_bachelor,2022.2.4,59.92593885879286,
,,,,,,,,,,,,1,0,1,0,71,0,71,0,,,,,,,71,,,0.2,574.2845773166046,,Y,d,go,d,1,0.26966983871534467,,,,,,,,,,,,,,,73,001,25,w,Psychologie,2023-01-25_13h39.05.967,00_bat_bachelor,2022.2.4,59.92593885879286,
,,,,,,,,,,,,1,0,1,0,72,0,72,0,,,,,,,72,,,0.2,574.8678735186113,,X,l,go,l,1,0.23040779714938253,,,,,,,,,,,,,,,73,001,25,w,Psychologie,2023-01-25_13h39.05.967,00_bat_bachelor,2022.2.4,59.92593885879286,
,,,,,,,,,,,,1,0,1,0,73,0,73,0,,,,,,,73,,,0.2,575.4011901086196,576.2012091146316,X,None,nogo,None,1,,,,,,,,,,,,,,,,73,001,25,w,Psychologie,2023-01-25_13h39.05.967,00_bat_bachelor,2022.2.4,59.92593885879286,
,,,,,,,,,,,,1,0,1,0,74,0,74,0,,,,,,,74,,,0.2,576.4010005329037,,X,None,nogo,l,0,0.4405715741449967,,,,,,,,,,,,,,,73,001,25,w,Psychologie,2023-01-25_13h39.05.967,00_bat_bachelor,2022.2.4,59.92593885879286,
,,,,,,,,,,,,1,0,1,0,75,0,75,0,,,,,,,75,,,0.2,577.1511761691654,,Y,d,go,d,1,0.31479369569569826,,,,,,,,,,,,,,,73,001,25,w,Psychologie,2023-01-25_13h39.05.967,00_bat_bachelor,2022.2.4,59.92593885879286,
,,,,,,,,,,,,1,0,1,0,76,0,76,0,,,,,,,76,,,0.2,577.7680059307022,,X,l,go,l,1,0.226611920283176,,,,,,,,,,,,,,,73,001,25,w,Psychologie,2023-01-25_13h39.05.967,00_bat_bachelor,2022.2.4,59.92593885879286,
,,,,,,,,,,,,1,0,1,0,77,0,77,0,,,,,,,77,,,0.2,578.3011091874214,,Y,d,go,d,1,0.3816116026137024,,,,,,,,,,,,,,,73,001,25,w,Psychologie,2023-01-25_13h39.05.967,00_bat_bachelor,2022.2.4,59.92593885879286,
,,,,,,,,,,,,1,0,1,0,78,0,78,0,,,,,,,78,,,0.2,578.9846206135117,,X,l,go,l,1,0.19418478442821652,,,,,,,,,,,,,,,73,001,25,w,Psychologie,2023-01-25_13h39.05.967,00_bat_bachelor,2022.2.4,59.92593885879286,
,,,,,,,,,,,,1,0,1,0,79,0,79,0,,,,,,,79,,,0.2,579.4845258257119,,X,None,nogo,l,0,0.3178443608339876,,,,,,,,,,,,,,,73,001,25,w,Psychologie,2023-01-25_13h39.05.967,00_bat_bachelor,2022.2.4,59.92593885879286,
,,,,,,,,,,,,1,0,1,0,80,0,80,0,,,,,,,80,,,0.2,580.118029518635,,Y,d,go,d,1,0.46822295465972275,,,,,,,,,,,,,,,73,001,25,w,Psychologie,2023-01-25_13h39.05.967,00_bat_bachelor,2022.2.4,59.92593885879286,
,,,,,,,,,,,,1,0,1,0,81,0,81,0,,,,,,,81,,,0.2,580.900976048084,,X,l,go,l,1,0.2613222064683214,,,,,,,,,,,,,,,73,001,25,w,Psychologie,2023-01-25_13h39.05.967,00_bat_bachelor,2022.2.4,59.92593885879286,
,,,,,,,,,,,,1,0,1,0,82,0,82,0,,,,,,,82,,,0.2,581.4676511673024,582.2678616883932,X,None,nogo,None,1,,,,,,,,,,,,,,,,73,001,25,w,Psychologie,2023-01-25_13h39.05.967,00_bat_bachelor,2022.2.4,59.92593885879286,
,,,,,,,,,,,,1,0,1,0,83,0,83,0,,,,,,,83,,,0.2,582.4678523793118,,Y,d,go,d,1,0.2627306906506419,,,,,,,,,,,,,,,73,001,25,w,Psychologie,2023-01-25_13h39.05.967,00_bat_bachelor,2022.2.4,59.92593885879286,
,,,,,,,,,,,,1,0,1,0,84,0,84,0,,,,,,,84,,,0.2,583.0346584074432,,X,l,go,l,1,0.3035825496772304,,,,,,,,,,,,,,,73,001,25,w,Psychologie,2023-01-25_13h39.05.967,00_bat_bachelor,2022.2.4,59.92593885879286,
,,,,,,,,,,,,1,0,1,0,85,0,85,0,,,,,,,85,,,0.2,583.6512743509375,,Y,d,go,d,1,0.3441207117866725,,,,,,,,,,,,,,,73,001,25,w,Psychologie,2023-01-25_13h39.05.967,00_bat_bachelor,2022.2.4,59.92593885879286,
,,,,,,,,,,,,1,0,1,0,86,0,86,0,,,,,,,86,,,0.2,584.3012114904122,,X,l,go,l,1,0.25256827124394476,,,,,,,,,,,,,,,73,001,25,w,Psychologie,2023-01-25_13h39.05.967,00_bat_bachelor,2022.2.4,59.92593885879286,
,,,,,,,,,,,,1,0,1,0,87,0,87,0,,,,,,,87,,,0.2,584.8679506095359,585.6676917974837,X,None,nogo,None,1,,,,,,,,,,,,,,,,73,001,25,w,Psychologie,2023-01-25_13h39.05.967,00_bat_bachelor,2022.2.4,59.92593885879286,
,,,,,,,,,,,,1,0,1,0,88,0,88,0,,,,,,,88,,,0.2,585.8676437005633,586.6678755549947,X,None,nogo,None,1,,,,,,,,,,,,,,,,73,001,25,w,Psychologie,2023-01-25_13h39.05.967,00_bat_bachelor,2022.2.4,59.92593885879286,
,,,,,,,,,,,,1,0,1,0,89,0,89,0,,,,,,,89,,,0.2,586.8678798216861,,Y,d,go,d,1,0.3586511289468035,,,,,,,,,,,,,,,73,001,25,w,Psychologie,2023-01-25_13h39.05.967,00_bat_bachelor,2022.2.4,59.92593885879286,
,,,,,,,,,,,,1,0,1,0,90,0,90,0,,,,,,,90,,,0.2,587.534368225839,,X,l,go,l,1,0.20403544639702886,,,,,,,,,,,,,,,73,001,25,w,Psychologie,2023-01-25_13h39.05.967,00_bat_bachelor,2022.2.4,59.92593885879286,
,,,,,,,,,,,,1,0,1,0,91,0,91,0,,,,,,,91,,,0.2,588.0509701571427,,Y,d,go,d,1,0.21481556235812604,,,,,,,,,,,,,,,73,001,25,w,Psychologie,2023-01-25_13h39.05.967,00_bat_bachelor,2022.2.4,59.92593885879286,
,,,,,,,,,,,,1,0,1,0,92,0,92,0,,,,,,,92,,,0.2,588.5679822701495,,X,l,go,l,1,0.3540625252062455,,,,,,,,,,,,,,,73,001,25,w,Psychologie,2023-01-25_13h39.05.967,00_bat_bachelor,2022.2.4,59.92593885879286,
,,,,,,,,,,,,1,0,1,0,93,0,93,0,,,,,,,93,,,0.2,589.2343043712899,,Y,d,go,d,1,0.31236848479602486,,,,,,,,,,,,,,,73,001,25,w,Psychologie,2023-01-25_13h39.05.967,00_bat_bachelor,2022.2.4,59.92593885879286,
,,,,,,,,,,,,1,0,1,0,94,0,94,0,,,,,,,94,,,0.2,589.8513183752075,590.6510241692886,Y,None,nogo,None,1,,,,,,,,,,,,,,,,73,001,25,w,Psychologie,2023-01-25_13h39.05.967,00_bat_bachelor,2022.2.4,59.92593885879286,
,,,,,,,,,,,,1,0,1,0,95,0,95,0,,,,,,,95,,,0.2,590.8512863751967,,X,l,go,l,1,0.19986963015981019,,,,,,,,,,,,,,,73,001,25,w,Psychologie,2023-01-25_13h39.05.967,00_bat_bachelor,2022.2.4,59.92593885879286,
,,,,,,,,,,,,1,0,1,0,96,0,96,0,,,,,,,96,,,0.2,591.3512167994631,,Y,d,go,d,1,0.2916615856811404,,,,,,,,,,,,,,,73,001,25,w,Psychologie,2023-01-25_13h39.05.967,00_bat_bachelor,2022.2.4,59.92593885879286,
,,,,,,,,,,,,1,0,1,0,97,0,97,0,,,,,,,97,,,0.2,591.951194690424,,X,l,go,l,1,0.2350914312992245,,,,,,,,,,,,,,,73,001,25,w,Psychologie,2023-01-25_13h39.05.967,00_bat_bachelor,2022.2.4,59.92593885879286,
,,,,,,,,,,,,1,0,1,0,98,0,98,0,,,,,,,98,,,0.2,592.5009854540695,593.3014694296289,X,None,nogo,None,1,,,,,,,,,,,,,,,,73,001,25,w,Psychologie,2023-01-25_13h39.05.967,00_bat_bachelor,2022.2.4,59.92593885879286,
,,,,,,,,,,,,1,0,1,0,99,0,99,0,,,,,,,99,,,0.2,593.5011706661899,,Y,d,go,d,1,0.30070061155129224,,,,,,,,,,,,,,,73,001,25,w,Psychologie,2023-01-25_13h39.05.967,00_bat_bachelor,2022.2.4,59.92593885879286,
,,,,,,,,,,,,1,0,1,0,100,0,100,0,,,,,,,100,,,0.2,594.1177875793073,,X,l,go,l,1,0.2291093736421317,,,,,,,,,,,,,,,73,001,25,w,Psychologie,2023-01-25_13h39.05.967,00_bat_bachelor,2022.2.4,59.92593885879286,
,,,,,,,,,,,,1,0,1,0,101,0,101,0,,,,,,,101,,,0.2,594.6509693814442,595.4513510538964,X,None,nogo,None,1,,,,,,,,,,,,,,,,73,001,25,w,Psychologie,2023-01-25_13h39.05.967,00_bat_bachelor,2022.2.4,59.92593885879286,
,,,,,,,,,,,,1,0,1,0,102,0,102,0,,,,,,,102,,,0.2,595.6509698661976,,Y,d,go,d,1,0.3277585378382355,,,,,,,,,,,,,,,73,001,25,w,Psychologie,2023-01-25_13h39.05.967,00_bat_bachelor,2022.2.4,59.92593885879286,
,,,,,,,,,,,,1,0,1,0,103,0,103,0,,,,,,,103,,,0.2,596.2843470136868,,X,l,go,l,1,0.23731591505929828,,,,,,,,,,,,,,,73,001,25,w,Psychologie,2023-01-25_13h39.05.967,00_bat_bachelor,2022.2.4,59.92593885879286,
,,,,,,,,,,,,1,0,1,0,104,0,104,0,,,,,,,104,,,0.2,596.8345217772294,,X,None,nogo,d,0,0.21528586512431502,,,,,,,,,,,,,,,73,001,25,w,Psychologie,2023-01-25_13h39.05.967,00_bat_bachelor,2022.2.4,59.92593885879286,
,,,,,,,,,,,,1,0,1,0,105,0,105,0,,,,,,,105,,,0.2,597.351155708544,,Y,d,go,d,1,0.3076950324466452,,,,,,,,,,,,,,,73,001,25,w,Psychologie,2023-01-25_13h39.05.967,00_bat_bachelor,2022.2.4,59.92593885879286,
,,,,,,,,,,,,1,0,1,0,106,0,106,0,,,,,,,106,,,0.2,597.9678443792509,,X,l,go,l,1,0.23420755297411233,,,,,,,,,,,,,,,73,001,25,w,Psychologie,2023-01-25_13h39.05.967,00_bat_bachelor,2022.2.4,59.92593885879286,
,,,,,,,,,,,,1,0,1,0,107,0,107,0,,,,,,,107,,,0.2,598.5178635065677,,Y,d,go,d,1,0.3406268951948732,,,,,,,,,,,,,,,73,001,25,w,Psychologie,2023-01-25_13h39.05.967,00_bat_bachelor,2022.2.4,59.92593885879286,
,,,,,,,,,,,,1,0,1,0,108,0,108,0,,,,,,,108,,,0.2,599.1680081610102,,Y,None,nogo,None,1,,,,,,,,,,,,,,,,73,001,25,w,Psychologie,2023-01-25_13h39.05.967,00_bat_bachelor,2022.2.4,59.92593885879286,
,,,,,,,,,,,,1,0,1,0,109,0,109,0,,,,,,,109,,,0.2,600.1678559186403,,Y,None,nogo,l,0,0.2109522914979607,,,,,,,,,,,,,,,73,001,25,w,Psychologie,2023-01-25_13h39.05.967,00_bat_bachelor,2022.2.4,59.92593885879286,
,,,,,,,,,,,,1,0,1,0,110,0,110,0,,,,,,,110,,,0.2,600.6845077893231,,X,l,go,l,1,0.5253768663387746,,,,,,,,,,,,,,,73,001,25,w,Psychologie,2023-01-25_13h39.05.967,00_bat_bachelor,2022.2.4,59.92593885879286,
,,,,,,,,,,,,1,0,1,0,111,0,111,0,,,,,,,111,,,0.2,601.5178373247618,,Y,d,go,d,1,0.22066331701353192,,,,,,,,,,,,,,,73,001,25,w,Psychologie,2023-01-25_13h39.05.967,00_bat_bachelor,2022.2.4,59.92593885879286,
,,,,,,,,,,,,1,0,1,0,112,0,112,0,,,,,,,112,,,0.2,602.0513139145914,602.8511782540008,Y,None,nogo,None,1,,,,,,,,,,,,,,,,73,001,25,w,Psychologie,2023-01-25_13h39.05.967,00_bat_bachelor,2022.2.4,59.92593885879286,
,,,,,,,,,,,,1,0,1,0,113,0,113,0,,,,,,,113,,,0.2,603.051329429727,,X,l,go,l,1,0.19217993691563606,,,,,,,,,,,,,,,73,001,25,w,Psychologie,2023-01-25_13h39.05.967,00_bat_bachelor,2022.2.4,59.92593885879286,
,,,,,,,,,,,,1,0,1,0,114,0,114,0,,,,,,,114,,,0.2,603.5512331873178,,Y,d,go,d,1,0.26682765828445554,,,,,,,,,,,,,,,73,001,25,w,Psychologie,2023-01-25_13h39.05.967,00_bat_bachelor,2022.2.4,59.92593885879286,
,,,,,,,,,,,,1,0,1,0,115,0,115,0,,,,,,,115,,,0.2,604.1178598216502,,X,l,go,l,1,0.2607408734038472,,,,,,,,,,,,,,,73,001,25,w,Psychologie,2023-01-25_13h39.05.967,00_bat_bachelor,2022.2.4,59.92593885879286,
,,,,,,,,,,,,1,0,1,0,116,0,116,0,,,,,,,116,,,0.2,604.6845999105135,,Y,d,go,d,1,0.3174031489761546,,,,,,,,,,,,,,,73,001,25,w,Psychologie,2023-01-25_13h39.05.967,00_bat_bachelor,2022.2.4,59.92593885879286,
,,,,,,,,,,,,1,0,1,0,117,0,117,0,,,,,,,117,,,0.2,605.3179067550227,,X,l,go,l,1,0.38855511450674385,,,,,,,,,,,,,,,73,001,25,w,Psychologie,2023-01-25_13h39.05.967,00_bat_bachelor,2022.2.4,59.92593885879286,
,,,,,,,,,,,,1,0,1,0,118,0,118,0,,,,,,,118,,,0.2,606.0178637489444,606.817750391434,X,None,nogo,None,1,,,,,,,,,,,,,,,,73,001,25,w,Psychologie,2023-01-25_13h39.05.967,00_bat_bachelor,2022.2.4,59.92593885879286,
,,,,,,,,,,,,1,0,1,0,119,0,119,0,,,,,,,119,,,0.2,607.017864718684,,Y,d,go,d,1,0.20897992886602879,,,,,,,,,,,,,,,73,001,25,w,Psychologie,2023-01-25_13h39.05.967,00_bat_bachelor,2022.2.4,59.92593885879286,
,,,,,,,,,,,,1,0,1,0,120,0,120,0,,,,,,,120,,,0.2,607.5345127106411,,X,l,go,l,1,0.21967519633471966,,,,,,,,,,,,,,,73,001,25,w,Psychologie,2023-01-25_13h39.05.967,00_bat_bachelor,2022.2.4,59.92593885879286,
,,,,,,,,,,,,1,0,1,0,121,0,121,0,,,,,,,121,,,0.2,608.0676183914766,,Y,d,go,d,1,0.2944688569987193,,,,,,,,,,,,,,,73,001,25,w,Psychologie,2023-01-25_13h39.05.967,00_bat_bachelor,2022.2.4,59.92593885879286,
,,,,,,,,,,,,1,0,1,0,122,0,122,0,,,,,,,122,,,0.2,608.6676467066864,609.4676380763995,Y,None,nogo,None,1,,,,,,,,,,,,,,,,73,001,25,w,Psychologie,2023-01-25_13h39.05.967,00_bat_bachelor,2022.2.4,59.92593885879286,
,,,,,,,,,,,,1,0,1,0,123,0,123,0,,,,,,,123,,,0.2,609.6677179792896,,X,l,go,l,1,0.2307054940611124,,,,,,,,,,,,,,,73,001,25,w,Psychologie,2023-01-25_13h39.05.967,00_bat_bachelor,2022.2.4,59.92593885879286,
,,,,,,,,,,,,1,0,1,0,124,0,124,0,,,,,,,124,,,0.2,610.201175175258,,Y,d,go,d,1,0.2567961480235681,,,,,,,,,,,,,,,73,001,25,w,Psychologie,2023-01-25_13h39.05.967,00_bat_bachelor,2022.2.4,59.92593885879286,
,,,,,,,,,,,,1,0,1,0,125,0,125,0,,,,,,,125,,,0.2,610.7675952642458,,X,l,go,l,1,0.2667777189053595,,,,,,,,,,,,,,,73,001,25,w,Psychologie,2023-01-25_13h39.05.967,00_bat_bachelor,2022.2.4,59.92593885879286,
,,,,,,,,,,,,1,0,1,0,126,0,126,0,,,,,,,126,,,0.2,611.3343368076021,,Y,d,go,l,0,0.4358578793471679,,,,,,,,,,,,,,,73,001,25,w,Psychologie,2023-01-25_13h39.05.967,00_bat_bachelor,2022.2.4,59.92593885879286,
,,,,,,,,,,,,1,0,1,0,127,0,127,0,,,,,,,127,,,0.2,612.0845478378469,,Y,None,nogo,d,0,0.5341884983936325,,,,,,,,,,,,,,,73,001,25,w,Psychologie,2023-01-25_13h39.05.967,00_bat_bachelor,2022.2.4,59.92593885879286,
,,,,,,,,,,,,1,0,1,0,128,0,128,0,,,,,,,128,,,0.2,612.9343243954936,613.7345174620859,Y,None,nogo,None,1,,,,,,,,,,,,,,,,73,001,25,w,Psychologie,2023-01-25_13h39.05.967,00_bat_bachelor,2022.2.4,59.92593885879286,
,,,,,,,,,,,,1,0,1,0,129,0,129,0,,,,,,,129,,,0.2,613.9343224561308,,X,l,go,l,1,0.4116537699010223,,,,,,,,,,,,,,,73,001,25,w,Psychologie,2023-01-25_13h39.05.967,00_bat_bachelor,2022.2.4,59.92593885879286,
,,,,,,,,,,,,1,0,1,0,130,0,130,0,,,,,,,130,,,0.2,614.6509926541476,,Y,d,go,d,1,0.2066836874000728,,,,,,,,,,,,,,,73,001,25,w,Psychologie,2023-01-25_13h39.05.967,00_bat_bachelor,2022.2.4,59.92593885879286,
,,,,,,,,,,,,1,0,1,0,131,0,131,0,,,,,,,131,,,0.2,615.1678147065686,,X,l,go,l,1,0.44338854239322245,,,,,,,,,,,,,,,73,001,25,w,Psychologie,2023-01-25_13h39.05.967,00_bat_bachelor,2022.2.4,59.92593885879286,
,,,,,,,,,,,,1,0,1,0,132,0,132,0,,,,,,,132,,,0.2,615.9176514339633,,Y,d,go,d,1,0.2527951803058386,,,,,,,,,,,,,,,73,001,25,w,Psychologie,2023-01-25_13h39.05.967,00_bat_bachelor,2022.2.4,59.92593885879286,
,,,,,,,,,,,,1,0,1,0,133,0,133,0,,,,,,,133,,,0.2,616.4843420682009,,X,l,go,l,1,0.24614257737994194,,,,,,,,,,,,,,,73,001,25,w,Psychologie,2023-01-25_13h39.05.967,00_bat_bachelor,2022.2.4,59.92593885879286,
,,,,,,,,,,,,1,0,1,0,134,0,134,0,,,,,,,134,,,0.2,617.0346419226844,,Y,d,go,d,1,0.28790740575641394,,,,,,,,,,,,,,,73,001,25,w,Psychologie,2023-01-25_13h39.05.967,00_bat_bachelor,2022.2.4,59.92593885879286,
,,,,,,,,,,,,1,0,1,0,135,0,135,0,,,,,,,135,,,0.2,617.6344297530595,,X,l,go,l,1,0.2957706747110933,,,,,,,,,,,,,,,73,001,25,w,Psychologie,2023-01-25_13h39.05.967,00_bat_bachelor,2022.2.4,59.92593885879286,
,,,,,,,,,,,,1,0,1,0,136,0,136,0,,,,,,,136,,,0.2,618.2346311589936,619.0345129530178,X,None,nogo,None,1,,,,,,,,,,,,,,,,73,001,25,w,Psychologie,2023-01-25_13h39.05.967,00_bat_bachelor,2022.2.4,59.92593885879286,
,,,,,,,,,,,,1,0,1,0,137,0,137,0,,,,,,,137,,,0.2,619.234517704579,,Y,d,go,d,1,0.2317920388886705,,,,,,,,,,,,,,,73,001,25,w,Psychologie,2023-01-25_13h39.05.967,00_bat_bachelor,2022.2.4,59.92593885879286,
,,,,,,,,,,,,1,0,1,0,138,0,138,0,,,,,,,138,,,0.2,619.7676534460625,,X,l,go,l,1,0.22651301126461476,,,,,,,,,,,,,,,73,001,25,w,Psychologie,2023-01-25_13h39.05.967,00_bat_bachelor,2022.2.4,59.92593885879286,
,,,,,,,,,,,,1,0,1,0,139,0,139,0,,,,,,,139,,,0.2,620.3011838539969,,Y,d,go,d,1,0.25256730162072927,,,,,,,,,,,,,,,73,001,25,w,Psychologie,2023-01-25_13h39.05.967,00_bat_bachelor,2022.2.4,59.92593885879286,
,,,,,,,,,,,,1,0,1,0,140,0,140,0,,,,,,,140,,,0.2,620.8679142459296,621.6679890095256,Y,None,nogo,None,1,,,,,,,,,,,,,,,,73,001,25,w,Psychologie,2023-01-25_13h39.05.967,00_bat_bachelor,2022.2.4,59.92593885879286,
,,,,,,,,,,,,1,0,1,0,141,0,141,0,,,,,,,141,,,0.2,621.8678235792322,,X,l,go,l,1,0.19042672566138208,,,,,,,,,,,,,,,73,001,25,w,Psychologie,2023-01-25_13h39.05.967,00_bat_bachelor,2022.2.4,59.92593885879286,
,,,,,,,,,,,,1,0,1,0,142,0,142,0,,,,,,,142,,,0.2,622.3676565490896,,Y,d,go,d,1,0.3948610507650301,,,,,,,,,,,,,,,73,001,25,w,Psychologie,2023-01-25_13h39.05.967,00_bat_bachelor,2022.2.4,59.92593885879286,
,,,,,,,,,,,,1,0,1,0,143,0,143,0,,,,,,,143,,,0.2,623.0676067551831,,X,l,go,l,1,0.2545731187565252,,,,,,,,,,,,,,,73,001,25,w,Psychologie,2023-01-25_13h39.05.967,00_bat_bachelor,2022.2.4,59.92593885879286,
,,,,,,,,,,,,1,0,1,0,144,0,144,0,,,,,,,144,,,0.2,623.6346324196784,,Y,d,go,d,1,0.39298905164469033,,,,,,,,,,,,,,,73,001,25,w,Psychologie,2023-01-25_13h39.05.967,00_bat_bachelor,2022.2.4,59.92593885879286,
,,,,,,,,,,,,1,0,1,0,145,0,145,0,,,,,,,145,,,0.2,624.3344691712409,,X,l,go,l,1,0.4919417309574783,,,,,,,,,,,,,,,73,001,25,w,Psychologie,2023-01-25_13h39.05.967,00_bat_bachelor,2022.2.4,59.92593885879286,
,,,,,,,,,,,,1,0,1,0,146,0,146,0,,,,,,,146,,,0.2,625.1345177530311,,Y,d,go,d,1,0.3318870207294822,,,,,,,,,,,,,,,73,001,25,w,Psychologie,2023-01-25_13h39.05.967,00_bat_bachelor,2022.2.4,59.92593885879286,
,,,,,,,,,,,,1,0,1,0,147,0,147,0,,,,,,,147,,,0.2,625.7678260520333,,X,l,go,l,1,0.3540819190675393,,,,,,,,,,,,,,,73,001,25,w,Psychologie,2023-01-25_13h39.05.967,00_bat_bachelor,2022.2.4,59.92593885879286,
,,,,,,,,,,,,1,0,1,0,148,0,148,0,,,,,,,148,,,0.2,626.434553486295,627.2346078862902,X,None,nogo,None,1,,,,,,,,,,,,,,,,73,001,25,w,Psychologie,2023-01-25_13h39.05.967,00_bat_bachelor,2022.2.4,59.92593885879286,
,,,,,,,,,,,,1,0,1,0,149,0,149,0,,,,,,,149,,,0.2,627.4344691226725,,Y,d,go,d,1,0.30376679194159806,,,,,,,,,,,,,,,73,001,25,w,Psychologie,2023-01-25_13h39.05.967,00_bat_bachelor,2022.2.4,59.92593885879286,
,,,,,,,,,,,,1,0,1,0,150,0,150,0,,,,,,,150,,,0.2,628.0512416721322,,X,l,go,l,1,0.15121413860470057,,,,,,,,,,,,,,,73,001,25,w,Psychologie,2023-01-25_13h39.05.967,00_bat_bachelor,2022.2.4,59.92593885879286,
,,,,,,,,,,,,1,0,1,0,151,0,151,0,,,,,,,151,,,0.2,628.5175982945366,,X,None,nogo,d,0,0.2767631687456742,,,,,,,,,,,,,,,73,001,25,w,Psychologie,2023-01-25_13h39.05.967,00_bat_bachelor,2022.2.4,59.92593885879286,
,,,,,,,,,,,,1,0,1,0,152,0,152,0,,,,,,,152,,,0.2,629.1012566782301,,X,None,nogo,d,0,0.26825408183503896,,,,,,,,,,,,,,,73,001,25,w,Psychologie,2023-01-25_13h39.05.967,00_bat_bachelor,2022.2.4,59.92593885879286,
,,,,,,,,,,,,1,0,1,0,153,0,153,0,,,,,,,153,,,0.2,629.684621243854,,Y,d,go,d,1,0.4531931437086314,,,,,,,,,,,,,,,73,001,25,w,Psychologie,2023-01-25_13h39.05.967,00_bat_bachelor,2022.2.4,59.92593885879286,
,,,,,,,,,,,,1,0,1,0,154,0,154,0,,,,,,,154,,,0.2,630.4511212358484,,X,l,go,l,1,0.4392702414188534,,,,,,,,,,,,,,,73,001,25,w,Psychologie,2023-01-25_13h39.05.967,00_bat_bachelor,2022.2.4,59.92593885879286,
,,,,,,,,,,,,1,0,1,0,155,0,155,0,,,,,,,155,,,0.2,631.2011669328203,632.0011539389379,X,None,nogo,None,1,,,,,,,,,,,,,,,,73,001,25,w,Psychologie,2023-01-25_13h39.05.967,00_bat_bachelor,2022.2.4,59.92593885879286,
,,,,,,,,,,,,1,0,1,0,156,0,156,0,,,,,,,156,,,0.2,632.201200872194,633.0010007268284,X,None,nogo,None,1,,,,,,,,,,,,,,,,73,001,25,w,Psychologie,2023-01-25_13h39.05.967,00_bat_bachelor,2022.2.4,59.92593885879286,
,,,,,,,,,,,,1,0,1,0,157,0,157,0,,,,,,,157,,,0.2,633.2014001448406,,Y,d,go,d,1,0.42521109676454216,,,,,,,,,,,,,,,73,001,25,w,Psychologie,2023-01-25_13h39.05.967,00_bat_bachelor,2022.2.4,59.92593885879286,
,,,,,,,,,,,,1,0,1,0,158,0,158,0,,,,,,,158,,,0.2,633.9345125166001,,X,l,go,l,1,0.3483209521509707,,,,,,,,,,,,,,,73,001,25,w,Psychologie,2023-01-25_13h39.05.967,00_bat_bachelor,2022.2.4,59.92593885879286,
,,,,,,,,,,,,1,0,1,0,159,0,159,0,,,,,,,159,,,0.2,634.5844826257089,,Y,d,go,d,1,0.2746889878762886,,,,,,,,,,,,,,,73,001,25,w,Psychologie,2023-01-25_13h39.05.967,00_bat_bachelor,2022.2.4,59.92593885879286,
,,,,,,,,,,,,1,0,1,0,160,0,160,0,,,,,,,160,,,0.2,635.1679073126288,,X,l,go,l,1,0.2505794237367809,,,,,,,,,,,,,,,73,001,25,w,Psychologie,2023-01-25_13h39.05.967,00_bat_bachelor,2022.2.4,59.92593885879286,
,,,,,,,,,,,,1,0,1,0,161,0,161,0,,,,,,,161,,,0.2,635.7345009772107,,Y,d,go,d,1,0.6447518387576565,,,,,,,,,,,,,,,73,001,25,w,Psychologie,2023-01-25_13h39.05.967,00_bat_bachelor,2022.2.4,59.92593885879286,
,,,,,,,,,,,,1,0,1,0,162,0,162,0,,,,,,,162,,,0.2,636.6843322743662,637.4846489771735,Y,None,nogo,None,1,,,,,,,,,,,,,,,,73,001,25,w,Psychologie,2023-01-25_13h39.05.967,00_bat_bachelor,2022.2.4,59.92593885879286,
,,,,,,,,,,,,1,0,1,0,163,0,163,0,,,,,,,163,,,0.2,637.6845819711452,,X,l,go,l,1,0.2613449943019077,,,,,,,,,,,,,,,73,001,25,w,Psychologie,2023-01-25_13h39.05.967,00_bat_bachelor,2022.2.4,59.92593885879286,
,,,,,,,,,,,,1,0,1,0,164,0,164,0,,,,,,,164,,,0.2,638.2513181812828,,Y,d,go,d,1,0.27058862627018243,,,,,,,,,,,,,,,73,001,25,w,Psychologie,2023-01-25_13h39.05.967,00_bat_bachelor,2022.2.4,59.92593885879286,
,,,,,,,,,,,,1,0,1,0,165,0,165,0,,,,,,,165,,,0.2,638.8342633531429,,Y,None,nogo,l,0,0.24840487947221845,,,,,,,,,,,,,,,73,001,25,w,Psychologie,2023-01-25_13h39.05.967,00_bat_bachelor,2022.2.4,59.92593885879286,
,,,,,,,,,,,,1,0,1,0,166,0,166,0,,,,,,,166,,,0.2,639.3845026014606,,X,l,go,l,1,0.2904232832370326,,,,,,,,,,,,,,,73,001,25,w,Psychologie,2023-01-25_13h39.05.967,00_bat_bachelor,2022.2.4,59.92593885879286,
,,,,,,,,,,,,1,0,1,0,167,0,167,0,,,,,,,167,,,0.2,639.9842977046501,,Y,d,go,d,1,0.4257982479175553,,,,,,,,,,,,,,,73,001,25,w,Psychologie,2023-01-25_13h39.05.967,00_bat_bachelor,2022.2.4,59.92593885879286,
,,,,,,,,,,,,1,0,1,0,168,0,168,0,,,,,,,168,,,0.2,640.7178309247829,,X,l,go,l,1,0.4123761937953532,,,,,,,,,,,,,,,73,001,25,w,Psychologie,2023-01-25_13h39.05.967,00_bat_bachelor,2022.2.4,59.92593885879286,
,,,,,,,,,,,,1,0,1,0,169,0,169,0,,,,,,,169,,,0.2,641.4345452438574,,Y,d,go,d,1,0.3673168218228966,,,,,,,,,,,,,,,73,001,25,w,Psychologie,2023-01-25_13h39.05.967,00_bat_bachelor,2022.2.4,59.92593885879286,
,,,,,,,,,,,,1,0,1,0,170,0,170,0,,,,,,,170,,,0.2,642.1176096400013,642.9178429489257,Y,None,nogo,None,1,,,,,,,,,,,,,,,,73,001,25,w,Psychologie,2023-01-25_13h39.05.967,00_bat_bachelor,2022.2.4,59.92593885879286,
,,,,,,,,,,,,1,0,1,0,171,0,171,0,,,,,,,171,,,0.2,643.1177963066148,,X,l,go,l,1,0.25226475624367595,,,,,,,,,,,,,,,73,001,25,w,Psychologie,2023-01-25_13h39.05.967,00_bat_bachelor,2022.2.4,59.92593885879286,
,,,,,,,,,,,,1,0,1,0,172,0,172,0,,,,,,,172,,,0.2,643.6842503349762,,Y,d,go,d,1,0.29438061465043575,,,,,,,,,,,,,,,73,001,25,w,Psychologie,2023-01-25_13h39.05.967,00_bat_bachelor,2022.2.4,59.92593885879286,
,,,,,,,,,,,,1,0,1,0,173,0,173,0,,,,,,,173,,,0.2,644.2845351347933,,X,l,go,l,1,0.3009711569175124,,,,,,,,,,,,,,,73,001,25,w,Psychologie,2023-01-25_13h39.05.967,00_bat_bachelor,2022.2.4,59.92593885879286,
,,,,,,,,,,,,1,0,1,0,174,0,174,0,,,,,,,174,,,0.2,644.9011724116281,,Y,d,go,d,1,0.34118592529557645,,,,,,,,,,,,,,,73,001,25,w,Psychologie,2023-01-25_13h39.05.967,00_bat_bachelor,2022.2.4,59.92593885879286,
,,,,,,,,,,,,1,0,1,0,175,0,175,0,,,,,,,175,,,0.2,645.5509393692482,,X,l,go,l,1,0.2823185599409044,,,,,,,,,,,,,,,73,001,25,w,Psychologie,2023-01-25_13h39.05.967,00_bat_bachelor,2022.2.4,59.92593885879286,
,,,,,,,,,,,,1,0,1,0,176,0,176,0,,,,,,,176,,,0.2,646.1346234498778,646.9342691227794,X,None,nogo,None,1,,,,,,,,,,,,,,,,73,001,25,w,Psychologie,2023-01-25_13h39.05.967,00_bat_bachelor,2022.2.4,59.92593885879286,
,,,,,,,,,,,,1,0,1,0,177,0,177,0,,,,,,,177,,,0.2,647.1345114499563,,Y,d,go,d,1,0.21927665115799755,,,,,,,,,,,,,,,73,001,25,w,Psychologie,2023-01-25_13h39.05.967,00_bat_bachelor,2022.2.4,59.92593885879286,
,,,,,,,,,,,,1,0,1,0,178,0,178,0,,,,,,,178,,,0.2,647.6679739792598,,X,l,go,l,1,0.21515156223904341,,,,,,,,,,,,,,,73,001,25,w,Psychologie,2023-01-25_13h39.05.967,00_bat_bachelor,2022.2.4,59.92593885879286,
,,,,,,,,,,,,1,0,1,0,179,0,179,0,,,,,,,179,,,0.2,648.1842971227597,,Y,d,go,d,1,0.3371898060431704,,,,,,,,,,,,,,,73,001,25,w,Psychologie,2023-01-25_13h39.05.967,00_bat_bachelor,2022.2.4,59.92593885879286,
,,,,,,,,,,,,1,0,1,0,180,0,180,0,,,,,,,180,,,0.2,648.8345159590244,,X,l,go,l,1,0.2799423186806962,,,,,,,,,,,,,,,73,001,25,w,Psychologie,2023-01-25_13h39.05.967,00_bat_bachelor,2022.2.4,59.92593885879286,
,,,,,,,,,,,,1,0,1,0,181,0,181,0,,,,,,,181,,,0.2,649.4177699793363,650.2176348036155,X,None,nogo,None,1,,,,,,,,,,,,,,,,73,001,25,w,Psychologie,2023-01-25_13h39.05.967,00_bat_bachelor,2022.2.4,59.92593885879286,
,,,,,,,,,,,,1,0,1,0,182,0,182,0,,,,,,,182,,,0.2,650.4176390703069,,Y,d,go,d,1,0.39296190021559596,,,,,,,,,,,,,,,73,001,25,w,Psychologie,2023-01-25_13h39.05.967,00_bat_bachelor,2022.2.4,59.92593885879286,
,,,,,,,,,,,,1,0,1,0,183,0,183,0,,,,,,,183,,,0.2,651.1176275793696,,X,l,go,l,1,0.2681420820299536,,,,,,,,,,,,,,,73,001,25,w,Psychologie,2023-01-25_13h39.05.967,00_bat_bachelor,2022.2.4,59.92593885879286,
,,,,,,,,,,,,1,0,1,0,184,0,184,0,,,,,,,184,,,0.2,651.7011579631362,,Y,d,go,d,1,0.2932892212411389,,,,,,,,,,,,,,,73,001,25,w,Psychologie,2023-01-25_13h39.05.967,00_bat_bachelor,2022.2.4,59.92593885879286,
,,,,,,,,,,,,1,0,1,0,185,0,185,0,,,,,,,185,,,0.2,652.3011600964237,,X,l,go,l,1,0.3646583987865597,,,,,,,,,,,,,,,73,001,25,w,Psychologie,2023-01-25_13h39.05.967,00_bat_bachelor,2022.2.4,59.92593885879286,
,,,,,,,,,,,,1,0,1,0,186,0,186,0,,,,,,,186,,,0.2,652.9676131067099,,Y,d,go,d,1,0.38591317634563893,,,,,,,,,,,,,,,73,001,25,w,Psychologie,2023-01-25_13h39.05.967,00_bat_bachelor,2022.2.4,59.92593885879286,
,,,,,,,,,,,,1,0,1,0,187,0,187,0,,,,,,,187,,,0.2,653.6679444034817,,X,l,go,l,1,0.48668258206453174,,,,,,,,,,,,,,,73,001,25,w,Psychologie,2023-01-25_13h39.05.967,00_bat_bachelor,2022.2.4,59.92593885879286,
,,,,,,,,,,,,1,0,1,0,188,0,188,0,,,,,,,188,,,0.2,654.4677486217115,,Y,d,go,d,1,0.35783512936905026,,,,,,,,,,,,,,,73,001,25,w,Psychologie,2023-01-25_13h39.05.967,00_bat_bachelor,2022.2.4,59.92593885879286,
,,,,,,,,,,,,1,0,1,0,189,0,189,0,,,,,,,189,,,0.2,655.1345565408701,655.934314698563,Y,None,nogo,None,1,,,,,,,,,,,,,,,,73,001,25,w,Psychologie,2023-01-25_13h39.05.967,00_bat_bachelor,2022.2.4,59.92593885879286,
,,,,,,,,,,,,1,0,1,0,190,0,190,0,,,,,,,190,,,0.2,656.1345604197122,,X,l,go,l,1,0.24467251752503216,,,,,,,,,,,,,,,73,001,25,w,Psychologie,2023-01-25_13h39.05.967,00_bat_bachelor,2022.2.4,59.92593885879286,
,,,,,,,,,,,,1,0,1,0,191,0,191,0,,,,,,,191,,,0.2,656.6844602742931,,Y,d,go,d,1,0.22121216531377286,,,,,,,,,,,,,,,73,001,25,w,Psychologie,2023-01-25_13h39.05.967,00_bat_bachelor,2022.2.4,59.92593885879286,
,,,,,,,,,,,,1,0,1,0,192,0,192,0,,,,,,,192,,,0.2,657.2178195307497,,X,l,go,l,1,0.28011104580946267,,,,,,,,,,,,,,,73,001,25,w,Psychologie,2023-01-25_13h39.05.967,00_bat_bachelor,2022.2.4,59.92593885879286,
,,,,,,,,,,,,1,0,1,0,193,0,193,0,,,,,,,193,,,0.2,657.8009402177995,,Y,d,go,d,1,0.32029284455347806,,,,,,,,,,,,,,,73,001,25,w,Psychologie,2023-01-25_13h39.05.967,00_bat_bachelor,2022.2.4,59.92593885879286,
,,,,,,,,,,,,1,0,1,0,194,0,194,0,,,,,,,194,,,0.2,658.4343139713164,,X,l,go,l,1,0.34485525684431195,,,,,,,,,,,,,,,73,001,25,w,Psychologie,2023-01-25_13h39.05.967,00_bat_bachelor,2022.2.4,59.92593885879286,
,,,,,,,,,,,,1,0,1,0,195,0,195,0,,,,,,,195,,,0.2,659.0844877166674,,Y,d,go,d,1,0.4138127992628142,,,,,,,,,,,,,,,73,001,25,w,Psychologie,2023-01-25_13h39.05.967,00_bat_bachelor,2022.2.4,59.92593885879286,
,,,,,,,,,,,,1,0,1,0,196,0,196,0,,,,,,,196,,,0.2,659.8012742782012,660.6011211631121,Y,None,nogo,None,1,,,,,,,,,,,,,,,,73,001,25,w,Psychologie,2023-01-25_13h39.05.967,00_bat_bachelor,2022.2.4,59.92593885879286,
,,,,,,,,,,,,1,0,1,0,197,0,197,0,,,,,,,197,,,0.2,660.8012558539631,,X,l,go,l,1,0.31380315078422427,,,,,,,,,,,,,,,73,001,25,w,Psychologie,2023-01-25_13h39.05.967,00_bat_bachelor,2022.2.4,59.92593885879286,
,,,,,,,,,,,,1,0,1,0,198,0,198,0,,,,,,,198,,,0.2,661.4178470701445,,Y,d,go,d,1,0.30385309492703527,,,,,,,,,,,,,,,73,001,25,w,Psychologie,2023-01-25_13h39.05.967,00_bat_bachelor,2022.2.4,59.92593885879286,
,,,,,,,,,,,,1,0,1,0,199,0,199,0,,,,,,,199,,,0.2,662.0344921045471,,X,l,go,l,1,0.21585410728584975,,,,,,,,,,,,,,,73,001,25,w,Psychologie,2023-01-25_13h39.05.967,00_bat_bachelor,2022.2.4,59.92593885879286,
,,,,,,,,,,,,1,0,1,0,200,0,200,0,,,,,,,200,,,0.2,662.5509272480849,,Y,d,go,d,1,0.2601062069879845,,,,,,,,,,,,,,,73,001,25,w,Psychologie,2023-01-25_13h39.05.967,00_bat_bachelor,2022.2.4,59.92593885879286,
