loop_instruction.thisRepN,loop_instruction.thisTrialN,loop_instruction.thisN,loop_instruction.thisIndex,loop_rsi_practice.thisRepN,loop_rsi_practice.thisTrialN,loop_rsi_practice.thisN,loop_rsi_practice.thisIndex,loop_practice.thisRepN,loop_practice.thisTrialN,loop_practice.thisN,loop_practice.thisIndex,loop_exp.thisRepN,loop_exp.thisTrialN,loop_exp.thisN,loop_exp.thisIndex,loop_trials.thisRepN,loop_trials.thisTrialN,loop_trials.thisN,loop_trials.thisIndex,map_condition,map_x_key,map_y_key,key_resp_welcome.started,key_resp_welcome.keys,key_resp_welcome.rt,index,text_empty_rsi_practice.started,text_empty_rsi_practice.stopped,rsi,stimulus.started,stimulus,correct,trial_type,key_resp_trial.keys,key_resp_trial.corr,key_resp_trial.rt,stimulus.stopped,key_resp_instruction_rsi.started,key_resp_instruction_rsi.keys,key_resp_instruction_rsi.rt,key_resp_instruction_rsi.stopped,key_resp_instruction_final.started,key_resp_instruction_final.keys,key_resp_instruction_final.rt,key_resp_break.started,key_resp_break.keys,key_resp_break.rt,key_resp_break.stopped,key_resp_end_screen.started,image_end_screen.started,key_resp_end_screen.stopped,image_end_screen.stopped,key_resp_end_screen.keys,participant,session,Alter,Geschlecht (w/m/d/andere),Studiengang,date,expName,psychopyVersion,frameRate,
,,,,0,0,0,0,0,0,0,0,,,,,,,,,1,l,d,1460.544086124748,j,18.514302177587524,0,1479.0861310343607,1480.1006241463474,1,1480.1006241463474,X,l,go,None,0,,,,,,,,,,,,,,,,,,,75,001,19,w,Psychologie,2023-01-26_11h17.47.789,00_bat_bachelor,2022.2.4,59.969382869681596,
,,,,0,0,0,0,1,0,1,0,,,,,,,,,,,,,,,1,1481.5016700630076,1482.5025175794144,1,1482.5025175794144,Y,d,go,d,1,0.3762840374256484,,,,,,,,,,,,,,,,,,75,001,19,w,Psychologie,2023-01-26_11h17.47.789,00_bat_bachelor,2022.2.4,59.969382869681596,
,,,,0,0,0,0,2,0,2,0,,,,,,,,,,,,,,,2,1483.5873928543879,1484.5878970975173,1,1484.5878970975173,X,l,go,l,1,0.30540102522354573,,,,,,,,,,,,,,,,,,75,001,19,w,Psychologie,2023-01-26_11h17.47.789,00_bat_bachelor,2022.2.4,59.969382869681596,
,,,,0,0,0,0,3,0,3,0,,,,,,,,,,,,,,,3,1485.622276299051,1486.6229604212567,1,1486.6229604212567,X,None,nogo,l,0,0.30196635355241597,,,,,,,,,,,,,,,,,,75,001,19,w,Psychologie,2023-01-26_11h17.47.789,00_bat_bachelor,2022.2.4,59.969382869681596,
,,,,0,0,0,0,4,0,4,0,,,,,,,,,,,,,,,4,1488.0735399857513,1489.0742827747017,1,1489.0742827747017,Y,d,go,d,1,0.45923930959543213,,,,,,,,,,,,,,,,,,75,001,19,w,Psychologie,2023-01-26_11h17.47.789,00_bat_bachelor,2022.2.4,59.969382869681596,
,,,,0,0,0,0,5,0,5,0,,,,,,,,,,,,,,,5,1490.242010048998,1491.2428052016767,1,1491.2428052016767,X,l,go,l,1,0.3399586512823589,,,,,,,,,,,,,,,,,,75,001,19,w,Psychologie,2023-01-26_11h17.47.789,00_bat_bachelor,2022.2.4,59.969382869681596,
,,,,0,0,0,0,6,0,6,0,,,,,,,,,,,,,,,6,1492.293568426976,1493.294342246314,1,1493.294342246314,Y,d,go,d,1,0.43161648156819865,,,,,,,,,,,,,,,,,,75,001,19,w,Psychologie,2023-01-26_11h17.47.789,00_bat_bachelor,2022.2.4,59.969382869681596,
,,,,0,0,0,0,7,0,7,0,,,,,,,,,,,,,,,7,1494.428806926764,1495.4297281401814,1,1495.4297281401814,X,l,go,l,1,0.6160759013728239,,,,,,,,,,,,,,,,,,75,001,19,w,Psychologie,2023-01-26_11h17.47.789,00_bat_bachelor,2022.2.4,59.969382869681596,
,,,,0,0,0,0,8,0,8,0,,,,,,,,,,,,,,,8,1496.7640592932003,1497.7648529912694,1,1497.7648529912694,Y,d,go,d,1,0.44033891847357154,,,,,,,,,,,,,,,,,,75,001,19,w,Psychologie,2023-01-26_11h17.47.789,00_bat_bachelor,2022.2.4,59.969382869681596,
,,,,0,0,0,0,9,0,9,0,,,,,,,,,,,,,,,9,1498.9324304471957,1499.9330282662413,1,1499.9330282662413,X,l,go,l,1,0.43210036103846505,,,,,,,,,,,,,,,,,,75,001,19,w,Psychologie,2023-01-26_11h17.47.789,00_bat_bachelor,2022.2.4,59.969382869681596,
,,,,0,0,0,0,10,0,10,0,,,,,,,,,,,,,,,10,1501.083865818975,1502.084671638324,1,1502.084671638324,Y,d,go,d,1,0.5048602244933136,,,,,,,,,,,,,,,,,,75,001,19,w,Psychologie,2023-01-26_11h17.47.789,00_bat_bachelor,2022.2.4,59.969382869681596,
,,,,0,0,0,0,11,0,11,0,,,,,,,,,,,,,,,11,1503.3191136762616,1504.3198482228327,1,1504.3198482228327,X,l,go,l,1,0.28548632957972586,,,,,,,,,,,,,,,,,,75,001,19,w,Psychologie,2023-01-26_11h17.47.789,00_bat_bachelor,2022.2.4,59.969382869681596,
,,,,0,0,0,0,12,0,12,0,,,,,,,,,,,,,,,12,1505.3373847331386,1506.3378240065067,1,1506.3378240065067,Y,d,go,d,1,0.33111160807311535,,,,,,,,,,,,,,,,,,75,001,19,w,Psychologie,2023-01-26_11h17.47.789,00_bat_bachelor,2022.2.4,59.969382869681596,
,,,,0,0,0,0,13,0,13,0,,,,,,,,,,,,,,,13,1507.3888970505213,1508.3894502634648,1,1508.3894502634648,Y,None,nogo,None,1,,1509.1901093674242,,,,,,,,,,,,,,,,,75,001,19,w,Psychologie,2023-01-26_11h17.47.789,00_bat_bachelor,2022.2.4,59.969382869681596,
,,,,0,0,0,0,14,0,14,0,,,,,,,,,,,,,,,14,1509.7907376349904,1510.791468787589,1,1510.791468787589,X,l,go,l,1,0.3257225093548186,,,,,,,,,,,,,,,,,,75,001,19,w,Psychologie,2023-01-26_11h17.47.789,00_bat_bachelor,2022.2.4,59.969382869681596,
,,,,1,0,1,0,0,0,0,0,,,,,,,,,,,,,,,0,1528.4375317879021,1528.6377667458146,0.2,1528.6377667458146,X,l,go,l,1,0.5767793593695387,,1511.8798810373992,j,16.53837542468682,,,,,,,,,,,,,,75,001,19,w,Psychologie,2023-01-26_11h17.47.789,00_bat_bachelor,2022.2.4,59.969382869681596,
,,,,1,0,1,0,1,0,1,0,,,,,,,,,,,,,,,1,1529.9221880080295,1530.1222949657822,0.2,1530.1222949657822,Y,d,go,d,1,0.35626073559978977,,,,,,,,,,,,,,,,,,75,001,19,w,Psychologie,2023-01-26_11h17.47.789,00_bat_bachelor,2022.2.4,59.969382869681596,
,,,,1,0,1,0,2,0,2,0,,,,,,,,,,,,,,,2,1531.189779185108,1531.389964203583,0.2,1531.389964203583,X,l,go,l,1,0.3204672289430164,,,,,,,,,,,,,,,,,,75,001,19,w,Psychologie,2023-01-26_11h17.47.789,00_bat_bachelor,2022.2.4,59.969382869681596,
,,,,1,0,1,0,3,0,3,0,,,,,,,,,,,,,,,3,1532.4241412229603,1532.6242433322477,0.2,1532.6242433322477,Y,d,go,d,1,0.23826492758234963,,,,,,,,,,,,,,,,,,75,001,19,w,Psychologie,2023-01-26_11h17.47.789,00_bat_bachelor,2022.2.4,59.969382869681596,
,,,,1,0,1,0,4,0,4,0,,,,,,,,,,,,,,,4,1533.5749651999213,1533.7752210063627,0.2,1533.7752210063627,X,l,go,l,1,0.239041171153076,,,,,,,,,,,,,,,,,,75,001,19,w,Psychologie,2023-01-26_11h17.47.789,00_bat_bachelor,2022.2.4,59.969382869681596,
,,,,1,0,1,0,5,0,5,0,,,,,,,,,,,,,,,5,1534.725553055352,1534.9261303168023,0.2,1534.9261303168023,X,None,nogo,d,0,0.3206088049337268,,,,,,,,,,,,,,,,,,75,001,19,w,Psychologie,2023-01-26_11h17.47.789,00_bat_bachelor,2022.2.4,59.969382869681596,
,,,,1,0,1,0,6,0,6,0,,,,,,,,,,,,,,,6,1536.3603345847223,1536.5604633606854,0.2,1536.5604633606854,Y,d,go,d,1,0.3814030751818791,,,,,,,,,,,,,,,,,,75,001,19,w,Psychologie,2023-01-26_11h17.47.789,00_bat_bachelor,2022.2.4,59.969382869681596,
,,,,1,0,1,0,7,0,7,0,,,,,,,,,,,,,,,7,1537.6446365740267,1537.84460341034,0.2,1537.84460341034,X,l,go,l,1,0.4425750428927131,,,,,,,,,,,,,,,,,,75,001,19,w,Psychologie,2023-01-26_11h17.47.789,00_bat_bachelor,2022.2.4,59.969382869681596,
,,,,1,0,1,0,8,0,8,0,,,,,,,,,,,,,,,8,1538.9953633871628,1539.1958223454421,0.2,1539.1958223454421,Y,d,go,d,1,0.35405418690061197,,,,,,,,,,,,,,,,,,75,001,19,w,Psychologie,2023-01-26_11h17.47.789,00_bat_bachelor,2022.2.4,59.969382869681596,
,,,,1,0,1,0,9,0,9,0,,,,,,,,,,,,,,,9,1540.263316261815,1540.463418371044,0.2,1540.463418371044,X,l,go,l,1,0.2708244901150465,,,,,,,,,,,,,,,,,,75,001,19,w,Psychologie,2023-01-26_11h17.47.789,00_bat_bachelor,2022.2.4,59.969382869681596,
,,,,1,0,1,0,10,0,10,0,,,,,,,,,,,,,,,10,1541.4473082869663,1541.6476828814484,0.2,1541.6476828814484,Y,d,go,d,1,0.4785266104154289,,,,,,,,,,,,,,,,,,75,001,19,w,Psychologie,2023-01-26_11h17.47.789,00_bat_bachelor,2022.2.4,59.969382869681596,
,,,,1,0,1,0,11,0,11,0,,,,,,,,,,,,,,,11,1542.8319362403709,1543.0318511978257,0.2,1543.0318511978257,Y,None,nogo,d,0,0.4385401279432699,,,,,,,,,,,,,,,,,,75,001,19,w,Psychologie,2023-01-26_11h17.47.789,00_bat_bachelor,2022.2.4,59.969382869681596,
,,,,1,0,1,0,12,0,12,0,,,,,,,,,,,,,,,12,1544.5829351509456,1544.783175927063,0.2,1544.783175927063,Y,None,nogo,d,0,0.5439332509413362,,,,,,,,,,,,,,,,,,75,001,19,w,Psychologie,2023-01-26_11h17.47.789,00_bat_bachelor,2022.2.4,59.969382869681596,
,,,,1,0,1,0,13,0,13,0,,,,,,,,,,,,,,,13,1546.434683298925,1546.634776196035,0.2,1546.634776196035,X,l,go,l,1,0.46772368560777977,,,,,,,,,,,,,,,,,,75,001,19,w,Psychologie,2023-01-26_11h17.47.789,00_bat_bachelor,2022.2.4,59.969382869681596,
,,,,1,0,1,0,14,0,14,0,,,,,,,,,,,,,,,14,1547.8191352520953,1548.019210209779,0.2,1548.019210209779,Y,d,go,d,1,0.5541878113872372,,,,,,,,,,,,,,,,,,75,001,19,w,Psychologie,2023-01-26_11h17.47.789,00_bat_bachelor,2022.2.4,59.969382869681596,
,,,,,,,,,,,,,,,,,,,,,,,,,,,,,,,,,,,,,,1549.3163558540982,None,,1549.3163558540982,1549.3163558540982,space,18.924893320247065,,,,,,,,,,75,001,19,w,Psychologie,2023-01-26_11h17.47.789,00_bat_bachelor,2022.2.4,59.969382869681596,
,,,,,,,,,,,,0,0,0,0,0,0,0,0,,,,,,,0,,,1,1569.2687378454139,X,l,go,l,1,0.410497420525644,,,,,,,,,,,,,,,,,,75,001,19,w,Psychologie,2023-01-26_11h17.47.789,00_bat_bachelor,2022.2.4,59.969382869681596,
,,,,,,,,,,,,0,0,0,0,1,0,1,0,,,,,,,1,,,1,1570.7865238107042,Y,d,go,d,1,0.26736072747735307,,,,,,,,,,,,,,,,,,75,001,19,w,Psychologie,2023-01-26_11h17.47.789,00_bat_bachelor,2022.2.4,59.969382869681596,
,,,,,,,,,,,,0,0,0,0,2,0,2,0,,,,,,,2,,,1,1572.170764369599,X,l,go,l,1,0.339195498614572,,,,,,,,,,,,,,,,,,75,001,19,w,Psychologie,2023-01-26_11h17.47.789,00_bat_bachelor,2022.2.4,59.969382869681596,
,,,,,,,,,,,,0,0,0,0,3,0,3,0,,,,,,,3,,,1,1573.6220023592468,X,None,nogo,l,0,0.3129656423116103,,,,,,,,,,,,,,,,,,75,001,19,w,Psychologie,2023-01-26_11h17.47.789,00_bat_bachelor,2022.2.4,59.969382869681596,
,,,,,,,,,,,,0,0,0,0,4,0,4,0,,,,,,,4,,,1,1575.0395239362842,Y,d,go,d,1,0.36596790119074285,,,,,,,,,,,,,,,,,,75,001,19,w,Psychologie,2023-01-26_11h17.47.789,00_bat_bachelor,2022.2.4,59.969382869681596,
,,,,,,,,,,,,0,0,0,0,5,0,5,0,,,,,,,5,,,1,1576.5076589202508,X,l,go,l,1,0.41842421994078904,,,,,,,,,,,,,,,,,,75,001,19,w,Psychologie,2023-01-26_11h17.47.789,00_bat_bachelor,2022.2.4,59.969382869681596,
,,,,,,,,,,,,0,0,0,0,6,0,6,0,,,,,,,6,,,1,1578.0421149703325,X,None,nogo,None,1,,,,,,,,,,,,,,,,,,,75,001,19,w,Psychologie,2023-01-26_11h17.47.789,00_bat_bachelor,2022.2.4,59.969382869681596,
,,,,,,,,,,,,0,0,0,0,7,0,7,0,,,,,,,7,,,1,1579.8434795298963,Y,d,go,d,1,0.39519218617351726,,,,,,,,,,,,,,,,,,75,001,19,w,Psychologie,2023-01-26_11h17.47.789,00_bat_bachelor,2022.2.4,59.969382869681596,
,,,,,,,,,,,,0,0,0,0,8,0,8,0,,,,,,,8,,,1,1581.3453236537753,X,l,go,l,1,0.3494117559166625,,,,,,,,,,,,,,,,,,75,001,19,w,Psychologie,2023-01-26_11h17.47.789,00_bat_bachelor,2022.2.4,59.969382869681596,
,,,,,,,,,,,,0,0,0,0,9,0,9,0,,,,,,,9,,,1,1582.7961427337723,Y,d,go,d,1,0.30630284477956593,,,,,,,,,,,,,,,,,,75,001,19,w,Psychologie,2023-01-26_11h17.47.789,00_bat_bachelor,2022.2.4,59.969382869681596,
,,,,,,,,,,,,0,0,0,0,10,0,10,0,,,,,,,10,,,1,1584.213881523232,Y,None,nogo,None,1,,1585.01477577904,,,,,,,,,,,,,,,,,75,001,19,w,Psychologie,2023-01-26_11h17.47.789,00_bat_bachelor,2022.2.4,59.969382869681596,
,,,,,,,,,,,,0,0,0,0,11,0,11,0,,,,,,,11,,,1,1586.0154346891213,X,l,go,l,1,0.38229277345817536,,,,,,,,,,,,,,,,,,75,001,19,w,Psychologie,2023-01-26_11h17.47.789,00_bat_bachelor,2022.2.4,59.969382869681596,
,,,,,,,,,,,,0,0,0,0,12,0,12,0,,,,,,,12,,,1,1587.499785939057,Y,d,go,d,1,0.3706214837729931,,,,,,,,,,,,,,,,,,75,001,19,w,Psychologie,2023-01-26_11h17.47.789,00_bat_bachelor,2022.2.4,59.969382869681596,
,,,,,,,,,,,,0,0,0,0,13,0,13,0,,,,,,,13,,,1,1588.9843776742346,Y,None,nogo,None,1,,1589.7848365355167,,,,,,,,,,,,,,,,,75,001,19,w,Psychologie,2023-01-26_11h17.47.789,00_bat_bachelor,2022.2.4,59.969382869681596,
,,,,,,,,,,,,0,0,0,0,14,0,14,0,,,,,,,14,,,1,1590.785992900841,X,l,go,l,1,0.2832928718999028,,,,,,,,,,,,,,,,,,75,001,19,w,Psychologie,2023-01-26_11h17.47.789,00_bat_bachelor,2022.2.4,59.969382869681596,
,,,,,,,,,,,,0,0,0,0,15,0,15,0,,,,,,,15,,,1,1592.1866679078666,Y,d,go,d,1,0.4027160758851096,,,,,,,,,,,,,,,,,,75,001,19,w,Psychologie,2023-01-26_11h17.47.789,00_bat_bachelor,2022.2.4,59.969382869681596,
,,,,,,,,,,,,0,0,0,0,16,0,16,0,,,,,,,16,,,1,1593.72142892814,X,l,go,l,1,0.26089429383864626,,,,,,,,,,,,,,,,,,75,001,19,w,Psychologie,2023-01-26_11h17.47.789,00_bat_bachelor,2022.2.4,59.969382869681596,
,,,,,,,,,,,,0,0,0,0,17,0,17,0,,,,,,,17,,,1,1595.089093947783,Y,d,go,d,1,0.4766565471072681,,,,,,,,,,,,,,,,,,75,001,19,w,Psychologie,2023-01-26_11h17.47.789,00_bat_bachelor,2022.2.4,59.969382869681596,
,,,,,,,,,,,,0,0,0,0,18,0,18,0,,,,,,,18,,,1,1596.6902603979688,Y,None,nogo,None,1,,1597.490946168662,,,,,,,,,,,,,,,,,75,001,19,w,Psychologie,2023-01-26_11h17.47.789,00_bat_bachelor,2022.2.4,59.969382869681596,
,,,,,,,,,,,,0,0,0,0,19,0,19,0,,,,,,,19,,,1,1598.491759260709,Y,None,nogo,None,1,,1599.2923112130375,,,,,,,,,,,,,,,,,75,001,19,w,Psychologie,2023-01-26_11h17.47.789,00_bat_bachelor,2022.2.4,59.969382869681596,
,,,,,,,,,,,,0,0,0,0,20,0,20,0,,,,,,,20,,,1,1600.2928750926512,X,l,go,l,1,0.26548969448776916,,,,,,,,,,,,,,,,,,75,001,19,w,Psychologie,2023-01-26_11h17.47.789,00_bat_bachelor,2022.2.4,59.969382869681596,
,,,,,,,,,,,,0,0,0,0,21,0,21,0,,,,,,,21,,,1,1601.6607893247856,Y,d,go,None,0,,1602.4613044285798,,,,,,,,,,,,,,,,,75,001,19,w,Psychologie,2023-01-26_11h17.47.789,00_bat_bachelor,2022.2.4,59.969382869681596,
,,,,,,,,,,,,0,0,0,0,22,0,22,0,,,,,,,22,,,1,1603.4620535205468,X,l,go,l,1,0.32675766240572557,,,,,,,,,,,,,,,,,,75,001,19,w,Psychologie,2023-01-26_11h17.47.789,00_bat_bachelor,2022.2.4,59.969382869681596,
,,,,,,,,,,,,0,0,0,0,23,0,23,0,,,,,,,23,,,1,1604.9133749043103,Y,d,go,d,1,0.4135466371080838,,,,,,,,,,,,,,,,,,75,001,19,w,Psychologie,2023-01-26_11h17.47.789,00_bat_bachelor,2022.2.4,59.969382869681596,
,,,,,,,,,,,,0,0,0,0,24,0,24,0,,,,,,,24,,,1,1606.4308592933812,Y,None,nogo,None,1,,1607.2316061550518,,,,,,,,,,,,,,,,,75,001,19,w,Psychologie,2023-01-26_11h17.47.789,00_bat_bachelor,2022.2.4,59.969382869681596,
,,,,,,,,,,,,0,0,0,0,25,0,25,0,,,,,,,25,,,1,1608.2325438534026,X,l,go,l,1,0.3097491527441889,,,,,,,,,,,,,,,,,,75,001,19,w,Psychologie,2023-01-26_11h17.47.789,00_bat_bachelor,2022.2.4,59.969382869681596,
,,,,,,,,,,,,0,0,0,0,26,0,26,0,,,,,,,26,,,1,1609.649997551518,Y,d,go,d,1,0.26701503002550453,,,,,,,,,,,,,,,,,,75,001,19,w,Psychologie,2023-01-26_11h17.47.789,00_bat_bachelor,2022.2.4,59.969382869681596,
,,,,,,,,,,,,0,0,0,0,27,0,27,0,,,,,,,27,,,1,1611.0345222320175,X,l,go,l,1,0.2752880117041059,,,,,,,,,,,,,,,,,,75,001,19,w,Psychologie,2023-01-26_11h17.47.789,00_bat_bachelor,2022.2.4,59.969382869681596,
,,,,,,,,,,,,0,0,0,0,28,0,28,0,,,,,,,28,,,1,1612.4354692394845,Y,d,go,d,1,0.20203214761568233,,,,,,,,,,,,,,,,,,75,001,19,w,Psychologie,2023-01-26_11h17.47.789,00_bat_bachelor,2022.2.4,59.969382869681596,
,,,,,,,,,,,,0,0,0,0,29,0,29,0,,,,,,,29,,,1,1613.7534934596042,X,l,go,l,1,0.24451657303143293,,,,,,,,,,,,,,,,,,75,001,19,w,Psychologie,2023-01-26_11h17.47.789,00_bat_bachelor,2022.2.4,59.969382869681596,
,,,,,,,,,,,,0,0,0,0,30,0,30,0,,,,,,,30,,,1,1615.1041902121506,Y,d,go,d,1,0.20509687933372334,,,,,,,,,,,,,,,,,,75,001,19,w,Psychologie,2023-01-26_11h17.47.789,00_bat_bachelor,2022.2.4,59.969382869681596,
,,,,,,,,,,,,0,0,0,0,31,0,31,0,,,,,,,31,,,1,1616.4384927590145,Y,None,nogo,l,0,0.21473471156787127,,,,,,,,,,,,,,,,,,75,001,19,w,Psychologie,2023-01-26_11h17.47.789,00_bat_bachelor,2022.2.4,59.969382869681596,
,,,,,,,,,,,,0,0,0,0,32,0,32,0,,,,,,,32,,,1,1617.773081851774,Y,None,nogo,None,1,,1618.5734539250261,,,,,,,,,,,,,,,,,75,001,19,w,Psychologie,2023-01-26_11h17.47.789,00_bat_bachelor,2022.2.4,59.969382869681596,
,,,,,,,,,,,,0,0,0,0,33,0,33,0,,,,,,,33,,,1,1619.574396956712,X,l,go,l,1,0.3277322092326358,,,,,,,,,,,,,,,,,,75,001,19,w,Psychologie,2023-01-26_11h17.47.789,00_bat_bachelor,2022.2.4,59.969382869681596,
,,,,,,,,,,,,0,0,0,0,34,0,34,0,,,,,,,34,,,1,1621.0253425823175,Y,d,go,d,1,0.3957366718095727,,,,,,,,,,,,,,,,,,75,001,19,w,Psychologie,2023-01-26_11h17.47.789,00_bat_bachelor,2022.2.4,59.969382869681596,
,,,,,,,,,,,,0,0,0,0,35,0,35,0,,,,,,,35,,,1,1622.5431721840287,X,l,go,l,1,0.20687482127686962,,,,,,,,,,,,,,,,,,75,001,19,w,Psychologie,2023-01-26_11h17.47.789,00_bat_bachelor,2022.2.4,59.969382869681596,
,,,,,,,,,,,,0,0,0,0,36,0,36,0,,,,,,,36,,,1,1623.877541155205,Y,d,go,d,1,0.2805263224290684,,,,,,,,,,,,,,,,,,75,001,19,w,Psychologie,2023-01-26_11h17.47.789,00_bat_bachelor,2022.2.4,59.969382869681596,
,,,,,,,,,,,,0,0,0,0,37,0,37,0,,,,,,,37,,,1,1625.2621482600807,X,l,go,l,1,0.28822863660752773,,,,,,,,,,,,,,,,,,75,001,19,w,Psychologie,2023-01-26_11h17.47.789,00_bat_bachelor,2022.2.4,59.969382869681596,
,,,,,,,,,,,,0,0,0,0,38,0,38,0,,,,,,,38,,,1,1626.6632416920038,Y,d,go,d,1,0.2791328658349812,,,,,,,,,,,,,,,,,,75,001,19,w,Psychologie,2023-01-26_11h17.47.789,00_bat_bachelor,2022.2.4,59.969382869681596,
,,,,,,,,,,,,0,0,0,0,39,0,39,0,,,,,,,39,,,1,1628.0640563355992,X,l,go,l,1,0.23731559287989512,,,,,,,,,,,,,,,,,,75,001,19,w,Psychologie,2023-01-26_11h17.47.789,00_bat_bachelor,2022.2.4,59.969382869681596,
,,,,,,,,,,,,0,0,0,0,40,0,40,0,,,,,,,40,,,1,1629.4150997552788,Y,d,go,d,1,0.2628865391598083,,,,,,,,,,,,,,,,,,75,001,19,w,Psychologie,2023-01-26_11h17.47.789,00_bat_bachelor,2022.2.4,59.969382869681596,
,,,,,,,,,,,,0,0,0,0,41,0,41,0,,,,,,,41,,,1,1630.7997194662457,Y,None,nogo,l,0,0.2375589871662669,,,,,,,,,,,,,,,,,,75,001,19,w,Psychologie,2023-01-26_11h17.47.789,00_bat_bachelor,2022.2.4,59.969382869681596,
,,,,,,,,,,,,0,0,0,0,42,0,42,0,,,,,,,42,,,1,1632.1673214554903,Y,None,nogo,None,1,,1632.9678137713345,,,,,,,,,,,,,,,,,75,001,19,w,Psychologie,2023-01-26_11h17.47.789,00_bat_bachelor,2022.2.4,59.969382869681596,
,,,,,,,,,,,,0,0,0,0,43,0,43,0,,,,,,,43,,,1,1633.9686399544007,X,l,go,l,1,0.23748286586487666,,,,,,,,,,,,,,,,,,75,001,19,w,Psychologie,2023-01-26_11h17.47.789,00_bat_bachelor,2022.2.4,59.969382869681596,
,,,,,,,,,,,,0,0,0,0,44,0,44,0,,,,,,,44,,,1,1635.3196019194438,Y,d,go,d,1,0.2308423713548109,,,,,,,,,,,,,,,,,,75,001,19,w,Psychologie,2023-01-26_11h17.47.789,00_bat_bachelor,2022.2.4,59.969382869681596,
,,,,,,,,,,,,0,0,0,0,45,0,45,0,,,,,,,45,,,1,1636.6542501637596,Y,None,nogo,None,1,,1637.4547051462578,,,,,,,,,,,,,,,,,75,001,19,w,Psychologie,2023-01-26_11h17.47.789,00_bat_bachelor,2022.2.4,59.969382869681596,
,,,,,,,,,,,,0,0,0,0,46,0,46,0,,,,,,,46,,,1,1638.4556573900627,Y,None,nogo,l,0,0.2627410843851976,,,,,,,,,,,,,,,,,,75,001,19,w,Psychologie,2023-01-26_11h17.47.789,00_bat_bachelor,2022.2.4,59.969382869681596,
,,,,,,,,,,,,0,0,0,0,47,0,47,0,,,,,,,47,,,1,1639.8230441062478,X,l,go,l,1,0.39881885808426887,,,,,,,,,,,,,,,,,,75,001,19,w,Psychologie,2023-01-26_11h17.47.789,00_bat_bachelor,2022.2.4,59.969382869681596,
,,,,,,,,,,,,0,0,0,0,48,0,48,0,,,,,,,48,,,1,1641.3245139265782,Y,d,go,d,1,0.4498293565120548,,,,,,,,,,,,,,,,,,75,001,19,w,Psychologie,2023-01-26_11h17.47.789,00_bat_bachelor,2022.2.4,59.969382869681596,
,,,,,,,,,,,,0,0,0,0,49,0,49,0,,,,,,,49,,,1,1642.8753956975415,X,l,go,l,1,0.2903876700438559,,,,,,,,,,,,,,,,,,75,001,19,w,Psychologie,2023-01-26_11h17.47.789,00_bat_bachelor,2022.2.4,59.969382869681596,
,,,,,,,,,,,,0,0,0,0,50,0,50,0,,,,,,,50,,,1,1644.2935213966412,Y,d,go,d,1,0.2646155114052817,,,,,,,,,,,,,,,,,,75,001,19,w,Psychologie,2023-01-26_11h17.47.789,00_bat_bachelor,2022.2.4,59.969382869681596,
,,,,,,,,,,,,0,0,0,0,51,0,51,0,,,,,,,51,,,1,1645.6776562583982,Y,None,nogo,None,1,,1646.4783832412795,,,,,,,,,,,,,,,,,75,001,19,w,Psychologie,2023-01-26_11h17.47.789,00_bat_bachelor,2022.2.4,59.969382869681596,
,,,,,,,,,,,,0,0,0,0,52,0,52,0,,,,,,,52,,,1,1647.4788520904258,Y,None,nogo,None,1,,1648.2794898610446,,,,,,,,,,,,,,,,,75,001,19,w,Psychologie,2023-01-26_11h17.47.789,00_bat_bachelor,2022.2.4,59.969382869681596,
,,,,,,,,,,,,0,0,0,0,53,0,53,0,,,,,,,53,,,1,1649.280533741403,X,l,go,l,1,0.47865994391031563,,,,,,,,,,,,,,,,,,75,001,19,w,Psychologie,2023-01-26_11h17.47.789,00_bat_bachelor,2022.2.4,59.969382869681596,
,,,,,,,,,,,,0,0,0,0,54,0,54,0,,,,,,,54,,,1,1650.8647998033557,Y,d,go,d,1,0.2528651912580244,,,,,,,,,,,,,,,,,,75,001,19,w,Psychologie,2023-01-26_11h17.47.789,00_bat_bachelor,2022.2.4,59.969382869681596,
,,,,,,,,,,,,0,0,0,0,55,0,55,0,,,,,,,55,,,1,1652.2492842414067,X,l,go,l,1,0.4045585028361529,,,,,,,,,,,,,,,,,,75,001,19,w,Psychologie,2023-01-26_11h17.47.789,00_bat_bachelor,2022.2.4,59.969382869681596,
,,,,,,,,,,,,0,0,0,0,56,0,56,0,,,,,,,56,,,1,1653.7837315642391,Y,d,go,d,1,0.437999036279507,,,,,,,,,,,,,,,,,,75,001,19,w,Psychologie,2023-01-26_11h17.47.789,00_bat_bachelor,2022.2.4,59.969382869681596,
,,,,,,,,,,,,0,0,0,0,57,0,57,0,,,,,,,57,,,1,1655.3515806326177,X,l,go,l,1,0.2950805253931321,,,,,,,,,,,,,,,,,,75,001,19,w,Psychologie,2023-01-26_11h17.47.789,00_bat_bachelor,2022.2.4,59.969382869681596,
,,,,,,,,,,,,0,0,0,0,58,0,58,0,,,,,,,58,,,1,1656.7693422099692,Y,d,go,d,1,0.23552892362931743,,,,,,,,,,,,,,,,,,75,001,19,w,Psychologie,2023-01-26_11h17.47.789,00_bat_bachelor,2022.2.4,59.969382869681596,
,,,,,,,,,,,,0,0,0,0,59,0,59,0,,,,,,,59,,,1,1658.1370445629582,X,l,go,l,1,0.24471439147600904,,,,,,,,,,,,,,,,,,75,001,19,w,Psychologie,2023-01-26_11h17.47.789,00_bat_bachelor,2022.2.4,59.969382869681596,
,,,,,,,,,,,,0,0,0,0,60,0,60,0,,,,,,,60,,,1,1659.505002916383,Y,d,go,d,1,0.3001122902496718,,,,,,,,,,,,,,,,,,75,001,19,w,Psychologie,2023-01-26_11h17.47.789,00_bat_bachelor,2022.2.4,59.969382869681596,
,,,,,,,,,,,,0,0,0,0,61,0,61,0,,,,,,,61,,,1,1660.9224556447589,Y,None,nogo,None,1,,1661.7232349913684,,,,,,,,,,,,,,,,,75,001,19,w,Psychologie,2023-01-26_11h17.47.789,00_bat_bachelor,2022.2.4,59.969382869681596,
,,,,,,,,,,,,0,0,0,0,62,0,62,0,,,,,,,62,,,1,1662.7238652952947,X,l,go,l,1,0.24990082328440621,,,,,,,,,,,,,,,,,,75,001,19,w,Psychologie,2023-01-26_11h17.47.789,00_bat_bachelor,2022.2.4,59.969382869681596,
,,,,,,,,,,,,0,0,0,0,63,0,63,0,,,,,,,63,,,1,1664.0915923756547,Y,d,go,d,1,0.2269121838035062,,,,,,,,,,,,,,,,,,75,001,19,w,Psychologie,2023-01-26_11h17.47.789,00_bat_bachelor,2022.2.4,59.969382869681596,
,,,,,,,,,,,,0,0,0,0,64,0,64,0,,,,,,,64,,,1,1665.4429339775816,X,l,go,l,1,0.25112700689351186,,,,,,,,,,,,,,,,,,75,001,19,w,Psychologie,2023-01-26_11h17.47.789,00_bat_bachelor,2022.2.4,59.969382869681596,
,,,,,,,,,,,,0,0,0,0,65,0,65,0,,,,,,,65,,,1,1666.8105577850365,X,None,nogo,None,1,,1667.6112343436107,,,,,,,,,,,,,,,,,75,001,19,w,Psychologie,2023-01-26_11h17.47.789,00_bat_bachelor,2022.2.4,59.969382869681596,
,,,,,,,,,,,,0,0,0,0,66,0,66,0,,,,,,,66,,,1,1668.6118394354125,Y,d,go,d,1,0.2829539623344317,,,,,,,,,,,,,,,,,,75,001,19,w,Psychologie,2023-01-26_11h17.47.789,00_bat_bachelor,2022.2.4,59.969382869681596,
,,,,,,,,,,,,0,0,0,0,67,0,67,0,,,,,,,67,,,1,1669.9962341763312,X,l,go,l,1,0.4179345222655684,,,,,,,,,,,,,,,,,,75,001,19,w,Psychologie,2023-01-26_11h17.47.789,00_bat_bachelor,2022.2.4,59.969382869681596,
,,,,,,,,,,,,0,0,0,0,68,0,68,0,,,,,,,68,,,1,1671.547505766037,Y,d,go,d,1,0.30664708762196824,,,,,,,,,,,,,,,,,,75,001,19,w,Psychologie,2023-01-26_11h17.47.789,00_bat_bachelor,2022.2.4,59.969382869681596,
,,,,,,,,,,,,0,0,0,0,69,0,69,0,,,,,,,69,,,1,1672.9652038281783,Y,None,nogo,None,1,,1673.7657640229445,,,,,,,,,,,,,,,,,75,001,19,w,Psychologie,2023-01-26_11h17.47.789,00_bat_bachelor,2022.2.4,59.969382869681596,
,,,,,,,,,,,,0,0,0,0,70,0,70,0,,,,,,,70,,,1,1674.7663982056547,X,l,go,l,1,0.20818100508768111,,,,,,,,,,,,,,,,,,75,001,19,w,Psychologie,2023-01-26_11h17.47.789,00_bat_bachelor,2022.2.4,59.969382869681596,
,,,,,,,,,,,,0,0,0,0,71,0,71,0,,,,,,,71,,,1,1676.084034546453,Y,d,go,d,1,0.26634593814378604,,,,,,,,,,,,,,,,,,75,001,19,w,Psychologie,2023-01-26_11h17.47.789,00_bat_bachelor,2022.2.4,59.969382869681596,
,,,,,,,,,,,,0,0,0,0,72,0,72,0,,,,,,,72,,,1,1677.4684501359006,X,l,go,l,1,0.24068093107780442,,,,,,,,,,,,,,,,,,75,001,19,w,Psychologie,2023-01-26_11h17.47.789,00_bat_bachelor,2022.2.4,59.969382869681596,
,,,,,,,,,,,,0,0,0,0,73,0,73,0,,,,,,,73,,,1,1678.836497701588,Y,d,go,d,1,0.2490862766862847,,,,,,,,,,,,,,,,,,75,001,19,w,Psychologie,2023-01-26_11h17.47.789,00_bat_bachelor,2022.2.4,59.969382869681596,
,,,,,,,,,,,,0,0,0,0,74,0,74,0,,,,,,,74,,,1,1680.2038868420059,X,l,go,l,1,0.2578712591785006,,,,,,,,,,,,,,,,,,75,001,19,w,Psychologie,2023-01-26_11h17.47.789,00_bat_bachelor,2022.2.4,59.969382869681596,
,,,,,,,,,,,,0,0,0,0,75,0,75,0,,,,,,,75,,,1,1681.571566891973,Y,d,go,d,1,0.33040857675950974,,,,,,,,,,,,,,,,,,75,001,19,w,Psychologie,2023-01-26_11h17.47.789,00_bat_bachelor,2022.2.4,59.969382869681596,
,,,,,,,,,,,,0,0,0,0,76,0,76,0,,,,,,,76,,,1,1683.0229357909411,X,l,go,l,1,0.3515426680678502,,,,,,,,,,,,,,,,,,75,001,19,w,Psychologie,2023-01-26_11h17.47.789,00_bat_bachelor,2022.2.4,59.969382869681596,
,,,,,,,,,,,,0,0,0,0,77,0,77,0,,,,,,,77,,,1,1684.5071745559108,Y,d,go,d,1,0.2907527615316212,,,,,,,,,,,,,,,,,,75,001,19,w,Psychologie,2023-01-26_11h17.47.789,00_bat_bachelor,2022.2.4,59.969382869681596,
,,,,,,,,,,,,0,0,0,0,78,0,78,0,,,,,,,78,,,1,1685.9249424362788,Y,None,nogo,None,1,,1686.725778510212,,,,,,,,,,,,,,,,,75,001,19,w,Psychologie,2023-01-26_11h17.47.789,00_bat_bachelor,2022.2.4,59.969382869681596,
,,,,,,,,,,,,0,0,0,0,79,0,79,0,,,,,,,79,,,1,1687.7262589957681,X,l,go,l,1,0.1914178291335702,,,,,,,,,,,,,,,,,,75,001,19,w,Psychologie,2023-01-26_11h17.47.789,00_bat_bachelor,2022.2.4,59.969382869681596,
,,,,,,,,,,,,0,0,0,0,80,0,80,0,,,,,,,80,,,1,1689.0440243064659,Y,d,go,d,1,0.2982199238613248,,,,,,,,,,,,,,,,,,75,001,19,w,Psychologie,2023-01-26_11h17.47.789,00_bat_bachelor,2022.2.4,59.969382869681596,
,,,,,,,,,,,,0,0,0,0,81,0,81,0,,,,,,,81,,,1,1690.4450357988244,Y,None,nogo,l,0,0.20887773332651705,,,,,,,,,,,,,,,,,,75,001,19,w,Psychologie,2023-01-26_11h17.47.789,00_bat_bachelor,2022.2.4,59.969382869681596,
,,,,,,,,,,,,0,0,0,0,82,0,82,0,,,,,,,82,,,1,1691.7793751942227,X,l,go,l,1,0.2506988850655034,,,,,,,,,,,,,,,,,,75,001,19,w,Psychologie,2023-01-26_11h17.47.789,00_bat_bachelor,2022.2.4,59.969382869681596,
,,,,,,,,,,,,0,0,0,0,83,0,83,0,,,,,,,83,,,1,1693.1472966991132,Y,d,go,d,1,0.403311955567915,,,,,,,,,,,,,,,,,,75,001,19,w,Psychologie,2023-01-26_11h17.47.789,00_bat_bachelor,2022.2.4,59.969382869681596,
,,,,,,,,,,,,0,0,0,0,84,0,84,0,,,,,,,84,,,1,1694.665262058552,X,l,go,l,1,0.32510869030375034,,,,,,,,,,,,,,,,,,75,001,19,w,Psychologie,2023-01-26_11h17.47.789,00_bat_bachelor,2022.2.4,59.969382869681596,
,,,,,,,,,,,,0,0,0,0,85,0,85,0,,,,,,,85,,,1,1696.1159991990426,Y,d,go,d,1,0.24918567074928433,,,,,,,,,,,,,,,,,,75,001,19,w,Psychologie,2023-01-26_11h17.47.789,00_bat_bachelor,2022.2.4,59.969382869681596,
,,,,,,,,,,,,0,0,0,0,86,0,86,0,,,,,,,86,,,1,1697.4840074919048,Y,None,nogo,l,0,0.22654127416899428,,,,,,,,,,,,,,,,,,75,001,19,w,Psychologie,2023-01-26_11h17.47.789,00_bat_bachelor,2022.2.4,59.969382869681596,
,,,,,,,,,,,,0,0,0,0,87,0,87,0,,,,,,,87,,,1,1698.83476630511,X,l,go,l,1,0.2345868616248481,,,,,,,,,,,,,,,,,,75,001,19,w,Psychologie,2023-01-26_11h17.47.789,00_bat_bachelor,2022.2.4,59.969382869681596,
,,,,,,,,,,,,0,0,0,0,88,0,88,0,,,,,,,88,,,1,1700.2026664766017,Y,d,go,d,1,0.19516765279695392,,,,,,,,,,,,,,,,,,75,001,19,w,Psychologie,2023-01-26_11h17.47.789,00_bat_bachelor,2022.2.4,59.969382869681596,
,,,,,,,,,,,,0,0,0,0,89,0,89,0,,,,,,,89,,,1,1701.5201946960296,X,l,go,l,1,0.2373461383394897,,,,,,,,,,,,,,,,,,75,001,19,w,Psychologie,2023-01-26_11h17.47.789,00_bat_bachelor,2022.2.4,59.969382869681596,
,,,,,,,,,,,,0,0,0,0,90,0,90,0,,,,,,,90,,,1,1702.8879028672236,Y,d,go,d,1,0.24690639466280118,,,,,,,,,,,,,,,,,,75,001,19,w,Psychologie,2023-01-26_11h17.47.789,00_bat_bachelor,2022.2.4,59.969382869681596,
,,,,,,,,,,,,0,0,0,0,91,0,91,0,,,,,,,91,,,1,1704.239038893138,X,l,go,l,1,0.2545417997171171,,,,,,,,,,,,,,,,,,75,001,19,w,Psychologie,2023-01-26_11h17.47.789,00_bat_bachelor,2022.2.4,59.969382869681596,
,,,,,,,,,,,,0,0,0,0,92,0,92,0,,,,,,,92,,,1,1705.6234273310401,X,None,nogo,d,0,0.18237878568470478,,,,,,,,,,,,,,,,,,75,001,19,w,Psychologie,2023-01-26_11h17.47.789,00_bat_bachelor,2022.2.4,59.969382869681596,
,,,,,,,,,,,,0,0,0,0,93,0,93,0,,,,,,,93,,,1,1706.9244158900692,Y,d,go,None,0,,1707.725228206371,,,,,,,,,,,,,,,,,75,001,19,w,Psychologie,2023-01-26_11h17.47.789,00_bat_bachelor,2022.2.4,59.969382869681596,
,,,,,,,,,,,,0,0,0,0,94,0,94,0,,,,,,,94,,,1,1708.7256781464093,X,l,go,l,1,0.3755087635945529,,,,,,,,,,,,,,,,,,75,001,19,w,Psychologie,2023-01-26_11h17.47.789,00_bat_bachelor,2022.2.4,59.969382869681596,
,,,,,,,,,,,,0,0,0,0,95,0,95,0,,,,,,,95,,,1,1710.2268725724425,X,None,nogo,d,0,0.29897047043778,,,,,,,,,,,,,,,,,,75,001,19,w,Psychologie,2023-01-26_11h17.47.789,00_bat_bachelor,2022.2.4,59.969382869681596,
,,,,,,,,,,,,0,0,0,0,96,0,96,0,,,,,,,96,,,1,1711.628135701525,Y,d,go,d,1,0.3372861624811776,,,,,,,,,,,,,,,,,,75,001,19,w,Psychologie,2023-01-26_11h17.47.789,00_bat_bachelor,2022.2.4,59.969382869681596,
,,,,,,,,,,,,0,0,0,0,97,0,97,0,,,,,,,97,,,1,1713.095668987662,X,l,go,l,1,0.2941845240420662,,,,,,,,,,,,,,,,,,75,001,19,w,Psychologie,2023-01-26_11h17.47.789,00_bat_bachelor,2022.2.4,59.969382869681596,
,,,,,,,,,,,,0,0,0,0,98,0,98,0,,,,,,,98,,,1,1714.5136598986574,Y,d,go,d,1,0.4290390232927166,,,,,,,,,,,,,,,,,,75,001,19,w,Psychologie,2023-01-26_11h17.47.789,00_bat_bachelor,2022.2.4,59.969382869681596,
,,,,,,,,,,,,0,0,0,0,99,0,99,0,,,,,,,99,,,1,1716.0647613063338,Y,None,nogo,None,1,,1716.8653583496343,,,,,,,,,,,,,,,,,75,001,19,w,Psychologie,2023-01-26_11h17.47.789,00_bat_bachelor,2022.2.4,59.969382869681596,
,,,,,,,,,,,,0,0,0,0,100,0,100,0,,,,,,,100,,,1,1717.8661331385956,X,l,go,l,1,0.21128258534008637,,,,,,,,,,,,,,,,,,75,001,19,w,Psychologie,2023-01-26_11h17.47.789,00_bat_bachelor,2022.2.4,59.969382869681596,
,,,,,,,,,,,,0,0,0,0,101,0,101,0,,,,,,,101,,,1,1719.2006475645467,Y,d,go,d,1,0.25375391979468986,,,,,,,,,,,,,,,,,,75,001,19,w,Psychologie,2023-01-26_11h17.47.789,00_bat_bachelor,2022.2.4,59.969382869681596,
,,,,,,,,,,,,0,0,0,0,102,0,102,0,,,,,,,102,,,1,1720.5848643658683,X,l,go,l,1,0.2776628030696884,,,,,,,,,,,,,,,,,,75,001,19,w,Psychologie,2023-01-26_11h17.47.789,00_bat_bachelor,2022.2.4,59.969382869681596,
,,,,,,,,,,,,0,0,0,0,103,0,103,0,,,,,,,103,,,1,1721.9690942580928,X,None,nogo,None,1,,1722.7705465753097,,,,,,,,,,,,,,,,,75,001,19,w,Psychologie,2023-01-26_11h17.47.789,00_bat_bachelor,2022.2.4,59.969382869681596,
,,,,,,,,,,,,0,0,0,0,104,0,104,0,,,,,,,104,,,1,1723.7707065755967,X,None,nogo,None,1,,1724.5713273764704,,,,,,,,,,,,,,,,,75,001,19,w,Psychologie,2023-01-26_11h17.47.789,00_bat_bachelor,2022.2.4,59.969382869681596,
,,,,,,,,,,,,0,0,0,0,105,0,105,0,,,,,,,105,,,1,1725.5719319834025,Y,d,go,d,1,0.3452837499207817,,,,,,,,,,,,,,,,,,75,001,19,w,Psychologie,2023-01-26_11h17.47.789,00_bat_bachelor,2022.2.4,59.969382869681596,
,,,,,,,,,,,,0,0,0,0,106,0,106,0,,,,,,,106,,,1,1727.0399219974643,X,l,go,l,1,0.2864778461516835,,,,,,,,,,,,,,,,,,75,001,19,w,Psychologie,2023-01-26_11h17.47.789,00_bat_bachelor,2022.2.4,59.969382869681596,
,,,,,,,,,,,,0,0,0,0,107,0,107,0,,,,,,,107,,,1,1728.4411439143587,Y,d,go,d,1,0.3085748479934409,,,,,,,,,,,,,,,,,,75,001,19,w,Psychologie,2023-01-26_11h17.47.789,00_bat_bachelor,2022.2.4,59.969382869681596,
,,,,,,,,,,,,0,0,0,0,108,0,108,0,,,,,,,108,,,1,1729.8751595760114,X,l,go,l,1,0.33094094117404893,,,,,,,,,,,,,,,,,,75,001,19,w,Psychologie,2023-01-26_11h17.47.789,00_bat_bachelor,2022.2.4,59.969382869681596,
,,,,,,,,,,,,0,0,0,0,109,0,109,0,,,,,,,109,,,1,1731.3262996261474,Y,d,go,d,1,0.30279108200920746,,,,,,,,,,,,,,,,,,75,001,19,w,Psychologie,2023-01-26_11h17.47.789,00_bat_bachelor,2022.2.4,59.969382869681596,
,,,,,,,,,,,,0,0,0,0,110,0,110,0,,,,,,,110,,,1,1732.7608263187576,Y,None,nogo,None,1,,1733.561312816455,,,,,,,,,,,,,,,,,75,001,19,w,Psychologie,2023-01-26_11h17.47.789,00_bat_bachelor,2022.2.4,59.969382869681596,
,,,,,,,,,,,,0,0,0,0,111,0,111,0,,,,,,,111,,,1,1734.5623232421349,X,l,go,l,1,0.2512414313387126,,,,,,,,,,,,,,,,,,75,001,19,w,Psychologie,2023-01-26_11h17.47.789,00_bat_bachelor,2022.2.4,59.969382869681596,
,,,,,,,,,,,,0,0,0,0,112,0,112,0,,,,,,,112,,,1,1735.9464159220806,Y,d,go,d,1,0.46805095882155,,,,,,,,,,,,,,,,,,75,001,19,w,Psychologie,2023-01-26_11h17.47.789,00_bat_bachelor,2022.2.4,59.969382869681596,
,,,,,,,,,,,,0,0,0,0,113,0,113,0,,,,,,,113,,,1,1737.5312579848687,X,l,go,l,1,0.3875189629034139,,,,,,,,,,,,,,,,,,75,001,19,w,Psychologie,2023-01-26_11h17.47.789,00_bat_bachelor,2022.2.4,59.969382869681596,
,,,,,,,,,,,,0,0,0,0,114,0,114,0,,,,,,,114,,,1,1739.03229774395,Y,d,go,d,1,0.3730132448254153,,,,,,,,,,,,,,,,,,75,001,19,w,Psychologie,2023-01-26_11h17.47.789,00_bat_bachelor,2022.2.4,59.969382869681596,
,,,,,,,,,,,,0,0,0,0,115,0,115,0,,,,,,,115,,,1,1740.533633261046,X,l,go,l,1,0.3287285743281245,,,,,,,,,,,,,,,,,,75,001,19,w,Psychologie,2023-01-26_11h17.47.789,00_bat_bachelor,2022.2.4,59.969382869681596,
,,,,,,,,,,,,0,0,0,0,116,0,116,0,,,,,,,116,,,1,1741.9676974075264,X,None,nogo,None,1,,1742.7684869359946,,,,,,,,,,,,,,,,,75,001,19,w,Psychologie,2023-01-26_11h17.47.789,00_bat_bachelor,2022.2.4,59.969382869681596,
,,,,,,,,,,,,0,0,0,0,117,0,117,0,,,,,,,117,,,1,1743.7690784519655,Y,d,go,d,1,0.2765903166728094,,,,,,,,,,,,,,,,,,75,001,19,w,Psychologie,2023-01-26_11h17.47.789,00_bat_bachelor,2022.2.4,59.969382869681596,
,,,,,,,,,,,,0,0,0,0,118,0,118,0,,,,,,,118,,,1,1745.1536273749662,X,l,go,l,1,0.2200268404558301,,,,,,,,,,,,,,,,,,75,001,19,w,Psychologie,2023-01-26_11h17.47.789,00_bat_bachelor,2022.2.4,59.969382869681596,
,,,,,,,,,,,,0,0,0,0,119,0,119,0,,,,,,,119,,,1,1746.504743522033,X,None,nogo,None,1,,1747.3053046864807,,,,,,,,,,,,,,,,,75,001,19,w,Psychologie,2023-01-26_11h17.47.789,00_bat_bachelor,2022.2.4,59.969382869681596,
,,,,,,,,,,,,0,0,0,0,120,0,120,0,,,,,,,120,,,1,1748.3061410513474,Y,d,go,d,1,0.23503001377684996,,,,,,,,,,,,,,,,,,75,001,19,w,Psychologie,2023-01-26_11h17.47.789,00_bat_bachelor,2022.2.4,59.969382869681596,
,,,,,,,,,,,,0,0,0,0,121,0,121,0,,,,,,,121,,,1,1749.673714919365,X,l,go,l,1,0.2921394301811233,,,,,,,,,,,,,,,,,,75,001,19,w,Psychologie,2023-01-26_11h17.47.789,00_bat_bachelor,2022.2.4,59.969382869681596,
,,,,,,,,,,,,0,0,0,0,122,0,122,0,,,,,,,122,,,1,1751.0913751632324,Y,d,go,d,1,0.31498794828075916,,,,,,,,,,,,,,,,,,75,001,19,w,Psychologie,2023-01-26_11h17.47.789,00_bat_bachelor,2022.2.4,59.969382869681596,
,,,,,,,,,,,,0,0,0,0,123,0,123,0,,,,,,,123,,,1,1752.5260274317698,Y,None,nogo,None,1,,1753.326540596201,,,,,,,,,,,,,,,,,75,001,19,w,Psychologie,2023-01-26_11h17.47.789,00_bat_bachelor,2022.2.4,59.969382869681596,
,,,,,,,,,,,,0,0,0,0,124,0,124,0,,,,,,,124,,,1,1754.3271544152522,X,l,go,l,1,0.26232556864852086,,,,,,,,,,,,,,,,,,75,001,19,w,Psychologie,2023-01-26_11h17.47.789,00_bat_bachelor,2022.2.4,59.969382869681596,
,,,,,,,,,,,,0,0,0,0,125,0,125,0,,,,,,,125,,,1,1755.711554489506,Y,d,go,d,1,0.28704560454934835,,,,,,,,,,,,,,,,,,75,001,19,w,Psychologie,2023-01-26_11h17.47.789,00_bat_bachelor,2022.2.4,59.969382869681596,
,,,,,,,,,,,,0,0,0,0,126,0,126,0,,,,,,,126,,,1,1757.112645982008,X,l,go,l,1,0.2765840136562474,,,,,,,,,,,,,,,,,,75,001,19,w,Psychologie,2023-01-26_11h17.47.789,00_bat_bachelor,2022.2.4,59.969382869681596,
,,,,,,,,,,,,0,0,0,0,127,0,127,0,,,,,,,127,,,1,1758.5138392928638,Y,d,go,d,1,0.25186300795758143,,,,,,,,,,,,,,,,,,75,001,19,w,Psychologie,2023-01-26_11h17.47.789,00_bat_bachelor,2022.2.4,59.969382869681596,
,,,,,,,,,,,,0,0,0,0,128,0,128,0,,,,,,,128,,,1,1759.898096336634,X,l,go,l,1,0.2600821714149788,,,,,,,,,,,,,,,,,,75,001,19,w,Psychologie,2023-01-26_11h17.47.789,00_bat_bachelor,2022.2.4,59.969382869681596,
,,,,,,,,,,,,0,0,0,0,129,0,129,0,,,,,,,129,,,1,1761.2824944715248,Y,d,go,d,1,0.25087682472076267,,,,,,,,,,,,,,,,,,75,001,19,w,Psychologie,2023-01-26_11h17.47.789,00_bat_bachelor,2022.2.4,59.969382869681596,
,,,,,,,,,,,,0,0,0,0,130,0,130,0,,,,,,,130,,,1,1762.6671200006385,X,l,go,l,1,0.2909122768905945,,,,,,,,,,,,,,,,,,75,001,19,w,Psychologie,2023-01-26_11h17.47.789,00_bat_bachelor,2022.2.4,59.969382869681596,
,,,,,,,,,,,,0,0,0,0,131,0,131,0,,,,,,,131,,,1,1764.0679002199904,X,None,nogo,None,1,,1764.8687707182253,,,,,,,,,,,,,,,,,75,001,19,w,Psychologie,2023-01-26_11h17.47.789,00_bat_bachelor,2022.2.4,59.969382869681596,
,,,,,,,,,,,,0,0,0,0,132,0,132,0,,,,,,,132,,,1,1765.8692769007757,Y,d,go,d,1,0.28910669847391546,,,,,,,,,,,,,,,,,,75,001,19,w,Psychologie,2023-01-26_11h17.47.789,00_bat_bachelor,2022.2.4,59.969382869681596,
,,,,,,,,,,,,0,0,0,0,133,0,133,0,,,,,,,133,,,1,1767.2703751811641,X,l,go,l,1,0.23090831085573882,,,,,,,,,,,,,,,,,,75,001,19,w,Psychologie,2023-01-26_11h17.47.789,00_bat_bachelor,2022.2.4,59.969382869681596,
,,,,,,,,,,,,0,0,0,0,134,0,134,0,,,,,,,134,,,1,1768.6216290253797,X,None,nogo,None,1,,1769.4222420686856,,,,,,,,,,,,,,,,,75,001,19,w,Psychologie,2023-01-26_11h17.47.789,00_bat_bachelor,2022.2.4,59.969382869681596,
,,,,,,,,,,,,0,0,0,0,135,0,135,0,,,,,,,135,,,1,1770.4228001301526,Y,d,go,d,1,0.3433792623109184,,,,,,,,,,,,,,,,,,75,001,19,w,Psychologie,2023-01-26_11h17.47.789,00_bat_bachelor,2022.2.4,59.969382869681596,
,,,,,,,,,,,,0,0,0,0,136,0,136,0,,,,,,,136,,,1,1771.8738800589927,X,l,go,l,1,0.25168118957662955,,,,,,,,,,,,,,,,,,75,001,19,w,Psychologie,2023-01-26_11h17.47.789,00_bat_bachelor,2022.2.4,59.969382869681596,
,,,,,,,,,,,,0,0,0,0,137,0,137,0,,,,,,,137,,,1,1773.2583106787642,X,None,nogo,None,1,,1774.059173419373,,,,,,,,,,,,,,,,,75,001,19,w,Psychologie,2023-01-26_11h17.47.789,00_bat_bachelor,2022.2.4,59.969382869681596,
,,,,,,,,,,,,0,0,0,0,138,0,138,0,,,,,,,138,,,1,1775.0596713595442,Y,d,go,d,1,0.34569878078764305,,,,,,,,,,,,,,,,,,75,001,19,w,Psychologie,2023-01-26_11h17.47.789,00_bat_bachelor,2022.2.4,59.969382869681596,
,,,,,,,,,,,,0,0,0,0,139,0,139,0,,,,,,,139,,,1,1776.5276259795646,X,l,go,l,1,0.25467852724250406,,,,,,,,,,,,,,,,,,75,001,19,w,Psychologie,2023-01-26_11h17.47.789,00_bat_bachelor,2022.2.4,59.969382869681596,
,,,,,,,,,,,,0,0,0,0,140,0,140,0,,,,,,,140,,,1,1777.8954000902595,Y,d,go,d,1,0.3268968141055666,,,,,,,,,,,,,,,,,,75,001,19,w,Psychologie,2023-01-26_11h17.47.789,00_bat_bachelor,2022.2.4,59.969382869681596,
,,,,,,,,,,,,0,0,0,0,141,0,141,0,,,,,,,141,,,1,1779.3464950494235,X,l,go,l,1,0.21871629310771823,,,,,,,,,,,,,,,,,,75,001,19,w,Psychologie,2023-01-26_11h17.47.789,00_bat_bachelor,2022.2.4,59.969382869681596,
,,,,,,,,,,,,0,0,0,0,142,0,142,0,,,,,,,142,,,1,1780.6975253782002,X,None,nogo,None,1,,1781.497900360555,,,,,,,,,,,,,,,,,75,001,19,w,Psychologie,2023-01-26_11h17.47.789,00_bat_bachelor,2022.2.4,59.969382869681596,
,,,,,,,,,,,,0,0,0,0,143,0,143,0,,,,,,,143,,,1,1782.498931149952,Y,d,go,d,1,0.23591243929695338,,,,,,,,,,,,,,,,,,75,001,19,w,Psychologie,2023-01-26_11h17.47.789,00_bat_bachelor,2022.2.4,59.969382869681596,
,,,,,,,,,,,,0,0,0,0,144,0,144,0,,,,,,,144,,,1,1783.8500089939334,X,l,go,l,1,0.2603381718508899,,,,,,,,,,,,,,,,,,75,001,19,w,Psychologie,2023-01-26_11h17.47.789,00_bat_bachelor,2022.2.4,59.969382869681596,
,,,,,,,,,,,,0,0,0,0,145,0,145,0,,,,,,,145,,,1,1785.2176851651166,Y,d,go,d,1,0.36477274796925485,,,,,,,,,,,,,,,,,,75,001,19,w,Psychologie,2023-01-26_11h17.47.789,00_bat_bachelor,2022.2.4,59.969382869681596,
,,,,,,,,,,,,0,0,0,0,146,0,146,0,,,,,,,146,,,1,1786.701944778557,Y,None,nogo,None,1,,1787.5026363674551,,,,,,,,,,,,,,,,,75,001,19,w,Psychologie,2023-01-26_11h17.47.789,00_bat_bachelor,2022.2.4,59.969382869681596,
,,,,,,,,,,,,0,0,0,0,147,0,147,0,,,,,,,147,,,1,1788.503250671376,X,l,go,l,1,0.24694178864592686,,,,,,,,,,,,,,,,,,75,001,19,w,Psychologie,2023-01-26_11h17.47.789,00_bat_bachelor,2022.2.4,59.969382869681596,
,,,,,,,,,,,,0,0,0,0,148,0,148,0,,,,,,,148,,,1,1789.8711115701008,Y,d,go,d,1,0.3353331899852492,,,,,,,,,,,,,,,,,,75,001,19,w,Psychologie,2023-01-26_11h17.47.789,00_bat_bachelor,2022.2.4,59.969382869681596,
,,,,,,,,,,,,0,0,0,0,149,0,149,0,,,,,,,149,,,1,1791.3390594022349,X,l,go,l,1,0.2918252479285002,,,,,,,,,,,,,,,,,,75,001,19,w,Psychologie,2023-01-26_11h17.47.789,00_bat_bachelor,2022.2.4,59.969382869681596,
,,,,,,,,,,,,0,0,0,0,150,0,150,0,,,,,,,150,,,1,1792.740051015804,X,None,nogo,None,1,,1793.5404696346377,,,,,,,,,,,,,,,,,75,001,19,w,Psychologie,2023-01-26_11h17.47.789,00_bat_bachelor,2022.2.4,59.969382869681596,
,,,,,,,,,,,,0,0,0,0,151,0,151,0,,,,,,,151,,,1,1794.541561999824,Y,d,go,d,1,0.4494002650026232,,,,,,,,,,,,,,,,,,75,001,19,w,Psychologie,2023-01-26_11h17.47.789,00_bat_bachelor,2022.2.4,59.969382869681596,
,,,,,,,,,,,,0,0,0,0,152,0,152,0,,,,,,,152,,,1,1796.0924248616793,X,l,go,l,1,0.24087147682439536,,,,,,,,,,,,,,,,,,75,001,19,w,Psychologie,2023-01-26_11h17.47.789,00_bat_bachelor,2022.2.4,59.969382869681596,
,,,,,,,,,,,,0,0,0,0,153,0,153,0,,,,,,,153,,,1,1797.460256184626,Y,d,go,d,1,0.4746293925563805,,,,,,,,,,,,,,,,,,75,001,19,w,Psychologie,2023-01-26_11h17.47.789,00_bat_bachelor,2022.2.4,59.969382869681596,
,,,,,,,,,,,,0,0,0,0,154,0,154,0,,,,,,,154,,,1,1799.0448121863883,Y,None,nogo,None,1,,1799.845389835711,,,,,,,,,,,,,,,,,75,001,19,w,Psychologie,2023-01-26_11h17.47.789,00_bat_bachelor,2022.2.4,59.969382869681596,
,,,,,,,,,,,,0,0,0,0,155,0,155,0,,,,,,,155,,,1,1800.845994927513,X,l,go,l,1,0.2879755453323014,,,,,,,,,,,,,,,,,,75,001,19,w,Psychologie,2023-01-26_11h17.47.789,00_bat_bachelor,2022.2.4,59.969382869681596,
,,,,,,,,,,,,0,0,0,0,156,0,156,0,,,,,,,156,,,1,1802.2470970866852,Y,d,go,d,1,0.3106897601974197,,,,,,,,,,,,,,,,,,75,001,19,w,Psychologie,2023-01-26_11h17.47.789,00_bat_bachelor,2022.2.4,59.969382869681596,
,,,,,,,,,,,,0,0,0,0,157,0,157,0,,,,,,,157,,,1,1803.6648169669788,X,l,go,l,1,0.316902132879477,,,,,,,,,,,,,,,,,,75,001,19,w,Psychologie,2023-01-26_11h17.47.789,00_bat_bachelor,2022.2.4,59.969382869681596,
,,,,,,,,,,,,0,0,0,0,158,0,158,0,,,,,,,158,,,1,1805.0825838776655,Y,d,go,d,1,0.4505139635875821,,,,,,,,,,,,,,,,,,75,001,19,w,Psychologie,2023-01-26_11h17.47.789,00_bat_bachelor,2022.2.4,59.969382869681596,
,,,,,,,,,,,,0,0,0,0,159,0,159,0,,,,,,,159,,,1,1806.6505042189383,Y,None,nogo,None,1,,1807.451047928771,,,,,,,,,,,,,,,,,75,001,19,w,Psychologie,2023-01-26_11h17.47.789,00_bat_bachelor,2022.2.4,59.969382869681596,
,,,,,,,,,,,,0,0,0,0,160,0,160,0,,,,,,,160,,,1,1808.4518295056769,X,l,go,l,1,0.394059578422457,,,,,,,,,,,,,,,,,,75,001,19,w,Psychologie,2023-01-26_11h17.47.789,00_bat_bachelor,2022.2.4,59.969382869681596,
,,,,,,,,,,,,0,0,0,0,161,0,161,0,,,,,,,161,,,1,1809.9696334103937,Y,d,go,d,1,0.23645110678626224,,,,,,,,,,,,,,,,,,75,001,19,w,Psychologie,2023-01-26_11h17.47.789,00_bat_bachelor,2022.2.4,59.969382869681596,
,,,,,,,,,,,,0,0,0,0,162,0,162,0,,,,,,,162,,,1,1811.3207078604028,X,l,go,l,1,0.22903533844510093,,,,,,,,,,,,,,,,,,75,001,19,w,Psychologie,2023-01-26_11h17.47.789,00_bat_bachelor,2022.2.4,59.969382869681596,
,,,,,,,,,,,,0,0,0,0,163,0,163,0,,,,,,,163,,,1,1812.671877825749,X,None,nogo,None,1,,1813.472660081461,,,,,,,,,,,,,,,,,75,001,19,w,Psychologie,2023-01-26_11h17.47.789,00_bat_bachelor,2022.2.4,59.969382869681596,
,,,,,,,,,,,,0,0,0,0,164,0,164,0,,,,,,,164,,,1,1814.4734077188768,Y,d,go,d,1,0.4538380896556191,,,,,,,,,,,,,,,,,,75,001,19,w,Psychologie,2023-01-26_11h17.47.789,00_bat_bachelor,2022.2.4,59.969382869681596,
,,,,,,,,,,,,0,0,0,0,165,0,165,0,,,,,,,165,,,1,1816.040968301997,X,l,go,l,1,0.212116525915917,,,,,,,,,,,,,,,,,,75,001,19,w,Psychologie,2023-01-26_11h17.47.789,00_bat_bachelor,2022.2.4,59.969382869681596,
,,,,,,,,,,,,0,0,0,0,166,0,166,0,,,,,,,166,,,1,1817.3756630918942,Y,d,go,d,1,0.3185079533723183,,,,,,,,,,,,,,,,,,75,001,19,w,Psychologie,2023-01-26_11h17.47.789,00_bat_bachelor,2022.2.4,59.969382869681596,
,,,,,,,,,,,,0,0,0,0,167,0,167,0,,,,,,,167,,,1,1818.8264332020772,X,l,go,l,1,0.25997986824950203,,,,,,,,,,,,,,,,,,75,001,19,w,Psychologie,2023-01-26_11h17.47.789,00_bat_bachelor,2022.2.4,59.969382869681596,
,,,,,,,,,,,,0,0,0,0,168,0,168,0,,,,,,,168,,,1,1820.1941602824372,Y,d,go,d,1,0.21969326422549784,,,,,,,,,,,,,,,,,,75,001,19,w,Psychologie,2023-01-26_11h17.47.789,00_bat_bachelor,2022.2.4,59.969382869681596,
,,,,,,,,,,,,0,0,0,0,169,0,169,0,,,,,,,169,,,1,1821.5453287931741,Y,None,nogo,None,1,,1822.3457648665644,,,,,,,,,,,,,,,,,75,001,19,w,Psychologie,2023-01-26_11h17.47.789,00_bat_bachelor,2022.2.4,59.969382869681596,
,,,,,,,,,,,,0,0,0,0,170,0,170,0,,,,,,,170,,,1,1823.346779655898,X,l,go,l,1,0.28452632820699364,,,,,,,,,,,,,,,,,,75,001,19,w,Psychologie,2023-01-26_11h17.47.789,00_bat_bachelor,2022.2.4,59.969382869681596,
,,,,,,,,,,,,0,0,0,0,171,0,171,0,,,,,,,171,,,1,1824.747912360588,Y,d,go,d,1,0.25750519800931215,,,,,,,,,,,,,,,,,,75,001,19,w,Psychologie,2023-01-26_11h17.47.789,00_bat_bachelor,2022.2.4,59.969382869681596,
,,,,,,,,,,,,0,0,0,0,172,0,172,0,,,,,,,172,,,1,1826.1321664952557,X,l,go,l,1,0.2666639991803095,,,,,,,,,,,,,,,,,,75,001,19,w,Psychologie,2023-01-26_11h17.47.789,00_bat_bachelor,2022.2.4,59.969382869681596,
,,,,,,,,,,,,0,0,0,0,173,0,173,0,,,,,,,173,,,1,1827.499633696454,X,None,nogo,None,1,,,,,,,,,,,,,,,,,,,75,001,19,w,Psychologie,2023-01-26_11h17.47.789,00_bat_bachelor,2022.2.4,59.969382869681596,
,,,,,,,,,,,,0,0,0,0,174,0,174,0,,,,,,,174,,,1,1829.301058377314,Y,d,go,d,1,0.29770162008935586,,,,,,,,,,,,,,,,,,75,001,19,w,Psychologie,2023-01-26_11h17.47.789,00_bat_bachelor,2022.2.4,59.969382869681596,
,,,,,,,,,,,,0,0,0,0,175,0,175,0,,,,,,,175,,,1,1830.7017930207658,X,l,go,l,1,0.2098280377103947,,,,,,,,,,,,,,,,,,75,001,19,w,Psychologie,2023-01-26_11h17.47.789,00_bat_bachelor,2022.2.4,59.969382869681596,
,,,,,,,,,,,,0,0,0,0,176,0,176,0,,,,,,,176,,,1,1832.0194332404062,Y,d,go,d,1,0.2193010212504305,,,,,,,,,,,,,,,,,,75,001,19,w,Psychologie,2023-01-26_11h17.47.789,00_bat_bachelor,2022.2.4,59.969382869681596,
,,,,,,,,,,,,0,0,0,0,177,0,177,0,,,,,,,177,,,1,1833.353600514296,Y,None,nogo,None,1,,,,,,,,,,,,,,,,,,,75,001,19,w,Psychologie,2023-01-26_11h17.47.789,00_bat_bachelor,2022.2.4,59.969382869681596,
,,,,,,,,,,,,0,0,0,0,178,0,178,0,,,,,,,178,,,1,1835.155225922761,X,l,go,l,1,0.2825025676866062,,,,,,,,,,,,,,,,,,75,001,19,w,Psychologie,2023-01-26_11h17.47.789,00_bat_bachelor,2022.2.4,59.969382869681596,
,,,,,,,,,,,,0,0,0,0,179,0,179,0,,,,,,,179,,,1,1836.5402912101126,Y,d,go,d,1,0.24242444877745584,,,,,,,,,,,,,,,,,,75,001,19,w,Psychologie,2023-01-26_11h17.47.789,00_bat_bachelor,2022.2.4,59.969382869681596,
,,,,,,,,,,,,0,0,0,0,180,0,180,0,,,,,,,180,,,1,1837.908008108614,Y,None,nogo,None,1,,1838.7086996975122,,,,,,,,,,,,,,,,,75,001,19,w,Psychologie,2023-01-26_11h17.47.789,00_bat_bachelor,2022.2.4,59.969382869681596,
,,,,,,,,,,,,0,0,0,0,181,0,181,0,,,,,,,181,,,1,1839.7093770318315,Y,None,nogo,None,1,,1840.5097253474523,,,,,,,,,,,,,,,,,75,001,19,w,Psychologie,2023-01-26_11h17.47.789,00_bat_bachelor,2022.2.4,59.969382869681596,
,,,,,,,,,,,,0,0,0,0,182,0,182,0,,,,,,,182,,,1,1841.5107265610714,X,l,go,l,1,0.24777427478693426,,,,,,,,,,,,,,,,,,75,001,19,w,Psychologie,2023-01-26_11h17.47.789,00_bat_bachelor,2022.2.4,59.969382869681596,
,,,,,,,,,,,,0,0,0,0,183,0,183,0,,,,,,,183,,,1,1842.8783702473156,Y,d,go,d,1,0.239306868519634,,,,,,,,,,,,,,,,,,75,001,19,w,Psychologie,2023-01-26_11h17.47.789,00_bat_bachelor,2022.2.4,59.969382869681596,
,,,,,,,,,,,,0,0,0,0,184,0,184,0,,,,,,,184,,,1,1844.2462117520627,Y,None,nogo,None,1,,1845.0467331588734,,,,,,,,,,,,,,,,,75,001,19,w,Psychologie,2023-01-26_11h17.47.789,00_bat_bachelor,2022.2.4,59.969382869681596,
,,,,,,,,,,,,0,0,0,0,185,0,185,0,,,,,,,185,,,1,1846.0474618872395,X,l,go,l,1,0.23982323292875662,,,,,,,,,,,,,,,,,,75,001,19,w,Psychologie,2023-01-26_11h17.47.789,00_bat_bachelor,2022.2.4,59.969382869681596,
,,,,,,,,,,,,0,0,0,0,186,0,186,0,,,,,,,186,,,1,1847.398260942893,Y,d,go,d,1,0.29484925232827663,,,,,,,,,,,,,,,,,,75,001,19,w,Psychologie,2023-01-26_11h17.47.789,00_bat_bachelor,2022.2.4,59.969382869681596,
,,,,,,,,,,,,0,0,0,0,187,0,187,0,,,,,,,187,,,1,1848.832799756783,Y,None,nogo,None,1,,1849.6333560727653,,,,,,,,,,,,,,,,,75,001,19,w,Psychologie,2023-01-26_11h17.47.789,00_bat_bachelor,2022.2.4,59.969382869681596,
,,,,,,,,,,,,0,0,0,0,188,0,188,0,,,,,,,188,,,1,1850.6341129223583,X,l,go,l,1,0.275902800494805,,,,,,,,,,,,,,,,,,75,001,19,w,Psychologie,2023-01-26_11h17.47.789,00_bat_bachelor,2022.2.4,59.969382869681596,
,,,,,,,,,,,,0,0,0,0,189,0,189,0,,,,,,,189,,,1,1852.0187607545522,Y,d,go,d,1,0.34755381383001804,,,,,,,,,,,,,,,,,,75,001,19,w,Psychologie,2023-01-26_11h17.47.789,00_bat_bachelor,2022.2.4,59.969382869681596,
,,,,,,,,,,,,0,0,0,0,190,0,190,0,,,,,,,190,,,1,1853.4863401013426,X,l,go,l,1,0.28761045390274376,,,,,,,,,,,,,,,,,,75,001,19,w,Psychologie,2023-01-26_11h17.47.789,00_bat_bachelor,2022.2.4,59.969382869681596,
,,,,,,,,,,,,0,0,0,0,191,0,191,0,,,,,,,191,,,1,1854.9203741872334,Y,d,go,d,1,0.24628481804393232,,,,,,,,,,,,,,,,,,75,001,19,w,Psychologie,2023-01-26_11h17.47.789,00_bat_bachelor,2022.2.4,59.969382869681596,
,,,,,,,,,,,,0,0,0,0,192,0,192,0,,,,,,,192,,,1,1856.2715116676409,Y,None,nogo,None,1,,1857.072011741111,,,,,,,,,,,,,,,,,75,001,19,w,Psychologie,2023-01-26_11h17.47.789,00_bat_bachelor,2022.2.4,59.969382869681596,
,,,,,,,,,,,,0,0,0,0,193,0,193,0,,,,,,,193,,,1,1858.0729213181767,X,l,go,l,1,0.24671245500212535,,,,,,,,,,,,,,,,,,75,001,19,w,Psychologie,2023-01-26_11h17.47.789,00_bat_bachelor,2022.2.4,59.969382869681596,
,,,,,,,,,,,,0,0,0,0,194,0,194,0,,,,,,,194,,,1,1859.4239603742608,Y,d,go,d,1,0.3191460149246268,,,,,,,,,,,,,,,,,,75,001,19,w,Psychologie,2023-01-26_11h17.47.789,00_bat_bachelor,2022.2.4,59.969382869681596,
,,,,,,,,,,,,0,0,0,0,195,0,195,0,,,,,,,195,,,1,1860.8582587029086,X,l,go,l,1,0.32452541671227664,,,,,,,,,,,,,,,,,,75,001,19,w,Psychologie,2023-01-26_11h17.47.789,00_bat_bachelor,2022.2.4,59.969382869681596,
,,,,,,,,,,,,0,0,0,0,196,0,196,0,,,,,,,196,,,1,1862.2923858798458,X,None,nogo,d,0,0.25000700529199094,,,,,,,,,,,,,,,,,,75,001,19,w,Psychologie,2023-01-26_11h17.47.789,00_bat_bachelor,2022.2.4,59.969382869681596,
,,,,,,,,,,,,0,0,0,0,197,0,197,0,,,,,,,197,,,1,1863.6435500269872,Y,d,go,d,1,0.32333753613056615,,,,,,,,,,,,,,,,,,75,001,19,w,Psychologie,2023-01-26_11h17.47.789,00_bat_bachelor,2022.2.4,59.969382869681596,
,,,,,,,,,,,,0,0,0,0,198,0,198,0,,,,,,,198,,,1,1865.0779579315567,X,l,go,l,1,0.28021553403232247,,,,,,,,,,,,,,,,,,75,001,19,w,Psychologie,2023-01-26_11h17.47.789,00_bat_bachelor,2022.2.4,59.969382869681596,
,,,,,,,,,,,,0,0,0,0,199,0,199,0,,,,,,,199,,,1,1866.4624200665276,X,None,nogo,None,1,,1867.2630466856644,,,,,,,,,,,,,,,,,75,001,19,w,Psychologie,2023-01-26_11h17.47.789,00_bat_bachelor,2022.2.4,59.969382869681596,
,,,,,,,,,,,,0,0,0,0,200,0,200,0,,,,,,,200,,,1,1868.2636134743225,Y,d,go,d,1,0.2796885030111298,,,,,,,,,,,,,,,,,,75,001,19,w,Psychologie,2023-01-26_11h17.47.789,00_bat_bachelor,2022.2.4,59.969382869681596,
,,,,,,,,,,,,0,0,0,0,201,0,201,0,,,,,,,201,,,1,1869.6481560943066,X,l,go,l,1,0.3672784485388547,,,,,,,,,,,,,,,,,,75,001,19,w,Psychologie,2023-01-26_11h17.47.789,00_bat_bachelor,2022.2.4,59.969382869681596,
,,,,,,,,,,,,0,0,0,0,202,0,202,0,,,,,,,202,,,1,1871.1156447742833,Y,d,go,d,1,0.30685460311360657,,,,,,,,,,,,,,,,,,75,001,19,w,Psychologie,2023-01-26_11h17.47.789,00_bat_bachelor,2022.2.4,59.969382869681596,
,,,,,,,,,,,,0,0,0,0,203,0,203,0,,,,,,,203,,,1,1872.5337748369784,Y,None,nogo,None,1,,,,,,,,,,,,,,,,,,,75,001,19,w,Psychologie,2023-01-26_11h17.47.789,00_bat_bachelor,2022.2.4,59.969382869681596,
,,,,,,,,,,,,0,0,0,0,204,0,204,0,,,,,,,204,,,1,1874.3355442456086,X,l,go,l,1,0.23780819965759292,,,,,,,,,,,,,,,,,,75,001,19,w,Psychologie,2023-01-26_11h17.47.789,00_bat_bachelor,2022.2.4,59.969382869681596,
,,,,,,,,,,,,0,0,0,0,205,0,205,0,,,,,,,205,,,1,1875.7033042957191,Y,d,go,d,1,0.2780797733576037,,,,,,,,,,,,,,,,,,75,001,19,w,Psychologie,2023-01-26_11h17.47.789,00_bat_bachelor,2022.2.4,59.969382869681596,
,,,,,,,,,,,,0,0,0,0,206,0,206,0,,,,,,,206,,,1,1877.1044069397612,X,l,go,l,1,0.23704068339429796,,,,,,,,,,,,,,,,,,75,001,19,w,Psychologie,2023-01-26_11h17.47.789,00_bat_bachelor,2022.2.4,59.969382869681596,
,,,,,,,,,,,,0,0,0,0,207,0,207,0,,,,,,,207,,,1,1878.4721000806312,X,None,nogo,None,1,,1879.2729468212347,,,,,,,,,,,,,,,,,75,001,19,w,Psychologie,2023-01-26_11h17.47.789,00_bat_bachelor,2022.2.4,59.969382869681596,
,,,,,,,,,,,,0,0,0,0,208,0,208,0,,,,,,,208,,,1,1880.2734224583255,X,None,nogo,None,1,,1881.0740752592683,,,,,,,,,,,,,,,,,75,001,19,w,Psychologie,2023-01-26_11h17.47.789,00_bat_bachelor,2022.2.4,59.969382869681596,
,,,,,,,,,,,,0,0,0,0,209,0,209,0,,,,,,,209,,,1,1882.0750284727546,Y,d,go,d,1,0.6268836746457964,,,,,,,,,,,,,,,,,,75,001,19,w,Psychologie,2023-01-26_11h17.47.789,00_bat_bachelor,2022.2.4,59.969382869681596,
,,,,,,,,,,,,0,0,0,0,210,0,210,0,,,,,,,210,,,1,1883.8263342928258,X,l,go,l,1,0.267700606782455,,,,,,,,,,,,,,,,,,75,001,19,w,Psychologie,2023-01-26_11h17.47.789,00_bat_bachelor,2022.2.4,59.969382869681596,
,,,,,,,,,,,,0,0,0,0,211,0,211,0,,,,,,,211,,,1,1885.2274049367988,Y,d,go,d,1,0.27427758602425456,,,,,,,,,,,,,,,,,,75,001,19,w,Psychologie,2023-01-26_11h17.47.789,00_bat_bachelor,2022.2.4,59.969382869681596,
,,,,,,,,,,,,0,0,0,0,212,0,212,0,,,,,,,212,,,1,1886.6454045751016,X,l,go,l,1,0.2644967233063653,,,,,,,,,,,,,,,,,,75,001,19,w,Psychologie,2023-01-26_11h17.47.789,00_bat_bachelor,2022.2.4,59.969382869681596,
,,,,,,,,,,,,0,0,0,0,213,0,213,0,,,,,,,213,,,1,1888.0296427097637,Y,d,go,d,1,0.2573568341322243,,,,,,,,,,,,,,,,,,75,001,19,w,Psychologie,2023-01-26_11h17.47.789,00_bat_bachelor,2022.2.4,59.969382869681596,
,,,,,,,,,,,,0,0,0,0,214,0,214,0,,,,,,,214,,,1,1889.3973169415258,X,l,go,l,1,0.24810445704497397,,,,,,,,,,,,,,,,,,75,001,19,w,Psychologie,2023-01-26_11h17.47.789,00_bat_bachelor,2022.2.4,59.969382869681596,
,,,,,,,,,,,,0,0,0,0,215,0,215,0,,,,,,,215,,,1,1890.7648282640148,X,None,nogo,None,1,,1891.5654786406667,,,,,,,,,,,,,,,,,75,001,19,w,Psychologie,2023-01-26_11h17.47.789,00_bat_bachelor,2022.2.4,59.969382869681596,
,,,,,,,,,,,,0,0,0,0,216,0,216,0,,,,,,,216,,,1,1892.5661288234405,Y,d,go,d,1,0.263961449789349,,,,,,,,,,,,,,,,,,75,001,19,w,Psychologie,2023-01-26_11h17.47.789,00_bat_bachelor,2022.2.4,59.969382869681596,
,,,,,,,,,,,,0,0,0,0,217,0,217,0,,,,,,,217,,,1,1893.9338772371411,X,l,go,l,1,0.25691077287774533,,,,,,,,,,,,,,,,,,75,001,19,w,Psychologie,2023-01-26_11h17.47.789,00_bat_bachelor,2022.2.4,59.969382869681596,
,,,,,,,,,,,,0,0,0,0,218,0,218,0,,,,,,,218,,,1,1895.3018273481284,Y,d,go,d,1,0.2960536176688038,,,,,,,,,,,,,,,,,,75,001,19,w,Psychologie,2023-01-26_11h17.47.789,00_bat_bachelor,2022.2.4,59.969382869681596,
,,,,,,,,,,,,0,0,0,0,219,0,219,0,,,,,,,219,,,1,1896.7362187678227,X,l,go,l,1,0.4297420546063222,,,,,,,,,,,,,,,,,,75,001,19,w,Psychologie,2023-01-26_11h17.47.789,00_bat_bachelor,2022.2.4,59.969382869681596,
,,,,,,,,,,,,0,0,0,0,220,0,220,0,,,,,,,220,,,1,1898.287478236307,X,None,nogo,None,1,,1899.0879889764474,,,,,,,,,,,,,,,,,75,001,19,w,Psychologie,2023-01-26_11h17.47.789,00_bat_bachelor,2022.2.4,59.969382869681596,
,,,,,,,,,,,,0,0,0,0,221,0,221,0,,,,,,,221,,,1,1900.088556734845,Y,d,go,d,1,0.309206121659372,,,,,,,,,,,,,,,,,,75,001,19,w,Psychologie,2023-01-26_11h17.47.789,00_bat_bachelor,2022.2.4,59.969382869681596,
,,,,,,,,,,,,0,0,0,0,222,0,222,0,,,,,,,222,,,1,1901.522977245564,X,l,go,l,1,0.41094348178012297,,,,,,,,,,,,,,,,,,75,001,19,w,Psychologie,2023-01-26_11h17.47.789,00_bat_bachelor,2022.2.4,59.969382869681596,
,,,,,,,,,,,,0,0,0,0,223,0,223,0,,,,,,,223,,,1,1903.0407724229153,Y,d,go,d,1,0.31691231473814696,,,,,,,,,,,,,,,,,,75,001,19,w,Psychologie,2023-01-26_11h17.47.789,00_bat_bachelor,2022.2.4,59.969382869681596,
,,,,,,,,,,,,0,0,0,0,224,0,224,0,,,,,,,224,,,1,1904.4754629945965,X,l,go,l,1,0.2588748969719745,,,,,,,,,,,,,,,,,,75,001,19,w,Psychologie,2023-01-26_11h17.47.789,00_bat_bachelor,2022.2.4,59.969382869681596,
,,,,,,,,,,,,0,0,0,0,225,0,225,0,,,,,,,225,,,1,1905.8596303412924,Y,d,go,d,1,0.29823398450389504,,,,,,,,,,,,,,,,,,75,001,19,w,Psychologie,2023-01-26_11h17.47.789,00_bat_bachelor,2022.2.4,59.969382869681596,
,,,,,,,,,,,,0,0,0,0,226,0,226,0,,,,,,,226,,,1,1907.2775916765095,Y,None,nogo,None,1,,1908.0782231440535,,,,,,,,,,,,,,,,,75,001,19,w,Psychologie,2023-01-26_11h17.47.789,00_bat_bachelor,2022.2.4,59.969382869681596,
,,,,,,,,,,,,0,0,0,0,227,0,227,0,,,,,,,227,,,1,1909.0787545387866,X,l,go,l,1,0.2639827831881121,,,,,,,,,,,,,,,,,,75,001,19,w,Psychologie,2023-01-26_11h17.47.789,00_bat_bachelor,2022.2.4,59.969382869681596,
,,,,,,,,,,,,0,0,0,0,228,0,228,0,,,,,,,228,,,1,1910.463140552456,Y,d,go,d,1,0.23889038304332644,,,,,,,,,,,,,,,,,,75,001,19,w,Psychologie,2023-01-26_11h17.47.789,00_bat_bachelor,2022.2.4,59.969382869681596,
,,,,,,,,,,,,0,0,0,0,229,0,229,0,,,,,,,229,,,1,1911.8309204813559,Y,None,nogo,None,1,,1912.6318103735102,,,,,,,,,,,,,,,,,75,001,19,w,Psychologie,2023-01-26_11h17.47.789,00_bat_bachelor,2022.2.4,59.969382869681596,
,,,,,,,,,,,,0,0,0,0,230,0,230,0,,,,,,,230,,,1,1913.6324576471816,X,l,go,l,1,0.2698063067509793,,,,,,,,,,,,,,,,,,75,001,19,w,Psychologie,2023-01-26_11h17.47.789,00_bat_bachelor,2022.2.4,59.969382869681596,
,,,,,,,,,,,,0,0,0,0,231,0,231,0,,,,,,,231,,,1,1915.033285866608,Y,d,go,d,1,0.3893802989041433,,,,,,,,,,,,,,,,,,75,001,19,w,Psychologie,2023-01-26_11h17.47.789,00_bat_bachelor,2022.2.4,59.969382869681596,
,,,,,,,,,,,,0,0,0,0,232,0,232,0,,,,,,,232,,,1,1916.5513544989517,X,l,go,l,1,0.24710809194948524,,,,,,,,,,,,,,,,,,75,001,19,w,Psychologie,2023-01-26_11h17.47.789,00_bat_bachelor,2022.2.4,59.969382869681596,
,,,,,,,,,,,,0,0,0,0,233,0,233,0,,,,,,,233,,,1,1917.9357138458872,Y,d,go,d,1,0.2061145777697675,,,,,,,,,,,,,,,,,,75,001,19,w,Psychologie,2023-01-26_11h17.47.789,00_bat_bachelor,2022.2.4,59.969382869681596,
,,,,,,,,,,,,0,0,0,0,234,0,234,0,,,,,,,234,,,1,1919.2698500894476,Y,None,nogo,None,1,,1920.070494648011,,,,,,,,,,,,,,,,,75,001,19,w,Psychologie,2023-01-26_11h17.47.789,00_bat_bachelor,2022.2.4,59.969382869681596,
,,,,,,,,,,,,0,0,0,0,235,0,235,0,,,,,,,235,,,1,1921.0712388915126,X,l,go,l,1,0.2550334368715994,,,,,,,,,,,,,,,,,,75,001,19,w,Psychologie,2023-01-26_11h17.47.789,00_bat_bachelor,2022.2.4,59.969382869681596,
,,,,,,,,,,,,0,0,0,0,236,0,236,0,,,,,,,236,,,1,1922.4555802990217,Y,d,go,d,1,0.4545260906452313,,,,,,,,,,,,,,,,,,75,001,19,w,Psychologie,2023-01-26_11h17.47.789,00_bat_bachelor,2022.2.4,59.969382869681596,
,,,,,,,,,,,,0,0,0,0,237,0,237,0,,,,,,,237,,,1,1924.0401896341937,Y,None,nogo,None,1,,1924.8412021932309,,,,,,,,,,,,,,,,,75,001,19,w,Psychologie,2023-01-26_11h17.47.789,00_bat_bachelor,2022.2.4,59.969382869681596,
,,,,,,,,,,,,0,0,0,0,238,0,238,0,,,,,,,238,,,1,1925.8415585574112,X,l,go,l,1,0.23650589474709705,,,,,,,,,,,,,,,,,,75,001,19,w,Psychologie,2023-01-26_11h17.47.789,00_bat_bachelor,2022.2.4,59.969382869681596,
,,,,,,,,,,,,0,0,0,0,239,0,239,0,,,,,,,239,,,1,1927.209475698648,Y,d,go,d,1,0.3245419015875086,,,,,,,,,,,,,,,,,,75,001,19,w,Psychologie,2023-01-26_11h17.47.789,00_bat_bachelor,2022.2.4,59.969382869681596,
,,,,,,,,,,,,0,0,0,0,240,0,240,0,,,,,,,240,,,1,1928.660583748715,X,l,go,l,1,0.2978945900686085,,,,,,,,,,,,,,,,,,75,001,19,w,Psychologie,2023-01-26_11h17.47.789,00_bat_bachelor,2022.2.4,59.969382869681596,
,,,,,,,,,,,,0,0,0,0,241,0,241,0,,,,,,,241,,,1,1930.0781189015252,Y,d,go,d,1,0.25563949829665944,,,,,,,,,,,,,,,,,,75,001,19,w,Psychologie,2023-01-26_11h17.47.789,00_bat_bachelor,2022.2.4,59.969382869681596,
,,,,,,,,,,,,0,0,0,0,242,0,242,0,,,,,,,242,,,1,1931.4627415215364,Y,None,nogo,None,1,,1932.2631315342733,,,,,,,,,,,,,,,,,75,001,19,w,Psychologie,2023-01-26_11h17.47.789,00_bat_bachelor,2022.2.4,59.969382869681596,
,,,,,,,,,,,,0,0,0,0,243,0,243,0,,,,,,,243,,,1,1933.2639344445197,X,l,go,l,1,0.2697263067238964,,,,,,,,,,,,,,,,,,75,001,19,w,Psychologie,2023-01-26_11h17.47.789,00_bat_bachelor,2022.2.4,59.969382869681596,
,,,,,,,,,,,,0,0,0,0,244,0,244,0,,,,,,,244,,,1,1934.6482850641478,Y,d,go,d,1,0.533729599788785,,,,,,,,,,,,,,,,,,75,001,19,w,Psychologie,2023-01-26_11h17.47.789,00_bat_bachelor,2022.2.4,59.969382869681596,
,,,,,,,,,,,,0,0,0,0,245,0,245,0,,,,,,,245,,,1,1936.2998355876189,X,l,go,l,1,0.2582455627270974,,,,,,,,,,,,,,,,,,75,001,19,w,Psychologie,2023-01-26_11h17.47.789,00_bat_bachelor,2022.2.4,59.969382869681596,
,,,,,,,,,,,,0,0,0,0,246,0,246,0,,,,,,,246,,,1,1937.700224533677,Y,d,go,d,1,0.2505665212520398,,,,,,,,,,,,,,,,,,75,001,19,w,Psychologie,2023-01-26_11h17.47.789,00_bat_bachelor,2022.2.4,59.969382869681596,
,,,,,,,,,,,,0,0,0,0,247,0,247,0,,,,,,,247,,,1,1939.0514022565912,Y,None,nogo,None,1,,1939.8518257238902,,,,,,,,,,,,,,,,,75,001,19,w,Psychologie,2023-01-26_11h17.47.789,00_bat_bachelor,2022.2.4,59.969382869681596,
,,,,,,,,,,,,0,0,0,0,248,0,248,0,,,,,,,248,,,1,1940.8530228165328,X,l,go,l,1,0.2017431774875149,,,,,,,,,,,,,,,,,,75,001,19,w,Psychologie,2023-01-26_11h17.47.789,00_bat_bachelor,2022.2.4,59.969382869681596,
,,,,,,,,,,,,0,0,0,0,249,0,249,0,,,,,,,249,,,1,1942.1873554240447,Y,d,go,d,1,0.21017470490187407,,,,,,,,,,,,,,,,,,75,001,19,w,Psychologie,2023-01-26_11h17.47.789,00_bat_bachelor,2022.2.4,59.969382869681596,
,,,,,,,,,,,,1,0,1,0,0,0,0,0,,,,,,,0,,,0.2,1958.1992739868,X,l,go,l,1,0.5194377002189867,,,,,,,,,1942.5525472279405,space,15.417693067342043,,,,,,,75,001,19,w,Psychologie,2023-01-26_11h17.47.789,00_bat_bachelor,2022.2.4,59.969382869681596,
,,,,,,,,,,,,1,0,1,0,1,0,1,0,,,,,,,1,,,0.2,1959.0332936241757,Y,d,go,d,1,0.3259203277993947,,,,,,,,,,,,,,,,,,75,001,19,w,Psychologie,2023-01-26_11h17.47.789,00_bat_bachelor,2022.2.4,59.969382869681596,
,,,,,,,,,,,,1,0,1,0,2,0,2,0,,,,,,,2,,,0.2,1959.6673924858915,X,l,go,l,1,0.34788642037892714,,,,,,,,,,,,,,,,,,75,001,19,w,Psychologie,2023-01-26_11h17.47.789,00_bat_bachelor,2022.2.4,59.969382869681596,
,,,,,,,,,,,,1,0,1,0,3,0,3,0,,,,,,,3,,,0.2,1960.317764825828,Y,d,go,d,1,0.3051382370176725,,,,,,,,,,,,,,,,,,75,001,19,w,Psychologie,2023-01-26_11h17.47.789,00_bat_bachelor,2022.2.4,59.969382869681596,
,,,,,,,,,,,,1,0,1,0,4,0,4,0,,,,,,,4,,,0.2,1960.9349477841752,X,l,go,l,1,0.21616986516164616,,,,,,,,,,,,,,,,,,75,001,19,w,Psychologie,2023-01-26_11h17.47.789,00_bat_bachelor,2022.2.4,59.969382869681596,
,,,,,,,,,,,,1,0,1,0,5,0,5,0,,,,,,,5,,,0.2,1961.4517533843755,X,None,nogo,d,0,0.22731315408600494,,,,,,,,,,,,,,,,,,75,001,19,w,Psychologie,2023-01-26_11h17.47.789,00_bat_bachelor,2022.2.4,59.969382869681596,
,,,,,,,,,,,,1,0,1,0,6,0,6,0,,,,,,,6,,,0.2,1961.985511251667,Y,d,go,d,1,0.5083773204823956,,,,,,,,,,,,,,,,,,75,001,19,w,Psychologie,2023-01-26_11h17.47.789,00_bat_bachelor,2022.2.4,59.969382869681596,
,,,,,,,,,,,,1,0,1,0,7,0,7,0,,,,,,,7,,,0.2,1962.8029742588405,X,l,go,l,1,0.20346245274413377,,,,,,,,,,,,,,,,,,75,001,19,w,Psychologie,2023-01-26_11h17.47.789,00_bat_bachelor,2022.2.4,59.969382869681596,
,,,,,,,,,,,,1,0,1,0,8,0,8,0,,,,,,,8,,,0.2,1963.3200518594822,X,None,nogo,None,1,,1964.120677993691,,,,,,,,,,,,,,,,,75,001,19,w,Psychologie,2023-01-26_11h17.47.789,00_bat_bachelor,2022.2.4,59.969382869681596,
,,,,,,,,,,,,1,0,1,0,9,0,9,0,,,,,,,9,,,0.2,1964.3209493153263,Y,d,go,None,0,,1965.1214115705225,,,,,,,,,,,,,,,,,75,001,19,w,Psychologie,2023-01-26_11h17.47.789,00_bat_bachelor,2022.2.4,59.969382869681596,
,,,,,,,,,,,,1,0,1,0,10,0,10,0,,,,,,,10,,,0.2,1965.3215597404633,X,l,go,l,1,0.3724871833692305,,,,,,,,,,,,,,,,,,75,001,19,w,Psychologie,2023-01-26_11h17.47.789,00_bat_bachelor,2022.2.4,59.969382869681596,
,,,,,,,,,,,,1,0,1,0,11,0,11,0,,,,,,,11,,,0.2,1966.0049478859873,X,None,nogo,d,0,0.23348479944979772,,,,,,,,,,,,,,,,,,75,001,19,w,Psychologie,2023-01-26_11h17.47.789,00_bat_bachelor,2022.2.4,59.969382869681596,
,,,,,,,,,,,,1,0,1,0,12,0,12,0,,,,,,,12,,,0.2,1966.538917632366,Y,d,go,d,1,0.5161775742890313,,,,,,,,,,,,,,,,,,75,001,19,w,Psychologie,2023-01-26_11h17.47.789,00_bat_bachelor,2022.2.4,59.969382869681596,
,,,,,,,,,,,,1,0,1,0,13,0,13,0,,,,,,,13,,,0.2,1967.3558274266543,X,l,go,l,1,0.5469936190638691,,,,,,,,,,,,,,,,,,75,001,19,w,Psychologie,2023-01-26_11h17.47.789,00_bat_bachelor,2022.2.4,59.969382869681596,
,,,,,,,,,,,,1,0,1,0,14,0,14,0,,,,,,,14,,,0.2,1968.206603936851,X,None,nogo,l,0,0.4000847993302159,,,,,,,,,,,,,,,,,,75,001,19,w,Psychologie,2023-01-26_11h17.47.789,00_bat_bachelor,2022.2.4,59.969382869681596,
,,,,,,,,,,,,1,0,1,0,15,0,15,0,,,,,,,15,,,0.2,1968.9074151380337,Y,d,go,None,0,,,,,,,,,,,,,,,,,,,75,001,19,w,Psychologie,2023-01-26_11h17.47.789,00_bat_bachelor,2022.2.4,59.969382869681596,
,,,,,,,,,,,,1,0,1,0,16,0,16,0,,,,,,,16,,,0.2,1969.908186533139,X,l,go,l,1,0.522968856850639,,,,,,,,,,,,,,,,,,75,001,19,w,Psychologie,2023-01-26_11h17.47.789,00_bat_bachelor,2022.2.4,59.969382869681596,
,,,,,,,,,,,,1,0,1,0,17,0,17,0,,,,,,,17,,,0.2,1970.742004473228,Y,d,go,d,1,0.5048573153326288,,,,,,,,,,,,,,,,,,75,001,19,w,Psychologie,2023-01-26_11h17.47.789,00_bat_bachelor,2022.2.4,59.969382869681596,
,,,,,,,,,,,,1,0,1,0,18,0,18,0,,,,,,,18,,,0.2,1971.5593399651116,Y,None,nogo,l,0,0.2805660800659098,,,,,,,,,,,,,,,,,,75,001,19,w,Psychologie,2023-01-26_11h17.47.789,00_bat_bachelor,2022.2.4,59.969382869681596,
,,,,,,,,,,,,1,0,1,0,19,0,19,0,,,,,,,19,,,0.2,1972.1431958446628,X,l,go,l,1,0.4479248689021915,,,,,,,,,,,,,,,,,,75,001,19,w,Psychologie,2023-01-26_11h17.47.789,00_bat_bachelor,2022.2.4,59.969382869681596,
,,,,,,,,,,,,1,0,1,0,20,0,20,0,,,,,,,20,,,0.2,1972.8937433605897,Y,d,go,d,1,0.36905202694470063,,,,,,,,,,,,,,,,,,75,001,19,w,Psychologie,2023-01-26_11h17.47.789,00_bat_bachelor,2022.2.4,59.969382869681596,
,,,,,,,,,,,,1,0,1,0,21,0,21,0,,,,,,,21,,,0.2,1973.5772386578028,Y,None,nogo,None,1,,,,,,,,,,,,,,,,,,,75,001,19,w,Psychologie,2023-01-26_11h17.47.789,00_bat_bachelor,2022.2.4,59.969382869681596,
,,,,,,,,,,,,1,0,1,0,22,0,22,0,,,,,,,22,,,0.2,1974.5783925988944,X,l,go,l,1,0.187953581684269,,,,,,,,,,,,,,,,,,75,001,19,w,Psychologie,2023-01-26_11h17.47.789,00_bat_bachelor,2022.2.4,59.969382869681596,
,,,,,,,,,,,,1,0,1,0,23,0,23,0,,,,,,,23,,,0.2,1975.07841417467,Y,d,go,d,1,0.36055068124551326,,,,,,,,,,,,,,,,,,75,001,19,w,Psychologie,2023-01-26_11h17.47.789,00_bat_bachelor,2022.2.4,59.969382869681596,
,,,,,,,,,,,,1,0,1,0,24,0,24,0,,,,,,,24,,,0.2,1975.7458982970566,X,l,go,l,1,0.34906120999949053,,,,,,,,,,,,,,,,,,75,001,19,w,Psychologie,2023-01-26_11h17.47.789,00_bat_bachelor,2022.2.4,59.969382869681596,
,,,,,,,,,,,,1,0,1,0,25,0,25,0,,,,,,,25,,,0.2,1976.396058273036,Y,d,go,d,1,0.35445030871778727,,,,,,,,,,,,,,,,,,75,001,19,w,Psychologie,2023-01-26_11h17.47.789,00_bat_bachelor,2022.2.4,59.969382869681596,
,,,,,,,,,,,,1,0,1,0,26,0,26,0,,,,,,,26,,,0.2,1977.0635603348492,Y,None,nogo,None,1,,,,,,,,,,,,,,,,,,,75,001,19,w,Psychologie,2023-01-26_11h17.47.789,00_bat_bachelor,2022.2.4,59.969382869681596,
,,,,,,,,,,,,1,0,1,0,27,0,27,0,,,,,,,27,,,0.2,1978.0643404572038,X,l,go,l,1,0.38243095541838557,,,,,,,,,,,,,,,,,,75,001,19,w,Psychologie,2023-01-26_11h17.47.789,00_bat_bachelor,2022.2.4,59.969382869681596,
,,,,,,,,,,,,1,0,1,0,28,0,28,0,,,,,,,28,,,0.2,1978.7478779362864,Y,d,go,d,1,0.43454642518190667,,,,,,,,,,,,,,,,,,75,001,19,w,Psychologie,2023-01-26_11h17.47.789,00_bat_bachelor,2022.2.4,59.969382869681596,
,,,,,,,,,,,,1,0,1,0,29,0,29,0,,,,,,,29,,,0.2,1979.498583997949,Y,None,nogo,None,1,,1980.2991621320834,,,,,,,,,,,,,,,,,75,001,19,w,Psychologie,2023-01-26_11h17.47.789,00_bat_bachelor,2022.2.4,59.969382869681596,
,,,,,,,,,,,,1,0,1,0,30,0,30,0,,,,,,,30,,,0.2,1980.4995711508673,X,l,go,l,1,0.21917980891885236,,,,,,,,,,,,,,,,,,75,001,19,w,Psychologie,2023-01-26_11h17.47.789,00_bat_bachelor,2022.2.4,59.969382869681596,
,,,,,,,,,,,,1,0,1,0,31,0,31,0,,,,,,,31,,,0.2,1981.0332718059653,Y,d,go,d,1,0.37358827592106536,,,,,,,,,,,,,,,,,,75,001,19,w,Psychologie,2023-01-26_11h17.47.789,00_bat_bachelor,2022.2.4,59.969382869681596,
,,,,,,,,,,,,1,0,1,0,32,0,32,0,,,,,,,32,,,0.2,1981.7170148611185,X,l,go,l,1,0.42608435230795294,,,,,,,,,,,,,,,,,,75,001,19,w,Psychologie,2023-01-26_11h17.47.789,00_bat_bachelor,2022.2.4,59.969382869681596,
,,,,,,,,,,,,1,0,1,0,33,0,33,0,,,,,,,33,,,0.2,1982.4506828373414,X,None,nogo,None,1,,,,,,,,,,,,,,,,,,,75,001,19,w,Psychologie,2023-01-26_11h17.47.789,00_bat_bachelor,2022.2.4,59.969382869681596,
,,,,,,,,,,,,1,0,1,0,34,0,34,0,,,,,,,34,,,0.2,1983.4517848995747,Y,d,go,d,1,0.25911586702568457,,,,,,,,,,,,,,,,,,75,001,19,w,Psychologie,2023-01-26_11h17.47.789,00_bat_bachelor,2022.2.4,59.969382869681596,
,,,,,,,,,,,,1,0,1,0,35,0,35,0,,,,,,,35,,,0.2,1984.0185794209829,X,l,go,l,1,0.28451614640653133,,,,,,,,,,,,,,,,,,75,001,19,w,Psychologie,2023-01-26_11h17.47.789,00_bat_bachelor,2022.2.4,59.969382869681596,
,,,,,,,,,,,,1,0,1,0,36,0,36,0,,,,,,,36,,,0.2,1984.6192954462604,X,None,nogo,None,1,,,,,,,,,,,,,,,,,,,75,001,19,w,Psychologie,2023-01-26_11h17.47.789,00_bat_bachelor,2022.2.4,59.969382869681596,
,,,,,,,,,,,,1,0,1,0,37,0,37,0,,,,,,,37,,,0.2,1985.619791931822,Y,d,go,d,1,0.42756459687370807,,,,,,,,,,,,,,,,,,75,001,19,w,Psychologie,2023-01-26_11h17.47.789,00_bat_bachelor,2022.2.4,59.969382869681596,
,,,,,,,,,,,,1,0,1,0,38,0,38,0,,,,,,,38,,,0.2,1986.3540106967557,X,l,go,l,1,0.2527105243643746,,,,,,,,,,,,,,,,,,75,001,19,w,Psychologie,2023-01-26_11h17.47.789,00_bat_bachelor,2022.2.4,59.969382869681596,
,,,,,,,,,,,,1,0,1,0,39,0,39,0,,,,,,,39,,,0.2,1986.9211048549623,Y,d,go,d,1,0.42209937679581344,,,,,,,,,,,,,,,,,,75,001,19,w,Psychologie,2023-01-26_11h17.47.789,00_bat_bachelor,2022.2.4,59.969382869681596,
,,,,,,,,,,,,1,0,1,0,40,0,40,0,,,,,,,40,,,0.2,1987.6549401041702,Y,None,nogo,l,0,0.24803221446927637,,,,,,,,,,,,,,,,,,75,001,19,w,Psychologie,2023-01-26_11h17.47.789,00_bat_bachelor,2022.2.4,59.969382869681596,
,,,,,,,,,,,,1,0,1,0,41,0,41,0,,,,,,,41,,,0.2,1988.20520514698,X,l,go,None,0,,,,,,,,,,,,,,,,,,,75,001,19,w,Psychologie,2023-01-26_11h17.47.789,00_bat_bachelor,2022.2.4,59.969382869681596,
,,,,,,,,,,,,1,0,1,0,42,0,42,0,,,,,,,42,,,0.2,1989.2061922998982,Y,d,go,d,1,0.45612172927940264,,,,,,,,,,,,,,,,,,75,001,19,w,Psychologie,2023-01-26_11h17.47.789,00_bat_bachelor,2022.2.4,59.969382869681596,
,,,,,,,,,,,,1,0,1,0,43,0,43,0,,,,,,,43,,,0.2,1989.9732659005094,Y,None,nogo,d,0,0.6490485553513281,,,,,,,,,,,,,,,,,,75,001,19,w,Psychologie,2023-01-26_11h17.47.789,00_bat_bachelor,2022.2.4,59.969382869681596,
,,,,,,,,,,,,1,0,1,0,44,0,44,0,,,,,,,44,,,0.2,1990.924241344328,X,l,go,l,1,0.4022166812210344,,,,,,,,,,,,,,,,,,75,001,19,w,Psychologie,2023-01-26_11h17.47.789,00_bat_bachelor,2022.2.4,59.969382869681596,
,,,,,,,,,,,,1,0,1,0,45,0,45,0,,,,,,,45,,,0.2,1991.6410651748884,Y,d,go,d,1,0.5180287284310907,,,,,,,,,,,,,,,,,,75,001,19,w,Psychologie,2023-01-26_11h17.47.789,00_bat_bachelor,2022.2.4,59.969382869681596,
,,,,,,,,,,,,1,0,1,0,46,0,46,0,,,,,,,46,,,0.2,1992.4753316004644,X,l,go,l,1,0.3720183342229575,,,,,,,,,,,,,,,,,,75,001,19,w,Psychologie,2023-01-26_11h17.47.789,00_bat_bachelor,2022.2.4,59.969382869681596,
,,,,,,,,,,,,1,0,1,0,47,0,47,0,,,,,,,47,,,0.2,1993.1588845947408,X,None,nogo,None,1,,,,,,,,,,,,,,,,,,,75,001,19,w,Psychologie,2023-01-26_11h17.47.789,00_bat_bachelor,2022.2.4,59.969382869681596,
,,,,,,,,,,,,1,0,1,0,48,0,48,0,,,,,,,48,,,0.2,1994.1599333235063,Y,d,go,d,1,0.43034957064082846,,,,,,,,,,,,,,,,,,75,001,19,w,Psychologie,2023-01-26_11h17.47.789,00_bat_bachelor,2022.2.4,59.969382869681596,
,,,,,,,,,,,,1,0,1,0,49,0,49,0,,,,,,,49,,,0.2,1994.8938063909882,X,l,go,l,1,0.4491394161595963,,,,,,,,,,,,,,,,,,75,001,19,w,Psychologie,2023-01-26_11h17.47.789,00_bat_bachelor,2022.2.4,59.969382869681596,
,,,,,,,,,,,,1,0,1,0,50,0,50,0,,,,,,,50,,,0.2,1995.6440935429418,Y,d,go,None,0,,,,,,,,,,,,,,,,,,,75,001,19,w,Psychologie,2023-01-26_11h17.47.789,00_bat_bachelor,2022.2.4,59.969382869681596,
,,,,,,,,,,,,1,0,1,0,51,0,51,0,,,,,,,51,,,0.2,1996.6451272413833,X,l,go,l,1,0.5222265527117997,,,,,,,,,,,,,,,,,,75,001,19,w,Psychologie,2023-01-26_11h17.47.789,00_bat_bachelor,2022.2.4,59.969382869681596,
,,,,,,,,,,,,1,0,1,0,52,0,52,0,,,,,,,52,,,0.2,1997.4791977879358,X,None,nogo,l,0,0.42333331803092733,,,,,,,,,,,,,,,,,,75,001,19,w,Psychologie,2023-01-26_11h17.47.789,00_bat_bachelor,2022.2.4,59.969382869681596,
,,,,,,,,,,,,1,0,1,0,53,0,53,0,,,,,,,53,,,0.2,1998.2127445518854,Y,d,go,d,1,0.441360495693516,,,,,,,,,,,,,,,,,,75,001,19,w,Psychologie,2023-01-26_11h17.47.789,00_bat_bachelor,2022.2.4,59.969382869681596,
,,,,,,,,,,,,1,0,1,0,54,0,54,0,,,,,,,54,,,0.2,1998.9635849167244,X,l,go,l,1,0.45932221884140745,,,,,,,,,,,,,,,,,,75,001,19,w,Psychologie,2023-01-26_11h17.47.789,00_bat_bachelor,2022.2.4,59.969382869681596,
,,,,,,,,,,,,1,0,1,0,55,0,55,0,,,,,,,55,,,0.2,1999.730815123592,Y,d,go,d,1,0.4126433630590327,,,,,,,,,,,,,,,,,,75,001,19,w,Psychologie,2023-01-26_11h17.47.789,00_bat_bachelor,2022.2.4,59.969382869681596,
,,,,,,,,,,,,1,0,1,0,56,0,56,0,,,,,,,56,,,0.2,2000.4477781058522,X,l,go,l,1,0.36604159825947136,,,,,,,,,,,,,,,,,,75,001,19,w,Psychologie,2023-01-26_11h17.47.789,00_bat_bachelor,2022.2.4,59.969382869681596,
,,,,,,,,,,,,1,0,1,0,57,0,57,0,,,,,,,57,,,0.2,2001.1153330162633,Y,d,go,d,1,0.48312976863235235,,,,,,,,,,,,,,,,,,75,001,19,w,Psychologie,2023-01-26_11h17.47.789,00_bat_bachelor,2022.2.4,59.969382869681596,
,,,,,,,,,,,,1,0,1,0,58,0,58,0,,,,,,,58,,,0.2,2001.8991567018093,Y,None,nogo,l,0,0.3398883481277153,,,,,,,,,,,,,,,,,,75,001,19,w,Psychologie,2023-01-26_11h17.47.789,00_bat_bachelor,2022.2.4,59.969382869681596,
,,,,,,,,,,,,1,0,1,0,59,0,59,0,,,,,,,59,,,0.2,2002.5494975265465,Y,None,nogo,None,1,,,,,,,,,,,,,,,,,,,75,001,19,w,Psychologie,2023-01-26_11h17.47.789,00_bat_bachelor,2022.2.4,59.969382869681596,
,,,,,,,,,,,,1,0,1,0,60,0,60,0,,,,,,,60,,,0.2,2003.5502611640259,X,l,go,l,1,0.30450987245421857,,,,,,,,,,,,,,,,,,75,001,19,w,Psychologie,2023-01-26_11h17.47.789,00_bat_bachelor,2022.2.4,59.969382869681596,
,,,,,,,,,,,,1,0,1,0,61,0,61,0,,,,,,,61,,,0.2,2004.1676041225437,Y,d,go,d,1,0.3277389971190132,,,,,,,,,,,,,,,,,,75,001,19,w,Psychologie,2023-01-26_11h17.47.789,00_bat_bachelor,2022.2.4,59.969382869681596,
,,,,,,,,,,,,1,0,1,0,62,0,62,0,,,,,,,62,,,0.2,2004.8014329232974,X,l,go,l,1,0.49360348080517724,,,,,,,,,,,,,,,,,,75,001,19,w,Psychologie,2023-01-26_11h17.47.789,00_bat_bachelor,2022.2.4,59.969382869681596,
,,,,,,,,,,,,1,0,1,0,63,0,63,0,,,,,,,63,,,0.2,2005.6019863301772,Y,d,go,d,1,0.34902630076976493,,,,,,,,,,,,,,,,,,75,001,19,w,Psychologie,2023-01-26_11h17.47.789,00_bat_bachelor,2022.2.4,59.969382869681596,
,,,,,,,,,,,,1,0,1,0,64,0,64,0,,,,,,,64,,,0.2,2006.2525429127854,X,l,go,l,1,0.3384551338967867,,,,,,,,,,,,,,,,,,75,001,19,w,Psychologie,2023-01-26_11h17.47.789,00_bat_bachelor,2022.2.4,59.969382869681596,
,,,,,,,,,,,,1,0,1,0,65,0,65,0,,,,,,,65,,,0.2,2006.9029482224723,Y,d,go,d,1,0.4717101156129502,,,,,,,,,,,,,,,,,,75,001,19,w,Psychologie,2023-01-26_11h17.47.789,00_bat_bachelor,2022.2.4,59.969382869681596,
,,,,,,,,,,,,1,0,1,0,66,0,66,0,,,,,,,66,,,0.2,2007.686871786951,X,l,go,l,1,0.3609337120433338,,,,,,,,,,,,,,,,,,75,001,19,w,Psychologie,2023-01-26_11h17.47.789,00_bat_bachelor,2022.2.4,59.969382869681596,
,,,,,,,,,,,,1,0,1,0,67,0,67,0,,,,,,,67,,,0.2,2008.3538002721616,Y,d,go,d,1,0.3654234155546874,,,,,,,,,,,,,,,,,,75,001,19,w,Psychologie,2023-01-26_11h17.47.789,00_bat_bachelor,2022.2.4,59.969382869681596,
,,,,,,,,,,,,1,0,1,0,68,0,68,0,,,,,,,68,,,0.2,2009.0210026972345,X,l,go,l,1,0.4173439759761095,,,,,,,,,,,,,,,,,,75,001,19,w,Psychologie,2023-01-26_11h17.47.789,00_bat_bachelor,2022.2.4,59.969382869681596,
,,,,,,,,,,,,1,0,1,0,69,0,69,0,,,,,,,69,,,0.2,2009.7549635223695,X,None,nogo,None,1,,,,,,,,,,,,,,,,,,,75,001,19,w,Psychologie,2023-01-26_11h17.47.789,00_bat_bachelor,2022.2.4,59.969382869681596,
,,,,,,,,,,,,1,0,1,0,70,0,70,0,,,,,,,70,,,0.2,2010.7559778268915,Y,d,go,d,1,0.2668981813476421,,,,,,,,,,,,,,,,,,75,001,19,w,Psychologie,2023-01-26_11h17.47.789,00_bat_bachelor,2022.2.4,59.969382869681596,
,,,,,,,,,,,,1,0,1,0,71,0,71,0,,,,,,,71,,,0.2,2011.3229565909714,X,l,go,l,1,0.33990483300294727,,,,,,,,,,,,,,,,,,75,001,19,w,Psychologie,2023-01-26_11h17.47.789,00_bat_bachelor,2022.2.4,59.969382869681596,
,,,,,,,,,,,,1,0,1,0,72,0,72,0,,,,,,,72,,,0.2,2011.9736154767452,Y,d,go,d,1,0.4897838388569653,,,,,,,,,,,,,,,,,,75,001,19,w,Psychologie,2023-01-26_11h17.47.789,00_bat_bachelor,2022.2.4,59.969382869681596,
,,,,,,,,,,,,1,0,1,0,73,0,73,0,,,,,,,73,,,0.2,2012.7742353079957,X,l,go,l,1,0.42503562348429114,,,,,,,,,,,,,,,,,,75,001,19,w,Psychologie,2023-01-26_11h17.47.789,00_bat_bachelor,2022.2.4,59.969382869681596,
,,,,,,,,,,,,1,0,1,0,74,0,74,0,,,,,,,74,,,0.2,2013.5081248602946,X,None,nogo,None,1,,,,,,,,,,,,,,,,,,,75,001,19,w,Psychologie,2023-01-26_11h17.47.789,00_bat_bachelor,2022.2.4,59.969382869681596,
,,,,,,,,,,,,1,0,1,0,75,0,75,0,,,,,,,75,,,0.2,2014.508556376095,Y,d,go,d,1,0.49892130674561486,,,,,,,,,,,,,,,,,,75,001,19,w,Psychologie,2023-01-26_11h17.47.789,00_bat_bachelor,2022.2.4,59.969382869681596,
,,,,,,,,,,,,1,0,1,0,76,0,76,0,,,,,,,76,,,0.2,2015.309432207665,X,l,go,l,1,0.25782713788794354,,,,,,,,,,,,,,,,,,75,001,19,w,Psychologie,2023-01-26_11h17.47.789,00_bat_bachelor,2022.2.4,59.969382869681596,
,,,,,,,,,,,,1,0,1,0,77,0,77,0,,,,,,,77,,,0.2,2015.8765220022178,Y,d,go,d,1,0.507045924605336,,,,,,,,,,,,,,,,,,75,001,19,w,Psychologie,2023-01-26_11h17.47.789,00_bat_bachelor,2022.2.4,59.969382869681596,
,,,,,,,,,,,,1,0,1,0,78,0,78,0,,,,,,,78,,,0.2,2016.6937299787533,Y,None,nogo,None,1,,2017.4943852039287,,,,,,,,,,,,,,,,,75,001,19,w,Psychologie,2023-01-26_11h17.47.789,00_bat_bachelor,2022.2.4,59.969382869681596,
,,,,,,,,,,,,1,0,1,0,79,0,79,0,,,,,,,79,,,0.2,2017.6942739795195,X,l,go,l,1,0.2566062875557691,,,,,,,,,,,,,,,,,,75,001,19,w,Psychologie,2023-01-26_11h17.47.789,00_bat_bachelor,2022.2.4,59.969382869681596,
,,,,,,,,,,,,1,0,1,0,80,0,80,0,,,,,,,80,,,0.2,2018.2789928906714,Y,d,go,d,1,0.2951450103428215,,,,,,,,,,,,,,,,,,75,001,19,w,Psychologie,2023-01-26_11h17.47.789,00_bat_bachelor,2022.2.4,59.969382869681596,
,,,,,,,,,,,,1,0,1,0,81,0,81,0,,,,,,,81,,,0.2,2018.9126233880525,X,l,go,l,1,0.46234864747384563,,,,,,,,,,,,,,,,,,75,001,19,w,Psychologie,2023-01-26_11h17.47.789,00_bat_bachelor,2022.2.4,59.969382869681596,
,,,,,,,,,,,,1,0,1,0,82,0,82,0,,,,,,,82,,,0.2,2019.6800577164395,X,None,nogo,d,0,0.33440858259564266,,,,,,,,,,,,,,,,,,75,001,19,w,Psychologie,2023-01-26_11h17.47.789,00_bat_bachelor,2022.2.4,59.969382869681596,
,,,,,,,,,,,,1,0,1,0,83,0,83,0,,,,,,,83,,,0.2,2020.347076383594,Y,d,go,None,0,,2021.1479648212553,,,,,,,,,,,,,,,,,75,001,19,w,Psychologie,2023-01-26_11h17.47.789,00_bat_bachelor,2022.2.4,59.969382869681596,
,,,,,,,,,,,,1,0,1,0,84,0,84,0,,,,,,,84,,,0.2,2021.3481445063953,X,l,go,l,1,0.025853951927274466,,,,,,,,,,,,,,,,,,75,001,19,w,Psychologie,2023-01-26_11h17.47.789,00_bat_bachelor,2022.2.4,59.969382869681596,
,,,,,,,,,,,,1,0,1,0,85,0,85,0,,,,,,,85,,,0.2,2021.7147418881068,X,None,nogo,None,1,,2022.5154945679824,,,,,,,,,,,,,,,,,75,001,19,w,Psychologie,2023-01-26_11h17.47.789,00_bat_bachelor,2022.2.4,59.969382869681596,
,,,,,,,,,,,,1,0,1,0,86,0,86,0,,,,,,,86,,,0.2,2022.7157697684015,Y,d,go,d,1,0.2897224569460377,,,,,,,,,,,,,,,,,,75,001,19,w,Psychologie,2023-01-26_11h17.47.789,00_bat_bachelor,2022.2.4,59.969382869681596,
,,,,,,,,,,,,1,0,1,0,87,0,87,0,,,,,,,87,,,0.2,2023.3495971145458,X,l,go,l,1,0.3929676980478689,,,,,,,,,,,,,,,,,,75,001,19,w,Psychologie,2023-01-26_11h17.47.789,00_bat_bachelor,2022.2.4,59.969382869681596,
,,,,,,,,,,,,1,0,1,0,88,0,88,0,,,,,,,88,,,0.2,2024.0834614547202,X,None,nogo,None,1,,2024.8841918315738,,,,,,,,,,,,,,,,,75,001,19,w,Psychologie,2023-01-26_11h17.47.789,00_bat_bachelor,2022.2.4,59.969382869681596,
,,,,,,,,,,,,1,0,1,0,89,0,89,0,,,,,,,89,,,0.2,2025.0842386679724,Y,d,go,d,1,0.43353163584833965,,,,,,,,,,,,,,,,,,75,001,19,w,Psychologie,2023-01-26_11h17.47.789,00_bat_bachelor,2022.2.4,59.969382869681596,
,,,,,,,,,,,,1,0,1,0,90,0,90,0,,,,,,,90,,,0.2,2025.8514528748346,X,l,go,l,1,0.6112482579774223,,,,,,,,,,,,,,,,,,75,001,19,w,Psychologie,2023-01-26_11h17.47.789,00_bat_bachelor,2022.2.4,59.969382869681596,
,,,,,,,,,,,,1,0,1,0,91,0,91,0,,,,,,,91,,,0.2,2026.768867542618,Y,d,go,d,1,0.41471754788653925,,,,,,,,,,,,,,,,,,75,001,19,w,Psychologie,2023-01-26_11h17.47.789,00_bat_bachelor,2022.2.4,59.969382869681596,
,,,,,,,,,,,,1,0,1,0,92,0,92,0,,,,,,,92,,,0.2,2027.502711519075,X,l,go,l,1,0.41640627762535587,,,,,,,,,,,,,,,,,,75,001,19,w,Psychologie,2023-01-26_11h17.47.789,00_bat_bachelor,2022.2.4,59.969382869681596,
,,,,,,,,,,,,1,0,1,0,93,0,93,0,,,,,,,93,,,0.2,2028.2365491925739,X,None,nogo,None,1,,2029.0372228420456,,,,,,,,,,,,,,,,,75,001,19,w,Psychologie,2023-01-26_11h17.47.789,00_bat_bachelor,2022.2.4,59.969382869681596,
,,,,,,,,,,,,1,0,1,0,94,0,94,0,,,,,,,94,,,0.2,2029.2374582847697,Y,d,go,d,1,0.23350419336929917,,,,,,,,,,,,,,,,,,75,001,19,w,Psychologie,2023-01-26_11h17.47.789,00_bat_bachelor,2022.2.4,59.969382869681596,
,,,,,,,,,,,,1,0,1,0,95,0,95,0,,,,,,,95,,,0.2,2029.787809145928,X,l,go,l,1,0.3067862393800169,,,,,,,,,,,,,,,,,,75,001,19,w,Psychologie,2023-01-26_11h17.47.789,00_bat_bachelor,2022.2.4,59.969382869681596,
,,,,,,,,,,,,1,0,1,0,96,0,96,0,,,,,,,96,,,0.2,2030.4380840311642,X,None,nogo,d,0,0.2157999252085574,,,,,,,,,,,,,,,,,,75,001,19,w,Psychologie,2023-01-26_11h17.47.789,00_bat_bachelor,2022.2.4,59.969382869681596,
,,,,,,,,,,,,1,0,1,0,97,0,97,0,,,,,,,97,,,0.2,2030.9887258017552,Y,d,go,l,0,0.4650298635242507,,,,,,,,,,,,,,,,,,75,001,19,w,Psychologie,2023-01-26_11h17.47.789,00_bat_bachelor,2022.2.4,59.969382869681596,
,,,,,,,,,,,,1,0,1,0,98,0,98,0,,,,,,,98,,,0.2,2031.78937133,X,l,go,None,0,,2032.5900541915908,,,,,,,,,,,,,,,,,75,001,19,w,Psychologie,2023-01-26_11h17.47.789,00_bat_bachelor,2022.2.4,59.969382869681596,
,,,,,,,,,,,,1,0,1,0,99,0,99,0,,,,,,,99,,,0.2,2032.789996785461,X,None,nogo,d,0,0.008423623570706695,,,,,,,,,,,,,,,,,,75,001,19,w,Psychologie,2023-01-26_11h17.47.789,00_bat_bachelor,2022.2.4,59.969382869681596,
,,,,,,,,,,,,1,0,1,0,100,0,100,0,,,,,,,100,,,0.2,2033.123728179955,Y,d,go,None,0,,2033.9241555260378,,,,,,,,,,,,,,,,,75,001,19,w,Psychologie,2023-01-26_11h17.47.789,00_bat_bachelor,2022.2.4,59.969382869681596,
,,,,,,,,,,,,1,0,1,0,101,0,101,0,,,,,,,101,,,0.2,2034.1244685446727,X,l,go,l,1,0.16229584737448022,,,,,,,,,,,,,,,,,,75,001,19,w,Psychologie,2023-01-26_11h17.47.789,00_bat_bachelor,2022.2.4,59.969382869681596,
,,,,,,,,,,,,1,0,1,0,102,0,102,0,,,,,,,102,,,0.2,2034.6246132721426,Y,d,go,d,1,0.1257556730415672,,,,,,,,,,,,,,,,,,75,001,19,w,Psychologie,2023-01-26_11h17.47.789,00_bat_bachelor,2022.2.4,59.969382869681596,
,,,,,,,,,,,,1,0,1,0,103,0,103,0,,,,,,,103,,,0.2,2035.091878921492,X,l,go,l,1,0.18598024547100067,,,,,,,,,,,,,,,,,,75,001,19,w,Psychologie,2023-01-26_11h17.47.789,00_bat_bachelor,2022.2.4,59.969382869681596,
,,,,,,,,,,,,1,0,1,0,104,0,104,0,,,,,,,104,,,0.2,2035.6087126429775,Y,d,go,d,1,0.16489900270244107,,,,,,,,,,,,,,,,,,75,001,19,w,Psychologie,2023-01-26_11h17.47.789,00_bat_bachelor,2022.2.4,59.969382869681596,
,,,,,,,,,,,,1,0,1,0,105,0,105,0,,,,,,,105,,,0.2,2036.1089344614884,Y,None,nogo,l,0,0.22630757687147707,,,,,,,,,,,,,,,,,,75,001,19,w,Psychologie,2023-01-26_11h17.47.789,00_bat_bachelor,2022.2.4,59.969382869681596,
,,,,,,,,,,,,1,0,1,0,106,0,106,0,,,,,,,106,,,0.2,2036.642074146017,X,l,go,d,0,0.36470099026337266,,,,,,,,,,,,,,,,,,75,001,19,w,Psychologie,2023-01-26_11h17.47.789,00_bat_bachelor,2022.2.4,59.969382869681596,
,,,,,,,,,,,,1,0,1,0,107,0,107,0,,,,,,,107,,,0.2,2037.3095883291098,Y,d,go,l,0,0.5784680891083553,,,,,,,,,,,,,,,,,,75,001,19,w,Psychologie,2023-01-26_11h17.47.789,00_bat_bachelor,2022.2.4,59.969382869681596,
,,,,,,,,,,,,1,0,1,0,108,0,108,0,,,,,,,108,,,0.2,2038.1936453725793,X,l,go,d,0,0.38108452927554026,,,,,,,,,,,,,,,,,,75,001,19,w,Psychologie,2023-01-26_11h17.47.789,00_bat_bachelor,2022.2.4,59.969382869681596,
,,,,,,,,,,,,1,0,1,0,109,0,109,0,,,,,,,109,,,0.2,2038.8774902460282,Y,d,go,l,0,0.5143690867698751,,,,,,,,,,,,,,,,,,75,001,19,w,Psychologie,2023-01-26_11h17.47.789,00_bat_bachelor,2022.2.4,59.969382869681596,
,,,,,,,,,,,,1,0,1,0,110,0,110,0,,,,,,,110,,,0.2,2039.694674949802,X,l,go,d,0,0.3842772612115368,,,,,,,,,,,,,,,,,,75,001,19,w,Psychologie,2023-01-26_11h17.47.789,00_bat_bachelor,2022.2.4,59.969382869681596,
,,,,,,,,,,,,1,0,1,0,111,0,111,0,,,,,,,111,,,0.2,2040.3959695456433,Y,d,go,l,0,0.2590955033665523,,,,,,,,,,,,,,,,,,75,001,19,w,Psychologie,2023-01-26_11h17.47.789,00_bat_bachelor,2022.2.4,59.969382869681596,
,,,,,,,,,,,,1,0,1,0,112,0,112,0,,,,,,,112,,,0.2,2040.9961730853538,Y,None,nogo,d,0,0.26593914965633303,,,,,,,,,,,,,,,,,,75,001,19,w,Psychologie,2023-01-26_11h17.47.789,00_bat_bachelor,2022.2.4,59.969382869681596,
,,,,,,,,,,,,1,0,1,0,113,0,113,0,,,,,,,113,,,0.2,2041.596660746669,Y,None,nogo,l,0,0.3380347696947865,,,,,,,,,,,,,,,,,,75,001,19,w,Psychologie,2023-01-26_11h17.47.789,00_bat_bachelor,2022.2.4,59.969382869681596,
,,,,,,,,,,,,1,0,1,0,114,0,114,0,,,,,,,114,,,0.2,2042.247024359298,X,l,go,d,0,0.3435979292844422,,,,,,,,,,,,,,,,,,75,001,19,w,Psychologie,2023-01-26_11h17.47.789,00_bat_bachelor,2022.2.4,59.969382869681596,
,,,,,,,,,,,,1,0,1,0,115,0,115,0,,,,,,,115,,,0.2,2042.9145336938673,Y,d,go,l,0,0.3159406769555062,,,,,,,,,,,,,,,,,,75,001,19,w,Psychologie,2023-01-26_11h17.47.789,00_bat_bachelor,2022.2.4,59.969382869681596,
,,,,,,,,,,,,1,0,1,0,116,0,116,0,,,,,,,116,,,0.2,2043.5483498885296,X,l,go,d,0,0.3707795445807278,,,,,,,,,,,,,,,,,,75,001,19,w,Psychologie,2023-01-26_11h17.47.789,00_bat_bachelor,2022.2.4,59.969382869681596,
,,,,,,,,,,,,1,0,1,0,117,0,117,0,,,,,,,117,,,0.2,2044.2489385438967,X,None,nogo,l,0,0.3089457576861605,,,,,,,,,,,,,,,,,,75,001,19,w,Psychologie,2023-01-26_11h17.47.789,00_bat_bachelor,2022.2.4,59.969382869681596,
,,,,,,,,,,,,1,0,1,0,118,0,118,0,,,,,,,118,,,0.2,2044.899376823334,Y,d,go,None,0,,2045.70000101818,,,,,,,,,,,,,,,,,75,001,19,w,Psychologie,2023-01-26_11h17.47.789,00_bat_bachelor,2022.2.4,59.969382869681596,
,,,,,,,,,,,,1,0,1,0,119,0,119,0,,,,,,,119,,,0.2,2045.8998723392142,X,l,go,l,1,0.2741360100917518,,,,,,,,,,,,,,,,,,75,001,19,w,Psychologie,2023-01-26_11h17.47.789,00_bat_bachelor,2022.2.4,59.969382869681596,
,,,,,,,,,,,,1,0,1,0,120,0,120,0,,,,,,,120,,,0.2,2046.5172768736375,Y,d,go,d,1,0.2016423288732767,,,,,,,,,,,,,,,,,,75,001,19,w,Psychologie,2023-01-26_11h17.47.789,00_bat_bachelor,2022.2.4,59.969382869681596,
,,,,,,,,,,,,1,0,1,0,121,0,121,0,,,,,,,121,,,0.2,2047.050803467806,X,l,go,l,1,0.17983090318739414,,,,,,,,,,,,,,,,,,75,001,19,w,Psychologie,2023-01-26_11h17.47.789,00_bat_bachelor,2022.2.4,59.969382869681596,
,,,,,,,,,,,,1,0,1,0,122,0,122,0,,,,,,,122,,,0.2,2047.5351135056117,Y,d,go,d,1,0.2869006347027607,,,,,,,,,,,,,,,,,,75,001,19,w,Psychologie,2023-01-26_11h17.47.789,00_bat_bachelor,2022.2.4,59.969382869681596,
,,,,,,,,,,,,1,0,1,0,123,0,123,0,,,,,,,123,,,0.2,2048.167965820059,Y,None,nogo,l,0,0.23130006901919842,,,,,,,,,,,,,,,,,,75,001,19,w,Psychologie,2023-01-26_11h17.47.789,00_bat_bachelor,2022.2.4,59.969382869681596,
,,,,,,,,,,,,1,0,1,0,124,0,124,0,,,,,,,124,,,0.2,2048.701877384563,X,l,go,None,0,,2049.5022407305078,,,,,,,,,,,,,,,,,75,001,19,w,Psychologie,2023-01-26_11h17.47.789,00_bat_bachelor,2022.2.4,59.969382869681596,
,,,,,,,,,,,,1,0,1,0,125,0,125,0,,,,,,,125,,,0.2,2049.702425264113,Y,d,go,d,1,0.42566301830811426,,,,,,,,,,,,,,,,,,75,001,19,w,Psychologie,2023-01-26_11h17.47.789,00_bat_bachelor,2022.2.4,59.969382869681596,
,,,,,,,,,,,,1,0,1,0,126,0,126,0,,,,,,,126,,,0.2,2050.4363070588442,Y,None,nogo,l,0,0.17026676808018237,,,,,,,,,,,,,,,,,,75,001,19,w,Psychologie,2023-01-26_11h17.47.789,00_bat_bachelor,2022.2.4,59.969382869681596,
,,,,,,,,,,,,1,0,1,0,127,0,127,0,,,,,,,127,,,0.2,2050.9196507922024,X,l,go,d,0,0.16704252094496042,,,,,,,,,,,,,,,,,,75,001,19,w,Psychologie,2023-01-26_11h17.47.789,00_bat_bachelor,2022.2.4,59.969382869681596,
,,,,,,,,,,,,1,0,1,0,128,0,128,0,,,,,,,128,,,0.2,2051.3870051689446,Y,d,go,l,0,0.32435911340871826,,,,,,,,,,,,,,,,,,75,001,19,w,Psychologie,2023-01-26_11h17.47.789,00_bat_bachelor,2022.2.4,59.969382869681596,
,,,,,,,,,,,,1,0,1,0,129,0,129,0,,,,,,,129,,,0.2,2052.0204843934043,X,l,go,d,0,0.5701839558314532,,,,,,,,,,,,,,,,,,75,001,19,w,Psychologie,2023-01-26_11h17.47.789,00_bat_bachelor,2022.2.4,59.969382869681596,
,,,,,,,,,,,,1,0,1,0,130,0,130,0,,,,,,,130,,,0.2,2052.904493921669,Y,d,go,l,0,0.5348423286923207,,,,,,,,,,,,,,,,,,75,001,19,w,Psychologie,2023-01-26_11h17.47.789,00_bat_bachelor,2022.2.4,59.969382869681596,
,,,,,,,,,,,,1,0,1,0,131,0,131,0,,,,,,,131,,,0.2,2053.755441098823,X,l,go,None,0,,,,,,,,,,,,,,,,,,,75,001,19,w,Psychologie,2023-01-26_11h17.47.789,00_bat_bachelor,2022.2.4,59.969382869681596,
,,,,,,,,,,,,1,0,1,0,132,0,132,0,,,,,,,132,,,0.2,2054.7561989180977,X,None,nogo,None,1,,,,,,,,,,,,,,,,,,,75,001,19,w,Psychologie,2023-01-26_11h17.47.789,00_bat_bachelor,2022.2.4,59.969382869681596,
,,,,,,,,,,,,1,0,1,0,133,0,133,0,,,,,,,133,,,0.2,2055.757043040532,Y,d,go,d,1,0.46572853112593293,,,,,,,,,,,,,,,,,,75,001,19,w,Psychologie,2023-01-26_11h17.47.789,00_bat_bachelor,2022.2.4,59.969382869681596,
,,,,,,,,,,,,1,0,1,0,134,0,134,0,,,,,,,134,,,0.2,2056.5242664595135,X,l,go,l,1,0.22707315377192572,,,,,,,,,,,,,,,,,,75,001,19,w,Psychologie,2023-01-26_11h17.47.789,00_bat_bachelor,2022.2.4,59.969382869681596,
,,,,,,,,,,,,1,0,1,0,135,0,135,0,,,,,,,135,,,0.2,2057.057667477813,X,None,nogo,d,0,0.26911782094975933,,,,,,,,,,,,,,,,,,75,001,19,w,Psychologie,2023-01-26_11h17.47.789,00_bat_bachelor,2022.2.4,59.969382869681596,
,,,,,,,,,,,,1,0,1,0,136,0,136,0,,,,,,,136,,,0.2,2057.641752691008,Y,d,go,l,0,0.35793395014479756,,,,,,,,,,,,,,,,,,75,001,19,w,Psychologie,2023-01-26_11h17.47.789,00_bat_bachelor,2022.2.4,59.969382869681596,
,,,,,,,,,,,,1,0,1,0,137,0,137,0,,,,,,,137,,,0.2,2058.3089425099897,X,l,go,d,0,0.5856511298916303,,,,,,,,,,,,,,,,,,75,001,19,w,Psychologie,2023-01-26_11h17.47.789,00_bat_bachelor,2022.2.4,59.969382869681596,
,,,,,,,,,,,,1,0,1,0,138,0,138,0,,,,,,,138,,,0.2,2059.209318122652,Y,d,go,None,0,,,,,,,,,,,,,,,,,,,75,001,19,w,Psychologie,2023-01-26_11h17.47.789,00_bat_bachelor,2022.2.4,59.969382869681596,
,,,,,,,,,,,,1,0,1,0,139,0,139,0,,,,,,,139,,,0.2,2060.210448306112,Y,None,nogo,None,1,,2061.01101965236,,,,,,,,,,,,,,,,,75,001,19,w,Psychologie,2023-01-26_11h17.47.789,00_bat_bachelor,2022.2.4,59.969382869681596,
,,,,,,,,,,,,1,0,1,0,140,0,140,0,,,,,,,140,,,0.2,2061.211212913273,X,l,go,l,1,0.19648935162695125,,,,,,,,,,,,,,,,,,75,001,19,w,Psychologie,2023-01-26_11h17.47.789,00_bat_bachelor,2022.2.4,59.969382869681596,
,,,,,,,,,,,,1,0,1,0,141,0,141,0,,,,,,,141,,,0.2,2061.7115079439827,Y,d,go,d,1,0.5753757209167816,,,,,,,,,,,,,,,,,,75,001,19,w,Psychologie,2023-01-26_11h17.47.789,00_bat_bachelor,2022.2.4,59.969382869681596,
,,,,,,,,,,,,1,0,1,0,142,0,142,0,,,,,,,142,,,0.2,2062.5955252298736,Y,None,nogo,l,0,0.26763369754189625,,,,,,,,,,,,,,,,,,75,001,19,w,Psychologie,2023-01-26_11h17.47.789,00_bat_bachelor,2022.2.4,59.969382869681596,
,,,,,,,,,,,,1,0,1,0,143,0,143,0,,,,,,,143,,,0.2,2063.1793418365996,X,l,go,d,0,0.40351510734762996,,,,,,,,,,,,,,,,,,75,001,19,w,Psychologie,2023-01-26_11h17.47.789,00_bat_bachelor,2022.2.4,59.969382869681596,
,,,,,,,,,,,,1,0,1,0,144,0,144,0,,,,,,,144,,,0.2,2063.8963857886847,Y,d,go,None,0,,2064.6971021048957,,,,,,,,,,,,,,,,,75,001,19,w,Psychologie,2023-01-26_11h17.47.789,00_bat_bachelor,2022.2.4,59.969382869681596,
,,,,,,,,,,,,1,0,1,0,145,0,145,0,,,,,,,145,,,0.2,2064.897010274406,Y,None,nogo,l,0,0.15791862888727337,,,,,,,,,,,,,,,,,,75,001,19,w,Psychologie,2023-01-26_11h17.47.789,00_bat_bachelor,2022.2.4,59.969382869681596,
,,,,,,,,,,,,1,0,1,0,146,0,146,0,,,,,,,146,,,0.2,2065.3642381055397,X,l,go,d,0,0.23433280066819862,,,,,,,,,,,,,,,,,,75,001,19,w,Psychologie,2023-01-26_11h17.47.789,00_bat_bachelor,2022.2.4,59.969382869681596,
,,,,,,,,,,,,1,0,1,0,147,0,147,0,,,,,,,147,,,0.2,2065.914813451818,Y,d,go,l,0,0.22807533701416105,,,,,,,,,,,,,,,,,,75,001,19,w,Psychologie,2023-01-26_11h17.47.789,00_bat_bachelor,2022.2.4,59.969382869681596,
,,,,,,,,,,,,1,0,1,0,148,0,148,0,,,,,,,148,,,0.2,2066.448623682838,X,l,go,d,0,0.4153750033583492,,,,,,,,,,,,,,,,,,75,001,19,w,Psychologie,2023-01-26_11h17.47.789,00_bat_bachelor,2022.2.4,59.969382869681596,
,,,,,,,,,,,,1,0,1,0,149,0,149,0,,,,,,,149,,,0.2,2067.165750544111,X,None,nogo,l,0,0.2743629195028916,,,,,,,,,,,,,,,,,,75,001,19,w,Psychologie,2023-01-26_11h17.47.789,00_bat_bachelor,2022.2.4,59.969382869681596,
,,,,,,,,,,,,1,0,1,0,150,0,150,0,,,,,,,150,,,0.2,2067.7494023021427,Y,d,go,d,1,0.34451235487358645,,,,,,,,,,,,,,,,,,75,001,19,w,Psychologie,2023-01-26_11h17.47.789,00_bat_bachelor,2022.2.4,59.969382869681596,
,,,,,,,,,,,,1,0,1,0,151,0,151,0,,,,,,,151,,,0.2,2068.4004122187616,X,l,go,l,1,0.3186408020555973,,,,,,,,,,,,,,,,,,75,001,19,w,Psychologie,2023-01-26_11h17.47.789,00_bat_bachelor,2022.2.4,59.969382869681596,
,,,,,,,,,,,,1,0,1,0,152,0,152,0,,,,,,,152,,,0.2,2069.0511530441,X,None,nogo,None,1,,2069.8517709359294,,,,,,,,,,,,,,,,,75,001,19,w,Psychologie,2023-01-26_11h17.47.789,00_bat_bachelor,2022.2.4,59.969382869681596,
,,,,,,,,,,,,1,0,1,0,153,0,153,0,,,,,,,153,,,0.2,2070.0519181361306,Y,d,go,d,1,0.15407716878689826,,,,,,,,,,,,,,,,,,75,001,19,w,Psychologie,2023-01-26_11h17.47.789,00_bat_bachelor,2022.2.4,59.969382869681596,
,,,,,,,,,,,,1,0,1,0,154,0,154,0,,,,,,,154,,,0.2,2070.5353952029836,X,l,go,l,1,0.2779348034528084,,,,,,,,,,,,,,,,,,75,001,19,w,Psychologie,2023-01-26_11h17.47.789,00_bat_bachelor,2022.2.4,59.969382869681596,
,,,,,,,,,,,,1,0,1,0,155,0,155,0,,,,,,,155,,,0.2,2071.136074379727,Y,d,go,d,1,0.3019687777850777,,,,,,,,,,,,,,,,,,75,001,19,w,Psychologie,2023-01-26_11h17.47.789,00_bat_bachelor,2022.2.4,59.969382869681596,
,,,,,,,,,,,,1,0,1,0,156,0,156,0,,,,,,,156,,,0.2,2071.769716513518,X,l,go,l,1,0.11653675051638857,,,,,,,,,,,,,,,,,,75,001,19,w,Psychologie,2023-01-26_11h17.47.789,00_bat_bachelor,2022.2.4,59.969382869681596,
,,,,,,,,,,,,1,0,1,0,157,0,157,0,,,,,,,157,,,0.2,2072.219848077337,X,None,nogo,d,0,0.2592739278334193,,,,,,,,,,,,,,,,,,75,001,19,w,Psychologie,2023-01-26_11h17.47.789,00_bat_bachelor,2022.2.4,59.969382869681596,
,,,,,,,,,,,,1,0,1,0,158,0,158,0,,,,,,,158,,,0.2,2072.7867579928716,Y,d,go,l,0,0.42903078079689294,,,,,,,,,,,,,,,,,,75,001,19,w,Psychologie,2023-01-26_11h17.47.789,00_bat_bachelor,2022.2.4,59.969382869681596,
,,,,,,,,,,,,1,0,1,0,159,0,159,0,,,,,,,159,,,0.2,2073.520808030269,X,l,go,d,0,0.5909195011481643,,,,,,,,,,,,,,,,,,75,001,19,w,Psychologie,2023-01-26_11h17.47.789,00_bat_bachelor,2022.2.4,59.969382869681596,
,,,,,,,,,,,,1,0,1,0,160,0,160,0,,,,,,,160,,,0.2,2074.421518673713,Y,d,go,l,0,0.4728684203000739,,,,,,,,,,,,,,,,,,75,001,19,w,Psychologie,2023-01-26_11h17.47.789,00_bat_bachelor,2022.2.4,59.969382869681596,
,,,,,,,,,,,,1,0,1,0,161,0,161,0,,,,,,,161,,,0.2,2075.2052929046913,X,l,go,d,0,0.47383423993596807,,,,,,,,,,,,,,,,,,75,001,19,w,Psychologie,2023-01-26_11h17.47.789,00_bat_bachelor,2022.2.4,59.969382869681596,
,,,,,,,,,,,,1,0,1,0,162,0,162,0,,,,,,,162,,,0.2,2075.988816953439,Y,d,go,None,0,,,,,,,,,,,,,,,,,,,75,001,19,w,Psychologie,2023-01-26_11h17.47.789,00_bat_bachelor,2022.2.4,59.969382869681596,
,,,,,,,,,,,,1,0,1,0,163,0,163,0,,,,,,,163,,,0.2,2076.9899684702395,X,l,go,None,0,,2077.790197997878,,,,,,,,,,,,,,,,,75,001,19,w,Psychologie,2023-01-26_11h17.47.789,00_bat_bachelor,2022.2.4,59.969382869681596,
,,,,,,,,,,,,1,0,1,0,164,0,164,0,,,,,,,164,,,0.2,2077.9907141682925,Y,d,go,None,0,,,,,,,,,,,,,,,,,,,75,001,19,w,Psychologie,2023-01-26_11h17.47.789,00_bat_bachelor,2022.2.4,59.969382869681596,
,,,,,,,,,,,,1,0,1,0,165,0,165,0,,,,,,,165,,,0.2,2078.99120774481,Y,None,nogo,l,0,0.3038199320435524,,,,,,,,,,,,,,,,,,75,001,19,w,Psychologie,2023-01-26_11h17.47.789,00_bat_bachelor,2022.2.4,59.969382869681596,
,,,,,,,,,,,,1,0,1,0,166,0,166,0,,,,,,,166,,,0.2,2079.6085885216016,X,l,go,None,0,,,,,,,,,,,,,,,,,,,75,001,19,w,Psychologie,2023-01-26_11h17.47.789,00_bat_bachelor,2022.2.4,59.969382869681596,
,,,,,,,,,,,,1,0,1,0,167,0,167,0,,,,,,,167,,,0.2,2080.609092764731,Y,d,go,d,1,0.3652726275031455,,,,,,,,,,,,,,,,,,75,001,19,w,Psychologie,2023-01-26_11h17.47.789,00_bat_bachelor,2022.2.4,59.969382869681596,
,,,,,,,,,,,,1,0,1,0,168,0,168,0,,,,,,,168,,,0.2,2081.2761977350456,Y,None,nogo,l,0,0.24185766006121412,,,,,,,,,,,,,,,,,,75,001,19,w,Psychologie,2023-01-26_11h17.47.789,00_bat_bachelor,2022.2.4,59.969382869681596,
,,,,,,,,,,,,1,0,1,0,169,0,169,0,,,,,,,169,,,0.2,2081.826589323522,X,l,go,None,0,,,,,,,,,,,,,,,,,,,75,001,19,w,Psychologie,2023-01-26_11h17.47.789,00_bat_bachelor,2022.2.4,59.969382869681596,
,,,,,,,,,,,,1,0,1,0,170,0,170,0,,,,,,,170,,,0.2,2082.827695749351,Y,d,go,None,0,,,,,,,,,,,,,,,,,,,75,001,19,w,Psychologie,2023-01-26_11h17.47.789,00_bat_bachelor,2022.2.4,59.969382869681596,
,,,,,,,,,,,,1,0,1,0,171,0,171,0,,,,,,,171,,,0.2,2083.828360477637,Y,None,nogo,l,0,0.41162081609945744,,,,,,,,,,,,,,,,,,75,001,19,w,Psychologie,2023-01-26_11h17.47.789,00_bat_bachelor,2022.2.4,59.969382869681596,
,,,,,,,,,,,,1,0,1,0,172,0,172,0,,,,,,,172,,,0.2,2084.5454223690904,X,l,go,None,0,,,,,,,,,,,,,,,,,,,75,001,19,w,Psychologie,2023-01-26_11h17.47.789,00_bat_bachelor,2022.2.4,59.969382869681596,
,,,,,,,,,,,,1,0,1,0,173,0,173,0,,,,,,,173,,,0.2,2085.5464269766235,Y,d,go,None,0,,2086.3470414744806,,,,,,,,,,,,,,,,,75,001,19,w,Psychologie,2023-01-26_11h17.47.789,00_bat_bachelor,2022.2.4,59.969382869681596,
,,,,,,,,,,,,1,0,1,0,174,0,174,0,,,,,,,174,,,0.2,2086.5468439469114,X,l,go,None,0,,,,,,,,,,,,,,,,,,,75,001,19,w,Psychologie,2023-01-26_11h17.47.789,00_bat_bachelor,2022.2.4,59.969382869681596,
,,,,,,,,,,,,1,0,1,0,175,0,175,0,,,,,,,175,,,0.2,2087.547888796951,X,None,nogo,None,1,,,,,,,,,,,,,,,,,,,75,001,19,w,Psychologie,2023-01-26_11h17.47.789,00_bat_bachelor,2022.2.4,59.969382869681596,
,,,,,,,,,,,,1,0,1,0,176,0,176,0,,,,,,,176,,,0.2,2088.5487295254134,Y,d,go,d,1,0.29891471279552206,,,,,,,,,,,,,,,,,,75,001,19,w,Psychologie,2023-01-26_11h17.47.789,00_bat_bachelor,2022.2.4,59.969382869681596,
,,,,,,,,,,,,1,0,1,0,177,0,177,0,,,,,,,177,,,0.2,2089.1491362169036,X,l,go,l,1,0.1936301959794946,,,,,,,,,,,,,,,,,,75,001,19,w,Psychologie,2023-01-26_11h17.47.789,00_bat_bachelor,2022.2.4,59.969382869681596,
,,,,,,,,,,,,1,0,1,0,178,0,178,0,,,,,,,178,,,0.2,2089.649195126083,Y,d,go,d,1,0.2056268195156008,,,,,,,,,,,,,,,,,,75,001,19,w,Psychologie,2023-01-26_11h17.47.789,00_bat_bachelor,2022.2.4,59.969382869681596,
,,,,,,,,,,,,1,0,1,0,179,0,179,0,,,,,,,179,,,0.2,2090.166678060603,Y,None,nogo,l,0,0.2653447245247662,,,,,,,,,,,,,,,,,,75,001,19,w,Psychologie,2023-01-26_11h17.47.789,00_bat_bachelor,2022.2.4,59.969382869681596,
,,,,,,,,,,,,1,0,1,0,180,0,180,0,,,,,,,180,,,0.2,2090.7337440975825,X,l,go,d,0,0.6254582180408761,,,,,,,,,,,,,,,,,,75,001,19,w,Psychologie,2023-01-26_11h17.47.789,00_bat_bachelor,2022.2.4,59.969382869681596,
,,,,,,,,,,,,1,0,1,0,181,0,181,0,,,,,,,181,,,0.2,2091.6678075168165,Y,d,go,None,0,,,,,,,,,,,,,,,,,,,75,001,19,w,Psychologie,2023-01-26_11h17.47.789,00_bat_bachelor,2022.2.4,59.969382869681596,
,,,,,,,,,,,,1,0,1,0,182,0,182,0,,,,,,,182,,,0.2,2092.66819927498,Y,None,nogo,l,0,0.21049034170573577,,,,,,,,,,,,,,,,,,75,001,19,w,Psychologie,2023-01-26_11h17.47.789,00_bat_bachelor,2022.2.4,59.969382869681596,
,,,,,,,,,,,,1,0,1,0,183,0,183,0,,,,,,,183,,,0.2,2093.185555663833,X,l,go,None,0,,,,,,,,,,,,,,,,,,,75,001,19,w,Psychologie,2023-01-26_11h17.47.789,00_bat_bachelor,2022.2.4,59.969382869681596,
,,,,,,,,,,,,1,0,1,0,184,0,184,0,,,,,,,184,,,0.2,2094.186376028636,Y,d,go,d,1,0.27720074175158516,,,,,,,,,,,,,,,,,,75,001,19,w,Psychologie,2023-01-26_11h17.47.789,00_bat_bachelor,2022.2.4,59.969382869681596,
,,,,,,,,,,,,1,0,1,0,185,0,185,0,,,,,,,185,,,0.2,2094.7698037863593,X,l,go,l,1,0.2209296296350658,,,,,,,,,,,,,,,,,,75,001,19,w,Psychologie,2023-01-26_11h17.47.789,00_bat_bachelor,2022.2.4,59.969382869681596,
,,,,,,,,,,,,1,0,1,0,186,0,186,0,,,,,,,186,,,0.2,2095.303674623545,Y,d,go,d,1,0.3263436011620797,,,,,,,,,,,,,,,,,,75,001,19,w,Psychologie,2023-01-26_11h17.47.789,00_bat_bachelor,2022.2.4,59.969382869681596,
,,,,,,,,,,,,1,0,1,0,187,0,187,0,,,,,,,187,,,0.2,2095.9550001769676,X,l,go,None,0,,2096.7556035232847,,,,,,,,,,,,,,,,,75,001,19,w,Psychologie,2023-01-26_11h17.47.789,00_bat_bachelor,2022.2.4,59.969382869681596,
,,,,,,,,,,,,1,0,1,0,188,0,188,0,,,,,,,188,,,0.2,2096.9557836932363,Y,d,go,None,0,,2097.7563778274343,,,,,,,,,,,,,,,,,75,001,19,w,Psychologie,2023-01-26_11h17.47.789,00_bat_bachelor,2022.2.4,59.969382869681596,
,,,,,,,,,,,,1,0,1,0,189,0,189,0,,,,,,,189,,,0.2,2097.956788785639,Y,None,nogo,l,0,0.2346964375465177,,,,,,,,,,,,,,,,,,75,001,19,w,Psychologie,2023-01-26_11h17.47.789,00_bat_bachelor,2022.2.4,59.969382869681596,
,,,,,,,,,,,,1,0,1,0,190,0,190,0,,,,,,,190,,,0.2,2098.506879282708,X,l,go,d,0,0.41869719000533223,,,,,,,,,,,,,,,,,,75,001,19,w,Psychologie,2023-01-26_11h17.47.789,00_bat_bachelor,2022.2.4,59.969382869681596,
,,,,,,,,,,,,1,0,1,0,191,0,191,0,,,,,,,191,,,0.2,2099.257543162501,Y,d,go,None,0,,2100.0579666297417,,,,,,,,,,,,,,,,,75,001,19,w,Psychologie,2023-01-26_11h17.47.789,00_bat_bachelor,2022.2.4,59.969382869681596,
,,,,,,,,,,,,1,0,1,0,192,0,192,0,,,,,,,192,,,0.2,2100.2583814667305,Y,None,nogo,None,1,,2101.0587297824095,,,,,,,,,,,,,,,,,75,001,19,w,Psychologie,2023-01-26_11h17.47.789,00_bat_bachelor,2022.2.4,59.969382869681596,
,,,,,,,,,,,,1,0,1,0,193,0,193,0,,,,,,,193,,,0.2,2101.2591305587557,X,l,go,l,1,0.40409983543213457,,,,,,,,,,,,,,,,,,75,001,19,w,Psychologie,2023-01-26_11h17.47.789,00_bat_bachelor,2022.2.4,59.969382869681596,
