loop_instruction.thisRepN,loop_instruction.thisTrialN,loop_instruction.thisN,loop_instruction.thisIndex,loop_rsi_practice.thisRepN,loop_rsi_practice.thisTrialN,loop_rsi_practice.thisN,loop_rsi_practice.thisIndex,loop_practice.thisRepN,loop_practice.thisTrialN,loop_practice.thisN,loop_practice.thisIndex,loop_exp.thisRepN,loop_exp.thisTrialN,loop_exp.thisN,loop_exp.thisIndex,loop_trials.thisRepN,loop_trials.thisTrialN,loop_trials.thisN,loop_trials.thisIndex,map_condition,map_x_key,map_y_key,key_resp_welcome.started,key_resp_welcome.keys,key_resp_welcome.rt,index,text_empty_rsi_practice.started,text_empty_rsi_practice.stopped,rsi,stimulus.started,stimulus,correct,trial_type,key_resp_trial.keys,key_resp_trial.corr,key_resp_trial.rt,stimulus.stopped,key_resp_instruction_rsi.started,key_resp_instruction_rsi.keys,key_resp_instruction_rsi.rt,key_resp_instruction_rsi.stopped,key_resp_instruction_final.started,key_resp_instruction_final.keys,key_resp_instruction_final.rt,key_resp_break.started,key_resp_break.keys,key_resp_break.rt,key_resp_break.stopped,key_resp_end_screen.started,image_end_screen.started,key_resp_end_screen.stopped,image_end_screen.stopped,key_resp_end_screen.keys,participant,session,Alter,Geschlecht (w/m/d/andere),Studiengang,date,expName,psychopyVersion,frameRate,
,,,,0,0,0,0,0,0,0,0,,,,,,,,,0,d,l,727.5357732296658,j,16.568537485323645,0,744.1343069451906,745.1546178118509,1,745.1546178118509,X,d,go,None,0,,,,,,,,,,,,,,,,,,,78,001,20,w,Psychologie 100%,2023-01-30_09h01.47.633,00_bat_bachelor,2022.2.4,59.85072807791082,
,,,,0,0,0,0,1,0,1,0,,,,,,,,,,,,,,,1,746.5671023208816,747.5681985675582,1,747.5681985675582,Y,l,go,l,1,0.5171530435899285,,,,,,,,,,,,,,,,,,78,001,20,w,Psychologie 100%,2023-01-30_09h01.47.633,00_bat_bachelor,2022.2.4,59.85072807791082,
,,,,0,0,0,0,2,0,2,0,,,,,,,,,,,,,,,2,748.7855322590343,749.7863986866374,1,749.7863986866374,X,d,go,d,1,0.2817291001273361,,,,,,,,,,,,,,,,,,78,001,20,w,Psychologie 100%,2023-01-30_09h01.47.633,00_bat_bachelor,2022.2.4,59.85072807791082,
,,,,0,0,0,0,3,0,3,0,,,,,,,,,,,,,,,3,750.7870711740942,751.7876937219636,1,751.7876937219636,Y,l,go,l,1,0.28050000445102796,,,,,,,,,,,,,,,,,,78,001,20,w,Psychologie 100%,2023-01-30_09h01.47.633,00_bat_bachelor,2022.2.4,59.85072807791082,
,,,,0,0,0,0,4,0,4,0,,,,,,,,,,,,,,,4,752.7884714219498,753.7892738493045,1,753.7892738493045,Y,None,nogo,l,0,0.37635492170636553,,,,,,,,,,,,,,,,,,78,001,20,w,Psychologie 100%,2023-01-30_09h01.47.633,00_bat_bachelor,2022.2.4,59.85072807791082,
,,,,0,0,0,0,5,0,5,0,,,,,,,,,,,,,,,5,755.290346338313,756.2913223420989,1,756.2913223420989,X,d,go,d,1,0.43424557049422674,,,,,,,,,,,,,,,,,,78,001,20,w,Psychologie 100%,2023-01-30_09h01.47.633,00_bat_bachelor,2022.2.4,59.85072807791082,
,,,,0,0,0,0,6,0,6,0,,,,,,,,,,,,,,,6,757.4422402608108,758.442742080939,1,758.442742080939,Y,l,go,l,1,0.4255240821199777,,,,,,,,,,,,,,,,,,78,001,20,w,Psychologie 100%,2023-01-30_09h01.47.633,00_bat_bachelor,2022.2.4,59.85072807791082,
,,,,0,0,0,0,7,0,7,0,,,,,,,,,,,,,,,7,759.5937705455343,760.5945986699586,1,760.5945986699586,Y,None,nogo,None,1,,761.3950391080306,,,,,,,,,,,,,,,,,78,001,20,w,Psychologie 100%,2023-01-30_09h01.47.633,00_bat_bachelor,2022.2.4,59.85072807791082,
,,,,0,0,0,0,8,0,8,0,,,,,,,,,,,,,,,8,761.9953148909184,762.996174045766,1,762.996174045766,X,d,go,d,1,0.41725011063306283,,,,,,,,,,,,,,,,,,78,001,20,w,Psychologie 100%,2023-01-30_09h01.47.633,00_bat_bachelor,2022.2.4,59.85072807791082,
,,,,0,0,0,0,9,0,9,0,,,,,,,,,,,,,,,9,764.1135679556575,765.1145046865637,1,765.1145046865637,Y,l,go,l,1,0.36362178140791457,,,,,,,,,,,,,,,,,,78,001,20,w,Psychologie 100%,2023-01-30_09h01.47.633,00_bat_bachelor,2022.2.4,59.85072807791082,
,,,,0,0,0,0,10,0,10,0,,,,,,,,,,,,,,,10,766.182058887986,767.1825888294355,1,767.1825888294355,X,d,go,d,1,0.4867160770464807,,,,,,,,,,,,,,,,,,78,001,20,w,Psychologie 100%,2023-01-30_09h01.47.633,00_bat_bachelor,2022.2.4,59.85072807791082,
,,,,0,0,0,0,11,0,11,0,,,,,,,,,,,,,,,11,768.383702336785,769.3842603995555,1,769.3842603995555,X,None,nogo,d,0,0.5253285904526592,,,,,,,,,,,,,,,,,,78,001,20,w,Psychologie 100%,2023-01-30_09h01.47.633,00_bat_bachelor,2022.2.4,59.85072807791082,
,,,,0,0,0,0,12,0,12,0,,,,,,,,,,,,,,,12,771.019148195484,772.0196194700392,1,772.0196194700392,Y,l,go,l,1,0.385404168927721,,,,,,,,,,,,,,,,,,78,001,20,w,Psychologie 100%,2023-01-30_09h01.47.633,00_bat_bachelor,2022.2.4,59.85072807791082,
,,,,0,0,0,0,13,0,13,0,,,,,,,,,,,,,,,13,773.137214107982,774.1379021106505,1,774.1379021106505,X,d,go,d,1,0.36397184337181443,,,,,,,,,,,,,,,,,,78,001,20,w,Psychologie 100%,2023-01-30_09h01.47.633,00_bat_bachelor,2022.2.4,59.85072807791082,
,,,,0,0,0,0,14,0,14,0,,,,,,,,,,,,,,,14,775.2053772814635,776.2058669803326,1,776.2058669803326,Y,l,go,l,1,0.42361134742816375,,,,,,,,,,,,,,,,,,78,001,20,w,Psychologie 100%,2023-01-30_09h01.47.633,00_bat_bachelor,2022.2.4,59.85072807791082,
,,,,1,0,1,0,0,0,0,0,,,,,,,,,,,,,,,0,808.7144696803672,808.9145523958397,0.2,808.9145523958397,X,d,go,d,1,0.6428897737201851,,777.3605061255995,j,31.3356905215536,,,,,,,,,,,,,,78,001,20,w,Psychologie 100%,2023-01-30_09h01.47.633,00_bat_bachelor,2022.2.4,59.85072807791082,
,,,,1,0,1,0,1,0,1,0,,,,,,,,,,,,,,,1,810.2656921820789,810.4660410804019,0.2,810.4660410804019,Y,l,go,l,1,0.3557167810494093,,,,,,,,,,,,,,,,,,78,001,20,w,Psychologie 100%,2023-01-30_09h01.47.633,00_bat_bachelor,2022.2.4,59.85072807791082,
,,,,1,0,1,0,2,0,2,0,,,,,,,,,,,,,,,2,811.5332903109442,811.7335999363876,0.2,811.7335999363876,X,d,go,d,1,0.3034159721249807,,,,,,,,,,,,,,,,,,78,001,20,w,Psychologie 100%,2023-01-30_09h01.47.633,00_bat_bachelor,2022.2.4,59.85072807791082,
,,,,1,0,1,0,3,0,3,0,,,,,,,,,,,,,,,3,812.7509352763551,812.9511988410137,0.2,812.9511988410137,X,None,nogo,None,1,,813.7518545526481,,,,,,,,,,,,,,,,,78,001,20,w,Psychologie 100%,2023-01-30_09h01.47.633,00_bat_bachelor,2022.2.4,59.85072807791082,
,,,,1,0,1,0,4,0,4,0,,,,,,,,,,,,,,,4,814.3522932452587,814.552422506366,0.2,814.552422506366,Y,l,go,l,1,0.31708293422718725,,,,,,,,,,,,,,,,,,78,001,20,w,Psychologie 100%,2023-01-30_09h01.47.633,00_bat_bachelor,2022.2.4,59.85072807791082,
,,,,1,0,1,0,5,0,5,0,,,,,,,,,,,,,,,5,815.570002695768,815.7701731691565,0.2,815.7701731691565,X,d,go,d,1,0.2830289839572515,,,,,,,,,,,,,,,,,,78,001,20,w,Psychologie 100%,2023-01-30_09h01.47.633,00_bat_bachelor,2022.2.4,59.85072807791082,
,,,,1,0,1,0,6,0,6,0,,,,,,,,,,,,,,,6,816.7539476516757,816.9544279444477,0.2,816.9544279444477,Y,l,go,l,1,0.4441510634611632,,,,,,,,,,,,,,,,,,78,001,20,w,Psychologie 100%,2023-01-30_09h01.47.633,00_bat_bachelor,2022.2.4,59.85072807791082,
,,,,1,0,1,0,7,0,7,0,,,,,,,,,,,,,,,7,818.1050311952725,818.3051463957194,0.2,818.3051463957194,Y,None,nogo,None,1,,819.1057545920179,,,,,,,,,,,,,,,,,78,001,20,w,Psychologie 100%,2023-01-30_09h01.47.633,00_bat_bachelor,2022.2.4,59.85072807791082,
,,,,1,0,1,0,8,0,8,0,,,,,,,,,,,,,,,8,819.7064027399864,819.9064030308965,0.2,819.9064030308965,X,d,go,d,1,0.2753285904526592,,,,,,,,,,,,,,,,,,78,001,20,w,Psychologie 100%,2023-01-30_09h01.47.633,00_bat_bachelor,2022.2.4,59.85072807791082,
,,,,1,0,1,0,9,0,9,0,,,,,,,,,,,,,,,9,820.8906740001902,821.0907004730201,0.2,821.0907004730201,Y,l,go,l,1,0.27536059057672446,,,,,,,,,,,,,,,,,,78,001,20,w,Psychologie 100%,2023-01-30_09h01.47.633,00_bat_bachelor,2022.2.4,59.85072807791082,
,,,,1,0,1,0,10,0,10,0,,,,,,,,,,,,,,,10,822.0747139867693,822.2749523392091,0.2,822.2749523392091,Y,None,nogo,None,1,,823.0756487782741,,,,,,,,,,,,,,,,,78,001,20,w,Psychologie 100%,2023-01-30_09h01.47.633,00_bat_bachelor,2022.2.4,59.85072807791082,
,,,,1,0,1,0,11,0,11,0,,,,,,,,,,,,,,,11,823.6760128039285,823.8763427930872,0.2,823.8763427930872,X,d,go,d,1,0.38538283551145014,,,,,,,,,,,,,,,,,,78,001,20,w,Psychologie 100%,2023-01-30_09h01.47.633,00_bat_bachelor,2022.2.4,59.85072807791082,
,,,,1,0,1,0,12,0,12,0,,,,,,,,,,,,,,,12,824.9768920315813,825.1772981422474,0.2,825.1772981422474,Y,l,go,l,1,0.31633093131029,,,,,,,,,,,,,,,,,,78,001,20,w,Psychologie 100%,2023-01-30_09h01.47.633,00_bat_bachelor,2022.2.4,59.85072807791082,
,,,,1,0,1,0,13,0,13,0,,,,,,,,,,,,,,,13,826.1946407549702,826.3948572891435,0.2,826.3948572891435,X,d,go,d,1,0.42718857342458705,,,,,,,,,,,,,,,,,,78,001,20,w,Psychologie 100%,2023-01-30_09h01.47.633,00_bat_bachelor,2022.2.4,59.85072807791082,
,,,,1,0,1,0,14,0,14,0,,,,,,,,,,,,,,,14,827.5288534452496,827.7291882829121,0.2,827.7291882829121,X,None,nogo,l,0,0.3245859936329225,,,,,,,,,,,,,,,,,,78,001,20,w,Psychologie 100%,2023-01-30_09h01.47.633,00_bat_bachelor,2022.2.4,59.85072807791082,
,,,,,,,,,,,,,,,,,,,,,,,,,,,,,,,,,,,,,,829.2083275959372,None,,829.2083275959372,829.2083275959372,space,6.464135625825406,,,,,,,,,,78,001,20,w,Psychologie 100%,2023-01-30_09h01.47.633,00_bat_bachelor,2022.2.4,59.85072807791082,
,,,,,,,,,,,,0,0,0,0,0,0,0,0,,,,,,,0,,,1,836.7029205446614,X,d,go,d,1,0.6308819695688044,,,,,,,,,,,,,,,,,,78,001,20,w,Psychologie 100%,2023-01-30_09h01.47.633,00_bat_bachelor,2022.2.4,59.85072807791082,
,,,,,,,,,,,,0,0,0,0,1,0,1,0,,,,,,,1,,,1,838.4368996340351,Y,l,go,l,1,0.4164069558474921,,,,,,,,,,,,,,,,,,78,001,20,w,Psychologie 100%,2023-01-30_09h01.47.633,00_bat_bachelor,2022.2.4,59.85072807791082,
,,,,,,,,,,,,0,0,0,0,2,0,2,0,,,,,,,2,,,1,839.9550272194996,X,d,go,d,1,0.4503042994493853,,,,,,,,,,,,,,,,,,78,001,20,w,Psychologie 100%,2023-01-30_09h01.47.633,00_bat_bachelor,2022.2.4,59.85072807791082,
,,,,,,,,,,,,0,0,0,0,3,0,3,0,,,,,,,3,,,1,841.5062342059992,Y,l,go,l,1,0.498693820475296,,,,,,,,,,,,,,,,,,78,001,20,w,Psychologie 100%,2023-01-30_09h01.47.633,00_bat_bachelor,2022.2.4,59.85072807791082,
,,,,,,,,,,,,0,0,0,0,4,0,4,0,,,,,,,4,,,1,843.1074559319503,X,d,go,d,1,0.37012217025824157,,,,,,,,,,,,,,,,,,78,001,20,w,Psychologie 100%,2023-01-30_09h01.47.633,00_bat_bachelor,2022.2.4,59.85072807791082,
,,,,,,,,,,,,0,0,0,0,5,0,5,0,,,,,,,5,,,1,844.5918684775505,X,None,nogo,d,0,0.39097170567436024,,,,,,,,,,,,,,,,,,78,001,20,w,Psychologie 100%,2023-01-30_09h01.47.633,00_bat_bachelor,2022.2.4,59.85072807791082,
,,,,,,,,,,,,0,0,0,0,6,0,6,0,,,,,,,6,,,1,846.0930151486649,Y,l,go,l,1,0.4875732924925842,,,,,,,,,,,,,,,,,,78,001,20,w,Psychologie 100%,2023-01-30_09h01.47.633,00_bat_bachelor,2022.2.4,59.85072807791082,
,,,,,,,,,,,,0,0,0,0,7,0,7,0,,,,,,,7,,,1,847.7106131805602,X,d,go,d,1,0.4552604398851372,,,,,,,,,,,,,,,,,,78,001,20,w,Psychologie 100%,2023-01-30_09h01.47.633,00_bat_bachelor,2022.2.4,59.85072807791082,
,,,,,,,,,,,,0,0,0,0,8,0,8,0,,,,,,,8,,,1,849.278908233341,X,None,nogo,None,1,,,,,,,,,,,,,,,,,,,78,001,20,w,Psychologie 100%,2023-01-30_09h01.47.633,00_bat_bachelor,2022.2.4,59.85072807791082,
,,,,,,,,,,,,0,0,0,0,9,0,9,0,,,,,,,9,,,1,851.0801782503885,Y,l,go,l,1,0.3009989930529855,,,,,,,,,,,,,,,,,,78,001,20,w,Psychologie 100%,2023-01-30_09h01.47.633,00_bat_bachelor,2022.2.4,59.85072807791082,
,,,,,,,,,,,,0,0,0,0,10,0,10,0,,,,,,,10,,,1,852.4980077498482,X,d,go,d,1,0.43565503050660936,,,,,,,,,,,,,,,,,,78,001,20,w,Psychologie 100%,2023-01-30_09h01.47.633,00_bat_bachelor,2022.2.4,59.85072807791082,
,,,,,,,,,,,,0,0,0,0,11,0,11,0,,,,,,,11,,,1,854.0491982514358,Y,l,go,l,1,0.4525927931744036,,,,,,,,,,,,,,,,,,78,001,20,w,Psychologie 100%,2023-01-30_09h01.47.633,00_bat_bachelor,2022.2.4,59.85072807791082,
,,,,,,,,,,,,0,0,0,0,12,0,12,0,,,,,,,12,,,1,855.6170171811576,Y,None,nogo,None,1,,,,,,,,,,,,,,,,,,,78,001,20,w,Psychologie 100%,2023-01-30_09h01.47.633,00_bat_bachelor,2022.2.4,59.85072807791082,
,,,,,,,,,,,,0,0,0,0,13,0,13,0,,,,,,,13,,,1,857.4183909561831,X,d,go,d,1,0.39575766363202547,,,,,,,,,,,,,,,,,,78,001,20,w,Psychologie 100%,2023-01-30_09h01.47.633,00_bat_bachelor,2022.2.4,59.85072807791082,
,,,,,,,,,,,,0,0,0,0,14,0,14,0,,,,,,,14,,,1,858.919566233469,Y,l,go,l,1,0.2708403306193077,,,,,,,,,,,,,,,,,,78,001,20,w,Psychologie 100%,2023-01-30_09h01.47.633,00_bat_bachelor,2022.2.4,59.85072807791082,
,,,,,,,,,,,,0,0,0,0,15,0,15,0,,,,,,,15,,,1,860.3039124515393,X,d,go,d,1,0.5821385077757668,,,,,,,,,,,,,,,,,,78,001,20,w,Psychologie 100%,2023-01-30_09h01.47.633,00_bat_bachelor,2022.2.4,59.85072807791082,
,,,,,,,,,,,,0,0,0,0,16,0,16,0,,,,,,,16,,,1,861.9884581370499,Y,l,go,l,1,0.30475949248773304,,,,,,,,,,,,,,,,,,78,001,20,w,Psychologie 100%,2023-01-30_09h01.47.633,00_bat_bachelor,2022.2.4,59.85072807791082,
,,,,,,,,,,,,0,0,0,0,17,0,17,0,,,,,,,17,,,1,863.4061281207395,Y,None,nogo,None,1,,,,,,,,,,,,,,,,,,,78,001,20,w,Psychologie 100%,2023-01-30_09h01.47.633,00_bat_bachelor,2022.2.4,59.85072807791082,
,,,,,,,,,,,,0,0,0,0,18,0,18,0,,,,,,,18,,,1,865.2076958359111,X,d,go,d,1,0.5258963502304823,,,,,,,,,,,,,,,,,,78,001,20,w,Psychologie 100%,2023-01-30_09h01.47.633,00_bat_bachelor,2022.2.4,59.85072807791082,
,,,,,,,,,,,,0,0,0,0,19,0,19,0,,,,,,,19,,,1,866.8419848416382,Y,l,go,l,1,0.25112146625531295,,,,,,,,,,,,,,,,,,78,001,20,w,Psychologie 100%,2023-01-30_09h01.47.633,00_bat_bachelor,2022.2.4,59.85072807791082,
,,,,,,,,,,,,0,0,0,0,20,0,20,0,,,,,,,20,,,1,868.2099954811946,X,d,go,d,1,0.35696139193748877,,,,,,,,,,,,,,,,,,78,001,20,w,Psychologie 100%,2023-01-30_09h01.47.633,00_bat_bachelor,2022.2.4,59.85072807791082,
,,,,,,,,,,,,0,0,0,0,21,0,21,0,,,,,,,21,,,1,869.677769901653,X,None,nogo,None,1,,870.4785085226998,,,,,,,,,,,,,,,,,78,001,20,w,Psychologie 100%,2023-01-30_09h01.47.633,00_bat_bachelor,2022.2.4,59.85072807791082,
,,,,,,,,,,,,0,0,0,0,22,0,22,0,,,,,,,22,,,1,871.4792585862152,Y,l,go,l,1,0.5105581089186444,,,,,,,,,,,,,,,,,,78,001,20,w,Psychologie 100%,2023-01-30_09h01.47.633,00_bat_bachelor,2022.2.4,59.85072807791082,
,,,,,,,,,,,,0,0,0,0,23,0,23,0,,,,,,,23,,,1,873.0971339525196,X,d,go,d,1,0.47759895077422243,,,,,,,,,,,,,,,,,,78,001,20,w,Psychologie 100%,2023-01-30_09h01.47.633,00_bat_bachelor,2022.2.4,59.85072807791082,
,,,,,,,,,,,,0,0,0,0,24,0,24,0,,,,,,,24,,,1,874.681371855018,X,None,nogo,None,1,,,,,,,,,,,,,,,,,,,78,001,20,w,Psychologie 100%,2023-01-30_09h01.47.633,00_bat_bachelor,2022.2.4,59.85072807791082,
,,,,,,,,,,,,0,0,0,0,25,0,25,0,,,,,,,25,,,1,876.4827005389596,Y,l,go,l,1,0.4512056362788144,,,,,,,,,,,,,,,,,,78,001,20,w,Psychologie 100%,2023-01-30_09h01.47.633,00_bat_bachelor,2022.2.4,59.85072807791082,
,,,,,,,,,,,,0,0,0,0,26,0,26,0,,,,,,,26,,,1,878.0509320763425,X,d,go,d,1,0.4510189688882065,,,,,,,,,,,,,,,,,,78,001,20,w,Psychologie 100%,2023-01-30_09h01.47.633,00_bat_bachelor,2022.2.4,59.85072807791082,
,,,,,,,,,,,,0,0,0,0,27,0,27,0,,,,,,,27,,,1,879.6187597333711,X,None,nogo,None,1,,,,,,,,,,,,,,,,,,,78,001,20,w,Psychologie 100%,2023-01-30_09h01.47.633,00_bat_bachelor,2022.2.4,59.85072807791082,
,,,,,,,,,,,,0,0,0,0,28,0,28,0,,,,,,,28,,,1,881.4200816294075,Y,l,go,l,1,0.25035103902462197,,,,,,,,,,,,,,,,,,78,001,20,w,Psychologie 100%,2023-01-30_09h01.47.633,00_bat_bachelor,2022.2.4,59.85072807791082,
,,,,,,,,,,,,0,0,0,0,29,0,29,0,,,,,,,29,,,1,882.7711496577925,X,d,go,d,1,0.4507886649645343,,,,,,,,,,,,,,,,,,78,001,20,w,Psychologie 100%,2023-01-30_09h01.47.633,00_bat_bachelor,2022.2.4,59.85072807791082,
,,,,,,,,,,,,0,0,0,0,30,0,30,0,,,,,,,30,,,1,884.322113249409,X,None,nogo,None,1,,,,,,,,,,,,,,,,,,,78,001,20,w,Psychologie 100%,2023-01-30_09h01.47.633,00_bat_bachelor,2022.2.4,59.85072807791082,
,,,,,,,,,,,,0,0,0,0,31,0,31,0,,,,,,,31,,,1,886.1237827831575,Y,l,go,l,1,0.26593703887340325,,,,,,,,,,,,,,,,,,78,001,20,w,Psychologie 100%,2023-01-30_09h01.47.633,00_bat_bachelor,2022.2.4,59.85072807791082,
,,,,,,,,,,,,0,0,0,0,32,0,32,0,,,,,,,32,,,1,887.4915175428558,X,d,go,d,1,0.3546520496466883,,,,,,,,,,,,,,,,,,78,001,20,w,Psychologie 100%,2023-01-30_09h01.47.633,00_bat_bachelor,2022.2.4,59.85072807791082,
,,,,,,,,,,,,0,0,0,0,33,0,33,0,,,,,,,33,,,1,888.9591979023434,Y,l,go,l,1,0.37499103762809227,,,,,,,,,,,,,,,,,,78,001,20,w,Psychologie 100%,2023-01-30_09h01.47.633,00_bat_bachelor,2022.2.4,59.85072807791082,
,,,,,,,,,,,,0,0,0,0,34,0,34,0,,,,,,,34,,,1,890.4438426912687,Y,None,nogo,None,1,,,,,,,,,,,,,,,,,,,78,001,20,w,Psychologie 100%,2023-01-30_09h01.47.633,00_bat_bachelor,2022.2.4,59.85072807791082,
,,,,,,,,,,,,0,0,0,0,35,0,35,0,,,,,,,35,,,1,892.2448853134946,X,d,go,d,1,0.28867118766027033,,,,,,,,,,,,,,,,,,78,001,20,w,Psychologie 100%,2023-01-30_09h01.47.633,00_bat_bachelor,2022.2.4,59.85072807791082,
,,,,,,,,,,,,0,0,0,0,36,0,36,0,,,,,,,36,,,1,893.6461595972252,Y,l,go,l,1,0.32715473086921065,,,,,,,,,,,,,,,,,,78,001,20,w,Psychologie 100%,2023-01-30_09h01.47.633,00_bat_bachelor,2022.2.4,59.85072807791082,
,,,,,,,,,,,,0,0,0,0,37,0,37,0,,,,,,,37,,,1,895.0805898883488,Y,None,nogo,None,1,,,,,,,,,,,,,,,,,,,78,001,20,w,Psychologie 100%,2023-01-30_09h01.47.633,00_bat_bachelor,2022.2.4,59.85072807791082,
,,,,,,,,,,,,0,0,0,0,38,0,38,0,,,,,,,38,,,1,896.8820077847575,X,d,go,d,1,0.26055374526538344,,,,,,,,,,,,,,,,,,78,001,20,w,Psychologie 100%,2023-01-30_09h01.47.633,00_bat_bachelor,2022.2.4,59.85072807791082,
,,,,,,,,,,,,0,0,0,0,39,0,39,0,,,,,,,39,,,1,898.249650907737,Y,l,go,l,1,0.2675729240064584,,,,,,,,,,,,,,,,,,78,001,20,w,Psychologie 100%,2023-01-30_09h01.47.633,00_bat_bachelor,2022.2.4,59.85072807791082,
,,,,,,,,,,,,0,0,0,0,40,0,40,0,,,,,,,40,,,1,899.6341260960043,X,d,go,d,1,0.2604718055537205,,,,,,,,,,,,,,,,,,78,001,20,w,Psychologie 100%,2023-01-30_09h01.47.633,00_bat_bachelor,2022.2.4,59.85072807791082,
,,,,,,,,,,,,0,0,0,0,41,0,41,0,,,,,,,41,,,1,901.0018196434218,Y,l,go,l,1,0.3962677262164789,,,,,,,,,,,,,,,,,,78,001,20,w,Psychologie 100%,2023-01-30_09h01.47.633,00_bat_bachelor,2022.2.4,59.85072807791082,
,,,,,,,,,,,,0,0,0,0,42,0,42,0,,,,,,,42,,,1,902.5029687387879,Y,None,nogo,None,1,,,,,,,,,,,,,,,,,,,78,001,20,w,Psychologie 100%,2023-01-30_09h01.47.633,00_bat_bachelor,2022.2.4,59.85072807791082,
,,,,,,,,,,,,0,0,0,0,43,0,43,0,,,,,,,43,,,1,904.3043653017806,X,d,go,d,1,0.23028211269672738,,,,,,,,,,,,,,,,,,78,001,20,w,Psychologie 100%,2023-01-30_09h01.47.633,00_bat_bachelor,2022.2.4,59.85072807791082,
,,,,,,,,,,,,0,0,0,0,44,0,44,0,,,,,,,44,,,1,905.6386899924945,Y,l,go,l,1,0.23847462932224062,,,,,,,,,,,,,,,,,,78,001,20,w,Psychologie 100%,2023-01-30_09h01.47.633,00_bat_bachelor,2022.2.4,59.85072807791082,
,,,,,,,,,,,,0,0,0,0,45,0,45,0,,,,,,,45,,,1,906.9897551117775,Y,None,nogo,None,1,,,,,,,,,,,,,,,,,,,78,001,20,w,Psychologie 100%,2023-01-30_09h01.47.633,00_bat_bachelor,2022.2.4,59.85072807791082,
,,,,,,,,,,,,0,0,0,0,46,0,46,0,,,,,,,46,,,1,908.7911332504563,X,d,go,d,1,0.4321233804445228,,,,,,,,,,,,,,,,,,78,001,20,w,Psychologie 100%,2023-01-30_09h01.47.633,00_bat_bachelor,2022.2.4,59.85072807791082,
,,,,,,,,,,,,0,0,0,0,47,0,47,0,,,,,,,47,,,1,910.3256730207924,Y,l,go,l,1,0.2565614873559525,,,,,,,,,,,,,,,,,,78,001,20,w,Psychologie 100%,2023-01-30_09h01.47.633,00_bat_bachelor,2022.2.4,59.85072807791082,
,,,,,,,,,,,,0,0,0,0,48,0,48,0,,,,,,,48,,,1,911.6930877792496,Y,None,nogo,None,1,,,,,,,,,,,,,,,,,,,78,001,20,w,Psychologie 100%,2023-01-30_09h01.47.633,00_bat_bachelor,2022.2.4,59.85072807791082,
,,,,,,,,,,,,0,0,0,0,49,0,49,0,,,,,,,49,,,1,913.4944887058956,X,d,go,d,1,0.28693251424977007,,,,,,,,,,,,,,,,,,78,001,20,w,Psychologie 100%,2023-01-30_09h01.47.633,00_bat_bachelor,2022.2.4,59.85072807791082,
,,,,,,,,,,,,0,0,0,0,50,0,50,0,,,,,,,50,,,1,914.8958202019693,Y,l,go,l,1,0.3904354611703411,,,,,,,,,,,,,,,,,,78,001,20,w,Psychologie 100%,2023-01-30_09h01.47.633,00_bat_bachelor,2022.2.4,59.85072807791082,
,,,,,,,,,,,,0,0,0,0,51,0,51,0,,,,,,,51,,,1,916.3969600851784,Y,None,nogo,None,1,,,,,,,,,,,,,,,,,,,78,001,20,w,Psychologie 100%,2023-01-30_09h01.47.633,00_bat_bachelor,2022.2.4,59.85072807791082,
,,,,,,,,,,,,0,0,0,0,52,0,52,0,,,,,,,52,,,1,918.1983925270982,X,d,go,d,1,0.3839399208239911,,,,,,,,,,,,,,,,,,78,001,20,w,Psychologie 100%,2023-01-30_09h01.47.633,00_bat_bachelor,2022.2.4,59.85072807791082,
,,,,,,,,,,,,0,0,0,0,53,0,53,0,,,,,,,53,,,1,919.6826436175269,Y,l,go,l,1,0.2915642897911539,,,,,,,,,,,,,,,,,,78,001,20,w,Psychologie 100%,2023-01-30_09h01.47.633,00_bat_bachelor,2022.2.4,59.85072807791082,
,,,,,,,,,,,,0,0,0,0,54,0,54,0,,,,,,,54,,,1,921.0839416589253,X,d,go,d,1,0.3789760227820125,,,,,,,,,,,,,,,,,,78,001,20,w,Psychologie 100%,2023-01-30_09h01.47.633,00_bat_bachelor,2022.2.4,59.85072807791082,
,,,,,,,,,,,,0,0,0,0,55,0,55,0,,,,,,,55,,,1,922.5683813561458,Y,l,go,l,1,0.3820363982889603,,,,,,,,,,,,,,,,,,78,001,20,w,Psychologie 100%,2023-01-30_09h01.47.633,00_bat_bachelor,2022.2.4,59.85072807791082,
,,,,,,,,,,,,0,0,0,0,56,0,56,0,,,,,,,56,,,1,924.052822992768,Y,None,nogo,None,1,,924.8534433103256,,,,,,,,,,,,,,,,,78,001,20,w,Psychologie 100%,2023-01-30_09h01.47.633,00_bat_bachelor,2022.2.4,59.85072807791082,
,,,,,,,,,,,,0,0,0,0,57,0,57,0,,,,,,,57,,,1,925.8538520391836,X,d,go,d,1,0.2629731485891398,,,,,,,,,,,,,,,,,,78,001,20,w,Psychologie 100%,2023-01-30_09h01.47.633,00_bat_bachelor,2022.2.4,59.85072807791082,
,,,,,,,,,,,,0,0,0,0,58,0,58,0,,,,,,,58,,,1,927.2217865572328,Y,l,go,l,1,0.24100118457670305,,,,,,,,,,,,,,,,,,78,001,20,w,Psychologie 100%,2023-01-30_09h01.47.633,00_bat_bachelor,2022.2.4,59.85072807791082,
,,,,,,,,,,,,0,0,0,0,59,0,59,0,,,,,,,59,,,1,928.5729641618003,X,d,go,d,1,0.2968220071544465,,,,,,,,,,,,,,,,,,78,001,20,w,Psychologie 100%,2023-01-30_09h01.47.633,00_bat_bachelor,2022.2.4,59.85072807791082,
,,,,,,,,,,,,0,0,0,0,60,0,60,0,,,,,,,60,,,1,929.9739615959724,Y,l,go,l,1,0.22464621204824198,,,,,,,,,,,,,,,,,,78,001,20,w,Psychologie 100%,2023-01-30_09h01.47.633,00_bat_bachelor,2022.2.4,59.85072807791082,
,,,,,,,,,,,,0,0,0,0,61,0,61,0,,,,,,,61,,,1,931.30829113519,Y,None,nogo,None,1,,,,,,,,,,,,,,,,,,,78,001,20,w,Psychologie 100%,2023-01-30_09h01.47.633,00_bat_bachelor,2022.2.4,59.85072807791082,
,,,,,,,,,,,,0,0,0,0,62,0,62,0,,,,,,,62,,,1,933.1095175157044,X,d,go,d,1,0.22415117982529864,,,,,,,,,,,,,,,,,,78,001,20,w,Psychologie 100%,2023-01-30_09h01.47.633,00_bat_bachelor,2022.2.4,59.85072807791082,
,,,,,,,,,,,,0,0,0,0,63,0,63,0,,,,,,,63,,,1,934.4441142074733,Y,l,go,l,1,0.2493406108627596,,,,,,,,,,,,,,,,,,78,001,20,w,Psychologie 100%,2023-01-30_09h01.47.633,00_bat_bachelor,2022.2.4,59.85072807791082,
,,,,,,,,,,,,0,0,0,0,64,0,64,0,,,,,,,64,,,1,935.7947992040696,X,d,go,d,1,0.4346814509727892,,,,,,,,,,,,,,,,,,78,001,20,w,Psychologie 100%,2023-01-30_09h01.47.633,00_bat_bachelor,2022.2.4,59.85072807791082,
,,,,,,,,,,,,0,0,0,0,65,0,65,0,,,,,,,65,,,1,937.3463611010369,Y,l,go,l,1,0.27614071481468727,,,,,,,,,,,,,,,,,,78,001,20,w,Psychologie 100%,2023-01-30_09h01.47.633,00_bat_bachelor,2022.2.4,59.85072807791082,
,,,,,,,,,,,,0,0,0,0,66,0,66,0,,,,,,,66,,,1,938.7303805299608,X,d,go,d,1,0.28341928850124987,,,,,,,,,,,,,,,,,,78,001,20,w,Psychologie 100%,2023-01-30_09h01.47.633,00_bat_bachelor,2022.2.4,59.85072807791082,
,,,,,,,,,,,,0,0,0,0,67,0,67,0,,,,,,,67,,,1,940.1149827490241,Y,l,go,l,1,0.27521659001820353,,,,,,,,,,,,,,,,,,78,001,20,w,Psychologie 100%,2023-01-30_09h01.47.633,00_bat_bachelor,2022.2.4,59.85072807791082,
,,,,,,,,,,,,0,0,0,0,68,0,68,0,,,,,,,68,,,1,941.4995432709558,Y,None,nogo,None,1,,,,,,,,,,,,,,,,,,,78,001,20,w,Psychologie 100%,2023-01-30_09h01.47.633,00_bat_bachelor,2022.2.4,59.85072807791082,
,,,,,,,,,,,,0,0,0,0,69,0,69,0,,,,,,,69,,,1,943.3009054095725,X,d,go,d,1,0.4653419335348872,,,,,,,,,,,,,,,,,,78,001,20,w,Psychologie 100%,2023-01-30_09h01.47.633,00_bat_bachelor,2022.2.4,59.85072807791082,
,,,,,,,,,,,,0,0,0,0,70,0,70,0,,,,,,,70,,,1,944.8687878546924,Y,l,go,l,1,0.27324567328253124,,,,,,,,,,,,,,,,,,78,001,20,w,Psychologie 100%,2023-01-30_09h01.47.633,00_bat_bachelor,2022.2.4,59.85072807791082,
,,,,,,,,,,,,0,0,0,0,71,0,71,0,,,,,,,71,,,1,946.2538036511172,X,d,go,d,1,0.2312847832525904,,,,,,,,,,,,,,,,,,78,001,20,w,Psychologie 100%,2023-01-30_09h01.47.633,00_bat_bachelor,2022.2.4,59.85072807791082,
,,,,,,,,,,,,0,0,0,0,72,0,72,0,,,,,,,72,,,1,947.60433785925,X,None,nogo,l,0,0.24106227572258376,,,,,,,,,,,,,,,,,,78,001,20,w,Psychologie 100%,2023-01-30_09h01.47.633,00_bat_bachelor,2022.2.4,59.85072807791082,
,,,,,,,,,,,,0,0,0,0,73,0,73,0,,,,,,,73,,,1,948.9553738875107,Y,l,go,l,1,0.3617463801944041,,,,,,,,,,,,,,,,,,78,001,20,w,Psychologie 100%,2023-01-30_09h01.47.633,00_bat_bachelor,2022.2.4,59.85072807791082,
,,,,,,,,,,,,0,0,0,0,74,0,74,0,,,,,,,74,,,1,950.4233994604584,X,d,go,d,1,0.3184148181811679,,,,,,,,,,,,,,,,,,78,001,20,w,Psychologie 100%,2023-01-30_09h01.47.633,00_bat_bachelor,2022.2.4,59.85072807791082,
,,,,,,,,,,,,0,0,0,0,75,0,75,0,,,,,,,75,,,1,951.8579010245859,X,None,nogo,l,0,0.22752428381784284,,,,,,,,,,,,,,,,,,78,001,20,w,Psychologie 100%,2023-01-30_09h01.47.633,00_bat_bachelor,2022.2.4,59.85072807791082,
,,,,,,,,,,,,0,0,0,0,76,0,76,0,,,,,,,76,,,1,953.208880325354,Y,l,go,l,1,0.2849717793716309,,,,,,,,,,,,,,,,,,78,001,20,w,Psychologie 100%,2023-01-30_09h01.47.633,00_bat_bachelor,2022.2.4,59.85072807791082,
,,,,,,,,,,,,0,0,0,0,77,0,77,0,,,,,,,77,,,1,954.6095533946315,X,d,go,d,1,0.40447575805376346,,,,,,,,,,,,,,,,,,78,001,20,w,Psychologie 100%,2023-01-30_09h01.47.633,00_bat_bachelor,2022.2.4,59.85072807791082,
,,,,,,,,,,,,0,0,0,0,78,0,78,0,,,,,,,78,,,1,956.1276848588988,Y,l,go,l,1,0.3421007282355504,,,,,,,,,,,,,,,,,,78,001,20,w,Psychologie 100%,2023-01-30_09h01.47.633,00_bat_bachelor,2022.2.4,59.85072807791082,
,,,,,,,,,,,,0,0,0,0,79,0,79,0,,,,,,,79,,,1,957.5955063098426,X,d,go,d,1,0.4274368168117917,,,,,,,,,,,,,,,,,,78,001,20,w,Psychologie 100%,2023-01-30_09h01.47.633,00_bat_bachelor,2022.2.4,59.85072807791082,
,,,,,,,,,,,,0,0,0,0,80,0,80,0,,,,,,,80,,,1,959.1298521400325,X,None,nogo,d,0,0.4436759101027974,,,,,,,,,,,,,,,,,,78,001,20,w,Psychologie 100%,2023-01-30_09h01.47.633,00_bat_bachelor,2022.2.4,59.85072807791082,
,,,,,,,,,,,,0,0,0,0,81,0,81,0,,,,,,,81,,,1,960.680543730594,Y,l,go,None,0,,,,,,,,,,,,,,,,,,,78,001,20,w,Psychologie 100%,2023-01-30_09h01.47.633,00_bat_bachelor,2022.2.4,59.85072807791082,
,,,,,,,,,,,,0,0,0,0,82,0,82,0,,,,,,,82,,,1,962.4822646584811,X,d,go,d,1,0.5322847386461262,,,,,,,,,,,,,,,,,,78,001,20,w,Psychologie 100%,2023-01-30_09h01.47.633,00_bat_bachelor,2022.2.4,59.85072807791082,
,,,,,,,,,,,,0,0,0,0,83,0,83,0,,,,,,,83,,,1,964.1167214224346,X,None,nogo,None,1,,,,,,,,,,,,,,,,,,,78,001,20,w,Psychologie 100%,2023-01-30_09h01.47.633,00_bat_bachelor,2022.2.4,59.85072807791082,
,,,,,,,,,,,,0,0,0,0,84,0,84,0,,,,,,,84,,,1,965.9181955614857,Y,l,go,l,1,0.4085911679559331,,,,,,,,,,,,,,,,,,78,001,20,w,Psychologie 100%,2023-01-30_09h01.47.633,00_bat_bachelor,2022.2.4,59.85072807791082,
,,,,,,,,,,,,0,0,0,0,85,0,85,0,,,,,,,85,,,1,967.4359648425303,X,d,go,d,1,0.4110159046337003,,,,,,,,,,,,,,,,,,78,001,20,w,Psychologie 100%,2023-01-30_09h01.47.633,00_bat_bachelor,2022.2.4,59.85072807791082,
,,,,,,,,,,,,0,0,0,0,86,0,86,0,,,,,,,86,,,1,968.9535571531914,X,None,nogo,None,1,,969.7545018356435,,,,,,,,,,,,,,,,,78,001,20,w,Psychologie 100%,2023-01-30_09h01.47.633,00_bat_bachelor,2022.2.4,59.85072807791082,
,,,,,,,,,,,,0,0,0,0,87,0,87,0,,,,,,,87,,,1,970.754925594863,X,None,nogo,None,1,,,,,,,,,,,,,,,,,,,78,001,20,w,Psychologie 100%,2023-01-30_09h01.47.633,00_bat_bachelor,2022.2.4,59.85072807791082,
,,,,,,,,,,,,0,0,0,0,88,0,88,0,,,,,,,88,,,1,972.5564108854725,Y,l,go,l,1,0.3138877703185017,,,,,,,,,,,,,,,,,,78,001,20,w,Psychologie 100%,2023-01-30_09h01.47.633,00_bat_bachelor,2022.2.4,59.85072807791082,
,,,,,,,,,,,,0,0,0,0,89,0,89,0,,,,,,,89,,,1,973.9740643842498,X,d,go,d,1,0.4155778617226815,,,,,,,,,,,,,,,,,,78,001,20,w,Psychologie 100%,2023-01-30_09h01.47.633,00_bat_bachelor,2022.2.4,59.85072807791082,
,,,,,,,,,,,,0,0,0,0,90,0,90,0,,,,,,,90,,,1,975.4922002121706,Y,l,go,l,1,0.401016350696068,,,,,,,,,,,,,,,,,,78,001,20,w,Psychologie 100%,2023-01-30_09h01.47.633,00_bat_bachelor,2022.2.4,59.85072807791082,
,,,,,,,,,,,,0,0,0,0,91,0,91,0,,,,,,,91,,,1,977.0097164013242,Y,None,nogo,None,1,,977.8104399920097,,,,,,,,,,,,,,,,,78,001,20,w,Psychologie 100%,2023-01-30_09h01.47.633,00_bat_bachelor,2022.2.4,59.85072807791082,
,,,,,,,,,,,,0,0,0,0,92,0,92,0,,,,,,,92,,,1,978.8113999957333,X,d,go,d,1,0.2822590415768218,,,,,,,,,,,,,,,,,,78,001,20,w,Psychologie 100%,2023-01-30_09h01.47.633,00_bat_bachelor,2022.2.4,59.85072807791082,
,,,,,,,,,,,,0,0,0,0,93,0,93,0,,,,,,,93,,,1,980.19586112334,Y,l,go,l,1,0.2746982849774895,,,,,,,,,,,,,,,,,,78,001,20,w,Psychologie 100%,2023-01-30_09h01.47.633,00_bat_bachelor,2022.2.4,59.85072807791082,
,,,,,,,,,,,,0,0,0,0,94,0,94,0,,,,,,,94,,,1,981.5803178872937,X,d,go,d,1,0.42615099364240905,,,,,,,,,,,,,,,,,,78,001,20,w,Psychologie 100%,2023-01-30_09h01.47.633,00_bat_bachelor,2022.2.4,59.85072807791082,
,,,,,,,,,,,,0,0,0,0,95,0,95,0,,,,,,,95,,,1,983.1152668713381,X,None,nogo,l,0,0.21828255100137994,,,,,,,,,,,,,,,,,,78,001,20,w,Psychologie 100%,2023-01-30_09h01.47.633,00_bat_bachelor,2022.2.4,59.85072807791082,
,,,,,,,,,,,,0,0,0,0,96,0,96,0,,,,,,,96,,,1,984.4663135663071,Y,l,go,l,1,0.22663749249920784,,,,,,,,,,,,,,,,,,78,001,20,w,Psychologie 100%,2023-01-30_09h01.47.633,00_bat_bachelor,2022.2.4,59.85072807791082,
,,,,,,,,,,,,0,0,0,0,97,0,97,0,,,,,,,97,,,1,985.8340294168414,X,d,go,d,1,0.6037191975434553,,,,,,,,,,,,,,,,,,78,001,20,w,Psychologie 100%,2023-01-30_09h01.47.633,00_bat_bachelor,2022.2.4,59.85072807791082,
,,,,,,,,,,,,0,0,0,0,98,0,98,0,,,,,,,98,,,1,987.5684725080147,Y,l,go,l,1,0.42159824871066576,,,,,,,,,,,,,,,,,,78,001,20,w,Psychologie 100%,2023-01-30_09h01.47.633,00_bat_bachelor,2022.2.4,59.85072807791082,
,,,,,,,,,,,,0,0,0,0,99,0,99,0,,,,,,,99,,,1,989.1029856115805,X,d,go,d,1,0.5339855937282891,,,,,,,,,,,,,,,,,,78,001,20,w,Psychologie 100%,2023-01-30_09h01.47.633,00_bat_bachelor,2022.2.4,59.85072807791082,
,,,,,,,,,,,,0,0,0,0,100,0,100,0,,,,,,,100,,,1,990.7544038958696,X,None,nogo,None,1,,991.5547279698541,,,,,,,,,,,,,,,,,78,001,20,w,Psychologie 100%,2023-01-30_09h01.47.633,00_bat_bachelor,2022.2.4,59.85072807791082,
,,,,,,,,,,,,0,0,0,0,101,0,101,0,,,,,,,101,,,1,992.5557359737637,Y,l,go,l,1,0.39426480935674135,,,,,,,,,,,,,,,,,,78,001,20,w,Psychologie 100%,2023-01-30_09h01.47.633,00_bat_bachelor,2022.2.4,59.85072807791082,
,,,,,,,,,,,,0,0,0,0,102,0,102,0,,,,,,,102,,,1,994.0568375537943,X,d,go,d,1,0.5561408311788227,,,,,,,,,,,,,,,,,,78,001,20,w,Psychologie 100%,2023-01-30_09h01.47.633,00_bat_bachelor,2022.2.4,59.85072807791082,
,,,,,,,,,,,,0,0,0,0,103,0,103,0,,,,,,,103,,,1,995.7411732990964,X,None,nogo,None,1,,,,,,,,,,,,,,,,,,,78,001,20,w,Psychologie 100%,2023-01-30_09h01.47.633,00_bat_bachelor,2022.2.4,59.85072807791082,
,,,,,,,,,,,,0,0,0,0,104,0,104,0,,,,,,,104,,,1,997.5426964080347,Y,l,go,l,1,0.3994076171835559,,,,,,,,,,,,,,,,,,78,001,20,w,Psychologie 100%,2023-01-30_09h01.47.633,00_bat_bachelor,2022.2.4,59.85072807791082,
,,,,,,,,,,,,0,0,0,0,105,0,105,0,,,,,,,105,,,1,999.0436767754735,X,d,go,d,1,0.6265498315532341,,,,,,,,,,,,,,,,,,78,001,20,w,Psychologie 100%,2023-01-30_09h01.47.633,00_bat_bachelor,2022.2.4,59.85072807791082,
,,,,,,,,,,,,0,0,0,0,106,0,106,0,,,,,,,106,,,1,1000.7783492008697,X,None,nogo,None,1,,1001.5791062462303,,,,,,,,,,,,,,,,,78,001,20,w,Psychologie 100%,2023-01-30_09h01.47.633,00_bat_bachelor,2022.2.4,59.85072807791082,
,,,,,,,,,,,,0,0,0,0,107,0,107,0,,,,,,,107,,,1,1002.5799372797568,Y,l,go,l,1,0.4181747202800352,,,,,,,,,,,,,,,,,,78,001,20,w,Psychologie 100%,2023-01-30_09h01.47.633,00_bat_bachelor,2022.2.4,59.85072807791082,
,,,,,,,,,,,,0,0,0,0,108,0,108,0,,,,,,,108,,,1,1004.114254503775,X,d,go,d,1,0.5479221326337438,,,,,,,,,,,,,,,,,,78,001,20,w,Psychologie 100%,2023-01-30_09h01.47.633,00_bat_bachelor,2022.2.4,59.85072807791082,
,,,,,,,,,,,,0,0,0,0,109,0,109,0,,,,,,,109,,,1,1005.7654807873195,Y,l,go,l,1,0.3687771953440233,,,,,,,,,,,,,,,,,,78,001,20,w,Psychologie 100%,2023-01-30_09h01.47.633,00_bat_bachelor,2022.2.4,59.85072807791082,
,,,,,,,,,,,,0,0,0,0,110,0,110,0,,,,,,,110,,,1,1007.2498933329197,X,d,go,d,1,0.40458921303923034,,,,,,,,,,,,,,,,,,78,001,20,w,Psychologie 100%,2023-01-30_09h01.47.633,00_bat_bachelor,2022.2.4,59.85072807791082,
,,,,,,,,,,,,0,0,0,0,111,0,111,0,,,,,,,111,,,1,1008.767791099311,Y,l,go,l,1,0.2796296980449142,,,,,,,,,,,,,,,,,,78,001,20,w,Psychologie 100%,2023-01-30_09h01.47.633,00_bat_bachelor,2022.2.4,59.85072807791082,
,,,,,,,,,,,,0,0,0,0,112,0,112,0,,,,,,,112,,,1,1010.1517993766764,Y,None,nogo,d,0,0.2699705090636826,,,,,,,,,,,,,,,,,,78,001,20,w,Psychologie 100%,2023-01-30_09h01.47.633,00_bat_bachelor,2022.2.4,59.85072807791082,
,,,,,,,,,,,,0,0,0,0,113,0,113,0,,,,,,,113,,,1,1011.5365969904368,X,d,go,d,1,0.5493054107263333,,,,,,,,,,,,,,,,,,78,001,20,w,Psychologie 100%,2023-01-30_09h01.47.633,00_bat_bachelor,2022.2.4,59.85072807791082,
,,,,,,,,,,,,0,0,0,0,114,0,114,0,,,,,,,114,,,1,1013.1877713949922,Y,l,go,l,1,0.45080175592431715,,,,,,,,,,,,,,,,,,78,001,20,w,Psychologie 100%,2023-01-30_09h01.47.633,00_bat_bachelor,2022.2.4,59.85072807791082,
,,,,,,,,,,,,0,0,0,0,115,0,115,0,,,,,,,115,,,1,1014.7556926281412,X,d,go,d,1,0.4178624766447001,,,,,,,,,,,,,,,,,,78,001,20,w,Psychologie 100%,2023-01-30_09h01.47.633,00_bat_bachelor,2022.2.4,59.85072807791082,
,,,,,,,,,,,,0,0,0,0,116,0,116,0,,,,,,,116,,,1,1016.2901116707361,Y,l,go,l,1,0.34054435856239706,,,,,,,,,,,,,,,,,,78,001,20,w,Psychologie 100%,2023-01-30_09h01.47.633,00_bat_bachelor,2022.2.4,59.85072807791082,
,,,,,,,,,,,,0,0,0,0,117,0,117,0,,,,,,,117,,,1,1017.7413032389944,X,d,go,d,1,0.47352766225515097,,,,,,,,,,,,,,,,,,78,001,20,w,Psychologie 100%,2023-01-30_09h01.47.633,00_bat_bachelor,2022.2.4,59.85072807791082,
,,,,,,,,,,,,0,0,0,0,118,0,118,0,,,,,,,118,,,1,1019.3254795654965,X,None,nogo,l,0,0.329577528145478,,,,,,,,,,,,,,,,,,78,001,20,w,Psychologie 100%,2023-01-30_09h01.47.633,00_bat_bachelor,2022.2.4,59.85072807791082,
,,,,,,,,,,,,0,0,0,0,119,0,119,0,,,,,,,119,,,1,1020.7599132505726,Y,l,go,l,1,0.26962141680053264,,,,,,,,,,,,,,,,,,78,001,20,w,Psychologie 100%,2023-01-30_09h01.47.633,00_bat_bachelor,2022.2.4,59.85072807791082,
,,,,,,,,,,,,0,0,0,0,120,0,120,0,,,,,,,120,,,1,1022.144300680924,X,d,go,d,1,0.3896902461584659,,,,,,,,,,,,,,,,,,78,001,20,w,Psychologie 100%,2023-01-30_09h01.47.633,00_bat_bachelor,2022.2.4,59.85072807791082,
,,,,,,,,,,,,0,0,0,0,121,0,121,0,,,,,,,121,,,1,1023.645811959513,X,None,nogo,None,1,,1024.4463934890414,,,,,,,,,,,,,,,,,78,001,20,w,Psychologie 100%,2023-01-30_09h01.47.633,00_bat_bachelor,2022.2.4,59.85072807791082,
,,,,,,,,,,,,0,0,0,0,122,0,122,0,,,,,,,122,,,1,1025.4471498556118,Y,l,go,l,1,0.28751239528685346,,,,,,,,,,,,,,,,,,78,001,20,w,Psychologie 100%,2023-01-30_09h01.47.633,00_bat_bachelor,2022.2.4,59.85072807791082,
,,,,,,,,,,,,0,0,0,0,123,0,123,0,,,,,,,123,,,1,1026.8482748054294,X,d,go,d,1,0.34237466869205946,,,,,,,,,,,,,,,,,,78,001,20,w,Psychologie 100%,2023-01-30_09h01.47.633,00_bat_bachelor,2022.2.4,59.85072807791082,
,,,,,,,,,,,,0,0,0,0,124,0,124,0,,,,,,,124,,,1,1028.2993034639649,Y,l,go,l,1,0.4901008174480239,,,,,,,,,,,,,,,,,,78,001,20,w,Psychologie 100%,2023-01-30_09h01.47.633,00_bat_bachelor,2022.2.4,59.85072807791082,
,,,,,,,,,,,,0,0,0,0,125,0,125,0,,,,,,,125,,,1,1029.9005537960875,Y,None,nogo,l,0,0.6016585834901207,,,,,,,,,,,,,,,,,,78,001,20,w,Psychologie 100%,2023-01-30_09h01.47.633,00_bat_bachelor,2022.2.4,59.85072807791082,
,,,,,,,,,,,,0,0,0,0,126,0,126,0,,,,,,,126,,,1,1031.6184334290751,Y,None,nogo,None,1,,,,,,,,,,,,,,,,,,,78,001,20,w,Psychologie 100%,2023-01-30_09h01.47.633,00_bat_bachelor,2022.2.4,59.85072807791082,
,,,,,,,,,,,,0,0,0,0,127,0,127,0,,,,,,,127,,,1,1033.4197058703744,X,d,go,d,1,0.2662051611254128,,,,,,,,,,,,,,,,,,78,001,20,w,Psychologie 100%,2023-01-30_09h01.47.633,00_bat_bachelor,2022.2.4,59.85072807791082,
,,,,,,,,,,,,0,0,0,0,128,0,128,0,,,,,,,128,,,1,1034.787677237051,Y,l,go,l,1,0.4186939950214992,,,,,,,,,,,,,,,,,,78,001,20,w,Psychologie 100%,2023-01-30_09h01.47.633,00_bat_bachelor,2022.2.4,59.85072807791082,
,,,,,,,,,,,,0,0,0,0,129,0,129,0,,,,,,,129,,,1,1036.3221990679235,Y,None,nogo,None,1,,,,,,,,,,,,,,,,,,,78,001,20,w,Psychologie 100%,2023-01-30_09h01.47.633,00_bat_bachelor,2022.2.4,59.85072807791082,
,,,,,,,,,,,,0,0,0,0,130,0,130,0,,,,,,,130,,,1,1038.1235296912669,X,d,go,d,1,0.39414311191501383,,,,,,,,,,,,,,,,,,78,001,20,w,Psychologie 100%,2023-01-30_09h01.47.633,00_bat_bachelor,2022.2.4,59.85072807791082,
,,,,,,,,,,,,0,0,0,0,131,0,131,0,,,,,,,131,,,1,1039.6247248474174,Y,l,go,l,1,0.4619203445055291,,,,,,,,,,,,,,,,,,78,001,20,w,Psychologie 100%,2023-01-30_09h01.47.633,00_bat_bachelor,2022.2.4,59.85072807791082,
,,,,,,,,,,,,0,0,0,0,132,0,132,0,,,,,,,132,,,1,1041.192353230946,Y,None,nogo,None,1,,,,,,,,,,,,,,,,,,,78,001,20,w,Psychologie 100%,2023-01-30_09h01.47.633,00_bat_bachelor,2022.2.4,59.85072807791082,
,,,,,,,,,,,,0,0,0,0,133,0,133,0,,,,,,,133,,,1,1042.9939645826507,X,d,go,d,1,0.29355266113987,,,,,,,,,,,,,,,,,,78,001,20,w,Psychologie 100%,2023-01-30_09h01.47.633,00_bat_bachelor,2022.2.4,59.85072807791082,
,,,,,,,,,,,,0,0,0,0,134,0,134,0,,,,,,,134,,,1,1044.3949309863988,Y,l,go,l,1,0.36404360122617163,,,,,,,,,,,,,,,,,,78,001,20,w,Psychologie 100%,2023-01-30_09h01.47.633,00_bat_bachelor,2022.2.4,59.85072807791082,
,,,,,,,,,,,,0,0,0,0,135,0,135,0,,,,,,,135,,,1,1045.862472678682,Y,None,nogo,None,1,,,,,,,,,,,,,,,,,,,78,001,20,w,Psychologie 100%,2023-01-30_09h01.47.633,00_bat_bachelor,2022.2.4,59.85072807791082,
,,,,,,,,,,,,0,0,0,0,136,0,136,0,,,,,,,136,,,1,1047.6642149399854,X,d,go,d,1,0.27842532973693324,,,,,,,,,,,,,,,,,,78,001,20,w,Psychologie 100%,2023-01-30_09h01.47.633,00_bat_bachelor,2022.2.4,59.85072807791082,
,,,,,,,,,,,,0,0,0,0,137,0,137,0,,,,,,,137,,,1,1049.0486799463952,Y,l,go,l,1,0.4626481049041331,,,,,,,,,,,,,,,,,,78,001,20,w,Psychologie 100%,2023-01-30_09h01.47.633,00_bat_bachelor,2022.2.4,59.85072807791082,
,,,,,,,,,,,,0,0,0,0,138,0,138,0,,,,,,,138,,,1,1050.6164518456312,X,d,go,d,1,0.494705926219126,,,,,,,,,,,,,,,,,,78,001,20,w,Psychologie 100%,2023-01-30_09h01.47.633,00_bat_bachelor,2022.2.4,59.85072807791082,
,,,,,,,,,,,,0,0,0,0,139,0,139,0,,,,,,,139,,,1,1052.21736520675,X,None,nogo,None,1,,,,,,,,,,,,,,,,,,,78,001,20,w,Psychologie 100%,2023-01-30_09h01.47.633,00_bat_bachelor,2022.2.4,59.85072807791082,
,,,,,,,,,,,,0,0,0,0,140,0,140,0,,,,,,,140,,,1,1054.0187176483596,X,None,nogo,None,1,,,,,,,,,,,,,,,,,,,78,001,20,w,Psychologie 100%,2023-01-30_09h01.47.633,00_bat_bachelor,2022.2.4,59.85072807791082,
,,,,,,,,,,,,0,0,0,0,141,0,141,0,,,,,,,141,,,1,1055.8205791828527,Y,l,go,l,1,0.41051893300902975,,,,,,,,,,,,,,,,,,78,001,20,w,Psychologie 100%,2023-01-30_09h01.47.633,00_bat_bachelor,2022.2.4,59.85072807791082,
,,,,,,,,,,,,0,0,0,0,142,0,142,0,,,,,,,142,,,1,1057.3382558574772,X,d,go,d,1,0.3970197291336035,,,,,,,,,,,,,,,,,,78,001,20,w,Psychologie 100%,2023-01-30_09h01.47.633,00_bat_bachelor,2022.2.4,59.85072807791082,
,,,,,,,,,,,,0,0,0,0,143,0,143,0,,,,,,,143,,,1,1058.8394980441135,X,None,nogo,None,1,,,,,,,,,,,,,,,,,,,78,001,20,w,Psychologie 100%,2023-01-30_09h01.47.633,00_bat_bachelor,2022.2.4,59.85072807791082,
,,,,,,,,,,,,0,0,0,0,144,0,144,0,,,,,,,144,,,1,1060.640675454741,Y,l,go,l,1,0.29406805707856165,,,,,,,,,,,,,,,,,,78,001,20,w,Psychologie 100%,2023-01-30_09h01.47.633,00_bat_bachelor,2022.2.4,59.85072807791082,
,,,,,,,,,,,,0,0,0,0,145,0,145,0,,,,,,,145,,,1,1062.041578827942,X,d,go,None,0,,,,,,,,,,,,,,,,,,,78,001,20,w,Psychologie 100%,2023-01-30_09h01.47.633,00_bat_bachelor,2022.2.4,59.85072807791082,
,,,,,,,,,,,,0,0,0,0,146,0,146,0,,,,,,,146,,,1,1063.842922542245,Y,l,go,l,1,0.355325021953945,,,,,,,,,,,,,,,,,,78,001,20,w,Psychologie 100%,2023-01-30_09h01.47.633,00_bat_bachelor,2022.2.4,59.85072807791082,
,,,,,,,,,,,,0,0,0,0,147,0,147,0,,,,,,,147,,,1,1065.3110218124484,X,d,go,d,1,0.2642342443897405,,,,,,,,,,,,,,,,,,78,001,20,w,Psychologie 100%,2023-01-30_09h01.47.633,00_bat_bachelor,2022.2.4,59.85072807791082,
,,,,,,,,,,,,0,0,0,0,148,0,148,0,,,,,,,148,,,1,1066.6788855423438,Y,l,go,l,1,0.27194433490160463,,,,,,,,,,,,,,,,,,78,001,20,w,Psychologie 100%,2023-01-30_09h01.47.633,00_bat_bachelor,2022.2.4,59.85072807791082,
,,,,,,,,,,,,0,0,0,0,149,0,149,0,,,,,,,149,,,1,1068.0629738200196,X,d,go,d,1,0.32771230878950064,,,,,,,,,,,,,,,,,,78,001,20,w,Psychologie 100%,2023-01-30_09h01.47.633,00_bat_bachelor,2022.2.4,59.85072807791082,
,,,,,,,,,,,,0,0,0,0,150,0,150,0,,,,,,,150,,,1,1069.4972552620811,Y,l,go,l,1,0.4610005833623063,,,,,,,,,,,,,,,,,,78,001,20,w,Psychologie 100%,2023-01-30_09h01.47.633,00_bat_bachelor,2022.2.4,59.85072807791082,
,,,,,,,,,,,,0,0,0,0,151,0,151,0,,,,,,,151,,,1,1071.065437344727,Y,None,nogo,None,1,,1071.8661260261856,,,,,,,,,,,,,,,,,78,001,20,w,Psychologie 100%,2023-01-30_09h01.47.633,00_bat_bachelor,2022.2.4,59.85072807791082,
,,,,,,,,,,,,0,0,0,0,152,0,152,0,,,,,,,152,,,1,1072.8665013003688,X,d,go,d,1,0.37200629877827396,,,,,,,,,,,,,,,,,,78,001,20,w,Psychologie 100%,2023-01-30_09h01.47.633,00_bat_bachelor,2022.2.4,59.85072807791082,
,,,,,,,,,,,,0,0,0,0,153,0,153,0,,,,,,,153,,,1,1074.3512513018231,Y,l,go,l,1,0.3275658839789912,,,,,,,,,,,,,,,,,,78,001,20,w,Psychologie 100%,2023-01-30_09h01.47.633,00_bat_bachelor,2022.2.4,59.85072807791082,
,,,,,,,,,,,,0,0,0,0,154,0,154,0,,,,,,,154,,,1,1075.7856781989944,X,d,go,d,1,0.3166349324893645,,,,,,,,,,,,,,,,,,78,001,20,w,Psychologie 100%,2023-01-30_09h01.47.633,00_bat_bachelor,2022.2.4,59.85072807791082,
,,,,,,,,,,,,0,0,0,0,155,0,155,0,,,,,,,155,,,1,1077.2034252738922,Y,l,go,l,1,0.46780739764324153,,,,,,,,,,,,,,,,,,78,001,20,w,Psychologie 100%,2023-01-30_09h01.47.633,00_bat_bachelor,2022.2.4,59.85072807791082,
,,,,,,,,,,,,0,0,0,0,156,0,156,0,,,,,,,156,,,1,1078.7878154194054,X,d,go,d,1,0.37060508122215197,,,,,,,,,,,,,,,,,,78,001,20,w,Psychologie 100%,2023-01-30_09h01.47.633,00_bat_bachelor,2022.2.4,59.85072807791082,
,,,,,,,,,,,,0,0,0,0,157,0,157,0,,,,,,,157,,,1,1080.2725523299,X,None,nogo,None,1,,,,,,,,,,,,,,,,,,,78,001,20,w,Psychologie 100%,2023-01-30_09h01.47.633,00_bat_bachelor,2022.2.4,59.85072807791082,
,,,,,,,,,,,,0,0,0,0,158,0,158,0,,,,,,,158,,,1,1082.0736187097937,Y,l,go,l,1,0.4757676709438101,,,,,,,,,,,,,,,,,,78,001,20,w,Psychologie 100%,2023-01-30_09h01.47.633,00_bat_bachelor,2022.2.4,59.85072807791082,
,,,,,,,,,,,,0,0,0,0,159,0,159,0,,,,,,,159,,,1,1083.658380250687,X,d,go,d,1,0.37987202625743066,,,,,,,,,,,,,,,,,,78,001,20,w,Psychologie 100%,2023-01-30_09h01.47.633,00_bat_bachelor,2022.2.4,59.85072807791082,
,,,,,,,,,,,,0,0,0,0,160,0,160,0,,,,,,,160,,,1,1085.1425731590716,X,None,nogo,None,1,,,,,,,,,,,,,,,,,,,78,001,20,w,Psychologie 100%,2023-01-30_09h01.47.633,00_bat_bachelor,2022.2.4,59.85072807791082,
,,,,,,,,,,,,0,0,0,0,161,0,161,0,,,,,,,161,,,1,1086.943957115955,Y,l,go,l,1,0.32676685057674604,,,,,,,,,,,,,,,,,,78,001,20,w,Psychologie 100%,2023-01-30_09h01.47.633,00_bat_bachelor,2022.2.4,59.85072807791082,
,,,,,,,,,,,,0,0,0,0,162,0,162,0,,,,,,,162,,,1,1088.3786458323234,X,d,go,d,1,0.6042971391792662,,,,,,,,,,,,,,,,,,78,001,20,w,Psychologie 100%,2023-01-30_09h01.47.633,00_bat_bachelor,2022.2.4,59.85072807791082,
,,,,,,,,,,,,0,0,0,0,163,0,163,0,,,,,,,163,,,1,1090.0967931027126,X,None,nogo,None,1,,1090.897344086668,,,,,,,,,,,,,,,,,78,001,20,w,Psychologie 100%,2023-01-30_09h01.47.633,00_bat_bachelor,2022.2.4,59.85072807791082,
,,,,,,,,,,,,0,0,0,0,164,0,164,0,,,,,,,164,,,1,1091.8981062714424,Y,l,go,l,1,0.22039892284681173,,,,,,,,,,,,,,,,,,78,001,20,w,Psychologie 100%,2023-01-30_09h01.47.633,00_bat_bachelor,2022.2.4,59.85072807791082,
,,,,,,,,,,,,0,0,0,0,165,0,165,0,,,,,,,165,,,1,1093.2323286587293,X,d,go,d,1,0.40566994450398397,,,,,,,,,,,,,,,,,,78,001,20,w,Psychologie 100%,2023-01-30_09h01.47.633,00_bat_bachelor,2022.2.4,59.85072807791082,
,,,,,,,,,,,,0,0,0,0,166,0,166,0,,,,,,,166,,,1,1094.7499524846644,Y,l,go,l,1,0.5360384501758517,,,,,,,,,,,,,,,,,,78,001,20,w,Psychologie 100%,2023-01-30_09h01.47.633,00_bat_bachelor,2022.2.4,59.85072807791082,
,,,,,,,,,,,,0,0,0,0,167,0,167,0,,,,,,,167,,,1,1096.4012582836685,Y,None,nogo,d,0,0.5012087393212141,,,,,,,,,,,,,,,,,,78,001,20,w,Psychologie 100%,2023-01-30_09h01.47.633,00_bat_bachelor,2022.2.4,59.85072807791082,
,,,,,,,,,,,,0,0,0,0,168,0,168,0,,,,,,,168,,,1,1098.0194560754662,X,d,go,d,1,0.2592635584429672,,,,,,,,,,,,,,,,,,78,001,20,w,Psychologie 100%,2023-01-30_09h01.47.633,00_bat_bachelor,2022.2.4,59.85072807791082,
,,,,,,,,,,,,0,0,0,0,169,0,169,0,,,,,,,169,,,1,1099.3868378640982,Y,l,go,l,1,0.5239011909765168,,,,,,,,,,,,,,,,,,78,001,20,w,Psychologie 100%,2023-01-30_09h01.47.633,00_bat_bachelor,2022.2.4,59.85072807791082,
,,,,,,,,,,,,0,0,0,0,170,0,170,0,,,,,,,170,,,1,1101.0217149933187,Y,None,nogo,None,1,,1101.822373129205,,,,,,,,,,,,,,,,,78,001,20,w,Psychologie 100%,2023-01-30_09h01.47.633,00_bat_bachelor,2022.2.4,59.85072807791082,
,,,,,,,,,,,,0,0,0,0,171,0,171,0,,,,,,,171,,,1,1102.8232080415341,X,d,go,d,1,0.3187556679880572,,,,,,,,,,,,,,,,,,78,001,20,w,Psychologie 100%,2023-01-30_09h01.47.633,00_bat_bachelor,2022.2.4,59.85072807791082,
,,,,,,,,,,,,0,0,0,0,172,0,172,0,,,,,,,172,,,1,1104.2575079079093,Y,l,go,l,1,0.4851994651031646,,,,,,,,,,,,,,,,,,78,001,20,w,Psychologie 100%,2023-01-30_09h01.47.633,00_bat_bachelor,2022.2.4,59.85072807791082,
,,,,,,,,,,,,0,0,0,0,173,0,173,0,,,,,,,173,,,1,1105.8587761794956,X,d,go,d,1,0.5320495862189318,,,,,,,,,,,,,,,,,,78,001,20,w,Psychologie 100%,2023-01-30_09h01.47.633,00_bat_bachelor,2022.2.4,59.85072807791082,
,,,,,,,,,,,,0,0,0,0,174,0,174,0,,,,,,,174,,,1,1107.49307536708,X,None,nogo,None,1,,,,,,,,,,,,,,,,,,,78,001,20,w,Psychologie 100%,2023-01-30_09h01.47.633,00_bat_bachelor,2022.2.4,59.85072807791082,
,,,,,,,,,,,,0,0,0,0,175,0,175,0,,,,,,,175,,,1,1109.2946663550697,Y,l,go,l,1,0.26380078816293917,,,,,,,,,,,,,,,,,,78,001,20,w,Psychologie 100%,2023-01-30_09h01.47.633,00_bat_bachelor,2022.2.4,59.85072807791082,
,,,,,,,,,,,,0,0,0,0,176,0,176,0,,,,,,,176,,,1,1110.6624195390818,X,d,go,d,1,0.38416537624391367,,,,,,,,,,,,,,,,,,78,001,20,w,Psychologie 100%,2023-01-30_09h01.47.633,00_bat_bachelor,2022.2.4,59.85072807791082,
,,,,,,,,,,,,0,0,0,0,177,0,177,0,,,,,,,177,,,1,1112.1636011194228,Y,l,go,l,1,0.4989595184757718,,,,,,,,,,,,,,,,,,78,001,20,w,Psychologie 100%,2023-01-30_09h01.47.633,00_bat_bachelor,2022.2.4,59.85072807791082,
,,,,,,,,,,,,0,0,0,0,178,0,178,0,,,,,,,178,,,1,1113.764848542443,Y,None,nogo,l,0,0.6101972832765341,,,,,,,,,,,,,,,,,,78,001,20,w,Psychologie 100%,2023-01-30_09h01.47.633,00_bat_bachelor,2022.2.4,59.85072807791082,
,,,,,,,,,,,,0,0,0,0,179,0,179,0,,,,,,,179,,,1,1115.4828367819123,Y,None,nogo,None,1,,,,,,,,,,,,,,,,,,,78,001,20,w,Psychologie 100%,2023-01-30_09h01.47.633,00_bat_bachelor,2022.2.4,59.85072807791082,
,,,,,,,,,,,,0,0,0,0,180,0,180,0,,,,,,,180,,,1,1117.2841611022009,X,d,go,d,1,0.2914382286961654,,,,,,,,,,,,,,,,,,78,001,20,w,Psychologie 100%,2023-01-30_09h01.47.633,00_bat_bachelor,2022.2.4,59.85072807791082,
,,,,,,,,,,,,0,0,0,0,181,0,181,0,,,,,,,181,,,1,1118.6849262930473,Y,l,go,l,1,0.3622423821183247,,,,,,,,,,,,,,,,,,78,001,20,w,Psychologie 100%,2023-01-30_09h01.47.633,00_bat_bachelor,2022.2.4,59.85072807791082,
,,,,,,,,,,,,0,0,0,0,182,0,182,0,,,,,,,182,,,1,1120.1529125931156,Y,None,nogo,None,1,,1120.953698244648,,,,,,,,,,,,,,,,,78,001,20,w,Psychologie 100%,2023-01-30_09h01.47.633,00_bat_bachelor,2022.2.4,59.85072807791082,
,,,,,,,,,,,,0,0,0,0,183,0,183,0,,,,,,,183,,,1,1121.9545307327253,X,d,go,d,1,0.4358446069996944,,,,,,,,,,,,,,,,,,78,001,20,w,Psychologie 100%,2023-01-30_09h01.47.633,00_bat_bachelor,2022.2.4,59.85072807791082,
,,,,,,,,,,,,0,0,0,0,184,0,184,0,,,,,,,184,,,1,1123.5056669310716,Y,l,go,l,1,0.40541006470823504,,,,,,,,,,,,,,,,,,78,001,20,w,Psychologie 100%,2023-01-30_09h01.47.633,00_bat_bachelor,2022.2.4,59.85072807791082,
,,,,,,,,,,,,0,0,0,0,185,0,185,0,,,,,,,185,,,1,1125.023365908813,X,d,go,d,1,0.4387973457254475,,,,,,,,,,,,,,,,,,78,001,20,w,Psychologie 100%,2023-01-30_09h01.47.633,00_bat_bachelor,2022.2.4,59.85072807791082,
,,,,,,,,,,,,0,0,0,0,186,0,186,0,,,,,,,186,,,1,1126.5746611380796,Y,l,go,l,1,0.31205309653557833,,,,,,,,,,,,,,,,,,78,001,20,w,Psychologie 100%,2023-01-30_09h01.47.633,00_bat_bachelor,2022.2.4,59.85072807791082,
,,,,,,,,,,,,0,0,0,0,187,0,187,0,,,,,,,187,,,1,1127.9920659086192,X,d,go,d,1,0.38175566992742915,,,,,,,,,,,,,,,,,,78,001,20,w,Psychologie 100%,2023-01-30_09h01.47.633,00_bat_bachelor,2022.2.4,59.85072807791082,
,,,,,,,,,,,,0,0,0,0,188,0,188,0,,,,,,,188,,,1,1129.4769550621286,Y,l,go,l,1,0.27481561876595606,,,,,,,,,,,,,,,,,,78,001,20,w,Psychologie 100%,2023-01-30_09h01.47.633,00_bat_bachelor,2022.2.4,59.85072807791082,
,,,,,,,,,,,,0,0,0,0,189,0,189,0,,,,,,,189,,,1,1130.8613124317571,Y,None,nogo,None,1,,,,,,,,,,,,,,,,,,,78,001,20,w,Psychologie 100%,2023-01-30_09h01.47.633,00_bat_bachelor,2022.2.4,59.85072807791082,
,,,,,,,,,,,,0,0,0,0,190,0,190,0,,,,,,,190,,,1,1132.6626251156367,X,d,go,d,1,0.25704294376885173,,,,,,,,,,,,,,,,,,78,001,20,w,Psychologie 100%,2023-01-30_09h01.47.633,00_bat_bachelor,2022.2.4,59.85072807791082,
,,,,,,,,,,,,0,0,0,0,191,0,191,0,,,,,,,191,,,1,1134.0303734511454,Y,l,go,l,1,0.5678698463703995,,,,,,,,,,,,,,,,,,78,001,20,w,Psychologie 100%,2023-01-30_09h01.47.633,00_bat_bachelor,2022.2.4,59.85072807791082,
,,,,,,,,,,,,0,0,0,0,192,0,192,0,,,,,,,192,,,1,1135.7150447129006,X,d,go,d,1,0.4035264210380092,,,,,,,,,,,,,,,,,,78,001,20,w,Psychologie 100%,2023-01-30_09h01.47.633,00_bat_bachelor,2022.2.4,59.85072807791082,
,,,,,,,,,,,,0,0,0,0,193,0,193,0,,,,,,,193,,,1,1137.2328101151425,X,None,nogo,l,0,0.34282024617789375,,,,,,,,,,,,,,,,,,78,001,20,w,Psychologie 100%,2023-01-30_09h01.47.633,00_bat_bachelor,2022.2.4,59.85072807791082,
,,,,,,,,,,,,0,0,0,0,194,0,194,0,,,,,,,194,,,1,1138.683877561707,Y,l,go,l,1,0.2187809771770617,,,,,,,,,,,,,,,,,,78,001,20,w,Psychologie 100%,2023-01-30_09h01.47.633,00_bat_bachelor,2022.2.4,59.85072807791082,
,,,,,,,,,,,,0,0,0,0,195,0,195,0,,,,,,,195,,,1,1140.018288555786,X,d,go,d,1,0.4521447914368082,,,,,,,,,,,,,,,,,,78,001,20,w,Psychologie 100%,2023-01-30_09h01.47.633,00_bat_bachelor,2022.2.4,59.85072807791082,
,,,,,,,,,,,,0,0,0,0,196,0,196,0,,,,,,,196,,,1,1141.5858306359492,Y,l,go,l,1,0.32406574919070863,,,,,,,,,,,,,,,,,,78,001,20,w,Psychologie 100%,2023-01-30_09h01.47.633,00_bat_bachelor,2022.2.4,59.85072807791082,
,,,,,,,,,,,,0,0,0,0,197,0,197,0,,,,,,,197,,,1,1143.020454867219,X,d,go,d,1,0.5223768214276561,,,,,,,,,,,,,,,,,,78,001,20,w,Psychologie 100%,2023-01-30_09h01.47.633,00_bat_bachelor,2022.2.4,59.85072807791082,
,,,,,,,,,,,,0,0,0,0,198,0,198,0,,,,,,,198,,,1,1144.655022661906,Y,l,go,l,1,0.32867910041807136,,,,,,,,,,,,,,,,,,78,001,20,w,Psychologie 100%,2023-01-30_09h01.47.633,00_bat_bachelor,2022.2.4,59.85072807791082,
,,,,,,,,,,,,0,0,0,0,199,0,199,0,,,,,,,199,,,1,1146.0896202264057,X,d,go,d,1,0.38157918439435434,,,,,,,,,,,,,,,,,,78,001,20,w,Psychologie 100%,2023-01-30_09h01.47.633,00_bat_bachelor,2022.2.4,59.85072807791082,
,,,,,,,,,,,,0,0,0,0,200,0,200,0,,,,,,,200,,,1,1147.5741743483127,X,None,nogo,l,0,0.384266225119859,,,,,,,,,,,,,,,,,,78,001,20,w,Psychologie 100%,2023-01-30_09h01.47.633,00_bat_bachelor,2022.2.4,59.85072807791082,
,,,,,,,,,,,,0,0,0,0,201,0,201,0,,,,,,,201,,,1,1149.075513020172,Y,l,go,l,1,0.22709131244130276,,,,,,,,,,,,,,,,,,78,001,20,w,Psychologie 100%,2023-01-30_09h01.47.633,00_bat_bachelor,2022.2.4,59.85072807791082,
,,,,,,,,,,,,0,0,0,0,202,0,202,0,,,,,,,202,,,1,1150.4098949232289,X,d,go,d,1,0.43003755417214506,,,,,,,,,,,,,,,,,,78,001,20,w,Psychologie 100%,2023-01-30_09h01.47.633,00_bat_bachelor,2022.2.4,59.85072807791082,
,,,,,,,,,,,,0,0,0,0,203,0,203,0,,,,,,,203,,,1,1151.9441685107145,Y,l,go,l,1,0.2535796576081566,,,,,,,,,,,,,,,,,,78,001,20,w,Psychologie 100%,2023-01-30_09h01.47.633,00_bat_bachelor,2022.2.4,59.85072807791082,
,,,,,,,,,,,,0,0,0,0,204,0,204,0,,,,,,,204,,,1,1153.3284657588974,X,d,go,d,1,0.4866103796667858,,,,,,,,,,,,,,,,,,78,001,20,w,Psychologie 100%,2023-01-30_09h01.47.633,00_bat_bachelor,2022.2.4,59.85072807791082,
,,,,,,,,,,,,0,0,0,0,205,0,205,0,,,,,,,205,,,1,1154.9297170607206,Y,l,go,l,1,0.436924853613732,,,,,,,,,,,,,,,,,,78,001,20,w,Psychologie 100%,2023-01-30_09h01.47.633,00_bat_bachelor,2022.2.4,59.85072807791082,
,,,,,,,,,,,,0,0,0,0,206,0,206,0,,,,,,,206,,,1,1156.4805604094463,X,d,go,d,1,0.34314897472552275,,,,,,,,,,,,,,,,,,78,001,20,w,Psychologie 100%,2023-01-30_09h01.47.633,00_bat_bachelor,2022.2.4,59.85072807791082,
,,,,,,,,,,,,0,0,0,0,207,0,207,0,,,,,,,207,,,1,1157.9317674929162,Y,l,go,l,1,0.3474675369310489,,,,,,,,,,,,,,,,,,78,001,20,w,Psychologie 100%,2023-01-30_09h01.47.633,00_bat_bachelor,2022.2.4,59.85072807791082,
,,,,,,,,,,,,0,0,0,0,208,0,208,0,,,,,,,208,,,1,1159.3830613646019,X,d,go,d,1,0.41558901328096454,,,,,,,,,,,,,,,,,,78,001,20,w,Psychologie 100%,2023-01-30_09h01.47.633,00_bat_bachelor,2022.2.4,59.85072807791082,
,,,,,,,,,,,,0,0,0,0,209,0,209,0,,,,,,,209,,,1,1160.9006216751386,X,None,nogo,None,1,,,,,,,,,,,,,,,,,,,78,001,20,w,Psychologie 100%,2023-01-30_09h01.47.633,00_bat_bachelor,2022.2.4,59.85072807791082,
,,,,,,,,,,,,0,0,0,0,210,0,210,0,,,,,,,210,,,1,1162.7024647853182,Y,l,go,l,1,0.47366099610565016,,,,,,,,,,,,,,,,,,78,001,20,w,Psychologie 100%,2023-01-30_09h01.47.633,00_bat_bachelor,2022.2.4,59.85072807791082,
,,,,,,,,,,,,0,0,0,0,211,0,211,0,,,,,,,211,,,1,1164.2868825673022,X,d,go,d,1,0.36024625316360925,,,,,,,,,,,,,,,,,,78,001,20,w,Psychologie 100%,2023-01-30_09h01.47.633,00_bat_bachelor,2022.2.4,59.85072807791082,
,,,,,,,,,,,,0,0,0,0,212,0,212,0,,,,,,,212,,,1,1165.7544179565302,X,None,nogo,None,1,,1166.5553165781976,,,,,,,,,,,,,,,,,78,001,20,w,Psychologie 100%,2023-01-30_09h01.47.633,00_bat_bachelor,2022.2.4,59.85072807791082,
,,,,,,,,,,,,0,0,0,0,213,0,213,0,,,,,,,213,,,1,1167.5559861565525,Y,l,go,l,1,0.2426729486368231,,,,,,,,,,,,,,,,,,78,001,20,w,Psychologie 100%,2023-01-30_09h01.47.633,00_bat_bachelor,2022.2.4,59.85072807791082,
,,,,,,,,,,,,0,0,0,0,214,0,214,0,,,,,,,214,,,1,1168.9073610952191,X,d,go,d,1,0.46051912694917974,,,,,,,,,,,,,,,,,,78,001,20,w,Psychologie 100%,2023-01-30_09h01.47.633,00_bat_bachelor,2022.2.4,59.85072807791082,
,,,,,,,,,,,,0,0,0,0,215,0,215,0,,,,,,,215,,,1,1170.4747252352981,Y,l,go,l,1,0.3638637217403584,,,,,,,,,,,,,,,,,,78,001,20,w,Psychologie 100%,2023-01-30_09h01.47.633,00_bat_bachelor,2022.2.4,59.85072807791082,
,,,,,,,,,,,,0,0,0,0,216,0,216,0,,,,,,,216,,,1,1171.9594432366284,X,d,go,d,1,0.3036472457496302,,,,,,,,,,,,,,,,,,78,001,20,w,Psychologie 100%,2023-01-30_09h01.47.633,00_bat_bachelor,2022.2.4,59.85072807791082,
,,,,,,,,,,,,0,0,0,0,217,0,217,0,,,,,,,217,,,1,1173.3768300677048,Y,l,go,l,1,0.469741465751099,,,,,,,,,,,,,,,,,,78,001,20,w,Psychologie 100%,2023-01-30_09h01.47.633,00_bat_bachelor,2022.2.4,59.85072807791082,
,,,,,,,,,,,,0,0,0,0,218,0,218,0,,,,,,,218,,,1,1174.9613884562946,Y,None,nogo,None,1,,,,,,,,,,,,,,,,,,,78,001,20,w,Psychologie 100%,2023-01-30_09h01.47.633,00_bat_bachelor,2022.2.4,59.85072807791082,
,,,,,,,,,,,,0,0,0,0,219,0,219,0,,,,,,,219,,,1,1176.7630822325614,X,d,go,d,1,0.28295043819787224,,,,,,,,,,,,,,,,,,78,001,20,w,Psychologie 100%,2023-01-30_09h01.47.633,00_bat_bachelor,2022.2.4,59.85072807791082,
,,,,,,,,,,,,0,0,0,0,220,0,220,0,,,,,,,220,,,1,1178.1475128145953,Y,l,go,l,1,0.3233273220838555,,,,,,,,,,,,,,,,,,78,001,20,w,Psychologie 100%,2023-01-30_09h01.47.633,00_bat_bachelor,2022.2.4,59.85072807791082,
,,,,,,,,,,,,0,0,0,0,221,0,221,0,,,,,,,221,,,1,1179.5818592266055,X,d,go,d,1,0.29754443419903964,,,,,,,,,,,,,,,,,,78,001,20,w,Psychologie 100%,2023-01-30_09h01.47.633,00_bat_bachelor,2022.2.4,59.85072807791082,
,,,,,,,,,,,,0,0,0,0,222,0,222,0,,,,,,,222,,,1,1180.9832862382013,Y,l,go,l,1,0.33538603552403856,,,,,,,,,,,,,,,,,,78,001,20,w,Psychologie 100%,2023-01-30_09h01.47.633,00_bat_bachelor,2022.2.4,59.85072807791082,
,,,,,,,,,,,,0,0,0,0,223,0,223,0,,,,,,,223,,,1,1182.4338155008604,X,d,go,d,1,0.48444697733600606,,,,,,,,,,,,,,,,,,78,001,20,w,Psychologie 100%,2023-01-30_09h01.47.633,00_bat_bachelor,2022.2.4,59.85072807791082,
,,,,,,,,,,,,0,0,0,0,224,0,224,0,,,,,,,224,,,1,1184.035401834286,X,None,nogo,l,0,0.24315052624695,,,,,,,,,,,,,,,,,,78,001,20,w,Psychologie 100%,2023-01-30_09h01.47.633,00_bat_bachelor,2022.2.4,59.85072807791082,
,,,,,,,,,,,,0,0,0,0,225,0,225,0,,,,,,,225,,,1,1185.3864063472734,Y,l,go,l,1,0.22006631549618305,,,,,,,,,,,,,,,,,,78,001,20,w,Psychologie 100%,2023-01-30_09h01.47.633,00_bat_bachelor,2022.2.4,59.85072807791082,
,,,,,,,,,,,,0,0,0,0,226,0,226,0,,,,,,,226,,,1,1186.7206675225893,X,d,go,d,1,0.3430985502876638,,,,,,,,,,,,,,,,,,78,001,20,w,Psychologie 100%,2023-01-30_09h01.47.633,00_bat_bachelor,2022.2.4,59.85072807791082,
,,,,,,,,,,,,0,0,0,0,227,0,227,0,,,,,,,227,,,1,1188.1715133925368,Y,l,go,l,1,0.4117722712038585,,,,,,,,,,,,,,,,,,78,001,20,w,Psychologie 100%,2023-01-30_09h01.47.633,00_bat_bachelor,2022.2.4,59.85072807791082,
,,,,,,,,,,,,0,0,0,0,228,0,228,0,,,,,,,228,,,1,1189.689344249578,X,d,go,d,1,0.3974095488273406,,,,,,,,,,,,,,,,,,78,001,20,w,Psychologie 100%,2023-01-30_09h01.47.633,00_bat_bachelor,2022.2.4,59.85072807791082,
,,,,,,,,,,,,0,0,0,0,229,0,229,0,,,,,,,229,,,1,1191.1907013457508,X,None,nogo,None,1,,1191.9914661487173,,,,,,,,,,,,,,,,,78,001,20,w,Psychologie 100%,2023-01-30_09h01.47.633,00_bat_bachelor,2022.2.4,59.85072807791082,
,,,,,,,,,,,,0,0,0,0,230,0,230,0,,,,,,,230,,,1,1192.9921017875463,Y,l,go,l,1,0.630951788021207,,,,,,,,,,,,,,,,,,78,001,20,w,Psychologie 100%,2023-01-30_09h01.47.633,00_bat_bachelor,2022.2.4,59.85072807791082,
,,,,,,,,,,,,0,0,0,0,231,0,231,0,,,,,,,231,,,1,1194.7268115464208,X,d,go,None,0,,,,,,,,,,,,,,,,,,,78,001,20,w,Psychologie 100%,2023-01-30_09h01.47.633,00_bat_bachelor,2022.2.4,59.85072807791082,
,,,,,,,,,,,,0,0,0,0,232,0,232,0,,,,,,,232,,,1,1196.5282376852856,Y,l,go,l,1,0.5026080174760637,,,,,,,,,,,,,,,,,,78,001,20,w,Psychologie 100%,2023-01-30_09h01.47.633,00_bat_bachelor,2022.2.4,59.85072807791082,
,,,,,,,,,,,,0,0,0,0,233,0,233,0,,,,,,,233,,,1,1198.1459835965425,X,d,go,d,1,0.4851320709025231,,,,,,,,,,,,,,,,,,78,001,20,w,Psychologie 100%,2023-01-30_09h01.47.633,00_bat_bachelor,2022.2.4,59.85072807791082,
,,,,,,,,,,,,0,0,0,0,234,0,234,0,,,,,,,234,,,1,1199.7474443537235,Y,l,go,l,1,0.4035569666110632,,,,,,,,,,,,,,,,,,78,001,20,w,Psychologie 100%,2023-01-30_09h01.47.633,00_bat_bachelor,2022.2.4,59.85072807791082,
,,,,,,,,,,,,0,0,0,0,235,0,235,0,,,,,,,235,,,1,1201.2652451500421,X,d,go,d,1,0.5976624467779175,,,,,,,,,,,,,,,,,,78,001,20,w,Psychologie 100%,2023-01-30_09h01.47.633,00_bat_bachelor,2022.2.4,59.85072807791082,
,,,,,,,,,,,,0,0,0,0,236,0,236,0,,,,,,,236,,,1,1202.9664789002818,X,None,nogo,None,1,,1203.7671399452702,,,,,,,,,,,,,,,,,78,001,20,w,Psychologie 100%,2023-01-30_09h01.47.633,00_bat_bachelor,2022.2.4,59.85072807791082,
,,,,,,,,,,,,0,0,0,0,237,0,237,0,,,,,,,237,,,1,1204.7678521904572,Y,l,go,l,1,0.2957306089818985,,,,,,,,,,,,,,,,,,78,001,20,w,Psychologie 100%,2023-01-30_09h01.47.633,00_bat_bachelor,2022.2.4,59.85072807791082,
,,,,,,,,,,,,0,0,0,0,238,0,238,0,,,,,,,238,,,1,1206.1690615042385,X,d,go,d,1,0.5424879297373764,,,,,,,,,,,,,,,,,,78,001,20,w,Psychologie 100%,2023-01-30_09h01.47.633,00_bat_bachelor,2022.2.4,59.85072807791082,
,,,,,,,,,,,,0,0,0,0,239,0,239,0,,,,,,,239,,,1,1207.8199057256952,Y,l,go,l,1,0.2987235902877501,,,,,,,,,,,,,,,,,,78,001,20,w,Psychologie 100%,2023-01-30_09h01.47.633,00_bat_bachelor,2022.2.4,59.85072807791082,
,,,,,,,,,,,,0,0,0,0,240,0,240,0,,,,,,,240,,,1,1209.2213545555574,X,d,go,d,1,0.5142167897764693,,,,,,,,,,,,,,,,,,78,001,20,w,Psychologie 100%,2023-01-30_09h01.47.633,00_bat_bachelor,2022.2.4,59.85072807791082,
,,,,,,,,,,,,0,0,0,0,241,0,241,0,,,,,,,241,,,1,1210.838939496493,X,None,nogo,None,1,,1211.639766360306,,,,,,,,,,,,,,,,,78,001,20,w,Psychologie 100%,2023-01-30_09h01.47.633,00_bat_bachelor,2022.2.4,59.85072807791082,
,,,,,,,,,,,,0,0,0,0,242,0,242,0,,,,,,,242,,,1,1212.6406744850406,Y,l,go,l,1,0.37482279455150547,,,,,,,,,,,,,,,,,,78,001,20,w,Psychologie 100%,2023-01-30_09h01.47.633,00_bat_bachelor,2022.2.4,59.85072807791082,
,,,,,,,,,,,,0,0,0,0,243,0,243,0,,,,,,,243,,,1,1214.1250496971625,X,d,go,d,1,0.39367426161140884,,,,,,,,,,,,,,,,,,78,001,20,w,Psychologie 100%,2023-01-30_09h01.47.633,00_bat_bachelor,2022.2.4,59.85072807791082,
,,,,,,,,,,,,0,0,0,0,244,0,244,0,,,,,,,244,,,1,1215.626148368091,X,None,nogo,None,1,,,,,,,,,,,,,,,,,,,78,001,20,w,Psychologie 100%,2023-01-30_09h01.47.633,00_bat_bachelor,2022.2.4,59.85072807791082,
,,,,,,,,,,,,0,0,0,0,245,0,245,0,,,,,,,245,,,1,1217.427535234076,X,None,nogo,None,1,,,,,,,,,,,,,,,,,,,78,001,20,w,Psychologie 100%,2023-01-30_09h01.47.633,00_bat_bachelor,2022.2.4,59.85072807791082,
,,,,,,,,,,,,0,0,0,0,246,0,246,0,,,,,,,246,,,1,1219.2289793124046,Y,l,go,l,1,0.45895160571751603,,,,,,,,,,,,,,,,,,78,001,20,w,Psychologie 100%,2023-01-30_09h01.47.633,00_bat_bachelor,2022.2.4,59.85072807791082,
,,,,,,,,,,,,0,0,0,0,247,0,247,0,,,,,,,247,,,1,1220.7965087864586,X,d,go,d,1,0.49016045404266606,,,,,,,,,,,,,,,,,,78,001,20,w,Psychologie 100%,2023-01-30_09h01.47.633,00_bat_bachelor,2022.2.4,59.85072807791082,
,,,,,,,,,,,,0,0,0,0,248,0,248,0,,,,,,,248,,,1,1222.3981193624027,X,None,nogo,None,1,,,,,,,,,,,,,,,,,,,78,001,20,w,Psychologie 100%,2023-01-30_09h01.47.633,00_bat_bachelor,2022.2.4,59.85072807791082,
,,,,,,,,,,,,0,0,0,0,249,0,249,0,,,,,,,249,,,1,1224.1992322879314,Y,l,go,l,1,0.3511368844968956,,,,,,,,,,,,,,,,,,78,001,20,w,Psychologie 100%,2023-01-30_09h01.47.633,00_bat_bachelor,2022.2.4,59.85072807791082,
,,,,,,,,,,,,1,0,1,0,0,0,0,0,,,,,,,0,,,0.2,1242.896771963237,X,d,go,d,1,0.5993385744912985,,,,,,,,,1224.6704089034042,space,17.99579829409265,,,,,,,78,001,20,w,Psychologie 100%,2023-01-30_09h01.47.633,00_bat_bachelor,2022.2.4,59.85072807791082,
,,,,,,,,,,,,1,0,1,0,1,0,1,0,,,,,,,1,,,0.2,1243.797743215489,Y,l,go,l,1,0.4973512698132936,,,,,,,,,,,,,,,,,,78,001,20,w,Psychologie 100%,2023-01-30_09h01.47.633,00_bat_bachelor,2022.2.4,59.85072807791082,
,,,,,,,,,,,,1,0,1,0,2,0,2,0,,,,,,,2,,,0.2,1244.5980716531267,X,d,go,d,1,0.4482199277284735,,,,,,,,,,,,,,,,,,78,001,20,w,Psychologie 100%,2023-01-30_09h01.47.633,00_bat_bachelor,2022.2.4,59.85072807791082,
,,,,,,,,,,,,1,0,1,0,3,0,3,0,,,,,,,3,,,0.2,1245.3490384447555,Y,l,go,l,1,0.40204083951846314,,,,,,,,,,,,,,,,,,78,001,20,w,Psychologie 100%,2023-01-30_09h01.47.633,00_bat_bachelor,2022.2.4,59.85072807791082,
,,,,,,,,,,,,1,0,1,0,4,0,4,0,,,,,,,4,,,0.2,1246.0661568626692,X,d,go,d,1,0.309265206933901,,,,,,,,,,,,,,,,,,78,001,20,w,Psychologie 100%,2023-01-30_09h01.47.633,00_bat_bachelor,2022.2.4,59.85072807791082,
,,,,,,,,,,,,1,0,1,0,5,0,5,0,,,,,,,5,,,0.2,1246.6830450736297,X,None,nogo,None,1,,,,,,,,,,,,,,,,,,,78,001,20,w,Psychologie 100%,2023-01-30_09h01.47.633,00_bat_bachelor,2022.2.4,59.85072807791082,
,,,,,,,,,,,,1,0,1,0,6,0,6,0,,,,,,,6,,,0.2,1247.6837849552871,Y,l,go,l,1,0.4029814492276955,,,,,,,,,,,,,,,,,,78,001,20,w,Psychologie 100%,2023-01-30_09h01.47.633,00_bat_bachelor,2022.2.4,59.85072807791082,
,,,,,,,,,,,,1,0,1,0,7,0,7,0,,,,,,,7,,,0.2,1248.4009998584238,X,d,go,d,1,0.39026236958977734,,,,,,,,,,,,,,,,,,78,001,20,w,Psychologie 100%,2023-01-30_09h01.47.633,00_bat_bachelor,2022.2.4,59.85072807791082,
,,,,,,,,,,,,1,0,1,0,8,0,8,0,,,,,,,8,,,0.2,1249.1015344544367,X,None,nogo,None,1,,,,,,,,,,,,,,,,,,,78,001,20,w,Psychologie 100%,2023-01-30_09h01.47.633,00_bat_bachelor,2022.2.4,59.85072807791082,
,,,,,,,,,,,,1,0,1,0,9,0,9,0,,,,,,,9,,,0.2,1250.1025133673247,Y,l,go,l,1,0.36795973762843914,,,,,,,,,,,,,,,,,,78,001,20,w,Psychologie 100%,2023-01-30_09h01.47.633,00_bat_bachelor,2022.2.4,59.85072807791082,
,,,,,,,,,,,,1,0,1,0,10,0,10,0,,,,,,,10,,,0.2,1250.786593111634,X,d,go,d,1,0.4047390318022508,,,,,,,,,,,,,,,,,,78,001,20,w,Psychologie 100%,2023-01-30_09h01.47.633,00_bat_bachelor,2022.2.4,59.85072807791082,
,,,,,,,,,,,,1,0,1,0,11,0,11,0,,,,,,,11,,,0.2,1251.5035864381534,X,None,nogo,None,1,,,,,,,,,,,,,,,,,,,78,001,20,w,Psychologie 100%,2023-01-30_09h01.47.633,00_bat_bachelor,2022.2.4,59.85072807791082,
,,,,,,,,,,,,1,0,1,0,12,0,12,0,,,,,,,12,,,0.2,1252.5041605009865,Y,l,go,l,1,0.41541107319687853,,,,,,,,,,,,,,,,,,78,001,20,w,Psychologie 100%,2023-01-30_09h01.47.633,00_bat_bachelor,2022.2.4,59.85072807791082,
,,,,,,,,,,,,1,0,1,0,13,0,13,0,,,,,,,13,,,0.2,1253.221719163032,X,d,go,d,1,0.3530617404479699,,,,,,,,,,,,,,,,,,78,001,20,w,Psychologie 100%,2023-01-30_09h01.47.633,00_bat_bachelor,2022.2.4,59.85072807791082,
,,,,,,,,,,,,1,0,1,0,14,0,14,0,,,,,,,14,,,0.2,1253.888986236068,Y,l,go,l,1,0.5976445073146124,,,,,,,,,,,,,,,,,,78,001,20,w,Psychologie 100%,2023-01-30_09h01.47.633,00_bat_bachelor,2022.2.4,59.85072807791082,
,,,,,,,,,,,,1,0,1,0,15,0,15,0,,,,,,,15,,,0.2,1254.7893630617718,Y,None,nogo,d,0,0.36978665380536313,,,,,,,,,,,,,,,,,,78,001,20,w,Psychologie 100%,2023-01-30_09h01.47.633,00_bat_bachelor,2022.2.4,59.85072807791082,
,,,,,,,,,,,,1,0,1,0,16,0,16,0,,,,,,,16,,,0.2,1255.4733075328295,Y,None,nogo,None,1,,,,,,,,,,,,,,,,,,,78,001,20,w,Psychologie 100%,2023-01-30_09h01.47.633,00_bat_bachelor,2022.2.4,59.85072807791082,
,,,,,,,,,,,,1,0,1,0,17,0,17,0,,,,,,,17,,,0.2,1256.474208869659,X,d,go,d,1,0.41407240133764844,,,,,,,,,,,,,,,,,,78,001,20,w,Psychologie 100%,2023-01-30_09h01.47.633,00_bat_bachelor,2022.2.4,59.85072807791082,
,,,,,,,,,,,,1,0,1,0,18,0,18,0,,,,,,,18,,,0.2,1257.1913975908756,Y,l,go,l,1,0.35153494664689333,,,,,,,,,,,,,,,,,,78,001,20,w,Psychologie 100%,2023-01-30_09h01.47.633,00_bat_bachelor,2022.2.4,59.85072807791082,
,,,,,,,,,,,,1,0,1,0,19,0,19,0,,,,,,,19,,,0.2,1257.8582375107394,Y,None,nogo,l,0,0.5009411019194658,,,,,,,,,,,,,,,,,,78,001,20,w,Psychologie 100%,2023-01-30_09h01.47.633,00_bat_bachelor,2022.2.4,59.85072807791082,
,,,,,,,,,,,,1,0,1,0,20,0,20,0,,,,,,,20,,,0.2,1258.6758387426476,X,d,go,d,1,0.4356293334375323,,,,,,,,,,,,,,,,,,78,001,20,w,Psychologie 100%,2023-01-30_09h01.47.633,00_bat_bachelor,2022.2.4,59.85072807791082,
,,,,,,,,,,,,1,0,1,0,21,0,21,0,,,,,,,21,,,0.2,1259.4261136528048,Y,l,go,l,1,0.46804351977141323,,,,,,,,,,,,,,,,,,78,001,20,w,Psychologie 100%,2023-01-30_09h01.47.633,00_bat_bachelor,2022.2.4,59.85072807791082,
,,,,,,,,,,,,1,0,1,0,22,0,22,0,,,,,,,22,,,0.2,1260.2102272396696,Y,None,nogo,None,1,,,,,,,,,,,,,,,,,,,78,001,20,w,Psychologie 100%,2023-01-30_09h01.47.633,00_bat_bachelor,2022.2.4,59.85072807791082,
,,,,,,,,,,,,1,0,1,0,23,0,23,0,,,,,,,23,,,0.2,1261.2108231207685,X,d,go,d,1,0.460632097084158,,,,,,,,,,,,,,,,,,78,001,20,w,Psychologie 100%,2023-01-30_09h01.47.633,00_bat_bachelor,2022.2.4,59.85072807791082,
,,,,,,,,,,,,1,0,1,0,24,0,24,0,,,,,,,24,,,0.2,1261.9780605209621,Y,l,go,l,1,0.41276572960293834,,,,,,,,,,,,,,,,,,78,001,20,w,Psychologie 100%,2023-01-30_09h01.47.633,00_bat_bachelor,2022.2.4,59.85072807791082,
,,,,,,,,,,,,1,0,1,0,25,0,25,0,,,,,,,25,,,0.2,1262.6952734846973,X,d,go,d,1,0.48040720409096593,,,,,,,,,,,,,,,,,,78,001,20,w,Psychologie 100%,2023-01-30_09h01.47.633,00_bat_bachelor,2022.2.4,59.85072807791082,
,,,,,,,,,,,,1,0,1,0,26,0,26,0,,,,,,,26,,,0.2,1263.4794791931317,X,None,nogo,None,1,,1264.280079146974,,,,,,,,,,,,,,,,,78,001,20,w,Psychologie 100%,2023-01-30_09h01.47.633,00_bat_bachelor,2022.2.4,59.85072807791082,
,,,,,,,,,,,,1,0,1,0,27,0,27,0,,,,,,,27,,,0.2,1264.480330105523,Y,l,go,l,1,0.5190812934937412,,,,,,,,,,,,,,,,,,78,001,20,w,Psychologie 100%,2023-01-30_09h01.47.633,00_bat_bachelor,2022.2.4,59.85072807791082,
,,,,,,,,,,,,1,0,1,0,28,0,28,0,,,,,,,28,,,0.2,1265.3142063096489,X,d,go,d,1,0.42140285401353594,,,,,,,,,,,,,,,,,,78,001,20,w,Psychologie 100%,2023-01-30_09h01.47.633,00_bat_bachelor,2022.2.4,59.85072807791082,
,,,,,,,,,,,,1,0,1,0,29,0,29,0,,,,,,,29,,,0.2,1266.0481131563179,Y,l,go,l,1,0.5341863217798846,,,,,,,,,,,,,,,,,,78,001,20,w,Psychologie 100%,2023-01-30_09h01.47.633,00_bat_bachelor,2022.2.4,59.85072807791082,
,,,,,,,,,,,,1,0,1,0,30,0,30,0,,,,,,,30,,,0.2,1266.8987855468044,X,d,go,d,1,0.46891237162606103,,,,,,,,,,,,,,,,,,78,001,20,w,Psychologie 100%,2023-01-30_09h01.47.633,00_bat_bachelor,2022.2.4,59.85072807791082,
,,,,,,,,,,,,1,0,1,0,31,0,31,0,,,,,,,31,,,0.2,1267.6824676168444,X,None,nogo,None,1,,,,,,,,,,,,,,,,,,,78,001,20,w,Psychologie 100%,2023-01-30_09h01.47.633,00_bat_bachelor,2022.2.4,59.85072807791082,
,,,,,,,,,,,,1,0,1,0,32,0,32,0,,,,,,,32,,,0.2,1268.683582772685,Y,l,go,l,1,0.4914142770884382,,,,,,,,,,,,,,,,,,78,001,20,w,Psychologie 100%,2023-01-30_09h01.47.633,00_bat_bachelor,2022.2.4,59.85072807791082,
,,,,,,,,,,,,1,0,1,0,33,0,33,0,,,,,,,33,,,0.2,1269.4841129080746,X,d,go,None,0,,,,,,,,,,,,,,,,,,,78,001,20,w,Psychologie 100%,2023-01-30_09h01.47.633,00_bat_bachelor,2022.2.4,59.85072807791082,
,,,,,,,,,,,,1,0,1,0,34,0,34,0,,,,,,,34,,,0.2,1270.4848731534476,Y,l,go,None,0,,,,,,,,,,,,,,,,,,,78,001,20,w,Psychologie 100%,2023-01-30_09h01.47.633,00_bat_bachelor,2022.2.4,59.85072807791082,
,,,,,,,,,,,,1,0,1,0,35,0,35,0,,,,,,,35,,,0.2,1271.4857449144047,Y,None,nogo,None,1,,,,,,,,,,,,,,,,,,,78,001,20,w,Psychologie 100%,2023-01-30_09h01.47.633,00_bat_bachelor,2022.2.4,59.85072807791082,
,,,,,,,,,,,,1,0,1,0,36,0,36,0,,,,,,,36,,,0.2,1272.4865046749273,X,d,go,None,0,,1273.2870382042697,,,,,,,,,,,,,,,,,78,001,20,w,Psychologie 100%,2023-01-30_09h01.47.633,00_bat_bachelor,2022.2.4,59.85072807791082,
,,,,,,,,,,,,1,0,1,0,37,0,37,0,,,,,,,37,,,0.2,1273.48721110191,Y,l,go,None,0,,,,,,,,,,,,,,,,,,,78,001,20,w,Psychologie 100%,2023-01-30_09h01.47.633,00_bat_bachelor,2022.2.4,59.85072807791082,
,,,,,,,,,,,,1,0,1,0,38,0,38,0,,,,,,,38,,,0.2,1274.487709043235,X,d,go,d,1,0.5271656884873437,,,,,,,,,,,,,,,,,,78,001,20,w,Psychologie 100%,2023-01-30_09h01.47.633,00_bat_bachelor,2022.2.4,59.85072807791082,
,,,,,,,,,,,,1,0,1,0,39,0,39,0,,,,,,,39,,,0.2,1275.3219115516572,Y,l,go,l,1,0.36535172751189293,,,,,,,,,,,,,,,,,,78,001,20,w,Psychologie 100%,2023-01-30_09h01.47.633,00_bat_bachelor,2022.2.4,59.85072807791082,
,,,,,,,,,,,,1,0,1,0,40,0,40,0,,,,,,,40,,,0.2,1275.988795108054,X,d,go,d,1,0.4667863027733574,,,,,,,,,,,,,,,,,,78,001,20,w,Psychologie 100%,2023-01-30_09h01.47.633,00_bat_bachelor,2022.2.4,59.85072807791082,
,,,,,,,,,,,,1,0,1,0,41,0,41,0,,,,,,,41,,,0.2,1276.7561774785067,X,None,nogo,None,1,,,,,,,,,,,,,,,,,,,78,001,20,w,Psychologie 100%,2023-01-30_09h01.47.633,00_bat_bachelor,2022.2.4,59.85072807791082,
,,,,,,,,,,,,1,0,1,0,42,0,42,0,,,,,,,42,,,0.2,1277.7570613607231,Y,l,go,l,1,0.4109785711556242,,,,,,,,,,,,,,,,,,78,001,20,w,Psychologie 100%,2023-01-30_09h01.47.633,00_bat_bachelor,2022.2.4,59.85072807791082,
,,,,,,,,,,,,1,0,1,0,43,0,43,0,,,,,,,43,,,0.2,1278.474031414425,X,d,go,d,1,0.3656406983299121,,,,,,,,,,,,,,,,,,78,001,20,w,Psychologie 100%,2023-01-30_09h01.47.633,00_bat_bachelor,2022.2.4,59.85072807791082,
,,,,,,,,,,,,1,0,1,0,44,0,44,0,,,,,,,44,,,0.2,1279.1416616403849,Y,l,go,l,1,0.6271660763680984,,,,,,,,,,,,,,,,,,78,001,20,w,Psychologie 100%,2023-01-30_09h01.47.633,00_bat_bachelor,2022.2.4,59.85072807791082,
,,,,,,,,,,,,1,0,1,0,45,0,45,0,,,,,,,45,,,0.2,1280.07533847404,Y,None,nogo,d,0,0.5712410109612165,,,,,,,,,,,,,,,,,,78,001,20,w,Psychologie 100%,2023-01-30_09h01.47.633,00_bat_bachelor,2022.2.4,59.85072807791082,
,,,,,,,,,,,,1,0,1,0,46,0,46,0,,,,,,,46,,,0.2,1280.9595930553915,X,d,go,None,0,,,,,,,,,,,,,,,,,,,78,001,20,w,Psychologie 100%,2023-01-30_09h01.47.633,00_bat_bachelor,2022.2.4,59.85072807791082,
,,,,,,,,,,,,1,0,1,0,47,0,47,0,,,,,,,47,,,0.2,1281.9603348764504,Y,l,go,l,1,0.3186039098235369,,,,,,,,,,,,,,,,,,78,001,20,w,Psychologie 100%,2023-01-30_09h01.47.633,00_bat_bachelor,2022.2.4,59.85072807791082,
,,,,,,,,,,,,1,0,1,0,48,0,48,0,,,,,,,48,,,0.2,1282.5941172135458,Y,None,nogo,None,1,,1283.394833046625,,,,,,,,,,,,,,,,,78,001,20,w,Psychologie 100%,2023-01-30_09h01.47.633,00_bat_bachelor,2022.2.4,59.85072807791082,
,,,,,,,,,,,,1,0,1,0,49,0,49,0,,,,,,,49,,,0.2,1283.5949312773091,X,d,go,d,1,0.3490219672029298,,,,,,,,,,,,,,,,,,78,001,20,w,Psychologie 100%,2023-01-30_09h01.47.633,00_bat_bachelor,2022.2.4,59.85072807791082,
,,,,,,,,,,,,1,0,1,0,50,0,50,0,,,,,,,50,,,0.2,1284.2455131947181,Y,l,go,l,1,0.40128495779833884,,,,,,,,,,,,,,,,,,78,001,20,w,Psychologie 100%,2023-01-30_09h01.47.633,00_bat_bachelor,2022.2.4,59.85072807791082,
,,,,,,,,,,,,1,0,1,0,51,0,51,0,,,,,,,51,,,0.2,1284.962681067369,X,d,go,d,1,0.4365277611644842,,,,,,,,,,,,,,,,,,78,001,20,w,Psychologie 100%,2023-01-30_09h01.47.633,00_bat_bachelor,2022.2.4,59.85072807791082,
,,,,,,,,,,,,1,0,1,0,52,0,52,0,,,,,,,52,,,0.2,1285.7132347664865,X,None,nogo,None,1,,,,,,,,,,,,,,,,,,,78,001,20,w,Psychologie 100%,2023-01-30_09h01.47.633,00_bat_bachelor,2022.2.4,59.85072807791082,
,,,,,,,,,,,,1,0,1,0,53,0,53,0,,,,,,,53,,,0.2,1286.7140022846152,Y,l,go,l,1,0.28538050822942296,,,,,,,,,,,,,,,,,,78,001,20,w,Psychologie 100%,2023-01-30_09h01.47.633,00_bat_bachelor,2022.2.4,59.85072807791082,
,,,,,,,,,,,,1,0,1,0,54,0,54,0,,,,,,,54,,,0.2,1287.3144729773499,X,d,go,None,0,,,,,,,,,,,,,,,,,,,78,001,20,w,Psychologie 100%,2023-01-30_09h01.47.633,00_bat_bachelor,2022.2.4,59.85072807791082,
,,,,,,,,,,,,1,0,1,0,55,0,55,0,,,,,,,55,,,0.2,1288.3152909199166,X,None,nogo,d,0,0.34871408722062824,,,,,,,,,,,,,,,,,,78,001,20,w,Psychologie 100%,2023-01-30_09h01.47.633,00_bat_bachelor,2022.2.4,59.85072807791082,
,,,,,,,,,,,,1,0,1,0,56,0,56,0,,,,,,,56,,,0.2,1288.9656609577155,X,None,nogo,None,1,,,,,,,,,,,,,,,,,,,78,001,20,w,Psychologie 100%,2023-01-30_09h01.47.633,00_bat_bachelor,2022.2.4,59.85072807791082,
,,,,,,,,,,,,1,0,1,0,57,0,57,0,,,,,,,57,,,0.2,1289.9661782930552,Y,l,go,l,1,0.34573322717358224,,,,,,,,,,,,,,,,,,78,001,20,w,Psychologie 100%,2023-01-30_09h01.47.633,00_bat_bachelor,2022.2.4,59.85072807791082,
,,,,,,,,,,,,1,0,1,0,58,0,58,0,,,,,,,58,,,0.2,1290.6170331812195,X,d,go,None,0,,,,,,,,,,,,,,,,,,,78,001,20,w,Psychologie 100%,2023-01-30_09h01.47.633,00_bat_bachelor,2022.2.4,59.85072807791082,
,,,,,,,,,,,,1,0,1,0,59,0,59,0,,,,,,,59,,,0.2,1291.6178617904943,Y,l,go,l,1,0.6135960843388375,,,,,,,,,,,,,,,,,,78,001,20,w,Psychologie 100%,2023-01-30_09h01.47.633,00_bat_bachelor,2022.2.4,59.85072807791082,
,,,,,,,,,,,,1,0,1,0,60,0,60,0,,,,,,,60,,,0.2,1292.5351540757492,Y,None,nogo,None,1,,,,,,,,,,,,,,,,,,,78,001,20,w,Psychologie 100%,2023-01-30_09h01.47.633,00_bat_bachelor,2022.2.4,59.85072807791082,
,,,,,,,,,,,,1,0,1,0,61,0,61,0,,,,,,,61,,,0.2,1293.5357252294798,X,d,go,d,1,0.37598304147593353,,,,,,,,,,,,,,,,,,78,001,20,w,Psychologie 100%,2023-01-30_09h01.47.633,00_bat_bachelor,2022.2.4,59.85072807791082,
,,,,,,,,,,,,1,0,1,0,62,0,62,0,,,,,,,62,,,0.2,1294.2197855797745,Y,l,go,l,1,0.41243360710257093,,,,,,,,,,,,,,,,,,78,001,20,w,Psychologie 100%,2023-01-30_09h01.47.633,00_bat_bachelor,2022.2.4,59.85072807791082,
,,,,,,,,,,,,1,0,1,0,63,0,63,0,,,,,,,63,,,0.2,1294.9369854525498,X,d,go,d,1,0.575138238199429,,,,,,,,,,,,,,,,,,78,001,20,w,Psychologie 100%,2023-01-30_09h01.47.633,00_bat_bachelor,2022.2.4,59.85072807791082,
,,,,,,,,,,,,1,0,1,0,64,0,64,0,,,,,,,64,,,0.2,1295.8209879117107,Y,l,go,l,1,0.4425423299484237,,,,,,,,,,,,,,,,,,78,001,20,w,Psychologie 100%,2023-01-30_09h01.47.633,00_bat_bachelor,2022.2.4,59.85072807791082,
,,,,,,,,,,,,1,0,1,0,65,0,65,0,,,,,,,65,,,0.2,1296.5713030644483,Y,None,nogo,None,1,,,,,,,,,,,,,,,,,,,78,001,20,w,Psychologie 100%,2023-01-30_09h01.47.633,00_bat_bachelor,2022.2.4,59.85072807791082,
,,,,,,,,,,,,1,0,1,0,66,0,66,0,,,,,,,66,,,0.2,1297.5722717954786,X,d,go,d,1,0.5949807394066511,,,,,,,,,,,,,,,,,,78,001,20,w,Psychologie 100%,2023-01-30_09h01.47.633,00_bat_bachelor,2022.2.4,59.85072807791082,
,,,,,,,,,,,,1,0,1,0,67,0,67,0,,,,,,,67,,,0.2,1298.4728939554675,Y,l,go,l,1,0.3341336670299597,,,,,,,,,,,,,,,,,,78,001,20,w,Psychologie 100%,2023-01-30_09h01.47.633,00_bat_bachelor,2022.2.4,59.85072807791082,
,,,,,,,,,,,,1,0,1,0,68,0,68,0,,,,,,,68,,,0.2,1299.1235102972523,X,d,go,d,1,0.5478052836955385,,,,,,,,,,,,,,,,,,78,001,20,w,Psychologie 100%,2023-01-30_09h01.47.633,00_bat_bachelor,2022.2.4,59.85072807791082,
,,,,,,,,,,,,1,0,1,0,69,0,69,0,,,,,,,69,,,0.2,1299.9741167480893,Y,l,go,l,1,0.4326576855477242,,,,,,,,,,,,,,,,,,78,001,20,w,Psychologie 100%,2023-01-30_09h01.47.633,00_bat_bachelor,2022.2.4,59.85072807791082,
,,,,,,,,,,,,1,0,1,0,70,0,70,0,,,,,,,70,,,0.2,1300.7080623827874,X,d,go,None,0,,,,,,,,,,,,,,,,,,,78,001,20,w,Psychologie 100%,2023-01-30_09h01.47.633,00_bat_bachelor,2022.2.4,59.85072807791082,
,,,,,,,,,,,,1,0,1,0,71,0,71,0,,,,,,,71,,,0.2,1301.708758143062,Y,l,go,l,1,0.3949416604672251,,,,,,,,,,,,,,,,,,78,001,20,w,Psychologie 100%,2023-01-30_09h01.47.633,00_bat_bachelor,2022.2.4,59.85072807791082,
,,,,,,,,,,,,1,0,1,0,72,0,72,0,,,,,,,72,,,0.2,1302.4091535870202,X,d,go,None,0,,,,,,,,,,,,,,,,,,,78,001,20,w,Psychologie 100%,2023-01-30_09h01.47.633,00_bat_bachelor,2022.2.4,59.85072807791082,
,,,,,,,,,,,,1,0,1,0,73,0,73,0,,,,,,,73,,,0.2,1303.4098158926195,X,None,nogo,None,1,,1304.2107251809948,,,,,,,,,,,,,,,,,78,001,20,w,Psychologie 100%,2023-01-30_09h01.47.633,00_bat_bachelor,2022.2.4,59.85072807791082,
,,,,,,,,,,,,1,0,1,0,74,0,74,0,,,,,,,74,,,0.2,1304.4109572303796,X,None,nogo,None,1,,,,,,,,,,,,,,,,,,,78,001,20,w,Psychologie 100%,2023-01-30_09h01.47.633,00_bat_bachelor,2022.2.4,59.85072807791082,
,,,,,,,,,,,,1,0,1,0,75,0,75,0,,,,,,,75,,,0.2,1305.411339777318,Y,l,go,l,1,0.5150982477406387,,,,,,,,,,,,,,,,,,78,001,20,w,Psychologie 100%,2023-01-30_09h01.47.633,00_bat_bachelor,2022.2.4,59.85072807791082,
,,,,,,,,,,,,1,0,1,0,76,0,76,0,,,,,,,76,,,0.2,1306.228733008419,X,d,go,d,1,0.514035940590361,,,,,,,,,,,,,,,,,,78,001,20,w,Psychologie 100%,2023-01-30_09h01.47.633,00_bat_bachelor,2022.2.4,59.85072807791082,
,,,,,,,,,,,,1,0,1,0,77,0,77,0,,,,,,,77,,,0.2,1307.0462474521114,X,None,nogo,None,1,,,,,,,,,,,,,,,,,,,78,001,20,w,Psychologie 100%,2023-01-30_09h01.47.633,00_bat_bachelor,2022.2.4,59.85072807791082,
,,,,,,,,,,,,1,0,1,0,78,0,78,0,,,,,,,78,,,0.2,1308.047095940251,Y,l,go,l,1,0.16760986960468927,,,,,,,,,,,,,,,,,,78,001,20,w,Psychologie 100%,2023-01-30_09h01.47.633,00_bat_bachelor,2022.2.4,59.85072807791082,
,,,,,,,,,,,,1,0,1,0,79,0,79,0,,,,,,,79,,,0.2,1308.5307380586205,X,d,go,d,1,0.5007665557876635,,,,,,,,,,,,,,,,,,78,001,20,w,Psychologie 100%,2023-01-30_09h01.47.633,00_bat_bachelor,2022.2.4,59.85072807791082,
,,,,,,,,,,,,1,0,1,0,80,0,80,0,,,,,,,80,,,0.2,1309.34802316809,X,None,nogo,None,1,,1310.148671606969,,,,,,,,,,,,,,,,,78,001,20,w,Psychologie 100%,2023-01-30_09h01.47.633,00_bat_bachelor,2022.2.4,59.85072807791082,
,,,,,,,,,,,,1,0,1,0,81,0,81,0,,,,,,,81,,,0.2,1310.348791171069,Y,l,go,l,1,0.3470263230982482,,,,,,,,,,,,,,,,,,78,001,20,w,Psychologie 100%,2023-01-30_09h01.47.633,00_bat_bachelor,2022.2.4,59.85072807791082,
,,,,,,,,,,,,1,0,1,0,82,0,82,0,,,,,,,82,,,0.2,1310.9992892093642,X,d,go,d,1,0.2874430616847121,,,,,,,,,,,,,,,,,,78,001,20,w,Psychologie 100%,2023-01-30_09h01.47.633,00_bat_bachelor,2022.2.4,59.85072807791082,
,,,,,,,,,,,,1,0,1,0,83,0,83,0,,,,,,,83,,,0.2,1311.5997540838948,X,None,nogo,None,1,,,,,,,,,,,,,,,,,,,78,001,20,w,Psychologie 100%,2023-01-30_09h01.47.633,00_bat_bachelor,2022.2.4,59.85072807791082,
,,,,,,,,,,,,1,0,1,0,84,0,84,0,,,,,,,84,,,0.2,1312.6001700855081,Y,l,go,l,1,0.3666036111557105,,,,,,,,,,,,,,,,,,78,001,20,w,Psychologie 100%,2023-01-30_09h01.47.633,00_bat_bachelor,2022.2.4,59.85072807791082,
,,,,,,,,,,,,1,0,1,0,85,0,85,0,,,,,,,85,,,0.2,1313.2676592200119,X,d,go,d,1,0.32414817375263283,,,,,,,,,,,,,,,,,,78,001,20,w,Psychologie 100%,2023-01-30_09h01.47.633,00_bat_bachelor,2022.2.4,59.85072807791082,
,,,,,,,,,,,,1,0,1,0,86,0,86,0,,,,,,,86,,,0.2,1313.9014522238149,Y,l,go,l,1,0.3782531108871581,,,,,,,,,,,,,,,,,,78,001,20,w,Psychologie 100%,2023-01-30_09h01.47.633,00_bat_bachelor,2022.2.4,59.85072807791082,
,,,,,,,,,,,,1,0,1,0,87,0,87,0,,,,,,,87,,,0.2,1314.585388937266,X,d,go,d,1,0.28706439354925806,,,,,,,,,,,,,,,,,,78,001,20,w,Psychologie 100%,2023-01-30_09h01.47.633,00_bat_bachelor,2022.2.4,59.85072807791082,
,,,,,,,,,,,,1,0,1,0,88,0,88,0,,,,,,,88,,,0.2,1315.1854964770773,Y,l,go,l,1,0.34283624623992637,,,,,,,,,,,,,,,,,,78,001,20,w,Psychologie 100%,2023-01-30_09h01.47.633,00_bat_bachelor,2022.2.4,59.85072807791082,
,,,,,,,,,,,,1,0,1,0,89,0,89,0,,,,,,,89,,,0.2,1315.8363489409899,X,d,go,d,1,0.267437650754232,,,,,,,,,,,,,,,,,,78,001,20,w,Psychologie 100%,2023-01-30_09h01.47.633,00_bat_bachelor,2022.2.4,59.85072807791082,
,,,,,,,,,,,,1,0,1,0,90,0,90,0,,,,,,,90,,,0.2,1316.4201868419368,X,None,nogo,None,1,,,,,,,,,,,,,,,,,,,78,001,20,w,Psychologie 100%,2023-01-30_09h01.47.633,00_bat_bachelor,2022.2.4,59.85072807791082,
,,,,,,,,,,,,1,0,1,0,91,0,91,0,,,,,,,91,,,0.2,1317.420905875029,Y,l,go,l,1,0.266613405133171,,,,,,,,,,,,,,,,,,78,001,20,w,Psychologie 100%,2023-01-30_09h01.47.633,00_bat_bachelor,2022.2.4,59.85072807791082,
,,,,,,,,,,,,1,0,1,0,92,0,92,0,,,,,,,92,,,0.2,1317.9876392247825,X,d,go,d,1,0.35483047458126293,,,,,,,,,,,,,,,,,,78,001,20,w,Psychologie 100%,2023-01-30_09h01.47.633,00_bat_bachelor,2022.2.4,59.85072807791082,
,,,,,,,,,,,,1,0,1,0,93,0,93,0,,,,,,,93,,,0.2,1318.6548156308,X,None,nogo,None,1,,,,,,,,,,,,,,,,,,,78,001,20,w,Psychologie 100%,2023-01-30_09h01.47.633,00_bat_bachelor,2022.2.4,59.85072807791082,
,,,,,,,,,,,,1,0,1,0,94,0,94,0,,,,,,,94,,,0.2,1319.6559666655676,Y,l,go,l,1,0.3999908921731503,,,,,,,,,,,,,,,,,,78,001,20,w,Psychologie 100%,2023-01-30_09h01.47.633,00_bat_bachelor,2022.2.4,59.85072807791082,
,,,,,,,,,,,,1,0,1,0,95,0,95,0,,,,,,,95,,,0.2,1320.356262715201,X,d,go,d,1,0.5474154640018014,,,,,,,,,,,,,,,,,,78,001,20,w,Psychologie 100%,2023-01-30_09h01.47.633,00_bat_bachelor,2022.2.4,59.85072807791082,
,,,,,,,,,,,,1,0,1,0,96,0,96,0,,,,,,,96,,,0.2,1321.2071334094871,Y,l,go,l,1,0.6240489733680761,,,,,,,,,,,,,,,,,,78,001,20,w,Psychologie 100%,2023-01-30_09h01.47.633,00_bat_bachelor,2022.2.4,59.85072807791082,
,,,,,,,,,,,,1,0,1,0,97,0,97,0,,,,,,,97,,,0.2,1322.1416863677532,Y,None,nogo,None,1,,1322.942420625147,,,,,,,,,,,,,,,,,78,001,20,w,Psychologie 100%,2023-01-30_09h01.47.633,00_bat_bachelor,2022.2.4,59.85072807791082,
,,,,,,,,,,,,1,0,1,0,98,0,98,0,,,,,,,98,,,0.2,1323.1423152186771,X,d,go,d,1,0.32054961433993867,,,,,,,,,,,,,,,,,,78,001,20,w,Psychologie 100%,2023-01-30_09h01.47.633,00_bat_bachelor,2022.2.4,59.85072807791082,
,,,,,,,,,,,,1,0,1,0,99,0,99,0,,,,,,,99,,,0.2,1323.7928316812868,Y,l,go,l,1,0.48639801520664605,,,,,,,,,,,,,,,,,,78,001,20,w,Psychologie 100%,2023-01-30_09h01.47.633,00_bat_bachelor,2022.2.4,59.85072807791082,
,,,,,,,,,,,,1,0,1,0,100,0,100,0,,,,,,,100,,,0.2,1324.5931509067673,X,d,go,d,1,0.5344825653531871,,,,,,,,,,,,,,,,,,78,001,20,w,Psychologie 100%,2023-01-30_09h01.47.633,00_bat_bachelor,2022.2.4,59.85072807791082,
,,,,,,,,,,,,1,0,1,0,101,0,101,0,,,,,,,101,,,0.2,1325.4437282665826,Y,l,go,None,0,,1326.2443034930561,,,,,,,,,,,,,,,,,78,001,20,w,Psychologie 100%,2023-01-30_09h01.47.633,00_bat_bachelor,2022.2.4,59.85072807791082,
,,,,,,,,,,,,1,0,1,0,102,0,102,0,,,,,,,102,,,0.2,1326.44444099662,X,d,go,d,1,0.5549679781451005,,,,,,,,,,,,,,,,,,78,001,20,w,Psychologie 100%,2023-01-30_09h01.47.633,00_bat_bachelor,2022.2.4,59.85072807791082,
,,,,,,,,,,,,1,0,1,0,103,0,103,0,,,,,,,103,,,0.2,1327.3118058154892,Y,l,go,l,1,0.3917309813467682,,,,,,,,,,,,,,,,,,78,001,20,w,Psychologie 100%,2023-01-30_09h01.47.633,00_bat_bachelor,2022.2.4,59.85072807791082,
,,,,,,,,,,,,1,0,1,0,104,0,104,0,,,,,,,104,,,0.2,1328.012359805517,X,d,go,None,0,,,,,,,,,,,,,,,,,,,78,001,20,w,Psychologie 100%,2023-01-30_09h01.47.633,00_bat_bachelor,2022.2.4,59.85072807791082,
,,,,,,,,,,,,1,0,1,0,105,0,105,0,,,,,,,105,,,0.2,1329.0129527775139,Y,l,go,l,1,0.4497743579998996,,,,,,,,,,,,,,,,,,78,001,20,w,Psychologie 100%,2023-01-30_09h01.47.633,00_bat_bachelor,2022.2.4,59.85072807791082,
,,,,,,,,,,,,1,0,1,0,106,0,106,0,,,,,,,106,,,0.2,1329.7636291437739,Y,None,nogo,d,0,0.5644254693742141,,,,,,,,,,,,,,,,,,78,001,20,w,Psychologie 100%,2023-01-30_09h01.47.633,00_bat_bachelor,2022.2.4,59.85072807791082,
,,,,,,,,,,,,1,0,1,0,107,0,107,0,,,,,,,107,,,0.2,1330.6310303264208,X,d,go,None,0,,,,,,,,,,,,,,,,,,,78,001,20,w,Psychologie 100%,2023-01-30_09h01.47.633,00_bat_bachelor,2022.2.4,59.85072807791082,
,,,,,,,,,,,,1,0,1,0,108,0,108,0,,,,,,,108,,,0.2,1331.6316785713593,Y,l,go,l,1,0.34397515974831094,,,,,,,,,,,,,,,,,,78,001,20,w,Psychologie 100%,2023-01-30_09h01.47.633,00_bat_bachelor,2022.2.4,59.85072807791082,
,,,,,,,,,,,,1,0,1,0,109,0,109,0,,,,,,,109,,,0.2,1332.2819327299212,X,d,go,d,1,0.36540603075297895,,,,,,,,,,,,,,,,,,78,001,20,w,Psychologie 100%,2023-01-30_09h01.47.633,00_bat_bachelor,2022.2.4,59.85072807791082,
,,,,,,,,,,,,1,0,1,0,110,0,110,0,,,,,,,110,,,0.2,1332.9492531364972,Y,l,go,l,1,0.6096052809801904,,,,,,,,,,,,,,,,,,78,001,20,w,Psychologie 100%,2023-01-30_09h01.47.633,00_bat_bachelor,2022.2.4,59.85072807791082,
,,,,,,,,,,,,1,0,1,0,111,0,111,0,,,,,,,111,,,0.2,1333.8664465122774,X,d,go,d,1,0.3655733041290432,,,,,,,,,,,,,,,,,,78,001,20,w,Psychologie 100%,2023-01-30_09h01.47.633,00_bat_bachelor,2022.2.4,59.85072807791082,
,,,,,,,,,,,,1,0,1,0,112,0,112,0,,,,,,,112,,,0.2,1334.5336515244667,X,None,nogo,None,1,,,,,,,,,,,,,,,,,,,78,001,20,w,Psychologie 100%,2023-01-30_09h01.47.633,00_bat_bachelor,2022.2.4,59.85072807791082,
,,,,,,,,,,,,1,0,1,0,113,0,113,0,,,,,,,113,,,0.2,1335.534693467902,Y,l,go,l,1,0.3137069211323933,,,,,,,,,,,,,,,,,,78,001,20,w,Psychologie 100%,2023-01-30_09h01.47.633,00_bat_bachelor,2022.2.4,59.85072807791082,
,,,,,,,,,,,,1,0,1,0,114,0,114,0,,,,,,,114,,,0.2,1336.1519913774214,X,d,go,None,0,,,,,,,,,,,,,,,,,,,78,001,20,w,Psychologie 100%,2023-01-30_09h01.47.633,00_bat_bachelor,2022.2.4,59.85072807791082,
,,,,,,,,,,,,1,0,1,0,115,0,115,0,,,,,,,115,,,0.2,1337.1527637440536,Y,l,go,l,1,0.5190526873219596,,,,,,,,,,,,,,,,,,78,001,20,w,Psychologie 100%,2023-01-30_09h01.47.633,00_bat_bachelor,2022.2.4,59.85072807791082,
,,,,,,,,,,,,1,0,1,0,116,0,116,0,,,,,,,116,,,0.2,1337.9866084329055,Y,None,nogo,None,1,,1338.7872040230945,,,,,,,,,,,,,,,,,78,001,20,w,Psychologie 100%,2023-01-30_09h01.47.633,00_bat_bachelor,2022.2.4,59.85072807791082,
,,,,,,,,,,,,1,0,1,0,117,0,117,0,,,,,,,117,,,0.2,1338.9873972844503,X,d,go,d,1,0.3154349278350992,,,,,,,,,,,,,,,,,,78,001,20,w,Psychologie 100%,2023-01-30_09h01.47.633,00_bat_bachelor,2022.2.4,59.85072807791082,
,,,,,,,,,,,,1,0,1,0,118,0,118,0,,,,,,,118,,,0.2,1339.6211810760965,Y,l,go,l,1,0.48253812144719177,,,,,,,,,,,,,,,,,,78,001,20,w,Psychologie 100%,2023-01-30_09h01.47.633,00_bat_bachelor,2022.2.4,59.85072807791082,
,,,,,,,,,,,,1,0,1,0,119,0,119,0,,,,,,,119,,,0.2,1340.4051690867168,X,d,go,d,1,0.5303273977204981,,,,,,,,,,,,,,,,,,78,001,20,w,Psychologie 100%,2023-01-30_09h01.47.633,00_bat_bachelor,2022.2.4,59.85072807791082,
,,,,,,,,,,,,1,0,1,0,120,0,120,0,,,,,,,120,,,0.2,1341.2390806849194,Y,l,go,l,1,0.5604026658915018,,,,,,,,,,,,,,,,,,78,001,20,w,Psychologie 100%,2023-01-30_09h01.47.633,00_bat_bachelor,2022.2.4,59.85072807791082,
,,,,,,,,,,,,1,0,1,0,121,0,121,0,,,,,,,121,,,0.2,1342.1065356859567,Y,None,nogo,None,1,,1342.907049821284,,,,,,,,,,,,,,,,,78,001,20,w,Psychologie 100%,2023-01-30_09h01.47.633,00_bat_bachelor,2022.2.4,59.85072807791082,
,,,,,,,,,,,,1,0,1,0,122,0,122,0,,,,,,,122,,,0.2,1343.1073085374392,X,d,go,None,0,,,,,,,,,,,,,,,,,,,78,001,20,w,Psychologie 100%,2023-01-30_09h01.47.633,00_bat_bachelor,2022.2.4,59.85072807791082,
,,,,,,,,,,,,1,0,1,0,123,0,123,0,,,,,,,123,,,0.2,1344.1080246614292,Y,l,go,l,1,0.4279546370020171,,,,,,,,,,,,,,,,,,78,001,20,w,Psychologie 100%,2023-01-30_09h01.47.633,00_bat_bachelor,2022.2.4,59.85072807791082,
,,,,,,,,,,,,1,0,1,0,124,0,124,0,,,,,,,124,,,0.2,1344.8415673854738,X,d,go,None,0,,,,,,,,,,,,,,,,,,,78,001,20,w,Psychologie 100%,2023-01-30_09h01.47.633,00_bat_bachelor,2022.2.4,59.85072807791082,
,,,,,,,,,,,,1,0,1,0,125,0,125,0,,,,,,,125,,,0.2,1345.8426127228618,X,None,nogo,None,1,,,,,,,,,,,,,,,,,,,78,001,20,w,Psychologie 100%,2023-01-30_09h01.47.633,00_bat_bachelor,2022.2.4,59.85072807791082,
,,,,,,,,,,,,1,0,1,0,126,0,126,0,,,,,,,126,,,0.2,1346.8431082399352,Y,l,go,l,1,0.5086201620077873,,,,,,,,,,,,,,,,,,78,001,20,w,Psychologie 100%,2023-01-30_09h01.47.633,00_bat_bachelor,2022.2.4,59.85072807791082,
,,,,,,,,,,,,1,0,1,0,127,0,127,0,,,,,,,127,,,0.2,1347.660769593288,X,d,go,None,0,,,,,,,,,,,,,,,,,,,78,001,20,w,Psychologie 100%,2023-01-30_09h01.47.633,00_bat_bachelor,2022.2.4,59.85072807791082,
,,,,,,,,,,,,1,0,1,0,128,0,128,0,,,,,,,128,,,0.2,1348.6614706869168,X,None,nogo,None,1,,1349.462123489449,,,,,,,,,,,,,,,,,78,001,20,w,Psychologie 100%,2023-01-30_09h01.47.633,00_bat_bachelor,2022.2.4,59.85072807791082,
,,,,,,,,,,,,1,0,1,0,129,0,129,0,,,,,,,129,,,0.2,1349.6619104461984,Y,l,go,l,1,0.3623694129140631,,,,,,,,,,,,,,,,,,78,001,20,w,Psychologie 100%,2023-01-30_09h01.47.633,00_bat_bachelor,2022.2.4,59.85072807791082,
,,,,,,,,,,,,1,0,1,0,130,0,130,0,,,,,,,130,,,0.2,1350.3294277020227,X,d,go,None,0,,,,,,,,,,,,,,,,,,,78,001,20,w,Psychologie 100%,2023-01-30_09h01.47.633,00_bat_bachelor,2022.2.4,59.85072807791082,
,,,,,,,,,,,,1,0,1,0,131,0,131,0,,,,,,,131,,,0.2,1351.3301860079941,X,None,nogo,None,1,,,,,,,,,,,,,,,,,,,78,001,20,w,Psychologie 100%,2023-01-30_09h01.47.633,00_bat_bachelor,2022.2.4,59.85072807791082,
,,,,,,,,,,,,1,0,1,0,132,0,132,0,,,,,,,132,,,0.2,1352.3307212827976,Y,l,go,l,1,0.42872457938290154,,,,,,,,,,,,,,,,,,78,001,20,w,Psychologie 100%,2023-01-30_09h01.47.633,00_bat_bachelor,2022.2.4,59.85072807791082,
,,,,,,,,,,,,1,0,1,0,133,0,133,0,,,,,,,133,,,0.2,1353.0647750391277,X,d,go,d,1,0.6382803012955947,,,,,,,,,,,,,,,,,,78,001,20,w,Psychologie 100%,2023-01-30_09h01.47.633,00_bat_bachelor,2022.2.4,59.85072807791082,
,,,,,,,,,,,,1,0,1,0,134,0,134,0,,,,,,,134,,,0.2,1354.0155467269692,X,None,nogo,None,1,,1354.8162009840526,,,,,,,,,,,,,,,,,78,001,20,w,Psychologie 100%,2023-01-30_09h01.47.633,00_bat_bachelor,2022.2.4,59.85072807791082,
,,,,,,,,,,,,1,0,1,0,135,0,135,0,,,,,,,135,,,0.2,1355.0160107287688,Y,l,go,l,1,0.4145082818162109,,,,,,,,,,,,,,,,,,78,001,20,w,Psychologie 100%,2023-01-30_09h01.47.633,00_bat_bachelor,2022.2.4,59.85072807791082,
,,,,,,,,,,,,1,0,1,0,136,0,136,0,,,,,,,136,,,0.2,1355.7333526627012,X,d,go,None,0,,,,,,,,,,,,,,,,,,,78,001,20,w,Psychologie 100%,2023-01-30_09h01.47.633,00_bat_bachelor,2022.2.4,59.85072807791082,
,,,,,,,,,,,,1,0,1,0,137,0,137,0,,,,,,,137,,,0.2,1356.7343679393666,Y,l,go,l,1,0.5690650025211426,,,,,,,,,,,,,,,,,,78,001,20,w,Psychologie 100%,2023-01-30_09h01.47.633,00_bat_bachelor,2022.2.4,59.85072807791082,
,,,,,,,,,,,,1,0,1,0,138,0,138,0,,,,,,,138,,,0.2,1357.6183912470933,X,d,go,d,1,0.5821957201191026,,,,,,,,,,,,,,,,,,78,001,20,w,Psychologie 100%,2023-01-30_09h01.47.633,00_bat_bachelor,2022.2.4,59.85072807791082,
,,,,,,,,,,,,1,0,1,0,139,0,139,0,,,,,,,139,,,0.2,1358.5022409783892,X,None,nogo,None,1,,,,,,,,,,,,,,,,,,,78,001,20,w,Psychologie 100%,2023-01-30_09h01.47.633,00_bat_bachelor,2022.2.4,59.85072807791082,
,,,,,,,,,,,,1,0,1,0,140,0,140,0,,,,,,,140,,,0.2,1359.5030351632881,Y,l,go,l,1,0.3922046801538954,,,,,,,,,,,,,,,,,,78,001,20,w,Psychologie 100%,2023-01-30_09h01.47.633,00_bat_bachelor,2022.2.4,59.85072807791082,
,,,,,,,,,,,,1,0,1,0,141,0,141,0,,,,,,,141,,,0.2,1360.2034989711478,X,d,go,d,1,0.4600803373685949,,,,,,,,,,,,,,,,,,78,001,20,w,Psychologie 100%,2023-01-30_09h01.47.633,00_bat_bachelor,2022.2.4,59.85072807791082,
,,,,,,,,,,,,1,0,1,0,142,0,142,0,,,,,,,142,,,0.2,1360.9705749161694,X,None,nogo,None,1,,,,,,,,,,,,,,,,,,,78,001,20,w,Psychologie 100%,2023-01-30_09h01.47.633,00_bat_bachelor,2022.2.4,59.85072807791082,
,,,,,,,,,,,,1,0,1,0,143,0,143,0,,,,,,,143,,,0.2,1361.971346313101,X,None,nogo,None,1,,1362.7723060259145,,,,,,,,,,,,,,,,,78,001,20,w,Psychologie 100%,2023-01-30_09h01.47.633,00_bat_bachelor,2022.2.4,59.85072807791082,
,,,,,,,,,,,,1,0,1,0,144,0,144,0,,,,,,,144,,,0.2,1362.972423650613,Y,l,go,l,1,0.4750525166545003,,,,,,,,,,,,,,,,,,78,001,20,w,Psychologie 100%,2023-01-30_09h01.47.633,00_bat_bachelor,2022.2.4,59.85072807791082,
,,,,,,,,,,,,1,0,1,0,145,0,145,0,,,,,,,145,,,0.2,1363.7560460840577,X,d,go,d,1,0.39546820796374504,,,,,,,,,,,,,,,,,,78,001,20,w,Psychologie 100%,2023-01-30_09h01.47.633,00_bat_bachelor,2022.2.4,59.85072807791082,
,,,,,,,,,,,,1,0,1,0,146,0,146,0,,,,,,,146,,,0.2,1364.4568473477716,X,None,nogo,None,1,,,,,,,,,,,,,,,,,,,78,001,20,w,Psychologie 100%,2023-01-30_09h01.47.633,00_bat_bachelor,2022.2.4,59.85072807791082,
,,,,,,,,,,,,1,0,1,0,147,0,147,0,,,,,,,147,,,0.2,1365.4576216538053,Y,l,go,l,1,0.37433697448511793,,,,,,,,,,,,,,,,,,78,001,20,w,Psychologie 100%,2023-01-30_09h01.47.633,00_bat_bachelor,2022.2.4,59.85072807791082,
,,,,,,,,,,,,1,0,1,0,148,0,148,0,,,,,,,148,,,0.2,1366.1415040640159,X,d,go,d,1,0.4901173023603178,,,,,,,,,,,,,,,,,,78,001,20,w,Psychologie 100%,2023-01-30_09h01.47.633,00_bat_bachelor,2022.2.4,59.85072807791082,
,,,,,,,,,,,,1,0,1,0,149,0,149,0,,,,,,,149,,,0.2,1366.9418169864416,X,None,nogo,None,1,,,,,,,,,,,,,,,,,,,78,001,20,w,Psychologie 100%,2023-01-30_09h01.47.633,00_bat_bachelor,2022.2.4,59.85072807791082,
,,,,,,,,,,,,1,0,1,0,150,0,150,0,,,,,,,150,,,0.2,1367.942901111859,Y,l,go,l,1,0.40151380717077245,,,,,,,,,,,,,,,,,,78,001,20,w,Psychologie 100%,2023-01-30_09h01.47.633,00_bat_bachelor,2022.2.4,59.85072807791082,
,,,,,,,,,,,,1,0,1,0,151,0,151,0,,,,,,,151,,,0.2,1368.660069954211,X,d,go,d,1,0.3877256324775544,,,,,,,,,,,,,,,,,,78,001,20,w,Psychologie 100%,2023-01-30_09h01.47.633,00_bat_bachelor,2022.2.4,59.85072807791082,
,,,,,,,,,,,,1,0,1,0,152,0,152,0,,,,,,,152,,,0.2,1369.360591459264,X,None,nogo,None,1,,,,,,,,,,,,,,,,,,,78,001,20,w,Psychologie 100%,2023-01-30_09h01.47.633,00_bat_bachelor,2022.2.4,59.85072807791082,
,,,,,,,,,,,,1,0,1,0,153,0,153,0,,,,,,,153,,,0.2,1370.3611126734068,Y,l,go,l,1,0.30161087421390675,,,,,,,,,,,,,,,,,,78,001,20,w,Psychologie 100%,2023-01-30_09h01.47.633,00_bat_bachelor,2022.2.4,59.85072807791082,
,,,,,,,,,,,,1,0,1,0,154,0,154,0,,,,,,,154,,,0.2,1370.9786379777474,X,d,go,d,1,0.4367488529313732,,,,,,,,,,,,,,,,,,78,001,20,w,Psychologie 100%,2023-01-30_09h01.47.633,00_bat_bachelor,2022.2.4,59.85072807791082,
,,,,,,,,,,,,1,0,1,0,155,0,155,0,,,,,,,155,,,0.2,1371.729226586091,X,None,nogo,None,1,,1372.529519629652,,,,,,,,,,,,,,,,,78,001,20,w,Psychologie 100%,2023-01-30_09h01.47.633,00_bat_bachelor,2022.2.4,59.85072807791082,
,,,,,,,,,,,,1,0,1,0,156,0,156,0,,,,,,,156,,,0.2,1372.7296876787887,Y,l,go,l,1,0.3654477278845434,,,,,,,,,,,,,,,,,,78,001,20,w,Psychologie 100%,2023-01-30_09h01.47.633,00_bat_bachelor,2022.2.4,59.85072807791082,
,,,,,,,,,,,,1,0,1,0,157,0,157,0,,,,,,,157,,,0.2,1373.3971157221458,X,d,go,d,1,0.4344157529729955,,,,,,,,,,,,,,,,,,78,001,20,w,Psychologie 100%,2023-01-30_09h01.47.633,00_bat_bachelor,2022.2.4,59.85072807791082,
,,,,,,,,,,,,1,0,1,0,158,0,158,0,,,,,,,158,,,0.2,1374.1476602091066,X,None,nogo,None,1,,,,,,,,,,,,,,,,,,,78,001,20,w,Psychologie 100%,2023-01-30_09h01.47.633,00_bat_bachelor,2022.2.4,59.85072807791082,
,,,,,,,,,,,,1,0,1,0,159,0,159,0,,,,,,,159,,,0.2,1375.1483278480596,Y,l,go,l,1,0.3317128091551922,,,,,,,,,,,,,,,,,,78,001,20,w,Psychologie 100%,2023-01-30_09h01.47.633,00_bat_bachelor,2022.2.4,59.85072807791082,
,,,,,,,,,,,,1,0,1,0,160,0,160,0,,,,,,,160,,,0.2,1375.7821513974359,X,d,go,None,0,,,,,,,,,,,,,,,,,,,78,001,20,w,Psychologie 100%,2023-01-30_09h01.47.633,00_bat_bachelor,2022.2.4,59.85072807791082,
,,,,,,,,,,,,1,0,1,0,161,0,161,0,,,,,,,161,,,0.2,1376.7830120068347,X,None,nogo,None,1,,,,,,,,,,,,,,,,,,,78,001,20,w,Psychologie 100%,2023-01-30_09h01.47.633,00_bat_bachelor,2022.2.4,59.85072807791082,
,,,,,,,,,,,,1,0,1,0,162,0,162,0,,,,,,,162,,,0.2,1377.783521584569,Y,l,go,l,1,0.41549107350681425,,,,,,,,,,,,,,,,,,78,001,20,w,Psychologie 100%,2023-01-30_09h01.47.633,00_bat_bachelor,2022.2.4,59.85072807791082,
,,,,,,,,,,,,1,0,1,0,163,0,163,0,,,,,,,163,,,0.2,1378.5010433979865,X,d,go,d,1,0.4186212674670742,,,,,,,,,,,,,,,,,,78,001,20,w,Psychologie 100%,2023-01-30_09h01.47.633,00_bat_bachelor,2022.2.4,59.85072807791082,
,,,,,,,,,,,,1,0,1,0,164,0,164,0,,,,,,,164,,,0.2,1379.2348513351812,Y,l,go,None,0,,,,,,,,,,,,,,,,,,,78,001,20,w,Psychologie 100%,2023-01-30_09h01.47.633,00_bat_bachelor,2022.2.4,59.85072807791082,
,,,,,,,,,,,,1,0,1,0,165,0,165,0,,,,,,,165,,,0.2,1380.2353463674044,X,d,go,l,0,0.04337859985878367,,,,,,,,,,,,,,,,,,78,001,20,w,Psychologie 100%,2023-01-30_09h01.47.633,00_bat_bachelor,2022.2.4,59.85072807791082,
,,,,,,,,,,,,1,0,1,0,166,0,166,0,,,,,,,166,,,0.2,1380.5859319696756,X,None,nogo,d,0,0.5099001669726704,,,,,,,,,,,,,,,,,,78,001,20,w,Psychologie 100%,2023-01-30_09h01.47.633,00_bat_bachelor,2022.2.4,59.85072807791082,
,,,,,,,,,,,,1,0,1,0,167,0,167,0,,,,,,,167,,,0.2,1381.4032539277728,Y,l,go,l,1,0.4293495515033783,,,,,,,,,,,,,,,,,,78,001,20,w,Psychologie 100%,2023-01-30_09h01.47.633,00_bat_bachelor,2022.2.4,59.85072807791082,
,,,,,,,,,,,,1,0,1,0,168,0,168,0,,,,,,,168,,,0.2,1382.136792288164,X,d,go,d,1,0.27054457189649384,,,,,,,,,,,,,,,,,,78,001,20,w,Psychologie 100%,2023-01-30_09h01.47.633,00_bat_bachelor,2022.2.4,59.85072807791082,
,,,,,,,,,,,,1,0,1,0,169,0,169,0,,,,,,,169,,,0.2,1382.7207872806298,X,None,nogo,None,1,,1383.5211879609715,,,,,,,,,,,,,,,,,78,001,20,w,Psychologie 100%,2023-01-30_09h01.47.633,00_bat_bachelor,2022.2.4,59.85072807791082,
,,,,,,,,,,,,1,0,1,0,170,0,170,0,,,,,,,170,,,0.2,1383.7214112830497,Y,l,go,l,1,0.34954221164514365,,,,,,,,,,,,,,,,,,78,001,20,w,Psychologie 100%,2023-01-30_09h01.47.633,00_bat_bachelor,2022.2.4,59.85072807791082,
,,,,,,,,,,,,1,0,1,0,171,0,171,0,,,,,,,171,,,0.2,1384.3722268983347,X,d,go,d,1,0.5480753453492753,,,,,,,,,,,,,,,,,,78,001,20,w,Psychologie 100%,2023-01-30_09h01.47.633,00_bat_bachelor,2022.2.4,59.85072807791082,
,,,,,,,,,,,,1,0,1,0,172,0,172,0,,,,,,,172,,,0.2,1385.2227853489858,Y,l,go,None,0,,,,,,,,,,,,,,,,,,,78,001,20,w,Psychologie 100%,2023-01-30_09h01.47.633,00_bat_bachelor,2022.2.4,59.85072807791082,
,,,,,,,,,,,,1,0,1,0,173,0,173,0,,,,,,,173,,,0.2,1386.22360038245,X,d,go,d,1,0.3596547357177542,,,,,,,,,,,,,,,,,,78,001,20,w,Psychologie 100%,2023-01-30_09h01.47.633,00_bat_bachelor,2022.2.4,59.85072807791082,
,,,,,,,,,,,,1,0,1,0,174,0,174,0,,,,,,,174,,,0.2,1386.8908044249383,Y,l,go,l,1,0.41292136657000356,,,,,,,,,,,,,,,,,,78,001,20,w,Psychologie 100%,2023-01-30_09h01.47.633,00_bat_bachelor,2022.2.4,59.85072807791082,
,,,,,,,,,,,,1,0,1,0,175,0,175,0,,,,,,,175,,,0.2,1387.6080198129252,X,d,go,d,1,0.3356173091482333,,,,,,,,,,,,,,,,,,78,001,20,w,Psychologie 100%,2023-01-30_09h01.47.633,00_bat_bachelor,2022.2.4,59.85072807791082,
,,,,,,,,,,,,1,0,1,0,176,0,176,0,,,,,,,176,,,0.2,1388.2582322743556,X,None,nogo,None,1,,1389.0590969564973,,,,,,,,,,,,,,,,,78,001,20,w,Psychologie 100%,2023-01-30_09h01.47.633,00_bat_bachelor,2022.2.4,59.85072807791082,
,,,,,,,,,,,,1,0,1,0,177,0,177,0,,,,,,,177,,,0.2,1389.2592994300098,Y,l,go,l,1,0.12523249311050222,,,,,,,,,,,,,,,,,,78,001,20,w,Psychologie 100%,2023-01-30_09h01.47.633,00_bat_bachelor,2022.2.4,59.85072807791082,
,,,,,,,,,,,,1,0,1,0,178,0,178,0,,,,,,,178,,,0.2,1389.6926455957164,X,d,go,d,1,0.5071942170828834,,,,,,,,,,,,,,,,,,78,001,20,w,Psychologie 100%,2023-01-30_09h01.47.633,00_bat_bachelor,2022.2.4,59.85072807791082,
,,,,,,,,,,,,1,0,1,0,179,0,179,0,,,,,,,179,,,0.2,1390.5098734928429,Y,l,go,None,0,,,,,,,,,,,,,,,,,,,78,001,20,w,Psychologie 100%,2023-01-30_09h01.47.633,00_bat_bachelor,2022.2.4,59.85072807791082,
,,,,,,,,,,,,1,0,1,0,180,0,180,0,,,,,,,180,,,0.2,1391.5109716789207,X,d,go,d,1,0.6092164309874306,,,,,,,,,,,,,,,,,,78,001,20,w,Psychologie 100%,2023-01-30_09h01.47.633,00_bat_bachelor,2022.2.4,59.85072807791082,
,,,,,,,,,,,,1,0,1,0,181,0,181,0,,,,,,,181,,,0.2,1392.428397298026,X,None,nogo,None,1,,,,,,,,,,,,,,,,,,,78,001,20,w,Psychologie 100%,2023-01-30_09h01.47.633,00_bat_bachelor,2022.2.4,59.85072807791082,
,,,,,,,,,,,,1,0,1,0,182,0,182,0,,,,,,,182,,,0.2,1393.4291522100452,Y,l,go,l,1,0.35451726124472316,,,,,,,,,,,,,,,,,,78,001,20,w,Psychologie 100%,2023-01-30_09h01.47.633,00_bat_bachelor,2022.2.4,59.85072807791082,
,,,,,,,,,,,,1,0,1,0,183,0,183,0,,,,,,,183,,,0.2,1394.0959514024785,X,d,go,d,1,0.519238385012045,,,,,,,,,,,,,,,,,,78,001,20,w,Psychologie 100%,2023-01-30_09h01.47.633,00_bat_bachelor,2022.2.4,59.85072807791082,
,,,,,,,,,,,,1,0,1,0,184,0,184,0,,,,,,,184,,,0.2,1394.9302853053491,Y,l,go,l,1,0.5175166813640999,,,,,,,,,,,,,,,,,,78,001,20,w,Psychologie 100%,2023-01-30_09h01.47.633,00_bat_bachelor,2022.2.4,59.85072807791082,
,,,,,,,,,,,,1,0,1,0,185,0,185,0,,,,,,,185,,,0.2,1395.7642143581647,X,d,go,d,1,0.4191386028068109,,,,,,,,,,,,,,,,,,78,001,20,w,Psychologie 100%,2023-01-30_09h01.47.633,00_bat_bachelor,2022.2.4,59.85072807791082,
,,,,,,,,,,,,1,0,1,0,186,0,186,0,,,,,,,186,,,0.2,1396.4980848410564,Y,l,go,l,1,0.46899819014049626,,,,,,,,,,,,,,,,,,78,001,20,w,Psychologie 100%,2023-01-30_09h01.47.633,00_bat_bachelor,2022.2.4,59.85072807791082,
,,,,,,,,,,,,1,0,1,0,187,0,187,0,,,,,,,187,,,0.2,1397.282094669943,X,d,go,d,1,0.390265763542061,,,,,,,,,,,,,,,,,,78,001,20,w,Psychologie 100%,2023-01-30_09h01.47.633,00_bat_bachelor,2022.2.4,59.85072807791082,
,,,,,,,,,,,,1,0,1,0,188,0,188,0,,,,,,,188,,,0.2,1397.9822792039922,Y,l,go,l,1,0.4093523830296135,,,,,,,,,,,,,,,,,,78,001,20,w,Psychologie 100%,2023-01-30_09h01.47.633,00_bat_bachelor,2022.2.4,59.85072807791082,
,,,,,,,,,,,,1,0,1,0,189,0,189,0,,,,,,,189,,,0.2,1398.6994911980264,X,d,go,d,1,0.4442926397676956,,,,,,,,,,,,,,,,,,78,001,20,w,Psychologie 100%,2023-01-30_09h01.47.633,00_bat_bachelor,2022.2.4,59.85072807791082,
,,,,,,,,,,,,1,0,1,0,190,0,190,0,,,,,,,190,,,0.2,1399.4502713222646,X,None,nogo,l,0,0.5413863497072953,,,,,,,,,,,,,,,,,,78,001,20,w,Psychologie 100%,2023-01-30_09h01.47.633,00_bat_bachelor,2022.2.4,59.85072807791082,
