loop_instruction.thisRepN,loop_instruction.thisTrialN,loop_instruction.thisN,loop_instruction.thisIndex,loop_rsi_practice.thisRepN,loop_rsi_practice.thisTrialN,loop_rsi_practice.thisN,loop_rsi_practice.thisIndex,loop_practice.thisRepN,loop_practice.thisTrialN,loop_practice.thisN,loop_practice.thisIndex,loop_exp.thisRepN,loop_exp.thisTrialN,loop_exp.thisN,loop_exp.thisIndex,loop_trials.thisRepN,loop_trials.thisTrialN,loop_trials.thisN,loop_trials.thisIndex,map_condition,map_x_key,map_y_key,key_resp_welcome.started,key_resp_welcome.keys,key_resp_welcome.rt,index,text_empty_rsi_practice.started,text_empty_rsi_practice.stopped,rsi,stimulus.started,stimulus,correct,trial_type,key_resp_trial.keys,key_resp_trial.corr,key_resp_trial.rt,stimulus.stopped,key_resp_instruction_rsi.started,key_resp_instruction_rsi.keys,key_resp_instruction_rsi.rt,key_resp_instruction_rsi.stopped,key_resp_instruction_final.started,key_resp_instruction_final.keys,key_resp_instruction_final.rt,key_resp_break.started,key_resp_break.keys,key_resp_break.rt,key_resp_break.stopped,key_resp_end_screen.started,image_end_screen.started,participant,session,Alter,Geschlecht (w/m/d/andere),Studiengang,date,expName,psychopyVersion,frameRate,
,,,,0,0,0,0,0,0,0,0,,,,,,,,,0,d,l,18395.87322478858,j,13.861906944774091,0,18409.77556035109,18410.79795209784,1,18410.79795209784,X,d,go,None,0,,,,,,,,,,,,,,,,80,001,23,w,"Bildungswissenschaften, Psychologie",2023-01-30_13h52.30.466,00_bat_bachelor,2022.2.4,60.039327554746585,
,,,,0,0,0,0,1,0,1,0,,,,,,,,,,,,,,,1,18412.21713831881,18413.218119651778,1,18413.218119651778,Y,l,go,l,1,0.4665665302891284,,,,,,,,,,,,,,,80,001,23,w,"Bildungswissenschaften, Psychologie",2023-01-30_13h52.30.466,00_bat_bachelor,2022.2.4,60.039327554746585,
,,,,0,0,0,0,2,0,2,0,,,,,,,,,,,,,,,2,18414.400417745113,18415.400234472472,1,18415.400234472472,X,d,go,l,0,0.34739810321480036,,,,,,,,,,,,,,,80,001,23,w,"Bildungswissenschaften, Psychologie",2023-01-30_13h52.30.466,00_bat_bachelor,2022.2.4,60.039327554746585,
,,,,0,0,0,0,3,0,3,0,,,,,,,,,,,,,,,3,18416.466868137242,18417.466967531014,1,18417.466967531014,Y,l,go,None,0,,18418.267001082655,,,,,,,,,,,,,,80,001,23,w,"Bildungswissenschaften, Psychologie",2023-01-30_13h52.30.466,00_bat_bachelor,2022.2.4,60.039327554746585,
,,,,0,0,0,0,4,0,4,0,,,,,,,,,,,,,,,4,18418.86733630672,18419.866883458337,1,18419.866883458337,Y,None,nogo,l,0,0.6169199121650308,,,,,,,,,,,,,,,80,001,23,w,"Bildungswissenschaften, Psychologie",2023-01-30_13h52.30.466,00_bat_bachelor,2022.2.4,60.039327554746585,
,,,,0,0,0,0,5,0,5,0,,,,,,,,,,,,,,,5,18421.616887943354,18422.61671970086,1,18422.61671970086,X,d,go,d,1,0.5558755779638886,,,,,,,,,,,,,,,80,001,23,w,"Bildungswissenschaften, Psychologie",2023-01-30_13h52.30.466,00_bat_bachelor,2022.2.4,60.039327554746585,
,,,,0,0,0,0,6,0,6,0,,,,,,,,,,,,,,,6,18423.88317823829,18424.88312684442,1,18424.88312684442,Y,l,go,l,1,0.6418619605246931,,,,,,,,,,,,,,,80,001,23,w,"Bildungswissenschaften, Psychologie",2023-01-30_13h52.30.466,00_bat_bachelor,2022.2.4,60.039327554746585,
,,,,0,0,0,0,7,0,7,0,,,,,,,,,,,,,,,7,18426.232849826338,18427.23312570504,1,18427.23312570504,X,d,go,None,0,,18428.03311465052,,,,,,,,,,,,,,80,001,23,w,"Bildungswissenschaften, Psychologie",2023-01-30_13h52.30.466,00_bat_bachelor,2022.2.4,60.039327554746585,
,,,,0,0,0,0,8,0,8,0,,,,,,,,,,,,,,,8,18428.633065389935,18429.632834117394,1,18429.632834117394,X,None,nogo,d,0,0.6425257178489119,,,,,,,,,,,,,,,80,001,23,w,"Bildungswissenschaften, Psychologie",2023-01-30_13h52.30.466,00_bat_bachelor,2022.2.4,60.039327554746585,
,,,,0,0,0,0,9,0,9,0,,,,,,,,,,,,,,,9,18431.382825511275,18432.3832541171,1,18432.3832541171,Y,l,go,None,0,,18433.182824638672,,,,,,,,,,,,,,80,001,23,w,"Bildungswissenschaften, Psychologie",2023-01-30_13h52.30.466,00_bat_bachelor,2022.2.4,60.039327554746585,
,,,,0,0,0,0,10,0,10,0,,,,,,,,,,,,,,,10,18433.782839862863,18434.783063862706,1,18434.783063862706,X,d,go,None,0,,18435.582920929417,,,,,,,,,,,,,,80,001,23,w,"Bildungswissenschaften, Psychologie",2023-01-30_13h52.30.466,00_bat_bachelor,2022.2.4,60.039327554746585,
,,,,0,0,0,0,11,0,11,0,,,,,,,,,,,,,,,11,18436.183099062648,18437.182824153686,1,18437.182824153686,Y,l,go,None,0,,18437.98299006885,,,,,,,,,,,,,,80,001,23,w,"Bildungswissenschaften, Psychologie",2023-01-30_13h52.30.466,00_bat_bachelor,2022.2.4,60.039327554746585,
,,,,0,0,0,0,12,0,12,0,,,,,,,,,,,,,,,12,18438.583225414157,18439.583234626334,1,18439.583234626334,Y,None,nogo,d,0,0.1982253270689398,,,,,,,,,,,,,,,80,001,23,w,"Bildungswissenschaften, Psychologie",2023-01-30_13h52.30.466,00_bat_bachelor,2022.2.4,60.039327554746585,
,,,,0,0,0,0,13,0,13,0,,,,,,,,,,,,,,,13,18440.883121026214,18441.883123935433,1,18441.883123935433,X,d,go,d,1,0.37780633103102446,,,,,,,,,,,,,,,80,001,23,w,"Bildungswissenschaften, Psychologie",2023-01-30_13h52.30.466,00_bat_bachelor,2022.2.4,60.039327554746585,
,,,,0,0,0,0,14,0,14,0,,,,,,,,,,,,,,,14,18442.966125592124,18443.96663759183,1,18443.96663759183,Y,l,go,l,1,0.3746732415165752,,,,,,,,,,,,,,,80,001,23,w,"Bildungswissenschaften, Psychologie",2023-01-30_13h52.30.466,00_bat_bachelor,2022.2.4,60.039327554746585,
,,,,1,0,1,0,0,0,0,0,,,,,,,,,,,,,,,0,18463.499944969546,18463.69978584256,0.2,18463.69978584256,X,d,go,d,1,0.5133029925636947,,18445.073387600714,j,18.405864984029904,,,,,,,,,,,80,001,23,w,"Bildungswissenschaften, Psychologie",2023-01-30_13h52.30.466,00_bat_bachelor,2022.2.4,60.039327554746585,
,,,,1,0,1,0,1,0,1,0,,,,,,,,,,,,,,,1,18464.916139676934,18465.11663800408,0.2,18465.11663800408,Y,l,go,l,1,0.29661218845285475,,,,,,,,,,,,,,,80,001,23,w,"Bildungswissenschaften, Psychologie",2023-01-30_13h52.30.466,00_bat_bachelor,2022.2.4,60.039327554746585,
,,,,1,0,1,0,2,0,2,0,,,,,,,,,,,,,,,2,18466.11609497387,18466.316600573715,0.2,18466.316600573715,X,d,go,d,1,0.3118310901336372,,,,,,,,,,,,,,,80,001,23,w,"Bildungswissenschaften, Psychologie",2023-01-30_13h52.30.466,00_bat_bachelor,2022.2.4,60.039327554746585,
,,,,1,0,1,0,3,0,3,0,,,,,,,,,,,,,,,3,18467.349745285,18467.549793672748,0.2,18467.549793672748,Y,l,go,l,1,0.29547861334867775,,,,,,,,,,,,,,,80,001,23,w,"Bildungswissenschaften, Psychologie",2023-01-30_13h52.30.466,00_bat_bachelor,2022.2.4,60.039327554746585,
,,,,1,0,1,0,4,0,4,0,,,,,,,,,,,,,,,4,18468.549464460695,18468.749752363656,0.2,18468.749752363656,X,d,go,d,1,0.31192078720778227,,,,,,,,,,,,,,,80,001,23,w,"Bildungswissenschaften, Psychologie",2023-01-30_13h52.30.466,00_bat_bachelor,2022.2.4,60.039327554746585,
,,,,1,0,1,0,5,0,5,0,,,,,,,,,,,,,,,5,18469.766437446466,18469.966218198184,0.2,18469.966218198184,Y,l,go,l,1,0.51860820222646,,,,,,,,,,,,,,,80,001,23,w,"Bildungswissenschaften, Psychologie",2023-01-30_13h52.30.466,00_bat_bachelor,2022.2.4,60.039327554746585,
,,,,1,0,1,0,6,0,6,0,,,,,,,,,,,,,,,6,18471.199876266764,18471.39976804843,0.2,18471.39976804843,Y,None,nogo,None,1,,18472.19959893357,,,,,,,,,,,,,,80,001,23,w,"Bildungswissenschaften, Psychologie",2023-01-30_13h52.30.466,00_bat_bachelor,2022.2.4,60.039327554746585,
,,,,1,0,1,0,7,0,7,0,,,,,,,,,,,,,,,7,18472.799619006226,18473.000014060643,0.2,18473.000014060643,Y,None,nogo,l,0,0.4775905250571668,,,,,,,,,,,,,,,80,001,23,w,"Bildungswissenschaften, Psychologie",2023-01-30_13h52.30.466,00_bat_bachelor,2022.2.4,60.039327554746585,
,,,,1,0,1,0,8,0,8,0,,,,,,,,,,,,,,,8,18474.583711716812,18474.78394483193,0.2,18474.78394483193,X,d,go,None,0,,18475.59880019445,,,,,,,,,,,,,,80,001,23,w,"Bildungswissenschaften, Psychologie",2023-01-30_13h52.30.466,00_bat_bachelor,2022.2.4,60.039327554746585,
,,,,1,0,1,0,9,0,9,0,,,,,,,,,,,,,,,9,18476.20038681198,18476.400665017776,0.2,18476.400665017776,Y,l,go,None,0,,18477.200370811857,,,,,,,,,,,,,,80,001,23,w,"Bildungswissenschaften, Psychologie",2023-01-30_13h52.30.466,00_bat_bachelor,2022.2.4,60.039327554746585,
,,,,1,0,1,0,10,0,10,0,,,,,,,,,,,,,,,10,18477.800549430074,18478.000421333127,0.2,18478.000421333127,Y,None,nogo,l,0,0.5151395977009088,,,,,,,,,,,,,,,80,001,23,w,"Bildungswissenschaften, Psychologie",2023-01-30_13h52.30.466,00_bat_bachelor,2022.2.4,60.039327554746585,
,,,,1,0,1,0,11,0,11,0,,,,,,,,,,,,,,,11,18479.65049616946,18479.85085970862,0.2,18479.85085970862,X,d,go,d,1,0.5055972991976887,,,,,,,,,,,,,,,80,001,23,w,"Bildungswissenschaften, Psychologie",2023-01-30_13h52.30.466,00_bat_bachelor,2022.2.4,60.039327554746585,
,,,,1,0,1,0,12,0,12,0,,,,,,,,,,,,,,,12,18481.10038637556,18481.300433308817,0.2,18481.300433308817,Y,l,go,l,1,0.28673195093870163,,,,,,,,,,,,,,,80,001,23,w,"Bildungswissenschaften, Psychologie",2023-01-30_13h52.30.466,00_bat_bachelor,2022.2.4,60.039327554746585,
,,,,1,0,1,0,13,0,13,0,,,,,,,,,,,,,,,13,18482.317071361467,18482.517177446047,0.2,18482.517177446047,Y,None,nogo,None,1,,18483.317220209865,,,,,,,,,,,,,,80,001,23,w,"Bildungswissenschaften, Psychologie",2023-01-30_13h52.30.466,00_bat_bachelor,2022.2.4,60.039327554746585,
,,,,1,0,1,0,14,0,14,0,,,,,,,,,,,,,,,14,18483.917291676393,18484.1174195793,0.2,18484.1174195793,X,d,go,d,1,0.3345908366609365,,,,,,,,,,,,,,,80,001,23,w,"Bildungswissenschaften, Psychologie",2023-01-30_13h52.30.466,00_bat_bachelor,2022.2.4,60.039327554746585,
,,,,,,,,,,,,,,,,,,,,,,,,,,,,,,,,,,,,,,18485.25740836002,None,,18485.25740836002,18485.25740836002,space,21.709858533460647,,,,,,,80,001,23,w,"Bildungswissenschaften, Psychologie",2023-01-30_13h52.30.466,00_bat_bachelor,2022.2.4,60.039327554746585,
,,,,,,,,,,,,0,0,0,0,0,0,0,0,,,,,,,0,,,1,18508.00000775745,X,d,go,d,1,0.3563522808253765,,,,,,,,,,,,,,,80,001,23,w,"Bildungswissenschaften, Psychologie",2023-01-30_13h52.30.466,00_bat_bachelor,2022.2.4,60.039327554746585,
,,,,,,,,,,,,0,0,0,0,1,0,1,0,,,,,,,1,,,1,18509.46642595553,Y,l,go,l,1,0.2979595819488168,,,,,,,,,,,,,,,80,001,23,w,"Bildungswissenschaften, Psychologie",2023-01-30_13h52.30.466,00_bat_bachelor,2022.2.4,60.039327554746585,
,,,,,,,,,,,,0,0,0,0,2,0,2,0,,,,,,,2,,,1,18510.866634246428,X,d,go,d,1,0.4180332205723971,,,,,,,,,,,,,,,80,001,23,w,"Bildungswissenschaften, Psychologie",2023-01-30_13h52.30.466,00_bat_bachelor,2022.2.4,60.039327554746585,
,,,,,,,,,,,,0,0,0,0,3,0,3,0,,,,,,,3,,,1,18512.39972198801,Y,l,go,l,1,0.46794689330272377,,,,,,,,,,,,,,,80,001,23,w,"Bildungswissenschaften, Psychologie",2023-01-30_13h52.30.466,00_bat_bachelor,2022.2.4,60.039327554746585,
,,,,,,,,,,,,0,0,0,0,4,0,4,0,,,,,,,4,,,1,18513.983045341447,X,d,go,d,1,0.5647618765942752,,,,,,,,,,,,,,,80,001,23,w,"Bildungswissenschaften, Psychologie",2023-01-30_13h52.30.466,00_bat_bachelor,2022.2.4,60.039327554746585,
,,,,,,,,,,,,0,0,0,0,5,0,5,0,,,,,,,5,,,1,18515.649947321275,Y,l,go,l,1,0.49793330300599337,,,,,,,,,,,,,,,80,001,23,w,"Bildungswissenschaften, Psychologie",2023-01-30_13h52.30.466,00_bat_bachelor,2022.2.4,60.039327554746585,
,,,,,,,,,,,,0,0,0,0,6,0,6,0,,,,,,,6,,,1,18517.249902909156,Y,None,nogo,None,1,,18518.04976870306,,,,,,,,,,,,,,80,001,23,w,"Bildungswissenschaften, Psychologie",2023-01-30_13h52.30.466,00_bat_bachelor,2022.2.4,60.039327554746585,
,,,,,,,,,,,,0,0,0,0,7,0,7,0,,,,,,,7,,,1,18519.04975609714,X,d,go,d,1,0.425982792628929,,,,,,,,,,,,,,,80,001,23,w,"Bildungswissenschaften, Psychologie",2023-01-30_13h52.30.466,00_bat_bachelor,2022.2.4,60.039327554746585,
,,,,,,,,,,,,0,0,0,0,8,0,8,0,,,,,,,8,,,1,18520.58305329294,Y,l,go,l,1,0.3491857387125492,,,,,,,,,,,,,,,80,001,23,w,"Bildungswissenschaften, Psychologie",2023-01-30_13h52.30.466,00_bat_bachelor,2022.2.4,60.039327554746585,
,,,,,,,,,,,,0,0,0,0,9,0,9,0,,,,,,,9,,,1,18522.033053559717,X,d,go,None,0,,18522.832725414308,,,,,,,,,,,,,,80,001,23,w,"Bildungswissenschaften, Psychologie",2023-01-30_13h52.30.466,00_bat_bachelor,2022.2.4,60.039327554746585,
,,,,,,,,,,,,0,0,0,0,10,0,10,0,,,,,,,10,,,1,18523.83309583855,Y,l,go,l,1,0.45957065490074456,,,,,,,,,,,,,,,80,001,23,w,"Bildungswissenschaften, Psychologie",2023-01-30_13h52.30.466,00_bat_bachelor,2022.2.4,60.039327554746585,
,,,,,,,,,,,,0,0,0,0,11,0,11,0,,,,,,,11,,,1,18525.39978889702,Y,None,nogo,None,1,,18526.199454933638,,,,,,,,,,,,,,80,001,23,w,"Bildungswissenschaften, Psychologie",2023-01-30_13h52.30.466,00_bat_bachelor,2022.2.4,60.039327554746585,
,,,,,,,,,,,,0,0,0,0,12,0,12,0,,,,,,,12,,,1,18527.19971723645,X,d,go,d,1,0.22918919078074396,,,,,,,,,,,,,,,80,001,23,w,"Bildungswissenschaften, Psychologie",2023-01-30_13h52.30.466,00_bat_bachelor,2022.2.4,60.039327554746585,
,,,,,,,,,,,,0,0,0,0,13,0,13,0,,,,,,,13,,,1,18528.533032953506,Y,l,go,l,1,0.3833820859435946,,,,,,,,,,,,,,,80,001,23,w,"Bildungswissenschaften, Psychologie",2023-01-30_13h52.30.466,00_bat_bachelor,2022.2.4,60.039327554746585,
,,,,,,,,,,,,0,0,0,0,14,0,14,0,,,,,,,14,,,1,18530.016411143588,Y,None,nogo,None,1,,18530.8161266346,,,,,,,,,,,,,,80,001,23,w,"Bildungswissenschaften, Psychologie",2023-01-30_13h52.30.466,00_bat_bachelor,2022.2.4,60.039327554746585,
,,,,,,,,,,,,0,0,0,0,15,0,15,0,,,,,,,15,,,1,18531.816386998165,X,d,go,d,1,0.31596733070909977,,,,,,,,,,,,,,,80,001,23,w,"Bildungswissenschaften, Psychologie",2023-01-30_13h52.30.466,00_bat_bachelor,2022.2.4,60.039327554746585,
,,,,,,,,,,,,0,0,0,0,16,0,16,0,,,,,,,16,,,1,18533.2330563718,Y,l,go,l,1,0.34007689473219216,,,,,,,,,,,,,,,80,001,23,w,"Bildungswissenschaften, Psychologie",2023-01-30_13h52.30.466,00_bat_bachelor,2022.2.4,60.039327554746585,
,,,,,,,,,,,,0,0,0,0,17,0,17,0,,,,,,,17,,,1,18534.683055668836,X,d,go,d,1,0.3140192104037851,,,,,,,,,,,,,,,80,001,23,w,"Bildungswissenschaften, Psychologie",2023-01-30_13h52.30.466,00_bat_bachelor,2022.2.4,60.039327554746585,
,,,,,,,,,,,,0,0,0,0,18,0,18,0,,,,,,,18,,,1,18536.099439951824,Y,l,go,l,1,0.28868637420237064,,,,,,,,,,,,,,,80,001,23,w,"Bildungswissenschaften, Psychologie",2023-01-30_13h52.30.466,00_bat_bachelor,2022.2.4,60.039327554746585,
,,,,,,,,,,,,0,0,0,0,19,0,19,0,,,,,,,19,,,1,18537.49949503038,X,d,go,d,1,0.5525141251273453,,,,,,,,,,,,,,,80,001,23,w,"Bildungswissenschaften, Psychologie",2023-01-30_13h52.30.466,00_bat_bachelor,2022.2.4,60.039327554746585,
,,,,,,,,,,,,0,0,0,0,20,0,20,0,,,,,,,20,,,1,18539.16615749523,Y,l,go,l,1,0.31078721210360527,,,,,,,,,,,,,,,80,001,23,w,"Bildungswissenschaften, Psychologie",2023-01-30_13h52.30.466,00_bat_bachelor,2022.2.4,60.039327554746585,
,,,,,,,,,,,,0,0,0,0,21,0,21,0,,,,,,,21,,,1,18540.583042141516,Y,None,nogo,None,1,,18541.382808541646,,,,,,,,,,,,,,80,001,23,w,"Bildungswissenschaften, Psychologie",2023-01-30_13h52.30.466,00_bat_bachelor,2022.2.4,60.039327554746585,
,,,,,,,,,,,,0,0,0,0,22,0,22,0,,,,,,,22,,,1,18542.383057268802,X,d,go,d,1,0.29398285667411983,,,,,,,,,,,,,,,80,001,23,w,"Bildungswissenschaften, Psychologie",2023-01-30_13h52.30.466,00_bat_bachelor,2022.2.4,60.039327554746585,
,,,,,,,,,,,,0,0,0,0,23,0,23,0,,,,,,,23,,,1,18543.783051741542,Y,l,go,l,1,0.2366059145424515,,,,,,,,,,,,,,,80,001,23,w,"Bildungswissenschaften, Psychologie",2023-01-30_13h52.30.466,00_bat_bachelor,2022.2.4,60.039327554746585,
,,,,,,,,,,,,0,0,0,0,24,0,24,0,,,,,,,24,,,1,18545.13307726872,X,d,go,d,1,0.39052050677128136,,,,,,,,,,,,,,,80,001,23,w,"Bildungswissenschaften, Psychologie",2023-01-30_13h52.30.466,00_bat_bachelor,2022.2.4,60.039327554746585,
,,,,,,,,,,,,0,0,0,0,25,0,25,0,,,,,,,25,,,1,18546.633045996074,Y,l,go,l,1,0.26679886947385967,,,,,,,,,,,,,,,80,001,23,w,"Bildungswissenschaften, Psychologie",2023-01-30_13h52.30.466,00_bat_bachelor,2022.2.4,60.039327554746585,
,,,,,,,,,,,,0,0,0,0,26,0,26,0,,,,,,,26,,,1,18547.999714424368,Y,None,nogo,None,1,,18548.79973973334,,,,,,,,,,,,,,80,001,23,w,"Bildungswissenschaften, Psychologie",2023-01-30_13h52.30.466,00_bat_bachelor,2022.2.4,60.039327554746585,
,,,,,,,,,,,,0,0,0,0,27,0,27,0,,,,,,,27,,,1,18549.799716945505,X,d,go,d,1,0.2213142856489867,,,,,,,,,,,,,,,80,001,23,w,"Bildungswissenschaften, Psychologie",2023-01-30_13h52.30.466,00_bat_bachelor,2022.2.4,60.039327554746585,
,,,,,,,,,,,,0,0,0,0,28,0,28,0,,,,,,,28,,,1,18551.132778117433,Y,l,go,l,1,0.1832333344500512,,,,,,,,,,,,,,,80,001,23,w,"Bildungswissenschaften, Psychologie",2023-01-30_13h52.30.466,00_bat_bachelor,2022.2.4,60.039327554746585,
,,,,,,,,,,,,0,0,0,0,29,0,29,0,,,,,,,29,,,1,18552.416381858755,Y,None,nogo,None,1,,18553.216422198107,,,,,,,,,,,,,,80,001,23,w,"Bildungswissenschaften, Psychologie",2023-01-30_13h52.30.466,00_bat_bachelor,2022.2.4,60.039327554746585,
,,,,,,,,,,,,0,0,0,0,30,0,30,0,,,,,,,30,,,1,18554.216042561922,X,d,go,d,1,0.30038624722510576,,,,,,,,,,,,,,,80,001,23,w,"Bildungswissenschaften, Psychologie",2023-01-30_13h52.30.466,00_bat_bachelor,2022.2.4,60.039327554746585,
,,,,,,,,,,,,0,0,0,0,31,0,31,0,,,,,,,31,,,1,18555.63269545068,Y,l,go,l,1,0.27523619891144335,,,,,,,,,,,,,,,80,001,23,w,"Bildungswissenschaften, Psychologie",2023-01-30_13h52.30.466,00_bat_bachelor,2022.2.4,60.039327554746585,
,,,,,,,,,,,,0,0,0,0,32,0,32,0,,,,,,,32,,,1,18557.01638059807,X,d,go,d,1,0.42914739716798067,,,,,,,,,,,,,,,80,001,23,w,"Bildungswissenschaften, Psychologie",2023-01-30_13h52.30.466,00_bat_bachelor,2022.2.4,60.039327554746585,
,,,,,,,,,,,,0,0,0,0,33,0,33,0,,,,,,,33,,,1,18558.54971706681,X,None,nogo,None,1,,18559.349701648578,,,,,,,,,,,,,,80,001,23,w,"Bildungswissenschaften, Psychologie",2023-01-30_13h52.30.466,00_bat_bachelor,2022.2.4,60.039327554746585,
,,,,,,,,,,,,0,0,0,0,34,0,34,0,,,,,,,34,,,1,18560.349719103193,Y,l,go,None,0,,18561.14987919992,,,,,,,,,,,,,,80,001,23,w,"Bildungswissenschaften, Psychologie",2023-01-30_13h52.30.466,00_bat_bachelor,2022.2.4,60.039327554746585,
,,,,,,,,,,,,0,0,0,0,35,0,35,0,,,,,,,35,,,1,18562.149793381803,X,d,go,d,1,0.43055297201499343,,,,,,,,,,,,,,,80,001,23,w,"Bildungswissenschaften, Psychologie",2023-01-30_13h52.30.466,00_bat_bachelor,2022.2.4,60.039327554746585,
,,,,,,,,,,,,0,0,0,0,36,0,36,0,,,,,,,36,,,1,18563.68303772947,Y,l,go,l,1,0.41683952417224646,,,,,,,,,,,,,,,80,001,23,w,"Bildungswissenschaften, Psychologie",2023-01-30_13h52.30.466,00_bat_bachelor,2022.2.4,60.039327554746585,
,,,,,,,,,,,,0,0,0,0,37,0,37,0,,,,,,,37,,,1,18565.199399176054,X,d,go,d,1,0.4211357645690441,,,,,,,,,,,,,,,80,001,23,w,"Bildungswissenschaften, Psychologie",2023-01-30_13h52.30.466,00_bat_bachelor,2022.2.4,60.039327554746585,
,,,,,,,,,,,,0,0,0,0,38,0,38,0,,,,,,,38,,,1,18566.733113826253,X,None,nogo,None,1,,18567.5330247113,,,,,,,,,,,,,,80,001,23,w,"Bildungswissenschaften, Psychologie",2023-01-30_13h52.30.466,00_bat_bachelor,2022.2.4,60.039327554746585,
,,,,,,,,,,,,0,0,0,0,39,0,39,0,,,,,,,39,,,1,18568.532767741708,X,None,nogo,d,0,0.5274862584192306,,,,,,,,,,,,,,,80,001,23,w,"Bildungswissenschaften, Psychologie",2023-01-30_13h52.30.466,00_bat_bachelor,2022.2.4,60.039327554746585,
,,,,,,,,,,,,0,0,0,0,40,0,40,0,,,,,,,40,,,1,18570.166050343774,Y,l,go,l,1,0.3823188135866076,,,,,,,,,,,,,,,80,001,23,w,"Bildungswissenschaften, Psychologie",2023-01-30_13h52.30.466,00_bat_bachelor,2022.2.4,60.039327554746585,
,,,,,,,,,,,,0,0,0,0,41,0,41,0,,,,,,,41,,,1,18571.64934950322,X,d,go,d,1,0.6430871719494462,,,,,,,,,,,,,,,80,001,23,w,"Bildungswissenschaften, Psychologie",2023-01-30_13h52.30.466,00_bat_bachelor,2022.2.4,60.039327554746585,
,,,,,,,,,,,,0,0,0,0,42,0,42,0,,,,,,,42,,,1,18573.39939616993,Y,l,go,l,1,0.3005830957554281,,,,,,,,,,,,,,,80,001,23,w,"Bildungswissenschaften, Psychologie",2023-01-30_13h52.30.466,00_bat_bachelor,2022.2.4,60.039327554746585,
,,,,,,,,,,,,0,0,0,0,43,0,43,0,,,,,,,43,,,1,18574.81652808888,Y,None,nogo,None,1,,18575.61636673147,,,,,,,,,,,,,,80,001,23,w,"Bildungswissenschaften, Psychologie",2023-01-30_13h52.30.466,00_bat_bachelor,2022.2.4,60.039327554746585,
,,,,,,,,,,,,0,0,0,0,44,0,44,0,,,,,,,44,,,1,18576.616050125565,X,d,go,d,1,0.44459805614314973,,,,,,,,,,,,,,,80,001,23,w,"Bildungswissenschaften, Psychologie",2023-01-30_13h52.30.466,00_bat_bachelor,2022.2.4,60.039327554746585,
,,,,,,,,,,,,0,0,0,0,45,0,45,0,,,,,,,45,,,1,18578.166079434566,Y,l,go,l,1,0.4781165854074061,,,,,,,,,,,,,,,80,001,23,w,"Bildungswissenschaften, Psychologie",2023-01-30_13h52.30.466,00_bat_bachelor,2022.2.4,60.039327554746585,
,,,,,,,,,,,,0,0,0,0,46,0,46,0,,,,,,,46,,,1,18579.749680606183,X,d,go,d,1,0.31786308716982603,,,,,,,,,,,,,,,80,001,23,w,"Bildungswissenschaften, Psychologie",2023-01-30_13h52.30.466,00_bat_bachelor,2022.2.4,60.039327554746585,
,,,,,,,,,,,,0,0,0,0,47,0,47,0,,,,,,,47,,,1,18581.183028274914,Y,l,go,l,1,0.5337509824894369,,,,,,,,,,,,,,,80,001,23,w,"Bildungswissenschaften, Psychologie",2023-01-30_13h52.30.466,00_bat_bachelor,2022.2.4,60.039327554746585,
,,,,,,,,,,,,0,0,0,0,48,0,48,0,,,,,,,48,,,1,18582.81619402836,X,d,go,None,0,,18583.616218852578,,,,,,,,,,,,,,80,001,23,w,"Bildungswissenschaften, Psychologie",2023-01-30_13h52.30.466,00_bat_bachelor,2022.2.4,60.039327554746585,
,,,,,,,,,,,,0,0,0,0,49,0,49,0,,,,,,,49,,,1,18584.61633618595,Y,l,go,l,1,0.44414617749862373,,,,,,,,,,,,,,,80,001,23,w,"Bildungswissenschaften, Psychologie",2023-01-30_13h52.30.466,00_bat_bachelor,2022.2.4,60.039327554746585,
,,,,,,,,,,,,0,0,0,0,50,0,50,0,,,,,,,50,,,1,18586.166459555505,Y,None,nogo,None,1,,18586.966403895058,,,,,,,,,,,,,,80,001,23,w,"Bildungswissenschaften, Psychologie",2023-01-30_13h52.30.466,00_bat_bachelor,2022.2.4,60.039327554746585,
,,,,,,,,,,,,0,0,0,0,51,0,51,0,,,,,,,51,,,1,18587.966358804144,Y,None,nogo,None,1,,18588.76632593153,,,,,,,,,,,,,,80,001,23,w,"Bildungswissenschaften, Psychologie",2023-01-30_13h52.30.466,00_bat_bachelor,2022.2.4,60.039327554746585,
,,,,,,,,,,,,0,0,0,0,52,0,52,0,,,,,,,52,,,1,18589.766014658846,X,d,go,d,1,0.4470853277016431,,,,,,,,,,,,,,,80,001,23,w,"Bildungswissenschaften, Psychologie",2023-01-30_13h52.30.466,00_bat_bachelor,2022.2.4,60.039327554746585,
,,,,,,,,,,,,0,0,0,0,53,0,53,0,,,,,,,53,,,1,18591.316195240477,Y,l,go,l,1,0.3202839344739914,,,,,,,,,,,,,,,80,001,23,w,"Bildungswissenschaften, Psychologie",2023-01-30_13h52.30.466,00_bat_bachelor,2022.2.4,60.039327554746585,
,,,,,,,,,,,,0,0,0,0,54,0,54,0,,,,,,,54,,,1,18592.74952496984,Y,None,nogo,None,1,,18593.54940530937,,,,,,,,,,,,,,80,001,23,w,"Bildungswissenschaften, Psychologie",2023-01-30_13h52.30.466,00_bat_bachelor,2022.2.4,60.039327554746585,
,,,,,,,,,,,,0,0,0,0,55,0,55,0,,,,,,,55,,,1,18594.54969670321,X,d,go,d,1,0.3347416245378554,,,,,,,,,,,,,,,80,001,23,w,"Bildungswissenschaften, Psychologie",2023-01-30_13h52.30.466,00_bat_bachelor,2022.2.4,60.039327554746585,
,,,,,,,,,,,,0,0,0,0,56,0,56,0,,,,,,,56,,,1,18595.99943272746,Y,l,go,l,1,0.2616056601982564,,,,,,,,,,,,,,,80,001,23,w,"Bildungswissenschaften, Psychologie",2023-01-30_13h52.30.466,00_bat_bachelor,2022.2.4,60.039327554746585,
,,,,,,,,,,,,0,0,0,0,57,0,57,0,,,,,,,57,,,1,18597.366355701117,X,d,go,d,1,0.589837743435055,,,,,,,,,,,,,,,80,001,23,w,"Bildungswissenschaften, Psychologie",2023-01-30_13h52.30.466,00_bat_bachelor,2022.2.4,60.039327554746585,
,,,,,,,,,,,,0,0,0,0,58,0,58,0,,,,,,,58,,,1,18599.066357785836,Y,l,go,l,1,0.3780700883362442,,,,,,,,,,,,,,,80,001,23,w,"Bildungswissenschaften, Psychologie",2023-01-30_13h52.30.466,00_bat_bachelor,2022.2.4,60.039327554746585,
,,,,,,,,,,,,0,0,0,0,59,0,59,0,,,,,,,59,,,1,18600.54937330936,X,d,go,d,1,0.5436995839700103,,,,,,,,,,,,,,,80,001,23,w,"Bildungswissenschaften, Psychologie",2023-01-30_13h52.30.466,00_bat_bachelor,2022.2.4,60.039327554746585,
,,,,,,,,,,,,0,0,0,0,60,0,60,0,,,,,,,60,,,1,18602.199683781946,Y,l,go,l,1,0.2676783842034638,,,,,,,,,,,,,,,80,001,23,w,"Bildungswissenschaften, Psychologie",2023-01-30_13h52.30.466,00_bat_bachelor,2022.2.4,60.039327554746585,
,,,,,,,,,,,,0,0,0,0,61,0,61,0,,,,,,,61,,,1,18603.583054747432,X,d,go,d,1,0.5324336499907076,,,,,,,,,,,,,,,80,001,23,w,"Bildungswissenschaften, Psychologie",2023-01-30_13h52.30.466,00_bat_bachelor,2022.2.4,60.039327554746585,
,,,,,,,,,,,,0,0,0,0,62,0,62,0,,,,,,,62,,,1,18605.216340258718,X,None,nogo,None,1,,18606.016316113295,,,,,,,,,,,,,,80,001,23,w,"Bildungswissenschaften, Psychologie",2023-01-30_13h52.30.466,00_bat_bachelor,2022.2.4,60.039327554746585,
,,,,,,,,,,,,0,0,0,0,63,0,63,0,,,,,,,63,,,1,18607.01604944677,Y,l,go,l,1,0.41240461729466915,,,,,,,,,,,,,,,80,001,23,w,"Bildungswissenschaften, Psychologie",2023-01-30_13h52.30.466,00_bat_bachelor,2022.2.4,60.039327554746585,
,,,,,,,,,,,,0,0,0,0,64,0,64,0,,,,,,,64,,,1,18608.53299901425,X,d,go,d,1,0.38333263131789863,,,,,,,,,,,,,,,80,001,23,w,"Bildungswissenschaften, Psychologie",2023-01-30_13h52.30.466,00_bat_bachelor,2022.2.4,60.039327554746585,
,,,,,,,,,,,,0,0,0,0,65,0,65,0,,,,,,,65,,,1,18610.01603247691,Y,l,go,l,1,0.5003502715844661,,,,,,,,,,,,,,,80,001,23,w,"Bildungswissenschaften, Psychologie",2023-01-30_13h52.30.466,00_bat_bachelor,2022.2.4,60.039327554746585,
,,,,,,,,,,,,0,0,0,0,66,0,66,0,,,,,,,66,,,1,18611.61654030718,Y,None,nogo,None,1,,18612.416369252605,,,,,,,,,,,,,,80,001,23,w,"Bildungswissenschaften, Psychologie",2023-01-30_13h52.30.466,00_bat_bachelor,2022.2.4,60.039327554746585,
,,,,,,,,,,,,0,0,0,0,67,0,67,0,,,,,,,67,,,1,18613.41633773758,X,d,go,d,1,0.18816569563932717,,,,,,,,,,,,,,,80,001,23,w,"Bildungswissenschaften, Psychologie",2023-01-30_13h52.30.466,00_bat_bachelor,2022.2.4,60.039327554746585,
,,,,,,,,,,,,0,0,0,0,68,0,68,0,,,,,,,68,,,1,18614.716337107122,Y,l,go,l,1,0.4240400055423379,,,,,,,,,,,,,,,80,001,23,w,"Bildungswissenschaften, Psychologie",2023-01-30_13h52.30.466,00_bat_bachelor,2022.2.4,60.039327554746585,
,,,,,,,,,,,,0,0,0,0,69,0,69,0,,,,,,,69,,,1,18616.249660000205,X,d,go,d,1,0.4738251934759319,,,,,,,,,,,,,,,80,001,23,w,"Bildungswissenschaften, Psychologie",2023-01-30_13h52.30.466,00_bat_bachelor,2022.2.4,60.039327554746585,
,,,,,,,,,,,,0,0,0,0,70,0,70,0,,,,,,,70,,,1,18617.832947474904,Y,l,go,l,1,0.4282402459066361,,,,,,,,,,,,,,,80,001,23,w,"Bildungswissenschaften, Psychologie",2023-01-30_13h52.30.466,00_bat_bachelor,2022.2.4,60.039327554746585,
,,,,,,,,,,,,0,0,0,0,71,0,71,0,,,,,,,71,,,1,18619.366335337516,Y,None,nogo,None,1,,18620.1663373739,,,,,,,,,,,,,,80,001,23,w,"Bildungswissenschaften, Psychologie",2023-01-30_13h52.30.466,00_bat_bachelor,2022.2.4,60.039327554746585,
,,,,,,,,,,,,0,0,0,0,72,0,72,0,,,,,,,72,,,1,18621.166326222243,X,d,go,d,1,0.24664518237113953,,,,,,,,,,,,,,,80,001,23,w,"Bildungswissenschaften, Psychologie",2023-01-30_13h52.30.466,00_bat_bachelor,2022.2.4,60.039327554746585,
,,,,,,,,,,,,0,0,0,0,73,0,73,0,,,,,,,73,,,1,18622.516084598145,Y,l,go,l,1,0.36799833574332297,,,,,,,,,,,,,,,80,001,23,w,"Bildungswissenschaften, Psychologie",2023-01-30_13h52.30.466,00_bat_bachelor,2022.2.4,60.039327554746585,
,,,,,,,,,,,,0,0,0,0,74,0,74,0,,,,,,,74,,,1,18623.99965478806,Y,None,nogo,None,1,,18624.79972809693,,,,,,,,,,,,,,80,001,23,w,"Bildungswissenschaften, Psychologie",2023-01-30_13h52.30.466,00_bat_bachelor,2022.2.4,60.039327554746585,
,,,,,,,,,,,,0,0,0,0,75,0,75,0,,,,,,,75,,,1,18625.79964082432,X,d,go,d,1,0.31671157269738615,,,,,,,,,,,,,,,80,001,23,w,"Bildungswissenschaften, Psychologie",2023-01-30_13h52.30.466,00_bat_bachelor,2022.2.4,60.039327554746585,
,,,,,,,,,,,,0,0,0,0,76,0,76,0,,,,,,,76,,,1,18627.232905583922,Y,l,go,l,1,0.37160754622891545,,,,,,,,,,,,,,,80,001,23,w,"Bildungswissenschaften, Psychologie",2023-01-30_13h52.30.466,00_bat_bachelor,2022.2.4,60.039327554746585,
,,,,,,,,,,,,0,0,0,0,77,0,77,0,,,,,,,77,,,1,18628.71658292529,X,d,go,d,1,0.5670372694730759,,,,,,,,,,,,,,,80,001,23,w,"Bildungswissenschaften, Psychologie",2023-01-30_13h52.30.466,00_bat_bachelor,2022.2.4,60.039327554746585,
,,,,,,,,,,,,0,0,0,0,78,0,78,0,,,,,,,78,,,1,18630.39965895773,X,None,nogo,None,1,,18631.199668751564,,,,,,,,,,,,,,80,001,23,w,"Bildungswissenschaften, Psychologie",2023-01-30_13h52.30.466,00_bat_bachelor,2022.2.4,60.039327554746585,
,,,,,,,,,,,,0,0,0,0,79,0,79,0,,,,,,,79,,,1,18632.199376872974,X,None,nogo,d,0,0.42911830614320934,,,,,,,,,,,,,,,80,001,23,w,"Bildungswissenschaften, Psychologie",2023-01-30_13h52.30.466,00_bat_bachelor,2022.2.4,60.039327554746585,
,,,,,,,,,,,,0,0,0,0,80,0,80,0,,,,,,,80,,,1,18633.732775402255,Y,l,go,l,1,0.5753068411722779,,,,,,,,,,,,,,,80,001,23,w,"Bildungswissenschaften, Psychologie",2023-01-30_13h52.30.466,00_bat_bachelor,2022.2.4,60.039327554746585,
,,,,,,,,,,,,0,0,0,0,81,0,81,0,,,,,,,81,,,1,18635.416325616185,X,d,go,None,0,,18636.216326198075,,,,,,,,,,,,,,80,001,23,w,"Bildungswissenschaften, Psychologie",2023-01-30_13h52.30.466,00_bat_bachelor,2022.2.4,60.039327554746585,
,,,,,,,,,,,,0,0,0,0,82,0,82,0,,,,,,,82,,,1,18637.216398925288,Y,l,go,l,1,0.5004312410019338,,,,,,,,,,,,,,,80,001,23,w,"Bildungswissenschaften, Psychologie",2023-01-30_13h52.30.466,00_bat_bachelor,2022.2.4,60.039327554746585,
,,,,,,,,,,,,0,0,0,0,83,0,83,0,,,,,,,83,,,1,18638.83298529312,X,d,go,d,1,0.49938348424620926,,,,,,,,,,,,,,,80,001,23,w,"Bildungswissenschaften, Psychologie",2023-01-30_13h52.30.466,00_bat_bachelor,2022.2.4,60.039327554746585,
,,,,,,,,,,,,0,0,0,0,84,0,84,0,,,,,,,84,,,1,18640.432990335394,Y,l,go,l,1,0.5148991129826754,,,,,,,,,,,,,,,80,001,23,w,"Bildungswissenschaften, Psychologie",2023-01-30_13h52.30.466,00_bat_bachelor,2022.2.4,60.039327554746585,
,,,,,,,,,,,,0,0,0,0,85,0,85,0,,,,,,,85,,,1,18642.049732824322,Y,None,nogo,None,1,,18642.849765406223,,,,,,,,,,,,,,80,001,23,w,"Bildungswissenschaften, Psychologie",2023-01-30_13h52.30.466,00_bat_bachelor,2022.2.4,60.039327554746585,
,,,,,,,,,,,,0,0,0,0,86,0,86,0,,,,,,,86,,,1,18643.849738254678,X,d,go,d,1,0.4585156252142042,,,,,,,,,,,,,,,80,001,23,w,"Bildungswissenschaften, Psychologie",2023-01-30_13h52.30.466,00_bat_bachelor,2022.2.4,60.039327554746585,
,,,,,,,,,,,,0,0,0,0,87,0,87,0,,,,,,,87,,,1,18645.41632076772,Y,l,go,l,1,0.39582377672195435,,,,,,,,,,,,,,,80,001,23,w,"Bildungswissenschaften, Psychologie",2023-01-30_13h52.30.466,00_bat_bachelor,2022.2.4,60.039327554746585,
,,,,,,,,,,,,0,0,0,0,88,0,88,0,,,,,,,88,,,1,18646.91631810111,X,d,go,d,1,0.5446479471866041,,,,,,,,,,,,,,,80,001,23,w,"Bildungswissenschaften, Psychologie",2023-01-30_13h52.30.466,00_bat_bachelor,2022.2.4,60.039327554746585,
,,,,,,,,,,,,0,0,0,0,89,0,89,0,,,,,,,89,,,1,18648.56601669523,X,None,nogo,None,1,,18649.366346973926,,,,,,,,,,,,,,80,001,23,w,"Bildungswissenschaften, Psychologie",2023-01-30_13h52.30.466,00_bat_bachelor,2022.2.4,60.039327554746585,
,,,,,,,,,,,,0,0,0,0,90,0,90,0,,,,,,,90,,,1,18650.36611618614,Y,l,go,None,0,,18651.16634513135,,,,,,,,,,,,,,80,001,23,w,"Bildungswissenschaften, Psychologie",2023-01-30_13h52.30.466,00_bat_bachelor,2022.2.4,60.039327554746585,
,,,,,,,,,,,,0,0,0,0,91,0,91,0,,,,,,,91,,,1,18652.165999434656,X,d,go,d,1,0.5742411448154598,,,,,,,,,,,,,,,80,001,23,w,"Bildungswissenschaften, Psychologie",2023-01-30_13h52.30.466,00_bat_bachelor,2022.2.4,60.039327554746585,
,,,,,,,,,,,,0,0,0,0,92,0,92,0,,,,,,,92,,,1,18653.84964176989,X,None,nogo,None,1,,18654.649417381966,,,,,,,,,,,,,,80,001,23,w,"Bildungswissenschaften, Psychologie",2023-01-30_13h52.30.466,00_bat_bachelor,2022.2.4,60.039327554746585,
,,,,,,,,,,,,0,0,0,0,93,0,93,0,,,,,,,93,,,1,18655.6493718063,Y,l,go,l,1,0.4349350305274129,,,,,,,,,,,,,,,80,001,23,w,"Bildungswissenschaften, Psychologie",2023-01-30_13h52.30.466,00_bat_bachelor,2022.2.4,60.039327554746585,
,,,,,,,,,,,,0,0,0,0,94,0,94,0,,,,,,,94,,,1,18657.199632872827,X,d,go,d,1,0.4527056885417551,,,,,,,,,,,,,,,80,001,23,w,"Bildungswissenschaften, Psychologie",2023-01-30_13h52.30.466,00_bat_bachelor,2022.2.4,60.039327554746585,
,,,,,,,,,,,,0,0,0,0,95,0,95,0,,,,,,,95,,,1,18658.766311870888,X,None,nogo,None,1,,18659.56659075548,,,,,,,,,,,,,,80,001,23,w,"Bildungswissenschaften, Psychologie",2023-01-30_13h52.30.466,00_bat_bachelor,2022.2.4,60.039327554746585,
,,,,,,,,,,,,0,0,0,0,96,0,96,0,,,,,,,96,,,1,18660.566942270612,Y,l,go,None,0,,18661.366940913023,,,,,,,,,,,,,,80,001,23,w,"Bildungswissenschaften, Psychologie",2023-01-30_13h52.30.466,00_bat_bachelor,2022.2.4,60.039327554746585,
,,,,,,,,,,,,0,0,0,0,97,0,97,0,,,,,,,97,,,1,18662.366871094797,X,d,go,d,1,0.45342811243608594,,,,,,,,,,,,,,,80,001,23,w,"Bildungswissenschaften, Psychologie",2023-01-30_13h52.30.466,00_bat_bachelor,2022.2.4,60.039327554746585,
,,,,,,,,,,,,0,0,0,0,98,0,98,0,,,,,,,98,,,1,18663.933442456415,Y,l,go,l,1,0.3734397874213755,,,,,,,,,,,,,,,80,001,23,w,"Bildungswissenschaften, Psychologie",2023-01-30_13h52.30.466,00_bat_bachelor,2022.2.4,60.039327554746585,
,,,,,,,,,,,,0,0,0,0,99,0,99,0,,,,,,,99,,,1,18665.433523668442,Y,None,nogo,None,1,,18666.23350485647,,,,,,,,,,,,,,80,001,23,w,"Bildungswissenschaften, Psychologie",2023-01-30_13h52.30.466,00_bat_bachelor,2022.2.4,60.039327554746585,
,,,,,,,,,,,,0,0,0,0,100,0,100,0,,,,,,,100,,,1,18667.23342922004,X,d,go,d,1,0.25829366175457835,,,,,,,,,,,,,,,80,001,23,w,"Bildungswissenschaften, Psychologie",2023-01-30_13h52.30.466,00_bat_bachelor,2022.2.4,60.039327554746585,
,,,,,,,,,,,,0,0,0,0,101,0,101,0,,,,,,,101,,,1,18668.61670903419,Y,l,go,l,1,0.4260996407829225,,,,,,,,,,,,,,,80,001,23,w,"Bildungswissenschaften, Psychologie",2023-01-30_13h52.30.466,00_bat_bachelor,2022.2.4,60.039327554746585,
,,,,,,,,,,,,0,0,0,0,102,0,102,0,,,,,,,102,,,1,18670.166774706915,X,d,go,d,1,0.4609534421470016,,,,,,,,,,,,,,,80,001,23,w,"Bildungswissenschaften, Psychologie",2023-01-30_13h52.30.466,00_bat_bachelor,2022.2.4,60.039327554746585,
,,,,,,,,,,,,0,0,0,0,103,0,103,0,,,,,,,103,,,1,18671.750028242357,Y,l,go,l,1,0.30091036832891405,,,,,,,,,,,,,,,80,001,23,w,"Bildungswissenschaften, Psychologie",2023-01-30_13h52.30.466,00_bat_bachelor,2022.2.4,60.039327554746585,
,,,,,,,,,,,,0,0,0,0,104,0,104,0,,,,,,,104,,,1,18673.18358924426,X,d,go,d,1,0.452916597481817,,,,,,,,,,,,,,,80,001,23,w,"Bildungswissenschaften, Psychologie",2023-01-30_13h52.30.466,00_bat_bachelor,2022.2.4,60.039327554746585,
,,,,,,,,,,,,0,0,0,0,105,0,105,0,,,,,,,105,,,1,18674.75027648476,Y,l,go,l,1,0.3252604170702398,,,,,,,,,,,,,,,80,001,23,w,"Bildungswissenschaften, Psychologie",2023-01-30_13h52.30.466,00_bat_bachelor,2022.2.4,60.039327554746585,
,,,,,,,,,,,,0,0,0,0,106,0,106,0,,,,,,,106,,,1,18676.200215175515,X,d,go,d,1,0.3158039366826415,,,,,,,,,,,,,,,80,001,23,w,"Bildungswissenschaften, Psychologie",2023-01-30_13h52.30.466,00_bat_bachelor,2022.2.4,60.039327554746585,
,,,,,,,,,,,,0,0,0,0,107,0,107,0,,,,,,,107,,,1,18677.63364090491,X,None,nogo,None,1,,18678.43340488081,,,,,,,,,,,,,,80,001,23,w,"Bildungswissenschaften, Psychologie",2023-01-30_13h52.30.466,00_bat_bachelor,2022.2.4,60.039327554746585,
,,,,,,,,,,,,0,0,0,0,108,0,108,0,,,,,,,108,,,1,18679.433373850537,Y,l,go,None,0,,18680.233403038234,,,,,,,,,,,,,,80,001,23,w,"Bildungswissenschaften, Psychologie",2023-01-30_13h52.30.466,00_bat_bachelor,2022.2.4,60.039327554746585,
,,,,,,,,,,,,0,0,0,0,109,0,109,0,,,,,,,109,,,1,18681.233394311043,X,d,go,d,1,0.35390573646873236,,,,,,,,,,,,,,,80,001,23,w,"Bildungswissenschaften, Psychologie",2023-01-30_13h52.30.466,00_bat_bachelor,2022.2.4,60.039327554746585,
,,,,,,,,,,,,0,0,0,0,110,0,110,0,,,,,,,110,,,1,18682.716908258386,Y,l,go,l,1,0.5031313609797508,,,,,,,,,,,,,,,80,001,23,w,"Bildungswissenschaften, Psychologie",2023-01-30_13h52.30.466,00_bat_bachelor,2022.2.4,60.039327554746585,
,,,,,,,,,,,,0,0,0,0,111,0,111,0,,,,,,,111,,,1,18684.33357268665,Y,None,nogo,None,1,,18685.133566965582,,,,,,,,,,,,,,80,001,23,w,"Bildungswissenschaften, Psychologie",2023-01-30_13h52.30.466,00_bat_bachelor,2022.2.4,60.039327554746585,
,,,,,,,,,,,,0,0,0,0,112,0,112,0,,,,,,,112,,,1,18686.13356357161,X,d,go,d,1,0.46195562346838415,,,,,,,,,,,,,,,80,001,23,w,"Bildungswissenschaften, Psychologie",2023-01-30_13h52.30.466,00_bat_bachelor,2022.2.4,60.039327554746585,
,,,,,,,,,,,,0,0,0,0,113,0,113,0,,,,,,,113,,,1,18687.716706561623,Y,l,go,None,0,,18688.516853567446,,,,,,,,,,,,,,80,001,23,w,"Bildungswissenschaften, Psychologie",2023-01-30_13h52.30.466,00_bat_bachelor,2022.2.4,60.039327554746585,
,,,,,,,,,,,,0,0,0,0,114,0,114,0,,,,,,,114,,,1,18689.516703264555,X,d,go,d,1,0.4228817031253129,,,,,,,,,,,,,,,80,001,23,w,"Bildungswissenschaften, Psychologie",2023-01-30_13h52.30.466,00_bat_bachelor,2022.2.4,60.039327554746585,
,,,,,,,,,,,,0,0,0,0,115,0,115,0,,,,,,,115,,,1,18691.06682857359,Y,l,go,l,1,0.16848619002848864,,,,,,,,,,,,,,,80,001,23,w,"Bildungswissenschaften, Psychologie",2023-01-30_13h52.30.466,00_bat_bachelor,2022.2.4,60.039327554746585,
,,,,,,,,,,,,0,0,0,0,116,0,116,0,,,,,,,116,,,1,18692.3669525492,X,d,go,d,1,0.3574911893811077,,,,,,,,,,,,,,,80,001,23,w,"Bildungswissenschaften, Psychologie",2023-01-30_13h52.30.466,00_bat_bachelor,2022.2.4,60.039327554746585,
,,,,,,,,,,,,0,0,0,0,117,0,117,0,,,,,,,117,,,1,18693.83356129285,Y,l,go,l,1,0.2498471203725785,,,,,,,,,,,,,,,80,001,23,w,"Bildungswissenschaften, Psychologie",2023-01-30_13h52.30.466,00_bat_bachelor,2022.2.4,60.039327554746585,
,,,,,,,,,,,,0,0,0,0,118,0,118,0,,,,,,,118,,,1,18695.200045963516,X,d,go,d,1,0.5153393552172929,,,,,,,,,,,,,,,80,001,23,w,"Bildungswissenschaften, Psychologie",2023-01-30_13h52.30.466,00_bat_bachelor,2022.2.4,60.039327554746585,
,,,,,,,,,,,,0,0,0,0,119,0,119,0,,,,,,,119,,,1,18696.83360298979,X,None,nogo,None,1,,18697.633360662498,,,,,,,,,,,,,,80,001,23,w,"Bildungswissenschaften, Psychologie",2023-01-30_13h52.30.466,00_bat_bachelor,2022.2.4,60.039327554746585,
,,,,,,,,,,,,0,0,0,0,120,0,120,0,,,,,,,120,,,1,18698.63338005659,Y,l,go,l,1,0.5548903662711382,,,,,,,,,,,,,,,80,001,23,w,"Bildungswissenschaften, Psychologie",2023-01-30_13h52.30.466,00_bat_bachelor,2022.2.4,60.039327554746585,
,,,,,,,,,,,,0,0,0,0,121,0,121,0,,,,,,,121,,,1,18700.30024712719,X,d,go,d,1,0.4082698312122375,,,,,,,,,,,,,,,80,001,23,w,"Bildungswissenschaften, Psychologie",2023-01-30_13h52.30.466,00_bat_bachelor,2022.2.4,60.039327554746585,
,,,,,,,,,,,,0,0,0,0,122,0,122,0,,,,,,,122,,,1,18701.81696784636,X,None,nogo,l,0,0.25068978662602603,,,,,,,,,,,,,,,80,001,23,w,"Bildungswissenschaften, Psychologie",2023-01-30_13h52.30.466,00_bat_bachelor,2022.2.4,60.039327554746585,
,,,,,,,,,,,,0,0,0,0,123,0,123,0,,,,,,,123,,,1,18703.20026269066,Y,l,go,None,0,,18704.00015757559,,,,,,,,,,,,,,80,001,23,w,"Bildungswissenschaften, Psychologie",2023-01-30_13h52.30.466,00_bat_bachelor,2022.2.4,60.039327554746585,
,,,,,,,,,,,,0,0,0,0,124,0,124,0,,,,,,,124,,,1,18705.00006933324,X,d,go,d,1,0.31458987668156624,,,,,,,,,,,,,,,80,001,23,w,"Bildungswissenschaften, Psychologie",2023-01-30_13h52.30.466,00_bat_bachelor,2022.2.4,60.039327554746585,
,,,,,,,,,,,,0,0,0,0,125,0,125,0,,,,,,,125,,,1,18706.43337627477,X,None,nogo,None,1,,18707.23354509892,,,,,,,,,,,,,,80,001,23,w,"Bildungswissenschaften, Psychologie",2023-01-30_13h52.30.466,00_bat_bachelor,2022.2.4,60.039327554746585,
,,,,,,,,,,,,0,0,0,0,126,0,126,0,,,,,,,126,,,1,18708.23352279584,X,None,nogo,None,1,,18709.033598529175,,,,,,,,,,,,,,80,001,23,w,"Bildungswissenschaften, Psychologie",2023-01-30_13h52.30.466,00_bat_bachelor,2022.2.4,60.039327554746585,
,,,,,,,,,,,,0,0,0,0,127,0,127,0,,,,,,,127,,,1,18710.03336386266,Y,l,go,l,1,0.4822591287083924,,,,,,,,,,,,,,,80,001,23,w,"Bildungswissenschaften, Psychologie",2023-01-30_13h52.30.466,00_bat_bachelor,2022.2.4,60.039327554746585,
,,,,,,,,,,,,0,0,0,0,128,0,128,0,,,,,,,128,,,1,18711.63336842018,X,d,go,d,1,0.5141873557586223,,,,,,,,,,,,,,,80,001,23,w,"Bildungswissenschaften, Psychologie",2023-01-30_13h52.30.466,00_bat_bachelor,2022.2.4,60.039327554746585,
,,,,,,,,,,,,0,0,0,0,129,0,129,0,,,,,,,129,,,1,18713.26689005224,Y,l,go,l,1,0.49669500067830086,,,,,,,,,,,,,,,80,001,23,w,"Bildungswissenschaften, Psychologie",2023-01-30_13h52.30.466,00_bat_bachelor,2022.2.4,60.039327554746585,
,,,,,,,,,,,,0,0,0,0,130,0,130,0,,,,,,,130,,,1,18714.88358599576,Y,None,nogo,None,1,,18715.683519668644,,,,,,,,,,,,,,80,001,23,w,"Bildungswissenschaften, Psychologie",2023-01-30_13h52.30.466,00_bat_bachelor,2022.2.4,60.039327554746585,
,,,,,,,,,,,,0,0,0,0,131,0,131,0,,,,,,,131,,,1,18716.68375578965,Y,None,nogo,None,1,,18717.483580371598,,,,,,,,,,,,,,80,001,23,w,"Bildungswissenschaften, Psychologie",2023-01-30_13h52.30.466,00_bat_bachelor,2022.2.4,60.039327554746585,
,,,,,,,,,,,,0,0,0,0,132,0,132,0,,,,,,,132,,,1,18718.48339758371,X,d,go,d,1,0.3519319191109389,,,,,,,,,,,,,,,80,001,23,w,"Bildungswissenschaften, Psychologie",2023-01-30_13h52.30.466,00_bat_bachelor,2022.2.4,60.039327554746585,
,,,,,,,,,,,,0,0,0,0,133,0,133,0,,,,,,,133,,,1,18719.966816985747,Y,l,go,l,1,0.3251105989329517,,,,,,,,,,,,,,,80,001,23,w,"Bildungswissenschaften, Psychologie",2023-01-30_13h52.30.466,00_bat_bachelor,2022.2.4,60.039327554746585,
,,,,,,,,,,,,0,0,0,0,134,0,134,0,,,,,,,134,,,1,18721.416893858463,Y,None,nogo,None,1,,18722.216722319135,,,,,,,,,,,,,,80,001,23,w,"Bildungswissenschaften, Psychologie",2023-01-30_13h52.30.466,00_bat_bachelor,2022.2.4,60.039327554746585,
,,,,,,,,,,,,0,0,0,0,135,0,135,0,,,,,,,135,,,1,18723.216708258493,X,d,go,d,1,0.2263019196689129,,,,,,,,,,,,,,,80,001,23,w,"Bildungswissenschaften, Psychologie",2023-01-30_13h52.30.466,00_bat_bachelor,2022.2.4,60.039327554746585,
,,,,,,,,,,,,0,0,0,0,136,0,136,0,,,,,,,136,,,1,18724.5668971797,Y,l,go,l,1,0.4124598898924887,,,,,,,,,,,,,,,80,001,23,w,"Bildungswissenschaften, Psychologie",2023-01-30_13h52.30.466,00_bat_bachelor,2022.2.4,60.039327554746585,
,,,,,,,,,,,,0,0,0,0,137,0,137,0,,,,,,,137,,,1,18726.10014152713,Y,None,nogo,None,1,,18726.900042230263,,,,,,,,,,,,,,80,001,23,w,"Bildungswissenschaften, Psychologie",2023-01-30_13h52.30.466,00_bat_bachelor,2022.2.4,60.039327554746585,
,,,,,,,,,,,,0,0,0,0,138,0,138,0,,,,,,,138,,,1,18727.90022744215,X,d,go,d,1,0.47123610391281545,,,,,,,,,,,,,,,80,001,23,w,"Bildungswissenschaften, Psychologie",2023-01-30_13h52.30.466,00_bat_bachelor,2022.2.4,60.039327554746585,
,,,,,,,,,,,,0,0,0,0,139,0,139,0,,,,,,,139,,,1,18729.500205818098,Y,l,go,l,1,0.4069481350015849,,,,,,,,,,,,,,,80,001,23,w,"Bildungswissenschaften, Psychologie",2023-01-30_13h52.30.466,00_bat_bachelor,2022.2.4,60.039327554746585,
,,,,,,,,,,,,0,0,0,0,140,0,140,0,,,,,,,140,,,1,18731.03354034736,X,d,go,d,1,0.4576642317697406,,,,,,,,,,,,,,,80,001,23,w,"Bildungswissenschaften, Psychologie",2023-01-30_13h52.30.466,00_bat_bachelor,2022.2.4,60.039327554746585,
,,,,,,,,,,,,0,0,0,0,141,0,141,0,,,,,,,141,,,1,18732.616785640363,X,None,nogo,None,1,,18733.416938949376,,,,,,,,,,,,,,80,001,23,w,"Bildungswissenschaften, Psychologie",2023-01-30_13h52.30.466,00_bat_bachelor,2022.2.4,60.039327554746585,
,,,,,,,,,,,,0,0,0,0,142,0,142,0,,,,,,,142,,,1,18734.416692161467,Y,l,go,l,1,0.5947187107522041,,,,,,,,,,,,,,,80,001,23,w,"Bildungswissenschaften, Psychologie",2023-01-30_13h52.30.466,00_bat_bachelor,2022.2.4,60.039327554746585,
,,,,,,,,,,,,0,0,0,0,143,0,143,0,,,,,,,143,,,1,18736.11669667065,X,d,go,d,1,0.36796342651359737,,,,,,,,,,,,,,,80,001,23,w,"Bildungswissenschaften, Psychologie",2023-01-30_13h52.30.466,00_bat_bachelor,2022.2.4,60.039327554746585,
,,,,,,,,,,,,0,0,0,0,144,0,144,0,,,,,,,144,,,1,18737.600433163345,Y,l,go,l,1,0.3242019934114069,,,,,,,,,,,,,,,80,001,23,w,"Bildungswissenschaften, Psychologie",2023-01-30_13h52.30.466,00_bat_bachelor,2022.2.4,60.039327554746585,
,,,,,,,,,,,,0,0,0,0,145,0,145,0,,,,,,,145,,,1,18739.049283854896,X,d,go,d,1,0.40967104281298816,,,,,,,,,,,,,,,80,001,23,w,"Bildungswissenschaften, Psychologie",2023-01-30_13h52.30.466,00_bat_bachelor,2022.2.4,60.039327554746585,
,,,,,,,,,,,,0,0,0,0,146,0,146,0,,,,,,,146,,,1,18740.566315361764,X,None,nogo,None,1,,18741.366212185938,,,,,,,,,,,,,,80,001,23,w,"Bildungswissenschaften, Psychologie",2023-01-30_13h52.30.466,00_bat_bachelor,2022.2.4,60.039327554746585,
,,,,,,,,,,,,0,0,0,0,147,0,147,0,,,,,,,147,,,1,18742.366222367855,Y,l,go,None,0,,18743.165948525537,,,,,,,,,,,,,,80,001,23,w,"Bildungswissenschaften, Psychologie",2023-01-30_13h52.30.466,00_bat_bachelor,2022.2.4,60.039327554746585,
,,,,,,,,,,,,0,0,0,0,148,0,148,0,,,,,,,148,,,1,18744.16624476784,X,d,go,d,1,0.42911248793825507,,,,,,,,,,,,,,,80,001,23,w,"Bildungswissenschaften, Psychologie",2023-01-30_13h52.30.466,00_bat_bachelor,2022.2.4,60.039327554746585,
,,,,,,,,,,,,0,0,0,0,149,0,149,0,,,,,,,149,,,1,18745.69953808491,X,None,nogo,None,1,,18746.49957260629,,,,,,,,,,,,,,80,001,23,w,"Bildungswissenschaften, Psychologie",2023-01-30_13h52.30.466,00_bat_bachelor,2022.2.4,60.039327554746585,
,,,,,,,,,,,,0,0,0,0,150,0,150,0,,,,,,,150,,,1,18747.49960896978,Y,l,go,l,1,0.5051735420711339,,,,,,,,,,,,,,,80,001,23,w,"Bildungswissenschaften, Psychologie",2023-01-30_13h52.30.466,00_bat_bachelor,2022.2.4,60.039327554746585,
,,,,,,,,,,,,0,0,0,0,151,0,151,0,,,,,,,151,,,1,18749.11625157995,X,d,go,d,1,0.5998973748646677,,,,,,,,,,,,,,,80,001,23,w,"Bildungswissenschaften, Psychologie",2023-01-30_13h52.30.466,00_bat_bachelor,2022.2.4,60.039327554746585,
,,,,,,,,,,,,0,0,0,0,152,0,152,0,,,,,,,152,,,1,18750.816250755684,X,None,nogo,None,1,,18751.61594733759,,,,,,,,,,,,,,80,001,23,w,"Bildungswissenschaften, Psychologie",2023-01-30_13h52.30.466,00_bat_bachelor,2022.2.4,60.039327554746585,
,,,,,,,,,,,,0,0,0,0,153,0,153,0,,,,,,,153,,,1,18752.61681182217,Y,l,go,l,1,0.44373939000070095,,,,,,,,,,,,,,,80,001,23,w,"Bildungswissenschaften, Psychologie",2023-01-30_13h52.30.466,00_bat_bachelor,2022.2.4,60.039327554746585,
,,,,,,,,,,,,0,0,0,0,154,0,154,0,,,,,,,154,,,1,18754.183433123166,X,d,go,None,0,,18754.983775523026,,,,,,,,,,,,,,80,001,23,w,"Bildungswissenschaften, Psychologie",2023-01-30_13h52.30.466,00_bat_bachelor,2022.2.4,60.039327554746585,
,,,,,,,,,,,,0,0,0,0,155,0,155,0,,,,,,,155,,,1,18755.983566553332,X,None,nogo,None,1,,18756.783895377535,,,,,,,,,,,,,,80,001,23,w,"Bildungswissenschaften, Psychologie",2023-01-30_13h52.30.466,00_bat_bachelor,2022.2.4,60.039327554746585,
,,,,,,,,,,,,0,0,0,0,156,0,156,0,,,,,,,156,,,1,18757.78342846851,Y,l,go,l,1,0.34746452746912837,,,,,,,,,,,,,,,80,001,23,w,"Bildungswissenschaften, Psychologie",2023-01-30_13h52.30.466,00_bat_bachelor,2022.2.4,60.039327554746585,
,,,,,,,,,,,,0,0,0,0,157,0,157,0,,,,,,,157,,,1,18759.266928355442,X,d,go,None,0,,18760.067087967414,,,,,,,,,,,,,,80,001,23,w,"Bildungswissenschaften, Psychologie",2023-01-30_13h52.30.466,00_bat_bachelor,2022.2.4,60.039327554746585,
,,,,,,,,,,,,0,0,0,0,158,0,158,0,,,,,,,158,,,1,18761.06700117956,Y,l,go,l,1,0.6643797678407282,,,,,,,,,,,,,,,80,001,23,w,"Bildungswissenschaften, Psychologie",2023-01-30_13h52.30.466,00_bat_bachelor,2022.2.4,60.039327554746585,
,,,,,,,,,,,,0,0,0,0,159,0,159,0,,,,,,,159,,,1,18762.866943094647,X,d,go,None,0,,18763.667221494718,,,,,,,,,,,,,,80,001,23,w,"Bildungswissenschaften, Psychologie",2023-01-30_13h52.30.466,00_bat_bachelor,2022.2.4,60.039327554746585,
,,,,,,,,,,,,0,0,0,0,160,0,160,0,,,,,,,160,,,1,18764.6669281614,Y,l,go,l,1,0.31199205992743373,,,,,,,,,,,,,,,80,001,23,w,"Bildungswissenschaften, Psychologie",2023-01-30_13h52.30.466,00_bat_bachelor,2022.2.4,60.039327554746585,
,,,,,,,,,,,,0,0,0,0,161,0,161,0,,,,,,,161,,,1,18766.11684454931,X,d,go,d,1,0.2539242091588676,,,,,,,,,,,,,,,80,001,23,w,"Bildungswissenschaften, Psychologie",2023-01-30_13h52.30.466,00_bat_bachelor,2022.2.4,60.039327554746585,
,,,,,,,,,,,,0,0,0,0,162,0,162,0,,,,,,,162,,,1,18767.517178415786,Y,l,go,l,1,0.3267881739884615,,,,,,,,,,,,,,,80,001,23,w,"Bildungswissenschaften, Psychologie",2023-01-30_13h52.30.466,00_bat_bachelor,2022.2.4,60.039327554746585,
,,,,,,,,,,,,0,0,0,0,163,0,163,0,,,,,,,163,,,1,18768.983594674617,X,d,go,d,1,0.4758911319077015,,,,,,,,,,,,,,,80,001,23,w,"Bildungswissenschaften, Psychologie",2023-01-30_13h52.30.466,00_bat_bachelor,2022.2.4,60.039327554746585,
,,,,,,,,,,,,0,0,0,0,164,0,164,0,,,,,,,164,,,1,18770.600190739147,X,None,nogo,None,1,,18771.40033823019,,,,,,,,,,,,,,80,001,23,w,"Bildungswissenschaften, Psychologie",2023-01-30_13h52.30.466,00_bat_bachelor,2022.2.4,60.039327554746585,
,,,,,,,,,,,,0,0,0,0,165,0,165,0,,,,,,,165,,,1,18772.40025968477,Y,l,go,l,1,0.5476879456546158,,,,,,,,,,,,,,,80,001,23,w,"Bildungswissenschaften, Psychologie",2023-01-30_13h52.30.466,00_bat_bachelor,2022.2.4,60.039327554746585,
,,,,,,,,,,,,0,0,0,0,166,0,166,0,,,,,,,166,,,1,18774.083884080406,X,d,go,d,1,0.2554989962372929,,,,,,,,,,,,,,,80,001,23,w,"Bildungswissenschaften, Psychologie",2023-01-30_13h52.30.466,00_bat_bachelor,2022.2.4,60.039327554746585,
,,,,,,,,,,,,0,0,0,0,167,0,167,0,,,,,,,167,,,1,18775.483532371465,Y,l,go,l,1,0.5354687999933958,,,,,,,,,,,,,,,80,001,23,w,"Bildungswissenschaften, Psychologie",2023-01-30_13h52.30.466,00_bat_bachelor,2022.2.4,60.039327554746585,
,,,,,,,,,,,,0,0,0,0,168,0,168,0,,,,,,,168,,,1,18777.16689979774,X,d,go,None,0,,18777.967310076347,,,,,,,,,,,,,,80,001,23,w,"Bildungswissenschaften, Psychologie",2023-01-30_13h52.30.466,00_bat_bachelor,2022.2.4,60.039327554746585,
,,,,,,,,,,,,0,0,0,0,169,0,169,0,,,,,,,169,,,1,18778.96693044016,X,None,nogo,None,1,,18779.76710120379,,,,,,,,,,,,,,80,001,23,w,"Bildungswissenschaften, Psychologie",2023-01-30_13h52.30.466,00_bat_bachelor,2022.2.4,60.039327554746585,
,,,,,,,,,,,,0,0,0,0,170,0,170,0,,,,,,,170,,,1,18780.76679865853,Y,l,go,l,1,0.43642206001095474,,,,,,,,,,,,,,,80,001,23,w,"Bildungswissenschaften, Psychologie",2023-01-30_13h52.30.466,00_bat_bachelor,2022.2.4,60.039327554746585,
,,,,,,,,,,,,0,0,0,0,171,0,171,0,,,,,,,171,,,1,18782.350206375588,X,d,go,d,1,0.35777094680815935,,,,,,,,,,,,,,,80,001,23,w,"Bildungswissenschaften, Psychologie",2023-01-30_13h52.30.466,00_bat_bachelor,2022.2.4,60.039327554746585,
,,,,,,,,,,,,0,0,0,0,172,0,172,0,,,,,,,172,,,1,18783.8501057697,Y,l,go,l,1,0.5851473214570433,,,,,,,,,,,,,,,80,001,23,w,"Bildungswissenschaften, Psychologie",2023-01-30_13h52.30.466,00_bat_bachelor,2022.2.4,60.039327554746585,
,,,,,,,,,,,,0,0,0,0,173,0,173,0,,,,,,,173,,,1,18785.583588080714,X,d,go,d,1,0.547838733298704,,,,,,,,,,,,,,,80,001,23,w,"Bildungswissenschaften, Psychologie",2023-01-30_13h52.30.466,00_bat_bachelor,2022.2.4,60.039327554746585,
,,,,,,,,,,,,0,0,0,0,174,0,174,0,,,,,,,174,,,1,18787.266912840307,X,None,nogo,None,1,,18788.067178149242,,,,,,,,,,,,,,80,001,23,w,"Bildungswissenschaften, Psychologie",2023-01-30_13h52.30.466,00_bat_bachelor,2022.2.4,60.039327554746585,
,,,,,,,,,,,,0,0,0,0,175,0,175,0,,,,,,,175,,,1,18789.066898391815,Y,l,go,l,1,0.36125361174345016,,,,,,,,,,,,,,,80,001,23,w,"Bildungswissenschaften, Psychologie",2023-01-30_13h52.30.466,00_bat_bachelor,2022.2.4,60.039327554746585,
,,,,,,,,,,,,0,0,0,0,176,0,176,0,,,,,,,176,,,1,18790.566777422093,X,d,go,d,1,0.49246082082390785,,,,,,,,,,,,,,,80,001,23,w,"Bildungswissenschaften, Psychologie",2023-01-30_13h52.30.466,00_bat_bachelor,2022.2.4,60.039327554746585,
,,,,,,,,,,,,0,0,0,0,177,0,177,0,,,,,,,177,,,1,18792.20020935731,Y,l,go,l,1,0.4590479885227978,,,,,,,,,,,,,,,80,001,23,w,"Bildungswissenschaften, Psychologie",2023-01-30_13h52.30.466,00_bat_bachelor,2022.2.4,60.039327554746585,
,,,,,,,,,,,,0,0,0,0,178,0,178,0,,,,,,,178,,,1,18793.80007961206,Y,None,nogo,None,1,,18794.60037934524,,,,,,,,,,,,,,80,001,23,w,"Bildungswissenschaften, Psychologie",2023-01-30_13h52.30.466,00_bat_bachelor,2022.2.4,60.039327554746585,
,,,,,,,,,,,,0,0,0,0,179,0,179,0,,,,,,,179,,,1,18795.600299830083,X,d,go,d,1,0.37105384934693575,,,,,,,,,,,,,,,80,001,23,w,"Bildungswissenschaften, Psychologie",2023-01-30_13h52.30.466,00_bat_bachelor,2022.2.4,60.039327554746585,
,,,,,,,,,,,,0,0,0,0,180,0,180,0,,,,,,,180,,,1,18797.116806731094,Y,l,go,l,1,0.18227284983731806,,,,,,,,,,,,,,,80,001,23,w,"Bildungswissenschaften, Psychologie",2023-01-30_13h52.30.466,00_bat_bachelor,2022.2.4,60.039327554746585,
,,,,,,,,,,,,0,0,0,0,181,0,181,0,,,,,,,181,,,1,18798.43368754722,Y,None,nogo,None,1,,18799.233802553266,,,,,,,,,,,,,,80,001,23,w,"Bildungswissenschaften, Psychologie",2023-01-30_13h52.30.466,00_bat_bachelor,2022.2.4,60.039327554746585,
,,,,,,,,,,,,0,0,0,0,182,0,182,0,,,,,,,182,,,1,18800.23341855337,X,d,go,d,1,0.20196205261163414,,,,,,,,,,,,,,,80,001,23,w,"Bildungswissenschaften, Psychologie",2023-01-30_13h52.30.466,00_bat_bachelor,2022.2.4,60.039327554746585,
,,,,,,,,,,,,0,0,0,0,183,0,183,0,,,,,,,183,,,1,18801.583431959385,Y,l,go,l,1,0.45174568914808333,,,,,,,,,,,,,,,80,001,23,w,"Bildungswissenschaften, Psychologie",2023-01-30_13h52.30.466,00_bat_bachelor,2022.2.4,60.039327554746585,
,,,,,,,,,,,,0,0,0,0,184,0,184,0,,,,,,,184,,,1,18803.183406456374,X,d,go,d,1,0.46755804494023323,,,,,,,,,,,,,,,80,001,23,w,"Bildungswissenschaften, Psychologie",2023-01-30_13h52.30.466,00_bat_bachelor,2022.2.4,60.039327554746585,
,,,,,,,,,,,,0,0,0,0,185,0,185,0,,,,,,,185,,,1,18804.80017221812,X,None,nogo,l,0,0.2425690630916506,,,,,,,,,,,,,,,80,001,23,w,"Bildungswissenschaften, Psychologie",2023-01-30_13h52.30.466,00_bat_bachelor,2022.2.4,60.039327554746585,
,,,,,,,,,,,,0,0,0,0,186,0,186,0,,,,,,,186,,,1,18806.183354577748,X,None,nogo,d,0,0.5242348660249263,,,,,,,,,,,,,,,80,001,23,w,"Bildungswissenschaften, Psychologie",2023-01-30_13h52.30.466,00_bat_bachelor,2022.2.4,60.039327554746585,
,,,,,,,,,,,,0,0,0,0,187,0,187,0,,,,,,,187,,,1,18807.850370981498,Y,l,go,l,1,0.2978150970302522,,,,,,,,,,,,,,,80,001,23,w,"Bildungswissenschaften, Psychologie",2023-01-30_13h52.30.466,00_bat_bachelor,2022.2.4,60.039327554746585,
,,,,,,,,,,,,0,0,0,0,188,0,188,0,,,,,,,188,,,1,18809.283541680546,X,d,go,d,1,0.4962125765159726,,,,,,,,,,,,,,,80,001,23,w,"Bildungswissenschaften, Psychologie",2023-01-30_13h52.30.466,00_bat_bachelor,2022.2.4,60.039327554746585,
,,,,,,,,,,,,0,0,0,0,189,0,189,0,,,,,,,189,,,1,18810.91689507058,X,None,nogo,None,1,,18811.717123531038,,,,,,,,,,,,,,80,001,23,w,"Bildungswissenschaften, Psychologie",2023-01-30_13h52.30.466,00_bat_bachelor,2022.2.4,60.039327554746585,
,,,,,,,,,,,,0,0,0,0,190,0,190,0,,,,,,,190,,,1,18812.71645734948,Y,l,go,l,1,0.29631352215074,,,,,,,,,,,,,,,80,001,23,w,"Bildungswissenschaften, Psychologie",2023-01-30_13h52.30.466,00_bat_bachelor,2022.2.4,60.039327554746585,
,,,,,,,,,,,,0,0,0,0,191,0,191,0,,,,,,,191,,,1,18814.13291629916,X,d,go,d,1,0.41560316109098494,,,,,,,,,,,,,,,80,001,23,w,"Bildungswissenschaften, Psychologie",2023-01-30_13h52.30.466,00_bat_bachelor,2022.2.4,60.039327554746585,
,,,,,,,,,,,,0,0,0,0,192,0,192,0,,,,,,,192,,,1,18815.649543927517,Y,l,go,l,1,0.45020193234086037,,,,,,,,,,,,,,,80,001,23,w,"Bildungswissenschaften, Psychologie",2023-01-30_13h52.30.466,00_bat_bachelor,2022.2.4,60.039327554746585,
,,,,,,,,,,,,0,0,0,0,193,0,193,0,,,,,,,193,,,1,18817.199627054622,X,d,go,d,1,0.6297373604029417,,,,,,,,,,,,,,,80,001,23,w,"Bildungswissenschaften, Psychologie",2023-01-30_13h52.30.466,00_bat_bachelor,2022.2.4,60.039327554746585,
,,,,,,,,,,,,0,0,0,0,194,0,194,0,,,,,,,194,,,1,18818.93259106297,X,None,nogo,None,1,,18819.73255964485,,,,,,,,,,,,,,80,001,23,w,"Bildungswissenschaften, Psychologie",2023-01-30_13h52.30.466,00_bat_bachelor,2022.2.4,60.039327554746585,
,,,,,,,,,,,,0,0,0,0,195,0,195,0,,,,,,,195,,,1,18820.73284861422,Y,l,go,l,1,0.5346300126984715,,,,,,,,,,,,,,,80,001,23,w,"Bildungswissenschaften, Psychologie",2023-01-30_13h52.30.466,00_bat_bachelor,2022.2.4,60.039327554746585,
,,,,,,,,,,,,0,0,0,0,196,0,196,0,,,,,,,196,,,1,18822.382855571806,X,d,go,d,1,0.5646043010056019,,,,,,,,,,,,,,,80,001,23,w,"Bildungswissenschaften, Psychologie",2023-01-30_13h52.30.466,00_bat_bachelor,2022.2.4,60.039327554746585,
,,,,,,,,,,,,0,0,0,0,197,0,197,0,,,,,,,197,,,1,18824.049526763847,Y,l,go,l,1,0.38591978163458407,,,,,,,,,,,,,,,80,001,23,w,"Bildungswissenschaften, Psychologie",2023-01-30_13h52.30.466,00_bat_bachelor,2022.2.4,60.039327554746585,
,,,,,,,,,,,,0,0,0,0,198,0,198,0,,,,,,,198,,,1,18825.549486279022,Y,None,nogo,None,1,,18826.349743830273,,,,,,,,,,,,,,80,001,23,w,"Bildungswissenschaften, Psychologie",2023-01-30_13h52.30.466,00_bat_bachelor,2022.2.4,60.039327554746585,
,,,,,,,,,,,,0,0,0,0,199,0,199,0,,,,,,,199,,,1,18827.350101648364,X,d,go,d,1,0.2687135355081409,,,,,,,,,,,,,,,80,001,23,w,"Bildungswissenschaften, Psychologie",2023-01-30_13h52.30.466,00_bat_bachelor,2022.2.4,60.039327554746585,
,,,,,,,,,,,,0,0,0,0,200,0,200,0,,,,,,,200,,,1,18828.750178545248,Y,l,go,l,1,0.42138497647829354,,,,,,,,,,,,,,,80,001,23,w,"Bildungswissenschaften, Psychologie",2023-01-30_13h52.30.466,00_bat_bachelor,2022.2.4,60.039327554746585,
,,,,,,,,,,,,0,0,0,0,201,0,201,0,,,,,,,201,,,1,18830.30011282419,X,d,go,d,1,0.3424565300811082,,,,,,,,,,,,,,,80,001,23,w,"Bildungswissenschaften, Psychologie",2023-01-30_13h52.30.466,00_bat_bachelor,2022.2.4,60.039327554746585,
,,,,,,,,,,,,0,0,0,0,202,0,202,0,,,,,,,202,,,1,18831.76668374939,Y,l,go,l,1,0.33216659538447857,,,,,,,,,,,,,,,80,001,23,w,"Bildungswissenschaften, Psychologie",2023-01-30_13h52.30.466,00_bat_bachelor,2022.2.4,60.039327554746585,
,,,,,,,,,,,,0,0,0,0,203,0,203,0,,,,,,,203,,,1,18833.216629228322,Y,None,nogo,None,1,,18834.016751507064,,,,,,,,,,,,,,80,001,23,w,"Bildungswissenschaften, Psychologie",2023-01-30_13h52.30.466,00_bat_bachelor,2022.2.4,60.039327554746585,
,,,,,,,,,,,,0,0,0,0,204,0,204,0,,,,,,,204,,,1,18835.016796597745,X,d,go,d,1,0.3157923005055636,,,,,,,,,,,,,,,80,001,23,w,"Bildungswissenschaften, Psychologie",2023-01-30_13h52.30.466,00_bat_bachelor,2022.2.4,60.039327554746585,
,,,,,,,,,,,,0,0,0,0,205,0,205,0,,,,,,,205,,,1,18836.433522698935,Y,l,go,l,1,0.3222223580814898,,,,,,,,,,,,,,,80,001,23,w,"Bildungswissenschaften, Psychologie",2023-01-30_13h52.30.466,00_bat_bachelor,2022.2.4,60.039327554746585,
,,,,,,,,,,,,0,0,0,0,206,0,206,0,,,,,,,206,,,1,18837.883435207885,X,d,go,d,1,0.5999177384655923,,,,,,,,,,,,,,,80,001,23,w,"Bildungswissenschaften, Psychologie",2023-01-30_13h52.30.466,00_bat_bachelor,2022.2.4,60.039327554746585,
,,,,,,,,,,,,0,0,0,0,207,0,207,0,,,,,,,207,,,1,18839.60011752718,Y,l,go,l,1,0.4037743182852864,,,,,,,,,,,,,,,80,001,23,w,"Bildungswissenschaften, Psychologie",2023-01-30_13h52.30.466,00_bat_bachelor,2022.2.4,60.039327554746585,
,,,,,,,,,,,,0,0,0,0,208,0,208,0,,,,,,,208,,,1,18841.133224662626,X,d,go,d,1,0.5175890510436147,,,,,,,,,,,,,,,80,001,23,w,"Bildungswissenschaften, Psychologie",2023-01-30_13h52.30.466,00_bat_bachelor,2022.2.4,60.039327554746585,
,,,,,,,,,,,,0,0,0,0,209,0,209,0,,,,,,,209,,,1,18842.783414892852,Y,l,go,l,1,0.38915032567456365,,,,,,,,,,,,,,,80,001,23,w,"Bildungswissenschaften, Psychologie",2023-01-30_13h52.30.466,00_bat_bachelor,2022.2.4,60.039327554746585,
,,,,,,,,,,,,0,0,0,0,210,0,210,0,,,,,,,210,,,1,18844.283485923195,Y,None,nogo,None,1,,18845.083307595924,,,,,,,,,,,,,,80,001,23,w,"Bildungswissenschaften, Psychologie",2023-01-30_13h52.30.466,00_bat_bachelor,2022.2.4,60.039327554746585,
,,,,,,,,,,,,0,0,0,0,211,0,211,0,,,,,,,211,,,1,18846.08344674739,X,d,go,d,1,0.31934720766730607,,,,,,,,,,,,,,,80,001,23,w,"Bildungswissenschaften, Psychologie",2023-01-30_13h52.30.466,00_bat_bachelor,2022.2.4,60.039327554746585,
,,,,,,,,,,,,0,0,0,0,212,0,212,0,,,,,,,212,,,1,18847.533413074678,Y,l,go,l,1,0.45387271838262677,,,,,,,,,,,,,,,80,001,23,w,"Bildungswissenschaften, Psychologie",2023-01-30_13h52.30.466,00_bat_bachelor,2022.2.4,60.039327554746585,
,,,,,,,,,,,,0,0,0,0,213,0,213,0,,,,,,,213,,,1,18849.116745155538,X,d,go,None,0,,18849.916419919347,,,,,,,,,,,,,,80,001,23,w,"Bildungswissenschaften, Psychologie",2023-01-30_13h52.30.466,00_bat_bachelor,2022.2.4,60.039327554746585,
,,,,,,,,,,,,0,0,0,0,214,0,214,0,,,,,,,214,,,1,18850.916486828355,Y,l,go,l,1,0.4475648426450789,,,,,,,,,,,,,,,80,001,23,w,"Bildungswissenschaften, Psychologie",2023-01-30_13h52.30.466,00_bat_bachelor,2022.2.4,60.039327554746585,
,,,,,,,,,,,,0,0,0,0,215,0,215,0,,,,,,,215,,,1,18852.466211652616,Y,None,nogo,None,1,,18853.266249567736,,,,,,,,,,,,,,80,001,23,w,"Bildungswissenschaften, Psychologie",2023-01-30_13h52.30.466,00_bat_bachelor,2022.2.4,60.039327554746585,
,,,,,,,,,,,,0,0,0,0,216,0,216,0,,,,,,,216,,,1,18854.266198173864,X,d,go,d,1,0.2975590971764177,,,,,,,,,,,,,,,80,001,23,w,"Bildungswissenschaften, Psychologie",2023-01-30_13h52.30.466,00_bat_bachelor,2022.2.4,60.039327554746585,
,,,,,,,,,,,,0,0,0,0,217,0,217,0,,,,,,,217,,,1,18855.666278949706,Y,l,go,l,1,0.37089045555330813,,,,,,,,,,,,,,,80,001,23,w,"Bildungswissenschaften, Psychologie",2023-01-30_13h52.30.466,00_bat_bachelor,2022.2.4,60.039327554746585,
,,,,,,,,,,,,0,0,0,0,218,0,218,0,,,,,,,218,,,1,18857.149531563744,Y,None,nogo,None,1,,18857.94955396373,,,,,,,,,,,,,,80,001,23,w,"Bildungswissenschaften, Psychologie",2023-01-30_13h52.30.466,00_bat_bachelor,2022.2.4,60.039327554746585,
,,,,,,,,,,,,0,0,0,0,219,0,219,0,,,,,,,219,,,1,18858.949169964064,X,d,go,d,1,0.22318046656437218,,,,,,,,,,,,,,,80,001,23,w,"Bildungswissenschaften, Psychologie",2023-01-30_13h52.30.466,00_bat_bachelor,2022.2.4,60.039327554746585,
,,,,,,,,,,,,0,0,0,0,220,0,220,0,,,,,,,220,,,1,18860.282583135646,Y,l,go,l,1,0.28169874125160277,,,,,,,,,,,,,,,80,001,23,w,"Bildungswissenschaften, Psychologie",2023-01-30_13h52.30.466,00_bat_bachelor,2022.2.4,60.039327554746585,
,,,,,,,,,,,,0,0,0,0,221,0,221,0,,,,,,,221,,,1,18861.666161616333,X,d,go,d,1,0.43384460685774684,,,,,,,,,,,,,,,80,001,23,w,"Bildungswissenschaften, Psychologie",2023-01-30_13h52.30.466,00_bat_bachelor,2022.2.4,60.039327554746585,
,,,,,,,,,,,,0,0,0,0,222,0,222,0,,,,,,,222,,,1,18863.216403773753,Y,l,go,l,1,0.21236689598299563,,,,,,,,,,,,,,,80,001,23,w,"Bildungswissenschaften, Psychologie",2023-01-30_13h52.30.466,00_bat_bachelor,2022.2.4,60.039327554746585,
,,,,,,,,,,,,0,0,0,0,223,0,223,0,,,,,,,223,,,1,18864.532561681233,X,d,go,d,1,0.2871620114892721,,,,,,,,,,,,,,,80,001,23,w,"Bildungswissenschaften, Psychologie",2023-01-30_13h52.30.466,00_bat_bachelor,2022.2.4,60.039327554746585,
,,,,,,,,,,,,0,0,0,0,224,0,224,0,,,,,,,224,,,1,18865.932651184034,Y,l,go,l,1,0.26366481045261025,,,,,,,,,,,,,,,80,001,23,w,"Bildungswissenschaften, Psychologie",2023-01-30_13h52.30.466,00_bat_bachelor,2022.2.4,60.039327554746585,
,,,,,,,,,,,,0,0,0,0,225,0,225,0,,,,,,,225,,,1,18867.299539248692,X,d,go,d,1,0.35273482790216804,,,,,,,,,,,,,,,80,001,23,w,"Bildungswissenschaften, Psychologie",2023-01-30_13h52.30.466,00_bat_bachelor,2022.2.4,60.039327554746585,
,,,,,,,,,,,,0,0,0,0,226,0,226,0,,,,,,,226,,,1,18868.766168840695,Y,l,go,l,1,0.326011931989342,,,,,,,,,,,,,,,80,001,23,w,"Bildungswissenschaften, Psychologie",2023-01-30_13h52.30.466,00_bat_bachelor,2022.2.4,60.039327554746585,
,,,,,,,,,,,,0,0,0,0,227,0,227,0,,,,,,,227,,,1,18870.19950341829,Y,None,nogo,None,1,,18870.999348848825,,,,,,,,,,,,,,80,001,23,w,"Bildungswissenschaften, Psychologie",2023-01-30_13h52.30.466,00_bat_bachelor,2022.2.4,60.039327554746585,
,,,,,,,,,,,,0,0,0,0,228,0,228,0,,,,,,,228,,,1,18871.999513697112,X,d,go,d,1,0.21375841042026877,,,,,,,,,,,,,,,80,001,23,w,"Bildungswissenschaften, Psychologie",2023-01-30_13h52.30.466,00_bat_bachelor,2022.2.4,60.039327554746585,
,,,,,,,,,,,,0,0,0,0,229,0,229,0,,,,,,,229,,,1,18873.316134634428,Y,l,go,l,1,0.2874737686943263,,,,,,,,,,,,,,,80,001,23,w,"Bildungswissenschaften, Psychologie",2023-01-30_13h52.30.466,00_bat_bachelor,2022.2.4,60.039327554746585,
,,,,,,,,,,,,0,0,0,0,230,0,230,0,,,,,,,230,,,1,18874.716169834603,Y,None,nogo,None,1,,18875.515864477027,,,,,,,,,,,,,,80,001,23,w,"Bildungswissenschaften, Psychologie",2023-01-30_13h52.30.466,00_bat_bachelor,2022.2.4,60.039327554746585,
,,,,,,,,,,,,0,0,0,0,231,0,231,0,,,,,,,231,,,1,18876.516172840493,X,d,go,d,1,0.3194019957445562,,,,,,,,,,,,,,,80,001,23,w,"Bildungswissenschaften, Psychologie",2023-01-30_13h52.30.466,00_bat_bachelor,2022.2.4,60.039327554746585,
,,,,,,,,,,,,0,0,0,0,232,0,232,0,,,,,,,232,,,1,18877.950489721028,Y,l,go,l,1,0.3571653713006526,,,,,,,,,,,,,,,80,001,23,w,"Bildungswissenschaften, Psychologie",2023-01-30_13h52.30.466,00_bat_bachelor,2022.2.4,60.039327554746585,
,,,,,,,,,,,,0,0,0,0,233,0,233,0,,,,,,,233,,,1,18879.45000705449,Y,None,nogo,None,1,,18880.249965939438,,,,,,,,,,,,,,80,001,23,w,"Bildungswissenschaften, Psychologie",2023-01-30_13h52.30.466,00_bat_bachelor,2022.2.4,60.039327554746585,
,,,,,,,,,,,,0,0,0,0,234,0,234,0,,,,,,,234,,,1,18881.249971757643,X,d,go,d,1,0.4497311448212713,,,,,,,,,,,,,,,80,001,23,w,"Bildungswissenschaften, Psychologie",2023-01-30_13h52.30.466,00_bat_bachelor,2022.2.4,60.039327554746585,
,,,,,,,,,,,,0,0,0,0,235,0,235,0,,,,,,,235,,,1,18882.800032096915,Y,l,go,l,1,0.33988634939305484,,,,,,,,,,,,,,,80,001,23,w,"Bildungswissenschaften, Psychologie",2023-01-30_13h52.30.466,00_bat_bachelor,2022.2.4,60.039327554746585,
,,,,,,,,,,,,0,0,0,0,236,0,236,0,,,,,,,236,,,1,18884.24996642419,X,d,go,None,0,,18885.049980096985,,,,,,,,,,,,,,80,001,23,w,"Bildungswissenschaften, Psychologie",2023-01-30_13h52.30.466,00_bat_bachelor,2022.2.4,60.039327554746585,
,,,,,,,,,,,,0,0,0,0,237,0,237,0,,,,,,,237,,,1,18886.049803127302,Y,l,go,l,1,0.27346456330269575,,,,,,,,,,,,,,,80,001,23,w,"Bildungswissenschaften, Psychologie",2023-01-30_13h52.30.466,00_bat_bachelor,2022.2.4,60.039327554746585,
,,,,,,,,,,,,0,0,0,0,238,0,238,0,,,,,,,238,,,1,18887.449788387865,X,d,go,d,1,0.3781694823410362,,,,,,,,,,,,,,,80,001,23,w,"Bildungswissenschaften, Psychologie",2023-01-30_13h52.30.466,00_bat_bachelor,2022.2.4,60.039327554746585,
,,,,,,,,,,,,0,0,0,0,239,0,239,0,,,,,,,239,,,1,18888.93305845675,Y,l,go,l,1,0.49416942615062,,,,,,,,,,,,,,,80,001,23,w,"Bildungswissenschaften, Psychologie",2023-01-30_13h52.30.466,00_bat_bachelor,2022.2.4,60.039327554746585,
,,,,,,,,,,,,0,0,0,0,240,0,240,0,,,,,,,240,,,1,18890.549966763705,Y,None,nogo,None,1,,18891.350065769628,,,,,,,,,,,,,,80,001,23,w,"Bildungswissenschaften, Psychologie",2023-01-30_13h52.30.466,00_bat_bachelor,2022.2.4,60.039327554746585,
,,,,,,,,,,,,0,0,0,0,241,0,241,0,,,,,,,241,,,1,18892.3498063758,X,d,go,d,1,0.24617730383761227,,,,,,,,,,,,,,,80,001,23,w,"Bildungswissenschaften, Psychologie",2023-01-30_13h52.30.466,00_bat_bachelor,2022.2.4,60.039327554746585,
,,,,,,,,,,,,0,0,0,0,242,0,242,0,,,,,,,242,,,1,18893.70007432718,Y,l,go,l,1,0.3355338666588068,,,,,,,,,,,,,,,80,001,23,w,"Bildungswissenschaften, Psychologie",2023-01-30_13h52.30.466,00_bat_bachelor,2022.2.4,60.039327554746585,
,,,,,,,,,,,,0,0,0,0,243,0,243,0,,,,,,,243,,,1,18895.16661131312,X,d,go,None,0,,18895.966665713117,,,,,,,,,,,,,,80,001,23,w,"Bildungswissenschaften, Psychologie",2023-01-30_13h52.30.466,00_bat_bachelor,2022.2.4,60.039327554746585,
,,,,,,,,,,,,0,0,0,0,244,0,244,0,,,,,,,244,,,1,18896.966686076717,Y,l,go,l,1,0.4285864275880158,,,,,,,,,,,,,,,80,001,23,w,"Bildungswissenschaften, Psychologie",2023-01-30_13h52.30.466,00_bat_bachelor,2022.2.4,60.039327554746585,
,,,,,,,,,,,,0,0,0,0,245,0,245,0,,,,,,,245,,,1,18898.516403143527,Y,None,nogo,None,1,,18899.31645948277,,,,,,,,,,,,,,80,001,23,w,"Bildungswissenschaften, Psychologie",2023-01-30_13h52.30.466,00_bat_bachelor,2022.2.4,60.039327554746585,
,,,,,,,,,,,,0,0,0,0,246,0,246,0,,,,,,,246,,,1,18900.316546270624,X,d,go,d,1,0.2954238255042583,,,,,,,,,,,,,,,80,001,23,w,"Bildungswissenschaften, Psychologie",2023-01-30_13h52.30.466,00_bat_bachelor,2022.2.4,60.039327554746585,
,,,,,,,,,,,,0,0,0,0,247,0,247,0,,,,,,,247,,,1,18901.716500500916,Y,l,go,l,1,0.20726629230193794,,,,,,,,,,,,,,,80,001,23,w,"Bildungswissenschaften, Psychologie",2023-01-30_13h52.30.466,00_bat_bachelor,2022.2.4,60.039327554746585,
,,,,,,,,,,,,0,0,0,0,248,0,248,0,,,,,,,248,,,1,18903.049824460642,X,d,go,d,1,0.6019754344597459,,,,,,,,,,,,,,,80,001,23,w,"Bildungswissenschaften, Psychologie",2023-01-30_13h52.30.466,00_bat_bachelor,2022.2.4,60.039327554746585,
,,,,,,,,,,,,0,0,0,0,249,0,249,0,,,,,,,249,,,1,18904.766671628226,Y,l,go,l,1,0.4049394086468965,,,,,,,,,,,,,,,80,001,23,w,"Bildungswissenschaften, Psychologie",2023-01-30_13h52.30.466,00_bat_bachelor,2022.2.4,60.039327554746585,
,,,,,,,,,,,,1,0,1,0,0,0,0,0,,,,,,,0,,,0.2,18978.266329082893,X,d,go,None,0,,18979.06625063438,,,,,,,,18905.31082748552,space,72.72908761515282,,,,80,001,23,w,"Bildungswissenschaften, Psychologie",2023-01-30_13h52.30.466,00_bat_bachelor,2022.2.4,60.039327554746585,
,,,,,,,,,,,,1,0,1,0,1,0,1,0,,,,,,,1,,,0.2,18979.266232113354,Y,l,go,l,1,0.3529302217066288,,,,,,,,,,,,,,,80,001,23,w,"Bildungswissenschaften, Psychologie",2023-01-30_13h52.30.466,00_bat_bachelor,2022.2.4,60.039327554746585,
,,,,,,,,,,,,1,0,1,0,2,0,2,0,,,,,,,2,,,0.2,18979.932773365872,X,d,go,d,1,0.6469397763721645,,,,,,,,,,,,,,,80,001,23,w,"Bildungswissenschaften, Psychologie",2023-01-30_13h52.30.466,00_bat_bachelor,2022.2.4,60.039327554746585,
,,,,,,,,,,,,1,0,1,0,3,0,3,0,,,,,,,3,,,0.2,18980.882848541485,X,None,nogo,None,1,,18981.682911668904,,,,,,,,,,,,,,80,001,23,w,"Bildungswissenschaften, Psychologie",2023-01-30_13h52.30.466,00_bat_bachelor,2022.2.4,60.039327554746585,
,,,,,,,,,,,,1,0,1,0,4,0,4,0,,,,,,,4,,,0.2,18981.88301823847,Y,l,go,l,1,0.29790479387156665,,,,,,,,,,,,,,,80,001,23,w,"Bildungswissenschaften, Psychologie",2023-01-30_13h52.30.466,00_bat_bachelor,2022.2.4,60.039327554746585,
,,,,,,,,,,,,1,0,1,0,5,0,5,0,,,,,,,5,,,0.2,18982.482740129577,X,d,go,d,1,0.5140879617538303,,,,,,,,,,,,,,,80,001,23,w,"Bildungswissenschaften, Psychologie",2023-01-30_13h52.30.466,00_bat_bachelor,2022.2.4,60.039327554746585,
,,,,,,,,,,,,1,0,1,0,6,0,6,0,,,,,,,6,,,0.2,18983.299532460747,Y,l,go,l,1,0.5128351140301675,,,,,,,,,,,,,,,80,001,23,w,"Bildungswissenschaften, Psychologie",2023-01-30_13h52.30.466,00_bat_bachelor,2022.2.4,60.039327554746585,
,,,,,,,,,,,,1,0,1,0,7,0,7,0,,,,,,,7,,,0.2,18984.11591703468,Y,None,nogo,None,1,,18984.916102828458,,,,,,,,,,,,,,80,001,23,w,"Bildungswissenschaften, Psychologie",2023-01-30_13h52.30.466,00_bat_bachelor,2022.2.4,60.039327554746585,
,,,,,,,,,,,,1,0,1,0,8,0,8,0,,,,,,,8,,,0.2,18985.116093034623,X,d,go,d,1,0.3282916883472353,,,,,,,,,,,,,,,80,001,23,w,"Bildungswissenschaften, Psychologie",2023-01-30_13h52.30.466,00_bat_bachelor,2022.2.4,60.039327554746585,
,,,,,,,,,,,,1,0,1,0,9,0,9,0,,,,,,,9,,,0.2,18985.749388242606,Y,l,go,l,1,0.4143711617216468,,,,,,,,,,,,,,,80,001,23,w,"Bildungswissenschaften, Psychologie",2023-01-30_13h52.30.466,00_bat_bachelor,2022.2.4,60.039327554746585,
,,,,,,,,,,,,1,0,1,0,10,0,10,0,,,,,,,10,,,0.2,18986.46593431942,Y,None,nogo,None,1,,18987.26631065877,,,,,,,,,,,,,,80,001,23,w,"Bildungswissenschaften, Psychologie",2023-01-30_13h52.30.466,00_bat_bachelor,2022.2.4,60.039327554746585,
,,,,,,,,,,,,1,0,1,0,11,0,11,0,,,,,,,11,,,0.2,18987.465792743722,X,d,go,d,1,0.21736762090586126,,,,,,,,,,,,,,,80,001,23,w,"Bildungswissenschaften, Psychologie",2023-01-30_13h52.30.466,00_bat_bachelor,2022.2.4,60.039327554746585,
,,,,,,,,,,,,1,0,1,0,12,0,12,0,,,,,,,12,,,0.2,18987.999134060927,Y,l,go,l,1,0.35768803767859936,,,,,,,,,,,,,,,80,001,23,w,"Bildungswissenschaften, Psychologie",2023-01-30_13h52.30.466,00_bat_bachelor,2022.2.4,60.039327554746585,
,,,,,,,,,,,,1,0,1,0,13,0,13,0,,,,,,,13,,,0.2,18988.665794586297,X,d,go,d,1,0.4579711405094713,,,,,,,,,,,,,,,80,001,23,w,"Bildungswissenschaften, Psychologie",2023-01-30_13h52.30.466,00_bat_bachelor,2022.2.4,60.039327554746585,
,,,,,,,,,,,,1,0,1,0,14,0,14,0,,,,,,,14,,,0.2,18989.432722214377,Y,l,go,l,1,0.2671959602739662,,,,,,,,,,,,,,,80,001,23,w,"Bildungswissenschaften, Psychologie",2023-01-30_13h52.30.466,00_bat_bachelor,2022.2.4,60.039327554746585,
,,,,,,,,,,,,1,0,1,0,15,0,15,0,,,,,,,15,,,0.2,18990.0158768408,Y,None,nogo,None,1,,18990.816096574068,,,,,,,,,,,,,,80,001,23,w,"Bildungswissenschaften, Psychologie",2023-01-30_13h52.30.466,00_bat_bachelor,2022.2.4,60.039327554746585,
,,,,,,,,,,,,1,0,1,0,16,0,16,0,,,,,,,16,,,0.2,18991.016097931424,X,d,go,d,1,0.187486908165738,,,,,,,,,,,,,,,80,001,23,w,"Bildungswissenschaften, Psychologie",2023-01-30_13h52.30.466,00_bat_bachelor,2022.2.4,60.039327554746585,
,,,,,,,,,,,,1,0,1,0,17,0,17,0,,,,,,,17,,,0.2,18991.515804355964,Y,l,go,l,1,0.3289515667129308,,,,,,,,,,,,,,,80,001,23,w,"Bildungswissenschaften, Psychologie",2023-01-30_13h52.30.466,00_bat_bachelor,2022.2.4,60.039327554746585,
,,,,,,,,,,,,1,0,1,0,18,0,18,0,,,,,,,18,,,0.2,18992.149446230615,X,d,go,None,0,,18992.949429842643,,,,,,,,,,,,,,80,001,23,w,"Bildungswissenschaften, Psychologie",2023-01-30_13h52.30.466,00_bat_bachelor,2022.2.4,60.039327554746585,
,,,,,,,,,,,,1,0,1,0,19,0,19,0,,,,,,,19,,,0.2,18993.149454957806,X,None,nogo,None,1,,18993.949622812215,,,,,,,,,,,,,,80,001,23,w,"Bildungswissenschaften, Psychologie",2023-01-30_13h52.30.466,00_bat_bachelor,2022.2.4,60.039327554746585,
,,,,,,,,,,,,1,0,1,0,20,0,20,0,,,,,,,20,,,0.2,18994.149571806192,Y,l,go,l,1,0.31776417838409543,,,,,,,,,,,,,,,80,001,23,w,"Bildungswissenschaften, Psychologie",2023-01-30_13h52.30.466,00_bat_bachelor,2022.2.4,60.039327554746585,
,,,,,,,,,,,,1,0,1,0,21,0,21,0,,,,,,,21,,,0.2,18994.78276616591,X,d,go,d,1,0.4214712795801461,,,,,,,,,,,,,,,80,001,23,w,"Bildungswissenschaften, Psychologie",2023-01-30_13h52.30.466,00_bat_bachelor,2022.2.4,60.039327554746585,
,,,,,,,,,,,,1,0,1,0,22,0,22,0,,,,,,,22,,,0.2,18995.51607974968,X,None,nogo,None,1,,18996.316114755813,,,,,,,,,,,,,,80,001,23,w,"Bildungswissenschaften, Psychologie",2023-01-30_13h52.30.466,00_bat_bachelor,2022.2.4,60.039327554746585,
,,,,,,,,,,,,1,0,1,0,23,0,23,0,,,,,,,23,,,0.2,18996.51591926487,Y,l,go,l,1,0.38355032820254564,,,,,,,,,,,,,,,80,001,23,w,"Bildungswissenschaften, Psychologie",2023-01-30_13h52.30.466,00_bat_bachelor,2022.2.4,60.039327554746585,
,,,,,,,,,,,,1,0,1,0,24,0,24,0,,,,,,,24,,,0.2,18997.19914850942,X,d,go,None,0,,18997.99913551542,,,,,,,,,,,,,,80,001,23,w,"Bildungswissenschaften, Psychologie",2023-01-30_13h52.30.466,00_bat_bachelor,2022.2.4,60.039327554746585,
,,,,,,,,,,,,1,0,1,0,25,0,25,0,,,,,,,25,,,0.2,18998.199228994315,X,None,nogo,None,1,,18998.999255273025,,,,,,,,,,,,,,80,001,23,w,"Bildungswissenschaften, Psychologie",2023-01-30_13h52.30.466,00_bat_bachelor,2022.2.4,60.039327554746585,
,,,,,,,,,,,,1,0,1,0,26,0,26,0,,,,,,,26,,,0.2,18999.199420509394,Y,l,go,l,1,0.3571353107690811,,,,,,,,,,,,,,,80,001,23,w,"Bildungswissenschaften, Psychologie",2023-01-30_13h52.30.466,00_bat_bachelor,2022.2.4,60.039327554746585,
,,,,,,,,,,,,1,0,1,0,27,0,27,0,,,,,,,27,,,0.2,18999.866186731495,X,d,go,None,0,,19000.665786828613,,,,,,,,,,,,,,80,001,23,w,"Bildungswissenschaften, Psychologie",2023-01-30_13h52.30.466,00_bat_bachelor,2022.2.4,60.039327554746585,
,,,,,,,,,,,,1,0,1,0,28,0,28,0,,,,,,,28,,,0.2,19000.86609218619,X,None,nogo,None,1,,19001.66611652542,,,,,,,,,,,,,,80,001,23,w,"Bildungswissenschaften, Psychologie",2023-01-30_13h52.30.466,00_bat_bachelor,2022.2.4,60.039327554746585,
,,,,,,,,,,,,1,0,1,0,29,0,29,0,,,,,,,29,,,0.2,19001.866089761723,Y,l,go,l,1,0.28149752924218774,,,,,,,,,,,,,,,80,001,23,w,"Bildungswissenschaften, Psychologie",2023-01-30_13h52.30.466,00_bat_bachelor,2022.2.4,60.039327554746585,
,,,,,,,,,,,,1,0,1,0,30,0,30,0,,,,,,,30,,,0.2,19002.44949166081,X,d,go,None,0,,19003.24943163665,,,,,,,,,,,,,,80,001,23,w,"Bildungswissenschaften, Psychologie",2023-01-30_13h52.30.466,00_bat_bachelor,2022.2.4,60.039327554746585,
,,,,,,,,,,,,1,0,1,0,31,0,31,0,,,,,,,31,,,0.2,19003.44919057004,Y,l,go,None,0,,19004.24941709102,,,,,,,,,,,,,,80,001,23,w,"Bildungswissenschaften, Psychologie",2023-01-30_13h52.30.466,00_bat_bachelor,2022.2.4,60.039327554746585,
,,,,,,,,,,,,1,0,1,0,32,0,32,0,,,,,,,32,,,0.2,19004.449394691037,X,d,go,d,1,0.4499517504591495,,,,,,,,,,,,,,,80,001,23,w,"Bildungswissenschaften, Psychologie",2023-01-30_13h52.30.466,00_bat_bachelor,2022.2.4,60.039327554746585,
,,,,,,,,,,,,1,0,1,0,33,0,33,0,,,,,,,33,,,0.2,19005.199498085072,Y,l,go,l,1,0.4049975904636085,,,,,,,,,,,,,,,80,001,23,w,"Bildungswissenschaften, Psychologie",2023-01-30_13h52.30.466,00_bat_bachelor,2022.2.4,60.039327554746585,
,,,,,,,,,,,,1,0,1,0,34,0,34,0,,,,,,,34,,,0.2,19005.916162464768,X,d,go,d,1,0.648422442143783,,,,,,,,,,,,,,,80,001,23,w,"Bildungswissenschaften, Psychologie",2023-01-30_13h52.30.466,00_bat_bachelor,2022.2.4,60.039327554746585,
,,,,,,,,,,,,1,0,1,0,35,0,35,0,,,,,,,35,,,0.2,19006.86613194365,Y,l,go,l,1,0.5145199615508318,,,,,,,,,,,,,,,80,001,23,w,"Bildungswissenschaften, Psychologie",2023-01-30_13h52.30.466,00_bat_bachelor,2022.2.4,60.039327554746585,
,,,,,,,,,,,,1,0,1,0,36,0,36,0,,,,,,,36,,,0.2,19007.682749244617,Y,None,nogo,None,1,,19008.48251806898,,,,,,,,,,,,,,80,001,23,w,"Bildungswissenschaften, Psychologie",2023-01-30_13h52.30.466,00_bat_bachelor,2022.2.4,60.039327554746585,
,,,,,,,,,,,,1,0,1,0,37,0,37,0,,,,,,,37,,,0.2,19008.682748274878,X,d,go,d,1,0.21711743902415037,,,,,,,,,,,,,,,80,001,23,w,"Bildungswissenschaften, Psychologie",2023-01-30_13h52.30.466,00_bat_bachelor,2022.2.4,60.039327554746585,
,,,,,,,,,,,,1,0,1,0,38,0,38,0,,,,,,,38,,,0.2,19009.216090561822,Y,l,go,l,1,0.4191275229677558,,,,,,,,,,,,,,,80,001,23,w,"Bildungswissenschaften, Psychologie",2023-01-30_13h52.30.466,00_bat_bachelor,2022.2.4,60.039327554746585,
,,,,,,,,,,,,1,0,1,0,39,0,39,0,,,,,,,39,,,0.2,19009.949370691087,X,d,go,None,0,,19010.749388727592,,,,,,,,,,,,,,80,001,23,w,"Bildungswissenschaften, Psychologie",2023-01-30_13h52.30.466,00_bat_bachelor,2022.2.4,60.039327554746585,
,,,,,,,,,,,,1,0,1,0,40,0,40,0,,,,,,,40,,,0.2,19010.94940414559,Y,l,go,None,0,,19011.749162303284,,,,,,,,,,,,,,80,001,23,w,"Bildungswissenschaften, Psychologie",2023-01-30_13h52.30.466,00_bat_bachelor,2022.2.4,60.039327554746585,
,,,,,,,,,,,,1,0,1,0,41,0,41,0,,,,,,,41,,,0.2,19011.949426933657,Y,None,nogo,None,1,,19012.74940133351,,,,,,,,,,,,,,80,001,23,w,"Bildungswissenschaften, Psychologie",2023-01-30_13h52.30.466,00_bat_bachelor,2022.2.4,60.039327554746585,
,,,,,,,,,,,,1,0,1,0,42,0,42,0,,,,,,,42,,,0.2,19012.949180630734,X,d,go,d,1,0.36728706350550056,,,,,,,,,,,,,,,80,001,23,w,"Bildungswissenschaften, Psychologie",2023-01-30_13h52.30.466,00_bat_bachelor,2022.2.4,60.039327554746585,
,,,,,,,,,,,,1,0,1,0,43,0,43,0,,,,,,,43,,,0.2,19013.63242684491,Y,l,go,l,1,0.2596429942641407,,,,,,,,,,,,,,,80,001,23,w,"Bildungswissenschaften, Psychologie",2023-01-30_13h52.30.466,00_bat_bachelor,2022.2.4,60.039327554746585,
,,,,,,,,,,,,1,0,1,0,44,0,44,0,,,,,,,44,,,0.2,19014.199100024533,Y,None,nogo,d,0,0.332422110484913,,,,,,,,,,,,,,,80,001,23,w,"Bildungswissenschaften, Psychologie",2023-01-30_13h52.30.466,00_bat_bachelor,2022.2.4,60.039327554746585,
,,,,,,,,,,,,1,0,1,0,45,0,45,0,,,,,,,45,,,0.2,19014.83271911135,X,d,go,l,0,0.49922009045258164,,,,,,,,,,,,,,,80,001,23,w,"Bildungswissenschaften, Psychologie",2023-01-30_13h52.30.466,00_bat_bachelor,2022.2.4,60.039327554746585,
,,,,,,,,,,,,1,0,1,0,46,0,46,0,,,,,,,46,,,0.2,19015.632513632765,Y,l,go,d,0,0.48317743139341474,,,,,,,,,,,,,,,80,001,23,w,"Bildungswissenschaften, Psychologie",2023-01-30_13h52.30.466,00_bat_bachelor,2022.2.4,60.039327554746585,
,,,,,,,,,,,,1,0,1,0,47,0,47,0,,,,,,,47,,,0.2,19016.416055070935,Y,None,nogo,None,1,,19017.2160794104,,,,,,,,,,,,,,80,001,23,w,"Bildungswissenschaften, Psychologie",2023-01-30_13h52.30.466,00_bat_bachelor,2022.2.4,60.039327554746585,
,,,,,,,,,,,,1,0,1,0,48,0,48,0,,,,,,,48,,,0.2,19017.41606864659,X,d,go,d,1,0.4454227830283344,,,,,,,,,,,,,,,80,001,23,w,"Bildungswissenschaften, Psychologie",2023-01-30_13h52.30.466,00_bat_bachelor,2022.2.4,60.039327554746585,
,,,,,,,,,,,,1,0,1,0,49,0,49,0,,,,,,,49,,,0.2,19018.166083313292,Y,l,go,l,1,0.6071705832146108,,,,,,,,,,,,,,,80,001,23,w,"Bildungswissenschaften, Psychologie",2023-01-30_13h52.30.466,00_bat_bachelor,2022.2.4,60.039327554746585,
,,,,,,,,,,,,1,0,1,0,50,0,50,0,,,,,,,50,,,0.2,19019.082456687232,Y,None,nogo,None,1,,19019.882539208513,,,,,,,,,,,,,,80,001,23,w,"Bildungswissenschaften, Psychologie",2023-01-30_13h52.30.466,00_bat_bachelor,2022.2.4,60.039327554746585,
,,,,,,,,,,,,1,0,1,0,51,0,51,0,,,,,,,51,,,0.2,19020.082744202344,X,d,go,d,1,0.2892997073940933,,,,,,,,,,,,,,,80,001,23,w,"Bildungswissenschaften, Psychologie",2023-01-30_13h52.30.466,00_bat_bachelor,2022.2.4,60.039327554746585,
,,,,,,,,,,,,1,0,1,0,52,0,52,0,,,,,,,52,,,0.2,19020.68242779025,Y,l,go,l,1,0.5057616629637778,,,,,,,,,,,,,,,80,001,23,w,"Bildungswissenschaften, Psychologie",2023-01-30_13h52.30.466,00_bat_bachelor,2022.2.4,60.039327554746585,
,,,,,,,,,,,,1,0,1,0,53,0,53,0,,,,,,,53,,,0.2,19021.49947854574,Y,None,nogo,None,1,,19022.299395733513,,,,,,,,,,,,,,80,001,23,w,"Bildungswissenschaften, Psychologie",2023-01-30_13h52.30.466,00_bat_bachelor,2022.2.4,60.039327554746585,
,,,,,,,,,,,,1,0,1,0,54,0,54,0,,,,,,,54,,,0.2,19022.499401454814,X,d,go,d,1,0.28925316175445914,,,,,,,,,,,,,,,80,001,23,w,"Bildungswissenschaften, Psychologie",2023-01-30_13h52.30.466,00_bat_bachelor,2022.2.4,60.039327554746585,
,,,,,,,,,,,,1,0,1,0,55,0,55,0,,,,,,,55,,,0.2,19023.099468072876,Y,l,go,l,1,0.34514889237470925,,,,,,,,,,,,,,,80,001,23,w,"Bildungswissenschaften, Psychologie",2023-01-30_13h52.30.466,00_bat_bachelor,2022.2.4,60.039327554746585,
,,,,,,,,,,,,1,0,1,0,56,0,56,0,,,,,,,56,,,0.2,19023.749240363948,X,d,go,None,0,,19024.549404824385,,,,,,,,,,,,,,80,001,23,w,"Bildungswissenschaften, Psychologie",2023-01-30_13h52.30.466,00_bat_bachelor,2022.2.4,60.039327554746585,
,,,,,,,,,,,,1,0,1,0,57,0,57,0,,,,,,,57,,,0.2,19024.74941103044,X,None,nogo,None,1,,19025.549535733415,,,,,,,,,,,,,,80,001,23,w,"Bildungswissenschaften, Psychologie",2023-01-30_13h52.30.466,00_bat_bachelor,2022.2.4,60.039327554746585,
,,,,,,,,,,,,1,0,1,0,58,0,58,0,,,,,,,58,,,0.2,19025.749416848645,Y,l,go,None,0,,19026.54910906707,,,,,,,,,,,,,,80,001,23,w,"Bildungswissenschaften, Psychologie",2023-01-30_13h52.30.466,00_bat_bachelor,2022.2.4,60.039327554746585,
,,,,,,,,,,,,1,0,1,0,59,0,59,0,,,,,,,59,,,0.2,19026.749057091307,X,d,go,d,1,0.5184947475790977,,,,,,,,,,,,,,,80,001,23,w,"Bildungswissenschaften, Psychologie",2023-01-30_13h52.30.466,00_bat_bachelor,2022.2.4,60.039327554746585,
,,,,,,,,,,,,1,0,1,0,60,0,60,0,,,,,,,60,,,0.2,19027.58297232329,Y,l,go,l,1,0.4695260440930724,,,,,,,,,,,,,,,80,001,23,w,"Bildungswissenschaften, Psychologie",2023-01-30_13h52.30.466,00_bat_bachelor,2022.2.4,60.039327554746585,
,,,,,,,,,,,,1,0,1,0,61,0,61,0,,,,,,,61,,,0.2,19028.36607400421,X,d,go,d,1,0.42270327894948423,,,,,,,,,,,,,,,80,001,23,w,"Bildungswissenschaften, Psychologie",2023-01-30_13h52.30.466,00_bat_bachelor,2022.2.4,60.039327554746585,
,,,,,,,,,,,,1,0,1,0,62,0,62,0,,,,,,,62,,,0.2,19029.0993628609,Y,l,go,l,1,0.5368632236495614,,,,,,,,,,,,,,,80,001,23,w,"Bildungswissenschaften, Psychologie",2023-01-30_13h52.30.466,00_bat_bachelor,2022.2.4,60.039327554746585,
,,,,,,,,,,,,1,0,1,0,63,0,63,0,,,,,,,63,,,0.2,19029.94940172136,X,d,go,d,1,0.48672312684357166,,,,,,,,,,,,,,,80,001,23,w,"Bildungswissenschaften, Psychologie",2023-01-30_13h52.30.466,00_bat_bachelor,2022.2.4,60.039327554746585,
,,,,,,,,,,,,1,0,1,0,64,0,64,0,,,,,,,64,,,0.2,19030.749400848756,X,None,nogo,None,1,,19031.549355369993,,,,,,,,,,,,,,80,001,23,w,"Bildungswissenschaften, Psychologie",2023-01-30_13h52.30.466,00_bat_bachelor,2022.2.4,60.039327554746585,
,,,,,,,,,,,,1,0,1,0,65,0,65,0,,,,,,,65,,,0.2,19031.74941393966,Y,l,go,l,1,0.36667809379287064,,,,,,,,,,,,,,,80,001,23,w,"Bildungswissenschaften, Psychologie",2023-01-30_13h52.30.466,00_bat_bachelor,2022.2.4,60.039327554746585,
,,,,,,,,,,,,1,0,1,0,66,0,66,0,,,,,,,66,,,0.2,19032.416147676995,X,d,go,d,1,0.34015156142413616,,,,,,,,,,,,,,,80,001,23,w,"Bildungswissenschaften, Psychologie",2023-01-30_13h52.30.466,00_bat_bachelor,2022.2.4,60.039327554746585,
,,,,,,,,,,,,1,0,1,0,67,0,67,0,,,,,,,67,,,0.2,19033.06605669507,Y,l,go,l,1,0.40994789102114737,,,,,,,,,,,,,,,80,001,23,w,"Bildungswissenschaften, Psychologie",2023-01-30_13h52.30.466,00_bat_bachelor,2022.2.4,60.039327554746585,
,,,,,,,,,,,,1,0,1,0,68,0,68,0,,,,,,,68,,,0.2,19033.78243937809,X,d,go,d,1,0.5897587130311877,,,,,,,,,,,,,,,80,001,23,w,"Bildungswissenschaften, Psychologie",2023-01-30_13h52.30.466,00_bat_bachelor,2022.2.4,60.039327554746585,
,,,,,,,,,,,,1,0,1,0,69,0,69,0,,,,,,,69,,,0.2,19034.682786093093,X,None,nogo,None,1,,19035.482477826532,,,,,,,,,,,,,,80,001,23,w,"Bildungswissenschaften, Psychologie",2023-01-30_13h52.30.466,00_bat_bachelor,2022.2.4,60.039327554746585,
,,,,,,,,,,,,1,0,1,0,70,0,70,0,,,,,,,70,,,0.2,19035.682497608475,Y,l,go,l,1,0.40078280470333993,,,,,,,,,,,,,,,80,001,23,w,"Bildungswissenschaften, Psychologie",2023-01-30_13h52.30.466,00_bat_bachelor,2022.2.4,60.039327554746585,
,,,,,,,,,,,,1,0,1,0,71,0,71,0,,,,,,,71,,,0.2,19036.399221139727,X,d,go,d,1,0.4202848558779806,,,,,,,,,,,,,,,80,001,23,w,"Bildungswissenschaften, Psychologie",2023-01-30_13h52.30.466,00_bat_bachelor,2022.2.4,60.039327554746585,
,,,,,,,,,,,,1,0,1,0,72,0,72,0,,,,,,,72,,,0.2,19037.132454238832,Y,l,go,None,0,,19037.932730214437,,,,,,,,,,,,,,80,001,23,w,"Bildungswissenschaften, Psychologie",2023-01-30_13h52.30.466,00_bat_bachelor,2022.2.4,60.039327554746585,
,,,,,,,,,,,,1,0,1,0,73,0,73,0,,,,,,,73,,,0.2,19038.132720905356,X,d,go,None,0,,19038.932445608545,,,,,,,,,,,,,,80,001,23,w,"Bildungswissenschaften, Psychologie",2023-01-30_13h52.30.466,00_bat_bachelor,2022.2.4,60.039327554746585,
,,,,,,,,,,,,1,0,1,0,74,0,74,0,,,,,,,74,,,0.2,19039.132734481012,Y,l,go,l,1,0.2800051663070917,,,,,,,,,,,,,,,80,001,23,w,"Bildungswissenschaften, Psychologie",2023-01-30_13h52.30.466,00_bat_bachelor,2022.2.4,60.039327554746585,
,,,,,,,,,,,,1,0,1,0,75,0,75,0,,,,,,,75,,,0.2,19039.715856137685,X,d,go,d,1,0.5284370456356555,,,,,,,,,,,,,,,80,001,23,w,"Bildungswissenschaften, Psychologie",2023-01-30_13h52.30.466,00_bat_bachelor,2022.2.4,60.039327554746585,
,,,,,,,,,,,,1,0,1,0,76,0,76,0,,,,,,,76,,,0.2,19040.549121672986,Y,l,go,l,1,0.5111376603599638,,,,,,,,,,,,,,,80,001,23,w,"Bildungswissenschaften, Psychologie",2023-01-30_13h52.30.466,00_bat_bachelor,2022.2.4,60.039327554746585,
,,,,,,,,,,,,1,0,1,0,77,0,77,0,,,,,,,77,,,0.2,19041.366112792166,X,d,go,d,1,0.36564779141917825,,,,,,,,,,,,,,,80,001,23,w,"Bildungswissenschaften, Psychologie",2023-01-30_13h52.30.466,00_bat_bachelor,2022.2.4,60.039327554746585,
,,,,,,,,,,,,1,0,1,0,78,0,78,0,,,,,,,78,,,0.2,19042.032717074966,Y,l,go,l,1,0.6285271791275591,,,,,,,,,,,,,,,80,001,23,w,"Bildungswissenschaften, Psychologie",2023-01-30_13h52.30.466,00_bat_bachelor,2022.2.4,60.039327554746585,
,,,,,,,,,,,,1,0,1,0,79,0,79,0,,,,,,,79,,,0.2,19042.96605189517,Y,None,nogo,None,1,,19043.765767386183,,,,,,,,,,,,,,80,001,23,w,"Bildungswissenschaften, Psychologie",2023-01-30_13h52.30.466,00_bat_bachelor,2022.2.4,60.039327554746585,
,,,,,,,,,,,,1,0,1,0,80,0,80,0,,,,,,,80,,,0.2,19043.965944743715,X,d,go,d,1,0.19778411532752216,,,,,,,,,,,,,,,80,001,23,w,"Bildungswissenschaften, Psychologie",2023-01-30_13h52.30.466,00_bat_bachelor,2022.2.4,60.039327554746585,
,,,,,,,,,,,,1,0,1,0,81,0,81,0,,,,,,,81,,,0.2,19044.465760258958,Y,l,go,l,1,0.5789912031032145,,,,,,,,,,,,,,,80,001,23,w,"Bildungswissenschaften, Psychologie",2023-01-30_13h52.30.466,00_bat_bachelor,2022.2.4,60.039327554746585,
,,,,,,,,,,,,1,0,1,0,82,0,82,0,,,,,,,82,,,0.2,19045.349300679052,X,d,go,None,0,,19046.14910198818,,,,,,,,,,,,,,80,001,23,w,"Bildungswissenschaften, Psychologie",2023-01-30_13h52.30.466,00_bat_bachelor,2022.2.4,60.039327554746585,
,,,,,,,,,,,,1,0,1,0,83,0,83,0,,,,,,,83,,,0.2,19046.34941995167,X,None,nogo,d,0,0.10196840413846076,,,,,,,,,,,,,,,80,001,23,w,"Bildungswissenschaften, Psychologie",2023-01-30_13h52.30.466,00_bat_bachelor,2022.2.4,60.039327554746585,
,,,,,,,,,,,,1,0,1,0,84,0,84,0,,,,,,,84,,,0.2,19046.76575526502,Y,l,go,None,0,,19047.56600796804,,,,,,,,,,,,,,80,001,23,w,"Bildungswissenschaften, Psychologie",2023-01-30_13h52.30.466,00_bat_bachelor,2022.2.4,60.039327554746585,
,,,,,,,,,,,,1,0,1,0,85,0,85,0,,,,,,,85,,,0.2,19047.76570193167,X,d,go,None,0,,19048.565798998345,,,,,,,,,,,,,,80,001,23,w,"Bildungswissenschaften, Psychologie",2023-01-30_13h52.30.466,00_bat_bachelor,2022.2.4,60.039327554746585,
,,,,,,,,,,,,1,0,1,0,86,0,86,0,,,,,,,86,,,0.2,19048.766269204207,Y,l,go,l,1,0.3916754152160138,,,,,,,,,,,,,,,80,001,23,w,"Bildungswissenschaften, Psychologie",2023-01-30_13h52.30.466,00_bat_bachelor,2022.2.4,60.039327554746585,
,,,,,,,,,,,,1,0,1,0,87,0,87,0,,,,,,,87,,,0.2,19049.465772865107,Y,None,nogo,d,0,0.37939857272431254,,,,,,,,,,,,,,,80,001,23,w,"Bildungswissenschaften, Psychologie",2023-01-30_13h52.30.466,00_bat_bachelor,2022.2.4,60.039327554746585,
,,,,,,,,,,,,1,0,1,0,88,0,88,0,,,,,,,88,,,0.2,19050.14925859426,X,d,go,l,0,0.4791473727673292,,,,,,,,,,,,,,,80,001,23,w,"Bildungswissenschaften, Psychologie",2023-01-30_13h52.30.466,00_bat_bachelor,2022.2.4,60.039327554746585,
,,,,,,,,,,,,1,0,1,0,89,0,89,0,,,,,,,89,,,0.2,19050.932452881243,Y,l,go,d,0,0.4957747587468475,,,,,,,,,,,,,,,80,001,23,w,"Bildungswissenschaften, Psychologie",2023-01-30_13h52.30.466,00_bat_bachelor,2022.2.4,60.039327554746585,
,,,,,,,,,,,,1,0,1,0,90,0,90,0,,,,,,,90,,,0.2,19051.73271867493,X,d,go,l,0,0.46411756169982255,,,,,,,,,,,,,,,80,001,23,w,"Bildungswissenschaften, Psychologie",2023-01-30_13h52.30.466,00_bat_bachelor,2022.2.4,60.039327554746585,
,,,,,,,,,,,,1,0,1,0,91,0,91,0,,,,,,,91,,,0.2,19052.49917551549,Y,l,go,d,0,0.5135245681740344,,,,,,,,,,,,,,,80,001,23,w,"Bildungswissenschaften, Psychologie",2023-01-30_13h52.30.466,00_bat_bachelor,2022.2.4,60.039327554746585,
,,,,,,,,,,,,1,0,1,0,92,0,92,0,,,,,,,92,,,0.2,19053.315790877212,X,d,go,None,0,,19054.116068792064,,,,,,,,,,,,,,80,001,23,w,"Bildungswissenschaften, Psychologie",2023-01-30_13h52.30.466,00_bat_bachelor,2022.2.4,60.039327554746585,
,,,,,,,,,,,,1,0,1,0,93,0,93,0,,,,,,,93,,,0.2,19054.31606869516,Y,l,go,l,1,0.23224664386361837,,,,,,,,,,,,,,,80,001,23,w,"Bildungswissenschaften, Psychologie",2023-01-30_13h52.30.466,00_bat_bachelor,2022.2.4,60.039327554746585,
,,,,,,,,,,,,1,0,1,0,94,0,94,0,,,,,,,94,,,0.2,19054.849386739545,X,d,go,d,1,0.41851806873455644,,,,,,,,,,,,,,,80,001,23,w,"Bildungswissenschaften, Psychologie",2023-01-30_13h52.30.466,00_bat_bachelor,2022.2.4,60.039327554746585,
,,,,,,,,,,,,1,0,1,0,95,0,95,0,,,,,,,95,,,0.2,19055.58272408112,Y,l,go,l,1,0.4692894381005317,,,,,,,,,,,,,,,80,001,23,w,"Bildungswissenschaften, Psychologie",2023-01-30_13h52.30.466,00_bat_bachelor,2022.2.4,60.039327554746585,
,,,,,,,,,,,,1,0,1,0,96,0,96,0,,,,,,,96,,,0.2,19056.365862610517,X,d,go,d,1,0.34192271204665303,,,,,,,,,,,,,,,80,001,23,w,"Bildungswissenschaften, Psychologie",2023-01-30_13h52.30.466,00_bat_bachelor,2022.2.4,60.039327554746585,
,,,,,,,,,,,,1,0,1,0,97,0,97,0,,,,,,,97,,,0.2,19057.016051871004,X,None,nogo,l,0,0.47717210091650486,,,,,,,,,,,,,,,80,001,23,w,"Bildungswissenschaften, Psychologie",2023-01-30_13h52.30.466,00_bat_bachelor,2022.2.4,60.039327554746585,
,,,,,,,,,,,,1,0,1,0,98,0,98,0,,,,,,,98,,,0.2,19057.79932664265,Y,l,go,None,0,,19058.599350982113,,,,,,,,,,,,,,80,001,23,w,"Bildungswissenschaften, Psychologie",2023-01-30_13h52.30.466,00_bat_bachelor,2022.2.4,60.039327554746585,
,,,,,,,,,,,,1,0,1,0,99,0,99,0,,,,,,,99,,,0.2,19058.79939161241,X,d,go,None,0,,19059.599383466877,,,,,,,,,,,,,,80,001,23,w,"Bildungswissenschaften, Psychologie",2023-01-30_13h52.30.466,00_bat_bachelor,2022.2.4,60.039327554746585,
,,,,,,,,,,,,1,0,1,0,100,0,100,0,,,,,,,100,,,0.2,19059.799385794206,Y,l,go,None,0,,19060.599383466877,,,,,,,,,,,,,,80,001,23,w,"Bildungswissenschaften, Psychologie",2023-01-30_13h52.30.466,00_bat_bachelor,2022.2.4,60.039327554746585,
,,,,,,,,,,,,1,0,1,0,101,0,101,0,,,,,,,101,,,0.2,19060.79908809741,Y,None,nogo,l,0,0.05192042840644717,,,,,,,,,,,,,,,80,001,23,w,"Bildungswissenschaften, Psychologie",2023-01-30_13h52.30.466,00_bat_bachelor,2022.2.4,60.039327554746585,
,,,,,,,,,,,,1,0,1,0,102,0,102,0,,,,,,,102,,,0.2,19061.16627482837,X,d,go,d,1,0.598266345448792,,,,,,,,,,,,,,,80,001,23,w,"Bildungswissenschaften, Psychologie",2023-01-30_13h52.30.466,00_bat_bachelor,2022.2.4,60.039327554746585,
,,,,,,,,,,,,1,0,1,0,103,0,103,0,,,,,,,103,,,0.2,19062.066048452863,Y,l,go,None,0,,19062.866059216438,,,,,,,,,,,,,,80,001,23,w,"Bildungswissenschaften, Psychologie",2023-01-30_13h52.30.466,00_bat_bachelor,2022.2.4,60.039327554746585,
,,,,,,,,,,,,1,0,1,0,104,0,104,0,,,,,,,104,,,0.2,19063.06575124082,Y,None,nogo,None,1,,19063.865845883265,,,,,,,,,,,,,,80,001,23,w,"Bildungswissenschaften, Psychologie",2023-01-30_13h52.30.466,00_bat_bachelor,2022.2.4,60.039327554746585,
,,,,,,,,,,,,1,0,1,0,105,0,105,0,,,,,,,105,,,0.2,19064.065753665054,X,d,go,None,0,,19064.86599764065,,,,,,,,,,,,,,80,001,23,w,"Bildungswissenschaften, Psychologie",2023-01-30_13h52.30.466,00_bat_bachelor,2022.2.4,60.039327554746585,
,,,,,,,,,,,,1,0,1,0,106,0,106,0,,,,,,,106,,,0.2,19065.065760453,Y,l,go,None,0,,19065.86587545881,,,,,,,,,,,,,,80,001,23,w,"Bildungswissenschaften, Psychologie",2023-01-30_13h52.30.466,00_bat_bachelor,2022.2.4,60.039327554746585,
,,,,,,,,,,,,1,0,1,0,107,0,107,0,,,,,,,107,,,0.2,19066.06586275599,Y,None,nogo,d,0,0.48146203835494816,,,,,,,,,,,,,,,80,001,23,w,"Bildungswissenschaften, Psychologie",2023-01-30_13h52.30.466,00_bat_bachelor,2022.2.4,60.039327554746585,
,,,,,,,,,,,,1,0,1,0,108,0,108,0,,,,,,,108,,,0.2,19066.849490012275,X,d,go,l,0,0.4501602351665497,,,,,,,,,,,,,,,80,001,23,w,"Bildungswissenschaften, Psychologie",2023-01-30_13h52.30.466,00_bat_bachelor,2022.2.4,60.039327554746585,
,,,,,,,,,,,,1,0,1,0,109,0,109,0,,,,,,,109,,,0.2,19067.59940916393,Y,l,go,None,0,,19068.39918962447,,,,,,,,,,,,,,80,001,23,w,"Bildungswissenschaften, Psychologie",2023-01-30_13h52.30.466,00_bat_bachelor,2022.2.4,60.039327554746585,
,,,,,,,,,,,,1,0,1,0,110,0,110,0,,,,,,,110,,,0.2,19068.599365042755,X,d,go,d,1,0.5078052983153611,,,,,,,,,,,,,,,80,001,23,w,"Bildungswissenschaften, Psychologie",2023-01-30_13h52.30.466,00_bat_bachelor,2022.2.4,60.039327554746585,
,,,,,,,,,,,,1,0,1,0,111,0,111,0,,,,,,,111,,,0.2,19069.416044889018,Y,l,go,l,1,0.41205746587365866,,,,,,,,,,,,,,,80,001,23,w,"Bildungswissenschaften, Psychologie",2023-01-30_13h52.30.466,00_bat_bachelor,2022.2.4,60.039327554746585,
,,,,,,,,,,,,1,0,1,0,112,0,112,0,,,,,,,112,,,0.2,19070.132472662954,X,d,go,d,1,0.6078634315636009,,,,,,,,,,,,,,,80,001,23,w,"Bildungswissenschaften, Psychologie",2023-01-30_13h52.30.466,00_bat_bachelor,2022.2.4,60.039327554746585,
,,,,,,,,,,,,1,0,1,0,113,0,113,0,,,,,,,113,,,0.2,19071.04938858212,Y,l,go,l,1,0.44218302704393864,,,,,,,,,,,,,,,80,001,23,w,"Bildungswissenschaften, Psychologie",2023-01-30_13h52.30.466,00_bat_bachelor,2022.2.4,60.039327554746585,
,,,,,,,,,,,,1,0,1,0,114,0,114,0,,,,,,,114,,,0.2,19071.799379491247,X,d,go,d,1,0.36481821606867015,,,,,,,,,,,,,,,80,001,23,w,"Bildungswissenschaften, Psychologie",2023-01-30_13h52.30.466,00_bat_bachelor,2022.2.4,60.039327554746585,
,,,,,,,,,,,,1,0,1,0,115,0,115,0,,,,,,,115,,,0.2,19072.466145713348,Y,l,go,l,1,0.5305165599565953,,,,,,,,,,,,,,,80,001,23,w,"Bildungswissenschaften, Psychologie",2023-01-30_13h52.30.466,00_bat_bachelor,2022.2.4,60.039327554746585,
,,,,,,,,,,,,1,0,1,0,116,0,116,0,,,,,,,116,,,0.2,19073.299112582114,Y,None,nogo,None,1,,19074.099369163858,,,,,,,,,,,,,,80,001,23,w,"Bildungswissenschaften, Psychologie",2023-01-30_13h52.30.466,00_bat_bachelor,2022.2.4,60.039327554746585,
,,,,,,,,,,,,1,0,1,0,117,0,117,0,,,,,,,117,,,0.2,19074.299379733624,X,d,go,d,1,0.2648163251578808,,,,,,,,,,,,,,,80,001,23,w,"Bildungswissenschaften, Psychologie",2023-01-30_13h52.30.466,00_bat_bachelor,2022.2.4,60.039327554746585,
,,,,,,,,,,,,1,0,1,0,118,0,118,0,,,,,,,118,,,0.2,19074.865839580074,Y,l,go,l,1,0.35386888799257576,,,,,,,,,,,,,,,80,001,23,w,"Bildungswissenschaften, Psychologie",2023-01-30_13h52.30.466,00_bat_bachelor,2022.2.4,60.039327554746585,
,,,,,,,,,,,,1,0,1,0,119,0,119,0,,,,,,,119,,,0.2,19075.532711014384,X,d,go,d,1,0.6315211169421673,,,,,,,,,,,,,,,80,001,23,w,"Bildungswissenschaften, Psychologie",2023-01-30_13h52.30.466,00_bat_bachelor,2022.2.4,60.039327554746585,
,,,,,,,,,,,,1,0,1,0,120,0,120,0,,,,,,,120,,,0.2,19076.46599250124,Y,l,go,l,1,0.32231544866226614,,,,,,,,,,,,,,,80,001,23,w,"Bildungswissenschaften, Psychologie",2023-01-30_13h52.30.466,00_bat_bachelor,2022.2.4,60.039327554746585,
,,,,,,,,,,,,1,0,1,0,121,0,121,0,,,,,,,121,,,0.2,19077.09919025493,X,d,go,d,1,0.6325965104624629,,,,,,,,,,,,,,,80,001,23,w,"Bildungswissenschaften, Psychologie",2023-01-30_13h52.30.466,00_bat_bachelor,2022.2.4,60.039327554746585,
,,,,,,,,,,,,1,0,1,0,122,0,122,0,,,,,,,122,,,0.2,19078.032442166004,Y,l,go,l,1,0.37159784929826856,,,,,,,,,,,,,,,80,001,23,w,"Bildungswissenschaften, Psychologie",2023-01-30_13h52.30.466,00_bat_bachelor,2022.2.4,60.039327554746585,
,,,,,,,,,,,,1,0,1,0,123,0,123,0,,,,,,,123,,,0.2,19078.7160908042,X,d,go,d,1,0.5035594820510596,,,,,,,,,,,,,,,80,001,23,w,"Bildungswissenschaften, Psychologie",2023-01-30_13h52.30.466,00_bat_bachelor,2022.2.4,60.039327554746585,
,,,,,,,,,,,,1,0,1,0,124,0,124,0,,,,,,,124,,,0.2,19079.532448226586,Y,l,go,l,1,0.37587081687524915,,,,,,,,,,,,,,,80,001,23,w,"Bildungswissenschaften, Psychologie",2023-01-30_13h52.30.466,00_bat_bachelor,2022.2.4,60.039327554746585,
,,,,,,,,,,,,1,0,1,0,125,0,125,0,,,,,,,125,,,0.2,19080.216042561922,Y,None,nogo,d,0,0.4607342907693237,,,,,,,,,,,,,,,80,001,23,w,"Bildungswissenschaften, Psychologie",2023-01-30_13h52.30.466,00_bat_bachelor,2022.2.4,60.039327554746585,
,,,,,,,,,,,,1,0,1,0,126,0,126,0,,,,,,,126,,,0.2,19080.982706432464,X,d,go,None,0,,19081.782870408148,,,,,,,,,,,,,,80,001,23,w,"Bildungswissenschaften, Psychologie",2023-01-30_13h52.30.466,00_bat_bachelor,2022.2.4,60.039327554746585,
,,,,,,,,,,,,1,0,1,0,127,0,127,0,,,,,,,127,,,0.2,19081.98252461455,Y,l,go,l,1,0.421389824943617,,,,,,,,,,,,,,,80,001,23,w,"Bildungswissenschaften, Psychologie",2023-01-30_13h52.30.466,00_bat_bachelor,2022.2.4,60.039327554746585,
,,,,,,,,,,,,1,0,1,0,128,0,128,0,,,,,,,128,,,0.2,19082.7160355316,X,d,go,None,0,,19083.5158198711,,,,,,,,,,,,,,80,001,23,w,"Bildungswissenschaften, Psychologie",2023-01-30_13h52.30.466,00_bat_bachelor,2022.2.4,60.039327554746585,
,,,,,,,,,,,,1,0,1,0,129,0,129,0,,,,,,,129,,,0.2,19083.715696137864,Y,l,go,None,0,,19084.516002174,,,,,,,,,,,,,,80,001,23,w,"Bildungswissenschaften, Psychologie",2023-01-30_13h52.30.466,00_bat_bachelor,2022.2.4,60.039327554746585,
,,,,,,,,,,,,1,0,1,0,130,0,130,0,,,,,,,130,,,0.2,19084.71587262256,X,d,go,None,0,,,,,,,,,,,,,,,,80,001,23,w,"Bildungswissenschaften, Psychologie",2023-01-30_13h52.30.466,00_bat_bachelor,2022.2.4,60.039327554746585,
,,,,,,,,,,,,1,0,1,0,131,0,131,0,,,,,,,131,,,0.2,19085.716804500902,Y,l,go,None,0,,19086.51697235531,,,,,,,,,,,,,,80,001,23,w,"Bildungswissenschaften, Psychologie",2023-01-30_13h52.30.466,00_bat_bachelor,2022.2.4,60.039327554746585,
,,,,,,,,,,,,1,0,1,0,132,0,132,0,,,,,,,132,,,0.2,19086.716857834253,X,d,go,d,1,0.07027629832737148,,,,,,,,,,,,,,,80,001,23,w,"Bildungswissenschaften, Psychologie",2023-01-30_13h52.30.466,00_bat_bachelor,2022.2.4,60.039327554746585,
,,,,,,,,,,,,1,0,1,0,133,0,133,0,,,,,,,133,,,0.2,19087.133789025946,Y,l,go,l,1,0.4053011054638773,,,,,,,,,,,,,,,80,001,23,w,"Bildungswissenschaften, Psychologie",2023-01-30_13h52.30.466,00_bat_bachelor,2022.2.4,60.039327554746585,
,,,,,,,,,,,,1,0,1,0,134,0,134,0,,,,,,,134,,,0.2,19087.883710601833,X,d,go,d,1,0.4233035210054368,,,,,,,,,,,,,,,80,001,23,w,"Bildungswissenschaften, Psychologie",2023-01-30_13h52.30.466,00_bat_bachelor,2022.2.4,60.039327554746585,
,,,,,,,,,,,,1,0,1,0,135,0,135,0,,,,,,,135,,,0.2,19088.65040598763,Y,l,go,l,1,0.408842921955511,,,,,,,,,,,,,,,80,001,23,w,"Bildungswissenschaften, Psychologie",2023-01-30_13h52.30.466,00_bat_bachelor,2022.2.4,60.039327554746585,
,,,,,,,,,,,,1,0,1,0,136,0,136,0,,,,,,,136,,,0.2,19089.399959078757,Y,None,nogo,None,1,,19090.199985357467,,,,,,,,,,,,,,80,001,23,w,"Bildungswissenschaften, Psychologie",2023-01-30_13h52.30.466,00_bat_bachelor,2022.2.4,60.039327554746585,
,,,,,,,,,,,,1,0,1,0,137,0,137,0,,,,,,,137,,,0.2,19090.39984223037,X,d,go,d,1,0.196479388512671,,,,,,,,,,,,,,,80,001,23,w,"Bildungswissenschaften, Psychologie",2023-01-30_13h52.30.466,00_bat_bachelor,2022.2.4,60.039327554746585,
,,,,,,,,,,,,1,0,1,0,138,0,138,0,,,,,,,138,,,0.2,19090.899809502997,Y,l,go,l,1,0.3842989339027554,,,,,,,,,,,,,,,80,001,23,w,"Bildungswissenschaften, Psychologie",2023-01-30_13h52.30.466,00_bat_bachelor,2022.2.4,60.039327554746585,
,,,,,,,,,,,,1,0,1,0,139,0,139,0,,,,,,,139,,,0.2,19091.599827587837,X,d,go,d,1,0.3235159330070019,,,,,,,,,,,,,,,80,001,23,w,"Bildungswissenschaften, Psychologie",2023-01-30_13h52.30.466,00_bat_bachelor,2022.2.4,60.039327554746585,
,,,,,,,,,,,,1,0,1,0,140,0,140,0,,,,,,,140,,,0.2,19092.232970553683,Y,l,go,l,1,0.37881530029699206,,,,,,,,,,,,,,,80,001,23,w,"Bildungswissenschaften, Psychologie",2023-01-30_13h52.30.466,00_bat_bachelor,2022.2.4,60.039327554746585,
,,,,,,,,,,,,1,0,1,0,141,0,141,0,,,,,,,141,,,0.2,19092.916499434272,Y,None,nogo,None,1,,19093.71646995563,,,,,,,,,,,,,,80,001,23,w,"Bildungswissenschaften, Psychologie",2023-01-30_13h52.30.466,00_bat_bachelor,2022.2.4,60.039327554746585,
,,,,,,,,,,,,1,0,1,0,142,0,142,0,,,,,,,142,,,0.2,19093.916465979768,X,d,go,d,1,0.31169242365285754,,,,,,,,,,,,,,,80,001,23,w,"Bildungswissenschaften, Psychologie",2023-01-30_13h52.30.466,00_bat_bachelor,2022.2.4,60.039327554746585,
,,,,,,,,,,,,1,0,1,0,143,0,143,0,,,,,,,143,,,0.2,19094.533225438325,Y,l,go,l,1,0.38240172271616757,,,,,,,,,,,,,,,80,001,23,w,"Bildungswissenschaften, Psychologie",2023-01-30_13h52.30.466,00_bat_bachelor,2022.2.4,60.039327554746585,
,,,,,,,,,,,,1,0,1,0,144,0,144,0,,,,,,,144,,,0.2,19095.216541470727,Y,None,nogo,l,0,0.46687877271324396,,,,,,,,,,,,,,,80,001,23,w,"Bildungswissenschaften, Psychologie",2023-01-30_13h52.30.466,00_bat_bachelor,2022.2.4,60.039327554746585,
,,,,,,,,,,,,1,0,1,0,145,0,145,0,,,,,,,145,,,0.2,19095.98299976578,X,d,go,None,0,,19096.783207862638,,,,,,,,,,,,,,80,001,23,w,"Bildungswissenschaften, Psychologie",2023-01-30_13h52.30.466,00_bat_bachelor,2022.2.4,60.039327554746585,
