loop_instruction.thisRepN,loop_instruction.thisTrialN,loop_instruction.thisN,loop_instruction.thisIndex,loop_rsi_practice.thisRepN,loop_rsi_practice.thisTrialN,loop_rsi_practice.thisN,loop_rsi_practice.thisIndex,loop_practice.thisRepN,loop_practice.thisTrialN,loop_practice.thisN,loop_practice.thisIndex,loop_exp.thisRepN,loop_exp.thisTrialN,loop_exp.thisN,loop_exp.thisIndex,loop_trials.thisRepN,loop_trials.thisTrialN,loop_trials.thisN,loop_trials.thisIndex,map_condition,map_x_key,map_y_key,key_resp_welcome.started,key_resp_welcome.keys,key_resp_welcome.rt,index,text_empty_rsi_practice.started,text_empty_rsi_practice.stopped,rsi,stimulus.started,stimulus,correct,trial_type,key_resp_trial.keys,key_resp_trial.corr,key_resp_trial.rt,stimulus.stopped,key_resp_instruction_rsi.started,key_resp_instruction_rsi.keys,key_resp_instruction_rsi.rt,key_resp_instruction_rsi.stopped,key_resp_instruction_final.started,key_resp_instruction_final.keys,key_resp_instruction_final.rt,key_resp_break.started,key_resp_break.keys,key_resp_break.rt,key_resp_break.stopped,key_resp_end_screen.started,image_end_screen.started,key_resp_end_screen.stopped,image_end_screen.stopped,key_resp_end_screen.keys,participant,session,Alter,Geschlecht (w/m/d/andere),Studiengang,date,expName,psychopyVersion,frameRate,
,,,,0,0,0,0,0,0,0,0,,,,,,,,,0,d,l,1500.676835594997,j,29.303158405804425,0,1530.0135021129754,1531.0279487144653,1,1531.0279487144653,X,d,go,None,0,,,,,,,,,,,,,,,,,,,82,001,22,w,Psychologie,2023-01-30_15h30.07.706,00_bat_bachelor,2022.2.4,60.07946541335914,
,,,,0,0,0,0,1,0,1,0,,,,,,,,,,,,,,,1,1532.4293965746292,1533.4302775477408,1,1533.4302775477408,Y,l,go,l,1,0.5786338985562907,,,,,,,,,,,,,,,,,,82,001,22,w,Psychologie,2023-01-30_15h30.07.706,00_bat_bachelor,2022.2.4,60.07946541335914,
,,,,0,0,0,0,2,0,2,0,,,,,,,,,,,,,,,2,1534.7144919834827,1535.7151188950047,1,1535.7151188950047,X,d,go,d,1,0.5650736035349837,,,,,,,,,,,,,,,,,,82,001,22,w,Psychologie,2023-01-30_15h30.07.706,00_bat_bachelor,2022.2.4,60.07946541335914,
,,,,0,0,0,0,3,0,3,0,,,,,,,,,,,,,,,3,1536.9828954488075,1537.9837158156224,1,1537.9837158156224,Y,l,go,l,1,0.44021930106464424,,,,,,,,,,,,,,,,,,82,001,22,w,Psychologie,2023-01-30_15h30.07.706,00_bat_bachelor,2022.2.4,60.07946541335914,
,,,,0,0,0,0,4,0,4,0,,,,,,,,,,,,,,,4,1539.134535309713,1540.1353130096977,1,1540.1353130096977,Y,None,nogo,None,1,,1540.935927024202,,,,,,,,,,,,,,,,,82,001,22,w,Psychologie,2023-01-30_15h30.07.706,00_bat_bachelor,2022.2.4,60.07946541335914,
,,,,0,0,0,0,5,0,5,0,,,,,,,,,,,,,,,5,1541.5361780797211,1542.5371254773345,1,1542.5371254773345,X,d,go,d,1,0.38286101798075833,,,,,,,,,,,,,,,,,,82,001,22,w,Psychologie,2023-01-30_15h30.07.706,00_bat_bachelor,2022.2.4,60.07946541335914,
,,,,0,0,0,0,6,0,6,0,,,,,,,,,,,,,,,6,1543.637797867821,1544.638493143244,1,1544.638493143244,Y,l,go,l,1,0.649723628841457,,,,,,,,,,,,,,,,,,82,001,22,w,Psychologie,2023-01-30_15h30.07.706,00_bat_bachelor,2022.2.4,60.07946541335914,
,,,,0,0,0,0,7,0,7,0,,,,,,,,,,,,,,,7,1545.989516565398,1546.9903204473012,1,1546.9903204473012,X,d,go,d,1,0.5219873758069298,,,,,,,,,,,,,,,,,,82,001,22,w,Psychologie,2023-01-30_15h30.07.706,00_bat_bachelor,2022.2.4,60.07946541335914,
,,,,0,0,0,0,8,0,8,0,,,,,,,,,,,,,,,8,1548.224587537792,1549.2253526316708,1,1549.2253526316708,Y,l,go,None,0,,,,,,,,,,,,,,,,,,,82,001,22,w,Psychologie,2023-01-30_15h30.07.706,00_bat_bachelor,2022.2.4,60.07946541335914,
,,,,0,0,0,0,9,0,9,0,,,,,,,,,,,,,,,9,1550.6262894595457,1551.6270724928872,1,1551.6270724928872,Y,None,nogo,None,1,,1552.4277946290204,,,,,,,,,,,,,,,,,82,001,22,w,Psychologie,2023-01-30_15h30.07.706,00_bat_bachelor,2022.2.4,60.07946541335914,
,,,,0,0,0,0,10,0,10,0,,,,,,,,,,,,,,,10,1553.0281426546135,1554.029050779347,1,1554.029050779347,Y,None,nogo,l,0,0.4917002280235465,,,,,,,,,,,,,,,,,,82,001,22,w,Psychologie,2023-01-30_15h30.07.706,00_bat_bachelor,2022.2.4,60.07946541335914,
,,,,0,0,0,0,11,0,11,0,,,,,,,,,,,,,,,11,1555.646992570153,1556.6475292995055,1,1556.6475292995055,X,d,go,d,1,0.448731334086915,,,,,,,,,,,,,,,,,,82,001,22,w,Psychologie,2023-01-30_15h30.07.706,00_bat_bachelor,2022.2.4,60.07946541335914,
,,,,0,0,0,0,12,0,12,0,,,,,,,,,,,,,,,12,1557.798575218716,1558.7991948574818,1,1558.7991948574818,Y,l,go,l,1,0.5528156165928522,,,,,,,,,,,,,,,,,,82,001,22,w,Psychologie,2023-01-30_15h30.07.706,00_bat_bachelor,2022.2.4,60.07946541335914,
,,,,0,0,0,0,13,0,13,0,,,,,,,,,,,,,,,13,1560.0669757749347,1561.0676046258595,1,1561.0676046258595,X,d,go,None,0,,,,,,,,,,,,,,,,,,,82,001,22,w,Psychologie,2023-01-30_15h30.07.706,00_bat_bachelor,2022.2.4,60.07946541335914,
,,,,0,0,0,0,14,0,14,0,,,,,,,,,,,,,,,14,1562.468828000303,1563.4691741834613,1,1563.4691741834613,Y,l,go,None,0,,,,,,,,,,,,,,,,,,,82,001,22,w,Psychologie,2023-01-30_15h30.07.706,00_bat_bachelor,2022.2.4,60.07946541335914,
,,,,1,0,1,0,0,0,0,0,,,,,,,,,,,,,,,0,1580.5661709233282,1580.7665193368011,0.2,1580.7665193368011,X,d,go,d,1,0.6175988981776754,,1564.887048774006,j,15.65308073277265,,,,,,,,,,,,,,82,001,22,w,Psychologie,2023-01-30_15h30.07.706,00_bat_bachelor,2022.2.4,60.07946541335914,
,,,,1,0,1,0,1,0,1,0,,,,,,,,,,,,,,,1,1582.083739476322,1582.2839094648589,0.2,1582.2839094648589,Y,l,go,l,1,0.36549561729407287,,,,,,,,,,,,,,,,,,82,001,22,w,Psychologie,2023-01-30_15h30.07.706,00_bat_bachelor,2022.2.4,60.07946541335914,
,,,,1,0,1,0,2,0,2,0,,,,,,,,,,,,,,,2,1583.3512896050015,1583.551532321093,0.2,1583.551532321093,X,d,go,d,1,0.26569304836084484,,,,,,,,,,,,,,,,,,82,001,22,w,Psychologie,2023-01-30_15h30.07.706,00_bat_bachelor,2022.2.4,60.07946541335914,
,,,,1,0,1,0,3,0,3,0,,,,,,,,,,,,,,,3,1584.5188820126314,1584.7187489696917,0.2,1584.7187489696917,Y,l,go,l,1,0.2652290465630358,,,,,,,,,,,,,,,,,,82,001,22,w,Psychologie,2023-01-30_15h30.07.706,00_bat_bachelor,2022.2.4,60.07946541335914,
,,,,1,0,1,0,4,0,4,0,,,,,,,,,,,,,,,4,1585.6865481175191,1585.8866444088017,0.2,1585.8866444088017,Y,None,nogo,None,1,,1586.6869762403912,,,,,,,,,,,,,,,,,82,001,22,w,Psychologie,2023-01-30_15h30.07.706,00_bat_bachelor,2022.2.4,60.07946541335914,
,,,,1,0,1,0,5,0,5,0,,,,,,,,,,,,,,,5,1587.2877538434077,1587.4876406793337,0.2,1587.4876406793337,Y,None,nogo,l,0,0.5845830125399516,,,,,,,,,,,,,,,,,,82,001,22,w,Psychologie,2023-01-30_15h30.07.706,00_bat_bachelor,2022.2.4,60.07946541335914,
,,,,1,0,1,0,6,0,6,0,,,,,,,,,,,,,,,6,1589.1889650965895,1589.389345510186,0.2,1589.389345510186,X,d,go,d,1,0.5078050177653495,,,,,,,,,,,,,,,,,,82,001,22,w,Psychologie,2023-01-30_15h30.07.706,00_bat_bachelor,2022.2.4,60.07946541335914,
,,,,1,0,1,0,7,0,7,0,,,,,,,,,,,,,,,7,1590.606773747484,1590.8071284640137,0.2,1590.8071284640137,Y,l,go,l,1,0.321828538824775,,,,,,,,,,,,,,,,,,82,001,22,w,Psychologie,2023-01-30_15h30.07.706,00_bat_bachelor,2022.2.4,60.07946541335914,
,,,,1,0,1,0,8,0,8,0,,,,,,,,,,,,,,,8,1591.8412546569853,1592.0412636752044,0.2,1592.0412636752044,Y,None,nogo,None,1,,1592.8418941746204,,,,,,,,,,,,,,,,,82,001,22,w,Psychologie,2023-01-30_15h30.07.706,00_bat_bachelor,2022.2.4,60.07946541335914,
,,,,1,0,1,0,9,0,9,0,,,,,,,,,,,,,,,9,1593.4424434131142,1593.6426119470998,0.2,1593.6426119470998,X,d,go,d,1,0.33344167477844167,,,,,,,,,,,,,,,,,,82,001,22,w,Psychologie,2023-01-30_15h30.07.706,00_bat_bachelor,2022.2.4,60.07946541335914,
,,,,1,0,1,0,10,0,10,0,,,,,,,,,,,,,,,10,1594.6765369271743,1594.876937219633,0.2,1594.876937219633,Y,l,go,l,1,0.4127171337859181,,,,,,,,,,,,,,,,,,82,001,22,w,Psychologie,2023-01-30_15h30.07.706,00_bat_bachelor,2022.2.4,60.07946541335914,
,,,,1,0,1,0,11,0,11,0,,,,,,,,,,,,,,,11,1595.9943689478532,1596.1945253605809,0.2,1596.1945253605809,X,d,go,d,1,0.3583232258351927,,,,,,,,,,,,,,,,,,82,001,22,w,Psychologie,2023-01-30_15h30.07.706,00_bat_bachelor,2022.2.4,60.07946541335914,
,,,,1,0,1,0,12,0,12,0,,,,,,,,,,,,,,,12,1597.2618749551511,1597.462229671677,0.2,1597.462229671677,Y,l,go,l,1,0.291073025593505,,,,,,,,,,,,,,,,,,82,001,22,w,Psychologie,2023-01-30_15h30.07.706,00_bat_bachelor,2022.2.4,60.07946541335914,
,,,,1,0,1,0,13,0,13,0,,,,,,,,,,,,,,,13,1598.4629763412413,1598.6630537233577,0.2,1598.6630537233577,Y,None,nogo,None,1,,1599.4634699189119,,,,,,,,,,,,,,,,,82,001,22,w,Psychologie,2023-01-30_15h30.07.706,00_bat_bachelor,2022.2.4,60.07946541335914,
,,,,1,0,1,0,14,0,14,0,,,,,,,,,,,,,,,14,1600.0639163691303,1600.2643113282356,0.2,1600.2643113282356,X,d,go,d,1,0.44825812013004906,,,,,,,,,,,,,,,,,,82,001,22,w,Psychologie,2023-01-30_15h30.07.706,00_bat_bachelor,2022.2.4,60.07946541335914,
,,,,,,,,,,,,,,,,,,,,,,,,,,,,,,,,,,,,,,1601.4432409919646,None,,1601.4432409919646,1601.4432409919646,space,7.81700233828451,,,,,,,,,,82,001,22,w,Psychologie,2023-01-30_15h30.07.706,00_bat_bachelor,2022.2.4,60.07946541335914,
,,,,,,,,,,,,0,0,0,0,0,0,0,0,,,,,,,0,,,1,1610.288821968763,X,d,go,d,1,0.328134017829143,,,,,,,,,,,,,,,,,,82,001,22,w,Psychologie,2023-01-30_15h30.07.706,00_bat_bachelor,2022.2.4,60.07946541335914,
,,,,,,,,,,,,0,0,0,0,1,0,1,0,,,,,,,1,,,1,1611.7232915327659,Y,l,go,l,1,0.3987602311644878,,,,,,,,,,,,,,,,,,82,001,22,w,Psychologie,2023-01-30_15h30.07.706,00_bat_bachelor,2022.2.4,60.07946541335914,
,,,,,,,,,,,,0,0,0,0,2,0,2,0,,,,,,,2,,,1,1613.224371294531,X,d,go,d,1,0.32043459402484586,,,,,,,,,,,,,,,,,,82,001,22,w,Psychologie,2023-01-30_15h30.07.706,00_bat_bachelor,2022.2.4,60.07946541335914,
,,,,,,,,,,,,0,0,0,0,3,0,3,0,,,,,,,3,,,1,1614.6587899492442,Y,l,go,l,1,0.45426444645636366,,,,,,,,,,,,,,,,,,82,001,22,w,Psychologie,2023-01-30_15h30.07.706,00_bat_bachelor,2022.2.4,60.07946541335914,
,,,,,,,,,,,,0,0,0,0,4,0,4,0,,,,,,,4,,,1,1616.226345605217,X,d,go,d,1,0.5017962671845453,,,,,,,,,,,,,,,,,,82,001,22,w,Psychologie,2023-01-30_15h30.07.706,00_bat_bachelor,2022.2.4,60.07946541335914,
,,,,,,,,,,,,0,0,0,0,5,0,5,0,,,,,,,5,,,1,1617.8443785478921,Y,l,go,l,1,0.3411178257665597,,,,,,,,,,,,,,,,,,82,001,22,w,Psychologie,2023-01-30_15h30.07.706,00_bat_bachelor,2022.2.4,60.07946541335914,
,,,,,,,,,,,,0,0,0,0,6,0,6,0,,,,,,,6,,,1,1619.2955148432084,X,d,go,d,1,0.3137945682719874,,,,,,,,,,,,,,,,,,82,001,22,w,Psychologie,2023-01-30_15h30.07.706,00_bat_bachelor,2022.2.4,60.07946541335914,
,,,,,,,,,,,,0,0,0,0,7,0,7,0,,,,,,,7,,,1,1620.7130199777748,Y,l,go,l,1,0.39976920477784006,,,,,,,,,,,,,,,,,,82,001,22,w,Psychologie,2023-01-30_15h30.07.706,00_bat_bachelor,2022.2.4,60.07946541335914,
,,,,,,,,,,,,0,0,0,0,8,0,8,0,,,,,,,8,,,1,1622.214415377126,X,d,go,d,1,0.38618854603919317,,,,,,,,,,,,,,,,,,82,001,22,w,Psychologie,2023-01-30_15h30.07.706,00_bat_bachelor,2022.2.4,60.07946541335914,
,,,,,,,,,,,,0,0,0,0,9,0,9,0,,,,,,,9,,,1,1623.715596957467,Y,l,go,l,1,0.3570912210561801,,,,,,,,,,,,,,,,,,82,001,22,w,Psychologie,2023-01-30_15h30.07.706,00_bat_bachelor,2022.2.4,60.07946541335914,
,,,,,,,,,,,,0,0,0,0,10,0,10,0,,,,,,,10,,,1,1625.1834664085945,Y,None,nogo,None,1,,,,,,,,,,,,,,,,,,,82,001,22,w,Psychologie,2023-01-30_15h30.07.706,00_bat_bachelor,2022.2.4,60.07946541335914,
,,,,,,,,,,,,0,0,0,0,11,0,11,0,,,,,,,11,,,1,1626.9848033349954,X,d,go,d,1,0.2712673730129609,,,,,,,,,,,,,,,,,,82,001,22,w,Psychologie,2023-01-30_15h30.07.706,00_bat_bachelor,2022.2.4,60.07946541335914,
,,,,,,,,,,,,0,0,0,0,12,0,12,0,,,,,,,12,,,1,1628.368901794529,Y,l,go,l,1,0.32753862157915137,,,,,,,,,,,,,,,,,,82,001,22,w,Psychologie,2023-01-30_15h30.07.706,00_bat_bachelor,2022.2.4,60.07946541335914,
,,,,,,,,,,,,0,0,0,0,13,0,13,0,,,,,,,13,,,1,1629.803725299298,X,d,go,d,1,0.301151610139641,,,,,,,,,,,,,,,,,,82,001,22,w,Psychologie,2023-01-30_15h30.07.706,00_bat_bachelor,2022.2.4,60.07946541335914,
,,,,,,,,,,,,0,0,0,0,14,0,14,0,,,,,,,14,,,1,1631.2213414645958,Y,l,go,l,1,0.33881624108107644,,,,,,,,,,,,,,,,,,82,001,22,w,Psychologie,2023-01-30_15h30.07.706,00_bat_bachelor,2022.2.4,60.07946541335914,
,,,,,,,,,,,,0,0,0,0,15,0,15,0,,,,,,,15,,,1,1632.6721844254425,X,d,go,d,1,0.2321341303140798,,,,,,,,,,,,,,,,,,82,001,22,w,Psychologie,2023-01-30_15h30.07.706,00_bat_bachelor,2022.2.4,60.07946541335914,
,,,,,,,,,,,,0,0,0,0,16,0,16,0,,,,,,,16,,,1,1634.0068179658374,X,None,nogo,None,1,,,,,,,,,,,,,,,,,,,82,001,22,w,Psychologie,2023-01-30_15h30.07.706,00_bat_bachelor,2022.2.4,60.07946541335914,
,,,,,,,,,,,,0,0,0,0,17,0,17,0,,,,,,,17,,,1,1635.8082494380578,X,None,nogo,d,0,0.376612751322682,,,,,,,,,,,,,,,,,,82,001,22,w,Psychologie,2023-01-30_15h30.07.706,00_bat_bachelor,2022.2.4,60.07946541335914,
,,,,,,,,,,,,0,0,0,0,18,0,18,0,,,,,,,18,,,1,1637.2927036807887,Y,l,go,l,1,0.5248688415267679,,,,,,,,,,,,,,,,,,82,001,22,w,Psychologie,2023-01-30_15h30.07.706,00_bat_bachelor,2022.2.4,60.07946541335914,
,,,,,,,,,,,,0,0,0,0,19,0,19,0,,,,,,,19,,,1,1638.9272995967985,X,d,go,d,1,0.281801716904738,,,,,,,,,,,,,,,,,,82,001,22,w,Psychologie,2023-01-30_15h30.07.706,00_bat_bachelor,2022.2.4,60.07946541335914,
,,,,,,,,,,,,0,0,0,0,20,0,20,0,,,,,,,20,,,1,1640.3117573304517,Y,l,go,l,1,0.3207851408405986,,,,,,,,,,,,,,,,,,82,001,22,w,Psychologie,2023-01-30_15h30.07.706,00_bat_bachelor,2022.2.4,60.07946541335914,
,,,,,,,,,,,,0,0,0,0,21,0,21,0,,,,,,,21,,,1,1641.7461541669,Y,None,nogo,None,1,,,,,,,,,,,,,,,,,,,82,001,22,w,Psychologie,2023-01-30_15h30.07.706,00_bat_bachelor,2022.2.4,60.07946541335914,
,,,,,,,,,,,,0,0,0,0,22,0,22,0,,,,,,,22,,,1,1643.547512426714,X,d,go,d,1,0.44536404829705134,,,,,,,,,,,,,,,,,,82,001,22,w,Psychologie,2023-01-30_15h30.07.706,00_bat_bachelor,2022.2.4,60.07946541335914,
,,,,,,,,,,,,0,0,0,0,23,0,23,0,,,,,,,23,,,1,1645.0986035339774,Y,l,go,l,1,0.35032319480524166,,,,,,,,,,,,,,,,,,82,001,22,w,Psychologie,2023-01-30_15h30.07.706,00_bat_bachelor,2022.2.4,60.07946541335914,
,,,,,,,,,,,,0,0,0,0,24,0,24,0,,,,,,,24,,,1,1646.5497315868379,X,d,go,d,1,0.2123716294154292,,,,,,,,,,,,,,,,,,82,001,22,w,Psychologie,2023-01-30_15h30.07.706,00_bat_bachelor,2022.2.4,60.07946541335914,
,,,,,,,,,,,,0,0,0,0,25,0,25,0,,,,,,,25,,,1,1647.8674171827079,Y,l,go,l,1,0.22081917733157752,,,,,,,,,,,,,,,,,,82,001,22,w,Psychologie,2023-01-30_15h30.07.706,00_bat_bachelor,2022.2.4,60.07946541335914,
,,,,,,,,,,,,0,0,0,0,26,0,26,0,,,,,,,26,,,1,1649.201545509026,X,d,go,d,1,0.31243504784288234,,,,,,,,,,,,,,,,,,82,001,22,w,Psychologie,2023-01-30_15h30.07.706,00_bat_bachelor,2022.2.4,60.07946541335914,
,,,,,,,,,,,,0,0,0,0,27,0,27,0,,,,,,,27,,,1,1650.6192828869134,X,None,nogo,l,0,0.20562251232695417,,,,,,,,,,,,,,,,,,82,001,22,w,Psychologie,2023-01-30_15h30.07.706,00_bat_bachelor,2022.2.4,60.07946541335914,
,,,,,,,,,,,,0,0,0,0,28,0,28,0,,,,,,,28,,,1,1651.9373253326557,Y,l,go,l,1,0.5511457919346867,,,,,,,,,,,,,,,,,,82,001,22,w,Psychologie,2023-01-30_15h30.07.706,00_bat_bachelor,2022.2.4,60.07946541335914,
,,,,,,,,,,,,0,0,0,0,29,0,29,0,,,,,,,29,,,1,1653.605187317091,X,d,go,d,1,0.35576515530920005,,,,,,,,,,,,,,,,,,82,001,22,w,Psychologie,2023-01-30_15h30.07.706,00_bat_bachelor,2022.2.4,60.07946541335914,
,,,,,,,,,,,,0,0,0,0,30,0,30,0,,,,,,,30,,,1,1655.0737263465744,X,None,nogo,None,1,,1655.874455270612,,,,,,,,,,,,,,,,,82,001,22,w,Psychologie,2023-01-30_15h30.07.706,00_bat_bachelor,2022.2.4,60.07946541335914,
,,,,,,,,,,,,0,0,0,0,31,0,31,0,,,,,,,31,,,1,1656.875081697286,Y,l,go,l,1,0.5246273860466317,,,,,,,,,,,,,,,,,,82,001,22,w,Psychologie,2023-01-30_15h30.07.706,00_bat_bachelor,2022.2.4,60.07946541335914,
,,,,,,,,,,,,0,0,0,0,32,0,32,0,,,,,,,32,,,1,1658.542922833156,X,d,go,d,1,0.48947040119674057,,,,,,,,,,,,,,,,,,82,001,22,w,Psychologie,2023-01-30_15h30.07.706,00_bat_bachelor,2022.2.4,60.07946541335914,
,,,,,,,,,,,,0,0,0,0,33,0,33,0,,,,,,,33,,,1,1660.160659047404,Y,l,go,l,1,0.21465575948968763,,,,,,,,,,,,,,,,,,82,001,22,w,Psychologie,2023-01-30_15h30.07.706,00_bat_bachelor,2022.2.4,60.07946541335914,
,,,,,,,,,,,,0,0,0,0,34,0,34,0,,,,,,,34,,,1,1661.512001985946,Y,None,nogo,d,0,0.19248888563015498,,,,,,,,,,,,,,,,,,82,001,22,w,Psychologie,2023-01-30_15h30.07.706,00_bat_bachelor,2022.2.4,60.07946541335914,
,,,,,,,,,,,,0,0,0,0,35,0,35,0,,,,,,,35,,,1,1662.8460551604549,X,d,go,d,1,0.5699516830609355,,,,,,,,,,,,,,,,,,82,001,22,w,Psychologie,2023-01-30_15h30.07.706,00_bat_bachelor,2022.2.4,60.07946541335914,
,,,,,,,,,,,,0,0,0,0,36,0,36,0,,,,,,,36,,,1,1664.5473868504705,Y,l,go,l,1,0.3082823044642282,,,,,,,,,,,,,,,,,,82,001,22,w,Psychologie,2023-01-30_15h30.07.706,00_bat_bachelor,2022.2.4,60.07946541335914,
,,,,,,,,,,,,0,0,0,0,37,0,37,0,,,,,,,37,,,1,1665.9818859903462,Y,None,nogo,None,1,,1666.7828544304648,,,,,,,,,,,,,,,,,82,001,22,w,Psychologie,2023-01-30_15h30.07.706,00_bat_bachelor,2022.2.4,60.07946541335914,
,,,,,,,,,,,,0,0,0,0,38,0,38,0,,,,,,,38,,,1,1667.7834304327007,X,d,go,d,1,0.3526029612257844,,,,,,,,,,,,,,,,,,82,001,22,w,Psychologie,2023-01-30_15h30.07.706,00_bat_bachelor,2022.2.4,60.07946541335914,
,,,,,,,,,,,,0,0,0,0,39,0,39,0,,,,,,,39,,,1,1669.2678463722514,Y,l,go,l,1,0.27683151580640697,,,,,,,,,,,,,,,,,,82,001,22,w,Psychologie,2023-01-30_15h30.07.706,00_bat_bachelor,2022.2.4,60.07946541335914,
,,,,,,,,,,,,0,0,0,0,40,0,40,0,,,,,,,40,,,1,1670.6690096252496,Y,None,nogo,None,1,,1671.469353578097,,,,,,,,,,,,,,,,,82,001,22,w,Psychologie,2023-01-30_15h30.07.706,00_bat_bachelor,2022.2.4,60.07946541335914,
,,,,,,,,,,,,0,0,0,0,41,0,41,0,,,,,,,41,,,1,1672.470105096163,X,d,go,d,1,0.40217018378461944,,,,,,,,,,,,,,,,,,82,001,22,w,Psychologie,2023-01-30_15h30.07.706,00_bat_bachelor,2022.2.4,60.07946541335914,
,,,,,,,,,,,,0,0,0,0,42,0,42,0,,,,,,,42,,,1,1674.0046768666252,Y,l,go,l,1,0.22790671997790923,,,,,,,,,,,,,,,,,,82,001,22,w,Psychologie,2023-01-30_15h30.07.706,00_bat_bachelor,2022.2.4,60.07946541335914,
,,,,,,,,,,,,0,0,0,0,43,0,43,0,,,,,,,43,,,1,1675.3723267775094,X,d,go,d,1,0.25159553913545096,,,,,,,,,,,,,,,,,,82,001,22,w,Psychologie,2023-01-30_15h30.07.706,00_bat_bachelor,2022.2.4,60.07946541335914,
,,,,,,,,,,,,0,0,0,0,44,0,44,0,,,,,,,44,,,1,1676.7567840263146,X,None,nogo,l,0,0.21103198785567656,,,,,,,,,,,,,,,,,,82,001,22,w,Psychologie,2023-01-30_15h30.07.706,00_bat_bachelor,2022.2.4,60.07946541335914,
,,,,,,,,,,,,0,0,0,0,45,0,45,0,,,,,,,45,,,1,1678.091149444459,X,None,nogo,d,0,0.509464660564845,,,,,,,,,,,,,,,,,,82,001,22,w,Psychologie,2023-01-30_15h30.07.706,00_bat_bachelor,2022.2.4,60.07946541335914,
,,,,,,,,,,,,0,0,0,0,46,0,46,0,,,,,,,46,,,1,1679.7423868795595,Y,l,go,None,0,,1680.543345137823,,,,,,,,,,,,,,,,,82,001,22,w,Psychologie,2023-01-30_15h30.07.706,00_bat_bachelor,2022.2.4,60.07946541335914,
,,,,,,,,,,,,0,0,0,0,47,0,47,0,,,,,,,47,,,1,1681.5437199271546,X,d,go,d,1,0.48126188450623886,,,,,,,,,,,,,,,,,,82,001,22,w,Psychologie,2023-01-30_15h30.07.706,00_bat_bachelor,2022.2.4,60.07946541335914,
,,,,,,,,,,,,0,0,0,0,48,0,48,0,,,,,,,48,,,1,1683.1450294110218,X,None,nogo,None,1,,1683.9455459706005,,,,,,,,,,,,,,,,,82,001,22,w,Psychologie,2023-01-30_15h30.07.706,00_bat_bachelor,2022.2.4,60.07946541335914,
,,,,,,,,,,,,0,0,0,0,49,0,49,0,,,,,,,49,,,1,1684.9463207614863,Y,l,go,l,1,0.22970212087966502,,,,,,,,,,,,,,,,,,82,001,22,w,Psychologie,2023-01-30_15h30.07.706,00_bat_bachelor,2022.2.4,60.07946541335914,
,,,,,,,,,,,,0,0,0,0,50,0,50,0,,,,,,,50,,,1,1686.2976108513394,X,d,go,d,1,0.2699951256508939,,,,,,,,,,,,,,,,,,82,001,22,w,Psychologie,2023-01-30_15h30.07.706,00_bat_bachelor,2022.2.4,60.07946541335914,
,,,,,,,,,,,,0,0,0,0,51,0,51,0,,,,,,,51,,,1,1687.6984264666244,Y,l,go,d,0,0.3903204408525198,,,,,,,,,,,,,,,,,,82,001,22,w,Psychologie,2023-01-30_15h30.07.706,00_bat_bachelor,2022.2.4,60.07946541335914,
,,,,,,,,,,,,0,0,0,0,52,0,52,0,,,,,,,52,,,1,1689.216342657328,Y,None,nogo,d,0,0.18339454732631566,,,,,,,,,,,,,,,,,,82,001,22,w,Psychologie,2023-01-30_15h30.07.706,00_bat_bachelor,2022.2.4,60.07946541335914,
,,,,,,,,,,,,0,0,0,0,53,0,53,0,,,,,,,53,,,1,1690.534160132498,X,d,go,d,1,0.3074716346527566,,,,,,,,,,,,,,,,,,82,001,22,w,Psychologie,2023-01-30_15h30.07.706,00_bat_bachelor,2022.2.4,60.07946541335914,
,,,,,,,,,,,,0,0,0,0,54,0,54,0,,,,,,,54,,,1,1691.9685492113422,Y,l,go,l,1,0.2792960102124198,,,,,,,,,,,,,,,,,,82,001,22,w,Psychologie,2023-01-30_15h30.07.706,00_bat_bachelor,2022.2.4,60.07946541335914,
,,,,,,,,,,,,0,0,0,0,55,0,55,0,,,,,,,55,,,1,1693.3697711312343,Y,None,nogo,None,1,,1694.170063689944,,,,,,,,,,,,,,,,,82,001,22,w,Psychologie,2023-01-30_15h30.07.706,00_bat_bachelor,2022.2.4,60.07946541335914,
,,,,,,,,,,,,0,0,0,0,56,0,56,0,,,,,,,56,,,1,1695.1705800555828,X,d,go,d,1,0.2944383719768666,,,,,,,,,,,,,,,,,,82,001,22,w,Psychologie,2023-01-30_15h30.07.706,00_bat_bachelor,2022.2.4,60.07946541335914,
,,,,,,,,,,,,0,0,0,0,57,0,57,0,,,,,,,57,,,1,1696.5883576760534,Y,l,go,l,1,0.299254875510087,,,,,,,,,,,,,,,,,,82,001,22,w,Psychologie,2023-01-30_15h30.07.706,00_bat_bachelor,2022.2.4,60.07946541335914,
,,,,,,,,,,,,0,0,0,0,58,0,58,0,,,,,,,58,,,1,1698.006094569093,X,d,go,d,1,0.24317077918021823,,,,,,,,,,,,,,,,,,82,001,22,w,Psychologie,2023-01-30_15h30.07.706,00_bat_bachelor,2022.2.4,60.07946541335914,
,,,,,,,,,,,,0,0,0,0,59,0,59,0,,,,,,,59,,,1,1699.3739408443762,X,None,nogo,None,1,,1700.174605283315,,,,,,,,,,,,,,,,,82,001,22,w,Psychologie,2023-01-30_15h30.07.706,00_bat_bachelor,2022.2.4,60.07946541335914,
,,,,,,,,,,,,0,0,0,0,60,0,60,0,,,,,,,60,,,1,1701.1754144985753,Y,l,go,l,1,0.4166623612109106,,,,,,,,,,,,,,,,,,82,001,22,w,Psychologie,2023-01-30_15h30.07.706,00_bat_bachelor,2022.2.4,60.07946541335914,
,,,,,,,,,,,,0,0,0,0,61,0,61,0,,,,,,,61,,,1,1702.7098330563203,X,d,go,d,1,0.2910856317030266,,,,,,,,,,,,,,,,,,82,001,22,w,Psychologie,2023-01-30_15h30.07.706,00_bat_bachelor,2022.2.4,60.07946541335914,
,,,,,,,,,,,,0,0,0,0,62,0,62,0,,,,,,,62,,,1,1704.1277221923774,X,None,nogo,None,1,,1704.9282940248959,,,,,,,,,,,,,,,,,82,001,22,w,Psychologie,2023-01-30_15h30.07.706,00_bat_bachelor,2022.2.4,60.07946541335914,
,,,,,,,,,,,,0,0,0,0,63,0,63,0,,,,,,,63,,,1,1705.929030997453,Y,l,go,l,1,0.2710777965185116,,,,,,,,,,,,,,,,,,82,001,22,w,Psychologie,2023-01-30_15h30.07.706,00_bat_bachelor,2022.2.4,60.07946541335914,
,,,,,,,,,,,,0,0,0,0,64,0,64,0,,,,,,,64,,,1,1707.3301544927199,X,d,go,d,1,0.2952727994561428,,,,,,,,,,,,,,,,,,82,001,22,w,Psychologie,2023-01-30_15h30.07.706,00_bat_bachelor,2022.2.4,60.07946541335914,
,,,,,,,,,,,,0,0,0,0,65,0,65,0,,,,,,,65,,,1,1708.7310234415454,Y,l,go,l,1,0.3654374352481682,,,,,,,,,,,,,,,,,,82,001,22,w,Psychologie,2023-01-30_15h30.07.706,00_bat_bachelor,2022.2.4,60.07946541335914,
,,,,,,,,,,,,0,0,0,0,66,0,66,0,,,,,,,66,,,1,1710.19900780221,Y,None,nogo,None,1,,1710.9994128462058,,,,,,,,,,,,,,,,,82,001,22,w,Psychologie,2023-01-30_15h30.07.706,00_bat_bachelor,2022.2.4,60.07946541335914,
,,,,,,,,,,,,0,0,0,0,67,0,67,0,,,,,,,67,,,1,1712.0003195163918,X,d,go,d,1,0.2487611038959585,,,,,,,,,,,,,,,,,,82,001,22,w,Psychologie,2023-01-30_15h30.07.706,00_bat_bachelor,2022.2.4,60.07946541335914,
,,,,,,,,,,,,0,0,0,0,68,0,68,0,,,,,,,68,,,1,1713.3514006357364,Y,l,go,l,1,0.24174677365954267,,,,,,,,,,,,,,,,,,82,001,22,w,Psychologie,2023-01-30_15h30.07.706,00_bat_bachelor,2022.2.4,60.07946541335914,
,,,,,,,,,,,,0,0,0,0,69,0,69,0,,,,,,,69,,,1,1714.7022412693004,X,d,go,d,1,0.23401147092954488,,,,,,,,,,,,,,,,,,82,001,22,w,Psychologie,2023-01-30_15h30.07.706,00_bat_bachelor,2022.2.4,60.07946541335914,
,,,,,,,,,,,,0,0,0,0,70,0,70,0,,,,,,,70,,,1,1716.0534082071572,Y,l,go,l,1,0.1949208950609318,,,,,,,,,,,,,,,,,,82,001,22,w,Psychologie,2023-01-30_15h30.07.706,00_bat_bachelor,2022.2.4,60.07946541335914,
,,,,,,,,,,,,0,0,0,0,71,0,71,0,,,,,,,71,,,1,1717.3711408335148,Y,None,nogo,None,1,,1718.171753878316,,,,,,,,,,,,,,,,,82,001,22,w,Psychologie,2023-01-30_15h30.07.706,00_bat_bachelor,2022.2.4,60.07946541335914,
,,,,,,,,,,,,0,0,0,0,72,0,72,0,,,,,,,72,,,1,1719.1722169104178,X,d,go,d,1,0.26122369768927456,,,,,,,,,,,,,,,,,,82,001,22,w,Psychologie,2023-01-30_15h30.07.706,00_bat_bachelor,2022.2.4,60.07946541335914,
,,,,,,,,,,,,0,0,0,0,73,0,73,0,,,,,,,73,,,1,1720.5399671853265,Y,l,go,l,1,0.2528794229037885,,,,,,,,,,,,,,,,,,82,001,22,w,Psychologie,2023-01-30_15h30.07.706,00_bat_bachelor,2022.2.4,60.07946541335914,
,,,,,,,,,,,,0,0,0,0,74,0,74,0,,,,,,,74,,,1,1721.9078008545002,X,d,go,d,1,0.2621720650095085,,,,,,,,,,,,,,,,,,82,001,22,w,Psychologie,2023-01-30_15h30.07.706,00_bat_bachelor,2022.2.4,60.07946541335914,
,,,,,,,,,,,,0,0,0,0,75,0,75,0,,,,,,,75,,,1,1723.2752422797275,X,None,nogo,l,0,0.2223479105377919,,,,,,,,,,,,,,,,,,82,001,22,w,Psychologie,2023-01-30_15h30.07.706,00_bat_bachelor,2022.2.4,60.07946541335914,
,,,,,,,,,,,,0,0,0,0,76,0,76,0,,,,,,,76,,,1,1724.6095543643314,Y,l,go,l,1,0.35969098871646565,,,,,,,,,,,,,,,,,,82,001,22,w,Psychologie,2023-01-30_15h30.07.706,00_bat_bachelor,2022.2.4,60.07946541335914,
,,,,,,,,,,,,0,0,0,0,77,0,77,0,,,,,,,77,,,1,1726.0774514519326,X,d,go,d,1,0.29941923978185514,,,,,,,,,,,,,,,,,,82,001,22,w,Psychologie,2023-01-30_15h30.07.706,00_bat_bachelor,2022.2.4,60.07946541335914,
,,,,,,,,,,,,0,0,0,0,78,0,78,0,,,,,,,78,,,1,1727.4786205231321,Y,l,go,l,1,0.2918124223979248,,,,,,,,,,,,,,,,,,82,001,22,w,Psychologie,2023-01-30_15h30.07.706,00_bat_bachelor,2022.2.4,60.07946541335914,
,,,,,,,,,,,,0,0,0,0,79,0,79,0,,,,,,,79,,,1,1728.879560260113,Y,None,nogo,None,1,,,,,,,,,,,,,,,,,,,82,001,22,w,Psychologie,2023-01-30_15h30.07.706,00_bat_bachelor,2022.2.4,60.07946541335914,
,,,,,,,,,,,,0,0,0,0,80,0,80,0,,,,,,,80,,,1,1730.6809059138177,Y,None,nogo,None,1,,,,,,,,,,,,,,,,,,,82,001,22,w,Psychologie,2023-01-30_15h30.07.706,00_bat_bachelor,2022.2.4,60.07946541335914,
,,,,,,,,,,,,0,0,0,0,81,0,81,0,,,,,,,81,,,1,1732.4824484167693,X,d,go,d,1,0.4381106868277129,,,,,,,,,,,,,,,,,,82,001,22,w,Psychologie,2023-01-30_15h30.07.706,00_bat_bachelor,2022.2.4,60.07946541335914,
,,,,,,,,,,,,0,0,0,0,82,0,82,0,,,,,,,82,,,1,1734.033626312248,Y,l,go,l,1,0.2477002512969193,,,,,,,,,,,,,,,,,,82,001,22,w,Psychologie,2023-01-30_15h30.07.706,00_bat_bachelor,2022.2.4,60.07946541335914,
,,,,,,,,,,,,0,0,0,0,83,0,83,0,,,,,,,83,,,1,1735.3847588257304,Y,None,nogo,d,0,0.2078702786238864,,,,,,,,,,,,,,,,,,82,001,22,w,Psychologie,2023-01-30_15h30.07.706,00_bat_bachelor,2022.2.4,60.07946541335914,
,,,,,,,,,,,,0,0,0,0,84,0,84,0,,,,,,,84,,,1,1736.702372663749,X,d,go,d,1,0.2661987472929468,,,,,,,,,,,,,,,,,,82,001,22,w,Psychologie,2023-01-30_15h30.07.706,00_bat_bachelor,2022.2.4,60.07946541335914,
,,,,,,,,,,,,0,0,0,0,85,0,85,0,,,,,,,85,,,1,1738.0700409989477,Y,l,go,l,1,0.3236719399137655,,,,,,,,,,,,,,,,,,82,001,22,w,Psychologie,2023-01-30_15h30.07.706,00_bat_bachelor,2022.2.4,60.07946541335914,
,,,,,,,,,,,,0,0,0,0,86,0,86,0,,,,,,,86,,,1,1739.504482441629,X,d,go,d,1,0.3300210554516525,,,,,,,,,,,,,,,,,,82,001,22,w,Psychologie,2023-01-30_15h30.07.706,00_bat_bachelor,2022.2.4,60.07946541335914,
,,,,,,,,,,,,0,0,0,0,87,0,87,0,,,,,,,87,,,1,1740.9389374601196,Y,l,go,l,1,0.2862860979330435,,,,,,,,,,,,,,,,,,82,001,22,w,Psychologie,2023-01-30_15h30.07.706,00_bat_bachelor,2022.2.4,60.07946541335914,
,,,,,,,,,,,,0,0,0,0,88,0,88,0,,,,,,,88,,,1,1742.3398194999063,Y,None,nogo,None,1,,,,,,,,,,,,,,,,,,,82,001,22,w,Psychologie,2023-01-30_15h30.07.706,00_bat_bachelor,2022.2.4,60.07946541335914,
,,,,,,,,,,,,0,0,0,0,89,0,89,0,,,,,,,89,,,1,1744.141209759844,X,d,go,d,1,0.4123462232601014,,,,,,,,,,,,,,,,,,82,001,22,w,Psychologie,2023-01-30_15h30.07.706,00_bat_bachelor,2022.2.4,60.07946541335914,
,,,,,,,,,,,,0,0,0,0,90,0,90,0,,,,,,,90,,,1,1745.6587579491206,Y,l,go,l,1,0.27072531030353275,,,,,,,,,,,,,,,,,,82,001,22,w,Psychologie,2023-01-30_15h30.07.706,00_bat_bachelor,2022.2.4,60.07946541335914,
,,,,,,,,,,,,0,0,0,0,91,0,91,0,,,,,,,91,,,1,1747.043485744427,X,d,go,d,1,0.22931084663650836,,,,,,,,,,,,,,,,,,82,001,22,w,Psychologie,2023-01-30_15h30.07.706,00_bat_bachelor,2022.2.4,60.07946541335914,
,,,,,,,,,,,,0,0,0,0,92,0,92,0,,,,,,,92,,,1,1748.3778235261016,X,None,nogo,None,1,,,,,,,,,,,,,,,,,,,82,001,22,w,Psychologie,2023-01-30_15h30.07.706,00_bat_bachelor,2022.2.4,60.07946541335914,
,,,,,,,,,,,,0,0,0,0,93,0,93,0,,,,,,,93,,,1,1750.179236089156,Y,l,go,l,1,0.3104374643371557,,,,,,,,,,,,,,,,,,82,001,22,w,Psychologie,2023-01-30_15h30.07.706,00_bat_bachelor,2022.2.4,60.07946541335914,
,,,,,,,,,,,,0,0,0,0,94,0,94,0,,,,,,,94,,,1,1751.596895406139,X,d,go,d,1,0.26785063248462393,,,,,,,,,,,,,,,,,,82,001,22,w,Psychologie,2023-01-30_15h30.07.706,00_bat_bachelor,2022.2.4,60.07946541335914,
,,,,,,,,,,,,0,0,0,0,95,0,95,0,,,,,,,95,,,1,1752.9813832005166,Y,l,go,l,1,0.27732315407774877,,,,,,,,,,,,,,,,,,82,001,22,w,Psychologie,2023-01-30_15h30.07.706,00_bat_bachelor,2022.2.4,60.07946541335914,
,,,,,,,,,,,,0,0,0,0,96,0,96,0,,,,,,,96,,,1,1754.365780327873,X,d,go,d,1,0.2356415378562815,,,,,,,,,,,,,,,,,,82,001,22,w,Psychologie,2023-01-30_15h30.07.706,00_bat_bachelor,2022.2.4,60.07946541335914,
,,,,,,,,,,,,0,0,0,0,97,0,97,0,,,,,,,97,,,1,1755.7166602343168,X,None,nogo,l,0,0.2125015693163732,,,,,,,,,,,,,,,,,,82,001,22,w,Psychologie,2023-01-30_15h30.07.706,00_bat_bachelor,2022.2.4,60.07946541335914,
,,,,,,,,,,,,0,0,0,0,98,0,98,0,,,,,,,98,,,1,1757.0344156486426,Y,l,go,l,1,0.28654791713051964,,,,,,,,,,,,,,,,,,82,001,22,w,Psychologie,2023-01-30_15h30.07.706,00_bat_bachelor,2022.2.4,60.07946541335914,
,,,,,,,,,,,,0,0,0,0,99,0,99,0,,,,,,,99,,,1,1758.4354814467151,X,d,go,d,1,0.2781866725781583,,,,,,,,,,,,,,,,,,82,001,22,w,Psychologie,2023-01-30_15h30.07.706,00_bat_bachelor,2022.2.4,60.07946541335914,
,,,,,,,,,,,,0,0,0,0,100,0,100,0,,,,,,,100,,,1,1759.8197966343614,X,None,nogo,None,1,,,,,,,,,,,,,,,,,,,82,001,22,w,Psychologie,2023-01-30_15h30.07.706,00_bat_bachelor,2022.2.4,60.07946541335914,
,,,,,,,,,,,,0,0,0,0,101,0,101,0,,,,,,,101,,,1,1761.6211931973558,Y,l,go,l,1,0.2925857587288192,,,,,,,,,,,,,,,,,,82,001,22,w,Psychologie,2023-01-30_15h30.07.706,00_bat_bachelor,2022.2.4,60.07946541335914,
,,,,,,,,,,,,0,0,0,0,102,0,102,0,,,,,,,102,,,1,1763.0223802080181,X,d,go,d,1,0.21890547294242424,,,,,,,,,,,,,,,,,,82,001,22,w,Psychologie,2023-01-30_15h30.07.706,00_bat_bachelor,2022.2.4,60.07946541335914,
,,,,,,,,,,,,0,0,0,0,103,0,103,0,,,,,,,103,,,1,1764.3571732641867,Y,l,go,l,1,0.2438195089707733,,,,,,,,,,,,,,,,,,82,001,22,w,Psychologie,2023-01-30_15h30.07.706,00_bat_bachelor,2022.2.4,60.07946541335914,
,,,,,,,,,,,,0,0,0,0,104,0,104,0,,,,,,,104,,,1,1765.72494196341,Y,None,nogo,None,1,,1766.52592252479,,,,,,,,,,,,,,,,,82,001,22,w,Psychologie,2023-01-30_15h30.07.706,00_bat_bachelor,2022.2.4,60.07946541335914,
,,,,,,,,,,,,0,0,0,0,105,0,105,0,,,,,,,105,,,1,1767.5264820421107,X,d,go,d,1,0.25929205383363296,,,,,,,,,,,,,,,,,,82,001,22,w,Psychologie,2023-01-30_15h30.07.706,00_bat_bachelor,2022.2.4,60.07946541335914,
,,,,,,,,,,,,0,0,0,0,106,0,106,0,,,,,,,106,,,1,1768.8941944986946,Y,l,go,l,1,0.23508832358857035,,,,,,,,,,,,,,,,,,82,001,22,w,Psychologie,2023-01-30_15h30.07.706,00_bat_bachelor,2022.2.4,60.07946541335914,
,,,,,,,,,,,,0,0,0,0,107,0,107,0,,,,,,,107,,,1,1770.2617503486072,Y,None,nogo,None,1,,1771.0625772124185,,,,,,,,,,,,,,,,,82,001,22,w,Psychologie,2023-01-30_15h30.07.706,00_bat_bachelor,2022.2.4,60.07946541335914,
,,,,,,,,,,,,0,0,0,0,108,0,108,0,,,,,,,108,,,1,1772.063035396015,X,d,go,d,1,0.24929056049586507,,,,,,,,,,,,,,,,,,82,001,22,w,Psychologie,2023-01-30_15h30.07.706,00_bat_bachelor,2022.2.4,60.07946541335914,
,,,,,,,,,,,,0,0,0,0,109,0,109,0,,,,,,,109,,,1,1773.43079294368,Y,l,go,l,1,0.30588326485667494,,,,,,,,,,,,,,,,,,82,001,22,w,Psychologie,2023-01-30_15h30.07.706,00_bat_bachelor,2022.2.4,60.07946541335914,
,,,,,,,,,,,,0,0,0,0,110,0,110,0,,,,,,,110,,,1,1774.8652993563119,Y,None,nogo,d,0,0.19934854859820916,,,,,,,,,,,,,,,,,,82,001,22,w,Psychologie,2023-01-30_15h30.07.706,00_bat_bachelor,2022.2.4,60.07946541335914,
,,,,,,,,,,,,0,0,0,0,111,0,111,0,,,,,,,111,,,1,1776.1828797396556,X,d,go,d,1,0.2099871353166236,,,,,,,,,,,,,,,,,,82,001,22,w,Psychologie,2023-01-30_15h30.07.706,00_bat_bachelor,2022.2.4,60.07946541335914,
,,,,,,,,,,,,0,0,0,0,112,0,112,0,,,,,,,112,,,1,1777.5174347342909,Y,l,go,l,1,0.28343760203642887,,,,,,,,,,,,,,,,,,82,001,22,w,Psychologie,2023-01-30_15h30.07.706,00_bat_bachelor,2022.2.4,60.07946541335914,
,,,,,,,,,,,,0,0,0,0,113,0,113,0,,,,,,,113,,,1,1778.918413744148,Y,None,nogo,None,1,,1779.7192987900053,,,,,,,,,,,,,,,,,82,001,22,w,Psychologie,2023-01-30_15h30.07.706,00_bat_bachelor,2022.2.4,60.07946541335914,
,,,,,,,,,,,,0,0,0,0,114,0,114,0,,,,,,,114,,,1,1780.7199402470396,X,d,go,d,1,0.2014712234995386,,,,,,,,,,,,,,,,,,82,001,22,w,Psychologie,2023-01-30_15h30.07.706,00_bat_bachelor,2022.2.4,60.07946541335914,
,,,,,,,,,,,,0,0,0,0,115,0,115,0,,,,,,,115,,,1,1782.0377974799412,Y,l,go,l,1,0.26053133136883844,,,,,,,,,,,,,,,,,,82,001,22,w,Psychologie,2023-01-30_15h30.07.706,00_bat_bachelor,2022.2.4,60.07946541335914,
,,,,,,,,,,,,0,0,0,0,116,0,116,0,,,,,,,116,,,1,1783.4051094501192,X,d,go,d,1,0.29982699894026155,,,,,,,,,,,,,,,,,,82,001,22,w,Psychologie,2023-01-30_15h30.07.706,00_bat_bachelor,2022.2.4,60.07946541335914,
,,,,,,,,,,,,0,0,0,0,117,0,117,0,,,,,,,117,,,1,1784.806220824128,X,None,nogo,None,1,,1785.6071984764058,,,,,,,,,,,,,,,,,82,001,22,w,Psychologie,2023-01-30_15h30.07.706,00_bat_bachelor,2022.2.4,60.07946541335914,
,,,,,,,,,,,,0,0,0,0,118,0,118,0,,,,,,,118,,,1,1786.607558235377,Y,l,go,l,1,0.36204881604135153,,,,,,,,,,,,,,,,,,82,001,22,w,Psychologie,2023-01-30_15h30.07.706,00_bat_bachelor,2022.2.4,60.07946541335914,
,,,,,,,,,,,,0,0,0,0,119,0,119,0,,,,,,,119,,,1,1788.075558596105,X,d,go,d,1,0.23761390914660296,,,,,,,,,,,,,,,,,,82,001,22,w,Psychologie,2023-01-30_15h30.07.706,00_bat_bachelor,2022.2.4,60.07946541335914,
,,,,,,,,,,,,0,0,0,0,120,0,120,0,,,,,,,120,,,1,1789.4432744466394,Y,l,go,l,1,0.21303005621302873,,,,,,,,,,,,,,,,,,82,001,22,w,Psychologie,2023-01-30_15h30.07.706,00_bat_bachelor,2022.2.4,60.07946541335914,
,,,,,,,,,,,,0,0,0,0,121,0,121,0,,,,,,,121,,,1,1790.7777014407802,Y,None,nogo,None,1,,1791.5784318193728,,,,,,,,,,,,,,,,,82,001,22,w,Psychologie,2023-01-30_15h30.07.706,00_bat_bachelor,2022.2.4,60.07946541335914,
,,,,,,,,,,,,0,0,0,0,122,0,122,0,,,,,,,122,,,1,1792.5787595782167,X,d,go,d,1,0.1810561140118807,,,,,,,,,,,,,,,,,,82,001,22,w,Psychologie,2023-01-30_15h30.07.706,00_bat_bachelor,2022.2.4,60.07946541335914,
,,,,,,,,,,,,0,0,0,0,123,0,123,0,,,,,,,123,,,1,1793.8801314138436,Y,l,go,l,1,0.24114652890420984,,,,,,,,,,,,,,,,,,82,001,22,w,Psychologie,2023-01-30_15h30.07.706,00_bat_bachelor,2022.2.4,60.07946541335914,
,,,,,,,,,,,,0,0,0,0,124,0,124,0,,,,,,,124,,,1,1795.247773082272,Y,None,nogo,None,1,,1796.0485146124192,,,,,,,,,,,,,,,,,82,001,22,w,Psychologie,2023-01-30_15h30.07.706,00_bat_bachelor,2022.2.4,60.07946541335914,
,,,,,,,,,,,,0,0,0,0,125,0,125,0,,,,,,,125,,,1,1797.0491618876586,X,d,go,d,1,0.19155070017222897,,,,,,,,,,,,,,,,,,82,001,22,w,Psychologie,2023-01-30_15h30.07.706,00_bat_bachelor,2022.2.4,60.07946541335914,
,,,,,,,,,,,,0,0,0,0,126,0,126,0,,,,,,,126,,,1,1798.3834754268137,Y,l,go,l,1,0.2821653546743619,,,,,,,,,,,,,,,,,,82,001,22,w,Psychologie,2023-01-30_15h30.07.706,00_bat_bachelor,2022.2.4,60.07946541335914,
,,,,,,,,,,,,0,0,0,0,127,0,127,0,,,,,,,127,,,1,1799.76793849382,X,d,go,d,1,0.27251004449863103,,,,,,,,,,,,,,,,,,82,001,22,w,Psychologie,2023-01-30_15h30.07.706,00_bat_bachelor,2022.2.4,60.07946541335914,
,,,,,,,,,,,,0,0,0,0,128,0,128,0,,,,,,,128,,,1,1801.1687822304266,X,None,nogo,None,1,,1801.9693327295317,,,,,,,,,,,,,,,,,82,001,22,w,Psychologie,2023-01-30_15h30.07.706,00_bat_bachelor,2022.2.4,60.07946541335914,
,,,,,,,,,,,,0,0,0,0,129,0,129,0,,,,,,,129,,,1,1802.9701526114986,Y,l,go,l,1,0.19034148336140788,,,,,,,,,,,,,,,,,,82,001,22,w,Psychologie,2023-01-30_15h30.07.706,00_bat_bachelor,2022.2.4,60.07946541335914,
,,,,,,,,,,,,0,0,0,0,130,0,130,0,,,,,,,130,,,1,1804.2878149345524,X,d,go,d,1,0.2816969892264751,,,,,,,,,,,,,,,,,,82,001,22,w,Psychologie,2023-01-30_15h30.07.706,00_bat_bachelor,2022.2.4,60.07946541335914,
,,,,,,,,,,,,0,0,0,0,131,0,131,0,,,,,,,131,,,1,1805.6723812746895,Y,l,go,l,1,0.24150531817940646,,,,,,,,,,,,,,,,,,82,001,22,w,Psychologie,2023-01-30_15h30.07.706,00_bat_bachelor,2022.2.4,60.07946541335914,
,,,,,,,,,,,,0,0,0,0,132,0,132,0,,,,,,,132,,,1,1807.023635485617,Y,None,nogo,d,0,0.20183389157318743,,,,,,,,,,,,,,,,,,82,001,22,w,Psychologie,2023-01-30_15h30.07.706,00_bat_bachelor,2022.2.4,60.07946541335914,
,,,,,,,,,,,,0,0,0,0,133,0,133,0,,,,,,,133,,,1,1808.3575538717232,X,d,go,d,1,0.1790158636722481,,,,,,,,,,,,,,,,,,82,001,22,w,Psychologie,2023-01-30_15h30.07.706,00_bat_bachelor,2022.2.4,60.07946541335914,
,,,,,,,,,,,,0,0,0,0,134,0,134,0,,,,,,,134,,,1,1809.6752132856745,Y,l,go,l,1,0.2534243947120558,,,,,,,,,,,,,,,,,,82,001,22,w,Psychologie,2023-01-30_15h30.07.706,00_bat_bachelor,2022.2.4,60.07946541335914,
,,,,,,,,,,,,0,0,0,0,135,0,135,0,,,,,,,135,,,1,1811.0599483537371,X,d,go,d,1,0.1492547785383067,,,,,,,,,,,,,,,,,,82,001,22,w,Psychologie,2023-01-30_15h30.07.706,00_bat_bachelor,2022.2.4,60.07946541335914,
,,,,,,,,,,,,0,0,0,0,136,0,136,0,,,,,,,136,,,1,1812.343954303822,Y,l,go,l,1,0.1924219762768189,,,,,,,,,,,,,,,,,,82,001,22,w,Psychologie,2023-01-30_15h30.07.706,00_bat_bachelor,2022.2.4,60.07946541335914,
,,,,,,,,,,,,0,0,0,0,137,0,137,0,,,,,,,137,,,1,1813.6783895404187,Y,None,nogo,None,1,,1814.479408404979,,,,,,,,,,,,,,,,,82,001,22,w,Psychologie,2023-01-30_15h30.07.706,00_bat_bachelor,2022.2.4,60.07946541335914,
,,,,,,,,,,,,0,0,0,0,138,0,138,0,,,,,,,138,,,1,1815.4798787098334,X,d,go,d,1,0.1605673072663194,,,,,,,,,,,,,,,,,,82,001,22,w,Psychologie,2023-01-30_15h30.07.706,00_bat_bachelor,2022.2.4,60.07946541335914,
,,,,,,,,,,,,0,0,0,0,139,0,139,0,,,,,,,139,,,1,1816.7804781788254,Y,l,go,l,1,0.2213302096206462,,,,,,,,,,,,,,,,,,82,001,22,w,Psychologie,2023-01-30_15h30.07.706,00_bat_bachelor,2022.2.4,60.07946541335914,
,,,,,,,,,,,,0,0,0,0,140,0,140,0,,,,,,,140,,,1,1818.114298625158,Y,None,nogo,None,1,,1818.9152379742554,,,,,,,,,,,,,,,,,82,001,22,w,Psychologie,2023-01-30_15h30.07.706,00_bat_bachelor,2022.2.4,60.07946541335914,
,,,,,,,,,,,,0,0,0,0,141,0,141,0,,,,,,,141,,,1,1819.9159773710635,X,d,go,d,1,0.1898784512632119,,,,,,,,,,,,,,,,,,82,001,22,w,Psychologie,2023-01-30_15h30.07.706,00_bat_bachelor,2022.2.4,60.07946541335914,
,,,,,,,,,,,,0,0,0,0,142,0,142,0,,,,,,,142,,,1,1821.216891507942,Y,l,go,l,1,0.2013868595349777,,,,,,,,,,,,,,,,,,82,001,22,w,Psychologie,2023-01-30_15h30.07.706,00_bat_bachelor,2022.2.4,60.07946541335914,
,,,,,,,,,,,,0,0,0,0,143,0,143,0,,,,,,,143,,,1,1822.5347560135997,X,d,go,d,1,0.25844453539320966,,,,,,,,,,,,,,,,,,82,001,22,w,Psychologie,2023-01-30_15h30.07.706,00_bat_bachelor,2022.2.4,60.07946541335914,
,,,,,,,,,,,,0,0,0,0,144,0,144,0,,,,,,,144,,,1,1823.9023196211165,Y,l,go,l,1,0.2352972941007465,,,,,,,,,,,,,,,,,,82,001,22,w,Psychologie,2023-01-30_15h30.07.706,00_bat_bachelor,2022.2.4,60.07946541335914,
,,,,,,,,,,,,0,0,0,0,145,0,145,0,,,,,,,145,,,1,1825.253225224631,Y,None,nogo,None,1,,1826.0537461478634,,,,,,,,,,,,,,,,,82,001,22,w,Psychologie,2023-01-30_15h30.07.706,00_bat_bachelor,2022.2.4,60.07946541335914,
,,,,,,,,,,,,0,0,0,0,146,0,146,0,,,,,,,146,,,1,1827.0544472414913,X,d,go,d,1,0.218156379127322,,,,,,,,,,,,,,,,,,82,001,22,w,Psychologie,2023-01-30_15h30.07.706,00_bat_bachelor,2022.2.4,60.07946541335914,
,,,,,,,,,,,,0,0,0,0,147,0,147,0,,,,,,,147,,,1,1828.3888136293353,Y,l,go,l,1,0.26151557761477306,,,,,,,,,,,,,,,,,,82,001,22,w,Psychologie,2023-01-30_15h30.07.706,00_bat_bachelor,2022.2.4,60.07946541335914,
,,,,,,,,,,,,0,0,0,0,148,0,148,0,,,,,,,148,,,1,1829.7565251162196,Y,None,nogo,None,1,,,,,,,,,,,,,,,,,,,82,001,22,w,Psychologie,2023-01-30_15h30.07.706,00_bat_bachelor,2022.2.4,60.07946541335914,
,,,,,,,,,,,,0,0,0,0,149,0,149,0,,,,,,,149,,,1,1831.5582242258388,X,d,go,d,1,0.3079802426873357,,,,,,,,,,,,,,,,,,82,001,22,w,Psychologie,2023-01-30_15h30.07.706,00_bat_bachelor,2022.2.4,60.07946541335914,
,,,,,,,,,,,,0,0,0,0,150,0,150,0,,,,,,,150,,,1,1832.9758282698785,Y,l,go,l,1,0.23291522425279254,,,,,,,,,,,,,,,,,,82,001,22,w,Psychologie,2023-01-30_15h30.07.706,00_bat_bachelor,2022.2.4,60.07946541335914,
,,,,,,,,,,,,0,0,0,0,151,0,151,0,,,,,,,151,,,1,1834.3102727186342,X,d,go,d,1,0.2909886616289441,,,,,,,,,,,,,,,,,,82,001,22,w,Psychologie,2023-01-30_15h30.07.706,00_bat_bachelor,2022.2.4,60.07946541335914,
,,,,,,,,,,,,0,0,0,0,152,0,152,0,,,,,,,152,,,1,1835.7114107594098,Y,l,go,l,1,0.18664159022227977,,,,,,,,,,,,,,,,,,82,001,22,w,Psychologie,2023-01-30_15h30.07.706,00_bat_bachelor,2022.2.4,60.07946541335914,
,,,,,,,,,,,,0,0,0,0,153,0,153,0,,,,,,,153,,,1,1837.012276411253,X,d,go,d,1,0.24600375986847212,,,,,,,,,,,,,,,,,,82,001,22,w,Psychologie,2023-01-30_15h30.07.706,00_bat_bachelor,2022.2.4,60.07946541335914,
,,,,,,,,,,,,0,0,0,0,154,0,154,0,,,,,,,154,,,1,1838.3631568025485,Y,l,go,l,1,0.19104888004585519,,,,,,,,,,,,,,,,,,82,001,22,w,Psychologie,2023-01-30_15h30.07.706,00_bat_bachelor,2022.2.4,60.07946541335914,
,,,,,,,,,,,,0,0,0,0,155,0,155,0,,,,,,,155,,,1,1839.6644690015746,X,d,go,d,1,0.21716389042921946,,,,,,,,,,,,,,,,,,82,001,22,w,Psychologie,2023-01-30_15h30.07.706,00_bat_bachelor,2022.2.4,60.07946541335914,
,,,,,,,,,,,,0,0,0,0,156,0,156,0,,,,,,,156,,,1,1840.9992698153474,Y,l,go,l,1,0.1772073718093452,,,,,,,,,,,,,,,,,,82,001,22,w,Psychologie,2023-01-30_15h30.07.706,00_bat_bachelor,2022.2.4,60.07946541335914,
,,,,,,,,,,,,0,0,0,0,157,0,157,0,,,,,,,157,,,1,1842.3005344990415,X,d,go,d,1,0.18838268788385903,,,,,,,,,,,,,,,,,,82,001,22,w,Psychologie,2023-01-30_15h30.07.706,00_bat_bachelor,2022.2.4,60.07946541335914,
,,,,,,,,,,,,0,0,0,0,158,0,158,0,,,,,,,158,,,1,1843.618170155325,Y,l,go,l,1,0.2307823674964311,,,,,,,,,,,,,,,,,,82,001,22,w,Psychologie,2023-01-30_15h30.07.706,00_bat_bachelor,2022.2.4,60.07946541335914,
,,,,,,,,,,,,0,0,0,0,159,0,159,0,,,,,,,159,,,1,1844.968944364391,X,d,go,d,1,0.19256840108937467,,,,,,,,,,,,,,,,,,82,001,22,w,Psychologie,2023-01-30_15h30.07.706,00_bat_bachelor,2022.2.4,60.07946541335914,
,,,,,,,,,,,,0,0,0,0,160,0,160,0,,,,,,,160,,,1,1846.3036302686269,Y,l,go,l,1,0.2489055893056502,,,,,,,,,,,,,,,,,,82,001,22,w,Psychologie,2023-01-30_15h30.07.706,00_bat_bachelor,2022.2.4,60.07946541335914,
,,,,,,,,,,,,0,0,0,0,161,0,161,0,,,,,,,161,,,1,1847.6712229671684,X,d,go,d,1,0.19454707542899996,,,,,,,,,,,,,,,,,,82,001,22,w,Psychologie,2023-01-30_15h30.07.706,00_bat_bachelor,2022.2.4,60.07946541335914,
,,,,,,,,,,,,0,0,0,0,162,0,162,0,,,,,,,162,,,1,1848.9720638916406,Y,l,go,l,1,0.20449281097899075,,,,,,,,,,,,,,,,,,82,001,22,w,Psychologie,2023-01-30_15h30.07.706,00_bat_bachelor,2022.2.4,60.07946541335914,
,,,,,,,,,,,,0,0,0,0,163,0,163,0,,,,,,,163,,,1,1850.3065049464421,X,d,go,d,1,0.21487345730201923,,,,,,,,,,,,,,,,,,82,001,22,w,Psychologie,2023-01-30_15h30.07.706,00_bat_bachelor,2022.2.4,60.07946541335914,
,,,,,,,,,,,,0,0,0,0,164,0,164,0,,,,,,,164,,,1,1851.6408097582898,X,None,nogo,l,0,0.17576203287171666,,,,,,,,,,,,,,,,,,82,001,22,w,Psychologie,2023-01-30_15h30.07.706,00_bat_bachelor,2022.2.4,60.07946541335914,
,,,,,,,,,,,,0,0,0,0,165,0,165,0,,,,,,,165,,,1,1852.9416676525288,Y,l,go,l,1,0.2683180282401736,,,,,,,,,,,,,,,,,,82,001,22,w,Psychologie,2023-01-30_15h30.07.706,00_bat_bachelor,2022.2.4,60.07946541335914,
,,,,,,,,,,,,0,0,0,0,166,0,166,0,,,,,,,166,,,1,1854.326218962302,X,d,go,d,1,0.307199148748623,,,,,,,,,,,,,,,,,,82,001,22,w,Psychologie,2023-01-30_15h30.07.706,00_bat_bachelor,2022.2.4,60.07946541335914,
,,,,,,,,,,,,0,0,0,0,167,0,167,0,,,,,,,167,,,1,1855.760888769506,Y,l,go,l,1,0.2003177644801326,,,,,,,,,,,,,,,,,,82,001,22,w,Psychologie,2023-01-30_15h30.07.706,00_bat_bachelor,2022.2.4,60.07946541335914,
,,,,,,,,,,,,0,0,0,0,168,0,168,0,,,,,,,168,,,1,1857.0783096370797,Y,None,nogo,None,1,,1857.8791505615518,,,,,,,,,,,,,,,,,82,001,22,w,Psychologie,2023-01-30_15h30.07.706,00_bat_bachelor,2022.2.4,60.07946541335914,
,,,,,,,,,,,,0,0,0,0,169,0,169,0,,,,,,,169,,,1,1858.8796771090492,X,d,go,d,1,0.16936976565193618,,,,,,,,,,,,,,,,,,82,001,22,w,Psychologie,2023-01-30_15h30.07.706,00_bat_bachelor,2022.2.4,60.07946541335914,
,,,,,,,,,,,,0,0,0,0,170,0,170,0,,,,,,,170,,,1,1860.1806048217404,Y,l,go,l,1,0.19646465862751938,,,,,,,,,,,,,,,,,,82,001,22,w,Psychologie,2023-01-30_15h30.07.706,00_bat_bachelor,2022.2.4,60.07946541335914,
,,,,,,,,,,,,0,0,0,0,171,0,171,0,,,,,,,171,,,1,1861.4982744175468,X,d,go,d,1,0.20710373019755934,,,,,,,,,,,,,,,,,,82,001,22,w,Psychologie,2023-01-30_15h30.07.706,00_bat_bachelor,2022.2.4,60.07946541335914,
,,,,,,,,,,,,0,0,0,0,172,0,172,0,,,,,,,172,,,1,1862.8330602009592,Y,l,go,l,1,0.2161966139501601,,,,,,,,,,,,,,,,,,82,001,22,w,Psychologie,2023-01-30_15h30.07.706,00_bat_bachelor,2022.2.4,60.07946541335914,
,,,,,,,,,,,,0,0,0,0,173,0,173,0,,,,,,,173,,,1,1864.183683136711,X,d,go,d,1,0.24144422703102464,,,,,,,,,,,,,,,,,,82,001,22,w,Psychologie,2023-01-30_15h30.07.706,00_bat_bachelor,2022.2.4,60.07946541335914,
,,,,,,,,,,,,0,0,0,0,174,0,174,0,,,,,,,174,,,1,1865.5514397146762,X,None,nogo,None,1,,1866.3520828201981,,,,,,,,,,,,,,,,,82,001,22,w,Psychologie,2023-01-30_15h30.07.706,00_bat_bachelor,2022.2.4,60.07946541335914,
,,,,,,,,,,,,0,0,0,0,175,0,175,0,,,,,,,175,,,1,1867.3527553076565,Y,l,go,l,1,0.5282623092352878,,,,,,,,,,,,,,,,,,82,001,22,w,Psychologie,2023-01-30_15h30.07.706,00_bat_bachelor,2022.2.4,60.07946541335914,
,,,,,,,,,,,,0,0,0,0,176,0,176,0,,,,,,,176,,,1,1868.9876571642453,X,d,go,d,1,0.18974802651064238,,,,,,,,,,,,,,,,,,82,001,22,w,Psychologie,2023-01-30_15h30.07.706,00_bat_bachelor,2022.2.4,60.07946541335914,
,,,,,,,,,,,,0,0,0,0,177,0,177,0,,,,,,,177,,,1,1870.3051299108047,X,None,nogo,None,1,,1871.1059844110896,,,,,,,,,,,,,,,,,82,001,22,w,Psychologie,2023-01-30_15h30.07.706,00_bat_bachelor,2022.2.4,60.07946541335914,
,,,,,,,,,,,,0,0,0,0,178,0,178,0,,,,,,,178,,,1,1872.1065565345198,Y,l,go,l,1,0.23799063787737396,,,,,,,,,,,,,,,,,,82,001,22,w,Psychologie,2023-01-30_15h30.07.706,00_bat_bachelor,2022.2.4,60.07946541335914,
,,,,,,,,,,,,0,0,0,0,179,0,179,0,,,,,,,179,,,1,1873.4745603861738,X,d,go,d,1,0.1981897562291124,,,,,,,,,,,,,,,,,,82,001,22,w,Psychologie,2023-01-30_15h30.07.706,00_bat_bachelor,2022.2.4,60.07946541335914,
,,,,,,,,,,,,0,0,0,0,180,0,180,0,,,,,,,180,,,1,1874.7918886473235,Y,l,go,l,1,0.2089805859613989,,,,,,,,,,,,,,,,,,82,001,22,w,Psychologie,2023-01-30_15h30.07.706,00_bat_bachelor,2022.2.4,60.07946541335914,
,,,,,,,,,,,,0,0,0,0,181,0,181,0,,,,,,,181,,,1,1876.1263049747577,X,d,go,d,1,0.18635019515204476,,,,,,,,,,,,,,,,,,82,001,22,w,Psychologie,2023-01-30_15h30.07.706,00_bat_bachelor,2022.2.4,60.07946541335914,
,,,,,,,,,,,,0,0,0,0,182,0,182,0,,,,,,,182,,,1,1877.44409869226,X,None,nogo,l,0,0.21233187168763834,,,,,,,,,,,,,,,,,,82,001,22,w,Psychologie,2023-01-30_15h30.07.706,00_bat_bachelor,2022.2.4,60.07946541335914,
,,,,,,,,,,,,0,0,0,0,183,0,183,0,,,,,,,183,,,1,1878.7781799880904,Y,l,go,l,1,0.22331615671646432,,,,,,,,,,,,,,,,,,82,001,22,w,Psychologie,2023-01-30_15h30.07.706,00_bat_bachelor,2022.2.4,60.07946541335914,
,,,,,,,,,,,,0,0,0,0,184,0,184,0,,,,,,,184,,,1,1880.1294613506361,X,d,go,d,1,0.23158576455170987,,,,,,,,,,,,,,,,,,82,001,22,w,Psychologie,2023-01-30_15h30.07.706,00_bat_bachelor,2022.2.4,60.07946541335914,
,,,,,,,,,,,,0,0,0,0,185,0,185,0,,,,,,,185,,,1,1881.4971864133295,Y,l,go,l,1,0.22331227791437414,,,,,,,,,,,,,,,,,,82,001,22,w,Psychologie,2023-01-30_15h30.07.706,00_bat_bachelor,2022.2.4,60.07946541335914,
,,,,,,,,,,,,0,0,0,0,186,0,186,0,,,,,,,186,,,1,1882.8648188695988,Y,None,nogo,d,0,0.18388182194030378,,,,,,,,,,,,,,,,,,82,001,22,w,Psychologie,2023-01-30_15h30.07.706,00_bat_bachelor,2022.2.4,60.07946541335914,
,,,,,,,,,,,,0,0,0,0,187,0,187,0,,,,,,,187,,,1,1884.1658910676997,X,d,go,d,1,0.18028132312610978,,,,,,,,,,,,,,,,,,82,001,22,w,Psychologie,2023-01-30_15h30.07.706,00_bat_bachelor,2022.2.4,60.07946541335914,
,,,,,,,,,,,,0,0,0,0,188,0,188,0,,,,,,,188,,,1,1885.4835369058383,Y,l,go,l,1,0.3334474929870339,,,,,,,,,,,,,,,,,,82,001,22,w,Psychologie,2023-01-30_15h30.07.706,00_bat_bachelor,2022.2.4,60.07946541335914,
,,,,,,,,,,,,0,0,0,0,189,0,189,0,,,,,,,189,,,1,1886.9344700488546,X,d,go,d,1,0.2278349621228699,,,,,,,,,,,,,,,,,,82,001,22,w,Psychologie,2023-01-30_15h30.07.706,00_bat_bachelor,2022.2.4,60.07946541335914,
,,,,,,,,,,,,0,0,0,0,190,0,190,0,,,,,,,190,,,1,1888.2687627394444,Y,l,go,l,1,0.21961529387772316,,,,,,,,,,,,,,,,,,82,001,22,w,Psychologie,2023-01-30_15h30.07.706,00_bat_bachelor,2022.2.4,60.07946541335914,
,,,,,,,,,,,,0,0,0,0,191,0,191,0,,,,,,,191,,,1,1889.6198918589726,Y,None,nogo,d,0,0.18073562792051234,,,,,,,,,,,,,,,,,,82,001,22,w,Psychologie,2023-01-30_15h30.07.706,00_bat_bachelor,2022.2.4,60.07946541335914,
,,,,,,,,,,,,0,0,0,0,192,0,192,0,,,,,,,192,,,1,1890.921074118105,X,d,go,d,1,0.1600650022883201,,,,,,,,,,,,,,,,,,82,001,22,w,Psychologie,2023-01-30_15h30.07.706,00_bat_bachelor,2022.2.4,60.07946541335914,
,,,,,,,,,,,,0,0,0,0,193,0,193,0,,,,,,,193,,,1,1892.2053103721119,Y,l,go,l,1,0.25113832523857127,,,,,,,,,,,,,,,,,,82,001,22,w,Psychologie,2023-01-30_15h30.07.706,00_bat_bachelor,2022.2.4,60.07946541335914,
,,,,,,,,,,,,0,0,0,0,194,0,194,0,,,,,,,194,,,1,1893.589752105705,X,d,go,d,1,0.22750526387244463,,,,,,,,,,,,,,,,,,82,001,22,w,Psychologie,2023-01-30_15h30.07.706,00_bat_bachelor,2022.2.4,60.07946541335914,
,,,,,,,,,,,,0,0,0,0,195,0,195,0,,,,,,,195,,,1,1894.9408089825301,Y,l,go,l,1,0.22036875134290312,,,,,,,,,,,,,,,,,,82,001,22,w,Psychologie,2023-01-30_15h30.07.706,00_bat_bachelor,2022.2.4,60.07946541335914,
,,,,,,,,,,,,0,0,0,0,196,0,196,0,,,,,,,196,,,1,1896.2915526460201,X,d,go,d,1,0.2774298211588757,,,,,,,,,,,,,,,,,,82,001,22,w,Psychologie,2023-01-30_15h30.07.706,00_bat_bachelor,2022.2.4,60.07946541335914,
,,,,,,,,,,,,0,0,0,0,197,0,197,0,,,,,,,197,,,1,1897.69278232352,X,None,nogo,None,1,,1898.4937270059709,,,,,,,,,,,,,,,,,82,001,22,w,Psychologie,2023-01-30_15h30.07.706,00_bat_bachelor,2022.2.4,60.07946541335914,
,,,,,,,,,,,,0,0,0,0,198,0,198,0,,,,,,,198,,,1,1899.4940411890093,Y,l,go,l,1,0.19525544181306032,,,,,,,,,,,,,,,,,,82,001,22,w,Psychologie,2023-01-30_15h30.07.706,00_bat_bachelor,2022.2.4,60.07946541335914,
,,,,,,,,,,,,0,0,0,0,199,0,199,0,,,,,,,199,,,1,1900.8285636986693,X,d,go,d,1,0.3168631862354232,,,,,,,,,,,,,,,,,,82,001,22,w,Psychologie,2023-01-30_15h30.07.706,00_bat_bachelor,2022.2.4,60.07946541335914,
,,,,,,,,,,,,0,0,0,0,200,0,200,0,,,,,,,200,,,1,1902.2798003580137,X,None,nogo,None,1,,1903.0801787352393,,,,,,,,,,,,,,,,,82,001,22,w,Psychologie,2023-01-30_15h30.07.706,00_bat_bachelor,2022.2.4,60.07946541335914,
,,,,,,,,,,,,0,0,0,0,201,0,201,0,,,,,,,201,,,1,1904.0811367995593,Y,l,go,l,1,0.18366994232928846,,,,,,,,,,,,,,,,,,82,001,22,w,Psychologie,2023-01-30_15h30.07.706,00_bat_bachelor,2022.2.4,60.07946541335914,
,,,,,,,,,,,,0,0,0,0,202,0,202,0,,,,,,,202,,,1,1905.3819011176747,X,d,go,d,1,0.2110998669086257,,,,,,,,,,,,,,,,,,82,001,22,w,Psychologie,2023-01-30_15h30.07.706,00_bat_bachelor,2022.2.4,60.07946541335914,
,,,,,,,,,,,,0,0,0,0,203,0,203,0,,,,,,,203,,,1,1906.6988715592597,Y,l,go,l,1,0.3028699198330287,,,,,,,,,,,,,,,,,,82,001,22,w,Psychologie,2023-01-30_15h30.07.706,00_bat_bachelor,2022.2.4,60.07946541335914,
,,,,,,,,,,,,0,0,0,0,204,0,204,0,,,,,,,204,,,1,1908.1166021492427,Y,None,nogo,None,1,,,,,,,,,,,,,,,,,,,82,001,22,w,Psychologie,2023-01-30_15h30.07.706,00_bat_bachelor,2022.2.4,60.07946541335914,
,,,,,,,,,,,,0,0,0,0,205,0,205,0,,,,,,,205,,,1,1909.9183065922189,X,d,go,d,1,0.2349346260270977,,,,,,,,,,,,,,,,,,82,001,22,w,Psychologie,2023-01-30_15h30.07.706,00_bat_bachelor,2022.2.4,60.07946541335914,
,,,,,,,,,,,,0,0,0,0,206,0,206,0,,,,,,,206,,,1,1911.269996198771,Y,l,go,l,1,0.22744756667816546,,,,,,,,,,,,,,,,,,82,001,22,w,Psychologie,2023-01-30_15h30.07.706,00_bat_bachelor,2022.2.4,60.07946541335914,
,,,,,,,,,,,,0,0,0,0,207,0,207,0,,,,,,,207,,,1,1912.620967257084,Y,None,nogo,None,1,,1913.4215594533198,,,,,,,,,,,,,,,,,82,001,22,w,Psychologie,2023-01-30_15h30.07.706,00_bat_bachelor,2022.2.4,60.07946541335914,
,,,,,,,,,,,,0,0,0,0,208,0,208,0,,,,,,,208,,,1,1914.422136910107,X,d,go,d,1,0.17876519603305496,,,,,,,,,,,,,,,,,,82,001,22,w,Psychologie,2023-01-30_15h30.07.706,00_bat_bachelor,2022.2.4,60.07946541335914,
,,,,,,,,,,,,0,0,0,0,209,0,209,0,,,,,,,209,,,1,1915.723495169921,Y,l,go,l,1,0.20619318120589014,,,,,,,,,,,,,,,,,,82,001,22,w,Psychologie,2023-01-30_15h30.07.706,00_bat_bachelor,2022.2.4,60.07946541335914,
,,,,,,,,,,,,0,0,0,0,210,0,210,0,,,,,,,210,,,1,1917.05773549667,Y,None,nogo,None,1,,1917.858389268902,,,,,,,,,,,,,,,,,82,001,22,w,Psychologie,2023-01-30_15h30.07.706,00_bat_bachelor,2022.2.4,60.07946541335914,
,,,,,,,,,,,,0,0,0,0,211,0,211,0,,,,,,,211,,,1,1918.858891089032,X,d,go,d,1,0.15888002799692913,,,,,,,,,,,,,,,,,,82,001,22,w,Psychologie,2023-01-30_15h30.07.706,00_bat_bachelor,2022.2.4,60.07946541335914,
,,,,,,,,,,,,0,0,0,0,212,0,212,0,,,,,,,212,,,1,1920.1267355218843,Y,l,go,l,1,0.21810353043838404,,,,,,,,,,,,,,,,,,82,001,22,w,Psychologie,2023-01-30_15h30.07.706,00_bat_bachelor,2022.2.4,60.07946541335914,
,,,,,,,,,,,,0,0,0,0,213,0,213,0,,,,,,,213,,,1,1921.47775215613,Y,None,nogo,None,1,,1922.2784403527367,,,,,,,,,,,,,,,,,82,001,22,w,Psychologie,2023-01-30_15h30.07.706,00_bat_bachelor,2022.2.4,60.07946541335914,
,,,,,,,,,,,,0,0,0,0,214,0,214,0,,,,,,,214,,,1,1923.2789140515451,Y,None,nogo,d,0,0.1855293434819032,,,,,,,,,,,,,,,,,,82,001,22,w,Psychologie,2023-01-30_15h30.07.706,00_bat_bachelor,2022.2.4,60.07946541335914,
,,,,,,,,,,,,0,0,0,0,215,0,215,0,,,,,,,215,,,1,1924.5968086179237,X,d,go,d,1,0.19709399440034758,,,,,,,,,,,,,,,,,,82,001,22,w,Psychologie,2023-01-30_15h30.07.706,00_bat_bachelor,2022.2.4,60.07946541335914,
,,,,,,,,,,,,0,0,0,0,216,0,216,0,,,,,,,216,,,1,1925.8978386340386,Y,l,go,l,1,0.255531069549761,,,,,,,,,,,,,,,,,,82,001,22,w,Psychologie,2023-01-30_15h30.07.706,00_bat_bachelor,2022.2.4,60.07946541335914,
,,,,,,,,,,,,0,0,0,0,217,0,217,0,,,,,,,217,,,1,1927.2654948479794,Y,None,nogo,None,1,,1928.066163165724,,,,,,,,,,,,,,,,,82,001,22,w,Psychologie,2023-01-30_15h30.07.706,00_bat_bachelor,2022.2.4,60.07946541335914,
,,,,,,,,,,,,0,0,0,0,218,0,218,0,,,,,,,218,,,1,1929.0667595316736,X,d,go,d,1,0.1747709987248527,,,,,,,,,,,,,,,,,,82,001,22,w,Psychologie,2023-01-30_15h30.07.706,00_bat_bachelor,2022.2.4,60.07946541335914,
,,,,,,,,,,,,0,0,0,0,219,0,219,0,,,,,,,219,,,1,1930.3676974262198,Y,l,go,l,1,0.3936964539498149,,,,,,,,,,,,,,,,,,82,001,22,w,Psychologie,2023-01-30_15h30.07.706,00_bat_bachelor,2022.2.4,60.07946541335914,
,,,,,,,,,,,,0,0,0,0,220,0,220,0,,,,,,,220,,,1,1931.8688402185326,Y,None,nogo,None,1,,1932.6695550819095,,,,,,,,,,,,,,,,,82,001,22,w,Psychologie,2023-01-30_15h30.07.706,00_bat_bachelor,2022.2.4,60.07946541335914,
,,,,,,,,,,,,0,0,0,0,221,0,221,0,,,,,,,221,,,1,1933.670206235951,X,d,go,d,1,0.14727077084535267,,,,,,,,,,,,,,,,,,82,001,22,w,Psychologie,2023-01-30_15h30.07.706,00_bat_bachelor,2022.2.4,60.07946541335914,
,,,,,,,,,,,,0,0,0,0,222,0,222,0,,,,,,,222,,,1,1934.9544546112156,Y,l,go,l,1,0.43123744804688613,,,,,,,,,,,,,,,,,,82,001,22,w,Psychologie,2023-01-30_15h30.07.706,00_bat_bachelor,2022.2.4,60.07946541335914,
,,,,,,,,,,,,0,0,0,0,223,0,223,0,,,,,,,223,,,1,1936.5053672935464,Y,None,nogo,None,1,,1937.305708822143,,,,,,,,,,,,,,,,,82,001,22,w,Psychologie,2023-01-30_15h30.07.706,00_bat_bachelor,2022.2.4,60.07946541335914,
,,,,,,,,,,,,0,0,0,0,224,0,224,0,,,,,,,224,,,1,1938.3066363408907,X,d,go,d,1,0.15133575630898122,,,,,,,,,,,,,,,,,,82,001,22,w,Psychologie,2023-01-30_15h30.07.706,00_bat_bachelor,2022.2.4,60.07946541335914,
,,,,,,,,,,,,0,0,0,0,225,0,225,0,,,,,,,225,,,1,1939.5739973779273,Y,l,go,l,1,0.22795908381522167,,,,,,,,,,,,,,,,,,82,001,22,w,Psychologie,2023-01-30_15h30.07.706,00_bat_bachelor,2022.2.4,60.07946541335914,
,,,,,,,,,,,,0,0,0,0,226,0,226,0,,,,,,,226,,,1,1940.908410796259,Y,None,nogo,None,1,,,,,,,,,,,,,,,,,,,82,001,22,w,Psychologie,2023-01-30_15h30.07.706,00_bat_bachelor,2022.2.4,60.07946541335914,
,,,,,,,,,,,,0,0,0,0,227,0,227,0,,,,,,,227,,,1,1942.7097162073842,X,d,go,d,1,0.14888871651419322,,,,,,,,,,,,,,,,,,82,001,22,w,Psychologie,2023-01-30_15h30.07.706,00_bat_bachelor,2022.2.4,60.07946541335914,
,,,,,,,,,,,,0,0,0,0,228,0,228,0,,,,,,,228,,,1,1943.9609947577956,Y,l,go,l,1,0.2410747710528085,,,,,,,,,,,,,,,,,,82,001,22,w,Psychologie,2023-01-30_15h30.07.706,00_bat_bachelor,2022.2.4,60.07946541335914,
,,,,,,,,,,,,0,0,0,0,229,0,229,0,,,,,,,229,,,1,1945.3120676346844,X,d,go,d,1,0.21851080474516493,,,,,,,,,,,,,,,,,,82,001,22,w,Psychologie,2023-01-30_15h30.07.706,00_bat_bachelor,2022.2.4,60.07946541335914,
,,,,,,,,,,,,0,0,0,0,230,0,230,0,,,,,,,230,,,1,1946.646467477207,X,None,nogo,l,0,0.24458266345027369,,,,,,,,,,,,,,,,,,82,001,22,w,Psychologie,2023-01-30_15h30.07.706,00_bat_bachelor,2022.2.4,60.07946541335914,
,,,,,,,,,,,,0,0,0,0,231,0,231,0,,,,,,,231,,,1,1947.9974763538485,Y,l,go,l,1,0.20404190013869083,,,,,,,,,,,,,,,,,,82,001,22,w,Psychologie,2023-01-30_15h30.07.706,00_bat_bachelor,2022.2.4,60.07946541335914,
,,,,,,,,,,,,0,0,0,0,232,0,232,0,,,,,,,232,,,1,1949.3151299495948,X,d,go,d,1,0.2628552191708877,,,,,,,,,,,,,,,,,,82,001,22,w,Psychologie,2023-01-30_15h30.07.706,00_bat_bachelor,2022.2.4,60.07946541335914,
,,,,,,,,,,,,0,0,0,0,233,0,233,0,,,,,,,233,,,1,1950.6825718596701,X,None,nogo,None,1,,1951.483381753722,,,,,,,,,,,,,,,,,82,001,22,w,Psychologie,2023-01-30_15h30.07.706,00_bat_bachelor,2022.2.4,60.07946541335914,
,,,,,,,,,,,,0,0,0,0,234,0,234,0,,,,,,,234,,,1,1952.4841827265263,X,None,nogo,l,0,0.1653169014462037,,,,,,,,,,,,,,,,,,82,001,22,w,Psychologie,2023-01-30_15h30.07.706,00_bat_bachelor,2022.2.4,60.07946541335914,
,,,,,,,,,,,,0,0,0,0,235,0,235,0,,,,,,,235,,,1,1953.7517444916157,Y,l,go,l,1,0.21141308024380123,,,,,,,,,,,,,,,,,,82,001,22,w,Psychologie,2023-01-30_15h30.07.706,00_bat_bachelor,2022.2.4,60.07946541335914,
,,,,,,,,,,,,0,0,0,0,236,0,236,0,,,,,,,236,,,1,1955.069550330376,X,d,go,d,1,0.25242948175946367,,,,,,,,,,,,,,,,,,82,001,22,w,Psychologie,2023-01-30_15h30.07.706,00_bat_bachelor,2022.2.4,60.07946541335914,
,,,,,,,,,,,,0,0,0,0,237,0,237,0,,,,,,,237,,,1,1956.4370984226844,X,None,nogo,None,1,,,,,,,,,,,,,,,,,,,82,001,22,w,Psychologie,2023-01-30_15h30.07.706,00_bat_bachelor,2022.2.4,60.07946541335914,
,,,,,,,,,,,,0,0,0,0,238,0,238,0,,,,,,,238,,,1,1958.2386549862968,Y,l,go,l,1,0.17192395737583865,,,,,,,,,,,,,,,,,,82,001,22,w,Psychologie,2023-01-30_15h30.07.706,00_bat_bachelor,2022.2.4,60.07946541335914,
,,,,,,,,,,,,0,0,0,0,239,0,239,0,,,,,,,239,,,1,1959.5230507560736,X,d,go,d,1,0.2802084986033151,,,,,,,,,,,,,,,,,,82,001,22,w,Psychologie,2023-01-30_15h30.07.706,00_bat_bachelor,2022.2.4,60.07946541335914,
,,,,,,,,,,,,0,0,0,0,240,0,240,0,,,,,,,240,,,1,1960.9070585485897,Y,l,go,l,1,0.2386539131803147,,,,,,,,,,,,,,,,,,82,001,22,w,Psychologie,2023-01-30_15h30.07.706,00_bat_bachelor,2022.2.4,60.07946541335914,
,,,,,,,,,,,,0,0,0,0,241,0,241,0,,,,,,,241,,,1,1962.2582928806514,Y,None,nogo,None,1,,,,,,,,,,,,,,,,,,,82,001,22,w,Psychologie,2023-01-30_15h30.07.706,00_bat_bachelor,2022.2.4,60.07946541335914,
,,,,,,,,,,,,0,0,0,0,242,0,242,0,,,,,,,242,,,1,1964.059473685229,X,d,go,d,1,0.2066237283324881,,,,,,,,,,,,,,,,,,82,001,22,w,Psychologie,2023-01-30_15h30.07.706,00_bat_bachelor,2022.2.4,60.07946541335914,
,,,,,,,,,,,,0,0,0,0,243,0,243,0,,,,,,,243,,,1,1965.3772276450036,Y,l,go,l,1,0.28073359154950595,,,,,,,,,,,,,,,,,,82,001,22,w,Psychologie,2023-01-30_15h30.07.706,00_bat_bachelor,2022.2.4,60.07946541335914,
,,,,,,,,,,,,0,0,0,0,244,0,244,0,,,,,,,244,,,1,1966.7617067120736,X,d,go,d,1,0.41731496980355587,,,,,,,,,,,,,,,,,,82,001,22,w,Psychologie,2023-01-30_15h30.07.706,00_bat_bachelor,2022.2.4,60.07946541335914,
,,,,,,,,,,,,0,0,0,0,245,0,245,0,,,,,,,245,,,1,1968.27936011388,Y,l,go,l,1,0.2427586563717341,,,,,,,,,,,,,,,,,,82,001,22,w,Psychologie,2023-01-30_15h30.07.706,00_bat_bachelor,2022.2.4,60.07946541335914,
,,,,,,,,,,,,0,0,0,0,246,0,246,0,,,,,,,246,,,1,1969.63069917362,X,d,go,d,1,0.2031269874969439,,,,,,,,,,,,,,,,,,82,001,22,w,Psychologie,2023-01-30_15h30.07.706,00_bat_bachelor,2022.2.4,60.07946541335914,
,,,,,,,,,,,,0,0,0,0,247,0,247,0,,,,,,,247,,,1,1970.9483159207412,Y,l,go,l,1,0.30932230849793996,,,,,,,,,,,,,,,,,,82,001,22,w,Psychologie,2023-01-30_15h30.07.706,00_bat_bachelor,2022.2.4,60.07946541335914,
,,,,,,,,,,,,0,0,0,0,248,0,248,0,,,,,,,248,,,1,1972.366790271186,X,d,go,d,1,0.20315801792094135,,,,,,,,,,,,,,,,,,82,001,22,w,Psychologie,2023-01-30_15h30.07.706,00_bat_bachelor,2022.2.4,60.07946541335914,
,,,,,,,,,,,,0,0,0,0,249,0,249,0,,,,,,,249,,,1,1973.7009549612776,X,None,nogo,None,1,,1974.5300776924232,,,,,,,,,,,,,,,,,82,001,22,w,Psychologie,2023-01-30_15h30.07.706,00_bat_bachelor,2022.2.4,60.07946541335914,
,,,,,,,,,,,,1,0,1,0,0,0,0,0,,,,,,,0,,,0.2,1989.162505842447,X,d,go,d,1,0.31814707000012277,,,,,,,,,1974.5300776924232,space,14.41188028205579,,,,,,,82,001,22,w,Psychologie,2023-01-30_15h30.07.706,00_bat_bachelor,2022.2.4,60.07946541335914,
,,,,,,,,,,,,1,0,1,0,1,0,1,0,,,,,,,1,,,0.2,1989.8130465475733,Y,l,go,None,0,,1990.6137977747312,,,,,,,,,,,,,,,,,82,001,22,w,Psychologie,2023-01-30_15h30.07.706,00_bat_bachelor,2022.2.4,60.07946541335914,
,,,,,,,,,,,,1,0,1,0,2,0,2,0,,,,,,,2,,,0.2,1990.8139570965614,X,d,go,d,1,0.5401072036656842,,,,,,,,,,,,,,,,,,82,001,22,w,Psychologie,2023-01-30_15h30.07.706,00_bat_bachelor,2022.2.4,60.07946541335914,
,,,,,,,,,,,,1,0,1,0,3,0,3,0,,,,,,,3,,,0.2,1991.6645601534437,Y,l,go,l,1,0.4088722703891108,,,,,,,,,,,,,,,,,,82,001,22,w,Psychologie,2023-01-30_15h30.07.706,00_bat_bachelor,2022.2.4,60.07946541335914,
,,,,,,,,,,,,1,0,1,0,4,0,4,0,,,,,,,4,,,0.2,1992.38191760259,X,d,go,d,1,0.3006066383277357,,,,,,,,,,,,,,,,,,82,001,22,w,Psychologie,2023-01-30_15h30.07.706,00_bat_bachelor,2022.2.4,60.07946541335914,
,,,,,,,,,,,,1,0,1,0,5,0,5,0,,,,,,,5,,,0.2,1992.982240900812,Y,l,go,l,1,0.27644702946417965,,,,,,,,,,,,,,,,,,82,001,22,w,Psychologie,2023-01-30_15h30.07.706,00_bat_bachelor,2022.2.4,60.07946541335914,
,,,,,,,,,,,,1,0,1,0,6,0,6,0,,,,,,,6,,,0.2,1993.5658708009541,Y,None,nogo,d,0,0.2201937203608395,,,,,,,,,,,,,,,,,,82,001,22,w,Psychologie,2023-01-30_15h30.07.706,00_bat_bachelor,2022.2.4,60.07946541335914,
,,,,,,,,,,,,1,0,1,0,7,0,7,0,,,,,,,7,,,0.2,1994.0999562664947,X,d,go,None,0,,1994.9004558563138,,,,,,,,,,,,,,,,,82,001,22,w,Psychologie,2023-01-30_15h30.07.706,00_bat_bachelor,2022.2.4,60.07946541335914,
,,,,,,,,,,,,1,0,1,0,8,0,8,0,,,,,,,8,,,0.2,1995.1005623294513,Y,l,go,None,0,,1995.9009988887228,,,,,,,,,,,,,,,,,82,001,22,w,Psychologie,2023-01-30_15h30.07.706,00_bat_bachelor,2022.2.4,60.07946541335914,
,,,,,,,,,,,,1,0,1,0,9,0,9,0,,,,,,,9,,,0.2,1996.101386090224,Y,None,nogo,d,0,0.004999188699002843,,,,,,,,,,,,,,,,,,82,001,22,w,Psychologie,2023-01-30_15h30.07.706,00_bat_bachelor,2022.2.4,60.07946541335914,
,,,,,,,,,,,,1,0,1,0,10,0,10,0,,,,,,,10,,,0.2,1996.418138833993,X,d,go,None,0,,1997.2188367276067,,,,,,,,,,,,,,,,,82,001,22,w,Psychologie,2023-01-30_15h30.07.706,00_bat_bachelor,2022.2.4,60.07946541335914,
,,,,,,,,,,,,1,0,1,0,11,0,11,0,,,,,,,11,,,0.2,1997.4190324132142,Y,l,go,l,1,0.031691655869508395,,,,,,,,,,,,,,,,,,82,001,22,w,Psychologie,2023-01-30_15h30.07.706,00_bat_bachelor,2022.2.4,60.07946541335914,
,,,,,,,,,,,,1,0,1,0,12,0,12,0,,,,,,,12,,,0.2,1997.7692907414894,Y,None,nogo,None,1,,1998.5696953006372,,,,,,,,,,,,,,,,,82,001,22,w,Psychologie,2023-01-30_15h30.07.706,00_bat_bachelor,2022.2.4,60.07946541335914,
,,,,,,,,,,,,1,0,1,0,13,0,13,0,,,,,,,13,,,0.2,1998.7698337738984,X,d,go,d,1,0.2652586224321567,,,,,,,,,,,,,,,,,,82,001,22,w,Psychologie,2023-01-30_15h30.07.706,00_bat_bachelor,2022.2.4,60.07946541335914,
,,,,,,,,,,,,1,0,1,0,14,0,14,0,,,,,,,14,,,0.2,1999.3369874889213,Y,l,go,None,0,,2000.1375733821005,,,,,,,,,,,,,,,,,82,001,22,w,Psychologie,2023-01-30_15h30.07.706,00_bat_bachelor,2022.2.4,60.07946541335914,
,,,,,,,,,,,,1,0,1,0,15,0,15,0,,,,,,,15,,,0.2,2000.3378708862874,Y,None,nogo,l,0,0.5838353732760879,,,,,,,,,,,,,,,,,,82,001,22,w,Psychologie,2023-01-30_15h30.07.706,00_bat_bachelor,2022.2.4,60.07946541335914,
,,,,,,,,,,,,1,0,1,0,16,0,16,0,,,,,,,16,,,0.2,2001.221911163775,Y,None,nogo,None,1,,2002.0225023903113,,,,,,,,,,,,,,,,,82,001,22,w,Psychologie,2023-01-30_15h30.07.706,00_bat_bachelor,2022.2.4,60.07946541335914,
,,,,,,,,,,,,1,0,1,0,17,0,17,0,,,,,,,17,,,0.2,2002.2225021963714,X,d,go,d,1,0.29871475220352295,,,,,,,,,,,,,,,,,,82,001,22,w,Psychologie,2023-01-30_15h30.07.706,00_bat_bachelor,2022.2.4,60.07946541335914,
,,,,,,,,,,,,1,0,1,0,18,0,18,0,,,,,,,18,,,0.2,2002.8400211976586,Y,l,go,l,1,0.35364248040423263,,,,,,,,,,,,,,,,,,82,001,22,w,Psychologie,2023-01-30_15h30.07.706,00_bat_bachelor,2022.2.4,60.07946541335914,
,,,,,,,,,,,,1,0,1,0,19,0,19,0,,,,,,,19,,,0.2,2003.5236160915993,Y,None,nogo,None,1,,2004.3243207731211,,,,,,,,,,,,,,,,,82,001,22,w,Psychologie,2023-01-30_15h30.07.706,00_bat_bachelor,2022.2.4,60.07946541335914,
,,,,,,,,,,,,1,0,1,0,20,0,20,0,,,,,,,20,,,0.2,2004.524527125439,X,d,go,d,1,0.41491302109352546,,,,,,,,,,,,,,,,,,82,001,22,w,Psychologie,2023-01-30_15h30.07.706,00_bat_bachelor,2022.2.4,60.07946541335914,
,,,,,,,,,,,,1,0,1,0,21,0,21,0,,,,,,,21,,,0.2,2005.241634876642,Y,l,go,l,1,0.4320413299537904,,,,,,,,,,,,,,,,,,82,001,22,w,Psychologie,2023-01-30_15h30.07.706,00_bat_bachelor,2022.2.4,60.07946541335914,
,,,,,,,,,,,,1,0,1,0,22,0,22,0,,,,,,,22,,,0.2,2005.975369601434,Y,None,nogo,l,0,0.4511037069205486,,,,,,,,,,,,,,,,,,82,001,22,w,Psychologie,2023-01-30_15h30.07.706,00_bat_bachelor,2022.2.4,60.07946541335914,
,,,,,,,,,,,,1,0,1,0,23,0,23,0,,,,,,,23,,,0.2,2006.726172028786,X,d,go,None,0,,2007.5267142854354,,,,,,,,,,,,,,,,,82,001,22,w,Psychologie,2023-01-30_15h30.07.706,00_bat_bachelor,2022.2.4,60.07946541335914,
,,,,,,,,,,,,1,0,1,0,24,0,24,0,,,,,,,24,,,0.2,2007.7267150611988,Y,l,go,None,0,,2008.527609804063,,,,,,,,,,,,,,,,,82,001,22,w,Psychologie,2023-01-30_15h30.07.706,00_bat_bachelor,2022.2.4,60.07946541335914,
,,,,,,,,,,,,1,0,1,0,25,0,25,0,,,,,,,25,,,0.2,2008.7274757914201,Y,None,nogo,l,0,0.48168418917339295,,,,,,,,,,,,,,,,,,82,001,22,w,Psychologie,2023-01-30_15h30.07.706,00_bat_bachelor,2022.2.4,60.07946541335914,
,,,,,,,,,,,,1,0,1,0,26,0,26,0,,,,,,,26,,,0.2,2009.5282401095355,X,d,go,None,0,,2010.3286936385703,,,,,,,,,,,,,,,,,82,001,22,w,Psychologie,2023-01-30_15h30.07.706,00_bat_bachelor,2022.2.4,60.07946541335914,
,,,,,,,,,,,,1,0,1,0,27,0,27,0,,,,,,,27,,,0.2,2010.5288524755488,Y,l,go,l,1,0.5849548927690194,,,,,,,,,,,,,,,,,,82,001,22,w,Psychologie,2023-01-30_15h30.07.706,00_bat_bachelor,2022.2.4,60.07946541335914,
,,,,,,,,,,,,1,0,1,0,28,0,28,0,,,,,,,28,,,0.2,2011.4298460309183,X,d,go,d,1,0.34032121661584824,,,,,,,,,,,,,,,,,,82,001,22,w,Psychologie,2023-01-30_15h30.07.706,00_bat_bachelor,2022.2.4,60.07946541335914,
,,,,,,,,,,,,1,0,1,0,29,0,29,0,,,,,,,29,,,0.2,2012.096957951835,Y,l,go,l,1,0.2654031078418484,,,,,,,,,,,,,,,,,,82,001,22,w,Psychologie,2023-01-30_15h30.07.706,00_bat_bachelor,2022.2.4,60.07946541335914,
,,,,,,,,,,,,1,0,1,0,30,0,30,0,,,,,,,30,,,0.2,2012.6807236100794,X,d,go,d,1,0.3054614450375084,,,,,,,,,,,,,,,,,,82,001,22,w,Psychologie,2023-01-30_15h30.07.706,00_bat_bachelor,2022.2.4,60.07946541335914,
,,,,,,,,,,,,1,0,1,0,31,0,31,0,,,,,,,31,,,0.2,2013.2979410344378,Y,l,go,l,1,0.34549311546288664,,,,,,,,,,,,,,,,,,82,001,22,w,Psychologie,2023-01-30_15h30.07.706,00_bat_bachelor,2022.2.4,60.07946541335914,
,,,,,,,,,,,,1,0,1,0,32,0,32,0,,,,,,,32,,,0.2,2013.9483159207412,Y,None,nogo,d,0,0.365638648152526,,,,,,,,,,,,,,,,,,82,001,22,w,Psychologie,2023-01-30_15h30.07.706,00_bat_bachelor,2022.2.4,60.07946541335914,
,,,,,,,,,,,,1,0,1,0,33,0,33,0,,,,,,,33,,,0.2,2014.6155553573044,Y,None,nogo,None,1,,2015.4160205227454,,,,,,,,,,,,,,,,,82,001,22,w,Psychologie,2023-01-30_15h30.07.706,00_bat_bachelor,2022.2.4,60.07946541335914,
,,,,,,,,,,,,1,0,1,0,34,0,34,0,,,,,,,34,,,0.2,2015.6163165723774,X,d,go,d,1,0.24946559147792868,,,,,,,,,,,,,,,,,,82,001,22,w,Psychologie,2023-01-30_15h30.07.706,00_bat_bachelor,2022.2.4,60.07946541335914,
,,,,,,,,,,,,1,0,1,0,35,0,35,0,,,,,,,35,,,0.2,2016.1669955568323,Y,l,go,l,1,0.4831217705104791,,,,,,,,,,,,,,,,,,82,001,22,w,Psychologie,2023-01-30_15h30.07.706,00_bat_bachelor,2022.2.4,60.07946541335914,
,,,,,,,,,,,,1,0,1,0,36,0,36,0,,,,,,,36,,,0.2,2016.9506218690767,Y,None,nogo,None,1,,2017.7510681253552,,,,,,,,,,,,,,,,,82,001,22,w,Psychologie,2023-01-30_15h30.07.706,00_bat_bachelor,2022.2.4,60.07946541335914,
,,,,,,,,,,,,1,0,1,0,37,0,37,0,,,,,,,37,,,0.2,2017.9514824784783,X,d,go,d,1,0.330323117228545,,,,,,,,,,,,,,,,,,82,001,22,w,Psychologie,2023-01-30_15h30.07.706,00_bat_bachelor,2022.2.4,60.07946541335914,
,,,,,,,,,,,,1,0,1,0,38,0,38,0,,,,,,,38,,,0.2,2018.5854335434997,Y,l,go,l,1,0.49642751909050276,,,,,,,,,,,,,,,,,,82,001,22,w,Psychologie,2023-01-30_15h30.07.706,00_bat_bachelor,2022.2.4,60.07946541335914,
,,,,,,,,,,,,1,0,1,0,39,0,39,0,,,,,,,39,,,0.2,2019.4023467727384,X,d,go,d,1,0.46524048902938375,,,,,,,,,,,,,,,,,,82,001,22,w,Psychologie,2023-01-30_15h30.07.706,00_bat_bachelor,2022.2.4,60.07946541335914,
,,,,,,,,,,,,1,0,1,0,40,0,40,0,,,,,,,40,,,0.2,2020.1696195670083,Y,l,go,l,1,0.4647115172811027,,,,,,,,,,,,,,,,,,82,001,22,w,Psychologie,2023-01-30_15h30.07.706,00_bat_bachelor,2022.2.4,60.07946541335914,
,,,,,,,,,,,,1,0,1,0,41,0,41,0,,,,,,,41,,,0.2,2020.9370882408257,X,d,go,d,1,0.5939435336949828,,,,,,,,,,,,,,,,,,82,001,22,w,Psychologie,2023-01-30_15h30.07.706,00_bat_bachelor,2022.2.4,60.07946541335914,
,,,,,,,,,,,,1,0,1,0,42,0,42,0,,,,,,,42,,,0.2,2021.8375295516307,Y,l,go,l,1,0.34862476397756836,,,,,,,,,,,,,,,,,,82,001,22,w,Psychologie,2023-01-30_15h30.07.706,00_bat_bachelor,2022.2.4,60.07946541335914,
,,,,,,,,,,,,1,0,1,0,43,0,43,0,,,,,,,43,,,0.2,2022.5048887462326,X,d,go,None,0,,2023.3054790030692,,,,,,,,,,,,,,,,,82,001,22,w,Psychologie,2023-01-30_15h30.07.706,00_bat_bachelor,2022.2.4,60.07946541335914,
,,,,,,,,,,,,1,0,1,0,44,0,44,0,,,,,,,44,,,0.2,2023.505701355447,X,None,nogo,l,0,0.4091166349717241,,,,,,,,,,,,,,,,,,82,001,22,w,Psychologie,2023-01-30_15h30.07.706,00_bat_bachelor,2022.2.4,60.07946541335914,
,,,,,,,,,,,,1,0,1,0,45,0,45,0,,,,,,,45,,,0.2,2024.2228774705545,Y,l,go,None,0,,2025.0235923339314,,,,,,,,,,,,,,,,,82,001,22,w,Psychologie,2023-01-30_15h30.07.706,00_bat_bachelor,2022.2.4,60.07946541335914,
,,,,,,,,,,,,1,0,1,0,46,0,46,0,,,,,,,46,,,0.2,2025.22370753438,X,d,go,None,0,,2026.024219245457,,,,,,,,,,,,,,,,,82,001,22,w,Psychologie,2023-01-30_15h30.07.706,00_bat_bachelor,2022.2.4,60.07946541335914,
,,,,,,,,,,,,1,0,1,0,47,0,47,0,,,,,,,47,,,0.2,2026.22439650675,Y,l,go,l,1,0.47352415752538946,,,,,,,,,,,,,,,,,,82,001,22,w,Psychologie,2023-01-30_15h30.07.706,00_bat_bachelor,2022.2.4,60.07946541335914,
,,,,,,,,,,,,1,0,1,0,48,0,48,0,,,,,,,48,,,0.2,2027.0251603400138,X,d,go,d,1,0.4896856747545826,,,,,,,,,,,,,,,,,,82,001,22,w,Psychologie,2023-01-30_15h30.07.706,00_bat_bachelor,2022.2.4,60.07946541335914,
,,,,,,,,,,,,1,0,1,0,49,0,49,0,,,,,,,49,,,0.2,2027.8254339895611,Y,l,go,l,1,0.5848952561718761,,,,,,,,,,,,,,,,,,82,001,22,w,Psychologie,2023-01-30_15h30.07.706,00_bat_bachelor,2022.2.4,60.07946541335914,
,,,,,,,,,,,,1,0,1,0,50,0,50,0,,,,,,,50,,,0.2,2028.7263640295314,Y,None,nogo,None,1,,2029.5270274987743,,,,,,,,,,,,,,,,,82,001,22,w,Psychologie,2023-01-30_15h30.07.706,00_bat_bachelor,2022.2.4,60.07946541335914,
,,,,,,,,,,,,1,0,1,0,51,0,51,0,,,,,,,51,,,0.2,2029.727025850283,X,d,go,d,1,0.49126337784400675,,,,,,,,,,,,,,,,,,82,001,22,w,Psychologie,2023-01-30_15h30.07.706,00_bat_bachelor,2022.2.4,60.07946541335914,
,,,,,,,,,,,,1,0,1,0,52,0,52,0,,,,,,,52,,,0.2,2030.5273251968974,Y,l,go,None,0,,,,,,,,,,,,,,,,,,,82,001,22,w,Psychologie,2023-01-30_15h30.07.706,00_bat_bachelor,2022.2.4,60.07946541335914,
,,,,,,,,,,,,1,0,1,0,53,0,53,0,,,,,,,53,,,0.2,2031.5281193817973,Y,None,nogo,None,1,,,,,,,,,,,,,,,,,,,82,001,22,w,Psychologie,2023-01-30_15h30.07.706,00_bat_bachelor,2022.2.4,60.07946541335914,
,,,,,,,,,,,,1,0,1,0,54,0,54,0,,,,,,,54,,,0.2,2032.5288786574674,X,d,go,d,1,0.457581307808141,,,,,,,,,,,,,,,,,,82,001,22,w,Psychologie,2023-01-30_15h30.07.706,00_bat_bachelor,2022.2.4,60.07946541335914,
,,,,,,,,,,,,1,0,1,0,55,0,55,0,,,,,,,55,,,0.2,2033.2960855120873,Y,l,go,l,1,0.42738143309179577,,,,,,,,,,,,,,,,,,82,001,22,w,Psychologie,2023-01-30_15h30.07.706,00_bat_bachelor,2022.2.4,60.07946541335914,
,,,,,,,,,,,,1,0,1,0,56,0,56,0,,,,,,,56,,,0.2,2034.0297542972294,X,d,go,d,1,0.5564461761314305,,,,,,,,,,,,,,,,,,82,001,22,w,Psychologie,2023-01-30_15h30.07.706,00_bat_bachelor,2022.2.4,60.07946541335914,
,,,,,,,,,,,,1,0,1,0,57,0,57,0,,,,,,,57,,,0.2,2034.8973271169052,Y,l,go,l,1,0.3776571190064715,,,,,,,,,,,,,,,,,,82,001,22,w,Psychologie,2023-01-30_15h30.07.706,00_bat_bachelor,2022.2.4,60.07946541335914,
,,,,,,,,,,,,1,0,1,0,58,0,58,0,,,,,,,58,,,0.2,2035.5812226180751,X,d,go,d,1,0.34893652275786735,,,,,,,,,,,,,,,,,,82,001,22,w,Psychologie,2023-01-30_15h30.07.706,00_bat_bachelor,2022.2.4,60.07946541335914,
,,,,,,,,,,,,1,0,1,0,59,0,59,0,,,,,,,59,,,0.2,2036.2314903524457,Y,l,go,l,1,0.3699848468240816,,,,,,,,,,,,,,,,,,82,001,22,w,Psychologie,2023-01-30_15h30.07.706,00_bat_bachelor,2022.2.4,60.07946541335914,
,,,,,,,,,,,,1,0,1,0,60,0,60,0,,,,,,,60,,,0.2,2036.915553611845,X,d,go,d,1,0.47139566441910574,,,,,,,,,,,,,,,,,,82,001,22,w,Psychologie,2023-01-30_15h30.07.706,00_bat_bachelor,2022.2.4,60.07946541335914,
,,,,,,,,,,,,1,0,1,0,61,0,61,0,,,,,,,61,,,0.2,2037.699238590987,X,None,nogo,l,0,0.35859959054141655,,,,,,,,,,,,,,,,,,82,001,22,w,Psychologie,2023-01-30_15h30.07.706,00_bat_bachelor,2022.2.4,60.07946541335914,
,,,,,,,,,,,,1,0,1,0,62,0,62,0,,,,,,,62,,,0.2,2038.366492088211,Y,l,go,l,1,0.6199329678347567,,,,,,,,,,,,,,,,,,82,001,22,w,Psychologie,2023-01-30_15h30.07.706,00_bat_bachelor,2022.2.4,60.07946541335914,
,,,,,,,,,,,,1,0,1,0,63,0,63,0,,,,,,,63,,,0.2,2039.3004273471124,X,d,go,d,1,0.5499709995019657,,,,,,,,,,,,,,,,,,82,001,22,w,Psychologie,2023-01-30_15h30.07.706,00_bat_bachelor,2022.2.4,60.07946541335914,
,,,,,,,,,,,,1,0,1,0,64,0,64,0,,,,,,,64,,,0.2,2040.1510973133481,Y,l,go,l,1,0.564550449988019,,,,,,,,,,,,,,,,,,82,001,22,w,Psychologie,2023-01-30_15h30.07.706,00_bat_bachelor,2022.2.4,60.07946541335914,
,,,,,,,,,,,,1,0,1,0,65,0,65,0,,,,,,,65,,,0.2,2041.0187443151299,Y,None,nogo,None,1,,2041.8190688739633,,,,,,,,,,,,,,,,,82,001,22,w,Psychologie,2023-01-30_15h30.07.706,00_bat_bachelor,2022.2.4,60.07946541335914,
,,,,,,,,,,,,1,0,1,0,66,0,66,0,,,,,,,66,,,0.2,2042.019528803019,X,d,go,d,1,0.423461902737472,,,,,,,,,,,,,,,,,,82,001,22,w,Psychologie,2023-01-30_15h30.07.706,00_bat_bachelor,2022.2.4,60.07946541335914,
,,,,,,,,,,,,1,0,1,0,67,0,67,0,,,,,,,67,,,0.2,2042.7533842555495,Y,l,go,l,1,0.5044420956292015,,,,,,,,,,,,,,,,,,82,001,22,w,Psychologie,2023-01-30_15h30.07.706,00_bat_bachelor,2022.2.4,60.07946541335914,
,,,,,,,,,,,,1,0,1,0,68,0,68,0,,,,,,,68,,,0.2,2043.5703963942651,Y,None,nogo,None,1,,,,,,,,,,,,,,,,,,,82,001,22,w,Psychologie,2023-01-30_15h30.07.706,00_bat_bachelor,2022.2.4,60.07946541335914,
,,,,,,,,,,,,1,0,1,0,69,0,69,0,,,,,,,69,,,0.2,2044.5714645196203,X,d,go,d,1,0.4148339904822933,,,,,,,,,,,,,,,,,,82,001,22,w,Psychologie,2023-01-30_15h30.07.706,00_bat_bachelor,2022.2.4,60.07946541335914,
,,,,,,,,,,,,1,0,1,0,70,0,70,0,,,,,,,70,,,0.2,2045.2893106979318,Y,l,go,l,1,0.44922054810012924,,,,,,,,,,,,,,,,,,82,001,22,w,Psychologie,2023-01-30_15h30.07.706,00_bat_bachelor,2022.2.4,60.07946541335914,
,,,,,,,,,,,,1,0,1,0,71,0,71,0,,,,,,,71,,,0.2,2046.0397557905671,X,d,go,d,1,0.4494304883082805,,,,,,,,,,,,,,,,,,82,001,22,w,Psychologie,2023-01-30_15h30.07.706,00_bat_bachelor,2022.2.4,60.07946541335914,
,,,,,,,,,,,,1,0,1,0,72,0,72,0,,,,,,,72,,,0.2,2046.823842225811,Y,l,go,l,1,0.4669471623165009,,,,,,,,,,,,,,,,,,82,001,22,w,Psychologie,2023-01-30_15h30.07.706,00_bat_bachelor,2022.2.4,60.07946541335914,
,,,,,,,,,,,,1,0,1,0,73,0,73,0,,,,,,,73,,,0.2,2047.6075378716596,X,d,go,d,1,0.41793509342096513,,,,,,,,,,,,,,,,,,82,001,22,w,Psychologie,2023-01-30_15h30.07.706,00_bat_bachelor,2022.2.4,60.07946541335914,
,,,,,,,,,,,,1,0,1,0,74,0,74,0,,,,,,,74,,,0.2,2048.3583204201495,Y,l,go,l,1,0.4187273389143229,,,,,,,,,,,,,,,,,,82,001,22,w,Psychologie,2023-01-30_15h30.07.706,00_bat_bachelor,2022.2.4,60.07946541335914,
,,,,,,,,,,,,1,0,1,0,75,0,75,0,,,,,,,75,,,0.2,2049.1089754529967,Y,None,nogo,None,1,,2049.9095831644445,,,,,,,,,,,,,,,,,82,001,22,w,Psychologie,2023-01-30_15h30.07.706,00_bat_bachelor,2022.2.4,60.07946541335914,
,,,,,,,,,,,,1,0,1,0,76,0,76,0,,,,,,,76,,,0.2,2050.109615940328,X,d,go,d,1,0.2686462719357223,,,,,,,,,,,,,,,,,,82,001,22,w,Psychologie,2023-01-30_15h30.07.706,00_bat_bachelor,2022.2.4,60.07946541335914,
,,,,,,,,,,,,1,0,1,0,77,0,77,0,,,,,,,77,,,0.2,2050.7100871179136,Y,l,go,l,1,0.41920103772645234,,,,,,,,,,,,,,,,,,82,001,22,w,Psychologie,2023-01-30_15h30.07.706,00_bat_bachelor,2022.2.4,60.07946541335914,
,,,,,,,,,,,,1,0,1,0,78,0,78,0,,,,,,,78,,,0.2,2051.460414876761,Y,None,nogo,None,1,,2052.2608058600963,,,,,,,,,,,,,,,,,82,001,22,w,Psychologie,2023-01-30_15h30.07.706,00_bat_bachelor,2022.2.4,60.07946541335914,
,,,,,,,,,,,,1,0,1,0,79,0,79,0,,,,,,,79,,,0.2,2052.4611406977565,X,d,go,d,1,0.26907100085372804,,,,,,,,,,,,,,,,,,82,001,22,w,Psychologie,2023-01-30_15h30.07.706,00_bat_bachelor,2022.2.4,60.07946541335914,
,,,,,,,,,,,,1,0,1,0,80,0,80,0,,,,,,,80,,,0.2,2053.045047932308,Y,l,go,l,1,0.48557753760906053,,,,,,,,,,,,,,,,,,82,001,22,w,Psychologie,2023-01-30_15h30.07.706,00_bat_bachelor,2022.2.4,60.07946541335914,
,,,,,,,,,,,,1,0,1,0,81,0,81,0,,,,,,,81,,,0.2,2053.845128126555,X,d,go,None,0,,2054.6457203227947,,,,,,,,,,,,,,,,,82,001,22,w,Psychologie,2023-01-30_15h30.07.706,00_bat_bachelor,2022.2.4,60.07946541335914,
,,,,,,,,,,,,1,0,1,0,82,0,82,0,,,,,,,82,,,0.2,2054.846134675914,Y,l,go,None,0,,2055.646793781503,,,,,,,,,,,,,,,,,82,001,22,w,Psychologie,2023-01-30_15h30.07.706,00_bat_bachelor,2022.2.4,60.07946541335914,
,,,,,,,,,,,,1,0,1,0,83,0,83,0,,,,,,,83,,,0.2,2055.8468168603795,X,d,go,d,1,0.38704915544076357,,,,,,,,,,,,,,,,,,82,001,22,w,Psychologie,2023-01-30_15h30.07.706,00_bat_bachelor,2022.2.4,60.07946541335914,
,,,,,,,,,,,,1,0,1,0,84,0,84,0,,,,,,,84,,,0.2,2056.547347092739,Y,l,go,l,1,0.2959365596070711,,,,,,,,,,,,,,,,,,82,001,22,w,Psychologie,2023-01-30_15h30.07.706,00_bat_bachelor,2022.2.4,60.07946541335914,
,,,,,,,,,,,,1,0,1,0,85,0,85,0,,,,,,,85,,,0.2,2057.147938513215,X,d,go,d,1,0.3185897383846168,,,,,,,,,,,,,,,,,,82,001,22,w,Psychologie,2023-01-30_15h30.07.706,00_bat_bachelor,2022.2.4,60.07946541335914,
,,,,,,,,,,,,1,0,1,0,86,0,86,0,,,,,,,86,,,0.2,2057.781616122633,X,None,nogo,l,0,0.3420346778075327,,,,,,,,,,,,,,,,,,82,001,22,w,Psychologie,2023-01-30_15h30.07.706,00_bat_bachelor,2022.2.4,60.07946541335914,
,,,,,,,,,,,,1,0,1,0,87,0,87,0,,,,,,,87,,,0.2,2058.432194161236,X,None,nogo,None,1,,2059.2327223572247,,,,,,,,,,,,,,,,,82,001,22,w,Psychologie,2023-01-30_15h30.07.706,00_bat_bachelor,2022.2.4,60.07946541335914,
,,,,,,,,,,,,1,0,1,0,88,0,88,0,,,,,,,88,,,0.2,2059.4329316186413,Y,l,go,d,0,0.35366235926994705,,,,,,,,,,,,,,,,,,82,001,22,w,Psychologie,2023-01-30_15h30.07.706,00_bat_bachelor,2022.2.4,60.07946541335914,
,,,,,,,,,,,,1,0,1,0,89,0,89,0,,,,,,,89,,,0.2,2060.1000852366924,X,d,go,None,0,,2060.9006415540025,,,,,,,,,,,,,,,,,82,001,22,w,Psychologie,2023-01-30_15h30.07.706,00_bat_bachelor,2022.2.4,60.07946541335914,
,,,,,,,,,,,,1,0,1,0,90,0,90,0,,,,,,,90,,,0.2,2061.1009511794473,X,None,nogo,l,0,0.06226825931662461,,,,,,,,,,,,,,,,,,82,001,22,w,Psychologie,2023-01-30_15h30.07.706,00_bat_bachelor,2022.2.4,60.07946541335914,
,,,,,,,,,,,,1,0,1,0,91,0,91,0,,,,,,,91,,,0.2,2061.4677016929018,Y,l,go,None,0,,2062.268380677353,,,,,,,,,,,,,,,,,82,001,22,w,Psychologie,2023-01-30_15h30.07.706,00_bat_bachelor,2022.2.4,60.07946541335914,
,,,,,,,,,,,,1,0,1,0,92,0,92,0,,,,,,,92,,,0.2,2062.468419271445,X,d,go,d,1,0.32627704092737986,,,,,,,,,,,,,,,,,,82,001,22,w,Psychologie,2023-01-30_15h30.07.706,00_bat_bachelor,2022.2.4,60.07946541335914,
,,,,,,,,,,,,1,0,1,0,93,0,93,0,,,,,,,93,,,0.2,2063.1023286393356,X,None,nogo,None,1,,,,,,,,,,,,,,,,,,,82,001,22,w,Psychologie,2023-01-30_15h30.07.706,00_bat_bachelor,2022.2.4,60.07946541335914,
,,,,,,,,,,,,1,0,1,0,94,0,94,0,,,,,,,94,,,0.2,2064.1029856115783,Y,l,go,l,1,0.3547804242152779,,,,,,,,,,,,,,,,,,82,001,22,w,Psychologie,2023-01-30_15h30.07.706,00_bat_bachelor,2022.2.4,60.07946541335914,
,,,,,,,,,,,,1,0,1,0,95,0,95,0,,,,,,,95,,,0.2,2064.77009898705,X,d,go,d,1,0.4084310565558553,,,,,,,,,,,,,,,,,,82,001,22,w,Psychologie,2023-01-30_15h30.07.706,00_bat_bachelor,2022.2.4,60.07946541335914,
,,,,,,,,,,,,1,0,1,0,96,0,96,0,,,,,,,96,,,0.2,2065.4875437092596,Y,l,go,l,1,0.4909642251695914,,,,,,,,,,,,,,,,,,82,001,22,w,Psychologie,2023-01-30_15h30.07.706,00_bat_bachelor,2022.2.4,60.07946541335914,
,,,,,,,,,,,,1,0,1,0,97,0,97,0,,,,,,,97,,,0.2,2066.2879856018844,X,d,go,d,1,0.42689415847416967,,,,,,,,,,,,,,,,,,82,001,22,w,Psychologie,2023-01-30_15h30.07.706,00_bat_bachelor,2022.2.4,60.07946541335914,
,,,,,,,,,,,,1,0,1,0,98,0,98,0,,,,,,,98,,,0.2,2067.022027236955,X,None,nogo,None,1,,,,,,,,,,,,,,,,,,,82,001,22,w,Psychologie,2023-01-30_15h30.07.706,00_bat_bachelor,2022.2.4,60.07946541335914,
,,,,,,,,,,,,1,0,1,0,99,0,99,0,,,,,,,99,,,0.2,2068.0228059066394,Y,l,go,d,0,0.37188739965858986,,,,,,,,,,,,,,,,,,82,001,22,w,Psychologie,2023-01-30_15h30.07.706,00_bat_bachelor,2022.2.4,60.07946541335914,
,,,,,,,,,,,,1,0,1,0,100,0,100,0,,,,,,,100,,,0.2,2068.7066446803183,X,d,go,l,0,0.07250248083437327,,,,,,,,,,,,,,,,,,82,001,22,w,Psychologie,2023-01-30_15h30.07.706,00_bat_bachelor,2022.2.4,60.07946541335914,
,,,,,,,,,,,,1,0,1,0,101,0,101,0,,,,,,,101,,,0.2,2069.0903436231492,X,None,nogo,None,1,,,,,,,,,,,,,,,,,,,82,001,22,w,Psychologie,2023-01-30_15h30.07.706,00_bat_bachelor,2022.2.4,60.07946541335914,
,,,,,,,,,,,,1,0,1,0,102,0,102,0,,,,,,,102,,,0.2,2070.0910922321164,Y,l,go,None,0,,2070.891496306409,,,,,,,,,,,,,,,,,82,001,22,w,Psychologie,2023-01-30_15h30.07.706,00_bat_bachelor,2022.2.4,60.07946541335914,
,,,,,,,,,,,,1,0,1,0,103,0,103,0,,,,,,,103,,,0.2,2071.091710416331,X,d,go,d,1,0.23105485340056475,,,,,,,,,,,,,,,,,,82,001,22,w,Psychologie,2023-01-30_15h30.07.706,00_bat_bachelor,2022.2.4,60.07946541335914,
,,,,,,,,,,,,1,0,1,0,104,0,104,0,,,,,,,104,,,0.2,2071.625572365854,X,None,nogo,l,0,0.41727521207212703,,,,,,,,,,,,,,,,,,82,001,22,w,Psychologie,2023-01-30_15h30.07.706,00_bat_bachelor,2022.2.4,60.07946541335914,
,,,,,,,,,,,,1,0,1,0,105,0,105,0,,,,,,,105,,,0.2,2072.3425404801565,X,None,nogo,None,1,,,,,,,,,,,,,,,,,,,82,001,22,w,Psychologie,2023-01-30_15h30.07.706,00_bat_bachelor,2022.2.4,60.07946541335914,
,,,,,,,,,,,,1,0,1,0,106,0,106,0,,,,,,,106,,,0.2,2073.343541696162,Y,l,go,d,0,0.23441195732812048,,,,,,,,,,,,,,,,,,82,001,22,w,Psychologie,2023-01-30_15h30.07.706,00_bat_bachelor,2022.2.4,60.07946541335914,
,,,,,,,,,,,,1,0,1,0,107,0,107,0,,,,,,,107,,,0.2,2073.8939898918397,X,d,go,None,0,,,,,,,,,,,,,,,,,,,82,001,22,w,Psychologie,2023-01-30_15h30.07.706,00_bat_bachelor,2022.2.4,60.07946541335914,
,,,,,,,,,,,,1,0,1,0,108,0,108,0,,,,,,,108,,,0.2,2074.894625530669,Y,l,go,l,1,0.2520891168023809,,,,,,,,,,,,,,,,,,82,001,22,w,Psychologie,2023-01-30_15h30.07.706,00_bat_bachelor,2022.2.4,60.07946541335914,
,,,,,,,,,,,,1,0,1,0,109,0,109,0,,,,,,,109,,,0.2,2075.461670639208,Y,None,nogo,None,1,,,,,,,,,,,,,,,,,,,82,001,22,w,Psychologie,2023-01-30_15h30.07.706,00_bat_bachelor,2022.2.4,60.07946541335914,
,,,,,,,,,,,,1,0,1,0,110,0,110,0,,,,,,,110,,,0.2,2076.4625104000406,X,d,go,d,1,0.2843001508335874,,,,,,,,,,,,,,,,,,82,001,22,w,Psychologie,2023-01-30_15h30.07.706,00_bat_bachelor,2022.2.4,60.07946541335914,
,,,,,,,,,,,,1,0,1,0,111,0,111,0,,,,,,,111,,,0.2,2077.0629078803686,Y,l,go,l,1,0.4828744968181127,,,,,,,,,,,,,,,,,,82,001,22,w,Psychologie,2023-01-30_15h30.07.706,00_bat_bachelor,2022.2.4,60.07946541335914,
,,,,,,,,,,,,1,0,1,0,112,0,112,0,,,,,,,112,,,0.2,2077.8470277702872,Y,None,nogo,None,1,,,,,,,,,,,,,,,,,,,82,001,22,w,Psychologie,2023-01-30_15h30.07.706,00_bat_bachelor,2022.2.4,60.07946541335914,
,,,,,,,,,,,,1,0,1,0,113,0,113,0,,,,,,,113,,,0.2,2078.847619287735,X,d,go,d,1,0.28309869163058465,,,,,,,,,,,,,,,,,,82,001,22,w,Psychologie,2023-01-30_15h30.07.706,00_bat_bachelor,2022.2.4,60.07946541335914,
,,,,,,,,,,,,1,0,1,0,114,0,114,0,,,,,,,114,,,0.2,2079.431620098403,Y,l,go,l,1,0.4188660061226983,,,,,,,,,,,,,,,,,,82,001,22,w,Psychologie,2023-01-30_15h30.07.706,00_bat_bachelor,2022.2.4,60.07946541335914,
,,,,,,,,,,,,1,0,1,0,115,0,115,0,,,,,,,115,,,0.2,2080.1653136109126,Y,None,nogo,None,1,,,,,,,,,,,,,,,,,,,82,001,22,w,Psychologie,2023-01-30_15h30.07.706,00_bat_bachelor,2022.2.4,60.07946541335914,
,,,,,,,,,,,,1,0,1,0,116,0,116,0,,,,,,,116,,,0.2,2081.166241614512,X,d,go,d,1,0.3652546466619242,,,,,,,,,,,,,,,,,,82,001,22,w,Psychologie,2023-01-30_15h30.07.706,00_bat_bachelor,2022.2.4,60.07946541335914,
,,,,,,,,,,,,1,0,1,0,117,0,117,0,,,,,,,117,,,0.2,2081.833465051015,Y,l,go,l,1,0.4177188501562341,,,,,,,,,,,,,,,,,,82,001,22,w,Psychologie,2023-01-30_15h30.07.706,00_bat_bachelor,2022.2.4,60.07946541335914,
,,,,,,,,,,,,1,0,1,0,118,0,118,0,,,,,,,118,,,0.2,2082.567278806415,X,d,go,None,0,,2083.3677173050855,,,,,,,,,,,,,,,,,82,001,22,w,Psychologie,2023-01-30_15h30.07.706,00_bat_bachelor,2022.2.4,60.07946541335914,
,,,,,,,,,,,,1,0,1,0,119,0,119,0,,,,,,,119,,,0.2,2083.568068627661,X,None,nogo,l,0,0.3955718551624159,,,,,,,,,,,,,,,,,,82,001,22,w,Psychologie,2023-01-30_15h30.07.706,00_bat_bachelor,2022.2.4,60.07946541335914,
,,,,,,,,,,,,1,0,1,0,120,0,120,0,,,,,,,120,,,0.2,2084.268460677664,Y,l,go,None,0,,2085.0692395412916,,,,,,,,,,,,,,,,,82,001,22,w,Psychologie,2023-01-30_15h30.07.706,00_bat_bachelor,2022.2.4,60.07946541335914,
,,,,,,,,,,,,1,0,1,0,121,0,121,0,,,,,,,121,,,0.2,2085.2693862570122,X,d,go,d,1,0.2613090313570865,,,,,,,,,,,,,,,,,,82,001,22,w,Psychologie,2023-01-30_15h30.07.706,00_bat_bachelor,2022.2.4,60.07946541335914,
,,,,,,,,,,,,1,0,1,0,122,0,122,0,,,,,,,122,,,0.2,2085.836481789989,Y,l,go,l,1,0.4948279977325001,,,,,,,,,,,,,,,,,,82,001,22,w,Psychologie,2023-01-30_15h30.07.706,00_bat_bachelor,2022.2.4,60.07946541335914,
,,,,,,,,,,,,1,0,1,0,123,0,123,0,,,,,,,123,,,0.2,2086.6370599255642,X,d,go,d,1,0.5102743606767035,,,,,,,,,,,,,,,,,,82,001,22,w,Psychologie,2023-01-30_15h30.07.706,00_bat_bachelor,2022.2.4,60.07946541335914,
,,,,,,,,,,,,1,0,1,0,124,0,124,0,,,,,,,124,,,0.2,2087.454381398813,X,None,nogo,None,1,,2088.2550269285894,,,,,,,,,,,,,,,,,82,001,22,w,Psychologie,2023-01-30_15h30.07.706,00_bat_bachelor,2022.2.4,60.07946541335914,
,,,,,,,,,,,,1,0,1,0,125,0,125,0,,,,,,,125,,,0.2,2088.454942370685,Y,l,go,l,1,0.45134031389898155,,,,,,,,,,,,,,,,,,82,001,22,w,Psychologie,2023-01-30_15h30.07.706,00_bat_bachelor,2022.2.4,60.07946541335914,
,,,,,,,,,,,,1,0,1,0,126,0,126,0,,,,,,,126,,,0.2,2089.2224493476824,X,d,go,d,1,0.564476267882128,,,,,,,,,,,,,,,,,,82,001,22,w,Psychologie,2023-01-30_15h30.07.706,00_bat_bachelor,2022.2.4,60.07946541335914,
,,,,,,,,,,,,1,0,1,0,127,0,127,0,,,,,,,127,,,0.2,2090.0897719845707,X,None,nogo,None,1,,,,,,,,,,,,,,,,,,,82,001,22,w,Psychologie,2023-01-30_15h30.07.706,00_bat_bachelor,2022.2.4,60.07946541335914,
,,,,,,,,,,,,1,0,1,0,128,0,128,0,,,,,,,128,,,0.2,2091.090583624082,Y,l,go,l,1,0.36008517206209945,,,,,,,,,,,,,,,,,,82,001,22,w,Psychologie,2023-01-30_15h30.07.706,00_bat_bachelor,2022.2.4,60.07946541335914,
,,,,,,,,,,,,1,0,1,0,129,0,129,0,,,,,,,129,,,0.2,2091.7575200291685,X,d,go,d,1,0.5412596929818392,,,,,,,,,,,,,,,,,,82,001,22,w,Psychologie,2023-01-30_15h30.07.706,00_bat_bachelor,2022.2.4,60.07946541335914,
,,,,,,,,,,,,1,0,1,0,130,0,130,0,,,,,,,130,,,0.2,2092.6083921780046,Y,l,go,l,1,0.5702959268201084,,,,,,,,,,,,,,,,,,82,001,22,w,Psychologie,2023-01-30_15h30.07.706,00_bat_bachelor,2022.2.4,60.07946541335914,
,,,,,,,,,,,,1,0,1,0,131,0,131,0,,,,,,,131,,,0.2,2093.492317545959,X,d,go,d,1,0.37433201520252624,,,,,,,,,,,,,,,,,,82,001,22,w,Psychologie,2023-01-30_15h30.07.706,00_bat_bachelor,2022.2.4,60.07946541335914,
,,,,,,,,,,,,1,0,1,0,132,0,132,0,,,,,,,132,,,0.2,2094.1761994713197,X,None,nogo,d,0,0.6667724222425022,,,,,,,,,,,,,,,,,,82,001,22,w,Psychologie,2023-01-30_15h30.07.706,00_bat_bachelor,2022.2.4,60.07946541335914,
,,,,,,,,,,,,1,0,1,0,133,0,133,0,,,,,,,133,,,0.2,2095.1434264957134,Y,l,go,None,0,,2095.9442402685672,,,,,,,,,,,,,,,,,82,001,22,w,Psychologie,2023-01-30_15h30.07.706,00_bat_bachelor,2022.2.4,60.07946541335914,
,,,,,,,,,,,,1,0,1,0,134,0,134,0,,,,,,,134,,,0.2,2096.1442391049277,X,d,go,None,0,,2096.944945725849,,,,,,,,,,,,,,,,,82,001,22,w,Psychologie,2023-01-30_15h30.07.706,00_bat_bachelor,2022.2.4,60.07946541335914,
,,,,,,,,,,,,1,0,1,0,135,0,135,0,,,,,,,135,,,0.2,2097.145116684089,X,None,nogo,None,1,,2097.9457210015826,,,,,,,,,,,,,,,,,82,001,22,w,Psychologie,2023-01-30_15h30.07.706,00_bat_bachelor,2022.2.4,60.07946541335914,
,,,,,,,,,,,,1,0,1,0,136,0,136,0,,,,,,,136,,,0.2,2098.1459026265293,Y,l,go,d,0,0.18464061276245047,,,,,,,,,,,,,,,,,,82,001,22,w,Psychologie,2023-01-30_15h30.07.706,00_bat_bachelor,2022.2.4,60.07946541335914,
,,,,,,,,,,,,1,0,1,0,137,0,137,0,,,,,,,137,,,0.2,2098.646100930331,X,d,go,None,0,,2099.446695550818,,,,,,,,,,,,,,,,,82,001,22,w,Psychologie,2023-01-30_15h30.07.706,00_bat_bachelor,2022.2.4,60.07946541335914,
,,,,,,,,,,,,1,0,1,0,138,0,138,0,,,,,,,138,,,0.2,2099.6470851765735,Y,l,go,l,1,0.26760578305038507,,,,,,,,,,,,,,,,,,82,001,22,w,Psychologie,2023-01-30_15h30.07.706,00_bat_bachelor,2022.2.4,60.07946541335914,
,,,,,,,,,,,,1,0,1,0,139,0,139,0,,,,,,,139,,,0.2,2100.2306636825742,X,d,go,d,1,0.35657097661169246,,,,,,,,,,,,,,,,,,82,001,22,w,Psychologie,2023-01-30_15h30.07.706,00_bat_bachelor,2022.2.4,60.07946541335914,
,,,,,,,,,,,,1,0,1,0,140,0,140,0,,,,,,,140,,,0.2,2100.8978488158973,Y,l,go,None,0,,,,,,,,,,,,,,,,,,,82,001,22,w,Psychologie,2023-01-30_15h30.07.706,00_bat_bachelor,2022.2.4,60.07946541335914,
,,,,,,,,,,,,1,0,1,0,141,0,141,0,,,,,,,141,,,0.2,2101.89875451638,Y,None,nogo,None,1,,2102.6992046514606,,,,,,,,,,,,,,,,,82,001,22,w,Psychologie,2023-01-30_15h30.07.706,00_bat_bachelor,2022.2.4,60.07946541335914,
,,,,,,,,,,,,1,0,1,0,142,0,142,0,,,,,,,142,,,0.2,2102.8994735494707,X,d,go,d,1,0.296484925373079,,,,,,,,,,,,,,,,,,82,001,22,w,Psychologie,2023-01-30_15h30.07.706,00_bat_bachelor,2022.2.4,60.07946541335914,
,,,,,,,,,,,,1,0,1,0,143,0,143,0,,,,,,,143,,,0.2,2103.4998186659614,Y,l,go,l,1,0.5269265464776254,,,,,,,,,,,,,,,,,,82,001,22,w,Psychologie,2023-01-30_15h30.07.706,00_bat_bachelor,2022.2.4,60.07946541335914,
,,,,,,,,,,,,1,0,1,0,144,0,144,0,,,,,,,144,,,0.2,2104.3337811734527,X,d,go,d,1,0.4924279884216958,,,,,,,,,,,,,,,,,,82,001,22,w,Psychologie,2023-01-30_15h30.07.706,00_bat_bachelor,2022.2.4,60.07946541335914,
,,,,,,,,,,,,1,0,1,0,145,0,145,0,,,,,,,145,,,0.2,2105.134401006162,Y,l,go,None,0,,2105.935050899592,,,,,,,,,,,,,,,,,82,001,22,w,Psychologie,2023-01-30_15h30.07.706,00_bat_bachelor,2022.2.4,60.07946541335914,
,,,,,,,,,,,,1,0,1,0,146,0,146,0,,,,,,,146,,,0.2,2106.135405616118,Y,None,nogo,None,1,,2106.935941569711,,,,,,,,,,,,,,,,,82,001,22,w,Psychologie,2023-01-30_15h30.07.706,00_bat_bachelor,2022.2.4,60.07946541335914,
,,,,,,,,,,,,1,0,1,0,147,0,147,0,,,,,,,147,,,0.2,2107.1359670728416,X,d,go,d,1,0.378747062630282,,,,,,,,,,,,,,,,,,82,001,22,w,Psychologie,2023-01-30_15h30.07.706,00_bat_bachelor,2022.2.4,60.07946541335914,
,,,,,,,,,,,,1,0,1,0,148,0,148,0,,,,,,,148,,,0.2,2107.8197806343014,Y,l,go,l,1,0.44732187407134916,,,,,,,,,,,,,,,,,,82,001,22,w,Psychologie,2023-01-30_15h30.07.706,00_bat_bachelor,2022.2.4,60.07946541335914,
,,,,,,,,,,,,1,0,1,0,149,0,149,0,,,,,,,149,,,0.2,2108.570425970138,X,d,go,None,0,,,,,,,,,,,,,,,,,,,82,001,22,w,Psychologie,2023-01-30_15h30.07.706,00_bat_bachelor,2022.2.4,60.07946541335914,
,,,,,,,,,,,,1,0,1,0,150,0,150,0,,,,,,,150,,,0.2,2109.571152760833,X,None,nogo,d,0,0.5672491271252511,,,,,,,,,,,,,,,,,,82,001,22,w,Psychologie,2023-01-30_15h30.07.706,00_bat_bachelor,2022.2.4,60.07946541335914,
,,,,,,,,,,,,1,0,1,0,151,0,151,0,,,,,,,151,,,0.2,2110.4385015796433,X,None,nogo,None,1,,,,,,,,,,,,,,,,,,,82,001,22,w,Psychologie,2023-01-30_15h30.07.706,00_bat_bachelor,2022.2.4,60.07946541335914,
,,,,,,,,,,,,1,0,1,0,152,0,152,0,,,,,,,152,,,0.2,2111.4394693409704,Y,l,go,l,1,0.5716409017331898,,,,,,,,,,,,,,,,,,82,001,22,w,Psychologie,2023-01-30_15h30.07.706,00_bat_bachelor,2022.2.4,60.07946541335914,
,,,,,,,,,,,,1,0,1,0,153,0,153,0,,,,,,,153,,,0.2,2112.3232361628543,X,d,go,d,1,0.4867348754305567,,,,,,,,,,,,,,,,,,82,001,22,w,Psychologie,2023-01-30_15h30.07.706,00_bat_bachelor,2022.2.4,60.07946541335914,
,,,,,,,,,,,,1,0,1,0,154,0,154,0,,,,,,,154,,,0.2,2113.1238584198145,Y,l,go,l,1,0.3908266246362473,,,,,,,,,,,,,,,,,,82,001,22,w,Psychologie,2023-01-30_15h30.07.706,00_bat_bachelor,2022.2.4,60.07946541335914,
,,,,,,,,,,,,1,0,1,0,155,0,155,0,,,,,,,155,,,0.2,2113.8244250159514,X,d,go,d,1,0.411108885124122,,,,,,,,,,,,,,,,,,82,001,22,w,Psychologie,2023-01-30_15h30.07.706,00_bat_bachelor,2022.2.4,60.07946541335914,
,,,,,,,,,,,,1,0,1,0,156,0,156,0,,,,,,,156,,,0.2,2114.541941496016,Y,l,go,l,1,0.5084552021035051,,,,,,,,,,,,,,,,,,82,001,22,w,Psychologie,2023-01-30_15h30.07.706,00_bat_bachelor,2022.2.4,60.07946541335914,
,,,,,,,,,,,,1,0,1,0,157,0,157,0,,,,,,,157,,,0.2,2115.3589119375974,X,d,go,d,1,0.4761205312315724,,,,,,,,,,,,,,,,,,82,001,22,w,Psychologie,2023-01-30_15h30.07.706,00_bat_bachelor,2022.2.4,60.07946541335914,
,,,,,,,,,,,,1,0,1,0,158,0,158,0,,,,,,,158,,,0.2,2116.1430454033252,X,None,nogo,None,1,,2116.9434475382186,,,,,,,,,,,,,,,,,82,001,22,w,Psychologie,2023-01-30_15h30.07.706,00_bat_bachelor,2022.2.4,60.07946541335914,
,,,,,,,,,,,,1,0,1,0,159,0,159,0,,,,,,,159,,,0.2,2117.1436262540665,Y,l,go,l,1,0.5145929228820023,,,,,,,,,,,,,,,,,,82,001,22,w,Psychologie,2023-01-30_15h30.07.706,00_bat_bachelor,2022.2.4,60.07946541335914,
,,,,,,,,,,,,1,0,1,0,160,0,160,0,,,,,,,160,,,0.2,2117.9609205756897,X,d,go,d,1,0.6578506906698749,,,,,,,,,,,,,,,,,,82,001,22,w,Psychologie,2023-01-30_15h30.07.706,00_bat_bachelor,2022.2.4,60.07946541335914,
,,,,,,,,,,,,1,0,1,0,161,0,161,0,,,,,,,161,,,0.2,2118.928527722772,X,None,nogo,None,1,,,,,,,,,,,,,,,,,,,82,001,22,w,Psychologie,2023-01-30_15h30.07.706,00_bat_bachelor,2022.2.4,60.07946541335914,
,,,,,,,,,,,,1,0,1,0,162,0,162,0,,,,,,,162,,,0.2,2119.9292069981348,Y,l,go,l,1,0.4176902439867263,,,,,,,,,,,,,,,,,,82,001,22,w,Psychologie,2023-01-30_15h30.07.706,00_bat_bachelor,2022.2.4,60.07946541335914,
,,,,,,,,,,,,1,0,1,0,163,0,163,0,,,,,,,163,,,0.2,2120.662951904782,X,d,go,d,1,0.49925565126977745,,,,,,,,,,,,,,,,,,82,001,22,w,Psychologie,2023-01-30_15h30.07.706,00_bat_bachelor,2022.2.4,60.07946541335914,
,,,,,,,,,,,,1,0,1,0,164,0,164,0,,,,,,,164,,,0.2,2121.463891738731,X,None,nogo,None,1,,2122.2643753284865,,,,,,,,,,,,,,,,,82,001,22,w,Psychologie,2023-01-30_15h30.07.706,00_bat_bachelor,2022.2.4,60.07946541335914,
,,,,,,,,,,,,1,0,1,0,165,0,165,0,,,,,,,165,,,0.2,2122.464517195702,Y,l,go,l,1,0.4584753718772845,,,,,,,,,,,,,,,,,,82,001,22,w,Psychologie,2023-01-30_15h30.07.706,00_bat_bachelor,2022.2.4,60.07946541335914,
,,,,,,,,,,,,1,0,1,0,166,0,166,0,,,,,,,166,,,0.2,2123.23167992894,X,d,go,d,1,0.3320244571623334,,,,,,,,,,,,,,,,,,82,001,22,w,Psychologie,2023-01-30_15h30.07.706,00_bat_bachelor,2022.2.4,60.07946541335914,
,,,,,,,,,,,,1,0,1,0,167,0,167,0,,,,,,,167,,,0.2,2123.8656115999474,X,None,nogo,None,1,,2124.666287675296,,,,,,,,,,,,,,,,,82,001,22,w,Psychologie,2023-01-30_15h30.07.706,00_bat_bachelor,2022.2.4,60.07946541335914,
,,,,,,,,,,,,1,0,1,0,168,0,168,0,,,,,,,168,,,0.2,2124.8661871173317,Y,l,go,l,1,0.32957111431096564,,,,,,,,,,,,,,,,,,82,001,22,w,Psychologie,2023-01-30_15h30.07.706,00_bat_bachelor,2022.2.4,60.07946541335914,
,,,,,,,,,,,,1,0,1,0,169,0,169,0,,,,,,,169,,,0.2,2125.500000484848,X,d,go,d,1,0.5101827239595877,,,,,,,,,,,,,,,,,,82,001,22,w,Psychologie,2023-01-30_15h30.07.706,00_bat_bachelor,2022.2.4,60.07946541335914,
,,,,,,,,,,,,1,0,1,0,170,0,170,0,,,,,,,170,,,0.2,2126.317449958595,X,None,nogo,None,1,,2127.1181260339436,,,,,,,,,,,,,,,,,82,001,22,w,Psychologie,2023-01-30_15h30.07.706,00_bat_bachelor,2022.2.4,60.07946541335914,
,,,,,,,,,,,,1,0,1,0,171,0,171,0,,,,,,,171,,,0.2,2127.318041476039,Y,l,go,l,1,0.4524448030315398,,,,,,,,,,,,,,,,,,82,001,22,w,Psychologie,2023-01-30_15h30.07.706,00_bat_bachelor,2022.2.4,60.07946541335914,
,,,,,,,,,,,,1,0,1,0,172,0,172,0,,,,,,,172,,,0.2,2128.0853540280405,X,d,go,d,1,0.3100398870410572,,,,,,,,,,,,,,,,,,82,001,22,w,Psychologie,2023-01-30_15h30.07.706,00_bat_bachelor,2022.2.4,60.07946541335914,
,,,,,,,,,,,,1,0,1,0,173,0,173,0,,,,,,,173,,,0.2,2128.702655331512,X,None,nogo,None,1,,,,,,,,,,,,,,,,,,,82,001,22,w,Psychologie,2023-01-30_15h30.07.706,00_bat_bachelor,2022.2.4,60.07946541335914,
,,,,,,,,,,,,1,0,1,0,174,0,174,0,,,,,,,174,,,0.2,2129.703423819341,Y,l,go,l,1,0.3404283685449627,,,,,,,,,,,,,,,,,,82,001,22,w,Psychologie,2023-01-30_15h30.07.706,00_bat_bachelor,2022.2.4,60.07946541335914,
,,,,,,,,,,,,1,0,1,0,175,0,175,0,,,,,,,175,,,0.2,2130.35352718944,X,d,go,d,1,0.4414149420699687,,,,,,,,,,,,,,,,,,82,001,22,w,Psychologie,2023-01-30_15h30.07.706,00_bat_bachelor,2022.2.4,60.07946541335914,
,,,,,,,,,,,,1,0,1,0,176,0,176,0,,,,,,,176,,,0.2,2131.104085252209,Y,l,go,l,1,0.5067504682192521,,,,,,,,,,,,,,,,,,82,001,22,w,Psychologie,2023-01-30_15h30.07.706,00_bat_bachelor,2022.2.4,60.07946541335914,
,,,,,,,,,,,,1,0,1,0,177,0,177,0,,,,,,,177,,,0.2,2131.9216898780687,X,d,go,d,1,0.12115576045835041,,,,,,,,,,,,,,,,,,82,001,22,w,Psychologie,2023-01-30_15h30.07.706,00_bat_bachelor,2022.2.4,60.07946541335914,
,,,,,,,,,,,,1,0,1,0,178,0,178,0,,,,,,,178,,,0.2,2132.3551688927764,Y,l,go,None,0,,,,,,,,,,,,,,,,,,,82,001,22,w,Psychologie,2023-01-30_15h30.07.706,00_bat_bachelor,2022.2.4,60.07946541335914,
,,,,,,,,,,,,1,0,1,0,179,0,179,0,,,,,,,179,,,0.2,2133.3561114418844,X,d,go,l,0,0.5429324267424818,,,,,,,,,,,,,,,,,,82,001,22,w,Psychologie,2023-01-30_15h30.07.706,00_bat_bachelor,2022.2.4,60.07946541335914,
,,,,,,,,,,,,1,0,1,0,180,0,180,0,,,,,,,180,,,0.2,2134.2065598315057,X,None,nogo,None,1,,,,,,,,,,,,,,,,,,,82,001,22,w,Psychologie,2023-01-30_15h30.07.706,00_bat_bachelor,2022.2.4,60.07946541335914,
,,,,,,,,,,,,1,0,1,0,181,0,181,0,,,,,,,181,,,0.2,2135.207354016402,Y,l,go,d,0,0.2122727199421206,,,,,,,,,,,,,,,,,,82,001,22,w,Psychologie,2023-01-30_15h30.07.706,00_bat_bachelor,2022.2.4,60.07946541335914,
,,,,,,,,,,,,1,0,1,0,182,0,182,0,,,,,,,182,,,0.2,2135.7244818404142,X,d,go,None,0,,2136.525280582904,,,,,,,,,,,,,,,,,82,001,22,w,Psychologie,2023-01-30_15h30.07.706,00_bat_bachelor,2022.2.4,60.07946541335914,
,,,,,,,,,,,,1,0,1,0,183,0,183,0,,,,,,,183,,,0.2,2136.725077721512,Y,l,go,l,1,0.2782138241964276,,,,,,,,,,,,,,,,,,82,001,22,w,Psychologie,2023-01-30_15h30.07.706,00_bat_bachelor,2022.2.4,60.07946541335914,
,,,,,,,,,,,,1,0,1,0,184,0,184,0,,,,,,,184,,,0.2,2137.308855016163,Y,None,nogo,None,1,,,,,,,,,,,,,,,,,,,82,001,22,w,Psychologie,2023-01-30_15h30.07.706,00_bat_bachelor,2022.2.4,60.07946541335914,
,,,,,,,,,,,,1,0,1,0,185,0,185,0,,,,,,,185,,,0.2,2138.3099628992495,X,d,go,d,1,0.16503083973293542,,,,,,,,,,,,,,,,,,82,001,22,w,Psychologie,2023-01-30_15h30.07.706,00_bat_bachelor,2022.2.4,60.07946541335914,
,,,,,,,,,,,,1,0,1,0,186,0,186,0,,,,,,,186,,,0.2,2138.7769028922303,Y,l,go,l,1,0.5470158365242241,,,,,,,,,,,,,,,,,,82,001,22,w,Psychologie,2023-01-30_15h30.07.706,00_bat_bachelor,2022.2.4,60.07946541335914,
,,,,,,,,,,,,1,0,1,0,187,0,187,0,,,,,,,187,,,0.2,2139.6276189192467,X,d,go,d,1,0.3990065351536032,,,,,,,,,,,,,,,,,,82,001,22,w,Psychologie,2023-01-30_15h30.07.706,00_bat_bachelor,2022.2.4,60.07946541335914,
,,,,,,,,,,,,1,0,1,0,188,0,188,0,,,,,,,188,,,0.2,2140.327814120006,Y,l,go,l,1,0.43509685695607914,,,,,,,,,,,,,,,,,,82,001,22,w,Psychologie,2023-01-30_15h30.07.706,00_bat_bachelor,2022.2.4,60.07946541335914,
,,,,,,,,,,,,1,0,1,0,189,0,189,0,,,,,,,189,,,0.2,2141.0787110931815,Y,None,nogo,None,1,,,,,,,,,,,,,,,,,,,82,001,22,w,Psychologie,2023-01-30_15h30.07.706,00_bat_bachelor,2022.2.4,60.07946541335914,
,,,,,,,,,,,,1,0,1,0,190,0,190,0,,,,,,,190,,,0.2,2142.079508672032,X,d,go,d,1,0.3313733031209267,,,,,,,,,,,,,,,,,,82,001,22,w,Psychologie,2023-01-30_15h30.07.706,00_bat_bachelor,2022.2.4,60.07946541335914,
,,,,,,,,,,,,1,0,1,0,191,0,191,0,,,,,,,191,,,0.2,2142.713260948407,Y,l,go,l,1,0.3209165352891432,,,,,,,,,,,,,,,,,,82,001,22,w,Psychologie,2023-01-30_15h30.07.706,00_bat_bachelor,2022.2.4,60.07946541335914,
,,,,,,,,,,,,1,0,1,0,192,0,192,0,,,,,,,192,,,0.2,2143.3470932250893,X,d,go,None,0,,2144.147618027124,,,,,,,,,,,,,,,,,82,001,22,w,Psychologie,2023-01-30_15h30.07.706,00_bat_bachelor,2022.2.4,60.07946541335914,
,,,,,,,,,,,,1,0,1,0,193,0,193,0,,,,,,,193,,,0.2,2144.3478520159115,X,None,nogo,l,0,0.3826981082565908,,,,,,,,,,,,,,,,,,82,001,22,w,Psychologie,2023-01-30_15h30.07.706,00_bat_bachelor,2022.2.4,60.07946541335914,
,,,,,,,,,,,,1,0,1,0,194,0,194,0,,,,,,,194,,,0.2,2145.0316927289896,Y,l,go,None,0,,2145.832381410448,,,,,,,,,,,,,,,,,82,001,22,w,Psychologie,2023-01-30_15h30.07.706,00_bat_bachelor,2022.2.4,60.07946541335914,
,,,,,,,,,,,,1,0,1,0,195,0,195,0,,,,,,,195,,,0.2,2146.0323273981194,X,d,go,d,1,0.2664338997201412,,,,,,,,,,,,,,,,,,82,001,22,w,Psychologie,2023-01-30_15h30.07.706,00_bat_bachelor,2022.2.4,60.07946541335914,
,,,,,,,,,,,,1,0,1,0,196,0,196,0,,,,,,,196,,,0.2,2146.599476749485,X,None,nogo,None,1,,,,,,,,,,,,,,,,,,,82,001,22,w,Psychologie,2023-01-30_15h30.07.706,00_bat_bachelor,2022.2.4,60.07946541335914,
