loop_instruction.thisRepN,loop_instruction.thisTrialN,loop_instruction.thisN,loop_instruction.thisIndex,loop_rsi_practice.thisRepN,loop_rsi_practice.thisTrialN,loop_rsi_practice.thisN,loop_rsi_practice.thisIndex,loop_practice.thisRepN,loop_practice.thisTrialN,loop_practice.thisN,loop_practice.thisIndex,loop_exp.thisRepN,loop_exp.thisTrialN,loop_exp.thisN,loop_exp.thisIndex,loop_trials.thisRepN,loop_trials.thisTrialN,loop_trials.thisN,loop_trials.thisIndex,map_condition,map_x_key,map_y_key,key_resp_welcome.started,key_resp_welcome.keys,key_resp_welcome.rt,index,text_empty_rsi_practice.started,text_empty_rsi_practice.stopped,rsi,stimulus.started,stimulus,correct,trial_type,key_resp_trial.keys,key_resp_trial.corr,key_resp_trial.rt,key_resp_instruction_rsi.started,key_resp_instruction_rsi.keys,key_resp_instruction_rsi.rt,stimulus.stopped,key_resp_instruction_rsi.stopped,key_resp_instruction_final.started,key_resp_instruction_final.keys,key_resp_instruction_final.rt,key_resp_break.started,key_resp_break.keys,key_resp_break.rt,key_resp_break.stopped,key_resp_end_screen.started,image_end_screen.started,key_resp_end_screen.stopped,image_end_screen.stopped,key_resp_end_screen.keys,participant,session,Alter,Geschlecht (w/m/d/andere),Studiengang,date,expName,psychopyVersion,frameRate,
,,,,0,0,0,0,0,0,0,0,,,,,,,,,0,d,l,3224.0540300606062,j,18.087869999999953,0,3242.1761696969697,3243.2079646060606,1,3243.2079646060606,X,d,go,None,0,,,,,,,,,,,,,,,,,,,84,001,22,w,Psychologie,2023-01-31_10h36.43.512,00_bat_bachelor,2022.2.4,59.95587247785864,
,,,,0,0,0,0,1,0,1,0,,,,,,,,,,,,,,,1,3244.6087127272726,3245.6097483636363,1,3245.6097483636363,Y,l,go,l,1,0.33719460606073426,,,,,,,,,,,,,,,,,,84,001,22,w,Psychologie,2023-01-31_10h36.43.512,00_bat_bachelor,2022.2.4,59.95587247785864,
,,,,0,0,0,0,2,0,2,0,,,,,,,,,,,,,,,2,3246.6604363636366,3247.661069090909,1,3247.661069090909,X,d,go,d,1,0.333461272727277,,,,,,,,,,,,,,,,,,84,001,22,w,Psychologie,2023-01-31_10h36.43.512,00_bat_bachelor,2022.2.4,59.95587247785864,
,,,,0,0,0,0,3,0,3,0,,,,,,,,,,,,,,,3,3248.6954075151516,3249.6961730909093,1,3249.6961730909093,Y,l,go,l,1,0.31525569696998446,,,,,,,,,,,,,,,,,,84,001,22,w,Psychologie,2023-01-31_10h36.43.512,00_bat_bachelor,2022.2.4,59.95587247785864,
,,,,0,0,0,0,4,0,4,0,,,,,,,,,,,,,,,4,3250.713596606061,3251.714531878788,1,3251.714531878788,Y,None,nogo,l,0,0.58404115151518,,,,,,,,,,,,,,,,,,84,001,22,w,Psychologie,2023-01-31_10h36.43.512,00_bat_bachelor,2022.2.4,59.95587247785864,
,,,,0,0,0,0,5,0,5,0,,,,,,,,,,,,,,,5,3253.415615515152,3254.416235151515,1,3254.416235151515,X,d,go,d,1,0.4746656363637385,,,,,,,,,,,,,,,,,,84,001,22,w,Psychologie,2023-01-31_10h36.43.512,00_bat_bachelor,2022.2.4,59.95587247785864,
,,,,0,0,0,0,6,0,6,0,,,,,,,,,,,,,,,6,3255.6006157575757,3256.6011873939397,1,3256.6011873939397,Y,l,go,l,1,0.41750636363633475,,,,,,,,,,,,,,,,,,84,001,22,w,Psychologie,2023-01-31_10h36.43.512,00_bat_bachelor,2022.2.4,59.95587247785864,
,,,,0,0,0,0,7,0,7,0,,,,,,,,,,,,,,,7,3257.7187432727274,3258.719814787879,1,3258.719814787879,Y,None,nogo,l,0,0.507095696969941,,,,,,,,,,,,,,,,,,84,001,22,w,Psychologie,2023-01-31_10h36.43.512,00_bat_bachelor,2022.2.4,59.95587247785864,
,,,,0,0,0,0,8,0,8,0,,,,,,,,,,,,,,,8,3260.3537105454548,3261.354772848485,1,3261.354772848485,X,d,go,d,1,0.48077036363622483,,,,,,,,,,,,,,,,,,84,001,22,w,Psychologie,2023-01-31_10h36.43.512,00_bat_bachelor,2022.2.4,59.95587247785864,
,,,,0,0,0,0,9,0,9,0,,,,,,,,,,,,,,,9,3262.5390724848485,3263.5398104242427,1,3263.5398104242427,Y,l,go,l,1,0.3115858787879233,,,,,,,,,,,,,,,,,,84,001,22,w,Psychologie,2023-01-31_10h36.43.512,00_bat_bachelor,2022.2.4,59.95587247785864,
,,,,0,0,0,0,10,0,10,0,,,,,,,,,,,,,,,10,3264.556915878788,3265.5579476363637,1,3265.5579476363637,X,d,go,d,1,0.4367630909092668,,,,,,,,,,,,,,,,,,84,001,22,w,Psychologie,2023-01-31_10h36.43.512,00_bat_bachelor,2022.2.4,59.95587247785864,
,,,,0,0,0,0,11,0,11,0,,,,,,,,,,,,,,,11,3266.7087612121213,3267.709676606061,1,3267.709676606061,Y,l,go,l,1,0.47809109090906077,,,,,,,,,,,,,,,,,,84,001,22,w,Psychologie,2023-01-31_10h36.43.512,00_bat_bachelor,2022.2.4,59.95587247785864,
,,,,0,0,0,0,12,0,12,0,,,,,,,,,,,,,,,12,3268.893740606061,3269.894625454546,1,3269.894625454546,X,d,go,d,1,0.46746127272729154,,,,,,,,,,,,,,,,,,84,001,22,w,Psychologie,2023-01-31_10h36.43.512,00_bat_bachelor,2022.2.4,59.95587247785864,
,,,,0,0,0,0,13,0,13,0,,,,,,,,,,,,,,,13,3271.078547878788,3272.0796824242425,1,3272.0796824242425,X,None,nogo,None,1,,,,,,,,,,,,,,,,,,,84,001,22,w,Psychologie,2023-01-31_10h36.43.512,00_bat_bachelor,2022.2.4,59.95587247785864,
,,,,0,0,0,0,14,0,14,0,,,,,,,,,,,,,,,14,3273.4806550303033,3274.4815956363636,1,3274.4815956363636,Y,l,go,l,1,0.3936304848485861,,,,,,,,,,,,,,,,,,84,001,22,w,Psychologie,2023-01-31_10h36.43.512,00_bat_bachelor,2022.2.4,59.95587247785864,
,,,,1,0,1,0,0,0,0,0,,,,,,,,,,,,,,,0,3290.660528484849,3290.860862060606,0.2,3290.860862060606,X,d,go,d,1,0.47813763636361273,3275.6006332121215,j,15.038190000000327,,,,,,,,,,,,,,,84,001,22,w,Psychologie,2023-01-31_10h36.43.512,00_bat_bachelor,2022.2.4,59.95587247785864,
,,,,1,0,1,0,1,0,1,0,,,,,,,,,,,,,,,1,3292.0449381818185,3292.2452392727273,0.2,3292.2452392727273,Y,l,go,l,1,0.37386563636403025,,,,,,,,,,,,,,,,,,84,001,22,w,Psychologie,2023-01-31_10h36.43.512,00_bat_bachelor,2022.2.4,59.95587247785864,
,,,,1,0,1,0,2,0,2,0,,,,,,,,,,,,,,,2,3293.3290661818182,3293.5289944242427,0.2,3293.5289944242427,X,d,go,d,1,0.33746903030316844,,,,,,,,,,,,,,,,,,84,001,22,w,Psychologie,2023-01-31_10h36.43.512,00_bat_bachelor,2022.2.4,59.95587247785864,
,,,,1,0,1,0,3,0,3,0,,,,,,,,,,,,,,,3,3294.59661769697,3294.7968290909093,0.2,3294.7968290909093,Y,l,go,l,1,0.3654452727274702,,,,,,,,,,,,,,,,,,84,001,22,w,Psychologie,2023-01-31_10h36.43.512,00_bat_bachelor,2022.2.4,59.95587247785864,
,,,,1,0,1,0,4,0,4,0,,,,,,,,,,,,,,,4,3295.8642846060607,3296.0642715151516,0.2,3296.0642715151516,Y,None,nogo,None,1,,,,,3296.865177212121,,,,,,,,,,,,,,84,001,22,w,Psychologie,2023-01-31_10h36.43.512,00_bat_bachelor,2022.2.4,59.95587247785864,
,,,,1,0,1,0,5,0,5,0,,,,,,,,,,,,,,,5,3297.4657464242428,3297.665811878788,0.2,3297.665811878788,X,d,go,d,1,0.3443834545456639,,,,,,,,,,,,,,,,,,84,001,22,w,Psychologie,2023-01-31_10h36.43.512,00_bat_bachelor,2022.2.4,59.95587247785864,
,,,,1,0,1,0,6,0,6,0,,,,,,,,,,,,,,,6,3298.7166482424245,3298.916436848485,0.2,3298.916436848485,Y,l,go,l,1,0.5020896363636211,,,,,,,,,,,,,,,,,,84,001,22,w,Psychologie,2023-01-31_10h36.43.512,00_bat_bachelor,2022.2.4,59.95587247785864,
,,,,1,0,1,0,7,0,7,0,,,,,,,,,,,,,,,7,3300.134366060606,3300.3342787878787,0.2,3300.3342787878787,X,d,go,d,1,0.3487805454548152,,,,,,,,,,,,,,,,,,84,001,22,w,Psychologie,2023-01-31_10h36.43.512,00_bat_bachelor,2022.2.4,59.95587247785864,
,,,,1,0,1,0,8,0,8,0,,,,,,,,,,,,,,,8,3301.3852126060606,3301.5851301818184,0.2,3301.5851301818184,Y,l,go,l,1,0.2814544848489504,,,,,,,,,,,,,,,,,,84,001,22,w,Psychologie,2023-01-31_10h36.43.512,00_bat_bachelor,2022.2.4,59.95587247785864,
,,,,1,0,1,0,9,0,9,0,,,,,,,,,,,,,,,9,3302.5694913939396,3302.7697430303033,0.2,3302.7697430303033,X,d,go,d,1,0.34494636363626796,,,,,,,,,,,,,,,,,,84,001,22,w,Psychologie,2023-01-31_10h36.43.512,00_bat_bachelor,2022.2.4,59.95587247785864,
,,,,1,0,1,0,10,0,10,0,,,,,,,,,,,,,,,10,3303.820525090909,3304.0203684848484,0.2,3304.0203684848484,X,None,nogo,None,1,,,,,,,,,,,,,,,,,,,84,001,22,w,Psychologie,2023-01-31_10h36.43.512,00_bat_bachelor,2022.2.4,59.95587247785864,
,,,,1,0,1,0,11,0,11,0,,,,,,,,,,,,,,,11,3305.421732848485,3305.6218962424246,0.2,3305.6218962424246,Y,l,go,l,1,0.40603872727263024,,,,,,,,,,,,,,,,,,84,001,22,w,Psychologie,2023-01-31_10h36.43.512,00_bat_bachelor,2022.2.4,59.95587247785864,
,,,,1,0,1,0,12,0,12,0,,,,,,,,,,,,,,,12,3306.7394521212123,3306.9395495757576,0.2,3306.9395495757576,X,d,go,d,1,0.44788987878803255,,,,,,,,,,,,,,,,,,84,001,22,w,Psychologie,2023-01-31_10h36.43.512,00_bat_bachelor,2022.2.4,59.95587247785864,
,,,,1,0,1,0,13,0,13,0,,,,,,,,,,,,,,,13,3308.090164848485,3308.290575030303,0.2,3308.290575030303,Y,l,go,l,1,0.3926074545453275,,,,,,,,,,,,,,,,,,84,001,22,w,Psychologie,2023-01-31_10h36.43.512,00_bat_bachelor,2022.2.4,59.95587247785864,
,,,,1,0,1,0,14,0,14,0,,,,,,,,,,,,,,,14,3309.391424,3309.5914564848485,0.2,3309.5914564848485,Y,None,nogo,None,1,,,,,,,,,,,,,,,,,,,84,001,22,w,Psychologie,2023-01-31_10h36.43.512,00_bat_bachelor,2022.2.4,59.95587247785864,
,,,,,,,,,,,,,,,,,,,,,,,,,,,,,,,,,,,,,3311.0303001212123,None,,,3311.0303001212123,3311.0303001212123,space,25.015681878788314,,,,,,,,,,84,001,22,w,Psychologie,2023-01-31_10h36.43.512,00_bat_bachelor,2022.2.4,59.95587247785864,
,,,,,,,,,,,,0,0,0,0,0,0,0,0,,,,,,,0,,,1,3337.0791287272727,X,d,go,d,1,0.4199015151517642,,,,,,,,,,,,,,,,,,84,001,22,w,Psychologie,2023-01-31_10h36.43.512,00_bat_bachelor,2022.2.4,59.95587247785864,
,,,,,,,,,,,,0,0,0,0,1,0,1,0,,,,,,,1,,,1,3338.6135481212123,Y,l,go,l,1,0.4044164242424131,,,,,,,,,,,,,,,,,,84,001,22,w,Psychologie,2023-01-31_10h36.43.512,00_bat_bachelor,2022.2.4,59.95587247785864,
,,,,,,,,,,,,0,0,0,0,2,0,2,0,,,,,,,2,,,1,3340.1316324848485,X,d,go,d,1,0.3585885454546087,,,,,,,,,,,,,,,,,,84,001,22,w,Psychologie,2023-01-31_10h36.43.512,00_bat_bachelor,2022.2.4,59.95587247785864,
,,,,,,,,,,,,0,0,0,0,3,0,3,0,,,,,,,3,,,1,3341.599294060606,Y,l,go,l,1,0.37985690909101777,,,,,,,,,,,,,,,,,,84,001,22,w,Psychologie,2023-01-31_10h36.43.512,00_bat_bachelor,2022.2.4,59.95587247785864,
,,,,,,,,,,,,0,0,0,0,4,0,4,0,,,,,,,4,,,1,3343.0836014545457,Y,None,nogo,None,1,,,,,,,,,,,,,,,,,,,84,001,22,w,Psychologie,2023-01-31_10h36.43.512,00_bat_bachelor,2022.2.4,59.95587247785864,
,,,,,,,,,,,,0,0,0,0,5,0,5,0,,,,,,,5,,,1,3344.884830060606,X,d,go,d,1,0.39010466666661614,,,,,,,,,,,,,,,,,,84,001,22,w,Psychologie,2023-01-31_10h36.43.512,00_bat_bachelor,2022.2.4,59.95587247785864,
,,,,,,,,,,,,0,0,0,0,6,0,6,0,,,,,,,6,,,1,3346.3862952727272,Y,l,go,l,1,0.34449933333382887,,,,,,,,,,,,,,,,,,84,001,22,w,Psychologie,2023-01-31_10h36.43.512,00_bat_bachelor,2022.2.4,59.95587247785864,
,,,,,,,,,,,,0,0,0,0,7,0,7,0,,,,,,,7,,,1,3347.837195151515,Y,None,nogo,None,1,,,,,,,,,,,,,,,,,,,84,001,22,w,Psychologie,2023-01-31_10h36.43.512,00_bat_bachelor,2022.2.4,59.95587247785864,
,,,,,,,,,,,,0,0,0,0,8,0,8,0,,,,,,,8,,,1,3349.6388785454546,X,d,go,d,1,0.27633642424245863,,,,,,,,,,,,,,,,,,84,001,22,w,Psychologie,2023-01-31_10h36.43.512,00_bat_bachelor,2022.2.4,59.95587247785864,
,,,,,,,,,,,,0,0,0,0,9,0,9,0,,,,,,,9,,,1,3351.0228334545454,Y,l,go,l,1,0.34784139393934765,,,,,,,,,,,,,,,,,,84,001,22,w,Psychologie,2023-01-31_10h36.43.512,00_bat_bachelor,2022.2.4,59.95587247785864,
,,,,,,,,,,,,0,0,0,0,10,0,10,0,,,,,,,10,,,1,3352.474275878788,X,d,go,d,1,0.33655072727299284,,,,,,,,,,,,,,,,,,84,001,22,w,Psychologie,2023-01-31_10h36.43.512,00_bat_bachelor,2022.2.4,59.95587247785864,
,,,,,,,,,,,,0,0,0,0,11,0,11,0,,,,,,,11,,,1,3353.9250385454548,X,None,nogo,None,1,,,,,3354.7259112727274,,,,,,,,,,,,,,84,001,22,w,Psychologie,2023-01-31_10h36.43.512,00_bat_bachelor,2022.2.4,59.95587247785864,
,,,,,,,,,,,,0,0,0,0,12,0,12,0,,,,,,,12,,,1,3355.7263825454547,Y,l,go,l,1,0.380407212121213,,,,,,,,,,,,,,,,,,84,001,22,w,Psychologie,2023-01-31_10h36.43.512,00_bat_bachelor,2022.2.4,59.95587247785864,
,,,,,,,,,,,,0,0,0,0,13,0,13,0,,,,,,,13,,,1,3357.2109953939394,X,d,go,d,1,0.5749390909096519,,,,,,,,,,,,,,,,,,84,001,22,w,Psychologie,2023-01-31_10h36.43.512,00_bat_bachelor,2022.2.4,59.95587247785864,
,,,,,,,,,,,,0,0,0,0,14,0,14,0,,,,,,,14,,,1,3358.8958133333335,Y,l,go,l,1,0.41027096969685317,,,,,,,,,,,,,,,,,,84,001,22,w,Psychologie,2023-01-31_10h36.43.512,00_bat_bachelor,2022.2.4,59.95587247785864,
,,,,,,,,,,,,0,0,0,0,15,0,15,0,,,,,,,15,,,1,3360.4136121212123,Y,None,nogo,None,1,,,,,,,,,,,,,,,,,,,84,001,22,w,Psychologie,2023-01-31_10h36.43.512,00_bat_bachelor,2022.2.4,59.95587247785864,
,,,,,,,,,,,,0,0,0,0,16,0,16,0,,,,,,,16,,,1,3362.2148785454547,X,d,go,d,1,0.3392382424241305,,,,,,,,,,,,,,,,,,84,001,22,w,Psychologie,2023-01-31_10h36.43.512,00_bat_bachelor,2022.2.4,59.95587247785864,
,,,,,,,,,,,,0,0,0,0,17,0,17,0,,,,,,,17,,,1,3363.666122666667,Y,l,go,l,1,0.409931575757696,,,,,,,,,,,,,,,,,,84,001,22,w,Psychologie,2023-01-31_10h36.43.512,00_bat_bachelor,2022.2.4,59.95587247785864,
,,,,,,,,,,,,0,0,0,0,18,0,18,0,,,,,,,18,,,1,3365.183620848485,X,d,go,d,1,0.29906127272772665,,,,,,,,,,,,,,,,,,84,001,22,w,Psychologie,2023-01-31_10h36.43.512,00_bat_bachelor,2022.2.4,59.95587247785864,
,,,,,,,,,,,,0,0,0,0,19,0,19,0,,,,,,,19,,,1,3366.584979878788,Y,l,go,l,1,0.3854729090909359,,,,,,,,,,,,,,,,,,84,001,22,w,Psychologie,2023-01-31_10h36.43.512,00_bat_bachelor,2022.2.4,59.95587247785864,
,,,,,,,,,,,,0,0,0,0,20,0,20,0,,,,,,,20,,,1,3368.0861323636364,X,d,go,d,1,0.34068454545433724,,,,,,,,,,,,,,,,,,84,001,22,w,Psychologie,2023-01-31_10h36.43.512,00_bat_bachelor,2022.2.4,59.95587247785864,
,,,,,,,,,,,,0,0,0,0,21,0,21,0,,,,,,,21,,,1,3369.537299878788,Y,l,go,l,1,0.36187096969717913,,,,,,,,,,,,,,,,,,84,001,22,w,Psychologie,2023-01-31_10h36.43.512,00_bat_bachelor,2022.2.4,59.95587247785864,
,,,,,,,,,,,,0,0,0,0,22,0,22,0,,,,,,,22,,,1,3371.0050923636363,X,d,go,d,1,0.41341715151531844,,,,,,,,,,,,,,,,,,84,001,22,w,Psychologie,2023-01-31_10h36.43.512,00_bat_bachelor,2022.2.4,59.95587247785864,
,,,,,,,,,,,,0,0,0,0,23,0,23,0,,,,,,,23,,,1,3372.5228155151517,Y,l,go,l,1,0.31971921212164034,,,,,,,,,,,,,,,,,,84,001,22,w,Psychologie,2023-01-31_10h36.43.512,00_bat_bachelor,2022.2.4,59.95587247785864,
,,,,,,,,,,,,0,0,0,0,24,0,24,0,,,,,,,24,,,1,3373.957300848485,X,d,go,d,1,0.3107698787877098,,,,,,,,,,,,,,,,,,84,001,22,w,Psychologie,2023-01-31_10h36.43.512,00_bat_bachelor,2022.2.4,59.95587247785864,
,,,,,,,,,,,,0,0,0,0,25,0,25,0,,,,,,,25,,,1,3375.374749090909,Y,l,go,l,1,0.4128106060608161,,,,,,,,,,,,,,,,,,84,001,22,w,Psychologie,2023-01-31_10h36.43.512,00_bat_bachelor,2022.2.4,59.95587247785864,
,,,,,,,,,,,,0,0,0,0,26,0,26,0,,,,,,,26,,,1,3376.892820848485,Y,None,nogo,None,1,,,,,,,,,,,,,,,,,,,84,001,22,w,Psychologie,2023-01-31_10h36.43.512,00_bat_bachelor,2022.2.4,59.95587247785864,
,,,,,,,,,,,,0,0,0,0,27,0,27,0,,,,,,,27,,,1,3378.693902545455,X,d,go,d,1,0.3079209090911945,,,,,,,,,,,,,,,,,,84,001,22,w,Psychologie,2023-01-31_10h36.43.512,00_bat_bachelor,2022.2.4,59.95587247785864,
,,,,,,,,,,,,0,0,0,0,28,0,28,0,,,,,,,28,,,1,3380.1116746666667,Y,l,go,l,1,0.3791213939394993,,,,,,,,,,,,,,,,,,84,001,22,w,Psychologie,2023-01-31_10h36.43.512,00_bat_bachelor,2022.2.4,59.95587247785864,
,,,,,,,,,,,,0,0,0,0,29,0,29,0,,,,,,,29,,,1,3381.5963083636366,X,d,go,d,1,0.3661303636364437,,,,,,,,,,,,,,,,,,84,001,22,w,Psychologie,2023-01-31_10h36.43.512,00_bat_bachelor,2022.2.4,59.95587247785864,
,,,,,,,,,,,,0,0,0,0,30,0,30,0,,,,,,,30,,,1,3383.0642244848486,Y,l,go,l,1,0.4340110909093937,,,,,,,,,,,,,,,,,,84,001,22,w,Psychologie,2023-01-31_10h36.43.512,00_bat_bachelor,2022.2.4,59.95587247785864,
,,,,,,,,,,,,0,0,0,0,31,0,31,0,,,,,,,31,,,1,3384.598721939394,Y,None,nogo,None,1,,,,,3385.3993643636363,,,,,,,,,,,,,,84,001,22,w,Psychologie,2023-01-31_10h36.43.512,00_bat_bachelor,2022.2.4,59.95587247785864,
,,,,,,,,,,,,0,0,0,0,32,0,32,0,,,,,,,32,,,1,3386.399962666667,X,d,go,d,1,0.3796736363639184,,,,,,,,,,,,,,,,,,84,001,22,w,Psychologie,2023-01-31_10h36.43.512,00_bat_bachelor,2022.2.4,59.95587247785864,
,,,,,,,,,,,,0,0,0,0,33,0,33,0,,,,,,,33,,,1,3387.884239030303,Y,l,go,l,1,0.33392915151546276,,,,,,,,,,,,,,,,,,84,001,22,w,Psychologie,2023-01-31_10h36.43.512,00_bat_bachelor,2022.2.4,59.95587247785864,
,,,,,,,,,,,,0,0,0,0,34,0,34,0,,,,,,,34,,,1,3389.3357265454547,X,d,go,d,1,0.4034491515154741,,,,,,,,,,,,,,,,,,84,001,22,w,Psychologie,2023-01-31_10h36.43.512,00_bat_bachelor,2022.2.4,59.95587247785864,
,,,,,,,,,,,,0,0,0,0,35,0,35,0,,,,,,,35,,,1,3390.8534812121216,X,None,nogo,d,0,0.5012067272729155,,,,,,,,,,,,,,,,,,84,001,22,w,Psychologie,2023-01-31_10h36.43.512,00_bat_bachelor,2022.2.4,59.95587247785864,
,,,,,,,,,,,,0,0,0,0,36,0,36,0,,,,,,,36,,,1,3392.4710783030305,Y,l,go,l,1,0.40297787878819236,,,,,,,,,,,,,,,,,,84,001,22,w,Psychologie,2023-01-31_10h36.43.512,00_bat_bachelor,2022.2.4,59.95587247785864,
,,,,,,,,,,,,0,0,0,0,37,0,37,0,,,,,,,37,,,1,3393.9891781818183,X,d,go,d,1,0.4691286666667338,,,,,,,,,,,,,,,,,,84,001,22,w,Psychologie,2023-01-31_10h36.43.512,00_bat_bachelor,2022.2.4,59.95587247785864,
,,,,,,,,,,,,0,0,0,0,38,0,38,0,,,,,,,38,,,1,3395.5738293333334,X,None,nogo,None,1,,,,,,,,,,,,,,,,,,,84,001,22,w,Psychologie,2023-01-31_10h36.43.512,00_bat_bachelor,2022.2.4,59.95587247785864,
,,,,,,,,,,,,0,0,0,0,39,0,39,0,,,,,,,39,,,1,3397.3752014545457,Y,l,go,l,1,0.4600120606061182,,,,,,,,,,,,,,,,,,84,001,22,w,Psychologie,2023-01-31_10h36.43.512,00_bat_bachelor,2022.2.4,59.95587247785864,
,,,,,,,,,,,,0,0,0,0,40,0,40,0,,,,,,,40,,,1,3398.9426802424246,X,d,go,d,1,0.4607912121210802,,,,,,,,,,,,,,,,,,84,001,22,w,Psychologie,2023-01-31_10h36.43.512,00_bat_bachelor,2022.2.4,59.95587247785864,
,,,,,,,,,,,,0,0,0,0,41,0,41,0,,,,,,,41,,,1,3400.51056,X,None,nogo,None,1,,,,,,,,,,,,,,,,,,,84,001,22,w,Psychologie,2023-01-31_10h36.43.512,00_bat_bachelor,2022.2.4,59.95587247785864,
,,,,,,,,,,,,0,0,0,0,42,0,42,0,,,,,,,42,,,1,3402.312217212121,Y,l,go,l,1,0.3862903636364763,,,,,,,,,,,,,,,,,,84,001,22,w,Psychologie,2023-01-31_10h36.43.512,00_bat_bachelor,2022.2.4,59.95587247785864,
,,,,,,,,,,,,0,0,0,0,43,0,43,0,,,,,,,43,,,1,3403.8133953939396,X,d,go,d,1,0.4695742424243008,,,,,,,,,,,,,,,,,,84,001,22,w,Psychologie,2023-01-31_10h36.43.512,00_bat_bachelor,2022.2.4,59.95587247785864,
,,,,,,,,,,,,0,0,0,0,44,0,44,0,,,,,,,44,,,1,3405.3976014545456,Y,l,go,l,1,0.48469909090965757,,,,,,,,,,,,,,,,,,84,001,22,w,Psychologie,2023-01-31_10h36.43.512,00_bat_bachelor,2022.2.4,59.95587247785864,
,,,,,,,,,,,,0,0,0,0,45,0,45,0,,,,,,,45,,,1,3406.999163636364,X,d,go,d,1,0.435305636363978,,,,,,,,,,,,,,,,,,84,001,22,w,Psychologie,2023-01-31_10h36.43.512,00_bat_bachelor,2022.2.4,59.95587247785864,
,,,,,,,,,,,,0,0,0,0,46,0,46,0,,,,,,,46,,,1,3408.550310787879,Y,l,go,l,1,0.5973526666667794,,,,,,,,,,,,,,,,,,84,001,22,w,Psychologie,2023-01-31_10h36.43.512,00_bat_bachelor,2022.2.4,59.95587247785864,
,,,,,,,,,,,,0,0,0,0,47,0,47,0,,,,,,,47,,,1,3410.2513095757577,X,d,go,d,1,0.366461030303185,,,,,,,,,,,,,,,,,,84,001,22,w,Psychologie,2023-01-31_10h36.43.512,00_bat_bachelor,2022.2.4,59.95587247785864,
,,,,,,,,,,,,0,0,0,0,48,0,48,0,,,,,,,48,,,1,3411.719386181818,Y,l,go,l,1,0.5159306060605786,,,,,,,,,,,,,,,,,,84,001,22,w,Psychologie,2023-01-31_10h36.43.512,00_bat_bachelor,2022.2.4,59.95587247785864,
,,,,,,,,,,,,0,0,0,0,49,0,49,0,,,,,,,49,,,1,3413.3373755151515,Y,None,nogo,None,1,,,,,,,,,,,,,,,,,,,84,001,22,w,Psychologie,2023-01-31_10h36.43.512,00_bat_bachelor,2022.2.4,59.95587247785864,
,,,,,,,,,,,,0,0,0,0,50,0,50,0,,,,,,,50,,,1,3415.138483878788,X,d,go,d,1,0.2161647878789381,,,,,,,,,,,,,,,,,,84,001,22,w,Psychologie,2023-01-31_10h36.43.512,00_bat_bachelor,2022.2.4,59.95587247785864,
,,,,,,,,,,,,0,0,0,0,51,0,51,0,,,,,,,51,,,1,3416.4560373333334,Y,l,go,l,1,0.3540920606066038,,,,,,,,,,,,,,,,,,84,001,22,w,Psychologie,2023-01-31_10h36.43.512,00_bat_bachelor,2022.2.4,59.95587247785864,
,,,,,,,,,,,,0,0,0,0,52,0,52,0,,,,,,,52,,,1,3417.9239583030303,Y,None,nogo,None,1,,,,,,,,,,,,,,,,,,,84,001,22,w,Psychologie,2023-01-31_10h36.43.512,00_bat_bachelor,2022.2.4,59.95587247785864,
,,,,,,,,,,,,0,0,0,0,53,0,53,0,,,,,,,53,,,1,3419.725539878788,X,d,go,d,1,0.3494113333332507,,,,,,,,,,,,,,,,,,84,001,22,w,Psychologie,2023-01-31_10h36.43.512,00_bat_bachelor,2022.2.4,59.95587247785864,
,,,,,,,,,,,,0,0,0,0,54,0,54,0,,,,,,,54,,,1,3421.1762996363636,Y,l,go,l,1,0.5145264848484885,,,,,,,,,,,,,,,,,,84,001,22,w,Psychologie,2023-01-31_10h36.43.512,00_bat_bachelor,2022.2.4,59.95587247785864,
,,,,,,,,,,,,0,0,0,0,55,0,55,0,,,,,,,55,,,1,3422.7945425454545,X,d,go,d,1,0.36779048484879695,,,,,,,,,,,,,,,,,,84,001,22,w,Psychologie,2023-01-31_10h36.43.512,00_bat_bachelor,2022.2.4,59.95587247785864,
,,,,,,,,,,,,0,0,0,0,56,0,56,0,,,,,,,56,,,1,3424.279020606061,Y,l,go,l,1,0.611999454545753,,,,,,,,,,,,,,,,,,84,001,22,w,Psychologie,2023-01-31_10h36.43.512,00_bat_bachelor,2022.2.4,59.95587247785864,
,,,,,,,,,,,,0,0,0,0,57,0,57,0,,,,,,,57,,,1,3425.9969498181817,Y,None,nogo,None,1,,,,,3426.797553454546,,,,,,,,,,,,,,84,001,22,w,Psychologie,2023-01-31_10h36.43.512,00_bat_bachelor,2022.2.4,59.95587247785864,
,,,,,,,,,,,,0,0,0,0,58,0,58,0,,,,,,,58,,,1,3427.7983830303033,X,d,go,d,1,0.24462636363671209,,,,,,,,,,,,,,,,,,84,001,22,w,Psychologie,2023-01-31_10h36.43.512,00_bat_bachelor,2022.2.4,59.95587247785864,
,,,,,,,,,,,,0,0,0,0,59,0,59,0,,,,,,,59,,,1,3429.149054545455,Y,l,go,l,1,0.3179771515152652,,,,,,,,,,,,,,,,,,84,001,22,w,Psychologie,2023-01-31_10h36.43.512,00_bat_bachelor,2022.2.4,59.95587247785864,
,,,,,,,,,,,,0,0,0,0,60,0,60,0,,,,,,,60,,,1,3430.5837052121215,X,d,go,d,1,0.5155456363642088,,,,,,,,,,,,,,,,,,84,001,22,w,Psychologie,2023-01-31_10h36.43.512,00_bat_bachelor,2022.2.4,59.95587247785864,
,,,,,,,,,,,,0,0,0,0,61,0,61,0,,,,,,,61,,,1,3432.2016867878788,X,None,nogo,None,1,,,,,,,,,,,,,,,,,,,84,001,22,w,Psychologie,2023-01-31_10h36.43.512,00_bat_bachelor,2022.2.4,59.95587247785864,
,,,,,,,,,,,,0,0,0,0,62,0,62,0,,,,,,,62,,,1,3434.0028286060606,Y,l,go,l,1,0.3603626060609031,,,,,,,,,,,,,,,,,,84,001,22,w,Psychologie,2023-01-31_10h36.43.512,00_bat_bachelor,2022.2.4,59.95587247785864,
,,,,,,,,,,,,0,0,0,0,63,0,63,0,,,,,,,63,,,1,3435.471041939394,X,d,go,d,1,0.4268469696972943,,,,,,,,,,,,,,,,,,84,001,22,w,Psychologie,2023-01-31_10h36.43.512,00_bat_bachelor,2022.2.4,59.95587247785864,
,,,,,,,,,,,,0,0,0,0,64,0,64,0,,,,,,,64,,,1,3437.0055975757577,X,None,nogo,d,0,0.36454490909102333,,,,,,,,,,,,,,,,,,84,001,22,w,Psychologie,2023-01-31_10h36.43.512,00_bat_bachelor,2022.2.4,59.95587247785864,
,,,,,,,,,,,,0,0,0,0,65,0,65,0,,,,,,,65,,,1,3438.473350787879,Y,l,go,l,1,0.41695751515192114,,,,,,,,,,,,,,,,,,84,001,22,w,Psychologie,2023-01-31_10h36.43.512,00_bat_bachelor,2022.2.4,59.95587247785864,
,,,,,,,,,,,,0,0,0,0,66,0,66,0,,,,,,,66,,,1,3440.007873939394,X,d,go,d,1,0.5141463636365415,,,,,,,,,,,,,,,,,,84,001,22,w,Psychologie,2023-01-31_10h36.43.512,00_bat_bachelor,2022.2.4,59.95587247785864,
,,,,,,,,,,,,0,0,0,0,67,0,67,0,,,,,,,67,,,1,3441.6259607272727,Y,l,go,l,1,0.32027969696957825,,,,,,,,,,,,,,,,,,84,001,22,w,Psychologie,2023-01-31_10h36.43.512,00_bat_bachelor,2022.2.4,59.95587247785864,
,,,,,,,,,,,,0,0,0,0,68,0,68,0,,,,,,,68,,,1,3443.0767626666666,X,d,go,d,1,0.4221148484849664,,,,,,,,,,,,,,,,,,84,001,22,w,Psychologie,2023-01-31_10h36.43.512,00_bat_bachelor,2022.2.4,59.95587247785864,
,,,,,,,,,,,,0,0,0,0,69,0,69,0,,,,,,,69,,,1,3444.610836848485,X,None,nogo,None,1,,,,,,,,,,,,,,,,,,,84,001,22,w,Psychologie,2023-01-31_10h36.43.512,00_bat_bachelor,2022.2.4,59.95587247785864,
,,,,,,,,,,,,0,0,0,0,70,0,70,0,,,,,,,70,,,1,3446.4124809696973,Y,l,go,l,1,0.28593351515166887,,,,,,,,,,,,,,,,,,84,001,22,w,Psychologie,2023-01-31_10h36.43.512,00_bat_bachelor,2022.2.4,59.95587247785864,
,,,,,,,,,,,,0,0,0,0,71,0,71,0,,,,,,,71,,,1,3447.8135694545454,X,d,go,d,1,0.501420060606165,,,,,,,,,,,,,,,,,,84,001,22,w,Psychologie,2023-01-31_10h36.43.512,00_bat_bachelor,2022.2.4,59.95587247785864,
,,,,,,,,,,,,0,0,0,0,72,0,72,0,,,,,,,72,,,1,3449.431548606061,Y,l,go,l,1,0.4832566666669891,,,,,,,,,,,,,,,,,,84,001,22,w,Psychologie,2023-01-31_10h36.43.512,00_bat_bachelor,2022.2.4,59.95587247785864,
,,,,,,,,,,,,0,0,0,0,73,0,73,0,,,,,,,73,,,1,3451.016012121212,X,d,go,d,1,0.3863388484847974,,,,,,,,,,,,,,,,,,84,001,22,w,Psychologie,2023-01-31_10h36.43.512,00_bat_bachelor,2022.2.4,59.95587247785864,
,,,,,,,,,,,,0,0,0,0,74,0,74,0,,,,,,,74,,,1,3452.5178981818185,X,None,nogo,None,1,,,,,3453.3182933333333,,,,,,,,,,,,,,84,001,22,w,Psychologie,2023-01-31_10h36.43.512,00_bat_bachelor,2022.2.4,59.95587247785864,
,,,,,,,,,,,,0,0,0,0,75,0,75,0,,,,,,,75,,,1,3454.319006060606,Y,l,go,l,1,0.3148173939399612,,,,,,,,,,,,,,,,,,84,001,22,w,Psychologie,2023-01-31_10h36.43.512,00_bat_bachelor,2022.2.4,59.95587247785864,
,,,,,,,,,,,,0,0,0,0,76,0,76,0,,,,,,,76,,,1,3455.753747878788,X,d,go,d,1,0.3850147272725053,,,,,,,,,,,,,,,,,,84,001,22,w,Psychologie,2023-01-31_10h36.43.512,00_bat_bachelor,2022.2.4,59.95587247785864,
,,,,,,,,,,,,0,0,0,0,77,0,77,0,,,,,,,77,,,1,3457.2713003636363,Y,l,go,l,1,0.37050854545452694,,,,,,,,,,,,,,,,,,84,001,22,w,Psychologie,2023-01-31_10h36.43.512,00_bat_bachelor,2022.2.4,59.95587247785864,
,,,,,,,,,,,,0,0,0,0,78,0,78,0,,,,,,,78,,,1,3458.772481939394,Y,None,nogo,None,1,,,,,3459.5733944242425,,,,,,,,,,,,,,84,001,22,w,Psychologie,2023-01-31_10h36.43.512,00_bat_bachelor,2022.2.4,59.95587247785864,
,,,,,,,,,,,,0,0,0,0,79,0,79,0,,,,,,,79,,,1,3460.573773090909,X,d,go,d,1,0.2682389696971086,,,,,,,,,,,,,,,,,,84,001,22,w,Psychologie,2023-01-31_10h36.43.512,00_bat_bachelor,2022.2.4,59.95587247785864,
,,,,,,,,,,,,0,0,0,0,80,0,80,0,,,,,,,80,,,1,3461.974807757576,Y,l,go,l,1,0.3228270909095272,,,,,,,,,,,,,,,,,,84,001,22,w,Psychologie,2023-01-31_10h36.43.512,00_bat_bachelor,2022.2.4,59.95587247785864,
,,,,,,,,,,,,0,0,0,0,81,0,81,0,,,,,,,81,,,1,3463.4262661818184,X,d,go,d,1,0.29620357575788603,,,,,,,,,,,,,,,,,,84,001,22,w,Psychologie,2023-01-31_10h36.43.512,00_bat_bachelor,2022.2.4,59.95587247785864,
,,,,,,,,,,,,0,0,0,0,82,0,82,0,,,,,,,82,,,1,3464.8437391515154,X,None,nogo,None,1,,,,,3465.644416,,,,,,,,,,,,,,84,001,22,w,Psychologie,2023-01-31_10h36.43.512,00_bat_bachelor,2022.2.4,59.95587247785864,
,,,,,,,,,,,,0,0,0,0,83,0,83,0,,,,,,,83,,,1,3466.6450846060607,Y,l,go,l,1,0.3728862424242152,,,,,,,,,,,,,,,,,,84,001,22,w,Psychologie,2023-01-31_10h36.43.512,00_bat_bachelor,2022.2.4,59.95587247785864,
,,,,,,,,,,,,0,0,0,0,84,0,84,0,,,,,,,84,,,1,3468.146219151515,X,d,go,d,1,0.3440964242423661,,,,,,,,,,,,,,,,,,84,001,22,w,Psychologie,2023-01-31_10h36.43.512,00_bat_bachelor,2022.2.4,59.95587247785864,
,,,,,,,,,,,,0,0,0,0,85,0,85,0,,,,,,,85,,,1,3469.6140101818182,Y,l,go,l,1,0.5232333939399041,,,,,,,,,,,,,,,,,,84,001,22,w,Psychologie,2023-01-31_10h36.43.512,00_bat_bachelor,2022.2.4,59.95587247785864,
,,,,,,,,,,,,0,0,0,0,86,0,86,0,,,,,,,86,,,1,3471.2653241212124,Y,None,nogo,None,1,,,,,3472.0660460606064,,,,,,,,,,,,,,84,001,22,w,Psychologie,2023-01-31_10h36.43.512,00_bat_bachelor,2022.2.4,59.95587247785864,
,,,,,,,,,,,,0,0,0,0,87,0,87,0,,,,,,,87,,,1,3473.066112,X,d,go,d,1,0.5129124242426997,,,,,,,,,,,,,,,,,,84,001,22,w,Psychologie,2023-01-31_10h36.43.512,00_bat_bachelor,2022.2.4,59.95587247785864,
,,,,,,,,,,,,0,0,0,0,88,0,88,0,,,,,,,88,,,1,3474.6842642424244,Y,l,go,l,1,0.4638229696971621,,,,,,,,,,,,,,,,,,84,001,22,w,Psychologie,2023-01-31_10h36.43.512,00_bat_bachelor,2022.2.4,59.95587247785864,
,,,,,,,,,,,,0,0,0,0,89,0,89,0,,,,,,,89,,,1,3476.252012606061,Y,None,nogo,None,1,,,,,,,,,,,,,,,,,,,84,001,22,w,Psychologie,2023-01-31_10h36.43.512,00_bat_bachelor,2022.2.4,59.95587247785864,
,,,,,,,,,,,,0,0,0,0,90,0,90,0,,,,,,,90,,,1,3478.0533663030305,X,d,go,d,1,0.3411243030305968,,,,,,,,,,,,,,,,,,84,001,22,w,Psychologie,2023-01-31_10h36.43.512,00_bat_bachelor,2022.2.4,59.95587247785864,
,,,,,,,,,,,,0,0,0,0,91,0,91,0,,,,,,,91,,,1,3479.5210972121213,Y,l,go,l,1,0.36218515151551856,,,,,,,,,,,,,,,,,,84,001,22,w,Psychologie,2023-01-31_10h36.43.512,00_bat_bachelor,2022.2.4,59.95587247785864,
,,,,,,,,,,,,0,0,0,0,92,0,92,0,,,,,,,92,,,1,3480.988944969697,Y,None,nogo,l,0,0.6380411515152673,,,,,,,,,,,,,,,,,,84,001,22,w,Psychologie,2023-01-31_10h36.43.512,00_bat_bachelor,2022.2.4,59.95587247785864,
,,,,,,,,,,,,0,0,0,0,93,0,93,0,,,,,,,93,,,1,3482.740245818182,X,d,go,d,1,0.47091096969700175,,,,,,,,,,,,,,,,,,84,001,22,w,Psychologie,2023-01-31_10h36.43.512,00_bat_bachelor,2022.2.4,59.95587247785864,
,,,,,,,,,,,,0,0,0,0,94,0,94,0,,,,,,,94,,,1,3484.3247776969697,Y,l,go,l,1,0.5017841818181523,,,,,,,,,,,,,,,,,,84,001,22,w,Psychologie,2023-01-31_10h36.43.512,00_bat_bachelor,2022.2.4,59.95587247785864,
,,,,,,,,,,,,0,0,0,0,95,0,95,0,,,,,,,95,,,1,3485.9424121212123,X,d,go,d,1,0.3730438181815998,,,,,,,,,,,,,,,,,,84,001,22,w,Psychologie,2023-01-31_10h36.43.512,00_bat_bachelor,2022.2.4,59.95587247785864,
,,,,,,,,,,,,0,0,0,0,96,0,96,0,,,,,,,96,,,1,3487.4270783030306,X,None,nogo,d,0,0.39262830303061946,,,,,,,,,,,,,,,,,,84,001,22,w,Psychologie,2023-01-31_10h36.43.512,00_bat_bachelor,2022.2.4,59.95587247785864,
,,,,,,,,,,,,0,0,0,0,97,0,97,0,,,,,,,97,,,1,3488.9280145454545,Y,l,go,l,1,0.34682515151519056,,,,,,,,,,,,,,,,,,84,001,22,w,Psychologie,2023-01-31_10h36.43.512,00_bat_bachelor,2022.2.4,59.95587247785864,
,,,,,,,,,,,,0,0,0,0,98,0,98,0,,,,,,,98,,,1,3490.3793672727274,X,d,go,d,1,0.49663024242420306,,,,,,,,,,,,,,,,,,84,001,22,w,Psychologie,2023-01-31_10h36.43.512,00_bat_bachelor,2022.2.4,59.95587247785864,
,,,,,,,,,,,,0,0,0,0,99,0,99,0,,,,,,,99,,,1,3491.980288,X,None,nogo,None,1,,,,,,,,,,,,,,,,,,,84,001,22,w,Psychologie,2023-01-31_10h36.43.512,00_bat_bachelor,2022.2.4,59.95587247785864,
,,,,,,,,,,,,0,0,0,0,100,0,100,0,,,,,,,100,,,1,3493.78164169697,X,None,nogo,None,1,,,,,,,,,,,,,,,,,,,84,001,22,w,Psychologie,2023-01-31_10h36.43.512,00_bat_bachelor,2022.2.4,59.95587247785864,
,,,,,,,,,,,,0,0,0,0,101,0,101,0,,,,,,,101,,,1,3495.5832344242426,Y,l,go,l,1,0.25120090909115333,,,,,,,,,,,,,,,,,,84,001,22,w,Psychologie,2023-01-31_10h36.43.512,00_bat_bachelor,2022.2.4,59.95587247785864,
,,,,,,,,,,,,0,0,0,0,102,0,102,0,,,,,,,102,,,1,3496.9512135757577,X,d,go,d,1,0.38797812121231345,,,,,,,,,,,,,,,,,,84,001,22,w,Psychologie,2023-01-31_10h36.43.512,00_bat_bachelor,2022.2.4,59.95587247785864,
,,,,,,,,,,,,0,0,0,0,103,0,103,0,,,,,,,103,,,1,3498.452263757576,Y,l,go,l,1,0.3595563030304447,,,,,,,,,,,,,,,,,,84,001,22,w,Psychologie,2023-01-31_10h36.43.512,00_bat_bachelor,2022.2.4,59.95587247785864,
,,,,,,,,,,,,0,0,0,0,104,0,104,0,,,,,,,104,,,1,3499.919968969697,X,d,go,d,1,0.29873739393963206,,,,,,,,,,,,,,,,,,84,001,22,w,Psychologie,2023-01-31_10h36.43.512,00_bat_bachelor,2022.2.4,59.95587247785864,
,,,,,,,,,,,,0,0,0,0,105,0,105,0,,,,,,,105,,,1,3501.321073939394,X,None,nogo,None,1,,,,,,,,,,,,,,,,,,,84,001,22,w,Psychologie,2023-01-31_10h36.43.512,00_bat_bachelor,2022.2.4,59.95587247785864,
,,,,,,,,,,,,0,0,0,0,106,0,106,0,,,,,,,106,,,1,3503.1221212121213,Y,l,go,l,1,0.3296227272727492,,,,,,,,,,,,,,,,,,84,001,22,w,Psychologie,2023-01-31_10h36.43.512,00_bat_bachelor,2022.2.4,59.95587247785864,
,,,,,,,,,,,,0,0,0,0,107,0,107,0,,,,,,,107,,,1,3504.5568446060606,X,d,go,d,1,0.43008672727330577,,,,,,,,,,,,,,,,,,84,001,22,w,Psychologie,2023-01-31_10h36.43.512,00_bat_bachelor,2022.2.4,59.95587247785864,
,,,,,,,,,,,,0,0,0,0,108,0,108,0,,,,,,,108,,,1,3506.0913861818185,Y,l,go,l,1,0.415603333333479,,,,,,,,,,,,,,,,,,84,001,22,w,Psychologie,2023-01-31_10h36.43.512,00_bat_bachelor,2022.2.4,59.95587247785864,
,,,,,,,,,,,,0,0,0,0,109,0,109,0,,,,,,,109,,,1,3507.6089076363637,Y,None,nogo,l,0,0.43345690909075074,,,,,,,,,,,,,,,,,,84,001,22,w,Psychologie,2023-01-31_10h36.43.512,00_bat_bachelor,2022.2.4,59.95587247785864,
,,,,,,,,,,,,0,0,0,0,110,0,110,0,,,,,,,110,,,1,3509.14367369697,X,d,go,d,1,0.4506942424246745,,,,,,,,,,,,,,,,,,84,001,22,w,Psychologie,2023-01-31_10h36.43.512,00_bat_bachelor,2022.2.4,59.95587247785864,
,,,,,,,,,,,,0,0,0,0,111,0,111,0,,,,,,,111,,,1,3510.711576727273,Y,l,go,l,1,0.5153982424245669,,,,,,,,,,,,,,,,,,84,001,22,w,Psychologie,2023-01-31_10h36.43.512,00_bat_bachelor,2022.2.4,59.95587247785864,
,,,,,,,,,,,,0,0,0,0,112,0,112,0,,,,,,,112,,,1,3512.3293541818184,X,d,go,d,1,0.46485230303017033,,,,,,,,,,,,,,,,,,84,001,22,w,Psychologie,2023-01-31_10h36.43.512,00_bat_bachelor,2022.2.4,59.95587247785864,
,,,,,,,,,,,,0,0,0,0,113,0,113,0,,,,,,,113,,,1,3513.897332848485,Y,l,go,l,1,0.4012969090910019,,,,,,,,,,,,,,,,,,84,001,22,w,Psychologie,2023-01-31_10h36.43.512,00_bat_bachelor,2022.2.4,59.95587247785864,
,,,,,,,,,,,,0,0,0,0,114,0,114,0,,,,,,,114,,,1,3515.3985469090912,X,d,go,d,1,0.40354418181834717,,,,,,,,,,,,,,,,,,84,001,22,w,Psychologie,2023-01-31_10h36.43.512,00_bat_bachelor,2022.2.4,59.95587247785864,
,,,,,,,,,,,,0,0,0,0,115,0,115,0,,,,,,,115,,,1,3516.91640969697,X,None,nogo,None,1,,,,,,,,,,,,,,,,,,,84,001,22,w,Psychologie,2023-01-31_10h36.43.512,00_bat_bachelor,2022.2.4,59.95587247785864,
,,,,,,,,,,,,0,0,0,0,116,0,116,0,,,,,,,116,,,1,3518.717970909091,Y,l,go,l,1,0.25248236363643173,,,,,,,,,,,,,,,,,,84,001,22,w,Psychologie,2023-01-31_10h36.43.512,00_bat_bachelor,2022.2.4,59.95587247785864,
,,,,,,,,,,,,0,0,0,0,117,0,117,0,,,,,,,117,,,1,3520.0853890909093,X,d,go,d,1,0.549134484848878,,,,,,,,,,,,,,,,,,84,001,22,w,Psychologie,2023-01-31_10h36.43.512,00_bat_bachelor,2022.2.4,59.95587247785864,
,,,,,,,,,,,,0,0,0,0,118,0,118,0,,,,,,,118,,,1,3521.7363044848485,Y,l,go,l,1,0.33851242424236716,,,,,,,,,,,,,,,,,,84,001,22,w,Psychologie,2023-01-31_10h36.43.512,00_bat_bachelor,2022.2.4,59.95587247785864,
,,,,,,,,,,,,0,0,0,0,119,0,119,0,,,,,,,119,,,1,3523.188121212121,X,d,go,d,1,0.39046733333327666,,,,,,,,,,,,,,,,,,84,001,22,w,Psychologie,2023-01-31_10h36.43.512,00_bat_bachelor,2022.2.4,59.95587247785864,
,,,,,,,,,,,,0,0,0,0,120,0,120,0,,,,,,,120,,,1,3524.68884169697,X,None,nogo,None,1,,,,,,,,,,,,,,,,,,,84,001,22,w,Psychologie,2023-01-31_10h36.43.512,00_bat_bachelor,2022.2.4,59.95587247785864,
,,,,,,,,,,,,0,0,0,0,121,0,121,0,,,,,,,121,,,1,3526.490232727273,X,None,nogo,None,1,,,,,,,,,,,,,,,,,,,84,001,22,w,Psychologie,2023-01-31_10h36.43.512,00_bat_bachelor,2022.2.4,59.95587247785864,
,,,,,,,,,,,,0,0,0,0,122,0,122,0,,,,,,,122,,,1,3528.291653818182,Y,l,go,l,1,0.15130709090919936,,,,,,,,,,,,,,,,,,84,001,22,w,Psychologie,2023-01-31_10h36.43.512,00_bat_bachelor,2022.2.4,59.95587247785864,
,,,,,,,,,,,,0,0,0,0,123,0,123,0,,,,,,,123,,,1,3529.559219878788,X,d,go,d,1,0.35554660606078414,,,,,,,,,,,,,,,,,,84,001,22,w,Psychologie,2023-01-31_10h36.43.512,00_bat_bachelor,2022.2.4,59.95587247785864,
,,,,,,,,,,,,0,0,0,0,124,0,124,0,,,,,,,124,,,1,3531.0267253333336,Y,l,go,l,1,0.29561739393932385,,,,,,,,,,,,,,,,,,84,001,22,w,Psychologie,2023-01-31_10h36.43.512,00_bat_bachelor,2022.2.4,59.95587247785864,
,,,,,,,,,,,,0,0,0,0,125,0,125,0,,,,,,,125,,,1,3532.428093575758,X,d,go,d,1,0.28613084848495873,,,,,,,,,,,,,,,,,,84,001,22,w,Psychologie,2023-01-31_10h36.43.512,00_bat_bachelor,2022.2.4,59.95587247785864,
,,,,,,,,,,,,0,0,0,0,126,0,126,0,,,,,,,126,,,1,3533.8288513939397,X,None,nogo,None,1,,,,,3534.6294821818183,,,,,,,,,,,,,,84,001,22,w,Psychologie,2023-01-31_10h36.43.512,00_bat_bachelor,2022.2.4,59.95587247785864,
,,,,,,,,,,,,0,0,0,0,127,0,127,0,,,,,,,127,,,1,3535.6305803636365,Y,l,go,l,1,0.412769393939584,,,,,,,,,,,,,,,,,,84,001,22,w,Psychologie,2023-01-31_10h36.43.512,00_bat_bachelor,2022.2.4,59.95587247785864,
,,,,,,,,,,,,0,0,0,0,128,0,128,0,,,,,,,128,,,1,3537.148291878788,X,d,go,d,1,0.4148198181820817,,,,,,,,,,,,,,,,,,84,001,22,w,Psychologie,2023-01-31_10h36.43.512,00_bat_bachelor,2022.2.4,59.95587247785864,
,,,,,,,,,,,,0,0,0,0,129,0,129,0,,,,,,,129,,,1,3538.665930666667,X,None,nogo,None,1,,,,,,,,,,,,,,,,,,,84,001,22,w,Psychologie,2023-01-31_10h36.43.512,00_bat_bachelor,2022.2.4,59.95587247785864,
,,,,,,,,,,,,0,0,0,0,130,0,130,0,,,,,,,130,,,1,3540.467564121212,Y,l,go,l,1,0.31233157575763926,,,,,,,,,,,,,,,,,,84,001,22,w,Psychologie,2023-01-31_10h36.43.512,00_bat_bachelor,2022.2.4,59.95587247785864,
,,,,,,,,,,,,0,0,0,0,131,0,131,0,,,,,,,131,,,1,3541.88501769697,X,d,go,d,1,0.49379242424231506,,,,,,,,,,,,,,,,,,84,001,22,w,Psychologie,2023-01-31_10h36.43.512,00_bat_bachelor,2022.2.4,59.95587247785864,
,,,,,,,,,,,,0,0,0,0,132,0,132,0,,,,,,,132,,,1,3543.486319030303,Y,l,go,l,1,0.34821084848510964,,,,,,,,,,,,,,,,,,84,001,22,w,Psychologie,2023-01-31_10h36.43.512,00_bat_bachelor,2022.2.4,59.95587247785864,
,,,,,,,,,,,,0,0,0,0,133,0,133,0,,,,,,,133,,,1,3544.937453575758,Y,None,nogo,None,1,,,,,,,,,,,,,,,,,,,84,001,22,w,Psychologie,2023-01-31_10h36.43.512,00_bat_bachelor,2022.2.4,59.95587247785864,
,,,,,,,,,,,,0,0,0,0,134,0,134,0,,,,,,,134,,,1,3546.7386812121213,X,d,go,d,1,0.3442559393939746,,,,,,,,,,,,,,,,,,84,001,22,w,Psychologie,2023-01-31_10h36.43.512,00_bat_bachelor,2022.2.4,59.95587247785864,
,,,,,,,,,,,,0,0,0,0,135,0,135,0,,,,,,,135,,,1,3548.1898065454548,Y,l,go,l,1,0.38160430303025805,,,,,,,,,,,,,,,,,,84,001,22,w,Psychologie,2023-01-31_10h36.43.512,00_bat_bachelor,2022.2.4,59.95587247785864,
,,,,,,,,,,,,0,0,0,0,136,0,136,0,,,,,,,136,,,1,3549.6744591515153,Y,None,nogo,None,1,,,,,3550.4750574545455,,,,,,,,,,,,,,84,001,22,w,Psychologie,2023-01-31_10h36.43.512,00_bat_bachelor,2022.2.4,59.95587247785864,
,,,,,,,,,,,,0,0,0,0,137,0,137,0,,,,,,,137,,,1,3551.4756349090912,X,d,go,d,1,0.3441177575761003,,,,,,,,,,,,,,,,,,84,001,22,w,Psychologie,2023-01-31_10h36.43.512,00_bat_bachelor,2022.2.4,59.95587247785864,
,,,,,,,,,,,,0,0,0,0,138,0,138,0,,,,,,,138,,,1,3552.927055030303,Y,l,go,l,1,0.5402064848486816,,,,,,,,,,,,,,,,,,84,001,22,w,Psychologie,2023-01-31_10h36.43.512,00_bat_bachelor,2022.2.4,59.95587247785864,
,,,,,,,,,,,,0,0,0,0,139,0,139,0,,,,,,,139,,,1,3554.57834569697,X,d,go,d,1,0.472704909090794,,,,,,,,,,,,,,,,,,84,001,22,w,Psychologie,2023-01-31_10h36.43.512,00_bat_bachelor,2022.2.4,59.95587247785864,
,,,,,,,,,,,,0,0,0,0,140,0,140,0,,,,,,,140,,,1,3556.162772848485,Y,l,go,l,1,0.2810617575756851,,,,,,,,,,,,,,,,,,84,001,22,w,Psychologie,2023-01-31_10h36.43.512,00_bat_bachelor,2022.2.4,59.95587247785864,
,,,,,,,,,,,,0,0,0,0,141,0,141,0,,,,,,,141,,,1,3557.5469372121215,X,d,go,d,1,0.30323630303030313,,,,,,,,,,,,,,,,,,84,001,22,w,Psychologie,2023-01-31_10h36.43.512,00_bat_bachelor,2022.2.4,59.95587247785864,
,,,,,,,,,,,,0,0,0,0,142,0,142,0,,,,,,,142,,,1,3558.9648853333333,Y,l,go,l,1,0.5503456363641135,,,,,,,,,,,,,,,,,,84,001,22,w,Psychologie,2023-01-31_10h36.43.512,00_bat_bachelor,2022.2.4,59.95587247785864,
,,,,,,,,,,,,0,0,0,0,143,0,143,0,,,,,,,143,,,1,3560.616203636364,X,d,go,d,1,0.43401787878804043,,,,,,,,,,,,,,,,,,84,001,22,w,Psychologie,2023-01-31_10h36.43.512,00_bat_bachelor,2022.2.4,59.95587247785864,
,,,,,,,,,,,,0,0,0,0,144,0,144,0,,,,,,,144,,,1,3562.15071369697,X,None,nogo,None,1,,,,,,,,,,,,,,,,,,,84,001,22,w,Psychologie,2023-01-31_10h36.43.512,00_bat_bachelor,2022.2.4,59.95587247785864,
,,,,,,,,,,,,0,0,0,0,145,0,145,0,,,,,,,145,,,1,3563.9520155151517,Y,l,go,l,1,0.4589754545455662,,,,,,,,,,,,,,,,,,84,001,22,w,Psychologie,2023-01-31_10h36.43.512,00_bat_bachelor,2022.2.4,59.95587247785864,
,,,,,,,,,,,,0,0,0,0,146,0,146,0,,,,,,,146,,,1,3565.5200504242425,X,d,go,d,1,0.6510491515151671,,,,,,,,,,,,,,,,,,84,001,22,w,Psychologie,2023-01-31_10h36.43.512,00_bat_bachelor,2022.2.4,59.95587247785864,
,,,,,,,,,,,,0,0,0,0,147,0,147,0,,,,,,,147,,,1,3567.2878385454546,X,None,nogo,None,1,,,,,,,,,,,,,,,,,,,84,001,22,w,Psychologie,2023-01-31_10h36.43.512,00_bat_bachelor,2022.2.4,59.95587247785864,
,,,,,,,,,,,,0,0,0,0,148,0,148,0,,,,,,,148,,,1,3569.089418666667,Y,l,go,l,1,0.29736284848524974,,,,,,,,,,,,,,,,,,84,001,22,w,Psychologie,2023-01-31_10h36.43.512,00_bat_bachelor,2022.2.4,59.95587247785864,
,,,,,,,,,,,,0,0,0,0,149,0,149,0,,,,,,,149,,,1,3570.4905071515154,X,d,go,d,1,0.5618045454544927,,,,,,,,,,,,,,,,,,84,001,22,w,Psychologie,2023-01-31_10h36.43.512,00_bat_bachelor,2022.2.4,59.95587247785864,
,,,,,,,,,,,,0,0,0,0,150,0,150,0,,,,,,,150,,,1,3572.1584373333335,Y,l,go,l,1,0.5247480606063846,,,,,,,,,,,,,,,,,,84,001,22,w,Psychologie,2023-01-31_10h36.43.512,00_bat_bachelor,2022.2.4,59.95587247785864,
,,,,,,,,,,,,0,0,0,0,151,0,151,0,,,,,,,151,,,1,3573.792960969697,X,d,go,d,1,0.346252060606389,,,,,,,,,,,,,,,,,,84,001,22,w,Psychologie,2023-01-31_10h36.43.512,00_bat_bachelor,2022.2.4,59.95587247785864,
,,,,,,,,,,,,0,0,0,0,152,0,152,0,,,,,,,152,,,1,3575.2439956363637,X,None,nogo,None,1,,,,,,,,,,,,,,,,,,,84,001,22,w,Psychologie,2023-01-31_10h36.43.512,00_bat_bachelor,2022.2.4,59.95587247785864,
,,,,,,,,,,,,0,0,0,0,153,0,153,0,,,,,,,153,,,1,3577.0454564848487,Y,l,go,l,1,0.3092450303034866,,,,,,,,,,,,,,,,,,84,001,22,w,Psychologie,2023-01-31_10h36.43.512,00_bat_bachelor,2022.2.4,59.95587247785864,
,,,,,,,,,,,,0,0,0,0,154,0,154,0,,,,,,,154,,,1,3578.463236848485,X,d,go,d,1,0.4921143636366878,,,,,,,,,,,,,,,,,,84,001,22,w,Psychologie,2023-01-31_10h36.43.512,00_bat_bachelor,2022.2.4,59.95587247785864,
,,,,,,,,,,,,0,0,0,0,155,0,155,0,,,,,,,155,,,1,3580.0641003636365,X,None,nogo,None,1,,,,,,,,,,,,,,,,,,,84,001,22,w,Psychologie,2023-01-31_10h36.43.512,00_bat_bachelor,2022.2.4,59.95587247785864,
,,,,,,,,,,,,0,0,0,0,156,0,156,0,,,,,,,156,,,1,3581.8654724848484,Y,l,go,l,1,0.35338660606078065,,,,,,,,,,,,,,,,,,84,001,22,w,Psychologie,2023-01-31_10h36.43.512,00_bat_bachelor,2022.2.4,59.95587247785864,
,,,,,,,,,,,,0,0,0,0,157,0,157,0,,,,,,,157,,,1,3583.333641212121,X,d,go,d,1,0.5011252727273359,,,,,,,,,,,,,,,,,,84,001,22,w,Psychologie,2023-01-31_10h36.43.512,00_bat_bachelor,2022.2.4,59.95587247785864,
,,,,,,,,,,,,0,0,0,0,158,0,158,0,,,,,,,158,,,1,3584.951488969697,X,None,nogo,None,1,,,,,,,,,,,,,,,,,,,84,001,22,w,Psychologie,2023-01-31_10h36.43.512,00_bat_bachelor,2022.2.4,59.95587247785864,
,,,,,,,,,,,,0,0,0,0,159,0,159,0,,,,,,,159,,,1,3586.752782060606,Y,l,go,l,1,0.2987272121214346,,,,,,,,,,,,,,,,,,84,001,22,w,Psychologie,2023-01-31_10h36.43.512,00_bat_bachelor,2022.2.4,59.95587247785864,
,,,,,,,,,,,,0,0,0,0,160,0,160,0,,,,,,,160,,,1,3588.153972848485,X,d,go,d,1,0.4162835757575749,,,,,,,,,,,,,,,,,,84,001,22,w,Psychologie,2023-01-31_10h36.43.512,00_bat_bachelor,2022.2.4,59.95587247785864,
,,,,,,,,,,,,0,0,0,0,161,0,161,0,,,,,,,161,,,1,3589.671858909091,Y,l,go,l,1,0.3558287878787496,,,,,,,,,,,,,,,,,,84,001,22,w,Psychologie,2023-01-31_10h36.43.512,00_bat_bachelor,2022.2.4,59.95587247785864,
,,,,,,,,,,,,0,0,0,0,162,0,162,0,,,,,,,162,,,1,3591.1394176969698,Y,None,nogo,None,1,,,,,,,,,,,,,,,,,,,84,001,22,w,Psychologie,2023-01-31_10h36.43.512,00_bat_bachelor,2022.2.4,59.95587247785864,
,,,,,,,,,,,,0,0,0,0,163,0,163,0,,,,,,,163,,,1,3592.940881939394,X,d,go,d,1,0.3825473333337186,,,,,,,,,,,,,,,,,,84,001,22,w,Psychologie,2023-01-31_10h36.43.512,00_bat_bachelor,2022.2.4,59.95587247785864,
,,,,,,,,,,,,0,0,0,0,164,0,164,0,,,,,,,164,,,1,3594.425265939394,Y,l,go,l,1,0.4332236969700034,,,,,,,,,,,,,,,,,,84,001,22,w,Psychologie,2023-01-31_10h36.43.512,00_bat_bachelor,2022.2.4,59.95587247785864,
,,,,,,,,,,,,0,0,0,0,165,0,165,0,,,,,,,165,,,1,3595.959549090909,X,d,go,d,1,0.3866787272733063,,,,,,,,,,,,,,,,,,84,001,22,w,Psychologie,2023-01-31_10h36.43.512,00_bat_bachelor,2022.2.4,59.95587247785864,
,,,,,,,,,,,,0,0,0,0,166,0,166,0,,,,,,,166,,,1,3597.4610157575758,Y,l,go,l,1,0.26140260606064203,,,,,,,,,,,,,,,,,,84,001,22,w,Psychologie,2023-01-31_10h36.43.512,00_bat_bachelor,2022.2.4,59.95587247785864,
,,,,,,,,,,,,0,0,0,0,167,0,167,0,,,,,,,167,,,1,3598.8286981818183,X,d,go,d,1,0.3496750909094999,,,,,,,,,,,,,,,,,,84,001,22,w,Psychologie,2023-01-31_10h36.43.512,00_bat_bachelor,2022.2.4,59.95587247785864,
,,,,,,,,,,,,0,0,0,0,168,0,168,0,,,,,,,168,,,1,3600.279769212121,Y,l,go,l,1,0.2755834545456537,,,,,,,,,,,,,,,,,,84,001,22,w,Psychologie,2023-01-31_10h36.43.512,00_bat_bachelor,2022.2.4,59.95587247785864,
,,,,,,,,,,,,0,0,0,0,169,0,169,0,,,,,,,169,,,1,3601.6638734545454,Y,None,nogo,None,1,,,,,,,,,,,,,,,,,,,84,001,22,w,Psychologie,2023-01-31_10h36.43.512,00_bat_bachelor,2022.2.4,59.95587247785864,
,,,,,,,,,,,,0,0,0,0,170,0,170,0,,,,,,,170,,,1,3603.465674666667,Y,None,nogo,l,0,0.33677472727288205,,,,,,,,,,,,,,,,,,84,001,22,w,Psychologie,2023-01-31_10h36.43.512,00_bat_bachelor,2022.2.4,59.95587247785864,
,,,,,,,,,,,,0,0,0,0,171,0,171,0,,,,,,,171,,,1,3604.9166870303034,X,d,go,d,1,0.4068949696971913,,,,,,,,,,,,,,,,,,84,001,22,w,Psychologie,2023-01-31_10h36.43.512,00_bat_bachelor,2022.2.4,59.95587247785864,
,,,,,,,,,,,,0,0,0,0,172,0,172,0,,,,,,,172,,,1,3606.4342060606064,Y,l,go,l,1,0.39365715151518543,,,,,,,,,,,,,,,,,,84,001,22,w,Psychologie,2023-01-31_10h36.43.512,00_bat_bachelor,2022.2.4,59.95587247785864,
,,,,,,,,,,,,0,0,0,0,173,0,173,0,,,,,,,173,,,1,3607.935666909091,Y,None,nogo,None,1,,,,,,,,,,,,,,,,,,,84,001,22,w,Psychologie,2023-01-31_10h36.43.512,00_bat_bachelor,2022.2.4,59.95587247785864,
,,,,,,,,,,,,0,0,0,0,174,0,174,0,,,,,,,174,,,1,3609.7369595151517,X,d,go,d,1,0.29001157575760317,,,,,,,,,,,,,,,,,,84,001,22,w,Psychologie,2023-01-31_10h36.43.512,00_bat_bachelor,2022.2.4,59.95587247785864,
,,,,,,,,,,,,0,0,0,0,175,0,175,0,,,,,,,175,,,1,3611.13778569697,Y,l,go,l,1,0.3772857575755779,,,,,,,,,,,,,,,,,,84,001,22,w,Psychologie,2023-01-31_10h36.43.512,00_bat_bachelor,2022.2.4,59.95587247785864,
,,,,,,,,,,,,0,0,0,0,176,0,176,0,,,,,,,176,,,1,3612.6225910303033,X,d,go,d,1,0.44432818181815037,,,,,,,,,,,,,,,,,,84,001,22,w,Psychologie,2023-01-31_10h36.43.512,00_bat_bachelor,2022.2.4,59.95587247785864,
,,,,,,,,,,,,0,0,0,0,177,0,177,0,,,,,,,177,,,1,3614.173744969697,X,None,nogo,None,1,,,,,,,,,,,,,,,,,,,84,001,22,w,Psychologie,2023-01-31_10h36.43.512,00_bat_bachelor,2022.2.4,59.95587247785864,
,,,,,,,,,,,,0,0,0,0,178,0,178,0,,,,,,,178,,,1,3615.97514230303,Y,l,go,l,1,0.45178369696952814,,,,,,,,,,,,,,,,,,84,001,22,w,Psychologie,2023-01-31_10h36.43.512,00_bat_bachelor,2022.2.4,59.95587247785864,
,,,,,,,,,,,,0,0,0,0,179,0,179,0,,,,,,,179,,,1,3617.542912484849,X,d,go,d,1,0.5002181212122423,,,,,,,,,,,,,,,,,,84,001,22,w,Psychologie,2023-01-31_10h36.43.512,00_bat_bachelor,2022.2.4,59.95587247785864,
,,,,,,,,,,,,0,0,0,0,180,0,180,0,,,,,,,180,,,1,3619.1442356363636,Y,l,go,l,1,0.2911097575762369,,,,,,,,,,,,,,,,,,84,001,22,w,Psychologie,2023-01-31_10h36.43.512,00_bat_bachelor,2022.2.4,59.95587247785864,
,,,,,,,,,,,,0,0,0,0,181,0,181,0,,,,,,,181,,,1,3620.544963878788,X,d,go,d,1,0.4420687878788385,,,,,,,,,,,,,,,,,,84,001,22,w,Psychologie,2023-01-31_10h36.43.512,00_bat_bachelor,2022.2.4,59.95587247785864,
,,,,,,,,,,,,0,0,0,0,182,0,182,0,,,,,,,182,,,1,3622.0965250909094,Y,l,go,l,1,0.3777778787881516,,,,,,,,,,,,,,,,,,84,001,22,w,Psychologie,2023-01-31_10h36.43.512,00_bat_bachelor,2022.2.4,59.95587247785864,
,,,,,,,,,,,,0,0,0,0,183,0,183,0,,,,,,,183,,,1,3623.5808722424244,X,d,go,d,1,0.5107155757578994,,,,,,,,,,,,,,,,,,84,001,22,w,Psychologie,2023-01-31_10h36.43.512,00_bat_bachelor,2022.2.4,59.95587247785864,
,,,,,,,,,,,,0,0,0,0,184,0,184,0,,,,,,,184,,,1,3625.198852848485,Y,l,go,l,1,0.36446200000011686,,,,,,,,,,,,,,,,,,84,001,22,w,Psychologie,2023-01-31_10h36.43.512,00_bat_bachelor,2022.2.4,59.95587247785864,
,,,,,,,,,,,,0,0,0,0,185,0,185,0,,,,,,,185,,,1,3626.6666574545457,Y,None,nogo,None,1,,,,,3627.467158787879,,,,,,,,,,,,,,84,001,22,w,Psychologie,2023-01-31_10h36.43.512,00_bat_bachelor,2022.2.4,59.95587247785864,
,,,,,,,,,,,,0,0,0,0,186,0,186,0,,,,,,,186,,,1,3628.4680232727274,X,d,go,d,1,0.2943383636362569,,,,,,,,,,,,,,,,,,84,001,22,w,Psychologie,2023-01-31_10h36.43.512,00_bat_bachelor,2022.2.4,59.95587247785864,
,,,,,,,,,,,,0,0,0,0,187,0,187,0,,,,,,,187,,,1,3629.8690254545454,Y,l,go,l,1,0.49466272727261185,,,,,,,,,,,,,,,,,,84,001,22,w,Psychologie,2023-01-31_10h36.43.512,00_bat_bachelor,2022.2.4,59.95587247785864,
,,,,,,,,,,,,0,0,0,0,188,0,188,0,,,,,,,188,,,1,3631.470288,X,d,go,d,1,0.2519795757581278,,,,,,,,,,,,,,,,,,84,001,22,w,Psychologie,2023-01-31_10h36.43.512,00_bat_bachelor,2022.2.4,59.95587247785864,
,,,,,,,,,,,,0,0,0,0,189,0,189,0,,,,,,,189,,,1,3632.8379883636367,Y,l,go,l,1,0.3093211515152916,,,,,,,,,,,,,,,,,,84,001,22,w,Psychologie,2023-01-31_10h36.43.512,00_bat_bachelor,2022.2.4,59.95587247785864,
,,,,,,,,,,,,0,0,0,0,190,0,190,0,,,,,,,190,,,1,3634.2557250909094,Y,None,nogo,None,1,,,,,,,,,,,,,,,,,,,84,001,22,w,Psychologie,2023-01-31_10h36.43.512,00_bat_bachelor,2022.2.4,59.95587247785864,
,,,,,,,,,,,,0,0,0,0,191,0,191,0,,,,,,,191,,,1,3636.0571806060607,X,d,go,d,1,0.40121303030321087,,,,,,,,,,,,,,,,,,84,001,22,w,Psychologie,2023-01-31_10h36.43.512,00_bat_bachelor,2022.2.4,59.95587247785864,
,,,,,,,,,,,,0,0,0,0,192,0,192,0,,,,,,,192,,,1,3637.5749304242427,Y,l,go,l,1,0.5319359393939749,,,,,,,,,,,,,,,,,,84,001,22,w,Psychologie,2023-01-31_10h36.43.512,00_bat_bachelor,2022.2.4,59.95587247785864,
,,,,,,,,,,,,0,0,0,0,193,0,193,0,,,,,,,193,,,1,3639.209184969697,Y,None,nogo,None,1,,,,,,,,,,,,,,,,,,,84,001,22,w,Psychologie,2023-01-31_10h36.43.512,00_bat_bachelor,2022.2.4,59.95587247785864,
,,,,,,,,,,,,0,0,0,0,194,0,194,0,,,,,,,194,,,1,3641.0105764848486,X,d,go,d,1,0.2649007878791281,,,,,,,,,,,,,,,,,,84,001,22,w,Psychologie,2023-01-31_10h36.43.512,00_bat_bachelor,2022.2.4,59.95587247785864,
,,,,,,,,,,,,0,0,0,0,195,0,195,0,,,,,,,195,,,1,3642.3782656969697,Y,l,go,l,1,0.2719756969701166,,,,,,,,,,,,,,,,,,84,001,22,w,Psychologie,2023-01-31_10h36.43.512,00_bat_bachelor,2022.2.4,59.95587247785864,
,,,,,,,,,,,,0,0,0,0,196,0,196,0,,,,,,,196,,,1,3643.7630273939394,Y,None,nogo,None,1,,,,,,,,,,,,,,,,,,,84,001,22,w,Psychologie,2023-01-31_10h36.43.512,00_bat_bachelor,2022.2.4,59.95587247785864,
,,,,,,,,,,,,0,0,0,0,197,0,197,0,,,,,,,197,,,1,3645.5645265454546,X,d,go,d,1,0.4786821212120458,,,,,,,,,,,,,,,,,,84,001,22,w,Psychologie,2023-01-31_10h36.43.512,00_bat_bachelor,2022.2.4,59.95587247785864,
,,,,,,,,,,,,0,0,0,0,198,0,198,0,,,,,,,198,,,1,3647.1488814545455,Y,l,go,l,1,0.3988430909090539,,,,,,,,,,,,,,,,,,84,001,22,w,Psychologie,2023-01-31_10h36.43.512,00_bat_bachelor,2022.2.4,59.95587247785864,
,,,,,,,,,,,,0,0,0,0,199,0,199,0,,,,,,,199,,,1,3648.6500184242427,X,d,go,d,1,0.4490108484852726,,,,,,,,,,,,,,,,,,84,001,22,w,Psychologie,2023-01-31_10h36.43.512,00_bat_bachelor,2022.2.4,59.95587247785864,
,,,,,,,,,,,,0,0,0,0,200,0,200,0,,,,,,,200,,,1,3650.200895515152,X,None,nogo,None,1,,,,,,,,,,,,,,,,,,,84,001,22,w,Psychologie,2023-01-31_10h36.43.512,00_bat_bachelor,2022.2.4,59.95587247785864,
,,,,,,,,,,,,0,0,0,0,201,0,201,0,,,,,,,201,,,1,3652.0026414545455,Y,l,go,l,1,0.4239529090910992,,,,,,,,,,,,,,,,,,84,001,22,w,Psychologie,2023-01-31_10h36.43.512,00_bat_bachelor,2022.2.4,59.95587247785864,
,,,,,,,,,,,,0,0,0,0,202,0,202,0,,,,,,,202,,,1,3653.5372164848486,X,d,go,d,1,0.4259068484849422,,,,,,,,,,,,,,,,,,84,001,22,w,Psychologie,2023-01-31_10h36.43.512,00_bat_bachelor,2022.2.4,59.95587247785864,
,,,,,,,,,,,,0,0,0,0,203,0,203,0,,,,,,,203,,,1,3655.0712780606063,X,None,nogo,None,1,,,,,,,,,,,,,,,,,,,84,001,22,w,Psychologie,2023-01-31_10h36.43.512,00_bat_bachelor,2022.2.4,59.95587247785864,
,,,,,,,,,,,,0,0,0,0,204,0,204,0,,,,,,,204,,,1,3656.873008969697,Y,l,go,l,1,0.30597812121197876,,,,,,,,,,,,,,,,,,84,001,22,w,Psychologie,2023-01-31_10h36.43.512,00_bat_bachelor,2022.2.4,59.95587247785864,
,,,,,,,,,,,,0,0,0,0,205,0,205,0,,,,,,,205,,,1,3658.290752969697,X,d,go,d,1,0.5513497575758493,,,,,,,,,,,,,,,,,,84,001,22,w,Psychologie,2023-01-31_10h36.43.512,00_bat_bachelor,2022.2.4,59.95587247785864,
,,,,,,,,,,,,0,0,0,0,206,0,206,0,,,,,,,206,,,1,3659.9586113939395,X,None,nogo,None,1,,,,,,,,,,,,,,,,,,,84,001,22,w,Psychologie,2023-01-31_10h36.43.512,00_bat_bachelor,2022.2.4,59.95587247785864,
,,,,,,,,,,,,0,0,0,0,207,0,207,0,,,,,,,207,,,1,3661.759984969697,Y,l,go,l,1,0.3466476969698533,,,,,,,,,,,,,,,,,,84,001,22,w,Psychologie,2023-01-31_10h36.43.512,00_bat_bachelor,2022.2.4,59.95587247785864,
,,,,,,,,,,,,0,0,0,0,208,0,208,0,,,,,,,208,,,1,3663.2110540606063,X,d,go,d,1,0.4482447878791618,,,,,,,,,,,,,,,,,,84,001,22,w,Psychologie,2023-01-31_10h36.43.512,00_bat_bachelor,2022.2.4,59.95587247785864,
,,,,,,,,,,,,0,0,0,0,209,0,209,0,,,,,,,209,,,1,3664.762,Y,l,go,l,1,0.5290375151517992,,,,,,,,,,,,,,,,,,84,001,22,w,Psychologie,2023-01-31_10h36.43.512,00_bat_bachelor,2022.2.4,59.95587247785864,
,,,,,,,,,,,,0,0,0,0,210,0,210,0,,,,,,,210,,,1,3666.396939151515,X,d,go,d,1,0.3338263636366037,,,,,,,,,,,,,,,,,,84,001,22,w,Psychologie,2023-01-31_10h36.43.512,00_bat_bachelor,2022.2.4,59.95587247785864,
,,,,,,,,,,,,0,0,0,0,211,0,211,0,,,,,,,211,,,1,3667.8480373333337,Y,l,go,l,1,0.43458515151553456,,,,,,,,,,,,,,,,,,84,001,22,w,Psychologie,2023-01-31_10h36.43.512,00_bat_bachelor,2022.2.4,59.95587247785864,
,,,,,,,,,,,,0,0,0,0,212,0,212,0,,,,,,,212,,,1,3669.3989086060606,X,d,go,d,1,0.4189478181821187,,,,,,,,,,,,,,,,,,84,001,22,w,Psychologie,2023-01-31_10h36.43.512,00_bat_bachelor,2022.2.4,59.95587247785864,
,,,,,,,,,,,,0,0,0,0,213,0,213,0,,,,,,,213,,,1,3670.93370569697,X,None,nogo,d,0,0.45338563636380513,,,,,,,,,,,,,,,,,,84,001,22,w,Psychologie,2023-01-31_10h36.43.512,00_bat_bachelor,2022.2.4,59.95587247785864,
,,,,,,,,,,,,0,0,0,0,214,0,214,0,,,,,,,214,,,1,3672.501262060606,Y,l,go,l,1,0.35812115151532,,,,,,,,,,,,,,,,,,84,001,22,w,Psychologie,2023-01-31_10h36.43.512,00_bat_bachelor,2022.2.4,59.95587247785864,
,,,,,,,,,,,,0,0,0,0,215,0,215,0,,,,,,,215,,,1,3673.9691549090912,X,d,go,d,1,0.5536872121216447,,,,,,,,,,,,,,,,,,84,001,22,w,Psychologie,2023-01-31_10h36.43.512,00_bat_bachelor,2022.2.4,59.95587247785864,
,,,,,,,,,,,,0,0,0,0,216,0,216,0,,,,,,,216,,,1,3675.6372572121213,Y,l,go,l,1,0.4218573939393764,,,,,,,,,,,,,,,,,,84,001,22,w,Psychologie,2023-01-31_10h36.43.512,00_bat_bachelor,2022.2.4,59.95587247785864,
,,,,,,,,,,,,0,0,0,0,217,0,217,0,,,,,,,217,,,1,3677.171838060606,X,d,go,d,1,0.34388648484866735,,,,,,,,,,,,,,,,,,84,001,22,w,Psychologie,2023-01-31_10h36.43.512,00_bat_bachelor,2022.2.4,59.95587247785864,
,,,,,,,,,,,,0,0,0,0,218,0,218,0,,,,,,,218,,,1,3678.622818909091,Y,l,go,l,1,0.44520333333332474,,,,,,,,,,,,,,,,,,84,001,22,w,Psychologie,2023-01-31_10h36.43.512,00_bat_bachelor,2022.2.4,59.95587247785864,
,,,,,,,,,,,,0,0,0,0,219,0,219,0,,,,,,,219,,,1,3680.1740465454545,X,d,go,d,1,0.2851063636363733,,,,,,,,,,,,,,,,,,84,001,22,w,Psychologie,2023-01-31_10h36.43.512,00_bat_bachelor,2022.2.4,59.95587247785864,
,,,,,,,,,,,,0,0,0,0,220,0,220,0,,,,,,,220,,,1,3681.5748072727274,Y,l,go,l,1,0.5642302424245145,,,,,,,,,,,,,,,,,,84,001,22,w,Psychologie,2023-01-31_10h36.43.512,00_bat_bachelor,2022.2.4,59.95587247785864,
,,,,,,,,,,,,0,0,0,0,221,0,221,0,,,,,,,221,,,1,3683.2430943030304,Y,None,nogo,None,1,,,,,,,,,,,,,,,,,,,84,001,22,w,Psychologie,2023-01-31_10h36.43.512,00_bat_bachelor,2022.2.4,59.95587247785864,
,,,,,,,,,,,,0,0,0,0,222,0,222,0,,,,,,,222,,,1,3685.044430545455,X,d,go,d,1,0.39107678787888744,,,,,,,,,,,,,,,,,,84,001,22,w,Psychologie,2023-01-31_10h36.43.512,00_bat_bachelor,2022.2.4,59.95587247785864,
,,,,,,,,,,,,0,0,0,0,223,0,223,0,,,,,,,223,,,1,3686.545570909091,Y,l,go,l,1,0.37717181818209156,,,,,,,,,,,,,,,,,,84,001,22,w,Psychologie,2023-01-31_10h36.43.512,00_bat_bachelor,2022.2.4,59.95587247785864,
,,,,,,,,,,,,0,0,0,0,224,0,224,0,,,,,,,224,,,1,3688.0300465454548,Y,None,nogo,None,1,,,,,,,,,,,,,,,,,,,84,001,22,w,Psychologie,2023-01-31_10h36.43.512,00_bat_bachelor,2022.2.4,59.95587247785864,
,,,,,,,,,,,,0,0,0,0,225,0,225,0,,,,,,,225,,,1,3689.831346909091,X,d,go,d,1,0.26040430303021367,,,,,,,,,,,,,,,,,,84,001,22,w,Psychologie,2023-01-31_10h36.43.512,00_bat_bachelor,2022.2.4,59.95587247785864,
,,,,,,,,,,,,0,0,0,0,226,0,226,0,,,,,,,226,,,1,3691.1991893333334,Y,l,go,l,1,0.5558355757576692,,,,,,,,,,,,,,,,,,84,001,22,w,Psychologie,2023-01-31_10h36.43.512,00_bat_bachelor,2022.2.4,59.95587247785864,
,,,,,,,,,,,,0,0,0,0,227,0,227,0,,,,,,,227,,,1,3692.8669216969697,Y,None,nogo,l,0,0.5512275757574798,,,,,,,,,,,,,,,,,,84,001,22,w,Psychologie,2023-01-31_10h36.43.512,00_bat_bachelor,2022.2.4,59.95587247785864,
,,,,,,,,,,,,0,0,0,0,228,0,228,0,,,,,,,228,,,1,3694.534986666667,X,d,go,d,1,0.3235883030303057,,,,,,,,,,,,,,,,,,84,001,22,w,Psychologie,2023-01-31_10h36.43.512,00_bat_bachelor,2022.2.4,59.95587247785864,
,,,,,,,,,,,,0,0,0,0,229,0,229,0,,,,,,,229,,,1,3695.9691141818184,Y,l,go,l,1,0.3612940000003846,,,,,,,,,,,,,,,,,,84,001,22,w,Psychologie,2023-01-31_10h36.43.512,00_bat_bachelor,2022.2.4,59.95587247785864,
,,,,,,,,,,,,0,0,0,0,230,0,230,0,,,,,,,230,,,1,3697.436964848485,Y,None,nogo,None,1,,,,,,,,,,,,,,,,,,,84,001,22,w,Psychologie,2023-01-31_10h36.43.512,00_bat_bachelor,2022.2.4,59.95587247785864,
,,,,,,,,,,,,0,0,0,0,231,0,231,0,,,,,,,231,,,1,3699.2382865454547,X,d,go,d,1,0.27715339393955674,,,,,,,,,,,,,,,,,,84,001,22,w,Psychologie,2023-01-31_10h36.43.512,00_bat_bachelor,2022.2.4,59.95587247785864,
,,,,,,,,,,,,0,0,0,0,232,0,232,0,,,,,,,232,,,1,3700.622988121212,Y,l,go,l,1,0.3967257575760641,,,,,,,,,,,,,,,,,,84,001,22,w,Psychologie,2023-01-31_10h36.43.512,00_bat_bachelor,2022.2.4,59.95587247785864,
,,,,,,,,,,,,0,0,0,0,233,0,233,0,,,,,,,233,,,1,3702.124165818182,Y,None,nogo,None,1,,,,,,,,,,,,,,,,,,,84,001,22,w,Psychologie,2023-01-31_10h36.43.512,00_bat_bachelor,2022.2.4,59.95587247785864,
,,,,,,,,,,,,0,0,0,0,234,0,234,0,,,,,,,234,,,1,3703.925508848485,X,d,go,d,1,0.2938166666668849,,,,,,,,,,,,,,,,,,84,001,22,w,Psychologie,2023-01-31_10h36.43.512,00_bat_bachelor,2022.2.4,59.95587247785864,
,,,,,,,,,,,,0,0,0,0,235,0,235,0,,,,,,,235,,,1,3705.326262787879,Y,l,go,l,1,0.5402476969699137,,,,,,,,,,,,,,,,,,84,001,22,w,Psychologie,2023-01-31_10h36.43.512,00_bat_bachelor,2022.2.4,59.95587247785864,
,,,,,,,,,,,,0,0,0,0,236,0,236,0,,,,,,,236,,,1,3706.977889939394,X,d,go,d,1,0.3930981212121196,,,,,,,,,,,,,,,,,,84,001,22,w,Psychologie,2023-01-31_10h36.43.512,00_bat_bachelor,2022.2.4,59.95587247785864,
,,,,,,,,,,,,0,0,0,0,237,0,237,0,,,,,,,237,,,1,3708.479011878788,X,None,nogo,None,1,,,,,,,,,,,,,,,,,,,84,001,22,w,Psychologie,2023-01-31_10h36.43.512,00_bat_bachelor,2022.2.4,59.95587247785864,
,,,,,,,,,,,,0,0,0,0,238,0,238,0,,,,,,,238,,,1,3710.280020848485,Y,l,go,l,1,0.2424809090908866,,,,,,,,,,,,,,,,,,84,001,22,w,Psychologie,2023-01-31_10h36.43.512,00_bat_bachelor,2022.2.4,59.95587247785864,
,,,,,,,,,,,,0,0,0,0,239,0,239,0,,,,,,,239,,,1,3711.631492848485,X,d,go,d,1,0.49148503030357915,,,,,,,,,,,,,,,,,,84,001,22,w,Psychologie,2023-01-31_10h36.43.512,00_bat_bachelor,2022.2.4,59.95587247785864,
,,,,,,,,,,,,0,0,0,0,240,0,240,0,,,,,,,240,,,1,3713.232738909091,Y,l,go,l,1,0.29810030303053736,,,,,,,,,,,,,,,,,,84,001,22,w,Psychologie,2023-01-31_10h36.43.512,00_bat_bachelor,2022.2.4,59.95587247785864,
,,,,,,,,,,,,0,0,0,0,241,0,241,0,,,,,,,241,,,1,3714.6337614545455,X,d,go,d,1,0.27235436363628196,,,,,,,,,,,,,,,,,,84,001,22,w,Psychologie,2023-01-31_10h36.43.512,00_bat_bachelor,2022.2.4,59.95587247785864,
,,,,,,,,,,,,0,0,0,0,242,0,242,0,,,,,,,242,,,1,3716.0183156363637,Y,l,go,l,1,0.47209981818207325,,,,,,,,,,,,,,,,,,84,001,22,w,Psychologie,2023-01-31_10h36.43.512,00_bat_bachelor,2022.2.4,59.95587247785864,
,,,,,,,,,,,,0,0,0,0,243,0,243,0,,,,,,,243,,,1,3717.6029144242425,X,d,go,d,1,0.34444212121218243,,,,,,,,,,,,,,,,,,84,001,22,w,Psychologie,2023-01-31_10h36.43.512,00_bat_bachelor,2022.2.4,59.95587247785864,
,,,,,,,,,,,,0,0,0,0,244,0,244,0,,,,,,,244,,,1,3719.053800727273,Y,l,go,l,1,0.3320004242424375,,,,,,,,,,,,,,,,,,84,001,22,w,Psychologie,2023-01-31_10h36.43.512,00_bat_bachelor,2022.2.4,59.95587247785864,
,,,,,,,,,,,,0,0,0,0,245,0,245,0,,,,,,,245,,,1,3720.505093818182,X,d,go,d,1,0.3061196969698585,,,,,,,,,,,,,,,,,,84,001,22,w,Psychologie,2023-01-31_10h36.43.512,00_bat_bachelor,2022.2.4,59.95587247785864,
,,,,,,,,,,,,0,0,0,0,246,0,246,0,,,,,,,246,,,1,3721.9227103030303,X,None,nogo,d,0,0.40857448484860015,,,,,,,,,,,,,,,,,,84,001,22,w,Psychologie,2023-01-31_10h36.43.512,00_bat_bachelor,2022.2.4,59.95587247785864,
,,,,,,,,,,,,0,0,0,0,247,0,247,0,,,,,,,247,,,1,3723.4400688484848,Y,l,go,l,1,0.29860260606085376,,,,,,,,,,,,,,,,,,84,001,22,w,Psychologie,2023-01-31_10h36.43.512,00_bat_bachelor,2022.2.4,59.95587247785864,
,,,,,,,,,,,,0,0,0,0,248,0,248,0,,,,,,,248,,,1,3724.8415112727275,X,d,go,d,1,0.32145303030313244,,,,,,,,,,,,,,,,,,84,001,22,w,Psychologie,2023-01-31_10h36.43.512,00_bat_bachelor,2022.2.4,59.95587247785864,
,,,,,,,,,,,,0,0,0,0,249,0,249,0,,,,,,,249,,,1,3726.275936969697,Y,l,go,l,1,0.3921526666669024,,,,,,,,,,,,,,,,,,84,001,22,w,Psychologie,2023-01-31_10h36.43.512,00_bat_bachelor,2022.2.4,59.95587247785864,
,,,,,,,,,,,,1,0,1,0,0,0,0,0,,,,,,,0,,,0.2,3743.322656969697,X,d,go,d,1,0.43232818181843413,,,,,,,,,3726.781339151515,space,16.32098660606073,,,,,,,84,001,22,w,Psychologie,2023-01-31_10h36.43.512,00_bat_bachelor,2022.2.4,59.95587247785864,
,,,,,,,,,,,,1,0,1,0,1,0,1,0,,,,,,,1,,,0.2,3744.0565076363637,Y,l,go,l,1,0.40227824242413135,,,,,,,,,,,,,,,,,,84,001,22,w,Psychologie,2023-01-31_10h36.43.512,00_bat_bachelor,2022.2.4,59.95587247785864,
,,,,,,,,,,,,1,0,1,0,2,0,2,0,,,,,,,2,,,0.2,3744.7734865454545,X,d,go,d,1,0.2927994545458432,,,,,,,,,,,,,,,,,,84,001,22,w,Psychologie,2023-01-31_10h36.43.512,00_bat_bachelor,2022.2.4,59.95587247785864,
,,,,,,,,,,,,1,0,1,0,3,0,3,0,,,,,,,3,,,0.2,3745.3741032727276,X,None,nogo,None,1,,,,,3746.1748543030303,,,,,,,,,,,,,,84,001,22,w,Psychologie,2023-01-31_10h36.43.512,00_bat_bachelor,2022.2.4,59.95587247785864,
,,,,,,,,,,,,1,0,1,0,4,0,4,0,,,,,,,4,,,0.2,3746.374880969697,Y,l,go,l,1,0.4037347272729903,,,,,,,,,,,,,,,,,,84,001,22,w,Psychologie,2023-01-31_10h36.43.512,00_bat_bachelor,2022.2.4,59.95587247785864,
,,,,,,,,,,,,1,0,1,0,5,0,5,0,,,,,,,5,,,0.2,3747.0921415757575,X,d,go,d,1,0.4387218787879874,,,,,,,,,,,,,,,,,,84,001,22,w,Psychologie,2023-01-31_10h36.43.512,00_bat_bachelor,2022.2.4,59.95587247785864,
,,,,,,,,,,,,1,0,1,0,6,0,6,0,,,,,,,6,,,0.2,3747.842909575758,X,None,nogo,None,1,,,,,3748.6432441212123,,,,,,,,,,,,,,84,001,22,w,Psychologie,2023-01-31_10h36.43.512,00_bat_bachelor,2022.2.4,59.95587247785864,
,,,,,,,,,,,,1,0,1,0,7,0,7,0,,,,,,,7,,,0.2,3748.8432557575757,Y,l,go,l,1,0.39966199999992114,,,,,,,,,,,,,,,,,,84,001,22,w,Psychologie,2023-01-31_10h36.43.512,00_bat_bachelor,2022.2.4,59.95587247785864,
,,,,,,,,,,,,1,0,1,0,8,0,8,0,,,,,,,8,,,0.2,3749.5438603636367,X,d,go,d,1,0.49855703030300447,,,,,,,,,,,,,,,,,,84,001,22,w,Psychologie,2023-01-31_10h36.43.512,00_bat_bachelor,2022.2.4,59.95587247785864,
,,,,,,,,,,,,1,0,1,0,9,0,9,0,,,,,,,9,,,0.2,3750.344428606061,Y,l,go,l,1,0.46695848484853286,,,,,,,,,,,,,,,,,,84,001,22,w,Psychologie,2023-01-31_10h36.43.512,00_bat_bachelor,2022.2.4,59.95587247785864,
,,,,,,,,,,,,1,0,1,0,10,0,10,0,,,,,,,10,,,0.2,3751.111628121212,Y,None,nogo,l,0,0.5150956969697518,,,,,,,,,,,,,,,,,,84,001,22,w,Psychologie,2023-01-31_10h36.43.512,00_bat_bachelor,2022.2.4,59.95587247785864,
,,,,,,,,,,,,1,0,1,0,11,0,11,0,,,,,,,11,,,0.2,3751.9289207272727,X,d,go,d,1,0.46500212121202367,,,,,,,,,,,,,,,,,,84,001,22,w,Psychologie,2023-01-31_10h36.43.512,00_bat_bachelor,2022.2.4,59.95587247785864,
,,,,,,,,,,,,1,0,1,0,12,0,12,0,,,,,,,12,,,0.2,3752.6964053333336,Y,l,go,None,0,,,,,3753.4970686060606,,,,,,,,,,,,,,84,001,22,w,Psychologie,2023-01-31_10h36.43.512,00_bat_bachelor,2022.2.4,59.95587247785864,
,,,,,,,,,,,,1,0,1,0,13,0,13,0,,,,,,,13,,,0.2,3753.696944969697,Y,None,nogo,None,1,,,,,3754.497343030303,,,,,,,,,,,,,,84,001,22,w,Psychologie,2023-01-31_10h36.43.512,00_bat_bachelor,2022.2.4,59.95587247785864,
,,,,,,,,,,,,1,0,1,0,14,0,14,0,,,,,,,14,,,0.2,3754.697458909091,X,d,go,d,1,0.4486268484848779,,,,,,,,,,,,,,,,,,84,001,22,w,Psychologie,2023-01-31_10h36.43.512,00_bat_bachelor,2022.2.4,59.95587247785864,
,,,,,,,,,,,,1,0,1,0,15,0,15,0,,,,,,,15,,,0.2,3755.4482215757575,Y,l,go,None,0,,,,,3756.2488063030305,,,,,,,,,,,,,,84,001,22,w,Psychologie,2023-01-31_10h36.43.512,00_bat_bachelor,2022.2.4,59.95587247785864,
,,,,,,,,,,,,1,0,1,0,16,0,16,0,,,,,,,16,,,0.2,3756.448996848485,X,d,go,d,1,0.5214195757577045,,,,,,,,,,,,,,,,,,84,001,22,w,Psychologie,2023-01-31_10h36.43.512,00_bat_bachelor,2022.2.4,59.95587247785864,
,,,,,,,,,,,,1,0,1,0,17,0,17,0,,,,,,,17,,,0.2,3757.2827903030307,Y,l,go,l,1,0.6153196969700048,,,,,,,,,,,,,,,,,,84,001,22,w,Psychologie,2023-01-31_10h36.43.512,00_bat_bachelor,2022.2.4,59.95587247785864,
,,,,,,,,,,,,1,0,1,0,18,0,18,0,,,,,,,18,,,0.2,3758.2003403636363,X,d,go,d,1,0.5790947272731728,,,,,,,,,,,,,,,,,,84,001,22,w,Psychologie,2023-01-31_10h36.43.512,00_bat_bachelor,2022.2.4,59.95587247785864,
,,,,,,,,,,,,1,0,1,0,19,0,19,0,,,,,,,19,,,0.2,3759.084146909091,Y,l,go,l,1,0.5266418787879275,,,,,,,,,,,,,,,,,,84,001,22,w,Psychologie,2023-01-31_10h36.43.512,00_bat_bachelor,2022.2.4,59.95587247785864,
,,,,,,,,,,,,1,0,1,0,20,0,20,0,,,,,,,20,,,0.2,3759.918414060606,Y,None,nogo,None,1,,,,,3760.7187830303033,,,,,,,,,,,,,,84,001,22,w,Psychologie,2023-01-31_10h36.43.512,00_bat_bachelor,2022.2.4,59.95587247785864,
,,,,,,,,,,,,1,0,1,0,21,0,21,0,,,,,,,21,,,0.2,3760.9189134545454,X,d,go,d,1,0.3881546060607661,,,,,,,,,,,,,,,,,,84,001,22,w,Psychologie,2023-01-31_10h36.43.512,00_bat_bachelor,2022.2.4,59.95587247785864,
,,,,,,,,,,,,1,0,1,0,22,0,22,0,,,,,,,22,,,0.2,3761.6195292121215,Y,l,go,l,1,0.599328424242799,,,,,,,,,,,,,,,,,,84,001,22,w,Psychologie,2023-01-31_10h36.43.512,00_bat_bachelor,2022.2.4,59.95587247785864,
,,,,,,,,,,,,1,0,1,0,23,0,23,0,,,,,,,23,,,0.2,3762.519854060606,X,d,go,d,1,0.5795398181822975,,,,,,,,,,,,,,,,,,84,001,22,w,Psychologie,2023-01-31_10h36.43.512,00_bat_bachelor,2022.2.4,59.95587247785864,
,,,,,,,,,,,,1,0,1,0,24,0,24,0,,,,,,,24,,,0.2,3763.403870060606,Y,l,go,l,1,0.4314249090908788,,,,,,,,,,,,,,,,,,84,001,22,w,Psychologie,2023-01-31_10h36.43.512,00_bat_bachelor,2022.2.4,59.95587247785864,
,,,,,,,,,,,,1,0,1,0,25,0,25,0,,,,,,,25,,,0.2,3764.1381396363636,Y,None,nogo,None,1,,,,,,,,,,,,,,,,,,,84,001,22,w,Psychologie,2023-01-31_10h36.43.512,00_bat_bachelor,2022.2.4,59.95587247785864,
,,,,,,,,,,,,1,0,1,0,26,0,26,0,,,,,,,26,,,0.2,3765.1387752727273,Y,None,nogo,None,1,,,,,,,,,,,,,,,,,,,84,001,22,w,Psychologie,2023-01-31_10h36.43.512,00_bat_bachelor,2022.2.4,59.95587247785864,
,,,,,,,,,,,,1,0,1,0,27,0,27,0,,,,,,,27,,,0.2,3766.139490909091,X,d,go,d,1,0.31854927272718214,,,,,,,,,,,,,,,,,,84,001,22,w,Psychologie,2023-01-31_10h36.43.512,00_bat_bachelor,2022.2.4,59.95587247785864,
,,,,,,,,,,,,1,0,1,0,28,0,28,0,,,,,,,28,,,0.2,3766.773347878788,Y,l,go,l,1,0.6302127878790316,,,,,,,,,,,,,,,,,,84,001,22,w,Psychologie,2023-01-31_10h36.43.512,00_bat_bachelor,2022.2.4,59.95587247785864,
,,,,,,,,,,,,1,0,1,0,29,0,29,0,,,,,,,29,,,0.2,3767.707487030303,X,d,go,d,1,0.5274700000001076,,,,,,,,,,,,,,,,,,84,001,22,w,Psychologie,2023-01-31_10h36.43.512,00_bat_bachelor,2022.2.4,59.95587247785864,
,,,,,,,,,,,,1,0,1,0,30,0,30,0,,,,,,,30,,,0.2,3768.5412130909094,Y,l,go,l,1,0.5248241818186443,,,,,,,,,,,,,,,,,,84,001,22,w,Psychologie,2023-01-31_10h36.43.512,00_bat_bachelor,2022.2.4,59.95587247785864,
,,,,,,,,,,,,1,0,1,0,31,0,31,0,,,,,,,31,,,0.2,3769.3753522424245,X,d,go,d,1,0.3953085454546681,,,,,,,,,,,,,,,,,,84,001,22,w,Psychologie,2023-01-31_10h36.43.512,00_bat_bachelor,2022.2.4,59.95587247785864,
,,,,,,,,,,,,1,0,1,0,32,0,32,0,,,,,,,32,,,0.2,3770.0760164848484,Y,l,go,l,1,0.38331775757581,,,,,,,,,,,,,,,,,,84,001,22,w,Psychologie,2023-01-31_10h36.43.512,00_bat_bachelor,2022.2.4,59.95587247785864,
,,,,,,,,,,,,1,0,1,0,33,0,33,0,,,,,,,33,,,0.2,3770.759740606061,X,d,go,d,1,0.4829609090912754,,,,,,,,,,,,,,,,,,84,001,22,w,Psychologie,2023-01-31_10h36.43.512,00_bat_bachelor,2022.2.4,59.95587247785864,
,,,,,,,,,,,,1,0,1,0,34,0,34,0,,,,,,,34,,,0.2,3771.543671757576,X,None,nogo,None,1,,,,,3772.344352,,,,,,,,,,,,,,84,001,22,w,Psychologie,2023-01-31_10h36.43.512,00_bat_bachelor,2022.2.4,59.95587247785864,
,,,,,,,,,,,,1,0,1,0,35,0,35,0,,,,,,,35,,,0.2,3772.544522181818,Y,l,go,l,1,0.5068721818180393,,,,,,,,,,,,,,,,,,84,001,22,w,Psychologie,2023-01-31_10h36.43.512,00_bat_bachelor,2022.2.4,59.95587247785864,
,,,,,,,,,,,,1,0,1,0,36,0,36,0,,,,,,,36,,,0.2,3773.3617493333336,X,d,go,d,1,0.601228060606104,,,,,,,,,,,,,,,,,,84,001,22,w,Psychologie,2023-01-31_10h36.43.512,00_bat_bachelor,2022.2.4,59.95587247785864,
,,,,,,,,,,,,1,0,1,0,37,0,37,0,,,,,,,37,,,0.2,3774.279188848485,X,None,nogo,None,1,,,,,,,,,,,,,,,,,,,84,001,22,w,Psychologie,2023-01-31_10h36.43.512,00_bat_bachelor,2022.2.4,59.95587247785864,
,,,,,,,,,,,,1,0,1,0,38,0,38,0,,,,,,,38,,,0.2,3775.279896727273,Y,l,go,l,1,0.427100060606449,,,,,,,,,,,,,,,,,,84,001,22,w,Psychologie,2023-01-31_10h36.43.512,00_bat_bachelor,2022.2.4,59.95587247785864,
,,,,,,,,,,,,1,0,1,0,39,0,39,0,,,,,,,39,,,0.2,3776.013744969697,X,d,go,d,1,0.6530195757578667,,,,,,,,,,,,,,,,,,84,001,22,w,Psychologie,2023-01-31_10h36.43.512,00_bat_bachelor,2022.2.4,59.95587247785864,
,,,,,,,,,,,,1,0,1,0,40,0,40,0,,,,,,,40,,,0.2,3776.9811854545455,Y,l,go,l,1,0.5656605454543069,,,,,,,,,,,,,,,,,,84,001,22,w,Psychologie,2023-01-31_10h36.43.512,00_bat_bachelor,2022.2.4,59.95587247785864,
,,,,,,,,,,,,1,0,1,0,41,0,41,0,,,,,,,41,,,0.2,3777.8484014545456,X,d,go,d,1,0.5778918181823656,,,,,,,,,,,,,,,,,,84,001,22,w,Psychologie,2023-01-31_10h36.43.512,00_bat_bachelor,2022.2.4,59.95587247785864,
,,,,,,,,,,,,1,0,1,0,42,0,42,0,,,,,,,42,,,0.2,3778.732360727273,X,None,nogo,None,1,,,,,,,,,,,,,,,,,,,84,001,22,w,Psychologie,2023-01-31_10h36.43.512,00_bat_bachelor,2022.2.4,59.95587247785864,
,,,,,,,,,,,,1,0,1,0,43,0,43,0,,,,,,,43,,,0.2,3779.7330802424244,Y,l,go,l,1,0.3895834545452317,,,,,,,,,,,,,,,,,,84,001,22,w,Psychologie,2023-01-31_10h36.43.512,00_bat_bachelor,2022.2.4,59.95587247785864,
,,,,,,,,,,,,1,0,1,0,44,0,44,0,,,,,,,44,,,0.2,3780.433830787879,X,d,go,d,1,0.5208634545457471,,,,,,,,,,,,,,,,,,84,001,22,w,Psychologie,2023-01-31_10h36.43.512,00_bat_bachelor,2022.2.4,59.95587247785864,
,,,,,,,,,,,,1,0,1,0,45,0,45,0,,,,,,,45,,,0.2,3781.2674753939395,X,None,nogo,None,1,,,,,,,,,,,,,,,,,,,84,001,22,w,Psychologie,2023-01-31_10h36.43.512,00_bat_bachelor,2022.2.4,59.95587247785864,
,,,,,,,,,,,,1,0,1,0,46,0,46,0,,,,,,,46,,,0.2,3782.2682453333337,X,None,nogo,None,1,,,,,,,,,,,,,,,,,,,84,001,22,w,Psychologie,2023-01-31_10h36.43.512,00_bat_bachelor,2022.2.4,59.95587247785864,
,,,,,,,,,,,,1,0,1,0,47,0,47,0,,,,,,,47,,,0.2,3783.2691806060607,Y,l,go,l,1,0.27779048484865143,,,,,,,,,,,,,,,,,,84,001,22,w,Psychologie,2023-01-31_10h36.43.512,00_bat_bachelor,2022.2.4,59.95587247785864,
,,,,,,,,,,,,1,0,1,0,48,0,48,0,,,,,,,48,,,0.2,3783.852948848485,X,d,go,d,1,0.41417690909122484,,,,,,,,,,,,,,,,,,84,001,22,w,Psychologie,2023-01-31_10h36.43.512,00_bat_bachelor,2022.2.4,59.95587247785864,
,,,,,,,,,,,,1,0,1,0,49,0,49,0,,,,,,,49,,,0.2,3784.570166787879,Y,l,go,l,1,0.3519146060608591,,,,,,,,,,,,,,,,,,84,001,22,w,Psychologie,2023-01-31_10h36.43.512,00_bat_bachelor,2022.2.4,59.95587247785864,
,,,,,,,,,,,,1,0,1,0,50,0,50,0,,,,,,,50,,,0.2,3785.2375466666667,X,d,go,d,1,0.42199460606082084,,,,,,,,,,,,,,,,,,84,001,22,w,Psychologie,2023-01-31_10h36.43.512,00_bat_bachelor,2022.2.4,59.95587247785864,
,,,,,,,,,,,,1,0,1,0,51,0,51,0,,,,,,,51,,,0.2,3785.971285818182,Y,l,go,l,1,0.4722733939394175,,,,,,,,,,,,,,,,,,84,001,22,w,Psychologie,2023-01-31_10h36.43.512,00_bat_bachelor,2022.2.4,59.95587247785864,
,,,,,,,,,,,,1,0,1,0,52,0,52,0,,,,,,,52,,,0.2,3786.7552921212123,Y,None,nogo,None,1,,,,,,,,,,,,,,,,,,,84,001,22,w,Psychologie,2023-01-31_10h36.43.512,00_bat_bachelor,2022.2.4,59.95587247785864,
,,,,,,,,,,,,1,0,1,0,53,0,53,0,,,,,,,53,,,0.2,3787.7558792727273,X,d,go,d,1,0.4311897575759076,,,,,,,,,,,,,,,,,,84,001,22,w,Psychologie,2023-01-31_10h36.43.512,00_bat_bachelor,2022.2.4,59.95587247785864,
,,,,,,,,,,,,1,0,1,0,54,0,54,0,,,,,,,54,,,0.2,3788.489677090909,Y,l,go,l,1,0.30484793939388055,,,,,,,,,,,,,,,,,,84,001,22,w,Psychologie,2023-01-31_10h36.43.512,00_bat_bachelor,2022.2.4,59.95587247785864,
,,,,,,,,,,,,1,0,1,0,55,0,55,0,,,,,,,55,,,0.2,3789.1067922424245,X,d,go,d,1,0.29595290909094274,,,,,,,,,,,,,,,,,,84,001,22,w,Psychologie,2023-01-31_10h36.43.512,00_bat_bachelor,2022.2.4,59.95587247785864,
,,,,,,,,,,,,1,0,1,0,56,0,56,0,,,,,,,56,,,0.2,3789.707256727273,X,None,nogo,None,1,,,,,,,,,,,,,,,,,,,84,001,22,w,Psychologie,2023-01-31_10h36.43.512,00_bat_bachelor,2022.2.4,59.95587247785864,
,,,,,,,,,,,,1,0,1,0,57,0,57,0,,,,,,,57,,,0.2,3790.7083500606063,Y,l,go,l,1,0.5024392121214305,,,,,,,,,,,,,,,,,,84,001,22,w,Psychologie,2023-01-31_10h36.43.512,00_bat_bachelor,2022.2.4,59.95587247785864,
,,,,,,,,,,,,1,0,1,0,58,0,58,0,,,,,,,58,,,0.2,3791.525678060606,X,d,go,d,1,0.46864090909105016,,,,,,,,,,,,,,,,,,84,001,22,w,Psychologie,2023-01-31_10h36.43.512,00_bat_bachelor,2022.2.4,59.95587247785864,
,,,,,,,,,,,,1,0,1,0,59,0,59,0,,,,,,,59,,,0.2,3792.309507878788,X,None,nogo,None,1,,,,,3793.110236606061,,,,,,,,,,,,,,84,001,22,w,Psychologie,2023-01-31_10h36.43.512,00_bat_bachelor,2022.2.4,59.95587247785864,
,,,,,,,,,,,,1,0,1,0,60,0,60,0,,,,,,,60,,,0.2,3793.309986909091,Y,l,go,l,1,0.3813720606063953,,,,,,,,,,,,,,,,,,84,001,22,w,Psychologie,2023-01-31_10h36.43.512,00_bat_bachelor,2022.2.4,59.95587247785864,
,,,,,,,,,,,,1,0,1,0,61,0,61,0,,,,,,,61,,,0.2,3793.993842909091,X,d,go,d,1,0.43205860606087754,,,,,,,,,,,,,,,,,,84,001,22,w,Psychologie,2023-01-31_10h36.43.512,00_bat_bachelor,2022.2.4,59.95587247785864,
,,,,,,,,,,,,1,0,1,0,62,0,62,0,,,,,,,62,,,0.2,3794.7280960000003,Y,l,go,l,1,0.3390961818182632,,,,,,,,,,,,,,,,,,84,001,22,w,Psychologie,2023-01-31_10h36.43.512,00_bat_bachelor,2022.2.4,59.95587247785864,
,,,,,,,,,,,,1,0,1,0,63,0,63,0,,,,,,,63,,,0.2,3795.3782293333334,Y,None,nogo,None,1,,,,,3796.179191757576,,,,,,,,,,,,,,84,001,22,w,Psychologie,2023-01-31_10h36.43.512,00_bat_bachelor,2022.2.4,59.95587247785864,
,,,,,,,,,,,,1,0,1,0,64,0,64,0,,,,,,,64,,,0.2,3796.3793294545458,X,d,go,d,1,0.43126442424238576,,,,,,,,,,,,,,,,,,84,001,22,w,Psychologie,2023-01-31_10h36.43.512,00_bat_bachelor,2022.2.4,59.95587247785864,
,,,,,,,,,,,,1,0,1,0,65,0,65,0,,,,,,,65,,,0.2,3797.113143757576,Y,l,go,l,1,0.3535286666671027,,,,,,,,,,,,,,,,,,84,001,22,w,Psychologie,2023-01-31_10h36.43.512,00_bat_bachelor,2022.2.4,59.95587247785864,
,,,,,,,,,,,,1,0,1,0,66,0,66,0,,,,,,,66,,,0.2,3797.7800707878787,X,d,go,d,1,0.4225613939398727,,,,,,,,,,,,,,,,,,84,001,22,w,Psychologie,2023-01-31_10h36.43.512,00_bat_bachelor,2022.2.4,59.95587247785864,
,,,,,,,,,,,,1,0,1,0,67,0,67,0,,,,,,,67,,,0.2,3798.514036848485,Y,l,go,l,1,0.3136780000000954,,,,,,,,,,,,,,,,,,84,001,22,w,Psychologie,2023-01-31_10h36.43.512,00_bat_bachelor,2022.2.4,59.95587247785864,
,,,,,,,,,,,,1,0,1,0,68,0,68,0,,,,,,,68,,,0.2,3799.131207757576,Y,None,nogo,None,1,,,,,,,,,,,,,,,,,,,84,001,22,w,Psychologie,2023-01-31_10h36.43.512,00_bat_bachelor,2022.2.4,59.95587247785864,
,,,,,,,,,,,,1,0,1,0,69,0,69,0,,,,,,,69,,,0.2,3800.1320014545454,X,d,go,d,1,0.2948755757576009,,,,,,,,,,,,,,,,,,84,001,22,w,Psychologie,2023-01-31_10h36.43.512,00_bat_bachelor,2022.2.4,59.95587247785864,
,,,,,,,,,,,,1,0,1,0,70,0,70,0,,,,,,,70,,,0.2,3800.7327010909094,Y,l,go,l,1,0.36625206060637083,,,,,,,,,,,,,,,,,,84,001,22,w,Psychologie,2023-01-31_10h36.43.512,00_bat_bachelor,2022.2.4,59.95587247785864,
,,,,,,,,,,,,1,0,1,0,71,0,71,0,,,,,,,71,,,0.2,3801.3998555151516,X,d,go,None,0,,,,,3802.200390787879,,,,,,,,,,,,,,84,001,22,w,Psychologie,2023-01-31_10h36.43.512,00_bat_bachelor,2022.2.4,59.95587247785864,
,,,,,,,,,,,,1,0,1,0,72,0,72,0,,,,,,,72,,,0.2,3802.4003224242424,Y,l,go,l,1,0.36358490909117336,,,,,,,,,,,,,,,,,,84,001,22,w,Psychologie,2023-01-31_10h36.43.512,00_bat_bachelor,2022.2.4,59.95587247785864,
,,,,,,,,,,,,1,0,1,0,73,0,73,0,,,,,,,73,,,0.2,3803.067752727273,Y,None,nogo,None,1,,,,,,,,,,,,,,,,,,,84,001,22,w,Psychologie,2023-01-31_10h36.43.512,00_bat_bachelor,2022.2.4,59.95587247785864,
,,,,,,,,,,,,1,0,1,0,74,0,74,0,,,,,,,74,,,0.2,3804.068533818182,X,d,go,d,1,0.42242806060642124,,,,,,,,,,,,,,,,,,84,001,22,w,Psychologie,2023-01-31_10h36.43.512,00_bat_bachelor,2022.2.4,59.95587247785864,
,,,,,,,,,,,,1,0,1,0,75,0,75,0,,,,,,,75,,,0.2,3804.802403878788,Y,l,go,l,1,0.3447209090910519,,,,,,,,,,,,,,,,,,84,001,22,w,Psychologie,2023-01-31_10h36.43.512,00_bat_bachelor,2022.2.4,59.95587247785864,
,,,,,,,,,,,,1,0,1,0,76,0,76,0,,,,,,,76,,,0.2,3805.4527859393943,X,d,go,d,1,0.34975703030306704,,,,,,,,,,,,,,,,,,84,001,22,w,Psychologie,2023-01-31_10h36.43.512,00_bat_bachelor,2022.2.4,59.95587247785864,
,,,,,,,,,,,,1,0,1,0,77,0,77,0,,,,,,,77,,,0.2,3806.10319369697,X,None,nogo,None,1,,,,,,,,,,,,,,,,,,,84,001,22,w,Psychologie,2023-01-31_10h36.43.512,00_bat_bachelor,2022.2.4,59.95587247785864,
,,,,,,,,,,,,1,0,1,0,78,0,78,0,,,,,,,78,,,0.2,3807.104069818182,Y,l,go,l,1,0.41065400000036334,,,,,,,,,,,,,,,,,,84,001,22,w,Psychologie,2023-01-31_10h36.43.512,00_bat_bachelor,2022.2.4,59.95587247785864,
,,,,,,,,,,,,1,0,1,0,79,0,79,0,,,,,,,79,,,0.2,3807.821213090909,X,d,go,d,1,0.39879072727319453,,,,,,,,,,,,,,,,,,84,001,22,w,Psychologie,2023-01-31_10h36.43.512,00_bat_bachelor,2022.2.4,59.95587247785864,
,,,,,,,,,,,,1,0,1,0,80,0,80,0,,,,,,,80,,,0.2,3808.521959757576,Y,l,go,l,1,0.368338363636326,,,,,,,,,,,,,,,,,,84,001,22,w,Psychologie,2023-01-31_10h36.43.512,00_bat_bachelor,2022.2.4,59.95587247785864,
,,,,,,,,,,,,1,0,1,0,81,0,81,0,,,,,,,81,,,0.2,3809.2056126060606,Y,None,nogo,None,1,,,,,3810.0061546666666,,,,,,,,,,,,,,84,001,22,w,Psychologie,2023-01-31_10h36.43.512,00_bat_bachelor,2022.2.4,59.95587247785864,
,,,,,,,,,,,,1,0,1,0,82,0,82,0,,,,,,,82,,,0.2,3810.2062084848485,X,d,go,d,1,0.4130792121214881,,,,,,,,,,,,,,,,,,84,001,22,w,Psychologie,2023-01-31_10h36.43.512,00_bat_bachelor,2022.2.4,59.95587247785864,
,,,,,,,,,,,,1,0,1,0,83,0,83,0,,,,,,,83,,,0.2,3810.9237653333334,Y,l,go,l,1,0.3675883030306295,,,,,,,,,,,,,,,,,,84,001,22,w,Psychologie,2023-01-31_10h36.43.512,00_bat_bachelor,2022.2.4,59.95587247785864,
,,,,,,,,,,,,1,0,1,0,84,0,84,0,,,,,,,84,,,0.2,3811.6075844848488,Y,None,nogo,None,1,,,,,3812.407889939394,,,,,,,,,,,,,,84,001,22,w,Psychologie,2023-01-31_10h36.43.512,00_bat_bachelor,2022.2.4,59.95587247785864,
,,,,,,,,,,,,1,0,1,0,85,0,85,0,,,,,,,85,,,0.2,3812.608357818182,Y,None,nogo,l,0,0.41156551515143747,,,,,,,,,,,,,,,,,,84,001,22,w,Psychologie,2023-01-31_10h36.43.512,00_bat_bachelor,2022.2.4,59.95587247785864,
,,,,,,,,,,,,1,0,1,0,86,0,86,0,,,,,,,86,,,0.2,3813.325251878788,X,d,go,d,1,0.34939969697018114,,,,,,,,,,,,,,,,,,84,001,22,w,Psychologie,2023-01-31_10h36.43.512,00_bat_bachelor,2022.2.4,59.95587247785864,
,,,,,,,,,,,,1,0,1,0,87,0,87,0,,,,,,,87,,,0.2,3813.976054787879,Y,l,go,l,1,0.4511897575758894,,,,,,,,,,,,,,,,,,84,001,22,w,Psychologie,2023-01-31_10h36.43.512,00_bat_bachelor,2022.2.4,59.95587247785864,
,,,,,,,,,,,,1,0,1,0,88,0,88,0,,,,,,,88,,,0.2,3814.7437541818185,X,d,go,d,1,0.515526727272686,,,,,,,,,,,,,,,,,,84,001,22,w,Psychologie,2023-01-31_10h36.43.512,00_bat_bachelor,2022.2.4,59.95587247785864,
,,,,,,,,,,,,1,0,1,0,89,0,89,0,,,,,,,89,,,0.2,3815.5602913939397,Y,l,go,l,1,0.562838242424391,,,,,,,,,,,,,,,,,,84,001,22,w,Psychologie,2023-01-31_10h36.43.512,00_bat_bachelor,2022.2.4,59.95587247785864,
,,,,,,,,,,,,1,0,1,0,90,0,90,0,,,,,,,90,,,0.2,3816.427665939394,Y,None,nogo,None,1,,,,,,,,,,,,,,,,,,,84,001,22,w,Psychologie,2023-01-31_10h36.43.512,00_bat_bachelor,2022.2.4,59.95587247785864,
,,,,,,,,,,,,1,0,1,0,91,0,91,0,,,,,,,91,,,0.2,3817.4286855757578,X,d,go,d,1,0.4224212727273198,,,,,,,,,,,,,,,,,,84,001,22,w,Psychologie,2023-01-31_10h36.43.512,00_bat_bachelor,2022.2.4,59.95587247785864,
,,,,,,,,,,,,1,0,1,0,92,0,92,0,,,,,,,92,,,0.2,3818.162687030303,Y,l,go,l,1,0.39312624242450056,,,,,,,,,,,,,,,,,,84,001,22,w,Psychologie,2023-01-31_10h36.43.512,00_bat_bachelor,2022.2.4,59.95587247785864,
,,,,,,,,,,,,1,0,1,0,93,0,93,0,,,,,,,93,,,0.2,3818.8628164848487,X,d,go,d,1,0.37918830303044615,,,,,,,,,,,,,,,,,,84,001,22,w,Psychologie,2023-01-31_10h36.43.512,00_bat_bachelor,2022.2.4,59.95587247785864,
,,,,,,,,,,,,1,0,1,0,94,0,94,0,,,,,,,94,,,0.2,3819.5468281212125,X,None,nogo,None,1,,,,,,,,,,,,,,,,,,,84,001,22,w,Psychologie,2023-01-31_10h36.43.512,00_bat_bachelor,2022.2.4,59.95587247785864,
,,,,,,,,,,,,1,0,1,0,95,0,95,0,,,,,,,95,,,0.2,3820.5474526060607,Y,l,go,l,1,0.47148696969691173,,,,,,,,,,,,,,,,,,84,001,22,w,Psychologie,2023-01-31_10h36.43.512,00_bat_bachelor,2022.2.4,59.95587247785864,
,,,,,,,,,,,,1,0,1,0,96,0,96,0,,,,,,,96,,,0.2,3821.3313541818184,X,d,go,d,1,0.47139824242469786,,,,,,,,,,,,,,,,,,84,001,22,w,Psychologie,2023-01-31_10h36.43.512,00_bat_bachelor,2022.2.4,59.95587247785864,
,,,,,,,,,,,,1,0,1,0,97,0,97,0,,,,,,,97,,,0.2,3822.1155830303032,Y,l,go,l,1,0.39142539393981224,,,,,,,,,,,,,,,,,,84,001,22,w,Psychologie,2023-01-31_10h36.43.512,00_bat_bachelor,2022.2.4,59.95587247785864,
,,,,,,,,,,,,1,0,1,0,98,0,98,0,,,,,,,98,,,0.2,3822.8160043636367,Y,None,nogo,None,1,,,,,3823.6166623030304,,,,,,,,,,,,,,84,001,22,w,Psychologie,2023-01-31_10h36.43.512,00_bat_bachelor,2022.2.4,59.95587247785864,
,,,,,,,,,,,,1,0,1,0,99,0,99,0,,,,,,,99,,,0.2,3823.8168402424244,X,d,go,d,1,0.4178132727271304,,,,,,,,,,,,,,,,,,84,001,22,w,Psychologie,2023-01-31_10h36.43.512,00_bat_bachelor,2022.2.4,59.95587247785864,
,,,,,,,,,,,,1,0,1,0,100,0,100,0,,,,,,,100,,,0.2,3824.550697212121,Y,l,go,l,1,0.3087616363637835,,,,,,,,,,,,,,,,,,84,001,22,w,Psychologie,2023-01-31_10h36.43.512,00_bat_bachelor,2022.2.4,59.95587247785864,
,,,,,,,,,,,,1,0,1,0,101,0,101,0,,,,,,,101,,,0.2,3825.1679932121215,Y,None,nogo,None,1,,,,,3825.9682317575757,,,,,,,,,,,,,,84,001,22,w,Psychologie,2023-01-31_10h36.43.512,00_bat_bachelor,2022.2.4,59.95587247785864,
,,,,,,,,,,,,1,0,1,0,102,0,102,0,,,,,,,102,,,0.2,3826.1685784242427,X,d,go,d,1,0.46549715151525106,,,,,,,,,,,,,,,,,,84,001,22,w,Psychologie,2023-01-31_10h36.43.512,00_bat_bachelor,2022.2.4,59.95587247785864,
,,,,,,,,,,,,1,0,1,0,103,0,103,0,,,,,,,103,,,0.2,3826.9359146666666,Y,l,go,l,1,0.5147650303034652,,,,,,,,,,,,,,,,,,84,001,22,w,Psychologie,2023-01-31_10h36.43.512,00_bat_bachelor,2022.2.4,59.95587247785864,
,,,,,,,,,,,,1,0,1,0,104,0,104,0,,,,,,,104,,,0.2,3827.7529081212124,Y,None,nogo,None,1,,,,,,,,,,,,,,,,,,,84,001,22,w,Psychologie,2023-01-31_10h36.43.512,00_bat_bachelor,2022.2.4,59.95587247785864,
,,,,,,,,,,,,1,0,1,0,105,0,105,0,,,,,,,105,,,0.2,3828.754031515152,X,d,go,d,1,0.4881613939393219,,,,,,,,,,,,,,,,,,84,001,22,w,Psychologie,2023-01-31_10h36.43.512,00_bat_bachelor,2022.2.4,59.95587247785864,
,,,,,,,,,,,,1,0,1,0,106,0,106,0,,,,,,,106,,,0.2,3829.5547427878787,Y,l,go,l,1,0.4406564242423201,,,,,,,,,,,,,,,,,,84,001,22,w,Psychologie,2023-01-31_10h36.43.512,00_bat_bachelor,2022.2.4,59.95587247785864,
,,,,,,,,,,,,1,0,1,0,107,0,107,0,,,,,,,107,,,0.2,3830.3051665454545,X,d,go,d,1,0.18514806060613864,,,,,,,,,,,,,,,,,,84,001,22,w,Psychologie,2023-01-31_10h36.43.512,00_bat_bachelor,2022.2.4,59.95587247785864,
,,,,,,,,,,,,1,0,1,0,108,0,108,0,,,,,,,108,,,0.2,3830.805628121212,Y,l,go,l,1,0.5653696363639256,,,,,,,,,,,,,,,,,,84,001,22,w,Psychologie,2023-01-31_10h36.43.512,00_bat_bachelor,2022.2.4,59.95587247785864,
,,,,,,,,,,,,1,0,1,0,109,0,109,0,,,,,,,109,,,0.2,3831.6726191515154,Y,None,nogo,None,1,,,,,,,,,,,,,,,,,,,84,001,22,w,Psychologie,2023-01-31_10h36.43.512,00_bat_bachelor,2022.2.4,59.95587247785864,
,,,,,,,,,,,,1,0,1,0,110,0,110,0,,,,,,,110,,,0.2,3832.673659636364,Y,None,nogo,None,1,,,,,3833.474250181818,,,,,,,,,,,,,,84,001,22,w,Psychologie,2023-01-31_10h36.43.512,00_bat_bachelor,2022.2.4,59.95587247785864,
,,,,,,,,,,,,1,0,1,0,111,0,111,0,,,,,,,111,,,0.2,3833.6744654545455,X,d,go,d,1,0.20813278787920808,,,,,,,,,,,,,,,,,,84,001,22,w,Psychologie,2023-01-31_10h36.43.512,00_bat_bachelor,2022.2.4,59.95587247785864,
,,,,,,,,,,,,1,0,1,0,112,0,112,0,,,,,,,112,,,0.2,3834.191522909091,Y,l,go,l,1,0.29936624242429843,,,,,,,,,,,,,,,,,,84,001,22,w,Psychologie,2023-01-31_10h36.43.512,00_bat_bachelor,2022.2.4,59.95587247785864,
,,,,,,,,,,,,1,0,1,0,113,0,113,0,,,,,,,113,,,0.2,3834.791603878788,Y,None,nogo,None,1,,,,,3835.5926191515155,,,,,,,,,,,,,,84,001,22,w,Psychologie,2023-01-31_10h36.43.512,00_bat_bachelor,2022.2.4,59.95587247785864,
,,,,,,,,,,,,1,0,1,0,114,0,114,0,,,,,,,114,,,0.2,3835.7927243636364,X,d,go,d,1,0.49011630303050424,,,,,,,,,,,,,,,,,,84,001,22,w,Psychologie,2023-01-31_10h36.43.512,00_bat_bachelor,2022.2.4,59.95587247785864,
,,,,,,,,,,,,1,0,1,0,115,0,115,0,,,,,,,115,,,0.2,3836.593293575758,Y,l,go,l,1,0.39382006060634467,,,,,,,,,,,,,,,,,,84,001,22,w,Psychologie,2023-01-31_10h36.43.512,00_bat_bachelor,2022.2.4,59.95587247785864,
,,,,,,,,,,,,1,0,1,0,116,0,116,0,,,,,,,116,,,0.2,3837.293837090909,X,d,go,d,1,0.382212303030542,,,,,,,,,,,,,,,,,,84,001,22,w,Psychologie,2023-01-31_10h36.43.512,00_bat_bachelor,2022.2.4,59.95587247785864,
,,,,,,,,,,,,1,0,1,0,117,0,117,0,,,,,,,117,,,0.2,3837.9773493333337,Y,l,go,l,1,0.3846927878786346,,,,,,,,,,,,,,,,,,84,001,22,w,Psychologie,2023-01-31_10h36.43.512,00_bat_bachelor,2022.2.4,59.95587247785864,
,,,,,,,,,,,,1,0,1,0,118,0,118,0,,,,,,,118,,,0.2,3838.6779146666668,X,d,go,d,1,0.43680963636381875,,,,,,,,,,,,,,,,,,84,001,22,w,Psychologie,2023-01-31_10h36.43.512,00_bat_bachelor,2022.2.4,59.95587247785864,
,,,,,,,,,,,,1,0,1,0,119,0,119,0,,,,,,,119,,,0.2,3839.428658909091,X,None,nogo,None,1,,,,,,,,,,,,,,,,,,,84,001,22,w,Psychologie,2023-01-31_10h36.43.512,00_bat_bachelor,2022.2.4,59.95587247785864,
,,,,,,,,,,,,1,0,1,0,120,0,120,0,,,,,,,120,,,0.2,3840.429627636364,X,None,nogo,None,1,,,,,,,,,,,,,,,,,,,84,001,22,w,Psychologie,2023-01-31_10h36.43.512,00_bat_bachelor,2022.2.4,59.95587247785864,
,,,,,,,,,,,,1,0,1,0,121,0,121,0,,,,,,,121,,,0.2,3841.430019878788,Y,l,go,l,1,0.3722258787880719,,,,,,,,,,,,,,,,,,84,001,22,w,Psychologie,2023-01-31_10h36.43.512,00_bat_bachelor,2022.2.4,59.95587247785864,
,,,,,,,,,,,,1,0,1,0,122,0,122,0,,,,,,,122,,,0.2,3842.1139825454547,X,d,go,d,1,0.31314175757609064,,,,,,,,,,,,,,,,,,84,001,22,w,Psychologie,2023-01-31_10h36.43.512,00_bat_bachelor,2022.2.4,59.95587247785864,
,,,,,,,,,,,,1,0,1,0,123,0,123,0,,,,,,,123,,,0.2,3842.7313949090913,Y,l,go,l,1,0.36707096969723807,,,,,,,,,,,,,,,,,,84,001,22,w,Psychologie,2023-01-31_10h36.43.512,00_bat_bachelor,2022.2.4,59.95587247785864,
,,,,,,,,,,,,1,0,1,0,124,0,124,0,,,,,,,124,,,0.2,3843.415267878788,Y,None,nogo,None,1,,,,,,,,,,,,,,,,,,,84,001,22,w,Psychologie,2023-01-31_10h36.43.512,00_bat_bachelor,2022.2.4,59.95587247785864,
,,,,,,,,,,,,1,0,1,0,125,0,125,0,,,,,,,125,,,0.2,3844.4163980606063,X,d,go,d,1,0.3939136363638909,,,,,,,,,,,,,,,,,,84,001,22,w,Psychologie,2023-01-31_10h36.43.512,00_bat_bachelor,2022.2.4,59.95587247785864,
,,,,,,,,,,,,1,0,1,0,126,0,126,0,,,,,,,126,,,0.2,3845.1171403636363,Y,l,go,l,1,0.30100260606070606,,,,,,,,,,,,,,,,,,84,001,22,w,Psychologie,2023-01-31_10h36.43.512,00_bat_bachelor,2022.2.4,59.95587247785864,
,,,,,,,,,,,,1,0,1,0,127,0,127,0,,,,,,,127,,,0.2,3845.7340160000003,X,d,go,d,1,0.42003969697009325,,,,,,,,,,,,,,,,,,84,001,22,w,Psychologie,2023-01-31_10h36.43.512,00_bat_bachelor,2022.2.4,59.95587247785864,
,,,,,,,,,,,,1,0,1,0,128,0,128,0,,,,,,,128,,,0.2,3846.4846865454547,Y,l,go,l,1,0.24525181818182773,,,,,,,,,,,,,,,,,,84,001,22,w,Psychologie,2023-01-31_10h36.43.512,00_bat_bachelor,2022.2.4,59.95587247785864,
,,,,,,,,,,,,1,0,1,0,129,0,129,0,,,,,,,129,,,0.2,3847.035269818182,X,d,go,d,1,0.3189434545453196,,,,,,,,,,,,,,,,,,84,001,22,w,Psychologie,2023-01-31_10h36.43.512,00_bat_bachelor,2022.2.4,59.95587247785864,
,,,,,,,,,,,,1,0,1,0,130,0,130,0,,,,,,,130,,,0.2,3847.6858060606064,X,None,nogo,None,1,,,,,3848.486202666667,,,,,,,,,,,,,,84,001,22,w,Psychologie,2023-01-31_10h36.43.512,00_bat_bachelor,2022.2.4,59.95587247785864,
,,,,,,,,,,,,1,0,1,0,131,0,131,0,,,,,,,131,,,0.2,3848.6865473939397,Y,l,go,l,1,0.3962646666669798,,,,,,,,,,,,,,,,,,84,001,22,w,Psychologie,2023-01-31_10h36.43.512,00_bat_bachelor,2022.2.4,59.95587247785864,
,,,,,,,,,,,,1,0,1,0,132,0,132,0,,,,,,,132,,,0.2,3849.4202346666666,X,d,go,d,1,0.301817151515138,,,,,,,,,,,,,,,,,,84,001,22,w,Psychologie,2023-01-31_10h36.43.512,00_bat_bachelor,2022.2.4,59.95587247785864,
,,,,,,,,,,,,1,0,1,0,133,0,133,0,,,,,,,133,,,0.2,3850.0365944242426,X,None,nogo,None,1,,,,,,,,,,,,,,,,,,,84,001,22,w,Psychologie,2023-01-31_10h36.43.512,00_bat_bachelor,2022.2.4,59.95587247785864,
,,,,,,,,,,,,1,0,1,0,134,0,134,0,,,,,,,134,,,0.2,3851.0376993939394,X,None,nogo,None,1,,,,,3851.838289939394,,,,,,,,,,,,,,84,001,22,w,Psychologie,2023-01-31_10h36.43.512,00_bat_bachelor,2022.2.4,59.95587247785864,
,,,,,,,,,,,,1,0,1,0,135,0,135,0,,,,,,,135,,,0.2,3852.038110545455,Y,l,go,l,1,0.5158452727274607,,,,,,,,,,,,,,,,,,84,001,22,w,Psychologie,2023-01-31_10h36.43.512,00_bat_bachelor,2022.2.4,59.95587247785864,
,,,,,,,,,,,,1,0,1,0,136,0,136,0,,,,,,,136,,,0.2,3852.855770666667,X,d,go,d,1,0.3872595757580939,,,,,,,,,,,,,,,,,,84,001,22,w,Psychologie,2023-01-31_10h36.43.512,00_bat_bachelor,2022.2.4,59.95587247785864,
,,,,,,,,,,,,1,0,1,0,137,0,137,0,,,,,,,137,,,0.2,3853.5558967272727,Y,l,go,l,1,0.34277133333318943,,,,,,,,,,,,,,,,,,84,001,22,w,Psychologie,2023-01-31_10h36.43.512,00_bat_bachelor,2022.2.4,59.95587247785864,
,,,,,,,,,,,,1,0,1,0,138,0,138,0,,,,,,,138,,,0.2,3854.206416969697,Y,None,nogo,None,1,,,,,,,,,,,,,,,,,,,84,001,22,w,Psychologie,2023-01-31_10h36.43.512,00_bat_bachelor,2022.2.4,59.95587247785864,
,,,,,,,,,,,,1,0,1,0,139,0,139,0,,,,,,,139,,,0.2,3855.207532606061,X,d,go,d,1,0.3866438181818239,,,,,,,,,,,,,,,,,,84,001,22,w,Psychologie,2023-01-31_10h36.43.512,00_bat_bachelor,2022.2.4,59.95587247785864,
,,,,,,,,,,,,1,0,1,0,140,0,140,0,,,,,,,140,,,0.2,3855.908046060606,Y,l,go,l,1,0.39130854545430793,,,,,,,,,,,,,,,,,,84,001,22,w,Psychologie,2023-01-31_10h36.43.512,00_bat_bachelor,2022.2.4,59.95587247785864,
,,,,,,,,,,,,1,0,1,0,141,0,141,0,,,,,,,141,,,0.2,3856.608544969697,Y,None,nogo,None,1,,,,,3857.4089294545456,,,,,,,,,,,,,,84,001,22,w,Psychologie,2023-01-31_10h36.43.512,00_bat_bachelor,2022.2.4,59.95587247785864,
,,,,,,,,,,,,1,0,1,0,142,0,142,0,,,,,,,142,,,0.2,3857.609460848485,X,d,go,d,1,0.32162515151560456,,,,,,,,,,,,,,,,,,84,001,22,w,Psychologie,2023-01-31_10h36.43.512,00_bat_bachelor,2022.2.4,59.95587247785864,
,,,,,,,,,,,,1,0,1,0,143,0,143,0,,,,,,,143,,,0.2,3858.2430763636366,Y,l,go,l,1,0.2802137575760071,,,,,,,,,,,,,,,,,,84,001,22,w,Psychologie,2023-01-31_10h36.43.512,00_bat_bachelor,2022.2.4,59.95587247785864,
,,,,,,,,,,,,1,0,1,0,144,0,144,0,,,,,,,144,,,0.2,3858.8266181818185,X,d,go,d,1,0.30380115151558584,,,,,,,,,,,,,,,,,,84,001,22,w,Psychologie,2023-01-31_10h36.43.512,00_bat_bachelor,2022.2.4,59.95587247785864,
,,,,,,,,,,,,1,0,1,0,145,0,145,0,,,,,,,145,,,0.2,3859.444343757576,X,None,nogo,None,1,,,,,,,,,,,,,,,,,,,84,001,22,w,Psychologie,2023-01-31_10h36.43.512,00_bat_bachelor,2022.2.4,59.95587247785864,
,,,,,,,,,,,,1,0,1,0,146,0,146,0,,,,,,,146,,,0.2,3860.4451166060608,Y,l,go,l,1,0.5579398181822626,,,,,,,,,,,,,,,,,,84,001,22,w,Psychologie,2023-01-31_10h36.43.512,00_bat_bachelor,2022.2.4,59.95587247785864,
,,,,,,,,,,,,1,0,1,0,147,0,147,0,,,,,,,147,,,0.2,3861.3118312727274,X,d,go,d,1,0.4437924242425879,,,,,,,,,,,,,,,,,,84,001,22,w,Psychologie,2023-01-31_10h36.43.512,00_bat_bachelor,2022.2.4,59.95587247785864,
,,,,,,,,,,,,1,0,1,0,148,0,148,0,,,,,,,148,,,0.2,3862.0627752727273,Y,l,go,l,1,0.47715678787892557,,,,,,,,,,,,,,,,,,84,001,22,w,Psychologie,2023-01-31_10h36.43.512,00_bat_bachelor,2022.2.4,59.95587247785864,
,,,,,,,,,,,,1,0,1,0,149,0,149,0,,,,,,,149,,,0.2,3862.846398060606,X,d,go,d,1,0.39650321212150175,,,,,,,,,,,,,,,,,,84,001,22,w,Psychologie,2023-01-31_10h36.43.512,00_bat_bachelor,2022.2.4,59.95587247785864,
,,,,,,,,,,,,1,0,1,0,150,0,150,0,,,,,,,150,,,0.2,3863.5468683636363,Y,l,go,l,1,0.48080721212147637,,,,,,,,,,,,,,,,,,84,001,22,w,Psychologie,2023-01-31_10h36.43.512,00_bat_bachelor,2022.2.4,59.95587247785864,
,,,,,,,,,,,,1,0,1,0,151,0,151,0,,,,,,,151,,,0.2,3864.3311864242423,Y,None,nogo,None,1,,,,,3865.1316921212124,,,,,,,,,,,,,,84,001,22,w,Psychologie,2023-01-31_10h36.43.512,00_bat_bachelor,2022.2.4,59.95587247785864,
,,,,,,,,,,,,1,0,1,0,152,0,152,0,,,,,,,152,,,0.2,3865.331892848485,X,d,go,d,1,0.45443096969722774,,,,,,,,,,,,,,,,,,84,001,22,w,Psychologie,2023-01-31_10h36.43.512,00_bat_bachelor,2022.2.4,59.95587247785864,
,,,,,,,,,,,,1,0,1,0,153,0,153,0,,,,,,,153,,,0.2,3866.0988271515153,Y,l,go,l,1,0.313121393939241,,,,,,,,,,,,,,,,,,84,001,22,w,Psychologie,2023-01-31_10h36.43.512,00_bat_bachelor,2022.2.4,59.95587247785864,
,,,,,,,,,,,,1,0,1,0,154,0,154,0,,,,,,,154,,,0.2,3866.7163156363636,X,d,go,d,1,0.39873157575777896,,,,,,,,,,,,,,,,,,84,001,22,w,Psychologie,2023-01-31_10h36.43.512,00_bat_bachelor,2022.2.4,59.95587247785864,
,,,,,,,,,,,,1,0,1,0,155,0,155,0,,,,,,,155,,,0.2,3867.4166298181817,Y,l,go,l,1,0.6106612727277252,,,,,,,,,,,,,,,,,,84,001,22,w,Psychologie,2023-01-31_10h36.43.512,00_bat_bachelor,2022.2.4,59.95587247785864,
,,,,,,,,,,,,1,0,1,0,156,0,156,0,,,,,,,156,,,0.2,3868.3341575757577,X,d,go,d,1,0.3810748484853548,,,,,,,,,,,,,,,,,,84,001,22,w,Psychologie,2023-01-31_10h36.43.512,00_bat_bachelor,2022.2.4,59.95587247785864,
,,,,,,,,,,,,1,0,1,0,157,0,157,0,,,,,,,157,,,0.2,3869.0177153939394,Y,l,go,l,1,0.3366433333336545,,,,,,,,,,,,,,,,,,84,001,22,w,Psychologie,2023-01-31_10h36.43.512,00_bat_bachelor,2022.2.4,59.95587247785864,
,,,,,,,,,,,,1,0,1,0,158,0,158,0,,,,,,,158,,,0.2,3869.668657939394,X,d,go,d,1,0.43913303030342377,,,,,,,,,,,,,,,,,,84,001,22,w,Psychologie,2023-01-31_10h36.43.512,00_bat_bachelor,2022.2.4,59.95587247785864,
,,,,,,,,,,,,1,0,1,0,159,0,159,0,,,,,,,159,,,0.2,3870.418791757576,X,None,nogo,None,1,,,,,,,,,,,,,,,,,,,84,001,22,w,Psychologie,2023-01-31_10h36.43.512,00_bat_bachelor,2022.2.4,59.95587247785864,
,,,,,,,,,,,,1,0,1,0,160,0,160,0,,,,,,,160,,,0.2,3871.419534060606,Y,l,go,l,1,0.398818848484666,,,,,,,,,,,,,,,,,,84,001,22,w,Psychologie,2023-01-31_10h36.43.512,00_bat_bachelor,2022.2.4,59.95587247785864,
,,,,,,,,,,,,1,0,1,0,161,0,161,0,,,,,,,161,,,0.2,3872.1203529696973,X,d,go,d,1,0.4501187272732068,,,,,,,,,,,,,,,,,,84,001,22,w,Psychologie,2023-01-31_10h36.43.512,00_bat_bachelor,2022.2.4,59.95587247785864,
,,,,,,,,,,,,1,0,1,0,162,0,162,0,,,,,,,162,,,0.2,3872.8710341818182,Y,l,go,l,1,0.3553410303035207,,,,,,,,,,,,,,,,,,84,001,22,w,Psychologie,2023-01-31_10h36.43.512,00_bat_bachelor,2022.2.4,59.95587247785864,
,,,,,,,,,,,,1,0,1,0,163,0,163,0,,,,,,,163,,,0.2,3873.5381309090913,Y,None,nogo,None,1,,,,,,,,,,,,,,,,,,,84,001,22,w,Psychologie,2023-01-31_10h36.43.512,00_bat_bachelor,2022.2.4,59.95587247785864,
,,,,,,,,,,,,1,0,1,0,164,0,164,0,,,,,,,164,,,0.2,3874.5388397575757,X,d,go,d,1,0.3839543636364624,,,,,,,,,,,,,,,,,,84,001,22,w,Psychologie,2023-01-31_10h36.43.512,00_bat_bachelor,2022.2.4,59.95587247785864,
,,,,,,,,,,,,1,0,1,0,165,0,165,0,,,,,,,165,,,0.2,3875.222857212121,Y,l,go,l,1,0.45162030303038136,,,,,,,,,,,,,,,,,,84,001,22,w,Psychologie,2023-01-31_10h36.43.512,00_bat_bachelor,2022.2.4,59.95587247785864,
,,,,,,,,,,,,1,0,1,0,166,0,166,0,,,,,,,166,,,0.2,3875.9900572121214,X,d,go,d,1,0.5163689090910566,,,,,,,,,,,,,,,,,,84,001,22,w,Psychologie,2023-01-31_10h36.43.512,00_bat_bachelor,2022.2.4,59.95587247785864,
,,,,,,,,,,,,1,0,1,0,167,0,167,0,,,,,,,167,,,0.2,3876.807045818182,Y,l,go,l,1,0.37183945454546574,,,,,,,,,,,,,,,,,,84,001,22,w,Psychologie,2023-01-31_10h36.43.512,00_bat_bachelor,2022.2.4,59.95587247785864,
,,,,,,,,,,,,1,0,1,0,168,0,168,0,,,,,,,168,,,0.2,3877.490828606061,Y,None,nogo,None,1,,,,,,,,,,,,,,,,,,,84,001,22,w,Psychologie,2023-01-31_10h36.43.512,00_bat_bachelor,2022.2.4,59.95587247785864,
,,,,,,,,,,,,1,0,1,0,169,0,169,0,,,,,,,169,,,0.2,3878.4918273939397,Y,None,nogo,l,0,0.46296769696994033,,,,,,,,,,,,,,,,,,84,001,22,w,Psychologie,2023-01-31_10h36.43.512,00_bat_bachelor,2022.2.4,59.95587247785864,
,,,,,,,,,,,,1,0,1,0,170,0,170,0,,,,,,,170,,,0.2,3879.2592213333332,X,d,go,d,1,0.5606554545457811,,,,,,,,,,,,,,,,,,84,001,22,w,Psychologie,2023-01-31_10h36.43.512,00_bat_bachelor,2022.2.4,59.95587247785864,
,,,,,,,,,,,,1,0,1,0,171,0,171,0,,,,,,,171,,,0.2,3880.1261600000003,Y,l,go,l,1,0.4295373939395404,,,,,,,,,,,,,,,,,,84,001,22,w,Psychologie,2023-01-31_10h36.43.512,00_bat_bachelor,2022.2.4,59.95587247785864,
,,,,,,,,,,,,1,0,1,0,172,0,172,0,,,,,,,172,,,0.2,3880.8602846060608,X,d,go,d,1,0.3987834545456508,,,,,,,,,,,,,,,,,,84,001,22,w,Psychologie,2023-01-31_10h36.43.512,00_bat_bachelor,2022.2.4,59.95587247785864,
,,,,,,,,,,,,1,0,1,0,173,0,173,0,,,,,,,173,,,0.2,3881.5607621818185,Y,l,go,l,1,0.385264424242564,,,,,,,,,,,,,,,,,,84,001,22,w,Psychologie,2023-01-31_10h36.43.512,00_bat_bachelor,2022.2.4,59.95587247785864,
,,,,,,,,,,,,1,0,1,0,174,0,174,0,,,,,,,174,,,0.2,3882.261159757576,X,d,go,d,1,0.34135169697003676,,,,,,,,,,,,,,,,,,84,001,22,w,Psychologie,2023-01-31_10h36.43.512,00_bat_bachelor,2022.2.4,59.95587247785864,
,,,,,,,,,,,,1,0,1,0,175,0,175,0,,,,,,,175,,,0.2,3882.9119364848484,Y,l,go,l,1,0.5068707272727124,,,,,,,,,,,,,,,,,,84,001,22,w,Psychologie,2023-01-31_10h36.43.512,00_bat_bachelor,2022.2.4,59.95587247785864,
,,,,,,,,,,,,1,0,1,0,176,0,176,0,,,,,,,176,,,0.2,3883.7289221818182,Y,None,nogo,l,0,0.5691000606062744,,,,,,,,,,,,,,,,,,84,001,22,w,Psychologie,2023-01-31_10h36.43.512,00_bat_bachelor,2022.2.4,59.95587247785864,
,,,,,,,,,,,,1,0,1,0,177,0,177,0,,,,,,,177,,,0.2,3884.6129250909094,X,d,go,d,1,0.3894617575757593,,,,,,,,,,,,,,,,,,84,001,22,w,Psychologie,2023-01-31_10h36.43.512,00_bat_bachelor,2022.2.4,59.95587247785864,
,,,,,,,,,,,,1,0,1,0,178,0,178,0,,,,,,,178,,,0.2,3885.3137672727275,Y,l,go,l,1,0.45825496969712276,,,,,,,,,,,,,,,,,,84,001,22,w,Psychologie,2023-01-31_10h36.43.512,00_bat_bachelor,2022.2.4,59.95587247785864,
,,,,,,,,,,,,1,0,1,0,179,0,179,0,,,,,,,179,,,0.2,3886.081013818182,X,d,go,d,1,0.34607703030280845,,,,,,,,,,,,,,,,,,84,001,22,w,Psychologie,2023-01-31_10h36.43.512,00_bat_bachelor,2022.2.4,59.95587247785864,
,,,,,,,,,,,,1,0,1,0,180,0,180,0,,,,,,,180,,,0.2,3886.731541818182,Y,l,go,l,1,0.462941030303341,,,,,,,,,,,,,,,,,,84,001,22,w,Psychologie,2023-01-31_10h36.43.512,00_bat_bachelor,2022.2.4,59.95587247785864,
,,,,,,,,,,,,1,0,1,0,181,0,181,0,,,,,,,181,,,0.2,3887.4987355151516,X,d,go,d,1,0.36793593939376024,,,,,,,,,,,,,,,,,,84,001,22,w,Psychologie,2023-01-31_10h36.43.512,00_bat_bachelor,2022.2.4,59.95587247785864,
,,,,,,,,,,,,1,0,1,0,182,0,182,0,,,,,,,182,,,0.2,3888.1824402424245,X,None,nogo,None,1,,,,,3888.983092848485,,,,,,,,,,,,,,84,001,22,w,Psychologie,2023-01-31_10h36.43.512,00_bat_bachelor,2022.2.4,59.95587247785864,
,,,,,,,,,,,,1,0,1,0,183,0,183,0,,,,,,,183,,,0.2,3889.183469090909,Y,l,go,l,1,0.47529593939418646,,,,,,,,,,,,,,,,,,84,001,22,w,Psychologie,2023-01-31_10h36.43.512,00_bat_bachelor,2022.2.4,59.95587247785864,
,,,,,,,,,,,,1,0,1,0,184,0,184,0,,,,,,,184,,,0.2,3889.9673890909094,X,d,go,d,1,0.2992513333339275,,,,,,,,,,,,,,,,,,84,001,22,w,Psychologie,2023-01-31_10h36.43.512,00_bat_bachelor,2022.2.4,59.95587247785864,
,,,,,,,,,,,,1,0,1,0,185,0,185,0,,,,,,,185,,,0.2,3890.5677052121214,Y,l,go,l,1,0.4668702424243065,,,,,,,,,,,,,,,,,,84,001,22,w,Psychologie,2023-01-31_10h36.43.512,00_bat_bachelor,2022.2.4,59.95587247785864,
,,,,,,,,,,,,1,0,1,0,186,0,186,0,,,,,,,186,,,0.2,3891.334889212121,Y,None,nogo,None,1,,,,,,,,,,,,,,,,,,,84,001,22,w,Psychologie,2023-01-31_10h36.43.512,00_bat_bachelor,2022.2.4,59.95587247785864,
,,,,,,,,,,,,1,0,1,0,187,0,187,0,,,,,,,187,,,0.2,3892.3355432727276,X,d,go,d,1,0.39568236363641063,,,,,,,,,,,,,,,,,,84,001,22,w,Psychologie,2023-01-31_10h36.43.512,00_bat_bachelor,2022.2.4,59.95587247785864,
,,,,,,,,,,,,1,0,1,0,188,0,188,0,,,,,,,188,,,0.2,3893.0363524848485,Y,l,go,l,1,0.38211290909123363,,,,,,,,,,,,,,,,,,84,001,22,w,Psychologie,2023-01-31_10h36.43.512,00_bat_bachelor,2022.2.4,59.95587247785864,
,,,,,,,,,,,,1,0,1,0,189,0,189,0,,,,,,,189,,,0.2,3893.7202012121215,X,d,go,d,1,0.4018855151517755,,,,,,,,,,,,,,,,,,84,001,22,w,Psychologie,2023-01-31_10h36.43.512,00_bat_bachelor,2022.2.4,59.95587247785864,
,,,,,,,,,,,,1,0,1,0,190,0,190,0,,,,,,,190,,,0.2,3894.437459878788,X,None,nogo,None,1,,,,,,,,,,,,,,,,,,,84,001,22,w,Psychologie,2023-01-31_10h36.43.512,00_bat_bachelor,2022.2.4,59.95587247785864,
,,,,,,,,,,,,1,0,1,0,191,0,191,0,,,,,,,191,,,0.2,3895.4380649696973,Y,l,go,l,1,0.39685812121217623,,,,,,,,,,,,,,,,,,84,001,22,w,Psychologie,2023-01-31_10h36.43.512,00_bat_bachelor,2022.2.4,59.95587247785864,
,,,,,,,,,,,,1,0,1,0,192,0,192,0,,,,,,,192,,,0.2,3896.138656969697,X,d,go,d,1,0.31993884848509424,,,,,,,,,,,,,,,,,,84,001,22,w,Psychologie,2023-01-31_10h36.43.512,00_bat_bachelor,2022.2.4,59.95587247785864,
,,,,,,,,,,,,1,0,1,0,193,0,193,0,,,,,,,193,,,0.2,3896.772514909091,X,None,nogo,None,1,,,,,,,,,,,,,,,,,,,84,001,22,w,Psychologie,2023-01-31_10h36.43.512,00_bat_bachelor,2022.2.4,59.95587247785864,
,,,,,,,,,,,,1,0,1,0,194,0,194,0,,,,,,,194,,,0.2,3897.773329939394,Y,l,go,l,1,0.4136072121215193,,,,,,,,,,,,,,,,,,84,001,22,w,Psychologie,2023-01-31_10h36.43.512,00_bat_bachelor,2022.2.4,59.95587247785864,
,,,,,,,,,,,,1,0,1,0,195,0,195,0,,,,,,,195,,,0.2,3898.4905362424242,X,d,go,d,1,0.3363165454549062,,,,,,,,,,,,,,,,,,84,001,22,w,Psychologie,2023-01-31_10h36.43.512,00_bat_bachelor,2022.2.4,59.95587247785864,
,,,,,,,,,,,,1,0,1,0,196,0,196,0,,,,,,,196,,,0.2,3899.1411001212123,Y,l,go,l,1,0.31025933333387457,,,,,,,,,,,,,,,,,,84,001,22,w,Psychologie,2023-01-31_10h36.43.512,00_bat_bachelor,2022.2.4,59.95587247785864,
,,,,,,,,,,,,1,0,1,0,197,0,197,0,,,,,,,197,,,0.2,3899.7578972121214,Y,None,nogo,None,1,,,,,3900.5586065454545,,,,,,,,,,,,,,84,001,22,w,Psychologie,2023-01-31_10h36.43.512,00_bat_bachelor,2022.2.4,59.95587247785864,
,,,,,,,,,,,,1,0,1,0,198,0,198,0,,,,,,,198,,,0.2,3900.7587471515153,X,d,go,d,1,0.40398490909103657,,,,,,,,,,,,,,,,,,84,001,22,w,Psychologie,2023-01-31_10h36.43.512,00_bat_bachelor,2022.2.4,59.95587247785864,
,,,,,,,,,,,,1,0,1,0,199,0,199,0,,,,,,,199,,,0.2,3901.4760140606063,Y,l,go,l,1,0.2796547272729413,,,,,,,,,,,,,,,,,,84,001,22,w,Psychologie,2023-01-31_10h36.43.512,00_bat_bachelor,2022.2.4,59.95587247785864,
,,,,,,,,,,,,1,0,1,0,200,0,200,0,,,,,,,200,,,0.2,3902.0598981818184,X,d,go,d,1,0.30328527272752126,,,,,,,,,,,,,,,,,,84,001,22,w,Psychologie,2023-01-31_10h36.43.512,00_bat_bachelor,2022.2.4,59.95587247785864,
