loop_instruction.thisRepN,loop_instruction.thisTrialN,loop_instruction.thisN,loop_instruction.thisIndex,loop_rsi_practice.thisRepN,loop_rsi_practice.thisTrialN,loop_rsi_practice.thisN,loop_rsi_practice.thisIndex,loop_practice.thisRepN,loop_practice.thisTrialN,loop_practice.thisN,loop_practice.thisIndex,loop_exp.thisRepN,loop_exp.thisTrialN,loop_exp.thisN,loop_exp.thisIndex,loop_trials.thisRepN,loop_trials.thisTrialN,loop_trials.thisN,loop_trials.thisIndex,map_condition,map_x_key,map_y_key,key_resp_welcome.started,key_resp_welcome.keys,key_resp_welcome.rt,index,text_empty_rsi_practice.started,text_empty_rsi_practice.stopped,rsi,stimulus.started,stimulus.stopped,stimulus,correct,trial_type,key_resp_trial.keys,key_resp_trial.corr,key_resp_trial.rt,key_resp_instruction_rsi.started,key_resp_instruction_rsi.keys,key_resp_instruction_rsi.rt,key_resp_instruction_rsi.stopped,key_resp_instruction_final.started,key_resp_instruction_final.keys,key_resp_instruction_final.rt,key_resp_break.started,key_resp_break.keys,key_resp_break.rt,key_resp_break.stopped,key_resp_end_screen.started,image_end_screen.started,key_resp_end_screen.stopped,image_end_screen.stopped,key_resp_end_screen.keys,participant,session,Alter,Geschlecht (w/m/d/andere),Studiengang,date,expName,psychopyVersion,frameRate,
,,,,0,0,0,0,0,0,0,0,,,,,,,,,1,l,d,182.53077478788327,j,19.844488909089705,0,202.40185212121287,203.41449163635843,1,203.41449163635843,204.21366739393852,X,l,go,None,0,,,,,,,,,,,,,,,,,,87,001,30,m,Psychologie,2023-02-01_10h29.41.227,00_bat_bachelor,2022.2.4,59.966331634521545,
,,,,0,0,0,0,1,0,1,0,,,,,,,,,,,,,,,1,204.81408630302758,205.81491587878554,1,205.81491587878554,,Y,d,go,l,0,0.4116986060689669,,,,,,,,,,,,,,,,,87,001,30,m,Psychologie,2023-02-01_10h29.41.227,00_bat_bachelor,2022.2.4,59.966331634521545,
,,,,0,0,0,0,2,0,2,0,,,,,,,,,,,,,,,2,206.93245090909477,207.93298521211545,1,207.93298521211545,,X,l,go,d,0,0.4531580000038957,,,,,,,,,,,,,,,,,87,001,30,m,Psychologie,2023-02-01_10h29.41.227,00_bat_bachelor,2022.2.4,59.966331634521545,
,,,,0,0,0,0,3,0,3,0,,,,,,,,,,,,,,,3,209.1007127272751,210.1010385454574,1,210.1010385454574,,Y,d,go,d,1,0.5253916969668353,,,,,,,,,,,,,,,,,87,001,30,m,Psychologie,2023-02-01_10h29.41.227,00_bat_bachelor,2022.2.4,59.966331634521545,
,,,,0,0,0,0,4,0,4,0,,,,,,,,,,,,,,,4,211.3520130909019,212.35278448484314,1,212.35278448484314,,X,l,go,l,1,0.40173642424633726,,,,,,,,,,,,,,,,,87,001,30,m,Psychologie,2023-02-01_10h29.41.227,00_bat_bachelor,2022.2.4,59.966331634521545,
,,,,0,0,0,0,5,0,5,0,,,,,,,,,,,,,,,5,213.4704727272765,214.4712363636354,1,214.4712363636354,,Y,d,go,d,1,0.6513281818188261,,,,,,,,,,,,,,,,,87,001,30,m,Psychologie,2023-02-01_10h29.41.227,00_bat_bachelor,2022.2.4,59.966331634521545,
,,,,0,0,0,0,6,0,6,0,,,,,,,,,,,,,,,6,215.82301915151766,216.8238041212171,1,216.8238041212171,,Y,None,nogo,l,0,0.41075896969414316,,,,,,,,,,,,,,,,,87,001,30,m,Psychologie,2023-02-01_10h29.41.227,00_bat_bachelor,2022.2.4,59.966331634521545,
,,,,0,0,0,0,7,0,7,0,,,,,,,,,,,,,,,7,218.39123927272158,219.39202084847784,1,219.39202084847784,,X,l,go,d,0,0.5951953333278652,,,,,,,,,,,,,,,,,87,001,30,m,Psychologie,2023-02-01_10h29.41.227,00_bat_bachelor,2022.2.4,59.966331634521545,
,,,,0,0,0,0,8,0,8,0,,,,,,,,,,,,,,,8,220.6929823030223,221.69384533332777,1,221.69384533332777,,Y,d,go,d,1,0.628754606063012,,,,,,,,,,,,,,,,,87,001,30,m,Psychologie,2023-02-01_10h29.41.227,00_bat_bachelor,2022.2.4,59.966331634521545,
,,,,0,0,0,0,9,0,9,0,,,,,,,,,,,,,,,9,223.04458230303135,224.04532024242508,1,224.04532024242508,,X,l,go,l,1,0.5656559393828502,,,,,,,,,,,,,,,,,87,001,30,m,Psychologie,2023-02-01_10h29.41.227,00_bat_bachelor,2022.2.4,59.966331634521545,
,,,,0,0,0,0,10,0,10,0,,,,,,,,,,,,,,,10,225.313454060597,226.31409939393052,1,226.31409939393052,227.11476848484017,Y,d,go,None,0,,,,,,,,,,,,,,,,,,87,001,30,m,Psychologie,2023-02-01_10h29.41.227,00_bat_bachelor,2022.2.4,59.966331634521545,
,,,,0,0,0,0,11,0,11,0,,,,,,,,,,,,,,,11,227.71514424242196,228.71595539394184,1,228.71595539394184,229.51658618180954,X,l,go,None,0,,,,,,,,,,,,,,,,,,87,001,30,m,Psychologie,2023-02-01_10h29.41.227,00_bat_bachelor,2022.2.4,59.966331634521545,
,,,,0,0,0,0,12,0,12,0,,,,,,,,,,,,,,,12,230.1169861818198,231.11772169696633,1,231.11772169696633,231.91819199999736,Y,d,go,None,0,,,,,,,,,,,,,,,,,,87,001,30,m,Psychologie,2023-02-01_10h29.41.227,00_bat_bachelor,2022.2.4,59.966331634521545,
,,,,0,0,0,0,13,0,13,0,,,,,,,,,,,,,,,13,232.5186356363556,233.5195907878806,1,233.5195907878806,,X,l,go,l,1,0.4038227272685617,,,,,,,,,,,,,,,,,87,001,30,m,Psychologie,2023-02-01_10h29.41.227,00_bat_bachelor,2022.2.4,59.966331634521545,
,,,,0,0,0,0,14,0,14,0,,,,,,,,,,,,,,,14,234.63712872727774,235.6380029090942,1,235.6380029090942,,X,None,nogo,l,0,0.4130353333312087,,,,,,,,,,,,,,,,,87,001,30,m,Psychologie,2023-02-01_10h29.41.227,00_bat_bachelor,2022.2.4,59.966331634521545,
,,,,1,0,1,0,0,0,0,0,,,,,,,,,,,,,,,0,272.5155384242389,272.7158579393872,0.2,272.7158579393872,,X,l,go,l,1,0.5676258787862025,237.20365769696946,j,35.282795333332615,,,,,,,,,,,,,,87,001,30,m,Psychologie,2023-02-01_10h29.41.227,00_bat_bachelor,2022.2.4,59.966331634521545,
,,,,1,0,1,0,1,0,1,0,,,,,,,,,,,,,,,1,274.00007321212615,274.2004358787817,0.2,274.2004358787817,,Y,d,go,l,0,0.39431533333845437,,,,,,,,,,,,,,,,,87,001,30,m,Psychologie,2023-02-01_10h29.41.227,00_bat_bachelor,2022.2.4,59.966331634521545,
,,,,1,0,1,0,2,0,2,0,,,,,,,,,,,,,,,2,275.3012247272709,275.50087806060037,0.2,275.50087806060037,,X,l,go,d,0,0.5818057575816056,,,,,,,,,,,,,,,,,87,001,30,m,Psychologie,2023-02-01_10h29.41.227,00_bat_bachelor,2022.2.4,59.966331634521545,
,,,,1,0,1,0,3,0,3,0,,,,,,,,,,,,,,,3,276.8018739393883,277.00219490908785,0.2,277.00219490908785,,Y,d,go,d,1,0.6485500000126194,,,,,,,,,,,,,,,,,87,001,30,m,Psychologie,2023-02-01_10h29.41.227,00_bat_bachelor,2022.2.4,59.966331634521545,
,,,,1,0,1,0,4,0,4,0,,,,,,,,,,,,,,,4,278.3533013333363,278.553431272725,0.2,278.553431272725,,X,l,go,l,1,0.4416127878939733,,,,,,,,,,,,,,,,,87,001,30,m,Psychologie,2023-02-01_10h29.41.227,00_bat_bachelor,2022.2.4,59.966331634521545,
,,,,1,0,1,0,5,0,5,0,,,,,,,,,,,,,,,5,279.7043452121143,279.904463999992,0.2,279.904463999992,,Y,d,go,d,1,0.4515381212113425,,,,,,,,,,,,,,,,,87,001,30,m,Psychologie,2023-02-01_10h29.41.227,00_bat_bachelor,2022.2.4,59.966331634521545,
,,,,1,0,1,0,6,0,6,0,,,,,,,,,,,,,,,6,281.0720000000001,281.2721900605975,0.2,281.2721900605975,,Y,None,nogo,d,0,0.4439293939358322,,,,,,,,,,,,,,,,,87,001,30,m,Psychologie,2023-02-01_10h29.41.227,00_bat_bachelor,2022.2.4,59.966331634521545,
,,,,1,0,1,0,7,0,7,0,,,,,,,,,,,,,,,7,282.82301915151766,283.0235267878743,0.2,283.0235267878743,,X,l,go,l,1,0.5312510909134289,,,,,,,,,,,,,,,,,87,001,30,m,Psychologie,2023-02-01_10h29.41.227,00_bat_bachelor,2022.2.4,59.966331634521545,
,,,,1,0,1,0,8,0,8,0,,,,,,,,,,,,,,,8,284.2578671515075,284.4578763636382,0.2,284.4578763636382,,Y,d,go,d,1,0.4407972727349261,,,,,,,,,,,,,,,,,87,001,30,m,Psychologie,2023-02-01_10h29.41.227,00_bat_bachelor,2022.2.4,59.966331634521545,
,,,,1,0,1,0,9,0,9,0,,,,,,,,,,,,,,,9,285.6088615757617,285.80884509091265,0.2,285.80884509091265,,Y,None,nogo,None,1,,,,,,,,,,,,,,,,,,87,001,30,m,Psychologie,2023-02-01_10h29.41.227,00_bat_bachelor,2022.2.4,59.966331634521545,
,,,,1,0,1,0,10,0,10,0,,,,,,,,,,,,,,,10,287.20997624241863,287.40984824241605,0.2,287.40984824241605,,X,l,go,l,1,0.5293878181837499,,,,,,,,,,,,,,,,,87,001,30,m,Psychologie,2023-02-01_10h29.41.227,00_bat_bachelor,2022.2.4,59.966331634521545,
,,,,1,0,1,0,11,0,11,0,,,,,,,,,,,,,,,11,288.64446399999724,288.84441454545595,0.2,288.84441454545595,,Y,d,go,d,1,0.48712260606407654,,,,,,,,,,,,,,,,,87,001,30,m,Psychologie,2023-02-01_10h29.41.227,00_bat_bachelor,2022.2.4,59.966331634521545,
,,,,1,0,1,0,12,0,12,0,,,,,,,,,,,,,,,12,290.0455670303054,290.2456353939342,0.2,290.2456353939342,,Y,None,nogo,None,1,,,,,,,,,,,,,,,,,,87,001,30,m,Psychologie,2023-02-01_10h29.41.227,00_bat_bachelor,2022.2.4,59.966331634521545,
,,,,1,0,1,0,13,0,13,0,,,,,,,,,,,,,,,13,291.647115636355,291.8469803636399,0.2,291.8469803636399,,X,l,go,l,1,0.41197012120392174,,,,,,,,,,,,,,,,,87,001,30,m,Psychologie,2023-02-01_10h29.41.227,00_bat_bachelor,2022.2.4,59.966331634521545,
,,,,1,0,1,0,14,0,14,0,,,,,,,,,,,,,,,14,292.9645279999968,293.16496290908253,0.2,293.16496290908253,,Y,d,go,d,1,0.5016316969704349,,,,,,,,,,,,,,,,,87,001,30,m,Psychologie,2023-02-01_10h29.41.227,00_bat_bachelor,2022.2.4,59.966331634521545,
,,,,,,,,,,,,,,,,,,,,,,,,,,,,,,,,,,,,,,294.4546259393974,None,,294.4546259393974,294.4546259393974,space,10.06431000000157,,,,,,,,,,87,001,30,m,Psychologie,2023-02-01_10h29.41.227,00_bat_bachelor,2022.2.4,59.966331634521545,
,,,,,,,,,,,,0,0,0,0,0,0,0,0,,,,,,,0,,,1,305.5406487272703,,X,l,go,l,1,0.5428530303033767,,,,,,,,,,,,,,,,,87,001,30,m,Psychologie,2023-02-01_10h29.41.227,00_bat_bachelor,2022.2.4,59.966331634521545,
,,,,,,,,,,,,0,0,0,0,1,0,1,0,,,,,,,1,,,1,307.1918298181845,,Y,d,go,d,1,0.4911827272735536,,,,,,,,,,,,,,,,,87,001,30,m,Psychologie,2023-02-01_10h29.41.227,00_bat_bachelor,2022.2.4,59.966331634521545,
,,,,,,,,,,,,0,0,0,0,2,0,2,0,,,,,,,2,,,1,308.79307781817624,,X,l,go,l,1,0.5219788484828314,,,,,,,,,,,,,,,,,87,001,30,m,Psychologie,2023-02-01_10h29.41.227,00_bat_bachelor,2022.2.4,59.966331634521545,
,,,,,,,,,,,,0,0,0,0,3,0,3,0,,,,,,,3,,,1,310.4275360000029,,Y,d,go,d,1,0.5348733939463273,,,,,,,,,,,,,,,,,87,001,30,m,Psychologie,2023-02-01_10h29.41.227,00_bat_bachelor,2022.2.4,59.966331634521545,
,,,,,,,,,,,,0,0,0,0,4,0,4,0,,,,,,,4,,,1,312.07903466666176,,Y,None,nogo,None,1,,,,,,,,,,,,,,,,,,87,001,30,m,Psychologie,2023-02-01_10h29.41.227,00_bat_bachelor,2022.2.4,59.966331634521545,
,,,,,,,,,,,,0,0,0,0,5,0,5,0,,,,,,,5,,,1,313.8803767272766,,X,l,go,l,1,0.33097278788045514,,,,,,,,,,,,,,,,,87,001,30,m,Psychologie,2023-02-01_10h29.41.227,00_bat_bachelor,2022.2.4,59.966331634521545,
,,,,,,,,,,,,0,0,0,0,6,0,6,0,,,,,,,6,,,1,315.3145919999952,,Y,d,go,d,1,0.5449771515122848,,,,,,,,,,,,,,,,,87,001,30,m,Psychologie,2023-02-01_10h29.41.227,00_bat_bachelor,2022.2.4,59.966331634521545,
,,,,,,,,,,,,0,0,0,0,7,0,7,0,,,,,,,7,,,1,316.96574206060905,,X,l,go,l,1,0.5413446666643722,,,,,,,,,,,,,,,,,87,001,30,m,Psychologie,2023-02-01_10h29.41.227,00_bat_bachelor,2022.2.4,59.966331634521545,
,,,,,,,,,,,,0,0,0,0,8,0,8,0,,,,,,,8,,,1,318.6172145454475,,X,None,nogo,None,1,,,,,,,,,,,,,,,,,,87,001,30,m,Psychologie,2023-02-01_10h29.41.227,00_bat_bachelor,2022.2.4,59.966331634521545,
,,,,,,,,,,,,0,0,0,0,9,0,9,0,,,,,,,9,,,1,320.41860896968865,,Y,d,go,d,1,0.44872793939430267,,,,,,,,,,,,,,,,,87,001,30,m,Psychologie,2023-02-01_10h29.41.227,00_bat_bachelor,2022.2.4,59.966331634521545,
,,,,,,,,,,,,0,0,0,0,10,0,10,0,,,,,,,10,,,1,321.96983951514994,,X,l,go,l,1,0.5772801818238804,,,,,,,,,,,,,,,,,87,001,30,m,Psychologie,2023-02-01_10h29.41.227,00_bat_bachelor,2022.2.4,59.966331634521545,
,,,,,,,,,,,,0,0,0,0,11,0,11,0,,,,,,,11,,,1,323.6545032727299,,Y,d,go,d,1,0.6211769090878079,,,,,,,,,,,,,,,,,87,001,30,m,Psychologie,2023-02-01_10h29.41.227,00_bat_bachelor,2022.2.4,59.966331634521545,
,,,,,,,,,,,,0,0,0,0,12,0,12,0,,,,,,,12,,,1,325.38912193939905,,Y,None,nogo,None,1,,,,,,,,,,,,,,,,,,87,001,30,m,Psychologie,2023-02-01_10h29.41.227,00_bat_bachelor,2022.2.4,59.966331634521545,
,,,,,,,,,,,,0,0,0,0,13,0,13,0,,,,,,,13,,,1,327.19046303030336,,X,l,go,l,1,0.39688793939421885,,,,,,,,,,,,,,,,,87,001,30,m,Psychologie,2023-02-01_10h29.41.227,00_bat_bachelor,2022.2.4,59.966331634521545,
,,,,,,,,,,,,0,0,0,0,14,0,14,0,,,,,,,14,,,1,328.6915820606082,,Y,d,go,d,1,0.5430052727315342,,,,,,,,,,,,,,,,,87,001,30,m,Psychologie,2023-02-01_10h29.41.227,00_bat_bachelor,2022.2.4,59.966331634521545,
,,,,,,,,,,,,0,0,0,0,15,0,15,0,,,,,,,15,,,1,330.34291490909527,,X,l,go,l,1,0.5408893939311383,,,,,,,,,,,,,,,,,87,001,30,m,Psychologie,2023-02-01_10h29.41.227,00_bat_bachelor,2022.2.4,59.966331634521545,
,,,,,,,,,,,,0,0,0,0,16,0,16,0,,,,,,,16,,,1,331.9940615757514,,Y,d,go,d,1,0.3773543636343675,,,,,,,,,,,,,,,,,87,001,30,m,Psychologie,2023-02-01_10h29.41.227,00_bat_bachelor,2022.2.4,59.966331634521545,
,,,,,,,,,,,,0,0,0,0,17,0,17,0,,,,,,,17,,,1,333.47860363636573,,X,l,go,l,1,0.49217763636261225,,,,,,,,,,,,,,,,,87,001,30,m,Psychologie,2023-02-01_10h29.41.227,00_bat_bachelor,2022.2.4,59.966331634521545,
,,,,,,,,,,,,0,0,0,0,18,0,18,0,,,,,,,18,,,1,335.079726060605,,Y,d,go,l,0,0.6515342424245318,,,,,,,,,,,,,,,,,87,001,30,m,Psychologie,2023-02-01_10h29.41.227,00_bat_bachelor,2022.2.4,59.966331634521545,
,,,,,,,,,,,,0,0,0,0,19,0,19,0,,,,,,,19,,,1,336.8478220606048,,Y,None,nogo,d,0,0.6120093939389335,,,,,,,,,,,,,,,,,87,001,30,m,Psychologie,2023-02-01_10h29.41.227,00_bat_bachelor,2022.2.4,59.966331634521545,
,,,,,,,,,,,,0,0,0,0,20,0,20,0,,,,,,,20,,,1,338.5658172121184,,X,l,go,None,0,,,,,,,,,,,,,,,,,,87,001,30,m,Psychologie,2023-02-01_10h29.41.227,00_bat_bachelor,2022.2.4,59.966331634521545,
,,,,,,,,,,,,0,0,0,0,21,0,21,0,,,,,,,21,,,1,340.36753212120675,,Y,d,go,d,1,0.6121083030302543,,,,,,,,,,,,,,,,,87,001,30,m,Psychologie,2023-02-01_10h29.41.227,00_bat_bachelor,2022.2.4,59.966331634521545,
,,,,,,,,,,,,0,0,0,0,22,0,22,0,,,,,,,22,,,1,342.0851432727213,,Y,None,nogo,None,1,,,,,,,,,,,,,,,,,,87,001,30,m,Psychologie,2023-02-01_10h29.41.227,00_bat_bachelor,2022.2.4,59.966331634521545,
,,,,,,,,,,,,0,0,0,0,23,0,23,0,,,,,,,23,,,1,343.8863539393933,,X,l,go,l,1,0.4212520606088219,,,,,,,,,,,,,,,,,87,001,30,m,Psychologie,2023-02-01_10h29.41.227,00_bat_bachelor,2022.2.4,59.966331634521545,
,,,,,,,,,,,,0,0,0,0,24,0,24,0,,,,,,,24,,,1,345.42102109090774,346.22176484848023,Y,d,go,None,0,,,,,,,,,,,,,,,,,,87,001,30,m,Psychologie,2023-02-01_10h29.41.227,00_bat_bachelor,2022.2.4,59.966331634521545,
,,,,,,,,,,,,0,0,0,0,25,0,25,0,,,,,,,25,,,1,347.2223030302994,,X,l,go,None,0,,,,,,,,,,,,,,,,,,87,001,30,m,Psychologie,2023-02-01_10h29.41.227,00_bat_bachelor,2022.2.4,59.966331634521545,
,,,,,,,,,,,,0,0,0,0,26,0,26,0,,,,,,,26,,,1,349.02384193938633,349.82440581817355,X,None,nogo,None,1,,,,,,,,,,,,,,,,,,87,001,30,m,Psychologie,2023-02-01_10h29.41.227,00_bat_bachelor,2022.2.4,59.966331634521545,
,,,,,,,,,,,,0,0,0,0,27,0,27,0,,,,,,,27,,,1,350.8252164848527,,X,None,nogo,l,0,0.4902353333309293,,,,,,,,,,,,,,,,,87,001,30,m,Psychologie,2023-02-01_10h29.41.227,00_bat_bachelor,2022.2.4,59.966331634521545,
,,,,,,,,,,,,0,0,0,0,28,0,28,0,,,,,,,28,,,1,352.4261600000027,,Y,d,go,d,1,0.5045504848530982,,,,,,,,,,,,,,,,,87,001,30,m,Psychologie,2023-02-01_10h29.41.227,00_bat_bachelor,2022.2.4,59.966331634521545,
,,,,,,,,,,,,0,0,0,0,29,0,29,0,,,,,,,29,,,1,354.0442957575724,,X,l,go,l,1,0.5824525454518152,,,,,,,,,,,,,,,,,87,001,30,m,Psychologie,2023-02-01_10h29.41.227,00_bat_bachelor,2022.2.4,59.966331634521545,
,,,,,,,,,,,,0,0,0,0,30,0,30,0,,,,,,,30,,,1,355.7290399999911,,Y,d,go,d,1,0.3862954545475077,,,,,,,,,,,,,,,,,87,001,30,m,Psychologie,2023-02-01_10h29.41.227,00_bat_bachelor,2022.2.4,59.966331634521545,
,,,,,,,,,,,,0,0,0,0,31,0,31,0,,,,,,,31,,,1,357.22998884848494,,X,l,go,l,1,0.5656447878718609,,,,,,,,,,,,,,,,,87,001,30,m,Psychologie,2023-02-01_10h29.41.227,00_bat_bachelor,2022.2.4,59.966331634521545,
,,,,,,,,,,,,0,0,0,0,32,0,32,0,,,,,,,32,,,1,358.89781478788063,,Y,d,go,d,1,0.5296578787820181,,,,,,,,,,,,,,,,,87,001,30,m,Psychologie,2023-02-01_10h29.41.227,00_bat_bachelor,2022.2.4,59.966331634521545,
,,,,,,,,,,,,0,0,0,0,33,0,33,0,,,,,,,33,,,1,360.5323258181743,,Y,None,nogo,d,0,0.5589112121087965,,,,,,,,,,,,,,,,,87,001,30,m,Psychologie,2023-02-01_10h29.41.227,00_bat_bachelor,2022.2.4,59.966331634521545,
,,,,,,,,,,,,0,0,0,0,34,0,34,0,,,,,,,34,,,1,362.2006317575724,363.00123587877897,Y,None,nogo,None,1,,,,,,,,,,,,,,,,,,87,001,30,m,Psychologie,2023-02-01_10h29.41.227,00_bat_bachelor,2022.2.4,59.966331634521545,
,,,,,,,,,,,,0,0,0,0,35,0,35,0,,,,,,,35,,,1,364.0021866666648,,X,l,go,l,1,0.43279824242927134,,,,,,,,,,,,,,,,,87,001,30,m,Psychologie,2023-02-01_10h29.41.227,00_bat_bachelor,2022.2.4,59.966331634521545,
,,,,,,,,,,,,0,0,0,0,36,0,36,0,,,,,,,36,,,1,365.53651733332663,,Y,d,go,d,1,0.5946901212155353,,,,,,,,,,,,,,,,,87,001,30,m,Psychologie,2023-02-01_10h29.41.227,00_bat_bachelor,2022.2.4,59.966331634521545,
,,,,,,,,,,,,0,0,0,0,37,0,37,0,,,,,,,37,,,1,367.23799272727047,368.0386589090922,Y,None,nogo,None,1,,,,,,,,,,,,,,,,,,87,001,30,m,Psychologie,2023-02-01_10h29.41.227,00_bat_bachelor,2022.2.4,59.966331634521545,
,,,,,,,,,,,,0,0,0,0,38,0,38,0,,,,,,,38,,,1,369.0393638787791,369.83977599999344,Y,None,nogo,None,1,,,,,,,,,,,,,,,,,,87,001,30,m,Psychologie,2023-02-01_10h29.41.227,00_bat_bachelor,2022.2.4,59.966331634521545,
,,,,,,,,,,,,0,0,0,0,39,0,39,0,,,,,,,39,,,1,370.84064533333003,,X,l,go,l,1,0.4259541212086333,,,,,,,,,,,,,,,,,87,001,30,m,Psychologie,2023-02-01_10h29.41.227,00_bat_bachelor,2022.2.4,59.966331634521545,
,,,,,,,,,,,,0,0,0,0,40,0,40,0,,,,,,,40,,,1,372.37463369696343,,Y,d,go,d,1,0.42758999999205116,,,,,,,,,,,,,,,,,87,001,30,m,Psychologie,2023-02-01_10h29.41.227,00_bat_bachelor,2022.2.4,59.966331634521545,
,,,,,,,,,,,,0,0,0,0,41,0,41,0,,,,,,,41,,,1,373.9094492121221,,Y,None,nogo,d,0,0.6220753333327593,,,,,,,,,,,,,,,,,87,001,30,m,Psychologie,2023-02-01_10h29.41.227,00_bat_bachelor,2022.2.4,59.966331634521545,
,,,,,,,,,,,,0,0,0,0,42,0,42,0,,,,,,,42,,,1,375.64410375757143,,X,l,go,None,0,,,,,,,,,,,,,,,,,,87,001,30,m,Psychologie,2023-02-01_10h29.41.227,00_bat_bachelor,2022.2.4,59.966331634521545,
,,,,,,,,,,,,0,0,0,0,43,0,43,0,,,,,,,43,,,1,377.4452935757581,378.24577163635695,Y,d,go,None,0,,,,,,,,,,,,,,,,,,87,001,30,m,Psychologie,2023-02-01_10h29.41.227,00_bat_bachelor,2022.2.4,59.966331634521545,
,,,,,,,,,,,,0,0,0,0,44,0,44,0,,,,,,,44,,,1,379.2476358787826,380.0484751515178,Y,None,nogo,None,1,,,,,,,,,,,,,,,,,,87,001,30,m,Psychologie,2023-02-01_10h29.41.227,00_bat_bachelor,2022.2.4,59.966331634521545,
,,,,,,,,,,,,0,0,0,0,45,0,45,0,,,,,,,45,,,1,381.04893769696355,,X,l,go,l,1,0.45689133333507925,,,,,,,,,,,,,,,,,87,001,30,m,Psychologie,2023-02-01_10h29.41.227,00_bat_bachelor,2022.2.4,59.966331634521545,
,,,,,,,,,,,,0,0,0,0,46,0,46,0,,,,,,,46,,,1,382.63332412121235,,Y,d,go,d,1,0.489267090903013,,,,,,,,,,,,,,,,,87,001,30,m,Psychologie,2023-02-01_10h29.41.227,00_bat_bachelor,2022.2.4,59.966331634521545,
,,,,,,,,,,,,0,0,0,0,47,0,47,0,,,,,,,47,,,1,384.251233939387,385.052227878783,Y,None,nogo,None,1,,,,,,,,,,,,,,,,,,87,001,30,m,Psychologie,2023-02-01_10h29.41.227,00_bat_bachelor,2022.2.4,59.966331634521545,
,,,,,,,,,,,,0,0,0,0,48,0,48,0,,,,,,,48,,,1,386.0527437575802,,X,l,go,l,1,0.36584260607196484,,,,,,,,,,,,,,,,,87,001,30,m,Psychologie,2023-02-01_10h29.41.227,00_bat_bachelor,2022.2.4,59.966331634521545,
,,,,,,,,,,,,0,0,0,0,49,0,49,0,,,,,,,49,,,1,387.5370511515066,,Y,d,go,d,1,0.48109593939443585,,,,,,,,,,,,,,,,,87,001,30,m,Psychologie,2023-02-01_10h29.41.227,00_bat_bachelor,2022.2.4,59.966331634521545,
,,,,,,,,,,,,0,0,0,0,50,0,50,0,,,,,,,50,,,1,389.13851103029447,,X,l,go,l,1,0.5451958181802183,,,,,,,,,,,,,,,,,87,001,30,m,Psychologie,2023-02-01_10h29.41.227,00_bat_bachelor,2022.2.4,59.966331634521545,
,,,,,,,,,,,,0,0,0,0,51,0,51,0,,,,,,,51,,,1,390.78972945454007,,X,None,nogo,l,0,0.5729053939430742,,,,,,,,,,,,,,,,,87,001,30,m,Psychologie,2023-02-01_10h29.41.227,00_bat_bachelor,2022.2.4,59.966331634521545,
,,,,,,,,,,,,0,0,0,0,52,0,52,0,,,,,,,52,,,1,392.50748024242057,,Y,d,go,d,1,0.43913084849191364,,,,,,,,,,,,,,,,,87,001,30,m,Psychologie,2023-02-01_10h29.41.227,00_bat_bachelor,2022.2.4,59.966331634521545,
,,,,,,,,,,,,0,0,0,0,53,0,53,0,,,,,,,53,,,1,394.0920349090884,,X,l,go,l,1,0.5502140000025975,,,,,,,,,,,,,,,,,87,001,30,m,Psychologie,2023-02-01_10h29.41.227,00_bat_bachelor,2022.2.4,59.966331634521545,
,,,,,,,,,,,,0,0,0,0,54,0,54,0,,,,,,,54,,,1,395.7601042424212,,Y,d,go,d,1,0.4349441818194464,,,,,,,,,,,,,,,,,87,001,30,m,Psychologie,2023-02-01_10h29.41.227,00_bat_bachelor,2022.2.4,59.966331634521545,
,,,,,,,,,,,,0,0,0,0,55,0,55,0,,,,,,,55,,,1,397.32785890909145,398.1289580606099,Y,None,nogo,None,1,,,,,,,,,,,,,,,,,,87,001,30,m,Psychologie,2023-02-01_10h29.41.227,00_bat_bachelor,2022.2.4,59.966331634521545,
,,,,,,,,,,,,0,0,0,0,56,0,56,0,,,,,,,56,,,1,399.12942303030286,,X,l,go,l,1,0.36144309090741444,,,,,,,,,,,,,,,,,87,001,30,m,Psychologie,2023-02-01_10h29.41.227,00_bat_bachelor,2022.2.4,59.966331634521545,
,,,,,,,,,,,,0,0,0,0,57,0,57,0,,,,,,,57,,,1,400.61368630302604,401.4147044848505,Y,d,go,None,0,,,,,,,,,,,,,,,,,,87,001,30,m,Psychologie,2023-02-01_10h29.41.227,00_bat_bachelor,2022.2.4,59.966331634521545,
,,,,,,,,,,,,0,0,0,0,58,0,58,0,,,,,,,58,,,1,402.4152892121201,,X,l,go,l,1,0.4827846666739788,,,,,,,,,,,,,,,,,87,001,30,m,Psychologie,2023-02-01_10h29.41.227,00_bat_bachelor,2022.2.4,59.966331634521545,
,,,,,,,,,,,,0,0,0,0,59,0,59,0,,,,,,,59,,,1,404.0330055757513,,Y,d,go,d,1,0.4649829697009409,,,,,,,,,,,,,,,,,87,001,30,m,Psychologie,2023-02-01_10h29.41.227,00_bat_bachelor,2022.2.4,59.966331634521545,
,,,,,,,,,,,,0,0,0,0,60,0,60,0,,,,,,,60,,,1,405.6174239999964,,X,l,go,l,1,0.43269496969878674,,,,,,,,,,,,,,,,,87,001,30,m,Psychologie,2023-02-01_10h29.41.227,00_bat_bachelor,2022.2.4,59.966331634521545,
,,,,,,,,,,,,0,0,0,0,61,0,61,0,,,,,,,61,,,1,407.1683655757515,,X,None,nogo,d,0,0.4182387272740016,,,,,,,,,,,,,,,,,87,001,30,m,Psychologie,2023-02-01_10h29.41.227,00_bat_bachelor,2022.2.4,59.966331634521545,
,,,,,,,,,,,,0,0,0,0,62,0,62,0,,,,,,,62,,,1,408.70299878787773,,X,None,nogo,l,0,0.564848666661419,,,,,,,,,,,,,,,,,87,001,30,m,Psychologie,2023-02-01_10h29.41.227,00_bat_bachelor,2022.2.4,59.966331634521545,
,,,,,,,,,,,,0,0,0,0,63,0,63,0,,,,,,,63,,,1,410.3708266666654,,Y,d,go,d,1,0.4953097575780703,,,,,,,,,,,,,,,,,87,001,30,m,Psychologie,2023-02-01_10h29.41.227,00_bat_bachelor,2022.2.4,59.966331634521545,
,,,,,,,,,,,,0,0,0,0,64,0,64,0,,,,,,,64,,,1,411.97223854545155,,X,l,go,l,1,0.5747778787917923,,,,,,,,,,,,,,,,,87,001,30,m,Psychologie,2023-02-01_10h29.41.227,00_bat_bachelor,2022.2.4,59.966331634521545,
,,,,,,,,,,,,0,0,0,0,65,0,65,0,,,,,,,65,,,1,413.6568993939436,,Y,d,go,d,1,0.5059773939428851,,,,,,,,,,,,,,,,,87,001,30,m,Psychologie,2023-02-01_10h29.41.227,00_bat_bachelor,2022.2.4,59.966331634521545,
,,,,,,,,,,,,0,0,0,0,66,0,66,0,,,,,,,66,,,1,415.2915015757608,,X,l,go,l,1,0.5995027272729203,,,,,,,,,,,,,,,,,87,001,30,m,Psychologie,2023-02-01_10h29.41.227,00_bat_bachelor,2022.2.4,59.966331634521545,
,,,,,,,,,,,,0,0,0,0,67,0,67,0,,,,,,,67,,,1,416.9924950302957,,Y,d,go,d,1,0.49845884849491995,,,,,,,,,,,,,,,,,87,001,30,m,Psychologie,2023-02-01_10h29.41.227,00_bat_bachelor,2022.2.4,59.966331634521545,
,,,,,,,,,,,,0,0,0,0,68,0,68,0,,,,,,,68,,,1,418.5938947878749,419.39456387878454,Y,None,nogo,None,1,,,,,,,,,,,,,,,,,,87,001,30,m,Psychologie,2023-02-01_10h29.41.227,00_bat_bachelor,2022.2.4,59.966331634521545,
,,,,,,,,,,,,0,0,0,0,69,0,69,0,,,,,,,69,,,1,420.39510690908355,,X,l,go,l,1,0.4879613939410774,,,,,,,,,,,,,,,,,87,001,30,m,Psychologie,2023-02-01_10h29.41.227,00_bat_bachelor,2022.2.4,59.966331634521545,
,,,,,,,,,,,,0,0,0,0,70,0,70,0,,,,,,,70,,,1,421.99634763636277,,Y,d,go,d,1,0.5185340000025462,,,,,,,,,,,,,,,,,87,001,30,m,Psychologie,2023-02-01_10h29.41.227,00_bat_bachelor,2022.2.4,59.966331634521545,
,,,,,,,,,,,,0,0,0,0,71,0,71,0,,,,,,,71,,,1,423.64734739394044,424.4479277575738,Y,None,nogo,None,1,,,,,,,,,,,,,,,,,,87,001,30,m,Psychologie,2023-02-01_10h29.41.227,00_bat_bachelor,2022.2.4,59.966331634521545,
,,,,,,,,,,,,0,0,0,0,72,0,72,0,,,,,,,72,,,1,425.4487296969746,,X,l,go,l,1,0.29832890909165144,,,,,,,,,,,,,,,,,87,001,30,m,Psychologie,2023-02-01_10h29.41.227,00_bat_bachelor,2022.2.4,59.966331634521545,
,,,,,,,,,,,,0,0,0,0,73,0,73,0,,,,,,,73,,,1,426.8499025454512,,Y,d,go,d,1,0.4654096363665303,,,,,,,,,,,,,,,,,87,001,30,m,Psychologie,2023-02-01_10h29.41.227,00_bat_bachelor,2022.2.4,59.966331634521545,
,,,,,,,,,,,,0,0,0,0,74,0,74,0,,,,,,,74,,,1,428.4176606060646,429.2182327272749,Y,None,nogo,None,1,,,,,,,,,,,,,,,,,,87,001,30,m,Psychologie,2023-02-01_10h29.41.227,00_bat_bachelor,2022.2.4,59.966331634521545,
,,,,,,,,,,,,0,0,0,0,75,0,75,0,,,,,,,75,,,1,430.2190235151502,,X,l,go,l,1,0.2967177575774258,,,,,,,,,,,,,,,,,87,001,30,m,Psychologie,2023-02-01_10h29.41.227,00_bat_bachelor,2022.2.4,59.966331634521545,
,,,,,,,,,,,,0,0,0,0,76,0,76,0,,,,,,,76,,,1,431.62005090908497,,Y,d,go,d,1,0.3670363030250883,,,,,,,,,,,,,,,,,87,001,30,m,Psychologie,2023-02-01_10h29.41.227,00_bat_bachelor,2022.2.4,59.966331634521545,
,,,,,,,,,,,,0,0,0,0,77,0,77,0,,,,,,,77,,,1,433.0879166060622,,X,l,go,l,1,0.6431429696967825,,,,,,,,,,,,,,,,,87,001,30,m,Psychologie,2023-02-01_10h29.41.227,00_bat_bachelor,2022.2.4,59.966331634521545,
,,,,,,,,,,,,0,0,0,0,78,0,78,0,,,,,,,78,,,1,434.83918012121285,,Y,d,go,d,1,0.4601815151545452,,,,,,,,,,,,,,,,,87,001,30,m,Psychologie,2023-02-01_10h29.41.227,00_bat_bachelor,2022.2.4,59.966331634521545,
,,,,,,,,,,,,0,0,0,0,79,0,79,0,,,,,,,79,,,1,436.4072300606058,,X,l,go,l,1,0.42855484849133063,,,,,,,,,,,,,,,,,87,001,30,m,Psychologie,2023-02-01_10h29.41.227,00_bat_bachelor,2022.2.4,59.966331634521545,
,,,,,,,,,,,,0,0,0,0,80,0,80,0,,,,,,,80,,,1,437.9417580606096,438.74218666667,X,None,nogo,None,1,,,,,,,,,,,,,,,,,,87,001,30,m,Psychologie,2023-02-01_10h29.41.227,00_bat_bachelor,2022.2.4,59.966331634521545,
,,,,,,,,,,,,0,0,0,0,81,0,81,0,,,,,,,81,,,1,439.74316315150645,440.54354424242047,X,None,nogo,None,1,,,,,,,,,,,,,,,,,,87,001,30,m,Psychologie,2023-02-01_10h29.41.227,00_bat_bachelor,2022.2.4,59.966331634521545,
,,,,,,,,,,,,0,0,0,0,82,0,82,0,,,,,,,82,,,1,441.5444470303046,,Y,d,go,d,1,0.45837399999436457,,,,,,,,,,,,,,,,,87,001,30,m,Psychologie,2023-02-01_10h29.41.227,00_bat_bachelor,2022.2.4,59.966331634521545,
,,,,,,,,,,,,0,0,0,0,83,0,83,0,,,,,,,83,,,1,443.11214254544757,,X,l,go,l,1,0.4908297575748293,,,,,,,,,,,,,,,,,87,001,30,m,Psychologie,2023-02-01_10h29.41.227,00_bat_bachelor,2022.2.4,59.966331634521545,
,,,,,,,,,,,,0,0,0,0,84,0,84,0,,,,,,,84,,,1,444.7136096969625,445.514185212116,X,None,nogo,None,1,,,,,,,,,,,,,,,,,,87,001,30,m,Psychologie,2023-02-01_10h29.41.227,00_bat_bachelor,2022.2.4,59.966331634521545,
,,,,,,,,,,,,0,0,0,0,85,0,85,0,,,,,,,85,,,1,446.51506036362844,,Y,d,go,d,1,0.38447339394770097,,,,,,,,,,,,,,,,,87,001,30,m,Psychologie,2023-02-01_10h29.41.227,00_bat_bachelor,2022.2.4,59.966331634521545,
,,,,,,,,,,,,0,0,0,0,86,0,86,0,,,,,,,86,,,1,448.016077575754,,X,l,go,l,1,0.5951875757600646,,,,,,,,,,,,,,,,,87,001,30,m,Psychologie,2023-02-01_10h29.41.227,00_bat_bachelor,2022.2.4,59.966331634521545,
,,,,,,,,,,,,0,0,0,0,87,0,87,0,,,,,,,87,,,1,449.7173362424219,,Y,d,go,d,1,0.4622062424168689,,,,,,,,,,,,,,,,,87,001,30,m,Psychologie,2023-02-01_10h29.41.227,00_bat_bachelor,2022.2.4,59.966331634521545,
,,,,,,,,,,,,0,0,0,0,88,0,88,0,,,,,,,88,,,1,451.2850569696893,,Y,None,nogo,d,0,0.5102726666664239,,,,,,,,,,,,,,,,,87,001,30,m,Psychologie,2023-02-01_10h29.41.227,00_bat_bachelor,2022.2.4,59.966331634521545,
,,,,,,,,,,,,0,0,0,0,89,0,89,0,,,,,,,89,,,1,452.9029512727284,,X,l,go,l,1,0.3964719393989071,,,,,,,,,,,,,,,,,87,001,30,m,Psychologie,2023-02-01_10h29.41.227,00_bat_bachelor,2022.2.4,59.966331634521545,
,,,,,,,,,,,,0,0,0,0,90,0,90,0,,,,,,,90,,,1,454.4041507878719,,Y,d,go,d,1,0.46247048485383857,,,,,,,,,,,,,,,,,87,001,30,m,Psychologie,2023-02-01_10h29.41.227,00_bat_bachelor,2022.2.4,59.966331634521545,
,,,,,,,,,,,,0,0,0,0,91,0,91,0,,,,,,,91,,,1,455.9719456969615,,X,l,go,l,1,0.4786998181807576,,,,,,,,,,,,,,,,,87,001,30,m,Psychologie,2023-02-01_10h29.41.227,00_bat_bachelor,2022.2.4,59.966331634521545,
,,,,,,,,,,,,0,0,0,0,92,0,92,0,,,,,,,92,,,1,457.5567238787917,458.3572921212035,X,None,nogo,None,1,,,,,,,,,,,,,,,,,,87,001,30,m,Psychologie,2023-02-01_10h29.41.227,00_bat_bachelor,2022.2.4,59.966331634521545,
,,,,,,,,,,,,0,0,0,0,93,0,93,0,,,,,,,93,,,1,459.3580441212107,,Y,d,go,d,1,0.37334806060243864,,,,,,,,,,,,,,,,,87,001,30,m,Psychologie,2023-02-01_10h29.41.227,00_bat_bachelor,2022.2.4,59.966331634521545,
,,,,,,,,,,,,0,0,0,0,94,0,94,0,,,,,,,94,,,1,460.8423471515125,,X,l,go,l,1,0.5201994545495836,,,,,,,,,,,,,,,,,87,001,30,m,Psychologie,2023-02-01_10h29.41.227,00_bat_bachelor,2022.2.4,59.966331634521545,
,,,,,,,,,,,,0,0,0,0,95,0,95,0,,,,,,,95,,,1,462.47686787878047,,Y,d,go,d,1,0.5344966666598339,,,,,,,,,,,,,,,,,87,001,30,m,Psychologie,2023-02-01_10h29.41.227,00_bat_bachelor,2022.2.4,59.966331634521545,
,,,,,,,,,,,,0,0,0,0,96,0,96,0,,,,,,,96,,,1,464.1283330909064,,X,l,go,l,1,0.4822183636279078,,,,,,,,,,,,,,,,,87,001,30,m,Psychologie,2023-02-01_10h29.41.227,00_bat_bachelor,2022.2.4,59.966331634521545,
,,,,,,,,,,,,0,0,0,0,97,0,97,0,,,,,,,97,,,1,465.7130050909036,,Y,d,go,d,1,0.6430906060704729,,,,,,,,,,,,,,,,,87,001,30,m,Psychologie,2023-02-01_10h29.41.227,00_bat_bachelor,2022.2.4,59.966331634521545,
,,,,,,,,,,,,0,0,0,0,98,0,98,0,,,,,,,98,,,1,467.46400581818307,,Y,None,nogo,None,1,,,,,,,,,,,,,,,,,,87,001,30,m,Psychologie,2023-02-01_10h29.41.227,00_bat_bachelor,2022.2.4,59.966331634521545,
,,,,,,,,,,,,0,0,0,0,99,0,99,0,,,,,,,99,,,1,469.26546860605595,,X,l,go,l,1,0.289587575753103,,,,,,,,,,,,,,,,,87,001,30,m,Psychologie,2023-02-01_10h29.41.227,00_bat_bachelor,2022.2.4,59.966331634521545,
,,,,,,,,,,,,0,0,0,0,100,0,100,0,,,,,,,100,,,1,470.66666327272833,,Y,d,go,d,1,0.5049596969620325,,,,,,,,,,,,,,,,,87,001,30,m,Psychologie,2023-02-01_10h29.41.227,00_bat_bachelor,2022.2.4,59.966331634521545,
,,,,,,,,,,,,0,0,0,0,101,0,101,0,,,,,,,101,,,1,472.2843796363595,,X,l,go,l,1,0.45498393938760273,,,,,,,,,,,,,,,,,87,001,30,m,Psychologie,2023-02-01_10h29.41.227,00_bat_bachelor,2022.2.4,59.966331634521545,
,,,,,,,,,,,,0,0,0,0,102,0,102,0,,,,,,,102,,,1,473.8523238787893,,Y,d,go,d,1,0.3910775151452981,,,,,,,,,,,,,,,,,87,001,30,m,Psychologie,2023-02-01_10h29.41.227,00_bat_bachelor,2022.2.4,59.966331634521545,
,,,,,,,,,,,,0,0,0,0,103,0,103,0,,,,,,,103,,,1,475.35314133332577,,Y,None,nogo,d,0,0.4411691515124403,,,,,,,,,,,,,,,,,87,001,30,m,Psychologie,2023-02-01_10h29.41.227,00_bat_bachelor,2022.2.4,59.966331634521545,
,,,,,,,,,,,,0,0,0,0,104,0,104,0,,,,,,,104,,,1,476.9045527272683,,X,l,go,l,1,0.33114975757780485,,,,,,,,,,,,,,,,,87,001,30,m,Psychologie,2023-02-01_10h29.41.227,00_bat_bachelor,2022.2.4,59.966331634521545,
,,,,,,,,,,,,0,0,0,0,105,0,105,0,,,,,,,105,,,1,478.33900751515466,,Y,d,go,d,1,0.48078272727434523,,,,,,,,,,,,,,,,,87,001,30,m,Psychologie,2023-02-01_10h29.41.227,00_bat_bachelor,2022.2.4,59.966331634521545,
,,,,,,,,,,,,0,0,0,0,106,0,106,0,,,,,,,106,,,1,479.92330424241663,,X,l,go,l,1,0.4154411515191896,,,,,,,,,,,,,,,,,87,001,30,m,Psychologie,2023-02-01_10h29.41.227,00_bat_bachelor,2022.2.4,59.966331634521545,
,,,,,,,,,,,,0,0,0,0,107,0,107,0,,,,,,,107,,,1,481.44134690909414,,Y,d,go,d,1,0.5147487878712127,,,,,,,,,,,,,,,,,87,001,30,m,Psychologie,2023-02-01_10h29.41.227,00_bat_bachelor,2022.2.4,59.966331634521545,
,,,,,,,,,,,,0,0,0,0,108,0,108,0,,,,,,,108,,,1,483.05904533332796,,X,l,go,l,1,0.48054272726585623,,,,,,,,,,,,,,,,,87,001,30,m,Psychologie,2023-02-01_10h29.41.227,00_bat_bachelor,2022.2.4,59.966331634521545,
,,,,,,,,,,,,0,0,0,0,109,0,109,0,,,,,,,109,,,1,484.6438443636289,,Y,d,go,d,1,0.383313636368257,,,,,,,,,,,,,,,,,87,001,30,m,Psychologie,2023-02-01_10h29.41.227,00_bat_bachelor,2022.2.4,59.966331634521545,
,,,,,,,,,,,,0,0,0,0,110,0,110,0,,,,,,,110,,,1,486.12837866666086,,X,l,go,l,1,0.4830096363584744,,,,,,,,,,,,,,,,,87,001,30,m,Psychologie,2023-02-01_10h29.41.227,00_bat_bachelor,2022.2.4,59.966331634521545,
,,,,,,,,,,,,0,0,0,0,111,0,111,0,,,,,,,111,,,1,487.71282909090223,,Y,d,go,d,1,0.33790224241965916,,,,,,,,,,,,,,,,,87,001,30,m,Psychologie,2023-02-01_10h29.41.227,00_bat_bachelor,2022.2.4,59.966331634521545,
,,,,,,,,,,,,0,0,0,0,112,0,112,0,,,,,,,112,,,1,489.16455951514945,489.96555636363337,Y,None,nogo,None,1,,,,,,,,,,,,,,,,,,87,001,30,m,Psychologie,2023-02-01_10h29.41.227,00_bat_bachelor,2022.2.4,59.966331634521545,
,,,,,,,,,,,,0,0,0,0,113,0,113,0,,,,,,,113,,,1,490.96588266667095,,X,l,go,l,1,0.3964016363606788,,,,,,,,,,,,,,,,,87,001,30,m,Psychologie,2023-02-01_10h29.41.227,00_bat_bachelor,2022.2.4,59.966331634521545,
,,,,,,,,,,,,0,0,0,0,114,0,114,0,,,,,,,114,,,1,492.5004261818103,493.3016576969676,Y,d,go,None,0,,,,,,,,,,,,,,,,,,87,001,30,m,Psychologie,2023-02-01_10h29.41.227,00_bat_bachelor,2022.2.4,59.966331634521545,
,,,,,,,,,,,,0,0,0,0,115,0,115,0,,,,,,,115,,,1,494.3017711515131,,X,l,go,l,1,0.45245933333353605,,,,,,,,,,,,,,,,,87,001,30,m,Psychologie,2023-02-01_10h29.41.227,00_bat_bachelor,2022.2.4,59.966331634521545,
,,,,,,,,,,,,0,0,0,0,116,0,116,0,,,,,,,116,,,1,495.88638303030166,,Y,d,go,d,1,0.387837272734032,,,,,,,,,,,,,,,,,87,001,30,m,Psychologie,2023-02-01_10h29.41.227,00_bat_bachelor,2022.2.4,59.966331634521545,
,,,,,,,,,,,,0,0,0,0,117,0,117,0,,,,,,,117,,,1,497.40419296969776,,Y,None,nogo,d,0,0.35795606061583385,,,,,,,,,,,,,,,,,87,001,30,m,Psychologie,2023-02-01_10h29.41.227,00_bat_bachelor,2022.2.4,59.966331634521545,
,,,,,,,,,,,,0,0,0,0,118,0,118,0,,,,,,,118,,,1,498.88856484848657,,X,l,go,l,1,0.4259022424230352,,,,,,,,,,,,,,,,,87,001,30,m,Psychologie,2023-02-01_10h29.41.227,00_bat_bachelor,2022.2.4,59.966331634521545,
,,,,,,,,,,,,0,0,0,0,119,0,119,0,,,,,,,119,,,1,500.4232950302976,,Y,d,go,d,1,0.5714178787893616,,,,,,,,,,,,,,,,,87,001,30,m,Psychologie,2023-02-01_10h29.41.227,00_bat_bachelor,2022.2.4,59.966331634521545,
,,,,,,,,,,,,0,0,0,0,120,0,120,0,,,,,,,120,,,1,502.1246235151484,502.92543418181594,Y,None,nogo,None,1,,,,,,,,,,,,,,,,,,87,001,30,m,Psychologie,2023-02-01_10h29.41.227,00_bat_bachelor,2022.2.4,59.966331634521545,
,,,,,,,,,,,,0,0,0,0,121,0,121,0,,,,,,,121,,,1,503.92598400000134,,X,l,go,l,1,0.3167963030282408,,,,,,,,,,,,,,,,,87,001,30,m,Psychologie,2023-02-01_10h29.41.227,00_bat_bachelor,2022.2.4,59.966331634521545,
,,,,,,,,,,,,0,0,0,0,122,0,122,0,,,,,,,122,,,1,505.35999224241823,,Y,d,go,d,1,0.48224066667899024,,,,,,,,,,,,,,,,,87,001,30,m,Psychologie,2023-02-01_10h29.41.227,00_bat_bachelor,2022.2.4,59.966331634521545,
,,,,,,,,,,,,0,0,0,0,123,0,123,0,,,,,,,123,,,1,506.9614176969626,,X,l,go,l,1,0.6099783636309439,,,,,,,,,,,,,,,,,87,001,30,m,Psychologie,2023-02-01_10h29.41.227,00_bat_bachelor,2022.2.4,59.966331634521545,
,,,,,,,,,,,,0,0,0,0,124,0,124,0,,,,,,,124,,,1,508.67918012120936,509.4801726060541,X,None,nogo,None,1,,,,,,,,,,,,,,,,,,87,001,30,m,Psychologie,2023-02-01_10h29.41.227,00_bat_bachelor,2022.2.4,59.966331634521545,
,,,,,,,,,,,,0,0,0,0,125,0,125,0,,,,,,,125,,,1,510.4807815757522,,Y,d,go,d,1,0.45034539393964224,,,,,,,,,,,,,,,,,87,001,30,m,Psychologie,2023-02-01_10h29.41.227,00_bat_bachelor,2022.2.4,59.966331634521545,
,,,,,,,,,,,,0,0,0,0,126,0,126,0,,,,,,,126,,,1,512.0317522424157,,X,l,go,l,1,0.5151929090934573,,,,,,,,,,,,,,,,,87,001,30,m,Psychologie,2023-02-01_10h29.41.227,00_bat_bachelor,2022.2.4,59.966331634521545,
,,,,,,,,,,,,0,0,0,0,127,0,127,0,,,,,,,127,,,1,513.6493493333255,,Y,d,go,d,1,0.4496593333315104,,,,,,,,,,,,,,,,,87,001,30,m,Psychologie,2023-02-01_10h29.41.227,00_bat_bachelor,2022.2.4,59.966331634521545,
,,,,,,,,,,,,0,0,0,0,128,0,128,0,,,,,,,128,,,1,515.2007883636397,,X,l,go,l,1,0.45055872727243695,,,,,,,,,,,,,,,,,87,001,30,m,Psychologie,2023-02-01_10h29.41.227,00_bat_bachelor,2022.2.4,59.966331634521545,
,,,,,,,,,,,,0,0,0,0,129,0,129,0,,,,,,,129,,,1,516.7517265454517,,Y,d,go,d,1,0.4505606666643871,,,,,,,,,,,,,,,,,87,001,30,m,Psychologie,2023-02-01_10h29.41.227,00_bat_bachelor,2022.2.4,59.966331634521545,
,,,,,,,,,,,,0,0,0,0,130,0,130,0,,,,,,,130,,,1,518.3028673939407,,X,l,go,l,1,0.4834367878793273,,,,,,,,,,,,,,,,,87,001,30,m,Psychologie,2023-02-01_10h29.41.227,00_bat_bachelor,2022.2.4,59.966331634521545,
,,,,,,,,,,,,0,0,0,0,131,0,131,0,,,,,,,131,,,1,519.8873580606014,,X,None,nogo,None,1,,,,,,,,,,,,,,,,,,87,001,30,m,Psychologie,2023-02-01_10h29.41.227,00_bat_bachelor,2022.2.4,59.966331634521545,
,,,,,,,,,,,,0,0,0,0,132,0,132,0,,,,,,,132,,,1,521.6888024242362,,Y,d,go,d,1,0.3147560606012121,,,,,,,,,,,,,,,,,87,001,30,m,Psychologie,2023-02-01_10h29.41.227,00_bat_bachelor,2022.2.4,59.966331634521545,
,,,,,,,,,,,,0,0,0,0,133,0,133,0,,,,,,,133,,,1,523.1064916363684,,X,l,go,l,1,0.41661593939352315,,,,,,,,,,,,,,,,,87,001,30,m,Psychologie,2023-02-01_10h29.41.227,00_bat_bachelor,2022.2.4,59.966331634521545,
,,,,,,,,,,,,0,0,0,0,134,0,134,0,,,,,,,134,,,1,524.6243151515082,,Y,d,go,d,1,0.4826076969766291,,,,,,,,,,,,,,,,,87,001,30,m,Psychologie,2023-02-01_10h29.41.227,00_bat_bachelor,2022.2.4,59.966331634521545,
,,,,,,,,,,,,0,0,0,0,135,0,135,0,,,,,,,135,,,1,526.2088945454598,,X,l,go,l,1,0.36984551514615305,,,,,,,,,,,,,,,,,87,001,30,m,Psychologie,2023-02-01_10h29.41.227,00_bat_bachelor,2022.2.4,59.966331634521545,
,,,,,,,,,,,,0,0,0,0,136,0,136,0,,,,,,,136,,,1,527.6933619393967,,Y,d,go,d,1,0.4696879393886775,,,,,,,,,,,,,,,,,87,001,30,m,Psychologie,2023-02-01_10h29.41.227,00_bat_bachelor,2022.2.4,59.966331634521545,
,,,,,,,,,,,,0,0,0,0,137,0,137,0,,,,,,,137,,,1,529.2779219393851,,Y,None,nogo,None,1,,,,,,,,,,,,,,,,,,87,001,30,m,Psychologie,2023-02-01_10h29.41.227,00_bat_bachelor,2022.2.4,59.966331634521545,
,,,,,,,,,,,,0,0,0,0,138,0,138,0,,,,,,,138,,,1,531.0790690909053,,X,l,go,l,1,0.3646435757545987,,,,,,,,,,,,,,,,,87,001,30,m,Psychologie,2023-02-01_10h29.41.227,00_bat_bachelor,2022.2.4,59.966331634521545,
,,,,,,,,,,,,0,0,0,0,139,0,139,0,,,,,,,139,,,1,532.5474196363648,,Y,d,go,d,1,0.4474508484854596,,,,,,,,,,,,,,,,,87,001,30,m,Psychologie,2023-02-01_10h29.41.227,00_bat_bachelor,2022.2.4,59.966331634521545,
,,,,,,,,,,,,0,0,0,0,140,0,140,0,,,,,,,140,,,1,534.09859733333,,Y,None,nogo,d,0,0.6558159393898677,,,,,,,,,,,,,,,,,87,001,30,m,Psychologie,2023-02-01_10h29.41.227,00_bat_bachelor,2022.2.4,59.966331634521545,
,,,,,,,,,,,,0,0,0,0,141,0,141,0,,,,,,,141,,,1,535.8664572121197,,X,l,go,l,1,0.32871096969756763,,,,,,,,,,,,,,,,,87,001,30,m,Psychologie,2023-02-01_10h29.41.227,00_bat_bachelor,2022.2.4,59.966331634521545,
,,,,,,,,,,,,0,0,0,0,142,0,142,0,,,,,,,142,,,1,537.3008431515191,,Y,d,go,d,1,0.4298096363636432,,,,,,,,,,,,,,,,,87,001,30,m,Psychologie,2023-02-01_10h29.41.227,00_bat_bachelor,2022.2.4,59.966331634521545,
,,,,,,,,,,,,0,0,0,0,143,0,143,0,,,,,,,143,,,1,538.8520460606087,,X,l,go,l,1,0.46260381817410234,,,,,,,,,,,,,,,,,87,001,30,m,Psychologie,2023-02-01_10h29.41.227,00_bat_bachelor,2022.2.4,59.966331634521545,
,,,,,,,,,,,,0,0,0,0,144,0,144,0,,,,,,,144,,,1,540.4201246060547,541.2206719999958,X,None,nogo,None,1,,,,,,,,,,,,,,,,,,87,001,30,m,Psychologie,2023-02-01_10h29.41.227,00_bat_bachelor,2022.2.4,59.966331634521545,
,,,,,,,,,,,,0,0,0,0,145,0,145,0,,,,,,,145,,,1,542.2214089696936,,X,None,nogo,d,0,0.2936409090907546,,,,,,,,,,,,,,,,,87,001,30,m,Psychologie,2023-02-01_10h29.41.227,00_bat_bachelor,2022.2.4,59.966331634521545,
,,,,,,,,,,,,0,0,0,0,146,0,146,0,,,,,,,146,,,1,543.622387878786,,Y,d,go,d,1,0.50826684848289,,,,,,,,,,,,,,,,,87,001,30,m,Psychologie,2023-02-01_10h29.41.227,00_bat_bachelor,2022.2.4,59.966331634521545,
,,,,,,,,,,,,0,0,0,0,147,0,147,0,,,,,,,147,,,1,545.2404276363668,,X,l,go,l,1,0.426065636362182,,,,,,,,,,,,,,,,,87,001,30,m,Psychologie,2023-02-01_10h29.41.227,00_bat_bachelor,2022.2.4,59.966331634521545,
,,,,,,,,,,,,0,0,0,0,148,0,148,0,,,,,,,148,,,1,546.7748475151457,,Y,d,go,d,1,0.4115579999925103,,,,,,,,,,,,,,,,,87,001,30,m,Psychologie,2023-02-01_10h29.41.227,00_bat_bachelor,2022.2.4,59.966331634521545,
,,,,,,,,,,,,0,0,0,0,149,0,149,0,,,,,,,149,,,1,548.2925570909138,,X,l,go,l,1,0.6058867272804491,,,,,,,,,,,,,,,,,87,001,30,m,Psychologie,2023-02-01_10h29.41.227,00_bat_bachelor,2022.2.4,59.966331634521545,
,,,,,,,,,,,,0,0,0,0,150,0,150,0,,,,,,,150,,,1,550.0273808484781,,Y,d,go,d,1,0.39050345454597846,,,,,,,,,,,,,,,,,87,001,30,m,Psychologie,2023-02-01_10h29.41.227,00_bat_bachelor,2022.2.4,59.966331634521545,
,,,,,,,,,,,,0,0,0,0,151,0,151,0,,,,,,,151,,,1,551.5453677575715,552.3458084848535,X,l,go,None,0,,,,,,,,,,,,,,,,,,87,001,30,m,Psychologie,2023-02-01_10h29.41.227,00_bat_bachelor,2022.2.4,59.966331634521545,
,,,,,,,,,,,,0,0,0,0,152,0,152,0,,,,,,,152,,,1,553.3465764848515,,Y,d,go,d,1,0.5439967878774041,,,,,,,,,,,,,,,,,87,001,30,m,Psychologie,2023-02-01_10h29.41.227,00_bat_bachelor,2022.2.4,59.966331634521545,
,,,,,,,,,,,,0,0,0,0,153,0,153,0,,,,,,,153,,,1,554.9973042424244,,Y,None,nogo,None,1,,,,,,,,,,,,,,,,,,87,001,30,m,Psychologie,2023-02-01_10h29.41.227,00_bat_bachelor,2022.2.4,59.966331634521545,
,,,,,,,,,,,,0,0,0,0,154,0,154,0,,,,,,,154,,,1,556.7988368484803,,X,l,go,l,1,0.43667557575099636,,,,,,,,,,,,,,,,,87,001,30,m,Psychologie,2023-02-01_10h29.41.227,00_bat_bachelor,2022.2.4,59.966331634521545,
,,,,,,,,,,,,0,0,0,0,155,0,155,0,,,,,,,155,,,1,558.3498429090832,,Y,d,go,d,1,0.4533946060546441,,,,,,,,,,,,,,,,,87,001,30,m,Psychologie,2023-02-01_10h29.41.227,00_bat_bachelor,2022.2.4,59.966331634521545,
,,,,,,,,,,,,0,0,0,0,156,0,156,0,,,,,,,156,,,1,559.9175951515062,,Y,None,nogo,None,1,,,,,,,,,,,,,,,,,,87,001,30,m,Psychologie,2023-02-01_10h29.41.227,00_bat_bachelor,2022.2.4,59.966331634521545,
,,,,,,,,,,,,0,0,0,0,157,0,157,0,,,,,,,157,,,1,561.719303757578,,X,l,go,l,1,0.36400066666828934,,,,,,,,,,,,,,,,,87,001,30,m,Psychologie,2023-02-01_10h29.41.227,00_bat_bachelor,2022.2.4,59.966331634521545,
,,,,,,,,,,,,0,0,0,0,158,0,158,0,,,,,,,158,,,1,563.1871529696946,,Y,d,go,d,1,0.4802930302976165,,,,,,,,,,,,,,,,,87,001,30,m,Psychologie,2023-02-01_10h29.41.227,00_bat_bachelor,2022.2.4,59.966331634521545,
,,,,,,,,,,,,0,0,0,0,159,0,159,0,,,,,,,159,,,1,564.7715612121247,,X,l,go,l,1,0.5122508484782884,,,,,,,,,,,,,,,,,87,001,30,m,Psychologie,2023-02-01_10h29.41.227,00_bat_bachelor,2022.2.4,59.966331634521545,
,,,,,,,,,,,,0,0,0,0,160,0,160,0,,,,,,,160,,,1,566.3894778181857,,X,None,nogo,l,0,0.47824212120031007,,,,,,,,,,,,,,,,,87,001,30,m,Psychologie,2023-02-01_10h29.41.227,00_bat_bachelor,2022.2.4,59.966331634521545,
,,,,,,,,,,,,0,0,0,0,161,0,161,0,,,,,,,161,,,1,567.9740819393919,,Y,d,go,d,1,0.5095332727360073,,,,,,,,,,,,,,,,,87,001,30,m,Psychologie,2023-02-01_10h29.41.227,00_bat_bachelor,2022.2.4,59.966331634521545,
,,,,,,,,,,,,0,0,0,0,162,0,162,0,,,,,,,162,,,1,569.5918564848398,,X,l,go,l,1,0.410691575758392,,,,,,,,,,,,,,,,,87,001,30,m,Psychologie,2023-02-01_10h29.41.227,00_bat_bachelor,2022.2.4,59.966331634521545,
,,,,,,,,,,,,0,0,0,0,163,0,163,0,,,,,,,163,,,1,571.109810424241,,X,None,nogo,None,1,,,,,,,,,,,,,,,,,,87,001,30,m,Psychologie,2023-02-01_10h29.41.227,00_bat_bachelor,2022.2.4,59.966331634521545,
,,,,,,,,,,,,0,0,0,0,164,0,164,0,,,,,,,164,,,1,572.9109852121182,,Y,d,go,d,1,0.4518513333314331,,,,,,,,,,,,,,,,,87,001,30,m,Psychologie,2023-02-01_10h29.41.227,00_bat_bachelor,2022.2.4,59.966331634521545,
,,,,,,,,,,,,0,0,0,0,165,0,165,0,,,,,,,165,,,1,574.4962293333374,,X,l,go,l,1,0.4986295151611557,,,,,,,,,,,,,,,,,87,001,30,m,Psychologie,2023-02-01_10h29.41.227,00_bat_bachelor,2022.2.4,59.966331634521545,
,,,,,,,,,,,,0,0,0,0,166,0,166,0,,,,,,,166,,,1,576.0974089696974,,Y,d,go,d,1,0.625295212113997,,,,,,,,,,,,,,,,,87,001,30,m,Psychologie,2023-02-01_10h29.41.227,00_bat_bachelor,2022.2.4,59.966331634521545,
,,,,,,,,,,,,0,0,0,0,167,0,167,0,,,,,,,167,,,1,577.8321202424268,,X,l,go,l,1,0.3777752121241065,,,,,,,,,,,,,,,,,87,001,30,m,Psychologie,2023-02-01_10h29.41.227,00_bat_bachelor,2022.2.4,59.966331634521545,
,,,,,,,,,,,,0,0,0,0,168,0,168,0,,,,,,,168,,,1,579.3324751515174,,Y,d,go,d,1,0.39788818181841634,,,,,,,,,,,,,,,,,87,001,30,m,Psychologie,2023-02-01_10h29.41.227,00_bat_bachelor,2022.2.4,59.966331634521545,
,,,,,,,,,,,,0,0,0,0,169,0,169,0,,,,,,,169,,,1,580.8346244848508,581.6354055757547,Y,None,nogo,None,1,,,,,,,,,,,,,,,,,,87,001,30,m,Psychologie,2023-02-01_10h29.41.227,00_bat_bachelor,2022.2.4,59.966331634521545,
,,,,,,,,,,,,0,0,0,0,170,0,170,0,,,,,,,170,,,1,582.6358036363672,,X,l,go,l,1,0.4868578787863953,,,,,,,,,,,,,,,,,87,001,30,m,Psychologie,2023-02-01_10h29.41.227,00_bat_bachelor,2022.2.4,59.966331634521545,
,,,,,,,,,,,,0,0,0,0,171,0,171,0,,,,,,,171,,,1,584.2536547878699,,Y,d,go,d,1,0.5491405454522464,,,,,,,,,,,,,,,,,87,001,30,m,Psychologie,2023-02-01_10h29.41.227,00_bat_bachelor,2022.2.4,59.966331634521545,
,,,,,,,,,,,,0,0,0,0,172,0,172,0,,,,,,,172,,,1,585.9218361212115,,X,l,go,l,1,0.49642151515581645,,,,,,,,,,,,,,,,,87,001,30,m,Psychologie,2023-02-01_10h29.41.227,00_bat_bachelor,2022.2.4,59.966331634521545,
,,,,,,,,,,,,0,0,0,0,173,0,173,0,,,,,,,173,,,1,587.5394753939327,,Y,d,go,d,1,0.39947121213481296,,,,,,,,,,,,,,,,,87,001,30,m,Psychologie,2023-02-01_10h29.41.227,00_bat_bachelor,2022.2.4,59.966331634521545,
,,,,,,,,,,,,0,0,0,0,174,0,174,0,,,,,,,174,,,1,589.0405798787833,,X,l,go,l,1,0.5306784848507959,,,,,,,,,,,,,,,,,87,001,30,m,Psychologie,2023-02-01_10h29.41.227,00_bat_bachelor,2022.2.4,59.966331634521545,
,,,,,,,,,,,,0,0,0,0,175,0,175,0,,,,,,,175,,,1,590.6751452121243,,X,None,nogo,d,0,0.3681645454635145,,,,,,,,,,,,,,,,,87,001,30,m,Psychologie,2023-02-01_10h29.41.227,00_bat_bachelor,2022.2.4,59.966331634521545,
,,,,,,,,,,,,0,0,0,0,176,0,176,0,,,,,,,176,,,1,592.1595713939314,,Y,d,go,d,1,0.46730490909249056,,,,,,,,,,,,,,,,,87,001,30,m,Psychologie,2023-02-01_10h29.41.227,00_bat_bachelor,2022.2.4,59.966331634521545,
,,,,,,,,,,,,0,0,0,0,177,0,177,0,,,,,,,177,,,1,593.7272116363602,,X,l,go,l,1,0.48402927273127716,,,,,,,,,,,,,,,,,87,001,30,m,Psychologie,2023-02-01_10h29.41.227,00_bat_bachelor,2022.2.4,59.966331634521545,
,,,,,,,,,,,,0,0,0,0,178,0,178,0,,,,,,,178,,,1,595.3117798787862,,Y,d,go,d,1,0.531839212126215,,,,,,,,,,,,,,,,,87,001,30,m,Psychologie,2023-02-01_10h29.41.227,00_bat_bachelor,2022.2.4,59.966331634521545,
,,,,,,,,,,,,0,0,0,0,179,0,179,0,,,,,,,179,,,1,596.9465532121249,597.74719709091,Y,None,nogo,None,1,,,,,,,,,,,,,,,,,,87,001,30,m,Psychologie,2023-02-01_10h29.41.227,00_bat_bachelor,2022.2.4,59.966331634521545,
,,,,,,,,,,,,0,0,0,0,180,0,180,0,,,,,,,180,,,1,598.7479049696994,,X,l,go,l,1,0.40692915150430053,,,,,,,,,,,,,,,,,87,001,30,m,Psychologie,2023-02-01_10h29.41.227,00_bat_bachelor,2022.2.4,59.966331634521545,
,,,,,,,,,,,,0,0,0,0,181,0,181,0,,,,,,,181,,,1,600.2655267878727,,Y,d,go,d,1,0.45685448485892266,,,,,,,,,,,,,,,,,87,001,30,m,Psychologie,2023-02-01_10h29.41.227,00_bat_bachelor,2022.2.4,59.966331634521545,
,,,,,,,,,,,,0,0,0,0,182,0,182,0,,,,,,,182,,,1,601.8334506666579,,Y,None,nogo,d,0,0.6005771515192464,,,,,,,,,,,,,,,,,87,001,30,m,Psychologie,2023-02-01_10h29.41.227,00_bat_bachelor,2022.2.4,59.966331634521545,
,,,,,,,,,,,,0,0,0,0,183,0,183,0,,,,,,,183,,,1,603.5515747878817,604.352057696975,Y,None,nogo,None,1,,,,,,,,,,,,,,,,,,87,001,30,m,Psychologie,2023-02-01_10h29.41.227,00_bat_bachelor,2022.2.4,59.966331634521545,
,,,,,,,,,,,,0,0,0,0,184,0,184,0,,,,,,,184,,,1,605.3530283636355,,X,l,go,l,1,0.3785412727302173,,,,,,,,,,,,,,,,,87,001,30,m,Psychologie,2023-02-01_10h29.41.227,00_bat_bachelor,2022.2.4,59.966331634521545,
,,,,,,,,,,,,0,0,0,0,185,0,185,0,,,,,,,185,,,1,606.8372256969742,,Y,d,go,d,1,0.46150418181787245,,,,,,,,,,,,,,,,,87,001,30,m,Psychologie,2023-02-01_10h29.41.227,00_bat_bachelor,2022.2.4,59.966331634521545,
,,,,,,,,,,,,0,0,0,0,186,0,186,0,,,,,,,186,,,1,608.4052431515156,,Y,None,nogo,d,0,0.4125805454677902,,,,,,,,,,,,,,,,,87,001,30,m,Psychologie,2023-02-01_10h29.41.227,00_bat_bachelor,2022.2.4,59.966331634521545,
,,,,,,,,,,,,0,0,0,0,187,0,187,0,,,,,,,187,,,1,609.9398278787849,,X,l,go,l,1,0.3831735151470639,,,,,,,,,,,,,,,,,87,001,30,m,Psychologie,2023-02-01_10h29.41.227,00_bat_bachelor,2022.2.4,59.966331634521545,
,,,,,,,,,,,,0,0,0,0,188,0,188,0,,,,,,,188,,,1,611.4407558787789,,Y,d,go,d,1,0.5457349696953315,,,,,,,,,,,,,,,,,87,001,30,m,Psychologie,2023-02-01_10h29.41.227,00_bat_bachelor,2022.2.4,59.966331634521545,
,,,,,,,,,,,,0,0,0,0,189,0,189,0,,,,,,,189,,,1,613.0920145454584,,X,l,go,l,1,0.4306013939494733,,,,,,,,,,,,,,,,,87,001,30,m,Psychologie,2023-02-01_10h29.41.227,00_bat_bachelor,2022.2.4,59.966331634521545,
,,,,,,,,,,,,0,0,0,0,190,0,190,0,,,,,,,190,,,1,614.6433047272731,,Y,d,go,d,1,0.3992413939413382,,,,,,,,,,,,,,,,,87,001,30,m,Psychologie,2023-02-01_10h29.41.227,00_bat_bachelor,2022.2.4,59.966331634521545,
,,,,,,,,,,,,0,0,0,0,191,0,191,0,,,,,,,191,,,1,616.160825696963,,X,l,go,l,1,0.4178508484910708,,,,,,,,,,,,,,,,,87,001,30,m,Psychologie,2023-02-01_10h29.41.227,00_bat_bachelor,2022.2.4,59.966331634521545,
,,,,,,,,,,,,0,0,0,0,192,0,192,0,,,,,,,192,,,1,617.6951733333262,,Y,d,go,d,1,0.41994878787954804,,,,,,,,,,,,,,,,,87,001,30,m,Psychologie,2023-02-01_10h29.41.227,00_bat_bachelor,2022.2.4,59.966331634521545,
,,,,,,,,,,,,0,0,0,0,193,0,193,0,,,,,,,193,,,1,619.2296446060645,,X,l,go,l,1,0.43724042424582876,,,,,,,,,,,,,,,,,87,001,30,m,Psychologie,2023-02-01_10h29.41.227,00_bat_bachelor,2022.2.4,59.966331634521545,
,,,,,,,,,,,,0,0,0,0,194,0,194,0,,,,,,,194,,,1,620.7810041212069,,Y,d,go,d,1,0.3105194545350969,,,,,,,,,,,,,,,,,87,001,30,m,Psychologie,2023-02-01_10h29.41.227,00_bat_bachelor,2022.2.4,59.966331634521545,
,,,,,,,,,,,,0,0,0,0,195,0,195,0,,,,,,,195,,,1,622.1987907878793,,X,l,go,l,1,0.4450624848395819,,,,,,,,,,,,,,,,,87,001,30,m,Psychologie,2023-02-01_10h29.41.227,00_bat_bachelor,2022.2.4,59.966331634521545,
,,,,,,,,,,,,0,0,0,0,196,0,196,0,,,,,,,196,,,1,623.7497343030263,,X,None,nogo,l,0,0.4775371515279403,,,,,,,,,,,,,,,,,87,001,30,m,Psychologie,2023-02-01_10h29.41.227,00_bat_bachelor,2022.2.4,59.966331634521545,
,,,,,,,,,,,,0,0,0,0,197,0,197,0,,,,,,,197,,,1,625.3342463030276,,Y,d,go,d,1,0.445332545452402,,,,,,,,,,,,,,,,,87,001,30,m,Psychologie,2023-02-01_10h29.41.227,00_bat_bachelor,2022.2.4,59.966331634521545,
,,,,,,,,,,,,0,0,0,0,198,0,198,0,,,,,,,198,,,1,626.8855456969613,,X,l,go,l,1,0.46252333333541173,,,,,,,,,,,,,,,,,87,001,30,m,Psychologie,2023-02-01_10h29.41.227,00_bat_bachelor,2022.2.4,59.966331634521545,
,,,,,,,,,,,,0,0,0,0,199,0,199,0,,,,,,,199,,,1,628.4535209696915,,X,None,nogo,l,0,0.39741254545515403,,,,,,,,,,,,,,,,,87,001,30,m,Psychologie,2023-02-01_10h29.41.227,00_bat_bachelor,2022.2.4,59.966331634521545,
,,,,,,,,,,,,0,0,0,0,200,0,200,0,,,,,,,200,,,1,629.9546492121153,,Y,d,go,d,1,0.5608074545452837,,,,,,,,,,,,,,,,,87,001,30,m,Psychologie,2023-02-01_10h29.41.227,00_bat_bachelor,2022.2.4,59.966331634521545,
,,,,,,,,,,,,0,0,0,0,201,0,201,0,,,,,,,201,,,1,631.6225216969615,,X,l,go,l,1,0.5728127878683154,,,,,,,,,,,,,,,,,87,001,30,m,Psychologie,2023-02-01_10h29.41.227,00_bat_bachelor,2022.2.4,59.966331634521545,
,,,,,,,,,,,,0,0,0,0,202,0,202,0,,,,,,,202,,,1,633.3069173333352,,Y,d,go,d,1,0.4721044242469361,,,,,,,,,,,,,,,,,87,001,30,m,Psychologie,2023-02-01_10h29.41.227,00_bat_bachelor,2022.2.4,59.966331634521545,
,,,,,,,,,,,,0,0,0,0,203,0,203,0,,,,,,,203,,,1,634.8917696969729,,X,l,go,l,1,0.5034498788008932,,,,,,,,,,,,,,,,,87,001,30,m,Psychologie,2023-02-01_10h29.41.227,00_bat_bachelor,2022.2.4,59.966331634521545,
,,,,,,,,,,,,0,0,0,0,204,0,204,0,,,,,,,204,,,1,636.5094564848405,,Y,d,go,d,1,0.5495284242351772,,,,,,,,,,,,,,,,,87,001,30,m,Psychologie,2023-02-01_10h29.41.227,00_bat_bachelor,2022.2.4,59.966331634521545,
,,,,,,,,,,,,0,0,0,0,205,0,205,0,,,,,,,205,,,1,638.1609090909042,,X,l,go,l,1,0.45028284848376643,,,,,,,,,,,,,,,,,87,001,30,m,Psychologie,2023-02-01_10h29.41.227,00_bat_bachelor,2022.2.4,59.966331634521545,
,,,,,,,,,,,,0,0,0,0,206,0,206,0,,,,,,,206,,,1,639.7121871515119,,Y,d,go,d,1,0.4190726666711271,,,,,,,,,,,,,,,,,87,001,30,m,Psychologie,2023-02-01_10h29.41.227,00_bat_bachelor,2022.2.4,59.966331634521545,
,,,,,,,,,,,,0,0,0,0,207,0,207,0,,,,,,,207,,,1,641.246359272729,,X,l,go,l,1,0.5162193333235336,,,,,,,,,,,,,,,,,87,001,30,m,Psychologie,2023-02-01_10h29.41.227,00_bat_bachelor,2022.2.4,59.966331634521545,
,,,,,,,,,,,,0,0,0,0,208,0,208,0,,,,,,,208,,,1,642.8647975757485,,Y,d,go,d,1,0.4338993333221879,,,,,,,,,,,,,,,,,87,001,30,m,Psychologie,2023-02-01_10h29.41.227,00_bat_bachelor,2022.2.4,59.966331634521545,
,,,,,,,,,,,,0,0,0,0,209,0,209,0,,,,,,,209,,,1,644.3989454545372,,X,l,go,None,0,,,,,,,,,,,,,,,,,,87,001,30,m,Psychologie,2023-02-01_10h29.41.227,00_bat_bachelor,2022.2.4,59.966331634521545,
,,,,,,,,,,,,0,0,0,0,210,0,210,0,,,,,,,210,,,1,646.2004009696975,,Y,d,go,d,1,0.411583212116966,,,,,,,,,,,,,,,,,87,001,30,m,Psychologie,2023-02-01_10h29.41.227,00_bat_bachelor,2022.2.4,59.966331634521545,
,,,,,,,,,,,,0,0,0,0,211,0,211,0,,,,,,,211,,,1,647.7180096969678,,X,l,go,l,1,0.42931363635580055,,,,,,,,,,,,,,,,,87,001,30,m,Psychologie,2023-02-01_10h29.41.227,00_bat_bachelor,2022.2.4,59.966331634521545,
,,,,,,,,,,,,0,0,0,0,212,0,212,0,,,,,,,212,,,1,649.2526933333284,,Y,d,go,d,1,0.4474532727326732,,,,,,,,,,,,,,,,,87,001,30,m,Psychologie,2023-02-01_10h29.41.227,00_bat_bachelor,2022.2.4,59.966331634521545,
,,,,,,,,,,,,0,0,0,0,213,0,213,0,,,,,,,213,,,1,650.803827393931,,X,l,go,l,1,0.494870484850253,,,,,,,,,,,,,,,,,87,001,30,m,Psychologie,2023-02-01_10h29.41.227,00_bat_bachelor,2022.2.4,59.966331634521545,
,,,,,,,,,,,,0,0,0,0,214,0,214,0,,,,,,,214,,,1,652.4049129696941,,Y,d,go,d,1,0.42969036364229396,,,,,,,,,,,,,,,,,87,001,30,m,Psychologie,2023-02-01_10h29.41.227,00_bat_bachelor,2022.2.4,59.966331634521545,
,,,,,,,,,,,,0,0,0,0,215,0,215,0,,,,,,,215,,,1,653.9392833939346,654.7401294545416,Y,None,nogo,None,1,,,,,,,,,,,,,,,,,,87,001,30,m,Psychologie,2023-02-01_10h29.41.227,00_bat_bachelor,2022.2.4,59.966331634521545,
,,,,,,,,,,,,0,0,0,0,216,0,216,0,,,,,,,216,,,1,655.7409469090926,,X,l,go,l,1,0.4383720606128918,,,,,,,,,,,,,,,,,87,001,30,m,Psychologie,2023-02-01_10h29.41.227,00_bat_bachelor,2022.2.4,59.966331634521545,
,,,,,,,,,,,,0,0,0,0,217,0,217,0,,,,,,,217,,,1,657.2920436363638,,Y,d,go,d,1,0.5032307272776961,,,,,,,,,,,,,,,,,87,001,30,m,Psychologie,2023-02-01_10h29.41.227,00_bat_bachelor,2022.2.4,59.966331634521545,
,,,,,,,,,,,,0,0,0,0,218,0,218,0,,,,,,,218,,,1,658.910034424247,,X,l,go,l,1,0.5489073333301349,,,,,,,,,,,,,,,,,87,001,30,m,Psychologie,2023-02-01_10h29.41.227,00_bat_bachelor,2022.2.4,59.966331634521545,
,,,,,,,,,,,,0,0,0,0,219,0,219,0,,,,,,,219,,,1,660.5610050909017,,X,None,nogo,l,0,0.450313393943361,,,,,,,,,,,,,,,,,87,001,30,m,Psychologie,2023-02-01_10h29.41.227,00_bat_bachelor,2022.2.4,59.966331634521545,
,,,,,,,,,,,,0,0,0,0,220,0,220,0,,,,,,,220,,,1,662.1122463030333,,Y,d,go,d,1,0.4347735151532106,,,,,,,,,,,,,,,,,87,001,30,m,Psychologie,2023-02-01_10h29.41.227,00_bat_bachelor,2022.2.4,59.966331634521545,
,,,,,,,,,,,,0,0,0,0,221,0,221,0,,,,,,,221,,,1,663.6636998787872,,X,l,go,l,1,0.451269515149761,,,,,,,,,,,,,,,,,87,001,30,m,Psychologie,2023-02-01_10h29.41.227,00_bat_bachelor,2022.2.4,59.966331634521545,
,,,,,,,,,,,,0,0,0,0,222,0,222,0,,,,,,,222,,,1,665.2315049696917,,Y,d,go,d,1,0.4669262424285989,,,,,,,,,,,,,,,,,87,001,30,m,Psychologie,2023-02-01_10h29.41.227,00_bat_bachelor,2022.2.4,59.966331634521545,
,,,,,,,,,,,,0,0,0,0,223,0,223,0,,,,,,,223,,,1,666.7994424242352,,X,l,go,l,1,0.5796966666675871,,,,,,,,,,,,,,,,,87,001,30,m,Psychologie,2023-02-01_10h29.41.227,00_bat_bachelor,2022.2.4,59.966331634521545,
,,,,,,,,,,,,0,0,0,0,224,0,224,0,,,,,,,224,,,1,668.483717818177,,X,None,nogo,None,1,,,,,,,,,,,,,,,,,,87,001,30,m,Psychologie,2023-02-01_10h29.41.227,00_bat_bachelor,2022.2.4,59.966331634521545,
,,,,,,,,,,,,0,0,0,0,225,0,225,0,,,,,,,225,,,1,670.2850623030245,,Y,d,go,d,1,0.32574030302930623,,,,,,,,,,,,,,,,,87,001,30,m,Psychologie,2023-02-01_10h29.41.227,00_bat_bachelor,2022.2.4,59.966331634521545,
,,,,,,,,,,,,0,0,0,0,226,0,226,0,,,,,,,226,,,1,671.7198128484888,,X,l,go,l,1,0.49132527274196036,,,,,,,,,,,,,,,,,87,001,30,m,Psychologie,2023-02-01_10h29.41.227,00_bat_bachelor,2022.2.4,59.966331634521545,
,,,,,,,,,,,,0,0,0,0,227,0,227,0,,,,,,,227,,,1,673.3210967272753,,X,None,nogo,None,1,,,,,,,,,,,,,,,,,,87,001,30,m,Psychologie,2023-02-01_10h29.41.227,00_bat_bachelor,2022.2.4,59.966331634521545,
,,,,,,,,,,,,0,0,0,0,228,0,228,0,,,,,,,228,,,1,675.1223321212165,,Y,d,go,d,1,0.33690733334515244,,,,,,,,,,,,,,,,,87,001,30,m,Psychologie,2023-02-01_10h29.41.227,00_bat_bachelor,2022.2.4,59.966331634521545,
,,,,,,,,,,,,0,0,0,0,229,0,229,0,,,,,,,229,,,1,676.5734681212052,,X,l,go,l,1,0.4528748484881362,,,,,,,,,,,,,,,,,87,001,30,m,Psychologie,2023-02-01_10h29.41.227,00_bat_bachelor,2022.2.4,59.966331634521545,
,,,,,,,,,,,,0,0,0,0,230,0,230,0,,,,,,,230,,,1,678.141432727265,,Y,d,go,d,1,0.48609230303554796,,,,,,,,,,,,,,,,,87,001,30,m,Psychologie,2023-02-01_10h29.41.227,00_bat_bachelor,2022.2.4,59.966331634521545,
,,,,,,,,,,,,0,0,0,0,231,0,231,0,,,,,,,231,,,1,679.7423083636386,680.5431631515094,Y,None,nogo,None,1,,,,,,,,,,,,,,,,,,87,001,30,m,Psychologie,2023-02-01_10h29.41.227,00_bat_bachelor,2022.2.4,59.966331634521545,
,,,,,,,,,,,,0,0,0,0,232,0,232,0,,,,,,,232,,,1,681.544018424247,,X,l,go,l,1,0.37966127273102757,,,,,,,,,,,,,,,,,87,001,30,m,Psychologie,2023-02-01_10h29.41.227,00_bat_bachelor,2022.2.4,59.966331634521545,
,,,,,,,,,,,,0,0,0,0,233,0,233,0,,,,,,,233,,,1,683.0283810909023,,Y,d,go,d,1,0.5104826060560299,,,,,,,,,,,,,,,,,87,001,30,m,Psychologie,2023-02-01_10h29.41.227,00_bat_bachelor,2022.2.4,59.966331634521545,
,,,,,,,,,,,,0,0,0,0,234,0,234,0,,,,,,,234,,,1,684.6463602424192,,Y,None,nogo,None,1,,,,,,,,,,,,,,,,,,87,001,30,m,Psychologie,2023-02-01_10h29.41.227,00_bat_bachelor,2022.2.4,59.966331634521545,
,,,,,,,,,,,,0,0,0,0,235,0,235,0,,,,,,,235,,,1,686.447636363635,,X,l,go,l,1,0.33888018180732615,,,,,,,,,,,,,,,,,87,001,30,m,Psychologie,2023-02-01_10h29.41.227,00_bat_bachelor,2022.2.4,59.966331634521545,
,,,,,,,,,,,,0,0,0,0,236,0,236,0,,,,,,,236,,,1,687.8988576969714,,Y,d,go,d,1,0.40848600000026636,,,,,,,,,,,,,,,,,87,001,30,m,Psychologie,2023-02-01_10h29.41.227,00_bat_bachelor,2022.2.4,59.966331634521545,
,,,,,,,,,,,,0,0,0,0,237,0,237,0,,,,,,,237,,,1,689.4163132121175,,X,l,go,l,1,0.45791678788373247,,,,,,,,,,,,,,,,,87,001,30,m,Psychologie,2023-02-01_10h29.41.227,00_bat_bachelor,2022.2.4,59.966331634521545,
,,,,,,,,,,,,0,0,0,0,238,0,238,0,,,,,,,238,,,1,690.9843515151442,,Y,d,go,d,1,0.4426009090966545,,,,,,,,,,,,,,,,,87,001,30,m,Psychologie,2023-02-01_10h29.41.227,00_bat_bachelor,2022.2.4,59.966331634521545,
,,,,,,,,,,,,0,0,0,0,239,0,239,0,,,,,,,239,,,1,692.5355844848527,,X,l,go,l,1,0.6357126666698605,,,,,,,,,,,,,,,,,87,001,30,m,Psychologie,2023-02-01_10h29.41.227,00_bat_bachelor,2022.2.4,59.966331634521545,
,,,,,,,,,,,,0,0,0,0,240,0,240,0,,,,,,,240,,,1,694.2872732121177,695.0877381818136,X,None,nogo,None,1,,,,,,,,,,,,,,,,,,87,001,30,m,Psychologie,2023-02-01_10h29.41.227,00_bat_bachelor,2022.2.4,59.966331634521545,
,,,,,,,,,,,,0,0,0,0,241,0,241,0,,,,,,,241,,,1,696.0886492121208,,Y,d,go,d,1,0.34605060606554616,,,,,,,,,,,,,,,,,87,001,30,m,Psychologie,2023-02-01_10h29.41.227,00_bat_bachelor,2022.2.4,59.966331634521545,
,,,,,,,,,,,,0,0,0,0,242,0,242,0,,,,,,,242,,,1,697.5395578181779,,X,l,go,l,1,0.5269432121131103,,,,,,,,,,,,,,,,,87,001,30,m,Psychologie,2023-02-01_10h29.41.227,00_bat_bachelor,2022.2.4,59.966331634521545,
,,,,,,,,,,,,0,0,0,0,243,0,243,0,,,,,,,243,,,1,699.1741886060627,,X,None,nogo,l,0,0.33272987879172433,,,,,,,,,,,,,,,,,87,001,30,m,Psychologie,2023-02-01_10h29.41.227,00_bat_bachelor,2022.2.4,59.966331634521545,
,,,,,,,,,,,,0,0,0,0,244,0,244,0,,,,,,,244,,,1,700.6087641212071,,Y,d,go,d,1,0.385974000004353,,,,,,,,,,,,,,,,,87,001,30,m,Psychologie,2023-02-01_10h29.41.227,00_bat_bachelor,2022.2.4,59.966331634521545,
,,,,,,,,,,,,0,0,0,0,245,0,245,0,,,,,,,245,,,1,702.1098763636401,,X,l,go,l,1,0.4532690303021809,,,,,,,,,,,,,,,,,87,001,30,m,Psychologie,2023-02-01_10h29.41.227,00_bat_bachelor,2022.2.4,59.966331634521545,
,,,,,,,,,,,,0,0,0,0,246,0,246,0,,,,,,,246,,,1,703.6772077575733,,X,None,nogo,None,1,,,,,,,,,,,,,,,,,,87,001,30,m,Psychologie,2023-02-01_10h29.41.227,00_bat_bachelor,2022.2.4,59.966331634521545,
,,,,,,,,,,,,0,0,0,0,247,0,247,0,,,,,,,247,,,1,705.4787199999992,,Y,d,go,d,1,0.5882658787886612,,,,,,,,,,,,,,,,,87,001,30,m,Psychologie,2023-02-01_10h29.41.227,00_bat_bachelor,2022.2.4,59.966331634521545,
,,,,,,,,,,,,0,0,0,0,248,0,248,0,,,,,,,248,,,1,707.180216727269,,X,l,go,l,1,0.42340236363816075,,,,,,,,,,,,,,,,,87,001,30,m,Psychologie,2023-02-01_10h29.41.227,00_bat_bachelor,2022.2.4,59.966331634521545,
,,,,,,,,,,,,0,0,0,0,249,0,249,0,,,,,,,249,,,1,708.7143864242389,,Y,d,go,d,1,0.39202054544875864,,,,,,,,,,,,,,,,,87,001,30,m,Psychologie,2023-02-01_10h29.41.227,00_bat_bachelor,2022.2.4,59.966331634521545,
,,,,,,,,,,,,1,0,1,0,0,0,0,0,,,,,,,0,,,0.2,722.3421139393904,723.1427815757488,X,l,go,None,0,,,,,,,,,709.2205798787909,space,12.897454242425738,,,,,,,87,001,30,m,Psychologie,2023-02-01_10h29.41.227,00_bat_bachelor,2022.2.4,59.966331634521545,
,,,,,,,,,,,,1,0,1,0,1,0,1,0,,,,,,,1,,,0.2,723.3428993939306,,Y,d,go,d,1,0.5965592121356167,,,,,,,,,,,,,,,,,87,001,30,m,Psychologie,2023-02-01_10h29.41.227,00_bat_bachelor,2022.2.4,59.966331634521545,
,,,,,,,,,,,,1,0,1,0,2,0,2,0,,,,,,,2,,,0.2,724.243647515148,,X,l,go,l,1,0.6390847878792556,,,,,,,,,,,,,,,,,87,001,30,m,Psychologie,2023-02-01_10h29.41.227,00_bat_bachelor,2022.2.4,59.966331634521545,
,,,,,,,,,,,,1,0,1,0,3,0,3,0,,,,,,,3,,,0.2,725.1940974545432,,X,None,nogo,l,0,0.6318159393849783,,,,,,,,,,,,,,,,,87,001,30,m,Psychologie,2023-02-01_10h29.41.227,00_bat_bachelor,2022.2.4,59.966331634521545,
,,,,,,,,,,,,1,0,1,0,4,0,4,0,,,,,,,4,,,0.2,726.1450375757559,726.945515151514,Y,d,go,None,0,,,,,,,,,,,,,,,,,,87,001,30,m,Psychologie,2023-02-01_10h29.41.227,00_bat_bachelor,2022.2.4,59.966331634521545,
,,,,,,,,,,,,1,0,1,0,5,0,5,0,,,,,,,5,,,0.2,727.1458273939352,,X,l,go,l,1,0.5851196969742887,,,,,,,,,,,,,,,,,87,001,30,m,Psychologie,2023-02-01_10h29.41.227,00_bat_bachelor,2022.2.4,59.966331634521545,
,,,,,,,,,,,,1,0,1,0,6,0,6,0,,,,,,,6,,,0.2,728.0464717575669,,Y,d,go,d,1,0.5649994545383379,,,,,,,,,,,,,,,,,87,001,30,m,Psychologie,2023-02-01_10h29.41.227,00_bat_bachelor,2022.2.4,59.966331634521545,
,,,,,,,,,,,,1,0,1,0,7,0,7,0,,,,,,,7,,,0.2,728.9138123636367,,Y,None,nogo,d,0,0.5286561818211339,,,,,,,,,,,,,,,,,87,001,30,m,Psychologie,2023-02-01_10h29.41.227,00_bat_bachelor,2022.2.4,59.966331634521545,
,,,,,,,,,,,,1,0,1,0,8,0,8,0,,,,,,,8,,,0.2,729.7478501818114,730.5484596363676,Y,None,nogo,None,1,,,,,,,,,,,,,,,,,,87,001,30,m,Psychologie,2023-02-01_10h29.41.227,00_bat_bachelor,2022.2.4,59.966331634521545,
,,,,,,,,,,,,1,0,1,0,9,0,9,0,,,,,,,9,,,0.2,730.7486176969687,,X,l,go,l,1,0.3430440606025513,,,,,,,,,,,,,,,,,87,001,30,m,Psychologie,2023-02-01_10h29.41.227,00_bat_bachelor,2022.2.4,59.966331634521545,
,,,,,,,,,,,,1,0,1,0,10,0,10,0,,,,,,,10,,,0.2,731.3991103030276,732.1998162424279,Y,d,go,None,0,,,,,,,,,,,,,,,,,,87,001,30,m,Psychologie,2023-02-01_10h29.41.227,00_bat_bachelor,2022.2.4,59.966331634521545,
,,,,,,,,,,,,1,0,1,0,11,0,11,0,,,,,,,11,,,0.2,732.399598545453,733.2002739393938,X,l,go,None,0,,,,,,,,,,,,,,,,,,87,001,30,m,Psychologie,2023-02-01_10h29.41.227,00_bat_bachelor,2022.2.4,59.966331634521545,
,,,,,,,,,,,,1,0,1,0,12,0,12,0,,,,,,,12,,,0.2,733.4006157575786,,Y,d,go,d,1,0.5537340000009863,,,,,,,,,,,,,,,,,87,001,30,m,Psychologie,2023-02-01_10h29.41.227,00_bat_bachelor,2022.2.4,59.966331634521545,
,,,,,,,,,,,,1,0,1,0,13,0,13,0,,,,,,,13,,,0.2,734.2845459393866,735.08510109091,Y,None,nogo,None,1,,,,,,,,,,,,,,,,,,87,001,30,m,Psychologie,2023-02-01_10h29.41.227,00_bat_bachelor,2022.2.4,59.966331634521545,
,,,,,,,,,,,,1,0,1,0,14,0,14,0,,,,,,,14,,,0.2,735.2853527272673,,X,l,go,l,1,0.36599339394888375,,,,,,,,,,,,,,,,,87,001,30,m,Psychologie,2023-02-01_10h29.41.227,00_bat_bachelor,2022.2.4,59.966331634521545,
,,,,,,,,,,,,1,0,1,0,15,0,15,0,,,,,,,15,,,0.2,735.9525076363643,,Y,d,go,l,0,0.5949781212257221,,,,,,,,,,,,,,,,,87,001,30,m,Psychologie,2023-02-01_10h29.41.227,00_bat_bachelor,2022.2.4,59.966331634521545,
,,,,,,,,,,,,1,0,1,0,16,0,16,0,,,,,,,16,,,0.2,736.8530133333261,,X,l,go,l,1,0.6226028484816197,,,,,,,,,,,,,,,,,87,001,30,m,Psychologie,2023-02-01_10h29.41.227,00_bat_bachelor,2022.2.4,59.966331634521545,
,,,,,,,,,,,,1,0,1,0,17,0,17,0,,,,,,,17,,,0.2,737.7872528484877,738.5877250909107,Y,d,go,None,0,,,,,,,,,,,,,,,,,,87,001,30,m,Psychologie,2023-02-01_10h29.41.227,00_bat_bachelor,2022.2.4,59.966331634521545,
,,,,,,,,,,,,1,0,1,0,18,0,18,0,,,,,,,18,,,0.2,738.7878943030228,,X,l,go,l,1,0.6240006666630507,,,,,,,,,,,,,,,,,87,001,30,m,Psychologie,2023-02-01_10h29.41.227,00_bat_bachelor,2022.2.4,59.966331634521545,
,,,,,,,,,,,,1,0,1,0,19,0,19,0,,,,,,,19,,,0.2,739.7219127272692,740.5226603636402,X,None,nogo,None,1,,,,,,,,,,,,,,,,,,87,001,30,m,Psychologie,2023-02-01_10h29.41.227,00_bat_bachelor,2022.2.4,59.966331634521545,
,,,,,,,,,,,,1,0,1,0,20,0,20,0,,,,,,,20,,,0.2,740.7226264242345,,Y,d,go,d,1,0.5928433333465364,,,,,,,,,,,,,,,,,87,001,30,m,Psychologie,2023-02-01_10h29.41.227,00_bat_bachelor,2022.2.4,59.966331634521545,
,,,,,,,,,,,,1,0,1,0,21,0,21,0,,,,,,,21,,,0.2,741.6235733333306,,X,l,go,l,1,0.6518261212186189,,,,,,,,,,,,,,,,,87,001,30,m,Psychologie,2023-02-01_10h29.41.227,00_bat_bachelor,2022.2.4,59.966331634521545,
,,,,,,,,,,,,1,0,1,0,22,0,22,0,,,,,,,22,,,0.2,742.5907093333371,,Y,d,go,d,1,0.5969543636310846,,,,,,,,,,,,,,,,,87,001,30,m,Psychologie,2023-02-01_10h29.41.227,00_bat_bachelor,2022.2.4,59.966331634521545,
,,,,,,,,,,,,1,0,1,0,23,0,23,0,,,,,,,23,,,0.2,743.4916300605983,,X,l,go,l,1,0.5105626060685609,,,,,,,,,,,,,,,,,87,001,30,m,Psychologie,2023-02-01_10h29.41.227,00_bat_bachelor,2022.2.4,59.966331634521545,
,,,,,,,,,,,,1,0,1,0,24,0,24,0,,,,,,,24,,,0.2,744.3255180606066,,Y,d,go,d,1,0.541370848484803,,,,,,,,,,,,,,,,,87,001,30,m,Psychologie,2023-02-01_10h29.41.227,00_bat_bachelor,2022.2.4,59.966331634521545,
,,,,,,,,,,,,1,0,1,0,25,0,25,0,,,,,,,25,,,0.2,745.1929648484802,,X,l,go,l,1,0.553642848492018,,,,,,,,,,,,,,,,,87,001,30,m,Psychologie,2023-02-01_10h29.41.227,00_bat_bachelor,2022.2.4,59.966331634521545,
,,,,,,,,,,,,1,0,1,0,26,0,26,0,,,,,,,26,,,0.2,746.0602666666673,,Y,d,go,d,1,0.5025693939533085,,,,,,,,,,,,,,,,,87,001,30,m,Psychologie,2023-02-01_10h29.41.227,00_bat_bachelor,2022.2.4,59.966331634521545,
,,,,,,,,,,,,1,0,1,0,27,0,27,0,,,,,,,27,,,0.2,746.8773517575755,,X,l,go,l,1,0.5017844242393039,,,,,,,,,,,,,,,,,87,001,30,m,Psychologie,2023-02-01_10h29.41.227,00_bat_bachelor,2022.2.4,59.966331634521545,
,,,,,,,,,,,,1,0,1,0,28,0,28,0,,,,,,,28,,,0.2,747.6948950303049,,Y,d,go,d,1,0.580586363634211,,,,,,,,,,,,,,,,,87,001,30,m,Psychologie,2023-02-01_10h29.41.227,00_bat_bachelor,2022.2.4,59.966331634521545,
,,,,,,,,,,,,1,0,1,0,29,0,29,0,,,,,,,29,,,0.2,748.5788804848416,749.3792402424151,Y,None,nogo,None,1,,,,,,,,,,,,,,,,,,87,001,30,m,Psychologie,2023-02-01_10h29.41.227,00_bat_bachelor,2022.2.4,59.966331634521545,
,,,,,,,,,,,,1,0,1,0,30,0,30,0,,,,,,,30,,,0.2,749.5793449696939,,X,l,go,l,1,0.47088890909799375,,,,,,,,,,,,,,,,,87,001,30,m,Psychologie,2023-02-01_10h29.41.227,00_bat_bachelor,2022.2.4,59.966331634521545,
,,,,,,,,,,,,1,0,1,0,31,0,31,0,,,,,,,31,,,0.2,750.3635626666655,,Y,d,go,d,1,0.5194067272823304,,,,,,,,,,,,,,,,,87,001,30,m,Psychologie,2023-02-01_10h29.41.227,00_bat_bachelor,2022.2.4,59.966331634521545,
,,,,,,,,,,,,1,0,1,0,32,0,32,0,,,,,,,32,,,0.2,751.1974492121226,,X,l,go,l,1,0.5973354545567418,,,,,,,,,,,,,,,,,87,001,30,m,Psychologie,2023-02-01_10h29.41.227,00_bat_bachelor,2022.2.4,59.966331634521545,
,,,,,,,,,,,,1,0,1,0,33,0,33,0,,,,,,,33,,,0.2,752.0980053333333,,Y,d,go,d,1,0.59263387878309,,,,,,,,,,,,,,,,,87,001,30,m,Psychologie,2023-02-01_10h29.41.227,00_bat_bachelor,2022.2.4,59.966331634521545,
,,,,,,,,,,,,1,0,1,0,34,0,34,0,,,,,,,34,,,0.2,752.9988019393932,,X,l,go,l,1,0.6359526666637976,,,,,,,,,,,,,,,,,87,001,30,m,Psychologie,2023-02-01_10h29.41.227,00_bat_bachelor,2022.2.4,59.966331634521545,
,,,,,,,,,,,,1,0,1,0,35,0,35,0,,,,,,,35,,,0.2,753.9495738181868,754.7502143030288,X,None,nogo,None,1,,,,,,,,,,,,,,,,,,87,001,30,m,Psychologie,2023-02-01_10h29.41.227,00_bat_bachelor,2022.2.4,59.966331634521545,
,,,,,,,,,,,,1,0,1,0,36,0,36,0,,,,,,,36,,,0.2,754.9501323636359,,Y,d,go,d,1,0.49324721211451106,,,,,,,,,,,,,,,,,87,001,30,m,Psychologie,2023-02-01_10h29.41.227,00_bat_bachelor,2022.2.4,59.966331634521545,
,,,,,,,,,,,,1,0,1,0,37,0,37,0,,,,,,,37,,,0.2,755.7508693333366,,X,l,go,d,0,0.6049223636364331,,,,,,,,,,,,,,,,,87,001,30,m,Psychologie,2023-02-01_10h29.41.227,00_bat_bachelor,2022.2.4,59.966331634521545,
,,,,,,,,,,,,1,0,1,0,38,0,38,0,,,,,,,38,,,0.2,756.6682773333305,,Y,d,go,d,1,0.6621999393973965,,,,,,,,,,,,,,,,,87,001,30,m,Psychologie,2023-02-01_10h29.41.227,00_bat_bachelor,2022.2.4,59.966331634521545,
,,,,,,,,,,,,1,0,1,0,39,0,39,0,,,,,,,39,,,0.2,757.6357086060598,,Y,None,nogo,None,1,,,,,,,,,,,,,,,,,,87,001,30,m,Psychologie,2023-02-01_10h29.41.227,00_bat_bachelor,2022.2.4,59.966331634521545,
,,,,,,,,,,,,1,0,1,0,40,0,40,0,,,,,,,40,,,0.2,758.6364484848455,,X,l,go,l,1,0.40665666667337064,,,,,,,,,,,,,,,,,87,001,30,m,Psychologie,2023-02-01_10h29.41.227,00_bat_bachelor,2022.2.4,59.966331634521545,
,,,,,,,,,,,,1,0,1,0,41,0,41,0,,,,,,,41,,,0.2,759.3534763636271,760.1543815757614,Y,d,go,None,0,,,,,,,,,,,,,,,,,,87,001,30,m,Psychologie,2023-02-01_10h29.41.227,00_bat_bachelor,2022.2.4,59.966331634521545,
,,,,,,,,,,,,1,0,1,0,42,0,42,0,,,,,,,42,,,0.2,760.3543728484801,761.1548877575697,Y,None,nogo,None,1,,,,,,,,,,,,,,,,,,87,001,30,m,Psychologie,2023-02-01_10h29.41.227,00_bat_bachelor,2022.2.4,59.966331634521545,
,,,,,,,,,,,,1,0,1,0,43,0,43,0,,,,,,,43,,,0.2,761.3550768484856,,X,l,go,l,1,0.4074712121364428,,,,,,,,,,,,,,,,,87,001,30,m,Psychologie,2023-02-01_10h29.41.227,00_bat_bachelor,2022.2.4,59.966331634521545,
,,,,,,,,,,,,1,0,1,0,44,0,44,0,,,,,,,44,,,0.2,762.0722749090928,,Y,d,go,d,1,0.6342445454502013,,,,,,,,,,,,,,,,,87,001,30,m,Psychologie,2023-02-01_10h29.41.227,00_bat_bachelor,2022.2.4,59.966331634521545,
,,,,,,,,,,,,1,0,1,0,45,0,45,0,,,,,,,45,,,0.2,763.0231015757599,,X,l,go,l,1,0.4837965454644291,,,,,,,,,,,,,,,,,87,001,30,m,Psychologie,2023-02-01_10h29.41.227,00_bat_bachelor,2022.2.4,59.966331634521545,
,,,,,,,,,,,,1,0,1,0,46,0,46,0,,,,,,,46,,,0.2,763.8071098181827,,Y,d,go,d,1,0.5322450303065125,,,,,,,,,,,,,,,,,87,001,30,m,Psychologie,2023-02-01_10h29.41.227,00_bat_bachelor,2022.2.4,59.966331634521545,
,,,,,,,,,,,,1,0,1,0,47,0,47,0,,,,,,,47,,,0.2,764.6410288484767,765.4414889696927,Y,None,nogo,None,1,,,,,,,,,,,,,,,,,,87,001,30,m,Psychologie,2023-02-01_10h29.41.227,00_bat_bachelor,2022.2.4,59.966331634521545,
,,,,,,,,,,,,1,0,1,0,48,0,48,0,,,,,,,48,,,0.2,765.6419146666594,,X,l,go,l,1,0.39262272727501113,,,,,,,,,,,,,,,,,87,001,30,m,Psychologie,2023-02-01_10h29.41.227,00_bat_bachelor,2022.2.4,59.966331634521545,
,,,,,,,,,,,,1,0,1,0,49,0,49,0,,,,,,,49,,,0.2,766.3590230302943,,Y,d,go,d,1,0.5880603030236671,,,,,,,,,,,,,,,,,87,001,30,m,Psychologie,2023-02-01_10h29.41.227,00_bat_bachelor,2022.2.4,59.966331634521545,
,,,,,,,,,,,,1,0,1,0,50,0,50,0,,,,,,,50,,,0.2,767.2597415757627,,X,l,go,l,1,0.6152656363556162,,,,,,,,,,,,,,,,,87,001,30,m,Psychologie,2023-02-01_10h29.41.227,00_bat_bachelor,2022.2.4,59.966331634521545,
,,,,,,,,,,,,1,0,1,0,51,0,51,0,,,,,,,51,,,0.2,768.1937372121174,768.9942191515147,X,None,nogo,None,1,,,,,,,,,,,,,,,,,,87,001,30,m,Psychologie,2023-02-01_10h29.41.227,00_bat_bachelor,2022.2.4,59.966331634521545,
,,,,,,,,,,,,1,0,1,0,52,0,52,0,,,,,,,52,,,0.2,769.1945435151429,,Y,d,go,d,1,0.39253642424591817,,,,,,,,,,,,,,,,,87,001,30,m,Psychologie,2023-02-01_10h29.41.227,00_bat_bachelor,2022.2.4,59.966331634521545,
,,,,,,,,,,,,1,0,1,0,53,0,53,0,,,,,,,53,,,0.2,769.8951146666659,770.6955219393858,X,l,go,None,0,,,,,,,,,,,,,,,,,,87,001,30,m,Psychologie,2023-02-01_10h29.41.227,00_bat_bachelor,2022.2.4,59.966331634521545,
,,,,,,,,,,,,1,0,1,0,54,0,54,0,,,,,,,54,,,0.2,770.8960383030353,,X,None,nogo,d,0,0.4518445454596076,,,,,,,,,,,,,,,,,87,001,30,m,Psychologie,2023-02-01_10h29.41.227,00_bat_bachelor,2022.2.4,59.966331634521545,
,,,,,,,,,,,,1,0,1,0,55,0,55,0,,,,,,,55,,,0.2,771.6631374545395,,Y,d,go,d,1,0.5317946060677059,,,,,,,,,,,,,,,,,87,001,30,m,Psychologie,2023-02-01_10h29.41.227,00_bat_bachelor,2022.2.4,59.966331634521545,
,,,,,,,,,,,,1,0,1,0,56,0,56,0,,,,,,,56,,,0.2,772.5138235151535,,X,l,go,l,1,0.6249723030341556,,,,,,,,,,,,,,,,,87,001,30,m,Psychologie,2023-02-01_10h29.41.227,00_bat_bachelor,2022.2.4,59.966331634521545,
,,,,,,,,,,,,1,0,1,0,57,0,57,0,,,,,,,57,,,0.2,773.4642981818179,,X,None,nogo,l,0,0.5704316969786305,,,,,,,,,,,,,,,,,87,001,30,m,Psychologie,2023-02-01_10h29.41.227,00_bat_bachelor,2022.2.4,59.966331634521545,
,,,,,,,,,,,,1,0,1,0,58,0,58,0,,,,,,,58,,,0.2,774.3485677575809,,Y,d,go,d,1,0.4545276969729457,,,,,,,,,,,,,,,,,87,001,30,m,Psychologie,2023-02-01_10h29.41.227,00_bat_bachelor,2022.2.4,59.966331634521545,
,,,,,,,,,,,,1,0,1,0,59,0,59,0,,,,,,,59,,,0.2,775.1154623030307,,X,l,go,l,1,0.6642115757567808,,,,,,,,,,,,,,,,,87,001,30,m,Psychologie,2023-02-01_10h29.41.227,00_bat_bachelor,2022.2.4,59.966331634521545,
,,,,,,,,,,,,1,0,1,0,60,0,60,0,,,,,,,60,,,0.2,776.0825173333287,,X,None,nogo,None,1,,,,,,,,,,,,,,,,,,87,001,30,m,Psychologie,2023-02-01_10h29.41.227,00_bat_bachelor,2022.2.4,59.966331634521545,
,,,,,,,,,,,,1,0,1,0,61,0,61,0,,,,,,,61,,,0.2,777.0834618181834,,Y,d,go,d,1,0.44047678787319455,,,,,,,,,,,,,,,,,87,001,30,m,Psychologie,2023-02-01_10h29.41.227,00_bat_bachelor,2022.2.4,59.966331634521545,
,,,,,,,,,,,,1,0,1,0,62,0,62,0,,,,,,,62,,,0.2,777.8337444848439,,X,l,go,l,1,0.6659109697066015,,,,,,,,,,,,,,,,,87,001,30,m,Psychologie,2023-02-01_10h29.41.227,00_bat_bachelor,2022.2.4,59.966331634521545,
,,,,,,,,,,,,1,0,1,0,63,0,63,0,,,,,,,63,,,0.2,778.8014913939405,,Y,d,go,d,1,0.4971827272675,,,,,,,,,,,,,,,,,87,001,30,m,Psychologie,2023-02-01_10h29.41.227,00_bat_bachelor,2022.2.4,59.966331634521545,
,,,,,,,,,,,,1,0,1,0,64,0,64,0,,,,,,,64,,,0.2,779.6017556363659,,X,l,go,l,1,0.5460156969784293,,,,,,,,,,,,,,,,,87,001,30,m,Psychologie,2023-02-01_10h29.41.227,00_bat_bachelor,2022.2.4,59.966331634521545,
,,,,,,,,,,,,1,0,1,0,65,0,65,0,,,,,,,65,,,0.2,780.4528601212078,,Y,d,go,d,1,0.5581053939386038,,,,,,,,,,,,,,,,,87,001,30,m,Psychologie,2023-02-01_10h29.41.227,00_bat_bachelor,2022.2.4,59.966331634521545,
,,,,,,,,,,,,1,0,1,0,66,0,66,0,,,,,,,66,,,0.2,781.3197018181818,,X,l,go,l,1,0.5394188484933693,,,,,,,,,,,,,,,,,87,001,30,m,Psychologie,2023-02-01_10h29.41.227,00_bat_bachelor,2022.2.4,59.966331634521545,
,,,,,,,,,,,,1,0,1,0,67,0,67,0,,,,,,,67,,,0.2,782.1706632727291,,Y,d,go,d,1,0.48799242424138356,,,,,,,,,,,,,,,,,87,001,30,m,Psychologie,2023-02-01_10h29.41.227,00_bat_bachelor,2022.2.4,59.966331634521545,
,,,,,,,,,,,,1,0,1,0,68,0,68,0,,,,,,,68,,,0.2,782.9713488484849,,Y,None,nogo,None,1,,,,,,,,,,,,,,,,,,87,001,30,m,Psychologie,2023-02-01_10h29.41.227,00_bat_bachelor,2022.2.4,59.966331634521545,
,,,,,,,,,,,,1,0,1,0,69,0,69,0,,,,,,,69,,,0.2,783.9721086060599,,X,l,go,l,1,0.38274006060964894,,,,,,,,,,,,,,,,,87,001,30,m,Psychologie,2023-02-01_10h29.41.227,00_bat_bachelor,2022.2.4,59.966331634521545,
,,,,,,,,,,,,1,0,1,0,70,0,70,0,,,,,,,70,,,0.2,784.6559578181768,,Y,d,go,d,1,0.643926000004285,,,,,,,,,,,,,,,,,87,001,30,m,Psychologie,2023-02-01_10h29.41.227,00_bat_bachelor,2022.2.4,59.966331634521545,
,,,,,,,,,,,,1,0,1,0,71,0,71,0,,,,,,,71,,,0.2,785.6066603636282,,X,l,go,l,1,0.5889466060616542,,,,,,,,,,,,,,,,,87,001,30,m,Psychologie,2023-02-01_10h29.41.227,00_bat_bachelor,2022.2.4,59.966331634521545,
,,,,,,,,,,,,1,0,1,0,72,0,72,0,,,,,,,72,,,0.2,786.5073488484777,787.3076353939396,X,None,nogo,None,1,,,,,,,,,,,,,,,,,,87,001,30,m,Psychologie,2023-02-01_10h29.41.227,00_bat_bachelor,2022.2.4,59.966331634521545,
,,,,,,,,,,,,1,0,1,0,73,0,73,0,,,,,,,73,,,0.2,787.5077391515078,,Y,d,go,d,1,0.495393151519238,,,,,,,,,,,,,,,,,87,001,30,m,Psychologie,2023-02-01_10h29.41.227,00_bat_bachelor,2022.2.4,59.966331634521545,
,,,,,,,,,,,,1,0,1,0,74,0,74,0,,,,,,,74,,,0.2,788.308512484844,,X,l,go,None,0,,,,,,,,,,,,,,,,,,87,001,30,m,Psychologie,2023-02-01_10h29.41.227,00_bat_bachelor,2022.2.4,59.966331634521545,
,,,,,,,,,,,,1,0,1,0,75,0,75,0,,,,,,,75,,,0.2,789.3091403636354,,Y,d,go,d,1,0.5498023636464495,,,,,,,,,,,,,,,,,87,001,30,m,Psychologie,2023-02-01_10h29.41.227,00_bat_bachelor,2022.2.4,59.966331634521545,
,,,,,,,,,,,,1,0,1,0,76,0,76,0,,,,,,,76,,,0.2,790.1599447272747,,X,l,go,l,1,0.563594363629818,,,,,,,,,,,,,,,,,87,001,30,m,Psychologie,2023-02-01_10h29.41.227,00_bat_bachelor,2022.2.4,59.966331634521545,
,,,,,,,,,,,,1,0,1,0,77,0,77,0,,,,,,,77,,,0.2,791.0272092121158,,X,None,nogo,None,1,,,,,,,,,,,,,,,,,,87,001,30,m,Psychologie,2023-02-01_10h29.41.227,00_bat_bachelor,2022.2.4,59.966331634521545,
,,,,,,,,,,,,1,0,1,0,78,0,78,0,,,,,,,78,,,0.2,792.028201212117,,Y,d,go,d,1,0.4869907272804994,,,,,,,,,,,,,,,,,87,001,30,m,Psychologie,2023-02-01_10h29.41.227,00_bat_bachelor,2022.2.4,59.966331634521545,
,,,,,,,,,,,,1,0,1,0,79,0,79,0,,,,,,,79,,,0.2,792.8286506666627,,X,l,go,l,1,0.5177359394001542,,,,,,,,,,,,,,,,,87,001,30,m,Psychologie,2023-02-01_10h29.41.227,00_bat_bachelor,2022.2.4,59.966331634521545,
,,,,,,,,,,,,1,0,1,0,80,0,80,0,,,,,,,80,,,0.2,793.662710787874,,Y,d,go,d,1,0.6119730303034885,,,,,,,,,,,,,,,,,87,001,30,m,Psychologie,2023-02-01_10h29.41.227,00_bat_bachelor,2022.2.4,59.966331634521545,
,,,,,,,,,,,,1,0,1,0,81,0,81,0,,,,,,,81,,,0.2,794.5798332121194,,Y,None,nogo,None,1,,,,,,,,,,,,,,,,,,87,001,30,m,Psychologie,2023-02-01_10h29.41.227,00_bat_bachelor,2022.2.4,59.966331634521545,
,,,,,,,,,,,,1,0,1,0,82,0,82,0,,,,,,,82,,,0.2,795.5807316363644,,X,l,go,l,1,0.48553472726780456,,,,,,,,,,,,,,,,,87,001,30,m,Psychologie,2023-02-01_10h29.41.227,00_bat_bachelor,2022.2.4,59.966331634521545,
,,,,,,,,,,,,1,0,1,0,83,0,83,0,,,,,,,83,,,0.2,796.3814366060542,,Y,d,go,d,1,0.5656680606043665,,,,,,,,,,,,,,,,,87,001,30,m,Psychologie,2023-02-01_10h29.41.227,00_bat_bachelor,2022.2.4,59.966331634521545,
,,,,,,,,,,,,1,0,1,0,84,0,84,0,,,,,,,84,,,0.2,797.2485730909102,,Y,None,nogo,None,1,,,,,,,,,,,,,,,,,,87,001,30,m,Psychologie,2023-02-01_10h29.41.227,00_bat_bachelor,2022.2.4,59.966331634521545,
,,,,,,,,,,,,1,0,1,0,85,0,85,0,,,,,,,85,,,0.2,798.2493013333296,,X,l,go,l,1,0.4415085454529617,,,,,,,,,,,,,,,,,87,001,30,m,Psychologie,2023-02-01_10h29.41.227,00_bat_bachelor,2022.2.4,59.966331634521545,
,,,,,,,,,,,,1,0,1,0,86,0,86,0,,,,,,,86,,,0.2,799.0000833939412,,Y,d,go,d,1,0.5717461212188937,,,,,,,,,,,,,,,,,87,001,30,m,Psychologie,2023-02-01_10h29.41.227,00_bat_bachelor,2022.2.4,59.966331634521545,
,,,,,,,,,,,,1,0,1,0,87,0,87,0,,,,,,,87,,,0.2,799.8842913939443,,Y,None,nogo,None,1,,,,,,,,,,,,,,,,,,87,001,30,m,Psychologie,2023-02-01_10h29.41.227,00_bat_bachelor,2022.2.4,59.966331634521545,
,,,,,,,,,,,,1,0,1,0,88,0,88,0,,,,,,,88,,,0.2,800.8846429090918,,Y,None,nogo,l,0,0.3335643030295614,,,,,,,,,,,,,,,,,87,001,30,m,Psychologie,2023-02-01_10h29.41.227,00_bat_bachelor,2022.2.4,59.966331634521545,
,,,,,,,,,,,,1,0,1,0,89,0,89,0,,,,,,,89,,,0.2,801.5190123636276,,X,l,go,l,1,0.6122212727350416,,,,,,,,,,,,,,,,,87,001,30,m,Psychologie,2023-02-01_10h29.41.227,00_bat_bachelor,2022.2.4,59.966331634521545,
,,,,,,,,,,,,1,0,1,0,90,0,90,0,,,,,,,90,,,0.2,802.4361018181808,,Y,d,go,None,0,,,,,,,,,,,,,,,,,,87,001,30,m,Psychologie,2023-02-01_10h29.41.227,00_bat_bachelor,2022.2.4,59.966331634521545,
,,,,,,,,,,,,1,0,1,0,91,0,91,0,,,,,,,91,,,0.2,803.436886303025,,X,l,go,l,1,0.5819303636380937,,,,,,,,,,,,,,,,,87,001,30,m,Psychologie,2023-02-01_10h29.41.227,00_bat_bachelor,2022.2.4,59.966331634521545,
,,,,,,,,,,,,1,0,1,0,92,0,92,0,,,,,,,92,,,0.2,804.3205900605972,,Y,d,go,d,1,0.4982605454570148,,,,,,,,,,,,,,,,,87,001,30,m,Psychologie,2023-02-01_10h29.41.227,00_bat_bachelor,2022.2.4,59.966331634521545,
,,,,,,,,,,,,1,0,1,0,93,0,93,0,,,,,,,93,,,0.2,805.1211941818183,,X,l,go,l,1,0.5783017575886333,,,,,,,,,,,,,,,,,87,001,30,m,Psychologie,2023-02-01_10h29.41.227,00_bat_bachelor,2022.2.4,59.966331634521545,
,,,,,,,,,,,,1,0,1,0,94,0,94,0,,,,,,,94,,,0.2,806.0055786666635,,Y,d,go,d,1,0.5259924242418492,,,,,,,,,,,,,,,,,87,001,30,m,Psychologie,2023-02-01_10h29.41.227,00_bat_bachelor,2022.2.4,59.966331634521545,
,,,,,,,,,,,,1,0,1,0,95,0,95,0,,,,,,,95,,,0.2,806.8395054545399,,Y,None,nogo,None,1,,,,,,,,,,,,,,,,,,87,001,30,m,Psychologie,2023-02-01_10h29.41.227,00_bat_bachelor,2022.2.4,59.966331634521545,
,,,,,,,,,,,,1,0,1,0,96,0,96,0,,,,,,,96,,,0.2,807.8402879999921,,X,l,go,l,1,0.45030515152029693,,,,,,,,,,,,,,,,,87,001,30,m,Psychologie,2023-02-01_10h29.41.227,00_bat_bachelor,2022.2.4,59.966331634521545,
,,,,,,,,,,,,1,0,1,0,97,0,97,0,,,,,,,97,,,0.2,808.5908014545421,,Y,d,go,d,1,0.5481708484876435,,,,,,,,,,,,,,,,,87,001,30,m,Psychologie,2023-02-01_10h29.41.227,00_bat_bachelor,2022.2.4,59.966331634521545,
,,,,,,,,,,,,1,0,1,0,98,0,98,0,,,,,,,98,,,0.2,809.4411709090928,,X,l,go,l,1,0.5771269696997479,,,,,,,,,,,,,,,,,87,001,30,m,Psychologie,2023-02-01_10h29.41.227,00_bat_bachelor,2022.2.4,59.966331634521545,
,,,,,,,,,,,,1,0,1,0,99,0,99,0,,,,,,,99,,,0.2,810.3255248484784,,Y,d,go,None,0,,,,,,,,,,,,,,,,,,87,001,30,m,Psychologie,2023-02-01_10h29.41.227,00_bat_bachelor,2022.2.4,59.966331634521545,
,,,,,,,,,,,,1,0,1,0,100,0,100,0,,,,,,,100,,,0.2,811.3259922424186,,X,l,go,d,0,0.5977378787792986,,,,,,,,,,,,,,,,,87,001,30,m,Psychologie,2023-02-01_10h29.41.227,00_bat_bachelor,2022.2.4,59.966331634521545,
,,,,,,,,,,,,1,0,1,0,101,0,101,0,,,,,,,101,,,0.2,812.2268509090936,,Y,d,go,None,0,,,,,,,,,,,,,,,,,,87,001,30,m,Psychologie,2023-02-01_10h29.41.227,00_bat_bachelor,2022.2.4,59.966331634521545,
,,,,,,,,,,,,1,0,1,0,102,0,102,0,,,,,,,102,,,0.2,813.227650909088,,X,l,go,l,1,0.5515972727298504,,,,,,,,,,,,,,,,,87,001,30,m,Psychologie,2023-02-01_10h29.41.227,00_bat_bachelor,2022.2.4,59.966331634521545,
,,,,,,,,,,,,1,0,1,0,103,0,103,0,,,,,,,103,,,0.2,814.0949692121212,,Y,d,go,d,1,0.5318188484816346,,,,,,,,,,,,,,,,,87,001,30,m,Psychologie,2023-02-01_10h29.41.227,00_bat_bachelor,2022.2.4,59.966331634521545,
,,,,,,,,,,,,1,0,1,0,104,0,104,0,,,,,,,104,,,0.2,814.9288984242448,,X,l,go,l,1,0.5463987272669328,,,,,,,,,,,,,,,,,87,001,30,m,Psychologie,2023-02-01_10h29.41.227,00_bat_bachelor,2022.2.4,59.966331634521545,
,,,,,,,,,,,,1,0,1,0,105,0,105,0,,,,,,,105,,,0.2,815.7793410909071,,X,None,nogo,None,1,,,,,,,,,,,,,,,,,,87,001,30,m,Psychologie,2023-02-01_10h29.41.227,00_bat_bachelor,2022.2.4,59.966331634521545,
,,,,,,,,,,,,1,0,1,0,106,0,106,0,,,,,,,106,,,0.2,816.780232242425,,Y,d,go,d,1,0.5989727878913982,,,,,,,,,,,,,,,,,87,001,30,m,Psychologie,2023-02-01_10h29.41.227,00_bat_bachelor,2022.2.4,59.966331634521545,
,,,,,,,,,,,,1,0,1,0,107,0,107,0,,,,,,,107,,,0.2,817.6811069090909,,X,l,go,None,0,,,,,,,,,,,,,,,,,,87,001,30,m,Psychologie,2023-02-01_10h29.41.227,00_bat_bachelor,2022.2.4,59.966331634521545,
,,,,,,,,,,,,1,0,1,0,108,0,108,0,,,,,,,108,,,0.2,818.6819277575705,,Y,d,go,d,1,0.553309272727347,,,,,,,,,,,,,,,,,87,001,30,m,Psychologie,2023-02-01_10h29.41.227,00_bat_bachelor,2022.2.4,59.966331634521545,
,,,,,,,,,,,,1,0,1,0,109,0,109,0,,,,,,,109,,,0.2,819.5491723636369,,X,l,go,l,1,0.5505301212106133,,,,,,,,,,,,,,,,,87,001,30,m,Psychologie,2023-02-01_10h29.41.227,00_bat_bachelor,2022.2.4,59.966331634521545,
,,,,,,,,,,,,1,0,1,0,110,0,110,0,,,,,,,110,,,0.2,820.3996809696982,821.200515393939,X,None,nogo,None,1,,,,,,,,,,,,,,,,,,87,001,30,m,Psychologie,2023-02-01_10h29.41.227,00_bat_bachelor,2022.2.4,59.966331634521545,
,,,,,,,,,,,,1,0,1,0,111,0,111,0,,,,,,,111,,,0.2,821.400508121209,,Y,d,go,d,1,0.4588855151523603,,,,,,,,,,,,,,,,,87,001,30,m,Psychologie,2023-02-01_10h29.41.227,00_bat_bachelor,2022.2.4,59.966331634521545,
,,,,,,,,,,,,1,0,1,0,112,0,112,0,,,,,,,112,,,0.2,822.1675190303067,,X,l,go,l,1,0.6355066060641548,,,,,,,,,,,,,,,,,87,001,30,m,Psychologie,2023-02-01_10h29.41.227,00_bat_bachelor,2022.2.4,59.966331634521545,
,,,,,,,,,,,,1,0,1,0,113,0,113,0,,,,,,,113,,,0.2,823.1182652121206,,Y,d,go,d,1,0.4362498787959339,,,,,,,,,,,,,,,,,87,001,30,m,Psychologie,2023-02-01_10h29.41.227,00_bat_bachelor,2022.2.4,59.966331634521545,
,,,,,,,,,,,,1,0,1,0,114,0,114,0,,,,,,,114,,,0.2,823.8691224242357,,X,l,go,l,1,0.5988452727324329,,,,,,,,,,,,,,,,,87,001,30,m,Psychologie,2023-02-01_10h29.41.227,00_bat_bachelor,2022.2.4,59.966331634521545,
,,,,,,,,,,,,1,0,1,0,115,0,115,0,,,,,,,115,,,0.2,824.7695975757524,,X,None,nogo,l,0,0.5449078181700315,,,,,,,,,,,,,,,,,87,001,30,m,Psychologie,2023-02-01_10h29.41.227,00_bat_bachelor,2022.2.4,59.966331634521545,
,,,,,,,,,,,,1,0,1,0,116,0,116,0,,,,,,,116,,,0.2,825.620865454548,,Y,d,go,d,1,0.4309146060695639,,,,,,,,,,,,,,,,,87,001,30,m,Psychologie,2023-02-01_10h29.41.227,00_bat_bachelor,2022.2.4,59.966331634521545,
,,,,,,,,,,,,1,0,1,0,117,0,117,0,,,,,,,117,,,0.2,826.3543941818207,,X,l,go,l,1,0.5921674545388669,,,,,,,,,,,,,,,,,87,001,30,m,Psychologie,2023-02-01_10h29.41.227,00_bat_bachelor,2022.2.4,59.966331634521545,
,,,,,,,,,,,,1,0,1,0,118,0,118,0,,,,,,,118,,,0.2,827.2548732121213,,Y,d,go,d,1,0.5555967878754018,,,,,,,,,,,,,,,,,87,001,30,m,Psychologie,2023-02-01_10h29.41.227,00_bat_bachelor,2022.2.4,59.966331634521545,
,,,,,,,,,,,,1,0,1,0,119,0,119,0,,,,,,,119,,,0.2,828.1223830303061,,X,l,go,l,1,0.5209921818168368,,,,,,,,,,,,,,,,,87,001,30,m,Psychologie,2023-02-01_10h29.41.227,00_bat_bachelor,2022.2.4,59.966331634521545,
,,,,,,,,,,,,1,0,1,0,120,0,120,0,,,,,,,120,,,0.2,828.9562821818108,,Y,d,go,d,1,0.5189276969758794,,,,,,,,,,,,,,,,,87,001,30,m,Psychologie,2023-02-01_10h29.41.227,00_bat_bachelor,2022.2.4,59.966331634521545,
,,,,,,,,,,,,1,0,1,0,121,0,121,0,,,,,,,121,,,0.2,829.7901192727295,,X,l,go,l,1,0.5330445454601431,,,,,,,,,,,,,,,,,87,001,30,m,Psychologie,2023-02-01_10h29.41.227,00_bat_bachelor,2022.2.4,59.966331634521545,
,,,,,,,,,,,,1,0,1,0,122,0,122,0,,,,,,,122,,,0.2,830.624349090911,,Y,d,go,d,1,0.5146285454684403,,,,,,,,,,,,,,,,,87,001,30,m,Psychologie,2023-02-01_10h29.41.227,00_bat_bachelor,2022.2.4,59.966331634521545,
,,,,,,,,,,,,1,0,1,0,123,0,123,0,,,,,,,123,,,0.2,831.4418089696992,,X,l,go,l,1,0.49761666667473037,,,,,,,,,,,,,,,,,87,001,30,m,Psychologie,2023-02-01_10h29.41.227,00_bat_bachelor,2022.2.4,59.966331634521545,
,,,,,,,,,,,,1,0,1,0,124,0,124,0,,,,,,,124,,,0.2,832.2422152727231,833.0428494545486,X,None,nogo,None,1,,,,,,,,,,,,,,,,,,87,001,30,m,Psychologie,2023-02-01_10h29.41.227,00_bat_bachelor,2022.2.4,59.966331634521545,
,,,,,,,,,,,,1,0,1,0,125,0,125,0,,,,,,,125,,,0.2,833.242869333335,,Y,d,go,d,1,0.5515836969716474,,,,,,,,,,,,,,,,,87,001,30,m,Psychologie,2023-02-01_10h29.41.227,00_bat_bachelor,2022.2.4,59.966331634521545,
,,,,,,,,,,,,1,0,1,0,126,0,126,0,,,,,,,126,,,0.2,834.1102356363554,,X,l,go,l,1,0.5968069696973544,,,,,,,,,,,,,,,,,87,001,30,m,Psychologie,2023-02-01_10h29.41.227,00_bat_bachelor,2022.2.4,59.966331634521545,
,,,,,,,,,,,,1,0,1,0,127,0,127,0,,,,,,,127,,,0.2,835.010990060604,,X,None,nogo,None,1,,,,,,,,,,,,,,,,,,87,001,30,m,Psychologie,2023-02-01_10h29.41.227,00_bat_bachelor,2022.2.4,59.966331634521545,
,,,,,,,,,,,,1,0,1,0,128,0,128,0,,,,,,,128,,,0.2,836.0114550302969,,Y,d,go,d,1,0.3436801818170352,,,,,,,,,,,,,,,,,87,001,30,m,Psychologie,2023-02-01_10h29.41.227,00_bat_bachelor,2022.2.4,59.966331634521545,
,,,,,,,,,,,,1,0,1,0,129,0,129,0,,,,,,,129,,,0.2,836.6619224242459,,X,l,go,l,1,0.509171090903692,,,,,,,,,,,,,,,,,87,001,30,m,Psychologie,2023-02-01_10h29.41.227,00_bat_bachelor,2022.2.4,59.966331634521545,
,,,,,,,,,,,,1,0,1,0,130,0,130,0,,,,,,,130,,,0.2,837.4800470303016,838.2810492121207,X,None,nogo,None,1,,,,,,,,,,,,,,,,,,87,001,30,m,Psychologie,2023-02-01_10h29.41.227,00_bat_bachelor,2022.2.4,59.966331634521545,
,,,,,,,,,,,,1,0,1,0,131,0,131,0,,,,,,,131,,,0.2,838.4810943030316,,Y,d,go,d,1,0.3377175151545089,,,,,,,,,,,,,,,,,87,001,30,m,Psychologie,2023-02-01_10h29.41.227,00_bat_bachelor,2022.2.4,59.966331634521545,
,,,,,,,,,,,,1,0,1,0,132,0,132,0,,,,,,,132,,,0.2,839.1646623030247,839.9656601212046,X,l,go,None,0,,,,,,,,,,,,,,,,,,87,001,30,m,Psychologie,2023-02-01_10h29.41.227,00_bat_bachelor,2022.2.4,59.966331634521545,
,,,,,,,,,,,,1,0,1,0,133,0,133,0,,,,,,,133,,,0.2,840.165452121204,,Y,d,go,d,1,0.46099848485027906,,,,,,,,,,,,,,,,,87,001,30,m,Psychologie,2023-02-01_10h29.41.227,00_bat_bachelor,2022.2.4,59.966331634521545,
,,,,,,,,,,,,1,0,1,0,134,0,134,0,,,,,,,134,,,0.2,840.9660358787805,,Y,None,nogo,d,0,0.540610121213831,,,,,,,,,,,,,,,,,87,001,30,m,Psychologie,2023-02-01_10h29.41.227,00_bat_bachelor,2022.2.4,59.966331634521545,
,,,,,,,,,,,,1,0,1,0,135,0,135,0,,,,,,,135,,,0.2,841.8502943030326,842.6505711515201,Y,None,nogo,None,1,,,,,,,,,,,,,,,,,,87,001,30,m,Psychologie,2023-02-01_10h29.41.227,00_bat_bachelor,2022.2.4,59.966331634521545,
,,,,,,,,,,,,1,0,1,0,136,0,136,0,,,,,,,136,,,0.2,842.8507922424178,,X,l,go,l,1,0.5925228484848049,,,,,,,,,,,,,,,,,87,001,30,m,Psychologie,2023-02-01_10h29.41.227,00_bat_bachelor,2022.2.4,59.966331634521545,
,,,,,,,,,,,,1,0,1,0,137,0,137,0,,,,,,,137,,,0.2,843.7683849696914,,Y,d,go,d,1,0.5216748484817799,,,,,,,,,,,,,,,,,87,001,30,m,Psychologie,2023-02-01_10h29.41.227,00_bat_bachelor,2022.2.4,59.966331634521545,
,,,,,,,,,,,,1,0,1,0,138,0,138,0,,,,,,,138,,,0.2,844.6355360000016,845.436489212123,Y,None,nogo,None,1,,,,,,,,,,,,,,,,,,87,001,30,m,Psychologie,2023-02-01_10h29.41.227,00_bat_bachelor,2022.2.4,59.966331634521545,
,,,,,,,,,,,,1,0,1,0,139,0,139,0,,,,,,,139,,,0.2,845.6364184242411,,X,l,go,l,1,0.3979240606131498,,,,,,,,,,,,,,,,,87,001,30,m,Psychologie,2023-02-01_10h29.41.227,00_bat_bachelor,2022.2.4,59.966331634521545,
,,,,,,,,,,,,1,0,1,0,140,0,140,0,,,,,,,140,,,0.2,846.3704392727232,,Y,d,go,d,1,0.48114006061223336,,,,,,,,,,,,,,,,,87,001,30,m,Psychologie,2023-02-01_10h29.41.227,00_bat_bachelor,2022.2.4,59.966331634521545,
,,,,,,,,,,,,1,0,1,0,141,0,141,0,,,,,,,141,,,0.2,847.1873774545384,,X,l,go,l,1,0.49418975757726,,,,,,,,,,,,,,,,,87,001,30,m,Psychologie,2023-02-01_10h29.41.227,00_bat_bachelor,2022.2.4,59.966331634521545,
,,,,,,,,,,,,1,0,1,0,142,0,142,0,,,,,,,142,,,0.2,848.0216256969725,,X,None,nogo,l,0,0.49290006060618907,,,,,,,,,,,,,,,,,87,001,30,m,Psychologie,2023-02-01_10h29.41.227,00_bat_bachelor,2022.2.4,59.966331634521545,
,,,,,,,,,,,,1,0,1,0,143,0,143,0,,,,,,,143,,,0.2,848.8555907878763,,Y,d,go,d,1,0.42793715151492506,,,,,,,,,,,,,,,,,87,001,30,m,Psychologie,2023-02-01_10h29.41.227,00_bat_bachelor,2022.2.4,59.966331634521545,
,,,,,,,,,,,,1,0,1,0,144,0,144,0,,,,,,,144,,,0.2,849.6061255757522,850.4070341818151,X,l,go,None,0,,,,,,,,,,,,,,,,,,87,001,30,m,Psychologie,2023-02-01_10h29.41.227,00_bat_bachelor,2022.2.4,59.966331634521545,
,,,,,,,,,,,,1,0,1,0,145,0,145,0,,,,,,,145,,,0.2,850.6067408484814,,Y,d,go,d,1,0.4682809090882074,,,,,,,,,,,,,,,,,87,001,30,m,Psychologie,2023-02-01_10h29.41.227,00_bat_bachelor,2022.2.4,59.966331634521545,
,,,,,,,,,,,,1,0,1,0,146,0,146,0,,,,,,,146,,,0.2,851.4240494545375,,X,l,go,l,1,0.5946498787816381,,,,,,,,,,,,,,,,,87,001,30,m,Psychologie,2023-02-01_10h29.41.227,00_bat_bachelor,2022.2.4,59.966331634521545,
,,,,,,,,,,,,1,0,1,0,147,0,147,0,,,,,,,147,,,0.2,852.3415835151536,,Y,d,go,d,1,0.4616452727204887,,,,,,,,,,,,,,,,,87,001,30,m,Psychologie,2023-02-01_10h29.41.227,00_bat_bachelor,2022.2.4,59.966331634521545,
,,,,,,,,,,,,1,0,1,0,148,0,148,0,,,,,,,148,,,0.2,853.1420324848441,,X,l,go,l,1,0.5892767878831364,,,,,,,,,,,,,,,,,87,001,30,m,Psychologie,2023-02-01_10h29.41.227,00_bat_bachelor,2022.2.4,59.966331634521545,
,,,,,,,,,,,,1,0,1,0,149,0,149,0,,,,,,,149,,,0.2,854.0593667878711,,Y,d,go,d,1,0.5996103636425687,,,,,,,,,,,,,,,,,87,001,30,m,Psychologie,2023-02-01_10h29.41.227,00_bat_bachelor,2022.2.4,59.966331634521545,
,,,,,,,,,,,,1,0,1,0,150,0,150,0,,,,,,,150,,,0.2,854.9934089696908,855.7944882424199,Y,None,nogo,None,1,,,,,,,,,,,,,,,,,,87,001,30,m,Psychologie,2023-02-01_10h29.41.227,00_bat_bachelor,2022.2.4,59.966331634521545,
,,,,,,,,,,,,1,0,1,0,151,0,151,0,,,,,,,151,,,0.2,855.9947927272733,,X,l,go,l,1,0.3598876969772391,,,,,,,,,,,,,,,,,87,001,30,m,Psychologie,2023-02-01_10h29.41.227,00_bat_bachelor,2022.2.4,59.966331634521545,
,,,,,,,,,,,,1,0,1,0,152,0,152,0,,,,,,,152,,,0.2,856.6949086060631,,Y,d,go,d,1,0.5878862424287945,,,,,,,,,,,,,,,,,87,001,30,m,Psychologie,2023-02-01_10h29.41.227,00_bat_bachelor,2022.2.4,59.966331634521545,
,,,,,,,,,,,,1,0,1,0,153,0,153,0,,,,,,,153,,,0.2,857.628983757575,,Y,None,nogo,d,0,0.5013829696981702,,,,,,,,,,,,,,,,,87,001,30,m,Psychologie,2023-02-01_10h29.41.227,00_bat_bachelor,2022.2.4,59.966331634521545,
,,,,,,,,,,,,1,0,1,0,154,0,154,0,,,,,,,154,,,0.2,858.4796145454457,,X,l,go,l,1,0.3702047878759913,,,,,,,,,,,,,,,,,87,001,30,m,Psychologie,2023-02-01_10h29.41.227,00_bat_bachelor,2022.2.4,59.966331634521545,
,,,,,,,,,,,,1,0,1,0,155,0,155,0,,,,,,,155,,,0.2,859.196808727269,,Y,d,go,l,0,0.40568599999824073,,,,,,,,,,,,,,,,,87,001,30,m,Psychologie,2023-02-01_10h29.41.227,00_bat_bachelor,2022.2.4,59.966331634521545,
,,,,,,,,,,,,1,0,1,0,156,0,156,0,,,,,,,156,,,0.2,859.9473052121175,,X,l,go,l,1,0.40736115150502883,,,,,,,,,,,,,,,,,87,001,30,m,Psychologie,2023-02-01_10h29.41.227,00_bat_bachelor,2022.2.4,59.966331634521545,
,,,,,,,,,,,,1,0,1,0,157,0,157,0,,,,,,,157,,,0.2,860.6979214545427,861.4988921212062,X,None,nogo,None,1,,,,,,,,,,,,,,,,,,87,001,30,m,Psychologie,2023-02-01_10h29.41.227,00_bat_bachelor,2022.2.4,59.966331634521545,
,,,,,,,,,,,,1,0,1,0,158,0,158,0,,,,,,,158,,,0.2,861.6986530909053,,Y,d,go,d,1,0.3988016363728093,,,,,,,,,,,,,,,,,87,001,30,m,Psychologie,2023-02-01_10h29.41.227,00_bat_bachelor,2022.2.4,59.966331634521545,
,,,,,,,,,,,,1,0,1,0,159,0,159,0,,,,,,,159,,,0.2,862.432425212115,,X,l,go,l,1,0.4659196969732875,,,,,,,,,,,,,,,,,87,001,30,m,Psychologie,2023-02-01_10h29.41.227,00_bat_bachelor,2022.2.4,59.966331634521545,
,,,,,,,,,,,,1,0,1,0,160,0,160,0,,,,,,,160,,,0.2,863.2330962424167,,Y,d,go,d,1,0.496950969696627,,,,,,,,,,,,,,,,,87,001,30,m,Psychologie,2023-02-01_10h29.41.227,00_bat_bachelor,2022.2.4,59.966331634521545,
,,,,,,,,,,,,1,0,1,0,161,0,161,0,,,,,,,161,,,0.2,864.0670065454469,864.8680300606065,Y,None,nogo,None,1,,,,,,,,,,,,,,,,,,87,001,30,m,Psychologie,2023-02-01_10h29.41.227,00_bat_bachelor,2022.2.4,59.966331634521545,
,,,,,,,,,,,,1,0,1,0,162,0,162,0,,,,,,,162,,,0.2,865.0677192727308,,X,l,go,l,1,0.4070086666761199,,,,,,,,,,,,,,,,,87,001,30,m,Psychologie,2023-02-01_10h29.41.227,00_bat_bachelor,2022.2.4,59.966331634521545,
,,,,,,,,,,,,1,0,1,0,163,0,163,0,,,,,,,163,,,0.2,865.8187418181769,,Y,d,go,d,1,0.6171943636436481,,,,,,,,,,,,,,,,,87,001,30,m,Psychologie,2023-02-01_10h29.41.227,00_bat_bachelor,2022.2.4,59.966331634521545,
,,,,,,,,,,,,1,0,1,0,164,0,164,0,,,,,,,164,,,0.2,866.7523670303053,867.5533861818112,X,l,go,None,0,,,,,,,,,,,,,,,,,,87,001,30,m,Psychologie,2023-02-01_10h29.41.227,00_bat_bachelor,2022.2.4,59.966331634521545,
,,,,,,,,,,,,1,0,1,0,165,0,165,0,,,,,,,165,,,0.2,867.7533764848486,868.5542065454501,X,None,nogo,None,1,,,,,,,,,,,,,,,,,,87,001,30,m,Psychologie,2023-02-01_10h29.41.227,00_bat_bachelor,2022.2.4,59.966331634521545,
,,,,,,,,,,,,1,0,1,0,166,0,166,0,,,,,,,166,,,0.2,868.7539069090853,,Y,d,go,l,0,0.5927633333340054,,,,,,,,,,,,,,,,,87,001,30,m,Psychologie,2023-02-01_10h29.41.227,00_bat_bachelor,2022.2.4,59.966331634521545,
,,,,,,,,,,,,1,0,1,0,167,0,167,0,,,,,,,167,,,0.2,869.6711612121144,,X,l,go,d,0,0.651508060604101,,,,,,,,,,,,,,,,,87,001,30,m,Psychologie,2023-02-01_10h29.41.227,00_bat_bachelor,2022.2.4,59.966331634521545,
,,,,,,,,,,,,1,0,1,0,168,0,168,0,,,,,,,168,,,0.2,870.6719932121196,,Y,d,go,d,1,0.593945393935428,,,,,,,,,,,,,,,,,87,001,30,m,Psychologie,2023-02-01_10h29.41.227,00_bat_bachelor,2022.2.4,59.966331634521545,
,,,,,,,,,,,,1,0,1,0,169,0,169,0,,,,,,,169,,,0.2,871.606261818175,,Y,None,nogo,d,0,0.47600599999714177,,,,,,,,,,,,,,,,,87,001,30,m,Psychologie,2023-02-01_10h29.41.227,00_bat_bachelor,2022.2.4,59.966331634521545,
,,,,,,,,,,,,1,0,1,0,170,0,170,0,,,,,,,170,,,0.2,872.423310060607,,X,l,go,l,1,0.3953727878833888,,,,,,,,,,,,,,,,,87,001,30,m,Psychologie,2023-02-01_10h29.41.227,00_bat_bachelor,2022.2.4,59.966331634521545,
,,,,,,,,,,,,1,0,1,0,171,0,171,0,,,,,,,171,,,0.2,873.1575524848449,,Y,d,go,d,1,0.5726629697019234,,,,,,,,,,,,,,,,,87,001,30,m,Psychologie,2023-02-01_10h29.41.227,00_bat_bachelor,2022.2.4,59.966331634521545,
,,,,,,,,,,,,1,0,1,0,172,0,172,0,,,,,,,172,,,0.2,874.0748198787915,,X,l,go,l,1,0.5837053939467296,,,,,,,,,,,,,,,,,87,001,30,m,Psychologie,2023-02-01_10h29.41.227,00_bat_bachelor,2022.2.4,59.966331634521545,
,,,,,,,,,,,,1,0,1,0,173,0,173,0,,,,,,,173,,,0.2,874.9919907878793,,Y,d,go,d,1,0.5466222424147418,,,,,,,,,,,,,,,,,87,001,30,m,Psychologie,2023-02-01_10h29.41.227,00_bat_bachelor,2022.2.4,59.966331634521545,
,,,,,,,,,,,,1,0,1,0,174,0,174,0,,,,,,,174,,,0.2,875.8760159999947,876.6765391515073,X,l,go,None,0,,,,,,,,,,,,,,,,,,87,001,30,m,Psychologie,2023-02-01_10h29.41.227,00_bat_bachelor,2022.2.4,59.966331634521545,
,,,,,,,,,,,,1,0,1,0,175,0,175,0,,,,,,,175,,,0.2,876.8764833939349,,Y,d,go,d,1,0.42218054545810446,,,,,,,,,,,,,,,,,87,001,30,m,Psychologie,2023-02-01_10h29.41.227,00_bat_bachelor,2022.2.4,59.966331634521545,
,,,,,,,,,,,,1,0,1,0,176,0,176,0,,,,,,,176,,,0.2,877.6103830303036,878.410953212122,X,l,go,None,0,,,,,,,,,,,,,,,,,,87,001,30,m,Psychologie,2023-02-01_10h29.41.227,00_bat_bachelor,2022.2.4,59.966331634521545,
,,,,,,,,,,,,1,0,1,0,177,0,177,0,,,,,,,177,,,0.2,878.6110579393862,,X,None,nogo,l,0,0.559204545468674,,,,,,,,,,,,,,,,,87,001,30,m,Psychologie,2023-02-01_10h29.41.227,00_bat_bachelor,2022.2.4,59.966331634521545,
,,,,,,,,,,,,1,0,1,0,178,0,178,0,,,,,,,178,,,0.2,879.4786055757577,,Y,d,go,d,1,0.572722606069874,,,,,,,,,,,,,,,,,87,001,30,m,Psychologie,2023-02-01_10h29.41.227,00_bat_bachelor,2022.2.4,59.966331634521545,
,,,,,,,,,,,,1,0,1,0,179,0,179,0,,,,,,,179,,,0.2,880.362670060611,,X,l,go,l,1,0.616554363645264,,,,,,,,,,,,,,,,,87,001,30,m,Psychologie,2023-02-01_10h29.41.227,00_bat_bachelor,2022.2.4,59.966331634521545,
,,,,,,,,,,,,1,0,1,0,180,0,180,0,,,,,,,180,,,0.2,881.2799631515081,,Y,d,go,d,1,0.49862515152199194,,,,,,,,,,,,,,,,,87,001,30,m,Psychologie,2023-02-01_10h29.41.227,00_bat_bachelor,2022.2.4,59.966331634521545,
,,,,,,,,,,,,1,0,1,0,181,0,181,0,,,,,,,181,,,0.2,882.0805726060644,,X,l,go,d,0,0.546358000006876,,,,,,,,,,,,,,,,,87,001,30,m,Psychologie,2023-02-01_10h29.41.227,00_bat_bachelor,2022.2.4,59.966331634521545,
,,,,,,,,,,,,1,0,1,0,182,0,182,0,,,,,,,182,,,0.2,882.9313275151508,,Y,d,go,d,1,0.4951129090914037,,,,,,,,,,,,,,,,,87,001,30,m,Psychologie,2023-02-01_10h29.41.227,00_bat_bachelor,2022.2.4,59.966331634521545,
,,,,,,,,,,,,1,0,1,0,183,0,183,0,,,,,,,183,,,0.2,883.7483146666636,884.5491946666589,X,l,go,None,0,,,,,,,,,,,,,,,,,,87,001,30,m,Psychologie,2023-02-01_10h29.41.227,00_bat_bachelor,2022.2.4,59.966331634521545,
,,,,,,,,,,,,1,0,1,0,184,0,184,0,,,,,,,184,,,0.2,884.7490904242441,885.5499500606093,X,None,nogo,None,1,,,,,,,,,,,,,,,,,,87,001,30,m,Psychologie,2023-02-01_10h29.41.227,00_bat_bachelor,2022.2.4,59.966331634521545,
,,,,,,,,,,,,1,0,1,0,185,0,185,0,,,,,,,185,,,0.2,885.7500523636409,,Y,d,go,d,1,0.5237858787877485,,,,,,,,,,,,,,,,,87,001,30,m,Psychologie,2023-02-01_10h29.41.227,00_bat_bachelor,2022.2.4,59.966331634521545,
,,,,,,,,,,,,1,0,1,0,186,0,186,0,,,,,,,186,,,0.2,886.6006836363667,,X,l,go,l,1,0.6025296363659436,,,,,,,,,,,,,,,,,87,001,30,m,Psychologie,2023-02-01_10h29.41.227,00_bat_bachelor,2022.2.4,59.966331634521545,
,,,,,,,,,,,,1,0,1,0,187,0,187,0,,,,,,,187,,,0.2,887.5181139393972,,Y,d,go,l,0,0.5496326666616369,,,,,,,,,,,,,,,,,87,001,30,m,Psychologie,2023-02-01_10h29.41.227,00_bat_bachelor,2022.2.4,59.966331634521545,
,,,,,,,,,,,,1,0,1,0,188,0,188,0,,,,,,,188,,,0.2,888.3689755151427,,X,l,go,l,1,0.5626072121231118,,,,,,,,,,,,,,,,,87,001,30,m,Psychologie,2023-02-01_10h29.41.227,00_bat_bachelor,2022.2.4,59.966331634521545,
,,,,,,,,,,,,1,0,1,0,189,0,189,0,,,,,,,189,,,0.2,889.2358414545452,890.0366889696888,Y,d,go,None,0,,,,,,,,,,,,,,,,,,87,001,30,m,Psychologie,2023-02-01_10h29.41.227,00_bat_bachelor,2022.2.4,59.966331634521545,
,,,,,,,,,,,,1,0,1,0,190,0,190,0,,,,,,,190,,,0.2,890.2365687272686,,Y,None,nogo,d,0,0.6614920605934458,,,,,,,,,,,,,,,,,87,001,30,m,Psychologie,2023-02-01_10h29.41.227,00_bat_bachelor,2022.2.4,59.966331634521545,
,,,,,,,,,,,,1,0,1,0,191,0,191,0,,,,,,,191,,,0.2,891.2207117575745,,X,l,go,l,1,0.42966903030173853,,,,,,,,,,,,,,,,,87,001,30,m,Psychologie,2023-02-01_10h29.41.227,00_bat_bachelor,2022.2.4,59.966331634521545,
,,,,,,,,,,,,1,0,1,0,192,0,192,0,,,,,,,192,,,0.2,891.954598787881,892.755319272721,Y,d,go,None,0,,,,,,,,,,,,,,,,,,87,001,30,m,Psychologie,2023-02-01_10h29.41.227,00_bat_bachelor,2022.2.4,59.966331634521545,
,,,,,,,,,,,,1,0,1,0,193,0,193,0,,,,,,,193,,,0.2,892.9556446060596,,X,l,go,l,1,0.5350445454532746,,,,,,,,,,,,,,,,,87,001,30,m,Psychologie,2023-02-01_10h29.41.227,00_bat_bachelor,2022.2.4,59.966331634521545,
,,,,,,,,,,,,1,0,1,0,194,0,194,0,,,,,,,194,,,0.2,893.8228843636316,894.6232596363552,X,None,nogo,None,1,,,,,,,,,,,,,,,,,,87,001,30,m,Psychologie,2023-02-01_10h29.41.227,00_bat_bachelor,2022.2.4,59.966331634521545,
,,,,,,,,,,,,1,0,1,0,195,0,195,0,,,,,,,195,,,0.2,894.823593212117,,Y,d,go,d,1,0.4756428484834032,,,,,,,,,,,,,,,,,87,001,30,m,Psychologie,2023-02-01_10h29.41.227,00_bat_bachelor,2022.2.4,59.966331634521545,
,,,,,,,,,,,,1,0,1,0,196,0,196,0,,,,,,,196,,,0.2,895.6076639999956,,X,l,go,l,1,0.667093030308024,,,,,,,,,,,,,,,,,87,001,30,m,Psychologie,2023-02-01_10h29.41.227,00_bat_bachelor,2022.2.4,59.966331634521545,
