loop_instruction.thisRepN,loop_instruction.thisTrialN,loop_instruction.thisN,loop_instruction.thisIndex,loop_rsi_practice.thisRepN,loop_rsi_practice.thisTrialN,loop_rsi_practice.thisN,loop_rsi_practice.thisIndex,loop_practice.thisRepN,loop_practice.thisTrialN,loop_practice.thisN,loop_practice.thisIndex,loop_exp.thisRepN,loop_exp.thisTrialN,loop_exp.thisN,loop_exp.thisIndex,loop_trials.thisRepN,loop_trials.thisTrialN,loop_trials.thisN,loop_trials.thisIndex,map_condition,map_x_key,map_y_key,key_resp_welcome.started,key_resp_welcome.keys,key_resp_welcome.rt,index,text_empty_rsi_practice.started,text_empty_rsi_practice.stopped,rsi,stimulus.started,stimulus,correct,trial_type,key_resp_trial.keys,key_resp_trial.corr,key_resp_trial.rt,stimulus.stopped,key_resp_instruction_rsi.started,key_resp_instruction_rsi.keys,key_resp_instruction_rsi.rt,key_resp_instruction_rsi.stopped,key_resp_instruction_final.started,key_resp_instruction_final.keys,key_resp_instruction_final.rt,key_resp_break.started,key_resp_break.keys,key_resp_break.rt,key_resp_break.stopped,key_resp_end_screen.started,image_end_screen.started,key_resp_end_screen.stopped,image_end_screen.stopped,key_resp_end_screen.keys,participant,session,Alter,Geschlecht (w/m/d/andere),Studiengang,date,expName,psychopyVersion,frameRate,
,,,,0,0,0,0,0,0,0,0,,,,,,,,,1,l,d,531.9078007719945,j,24.35512108146213,0,556.2848197405692,557.2997094304301,1,557.2997094304301,X,l,go,None,0,,,,,,,,,,,,,,,,,,,89,001,22,w,Psychologie,2023-02-01_12h01.02.843,00_bat_bachelor,2022.2.4,60.03425951343806,
,,,,0,0,0,0,1,0,1,0,,,,,,,,,,,,,,,1,558.7008040237706,559.7011681448203,1,559.7011681448203,Y,d,go,None,0,,,,,,,,,,,,,,,,,,,89,001,22,w,Psychologie,2023-02-01_12h01.02.843,00_bat_bachelor,2022.2.4,60.03425951343806,
,,,,0,0,0,0,2,0,2,0,,,,,,,,,,,,,,,2,561.1022414050531,562.1032523135655,1,562.1032523135655,X,l,go,l,1,0.3173082515131682,,,,,,,,,,,,,,,,,,89,001,22,w,Psychologie,2023-02-01_12h01.02.843,00_bat_bachelor,2022.2.4,60.03425951343806,
,,,,0,0,0,0,3,0,3,0,,,,,,,,,,,,,,,3,563.1206952142529,564.1214224866126,1,564.1214224866126,Y,d,go,d,1,0.3299870330374688,,,,,,,,,,,,,,,,,,89,001,22,w,Psychologie,2023-02-01_12h01.02.843,00_bat_bachelor,2022.2.4,60.03425951343806,
,,,,0,0,0,0,4,0,4,0,,,,,,,,,,,,,,,4,565.1553337427322,566.156144893961,1,566.156144893961,X,l,go,l,1,0.408342873910442,,,,,,,,,,,,,,,,,,89,001,22,w,Psychologie,2023-02-01_12h01.02.843,00_bat_bachelor,2022.2.4,60.03425951343806,
,,,,0,0,0,0,5,0,5,0,,,,,,,,,,,,,,,5,567.2737424126826,568.2746471394785,1,568.2746471394785,Y,d,go,d,1,0.3686192568857223,,,,,,,,,,,,,,,,,,89,001,22,w,Psychologie,2023-02-01_12h01.02.843,00_bat_bachelor,2022.2.4,60.03425951343806,
,,,,0,0,0,0,6,0,6,0,,,,,,,,,,,,,,,6,569.3586165534798,570.3595343711786,1,570.3595343711786,X,l,go,l,1,0.4441406747791916,,,,,,,,,,,,,,,,,,89,001,22,w,Psychologie,2023-02-01_12h01.02.843,00_bat_bachelor,2022.2.4,60.03425951343806,
,,,,0,0,0,0,7,0,7,0,,,,,,,,,,,,,,,7,571.5103939343244,572.5111939338967,1,572.5111939338967,Y,d,go,d,1,0.40416930010542274,,,,,,,,,,,,,,,,,,89,001,22,w,Psychologie,2023-02-01_12h01.02.843,00_bat_bachelor,2022.2.4,60.03425951343806,
,,,,0,0,0,0,8,0,8,0,,,,,,,,,,,,,,,8,573.628700301284,574.6293902401812,1,574.6293902401812,Y,None,nogo,None,1,,575.430015306687,,,,,,,,,,,,,,,,,89,001,22,w,Psychologie,2023-02-01_12h01.02.843,00_bat_bachelor,2022.2.4,60.03425951343806,
,,,,0,0,0,0,9,0,9,0,,,,,,,,,,,,,,,9,576.0303602276836,577.0313905302901,1,577.0313905302901,X,l,go,l,1,0.3486047210171819,,,,,,,,,,,,,,,,,,89,001,22,w,Psychologie,2023-02-01_12h01.02.843,00_bat_bachelor,2022.2.4,60.03425951343806,
,,,,0,0,0,0,10,0,10,0,,,,,,,,,,,,,,,10,578.0820838389918,579.0826525660232,1,579.0826525660232,Y,d,go,d,1,0.39318894199095666,,,,,,,,,,,,,,,,,,89,001,22,w,Psychologie,2023-02-01_12h01.02.843,00_bat_bachelor,2022.2.4,60.03425951343806,
,,,,0,0,0,0,11,0,11,0,,,,,,,,,,,,,,,11,580.1837245170027,581.1842132438906,1,581.1842132438906,Y,None,nogo,None,1,,,,,,,,,,,,,,,,,,,89,001,22,w,Psychologie,2023-02-01_12h01.02.843,00_bat_bachelor,2022.2.4,60.03425951343806,
,,,,0,0,0,0,12,0,12,0,,,,,,,,,,,,,,,12,582.5855478371959,583.5861926854122,1,583.5861926854122,Y,None,nogo,d,0,0.41756323305889964,,,,,,,,,,,,,,,,,,89,001,22,w,Psychologie,2023-02-01_12h01.02.843,00_bat_bachelor,2022.2.4,60.03425951343806,
,,,,0,0,0,0,13,0,13,0,,,,,,,,,,,,,,,13,585.1207519413438,586.1217104864772,1,586.1217104864772,X,l,go,l,1,0.5701551591046154,,,,,,,,,,,,,,,,,,89,001,22,w,Psychologie,2023-02-01_12h01.02.843,00_bat_bachelor,2022.2.4,60.03425951343806,
,,,,0,0,0,0,14,0,14,0,,,,,,,,,,,,,,,14,587.4059711971786,588.4066271968186,1,588.4066271968186,Y,d,go,d,1,0.3009533502627164,,,,,,,,,,,,,,,,,,89,001,22,w,Psychologie,2023-02-01_12h01.02.843,00_bat_bachelor,2022.2.4,60.03425951343806,
,,,,1,0,1,0,0,0,0,0,,,,,,,,,,,,,,,0,605.5366470124573,605.7369460668415,0.2,605.7369460668415,X,l,go,None,0,,606.5373670121189,589.4345723954029,j,16.075795641168952,,,,,,,,,,,,,,89,001,22,w,Psychologie,2023-02-01_12h01.02.843,00_bat_bachelor,2022.2.4,60.03425951343806,
,,,,1,0,1,0,1,0,1,0,,,,,,,,,,,,,,,1,607.1377400544006,607.337850502925,0.2,607.337850502925,Y,d,go,d,1,0.5213658495340496,,,,,,,,,,,,,,,,,,89,001,22,w,Psychologie,2023-02-01_12h01.02.843,00_bat_bachelor,2022.2.4,60.03425951343806,
,,,,1,0,1,0,2,0,2,0,,,,,,,,,,,,,,,2,608.588683350943,608.7888539205305,0.2,608.7888539205305,X,l,go,l,1,0.33403794025070965,,,,,,,,,,,,,,,,,,89,001,22,w,Psychologie,2023-02-01_12h01.02.843,00_bat_bachelor,2022.2.4,60.03425951343806,
,,,,1,0,1,0,3,0,3,0,,,,,,,,,,,,,,,3,609.839576320257,610.0396295564715,0.2,610.0396295564715,X,None,nogo,None,1,,610.8403283196967,,,,,,,,,,,,,,,,,89,001,22,w,Psychologie,2023-02-01_12h01.02.843,00_bat_bachelor,2022.2.4,60.03425951343806,
,,,,1,0,1,0,4,0,4,0,,,,,,,,,,,,,,,4,611.4407658467535,611.6409824769944,0.2,611.6409824769944,Y,d,go,d,1,0.4114958420395851,,,,,,,,,,,,,,,,,,89,001,22,w,Psychologie,2023-02-01_12h01.02.843,00_bat_bachelor,2022.2.4,60.03425951343806,
,,,,1,0,1,0,5,0,5,0,,,,,,,,,,,,,,,5,612.7584738139994,612.9585488685407,0.2,612.9585488685407,X,l,go,l,1,0.4692000567447394,,,,,,,,,,,,,,,,,,89,001,22,w,Psychologie,2023-02-01_12h01.02.843,00_bat_bachelor,2022.2.4,60.03425951343806,
,,,,1,0,1,0,6,0,6,0,,,,,,,,,,,,,,,6,614.1428973851725,614.3430335305165,0.2,614.3430335305165,Y,d,go,d,1,0.3317480019759387,,,,,,,,,,,,,,,,,,89,001,22,w,Psychologie,2023-02-01_12h01.02.843,00_bat_bachelor,2022.2.4,60.03425951343806,
,,,,1,0,1,0,7,0,7,0,,,,,,,,,,,,,,,7,615.3771338777151,615.5771056595258,0.2,615.5771056595258,Y,None,nogo,None,1,,,,,,,,,,,,,,,,,,,89,001,22,w,Psychologie,2023-02-01_12h01.02.843,00_bat_bachelor,2022.2.4,60.03425951343806,
,,,,1,0,1,0,8,0,8,0,,,,,,,,,,,,,,,8,616.9783670408651,617.1785390649457,0.2,617.1785390649457,X,l,go,l,1,0.32943963957950473,,,,,,,,,,,,,,,,,,89,001,22,w,Psychologie,2023-02-01_12h01.02.843,00_bat_bachelor,2022.2.4,60.03425951343806,
,,,,1,0,1,0,9,0,9,0,,,,,,,,,,,,,,,9,618.2126219575293,618.4127134969458,0.2,618.4127134969458,Y,d,go,d,1,0.6157517430838197,,,,,,,,,,,,,,,,,,89,001,22,w,Psychologie,2023-02-01_12h01.02.843,00_bat_bachelor,2022.2.4,60.03425951343806,
,,,,1,0,1,0,10,0,10,0,,,,,,,,,,,,,,,10,619.7304927366786,619.9305081549101,0.2,619.9305081549101,Y,None,nogo,None,1,,,,,,,,,,,,,,,,,,,89,001,22,w,Psychologie,2023-02-01_12h01.02.843,00_bat_bachelor,2022.2.4,60.03425951343806,
,,,,1,0,1,0,11,0,11,0,,,,,,,,,,,,,,,11,621.3318892936222,621.5318993784022,0.2,621.5318993784022,X,l,go,l,1,0.3751215566881001,,,,,,,,,,,,,,,,,,89,001,22,w,Psychologie,2023-02-01_12h01.02.843,00_bat_bachelor,2022.2.4,60.03425951343806,
,,,,1,0,1,0,12,0,12,0,,,,,,,,,,,,,,,12,622.6160588527564,622.8159331800416,0.2,622.8159331800416,Y,d,go,d,1,0.4034008157905191,,,,,,,,,,,,,,,,,,89,001,22,w,Psychologie,2023-02-01_12h01.02.843,00_bat_bachelor,2022.2.4,60.03425951343806,
,,,,1,0,1,0,13,0,13,0,,,,,,,,,,,,,,,13,623.9337610017974,624.1335684200749,0.2,624.1335684200749,Y,None,nogo,d,0,0.3333160011097789,,,,,,,,,,,,,,,,,,89,001,22,w,Psychologie,2023-02-01_12h01.02.843,00_bat_bachelor,2022.2.4,60.03425951343806,
,,,,1,0,1,0,14,0,14,0,,,,,,,,,,,,,,,14,625.5682513609063,625.7684437485877,0.2,625.7684437485877,X,l,go,l,1,0.5542652274016291,,,,,,,,,,,,,,,,,,89,001,22,w,Psychologie,2023-02-01_12h01.02.843,00_bat_bachelor,2022.2.4,60.03425951343806,
,,,,,,,,,,,,,,,,,,,,,,,,,,,,,,,,,,,,,,627.0644843322225,None,,627.0644843322225,627.0644843322225,space,20.68554419418797,,,,,,,,,,89,001,22,w,Psychologie,2023-02-01_12h01.02.843,00_bat_bachelor,2022.2.4,60.03425951343806,
,,,,,,,,,,,,0,0,0,0,0,0,0,0,,,,,,,0,,,1,648.769262657268,X,l,go,l,1,0.3866468844935298,,,,,,,,,,,,,,,,,,89,001,22,w,Psychologie,2023-02-01_12h01.02.843,00_bat_bachelor,2022.2.4,60.03425951343806,
,,,,,,,,,,,,0,0,0,0,1,0,1,0,,,,,,,1,,,1,650.2704090808984,Y,d,go,d,1,0.40548226912505925,,,,,,,,,,,,,,,,,,89,001,22,w,Psychologie,2023-02-01_12h01.02.843,00_bat_bachelor,2022.2.4,60.03425951343806,
,,,,,,,,,,,,0,0,0,0,2,0,2,0,,,,,,,2,,,1,651.788261435926,X,l,go,l,1,0.34387696580961347,,,,,,,,,,,,,,,,,,89,001,22,w,Psychologie,2023-02-01_12h01.02.843,00_bat_bachelor,2022.2.4,60.03425951343806,
,,,,,,,,,,,,0,0,0,0,3,0,3,0,,,,,,,3,,,1,653.2392915203236,Y,d,go,d,1,0.380598402582109,,,,,,,,,,,,,,,,,,89,001,22,w,Psychologie,2023-02-01_12h01.02.843,00_bat_bachelor,2022.2.4,60.03425951343806,
,,,,,,,,,,,,0,0,0,0,4,0,4,0,,,,,,,4,,,1,654.7238197701517,X,l,go,l,1,0.36788228736259043,,,,,,,,,,,,,,,,,,89,001,22,w,Psychologie,2023-02-01_12h01.02.843,00_bat_bachelor,2022.2.4,60.03425951343806,
,,,,,,,,,,,,0,0,0,0,5,0,5,0,,,,,,,5,,,1,656.2085802624933,X,None,nogo,l,0,0.38710409635677934,,,,,,,,,,,,,,,,,,89,001,22,w,Psychologie,2023-02-01_12h01.02.843,00_bat_bachelor,2022.2.4,60.03425951343806,
,,,,,,,,,,,,0,0,0,0,6,0,6,0,,,,,,,6,,,1,657.709374201484,Y,d,go,d,1,0.4696718140039593,,,,,,,,,,,,,,,,,,89,001,22,w,Psychologie,2023-02-01_12h01.02.843,00_bat_bachelor,2022.2.4,60.03425951343806,
,,,,,,,,,,,,0,0,0,0,7,0,7,0,,,,,,,7,,,1,659.2939683422446,X,l,go,l,1,0.45336927636526525,,,,,,,,,,,,,,,,,,89,001,22,w,Psychologie,2023-02-01_12h01.02.843,00_bat_bachelor,2022.2.4,60.03425951343806,
,,,,,,,,,,,,0,0,0,0,8,0,8,0,,,,,,,8,,,1,660.8618337640073,Y,d,go,d,1,0.389354761922732,,,,,,,,,,,,,,,,,,89,001,22,w,Psychologie,2023-02-01_12h01.02.843,00_bat_bachelor,2022.2.4,60.03425951343806,
,,,,,,,,,,,,0,0,0,0,9,0,9,0,,,,,,,9,,,1,662.3627256422769,Y,None,nogo,None,1,,663.1633284057025,,,,,,,,,,,,,,,,,89,001,22,w,Psychologie,2023-02-01_12h01.02.843,00_bat_bachelor,2022.2.4,60.03425951343806,
,,,,,,,,,,,,0,0,0,0,10,0,10,0,,,,,,,10,,,1,664.1643373747356,X,l,go,l,1,0.3188568567857146,,,,,,,,,,,,,,,,,,89,001,22,w,Psychologie,2023-02-01_12h01.02.843,00_bat_bachelor,2022.2.4,60.03425951343806,
,,,,,,,,,,,,0,0,0,0,11,0,11,0,,,,,,,11,,,1,665.5987696489319,Y,d,go,d,1,0.3889945198316127,,,,,,,,,,,,,,,,,,89,001,22,w,Psychologie,2023-02-01_12h01.02.843,00_bat_bachelor,2022.2.4,60.03425951343806,
,,,,,,,,,,,,0,0,0,0,12,0,12,0,,,,,,,12,,,1,667.1000469818246,Y,None,nogo,d,0,0.48800683533772826,,,,,,,,,,,,,,,,,,89,001,22,w,Psychologie,2023-02-01_12h01.02.843,00_bat_bachelor,2022.2.4,60.03425951343806,
,,,,,,,,,,,,0,0,0,0,13,0,13,0,,,,,,,13,,,1,668.7008985693101,X,l,go,l,1,0.5345280249603093,,,,,,,,,,,,,,,,,,89,001,22,w,Psychologie,2023-02-01_12h01.02.843,00_bat_bachelor,2022.2.4,60.03425951343806,
,,,,,,,,,,,,0,0,0,0,14,0,14,0,,,,,,,14,,,1,670.3521462534554,Y,d,go,d,1,0.29133832454681396,,,,,,,,,,,,,,,,,,89,001,22,w,Psychologie,2023-02-01_12h01.02.843,00_bat_bachelor,2022.2.4,60.03425951343806,
,,,,,,,,,,,,0,0,0,0,15,0,15,0,,,,,,,15,,,1,671.7534493317362,Y,None,nogo,None,1,,,,,,,,,,,,,,,,,,,89,001,22,w,Psychologie,2023-02-01_12h01.02.843,00_bat_bachelor,2022.2.4,60.03425951343806,
,,,,,,,,,,,,0,0,0,0,16,0,16,0,,,,,,,16,,,1,673.5548501552548,X,l,go,l,1,0.4170463848859072,,,,,,,,,,,,,,,,,,89,001,22,w,Psychologie,2023-02-01_12h01.02.843,00_bat_bachelor,2022.2.4,60.03425951343806,
,,,,,,,,,,,,0,0,0,0,17,0,17,0,,,,,,,17,,,1,675.0726656618062,Y,d,go,None,0,,675.8732727887109,,,,,,,,,,,,,,,,,89,001,22,w,Psychologie,2023-02-01_12h01.02.843,00_bat_bachelor,2022.2.4,60.03425951343806,
,,,,,,,,,,,,0,0,0,0,18,0,18,0,,,,,,,18,,,1,676.8741057580337,X,l,go,l,1,0.4260417746845633,,,,,,,,,,,,,,,,,,89,001,22,w,Psychologie,2023-02-01_12h01.02.843,00_bat_bachelor,2022.2.4,60.03425951343806,
,,,,,,,,,,,,0,0,0,0,19,0,19,0,,,,,,,19,,,1,678.408278105082,Y,d,go,d,1,0.2989077754318714,,,,,,,,,,,,,,,,,,89,001,22,w,Psychologie,2023-02-01_12h01.02.843,00_bat_bachelor,2022.2.4,60.03425951343806,
,,,,,,,,,,,,0,0,0,0,20,0,20,0,,,,,,,20,,,1,679.8093872438185,X,l,go,l,1,0.3692922261543572,,,,,,,,,,,,,,,,,,89,001,22,w,Psychologie,2023-02-01_12h01.02.843,00_bat_bachelor,2022.2.4,60.03425951343806,
,,,,,,,,,,,,0,0,0,0,21,0,21,0,,,,,,,21,,,1,681.2939925848041,Y,d,go,d,1,0.3895811859983951,,,,,,,,,,,,,,,,,,89,001,22,w,Psychologie,2023-02-01_12h01.02.843,00_bat_bachelor,2022.2.4,60.03425951343806,
,,,,,,,,,,,,0,0,0,0,22,0,22,0,,,,,,,22,,,1,682.7950580387842,X,l,go,l,1,0.4081930557731539,,,,,,,,,,,,,,,,,,89,001,22,w,Psychologie,2023-02-01_12h01.02.843,00_bat_bachelor,2022.2.4,60.03425951343806,
,,,,,,,,,,,,0,0,0,0,23,0,23,0,,,,,,,23,,,1,684.3129996058997,Y,d,go,d,1,0.37888834276236594,,,,,,,,,,,,,,,,,,89,001,22,w,Psychologie,2023-02-01_12h01.02.843,00_bat_bachelor,2022.2.4,60.03425951343806,
,,,,,,,,,,,,0,0,0,0,24,0,24,0,,,,,,,24,,,1,685.7974895527586,X,l,go,l,1,0.4141329317353666,,,,,,,,,,,,,,,,,,89,001,22,w,Psychologie,2023-02-01_12h01.02.843,00_bat_bachelor,2022.2.4,60.03425951343806,
,,,,,,,,,,,,0,0,0,0,25,0,25,0,,,,,,,25,,,1,687.3152885744348,Y,d,go,d,1,0.367705802898854,,,,,,,,,,,,,,,,,,89,001,22,w,Psychologie,2023-02-01_12h01.02.843,00_bat_bachelor,2022.2.4,60.03425951343806,
,,,,,,,,,,,,0,0,0,0,26,0,26,0,,,,,,,26,,,1,688.7995860364754,X,l,go,l,1,0.2920583242084831,,,,,,,,,,,,,,,,,,89,001,22,w,Psychologie,2023-02-01_12h01.02.843,00_bat_bachelor,2022.2.4,60.03425951343806,
,,,,,,,,,,,,0,0,0,0,27,0,27,0,,,,,,,27,,,1,690.2008672964294,Y,d,go,d,1,0.36254944163374603,,,,,,,,,,,,,,,,,,89,001,22,w,Psychologie,2023-02-01_12h01.02.843,00_bat_bachelor,2022.2.4,60.03425951343806,
,,,,,,,,,,,,0,0,0,0,28,0,28,0,,,,,,,28,,,1,691.6684651304968,X,l,go,l,1,0.4797169000376016,,,,,,,,,,,,,,,,,,89,001,22,w,Psychologie,2023-02-01_12h01.02.843,00_bat_bachelor,2022.2.4,60.03425951343806,
,,,,,,,,,,,,0,0,0,0,29,0,29,0,,,,,,,29,,,1,693.2531673924532,Y,d,go,d,1,0.31786631187424064,,,,,,,,,,,,,,,,,,89,001,22,w,Psychologie,2023-02-01_12h01.02.843,00_bat_bachelor,2022.2.4,60.03425951343806,
,,,,,,,,,,,,0,0,0,0,30,0,30,0,,,,,,,30,,,1,694.6872830607463,X,l,go,l,1,0.3404389068018645,,,,,,,,,,,,,,,,,,89,001,22,w,Psychologie,2023-02-01_12h01.02.843,00_bat_bachelor,2022.2.4,60.03425951343806,
,,,,,,,,,,,,0,0,0,0,31,0,31,0,,,,,,,31,,,1,696.1384561753366,Y,d,go,d,1,0.32957200310193,,,,,,,,,,,,,,,,,,89,001,22,w,Psychologie,2023-02-01_12h01.02.843,00_bat_bachelor,2022.2.4,60.03425951343806,
,,,,,,,,,,,,0,0,0,0,32,0,32,0,,,,,,,32,,,1,697.5732501463499,Y,None,nogo,None,1,,,,,,,,,,,,,,,,,,,89,001,22,w,Psychologie,2023-02-01_12h01.02.843,00_bat_bachelor,2022.2.4,60.03425951343806,
,,,,,,,,,,,,0,0,0,0,33,0,33,0,,,,,,,33,,,1,699.3744555760641,X,l,go,l,1,0.40546675422228873,,,,,,,,,,,,,,,,,,89,001,22,w,Psychologie,2023-02-01_12h01.02.843,00_bat_bachelor,2022.2.4,60.03425951343806,
,,,,,,,,,,,,0,0,0,0,34,0,34,0,,,,,,,34,,,1,700.8922162945382,Y,d,go,d,1,0.4391787378117442,,,,,,,,,,,,,,,,,,89,001,22,w,Psychologie,2023-02-01_12h01.02.843,00_bat_bachelor,2022.2.4,60.03425951343806,
,,,,,,,,,,,,0,0,0,0,35,0,35,0,,,,,,,35,,,1,702.4434310577344,X,l,go,l,1,0.3110764967277646,,,,,,,,,,,,,,,,,,89,001,22,w,Psychologie,2023-02-01_12h01.02.843,00_bat_bachelor,2022.2.4,60.03425951343806,
,,,,,,,,,,,,0,0,0,0,36,0,36,0,,,,,,,36,,,1,703.8612703701947,Y,d,go,d,1,0.38206700794398785,,,,,,,,,,,,,,,,,,89,001,22,w,Psychologie,2023-02-01_12h01.02.843,00_bat_bachelor,2022.2.4,60.03425951343806,
,,,,,,,,,,,,0,0,0,0,37,0,37,0,,,,,,,37,,,1,705.3457971655298,X,l,go,l,1,0.44978527817875147,,,,,,,,,,,,,,,,,,89,001,22,w,Psychologie,2023-02-01_12h01.02.843,00_bat_bachelor,2022.2.4,60.03425951343806,
,,,,,,,,,,,,0,0,0,0,38,0,38,0,,,,,,,38,,,1,706.8968625953421,X,None,nogo,None,1,,707.697596267797,,,,,,,,,,,,,,,,,89,001,22,w,Psychologie,2023-02-01_12h01.02.843,00_bat_bachelor,2022.2.4,60.03425951343806,
,,,,,,,,,,,,0,0,0,0,39,0,39,0,,,,,,,39,,,1,708.6983458432369,Y,d,go,d,1,0.4575695167295635,,,,,,,,,,,,,,,,,,89,001,22,w,Psychologie,2023-02-01_12h01.02.843,00_bat_bachelor,2022.2.4,60.03425951343806,
,,,,,,,,,,,,0,0,0,0,40,0,40,0,,,,,,,40,,,1,710.26630532532,X,l,go,l,1,0.34558993484824896,,,,,,,,,,,,,,,,,,89,001,22,w,Psychologie,2023-02-01_12h01.02.843,00_bat_bachelor,2022.2.4,60.03425951343806,
,,,,,,,,,,,,0,0,0,0,41,0,41,0,,,,,,,41,,,1,711.717233591713,Y,d,go,d,1,0.3337441224139184,,,,,,,,,,,,,,,,,,89,001,22,w,Psychologie,2023-02-01_12h01.02.843,00_bat_bachelor,2022.2.4,60.03425951343806,
,,,,,,,,,,,,0,0,0,0,42,0,42,0,,,,,,,42,,,1,713.1516673204023,Y,None,nogo,None,1,,,,,,,,,,,,,,,,,,,89,001,22,w,Psychologie,2023-02-01_12h01.02.843,00_bat_bachelor,2022.2.4,60.03425951343806,
,,,,,,,,,,,,0,0,0,0,43,0,43,0,,,,,,,43,,,1,714.9527971136849,Y,None,nogo,None,1,,,,,,,,,,,,,,,,,,,89,001,22,w,Psychologie,2023-02-01_12h01.02.843,00_bat_bachelor,2022.2.4,60.03425951343806,
,,,,,,,,,,,,0,0,0,0,44,0,44,0,,,,,,,44,,,1,716.7544796341099,X,l,go,l,1,0.46568636130541563,,,,,,,,,,,,,,,,,,89,001,22,w,Psychologie,2023-02-01_12h01.02.843,00_bat_bachelor,2022.2.4,60.03425951343806,
,,,,,,,,,,,,0,0,0,0,45,0,45,0,,,,,,,45,,,1,718.3222989952192,Y,d,go,d,1,0.3210250979755074,,,,,,,,,,,,,,,,,,89,001,22,w,Psychologie,2023-02-01_12h01.02.843,00_bat_bachelor,2022.2.4,60.03425951343806,
,,,,,,,,,,,,0,0,0,0,46,0,46,0,,,,,,,46,,,1,719.7565310271457,Y,None,nogo,None,1,,,,,,,,,,,,,,,,,,,89,001,22,w,Psychologie,2023-02-01_12h01.02.843,00_bat_bachelor,2022.2.4,60.03425951343806,
,,,,,,,,,,,,0,0,0,0,47,0,47,0,,,,,,,47,,,1,721.5581034868956,X,l,go,l,1,0.3970948795322329,,,,,,,,,,,,,,,,,,89,001,22,w,Psychologie,2023-02-01_12h01.02.843,00_bat_bachelor,2022.2.4,60.03425951343806,
,,,,,,,,,,,,0,0,0,0,48,0,48,0,,,,,,,48,,,1,723.0589517289773,Y,d,go,d,1,0.6401992463506758,,,,,,,,,,,,,,,,,,89,001,22,w,Psychologie,2023-02-01_12h01.02.843,00_bat_bachelor,2022.2.4,60.03425951343806,
,,,,,,,,,,,,0,0,0,0,49,0,49,0,,,,,,,49,,,1,724.810479122214,X,l,go,l,1,0.4255161990877241,,,,,,,,,,,,,,,,,,89,001,22,w,Psychologie,2023-02-01_12h01.02.843,00_bat_bachelor,2022.2.4,60.03425951343806,
,,,,,,,,,,,,0,0,0,0,50,0,50,0,,,,,,,50,,,1,726.3450708629098,X,None,nogo,None,1,,727.145469505107,,,,,,,,,,,,,,,,,89,001,22,w,Psychologie,2023-02-01_12h01.02.843,00_bat_bachelor,2022.2.4,60.03425951343806,
,,,,,,,,,,,,0,0,0,0,51,0,51,0,,,,,,,51,,,1,728.1462355654221,Y,d,go,d,1,0.43294019531458616,,,,,,,,,,,,,,,,,,89,001,22,w,Psychologie,2023-02-01_12h01.02.843,00_bat_bachelor,2022.2.4,60.03425951343806,
,,,,,,,,,,,,0,0,0,0,52,0,52,0,,,,,,,52,,,1,729.6806978518143,X,l,go,l,1,0.3706987709738314,,,,,,,,,,,,,,,,,,89,001,22,w,Psychologie,2023-02-01_12h01.02.843,00_bat_bachelor,2022.2.4,60.03425951343806,
,,,,,,,,,,,,0,0,0,0,53,0,53,0,,,,,,,53,,,1,731.165330828866,Y,d,go,d,1,0.32656836812384427,,,,,,,,,,,,,,,,,,89,001,22,w,Psychologie,2023-02-01_12h01.02.843,00_bat_bachelor,2022.2.4,60.03425951343806,
,,,,,,,,,,,,0,0,0,0,54,0,54,0,,,,,,,54,,,1,732.5998474666849,Y,None,nogo,None,1,,,,,,,,,,,,,,,,,,,89,001,22,w,Psychologie,2023-02-01_12h01.02.843,00_bat_bachelor,2022.2.4,60.03425951343806,
,,,,,,,,,,,,0,0,0,0,55,0,55,0,,,,,,,55,,,1,734.4010955630802,Y,None,nogo,None,1,,,,,,,,,,,,,,,,,,,89,001,22,w,Psychologie,2023-02-01_12h01.02.843,00_bat_bachelor,2022.2.4,60.03425951343806,
,,,,,,,,,,,,0,0,0,0,56,0,56,0,,,,,,,56,,,1,736.202588992659,X,l,go,l,1,0.32871770043857396,,,,,,,,,,,,,,,,,,89,001,22,w,Psychologie,2023-02-01_12h01.02.843,00_bat_bachelor,2022.2.4,60.03425951343806,
,,,,,,,,,,,,0,0,0,0,57,0,57,0,,,,,,,57,,,1,737.6369281760417,Y,d,go,d,1,0.35033611417748034,,,,,,,,,,,,,,,,,,89,001,22,w,Psychologie,2023-02-01_12h01.02.843,00_bat_bachelor,2022.2.4,60.03425951343806,
,,,,,,,,,,,,0,0,0,0,58,0,58,0,,,,,,,58,,,1,739.0882074723486,Y,None,nogo,None,1,,,,,,,,,,,,,,,,,,,89,001,22,w,Psychologie,2023-02-01_12h01.02.843,00_bat_bachelor,2022.2.4,60.03425951343806,
,,,,,,,,,,,,0,0,0,0,59,0,59,0,,,,,,,59,,,1,740.8894225989934,X,l,go,l,1,0.3783031308557838,,,,,,,,,,,,,,,,,,89,001,22,w,Psychologie,2023-02-01_12h01.02.843,00_bat_bachelor,2022.2.4,60.03425951343806,
,,,,,,,,,,,,0,0,0,0,60,0,60,0,,,,,,,60,,,1,742.3738635762129,Y,d,go,d,1,0.301524986512959,,,,,,,,,,,,,,,,,,89,001,22,w,Psychologie,2023-02-01_12h01.02.843,00_bat_bachelor,2022.2.4,60.03425951343806,
,,,,,,,,,,,,0,0,0,0,61,0,61,0,,,,,,,61,,,1,743.791632585926,Y,None,nogo,None,1,,744.5922508642543,,,,,,,,,,,,,,,,,89,001,22,w,Psychologie,2023-02-01_12h01.02.843,00_bat_bachelor,2022.2.4,60.03425951343806,
,,,,,,,,,,,,0,0,0,0,62,0,62,0,,,,,,,62,,,1,745.592809894355,X,l,go,l,1,0.3783559794537723,,,,,,,,,,,,,,,,,,89,001,22,w,Psychologie,2023-02-01_12h01.02.843,00_bat_bachelor,2022.2.4,60.03425951343806,
,,,,,,,,,,,,0,0,0,0,63,0,63,0,,,,,,,63,,,1,747.0775175380986,Y,d,go,d,1,0.34946678136475384,,,,,,,,,,,,,,,,,,89,001,22,w,Psychologie,2023-02-01_12h01.02.843,00_bat_bachelor,2022.2.4,60.03425951343806,
,,,,,,,,,,,,0,0,0,0,64,0,64,0,,,,,,,64,,,1,748.5286116225179,Y,None,nogo,None,1,,,,,,,,,,,,,,,,,,,89,001,22,w,Psychologie,2023-02-01_12h01.02.843,00_bat_bachelor,2022.2.4,60.03425951343806,
,,,,,,,,,,,,0,0,0,0,65,0,65,0,,,,,,,65,,,1,750.329998385394,X,l,go,l,1,0.39457463822327554,,,,,,,,,,,,,,,,,,89,001,22,w,Psychologie,2023-02-01_12h01.02.843,00_bat_bachelor,2022.2.4,60.03425951343806,
,,,,,,,,,,,,0,0,0,0,66,0,66,0,,,,,,,66,,,1,751.8311229909305,Y,d,go,d,1,0.4448024926241487,,,,,,,,,,,,,,,,,,89,001,22,w,Psychologie,2023-02-01_12h01.02.843,00_bat_bachelor,2022.2.4,60.03425951343806,
,,,,,,,,,,,,0,0,0,0,67,0,67,0,,,,,,,67,,,1,753.3822994509246,X,l,go,l,1,0.33290775888599455,,,,,,,,,,,,,,,,,,89,001,22,w,Psychologie,2023-02-01_12h01.02.843,00_bat_bachelor,2022.2.4,60.03425951343806,
,,,,,,,,,,,,0,0,0,0,68,0,68,0,,,,,,,68,,,1,754.8164883314166,Y,d,go,d,1,0.3861877331510186,,,,,,,,,,,,,,,,,,89,001,22,w,Psychologie,2023-02-01_12h01.02.843,00_bat_bachelor,2022.2.4,60.03425951343806,
,,,,,,,,,,,,0,0,0,0,69,0,69,0,,,,,,,69,,,1,756.3176672398113,Y,None,nogo,None,1,,,,,,,,,,,,,,,,,,,89,001,22,w,Psychologie,2023-02-01_12h01.02.843,00_bat_bachelor,2022.2.4,60.03425951343806,
,,,,,,,,,,,,0,0,0,0,70,0,70,0,,,,,,,70,,,1,758.1192474572454,X,l,go,l,1,0.364211501320824,,,,,,,,,,,,,,,,,,89,001,22,w,Psychologie,2023-02-01_12h01.02.843,00_bat_bachelor,2022.2.4,60.03425951343806,
,,,,,,,,,,,,0,0,0,0,71,0,71,0,,,,,,,71,,,1,759.5870770486072,Y,d,go,d,1,0.36803404497914016,,,,,,,,,,,,,,,,,,89,001,22,w,Psychologie,2023-02-01_12h01.02.843,00_bat_bachelor,2022.2.4,60.03425951343806,
,,,,,,,,,,,,0,0,0,0,72,0,72,0,,,,,,,72,,,1,761.0715088138822,X,l,go,l,1,0.45209267106838524,,,,,,,,,,,,,,,,,,89,001,22,w,Psychologie,2023-02-01_12h01.02.843,00_bat_bachelor,2022.2.4,60.03425951343806,
,,,,,,,,,,,,0,0,0,0,73,0,73,0,,,,,,,73,,,1,762.6393407809082,Y,d,go,d,1,0.4676926634274423,,,,,,,,,,,,,,,,,,89,001,22,w,Psychologie,2023-02-01_12h01.02.843,00_bat_bachelor,2022.2.4,60.03425951343806,
,,,,,,,,,,,,0,0,0,0,74,0,74,0,,,,,,,74,,,1,764.2239189217798,X,l,go,l,1,0.3718973158393055,,,,,,,,,,,,,,,,,,89,001,22,w,Psychologie,2023-02-01_12h01.02.843,00_bat_bachelor,2022.2.4,60.03425951343806,
,,,,,,,,,,,,0,0,0,0,75,0,75,0,,,,,,,75,,,1,765.7081295959651,Y,d,go,d,1,0.5186928811017424,,,,,,,,,,,,,,,,,,89,001,22,w,Psychologie,2023-02-01_12h01.02.843,00_bat_bachelor,2022.2.4,60.03425951343806,
,,,,,,,,,,,,0,0,0,0,76,0,76,0,,,,,,,76,,,1,767.3426955912728,Y,None,nogo,None,1,,,,,,,,,,,,,,,,,,,89,001,22,w,Psychologie,2023-02-01_12h01.02.843,00_bat_bachelor,2022.2.4,60.03425951343806,
,,,,,,,,,,,,0,0,0,0,77,0,77,0,,,,,,,77,,,1,769.1442884148564,X,l,go,l,1,0.3151375858578831,,,,,,,,,,,,,,,,,,89,001,22,w,Psychologie,2023-02-01_12h01.02.843,00_bat_bachelor,2022.2.4,60.03425951343806,
,,,,,,,,,,,,0,0,0,0,78,0,78,0,,,,,,,78,,,1,770.5620840911288,Y,d,go,None,0,,,,,,,,,,,,,,,,,,,89,001,22,w,Psychologie,2023-02-01_12h01.02.843,00_bat_bachelor,2022.2.4,60.03425951343806,
,,,,,,,,,,,,0,0,0,0,79,0,79,0,,,,,,,79,,,1,772.3635300055612,Y,None,nogo,None,1,,,,,,,,,,,,,,,,,,,89,001,22,w,Psychologie,2023-02-01_12h01.02.843,00_bat_bachelor,2022.2.4,60.03425951343806,
,,,,,,,,,,,,0,0,0,0,80,0,80,0,,,,,,,80,,,1,774.1645681625232,X,l,go,l,1,0.3187652202323079,,,,,,,,,,,,,,,,,,89,001,22,w,Psychologie,2023-02-01_12h01.02.843,00_bat_bachelor,2022.2.4,60.03425951343806,
,,,,,,,,,,,,0,0,0,0,81,0,81,0,,,,,,,81,,,1,775.5992026184686,Y,d,go,d,1,0.29159723361954093,,,,,,,,,,,,,,,,,,89,001,22,w,Psychologie,2023-02-01_12h01.02.843,00_bat_bachelor,2022.2.4,60.03425951343806,
,,,,,,,,,,,,0,0,0,0,82,0,82,0,,,,,,,82,,,1,777.0003427877091,Y,None,nogo,None,1,,,,,,,,,,,,,,,,,,,89,001,22,w,Psychologie,2023-02-01_12h01.02.843,00_bat_bachelor,2022.2.4,60.03425951343806,
,,,,,,,,,,,,0,0,0,0,83,0,83,0,,,,,,,83,,,1,778.8016073689796,X,l,go,l,1,0.33697999943979084,,,,,,,,,,,,,,,,,,89,001,22,w,Psychologie,2023-02-01_12h01.02.843,00_bat_bachelor,2022.2.4,60.03425951343806,
,,,,,,,,,,,,0,0,0,0,84,0,84,0,,,,,,,84,,,1,780.2525346654002,Y,d,go,d,1,0.48655471485108137,,,,,,,,,,,,,,,,,,89,001,22,w,Psychologie,2023-02-01_12h01.02.843,00_bat_bachelor,2022.2.4,60.03425951343806,
,,,,,,,,,,,,0,0,0,0,85,0,85,0,,,,,,,85,,,1,781.8540771615226,X,l,go,l,1,0.437378496164456,,,,,,,,,,,,,,,,,,89,001,22,w,Psychologie,2023-02-01_12h01.02.843,00_bat_bachelor,2022.2.4,60.03425951343806,
,,,,,,,,,,,,0,0,0,0,86,0,86,0,,,,,,,86,,,1,783.4052085308358,X,None,nogo,None,1,,784.2058151729871,,,,,,,,,,,,,,,,,89,001,22,w,Psychologie,2023-02-01_12h01.02.843,00_bat_bachelor,2022.2.4,60.03425951343806,
,,,,,,,,,,,,0,0,0,0,87,0,87,0,,,,,,,87,,,1,785.2065492330585,Y,d,go,d,1,0.5572392866015434,,,,,,,,,,,,,,,,,,89,001,22,w,Psychologie,2023-02-01_12h01.02.843,00_bat_bachelor,2022.2.4,60.03425951343806,
,,,,,,,,,,,,0,0,0,0,88,0,88,0,,,,,,,88,,,1,786.8745290304068,X,l,go,l,1,0.3774502829182893,,,,,,,,,,,,,,,,,,89,001,22,w,Psychologie,2023-02-01_12h01.02.843,00_bat_bachelor,2022.2.4,60.03425951343806,
,,,,,,,,,,,,0,0,0,0,89,0,89,0,,,,,,,89,,,1,788.3593501287978,Y,d,go,d,1,0.33153224433772266,,,,,,,,,,,,,,,,,,89,001,22,w,Psychologie,2023-02-01_12h01.02.843,00_bat_bachelor,2022.2.4,60.03425951343806,
,,,,,,,,,,,,0,0,0,0,90,0,90,0,,,,,,,90,,,1,789.7936946453992,Y,None,nogo,None,1,,790.5940966815688,,,,,,,,,,,,,,,,,89,001,22,w,Psychologie,2023-02-01_12h01.02.843,00_bat_bachelor,2022.2.4,60.03425951343806,
,,,,,,,,,,,,0,0,0,0,91,0,91,0,,,,,,,91,,,1,791.5950634691399,X,l,go,l,1,0.29697274626232684,,,,,,,,,,,,,,,,,,89,001,22,w,Psychologie,2023-02-01_12h01.02.843,00_bat_bachelor,2022.2.4,60.03425951343806,
,,,,,,,,,,,,0,0,0,0,92,0,92,0,,,,,,,92,,,1,792.9956901839469,Y,d,go,d,1,0.3354221819899976,,,,,,,,,,,,,,,,,,89,001,22,w,Psychologie,2023-02-01_12h01.02.843,00_bat_bachelor,2022.2.4,60.03425951343806,
,,,,,,,,,,,,0,0,0,0,93,0,93,0,,,,,,,93,,,1,794.4466897228267,Y,None,nogo,None,1,,,,,,,,,,,,,,,,,,,89,001,22,w,Psychologie,2023-02-01_12h01.02.843,00_bat_bachelor,2022.2.4,60.03425951343806,
,,,,,,,,,,,,0,0,0,0,94,0,94,0,,,,,,,94,,,1,796.2482752734795,Y,None,nogo,None,1,,797.0488678549882,,,,,,,,,,,,,,,,,89,001,22,w,Psychologie,2023-02-01_12h01.02.843,00_bat_bachelor,2022.2.4,60.03425951343806,
,,,,,,,,,,,,0,0,0,0,95,0,95,0,,,,,,,95,,,1,798.049695006106,X,l,go,l,1,0.30531601468101144,,,,,,,,,,,,,,,,,,89,001,22,w,Psychologie,2023-02-01_12h01.02.843,00_bat_bachelor,2022.2.4,60.03425951343806,
,,,,,,,,,,,,0,0,0,0,96,0,96,0,,,,,,,96,,,1,799.4677461974788,Y,d,go,d,1,0.3762410713825375,,,,,,,,,,,,,,,,,,89,001,22,w,Psychologie,2023-02-01_12h01.02.843,00_bat_bachelor,2022.2.4,60.03425951343806,
,,,,,,,,,,,,0,0,0,0,97,0,97,0,,,,,,,97,,,1,800.9520208716858,X,l,go,l,1,0.4434337660204619,,,,,,,,,,,,,,,,,,89,001,22,w,Psychologie,2023-02-01_12h01.02.843,00_bat_bachelor,2022.2.4,60.03425951343806,
,,,,,,,,,,,,0,0,0,0,98,0,98,0,,,,,,,98,,,1,802.5033810893074,X,None,nogo,None,1,,803.3040813070256,,,,,,,,,,,,,,,,,89,001,22,w,Psychologie,2023-02-01_12h01.02.843,00_bat_bachelor,2022.2.4,60.03425951343806,
,,,,,,,,,,,,0,0,0,0,99,0,99,0,,,,,,,99,,,1,804.3043004584033,Y,d,go,d,1,0.3391472711227834,,,,,,,,,,,,,,,,,,89,001,22,w,Psychologie,2023-02-01_12h01.02.843,00_bat_bachelor,2022.2.4,60.03425951343806,
,,,,,,,,,,,,0,0,0,0,100,0,100,0,,,,,,,100,,,1,805.7554323610384,X,l,go,l,1,0.31213879957795143,,,,,,,,,,,,,,,,,,89,001,22,w,Psychologie,2023-02-01_12h01.02.843,00_bat_bachelor,2022.2.4,60.03425951343806,
,,,,,,,,,,,,0,0,0,0,101,0,101,0,,,,,,,101,,,1,807.1732833099086,X,None,nogo,None,1,,807.97391225514,,,,,,,,,,,,,,,,,89,001,22,w,Psychologie,2023-02-01_12h01.02.843,00_bat_bachelor,2022.2.4,60.03425951343806,
,,,,,,,,,,,,0,0,0,0,102,0,102,0,,,,,,,102,,,1,808.9744160124101,Y,d,go,d,1,0.40400833054445684,,,,,,,,,,,,,,,,,,89,001,22,w,Psychologie,2023-02-01_12h01.02.843,00_bat_bachelor,2022.2.4,60.03425951343806,
,,,,,,,,,,,,0,0,0,0,103,0,103,0,,,,,,,103,,,1,810.4925122461282,X,l,go,l,1,0.4708068436011672,,,,,,,,,,,,,,,,,,89,001,22,w,Psychologie,2023-02-01_12h01.02.843,00_bat_bachelor,2022.2.4,60.03425951343806,
,,,,,,,,,,,,0,0,0,0,104,0,104,0,,,,,,,104,,,1,812.0770210535266,Y,d,go,d,1,0.3912253063172102,,,,,,,,,,,,,,,,,,89,001,22,w,Psychologie,2023-02-01_12h01.02.843,00_bat_bachelor,2022.2.4,60.03425951343806,
,,,,,,,,,,,,0,0,0,0,105,0,105,0,,,,,,,105,,,1,813.5781611741986,X,l,go,l,1,0.40917632821947336,,,,,,,,,,,,,,,,,,89,001,22,w,Psychologie,2023-02-01_12h01.02.843,00_bat_bachelor,2022.2.4,60.03425951343806,
,,,,,,,,,,,,0,0,0,0,106,0,106,0,,,,,,,106,,,1,815.0957822564524,Y,d,go,d,1,0.4587263648863882,,,,,,,,,,,,,,,,,,89,001,22,w,Psychologie,2023-02-01_12h01.02.843,00_bat_bachelor,2022.2.4,60.03425951343806,
,,,,,,,,,,,,0,0,0,0,107,0,107,0,,,,,,,107,,,1,816.6637073145248,X,l,go,l,1,0.3956645771395415,,,,,,,,,,,,,,,,,,89,001,22,w,Psychologie,2023-02-01_12h01.02.843,00_bat_bachelor,2022.2.4,60.03425951343806,
,,,,,,,,,,,,0,0,0,0,108,0,108,0,,,,,,,108,,,1,818.164897374576,Y,d,go,d,1,0.4304645601660013,,,,,,,,,,,,,,,,,,89,001,22,w,Psychologie,2023-02-01_12h01.02.843,00_bat_bachelor,2022.2.4,60.03425951343806,
,,,,,,,,,,,,0,0,0,0,109,0,109,0,,,,,,,109,,,1,819.6993048731238,X,l,go,l,1,0.43223716551437974,,,,,,,,,,,,,,,,,,89,001,22,w,Psychologie,2023-02-01_12h01.02.843,00_bat_bachelor,2022.2.4,60.03425951343806,
,,,,,,,,,,,,0,0,0,0,110,0,110,0,,,,,,,110,,,1,821.2340226743836,Y,d,go,d,1,0.43281461973674595,,,,,,,,,,,,,,,,,,89,001,22,w,Psychologie,2023-02-01_12h01.02.843,00_bat_bachelor,2022.2.4,60.03425951343806,
,,,,,,,,,,,,0,0,0,0,111,0,111,0,,,,,,,111,,,1,822.7683991426602,X,l,go,l,1,0.4187865052372217,,,,,,,,,,,,,,,,,,89,001,22,w,Psychologie,2023-02-01_12h01.02.843,00_bat_bachelor,2022.2.4,60.03425951343806,
,,,,,,,,,,,,0,0,0,0,112,0,112,0,,,,,,,112,,,1,824.3028691865038,Y,d,go,d,1,0.4366294057108462,,,,,,,,,,,,,,,,,,89,001,22,w,Psychologie,2023-02-01_12h01.02.843,00_bat_bachelor,2022.2.4,60.03425951343806,
,,,,,,,,,,,,0,0,0,0,113,0,113,0,,,,,,,113,,,1,825.8540854039602,X,l,go,l,1,0.4846245339140296,,,,,,,,,,,,,,,,,,89,001,22,w,Psychologie,2023-02-01_12h01.02.843,00_bat_bachelor,2022.2.4,60.03425951343806,
,,,,,,,,,,,,0,0,0,0,114,0,114,0,,,,,,,114,,,1,827.4554984457791,Y,d,go,d,1,0.3406129674986005,,,,,,,,,,,,,,,,,,89,001,22,w,Psychologie,2023-02-01_12h01.02.843,00_bat_bachelor,2022.2.4,60.03425951343806,
,,,,,,,,,,,,0,0,0,0,115,0,115,0,,,,,,,115,,,1,828.9063806515187,X,l,go,l,1,0.39256591186858714,,,,,,,,,,,,,,,,,,89,001,22,w,Psychologie,2023-02-01_12h01.02.843,00_bat_bachelor,2022.2.4,60.03425951343806,
,,,,,,,,,,,,0,0,0,0,116,0,116,0,,,,,,,116,,,1,830.4076579841785,Y,d,go,d,1,0.46081121219322085,,,,,,,,,,,,,,,,,,89,001,22,w,Psychologie,2023-02-01_12h01.02.843,00_bat_bachelor,2022.2.4,60.03425951343806,
,,,,,,,,,,,,0,0,0,0,117,0,117,0,,,,,,,117,,,1,831.9757275269367,X,l,go,l,1,0.33199866861104965,,,,,,,,,,,,,,,,,,89,001,22,w,Psychologie,2023-02-01_12h01.02.843,00_bat_bachelor,2022.2.4,60.03425951343806,
,,,,,,,,,,,,0,0,0,0,118,0,118,0,,,,,,,118,,,1,833.4097006497905,Y,d,go,d,1,0.41793850576505065,,,,,,,,,,,,,,,,,,89,001,22,w,Psychologie,2023-02-01_12h01.02.843,00_bat_bachelor,2022.2.4,60.03425951343806,
,,,,,,,,,,,,0,0,0,0,119,0,119,0,,,,,,,119,,,1,834.9442070573568,Y,None,nogo,None,1,,835.7450784265529,,,,,,,,,,,,,,,,,89,001,22,w,Psychologie,2023-02-01_12h01.02.843,00_bat_bachelor,2022.2.4,60.03425951343806,
,,,,,,,,,,,,0,0,0,0,120,0,120,0,,,,,,,120,,,1,836.7458289717324,X,l,go,l,1,0.4903394402936101,,,,,,,,,,,,,,,,,,89,001,22,w,Psychologie,2023-02-01_12h01.02.843,00_bat_bachelor,2022.2.4,60.03425951343806,
,,,,,,,,,,,,0,0,0,0,121,0,121,0,,,,,,,121,,,1,838.3470044378191,Y,d,go,d,1,0.3919312455691397,,,,,,,,,,,,,,,,,,89,001,22,w,Psychologie,2023-02-01_12h01.02.843,00_bat_bachelor,2022.2.4,60.03425951343806,
,,,,,,,,,,,,0,0,0,0,122,0,122,0,,,,,,,122,,,1,839.8481712250505,X,l,go,l,1,0.619162650546059,,,,,,,,,,,,,,,,,,89,001,22,w,Psychologie,2023-02-01_12h01.02.843,00_bat_bachelor,2022.2.4,60.03425951343806,
,,,,,,,,,,,,0,0,0,0,123,0,123,0,,,,,,,123,,,1,841.5825912326109,Y,d,go,d,1,0.3578890801873058,,,,,,,,,,,,,,,,,,89,001,22,w,Psychologie,2023-02-01_12h01.02.843,00_bat_bachelor,2022.2.4,60.03425951343806,
,,,,,,,,,,,,0,0,0,0,124,0,124,0,,,,,,,124,,,1,843.0504576724488,X,l,go,l,1,0.44080540374852717,,,,,,,,,,,,,,,,,,89,001,22,w,Psychologie,2023-02-01_12h01.02.843,00_bat_bachelor,2022.2.4,60.03425951343806,
,,,,,,,,,,,,0,0,0,0,125,0,125,0,,,,,,,125,,,1,844.6018440718763,X,None,nogo,None,1,,,,,,,,,,,,,,,,,,,89,001,22,w,Psychologie,2023-02-01_12h01.02.843,00_bat_bachelor,2022.2.4,60.03425951343806,
,,,,,,,,,,,,0,0,0,0,126,0,126,0,,,,,,,126,,,1,846.4032458651345,Y,d,go,d,1,0.4811709600035101,,,,,,,,,,,,,,,,,,89,001,22,w,Psychologie,2023-02-01_12h01.02.843,00_bat_bachelor,2022.2.4,60.03425951343806,
,,,,,,,,,,,,0,0,0,0,127,0,127,0,,,,,,,127,,,1,847.9876223090105,X,l,go,l,1,0.3509576895739883,,,,,,,,,,,,,,,,,,89,001,22,w,Psychologie,2023-02-01_12h01.02.843,00_bat_bachelor,2022.2.4,60.03425951343806,
,,,,,,,,,,,,0,0,0,0,128,0,128,0,,,,,,,128,,,1,849.4554999002721,Y,d,go,d,1,0.5491006239317358,,,,,,,,,,,,,,,,,,89,001,22,w,Psychologie,2023-02-01_12h01.02.843,00_bat_bachelor,2022.2.4,60.03425951343806,
,,,,,,,,,,,,0,0,0,0,129,0,129,0,,,,,,,129,,,1,851.1065134028904,X,l,go,l,1,0.4657135128509253,,,,,,,,,,,,,,,,,,89,001,22,w,Psychologie,2023-02-01_12h01.02.843,00_bat_bachelor,2022.2.4,60.03425951343806,
,,,,,,,,,,,,0,0,0,0,130,0,130,0,,,,,,,130,,,1,852.6746285213158,Y,d,go,d,1,0.49784877011552453,,,,,,,,,,,,,,,,,,89,001,22,w,Psychologie,2023-02-01_12h01.02.843,00_bat_bachelor,2022.2.4,60.03425951343806,
,,,,,,,,,,,,0,0,0,0,131,0,131,0,,,,,,,131,,,1,854.2762442296371,X,l,go,l,1,0.5753827928565443,,,,,,,,,,,,,,,,,,89,001,22,w,Psychologie,2023-02-01_12h01.02.843,00_bat_bachelor,2022.2.4,60.03425951343806,
,,,,,,,,,,,,0,0,0,0,132,0,132,0,,,,,,,132,,,1,855.9608494734857,X,None,nogo,None,1,,856.761497327825,,,,,,,,,,,,,,,,,89,001,22,w,Psychologie,2023-02-01_12h01.02.843,00_bat_bachelor,2022.2.4,60.03425951343806,
,,,,,,,,,,,,0,0,0,0,133,0,133,0,,,,,,,133,,,1,857.7620636303909,Y,d,go,d,1,0.545450201490894,,,,,,,,,,,,,,,,,,89,001,22,w,Psychologie,2023-02-01_12h01.02.843,00_bat_bachelor,2022.2.4,60.03425951343806,
,,,,,,,,,,,,0,0,0,0,134,0,134,0,,,,,,,134,,,1,859.4136245267,X,l,go,l,1,0.414993537357077,,,,,,,,,,,,,,,,,,89,001,22,w,Psychologie,2023-02-01_12h01.02.843,00_bat_bachelor,2022.2.4,60.03425951343806,
,,,,,,,,,,,,0,0,0,0,135,0,135,0,,,,,,,135,,,1,860.9312674272805,X,None,nogo,None,1,,,,,,,,,,,,,,,,,,,89,001,22,w,Psychologie,2023-02-01_12h01.02.843,00_bat_bachelor,2022.2.4,60.03425951343806,
,,,,,,,,,,,,0,0,0,0,136,0,136,0,,,,,,,136,,,1,862.7327050992753,Y,d,go,d,1,0.2949431713204831,,,,,,,,,,,,,,,,,,89,001,22,w,Psychologie,2023-02-01_12h01.02.843,00_bat_bachelor,2022.2.4,60.03425951343806,
,,,,,,,,,,,,0,0,0,0,137,0,137,0,,,,,,,137,,,1,864.1504421087448,X,l,go,l,1,0.412411235505715,,,,,,,,,,,,,,,,,,89,001,22,w,Psychologie,2023-02-01_12h01.02.843,00_bat_bachelor,2022.2.4,60.03425951343806,
,,,,,,,,,,,,0,0,0,0,138,0,138,0,,,,,,,138,,,1,865.6682862213347,Y,d,go,d,1,0.41503426479175687,,,,,,,,,,,,,,,,,,89,001,22,w,Psychologie,2023-02-01_12h01.02.843,00_bat_bachelor,2022.2.4,60.03425951343806,
,,,,,,,,,,,,0,0,0,0,139,0,139,0,,,,,,,139,,,1,867.1861186975148,Y,None,nogo,None,1,,867.9868053398095,,,,,,,,,,,,,,,,,89,001,22,w,Psychologie,2023-02-01_12h01.02.843,00_bat_bachelor,2022.2.4,60.03425951343806,
,,,,,,,,,,,,0,0,0,0,140,0,140,0,,,,,,,140,,,1,868.9873745515943,X,l,go,l,1,0.3597155036404729,,,,,,,,,,,,,,,,,,89,001,22,w,Psychologie,2023-02-01_12h01.02.843,00_bat_bachelor,2022.2.4,60.03425951343806,
,,,,,,,,,,,,0,0,0,0,141,0,141,0,,,,,,,141,,,1,870.4550737186801,Y,d,go,d,1,0.460592545568943,,,,,,,,,,,,,,,,,,89,001,22,w,Psychologie,2023-02-01_12h01.02.843,00_bat_bachelor,2022.2.4,60.03425951343806,
,,,,,,,,,,,,0,0,0,0,142,0,142,0,,,,,,,142,,,1,872.0232053219806,Y,None,nogo,None,1,,872.8237862673122,,,,,,,,,,,,,,,,,89,001,22,w,Psychologie,2023-02-01_12h01.02.843,00_bat_bachelor,2022.2.4,60.03425951343806,
,,,,,,,,,,,,0,0,0,0,143,0,143,0,,,,,,,143,,,1,873.824488812359,X,l,go,l,1,0.3232200061902404,,,,,,,,,,,,,,,,,,89,001,22,w,Psychologie,2023-02-01_12h01.02.843,00_bat_bachelor,2022.2.4,60.03425951343806,
,,,,,,,,,,,,0,0,0,0,144,0,144,0,,,,,,,144,,,1,875.2589312684722,Y,d,go,d,1,0.5848829096648842,,,,,,,,,,,,,,,,,,89,001,22,w,Psychologie,2023-02-01_12h01.02.843,00_bat_bachelor,2022.2.4,60.03425951343806,
,,,,,,,,,,,,0,0,0,0,145,0,145,0,,,,,,,145,,,1,876.9602579586208,Y,None,nogo,None,1,,877.7608035099693,,,,,,,,,,,,,,,,,89,001,22,w,Psychologie,2023-02-01_12h01.02.843,00_bat_bachelor,2022.2.4,60.03425951343806,
,,,,,,,,,,,,0,0,0,0,146,0,146,0,,,,,,,146,,,1,878.76159817609,Y,None,nogo,None,1,,879.5621878486127,,,,,,,,,,,,,,,,,89,001,22,w,Psychologie,2023-02-01_12h01.02.843,00_bat_bachelor,2022.2.4,60.03425951343806,
,,,,,,,,,,,,0,0,0,0,147,0,147,0,,,,,,,147,,,1,880.562918999698,X,l,go,l,1,0.3359860605560243,,,,,,,,,,,,,,,,,,89,001,22,w,Psychologie,2023-02-01_12h01.02.843,00_bat_bachelor,2022.2.4,60.03425951343806,
,,,,,,,,,,,,0,0,0,0,148,0,148,0,,,,,,,148,,,1,882.0140605992638,Y,d,go,d,1,0.37389052705839276,,,,,,,,,,,,,,,,,,89,001,22,w,Psychologie,2023-02-01_12h01.02.843,00_bat_bachelor,2022.2.4,60.03425951343806,
,,,,,,,,,,,,0,0,0,0,149,0,149,0,,,,,,,149,,,1,883.4985456976574,Y,None,nogo,None,1,,884.2989312489517,,,,,,,,,,,,,,,,,89,001,22,w,Psychologie,2023-02-01_12h01.02.843,00_bat_bachelor,2022.2.4,60.03425951343806,
,,,,,,,,,,,,0,0,0,0,150,0,150,0,,,,,,,150,,,1,885.2999649455305,X,l,go,l,1,0.3668757425621152,,,,,,,,,,,,,,,,,,89,001,22,w,Psychologie,2023-02-01_12h01.02.843,00_bat_bachelor,2022.2.4,60.03425951343806,
,,,,,,,,,,,,0,0,0,0,151,0,151,0,,,,,,,151,,,1,886.7678008398507,Y,d,go,d,1,0.4041145124938339,,,,,,,,,,,,,,,,,,89,001,22,w,Psychologie,2023-02-01_12h01.02.843,00_bat_bachelor,2022.2.4,60.03425951343806,
,,,,,,,,,,,,0,0,0,0,152,0,152,0,,,,,,,152,,,1,888.2853394979611,X,l,go,l,1,0.6297560997772962,,,,,,,,,,,,,,,,,,89,001,22,w,Psychologie,2023-02-01_12h01.02.843,00_bat_bachelor,2022.2.4,60.03425951343806,
,,,,,,,,,,,,0,0,0,0,153,0,153,0,,,,,,,153,,,1,890.0198690812103,X,None,nogo,None,1,,890.8205756021198,,,,,,,,,,,,,,,,,89,001,22,w,Psychologie,2023-02-01_12h01.02.843,00_bat_bachelor,2022.2.4,60.03425951343806,
,,,,,,,,,,,,0,0,0,0,154,0,154,0,,,,,,,154,,,1,891.8213334199972,Y,d,go,d,1,0.32691842853091657,,,,,,,,,,,,,,,,,,89,001,22,w,Psychologie,2023-02-01_12h01.02.843,00_bat_bachelor,2022.2.4,60.03425951343806,
,,,,,,,,,,,,0,0,0,0,155,0,155,0,,,,,,,155,,,1,893.255530542694,X,l,go,l,1,0.6033115065656602,,,,,,,,,,,,,,,,,,89,001,22,w,Psychologie,2023-02-01_12h01.02.843,00_bat_bachelor,2022.2.4,60.03425951343806,
,,,,,,,,,,,,0,0,0,0,156,0,156,0,,,,,,,156,,,1,894.9736877703108,Y,d,go,d,1,0.45394091261550784,,,,,,,,,,,,,,,,,,89,001,22,w,Psychologie,2023-02-01_12h01.02.843,00_bat_bachelor,2022.2.4,60.03425951343806,
,,,,,,,,,,,,0,0,0,0,157,0,157,0,,,,,,,157,,,1,896.5413931920193,X,l,go,l,1,0.45374794281087816,,,,,,,,,,,,,,,,,,89,001,22,w,Psychologie,2023-02-01_12h01.02.843,00_bat_bachelor,2022.2.4,60.03425951343806,
,,,,,,,,,,,,0,0,0,0,158,0,158,0,,,,,,,158,,,1,898.1092523105908,Y,d,go,d,1,0.5180514268577099,,,,,,,,,,,,,,,,,,89,001,22,w,Psychologie,2023-02-01_12h01.02.843,00_bat_bachelor,2022.2.4,60.03425951343806,
,,,,,,,,,,,,0,0,0,0,159,0,159,0,,,,,,,159,,,1,899.7439981848001,Y,None,nogo,None,1,,900.5443468876183,,,,,,,,,,,,,,,,,89,001,22,w,Psychologie,2023-02-01_12h01.02.843,00_bat_bachelor,2022.2.4,60.03425951343806,
,,,,,,,,,,,,0,0,0,0,160,0,160,0,,,,,,,160,,,1,901.5452215538826,X,l,go,l,1,0.4104296606965363,,,,,,,,,,,,,,,,,,89,001,22,w,Psychologie,2023-02-01_12h01.02.843,00_bat_bachelor,2022.2.4,60.03425951343806,
,,,,,,,,,,,,0,0,0,0,161,0,161,0,,,,,,,161,,,1,903.0629774238914,Y,d,go,d,1,0.4927549541462213,,,,,,,,,,,,,,,,,,89,001,22,w,Psychologie,2023-02-01_12h01.02.843,00_bat_bachelor,2022.2.4,60.03425951343806,
,,,,,,,,,,,,0,0,0,0,162,0,162,0,,,,,,,162,,,1,904.6641892537009,X,l,go,l,1,0.4281814096029848,,,,,,,,,,,,,,,,,,89,001,22,w,Psychologie,2023-02-01_12h01.02.843,00_bat_bachelor,2022.2.4,60.03425951343806,
,,,,,,,,,,,,0,0,0,0,163,0,163,0,,,,,,,163,,,1,906.1986942067742,X,None,nogo,None,1,,,,,,,,,,,,,,,,,,,89,001,22,w,Psychologie,2023-02-01_12h01.02.843,00_bat_bachelor,2022.2.4,60.03425951343806,
,,,,,,,,,,,,0,0,0,0,164,0,164,0,,,,,,,164,,,1,908.0000974545255,Y,d,go,d,1,0.6601483274716884,,,,,,,,,,,,,,,,,,89,001,22,w,Psychologie,2023-02-01_12h01.02.843,00_bat_bachelor,2022.2.4,60.03425951343806,
,,,,,,,,,,,,0,0,0,0,165,0,165,0,,,,,,,165,,,1,909.768099991139,X,l,go,l,1,0.5082380983512849,,,,,,,,,,,,,,,,,,89,001,22,w,Psychologie,2023-02-01_12h01.02.843,00_bat_bachelor,2022.2.4,60.03425951343806,
,,,,,,,,,,,,0,0,0,0,166,0,166,0,,,,,,,166,,,1,911.3859716916922,X,None,nogo,None,1,,,,,,,,,,,,,,,,,,,89,001,22,w,Psychologie,2023-02-01_12h01.02.843,00_bat_bachelor,2022.2.4,60.03425951343806,
,,,,,,,,,,,,0,0,0,0,167,0,167,0,,,,,,,167,,,1,913.1873240303248,Y,d,go,d,1,0.36803259048610926,,,,,,,,,,,,,,,,,,89,001,22,w,Psychologie,2023-02-01_12h01.02.843,00_bat_bachelor,2022.2.4,60.03425951343806,
,,,,,,,,,,,,0,0,0,0,168,0,168,0,,,,,,,168,,,1,914.671635553008,X,l,go,l,1,0.6119791388045996,,,,,,,,,,,,,,,,,,89,001,22,w,Psychologie,2023-02-01_12h01.02.843,00_bat_bachelor,2022.2.4,60.03425951343806,
,,,,,,,,,,,,0,0,0,0,169,0,169,0,,,,,,,169,,,1,916.3896720535122,Y,d,go,d,1,0.5247951811179519,,,,,,,,,,,,,,,,,,89,001,22,w,Psychologie,2023-02-01_12h01.02.843,00_bat_bachelor,2022.2.4,60.03425951343806,
,,,,,,,,,,,,0,0,0,0,170,0,170,0,,,,,,,170,,,1,918.0247427758295,Y,None,nogo,None,1,,,,,,,,,,,,,,,,,,,89,001,22,w,Psychologie,2023-02-01_12h01.02.843,00_bat_bachelor,2022.2.4,60.03425951343806,
,,,,,,,,,,,,0,0,0,0,171,0,171,0,,,,,,,171,,,1,919.8262012964115,X,l,go,l,1,0.3058197721838951,,,,,,,,,,,,,,,,,,89,001,22,w,Psychologie,2023-02-01_12h01.02.843,00_bat_bachelor,2022.2.4,60.03425951343806,
,,,,,,,,,,,,0,0,0,0,172,0,172,0,,,,,,,172,,,1,921.2434539424721,Y,d,go,d,1,0.5357556606177241,,,,,,,,,,,,,,,,,,89,001,22,w,Psychologie,2023-02-01_12h01.02.843,00_bat_bachelor,2022.2.4,60.03425951343806,
,,,,,,,,,,,,0,0,0,0,173,0,173,0,,,,,,,173,,,1,922.8947467177641,Y,None,nogo,None,1,,923.6953329960816,,,,,,,,,,,,,,,,,89,001,22,w,Psychologie,2023-02-01_12h01.02.843,00_bat_bachelor,2022.2.4,60.03425951343806,
,,,,,,,,,,,,0,0,0,0,174,0,174,0,,,,,,,174,,,1,924.6961572382133,X,l,go,l,1,0.3475986609701067,,,,,,,,,,,,,,,,,,89,001,22,w,Psychologie,2023-02-01_12h01.02.843,00_bat_bachelor,2022.2.4,60.03425951343806,
,,,,,,,,,,,,0,0,0,0,175,0,175,0,,,,,,,175,,,1,926.1473822314292,Y,d,go,d,1,0.4488878238480538,,,,,,,,,,,,,,,,,,89,001,22,w,Psychologie,2023-02-01_12h01.02.843,00_bat_bachelor,2022.2.4,60.03425951343806,
,,,,,,,,,,,,0,0,0,0,176,0,176,0,,,,,,,176,,,1,927.6984738430474,X,l,go,l,1,0.5135355503298342,,,,,,,,,,,,,,,,,,89,001,22,w,Psychologie,2023-02-01_12h01.02.843,00_bat_bachelor,2022.2.4,60.03425951343806,
,,,,,,,,,,,,0,0,0,0,177,0,177,0,,,,,,,177,,,1,929.3164328162093,Y,d,go,d,1,0.39907742384821177,,,,,,,,,,,,,,,,,,89,001,22,w,Psychologie,2023-02-01_12h01.02.843,00_bat_bachelor,2022.2.4,60.03425951343806,
,,,,,,,,,,,,0,0,0,0,178,0,178,0,,,,,,,178,,,1,930.8174973006826,X,l,go,l,1,0.46632781554944813,,,,,,,,,,,,,,,,,,89,001,22,w,Psychologie,2023-02-01_12h01.02.843,00_bat_bachelor,2022.2.4,60.03425951343806,
,,,,,,,,,,,,0,0,0,0,179,0,179,0,,,,,,,179,,,1,932.3853588434868,X,None,nogo,None,1,,,,,,,,,,,,,,,,,,,89,001,22,w,Psychologie,2023-02-01_12h01.02.843,00_bat_bachelor,2022.2.4,60.03425951343806,
,,,,,,,,,,,,0,0,0,0,180,0,180,0,,,,,,,180,,,1,934.1864939702209,X,None,nogo,l,0,0.5525920160580426,,,,,,,,,,,,,,,,,,89,001,22,w,Psychologie,2023-02-01_12h01.02.843,00_bat_bachelor,2022.2.4,60.03425951343806,
,,,,,,,,,,,,0,0,0,0,181,0,181,0,,,,,,,181,,,1,935.8544151007663,Y,d,go,d,1,0.3880350049585104,,,,,,,,,,,,,,,,,,89,001,22,w,Psychologie,2023-02-01_12h01.02.843,00_bat_bachelor,2022.2.4,60.03425951343806,
,,,,,,,,,,,,0,0,0,0,182,0,182,0,,,,,,,182,,,1,937.3558354638517,X,l,go,l,1,0.3747428902424872,,,,,,,,,,,,,,,,,,89,001,22,w,Psychologie,2023-02-01_12h01.02.843,00_bat_bachelor,2022.2.4,60.03425951343806,
,,,,,,,,,,,,0,0,0,0,183,0,183,0,,,,,,,183,,,1,938.8401625016704,Y,d,go,d,1,0.4758027200587094,,,,,,,,,,,,,,,,,,89,001,22,w,Psychologie,2023-02-01_12h01.02.843,00_bat_bachelor,2022.2.4,60.03425951343806,
,,,,,,,,,,,,0,0,0,0,184,0,184,0,,,,,,,184,,,1,940.424763915129,X,l,go,l,1,0.5223510609939694,,,,,,,,,,,,,,,,,,89,001,22,w,Psychologie,2023-02-01_12h01.02.843,00_bat_bachelor,2022.2.4,60.03425951343806,
,,,,,,,,,,,,0,0,0,0,185,0,185,0,,,,,,,185,,,1,942.0593958499376,Y,d,go,d,1,0.5198565169703215,,,,,,,,,,,,,,,,,,89,001,22,w,Psychologie,2023-02-01_12h01.02.843,00_bat_bachelor,2022.2.4,60.03425951343806,
,,,,,,,,,,,,0,0,0,0,186,0,186,0,,,,,,,186,,,1,943.693985118065,X,l,go,l,1,0.5332160256803036,,,,,,,,,,,,,,,,,,89,001,22,w,Psychologie,2023-02-01_12h01.02.843,00_bat_bachelor,2022.2.4,60.03425951343806,
,,,,,,,,,,,,0,0,0,0,187,0,187,0,,,,,,,187,,,1,945.3286461436655,Y,d,go,d,1,0.4990836784709245,,,,,,,,,,,,,,,,,,89,001,22,w,Psychologie,2023-02-01_12h01.02.843,00_bat_bachelor,2022.2.4,60.03425951343806,
,,,,,,,,,,,,0,0,0,0,188,0,188,0,,,,,,,188,,,1,946.929512276547,X,l,go,l,1,0.5620620721019804,,,,,,,,,,,,,,,,,,89,001,22,w,Psychologie,2023-02-01_12h01.02.843,00_bat_bachelor,2022.2.4,60.03425951343806,
,,,,,,,,,,,,0,0,0,0,189,0,189,0,,,,,,,189,,,1,948.5977063768078,Y,d,go,d,1,0.446762734092772,,,,,,,,,,,,,,,,,,89,001,22,w,Psychologie,2023-02-01_12h01.02.843,00_bat_bachelor,2022.2.4,60.03425951343806,
,,,,,,,,,,,,0,0,0,0,190,0,190,0,,,,,,,190,,,1,950.1486428370699,X,l,go,l,1,0.4623636961914599,,,,,,,,,,,,,,,,,,89,001,22,w,Psychologie,2023-02-01_12h01.02.843,00_bat_bachelor,2022.2.4,60.03425951343806,
,,,,,,,,,,,,0,0,0,0,191,0,191,0,,,,,,,191,,,1,951.7168840160593,X,None,nogo,None,1,,,,,,,,,,,,,,,,,,,89,001,22,w,Psychologie,2023-02-01_12h01.02.843,00_bat_bachelor,2022.2.4,60.03425951343806,
,,,,,,,,,,,,0,0,0,0,192,0,192,0,,,,,,,192,,,1,953.5178489610553,Y,d,go,d,1,0.46904926863498986,,,,,,,,,,,,,,,,,,89,001,22,w,Psychologie,2023-02-01_12h01.02.843,00_bat_bachelor,2022.2.4,60.03425951343806,
,,,,,,,,,,,,0,0,0,0,193,0,193,0,,,,,,,193,,,1,955.1026612834539,X,l,go,l,1,0.5490429271012545,,,,,,,,,,,,,,,,,,89,001,22,w,Psychologie,2023-02-01_12h01.02.843,00_bat_bachelor,2022.2.4,60.03425951343806,
,,,,,,,,,,,,0,0,0,0,194,0,194,0,,,,,,,194,,,1,956.7539399981033,X,None,nogo,None,1,,,,,,,,,,,,,,,,,,,89,001,22,w,Psychologie,2023-02-01_12h01.02.843,00_bat_bachelor,2022.2.4,60.03425951343806,
,,,,,,,,,,,,0,0,0,0,195,0,195,0,,,,,,,195,,,1,958.5552579124924,Y,d,go,d,1,0.5674763724673539,,,,,,,,,,,,,,,,,,89,001,22,w,Psychologie,2023-02-01_12h01.02.843,00_bat_bachelor,2022.2.4,60.03425951343806,
,,,,,,,,,,,,0,0,0,0,196,0,196,0,,,,,,,196,,,1,960.239937823033,X,l,go,l,1,0.43532467912882566,,,,,,,,,,,,,,,,,,89,001,22,w,Psychologie,2023-02-01_12h01.02.843,00_bat_bachelor,2022.2.4,60.03425951343806,
,,,,,,,,,,,,0,0,0,0,197,0,197,0,,,,,,,197,,,1,961.7908398590516,Y,d,go,d,1,0.5160412457771599,,,,,,,,,,,,,,,,,,89,001,22,w,Psychologie,2023-02-01_12h01.02.843,00_bat_bachelor,2022.2.4,60.03425951343806,
,,,,,,,,,,,,0,0,0,0,198,0,198,0,,,,,,,198,,,1,963.408711559372,X,l,go,l,1,0.5793837609235197,,,,,,,,,,,,,,,,,,89,001,22,w,Psychologie,2023-02-01_12h01.02.843,00_bat_bachelor,2022.2.4,60.03425951343806,
,,,,,,,,,,,,0,0,0,0,199,0,199,0,,,,,,,199,,,1,965.0936227424536,X,None,nogo,None,1,,,,,,,,,,,,,,,,,,,89,001,22,w,Psychologie,2023-02-01_12h01.02.843,00_bat_bachelor,2022.2.4,60.03425951343806,
,,,,,,,,,,,,0,0,0,0,200,0,200,0,,,,,,,200,,,1,966.894989626715,Y,d,go,d,1,0.3411453308071941,,,,,,,,,,,,,,,,,,89,001,22,w,Psychologie,2023-02-01_12h01.02.843,00_bat_bachelor,2022.2.4,60.03425951343806,
,,,,,,,,,,,,0,0,0,0,201,0,201,0,,,,,,,201,,,1,968.3464080744889,X,l,go,l,1,0.4097246916498989,,,,,,,,,,,,,,,,,,89,001,22,w,Psychologie,2023-02-01_12h01.02.843,00_bat_bachelor,2022.2.4,60.03425951343806,
,,,,,,,,,,,,0,0,0,0,202,0,202,0,,,,,,,202,,,1,969.8637028539088,X,None,nogo,None,1,,970.6644825867843,,,,,,,,,,,,,,,,,89,001,22,w,Psychologie,2023-02-01_12h01.02.843,00_bat_bachelor,2022.2.4,60.03425951343806,
,,,,,,,,,,,,0,0,0,0,203,0,203,0,,,,,,,203,,,1,971.6652627077419,Y,d,go,d,1,0.515793003840372,,,,,,,,,,,,,,,,,,89,001,22,w,Psychologie,2023-02-01_12h01.02.843,00_bat_bachelor,2022.2.4,60.03425951343806,
,,,,,,,,,,,,0,0,0,0,204,0,204,0,,,,,,,204,,,1,973.2831736807711,X,l,go,l,1,0.49580464977771044,,,,,,,,,,,,,,,,,,89,001,22,w,Psychologie,2023-02-01_12h01.02.843,00_bat_bachelor,2022.2.4,60.03425951343806,
,,,,,,,,,,,,0,0,0,0,205,0,205,0,,,,,,,205,,,1,974.8843748439103,X,None,nogo,None,1,,,,,,,,,,,,,,,,,,,89,001,22,w,Psychologie,2023-02-01_12h01.02.843,00_bat_bachelor,2022.2.4,60.03425951343806,
,,,,,,,,,,,,0,0,0,0,206,0,206,0,,,,,,,206,,,1,976.6857504553627,Y,d,go,d,1,0.4534104885533452,,,,,,,,,,,,,,,,,,89,001,22,w,Psychologie,2023-02-01_12h01.02.843,00_bat_bachelor,2022.2.4,60.03425951343806,
,,,,,,,,,,,,0,0,0,0,207,0,207,0,,,,,,,207,,,1,978.2536789071746,X,l,go,None,0,,,,,,,,,,,,,,,,,,,89,001,22,w,Psychologie,2023-02-01_12h01.02.843,00_bat_bachelor,2022.2.4,60.03425951343806,
,,,,,,,,,,,,0,0,0,0,208,0,208,0,,,,,,,208,,,1,980.0549817914143,Y,d,go,d,1,0.41362044704146683,,,,,,,,,,,,,,,,,,89,001,22,w,Psychologie,2023-02-01_12h01.02.843,00_bat_bachelor,2022.2.4,60.03425951343806,
,,,,,,,,,,,,0,0,0,0,209,0,209,0,,,,,,,209,,,1,981.57265281328,Y,None,nogo,None,1,,,,,,,,,,,,,,,,,,,89,001,22,w,Psychologie,2023-02-01_12h01.02.843,00_bat_bachelor,2022.2.4,60.03425951343806,
,,,,,,,,,,,,0,0,0,0,210,0,210,0,,,,,,,210,,,1,983.374197636731,X,l,go,l,1,0.3100234065204859,,,,,,,,,,,,,,,,,,89,001,22,w,Psychologie,2023-02-01_12h01.02.843,00_bat_bachelor,2022.2.4,60.03425951343806,
,,,,,,,,,,,,0,0,0,0,211,0,211,0,,,,,,,211,,,1,984.7919104038738,Y,d,go,d,1,0.5084397951141,,,,,,,,,,,,,,,,,,89,001,22,w,Psychologie,2023-02-01_12h01.02.843,00_bat_bachelor,2022.2.4,60.03425951343806,
,,,,,,,,,,,,0,0,0,0,212,0,212,0,,,,,,,212,,,1,986.4098553163931,X,l,go,l,1,0.37858822173438966,,,,,,,,,,,,,,,,,,89,001,22,w,Psychologie,2023-02-01_12h01.02.843,00_bat_bachelor,2022.2.4,60.03425951343806,
,,,,,,,,,,,,0,0,0,0,213,0,213,0,,,,,,,213,,,1,987.8943166572135,Y,d,go,d,1,0.3813130690250546,,,,,,,,,,,,,,,,,,89,001,22,w,Psychologie,2023-02-01_12h01.02.843,00_bat_bachelor,2022.2.4,60.03425951343806,
,,,,,,,,,,,,0,0,0,0,214,0,214,0,,,,,,,214,,,1,989.3787086647935,X,l,go,l,1,0.4970730128698051,,,,,,,,,,,,,,,,,,89,001,22,w,Psychologie,2023-02-01_12h01.02.843,00_bat_bachelor,2022.2.4,60.03425951343806,
,,,,,,,,,,,,0,0,0,0,215,0,215,0,,,,,,,215,,,1,990.9799549188465,Y,d,go,d,1,0.46364272595383227,,,,,,,,,,,,,,,,,,89,001,22,w,Psychologie,2023-02-01_12h01.02.843,00_bat_bachelor,2022.2.4,60.03425951343806,
,,,,,,,,,,,,0,0,0,0,216,0,216,0,,,,,,,216,,,1,992.5477849463932,X,l,go,l,1,0.36751283309422433,,,,,,,,,,,,,,,,,,89,001,22,w,Psychologie,2023-02-01_12h01.02.843,00_bat_bachelor,2022.2.4,60.03425951343806,
,,,,,,,,,,,,0,0,0,0,217,0,217,0,,,,,,,217,,,1,994.0322554993909,Y,d,go,d,1,0.4503176414873451,,,,,,,,,,,,,,,,,,89,001,22,w,Psychologie,2023-02-01_12h01.02.843,00_bat_bachelor,2022.2.4,60.03425951343806,
,,,,,,,,,,,,0,0,0,0,218,0,218,0,,,,,,,218,,,1,995.583492080681,X,l,go,l,1,0.3876922174822539,,,,,,,,,,,,,,,,,,89,001,22,w,Psychologie,2023-02-01_12h01.02.843,00_bat_bachelor,2022.2.4,60.03425951343806,
,,,,,,,,,,,,0,0,0,0,219,0,219,0,,,,,,,219,,,1,997.0845715953037,X,None,nogo,None,1,,,,,,,,,,,,,,,,,,,89,001,22,w,Psychologie,2023-02-01_12h01.02.843,00_bat_bachelor,2022.2.4,60.03425951343806,
,,,,,,,,,,,,0,0,0,0,220,0,220,0,,,,,,,220,,,1,998.8857716917992,Y,d,go,d,1,0.36520495545119047,,,,,,,,,,,,,,,,,,89,001,22,w,Psychologie,2023-02-01_12h01.02.843,00_bat_bachelor,2022.2.4,60.03425951343806,
,,,,,,,,,,,,0,0,0,0,221,0,221,0,,,,,,,221,,,1,1000.3538117071148,X,l,go,l,1,0.4176829906646162,,,,,,,,,,,,,,,,,,89,001,22,w,Psychologie,2023-02-01_12h01.02.843,00_bat_bachelor,2022.2.4,60.03425951343806,
,,,,,,,,,,,,0,0,0,0,222,0,222,0,,,,,,,222,,,1,1001.888351569185,Y,d,go,d,1,0.4341862553264946,,,,,,,,,,,,,,,,,,89,001,22,w,Psychologie,2023-02-01_12h01.02.843,00_bat_bachelor,2022.2.4,60.03425951343806,
,,,,,,,,,,,,0,0,0,0,223,0,223,0,,,,,,,223,,,1,1003.4393336051144,Y,None,nogo,None,1,,,,,,,,,,,,,,,,,,,89,001,22,w,Psychologie,2023-02-01_12h01.02.843,00_bat_bachelor,2022.2.4,60.03425951343806,
,,,,,,,,,,,,0,0,0,0,224,0,224,0,,,,,,,224,,,1,1005.240863398416,X,l,go,l,1,0.34689320670440793,,,,,,,,,,,,,,,,,,89,001,22,w,Psychologie,2023-02-01_12h01.02.843,00_bat_bachelor,2022.2.4,60.03425951343806,
,,,,,,,,,,,,0,0,0,0,225,0,225,0,,,,,,,225,,,1,1006.6919681492727,Y,d,go,d,1,0.3681668934877962,,,,,,,,,,,,,,,,,,89,001,22,w,Psychologie,2023-02-01_12h01.02.843,00_bat_bachelor,2022.2.4,60.03425951343806,
,,,,,,,,,,,,0,0,0,0,226,0,226,0,,,,,,,226,,,1,1008.1763121569529,X,l,go,l,1,0.38670021784491837,,,,,,,,,,,,,,,,,,89,001,22,w,Psychologie,2023-02-01_12h01.02.843,00_bat_bachelor,2022.2.4,60.03425951343806,
,,,,,,,,,,,,0,0,0,0,227,0,227,0,,,,,,,227,,,1,1009.6776035502553,X,None,nogo,None,1,,,,,,,,,,,,,,,,,,,89,001,22,w,Psychologie,2023-02-01_12h01.02.843,00_bat_bachelor,2022.2.4,60.03425951343806,
,,,,,,,,,,,,0,0,0,0,228,0,228,0,,,,,,,228,,,1,1011.4789219496306,Y,d,go,d,1,0.41161511465907097,,,,,,,,,,,,,,,,,,89,001,22,w,Psychologie,2023-02-01_12h01.02.843,00_bat_bachelor,2022.2.4,60.03425951343806,
,,,,,,,,,,,,0,0,0,0,229,0,229,0,,,,,,,229,,,1,1012.9965779411141,X,l,go,l,1,0.4474803095217794,,,,,,,,,,,,,,,,,,89,001,22,w,Psychologie,2023-02-01_12h01.02.843,00_bat_bachelor,2022.2.4,60.03425951343806,
,,,,,,,,,,,,0,0,0,0,230,0,230,0,,,,,,,230,,,1,1014.5477548858617,Y,d,go,d,1,0.4796335061546415,,,,,,,,,,,,,,,,,,89,001,22,w,Psychologie,2023-02-01_12h01.02.843,00_bat_bachelor,2022.2.4,60.03425951343806,
,,,,,,,,,,,,0,0,0,0,231,0,231,0,,,,,,,231,,,1,1016.1325104811694,X,l,go,l,1,0.41554238577373326,,,,,,,,,,,,,,,,,,89,001,22,w,Psychologie,2023-02-01_12h01.02.843,00_bat_bachelor,2022.2.4,60.03425951343806,
,,,,,,,,,,,,0,0,0,0,232,0,232,0,,,,,,,232,,,1,1017.6500433210749,Y,d,go,d,1,0.545717837754637,,,,,,,,,,,,,,,,,,89,001,22,w,Psychologie,2023-02-01_12h01.02.843,00_bat_bachelor,2022.2.4,60.03425951343806,
,,,,,,,,,,,,0,0,0,0,233,0,233,0,,,,,,,233,,,1,1019.3015702778939,Y,None,nogo,None,1,,,,,,,,,,,,,,,,,,,89,001,22,w,Psychologie,2023-02-01_12h01.02.843,00_bat_bachelor,2022.2.4,60.03425951343806,
,,,,,,,,,,,,0,0,0,0,234,0,234,0,,,,,,,234,,,1,1021.1029366774019,X,l,go,l,1,0.37336107273586094,,,,,,,,,,,,,,,,,,89,001,22,w,Psychologie,2023-02-01_12h01.02.843,00_bat_bachelor,2022.2.4,60.03425951343806,
,,,,,,,,,,,,0,0,0,0,235,0,235,0,,,,,,,235,,,1,1022.5871362001635,Y,d,go,d,1,0.42391038150526583,,,,,,,,,,,,,,,,,,89,001,22,w,Psychologie,2023-02-01_12h01.02.843,00_bat_bachelor,2022.2.4,60.03425951343806,
,,,,,,,,,,,,0,0,0,0,236,0,236,0,,,,,,,236,,,1,1024.1216605470981,Y,None,nogo,None,1,,,,,,,,,,,,,,,,,,,89,001,22,w,Psychologie,2023-02-01_12h01.02.843,00_bat_bachelor,2022.2.4,60.03425951343806,
,,,,,,,,,,,,0,0,0,0,237,0,237,0,,,,,,,237,,,1,1025.923310582526,X,l,go,l,1,0.3519845982082188,,,,,,,,,,,,,,,,,,89,001,22,w,Psychologie,2023-02-01_12h01.02.843,00_bat_bachelor,2022.2.4,60.03425951343806,
,,,,,,,,,,,,0,0,0,0,238,0,238,0,,,,,,,238,,,1,1027.3908056286164,Y,d,go,d,1,0.5321731169242412,,,,,,,,,,,,,,,,,,89,001,22,w,Psychologie,2023-02-01_12h01.02.843,00_bat_bachelor,2022.2.4,60.03425951343806,
,,,,,,,,,,,,0,0,0,0,239,0,239,0,,,,,,,239,,,1,1029.025531138992,X,l,go,l,1,0.44952830858528614,,,,,,,,,,,,,,,,,,89,001,22,w,Psychologie,2023-02-01_12h01.02.843,00_bat_bachelor,2022.2.4,60.03425951343806,
,,,,,,,,,,,,0,0,0,0,240,0,240,0,,,,,,,240,,,1,1030.5768370535225,X,None,nogo,None,1,,1031.3771910897922,,,,,,,,,,,,,,,,,89,001,22,w,Psychologie,2023-02-01_12h01.02.843,00_bat_bachelor,2022.2.4,60.03425951343806,
,,,,,,,,,,,,0,0,0,0,241,0,241,0,,,,,,,241,,,1,1032.3779387257528,Y,d,go,d,1,0.4570924260187894,,,,,,,,,,,,,,,,,,89,001,22,w,Psychologie,2023-02-01_12h01.02.843,00_bat_bachelor,2022.2.4,60.03425951343806,
,,,,,,,,,,,,0,0,0,0,242,0,242,0,,,,,,,242,,,1,1033.9461013593245,X,l,go,l,1,0.4420980089344084,,,,,,,,,,,,,,,,,,89,001,22,w,Psychologie,2023-02-01_12h01.02.843,00_bat_bachelor,2022.2.4,60.03425951343806,
,,,,,,,,,,,,0,0,0,0,243,0,243,0,,,,,,,243,,,1,1035.497223031707,Y,d,go,d,1,0.5062987052369863,,,,,,,,,,,,,,,,,,89,001,22,w,Psychologie,2023-02-01_12h01.02.843,00_bat_bachelor,2022.2.4,60.03425951343806,
,,,,,,,,,,,,0,0,0,0,244,0,244,0,,,,,,,244,,,1,1037.1149846715853,X,l,go,l,1,0.4881450170651078,,,,,,,,,,,,,,,,,,89,001,22,w,Psychologie,2023-02-01_12h01.02.843,00_bat_bachelor,2022.2.4,60.03425951343806,
,,,,,,,,,,,,0,0,0,0,245,0,245,0,,,,,,,245,,,1,1038.716104380088,Y,d,go,d,1,0.47051448025740683,,,,,,,,,,,,,,,,,,89,001,22,w,Psychologie,2023-02-01_12h01.02.843,00_bat_bachelor,2022.2.4,60.03425951343806,
,,,,,,,,,,,,0,0,0,0,246,0,246,0,,,,,,,246,,,1,1040.3006514904555,X,l,go,l,1,0.5338637828826904,,,,,,,,,,,,,,,,,,89,001,22,w,Psychologie,2023-02-01_12h01.02.843,00_bat_bachelor,2022.2.4,60.03425951343806,
,,,,,,,,,,,,0,0,0,0,247,0,247,0,,,,,,,247,,,1,1041.9355728796218,Y,d,go,d,1,0.5962671462912112,,,,,,,,,,,,,,,,,,89,001,22,w,Psychologie,2023-02-01_12h01.02.843,00_bat_bachelor,2022.2.4,60.03425951343806,
,,,,,,,,,,,,0,0,0,0,248,0,248,0,,,,,,,248,,,1,1043.6366009034682,Y,None,nogo,None,1,,,,,,,,,,,,,,,,,,,89,001,22,w,Psychologie,2023-02-01_12h01.02.843,00_bat_bachelor,2022.2.4,60.03425951343806,
,,,,,,,,,,,,0,0,0,0,249,0,249,0,,,,,,,249,,,1,1045.4379071816802,X,l,go,l,1,0.3739642237778753,,,,,,,,,,,,,,,,,,89,001,22,w,Psychologie,2023-02-01_12h01.02.843,00_bat_bachelor,2022.2.4,60.03425951343806,
,,,,,,,,,,,,1,0,1,0,0,0,0,0,,,,,,,0,,,0.2,1066.620833638357,X,l,go,l,1,0.5182342145126313,,,,,,,,,1045.9264713083394,space,20.46379060461186,,,,,,,89,001,22,w,Psychologie,2023-02-01_12h01.02.843,00_bat_bachelor,2022.2.4,60.03425951343806,
,,,,,,,,,,,,1,0,1,0,1,0,1,0,,,,,,,1,,,0.2,1067.454666446196,Y,d,go,d,1,0.4520645495504141,,,,,,,,,,,,,,,,,,89,001,22,w,Psychologie,2023-02-01_12h01.02.843,00_bat_bachelor,2022.2.4,60.03425951343806,
,,,,,,,,,,,,1,0,1,0,2,0,2,0,,,,,,,2,,,0.2,1068.2221875286195,X,l,go,l,1,0.40525487530976534,,,,,,,,,,,,,,,,,,89,001,22,w,Psychologie,2023-02-01_12h01.02.843,00_bat_bachelor,2022.2.4,60.03425951343806,
,,,,,,,,,,,,1,0,1,0,3,0,3,0,,,,,,,3,,,0.2,1068.9393663324881,X,None,nogo,None,1,,1069.7401329744607,,,,,,,,,,,,,,,,,89,001,22,w,Psychologie,2023-02-01_12h01.02.843,00_bat_bachelor,2022.2.4,60.03425951343806,
,,,,,,,,,,,,1,0,1,0,4,0,4,0,,,,,,,4,,,0.2,1069.9401542108972,Y,d,go,d,1,0.35072544729337096,,,,,,,,,,,,,,,,,,89,001,22,w,Psychologie,2023-02-01_12h01.02.843,00_bat_bachelor,2022.2.4,60.03425951343806,
,,,,,,,,,,,,1,0,1,0,5,0,5,0,,,,,,,5,,,0.2,1070.590639713686,X,l,go,l,1,0.5165435487870127,,,,,,,,,,,,,,,,,,89,001,22,w,Psychologie,2023-02-01_12h01.02.843,00_bat_bachelor,2022.2.4,60.03425951343806,
,,,,,,,,,,,,1,0,1,0,6,0,6,0,,,,,,,6,,,0.2,1071.4076541054528,Y,d,go,d,1,0.4030522098764777,,,,,,,,,,,,,,,,,,89,001,22,w,Psychologie,2023-02-01_12h01.02.843,00_bat_bachelor,2022.2.4,60.03425951343806,
,,,,,,,,,,,,1,0,1,0,7,0,7,0,,,,,,,7,,,0.2,1072.1250491514802,X,l,go,l,1,0.5342977219261229,,,,,,,,,,,,,,,,,,89,001,22,w,Psychologie,2023-02-01_12h01.02.843,00_bat_bachelor,2022.2.4,60.03425951343806,
,,,,,,,,,,,,1,0,1,0,8,0,8,0,,,,,,,8,,,0.2,1072.9757498300169,Y,d,go,d,1,0.46725484542548656,,,,,,,,,,,,,,,,,,89,001,22,w,Psychologie,2023-02-01_12h01.02.843,00_bat_bachelor,2022.2.4,60.03425951343806,
,,,,,,,,,,,,1,0,1,0,9,0,9,0,,,,,,,9,,,0.2,1073.7428006094415,Y,None,nogo,None,1,,,,,,,,,,,,,,,,,,,89,001,22,w,Psychologie,2023-02-01_12h01.02.843,00_bat_bachelor,2022.2.4,60.03425951343806,
,,,,,,,,,,,,1,0,1,0,10,0,10,0,,,,,,,10,,,0.2,1074.7438197606243,X,l,go,l,1,0.28376160096377134,,,,,,,,,,,,,,,,,,89,001,22,w,Psychologie,2023-02-01_12h01.02.843,00_bat_bachelor,2022.2.4,60.03425951343806,
,,,,,,,,,,,,1,0,1,0,11,0,11,0,,,,,,,11,,,0.2,1075.3273457805626,Y,d,go,d,1,0.37200010381639004,,,,,,,,,,,,,,,,,,89,001,22,w,Psychologie,2023-02-01_12h01.02.843,00_bat_bachelor,2022.2.4,60.03425951343806,
,,,,,,,,,,,,1,0,1,0,12,0,12,0,,,,,,,12,,,0.2,1076.011561206542,Y,None,nogo,None,1,,,,,,,,,,,,,,,,,,,89,001,22,w,Psychologie,2023-02-01_12h01.02.843,00_bat_bachelor,2022.2.4,60.03425951343806,
,,,,,,,,,,,,1,0,1,0,13,0,13,0,,,,,,,13,,,0.2,1077.0119781759568,X,l,go,l,1,0.3503336899448186,,,,,,,,,,,,,,,,,,89,001,22,w,Psychologie,2023-02-01_12h01.02.843,00_bat_bachelor,2022.2.4,60.03425951343806,
,,,,,,,,,,,,1,0,1,0,14,0,14,0,,,,,,,14,,,0.2,1077.6624399211723,Y,d,go,None,0,,1078.4630436543375,,,,,,,,,,,,,,,,,89,001,22,w,Psychologie,2023-02-01_12h01.02.843,00_bat_bachelor,2022.2.4,60.03425951343806,
,,,,,,,,,,,,1,0,1,0,15,0,15,0,,,,,,,15,,,0.2,1078.663486708654,X,l,go,l,1,0.5392179619520903,,,,,,,,,,,,,,,,,,89,001,22,w,Psychologie,2023-02-01_12h01.02.843,00_bat_bachelor,2022.2.4,60.03425951343806,
,,,,,,,,,,,,1,0,1,0,16,0,16,0,,,,,,,16,,,0.2,1079.5138475084677,Y,d,go,d,1,0.4584747285116464,,,,,,,,,,,,,,,,,,89,001,22,w,Psychologie,2023-02-01_12h01.02.843,00_bat_bachelor,2022.2.4,60.03425951343806,
,,,,,,,,,,,,1,0,1,0,17,0,17,0,,,,,,,17,,,0.2,1080.2812919847202,X,l,go,l,1,0.5534739552531391,,,,,,,,,,,,,,,,,,89,001,22,w,Psychologie,2023-02-01_12h01.02.843,00_bat_bachelor,2022.2.4,60.03425951343806,
,,,,,,,,,,,,1,0,1,0,18,0,18,0,,,,,,,18,,,0.2,1081.1487587157171,X,None,nogo,None,1,,,,,,,,,,,,,,,,,,,89,001,22,w,Psychologie,2023-02-01_12h01.02.843,00_bat_bachelor,2022.2.4,60.03425951343806,
,,,,,,,,,,,,1,0,1,0,19,0,19,0,,,,,,,19,,,0.2,1082.1494258670136,Y,d,go,d,1,0.33360448596067727,,,,,,,,,,,,,,,,,,89,001,22,w,Psychologie,2023-02-01_12h01.02.843,00_bat_bachelor,2022.2.4,60.03425951343806,
,,,,,,,,,,,,1,0,1,0,20,0,20,0,,,,,,,20,,,0.2,1082.7832747716457,X,l,go,None,0,,,,,,,,,,,,,,,,,,,89,001,22,w,Psychologie,2023-02-01_12h01.02.843,00_bat_bachelor,2022.2.4,60.03425951343806,
,,,,,,,,,,,,1,0,1,0,21,0,21,0,,,,,,,21,,,0.2,1083.784054407617,X,None,nogo,None,1,,,,,,,,,,,,,,,,,,,89,001,22,w,Psychologie,2023-02-01_12h01.02.843,00_bat_bachelor,2022.2.4,60.03425951343806,
,,,,,,,,,,,,1,0,1,0,22,0,22,0,,,,,,,22,,,0.2,1084.7845862861723,Y,d,go,d,1,0.33803599886596203,,,,,,,,,,,,,,,,,,89,001,22,w,Psychologie,2023-02-01_12h01.02.843,00_bat_bachelor,2022.2.4,60.03425951343806,
,,,,,,,,,,,,1,0,1,0,23,0,23,0,,,,,,,23,,,0.2,1085.4353263343219,X,l,go,l,1,0.5039210093673319,,,,,,,,,,,,,,,,,,89,001,22,w,Psychologie,2023-02-01_12h01.02.843,00_bat_bachelor,2022.2.4,60.03425951343806,
,,,,,,,,,,,,1,0,1,0,24,0,24,0,,,,,,,24,,,0.2,1086.2529215742834,X,None,nogo,None,1,,1087.0532004591078,,,,,,,,,,,,,,,,,89,001,22,w,Psychologie,2023-02-01_12h01.02.843,00_bat_bachelor,2022.2.4,60.03425951343806,
,,,,,,,,,,,,1,0,1,0,25,0,25,0,,,,,,,25,,,0.2,1087.2532774528954,Y,d,go,d,1,0.31759819062426686,,,,,,,,,,,,,,,,,,89,001,22,w,Psychologie,2023-02-01_12h01.02.843,00_bat_bachelor,2022.2.4,60.03425951343806,
,,,,,,,,,,,,1,0,1,0,26,0,26,0,,,,,,,26,,,0.2,1087.8871593275107,X,l,go,None,0,,1088.6875788180623,,,,,,,,,,,,,,,,,89,001,22,w,Psychologie,2023-02-01_12h01.02.843,00_bat_bachelor,2022.2.4,60.03425951343806,
,,,,,,,,,,,,1,0,1,0,27,0,27,0,,,,,,,27,,,0.2,1088.8879185996484,Y,d,go,d,1,0.5717183097731322,,,,,,,,,,,,,,,,,,89,001,22,w,Psychologie,2023-02-01_12h01.02.843,00_bat_bachelor,2022.2.4,60.03425951343806,
,,,,,,,,,,,,1,0,1,0,28,0,28,0,,,,,,,28,,,0.2,1089.7717159893364,X,l,go,None,0,,,,,,,,,,,,,,,,,,,89,001,22,w,Psychologie,2023-02-01_12h01.02.843,00_bat_bachelor,2022.2.4,60.03425951343806,
,,,,,,,,,,,,1,0,1,0,29,0,29,0,,,,,,,29,,,0.2,1090.7726197466254,Y,d,go,d,1,0.4790759305469692,,,,,,,,,,,,,,,,,,89,001,22,w,Psychologie,2023-02-01_12h01.02.843,00_bat_bachelor,2022.2.4,60.03425951343806,
,,,,,,,,,,,,1,0,1,0,30,0,30,0,,,,,,,30,,,0.2,1091.5566232451238,X,l,go,l,1,0.5273745737504214,,,,,,,,,,,,,,,,,,89,001,22,w,Psychologie,2023-02-01_12h01.02.843,00_bat_bachelor,2022.2.4,60.03425951343806,
,,,,,,,,,,,,1,0,1,0,31,0,31,0,,,,,,,31,,,0.2,1092.39061750751,Y,d,go,None,0,,,,,,,,,,,,,,,,,,,89,001,22,w,Psychologie,2023-02-01_12h01.02.843,00_bat_bachelor,2022.2.4,60.03425951343806,
,,,,,,,,,,,,1,0,1,0,32,0,32,0,,,,,,,32,,,0.2,1093.3912875677925,Y,None,nogo,None,1,,,,,,,,,,,,,,,,,,,89,001,22,w,Psychologie,2023-02-01_12h01.02.843,00_bat_bachelor,2022.2.4,60.03425951343806,
,,,,,,,,,,,,1,0,1,0,33,0,33,0,,,,,,,33,,,0.2,1094.3921181128826,X,l,go,l,1,0.5066812504082918,,,,,,,,,,,,,,,,,,89,001,22,w,Psychologie,2023-02-01_12h01.02.843,00_bat_bachelor,2022.2.4,60.03425951343806,
,,,,,,,,,,,,1,0,1,0,34,0,34,0,,,,,,,34,,,0.2,1095.209363292437,Y,d,go,d,1,0.41064784256741405,,,,,,,,,,,,,,,,,,89,001,22,w,Psychologie,2023-02-01_12h01.02.843,00_bat_bachelor,2022.2.4,60.03425951343806,
,,,,,,,,,,,,1,0,1,0,35,0,35,0,,,,,,,35,,,0.2,1095.9266017326154,X,l,go,None,0,,,,,,,,,,,,,,,,,,,89,001,22,w,Psychologie,2023-02-01_12h01.02.843,00_bat_bachelor,2022.2.4,60.03425951343806,
,,,,,,,,,,,,1,0,1,0,36,0,36,0,,,,,,,36,,,0.2,1096.9273910655174,Y,d,go,d,1,0.5158298520836979,,,,,,,,,,,,,,,,,,89,001,22,w,Psychologie,2023-02-01_12h01.02.843,00_bat_bachelor,2022.2.4,60.03425951343806,
,,,,,,,,,,,,1,0,1,0,37,0,37,0,,,,,,,37,,,0.2,1097.7445945481304,X,l,go,None,0,,,,,,,,,,,,,,,,,,,89,001,22,w,Psychologie,2023-02-01_12h01.02.843,00_bat_bachelor,2022.2.4,60.03425951343806,
,,,,,,,,,,,,1,0,1,0,38,0,38,0,,,,,,,38,,,0.2,1098.7452641234268,Y,d,go,d,1,0.5380761444102973,,,,,,,,,,,,,,,,,,89,001,22,w,Psychologie,2023-02-01_12h01.02.843,00_bat_bachelor,2022.2.4,60.03425951343806,
,,,,,,,,,,,,1,0,1,0,39,0,39,0,,,,,,,39,,,0.2,1099.5958241960034,X,l,go,l,1,0.551037592580542,,,,,,,,,,,,,,,,,,89,001,22,w,Psychologie,2023-02-01_12h01.02.843,00_bat_bachelor,2022.2.4,60.03425951343806,
,,,,,,,,,,,,1,0,1,0,40,0,40,0,,,,,,,40,,,0.2,1100.4631735936273,Y,d,go,d,1,0.4994240419473499,,,,,,,,,,,,,,,,,,89,001,22,w,Psychologie,2023-02-01_12h01.02.843,00_bat_bachelor,2022.2.4,60.03425951343806,
,,,,,,,,,,,,1,0,1,0,41,0,41,0,,,,,,,41,,,0.2,1101.2639921144582,Y,None,nogo,None,1,,,,,,,,,,,,,,,,,,,89,001,22,w,Psychologie,2023-02-01_12h01.02.843,00_bat_bachelor,2022.2.4,60.03425951343806,
,,,,,,,,,,,,1,0,1,0,42,0,42,0,,,,,,,42,,,0.2,1102.2645050839055,X,l,go,l,1,0.44370334153063595,,,,,,,,,,,,,,,,,,89,001,22,w,Psychologie,2023-02-01_12h01.02.843,00_bat_bachelor,2022.2.4,60.03425951343806,
,,,,,,,,,,,,1,0,1,0,43,0,43,0,,,,,,,43,,,0.2,1103.0153439925052,Y,d,go,d,1,0.6035781733226031,,,,,,,,,,,,,,,,,,89,001,22,w,Psychologie,2023-02-01_12h01.02.843,00_bat_bachelor,2022.2.4,60.03425951343806,
,,,,,,,,,,,,1,0,1,0,44,0,44,0,,,,,,,44,,,0.2,1103.9327297294512,X,l,go,l,1,0.6145347740966827,,,,,,,,,,,,,,,,,,89,001,22,w,Psychologie,2023-02-01_12h01.02.843,00_bat_bachelor,2022.2.4,60.03425951343806,
,,,,,,,,,,,,1,0,1,0,45,0,45,0,,,,,,,45,,,0.2,1104.8500878303312,Y,d,go,d,1,0.5466211100574583,,,,,,,,,,,,,,,,,,89,001,22,w,Psychologie,2023-02-01_12h01.02.843,00_bat_bachelor,2022.2.4,60.03425951343806,
,,,,,,,,,,,,1,0,1,0,46,0,46,0,,,,,,,46,,,0.2,1105.7006091147196,X,l,go,l,1,0.5272276648320258,,,,,,,,,,,,,,,,,,89,001,22,w,Psychologie,2023-02-01_12h01.02.843,00_bat_bachelor,2022.2.4,60.03425951343806,
,,,,,,,,,,,,1,0,1,0,47,0,47,0,,,,,,,47,,,0.2,1106.5346586499363,X,None,nogo,d,0,0.4921246515586972,,,,,,,,,,,,,,,,,,89,001,22,w,Psychologie,2023-02-01_12h01.02.843,00_bat_bachelor,2022.2.4,60.03425951343806,
,,,,,,,,,,,,1,0,1,0,48,0,48,0,,,,,,,48,,,0.2,1107.3353006858379,Y,d,go,None,0,,1108.135917509906,,,,,,,,,,,,,,,,,89,001,22,w,Psychologie,2023-02-01_12h01.02.843,00_bat_bachelor,2022.2.4,60.03425951343806,
,,,,,,,,,,,,1,0,1,0,49,0,49,0,,,,,,,49,,,0.2,1108.3360473522916,X,l,go,l,1,0.3234978241380304,,,,,,,,,,,,,,,,,,89,001,22,w,Psychologie,2023-02-01_12h01.02.843,00_bat_bachelor,2022.2.4,60.03425951343806,
,,,,,,,,,,,,1,0,1,0,50,0,50,0,,,,,,,50,,,0.2,1108.9696780752856,X,None,nogo,None,1,,,,,,,,,,,,,,,,,,,89,001,22,w,Psychologie,2023-02-01_12h01.02.843,00_bat_bachelor,2022.2.4,60.03425951343806,
,,,,,,,,,,,,1,0,1,0,51,0,51,0,,,,,,,51,,,0.2,1109.9706623172387,Y,d,go,l,0,0.06390910153277218,,,,,,,,,,,,,,,,,,89,001,22,w,Psychologie,2023-02-01_12h01.02.843,00_bat_bachelor,2022.2.4,60.03425951343806,
,,,,,,,,,,,,1,0,1,0,52,0,52,0,,,,,,,52,,,0.2,1110.3375775332097,X,l,go,None,0,,1111.1382064784411,,,,,,,,,,,,,,,,,89,001,22,w,Psychologie,2023-02-01_12h01.02.843,00_bat_bachelor,2022.2.4,60.03425951343806,
,,,,,,,,,,,,1,0,1,0,53,0,53,0,,,,,,,53,,,0.2,1111.338595714653,X,None,nogo,None,1,,,,,,,,,,,,,,,,,,,89,001,22,w,Psychologie,2023-02-01_12h01.02.843,00_bat_bachelor,2022.2.4,60.03425951343806,
,,,,,,,,,,,,1,0,1,0,54,0,54,0,,,,,,,54,,,0.2,1112.3391149870586,Y,d,go,d,1,0.3197867958806455,,,,,,,,,,,,,,,,,,89,001,22,w,Psychologie,2023-02-01_12h01.02.843,00_bat_bachelor,2022.2.4,60.03425951343806,
,,,,,,,,,,,,1,0,1,0,55,0,55,0,,,,,,,55,,,0.2,1112.9726826797705,X,l,go,l,1,0.518000517738983,,,,,,,,,,,,,,,,,,89,001,22,w,Psychologie,2023-02-01_12h01.02.843,00_bat_bachelor,2022.2.4,60.03425951343806,
,,,,,,,,,,,,1,0,1,0,56,0,56,0,,,,,,,56,,,0.2,1113.8066245785449,Y,d,go,d,1,0.4996199207380414,,,,,,,,,,,,,,,,,,89,001,22,w,Psychologie,2023-02-01_12h01.02.843,00_bat_bachelor,2022.2.4,60.03425951343806,
,,,,,,,,,,,,1,0,1,0,57,0,57,0,,,,,,,57,,,0.2,1114.6074474630877,Y,None,nogo,None,1,,,,,,,,,,,,,,,,,,,89,001,22,w,Psychologie,2023-02-01_12h01.02.843,00_bat_bachelor,2022.2.4,60.03425951343806,
,,,,,,,,,,,,1,0,1,0,58,0,58,0,,,,,,,58,,,0.2,1115.6080166748725,Y,None,nogo,None,1,,,,,,,,,,,,,,,,,,,89,001,22,w,Psychologie,2023-02-01_12h01.02.843,00_bat_bachelor,2022.2.4,60.03425951343806,
,,,,,,,,,,,,1,0,1,0,59,0,59,0,,,,,,,59,,,0.2,1116.6090290381107,X,l,go,l,1,0.24146101530641317,,,,,,,,,,,,,,,,,,89,001,22,w,Psychologie,2023-02-01_12h01.02.843,00_bat_bachelor,2022.2.4,60.03425951343806,
,,,,,,,,,,,,1,0,1,0,60,0,60,0,,,,,,,60,,,0.2,1117.1592067107558,Y,d,go,d,1,0.5088131281081587,,,,,,,,,,,,,,,,,,89,001,22,w,Psychologie,2023-02-01_12h01.02.843,00_bat_bachelor,2022.2.4,60.03425951343806,
,,,,,,,,,,,,1,0,1,0,61,0,61,0,,,,,,,61,,,0.2,1117.976518799318,Y,None,nogo,None,1,,,,,,,,,,,,,,,,,,,89,001,22,w,Psychologie,2023-02-01_12h01.02.843,00_bat_bachelor,2022.2.4,60.03425951343806,
,,,,,,,,,,,,1,0,1,0,62,0,62,0,,,,,,,62,,,0.2,1118.977253829129,X,l,go,l,1,0.49805483035743237,,,,,,,,,,,,,,,,,,89,001,22,w,Psychologie,2023-02-01_12h01.02.843,00_bat_bachelor,2022.2.4,60.03425951343806,
,,,,,,,,,,,,1,0,1,0,63,0,63,0,,,,,,,63,,,0.2,1119.7782439861912,Y,d,go,d,1,0.4329072255641222,,,,,,,,,,,,,,,,,,89,001,22,w,Psychologie,2023-02-01_12h01.02.843,00_bat_bachelor,2022.2.4,60.03425951343806,
,,,,,,,,,,,,1,0,1,0,64,0,64,0,,,,,,,64,,,0.2,1120.511780115543,X,l,go,l,1,0.6274986464995891,,,,,,,,,,,,,,,,,,89,001,22,w,Psychologie,2023-02-01_12h01.02.843,00_bat_bachelor,2022.2.4,60.03425951343806,
,,,,,,,,,,,,1,0,1,0,65,0,65,0,,,,,,,65,,,0.2,1121.4459304504562,X,None,nogo,None,1,,,,,,,,,,,,,,,,,,,89,001,22,w,Psychologie,2023-02-01_12h01.02.843,00_bat_bachelor,2022.2.4,60.03425951343806,
,,,,,,,,,,,,1,0,1,0,66,0,66,0,,,,,,,66,,,0.2,1122.4468031772412,Y,d,go,d,1,0.6285362218040973,,,,,,,,,,,,,,,,,,89,001,22,w,Psychologie,2023-02-01_12h01.02.843,00_bat_bachelor,2022.2.4,60.03425951343806,
,,,,,,,,,,,,1,0,1,0,67,0,67,0,,,,,,,67,,,0.2,1123.380610239692,X,l,go,l,1,0.5577323772013187,,,,,,,,,,,,,,,,,,89,001,22,w,Psychologie,2023-02-01_12h01.02.843,00_bat_bachelor,2022.2.4,60.03425951343806,
,,,,,,,,,,,,1,0,1,0,68,0,68,0,,,,,,,68,,,0.2,1124.2479489706457,X,None,nogo,None,1,,,,,,,,,,,,,,,,,,,89,001,22,w,Psychologie,2023-02-01_12h01.02.843,00_bat_bachelor,2022.2.4,60.03425951343806,
,,,,,,,,,,,,1,0,1,0,69,0,69,0,,,,,,,69,,,0.2,1125.2488701823168,Y,d,go,d,1,0.3547201119363308,,,,,,,,,,,,,,,,,,89,001,22,w,Psychologie,2023-02-01_12h01.02.843,00_bat_bachelor,2022.2.4,60.03425951343806,
,,,,,,,,,,,,1,0,1,0,70,0,70,0,,,,,,,70,,,0.2,1125.915962222498,X,l,go,None,0,,,,,,,,,,,,,,,,,,,89,001,22,w,Psychologie,2023-02-01_12h01.02.843,00_bat_bachelor,2022.2.4,60.03425951343806,
,,,,,,,,,,,,1,0,1,0,71,0,71,0,,,,,,,71,,,0.2,1126.9168562826235,Y,d,go,d,1,0.6385473683476448,,,,,,,,,,,,,,,,,,89,001,22,w,Psychologie,2023-02-01_12h01.02.843,00_bat_bachelor,2022.2.4,60.03425951343806,
,,,,,,,,,,,,1,0,1,0,72,0,72,0,,,,,,,72,,,0.2,1127.867485639872,Y,None,nogo,None,1,,1128.6682144638617,,,,,,,,,,,,,,,,,89,001,22,w,Psychologie,2023-02-01_12h01.02.843,00_bat_bachelor,2022.2.4,60.03425951343806,
,,,,,,,,,,,,1,0,1,0,73,0,73,0,,,,,,,73,,,0.2,1128.8681353365537,X,l,go,l,1,0.3827661592513323,,,,,,,,,,,,,,,,,,89,001,22,w,Psychologie,2023-02-01_12h01.02.843,00_bat_bachelor,2022.2.4,60.03425951343806,
,,,,,,,,,,,,1,0,1,0,74,0,74,0,,,,,,,74,,,0.2,1129.5521257929504,Y,d,go,None,0,,,,,,,,,,,,,,,,,,,89,001,22,w,Psychologie,2023-02-01_12h01.02.843,00_bat_bachelor,2022.2.4,60.03425951343806,
,,,,,,,,,,,,1,0,1,0,75,0,75,0,,,,,,,75,,,0.2,1130.5529573075473,Y,None,nogo,None,1,,1131.3535978891887,,,,,,,,,,,,,,,,,89,001,22,w,Psychologie,2023-02-01_12h01.02.843,00_bat_bachelor,2022.2.4,60.03425951343806,
,,,,,,,,,,,,1,0,1,0,76,0,76,0,,,,,,,76,,,0.2,1131.5535565800965,X,l,go,l,1,0.4181833539623767,,,,,,,,,,,,,,,,,,89,001,22,w,Psychologie,2023-02-01_12h01.02.843,00_bat_bachelor,2022.2.4,60.03425951343806,
,,,,,,,,,,,,1,0,1,0,77,0,77,0,,,,,,,77,,,0.2,1132.2874224060215,Y,d,go,d,1,0.6432644571177661,,,,,,,,,,,,,,,,,,89,001,22,w,Psychologie,2023-02-01_12h01.02.843,00_bat_bachelor,2022.2.4,60.03425951343806,
,,,,,,,,,,,,1,0,1,0,78,0,78,0,,,,,,,78,,,0.2,1133.2382389148697,Y,None,nogo,None,1,,,,,,,,,,,,,,,,,,,89,001,22,w,Psychologie,2023-02-01_12h01.02.843,00_bat_bachelor,2022.2.4,60.03425951343806,
,,,,,,,,,,,,1,0,1,0,79,0,79,0,,,,,,,79,,,0.2,1134.2391591568012,X,l,go,l,1,0.4045882089994848,,,,,,,,,,,,,,,,,,89,001,22,w,Psychologie,2023-02-01_12h01.02.843,00_bat_bachelor,2022.2.4,60.03425951343806,
,,,,,,,,,,,,1,0,1,0,80,0,80,0,,,,,,,80,,,0.2,1134.9564072939102,Y,d,go,d,1,0.42338238190859556,,,,,,,,,,,,,,,,,,89,001,22,w,Psychologie,2023-02-01_12h01.02.843,00_bat_bachelor,2022.2.4,60.03425951343806,
,,,,,,,,,,,,1,0,1,0,81,0,81,0,,,,,,,81,,,0.2,1135.6900146957487,Y,None,nogo,None,1,,,,,,,,,,,,,,,,,,,89,001,22,w,Psychologie,2023-02-01_12h01.02.843,00_bat_bachelor,2022.2.4,60.03425951343806,
,,,,,,,,,,,,1,0,1,0,82,0,82,0,,,,,,,82,,,0.2,1136.691003301181,X,l,go,l,1,0.2570173714775592,,,,,,,,,,,,,,,,,,89,001,22,w,Psychologie,2023-02-01_12h01.02.843,00_bat_bachelor,2022.2.4,60.03425951343806,
,,,,,,,,,,,,1,0,1,0,83,0,83,0,,,,,,,83,,,0.2,1137.257829693146,Y,d,go,d,1,0.5848538186401129,,,,,,,,,,,,,,,,,,89,001,22,w,Psychologie,2023-02-01_12h01.02.843,00_bat_bachelor,2022.2.4,60.03425951343806,
,,,,,,,,,,,,1,0,1,0,84,0,84,0,,,,,,,84,,,0.2,1138.15880574123,X,l,go,None,0,,1138.9591626864858,,,,,,,,,,,,,,,,,89,001,22,w,Psychologie,2023-02-01_12h01.02.843,00_bat_bachelor,2022.2.4,60.03425951343806,
,,,,,,,,,,,,1,0,1,0,85,0,85,0,,,,,,,85,,,0.2,1139.1595562861767,X,None,nogo,None,1,,,,,,,,,,,,,,,,,,,89,001,22,w,Psychologie,2023-02-01_12h01.02.843,00_bat_bachelor,2022.2.4,60.03425951343806,
,,,,,,,,,,,,1,0,1,0,86,0,86,0,,,,,,,86,,,0.2,1140.1602971344255,Y,d,go,d,1,0.41904589906334877,,,,,,,,,,,,,,,,,,89,001,22,w,Psychologie,2023-02-01_12h01.02.843,00_bat_bachelor,2022.2.4,60.03425951343806,
,,,,,,,,,,,,1,0,1,0,87,0,87,0,,,,,,,87,,,0.2,1140.893992293859,X,l,go,l,1,0.6306157358922064,,,,,,,,,,,,,,,,,,89,001,22,w,Psychologie,2023-02-01_12h01.02.843,00_bat_bachelor,2022.2.4,60.03425951343806,
,,,,,,,,,,,,1,0,1,0,88,0,88,0,,,,,,,88,,,0.2,1141.827992810635,X,None,nogo,None,1,,,,,,,,,,,,,,,,,,,89,001,22,w,Psychologie,2023-02-01_12h01.02.843,00_bat_bachelor,2022.2.4,60.03425951343806,
,,,,,,,,,,,,1,0,1,0,89,0,89,0,,,,,,,89,,,0.2,1142.8289387496188,Y,d,go,d,1,0.3116098300088197,,,,,,,,,,,,,,,,,,89,001,22,w,Psychologie,2023-02-01_12h01.02.843,00_bat_bachelor,2022.2.4,60.03425951343806,
,,,,,,,,,,,,1,0,1,0,90,0,90,0,,,,,,,90,,,0.2,1143.4458984504454,X,l,go,l,1,0.6060722325928509,,,,,,,,,,,,,,,,,,89,001,22,w,Psychologie,2023-02-01_12h01.02.843,00_bat_bachelor,2022.2.4,60.03425951343806,
,,,,,,,,,,,,1,0,1,0,91,0,91,0,,,,,,,91,,,0.2,1144.363522247877,Y,d,go,d,1,0.583569940412417,,,,,,,,,,,,,,,,,,89,001,22,w,Psychologie,2023-02-01_12h01.02.843,00_bat_bachelor,2022.2.4,60.03425951343806,
,,,,,,,,,,,,1,0,1,0,92,0,92,0,,,,,,,92,,,0.2,1145.247533455724,Y,None,nogo,None,1,,,,,,,,,,,,,,,,,,,89,001,22,w,Psychologie,2023-02-01_12h01.02.843,00_bat_bachelor,2022.2.4,60.03425951343806,
,,,,,,,,,,,,1,0,1,0,93,0,93,0,,,,,,,93,,,0.2,1146.2482835159171,X,l,go,l,1,0.3641106530558318,,,,,,,,,,,,,,,,,,89,001,22,w,Psychologie,2023-02-01_12h01.02.843,00_bat_bachelor,2022.2.4,60.03425951343806,
,,,,,,,,,,,,1,0,1,0,94,0,94,0,,,,,,,94,,,0.2,1146.9152092530858,Y,d,go,d,1,0.6553396028466523,,,,,,,,,,,,,,,,,,89,001,22,w,Psychologie,2023-02-01_12h01.02.843,00_bat_bachelor,2022.2.4,60.03425951343806,
,,,,,,,,,,,,1,0,1,0,95,0,95,0,,,,,,,95,,,0.2,1147.8828621173743,Y,None,nogo,None,1,,,,,,,,,,,,,,,,,,,89,001,22,w,Psychologie,2023-02-01_12h01.02.843,00_bat_bachelor,2022.2.4,60.03425951343806,
,,,,,,,,,,,,1,0,1,0,96,0,96,0,,,,,,,96,,,0.2,1148.883372662589,X,l,go,l,1,0.2559807659126818,,,,,,,,,,,,,,,,,,89,001,22,w,Psychologie,2023-02-01_12h01.02.843,00_bat_bachelor,2022.2.4,60.03425951343806,
,,,,,,,,,,,,1,0,1,0,97,0,97,0,,,,,,,97,,,0.2,1149.4507575996686,Y,d,go,None,0,,,,,,,,,,,,,,,,,,,89,001,22,w,Psychologie,2023-02-01_12h01.02.843,00_bat_bachelor,2022.2.4,60.03425951343806,
,,,,,,,,,,,,1,0,1,0,98,0,98,0,,,,,,,98,,,0.2,1150.45150329615,X,l,go,None,0,,1151.2520692110993,,,,,,,,,,,,,,,,,89,001,22,w,Psychologie,2023-02-01_12h01.02.843,00_bat_bachelor,2022.2.4,60.03425951343806,
,,,,,,,,,,,,1,0,1,0,99,0,99,0,,,,,,,99,,,0.2,1151.4523639017716,Y,d,go,d,1,0.5990749027114362,,,,,,,,,,,,,,,,,,89,001,22,w,Psychologie,2023-02-01_12h01.02.843,00_bat_bachelor,2022.2.4,60.03425951343806,
,,,,,,,,,,,,1,0,1,0,100,0,100,0,,,,,,,100,,,0.2,1152.3529457682744,Y,None,nogo,None,1,,1153.1532920468599,,,,,,,,,,,,,,,,,89,001,22,w,Psychologie,2023-02-01_12h01.02.843,00_bat_bachelor,2022.2.4,60.03425951343806,
,,,,,,,,,,,,1,0,1,0,101,0,101,0,,,,,,,101,,,0.2,1153.3534441923257,X,l,go,l,1,0.36175283580087125,,,,,,,,,,,,,,,,,,89,001,22,w,Psychologie,2023-02-01_12h01.02.843,00_bat_bachelor,2022.2.4,60.03425951343806,
,,,,,,,,,,,,1,0,1,0,102,0,102,0,,,,,,,102,,,0.2,1154.020936232293,Y,d,go,None,0,,1154.8213130563963,,,,,,,,,,,,,,,,,89,001,22,w,Psychologie,2023-02-01_12h01.02.843,00_bat_bachelor,2022.2.4,60.03425951343806,
,,,,,,,,,,,,1,0,1,0,103,0,103,0,,,,,,,103,,,0.2,1155.0215927166864,X,l,go,d,0,0.06965018971823156,,,,,,,,,,,,,,,,,,89,001,22,w,Psychologie,2023-02-01_12h01.02.843,00_bat_bachelor,2022.2.4,60.03425951343806,
,,,,,,,,,,,,1,0,1,0,104,0,104,0,,,,,,,104,,,0.2,1155.40501847025,Y,d,go,None,0,,,,,,,,,,,,,,,,,,,89,001,22,w,Psychologie,2023-02-01_12h01.02.843,00_bat_bachelor,2022.2.4,60.03425951343806,
,,,,,,,,,,,,1,0,1,0,105,0,105,0,,,,,,,105,,,0.2,1156.4063871968538,X,l,go,l,1,0.39733342453837395,,,,,,,,,,,,,,,,,,89,001,22,w,Psychologie,2023-02-01_12h01.02.843,00_bat_bachelor,2022.2.4,60.03425951343806,
,,,,,,,,,,,,1,0,1,0,106,0,106,0,,,,,,,106,,,0.2,1157.1069061299786,X,None,nogo,None,1,,1157.9075050144456,,,,,,,,,,,,,,,,,89,001,22,w,Psychologie,2023-02-01_12h01.02.843,00_bat_bachelor,2022.2.4,60.03425951343806,
,,,,,,,,,,,,1,0,1,0,107,0,107,0,,,,,,,107,,,0.2,1158.1076620083768,Y,d,go,d,1,0.39031039783731103,,,,,,,,,,,,,,,,,,89,001,22,w,Psychologie,2023-02-01_12h01.02.843,00_bat_bachelor,2022.2.4,60.03425951343806,
,,,,,,,,,,,,1,0,1,0,108,0,108,0,,,,,,,108,,,0.2,1158.824706993997,X,l,go,l,1,0.6341284615918994,,,,,,,,,,,,,,,,,,89,001,22,w,Psychologie,2023-02-01_12h01.02.843,00_bat_bachelor,2022.2.4,60.03425951343806,
,,,,,,,,,,,,1,0,1,0,109,0,109,0,,,,,,,109,,,0.2,1159.7587472684681,X,None,nogo,None,1,,,,,,,,,,,,,,,,,,,89,001,22,w,Psychologie,2023-02-01_12h01.02.843,00_bat_bachelor,2022.2.4,60.03425951343806,
,,,,,,,,,,,,1,0,1,0,110,0,110,0,,,,,,,110,,,0.2,1160.7595278741792,Y,d,go,d,1,0.41227111453190446,,,,,,,,,,,,,,,,,,89,001,22,w,Psychologie,2023-02-01_12h01.02.843,00_bat_bachelor,2022.2.4,60.03425951343806,
,,,,,,,,,,,,1,0,1,0,111,0,111,0,,,,,,,111,,,0.2,1161.4768768595532,X,l,go,None,0,,,,,,,,,,,,,,,,,,,89,001,22,w,Psychologie,2023-02-01_12h01.02.843,00_bat_bachelor,2022.2.4,60.03425951343806,
,,,,,,,,,,,,1,0,1,0,112,0,112,0,,,,,,,112,,,0.2,1162.4777137078345,Y,d,go,None,0,,1163.2781744105741,,,,,,,,,,,,,,,,,89,001,22,w,Psychologie,2023-02-01_12h01.02.843,00_bat_bachelor,2022.2.4,60.03425951343806,
,,,,,,,,,,,,1,0,1,0,113,0,113,0,,,,,,,113,,,0.2,1163.478420131607,Y,None,nogo,None,1,,,,,,,,,,,,,,,,,,,89,001,22,w,Psychologie,2023-02-01_12h01.02.843,00_bat_bachelor,2022.2.4,60.03425951343806,
,,,,,,,,,,,,1,0,1,0,114,0,114,0,,,,,,,114,,,0.2,1164.4791968585923,X,l,go,l,1,0.5793377000372857,,,,,,,,,,,,,,,,,,89,001,22,w,Psychologie,2023-02-01_12h01.02.843,00_bat_bachelor,2022.2.4,60.03425951343806,
,,,,,,,,,,,,1,0,1,0,115,0,115,0,,,,,,,115,,,0.2,1165.363352551125,Y,d,go,None,0,,1166.1634917994961,,,,,,,,,,,,,,,,,89,001,22,w,Psychologie,2023-02-01_12h01.02.843,00_bat_bachelor,2022.2.4,60.03425951343806,
,,,,,,,,,,,,1,0,1,0,116,0,116,0,,,,,,,116,,,0.2,1166.3634868541267,X,l,go,l,1,0.5358351757749915,,,,,,,,,,,,,,,,,,89,001,22,w,Psychologie,2023-02-01_12h01.02.843,00_bat_bachelor,2022.2.4,60.03425951343806,
,,,,,,,,,,,,1,0,1,0,117,0,117,0,,,,,,,117,,,0.2,1167.214009593241,Y,d,go,d,1,0.5164155489765108,,,,,,,,,,,,,,,,,,89,001,22,w,Psychologie,2023-02-01_12h01.02.843,00_bat_bachelor,2022.2.4,60.03425951343806,
,,,,,,,,,,,,1,0,1,0,118,0,118,0,,,,,,,118,,,0.2,1168.0315350149758,X,l,go,None,0,,,,,,,,,,,,,,,,,,,89,001,22,w,Psychologie,2023-02-01_12h01.02.843,00_bat_bachelor,2022.2.4,60.03425951343806,
,,,,,,,,,,,,1,0,1,0,119,0,119,0,,,,,,,119,,,0.2,1169.0323151357006,Y,d,go,d,1,0.6510283320676535,,,,,,,,,,,,,,,,,,89,001,22,w,Psychologie,2023-02-01_12h01.02.843,00_bat_bachelor,2022.2.4,60.03425951343806,
,,,,,,,,,,,,1,0,1,0,120,0,120,0,,,,,,,120,,,0.2,1169.9997425456531,X,l,go,None,0,,,,,,,,,,,,,,,,,,,89,001,22,w,Psychologie,2023-02-01_12h01.02.843,00_bat_bachelor,2022.2.4,60.03425951343806,
,,,,,,,,,,,,1,0,1,0,121,0,121,0,,,,,,,121,,,0.2,1171.000384969404,Y,d,go,None,0,,,,,,,,,,,,,,,,,,,89,001,22,w,Psychologie,2023-02-01_12h01.02.843,00_bat_bachelor,2022.2.4,60.03425951343806,
,,,,,,,,,,,,1,0,1,0,122,0,122,0,,,,,,,122,,,0.2,1172.0012780600227,X,l,go,l,1,0.6431742750573903,,,,,,,,,,,,,,,,,,89,001,22,w,Psychologie,2023-02-01_12h01.02.843,00_bat_bachelor,2022.2.4,60.03425951343806,
,,,,,,,,,,,,1,0,1,0,123,0,123,0,,,,,,,123,,,0.2,1172.9519559021574,Y,d,go,d,1,0.5868407269008458,,,,,,,,,,,,,,,,,,89,001,22,w,Psychologie,2023-02-01_12h01.02.843,00_bat_bachelor,2022.2.4,60.03425951343806,
,,,,,,,,,,,,1,0,1,0,124,0,124,0,,,,,,,124,,,0.2,1173.8527743744198,X,l,go,l,1,0.6314089477527887,,,,,,,,,,,,,,,,,,89,001,22,w,Psychologie,2023-02-01_12h01.02.843,00_bat_bachelor,2022.2.4,60.03425951343806,
,,,,,,,,,,,,1,0,1,0,125,0,125,0,,,,,,,125,,,0.2,1174.7866531943437,Y,d,go,d,1,0.6570433592423797,,,,,,,,,,,,,,,,,,89,001,22,w,Psychologie,2023-02-01_12h01.02.843,00_bat_bachelor,2022.2.4,60.03425951343806,
,,,,,,,,,,,,1,0,1,0,126,0,126,0,,,,,,,126,,,0.2,1175.7538260587025,Y,None,nogo,None,1,,,,,,,,,,,,,,,,,,,89,001,22,w,Psychologie,2023-02-01_12h01.02.843,00_bat_bachelor,2022.2.4,60.03425951343806,
,,,,,,,,,,,,1,0,1,0,127,0,127,0,,,,,,,127,,,0.2,1176.7546929672826,X,l,go,l,1,0.3842919764574617,,,,,,,,,,,,,,,,,,89,001,22,w,Psychologie,2023-02-01_12h01.02.843,00_bat_bachelor,2022.2.4,60.03425951343806,
,,,,,,,,,,,,1,0,1,0,128,0,128,0,,,,,,,128,,,0.2,1177.4555008700117,Y,d,go,None,0,,,,,,,,,,,,,,,,,,,89,001,22,w,Psychologie,2023-02-01_12h01.02.843,00_bat_bachelor,2022.2.4,60.03425951343806,
,,,,,,,,,,,,1,0,1,0,129,0,129,0,,,,,,,129,,,0.2,1178.4562315363437,Y,None,nogo,d,0,0.4745139933656901,,,,,,,,,,,,,,,,,,89,001,22,w,Psychologie,2023-02-01_12h01.02.843,00_bat_bachelor,2022.2.4,60.03425951343806,
,,,,,,,,,,,,1,0,1,0,130,0,130,0,,,,,,,130,,,0.2,1179.2400852169376,X,l,go,None,0,,,,,,,,,,,,,,,,,,,89,001,22,w,Psychologie,2023-02-01_12h01.02.843,00_bat_bachelor,2022.2.4,60.03425951343806,
,,,,,,,,,,,,1,0,1,0,131,0,131,0,,,,,,,131,,,0.2,1180.2408541862387,Y,d,go,d,1,0.4178444449789822,,,,,,,,,,,,,,,,,,89,001,22,w,Psychologie,2023-02-01_12h01.02.843,00_bat_bachelor,2022.2.4,60.03425951343806,
,,,,,,,,,,,,1,0,1,0,132,0,132,0,,,,,,,132,,,0.2,1180.974792254623,X,l,go,l,1,0.5810157600790262,,,,,,,,,,,,,,,,,,89,001,22,w,Psychologie,2023-02-01_12h01.02.843,00_bat_bachelor,2022.2.4,60.03425951343806,
,,,,,,,,,,,,1,0,1,0,133,0,133,0,,,,,,,133,,,0.2,1181.8586778866593,X,None,nogo,None,1,,,,,,,,,,,,,,,,,,,89,001,22,w,Psychologie,2023-02-01_12h01.02.843,00_bat_bachelor,2022.2.4,60.03425951343806,
,,,,,,,,,,,,1,0,1,0,134,0,134,0,,,,,,,134,,,0.2,1182.8594206741545,Y,d,go,None,0,,,,,,,,,,,,,,,,,,,89,001,22,w,Psychologie,2023-02-01_12h01.02.843,00_bat_bachelor,2022.2.4,60.03425951343806,
,,,,,,,,,,,,1,0,1,0,135,0,135,0,,,,,,,135,,,0.2,1183.8601552192122,X,l,go,None,0,,,,,,,,,,,,,,,,,,,89,001,22,w,Psychologie,2023-02-01_12h01.02.843,00_bat_bachelor,2022.2.4,60.03425951343806,
,,,,,,,,,,,,1,0,1,0,136,0,136,0,,,,,,,136,,,0.2,1184.8609450371005,Y,d,go,d,1,0.4859641697257757,,,,,,,,,,,,,,,,,,89,001,22,w,Psychologie,2023-02-01_12h01.02.843,00_bat_bachelor,2022.2.4,60.03425951343806,
,,,,,,,,,,,,1,0,1,0,137,0,137,0,,,,,,,137,,,0.2,1185.6615701033734,X,l,go,l,1,0.35774411051534116,,,,,,,,,,,,,,,,,,89,001,22,w,Psychologie,2023-02-01_12h01.02.843,00_bat_bachelor,2022.2.4,60.03425951343806,
,,,,,,,,,,,,1,0,1,0,138,0,138,0,,,,,,,138,,,0.2,1186.328557416331,X,None,nogo,l,0,0.6024004768114537,,,,,,,,,,,,,,,,,,89,001,22,w,Psychologie,2023-02-01_12h01.02.843,00_bat_bachelor,2022.2.4,60.03425951343806,
,,,,,,,,,,,,1,0,1,0,139,0,139,0,,,,,,,139,,,0.2,1187.2462073958013,Y,d,go,d,1,0.48443398834206164,,,,,,,,,,,,,,,,,,89,001,22,w,Psychologie,2023-02-01_12h01.02.843,00_bat_bachelor,2022.2.4,60.03425951343806,
,,,,,,,,,,,,1,0,1,0,140,0,140,0,,,,,,,140,,,0.2,1188.046879007481,X,l,go,None,0,,,,,,,,,,,,,,,,,,,89,001,22,w,Psychologie,2023-02-01_12h01.02.843,00_bat_bachelor,2022.2.4,60.03425951343806,
,,,,,,,,,,,,1,0,1,0,141,0,141,0,,,,,,,141,,,0.2,1189.0475718555972,Y,d,go,d,1,0.3647351376712322,,,,,,,,,,,,,,,,,,89,001,22,w,Psychologie,2023-02-01_12h01.02.843,00_bat_bachelor,2022.2.4,60.03425951343806,
,,,,,,,,,,,,1,0,1,0,142,0,142,0,,,,,,,142,,,0.2,1189.7148108049296,X,l,go,l,1,0.5298763907048851,,,,,,,,,,,,,,,,,,89,001,22,w,Psychologie,2023-02-01_12h01.02.843,00_bat_bachelor,2022.2.4,60.03425951343806,
,,,,,,,,,,,,1,0,1,0,143,0,143,0,,,,,,,143,,,0.2,1190.5484719765373,Y,d,go,None,0,,1191.3493360730354,,,,,,,,,,,,,,,,,89,001,22,w,Psychologie,2023-02-01_12h01.02.843,00_bat_bachelor,2022.2.4,60.03425951343806,
,,,,,,,,,,,,1,0,1,0,144,0,144,0,,,,,,,144,,,0.2,1191.549347127555,Y,None,nogo,None,1,,,,,,,,,,,,,,,,,,,89,001,22,w,Psychologie,2023-02-01_12h01.02.843,00_bat_bachelor,2022.2.4,60.03425951343806,
,,,,,,,,,,,,1,0,1,0,145,0,145,0,,,,,,,145,,,0.2,1192.5502208240796,Y,None,nogo,d,0,0.5413285065442324,,,,,,,,,,,,,,,,,,89,001,22,w,Psychologie,2023-02-01_12h01.02.843,00_bat_bachelor,2022.2.4,60.03425951343806,
,,,,,,,,,,,,1,0,1,0,146,0,146,0,,,,,,,146,,,0.2,1193.400900654029,X,l,go,l,1,0.5857304241508245,,,,,,,,,,,,,,,,,,89,001,22,w,Psychologie,2023-02-01_12h01.02.843,00_bat_bachelor,2022.2.4,60.03425951343806,
,,,,,,,,,,,,1,0,1,0,147,0,147,0,,,,,,,147,,,0.2,1194.3013923387043,Y,d,go,None,0,,,,,,,,,,,,,,,,,,,89,001,22,w,Psychologie,2023-02-01_12h01.02.843,00_bat_bachelor,2022.2.4,60.03425951343806,
,,,,,,,,,,,,1,0,1,0,148,0,148,0,,,,,,,148,,,0.2,1195.3020667626988,Y,None,nogo,None,1,,,,,,,,,,,,,,,,,,,89,001,22,w,Psychologie,2023-02-01_12h01.02.843,00_bat_bachelor,2022.2.4,60.03425951343806,
,,,,,,,,,,,,1,0,1,0,149,0,149,0,,,,,,,149,,,0.2,1196.3030917318538,X,l,go,None,0,,,,,,,,,,,,,,,,,,,89,001,22,w,Psychologie,2023-02-01_12h01.02.843,00_bat_bachelor,2022.2.4,60.03425951343806,
,,,,,,,,,,,,1,0,1,0,150,0,150,0,,,,,,,150,,,0.2,1197.3037666406017,Y,d,go,d,1,0.3644146528095007,,,,,,,,,,,,,,,,,,89,001,22,w,Psychologie,2023-02-01_12h01.02.843,00_bat_bachelor,2022.2.4,60.03425951343806,
,,,,,,,,,,,,1,0,1,0,151,0,151,0,,,,,,,151,,,0.2,1197.9709343169816,X,l,go,None,0,,1198.771416838048,,,,,,,,,,,,,,,,,89,001,22,w,Psychologie,2023-02-01_12h01.02.843,00_bat_bachelor,2022.2.4,60.03425951343806,
,,,,,,,,,,,,1,0,1,0,152,0,152,0,,,,,,,152,,,0.2,1198.9718012257945,Y,d,go,None,0,,,,,,,,,,,,,,,,,,,89,001,22,w,Psychologie,2023-02-01_12h01.02.843,00_bat_bachelor,2022.2.4,60.03425951343806,
,,,,,,,,,,,,1,0,1,0,153,0,153,0,,,,,,,153,,,0.2,1199.97249601339,X,l,go,d,0,0.2707356680184603,,,,,,,,,,,,,,,,,,89,001,22,w,Psychologie,2023-02-01_12h01.02.843,00_bat_bachelor,2022.2.4,60.03425951343806,
,,,,,,,,,,,,1,0,1,0,154,0,154,0,,,,,,,154,,,0.2,1200.5561461546458,Y,d,go,None,0,,,,,,,,,,,,,,,,,,,89,001,22,w,Psychologie,2023-02-01_12h01.02.843,00_bat_bachelor,2022.2.4,60.03425951343806,
,,,,,,,,,,,,1,0,1,0,155,0,155,0,,,,,,,155,,,0.2,1201.5571725782938,X,l,go,l,1,0.20709206257015467,,,,,,,,,,,,,,,,,,89,001,22,w,Psychologie,2023-02-01_12h01.02.843,00_bat_bachelor,2022.2.4,60.03425951343806,
,,,,,,,,,,,,1,0,1,0,156,0,156,0,,,,,,,156,,,0.2,1202.0738932974637,Y,d,go,d,1,0.49004319799132645,,,,,,,,,,,,,,,,,,89,001,22,w,Psychologie,2023-02-01_12h01.02.843,00_bat_bachelor,2022.2.4,60.03425951343806,
,,,,,,,,,,,,1,0,1,0,157,0,157,0,,,,,,,157,,,0.2,1202.874754969729,X,l,go,l,1,0.5048902209382504,,,,,,,,,,,,,,,,,,89,001,22,w,Psychologie,2023-02-01_12h01.02.843,00_bat_bachelor,2022.2.4,60.03425951343806,
,,,,,,,,,,,,1,0,1,0,158,0,158,0,,,,,,,158,,,0.2,1203.6918634220492,X,None,nogo,None,1,,,,,,,,,,,,,,,,,,,89,001,22,w,Psychologie,2023-02-01_12h01.02.843,00_bat_bachelor,2022.2.4,60.03425951343806,
,,,,,,,,,,,,1,0,1,0,159,0,159,0,,,,,,,159,,,0.2,1204.6927201489452,Y,d,go,d,1,0.46256830217316747,,,,,,,,,,,,,,,,,,89,001,22,w,Psychologie,2023-02-01_12h01.02.843,00_bat_bachelor,2022.2.4,60.03425951343806,
,,,,,,,,,,,,1,0,1,0,160,0,160,0,,,,,,,160,,,0.2,1205.460207776865,X,l,go,l,1,0.6553260269574821,,,,,,,,,,,,,,,,,,89,001,22,w,Psychologie,2023-02-01_12h01.02.843,00_bat_bachelor,2022.2.4,60.03425951343806,
,,,,,,,,,,,,1,0,1,0,161,0,161,0,,,,,,,161,,,0.2,1206.4274504594505,Y,d,go,d,1,0.5356136001646519,,,,,,,,,,,,,,,,,,89,001,22,w,Psychologie,2023-02-01_12h01.02.843,00_bat_bachelor,2022.2.4,60.03425951343806,
,,,,,,,,,,,,1,0,1,0,162,0,162,0,,,,,,,162,,,0.2,1207.2781264106743,X,l,go,None,0,,,,,,,,,,,,,,,,,,,89,001,22,w,Psychologie,2023-02-01_12h01.02.843,00_bat_bachelor,2022.2.4,60.03425951343806,
,,,,,,,,,,,,1,0,1,0,163,0,163,0,,,,,,,163,,,0.2,1208.2788527132943,X,None,nogo,None,1,,1209.0793512342498,,,,,,,,,,,,,,,,,89,001,22,w,Psychologie,2023-02-01_12h01.02.843,00_bat_bachelor,2022.2.4,60.03425951343806,
,,,,,,,,,,,,1,0,1,0,164,0,164,0,,,,,,,164,,,0.2,1209.279445197899,X,None,nogo,None,1,,,,,,,,,,,,,,,,,,,89,001,22,w,Psychologie,2023-02-01_12h01.02.843,00_bat_bachelor,2022.2.4,60.03425951343806,
,,,,,,,,,,,,1,0,1,0,165,0,165,0,,,,,,,165,,,0.2,1210.280679621501,Y,d,go,d,1,0.3477295699995011,,,,,,,,,,,,,,,,,,89,001,22,w,Psychologie,2023-02-01_12h01.02.843,00_bat_bachelor,2022.2.4,60.03425951343806,
,,,,,,,,,,,,1,0,1,0,166,0,166,0,,,,,,,166,,,0.2,1210.9306579730473,X,l,go,l,1,0.6397720952518284,,,,,,,,,,,,,,,,,,89,001,22,w,Psychologie,2023-02-01_12h01.02.843,00_bat_bachelor,2022.2.4,60.03425951343806,
,,,,,,,,,,,,1,0,1,0,167,0,167,0,,,,,,,167,,,0.2,1211.8814507240895,X,None,nogo,None,1,,,,,,,,,,,,,,,,,,,89,001,22,w,Psychologie,2023-02-01_12h01.02.843,00_bat_bachelor,2022.2.4,60.03425951343806,
,,,,,,,,,,,,1,0,1,0,168,0,168,0,,,,,,,168,,,0.2,1212.8824010267854,Y,d,go,d,1,0.40049463510513306,,,,,,,,,,,,,,,,,,89,001,22,w,Psychologie,2023-02-01_12h01.02.843,00_bat_bachelor,2022.2.4,60.03425951343806,
,,,,,,,,,,,,1,0,1,0,169,0,169,0,,,,,,,169,,,0.2,1213.5826508689206,X,l,go,l,1,0.532277359161526,,,,,,,,,,,,,,,,,,89,001,22,w,Psychologie,2023-02-01_12h01.02.843,00_bat_bachelor,2022.2.4,60.03425951343806,
,,,,,,,,,,,,1,0,1,0,170,0,170,0,,,,,,,170,,,0.2,1214.4168623432051,Y,d,go,d,1,0.5954157528467476,,,,,,,,,,,,,,,,,,89,001,22,w,Psychologie,2023-02-01_12h01.02.843,00_bat_bachelor,2022.2.4,60.03425951343806,
,,,,,,,,,,,,1,0,1,0,171,0,171,0,,,,,,,171,,,0.2,1215.317325906828,Y,None,nogo,None,1,,,,,,,,,,,,,,,,,,,89,001,22,w,Psychologie,2023-02-01_12h01.02.843,00_bat_bachelor,2022.2.4,60.03425951343806,
,,,,,,,,,,,,1,0,1,0,172,0,172,0,,,,,,,172,,,0.2,1216.318242269801,X,l,go,l,1,0.3722803459968418,,,,,,,,,,,,,,,,,,89,001,22,w,Psychologie,2023-02-01_12h01.02.843,00_bat_bachelor,2022.2.4,60.03425951343806,
,,,,,,,,,,,,1,0,1,0,173,0,173,0,,,,,,,173,,,0.2,1217.0022254534997,Y,d,go,d,1,0.584307394688949,,,,,,,,,,,,,,,,,,89,001,22,w,Psychologie,2023-02-01_12h01.02.843,00_bat_bachelor,2022.2.4,60.03425951343806,
,,,,,,,,,,,,1,0,1,0,174,0,174,0,,,,,,,174,,,0.2,1217.902734592557,X,l,go,l,1,0.5327243895735592,,,,,,,,,,,,,,,,,,89,001,22,w,Psychologie,2023-02-01_12h01.02.843,00_bat_bachelor,2022.2.4,60.03425951343806,
,,,,,,,,,,,,1,0,1,0,175,0,175,0,,,,,,,175,,,0.2,1218.7368626729585,Y,d,go,d,1,0.6257895564194769,,,,,,,,,,,,,,,,,,89,001,22,w,Psychologie,2023-02-01_12h01.02.843,00_bat_bachelor,2022.2.4,60.03425951343806,
,,,,,,,,,,,,1,0,1,0,176,0,176,0,,,,,,,176,,,0.2,1219.6709955534898,Y,None,nogo,None,1,,,,,,,,,,,,,,,,,,,89,001,22,w,Psychologie,2023-02-01_12h01.02.843,00_bat_bachelor,2022.2.4,60.03425951343806,
,,,,,,,,,,,,1,0,1,0,177,0,177,0,,,,,,,177,,,0.2,1220.6716316742823,X,l,go,l,1,0.32353127864189446,,,,,,,,,,,,,,,,,,89,001,22,w,Psychologie,2023-02-01_12h01.02.843,00_bat_bachelor,2022.2.4,60.03425951343806,
,,,,,,,,,,,,1,0,1,0,178,0,178,0,,,,,,,178,,,0.2,1221.3054325792473,Y,d,go,d,1,0.5216630613431334,,,,,,,,,,,,,,,,,,89,001,22,w,Psychologie,2023-02-01_12h01.02.843,00_bat_bachelor,2022.2.4,60.03425951343806,
,,,,,,,,,,,,1,0,1,0,179,0,179,0,,,,,,,179,,,0.2,1222.139409871772,X,l,go,l,1,0.4563486687839031,,,,,,,,,,,,,,,,,,89,001,22,w,Psychologie,2023-02-01_12h01.02.843,00_bat_bachelor,2022.2.4,60.03425951343806,
,,,,,,,,,,,,1,0,1,0,180,0,180,0,,,,,,,180,,,0.2,1222.9066114390735,Y,d,go,d,1,0.5204654862172902,,,,,,,,,,,,,,,,,,89,001,22,w,Psychologie,2023-02-01_12h01.02.843,00_bat_bachelor,2022.2.4,60.03425951343806,
,,,,,,,,,,,,1,0,1,0,181,0,181,0,,,,,,,181,,,0.2,1223.7404209743254,Y,None,nogo,None,1,,,,,,,,,,,,,,,,,,,89,001,22,w,Psychologie,2023-02-01_12h01.02.843,00_bat_bachelor,2022.2.4,60.03425951343806,
,,,,,,,,,,,,1,0,1,0,182,0,182,0,,,,,,,182,,,0.2,1224.7414750345051,X,l,go,l,1,0.3012558955233544,,,,,,,,,,,,,,,,,,89,001,22,w,Psychologie,2023-02-01_12h01.02.843,00_bat_bachelor,2022.2.4,60.03425951343806,
,,,,,,,,,,,,1,0,1,0,183,0,183,0,,,,,,,183,,,0.2,1225.3582844322082,Y,d,go,d,1,0.564357343595475,,,,,,,,,,,,,,,,,,89,001,22,w,Psychologie,2023-02-01_12h01.02.843,00_bat_bachelor,2022.2.4,60.03425951343806,
,,,,,,,,,,,,1,0,1,0,184,0,184,0,,,,,,,184,,,0.2,1226.225859284401,X,l,go,l,1,0.6582996014039963,,,,,,,,,,,,,,,,,,89,001,22,w,Psychologie,2023-02-01_12h01.02.843,00_bat_bachelor,2022.2.4,60.03425951343806,
,,,,,,,,,,,,1,0,1,0,185,0,185,0,,,,,,,185,,,0.2,1227.19331336068,X,None,nogo,None,1,,,,,,,,,,,,,,,,,,,89,001,22,w,Psychologie,2023-02-01_12h01.02.843,00_bat_bachelor,2022.2.4,60.03425951343806,
,,,,,,,,,,,,1,0,1,0,186,0,186,0,,,,,,,186,,,0.2,1228.1938088757452,Y,d,go,d,1,0.48138380819000304,,,,,,,,,,,,,,,,,,89,001,22,w,Psychologie,2023-02-01_12h01.02.843,00_bat_bachelor,2022.2.4,60.03425951343806,
,,,,,,,,,,,,1,0,1,0,187,0,187,0,,,,,,,187,,,0.2,1228.9780761317816,X,l,go,l,1,0.5296620877925307,,,,,,,,,,,,,,,,,,89,001,22,w,Psychologie,2023-02-01_12h01.02.843,00_bat_bachelor,2022.2.4,60.03425951343806,
,,,,,,,,,,,,1,0,1,0,188,0,188,0,,,,,,,188,,,0.2,1229.811924454756,Y,d,go,d,1,0.5914055730681866,,,,,,,,,,,,,,,,,,89,001,22,w,Psychologie,2023-02-01_12h01.02.843,00_bat_bachelor,2022.2.4,60.03425951343806,
,,,,,,,,,,,,1,0,1,0,189,0,189,0,,,,,,,189,,,0.2,1230.7126260786317,X,l,go,l,1,0.5868533328175545,,,,,,,,,,,,,,,,,,89,001,22,w,Psychologie,2023-02-01_12h01.02.843,00_bat_bachelor,2022.2.4,60.03425951343806,
,,,,,,,,,,,,1,0,1,0,190,0,190,0,,,,,,,190,,,0.2,1231.6133087933995,X,None,nogo,None,1,,1232.4138480417896,,,,,,,,,,,,,,,,,89,001,22,w,Psychologie,2023-02-01_12h01.02.843,00_bat_bachelor,2022.2.4,60.03425951343806,
,,,,,,,,,,,,1,0,1,0,191,0,191,0,,,,,,,191,,,0.2,1232.6138590963092,Y,d,go,None,0,,1233.4146601625253,,,,,,,,,,,,,,,,,89,001,22,w,Psychologie,2023-02-01_12h01.02.843,00_bat_bachelor,2022.2.4,60.03425951343806,
,,,,,,,,,,,,1,0,1,0,192,0,192,0,,,,,,,192,,,0.2,1233.614826853387,X,l,go,l,1,0.22864453680813313,,,,,,,,,,,,,,,,,,89,001,22,w,Psychologie,2023-02-01_12h01.02.843,00_bat_bachelor,2022.2.4,60.03425951343806,
,,,,,,,,,,,,1,0,1,0,193,0,193,0,,,,,,,193,,,0.2,1234.148604533868,Y,d,go,d,1,0.5118443996179849,,,,,,,,,,,,,,,,,,89,001,22,w,Psychologie,2023-02-01_12h01.02.843,00_bat_bachelor,2022.2.4,60.03425951343806,
,,,,,,,,,,,,1,0,1,0,194,0,194,0,,,,,,,194,,,0.2,1234.9658632893115,Y,None,nogo,None,1,,,,,,,,,,,,,,,,,,,89,001,22,w,Psychologie,2023-02-01_12h01.02.843,00_bat_bachelor,2022.2.4,60.03425951343806,
,,,,,,,,,,,,1,0,1,0,195,0,195,0,,,,,,,195,,,0.2,1235.966679773759,X,l,go,l,1,0.38909585285000503,,,,,,,,,,,,,,,,,,89,001,22,w,Psychologie,2023-02-01_12h01.02.843,00_bat_bachelor,2022.2.4,60.03425951343806,
,,,,,,,,,,,,1,0,1,0,196,0,196,0,,,,,,,196,,,0.2,1236.667185615981,Y,d,go,d,1,0.4879787142854184,,,,,,,,,,,,,,,,,,89,001,22,w,Psychologie,2023-02-01_12h01.02.843,00_bat_bachelor,2022.2.4,60.03425951343806,
,,,,,,,,,,,,1,0,1,0,197,0,197,0,,,,,,,197,,,0.2,1237.467526561115,Y,None,nogo,None,1,,,,,,,,,,,,,,,,,,,89,001,22,w,Psychologie,2023-02-01_12h01.02.843,00_bat_bachelor,2022.2.4,60.03425951343806,
,,,,,,,,,,,,1,0,1,0,198,0,198,0,,,,,,,198,,,0.2,1238.468531166669,X,l,go,l,1,0.31865370529703796,,,,,,,,,,,,,,,,,,89,001,22,w,Psychologie,2023-02-01_12h01.02.843,00_bat_bachelor,2022.2.4,60.03425951343806,
,,,,,,,,,,,,1,0,1,0,199,0,199,0,,,,,,,199,,,0.2,1239.102282132255,Y,d,go,d,1,0.5488761391025037,,,,,,,,,,,,,,,,,,89,001,22,w,Psychologie,2023-02-01_12h01.02.843,00_bat_bachelor,2022.2.4,60.03425951343806,
,,,,,,,,,,,,1,0,1,0,200,0,200,0,,,,,,,200,,,0.2,1239.9529517802875,Y,None,nogo,None,1,,,,,,,,,,,,,,,,,,,89,001,22,w,Psychologie,2023-02-01_12h01.02.843,00_bat_bachelor,2022.2.4,60.03425951343806,
,,,,,,,,,,,,1,0,1,0,201,0,201,0,,,,,,,201,,,0.2,1240.9537348102313,X,l,go,l,1,0.3620161085855216,,,,,,,,,,,,,,,,,,89,001,22,w,Psychologie,2023-02-01_12h01.02.843,00_bat_bachelor,2022.2.4,60.03425951343806,
,,,,,,,,,,,,1,0,1,0,202,0,202,0,,,,,,,202,,,0.2,1241.6208433352876,Y,d,go,d,1,0.5747510355431587,,,,,,,,,,,,,,,,,,89,001,22,w,Psychologie,2023-02-01_12h01.02.843,00_bat_bachelor,2022.2.4,60.03425951343806,
,,,,,,,,,,,,1,0,1,0,203,0,203,0,,,,,,,203,,,0.2,1242.5047037552577,Y,None,nogo,None,1,,,,,,,,,,,,,,,,,,,89,001,22,w,Psychologie,2023-02-01_12h01.02.843,00_bat_bachelor,2022.2.4,60.03425951343806,
