loop_instruction.thisRepN,loop_instruction.thisTrialN,loop_instruction.thisN,loop_instruction.thisIndex,loop_rsi_practice.thisRepN,loop_rsi_practice.thisTrialN,loop_rsi_practice.thisN,loop_rsi_practice.thisIndex,loop_practice.thisRepN,loop_practice.thisTrialN,loop_practice.thisN,loop_practice.thisIndex,loop_exp.thisRepN,loop_exp.thisTrialN,loop_exp.thisN,loop_exp.thisIndex,loop_trials.thisRepN,loop_trials.thisTrialN,loop_trials.thisN,loop_trials.thisIndex,map_condition,map_x_key,map_y_key,key_resp_welcome.started,key_resp_welcome.keys,key_resp_welcome.rt,index,text_empty_rsi_practice.started,text_empty_rsi_practice.stopped,rsi,stimulus.started,stimulus,correct,trial_type,key_resp_trial.keys,key_resp_trial.corr,key_resp_trial.rt,stimulus.stopped,key_resp_instruction_rsi.started,key_resp_instruction_rsi.keys,key_resp_instruction_rsi.rt,key_resp_instruction_rsi.stopped,key_resp_instruction_final.started,key_resp_instruction_final.keys,key_resp_instruction_final.rt,key_resp_break.started,key_resp_break.keys,key_resp_break.rt,key_resp_break.stopped,key_resp_end_screen.started,image_end_screen.started,key_resp_end_screen.stopped,image_end_screen.stopped,key_resp_end_screen.keys,participant,session,Alter,Geschlecht (w/m/d/andere),Studiengang,date,expName,psychopyVersion,frameRate,
,,,,0,0,0,0,0,0,0,0,,,,,,,,,0,d,l,637.2274212011738,j,30.82428963711652,0,668.0856475566776,669.1197309671423,1,669.1197309671423,X,d,go,None,0,,,,,,,,,,,,,,,,,,,8,001,21,w,Psychologie,2023-01-09_09h03.20.146,00_bat_bachelor,2022.2.4,59.96421043449304,
,,,,0,0,0,0,1,0,1,0,,,,,,,,,,,,,,,1,670.5186688575365,671.5213883740065,1,671.5213883740065,Y,l,go,l,1,0.3377618860728262,,,,,,,,,,,,,,,,,,8,001,21,w,Psychologie,2023-01-09_09h03.20.146,00_bat_bachelor,2022.2.4,59.96421043449304,
,,,,0,0,0,0,2,0,2,0,,,,,,,,,,,,,,,2,672.5702931249906,673.5710354283807,1,673.5710354283807,X,d,go,d,1,0.4765798927722926,,,,,,,,,,,,,,,,,,8,001,21,w,Psychologie,2023-01-09_09h03.20.146,00_bat_bachelor,2022.2.4,59.96421043449304,
,,,,0,0,0,0,3,0,3,0,,,,,,,,,,,,,,,3,674.7720609803931,675.7724794048385,1,675.7724794048385,Y,l,go,l,1,0.5162235483570612,,,,,,,,,,,,,,,,,,8,001,21,w,Psychologie,2023-01-09_09h03.20.146,00_bat_bachelor,2022.2.4,59.96421043449304,
,,,,0,0,0,0,4,0,4,0,,,,,,,,,,,,,,,4,676.9904038741353,677.9909677531965,1,677.9909677531965,X,d,go,d,1,0.32979533675563744,,,,,,,,,,,,,,,,,,8,001,21,w,Psychologie,2023-01-09_09h03.20.146,00_bat_bachelor,2022.2.4,59.96421043449304,
,,,,0,0,0,0,5,0,5,0,,,,,,,,,,,,,,,5,679.0414623231333,680.0422734750417,1,680.0422734750417,X,None,nogo,d,0,0.4067030104077958,,,,,,,,,,,,,,,,,,8,001,21,w,Psychologie,2023-01-09_09h03.20.146,00_bat_bachelor,2022.2.4,59.96421043449304,
,,,,0,0,0,0,6,0,6,0,,,,,,,,,,,,,,,6,681.5765505825699,682.5774810072636,1,682.5774810072636,Y,l,go,l,1,0.47998401563484094,,,,,,,,,,,,,,,,,,8,001,21,w,Psychologie,2023-01-09_09h03.20.146,00_bat_bachelor,2022.2.4,59.96421043449304,
,,,,0,0,0,0,7,0,7,0,,,,,,,,,,,,,,,7,683.7617724905564,684.7624600060411,1,684.7624600060411,X,d,go,d,1,0.5342933753000807,,,,,,,,,,,,,,,,,,8,001,21,w,Psychologie,2023-01-09_09h03.20.146,00_bat_bachelor,2022.2.4,59.96421043449304,
,,,,0,0,0,0,8,0,8,0,,,,,,,,,,,,,,,8,686.013258673095,687.0143394008918,1,687.0143394008918,Y,l,go,l,1,0.5226196726704302,,,,,,,,,,,,,,,,,,8,001,21,w,Psychologie,2023-01-09_09h03.20.146,00_bat_bachelor,2022.2.4,59.96421043449304,
,,,,0,0,0,0,9,0,9,0,,,,,,,,,,,,,,,9,688.2482905446258,689.2490372116544,1,689.2490372116544,Y,None,nogo,None,1,,690.049853599929,,,,,,,,,,,,,,,,,8,001,21,w,Psychologie,2023-01-09_09h03.20.146,00_bat_bachelor,2022.2.4,59.96421043449304,
,,,,0,0,0,0,10,0,10,0,,,,,,,,,,,,,,,10,690.6503125577273,691.6511067399305,1,691.6511067399305,X,d,go,d,1,0.3813100283988433,,,,,,,,,,,,,,,,,,8,001,21,w,Psychologie,2023-01-09_09h03.20.146,00_bat_bachelor,2022.2.4,59.96421043449304,
,,,,0,0,0,0,11,0,11,0,,,,,,,,,,,,,,,11,692.7352347807199,693.735810780999,1,693.735810780999,Y,l,go,l,1,0.5208223384655639,,,,,,,,,,,,,,,,,,8,001,21,w,Psychologie,2023-01-09_09h03.20.146,00_bat_bachelor,2022.2.4,59.96421043449304,
,,,,0,0,0,0,12,0,12,0,,,,,,,,,,,,,,,12,694.969935015726,695.970741803996,1,695.970741803996,Y,None,nogo,None,1,,,,,,,,,,,,,,,,,,,8,001,21,w,Psychologie,2023-01-09_09h03.20.146,00_bat_bachelor,2022.2.4,59.96421043449304,
,,,,0,0,0,0,13,0,13,0,,,,,,,,,,,,,,,13,697.371906119712,698.3727158170742,1,698.3727158170742,X,d,go,d,1,0.3650932932636124,,,,,,,,,,,,,,,,,,8,001,21,w,Psychologie,2023-01-09_09h03.20.146,00_bat_bachelor,2022.2.4,59.96421043449304,
,,,,0,0,0,0,14,0,14,0,,,,,,,,,,,,,,,14,699.4399604557383,700.4407725773443,1,700.4407725773443,Y,l,go,l,1,0.5354996789152437,,,,,,,,,,,,,,,,,,8,001,21,w,Psychologie,2023-01-09_09h03.20.146,00_bat_bachelor,2022.2.4,59.96421043449304,
,,,,1,0,1,0,0,0,0,0,,,,,,,,,,,,,,,0,717.4869224179018,717.6874175454146,0.2,717.6874175454146,X,d,go,d,1,0.649005188493561,,701.7164304079662,j,15.74321614326243,,,,,,,,,,,,,,8,001,21,w,Psychologie,2023-01-09_09h03.20.146,00_bat_bachelor,2022.2.4,59.96421043449304,
,,,,1,0,1,0,1,0,1,0,,,,,,,,,,,,,,,1,719.038447048944,719.238623145999,0.2,719.238623145999,Y,l,go,l,1,0.32975945795021744,,,,,,,,,,,,,,,,,,8,001,21,w,Psychologie,2023-01-09_09h03.20.146,00_bat_bachelor,2022.2.4,59.96421043449304,
,,,,1,0,1,0,2,0,2,0,,,,,,,,,,,,,,,2,720.2727366170844,720.4727813201363,0.2,720.4727813201363,X,d,go,d,1,0.39287318552067063,,,,,,,,,,,,,,,,,,8,001,21,w,Psychologie,2023-01-09_09h03.20.146,00_bat_bachelor,2022.2.4,59.96421043449304,
,,,,1,0,1,0,3,0,3,0,,,,,,,,,,,,,,,3,721.5736264599401,721.7738321327671,0.2,721.7738321327671,Y,l,go,l,1,0.46745067622475744,,,,,,,,,,,,,,,,,,8,001,21,w,Psychologie,2023-01-09_09h03.20.146,00_bat_bachelor,2022.2.4,59.96421043449304,
,,,,1,0,1,0,4,0,4,0,,,,,,,,,,,,,,,4,722.9582230100474,723.1582706221917,0.2,723.1582706221917,X,d,go,d,1,0.3467820116583198,,,,,,,,,,,,,,,,,,8,001,21,w,Psychologie,2023-01-09_09h03.20.146,00_bat_bachelor,2022.2.4,59.96421043449304,
,,,,1,0,1,0,5,0,5,0,,,,,,,,,,,,,,,5,724.2089460407011,724.409172562023,0.2,724.409172562023,X,None,nogo,l,0,0.4879195346339884,,,,,,,,,,,,,,,,,,8,001,21,w,Psychologie,2023-01-09_09h03.20.146,00_bat_bachelor,2022.2.4,59.96421043449304,
,,,,1,0,1,0,6,0,6,0,,,,,,,,,,,,,,,6,726.0101871564544,726.2105877384669,0.2,726.2105877384669,Y,l,go,None,0,,727.0111689751121,,,,,,,,,,,,,,,,,8,001,21,w,Psychologie,2023-01-09_09h03.20.146,00_bat_bachelor,2022.2.4,59.96421043449304,
,,,,1,0,1,0,7,0,7,0,,,,,,,,,,,,,,,7,727.611723932957,727.811787545109,0.2,727.811787545109,X,d,go,None,0,,728.6120992058662,,,,,,,,,,,,,,,,,8,001,21,w,Psychologie,2023-01-09_09h03.20.146,00_bat_bachelor,2022.2.4,59.96421043449304,
,,,,1,0,1,0,8,0,8,0,,,,,,,,,,,,,,,8,729.2125421636568,729.4128826244279,0.2,729.4128826244279,X,None,nogo,d,0,0.39613718710313606,,,,,,,,,,,,,,,,,,8,001,21,w,Psychologie,2023-01-09_09h03.20.146,00_bat_bachelor,2022.2.4,59.96421043449304,
,,,,1,0,1,0,9,0,9,0,,,,,,,,,,,,,,,9,730.9141022613829,731.1139646613161,0.2,731.1139646613161,Y,l,go,l,1,0.5822492773392014,,,,,,,,,,,,,,,,,,8,001,21,w,Psychologie,2023-01-09_09h03.20.146,00_bat_bachelor,2022.2.4,59.96421043449304,
,,,,1,0,1,0,10,0,10,0,,,,,,,,,,,,,,,10,732.3986086781132,732.5988104721506,0.2,732.5988104721506,X,d,go,d,1,0.3946879742792362,,,,,,,,,,,,,,,,,,8,001,21,w,Psychologie,2023-01-09_09h03.20.146,00_bat_bachelor,2022.2.4,59.96421043449304,
,,,,1,0,1,0,11,0,11,0,,,,,,,,,,,,,,,11,733.6993656724197,733.8999655272561,0.2,733.8999655272561,Y,l,go,l,1,0.4535360028115747,,,,,,,,,,,,,,,,,,8,001,21,w,Psychologie,2023-01-09_09h03.20.146,00_bat_bachelor,2022.2.4,59.96421043449304,
,,,,1,0,1,0,12,0,12,0,,,,,,,,,,,,,,,12,735.0673745781211,735.2674081296524,0.2,735.2674081296524,Y,None,nogo,None,1,,,,,,,,,,,,,,,,,,,8,001,21,w,Psychologie,2023-01-09_09h03.20.146,00_bat_bachelor,2022.2.4,59.96421043449304,
,,,,1,0,1,0,13,0,13,0,,,,,,,,,,,,,,,13,736.6685399605043,736.8686986030053,0.2,736.8686986030053,X,d,go,d,1,0.31624042109240236,,,,,,,,,,,,,,,,,,8,001,21,w,Psychologie,2023-01-09_09h03.20.146,00_bat_bachelor,2022.2.4,59.96421043449304,
,,,,1,0,1,0,14,0,14,0,,,,,,,,,,,,,,,14,737.8861085508405,738.0863384661035,0.2,738.0863384661035,Y,l,go,l,1,0.36318347415578955,,,,,,,,,,,,,,,,,,8,001,21,w,Psychologie,2023-01-09_09h03.20.146,00_bat_bachelor,2022.2.4,59.96421043449304,
,,,,,,,,,,,,,,,,,,,,,,,,,,,,,,,,,,,,,,739.1937717303136,None,,739.1937717303136,739.1937717303136,space,10.010813848764542,,,,,,,,,,8,001,21,w,Psychologie,2023-01-09_09h03.20.146,00_bat_bachelor,2022.2.4,59.96421043449304,
,,,,,,,,,,,,0,0,0,0,0,0,0,0,,,,,,,0,,,1,750.2288936867363,X,d,go,d,1,0.2832644051039779,,,,,,,,,,,,,,,,,,8,001,21,w,Psychologie,2023-01-09_09h03.20.146,00_bat_bachelor,2022.2.4,59.96421043449304,
,,,,,,,,,,,,0,0,0,0,1,0,1,0,,,,,,,1,,,1,751.6133326610098,Y,l,go,l,1,0.403480705815241,,,,,,,,,,,,,,,,,,8,001,21,w,Psychologie,2023-01-09_09h03.20.146,00_bat_bachelor,2022.2.4,59.96421043449304,
,,,,,,,,,,,,0,0,0,0,2,0,2,0,,,,,,,2,,,1,753.1312238211993,X,d,go,d,1,0.453586427078676,,,,,,,,,,,,,,,,,,8,001,21,w,Psychologie,2023-01-09_09h03.20.146,00_bat_bachelor,2022.2.4,59.96421043449304,
,,,,,,,,,,,,0,0,0,0,3,0,3,0,,,,,,,3,,,1,754.6992255511396,Y,l,go,l,1,0.46887564661267334,,,,,,,,,,,,,,,,,,8,001,21,w,Psychologie,2023-01-09_09h03.20.146,00_bat_bachelor,2022.2.4,59.96421043449304,
,,,,,,,,,,,,0,0,0,0,4,0,4,0,,,,,,,4,,,1,756.283700501188,X,d,go,d,1,0.35631801628153426,,,,,,,,,,,,,,,,,,8,001,21,w,Psychologie,2023-01-09_09h03.20.146,00_bat_bachelor,2022.2.4,59.96421043449304,
,,,,,,,,,,,,0,0,0,0,5,0,5,0,,,,,,,5,,,1,757.7515063037607,X,None,nogo,None,1,,,,,,,,,,,,,,,,,,,8,001,21,w,Psychologie,2023-01-09_09h03.20.146,00_bat_bachelor,2022.2.4,59.96421043449304,
,,,,,,,,,,,,0,0,0,0,6,0,6,0,,,,,,,6,,,1,759.5529748135635,Y,l,go,l,1,0.4808737130359759,,,,,,,,,,,,,,,,,,8,001,21,w,Psychologie,2023-01-09_09h03.20.146,00_bat_bachelor,2022.2.4,59.96421043449304,
,,,,,,,,,,,,0,0,0,0,7,0,7,0,,,,,,,7,,,1,761.1369605512535,X,d,go,d,1,0.4157648329832,,,,,,,,,,,,,,,,,,8,001,21,w,Psychologie,2023-01-09_09h03.20.146,00_bat_bachelor,2022.2.4,59.96421043449304,
,,,,,,,,,,,,0,0,0,0,8,0,8,0,,,,,,,8,,,1,762.654912802382,Y,l,go,l,1,0.46573334205879746,,,,,,,,,,,,,,,,,,8,001,21,w,Psychologie,2023-01-09_09h03.20.146,00_bat_bachelor,2022.2.4,59.96421043449304,
,,,,,,,,,,,,0,0,0,0,9,0,9,0,,,,,,,9,,,1,764.2225707745798,X,d,go,d,1,0.43403441759858197,,,,,,,,,,,,,,,,,,8,001,21,w,Psychologie,2023-01-09_09h03.20.146,00_bat_bachelor,2022.2.4,59.96421043449304,
,,,,,,,,,,,,0,0,0,0,10,0,10,0,,,,,,,10,,,1,765.7737535872744,Y,l,go,l,1,0.3081710838470144,,,,,,,,,,,,,,,,,,8,001,21,w,Psychologie,2023-01-09_09h03.20.146,00_bat_bachelor,2022.2.4,59.96421043449304,
,,,,,,,,,,,,0,0,0,0,11,0,11,0,,,,,,,11,,,1,767.1917523353951,Y,None,nogo,None,1,,767.9922041174324,,,,,,,,,,,,,,,,,8,001,21,w,Psychologie,2023-01-09_09h03.20.146,00_bat_bachelor,2022.2.4,59.96421043449304,
,,,,,,,,,,,,0,0,0,0,12,0,12,0,,,,,,,12,,,1,768.9931456936464,Y,None,nogo,l,0,0.48061334927331245,,,,,,,,,,,,,,,,,,8,001,21,w,Psychologie,2023-01-09_09h03.20.146,00_bat_bachelor,2022.2.4,59.96421043449304,
,,,,,,,,,,,,0,0,0,0,13,0,13,0,,,,,,,13,,,1,770.5777714316467,X,d,go,d,1,0.5112562732214201,,,,,,,,,,,,,,,,,,8,001,21,w,Psychologie,2023-01-09_09h03.20.146,00_bat_bachelor,2022.2.4,59.96421043449304,
,,,,,,,,,,,,0,0,0,0,14,0,14,0,,,,,,,14,,,1,772.195609306962,Y,l,go,l,1,0.4129963467922835,,,,,,,,,,,,,,,,,,8,001,21,w,Psychologie,2023-01-09_09h03.20.146,00_bat_bachelor,2022.2.4,59.96421043449304,
,,,,,,,,,,,,0,0,0,0,15,0,15,0,,,,,,,15,,,1,773.7132973155382,Y,None,nogo,None,1,,,,,,,,,,,,,,,,,,,8,001,21,w,Psychologie,2023-01-09_09h03.20.146,00_bat_bachelor,2022.2.4,59.96421043449304,
,,,,,,,,,,,,0,0,0,0,16,0,16,0,,,,,,,16,,,1,775.5152482498173,X,d,go,d,1,0.29363531922342645,,,,,,,,,,,,,,,,,,8,001,21,w,Psychologie,2023-01-09_09h03.20.146,00_bat_bachelor,2022.2.4,59.96421043449304,
,,,,,,,,,,,,0,0,0,0,17,0,17,0,,,,,,,17,,,1,776.9490026419406,Y,l,go,l,1,0.34793643646037253,,,,,,,,,,,,,,,,,,8,001,21,w,Psychologie,2023-01-09_09h03.20.146,00_bat_bachelor,2022.2.4,59.96421043449304,
,,,,,,,,,,,,0,0,0,0,18,0,18,0,,,,,,,18,,,1,778.4002241940481,X,d,go,d,1,0.30485762769478697,,,,,,,,,,,,,,,,,,8,001,21,w,Psychologie,2023-01-09_09h03.20.146,00_bat_bachelor,2022.2.4,59.96421043449304,
,,,,,,,,,,,,0,0,0,0,19,0,19,0,,,,,,,19,,,1,779.8181521542555,Y,l,go,l,1,0.2642481534600165,,,,,,,,,,,,,,,,,,8,001,21,w,Psychologie,2023-01-09_09h03.20.146,00_bat_bachelor,2022.2.4,59.96421043449304,
,,,,,,,,,,,,0,0,0,0,20,0,20,0,,,,,,,20,,,1,781.185864817389,X,d,go,d,1,0.41559416623374545,,,,,,,,,,,,,,,,,,8,001,21,w,Psychologie,2023-01-09_09h03.20.146,00_bat_bachelor,2022.2.4,59.96421043449304,
,,,,,,,,,,,,0,0,0,0,21,0,21,0,,,,,,,21,,,1,782.7036299169114,Y,l,go,l,1,0.35283243883407067,,,,,,,,,,,,,,,,,,8,001,21,w,Psychologie,2023-01-09_09h03.20.146,00_bat_bachelor,2022.2.4,59.96421043449304,
,,,,,,,,,,,,0,0,0,0,22,0,22,0,,,,,,,22,,,1,784.1713290527656,Y,None,nogo,None,1,,,,,,,,,,,,,,,,,,,8,001,21,w,Psychologie,2023-01-09_09h03.20.146,00_bat_bachelor,2022.2.4,59.96421043449304,
,,,,,,,,,,,,0,0,0,0,23,0,23,0,,,,,,,23,,,1,785.9728513807764,X,d,go,d,1,0.3657977784536115,,,,,,,,,,,,,,,,,,8,001,21,w,Psychologie,2023-01-09_09h03.20.146,00_bat_bachelor,2022.2.4,59.96421043449304,
,,,,,,,,,,,,0,0,0,0,24,0,24,0,,,,,,,24,,,1,787.4405413045048,Y,l,go,l,1,0.3521987415571175,,,,,,,,,,,,,,,,,,8,001,21,w,Psychologie,2023-01-09_09h03.20.146,00_bat_bachelor,2022.2.4,59.96421043449304,
,,,,,,,,,,,,0,0,0,0,25,0,25,0,,,,,,,25,,,1,788.909268804494,Y,None,nogo,None,1,,789.7097361016903,,,,,,,,,,,,,,,,,8,001,21,w,Psychologie,2023-01-09_09h03.20.146,00_bat_bachelor,2022.2.4,59.96421043449304,
,,,,,,,,,,,,0,0,0,0,26,0,26,0,,,,,,,26,,,1,790.7102393746615,X,d,go,d,1,0.2013036380927815,,,,,,,,,,,,,,,,,,8,001,21,w,Psychologie,2023-01-09_09h03.20.146,00_bat_bachelor,2022.2.4,59.96421043449304,
,,,,,,,,,,,,0,0,0,0,27,0,27,0,,,,,,,27,,,1,792.0444969912713,Y,l,go,l,1,0.3077221139323001,,,,,,,,,,,,,,,,,,8,001,21,w,Psychologie,2023-01-09_09h03.20.146,00_bat_bachelor,2022.2.4,59.96421043449304,
,,,,,,,,,,,,0,0,0,0,28,0,28,0,,,,,,,28,,,1,793.479026171649,Y,None,nogo,None,1,,794.2799390448189,,,,,,,,,,,,,,,,,8,001,21,w,Psychologie,2023-01-09_09h03.20.146,00_bat_bachelor,2022.2.4,59.96421043449304,
,,,,,,,,,,,,0,0,0,0,29,0,29,0,,,,,,,29,,,1,795.2805572269368,X,d,go,d,1,0.39961258272739997,,,,,,,,,,,,,,,,,,8,001,21,w,Psychologie,2023-01-09_09h03.20.146,00_bat_bachelor,2022.2.4,59.96421043449304,
,,,,,,,,,,,,0,0,0,0,30,0,30,0,,,,,,,30,,,1,796.8148435465909,Y,l,go,l,1,0.4017056746514527,,,,,,,,,,,,,,,,,,8,001,21,w,Psychologie,2023-01-09_09h03.20.146,00_bat_bachelor,2022.2.4,59.96421043449304,
,,,,,,,,,,,,0,0,0,0,31,0,31,0,,,,,,,31,,,1,798.349721381683,X,d,go,d,1,0.4505309104455364,,,,,,,,,,,,,,,,,,8,001,21,w,Psychologie,2023-01-09_09h03.20.146,00_bat_bachelor,2022.2.4,59.96421043449304,
,,,,,,,,,,,,0,0,0,0,32,0,32,0,,,,,,,32,,,1,799.9339005740125,X,None,nogo,None,1,,800.7349787805957,,,,,,,,,,,,,,,,,8,001,21,w,Psychologie,2023-01-09_09h03.20.146,00_bat_bachelor,2022.2.4,59.96421043449304,
,,,,,,,,,,,,0,0,0,0,33,0,33,0,,,,,,,33,,,1,801.7352919928688,X,None,nogo,None,1,,802.5361515326796,,,,,,,,,,,,,,,,,8,001,21,w,Psychologie,2023-01-09_09h03.20.146,00_bat_bachelor,2022.2.4,59.96421043449304,
,,,,,,,,,,,,0,0,0,0,34,0,34,0,,,,,,,34,,,1,803.5369471694288,Y,l,go,l,1,0.22372740654066092,,,,,,,,,,,,,,,,,,8,001,21,w,Psychologie,2023-01-09_09h03.20.146,00_bat_bachelor,2022.2.4,59.96421043449304,
,,,,,,,,,,,,0,0,0,0,35,0,35,0,,,,,,,35,,,1,804.9046215295135,X,d,go,d,1,0.2798665852750446,,,,,,,,,,,,,,,,,,8,001,21,w,Psychologie,2023-01-09_09h03.20.146,00_bat_bachelor,2022.2.4,59.96421043449304,
,,,,,,,,,,,,0,0,0,0,36,0,36,0,,,,,,,36,,,1,806.3056869360906,Y,l,go,l,1,0.4637406138200504,,,,,,,,,,,,,,,,,,8,001,21,w,Psychologie,2023-01-09_09h03.20.146,00_bat_bachelor,2022.2.4,59.96421043449304,
,,,,,,,,,,,,0,0,0,0,37,0,37,0,,,,,,,37,,,1,807.8899320678457,X,d,go,d,1,0.28586610333525186,,,,,,,,,,,,,,,,,,8,001,21,w,Psychologie,2023-01-09_09h03.20.146,00_bat_bachelor,2022.2.4,59.96421043449304,
,,,,,,,,,,,,0,0,0,0,38,0,38,0,,,,,,,38,,,1,809.3079409977896,Y,l,go,l,1,0.4372441161248162,,,,,,,,,,,,,,,,,,8,001,21,w,Psychologie,2023-01-09_09h03.20.146,00_bat_bachelor,2022.2.4,59.96421043449304,
,,,,,,,,,,,,0,0,0,0,39,0,39,0,,,,,,,39,,,1,810.8591049013841,X,d,go,d,1,0.2608411215049955,,,,,,,,,,,,,,,,,,8,001,21,w,Psychologie,2023-01-09_09h03.20.146,00_bat_bachelor,2022.2.4,59.96421043449304,
,,,,,,,,,,,,0,0,0,0,40,0,40,0,,,,,,,40,,,1,812.2434633907702,Y,l,go,l,1,0.3169594517440828,,,,,,,,,,,,,,,,,,8,001,21,w,Psychologie,2023-01-09_09h03.20.146,00_bat_bachelor,2022.2.4,59.96421043449304,
,,,,,,,,,,,,0,0,0,0,41,0,41,0,,,,,,,41,,,1,813.6610815326457,X,d,go,d,1,0.4350201150465409,,,,,,,,,,,,,,,,,,8,001,21,w,Psychologie,2023-01-09_09h03.20.146,00_bat_bachelor,2022.2.4,59.96421043449304,
,,,,,,,,,,,,0,0,0,0,42,0,42,0,,,,,,,42,,,1,815.2122827695915,Y,l,go,l,1,0.5161706998466116,,,,,,,,,,,,,,,,,,8,001,21,w,Psychologie,2023-01-09_09h03.20.146,00_bat_bachelor,2022.2.4,59.96421043449304,
,,,,,,,,,,,,0,0,0,0,43,0,43,0,,,,,,,43,,,1,816.863803570329,Y,None,nogo,None,1,,817.6645220191621,,,,,,,,,,,,,,,,,8,001,21,w,Psychologie,2023-01-09_09h03.20.146,00_bat_bachelor,2022.2.4,59.96421043449304,
,,,,,,,,,,,,0,0,0,0,44,0,44,0,,,,,,,44,,,1,818.6651096558106,X,d,go,d,1,0.24789711522919333,,,,,,,,,,,,,,,,,,8,001,21,w,Psychologie,2023-01-09_09h03.20.146,00_bat_bachelor,2022.2.4,59.96421043449304,
,,,,,,,,,,,,0,0,0,0,45,0,45,0,,,,,,,45,,,1,820.0325537127534,Y,l,go,l,1,0.23946705053583628,,,,,,,,,,,,,,,,,,8,001,21,w,Psychologie,2023-01-09_09h03.20.146,00_bat_bachelor,2022.2.4,59.96421043449304,
,,,,,,,,,,,,0,0,0,0,46,0,46,0,,,,,,,46,,,1,821.4006246790908,X,d,go,d,1,0.26421906253665384,,,,,,,,,,,,,,,,,,8,001,21,w,Psychologie,2023-01-09_09h03.20.146,00_bat_bachelor,2022.2.4,59.96421043449304,
,,,,,,,,,,,,0,0,0,0,47,0,47,0,,,,,,,47,,,1,822.7847009865217,Y,l,go,l,1,0.31929302863329667,,,,,,,,,,,,,,,,,,8,001,21,w,Psychologie,2023-01-09_09h03.20.146,00_bat_bachelor,2022.2.4,59.96421043449304,
,,,,,,,,,,,,0,0,0,0,48,0,48,0,,,,,,,48,,,1,824.2357765991643,X,d,go,d,1,0.2767116746543934,,,,,,,,,,,,,,,,,,8,001,21,w,Psychologie,2023-01-09_09h03.20.146,00_bat_bachelor,2022.2.4,59.96421043449304,
,,,,,,,,,,,,0,0,0,0,49,0,49,0,,,,,,,49,,,1,825.6369821270217,Y,l,go,l,1,0.2192444952762571,,,,,,,,,,,,,,,,,,8,001,21,w,Psychologie,2023-01-09_09h03.20.146,00_bat_bachelor,2022.2.4,59.96421043449304,
,,,,,,,,,,,,0,0,0,0,50,0,50,0,,,,,,,50,,,1,826.9881270245463,Y,None,nogo,d,0,0.19520278665015667,,,,,,,,,,,,,,,,,,8,001,21,w,Psychologie,2023-01-09_09h03.20.146,00_bat_bachelor,2022.2.4,59.96421043449304,
,,,,,,,,,,,,0,0,0,0,51,0,51,0,,,,,,,51,,,1,828.3057446330882,X,d,go,d,1,0.55861775073015,,,,,,,,,,,,,,,,,,8,001,21,w,Psychologie,2023-01-09_09h03.20.146,00_bat_bachelor,2022.2.4,59.96421043449304,
,,,,,,,,,,,,0,0,0,0,52,0,52,0,,,,,,,52,,,1,829.9903684801787,Y,l,go,l,1,0.26592524518207483,,,,,,,,,,,,,,,,,,8,001,21,w,Psychologie,2023-01-09_09h03.20.146,00_bat_bachelor,2022.2.4,59.96421043449304,
,,,,,,,,,,,,0,0,0,0,53,0,53,0,,,,,,,53,,,1,831.3745727876716,X,d,go,d,1,0.3858758487946261,,,,,,,,,,,,,,,,,,8,001,21,w,Psychologie,2023-01-09_09h03.20.146,00_bat_bachelor,2022.2.4,59.96421043449304,
,,,,,,,,,,,,0,0,0,0,54,0,54,0,,,,,,,54,,,1,832.8755495154179,X,None,nogo,None,1,,833.6762519642433,,,,,,,,,,,,,,,,,8,001,21,w,Psychologie,2023-01-09_09h03.20.146,00_bat_bachelor,2022.2.4,59.96421043449304,
,,,,,,,,,,,,0,0,0,0,55,0,55,0,,,,,,,55,,,1,834.6770243282541,Y,l,go,l,1,0.2837764053523415,,,,,,,,,,,,,,,,,,8,001,21,w,Psychologie,2023-01-09_09h03.20.146,00_bat_bachelor,2022.2.4,59.96421043449304,
,,,,,,,,,,,,0,0,0,0,56,0,56,0,,,,,,,56,,,1,836.0613256054911,X,d,go,d,1,0.33962079606487805,,,,,,,,,,,,,,,,,,8,001,21,w,Psychologie,2023-01-09_09h03.20.146,00_bat_bachelor,2022.2.4,59.96421043449304,
,,,,,,,,,,,,0,0,0,0,57,0,57,0,,,,,,,57,,,1,837.5124395211827,Y,l,go,l,1,0.37601596522620184,,,,,,,,,,,,,,,,,,8,001,21,w,Psychologie,2023-01-09_09h03.20.146,00_bat_bachelor,2022.2.4,59.96421043449304,
,,,,,,,,,,,,0,0,0,0,58,0,58,0,,,,,,,58,,,1,838.9970686046394,X,d,go,d,1,0.28369058712894457,,,,,,,,,,,,,,,,,,8,001,21,w,Psychologie,2023-01-09_09h03.20.146,00_bat_bachelor,2022.2.4,59.96421043449304,
,,,,,,,,,,,,0,0,0,0,59,0,59,0,,,,,,,59,,,1,840.3816234577567,Y,l,go,l,1,0.2744091280834482,,,,,,,,,,,,,,,,,,8,001,21,w,Psychologie,2023-01-09_09h03.20.146,00_bat_bachelor,2022.2.4,59.96421043449304,
,,,,,,,,,,,,0,0,0,0,60,0,60,0,,,,,,,60,,,1,841.7823965005558,X,d,go,d,1,0.31409205641455173,,,,,,,,,,,,,,,,,,8,001,21,w,Psychologie,2023-01-09_09h03.20.146,00_bat_bachelor,2022.2.4,59.96421043449304,
,,,,,,,,,,,,0,0,0,0,61,0,61,0,,,,,,,61,,,1,843.2003016728735,Y,l,go,l,1,0.38410566611798913,,,,,,,,,,,,,,,,,,8,001,21,w,Psychologie,2023-01-09_09h03.20.146,00_bat_bachelor,2022.2.4,59.96421043449304,
,,,,,,,,,,,,0,0,0,0,62,0,62,0,,,,,,,62,,,1,844.6847261501701,X,d,go,d,1,0.371532569112901,,,,,,,,,,,,,,,,,,8,001,21,w,Psychologie,2023-01-09_09h03.20.146,00_bat_bachelor,2022.2.4,59.96421043449304,
,,,,,,,,,,,,0,0,0,0,63,0,63,0,,,,,,,63,,,1,846.1857203324704,Y,l,go,l,1,0.407705677560557,,,,,,,,,,,,,,,,,,8,001,21,w,Psychologie,2023-01-09_09h03.20.146,00_bat_bachelor,2022.2.4,59.96421043449304,
,,,,,,,,,,,,0,0,0,0,64,0,64,0,,,,,,,64,,,1,847.7037375533272,Y,None,nogo,None,1,,848.5044269112374,,,,,,,,,,,,,,,,,8,001,21,w,Psychologie,2023-01-09_09h03.20.146,00_bat_bachelor,2022.2.4,59.96421043449304,
,,,,,,,,,,,,0,0,0,0,65,0,65,0,,,,,,,65,,,1,849.5049597599804,X,d,go,d,1,0.3032532632806806,,,,,,,,,,,,,,,,,,8,001,21,w,Psychologie,2023-01-09_09h03.20.146,00_bat_bachelor,2022.2.4,59.96421043449304,
,,,,,,,,,,,,0,0,0,0,66,0,66,0,,,,,,,66,,,1,850.9394937888454,Y,l,go,l,1,0.2285317725064715,,,,,,,,,,,,,,,,,,8,001,21,w,Psychologie,2023-01-09_09h03.20.146,00_bat_bachelor,2022.2.4,59.96421043449304,
,,,,,,,,,,,,0,0,0,0,67,0,67,0,,,,,,,67,,,1,852.2907123833758,X,d,go,d,1,0.3976707636041965,,,,,,,,,,,,,,,,,,8,001,21,w,Psychologie,2023-01-09_09h03.20.146,00_bat_bachelor,2022.2.4,59.96421043449304,
,,,,,,,,,,,,0,0,0,0,68,0,68,0,,,,,,,68,,,1,853.8082394221766,X,None,nogo,None,1,,854.6088007800246,,,,,,,,,,,,,,,,,8,001,21,w,Psychologie,2023-01-09_09h03.20.146,00_bat_bachelor,2022.2.4,59.96421043449304,
,,,,,,,,,,,,0,0,0,0,69,0,69,0,,,,,,,69,,,1,855.6097307198694,Y,l,go,l,1,0.45371345744308655,,,,,,,,,,,,,,,,,,8,001,21,w,Psychologie,2023-01-09_09h03.20.146,00_bat_bachelor,2022.2.4,59.96421043449304,
,,,,,,,,,,,,0,0,0,0,70,0,70,0,,,,,,,70,,,1,857.1941319729125,X,d,go,d,1,0.45392873027469705,,,,,,,,,,,,,,,,,,8,001,21,w,Psychologie,2023-01-09_09h03.20.146,00_bat_bachelor,2022.2.4,59.96421043449304,
,,,,,,,,,,,,0,0,0,0,71,0,71,0,,,,,,,71,,,1,858.762105581627,X,None,nogo,None,1,,859.562588878831,,,,,,,,,,,,,,,,,8,001,21,w,Psychologie,2023-01-09_09h03.20.146,00_bat_bachelor,2022.2.4,59.96421043449304,
,,,,,,,,,,,,0,0,0,0,72,0,72,0,,,,,,,72,,,1,860.5635265762552,Y,l,go,l,1,0.34889013389226875,,,,,,,,,,,,,,,,,,8,001,21,w,Psychologie,2023-01-09_09h03.20.146,00_bat_bachelor,2022.2.4,59.96421043449304,
,,,,,,,,,,,,0,0,0,0,73,0,73,0,,,,,,,73,,,1,862.0311500757092,X,d,go,d,1,0.5460431991785981,,,,,,,,,,,,,,,,,,8,001,21,w,Psychologie,2023-01-09_09h03.20.146,00_bat_bachelor,2022.2.4,59.96421043449304,
,,,,,,,,,,,,0,0,0,0,74,0,74,0,,,,,,,74,,,1,863.6825724521563,Y,l,go,l,1,0.3182462402468218,,,,,,,,,,,,,,,,,,8,001,21,w,Psychologie,2023-01-09_09h03.20.146,00_bat_bachelor,2022.2.4,59.96421043449304,
,,,,,,,,,,,,0,0,0,0,75,0,75,0,,,,,,,75,,,1,865.1168078142099,Y,None,nogo,None,1,,865.9174409296683,,,,,,,,,,,,,,,,,8,001,21,w,Psychologie,2023-01-09_09h03.20.146,00_bat_bachelor,2022.2.4,59.96421043449304,
,,,,,,,,,,,,0,0,0,0,76,0,76,0,,,,,,,76,,,1,866.9183989907389,X,d,go,d,1,0.20274218424503943,,,,,,,,,,,,,,,,,,8,001,21,w,Psychologie,2023-01-09_09h03.20.146,00_bat_bachelor,2022.2.4,59.96421043449304,
,,,,,,,,,,,,0,0,0,0,77,0,77,0,,,,,,,77,,,1,868.2360776902195,Y,l,go,l,1,0.26026948486412493,,,,,,,,,,,,,,,,,,8,001,21,w,Psychologie,2023-01-09_09h03.20.146,00_bat_bachelor,2022.2.4,59.96421043449304,
,,,,,,,,,,,,0,0,0,0,78,0,78,0,,,,,,,78,,,1,869.6037782321349,X,d,go,d,1,0.25248814775807205,,,,,,,,,,,,,,,,,,8,001,21,w,Psychologie,2023-01-09_09h03.20.146,00_bat_bachelor,2022.2.4,59.96421043449304,
,,,,,,,,,,,,0,0,0,0,79,0,79,0,,,,,,,79,,,1,870.9712722284956,Y,l,go,l,1,0.29277713698900243,,,,,,,,,,,,,,,,,,8,001,21,w,Psychologie,2023-01-09_09h03.20.146,00_bat_bachelor,2022.2.4,59.96421043449304,
,,,,,,,,,,,,0,0,0,0,80,0,80,0,,,,,,,80,,,1,872.3723027259649,X,d,go,d,1,0.2679538522262419,,,,,,,,,,,,,,,,,,8,001,21,w,Psychologie,2023-01-09_09h03.20.146,00_bat_bachelor,2022.2.4,59.96421043449304,
,,,,,,,,,,,,0,0,0,0,81,0,81,0,,,,,,,81,,,1,873.7568313972516,Y,l,go,l,1,0.29065640868827813,,,,,,,,,,,,,,,,,,8,001,21,w,Psychologie,2023-01-09_09h03.20.146,00_bat_bachelor,2022.2.4,59.96421043449304,
,,,,,,,,,,,,0,0,0,0,82,0,82,0,,,,,,,82,,,1,875.1747200847127,X,d,go,d,1,0.2502893588131201,,,,,,,,,,,,,,,,,,8,001,21,w,Psychologie,2023-01-09_09h03.20.146,00_bat_bachelor,2022.2.4,59.96421043449304,
,,,,,,,,,,,,0,0,0,0,83,0,83,0,,,,,,,83,,,1,876.5256254669699,Y,l,go,l,1,0.2740702188281148,,,,,,,,,,,,,,,,,,8,001,21,w,Psychologie,2023-01-09_09h03.20.146,00_bat_bachelor,2022.2.4,59.96421043449304,
,,,,,,,,,,,,0,0,0,0,84,0,84,0,,,,,,,84,,,1,877.9268896615223,Y,None,nogo,None,1,,878.7274165951111,,,,,,,,,,,,,,,,,8,001,21,w,Psychologie,2023-01-09_09h03.20.146,00_bat_bachelor,2022.2.4,59.96421043449304,
,,,,,,,,,,,,0,0,0,0,85,0,85,0,,,,,,,85,,,1,879.728011989339,X,d,go,d,1,0.36888626479947106,,,,,,,,,,,,,,,,,,8,001,21,w,Psychologie,2023-01-09_09h03.20.146,00_bat_bachelor,2022.2.4,59.96421043449304,
,,,,,,,,,,,,0,0,0,0,86,0,86,0,,,,,,,86,,,1,881.2124577999795,Y,l,go,l,1,0.30841787184533587,,,,,,,,,,,,,,,,,,8,001,21,w,Psychologie,2023-01-09_09h03.20.146,00_bat_bachelor,2022.2.4,59.96421043449304,
,,,,,,,,,,,,0,0,0,0,87,0,87,0,,,,,,,87,,,1,882.630143335827,Y,None,nogo,None,1,,883.4310891787098,,,,,,,,,,,,,,,,,8,001,21,w,Psychologie,2023-01-09_09h03.20.146,00_bat_bachelor,2022.2.4,59.96421043449304,
,,,,,,,,,,,,0,0,0,0,88,0,88,0,,,,,,,88,,,1,884.4317563305484,X,d,go,d,1,0.2574976047325208,,,,,,,,,,,,,,,,,,8,001,21,w,Psychologie,2023-01-09_09h03.20.146,00_bat_bachelor,2022.2.4,59.96421043449304,
,,,,,,,,,,,,0,0,0,0,89,0,89,0,,,,,,,89,,,1,885.8161797896629,Y,l,go,l,1,0.2481885093098981,,,,,,,,,,,,,,,,,,8,001,21,w,Psychologie,2023-01-09_09h03.20.146,00_bat_bachelor,2022.2.4,59.96421043449304,
,,,,,,,,,,,,0,0,0,0,90,0,90,0,,,,,,,90,,,1,887.1837072405852,Y,None,nogo,None,1,,887.9842642347948,,,,,,,,,,,,,,,,,8,001,21,w,Psychologie,2023-01-09_09h03.20.146,00_bat_bachelor,2022.2.4,59.96421043449304,
,,,,,,,,,,,,0,0,0,0,91,0,91,0,,,,,,,91,,,1,888.9849585381618,Y,None,nogo,d,0,0.19919794010218084,,,,,,,,,,,,,,,,,,8,001,21,w,Psychologie,2023-01-09_09h03.20.146,00_bat_bachelor,2022.2.4,59.96421043449304,
,,,,,,,,,,,,0,0,0,0,92,0,92,0,,,,,,,92,,,1,890.3028917832202,X,d,go,d,1,0.5136795471236155,,,,,,,,,,,,,,,,,,8,001,21,w,Psychologie,2023-01-09_09h03.20.146,00_bat_bachelor,2022.2.4,59.96421043449304,
,,,,,,,,,,,,0,0,0,0,93,0,93,0,,,,,,,93,,,1,891.9209294162082,Y,l,go,l,1,0.36798250678577915,,,,,,,,,,,,,,,,,,8,001,21,w,Psychologie,2023-01-09_09h03.20.146,00_bat_bachelor,2022.2.4,59.96421043449304,
,,,,,,,,,,,,0,0,0,0,94,0,94,0,,,,,,,94,,,1,893.4052801964996,X,d,go,d,1,0.6597988906966066,,,,,,,,,,,,,,,,,,8,001,21,w,Psychologie,2023-01-09_09h03.20.146,00_bat_bachelor,2022.2.4,59.96421043449304,
,,,,,,,,,,,,0,0,0,0,95,0,95,0,,,,,,,95,,,1,895.1732437203606,Y,l,go,l,1,0.3315887921706917,,,,,,,,,,,,,,,,,,8,001,21,w,Psychologie,2023-01-09_09h03.20.146,00_bat_bachelor,2022.2.4,59.96421043449304,
,,,,,,,,,,,,0,0,0,0,96,0,96,0,,,,,,,96,,,1,896.6074873248423,Y,None,nogo,None,1,,897.4081165615111,,,,,,,,,,,,,,,,,8,001,21,w,Psychologie,2023-01-09_09h03.20.146,00_bat_bachelor,2022.2.4,59.96421043449304,
,,,,,,,,,,,,0,0,0,0,97,0,97,0,,,,,,,97,,,1,898.4090935316816,X,d,go,d,1,0.2802520400072126,,,,,,,,,,,,,,,,,,8,001,21,w,Psychologie,2023-01-09_09h03.20.146,00_bat_bachelor,2022.2.4,59.96421043449304,
,,,,,,,,,,,,0,0,0,0,98,0,98,0,,,,,,,98,,,1,899.7934898392679,Y,l,go,l,1,0.25586802818486376,,,,,,,,,,,,,,,,,,8,001,21,w,Psychologie,2023-01-09_09h03.20.146,00_bat_bachelor,2022.2.4,59.96421043449304,
,,,,,,,,,,,,0,0,0,0,99,0,99,0,,,,,,,99,,,1,901.1611942599731,Y,None,nogo,None,1,,901.9617056784028,,,,,,,,,,,,,,,,,8,001,21,w,Psychologie,2023-01-09_09h03.20.146,00_bat_bachelor,2022.2.4,59.96421043449304,
,,,,,,,,,,,,0,0,0,0,100,0,100,0,,,,,,,100,,,1,902.9625609515448,X,d,go,d,1,0.27045712616734363,,,,,,,,,,,,,,,,,,8,001,21,w,Psychologie,2023-01-09_09h03.20.146,00_bat_bachelor,2022.2.4,59.96421043449304,
,,,,,,,,,,,,0,0,0,0,101,0,101,0,,,,,,,101,,,1,904.3635895096191,Y,l,go,l,1,0.2292430455787553,,,,,,,,,,,,,,,,,,8,001,21,w,Psychologie,2023-01-09_09h03.20.146,00_bat_bachelor,2022.2.4,59.96421043449304,
,,,,,,,,,,,,0,0,0,0,102,0,102,0,,,,,,,102,,,1,905.6979882172064,X,d,go,d,1,0.2546336033439047,,,,,,,,,,,,,,,,,,8,001,21,w,Psychologie,2023-01-09_09h03.20.146,00_bat_bachelor,2022.2.4,59.96421043449304,
,,,,,,,,,,,,0,0,0,0,103,0,103,0,,,,,,,103,,,1,907.0656950621552,Y,l,go,l,1,0.24806099409636317,,,,,,,,,,,,,,,,,,8,001,21,w,Psychologie,2023-01-09_09h03.20.146,00_bat_bachelor,2022.2.4,59.96421043449304,
,,,,,,,,,,,,0,0,0,0,104,0,104,0,,,,,,,104,,,1,908.4167391111463,X,d,go,d,1,0.30352380886631636,,,,,,,,,,,,,,,,,,8,001,21,w,Psychologie,2023-01-09_09h03.20.146,00_bat_bachelor,2022.2.4,59.96421043449304,
,,,,,,,,,,,,0,0,0,0,105,0,105,0,,,,,,,105,,,1,909.8342835560162,Y,l,go,l,1,0.3108333881679073,,,,,,,,,,,,,,,,,,8,001,21,w,Psychologie,2023-01-09_09h03.20.146,00_bat_bachelor,2022.2.4,59.96421043449304,
,,,,,,,,,,,,0,0,0,0,106,0,106,0,,,,,,,106,,,1,911.251956485797,Y,None,nogo,None,1,,912.052675419479,,,,,,,,,,,,,,,,,8,001,21,w,Psychologie,2023-01-09_09h03.20.146,00_bat_bachelor,2022.2.4,59.96421043449304,
,,,,,,,,,,,,0,0,0,0,107,0,107,0,,,,,,,107,,,1,913.053473480472,X,d,go,d,1,0.2438966284411208,,,,,,,,,,,,,,,,,,8,001,21,w,Psychologie,2023-01-09_09h03.20.146,00_bat_bachelor,2022.2.4,59.96421043449304,
,,,,,,,,,,,,0,0,0,0,108,0,108,0,,,,,,,108,,,1,914.4046237113326,Y,l,go,l,1,0.20479018523803916,,,,,,,,,,,,,,,,,,8,001,21,w,Psychologie,2023-01-09_09h03.20.146,00_bat_bachelor,2022.2.4,59.96421043449304,
,,,,,,,,,,,,0,0,0,0,109,0,109,0,,,,,,,109,,,1,915.7220895622253,X,d,go,d,1,0.2779577358645611,,,,,,,,,,,,,,,,,,8,001,21,w,Psychologie,2023-01-09_09h03.20.146,00_bat_bachelor,2022.2.4,59.96421043449304,
,,,,,,,,,,,,0,0,0,0,110,0,110,0,,,,,,,110,,,1,917.1066929002146,Y,l,go,l,1,0.43055611288207274,,,,,,,,,,,,,,,,,,8,001,21,w,Psychologie,2023-01-09_09h03.20.146,00_bat_bachelor,2022.2.4,59.96421043449304,
,,,,,,,,,,,,0,0,0,0,111,0,111,0,,,,,,,111,,,1,918.641278371529,Y,None,nogo,None,1,,919.4418906384925,,,,,,,,,,,,,,,,,8,001,21,w,Psychologie,2023-01-09_09h03.20.146,00_bat_bachelor,2022.2.4,59.96421043449304,
,,,,,,,,,,,,0,0,0,0,112,0,112,0,,,,,,,112,,,1,920.4423352447685,X,d,go,d,1,0.2463135993097012,,,,,,,,,,,,,,,,,,8,001,21,w,Psychologie,2023-01-09_09h03.20.146,00_bat_bachelor,2022.2.4,59.96421043449304,
,,,,,,,,,,,,0,0,0,0,113,0,113,0,,,,,,,113,,,1,921.8104314232395,Y,l,go,l,1,0.2391305655243059,,,,,,,,,,,,,,,,,,8,001,21,w,Psychologie,2023-01-09_09h03.20.146,00_bat_bachelor,2022.2.4,59.96421043449304,
,,,,,,,,,,,,0,0,0,0,114,0,114,0,,,,,,,114,,,1,923.1615239571025,X,d,go,d,1,0.21481782646344527,,,,,,,,,,,,,,,,,,8,001,21,w,Psychologie,2023-01-09_09h03.20.146,00_bat_bachelor,2022.2.4,59.96421043449304,
,,,,,,,,,,,,0,0,0,0,115,0,115,0,,,,,,,115,,,1,924.495641937281,Y,l,go,l,1,0.22490461923291605,,,,,,,,,,,,,,,,,,8,001,21,w,Psychologie,2023-01-09_09h03.20.146,00_bat_bachelor,2022.2.4,59.96421043449304,
,,,,,,,,,,,,0,0,0,0,116,0,116,0,,,,,,,116,,,1,925.8300130084912,X,d,go,d,1,0.23513832116429967,,,,,,,,,,,,,,,,,,8,001,21,w,Psychologie,2023-01-09_09h03.20.146,00_bat_bachelor,2022.2.4,59.96421043449304,
,,,,,,,,,,,,0,0,0,0,117,0,117,0,,,,,,,117,,,1,927.1979268838433,Y,l,go,l,1,0.3232556972210432,,,,,,,,,,,,,,,,,,8,001,21,w,Psychologie,2023-01-09_09h03.20.146,00_bat_bachelor,2022.2.4,59.96421043449304,
,,,,,,,,,,,,0,0,0,0,118,0,118,0,,,,,,,118,,,1,928.6489782540501,Y,None,nogo,d,0,0.3594225026353115,,,,,,,,,,,,,,,,,,8,001,21,w,Psychologie,2023-01-09_09h03.20.146,00_bat_bachelor,2022.2.4,59.96421043449304,
,,,,,,,,,,,,0,0,0,0,119,0,119,0,,,,,,,119,,,1,930.1167341172044,X,d,go,d,1,0.25131820779699865,,,,,,,,,,,,,,,,,,8,001,21,w,Psychologie,2023-01-09_09h03.20.146,00_bat_bachelor,2022.2.4,59.96421043449304,
,,,,,,,,,,,,0,0,0,0,120,0,120,0,,,,,,,120,,,1,931.5009966065437,Y,l,go,l,1,0.48417262372629466,,,,,,,,,,,,,,,,,,8,001,21,w,Psychologie,2023-01-09_09h03.20.146,00_bat_bachelor,2022.2.4,59.96421043449304,
,,,,,,,,,,,,0,0,0,0,121,0,121,0,,,,,,,121,,,1,933.0855990718056,Y,None,nogo,None,1,,933.8861478235868,,,,,,,,,,,,,,,,,8,001,21,w,Psychologie,2023-01-09_09h03.20.146,00_bat_bachelor,2022.2.4,59.96421043449304,
,,,,,,,,,,,,0,0,0,0,122,0,122,0,,,,,,,122,,,1,934.8867577632765,X,d,go,d,1,0.23348838097047064,,,,,,,,,,,,,,,,,,8,001,21,w,Psychologie,2023-01-09_09h03.20.146,00_bat_bachelor,2022.2.4,59.96421043449304,
,,,,,,,,,,,,0,0,0,0,123,0,123,0,,,,,,,123,,,1,936.2212442284821,Y,l,go,l,1,0.2433914160750419,,,,,,,,,,,,,,,,,,8,001,21,w,Psychologie,2023-01-09_09h03.20.146,00_bat_bachelor,2022.2.4,59.96421043449304,
,,,,,,,,,,,,0,0,0,0,124,0,124,0,,,,,,,124,,,1,937.5722567623062,Y,None,nogo,None,1,,938.3728932717057,,,,,,,,,,,,,,,,,8,001,21,w,Psychologie,2023-01-09_09h03.20.146,00_bat_bachelor,2022.2.4,59.96421043449304,
,,,,,,,,,,,,0,0,0,0,125,0,125,0,,,,,,,125,,,1,939.3734207871131,X,d,go,d,1,0.21053709711520696,,,,,,,,,,,,,,,,,,8,001,21,w,Psychologie,2023-01-09_09h03.20.146,00_bat_bachelor,2022.2.4,59.96421043449304,
,,,,,,,,,,,,0,0,0,0,126,0,126,0,,,,,,,126,,,1,940.6915014261825,Y,l,go,l,1,0.20475430643261916,,,,,,,,,,,,,,,,,,8,001,21,w,Psychologie,2023-01-09_09h03.20.146,00_bat_bachelor,2022.2.4,59.96421043449304,
,,,,,,,,,,,,0,0,0,0,127,0,127,0,,,,,,,127,,,1,942.0258836489132,X,d,go,d,1,0.32815606323345037,,,,,,,,,,,,,,,,,,8,001,21,w,Psychologie,2023-01-09_09h03.20.146,00_bat_bachelor,2022.2.4,59.96421043449304,
,,,,,,,,,,,,0,0,0,0,128,0,128,0,,,,,,,128,,,1,943.4601306473361,X,None,nogo,None,1,,944.2606086112042,,,,,,,,,,,,,,,,,8,001,21,w,Psychologie,2023-01-09_09h03.20.146,00_bat_bachelor,2022.2.4,59.96421043449304,
,,,,,,,,,,,,0,0,0,0,129,0,129,0,,,,,,,129,,,1,945.2614396419102,Y,l,go,l,1,0.3870957281739038,,,,,,,,,,,,,,,,,,8,001,21,w,Psychologie,2023-01-09_09h03.20.146,00_bat_bachelor,2022.2.4,59.96421043449304,
,,,,,,,,,,,,0,0,0,0,130,0,130,0,,,,,,,130,,,1,946.7628163698504,X,d,go,d,1,0.32595388034758344,,,,,,,,,,,,,,,,,,8,001,21,w,Psychologie,2023-01-09_09h03.20.146,00_bat_bachelor,2022.2.4,59.96421043449304,
,,,,,,,,,,,,0,0,0,0,131,0,131,0,,,,,,,131,,,1,948.1968553681724,X,None,nogo,None,1,,948.9974603624049,,,,,,,,,,,,,,,,,8,001,21,w,Psychologie,2023-01-09_09h03.20.146,00_bat_bachelor,2022.2.4,59.96421043449304,
,,,,,,,,,,,,0,0,0,0,132,0,132,0,,,,,,,132,,,1,949.9983801204268,X,None,nogo,None,1,,950.7987208721071,,,,,,,,,,,,,,,,,8,001,21,w,Psychologie,2023-01-09_09h03.20.146,00_bat_bachelor,2022.2.4,59.96421043449304,
,,,,,,,,,,,,0,0,0,0,133,0,133,0,,,,,,,133,,,1,951.7994607512536,Y,l,go,l,1,0.28144234361468534,,,,,,,,,,,,,,,,,,8,001,21,w,Psychologie,2023-01-09_09h03.20.146,00_bat_bachelor,2022.2.4,59.96421043449304,
,,,,,,,,,,,,0,0,0,0,134,0,134,0,,,,,,,134,,,1,953.1838648164193,X,d,go,d,1,0.210095399931447,,,,,,,,,,,,,,,,,,8,001,21,w,Psychologie,2023-01-09_09h03.20.146,00_bat_bachelor,2022.2.4,59.96421043449304,
,,,,,,,,,,,,0,0,0,0,135,0,135,0,,,,,,,135,,,1,954.5015396371101,X,None,nogo,None,1,,955.3021722677198,,,,,,,,,,,,,,,,,8,001,21,w,Psychologie,2023-01-09_09h03.20.146,00_bat_bachelor,2022.2.4,59.96421043449304,
,,,,,,,,,,,,0,0,0,0,136,0,136,0,,,,,,,136,,,1,956.3028942074637,Y,l,go,l,1,0.3069337499135827,,,,,,,,,,,,,,,,,,8,001,21,w,Psychologie,2023-01-09_09h03.20.146,00_bat_bachelor,2022.2.4,59.96421043449304,
,,,,,,,,,,,,0,0,0,0,137,0,137,0,,,,,,,137,,,1,957.7204987735751,X,d,go,d,1,0.567918603724479,,,,,,,,,,,,,,,,,,8,001,21,w,Psychologie,2023-01-09_09h03.20.146,00_bat_bachelor,2022.2.4,59.96421043449304,
,,,,,,,,,,,,0,0,0,0,138,0,138,0,,,,,,,138,,,1,959.4051788631169,X,None,nogo,None,1,,,,,,,,,,,,,,,,,,,8,001,21,w,Psychologie,2023-01-09_09h03.20.146,00_bat_bachelor,2022.2.4,59.96421043449304,
,,,,,,,,,,,,0,0,0,0,139,0,139,0,,,,,,,139,,,1,961.2065159789169,Y,l,go,l,1,0.12314893353311618,,,,,,,,,,,,,,,,,,8,001,21,w,Psychologie,2023-01-09_09h03.20.146,00_bat_bachelor,2022.2.4,59.96421043449304,
,,,,,,,,,,,,0,0,0,0,140,0,140,0,,,,,,,140,,,1,962.4406101530232,X,d,go,d,1,0.4724756483579995,,,,,,,,,,,,,,,,,,8,001,21,w,Psychologie,2023-01-09_09h03.20.146,00_bat_bachelor,2022.2.4,59.96421043449304,
,,,,,,,,,,,,0,0,0,0,141,0,141,0,,,,,,,141,,,1,964.0252465576954,X,None,nogo,None,1,,,,,,,,,,,,,,,,,,,8,001,21,w,Psychologie,2023-01-09_09h03.20.146,00_bat_bachelor,2022.2.4,59.96421043449304,
,,,,,,,,,,,,0,0,0,0,142,0,142,0,,,,,,,142,,,1,965.8266350674595,Y,l,go,l,1,0.2858937397123782,,,,,,,,,,,,,,,,,,8,001,21,w,Psychologie,2023-01-09_09h03.20.146,00_bat_bachelor,2022.2.4,59.96421043449304,
,,,,,,,,,,,,0,0,0,0,143,0,143,0,,,,,,,143,,,1,967.2278561104757,X,d,go,d,1,0.37451293419451304,,,,,,,,,,,,,,,,,,8,001,21,w,Psychologie,2023-01-09_09h03.20.146,00_bat_bachelor,2022.2.4,59.96421043449304,
,,,,,,,,,,,,0,0,0,0,144,0,144,0,,,,,,,144,,,1,968.7122306483542,X,None,nogo,None,1,,,,,,,,,,,,,,,,,,,8,001,21,w,Psychologie,2023-01-09_09h03.20.146,00_bat_bachelor,2022.2.4,59.96421043449304,
,,,,,,,,,,,,0,0,0,0,145,0,145,0,,,,,,,145,,,1,970.5137471581803,X,None,nogo,None,1,,,,,,,,,,,,,,,,,,,8,001,21,w,Psychologie,2023-01-09_09h03.20.146,00_bat_bachelor,2022.2.4,59.96421043449304,
,,,,,,,,,,,,0,0,0,0,146,0,146,0,,,,,,,146,,,1,972.3147002737941,Y,l,go,l,1,0.373233418422501,,,,,,,,,,,,,,,,,,8,001,21,w,Psychologie,2023-01-09_09h03.20.146,00_bat_bachelor,2022.2.4,59.96421043449304,
,,,,,,,,,,,,0,0,0,0,147,0,147,0,,,,,,,147,,,1,973.7992028117347,X,d,go,d,1,0.36207850392327146,,,,,,,,,,,,,,,,,,8,001,21,w,Psychologie,2023-01-09_09h03.20.146,00_bat_bachelor,2022.2.4,59.96421043449304,
,,,,,,,,,,,,0,0,0,0,148,0,148,0,,,,,,,148,,,1,975.2671695840821,Y,l,go,l,1,0.36511074781753905,,,,,,,,,,,,,,,,,,8,001,21,w,Psychologie,2023-01-09_09h03.20.146,00_bat_bachelor,2022.2.4,59.96421043449304,
,,,,,,,,,,,,0,0,0,0,149,0,149,0,,,,,,,149,,,1,976.7346927198511,Y,None,nogo,d,0,0.22652304425980674,,,,,,,,,,,,,,,,,,8,001,21,w,Psychologie,2023-01-09_09h03.20.146,00_bat_bachelor,2022.2.4,59.96421043449304,
,,,,,,,,,,,,0,0,0,0,150,0,150,0,,,,,,,150,,,1,978.0690264577098,X,d,go,d,1,0.2994219886955989,,,,,,,,,,,,,,,,,,8,001,21,w,Psychologie,2023-01-09_09h03.20.146,00_bat_bachelor,2022.2.4,59.96421043449304,
,,,,,,,,,,,,0,0,0,0,151,0,151,0,,,,,,,151,,,1,979.4704118644421,Y,l,go,l,1,0.2749870677577064,,,,,,,,,,,,,,,,,,8,001,21,w,Psychologie,2023-01-09_09h03.20.146,00_bat_bachelor,2022.2.4,59.96421043449304,
,,,,,,,,,,,,0,0,0,0,152,0,152,0,,,,,,,152,,,1,980.8544731415626,X,d,go,d,1,0.2820610105812875,,,,,,,,,,,,,,,,,,8,001,21,w,Psychologie,2023-01-09_09h03.20.146,00_bat_bachelor,2022.2.4,59.96421043449304,
,,,,,,,,,,,,0,0,0,0,153,0,153,0,,,,,,,153,,,1,982.23919090385,X,None,nogo,None,1,,,,,,,,,,,,,,,,,,,8,001,21,w,Psychologie,2023-01-09_09h03.20.146,00_bat_bachelor,2022.2.4,59.96421043449304,
,,,,,,,,,,,,0,0,0,0,154,0,154,0,,,,,,,154,,,1,984.0402773528618,Y,l,go,l,1,0.3135800561661881,,,,,,,,,,,,,,,,,,8,001,21,w,Psychologie,2023-01-09_09h03.20.146,00_bat_bachelor,2022.2.4,59.96421043449304,
,,,,,,,,,,,,0,0,0,0,155,0,155,0,,,,,,,155,,,1,985.458188343364,X,d,go,d,1,0.31857884646876755,,,,,,,,,,,,,,,,,,8,001,21,w,Psychologie,2023-01-09_09h03.20.146,00_bat_bachelor,2022.2.4,59.96421043449304,
,,,,,,,,,,,,0,0,0,0,156,0,156,0,,,,,,,156,,,1,986.8927999480242,X,None,nogo,None,1,,,,,,,,,,,,,,,,,,,8,001,21,w,Psychologie,2023-01-09_09h03.20.146,00_bat_bachelor,2022.2.4,59.96421043449304,
,,,,,,,,,,,,0,0,0,0,157,0,157,0,,,,,,,157,,,1,988.6938112454842,Y,l,go,l,1,0.2984808973302506,,,,,,,,,,,,,,,,,,8,001,21,w,Psychologie,2023-01-09_09h03.20.146,00_bat_bachelor,2022.2.4,59.96421043449304,
,,,,,,,,,,,,0,0,0,0,158,0,158,0,,,,,,,158,,,1,990.095121500665,X,d,go,d,1,0.2577230593871036,,,,,,,,,,,,,,,,,,8,001,21,w,Psychologie,2023-01-09_09h03.20.146,00_bat_bachelor,2022.2.4,59.96421043449304,
,,,,,,,,,,,,0,0,0,0,159,0,159,0,,,,,,,159,,,1,991.4629354971809,Y,l,go,l,1,0.28195385901415193,,,,,,,,,,,,,,,,,,8,001,21,w,Psychologie,2023-01-09_09h03.20.146,00_bat_bachelor,2022.2.4,59.96421043449304,
,,,,,,,,,,,,0,0,0,0,160,0,160,0,,,,,,,160,,,1,992.8469705924705,X,d,go,d,1,0.257613968425062,,,,,,,,,,,,,,,,,,8,001,21,w,Psychologie,2023-01-09_09h03.20.146,00_bat_bachelor,2022.2.4,59.96421043449304,
,,,,,,,,,,,,0,0,0,0,161,0,161,0,,,,,,,161,,,1,994.2146512555884,X,None,nogo,None,1,,995.0153018256009,,,,,,,,,,,,,,,,,8,001,21,w,Psychologie,2023-01-09_09h03.20.146,00_bat_bachelor,2022.2.4,59.96421043449304,
,,,,,,,,,,,,0,0,0,0,162,0,162,0,,,,,,,162,,,1,996.0167427959965,Y,l,go,l,1,0.24004014172271582,,,,,,,,,,,,,,,,,,8,001,21,w,Psychologie,2023-01-09_09h03.20.146,00_bat_bachelor,2022.2.4,59.96421043449304,
,,,,,,,,,,,,0,0,0,0,163,0,163,0,,,,,,,163,,,1,997.3843589742347,X,d,go,d,1,0.20035333460202764,,,,,,,,,,,,,,,,,,8,001,21,w,Psychologie,2023-01-09_09h03.20.146,00_bat_bachelor,2022.2.4,59.96421043449304,
,,,,,,,,,,,,0,0,0,0,164,0,164,0,,,,,,,164,,,1,998.6854669990142,X,None,nogo,None,1,,999.4857801143177,,,,,,,,,,,,,,,,,8,001,21,w,Psychologie,2023-01-09_09h03.20.146,00_bat_bachelor,2022.2.4,59.96421043449304,
,,,,,,,,,,,,0,0,0,0,165,0,165,0,,,,,,,165,,,1,1000.4865049631538,Y,l,go,l,1,0.2344716541743992,,,,,,,,,,,,,,,,,,8,001,21,w,Psychologie,2023-01-09_09h03.20.146,00_bat_bachelor,2022.2.4,59.96421043449304,
,,,,,,,,,,,,0,0,0,0,166,0,166,0,,,,,,,166,,,1,1001.8377269516251,X,d,go,d,1,0.27492694651630245,,,,,,,,,,,,,,,,,,8,001,21,w,Psychologie,2023-01-09_09h03.20.146,00_bat_bachelor,2022.2.4,59.96421043449304,
,,,,,,,,,,,,0,0,0,0,167,0,167,0,,,,,,,167,,,1,1003.2386532066197,X,None,nogo,None,1,,,,,,,,,,,,,,,,,,,8,001,21,w,Psychologie,2023-01-09_09h03.20.146,00_bat_bachelor,2022.2.4,59.96421043449304,
,,,,,,,,,,,,0,0,0,0,168,0,168,0,,,,,,,168,,,1,1005.0401828073612,Y,l,go,l,1,0.24125226352259688,,,,,,,,,,,,,,,,,,8,001,21,w,Psychologie,2023-01-09_09h03.20.146,00_bat_bachelor,2022.2.4,59.96421043449304,
,,,,,,,,,,,,0,0,0,0,169,0,169,0,,,,,,,169,,,1,1006.3912341290833,X,d,go,d,1,0.2658515481767836,,,,,,,,,,,,,,,,,,8,001,21,w,Psychologie,2023-01-09_09h03.20.146,00_bat_bachelor,2022.2.4,59.96421043449304,
,,,,,,,,,,,,0,0,0,0,170,0,170,0,,,,,,,170,,,1,1007.758767883039,X,None,nogo,None,1,,,,,,,,,,,,,,,,,,,8,001,21,w,Psychologie,2023-01-09_09h03.20.146,00_bat_bachelor,2022.2.4,59.96421043449304,
,,,,,,,,,,,,0,0,0,0,171,0,171,0,,,,,,,171,,,1,1009.5604521505223,Y,l,go,l,1,0.2649065780216233,,,,,,,,,,,,,,,,,,8,001,21,w,Psychologie,2023-01-09_09h03.20.146,00_bat_bachelor,2022.2.4,59.96421043449304,
,,,,,,,,,,,,0,0,0,0,172,0,172,0,,,,,,,172,,,1,1010.9278719650289,X,d,go,None,0,,1011.7286316260032,,,,,,,,,,,,,,,,,8,001,21,w,Psychologie,2023-01-09_09h03.20.146,00_bat_bachelor,2022.2.4,59.96421043449304,
,,,,,,,,,,,,0,0,0,0,173,0,173,0,,,,,,,173,,,1,1012.7294170809295,X,None,nogo,None,1,,1013.5299575902824,,,,,,,,,,,,,,,,,8,001,21,w,Psychologie,2023-01-09_09h03.20.146,00_bat_bachelor,2022.2.4,59.96421043449304,
,,,,,,,,,,,,0,0,0,0,174,0,174,0,,,,,,,174,,,1,1014.5308341967681,Y,l,go,l,1,0.3503960740166576,,,,,,,,,,,,,,,,,,8,001,21,w,Psychologie,2023-01-09_09h03.20.146,00_bat_bachelor,2022.2.4,59.96421043449304,
,,,,,,,,,,,,0,0,0,0,175,0,175,0,,,,,,,175,,,1,1015.9818312639183,X,d,go,d,1,0.2272866809938705,,,,,,,,,,,,,,,,,,8,001,21,w,Psychologie,2023-01-09_09h03.20.146,00_bat_bachelor,2022.2.4,59.96421043449304,
,,,,,,,,,,,,0,0,0,0,176,0,176,0,,,,,,,176,,,1,1017.3162639109158,Y,l,go,l,1,0.41304289226934543,,,,,,,,,,,,,,,,,,8,001,21,w,Psychologie,2023-01-09_09h03.20.146,00_bat_bachelor,2022.2.4,59.96421043449304,
,,,,,,,,,,,,0,0,0,0,177,0,177,0,,,,,,,177,,,1,1018.8340736165204,X,d,go,d,1,0.20758436841094863,,,,,,,,,,,,,,,,,,8,001,21,w,Psychologie,2023-01-09_09h03.20.146,00_bat_bachelor,2022.2.4,59.96421043449304,
,,,,,,,,,,,,0,0,0,0,178,0,178,0,,,,,,,178,,,1,1020.1515142552797,X,None,nogo,None,1,,1020.9523262799158,,,,,,,,,,,,,,,,,8,001,21,w,Psychologie,2023-01-09_09h03.20.146,00_bat_bachelor,2022.2.4,59.96421043449304,
,,,,,,,,,,,,0,0,0,0,179,0,179,0,,,,,,,179,,,1,1021.953056462088,Y,l,go,l,1,0.22487892225069572,,,,,,,,,,,,,,,,,,8,001,21,w,Psychologie,2023-01-09_09h03.20.146,00_bat_bachelor,2022.2.4,59.96421043449304,
,,,,,,,,,,,,0,0,0,0,180,0,180,0,,,,,,,180,,,1,1023.2874517757342,X,d,go,d,1,0.1853332061072024,,,,,,,,,,,,,,,,,,8,001,21,w,Psychologie,2023-01-09_09h03.20.146,00_bat_bachelor,2022.2.4,59.96421043449304,
,,,,,,,,,,,,0,0,0,0,181,0,181,0,,,,,,,181,,,1,1024.5882533761228,Y,l,go,l,1,0.2758258560430704,,,,,,,,,,,,,,,,,,8,001,21,w,Psychologie,2023-01-09_09h03.20.146,00_bat_bachelor,2022.2.4,59.96421043449304,
,,,,,,,,,,,,0,0,0,0,182,0,182,0,,,,,,,182,,,1,1025.9728465322892,Y,None,nogo,None,1,,,,,,,,,,,,,,,,,,,8,001,21,w,Psychologie,2023-01-09_09h03.20.146,00_bat_bachelor,2022.2.4,59.96421043449304,
,,,,,,,,,,,,0,0,0,0,183,0,183,0,,,,,,,183,,,1,1027.774360617872,X,d,go,d,1,0.2587145750193258,,,,,,,,,,,,,,,,,,8,001,21,w,Psychologie,2023-01-09_09h03.20.146,00_bat_bachelor,2022.2.4,59.96421043449304,
,,,,,,,,,,,,0,0,0,0,184,0,184,0,,,,,,,184,,,1,1029.1415515837825,Y,l,go,l,1,0.31533181459133175,,,,,,,,,,,,,,,,,,8,001,21,w,Psychologie,2023-01-09_09h03.20.146,00_bat_bachelor,2022.2.4,59.96421043449304,
,,,,,,,,,,,,0,0,0,0,185,0,185,0,,,,,,,185,,,1,1030.559017968009,X,d,go,d,1,0.5143020928800297,,,,,,,,,,,,,,,,,,8,001,21,w,Psychologie,2023-01-09_09h03.20.146,00_bat_bachelor,2022.2.4,59.96421043449304,
,,,,,,,,,,,,0,0,0,0,186,0,186,0,,,,,,,186,,,1,1032.1771826313611,Y,l,go,l,1,0.2719577329554568,,,,,,,,,,,,,,,,,,8,001,21,w,Psychologie,2023-01-09_09h03.20.146,00_bat_bachelor,2022.2.4,59.96421043449304,
,,,,,,,,,,,,0,0,0,0,187,0,187,0,,,,,,,187,,,1,1033.56169918143,X,d,go,d,1,0.45525479152354364,,,,,,,,,,,,,,,,,,8,001,21,w,Psychologie,2023-01-09_09h03.20.146,00_bat_bachelor,2022.2.4,59.96421043449304,
,,,,,,,,,,,,0,0,0,0,188,0,188,0,,,,,,,188,,,1,1035.1296015173825,X,None,nogo,None,1,,,,,,,,,,,,,,,,,,,8,001,21,w,Psychologie,2023-01-09_09h03.20.146,00_bat_bachelor,2022.2.4,59.96421043449304,
,,,,,,,,,,,,0,0,0,0,189,0,189,0,,,,,,,189,,,1,1036.9309429968207,Y,l,go,l,1,0.429322657738453,,,,,,,,,,,,,,,,,,8,001,21,w,Psychologie,2023-01-09_09h03.20.146,00_bat_bachelor,2022.2.4,59.96421043449304,
,,,,,,,,,,,,0,0,0,0,190,0,190,0,,,,,,,190,,,1,1038.465419862022,X,d,go,d,1,0.3670026275227656,,,,,,,,,,,,,,,,,,8,001,21,w,Psychologie,2023-01-09_09h03.20.146,00_bat_bachelor,2022.2.4,59.96421043449304,
,,,,,,,,,,,,0,0,0,0,191,0,191,0,,,,,,,191,,,1,1039.9332547555173,X,None,nogo,None,1,,1040.7335581738462,,,,,,,,,,,,,,,,,8,001,21,w,Psychologie,2023-01-09_09h03.20.146,00_bat_bachelor,2022.2.4,59.96421043449304,
,,,,,,,,,,,,0,0,0,0,192,0,192,0,,,,,,,192,,,1,1041.7345482349324,Y,l,go,l,1,0.2989885339401326,,,,,,,,,,,,,,,,,,8,001,21,w,Psychologie,2023-01-09_09h03.20.146,00_bat_bachelor,2022.2.4,59.96421043449304,
,,,,,,,,,,,,0,0,0,0,193,0,193,0,,,,,,,193,,,1,1043.1356795809356,X,d,go,d,1,0.27367700651632276,,,,,,,,,,,,,,,,,,8,001,21,w,Psychologie,2023-01-09_09h03.20.146,00_bat_bachelor,2022.2.4,59.96421043449304,
,,,,,,,,,,,,0,0,0,0,194,0,194,0,,,,,,,194,,,1,1044.520087524891,X,None,nogo,None,1,,,,,,,,,,,,,,,,,,,8,001,21,w,Psychologie,2023-01-09_09h03.20.146,00_bat_bachelor,2022.2.4,59.96421043449304,
,,,,,,,,,,,,0,0,0,0,195,0,195,0,,,,,,,195,,,1,1046.321064398092,Y,l,go,l,1,0.24016862663359007,,,,,,,,,,,,,,,,,,8,001,21,w,Psychologie,2023-01-09_09h03.20.146,00_bat_bachelor,2022.2.4,59.96421043449304,
,,,,,,,,,,,,0,0,0,0,196,0,196,0,,,,,,,196,,,1,1047.6721448107369,X,d,go,d,1,0.23336862333633235,,,,,,,,,,,,,,,,,,8,001,21,w,Psychologie,2023-01-09_09h03.20.146,00_bat_bachelor,2022.2.4,59.96421043449304,
,,,,,,,,,,,,0,0,0,0,197,0,197,0,,,,,,,197,,,1,1049.0068097002713,Y,l,go,l,1,0.30648187090662304,,,,,,,,,,,,,,,,,,8,001,21,w,Psychologie,2023-01-09_09h03.20.146,00_bat_bachelor,2022.2.4,59.96421043449304,
,,,,,,,,,,,,0,0,0,0,198,0,198,0,,,,,,,198,,,1,1050.4241897814254,X,d,go,d,1,0.19981806161501936,,,,,,,,,,,,,,,,,,8,001,21,w,Psychologie,2023-01-09_09h03.20.146,00_bat_bachelor,2022.2.4,59.96421043449304,
,,,,,,,,,,,,0,0,0,0,199,0,199,0,,,,,,,199,,,1,1051.725594048773,Y,l,go,l,1,0.2918399244134662,,,,,,,,,,,,,,,,,,8,001,21,w,Psychologie,2023-01-09_09h03.20.146,00_bat_bachelor,2022.2.4,59.96421043449304,
,,,,,,,,,,,,0,0,0,0,200,0,200,0,,,,,,,200,,,1,1053.1266318189728,X,d,go,d,1,0.1699799865419891,,,,,,,,,,,,,,,,,,8,001,21,w,Psychologie,2023-01-09_09h03.20.146,00_bat_bachelor,2022.2.4,59.96421043449304,
,,,,,,,,,,,,0,0,0,0,201,0,201,0,,,,,,,201,,,1,1054.4105965627136,X,None,nogo,l,0,0.23052013710696428,,,,,,,,,,,,,,,,,,8,001,21,w,Psychologie,2023-01-09_09h03.20.146,00_bat_bachelor,2022.2.4,59.96421043449304,
,,,,,,,,,,,,0,0,0,0,202,0,202,0,,,,,,,202,,,1,1055.7452721189197,Y,l,go,l,1,0.25571530083800553,,,,,,,,,,,,,,,,,,8,001,21,w,Psychologie,2023-01-09_09h03.20.146,00_bat_bachelor,2022.2.4,59.96421043449304,
,,,,,,,,,,,,0,0,0,0,203,0,203,0,,,,,,,203,,,1,1057.112999327515,X,d,go,d,1,0.23208862271587805,,,,,,,,,,,,,,,,,,8,001,21,w,Psychologie,2023-01-09_09h03.20.146,00_bat_bachelor,2022.2.4,59.96421043449304,
,,,,,,,,,,,,0,0,0,0,204,0,204,0,,,,,,,204,,,1,1058.4473291865838,Y,l,go,l,1,0.32211824212424744,,,,,,,,,,,,,,,,,,8,001,21,w,Psychologie,2023-01-09_09h03.20.146,00_bat_bachelor,2022.2.4,59.96421043449304,
,,,,,,,,,,,,0,0,0,0,205,0,205,0,,,,,,,205,,,1,1059.881894245767,Y,None,nogo,None,1,,1060.6823300277965,,,,,,,,,,,,,,,,,8,001,21,w,Psychologie,2023-01-09_09h03.20.146,00_bat_bachelor,2022.2.4,59.96421043449304,
,,,,,,,,,,,,0,0,0,0,206,0,206,0,,,,,,,206,,,1,1061.683080088766,X,d,go,d,1,0.20680958015634587,,,,,,,,,,,,,,,,,,8,001,21,w,Psychologie,2023-01-09_09h03.20.146,00_bat_bachelor,2022.2.4,59.96421043449304,
,,,,,,,,,,,,0,0,0,0,207,0,207,0,,,,,,,207,,,1,1063.000528000256,Y,l,go,l,1,0.3293395789588658,,,,,,,,,,,,,,,,,,8,001,21,w,Psychologie,2023-01-09_09h03.20.146,00_bat_bachelor,2022.2.4,59.96421043449304,
,,,,,,,,,,,,0,0,0,0,208,0,208,0,,,,,,,208,,,1,1064.4351027564135,X,d,go,d,1,0.381751240734161,,,,,,,,,,,,,,,,,,8,001,21,w,Psychologie,2023-01-09_09h03.20.146,00_bat_bachelor,2022.2.4,59.96421043449304,
,,,,,,,,,,,,0,0,0,0,209,0,209,0,,,,,,,209,,,1,1065.9196484458903,X,None,nogo,None,1,,,,,,,,,,,,,,,,,,,8,001,21,w,Psychologie,2023-01-09_09h03.20.146,00_bat_bachelor,2022.2.4,59.96421043449304,
,,,,,,,,,,,,0,0,0,0,210,0,210,0,,,,,,,210,,,1,1067.7207402282374,Y,l,go,l,1,0.19996739502073524,,,,,,,,,,,,,,,,,,8,001,21,w,Psychologie,2023-01-09_09h03.20.146,00_bat_bachelor,2022.2.4,59.96421043449304,
,,,,,,,,,,,,0,0,0,0,211,0,211,0,,,,,,,211,,,1,1069.0220383137157,X,d,go,d,1,0.1638127108245726,,,,,,,,,,,,,,,,,,8,001,21,w,Psychologie,2023-01-09_09h03.20.146,00_bat_bachelor,2022.2.4,59.96421043449304,
,,,,,,,,,,,,0,0,0,0,212,0,212,0,,,,,,,212,,,1,1070.2897223222894,X,None,nogo,None,1,,1071.0899462254283,,,,,,,,,,,,,,,,,8,001,21,w,Psychologie,2023-01-09_09h03.20.146,00_bat_bachelor,2022.2.4,59.96421043449304,
,,,,,,,,,,,,0,0,0,0,213,0,213,0,,,,,,,213,,,1,1072.0909062258938,Y,l,go,l,1,0.18153781032776806,,,,,,,,,,,,,,,,,,8,001,21,w,Psychologie,2023-01-09_09h03.20.146,00_bat_bachelor,2022.2.4,59.96421043449304,
,,,,,,,,,,,,0,0,0,0,214,0,214,0,,,,,,,214,,,1,1073.3753039395415,X,d,go,d,1,0.25815069595830664,,,,,,,,,,,,,,,,,,8,001,21,w,Psychologie,2023-01-09_09h03.20.146,00_bat_bachelor,2022.2.4,59.96421043449304,
,,,,,,,,,,,,0,0,0,0,215,0,215,0,,,,,,,215,,,1,1074.7431353906109,Y,l,go,l,1,0.346001405218999,,,,,,,,,,,,,,,,,,8,001,21,w,Psychologie,2023-01-09_09h03.20.146,00_bat_bachelor,2022.2.4,59.96421043449304,
,,,,,,,,,,,,0,0,0,0,216,0,216,0,,,,,,,216,,,1,1076.1938813061242,X,d,go,d,1,0.3669284456685773,,,,,,,,,,,,,,,,,,8,001,21,w,Psychologie,2023-01-09_09h03.20.146,00_bat_bachelor,2022.2.4,59.96421043449304,
,,,,,,,,,,,,0,0,0,0,217,0,217,0,,,,,,,217,,,1,1077.661688563243,Y,l,go,l,1,0.4032421602449858,,,,,,,,,,,,,,,,,,8,001,21,w,Psychologie,2023-01-09_09h03.20.146,00_bat_bachelor,2022.2.4,59.96421043449304,
,,,,,,,,,,,,0,0,0,0,218,0,218,0,,,,,,,218,,,1,1079.1797668750382,Y,None,nogo,None,1,,,,,,,,,,,,,,,,,,,8,001,21,w,Psychologie,2023-01-09_09h03.20.146,00_bat_bachelor,2022.2.4,59.96421043449304,
,,,,,,,,,,,,0,0,0,0,219,0,219,0,,,,,,,219,,,1,1080.9811573241973,X,d,go,d,1,0.23531383640090553,,,,,,,,,,,,,,,,,,8,001,21,w,Psychologie,2023-01-09_09h03.20.146,00_bat_bachelor,2022.2.4,59.96421043449304,
,,,,,,,,,,,,0,0,0,0,220,0,220,0,,,,,,,220,,,1,1082.3322590701864,Y,l,go,l,1,0.2767814928701,,,,,,,,,,,,,,,,,,8,001,21,w,Psychologie,2023-01-09_09h03.20.146,00_bat_bachelor,2022.2.4,59.96421043449304,
,,,,,,,,,,,,0,0,0,0,221,0,221,0,,,,,,,221,,,1,1083.716274771527,X,d,go,d,1,0.30016138299367867,,,,,,,,,,,,,,,,,,8,001,21,w,Psychologie,2023-01-09_09h03.20.146,00_bat_bachelor,2022.2.4,59.96421043449304,
,,,,,,,,,,,,0,0,0,0,222,0,222,0,,,,,,,222,,,1,1085.117347935684,X,None,nogo,None,1,,,,,,,,,,,,,,,,,,,8,001,21,w,Psychologie,2023-01-09_09h03.20.146,00_bat_bachelor,2022.2.4,59.96421043449304,
,,,,,,,,,,,,0,0,0,0,223,0,223,0,,,,,,,223,,,1,1086.9188639606614,Y,l,go,l,1,0.33127557989735124,,,,,,,,,,,,,,,,,,8,001,21,w,Psychologie,2023-01-09_09h03.20.146,00_bat_bachelor,2022.2.4,59.96421043449304,
,,,,,,,,,,,,0,0,0,0,224,0,224,0,,,,,,,224,,,1,1088.353528413832,X,d,go,d,1,0.5280955541132926,,,,,,,,,,,,,,,,,,8,001,21,w,Psychologie,2023-01-09_09h03.20.146,00_bat_bachelor,2022.2.4,59.96421043449304,
,,,,,,,,,,,,0,0,0,0,225,0,225,0,,,,,,,225,,,1,1089.987983994174,Y,l,go,l,1,0.4137434986697599,,,,,,,,,,,,,,,,,,8,001,21,w,Psychologie,2023-01-09_09h03.20.146,00_bat_bachelor,2022.2.4,59.96421043449304,
,,,,,,,,,,,,0,0,0,0,226,0,226,0,,,,,,,226,,,1,1091.5058751543638,X,d,go,d,1,0.3676052944814501,,,,,,,,,,,,,,,,,,8,001,21,w,Psychologie,2023-01-09_09h03.20.146,00_bat_bachelor,2022.2.4,59.96421043449304,
,,,,,,,,,,,,0,0,0,0,227,0,227,0,,,,,,,227,,,1,1092.9903869044301,Y,l,go,l,1,0.3232784851110182,,,,,,,,,,,,,,,,,,8,001,21,w,Psychologie,2023-01-09_09h03.20.146,00_bat_bachelor,2022.2.4,59.96421043449304,
,,,,,,,,,,,,0,0,0,0,228,0,228,0,,,,,,,228,,,1,1094.4248132968792,X,d,go,d,1,0.42500362534121905,,,,,,,,,,,,,,,,,,8,001,21,w,Psychologie,2023-01-09_09h03.20.146,00_bat_bachelor,2022.2.4,59.96421043449304,
,,,,,,,,,,,,0,0,0,0,229,0,229,0,,,,,,,229,,,1,1095.958942525548,Y,l,go,l,1,0.4580029140682882,,,,,,,,,,,,,,,,,,8,001,21,w,Psychologie,2023-01-09_09h03.20.146,00_bat_bachelor,2022.2.4,59.96421043449304,
,,,,,,,,,,,,0,0,0,0,230,0,230,0,,,,,,,230,,,1,1097.5270698313066,X,d,go,d,1,0.3461167992144283,,,,,,,,,,,,,,,,,,8,001,21,w,Psychologie,2023-01-09_09h03.20.146,00_bat_bachelor,2022.2.4,59.96421043449304,
,,,,,,,,,,,,0,0,0,0,231,0,231,0,,,,,,,231,,,1,1098.978333080404,Y,l,go,l,1,0.36607317252662597,,,,,,,,,,,,,,,,,,8,001,21,w,Psychologie,2023-01-09_09h03.20.146,00_bat_bachelor,2022.2.4,59.96421043449304,
,,,,,,,,,,,,0,0,0,0,232,0,232,0,,,,,,,232,,,1,1100.4461476102533,X,d,go,d,1,0.37098178096709944,,,,,,,,,,,,,,,,,,8,001,21,w,Psychologie,2023-01-09_09h03.20.146,00_bat_bachelor,2022.2.4,59.96421043449304,
,,,,,,,,,,,,0,0,0,0,233,0,233,0,,,,,,,233,,,1,1101.9306040875654,Y,l,go,l,1,0.32768188118541275,,,,,,,,,,,,,,,,,,8,001,21,w,Psychologie,2023-01-09_09h03.20.146,00_bat_bachelor,2022.2.4,59.96421043449304,
,,,,,,,,,,,,0,0,0,0,234,0,234,0,,,,,,,234,,,1,1103.3650227224352,X,d,go,d,1,0.3655694147067834,,,,,,,,,,,,,,,,,,8,001,21,w,Psychologie,2023-01-09_09h03.20.146,00_bat_bachelor,2022.2.4,59.96421043449304,
,,,,,,,,,,,,0,0,0,0,235,0,235,0,,,,,,,235,,,1,1104.832634100671,X,None,nogo,None,1,,1105.6332604282475,,,,,,,,,,,,,,,,,8,001,21,w,Psychologie,2023-01-09_09h03.20.146,00_bat_bachelor,2022.2.4,59.96421043449304,
,,,,,,,,,,,,0,0,0,0,236,0,236,0,,,,,,,236,,,1,1106.6339721861682,Y,l,go,l,1,0.35833401725915337,,,,,,,,,,,,,,,,,,8,001,21,w,Psychologie,2023-01-09_09h03.20.146,00_bat_bachelor,2022.2.4,59.96421043449304,
,,,,,,,,,,,,0,0,0,0,237,0,237,0,,,,,,,237,,,1,1108.101997140362,X,d,go,d,1,0.2673022155466924,,,,,,,,,,,,,,,,,,8,001,21,w,Psychologie,2023-01-09_09h03.20.146,00_bat_bachelor,2022.2.4,59.96421043449304,
,,,,,,,,,,,,0,0,0,0,238,0,238,0,,,,,,,238,,,1,1109.486388599461,X,None,nogo,None,1,,,,,,,,,,,,,,,,,,,8,001,21,w,Psychologie,2023-01-09_09h03.20.146,00_bat_bachelor,2022.2.4,59.96421043449304,
,,,,,,,,,,,,0,0,0,0,239,0,239,0,,,,,,,239,,,1,1111.2876171091475,X,None,nogo,None,1,,,,,,,,,,,,,,,,,,,8,001,21,w,Psychologie,2023-01-09_09h03.20.146,00_bat_bachelor,2022.2.4,59.96421043449304,
,,,,,,,,,,,,0,0,0,0,240,0,240,0,,,,,,,240,,,1,1113.088925134024,Y,l,go,l,1,0.5123103343383946,,,,,,,,,,,,,,,,,,8,001,21,w,Psychologie,2023-01-09_09h03.20.146,00_bat_bachelor,2022.2.4,59.96421043449304,
,,,,,,,,,,,,0,0,0,0,241,0,241,0,,,,,,,241,,,1,1114.7068599790837,X,d,go,d,1,0.5109988185510019,,,,,,,,,,,,,,,,,,8,001,21,w,Psychologie,2023-01-09_09h03.20.146,00_bat_bachelor,2022.2.4,59.96421043449304,
,,,,,,,,,,,,0,0,0,0,242,0,242,0,,,,,,,242,,,1,1116.3248942181303,X,None,nogo,None,1,,1117.1255161820686,,,,,,,,,,,,,,,,,8,001,21,w,Psychologie,2023-01-09_09h03.20.146,00_bat_bachelor,2022.2.4,59.96421043449304,
,,,,,,,,,,,,0,0,0,0,243,0,243,0,,,,,,,243,,,1,1118.126261394551,Y,l,go,l,1,0.2751567648095943,,,,,,,,,,,,,,,,,,8,001,21,w,Psychologie,2023-01-09_09h03.20.146,00_bat_bachelor,2022.2.4,59.96421043449304,
,,,,,,,,,,,,0,0,0,0,244,0,244,0,,,,,,,244,,,1,1119.5104661868927,X,d,go,d,1,0.441640724316926,,,,,,,,,,,,,,,,,,8,001,21,w,Psychologie,2023-01-09_09h03.20.146,00_bat_bachelor,2022.2.4,59.96421043449304,
,,,,,,,,,,,,0,0,0,0,245,0,245,0,,,,,,,245,,,1,1121.061891908796,Y,l,go,l,1,0.5078007563944311,,,,,,,,,,,,,,,,,,8,001,21,w,Psychologie,2023-01-09_09h03.20.146,00_bat_bachelor,2022.2.4,59.96421043449304,
,,,,,,,,,,,,0,0,0,0,246,0,246,0,,,,,,,246,,,1,1122.679714753801,Y,None,nogo,None,1,,,,,,,,,,,,,,,,,,,8,001,21,w,Psychologie,2023-01-09_09h03.20.146,00_bat_bachelor,2022.2.4,59.96421043449304,
,,,,,,,,,,,,0,0,0,0,247,0,247,0,,,,,,,247,,,1,1124.4811212029676,X,d,go,d,1,0.25598827066721697,,,,,,,,,,,,,,,,,,8,001,21,w,Psychologie,2023-01-09_09h03.20.146,00_bat_bachelor,2022.2.4,59.96421043449304,
,,,,,,,,,,,,0,0,0,0,248,0,248,0,,,,,,,248,,,1,1125.8488799267298,Y,l,go,l,1,0.3764319654277415,,,,,,,,,,,,,,,,,,8,001,21,w,Psychologie,2023-01-09_09h03.20.146,00_bat_bachelor,2022.2.4,59.96421043449304,
,,,,,,,,,,,,0,0,0,0,249,0,249,0,,,,,,,249,,,1,1127.3332854949263,Y,None,nogo,None,1,,1128.1519195888095,,,,,,,,,,,,,,,,,8,001,21,w,Psychologie,2023-01-09_09h03.20.146,00_bat_bachelor,2022.2.4,59.96421043449304,
,,,,,,,,,,,,1,0,1,0,0,0,0,0,,,,,,,0,,,0.2,1148.9996770907524,X,d,go,d,1,0.48981141433921493,,,,,,,,,1128.1519195888095,space,20.61991668954181,,,,,,,8,001,21,w,Psychologie,2023-01-09_09h03.20.146,00_bat_bachelor,2022.2.4,59.96421043449304,
,,,,,,,,,,,,1,0,1,0,1,0,1,0,,,,,,,1,,,0.2,1149.800444994155,Y,l,go,l,1,0.4249609586541965,,,,,,,,,,,,,,,,,,8,001,21,w,Psychologie,2023-01-09_09h03.20.146,00_bat_bachelor,2022.2.4,59.96421043449304,
,,,,,,,,,,,,1,0,1,0,2,0,2,0,,,,,,,2,,,0.2,1150.53433334998,X,d,go,d,1,0.44351854340936825,,,,,,,,,,,,,,,,,,8,001,21,w,Psychologie,2023-01-09_09h03.20.146,00_bat_bachelor,2022.2.4,59.96421043449304,
,,,,,,,,,,,,1,0,1,0,3,0,3,0,,,,,,,3,,,0.2,1151.284716744105,X,None,nogo,None,1,,1152.0853445262278,,,,,,,,,,,,,,,,,8,001,21,w,Psychologie,2023-01-09_09h03.20.146,00_bat_bachelor,2022.2.4,59.96421043449304,
,,,,,,,,,,,,1,0,1,0,4,0,4,0,,,,,,,4,,,0.2,1152.285646199101,Y,l,go,l,1,0.41971489550439856,,,,,,,,,,,,,,,,,,8,001,21,w,Psychologie,2023-01-09_09h03.20.146,00_bat_bachelor,2022.2.4,59.96421043449304,
,,,,,,,,,,,,1,0,1,0,5,0,5,0,,,,,,,5,,,0.2,1153.0196324943672,X,d,go,d,1,0.45334642696195715,,,,,,,,,,,,,,,,,,8,001,21,w,Psychologie,2023-01-09_09h03.20.146,00_bat_bachelor,2022.2.4,59.96421043449304,
,,,,,,,,,,,,1,0,1,0,6,0,6,0,,,,,,,6,,,0.2,1153.7869409876075,X,None,nogo,None,1,,,,,,,,,,,,,,,,,,,8,001,21,w,Psychologie,2023-01-09_09h03.20.146,00_bat_bachelor,2022.2.4,59.96421043449304,
,,,,,,,,,,,,1,0,1,0,7,0,7,0,,,,,,,7,,,0.2,1154.787613957631,Y,l,go,l,1,0.36505159627370176,,,,,,,,,,,,,,,,,,8,001,21,w,Psychologie,2023-01-09_09h03.20.146,00_bat_bachelor,2022.2.4,59.96421043449304,
,,,,,,,,,,,,1,0,1,0,8,0,8,0,,,,,,,8,,,0.2,1155.4545611900903,X,d,go,d,1,0.44984194041455794,,,,,,,,,,,,,,,,,,8,001,21,w,Psychologie,2023-01-09_09h03.20.146,00_bat_bachelor,2022.2.4,59.96421043449304,
,,,,,,,,,,,,1,0,1,0,9,0,9,0,,,,,,,9,,,0.2,1156.2052965843864,Y,l,go,l,1,0.38739051619575093,,,,,,,,,,,,,,,,,,8,001,21,w,Psychologie,2023-01-09_09h03.20.146,00_bat_bachelor,2022.2.4,59.96421043449304,
,,,,,,,,,,,,1,0,1,0,10,0,10,0,,,,,,,10,,,0.2,1156.9060096513986,Y,None,nogo,None,1,,1157.7064464031255,,,,,,,,,,,,,,,,,8,001,21,w,Psychologie,2023-01-09_09h03.20.146,00_bat_bachelor,2022.2.4,59.96421043449304,
,,,,,,,,,,,,1,0,1,0,11,0,11,0,,,,,,,11,,,0.2,1157.9064154697771,X,d,go,d,1,0.25480039130354726,,,,,,,,,,,,,,,,,,8,001,21,w,Psychologie,2023-01-09_09h03.20.146,00_bat_bachelor,2022.2.4,59.96421043449304,
,,,,,,,,,,,,1,0,1,0,12,0,12,0,,,,,,,12,,,0.2,1158.473654532681,Y,l,go,l,1,0.43963878395254596,,,,,,,,,,,,,,,,,,8,001,21,w,Psychologie,2023-01-09_09h03.20.146,00_bat_bachelor,2022.2.4,59.96421043449304,
,,,,,,,,,,,,1,0,1,0,13,0,13,0,,,,,,,13,,,0.2,1159.2240961086527,Y,None,nogo,None,1,,,,,,,,,,,,,,,,,,,8,001,21,w,Psychologie,2023-01-09_09h03.20.146,00_bat_bachelor,2022.2.4,59.96421043449304,
,,,,,,,,,,,,1,0,1,0,14,0,14,0,,,,,,,14,,,0.2,1160.2248931999484,X,d,go,d,1,0.2728711879439061,,,,,,,,,,,,,,,,,,8,001,21,w,Psychologie,2023-01-09_09h03.20.146,00_bat_bachelor,2022.2.4,59.96421043449304,
,,,,,,,,,,,,1,0,1,0,15,0,15,0,,,,,,,15,,,0.2,1160.8088260891277,Y,l,go,l,1,0.3132139953826254,,,,,,,,,,,,,,,,,,8,001,21,w,Psychologie,2023-01-09_09h03.20.146,00_bat_bachelor,2022.2.4,59.96421043449304,
,,,,,,,,,,,,1,0,1,0,16,0,16,0,,,,,,,16,,,0.2,1161.4259764489584,Y,None,nogo,None,1,,,,,,,,,,,,,,,,,,,8,001,21,w,Psychologie,2023-01-09_09h03.20.146,00_bat_bachelor,2022.2.4,59.96421043449304,
,,,,,,,,,,,,1,0,1,0,17,0,17,0,,,,,,,17,,,0.2,1162.4265558431784,Y,None,nogo,None,1,,1163.2273508981093,,,,,,,,,,,,,,,,,8,001,21,w,Psychologie,2023-01-09_09h03.20.146,00_bat_bachelor,2022.2.4,59.96421043449304,
,,,,,,,,,,,,1,0,1,0,18,0,18,0,,,,,,,18,,,0.2,1163.4273325708277,X,d,go,d,1,0.36542783888046415,,,,,,,,,,,,,,,,,,8,001,21,w,Psychologie,2023-01-09_09h03.20.146,00_bat_bachelor,2022.2.4,59.96421043449304,
,,,,,,,,,,,,1,0,1,0,19,0,19,0,,,,,,,19,,,0.2,1164.0944742276238,Y,l,go,l,1,0.25908354489513385,,,,,,,,,,,,,,,,,,8,001,21,w,Psychologie,2023-01-09_09h03.20.146,00_bat_bachelor,2022.2.4,59.96421043449304,
,,,,,,,,,,,,1,0,1,0,20,0,20,0,,,,,,,20,,,0.2,1164.66175401782,Y,None,nogo,None,1,,,,,,,,,,,,,,,,,,,8,001,21,w,Psychologie,2023-01-09_09h03.20.146,00_bat_bachelor,2022.2.4,59.96421043449304,
,,,,,,,,,,,,1,0,1,0,21,0,21,0,,,,,,,21,,,0.2,1165.6625467454774,Y,None,nogo,None,1,,1166.4633199822156,,,,,,,,,,,,,,,,,8,001,21,w,Psychologie,2023-01-09_09h03.20.146,00_bat_bachelor,2022.2.4,59.96421043449304,
,,,,,,,,,,,,1,0,1,0,22,0,22,0,,,,,,,22,,,0.2,1166.6634189883243,X,d,go,d,1,0.45797236859891655,,,,,,,,,,,,,,,,,,8,001,21,w,Psychologie,2023-01-09_09h03.20.146,00_bat_bachelor,2022.2.4,59.96421043449304,
,,,,,,,,,,,,1,0,1,0,23,0,23,0,,,,,,,23,,,0.2,1167.4303425116814,Y,l,go,l,1,0.49053092983956503,,,,,,,,,,,,,,,,,,8,001,21,w,Psychologie,2023-01-09_09h03.20.146,00_bat_bachelor,2022.2.4,59.96421043449304,
,,,,,,,,,,,,1,0,1,0,24,0,24,0,,,,,,,24,,,0.2,1168.2310313847424,Y,None,nogo,l,0,0.6014458927073747,,,,,,,,,,,,,,,,,,8,001,21,w,Psychologie,2023-01-09_09h03.20.146,00_bat_bachelor,2022.2.4,59.96421043449304,
,,,,,,,,,,,,1,0,1,0,25,0,25,0,,,,,,,25,,,0.2,1169.1483937689181,Y,None,nogo,None,1,,1169.9491587632283,,,,,,,,,,,,,,,,,8,001,21,w,Psychologie,2023-01-09_09h03.20.146,00_bat_bachelor,2022.2.4,59.96421043449304,
,,,,,,,,,,,,1,0,1,0,26,0,26,0,,,,,,,26,,,0.2,1170.1493367996786,X,d,go,d,1,0.3632717166229895,,,,,,,,,,,,,,,,,,8,001,21,w,Psychologie,2023-01-09_09h03.20.146,00_bat_bachelor,2022.2.4,59.96421043449304,
,,,,,,,,,,,,1,0,1,0,27,0,27,0,,,,,,,27,,,0.2,1170.8164866989027,Y,l,go,l,1,0.28874028654684025,,,,,,,,,,,,,,,,,,8,001,21,w,Psychologie,2023-01-09_09h03.20.146,00_bat_bachelor,2022.2.4,59.96421043449304,
,,,,,,,,,,,,1,0,1,0,28,0,28,0,,,,,,,28,,,0.2,1171.4169345051805,X,d,go,d,1,0.5044140880858095,,,,,,,,,,,,,,,,,,8,001,21,w,Psychologie,2023-01-09_09h03.20.146,00_bat_bachelor,2022.2.4,59.96421043449304,
,,,,,,,,,,,,1,0,1,0,29,0,29,0,,,,,,,29,,,0.2,1172.2343962348587,Y,l,go,l,1,0.26385881993780913,,,,,,,,,,,,,,,,,,8,001,21,w,Psychologie,2023-01-09_09h03.20.146,00_bat_bachelor,2022.2.4,59.96421043449304,
,,,,,,,,,,,,1,0,1,0,30,0,30,0,,,,,,,30,,,0.2,1172.8013637824793,Y,None,nogo,d,0,0.3027970206352393,,,,,,,,,,,,,,,,,,8,001,21,w,Psychologie,2023-01-09_09h03.20.146,00_bat_bachelor,2022.2.4,59.96421043449304,
,,,,,,,,,,,,1,0,1,0,31,0,31,0,,,,,,,31,,,0.2,1173.4184758392612,X,d,go,None,0,,1174.2190691971246,,,,,,,,,,,,,,,,,8,001,21,w,Psychologie,2023-01-09_09h03.20.146,00_bat_bachelor,2022.2.4,59.96421043449304,
,,,,,,,,,,,,1,0,1,0,32,0,32,0,,,,,,,32,,,0.2,1174.4190125667938,Y,l,go,l,1,0.3180329068101173,,,,,,,,,,,,,,,,,,8,001,21,w,Psychologie,2023-01-09_09h03.20.146,00_bat_bachelor,2022.2.4,59.96421043449304,
,,,,,,,,,,,,1,0,1,0,33,0,33,0,,,,,,,33,,,0.2,1175.0530831772526,X,d,go,d,1,0.2612503338247052,,,,,,,,,,,,,,,,,,8,001,21,w,Psychologie,2023-01-09_09h03.20.146,00_bat_bachelor,2022.2.4,59.96421043449304,
,,,,,,,,,,,,1,0,1,0,34,0,34,0,,,,,,,34,,,0.2,1175.6199479369443,Y,l,go,l,1,0.30020986786564663,,,,,,,,,,,,,,,,,,8,001,21,w,Psychologie,2023-01-09_09h03.20.146,00_bat_bachelor,2022.2.4,59.96421043449304,
,,,,,,,,,,,,1,0,1,0,35,0,35,0,,,,,,,35,,,0.2,1176.2205790160383,Y,None,nogo,None,1,,,,,,,,,,,,,,,,,,,8,001,21,w,Psychologie,2023-01-09_09h03.20.146,00_bat_bachelor,2022.2.4,59.96421043449304,
,,,,,,,,,,,,1,0,1,0,36,0,36,0,,,,,,,36,,,0.2,1177.2211584102588,X,d,go,d,1,0.10811038078702495,,,,,,,,,,,,,,,,,,8,001,21,w,Psychologie,2023-01-09_09h03.20.146,00_bat_bachelor,2022.2.4,59.96421043449304,
,,,,,,,,,,,,1,0,1,0,37,0,37,0,,,,,,,37,,,0.2,1177.6383319458578,Y,l,go,l,1,0.4749231646964063,,,,,,,,,,,,,,,,,,8,001,21,w,Psychologie,2023-01-09_09h03.20.146,00_bat_bachelor,2022.2.4,59.96421043449304,
,,,,,,,,,,,,1,0,1,0,38,0,38,0,,,,,,,38,,,0.2,1178.422223235017,Y,None,nogo,None,1,,,,,,,,,,,,,,,,,,,8,001,21,w,Psychologie,2023-01-09_09h03.20.146,00_bat_bachelor,2022.2.4,59.96421043449304,
,,,,,,,,,,,,1,0,1,0,39,0,39,0,,,,,,,39,,,0.2,1179.423027114195,X,d,go,d,1,0.2907558026757897,,,,,,,,,,,,,,,,,,8,001,21,w,Psychologie,2023-01-09_09h03.20.146,00_bat_bachelor,2022.2.4,59.96421043449304,
,,,,,,,,,,,,1,0,1,0,40,0,40,0,,,,,,,40,,,0.2,1180.023289223413,Y,l,go,None,0,,1180.823928157056,,,,,,,,,,,,,,,,,8,001,21,w,Psychologie,2023-01-09_09h03.20.146,00_bat_bachelor,2022.2.4,59.96421043449304,
,,,,,,,,,,,,1,0,1,0,41,0,41,0,,,,,,,41,,,0.2,1181.0240727389441,Y,None,nogo,l,0,0.41627877262624224,,,,,,,,,,,,,,,,,,8,001,21,w,Psychologie,2023-01-09_09h03.20.146,00_bat_bachelor,2022.2.4,59.96421043449304,
,,,,,,,,,,,,1,0,1,0,42,0,42,0,,,,,,,42,,,0.2,1181.7413390261036,X,d,go,d,1,0.3559020160799946,,,,,,,,,,,,,,,,,,8,001,21,w,Psychologie,2023-01-09_09h03.20.146,00_bat_bachelor,2022.2.4,59.96421043449304,
,,,,,,,,,,,,1,0,1,0,43,0,43,0,,,,,,,43,,,0.2,1182.408708561798,Y,l,go,l,1,0.2966985934359627,,,,,,,,,,,,,,,,,,8,001,21,w,Psychologie,2023-01-09_09h03.20.146,00_bat_bachelor,2022.2.4,59.96421043449304,
,,,,,,,,,,,,1,0,1,0,44,0,44,0,,,,,,,44,,,0.2,1183.0091301862449,X,d,go,d,1,0.2881589529318944,,,,,,,,,,,,,,,,,,8,001,21,w,Psychologie,2023-01-09_09h03.20.146,00_bat_bachelor,2022.2.4,59.96421043449304,
,,,,,,,,,,,,1,0,1,0,45,0,45,0,,,,,,,45,,,0.2,1183.6094936288455,X,None,nogo,l,0,0.327812305491193,,,,,,,,,,,,,,,,,,8,001,21,w,Psychologie,2023-01-09_09h03.20.146,00_bat_bachelor,2022.2.4,59.96421043449304,
,,,,,,,,,,,,1,0,1,0,46,0,46,0,,,,,,,46,,,0.2,1184.2433465422287,Y,l,go,None,0,,,,,,,,,,,,,,,,,,,8,001,21,w,Psychologie,2023-01-09_09h03.20.146,00_bat_bachelor,2022.2.4,59.96421043449304,
,,,,,,,,,,,,1,0,1,0,47,0,47,0,,,,,,,47,,,0.2,1185.2440025425467,X,d,go,d,1,0.34161110006027684,,,,,,,,,,,,,,,,,,8,001,21,w,Psychologie,2023-01-09_09h03.20.146,00_bat_bachelor,2022.2.4,59.96421043449304,
,,,,,,,,,,,,1,0,1,0,48,0,48,0,,,,,,,48,,,0.2,1185.8944334033617,Y,l,go,None,0,,,,,,,,,,,,,,,,,,,8,001,21,w,Psychologie,2023-01-09_09h03.20.146,00_bat_bachelor,2022.2.4,59.96421043449304,
,,,,,,,,,,,,1,0,1,0,49,0,49,0,,,,,,,49,,,0.2,1186.8954927978148,Y,None,nogo,None,1,,,,,,,,,,,,,,,,,,,8,001,21,w,Psychologie,2023-01-09_09h03.20.146,00_bat_bachelor,2022.2.4,59.96421043449304,
,,,,,,,,,,,,1,0,1,0,50,0,50,0,,,,,,,50,,,0.2,1187.8963398285282,X,d,go,d,1,0.15224179612357602,,,,,,,,,,,,,,,,,,8,001,21,w,Psychologie,2023-01-09_09h03.20.146,00_bat_bachelor,2022.2.4,59.96421043449304,
,,,,,,,,,,,,1,0,1,0,51,0,51,0,,,,,,,51,,,0.2,1188.363248660969,Y,l,go,l,1,0.3108741154604786,,,,,,,,,,,,,,,,,,8,001,21,w,Psychologie,2023-01-09_09h03.20.146,00_bat_bachelor,2022.2.4,59.96421043449304,
,,,,,,,,,,,,1,0,1,0,52,0,52,0,,,,,,,52,,,0.2,1188.980341323802,Y,None,nogo,None,1,,1189.780861954357,,,,,,,,,,,,,,,,,8,001,21,w,Psychologie,2023-01-09_09h03.20.146,00_bat_bachelor,2022.2.4,59.96421043449304,
,,,,,,,,,,,,1,0,1,0,53,0,53,0,,,,,,,53,,,0.2,1189.980837324042,X,d,go,d,1,0.2129666740505627,,,,,,,,,,,,,,,,,,8,001,21,w,Psychologie,2023-01-09_09h03.20.146,00_bat_bachelor,2022.2.4,59.96421043449304,
,,,,,,,,,,,,1,0,1,0,54,0,54,0,,,,,,,54,,,0.2,1190.4982256961093,Y,l,go,l,1,0.2868934977728941,,,,,,,,,,,,,,,,,,8,001,21,w,Psychologie,2023-01-09_09h03.20.146,00_bat_bachelor,2022.2.4,59.96421043449304,
,,,,,,,,,,,,1,0,1,0,55,0,55,0,,,,,,,55,,,0.2,1191.0986099872048,Y,None,nogo,None,1,,1191.899198496581,,,,,,,,,,,,,,,,,8,001,21,w,Psychologie,2023-01-09_09h03.20.146,00_bat_bachelor,2022.2.4,59.96421043449304,
,,,,,,,,,,,,1,0,1,0,56,0,56,0,,,,,,,56,,,0.2,1192.0993391996794,X,d,go,d,1,0.25349760279311795,,,,,,,,,,,,,,,,,,8,001,21,w,Psychologie,2023-01-09_09h03.20.146,00_bat_bachelor,2022.2.4,59.96421043449304,
,,,,,,,,,,,,1,0,1,0,57,0,57,0,,,,,,,57,,,0.2,1192.6664909898136,Y,l,go,None,0,,1193.4671051961723,,,,,,,,,,,,,,,,,8,001,21,w,Psychologie,2023-01-09_09h03.20.146,00_bat_bachelor,2022.2.4,59.96421043449304,
,,,,,,,,,,,,1,0,1,0,58,0,58,0,,,,,,,58,,,0.2,1193.6672570507912,Y,None,nogo,d,0,0.30152138365303927,,,,,,,,,,,,,,,,,,8,001,21,w,Psychologie,2023-01-09_09h03.20.146,00_bat_bachelor,2022.2.4,59.96421043449304,
,,,,,,,,,,,,1,0,1,0,59,0,59,0,,,,,,,59,,,0.2,1194.2841135922977,X,d,go,None,0,,,,,,,,,,,,,,,,,,,8,001,21,w,Psychologie,2023-01-09_09h03.20.146,00_bat_bachelor,2022.2.4,59.96421043449304,
,,,,,,,,,,,,1,0,1,0,60,0,60,0,,,,,,,60,,,0.2,1195.2849829260522,Y,l,go,l,1,0.28405519336627094,,,,,,,,,,,,,,,,,,8,001,21,w,Psychologie,2023-01-09_09h03.20.146,00_bat_bachelor,2022.2.4,59.96421043449304,
,,,,,,,,,,,,1,0,1,0,61,0,61,0,,,,,,,61,,,0.2,1195.8687601787929,X,d,go,d,1,0.49994620713175664,,,,,,,,,,,,,,,,,,8,001,21,w,Psychologie,2023-01-09_09h03.20.146,00_bat_bachelor,2022.2.4,59.96421043449304,
,,,,,,,,,,,,1,0,1,0,62,0,62,0,,,,,,,62,,,0.2,1196.669308930574,Y,l,go,l,1,0.660042284754013,,,,,,,,,,,,,,,,,,8,001,21,w,Psychologie,2023-01-09_09h03.20.146,00_bat_bachelor,2022.2.4,59.96421043449304,
,,,,,,,,,,,,1,0,1,0,63,0,63,0,,,,,,,63,,,0.2,1197.6368938845544,Y,None,nogo,None,1,,1198.4372743938302,,,,,,,,,,,,,,,,,8,001,21,w,Psychologie,2023-01-09_09h03.20.146,00_bat_bachelor,2022.2.4,59.96421043449304,
,,,,,,,,,,,,1,0,1,0,64,0,64,0,,,,,,,64,,,0.2,1198.6374703696824,X,d,go,d,1,0.3242030916200065,,,,,,,,,,,,,,,,,,8,001,21,w,Psychologie,2023-01-09_09h03.20.146,00_bat_bachelor,2022.2.4,59.96421043449304,
,,,,,,,,,,,,1,0,1,0,65,0,65,0,,,,,,,65,,,0.2,1199.2715128589152,Y,l,go,l,1,0.265274093351195,,,,,,,,,,,,,,,,,,8,001,21,w,Psychologie,2023-01-09_09h03.20.146,00_bat_bachelor,2022.2.4,59.96421043449304,
,,,,,,,,,,,,1,0,1,0,66,0,66,0,,,,,,,66,,,0.2,1199.8385768914313,X,d,go,d,1,0.5790938818701079,,,,,,,,,,,,,,,,,,8,001,21,w,Psychologie,2023-01-09_09h03.20.146,00_bat_bachelor,2022.2.4,59.96421043449304,
,,,,,,,,,,,,1,0,1,0,67,0,67,0,,,,,,,67,,,0.2,1200.7226839867558,Y,l,go,l,1,0.19006581446240034,,,,,,,,,,,,,,,,,,8,001,21,w,Psychologie,2023-01-09_09h03.20.146,00_bat_bachelor,2022.2.4,59.96421043449304,
,,,,,,,,,,,,1,0,1,0,68,0,68,0,,,,,,,68,,,0.2,1201.222984350538,X,d,go,None,0,,1202.0236877690609,,,,,,,,,,,,,,,,,8,001,21,w,Psychologie,2023-01-09_09h03.20.146,00_bat_bachelor,2022.2.4,59.96421043449304,
,,,,,,,,,,,,1,0,1,0,69,0,69,0,,,,,,,69,,,0.2,1202.2237227751384,Y,l,go,l,1,0.545754714190366,,,,,,,,,,,,,,,,,,8,001,21,w,Psychologie,2023-01-09_09h03.20.146,00_bat_bachelor,2022.2.4,59.96421043449304,
,,,,,,,,,,,,1,0,1,0,70,0,70,0,,,,,,,70,,,0.2,1203.0744490057932,X,d,go,d,1,0.36610759678558225,,,,,,,,,,,,,,,,,,8,001,21,w,Psychologie,2023-01-09_09h03.20.146,00_bat_bachelor,2022.2.4,59.96421043449304,
,,,,,,,,,,,,1,0,1,0,71,0,71,0,,,,,,,71,,,0.2,1203.7415882383457,Y,l,go,l,1,0.5154133661461628,,,,,,,,,,,,,,,,,,8,001,21,w,Psychologie,2023-01-09_09h03.20.146,00_bat_bachelor,2022.2.4,59.96421043449304,
,,,,,,,,,,,,1,0,1,0,72,0,72,0,,,,,,,72,,,0.2,1204.55889239219,X,d,go,d,1,0.5136970016775422,,,,,,,,,,,,,,,,,,8,001,21,w,Psychologie,2023-01-09_09h03.20.146,00_bat_bachelor,2022.2.4,59.96421043449304,
,,,,,,,,,,,,1,0,1,0,73,0,73,0,,,,,,,73,,,0.2,1205.376121879332,Y,l,go,l,1,0.5297319185427796,,,,,,,,,,,,,,,,,,8,001,21,w,Psychologie,2023-01-09_09h03.20.146,00_bat_bachelor,2022.2.4,59.96421043449304,
,,,,,,,,,,,,1,0,1,0,74,0,74,0,,,,,,,74,,,0.2,1206.21019258676,X,d,go,d,1,0.38303366559841834,,,,,,,,,,,,,,,,,,8,001,21,w,Psychologie,2023-01-09_09h03.20.146,00_bat_bachelor,2022.2.4,59.96421043449304,
,,,,,,,,,,,,1,0,1,0,75,0,75,0,,,,,,,75,,,0.2,1206.8940367971086,Y,l,go,l,1,0.5637823592945779,,,,,,,,,,,,,,,,,,8,001,21,w,Psychologie,2023-01-09_09h03.20.146,00_bat_bachelor,2022.2.4,59.96421043449304,
,,,,,,,,,,,,1,0,1,0,76,0,76,0,,,,,,,76,,,0.2,1207.761111641751,X,d,go,d,1,0.3516494079575523,,,,,,,,,,,,,,,,,,8,001,21,w,Psychologie,2023-01-09_09h03.20.146,00_bat_bachelor,2022.2.4,59.96421043449304,
,,,,,,,,,,,,1,0,1,0,77,0,77,0,,,,,,,77,,,0.2,1208.4285199653432,Y,l,go,l,1,0.45258036598477247,,,,,,,,,,,,,,,,,,8,001,21,w,Psychologie,2023-01-09_09h03.20.146,00_bat_bachelor,2022.2.4,59.96421043449304,
,,,,,,,,,,,,1,0,1,0,78,0,78,0,,,,,,,78,,,0.2,1209.195740700965,Y,None,nogo,None,1,,,,,,,,,,,,,,,,,,,8,001,21,w,Psychologie,2023-01-09_09h03.20.146,00_bat_bachelor,2022.2.4,59.96421043449304,
,,,,,,,,,,,,1,0,1,0,79,0,79,0,,,,,,,79,,,0.2,1210.1964723376836,X,d,go,d,1,0.3010859895024396,,,,,,,,,,,,,,,,,,8,001,21,w,Psychologie,2023-01-09_09h03.20.146,00_bat_bachelor,2022.2.4,59.96421043449304,
,,,,,,,,,,,,1,0,1,0,80,0,80,0,,,,,,,80,,,0.2,1210.8134680307721,Y,l,go,l,1,0.5324000410488452,,,,,,,,,,,,,,,,,,8,001,21,w,Psychologie,2023-01-09_09h03.20.146,00_bat_bachelor,2022.2.4,59.96421043449304,
,,,,,,,,,,,,1,0,1,0,81,0,81,0,,,,,,,81,,,0.2,1211.6476487988598,Y,None,nogo,None,1,,1212.4482382779338,,,,,,,,,,,,,,,,,8,001,21,w,Psychologie,2023-01-09_09h03.20.146,00_bat_bachelor,2022.2.4,59.96421043449304,
,,,,,,,,,,,,1,0,1,0,82,0,82,0,,,,,,,82,,,0.2,1212.6483833446705,X,d,go,d,1,0.18447890266281775,,,,,,,,,,,,,,,,,,8,001,21,w,Psychologie,2023-01-09_09h03.20.146,00_bat_bachelor,2022.2.4,59.96421043449304,
,,,,,,,,,,,,1,0,1,0,83,0,83,0,,,,,,,83,,,0.2,1213.1486807993601,Y,l,go,l,1,0.45160872915005257,,,,,,,,,,,,,,,,,,8,001,21,w,Psychologie,2023-01-09_09h03.20.146,00_bat_bachelor,2022.2.4,59.96421043449304,
,,,,,,,,,,,,1,0,1,0,84,0,84,0,,,,,,,84,,,0.2,1213.9159955956343,Y,None,nogo,None,1,,1214.7166369535207,,,,,,,,,,,,,,,,,8,001,21,w,Psychologie,2023-01-09_09h03.20.146,00_bat_bachelor,2022.2.4,59.96421043449304,
,,,,,,,,,,,,1,0,1,0,85,0,85,0,,,,,,,85,,,0.2,1214.9169100203198,X,d,go,d,1,0.6360345155381992,,,,,,,,,,,,,,,,,,8,001,21,w,Psychologie,2023-01-09_09h03.20.146,00_bat_bachelor,2022.2.4,59.96421043449304,
,,,,,,,,,,,,1,0,1,0,86,0,86,0,,,,,,,86,,,0.2,1215.8675170266747,Y,l,go,None,0,,1216.6680890511948,,,,,,,,,,,,,,,,,8,001,21,w,Psychologie,2023-01-09_09h03.20.146,00_bat_bachelor,2022.2.4,59.96421043449304,
,,,,,,,,,,,,1,0,1,0,87,0,87,0,,,,,,,87,,,0.2,1216.8680998148361,X,d,go,d,1,0.5733915760748687,,,,,,,,,,,,,,,,,,8,001,21,w,Psychologie,2023-01-09_09h03.20.146,00_bat_bachelor,2022.2.4,59.96421043449304,
,,,,,,,,,,,,1,0,1,0,88,0,88,0,,,,,,,88,,,0.2,1217.7522195162278,X,None,nogo,None,1,,,,,,,,,,,,,,,,,,,8,001,21,w,Psychologie,2023-01-09_09h03.20.146,00_bat_bachelor,2022.2.4,59.96421043449304,
,,,,,,,,,,,,1,0,1,0,89,0,89,0,,,,,,,89,,,0.2,1218.7528958801918,Y,l,go,l,1,0.44859297011191757,,,,,,,,,,,,,,,,,,8,001,21,w,Psychologie,2023-01-09_09h03.20.146,00_bat_bachelor,2022.2.4,59.96421043449304,
,,,,,,,,,,,,1,0,1,0,90,0,90,0,,,,,,,90,,,0.2,1219.503610425993,X,d,go,d,1,0.3051781126988544,,,,,,,,,,,,,,,,,,8,001,21,w,Psychologie,2023-01-09_09h03.20.146,00_bat_bachelor,2022.2.4,59.96421043449304,
,,,,,,,,,,,,1,0,1,0,91,0,91,0,,,,,,,91,,,0.2,1220.120548906933,Y,l,go,l,1,0.26456378997670527,,,,,,,,,,,,,,,,,,8,001,21,w,Psychologie,2023-01-09_09h03.20.146,00_bat_bachelor,2022.2.4,59.96421043449304,
,,,,,,,,,,,,1,0,1,0,92,0,92,0,,,,,,,92,,,0.2,1220.6878825153372,Y,None,nogo,None,1,,,,,,,,,,,,,,,,,,,8,001,21,w,Psychologie,2023-01-09_09h03.20.146,00_bat_bachelor,2022.2.4,59.96421043449304,
,,,,,,,,,,,,1,0,1,0,93,0,93,0,,,,,,,93,,,0.2,1221.6884056671056,Y,None,nogo,d,0,0.04178986378326499,,,,,,,,,,,,,,,,,,8,001,21,w,Psychologie,2023-01-09_09h03.20.146,00_bat_bachelor,2022.2.4,59.96421043449304,
,,,,,,,,,,,,1,0,1,0,94,0,94,0,,,,,,,94,,,0.2,1222.0386972308834,X,d,go,None,0,,,,,,,,,,,,,,,,,,,8,001,21,w,Psychologie,2023-01-09_09h03.20.146,00_bat_bachelor,2022.2.4,59.96421043449304,
,,,,,,,,,,,,1,0,1,0,95,0,95,0,,,,,,,95,,,0.2,1223.039684382877,Y,l,go,l,1,0.3058476887810002,,,,,,,,,,,,,,,,,,8,001,21,w,Psychologie,2023-01-09_09h03.20.146,00_bat_bachelor,2022.2.4,59.96421043449304,
,,,,,,,,,,,,1,0,1,0,96,0,96,0,,,,,,,96,,,0.2,1223.6567503790307,Y,None,nogo,d,0,0.2810597979745353,,,,,,,,,,,,,,,,,,8,001,21,w,Psychologie,2023-01-09_09h03.20.146,00_bat_bachelor,2022.2.4,59.96421043449304,
,,,,,,,,,,,,1,0,1,0,97,0,97,0,,,,,,,97,,,0.2,1224.240390904432,X,d,go,None,0,,1225.0411108078115,,,,,,,,,,,,,,,,,8,001,21,w,Psychologie,2023-01-09_09h03.20.146,00_bat_bachelor,2022.2.4,59.96421043449304,
,,,,,,,,,,,,1,0,1,0,98,0,98,0,,,,,,,98,,,0.2,1225.2413955109796,Y,l,go,l,1,0.21522412969068228,,,,,,,,,,,,,,,,,,8,001,21,w,Psychologie,2023-01-09_09h03.20.146,00_bat_bachelor,2022.2.4,59.96421043449304,
,,,,,,,,,,,,1,0,1,0,99,0,99,0,,,,,,,99,,,0.2,1225.7583518828374,X,d,go,d,1,0.4180484704539822,,,,,,,,,,,,,,,,,,8,001,21,w,Psychologie,2023-01-09_09h03.20.146,00_bat_bachelor,2022.2.4,59.96421043449304,
,,,,,,,,,,,,1,0,1,0,100,0,100,0,,,,,,,100,,,0.2,1226.4921296931539,Y,l,go,None,0,,1227.2928369904662,,,,,,,,,,,,,,,,,8,001,21,w,Psychologie,2023-01-09_09h03.20.146,00_bat_bachelor,2022.2.4,59.96421043449304,
,,,,,,,,,,,,1,0,1,0,101,0,101,0,,,,,,,101,,,0.2,1227.4930096935805,Y,None,nogo,l,0,0.3160619967635512,,,,,,,,,,,,,,,,,,8,001,21,w,Psychologie,2023-01-09_09h03.20.146,00_bat_bachelor,2022.2.4,59.96421043449304,
,,,,,,,,,,,,1,0,1,0,102,0,102,0,,,,,,,102,,,0.2,1228.1100339927439,X,d,go,d,1,0.2915897424740024,,,,,,,,,,,,,,,,,,8,001,21,w,Psychologie,2023-01-09_09h03.20.146,00_bat_bachelor,2022.2.4,59.96421043449304,
,,,,,,,,,,,,1,0,1,0,103,0,103,0,,,,,,,103,,,0.2,1228.710627738486,Y,l,go,l,1,0.34728576947816236,,,,,,,,,,,,,,,,,,8,001,21,w,Psychologie,2023-01-09_09h03.20.146,00_bat_bachelor,2022.2.4,59.96421043449304,
,,,,,,,,,,,,1,0,1,0,104,0,104,0,,,,,,,104,,,0.2,1229.3611240538785,Y,None,nogo,None,1,,,,,,,,,,,,,,,,,,,8,001,21,w,Psychologie,2023-01-09_09h03.20.146,00_bat_bachelor,2022.2.4,59.96421043449304,
,,,,,,,,,,,,1,0,1,0,105,0,105,0,,,,,,,105,,,0.2,1230.3620583573615,X,d,go,d,1,0.3119800553905634,,,,,,,,,,,,,,,,,,8,001,21,w,Psychologie,2023-01-09_09h03.20.146,00_bat_bachelor,2022.2.4,59.96421043449304,
,,,,,,,,,,,,1,0,1,0,106,0,106,0,,,,,,,106,,,0.2,1230.9790215655862,Y,l,go,l,1,0.2701182169120102,,,,,,,,,,,,,,,,,,8,001,21,w,Psychologie,2023-01-09_09h03.20.146,00_bat_bachelor,2022.2.4,59.96421043449304,
,,,,,,,,,,,,1,0,1,0,107,0,107,0,,,,,,,107,,,0.2,1231.562624757636,X,d,go,d,1,0.35923292678592134,,,,,,,,,,,,,,,,,,8,001,21,w,Psychologie,2023-01-09_09h03.20.146,00_bat_bachelor,2022.2.4,59.96421043449304,
,,,,,,,,,,,,1,0,1,0,108,0,108,0,,,,,,,108,,,0.2,1232.2301605964417,Y,l,go,l,1,0.3468009207582554,,,,,,,,,,,,,,,,,,8,001,21,w,Psychologie,2023-01-09_09h03.20.146,00_bat_bachelor,2022.2.4,59.96421043449304,
,,,,,,,,,,,,1,0,1,0,109,0,109,0,,,,,,,109,,,0.2,1232.880671942144,X,d,go,d,1,0.3211369083149975,,,,,,,,,,,,,,,,,,8,001,21,w,Psychologie,2023-01-09_09h03.20.146,00_bat_bachelor,2022.2.4,59.96421043449304,
,,,,,,,,,,,,1,0,1,0,110,0,110,0,,,,,,,110,,,0.2,1233.5142247341696,Y,l,go,None,0,,1234.3149242739028,,,,,,,,,,,,,,,,,8,001,21,w,Psychologie,2023-01-09_09h03.20.146,00_bat_bachelor,2022.2.4,59.96421043449304,
,,,,,,,,,,,,1,0,1,0,111,0,111,0,,,,,,,111,,,0.2,1234.5147861889873,Y,None,nogo,d,0,0.2701482775327122,,,,,,,,,,,,,,,,,,8,001,21,w,Psychologie,2023-01-09_09h03.20.146,00_bat_bachelor,2022.2.4,59.96421043449304,
,,,,,,,,,,,,1,0,1,0,112,0,112,0,,,,,,,112,,,0.2,1235.098872775211,X,d,go,None,0,,1235.8993119511815,,,,,,,,,,,,,,,,,8,001,21,w,Psychologie,2023-01-09_09h03.20.146,00_bat_bachelor,2022.2.4,59.96421043449304,
,,,,,,,,,,,,1,0,1,0,113,0,113,0,,,,,,,113,,,0.2,1236.099506472488,Y,l,go,l,1,0.2688682769120305,,,,,,,,,,,,,,,,,,8,001,21,w,Psychologie,2023-01-09_09h03.20.146,00_bat_bachelor,2022.2.4,59.96421043449304,
,,,,,,,,,,,,1,0,1,0,114,0,114,0,,,,,,,114,,,0.2,1236.683182876695,Y,None,nogo,None,1,,,,,,,,,,,,,,,,,,,8,001,21,w,Psychologie,2023-01-09_09h03.20.146,00_bat_bachelor,2022.2.4,59.96421043449304,
,,,,,,,,,,,,1,0,1,0,115,0,115,0,,,,,,,115,,,0.2,1237.6841419074626,X,d,go,d,1,0.3809148766923727,,,,,,,,,,,,,,,,,,8,001,21,w,Psychologie,2023-01-09_09h03.20.146,00_bat_bachelor,2022.2.4,59.96421043449304,
,,,,,,,,,,,,1,0,1,0,116,0,116,0,,,,,,,116,,,0.2,1238.3678518147162,Y,l,go,l,1,0.33693812809758583,,,,,,,,,,,,,,,,,,8,001,21,w,Psychologie,2023-01-09_09h03.20.146,00_bat_bachelor,2022.2.4,59.96421043449304,
,,,,,,,,,,,,1,0,1,0,117,0,117,0,,,,,,,117,,,0.2,1239.0183287361592,Y,None,nogo,None,1,,,,,,,,,,,,,,,,,,,8,001,21,w,Psychologie,2023-01-09_09h03.20.146,00_bat_bachelor,2022.2.4,59.96421043449304,
,,,,,,,,,,,,1,0,1,0,118,0,118,0,,,,,,,118,,,0.2,1240.0192460699373,X,d,go,None,0,,1240.8196871853029,,,,,,,,,,,,,,,,,8,001,21,w,Psychologie,2023-01-09_09h03.20.146,00_bat_bachelor,2022.2.4,59.96421043449304,
,,,,,,,,,,,,1,0,1,0,119,0,119,0,,,,,,,119,,,0.2,1241.020076130946,Y,l,go,l,1,0.38884651690148075,,,,,,,,,,,,,,,,,,8,001,21,w,Psychologie,2023-01-09_09h03.20.146,00_bat_bachelor,2022.2.4,59.96421043449304,
,,,,,,,,,,,,1,0,1,0,120,0,120,0,,,,,,,120,,,0.2,1241.720427985662,Y,None,nogo,None,1,,1242.5211391617645,,,,,,,,,,,,,,,,,8,001,21,w,Psychologie,2023-01-09_09h03.20.146,00_bat_bachelor,2022.2.4,59.96421043449304,
,,,,,,,,,,,,1,0,1,0,121,0,121,0,,,,,,,121,,,0.2,1242.7212929557782,X,d,go,None,0,,,,,,,,,,,,,,,,,,,8,001,21,w,Psychologie,2023-01-09_09h03.20.146,00_bat_bachelor,2022.2.4,59.96421043449304,
,,,,,,,,,,,,1,0,1,0,122,0,122,0,,,,,,,122,,,0.2,1243.722065804638,Y,l,go,l,1,0.3599398362194961,,,,,,,,,,,,,,,,,,8,001,21,w,Psychologie,2023-01-09_09h03.20.146,00_bat_bachelor,2022.2.4,59.96421043449304,
,,,,,,,,,,,,1,0,1,0,123,0,123,0,,,,,,,123,,,0.2,1244.3893582493856,X,d,go,d,1,0.3954719746594719,,,,,,,,,,,,,,,,,,8,001,21,w,Psychologie,2023-01-09_09h03.20.146,00_bat_bachelor,2022.2.4,59.96421043449304,
,,,,,,,,,,,,1,0,1,0,124,0,124,0,,,,,,,124,,,0.2,1245.089813861728,Y,l,go,l,1,0.5112785762624981,,,,,,,,,,,,,,,,,,8,001,21,w,Psychologie,2023-01-09_09h03.20.146,00_bat_bachelor,2022.2.4,59.96421043449304,
,,,,,,,,,,,,1,0,1,0,125,0,125,0,,,,,,,125,,,0.2,1245.9070472276594,X,d,go,d,1,0.2862627095881862,,,,,,,,,,,,,,,,,,8,001,21,w,Psychologie,2023-01-09_09h03.20.146,00_bat_bachelor,2022.2.4,59.96421043449304,
,,,,,,,,,,,,1,0,1,0,126,0,126,0,,,,,,,126,,,0.2,1246.507621579453,X,None,nogo,None,1,,1247.308170816083,,,,,,,,,,,,,,,,,8,001,21,w,Psychologie,2023-01-09_09h03.20.146,00_bat_bachelor,2022.2.4,59.96421043449304,
,,,,,,,,,,,,1,0,1,0,127,0,127,0,,,,,,,127,,,0.2,1247.5081995191272,Y,l,go,l,1,0.26823651902998336,,,,,,,,,,,,,,,,,,8,001,21,w,Psychologie,2023-01-09_09h03.20.146,00_bat_bachelor,2022.2.4,59.96421043449304,
,,,,,,,,,,,,1,0,1,0,128,0,128,0,,,,,,,128,,,0.2,1248.092060650696,X,d,go,d,1,0.2931795614266548,,,,,,,,,,,,,,,,,,8,001,21,w,Psychologie,2023-01-09_09h03.20.146,00_bat_bachelor,2022.2.4,59.96421043449304,
,,,,,,,,,,,,1,0,1,0,129,0,129,0,,,,,,,129,,,0.2,1248.692530275166,Y,l,go,None,0,,1249.4931924815478,,,,,,,,,,,,,,,,,8,001,21,w,Psychologie,2023-01-09_09h03.20.146,00_bat_bachelor,2022.2.4,59.96421043449304,
,,,,,,,,,,,,1,0,1,0,130,0,130,0,,,,,,,130,,,0.2,1249.6933530634437,Y,None,nogo,None,1,,1250.4939318758456,,,,,,,,,,,,,,,,,8,001,21,w,Psychologie,2023-01-09_09h03.20.146,00_bat_bachelor,2022.2.4,59.96421043449304,
,,,,,,,,,,,,1,0,1,0,131,0,131,0,,,,,,,131,,,0.2,1250.6939193667486,X,d,go,None,0,,,,,,,,,,,,,,,,,,,8,001,21,w,Psychologie,2023-01-09_09h03.20.146,00_bat_bachelor,2022.2.4,59.96421043449304,
,,,,,,,,,,,,1,0,1,0,132,0,132,0,,,,,,,132,,,0.2,1251.694635488308,Y,l,go,l,1,0.27468161306398997,,,,,,,,,,,,,,,,,,8,001,21,w,Psychologie,2023-01-09_09h03.20.146,00_bat_bachelor,2022.2.4,59.96421043449304,
,,,,,,,,,,,,1,0,1,0,133,0,133,0,,,,,,,133,,,0.2,1252.2785945593187,Y,None,nogo,d,0,0.2505802680453826,,,,,,,,,,,,,,,,,,8,001,21,w,Psychologie,2023-01-09_09h03.20.146,00_bat_bachelor,2022.2.4,59.96421043449304,
,,,,,,,,,,,,1,0,1,0,134,0,134,0,,,,,,,134,,,0.2,1252.8287887654733,X,d,go,None,0,,,,,,,,,,,,,,,,,,,8,001,21,w,Psychologie,2023-01-09_09h03.20.146,00_bat_bachelor,2022.2.4,59.96421043449304,
,,,,,,,,,,,,1,0,1,0,135,0,135,0,,,,,,,135,,,0.2,1253.8295039173354,Y,l,go,None,0,,1254.6302509722427,,,,,,,,,,,,,,,,,8,001,21,w,Psychologie,2023-01-09_09h03.20.146,00_bat_bachelor,2022.2.4,59.96421043449304,
,,,,,,,,,,,,1,0,1,0,136,0,136,0,,,,,,,136,,,0.2,1254.8305187057058,X,d,go,d,1,0.08274358060918985,,,,,,,,,,,,,,,,,,8,001,21,w,Psychologie,2023-01-09_09h03.20.146,00_bat_bachelor,2022.2.4,59.96421043449304,
,,,,,,,,,,,,1,0,1,0,137,0,137,0,,,,,,,137,,,0.2,1255.2140321037732,Y,l,go,l,1,0.4024140386312638,,,,,,,,,,,,,,,,,,8,001,21,w,Psychologie,2023-01-09_09h03.20.146,00_bat_bachelor,2022.2.4,59.96421043449304,
,,,,,,,,,,,,1,0,1,0,138,0,138,0,,,,,,,138,,,0.2,1255.9311820272396,X,d,go,None,0,,1256.7318447184703,,,,,,,,,,,,,,,,,8,001,21,w,Psychologie,2023-01-09_09h03.20.146,00_bat_bachelor,2022.2.4,59.96421043449304,
,,,,,,,,,,,,1,0,1,0,139,0,139,0,,,,,,,139,,,0.2,1256.9322773004978,Y,l,go,l,1,0.6365019097041795,,,,,,,,,,,,,,,,,,8,001,21,w,Psychologie,2023-01-09_09h03.20.146,00_bat_bachelor,2022.2.4,59.96421043449304,
,,,,,,,,,,,,1,0,1,0,140,0,140,0,,,,,,,140,,,0.2,1257.882873640181,X,d,go,d,1,0.006987907515508596,,,,,,,,,,,,,,,,,,8,001,21,w,Psychologie,2023-01-09_09h03.20.146,00_bat_bachelor,2022.2.4,59.96421043449304,
,,,,,,,,,,,,1,0,1,0,141,0,141,0,,,,,,,141,,,0.2,1258.1997547635174,X,None,nogo,None,1,,,,,,,,,,,,,,,,,,,8,001,21,w,Psychologie,2023-01-09_09h03.20.146,00_bat_bachelor,2022.2.4,59.96421043449304,
,,,,,,,,,,,,1,0,1,0,142,0,142,0,,,,,,,142,,,0.2,1259.2003462789557,Y,l,go,l,1,0.19266072481138963,,,,,,,,,,,,,,,,,,8,001,21,w,Psychologie,2023-01-09_09h03.20.146,00_bat_bachelor,2022.2.4,59.96421043449304,
,,,,,,,,,,,,1,0,1,0,143,0,143,0,,,,,,,143,,,0.2,1259.70095258228,X,d,go,d,1,0.30020065573978627,,,,,,,,,,,,,,,,,,8,001,21,w,Psychologie,2023-01-09_09h03.20.146,00_bat_bachelor,2022.2.4,59.96421043449304,
,,,,,,,,,,,,1,0,1,0,144,0,144,0,,,,,,,144,,,0.2,1260.301459055253,Y,l,go,l,1,0.22738607498138208,,,,,,,,,,,,,,,,,,8,001,21,w,Psychologie,2023-01-09_09h03.20.146,00_bat_bachelor,2022.2.4,59.96421043449304,
,,,,,,,,,,,,1,0,1,0,145,0,145,0,,,,,,,145,,,0.2,1260.8351494958301,X,d,go,d,1,0.11048129102744042,,,,,,,,,,,,,,,,,,8,001,21,w,Psychologie,2023-01-09_09h03.20.146,00_bat_bachelor,2022.2.4,59.96421043449304,
,,,,,,,,,,,,1,0,1,0,146,0,146,0,,,,,,,146,,,0.2,1261.25216739499,Y,l,go,l,1,0.34800916376832447,,,,,,,,,,,,,,,,,,8,001,21,w,Psychologie,2023-01-09_09h03.20.146,00_bat_bachelor,2022.2.4,59.96421043449304,
,,,,,,,,,,,,1,0,1,0,147,0,147,0,,,,,,,147,,,0.2,1261.9023349829504,X,d,go,None,0,,1262.7033700379975,,,,,,,,,,,,,,,,,8,001,21,w,Psychologie,2023-01-09_09h03.20.146,00_bat_bachelor,2022.2.4,59.96421043449304,
,,,,,,,,,,,,1,0,1,0,148,0,148,0,,,,,,,148,,,0.2,1262.9031660136561,Y,l,go,None,0,,1263.7040042201234,,,,,,,,,,,,,,,,,8,001,21,w,Psychologie,2023-01-09_09h03.20.146,00_bat_bachelor,2022.2.4,59.96421043449304,
,,,,,,,,,,,,1,0,1,0,149,0,149,0,,,,,,,149,,,0.2,1263.9041391050373,X,d,go,d,1,0.4167723486231125,,,,,,,,,,,,,,,,,,8,001,21,w,Psychologie,2023-01-09_09h03.20.146,00_bat_bachelor,2022.2.4,59.96421043449304,
,,,,,,,,,,,,1,0,1,0,150,0,150,0,,,,,,,150,,,0.2,1264.6214310891787,Y,l,go,l,1,0.3400377659639844,,,,,,,,,,,,,,,,,,8,001,21,w,Psychologie,2023-01-09_09h03.20.146,00_bat_bachelor,2022.2.4,59.96421043449304,
,,,,,,,,,,,,1,0,1,0,151,0,151,0,,,,,,,151,,,0.2,1265.27186340454,Y,None,nogo,d,0,0.34545352616567016,,,,,,,,,,,,,,,,,,8,001,21,w,Psychologie,2023-01-09_09h03.20.146,00_bat_bachelor,2022.2.4,59.96421043449304,
,,,,,,,,,,,,1,0,1,0,152,0,152,0,,,,,,,152,,,0.2,1265.9223272350678,X,d,go,None,0,,1266.722835744405,,,,,,,,,,,,,,,,,8,001,21,w,Psychologie,2023-01-09_09h03.20.146,00_bat_bachelor,2022.2.4,59.96421043449304,
,,,,,,,,,,,,1,0,1,0,153,0,153,0,,,,,,,153,,,0.2,1266.9230845687684,Y,l,go,l,1,0.3266161836987749,,,,,,,,,,,,,,,,,,8,001,21,w,Psychologie,2023-01-09_09h03.20.146,00_bat_bachelor,2022.2.4,59.96421043449304,
,,,,,,,,,,,,1,0,1,0,154,0,154,0,,,,,,,154,,,0.2,1267.5569631791336,X,d,go,d,1,0.39660555096645567,,,,,,,,,,,,,,,,,,8,001,21,w,Psychologie,2023-01-09_09h03.20.146,00_bat_bachelor,2022.2.4,59.96421043449304,
,,,,,,,,,,,,1,0,1,0,155,0,155,0,,,,,,,155,,,0.2,1268.257496367271,Y,l,go,None,0,,,,,,,,,,,,,,,,,,,8,001,21,w,Psychologie,2023-01-09_09h03.20.146,00_bat_bachelor,2022.2.4,59.96421043449304,
,,,,,,,,,,,,1,0,1,0,156,0,156,0,,,,,,,156,,,0.2,1269.2580476402654,X,d,go,d,1,0.29557422925461196,,,,,,,,,,,,,,,,,,8,001,21,w,Psychologie,2023-01-09_09h03.20.146,00_bat_bachelor,2022.2.4,59.96421043449304,
,,,,,,,,,,,,1,0,1,0,157,0,157,0,,,,,,,157,,,0.2,1269.858513385946,X,None,nogo,None,1,,,,,,,,,,,,,,,,,,,8,001,21,w,Psychologie,2023-01-09_09h03.20.146,00_bat_bachelor,2022.2.4,59.96421043449304,
,,,,,,,,,,,,1,0,1,0,158,0,158,0,,,,,,,158,,,0.2,1270.8595810228271,Y,l,go,l,1,0.2770830687737771,,,,,,,,,,,,,,,,,,8,001,21,w,Psychologie,2023-01-09_09h03.20.146,00_bat_bachelor,2022.2.4,59.96421043449304,
,,,,,,,,,,,,1,0,1,0,159,0,159,0,,,,,,,159,,,0.2,1271.4432312452032,X,d,go,d,1,0.3986380368006621,,,,,,,,,,,,,,,,,,8,001,21,w,Psychologie,2023-01-09_09h03.20.146,00_bat_bachelor,2022.2.4,59.96421043449304,
,,,,,,,,,,,,1,0,1,0,160,0,160,0,,,,,,,160,,,0.2,1272.1435680696086,X,None,nogo,None,1,,1272.944410639714,,,,,,,,,,,,,,,,,8,001,21,w,Psychologie,2023-01-09_09h03.20.146,00_bat_bachelor,2022.2.4,59.96421043449304,
,,,,,,,,,,,,1,0,1,0,161,0,161,0,,,,,,,161,,,0.2,1273.144492191269,Y,l,go,l,1,0.440811148157195,,,,,,,,,,,,,,,,,,8,001,21,w,Psychologie,2023-01-09_09h03.20.146,00_bat_bachelor,2022.2.4,59.96421043449304,
,,,,,,,,,,,,1,0,1,0,162,0,162,0,,,,,,,162,,,0.2,1273.894965767256,X,d,go,d,1,0.29831750331175044,,,,,,,,,,,,,,,,,,8,001,21,w,Psychologie,2023-01-09_09h03.20.146,00_bat_bachelor,2022.2.4,59.96421043449304,
,,,,,,,,,,,,1,0,1,0,163,0,163,0,,,,,,,163,,,0.2,1274.495559997847,Y,l,go,None,0,,1275.2962255981702,,,,,,,,,,,,,,,,,8,001,21,w,Psychologie,2023-01-09_09h03.20.146,00_bat_bachelor,2022.2.4,59.96421043449304,
,,,,,,,,,,,,1,0,1,0,164,0,164,0,,,,,,,164,,,0.2,1275.4960341798956,Y,None,nogo,None,1,,1276.2968675378752,,,,,,,,,,,,,,,,,8,001,21,w,Psychologie,2023-01-09_09h03.20.146,00_bat_bachelor,2022.2.4,59.96421043449304,
,,,,,,,,,,,,1,0,1,0,165,0,165,0,,,,,,,165,,,0.2,1276.4968962409193,X,d,go,d,1,0.4154375600973026,,,,,,,,,,,,,,,,,,8,001,21,w,Psychologie,2023-01-09_09h03.20.146,00_bat_bachelor,2022.2.4,59.96421043449304,
,,,,,,,,,,,,1,0,1,0,166,0,166,0,,,,,,,166,,,0.2,1277.2142876190487,Y,l,go,l,1,0.418265197831829,,,,,,,,,,,,,,,,,,8,001,21,w,Psychologie,2023-01-09_09h03.20.146,00_bat_bachelor,2022.2.4,59.96421043449304,
,,,,,,,,,,,,1,0,1,0,167,0,167,0,,,,,,,167,,,0.2,1277.9481531869833,X,d,go,None,0,,1278.7488042418445,,,,,,,,,,,,,,,,,8,001,21,w,Psychologie,2023-01-09_09h03.20.146,00_bat_bachelor,2022.2.4,59.96421043449304,
,,,,,,,,,,,,1,0,1,0,168,0,168,0,,,,,,,168,,,0.2,1278.9491379147335,X,None,nogo,None,1,,1279.7493991512238,,,,,,,,,,,,,,,,,8,001,21,w,Psychologie,2023-01-09_09h03.20.146,00_bat_bachelor,2022.2.4,59.96421043449304,
,,,,,,,,,,,,1,0,1,0,169,0,169,0,,,,,,,169,,,0.2,1279.94977936959,Y,l,go,l,1,0.3717366904239725,,,,,,,,,,,,,,,,,,8,001,21,w,Psychologie,2023-01-09_09h03.20.146,00_bat_bachelor,2022.2.4,59.96421043449304,
,,,,,,,,,,,,1,0,1,0,170,0,170,0,,,,,,,170,,,0.2,1280.633567337487,X,d,go,d,1,0.518951792104076,,,,,,,,,,,,,,,,,,8,001,21,w,Psychologie,2023-01-09_09h03.20.146,00_bat_bachelor,2022.2.4,59.96421043449304,
,,,,,,,,,,,,1,0,1,0,171,0,171,0,,,,,,,171,,,0.2,1281.4675047115174,X,None,nogo,None,1,,,,,,,,,,,,,,,,,,,8,001,21,w,Psychologie,2023-01-09_09h03.20.146,00_bat_bachelor,2022.2.4,59.96421043449304,
,,,,,,,,,,,,1,0,1,0,172,0,172,0,,,,,,,172,,,0.2,1282.468282893713,Y,l,go,l,1,0.36470250519539604,,,,,,,,,,,,,,,,,,8,001,21,w,Psychologie,2023-01-09_09h03.20.146,00_bat_bachelor,2022.2.4,59.96421043449304,
,,,,,,,,,,,,1,0,1,0,173,0,173,0,,,,,,,173,,,0.2,1283.1353106110596,X,d,go,d,1,0.41839610698605156,,,,,,,,,,,,,,,,,,8,001,21,w,Psychologie,2023-01-09_09h03.20.146,00_bat_bachelor,2022.2.4,59.96421043449304,
,,,,,,,,,,,,1,0,1,0,174,0,174,0,,,,,,,174,,,0.2,1283.8691582395918,Y,l,go,None,0,,1284.6699489308844,,,,,,,,,,,,,,,,,8,001,21,w,Psychologie,2023-01-09_09h03.20.146,00_bat_bachelor,2022.2.4,59.96421043449304,
,,,,,,,,,,,,1,0,1,0,175,0,175,0,,,,,,,175,,,0.2,1284.8700639370009,Y,None,nogo,l,0,0.39445815598594436,,,,,,,,,,,,,,,,,,8,001,21,w,Psychologie,2023-01-09_09h03.20.146,00_bat_bachelor,2022.2.4,59.96421043449304,
,,,,,,,,,,,,1,0,1,0,176,0,176,0,,,,,,,176,,,0.2,1285.5706810039665,X,d,go,d,1,0.4306787796080016,,,,,,,,,,,,,,,,,,8,001,21,w,Psychologie,2023-01-09_09h03.20.146,00_bat_bachelor,2022.2.4,59.96421043449304,
,,,,,,,,,,,,1,0,1,0,177,0,177,0,,,,,,,177,,,0.2,1286.3046125113274,Y,l,go,l,1,0.641903124444184,,,,,,,,,,,,,,,,,,8,001,21,w,Psychologie,2023-01-09_09h03.20.146,00_bat_bachelor,2022.2.4,59.96421043449304,
,,,,,,,,,,,,1,0,1,0,178,0,178,0,,,,,,,178,,,0.2,1287.2552112752537,X,d,go,d,1,0.2659572451976828,,,,,,,,,,,,,,,,,,8,001,21,w,Psychologie,2023-01-09_09h03.20.146,00_bat_bachelor,2022.2.4,59.96421043449304,
,,,,,,,,,,,,1,0,1,0,179,0,179,0,,,,,,,179,,,0.2,1287.8224595502834,X,None,nogo,None,1,,1288.6231193324215,,,,,,,,,,,,,,,,,8,001,21,w,Psychologie,2023-01-09_09h03.20.146,00_bat_bachelor,2022.2.4,59.96421043449304,
,,,,,,,,,,,,1,0,1,0,180,0,180,0,,,,,,,180,,,0.2,1288.8231839142709,X,None,nogo,None,1,,1289.6235746053694,,,,,,,,,,,,,,,,,8,001,21,w,Psychologie,2023-01-09_09h03.20.146,00_bat_bachelor,2022.2.4,59.96421043449304,
,,,,,,,,,,,,1,0,1,0,181,0,181,0,,,,,,,181,,,0.2,1289.8239378540306,Y,l,go,l,1,0.4326012047825998,,,,,,,,,,,,,,,,,,8,001,21,w,Psychologie,2023-01-09_09h03.20.146,00_bat_bachelor,2022.2.4,59.96421043449304,
,,,,,,,,,,,,1,0,1,0,182,0,182,0,,,,,,,182,,,0.2,1290.5579333614223,X,d,go,None,0,,1291.3582062342816,,,,,,,,,,,,,,,,,8,001,21,w,Psychologie,2023-01-09_09h03.20.146,00_bat_bachelor,2022.2.4,59.96421043449304,
,,,,,,,,,,,,1,0,1,0,183,0,183,0,,,,,,,183,,,0.2,1291.5585806344634,X,None,nogo,None,1,,,,,,,,,,,,,,,,,,,8,001,21,w,Psychologie,2023-01-09_09h03.20.146,00_bat_bachelor,2022.2.4,59.96421043449304,
,,,,,,,,,,,,1,0,1,0,184,0,184,0,,,,,,,184,,,0.2,1292.5593059681482,Y,l,go,l,1,0.3060329009919087,,,,,,,,,,,,,,,,,,8,001,21,w,Psychologie,2023-01-09_09h03.20.146,00_bat_bachelor,2022.2.4,59.96421043449304,
,,,,,,,,,,,,1,0,1,0,185,0,185,0,,,,,,,185,,,0.2,1293.1765082067918,X,d,go,None,0,,,,,,,,,,,,,,,,,,,8,001,21,w,Psychologie,2023-01-09_09h03.20.146,00_bat_bachelor,2022.2.4,59.96421043449304,
,,,,,,,,,,,,1,0,1,0,186,0,186,0,,,,,,,186,,,0.2,1294.177209298041,Y,l,go,l,1,0.5118298492571967,,,,,,,,,,,,,,,,,,8,001,21,w,Psychologie,2023-01-09_09h03.20.146,00_bat_bachelor,2022.2.4,59.96421043449304,
,,,,,,,,,,,,1,0,1,0,187,0,187,0,,,,,,,187,,,0.2,1294.9945633913035,Y,None,nogo,None,1,,,,,,,,,,,,,,,,,,,8,001,21,w,Psychologie,2023-01-09_09h03.20.146,00_bat_bachelor,2022.2.4,59.96421043449304,
,,,,,,,,,,,,1,0,1,0,188,0,188,0,,,,,,,188,,,0.2,1295.9953406038017,X,d,go,d,1,0.5335917992023269,,,,,,,,,,,,,,,,,,8,001,21,w,Psychologie,2023-01-09_09h03.20.146,00_bat_bachelor,2022.2.4,59.96421043449304,
,,,,,,,,,,,,1,0,1,0,189,0,189,0,,,,,,,189,,,0.2,1296.8462292587778,Y,l,go,l,1,0.43382011446453816,,,,,,,,,,,,,,,,,,8,001,21,w,Psychologie,2023-01-09_09h03.20.146,00_bat_bachelor,2022.2.4,59.96421043449304,
,,,,,,,,,,,,1,0,1,0,190,0,190,0,,,,,,,190,,,0.2,1297.6138747218788,Y,None,nogo,None,1,,1298.4144162009288,,,,,,,,,,,,,,,,,8,001,21,w,Psychologie,2023-01-09_09h03.20.146,00_bat_bachelor,2022.2.4,59.96421043449304,
,,,,,,,,,,,,1,0,1,0,191,0,191,0,,,,,,,191,,,0.2,1298.6145874494969,X,d,go,None,0,,1299.4149791102927,,,,,,,,,,,,,,,,,8,001,21,w,Psychologie,2023-01-09_09h03.20.146,00_bat_bachelor,2022.2.4,59.96421043449304,
,,,,,,,,,,,,1,0,1,0,192,0,192,0,,,,,,,192,,,0.2,1299.6153103589381,Y,l,go,l,1,0.27384815811444696,,,,,,,,,,,,,,,,,,8,001,21,w,Psychologie,2023-01-09_09h03.20.146,00_bat_bachelor,2022.2.4,59.96421043449304,
,,,,,,,,,,,,1,0,1,0,193,0,193,0,,,,,,,193,,,0.2,1300.232257567155,Y,None,nogo,None,1,,1301.033052622086,,,,,,,,,,,,,,,,,8,001,21,w,Psychologie,2023-01-09_09h03.20.146,00_bat_bachelor,2022.2.4,59.96421043449304,
,,,,,,,,,,,,1,0,1,0,194,0,194,0,,,,,,,194,,,0.2,1301.2329382947578,X,d,go,d,1,0.4464853327264109,,,,,,,,,,,,,,,,,,8,001,21,w,Psychologie,2023-01-09_09h03.20.146,00_bat_bachelor,2022.2.4,59.96421043449304,
,,,,,,,,,,,,1,0,1,0,195,0,195,0,,,,,,,195,,,0.2,1302.0171772204494,Y,l,go,l,1,0.5755108498298114,,,,,,,,,,,,,,,,,,8,001,21,w,Psychologie,2023-01-09_09h03.20.146,00_bat_bachelor,2022.2.4,59.96421043449304,
,,,,,,,,,,,,1,0,1,0,196,0,196,0,,,,,,,196,,,0.2,1302.9346516046794,Y,None,nogo,None,1,,1303.7353157504563,,,,,,,,,,,,,,,,,8,001,21,w,Psychologie,2023-01-09_09h03.20.146,00_bat_bachelor,2022.2.4,59.96421043449304,
,,,,,,,,,,,,1,0,1,0,197,0,197,0,,,,,,,197,,,0.2,1303.9350506351761,X,d,go,d,1,0.017253609462500208,,,,,,,,,,,,,,,,,,8,001,21,w,Psychologie,2023-01-09_09h03.20.146,00_bat_bachelor,2022.2.4,59.96421043449304,
,,,,,,,,,,,,1,0,1,0,198,0,198,0,,,,,,,198,,,0.2,1304.285353835323,Y,l,go,None,0,,1305.0863326479189,,,,,,,,,,,,,,,,,8,001,21,w,Psychologie,2023-01-09_09h03.20.146,00_bat_bachelor,2022.2.4,59.96421043449304,
,,,,,,,,,,,,1,0,1,0,199,0,199,0,,,,,,,199,,,0.2,1305.2862149266498,X,d,go,l,0,0.20200957782901696,,,,,,,,,,,,,,,,,,8,001,21,w,Psychologie,2023-01-09_09h03.20.146,00_bat_bachelor,2022.2.4,59.96421043449304,
,,,,,,,,,,,,1,0,1,0,200,0,200,0,,,,,,,200,,,0.2,1305.8200047612145,X,None,nogo,None,1,,1306.6204822402337,,,,,,,,,,,,,,,,,8,001,21,w,Psychologie,2023-01-09_09h03.20.146,00_bat_bachelor,2022.2.4,59.96421043449304,
,,,,,,,,,,,,1,0,1,0,201,0,201,0,,,,,,,201,,,0.2,1306.8208833070948,Y,l,go,l,1,0.44311369472791284,,,,,,,,,,,,,,,,,,8,001,21,w,Psychologie,2023-01-09_09h03.20.146,00_bat_bachelor,2022.2.4,59.96421043449304,
