loop_instruction.thisRepN,loop_instruction.thisTrialN,loop_instruction.thisN,loop_instruction.thisIndex,loop_rsi_practice.thisRepN,loop_rsi_practice.thisTrialN,loop_rsi_practice.thisN,loop_rsi_practice.thisIndex,loop_practice.thisRepN,loop_practice.thisTrialN,loop_practice.thisN,loop_practice.thisIndex,loop_exp.thisRepN,loop_exp.thisTrialN,loop_exp.thisN,loop_exp.thisIndex,loop_trials.thisRepN,loop_trials.thisTrialN,loop_trials.thisN,loop_trials.thisIndex,map_condition,map_x_key,map_y_key,key_resp_welcome.started,key_resp_welcome.keys,key_resp_welcome.rt,index,text_empty_rsi_practice.started,text_empty_rsi_practice.stopped,rsi,stimulus.started,stimulus,correct,trial_type,key_resp_trial.keys,key_resp_trial.corr,key_resp_trial.rt,stimulus.stopped,key_resp_instruction_rsi.started,key_resp_instruction_rsi.keys,key_resp_instruction_rsi.rt,key_resp_instruction_rsi.stopped,key_resp_instruction_final.started,key_resp_instruction_final.keys,key_resp_instruction_final.rt,key_resp_break.started,key_resp_break.keys,key_resp_break.rt,key_resp_break.stopped,key_resp_end_screen.started,image_end_screen.started,key_resp_end_screen.keys,participant,session,Alter,Geschlecht (w/m/d/andere),Studiengang,date,expName,psychopyVersion,frameRate,
,,,,0,0,0,0,0,0,0,0,,,,,,,,,0,d,l,1894.0672765735071,j,38.14884710870683,0,1932.2421235190704,1933.2609264189377,1,1933.2609264189377,X,d,go,d,1,0.653347227955237,,,,,,,,,,,,,,,,90,001,24,m,Psychologie,2023-02-01_12h23.34.428,00_bat_bachelor,2022.2.4,59.97281235077243,
,,,,0,0,0,0,1,0,1,0,,,,,,,,,,,,,,,1,1934.6224142436404,1935.623062485829,1,1935.623062485829,Y,l,go,l,1,0.477552403928712,,,,,,,,,,,,,,,,90,001,24,m,Psychologie,2023-02-01_12h23.34.428,00_bat_bachelor,2022.2.4,59.97281235077243,
,,,,0,0,0,0,2,0,2,0,,,,,,,,,,,,,,,2,1936.8222420257516,1937.8224490557332,1,1937.8224490557332,X,d,go,None,0,,1938.6226387284696,,,,,,,,,,,,,,,90,001,24,m,Psychologie,2023-02-01_12h23.34.428,00_bat_bachelor,2022.2.4,59.97281235077243,
,,,,0,0,0,0,3,0,3,0,,,,,,,,,,,,,,,3,1939.222239407478,1940.222211771179,1,1940.222211771179,X,None,nogo,None,1,,1941.0226535648108,,,,,,,,,,,,,,,90,001,24,m,Psychologie,2023-02-01_12h23.34.428,00_bat_bachelor,2022.2.4,59.97281235077243,
,,,,0,0,0,0,4,0,4,0,,,,,,,,,,,,,,,4,1941.622371577192,1942.622314365115,1,1942.622314365115,Y,l,go,None,0,,1943.422542825574,,,,,,,,,,,,,,,90,001,24,m,Psychologie,2023-02-01_12h23.34.428,00_bat_bachelor,2022.2.4,59.97281235077243,
,,,,0,0,0,0,5,0,5,0,,,,,,,,,,,,,,,5,1944.02243295894,1945.022810655646,1,1945.022810655646,X,d,go,None,0,,1945.822241056012,,,,,,,,,,,,,,,90,001,24,m,Psychologie,2023-02-01_12h23.34.428,00_bat_bachelor,2022.2.4,59.97281235077243,
,,,,0,0,0,0,6,0,6,0,,,,,,,,,,,,,,,6,1946.4224705831148,1947.4223988256417,1,1947.4223988256417,X,None,nogo,d,0,0.30998303066007793,,,,,,,,,,,,,,,,90,001,24,m,Psychologie,2023-02-01_12h23.34.428,00_bat_bachelor,2022.2.4,59.97281235077243,
,,,,0,0,0,0,7,0,7,0,,,,,,,,,,,,,,,7,1948.872223092243,1949.8722502437886,1,1949.8722502437886,Y,l,go,l,1,0.6434888083022088,,,,,,,,,,,,,,,,90,001,24,m,Psychologie,2023-02-01_12h23.34.428,00_bat_bachelor,2022.2.4,59.97281235077243,
,,,,0,0,0,0,8,0,8,0,,,,,,,,,,,,,,,8,1951.238488126779,1952.2389138236176,1,1952.2389138236176,X,d,go,d,1,0.48532064259052277,,,,,,,,,,,,,,,,90,001,24,m,Psychologie,2023-02-01_12h23.34.428,00_bat_bachelor,2022.2.4,59.97281235077243,
,,,,0,0,0,0,9,0,9,0,,,,,,,,,,,,,,,9,1953.4388317873236,1954.4388259691186,1,1954.4388259691186,X,None,nogo,d,0,0.5266665620729327,,,,,,,,,,,,,,,,90,001,24,m,Psychologie,2023-02-01_12h23.34.428,00_bat_bachelor,2022.2.4,59.97281235077243,
,,,,0,0,0,0,10,0,10,0,,,,,,,,,,,,,,,10,1956.088543472346,1957.0887568055186,1,1957.0887568055186,Y,l,go,None,0,,1957.8888330236077,,,,,,,,,,,,,,,90,001,24,m,Psychologie,2023-02-01_12h23.34.428,00_bat_bachelor,2022.2.4,59.97281235077243,
,,,,0,0,0,0,11,0,11,0,,,,,,,,,,,,,,,11,1958.4889452175703,1959.4885840055067,1,1959.4885840055067,X,d,go,d,1,0.6603431031107903,,,,,,,,,,,,,,,,90,001,24,m,Psychologie,2023-02-01_12h23.34.428,00_bat_bachelor,2022.2.4,59.97281235077243,
,,,,0,0,0,0,12,0,12,0,,,,,,,,,,,,,,,12,1960.8552660096902,1961.8550468583126,1,1961.8550468583126,Y,l,go,None,0,,1962.65516331885,,,,,,,,,,,,,,,90,001,24,m,Psychologie,2023-02-01_12h23.34.428,00_bat_bachelor,2022.2.4,59.97281235077243,
,,,,0,0,0,0,13,0,13,0,,,,,,,,,,,,,,,13,1963.2554229064845,1964.2548808462452,1,1964.2548808462452,Y,None,nogo,None,1,,1965.0549231248442,,,,,,,,,,,,,,,90,001,24,m,Psychologie,2023-02-01_12h23.34.428,00_bat_bachelor,2022.2.4,59.97281235077243,
,,,,0,0,0,0,14,0,14,0,,,,,,,,,,,,,,,14,1965.6551628338639,1966.6550828339532,1,1966.6550828339532,X,d,go,d,1,0.5975591337773949,,,,,,,,,,,,,,,,90,001,24,m,Psychologie,2023-02-01_12h23.34.428,00_bat_bachelor,2022.2.4,59.97281235077243,
,,,,1,0,1,0,0,0,0,0,,,,,,,,,,,,,,,0,2009.505130421836,2009.7051952944603,0.2,2009.7051952944603,X,d,go,d,1,0.5873811992350966,,1967.9788334649056,j,41.501996028469875,,,,,,,,,,,,90,001,24,m,Psychologie,2023-02-01_12h23.34.428,00_bat_bachelor,2022.2.4,59.97281235077243,
,,,,1,0,1,0,1,0,1,0,,,,,,,,,,,,,,,1,2011.0049726036377,2011.2048537188675,0.2,2011.2048537188675,Y,l,go,l,1,0.33502059429883957,,,,,,,,,,,,,,,,90,001,24,m,Psychologie,2023-02-01_12h23.34.428,00_bat_bachelor,2022.2.4,59.97281235077243,
,,,,1,0,1,0,2,0,2,0,,,,,,,,,,,,,,,2,2012.2553424218204,2012.4548632947262,0.2,2012.4548632947262,X,d,go,d,1,0.5257967440411448,,,,,,,,,,,,,,,,90,001,24,m,Psychologie,2023-02-01_12h23.34.428,00_bat_bachelor,2022.2.4,59.97281235077243,
,,,,1,0,1,0,3,0,3,0,,,,,,,,,,,,,,,3,2013.6881785755977,2013.8884432057384,0.2,2013.8884432057384,X,None,nogo,None,1,,2014.6881586967502,,,,,,,,,,,,,,,90,001,24,m,Psychologie,2023-02-01_12h23.34.428,00_bat_bachelor,2022.2.4,59.97281235077243,
,,,,1,0,1,0,4,0,4,0,,,,,,,,,,,,,,,4,2015.2884003450163,2015.4884603694081,0.2,2015.4884603694081,Y,l,go,l,1,0.4199446744751185,,,,,,,,,,,,,,,,90,001,24,m,Psychologie,2023-02-01_12h23.34.428,00_bat_bachelor,2022.2.4,59.97281235077243,
,,,,1,0,1,0,5,0,5,0,,,,,,,,,,,,,,,5,2016.6217980016954,2016.8217872378882,0.2,2016.8217872378882,X,d,go,d,1,0.591673560673371,,,,,,,,,,,,,,,,90,001,24,m,Psychologie,2023-02-01_12h23.34.428,00_bat_bachelor,2022.2.4,59.97281235077243,
,,,,1,0,1,0,6,0,6,0,,,,,,,,,,,,,,,6,2018.1217933956068,2018.3217899047304,0.2,2018.3217899047304,Y,l,go,l,1,0.49871506029739976,,,,,,,,,,,,,,,,90,001,24,m,Psychologie,2023-02-01_12h23.34.428,00_bat_bachelor,2022.2.4,59.97281235077243,
,,,,1,0,1,0,7,0,7,0,,,,,,,,,,,,,,,7,2019.5217941713054,2019.721868256107,0.2,2019.721868256107,Y,None,nogo,None,1,,2020.5220113834366,,,,,,,,,,,,,,,90,001,24,m,Psychologie,2023-02-01_12h23.34.428,00_bat_bachelor,2022.2.4,59.97281235077243,
,,,,1,0,1,0,8,0,8,0,,,,,,,,,,,,,,,8,2021.12188745616,2021.3214926926885,0.2,2021.3214926926885,X,d,go,d,1,0.47517034434713423,,,,,,,,,,,,,,,,90,001,24,m,Psychologie,2023-02-01_12h23.34.428,00_bat_bachelor,2022.2.4,59.97281235077243,
,,,,1,0,1,0,9,0,9,0,,,,,,,,,,,,,,,9,2022.5051250883844,2022.7052006279118,0.2,2022.7052006279118,Y,l,go,l,1,0.451173750218004,,,,,,,,,,,,,,,,90,001,24,m,Psychologie,2023-02-01_12h23.34.428,00_bat_bachelor,2022.2.4,59.97281235077243,
,,,,1,0,1,0,10,0,10,0,,,,,,,,,,,,,,,10,2023.8717872137204,2024.0714976624586,0.2,2024.0714976624586,Y,None,nogo,None,1,,2024.8718327893876,,,,,,,,,,,,,,,90,001,24,m,Psychologie,2023-02-01_12h23.34.428,00_bat_bachelor,2022.2.4,59.97281235077243,
,,,,1,0,1,0,11,0,11,0,,,,,,,,,,,,,,,11,2025.4715634076856,2025.6715080381837,0.2,2025.6715080381837,X,d,go,d,1,0.4459601768758148,,,,,,,,,,,,,,,,90,001,24,m,Psychologie,2023-02-01_12h23.34.428,00_bat_bachelor,2022.2.4,59.97281235077243,
,,,,1,0,1,0,12,0,12,0,,,,,,,,,,,,,,,12,2026.8217964500654,2027.0217716258485,0.2,2027.0217716258485,Y,l,go,l,1,0.5824323531705886,,,,,,,,,,,,,,,,90,001,24,m,Psychologie,2023-02-01_12h23.34.428,00_bat_bachelor,2022.2.4,59.97281235077243,
,,,,1,0,1,0,13,0,13,0,,,,,,,,,,,,,,,13,2028.3050291854888,2028.505158543121,0.2,2028.505158543121,X,d,go,d,1,0.539474313147366,,,,,,,,,,,,,,,,90,001,24,m,Psychologie,2023-02-01_12h23.34.428,00_bat_bachelor,2022.2.4,59.97281235077243,
,,,,1,0,1,0,14,0,14,0,,,,,,,,,,,,,,,14,2029.755127391545,2029.9548232946545,0.2,2029.9548232946545,Y,l,go,l,1,0.5624052111525089,,,,,,,,,,,,,,,,90,001,24,m,Psychologie,2023-02-01_12h23.34.428,00_bat_bachelor,2022.2.4,59.97281235077243,
,,,,,,,,,,,,,,,,,,,,,,,,,,,,,,,,,,,,,,2031.258901692694,None,,2031.258901692694,2031.258901692694,space,23.421437037177384,,,,,,,,90,001,24,m,Psychologie,2023-02-01_12h23.34.428,00_bat_bachelor,2022.2.4,59.97281235077243,
,,,,,,,,,,,,0,0,0,0,0,0,0,0,,,,,,,0,,,1,2055.7051065673586,X,d,go,d,1,0.5561918809544295,,,,,,,,,,,,,,,,90,001,24,m,Psychologie,2023-02-01_12h23.34.428,00_bat_bachelor,2022.2.4,59.97281235077243,
,,,,,,,,,,,,0,0,0,0,1,0,1,0,,,,,,,1,,,1,2057.371814122889,Y,l,go,l,1,0.5201943225692958,,,,,,,,,,,,,,,,90,001,24,m,Psychologie,2023-02-01_12h23.34.428,00_bat_bachelor,2022.2.4,59.97281235077243,
,,,,,,,,,,,,0,0,0,0,2,0,2,0,,,,,,,2,,,1,2059.0051175733097,X,d,go,None,0,,2059.8048917311244,,,,,,,,,,,,,,,90,001,24,m,Psychologie,2023-02-01_12h23.34.428,00_bat_bachelor,2022.2.4,59.97281235077243,
,,,,,,,,,,,,0,0,0,0,3,0,3,0,,,,,,,3,,,1,2060.805101670325,X,None,nogo,None,1,,2061.605166252004,,,,,,,,,,,,,,,90,001,24,m,Psychologie,2023-02-01_12h23.34.428,00_bat_bachelor,2022.2.4,59.97281235077243,
,,,,,,,,,,,,0,0,0,0,4,0,4,0,,,,,,,4,,,1,2062.605047949124,X,None,nogo,d,0,0.6153816704172641,,,,,,,,,,,,,,,,90,001,24,m,Psychologie,2023-02-01_12h23.34.428,00_bat_bachelor,2022.2.4,59.97281235077243,
,,,,,,,,,,,,0,0,0,0,5,0,5,0,,,,,,,5,,,1,2064.3217545107473,Y,l,go,l,1,0.6281006946228445,,,,,,,,,,,,,,,,90,001,24,m,Psychologie,2023-02-01_12h23.34.428,00_bat_bachelor,2022.2.4,59.97281235077243,
,,,,,,,,,,,,0,0,0,0,6,0,6,0,,,,,,,6,,,1,2066.0548169431277,X,d,go,d,1,0.5894941678270698,,,,,,,,,,,,,,,,90,001,24,m,Psychologie,2023-02-01_12h23.34.428,00_bat_bachelor,2022.2.4,59.97281235077243,
,,,,,,,,,,,,0,0,0,0,7,0,7,0,,,,,,,7,,,1,2067.7549256945495,Y,l,go,l,1,0.5690917535685003,,,,,,,,,,,,,,,,90,001,24,m,Psychologie,2023-02-01_12h23.34.428,00_bat_bachelor,2022.2.4,59.97281235077243,
,,,,,,,,,,,,0,0,0,0,8,0,8,0,,,,,,,8,,,1,2069.4381433026865,X,d,go,d,1,0.6147407009266317,,,,,,,,,,,,,,,,90,001,24,m,Psychologie,2023-02-01_12h23.34.428,00_bat_bachelor,2022.2.4,59.97281235077243,
,,,,,,,,,,,,0,0,0,0,9,0,9,0,,,,,,,9,,,1,2071.1551136218477,X,None,nogo,None,1,,2071.955105476314,,,,,,,,,,,,,,,90,001,24,m,Psychologie,2023-02-01_12h23.34.428,00_bat_bachelor,2022.2.4,59.97281235077243,
,,,,,,,,,,,,0,0,0,0,10,0,10,0,,,,,,,10,,,1,2072.955100627849,Y,l,go,l,1,0.5058268143329769,,,,,,,,,,,,,,,,90,001,24,m,Psychologie,2023-02-01_12h23.34.428,00_bat_bachelor,2022.2.4,59.97281235077243,
,,,,,,,,,,,,0,0,0,0,11,0,11,0,,,,,,,11,,,1,2074.571455238154,X,d,go,d,1,0.5688662989996374,,,,,,,,,,,,,,,,90,001,24,m,Psychologie,2023-02-01_12h23.34.428,00_bat_bachelor,2022.2.4,59.97281235077243,
,,,,,,,,,,,,0,0,0,0,12,0,12,0,,,,,,,12,,,1,2076.2551538157277,X,None,nogo,None,1,,2077.0547800946515,,,,,,,,,,,,,,,90,001,24,m,Psychologie,2023-02-01_12h23.34.428,00_bat_bachelor,2022.2.4,59.97281235077243,
,,,,,,,,,,,,0,0,0,0,13,0,13,0,,,,,,,13,,,1,2078.0551364582498,Y,l,go,l,1,0.47761882818304,,,,,,,,,,,,,,,,90,001,24,m,Psychologie,2023-02-01_12h23.34.428,00_bat_bachelor,2022.2.4,59.97281235077243,
,,,,,,,,,,,,0,0,0,0,14,0,14,0,,,,,,,14,,,1,2079.638428296661,X,d,go,d,1,0.6373966899700463,,,,,,,,,,,,,,,,90,001,24,m,Psychologie,2023-02-01_12h23.34.428,00_bat_bachelor,2022.2.4,59.97281235077243,
,,,,,,,,,,,,0,0,0,0,15,0,15,0,,,,,,,15,,,1,2081.3882713268977,Y,l,go,None,0,,2082.188421241939,,,,,,,,,,,,,,,90,001,24,m,Psychologie,2023-02-01_12h23.34.428,00_bat_bachelor,2022.2.4,59.97281235077243,
,,,,,,,,,,,,0,0,0,0,16,0,16,0,,,,,,,16,,,1,2083.18841687846,X,d,go,d,1,0.5612566056661308,,,,,,,,,,,,,,,,90,001,24,m,Psychologie,2023-02-01_12h23.34.428,00_bat_bachelor,2022.2.4,59.97281235077243,
,,,,,,,,,,,,0,0,0,0,17,0,17,0,,,,,,,17,,,1,2084.855029888451,X,None,nogo,None,1,,2085.6550804097205,,,,,,,,,,,,,,,90,001,24,m,Psychologie,2023-02-01_12h23.34.428,00_bat_bachelor,2022.2.4,59.97281235077243,
,,,,,,,,,,,,0,0,0,0,18,0,18,0,,,,,,,18,,,1,2086.654885015916,Y,l,go,l,1,0.6137123377993703,,,,,,,,,,,,,,,,90,001,24,m,Psychologie,2023-02-01_12h23.34.428,00_bat_bachelor,2022.2.4,59.97281235077243,
,,,,,,,,,,,,0,0,0,0,19,0,19,0,,,,,,,19,,,1,2088.371757880319,X,d,go,d,1,0.6255154837854207,,,,,,,,,,,,,,,,90,001,24,m,Psychologie,2023-02-01_12h23.34.428,00_bat_bachelor,2022.2.4,59.97281235077243,
,,,,,,,,,,,,0,0,0,0,20,0,20,0,,,,,,,20,,,1,2090.1050738885533,X,None,nogo,None,1,,2090.9050759249367,,,,,,,,,,,,,,,90,001,24,m,Psychologie,2023-02-01_12h23.34.428,00_bat_bachelor,2022.2.4,59.97281235077243,
,,,,,,,,,,,,0,0,0,0,21,0,21,0,,,,,,,21,,,1,2091.9051457429305,Y,l,go,l,1,0.4676382269244641,,,,,,,,,,,,,,,,90,001,24,m,Psychologie,2023-02-01_12h23.34.428,00_bat_bachelor,2022.2.4,59.97281235077243,
,,,,,,,,,,,,0,0,0,0,22,0,22,0,,,,,,,22,,,1,2093.4884065510705,X,d,go,None,0,,2094.2884551328607,,,,,,,,,,,,,,,90,001,24,m,Psychologie,2023-02-01_12h23.34.428,00_bat_bachelor,2022.2.4,59.97281235077243,
,,,,,,,,,,,,0,0,0,0,23,0,23,0,,,,,,,23,,,1,2095.288411981426,X,None,nogo,d,0,0.5407998885493726,,,,,,,,,,,,,,,,90,001,24,m,Psychologie,2023-02-01_12h23.34.428,00_bat_bachelor,2022.2.4,59.97281235077243,
,,,,,,,,,,,,0,0,0,0,24,0,24,0,,,,,,,24,,,1,2096.938135787612,Y,l,go,None,0,,2097.738415641943,,,,,,,,,,,,,,,90,001,24,m,Psychologie,2023-02-01_12h23.34.428,00_bat_bachelor,2022.2.4,59.97281235077243,
,,,,,,,,,,,,0,0,0,0,25,0,25,0,,,,,,,25,,,1,2098.7384180661757,X,d,go,d,1,0.530036257347092,,,,,,,,,,,,,,,,90,001,24,m,Psychologie,2023-02-01_12h23.34.428,00_bat_bachelor,2022.2.4,59.97281235077243,
,,,,,,,,,,,,0,0,0,0,26,0,26,0,,,,,,,26,,,1,2100.371400547214,Y,l,go,None,0,,2101.171449129004,,,,,,,,,,,,,,,90,001,24,m,Psychologie,2023-02-01_12h23.34.428,00_bat_bachelor,2022.2.4,59.97281235077243,
,,,,,,,,,,,,0,0,0,0,27,0,27,0,,,,,,,27,,,1,2102.171387553448,X,d,go,None,0,,2102.9714526198804,,,,,,,,,,,,,,,90,001,24,m,Psychologie,2023-02-01_12h23.34.428,00_bat_bachelor,2022.2.4,59.97281235077243,
,,,,,,,,,,,,0,0,0,0,28,0,28,0,,,,,,,28,,,1,2103.9715379532427,X,None,nogo,None,1,,2104.771452232031,,,,,,,,,,,,,,,90,001,24,m,Psychologie,2023-02-01_12h23.34.428,00_bat_bachelor,2022.2.4,59.97281235077243,
,,,,,,,,,,,,0,0,0,0,29,0,29,0,,,,,,,29,,,1,2105.77171405009,Y,l,go,l,1,0.6008085866924375,,,,,,,,,,,,,,,,90,001,24,m,Psychologie,2023-02-01_12h23.34.428,00_bat_bachelor,2022.2.4,59.97281235077243,
,,,,,,,,,,,,0,0,0,0,30,0,30,0,,,,,,,30,,,1,2107.4882223089226,X,d,go,d,1,0.5970088308677077,,,,,,,,,,,,,,,,90,001,24,m,Psychologie,2023-02-01_12h23.34.428,00_bat_bachelor,2022.2.4,59.97281235077243,
,,,,,,,,,,,,0,0,0,0,31,0,31,0,,,,,,,31,,,1,2109.188453726936,X,None,nogo,None,1,,2109.9882962482516,,,,,,,,,,,,,,,90,001,24,m,Psychologie,2023-02-01_12h23.34.428,00_bat_bachelor,2022.2.4,59.97281235077243,
,,,,,,,,,,,,0,0,0,0,32,0,32,0,,,,,,,32,,,1,2110.9884043692145,X,None,nogo,None,1,,2111.788406405598,,,,,,,,,,,,,,,90,001,24,m,Psychologie,2023-02-01_12h23.34.428,00_bat_bachelor,2022.2.4,59.97281235077243,
,,,,,,,,,,,,0,0,0,0,33,0,33,0,,,,,,,33,,,1,2112.788449072279,Y,l,go,l,1,0.5287460761610419,,,,,,,,,,,,,,,,90,001,24,m,Psychologie,2023-02-01_12h23.34.428,00_bat_bachelor,2022.2.4,59.97281235077243,
,,,,,,,,,,,,0,0,0,0,34,0,34,0,,,,,,,34,,,1,2114.4214170079213,X,d,go,d,1,0.6079208254814148,,,,,,,,,,,,,,,,90,001,24,m,Psychologie,2023-02-01_12h23.34.428,00_bat_bachelor,2022.2.4,59.97281235077243,
,,,,,,,,,,,,0,0,0,0,35,0,35,0,,,,,,,35,,,1,2116.138313145144,Y,l,go,l,1,0.5542461848817766,,,,,,,,,,,,,,,,90,001,24,m,Psychologie,2023-02-01_12h23.34.428,00_bat_bachelor,2022.2.4,59.97281235077243,
,,,,,,,,,,,,0,0,0,0,36,0,36,0,,,,,,,36,,,1,2117.804862155346,X,d,go,d,1,0.5348803761880845,,,,,,,,,,,,,,,,90,001,24,m,Psychologie,2023-02-01_12h23.34.428,00_bat_bachelor,2022.2.4,59.97281235077243,
,,,,,,,,,,,,0,0,0,0,37,0,37,0,,,,,,,37,,,1,2119.4551711732056,Y,l,go,l,1,0.5182268084026873,,,,,,,,,,,,,,,,90,001,24,m,Psychologie,2023-02-01_12h23.34.428,00_bat_bachelor,2022.2.4,59.97281235077243,
,,,,,,,,,,,,0,0,0,0,38,0,38,0,,,,,,,38,,,1,2121.088414987549,Y,None,nogo,None,1,,2121.8881944785826,,,,,,,,,,,,,,,90,001,24,m,Psychologie,2023-02-01_12h23.34.428,00_bat_bachelor,2022.2.4,59.97281235077243,
,,,,,,,,,,,,0,0,0,0,39,0,39,0,,,,,,,39,,,1,2122.8881610240787,X,d,go,d,1,0.4611296239309013,,,,,,,,,,,,,,,,90,001,24,m,Psychologie,2023-02-01_12h23.34.428,00_bat_bachelor,2022.2.4,59.97281235077243,
,,,,,,,,,,,,0,0,0,0,40,0,40,0,,,,,,,40,,,1,2124.4547726281453,Y,l,go,l,1,0.5898146524559706,,,,,,,,,,,,,,,,90,001,24,m,Psychologie,2023-02-01_12h23.34.428,00_bat_bachelor,2022.2.4,59.97281235077243,
,,,,,,,,,,,,0,0,0,0,41,0,41,0,,,,,,,41,,,1,2126.1547635614406,Y,None,nogo,None,1,,2126.954879536992,,,,,,,,,,,,,,,90,001,24,m,Psychologie,2023-02-01_12h23.34.428,00_bat_bachelor,2022.2.4,59.97281235077243,
,,,,,,,,,,,,0,0,0,0,42,0,42,0,,,,,,,42,,,1,2127.9547689917963,X,d,go,d,1,0.44893811480142176,,,,,,,,,,,,,,,,90,001,24,m,Psychologie,2023-02-01_12h23.34.428,00_bat_bachelor,2022.2.4,59.97281235077243,
,,,,,,,,,,,,0,0,0,0,43,0,43,0,,,,,,,43,,,1,2129.5047551493626,Y,l,go,None,0,,2130.305039852159,,,,,,,,,,,,,,,90,001,24,m,Psychologie,2023-02-01_12h23.34.428,00_bat_bachelor,2022.2.4,59.97281235077243,
,,,,,,,,,,,,0,0,0,0,44,0,44,0,,,,,,,44,,,1,2131.3047552462667,Y,None,nogo,l,0,0.5400866765994579,,,,,,,,,,,,,,,,90,001,24,m,Psychologie,2023-02-01_12h23.34.428,00_bat_bachelor,2022.2.4,59.97281235077243,
,,,,,,,,,,,,0,0,0,0,45,0,45,0,,,,,,,45,,,1,2132.9547529916745,X,d,go,d,1,0.5691397534683347,,,,,,,,,,,,,,,,90,001,24,m,Psychologie,2023-02-01_12h23.34.428,00_bat_bachelor,2022.2.4,59.97281235077243,
,,,,,,,,,,,,0,0,0,0,46,0,46,0,,,,,,,46,,,1,2134.6383851449937,Y,l,go,l,1,0.6307634811382741,,,,,,,,,,,,,,,,90,001,24,m,Psychologie,2023-02-01_12h23.34.428,00_bat_bachelor,2022.2.4,59.97281235077243,
,,,,,,,,,,,,0,0,0,0,47,0,47,0,,,,,,,47,,,1,2136.3717132743914,X,d,go,d,1,0.5281453491188586,,,,,,,,,,,,,,,,90,001,24,m,Psychologie,2023-02-01_12h23.34.428,00_bat_bachelor,2022.2.4,59.97281235077243,
,,,,,,,,,,,,0,0,0,0,48,0,48,0,,,,,,,48,,,1,2138.0052387854084,Y,l,go,l,1,0.5925608328543603,,,,,,,,,,,,,,,,90,001,24,m,Psychologie,2023-02-01_12h23.34.428,00_bat_bachelor,2022.2.4,59.97281235077243,
,,,,,,,,,,,,0,0,0,0,49,0,49,0,,,,,,,49,,,1,2139.7047531129792,Y,None,nogo,None,1,,2140.5047415734734,,,,,,,,,,,,,,,90,001,24,m,Psychologie,2023-02-01_12h23.34.428,00_bat_bachelor,2022.2.4,59.97281235077243,
,,,,,,,,,,,,0,0,0,0,50,0,50,0,,,,,,,50,,,1,2141.5050509066787,X,d,go,d,1,0.5156251126900315,,,,,,,,,,,,,,,,90,001,24,m,Psychologie,2023-02-01_12h23.34.428,00_bat_bachelor,2022.2.4,59.97281235077243,
,,,,,,,,,,,,0,0,0,0,51,0,51,0,,,,,,,51,,,1,2143.121796304593,Y,l,go,l,1,0.6433166870847344,,,,,,,,,,,,,,,,90,001,24,m,Psychologie,2023-02-01_12h23.34.428,00_bat_bachelor,2022.2.4,59.97281235077243,
,,,,,,,,,,,,0,0,0,0,52,0,52,0,,,,,,,52,,,1,2144.871925880434,X,d,go,d,1,0.5244740783236921,,,,,,,,,,,,,,,,90,001,24,m,Psychologie,2023-02-01_12h23.34.428,00_bat_bachelor,2022.2.4,59.97281235077243,
,,,,,,,,,,,,0,0,0,0,53,0,53,0,,,,,,,53,,,1,2146.5048511491623,X,None,nogo,None,1,,2147.304754276527,,,,,,,,,,,,,,,90,001,24,m,Psychologie,2023-02-01_12h23.34.428,00_bat_bachelor,2022.2.4,59.97281235077243,
,,,,,,,,,,,,0,0,0,0,54,0,54,0,,,,,,,54,,,1,2148.304742640117,Y,l,go,l,1,0.3240174481179565,,,,,,,,,,,,,,,,90,001,24,m,Psychologie,2023-02-01_12h23.34.428,00_bat_bachelor,2022.2.4,59.97281235077243,
,,,,,,,,,,,,0,0,0,0,55,0,55,0,,,,,,,55,,,1,2149.738382187439,X,d,go,l,0,0.4268523072823882,,,,,,,,,,,,,,,,90,001,24,m,Psychologie,2023-02-01_12h23.34.428,00_bat_bachelor,2022.2.4,59.97281235077243,
,,,,,,,,,,,,0,0,0,0,56,0,56,0,,,,,,,56,,,1,2151.2717079895083,X,None,nogo,d,0,0.6362650541123003,,,,,,,,,,,,,,,,90,001,24,m,Psychologie,2023-02-01_12h23.34.428,00_bat_bachelor,2022.2.4,59.97281235077243,
,,,,,,,,,,,,0,0,0,0,57,0,57,0,,,,,,,57,,,1,2153.0218230197206,Y,l,go,l,1,0.47083095251582563,,,,,,,,,,,,,,,,90,001,24,m,Psychologie,2023-02-01_12h23.34.428,00_bat_bachelor,2022.2.4,59.97281235077243,
,,,,,,,,,,,,0,0,0,0,58,0,58,0,,,,,,,58,,,1,2154.6050484338775,X,d,go,d,1,0.6642660102806985,,,,,,,,,,,,,,,,90,001,24,m,Psychologie,2023-02-01_12h23.34.428,00_bat_bachelor,2022.2.4,59.97281235077243,
,,,,,,,,,,,,0,0,0,0,59,0,59,0,,,,,,,59,,,1,2156.371662850259,X,None,nogo,None,1,,2157.171698341146,,,,,,,,,,,,,,,90,001,24,m,Psychologie,2023-02-01_12h23.34.428,00_bat_bachelor,2022.2.4,59.97281235077243,
,,,,,,,,,,,,0,0,0,0,60,0,60,0,,,,,,,60,,,1,2158.171519431984,Y,l,go,l,1,0.48876015609130263,,,,,,,,,,,,,,,,90,001,24,m,Psychologie,2023-02-01_12h23.34.428,00_bat_bachelor,2022.2.4,59.97281235077243,
,,,,,,,,,,,,0,0,0,0,61,0,61,0,,,,,,,61,,,1,2159.771699504694,X,d,go,d,1,0.44216817850247025,,,,,,,,,,,,,,,,90,001,24,m,Psychologie,2023-02-01_12h23.34.428,00_bat_bachelor,2022.2.4,59.97281235077243,
,,,,,,,,,,,,0,0,0,0,62,0,62,0,,,,,,,62,,,1,2161.321424813941,Y,l,go,l,1,0.6179334269836545,,,,,,,,,,,,,,,,90,001,24,m,Psychologie,2023-02-01_12h23.34.428,00_bat_bachelor,2022.2.4,59.97281235077243,
,,,,,,,,,,,,0,0,0,0,63,0,63,0,,,,,,,63,,,1,2163.0547156098764,X,d,go,d,1,0.6458621404599398,,,,,,,,,,,,,,,,90,001,24,m,Psychologie,2023-02-01_12h23.34.428,00_bat_bachelor,2022.2.4,59.97281235077243,
,,,,,,,,,,,,0,0,0,0,64,0,64,0,,,,,,,64,,,1,2164.8048262766097,Y,l,go,l,1,0.6241520904004574,,,,,,,,,,,,,,,,90,001,24,m,Psychologie,2023-02-01_12h23.34.428,00_bat_bachelor,2022.2.4,59.97281235077243,
,,,,,,,,,,,,0,0,0,0,65,0,65,0,,,,,,,65,,,1,2166.5383973147254,Y,None,nogo,None,1,,2167.3380812907126,,,,,,,,,,,,,,,90,001,24,m,Psychologie,2023-02-01_12h23.34.428,00_bat_bachelor,2022.2.4,59.97281235077243,
,,,,,,,,,,,,0,0,0,0,66,0,66,0,,,,,,,66,,,1,2168.3383654118516,X,d,go,d,1,0.3384833806194365,,,,,,,,,,,,,,,,90,001,24,m,Psychologie,2023-02-01_12h23.34.428,00_bat_bachelor,2022.2.4,59.97281235077243,
,,,,,,,,,,,,0,0,0,0,67,0,67,0,,,,,,,67,,,1,2169.7881024058443,Y,l,go,None,0,,2170.5882154724095,,,,,,,,,,,,,,,90,001,24,m,Psychologie,2023-02-01_12h23.34.428,00_bat_bachelor,2022.2.4,59.97281235077243,
,,,,,,,,,,,,0,0,0,0,68,0,68,0,,,,,,,68,,,1,2171.5884850481525,X,d,go,None,0,,2172.38836829667,,,,,,,,,,,,,,,90,001,24,m,Psychologie,2023-02-01_12h23.34.428,00_bat_bachelor,2022.2.4,59.97281235077243,
,,,,,,,,,,,,0,0,0,0,69,0,69,0,,,,,,,69,,,1,2173.3883634482045,X,None,nogo,None,1,,2174.18837130256,,,,,,,,,,,,,,,90,001,24,m,Psychologie,2023-02-01_12h23.34.428,00_bat_bachelor,2022.2.4,59.97281235077243,
,,,,,,,,,,,,0,0,0,0,70,0,70,0,,,,,,,70,,,1,2175.1883591813967,Y,l,go,l,1,0.3839636007323861,,,,,,,,,,,,,,,,90,001,24,m,Psychologie,2023-02-01_12h23.34.428,00_bat_bachelor,2022.2.4,59.97281235077243,
,,,,,,,,,,,,0,0,0,0,71,0,71,0,,,,,,,71,,,1,2176.688354575308,X,d,go,None,0,,2177.488405581331,,,,,,,,,,,,,,,90,001,24,m,Psychologie,2023-02-01_12h23.34.428,00_bat_bachelor,2022.2.4,59.97281235077243,
,,,,,,,,,,,,0,0,0,0,72,0,72,0,,,,,,,72,,,1,2178.4883498239797,Y,l,go,l,1,0.6354063879698515,,,,,,,,,,,,,,,,90,001,24,m,Psychologie,2023-02-01_12h23.34.428,00_bat_bachelor,2022.2.4,59.97281235077243,
,,,,,,,,,,,,0,0,0,0,73,0,73,0,,,,,,,73,,,1,2180.2380231574643,X,d,go,d,1,0.5665429062210023,,,,,,,,,,,,,,,,90,001,24,m,Psychologie,2023-02-01_12h23.34.428,00_bat_bachelor,2022.2.4,59.97281235077243,
,,,,,,,,,,,,0,0,0,0,74,0,74,0,,,,,,,74,,,1,2181.905019197613,Y,l,go,None,0,,2182.705000385409,,,,,,,,,,,,,,,90,001,24,m,Psychologie,2023-02-01_12h23.34.428,00_bat_bachelor,2022.2.4,59.97281235077243,
,,,,,,,,,,,,0,0,0,0,75,0,75,0,,,,,,,75,,,1,2183.7050362643786,Y,None,nogo,l,0,0.49114027596078813,,,,,,,,,,,,,,,,90,001,24,m,Psychologie,2023-02-01_12h23.34.428,00_bat_bachelor,2022.2.4,59.97281235077243,
,,,,,,,,,,,,0,0,0,0,76,0,76,0,,,,,,,76,,,1,2185.304834761424,X,d,go,d,1,0.6187290628440678,,,,,,,,,,,,,,,,90,001,24,m,Psychologie,2023-02-01_12h23.34.428,00_bat_bachelor,2022.2.4,59.97281235077243,
,,,,,,,,,,,,0,0,0,0,77,0,77,0,,,,,,,77,,,1,2187.0552222763654,Y,l,go,l,1,0.6299988753162324,,,,,,,,,,,,,,,,90,001,24,m,Psychologie,2023-02-01_12h23.34.428,00_bat_bachelor,2022.2.4,59.97281235077243,
,,,,,,,,,,,,0,0,0,0,78,0,78,0,,,,,,,78,,,1,2188.7883516177535,X,d,go,d,1,0.6401593554764986,,,,,,,,,,,,,,,,90,001,24,m,Psychologie,2023-02-01_12h23.34.428,00_bat_bachelor,2022.2.4,59.97281235077243,
,,,,,,,,,,,,0,0,0,0,79,0,79,0,,,,,,,79,,,1,2190.5384045874234,Y,l,go,l,1,0.5702529652044177,,,,,,,,,,,,,,,,90,001,24,m,Psychologie,2023-02-01_12h23.34.428,00_bat_bachelor,2022.2.4,59.97281235077243,
,,,,,,,,,,,,0,0,0,0,80,0,80,0,,,,,,,80,,,1,2192.2216677714605,Y,None,nogo,None,1,,2193.021473929053,,,,,,,,,,,,,,,90,001,24,m,Psychologie,2023-02-01_12h23.34.428,00_bat_bachelor,2022.2.4,59.97281235077243,
,,,,,,,,,,,,0,0,0,0,81,0,81,0,,,,,,,81,,,1,2194.0216790197883,X,d,go,d,1,0.47837761556729674,,,,,,,,,,,,,,,,90,001,24,m,Psychologie,2023-02-01_12h23.34.428,00_bat_bachelor,2022.2.4,59.97281235077243,
,,,,,,,,,,,,0,0,0,0,82,0,82,0,,,,,,,82,,,1,2195.605030009756,Y,l,go,l,1,0.6228362123947591,,,,,,,,,,,,,,,,90,001,24,m,Psychologie,2023-02-01_12h23.34.428,00_bat_bachelor,2022.2.4,59.97281235077243,
,,,,,,,,,,,,0,0,0,0,83,0,83,0,,,,,,,83,,,1,2197.3384279571474,X,d,go,d,1,0.5857700484339148,,,,,,,,,,,,,,,,90,001,24,m,Psychologie,2023-02-01_12h23.34.428,00_bat_bachelor,2022.2.4,59.97281235077243,
,,,,,,,,,,,,0,0,0,0,84,0,84,0,,,,,,,84,,,1,2199.0385473752394,Y,l,go,l,1,0.35786761343479156,,,,,,,,,,,,,,,,90,001,24,m,Psychologie,2023-02-01_12h23.34.428,00_bat_bachelor,2022.2.4,59.97281235077243,
,,,,,,,,,,,,0,0,0,0,85,0,85,0,,,,,,,85,,,1,2200.50501066423,Y,None,nogo,l,0,0.4925662148743868,,,,,,,,,,,,,,,,90,001,24,m,Psychologie,2023-02-01_12h23.34.428,00_bat_bachelor,2022.2.4,59.97281235077243,
,,,,,,,,,,,,0,0,0,0,86,0,86,0,,,,,,,86,,,1,2202.105057403678,X,d,go,d,1,0.5874515019822866,,,,,,,,,,,,,,,,90,001,24,m,Psychologie,2023-02-01_12h23.34.428,00_bat_bachelor,2022.2.4,59.97281235077243,
,,,,,,,,,,,,0,0,0,0,87,0,87,0,,,,,,,87,,,1,2203.805000821827,Y,l,go,l,1,0.6152987612877041,,,,,,,,,,,,,,,,90,001,24,m,Psychologie,2023-02-01_12h23.34.428,00_bat_bachelor,2022.2.4,59.97281235077243,
,,,,,,,,,,,,0,0,0,0,88,0,88,0,,,,,,,88,,,1,2205.5214048381895,Y,None,nogo,None,1,,2206.321754025994,,,,,,,,,,,,,,,90,001,24,m,Psychologie,2023-02-01_12h23.34.428,00_bat_bachelor,2022.2.4,59.97281235077243,
,,,,,,,,,,,,0,0,0,0,89,0,89,0,,,,,,,89,,,1,2207.3218936622143,Y,None,nogo,None,1,,2208.121455456363,,,,,,,,,,,,,,,90,001,24,m,Psychologie,2023-02-01_12h23.34.428,00_bat_bachelor,2022.2.4,59.97281235077243,
,,,,,,,,,,,,0,0,0,0,90,0,90,0,,,,,,,90,,,1,2209.121695456328,X,d,go,d,1,0.5150675370823592,,,,,,,,,,,,,,,,90,001,24,m,Psychologie,2023-02-01_12h23.34.428,00_bat_bachelor,2022.2.4,59.97281235077243,
,,,,,,,,,,,,0,0,0,0,91,0,91,0,,,,,,,91,,,1,2210.73833224806,Y,l,go,l,1,0.4016178953461349,,,,,,,,,,,,,,,,90,001,24,m,Psychologie,2023-02-01_12h23.34.428,00_bat_bachelor,2022.2.4,59.97281235077243,
,,,,,,,,,,,,0,0,0,0,92,0,92,0,,,,,,,92,,,1,2212.2550025430974,X,d,go,d,1,0.5815872624516487,,,,,,,,,,,,,,,,90,001,24,m,Psychologie,2023-02-01_12h23.34.428,00_bat_bachelor,2022.2.4,59.97281235077243,
,,,,,,,,,,,,0,0,0,0,93,0,93,0,,,,,,,93,,,1,2213.938068393618,X,None,nogo,None,1,,2214.738354066387,,,,,,,,,,,,,,,90,001,24,m,Psychologie,2023-02-01_12h23.34.428,00_bat_bachelor,2022.2.4,59.97281235077243,
,,,,,,,,,,,,0,0,0,0,94,0,94,0,,,,,,,94,,,1,2215.7385494601913,Y,l,go,l,1,0.4426394512411207,,,,,,,,,,,,,,,,90,001,24,m,Psychologie,2023-02-01_12h23.34.428,00_bat_bachelor,2022.2.4,59.97281235077243,
,,,,,,,,,,,,0,0,0,0,95,0,95,0,,,,,,,95,,,1,2217.288401799742,X,d,go,d,1,0.5236071695107967,,,,,,,,,,,,,,,,90,001,24,m,Psychologie,2023-02-01_12h23.34.428,00_bat_bachelor,2022.2.4,59.97281235077243,
,,,,,,,,,,,,0,0,0,0,96,0,96,0,,,,,,,96,,,1,2218.9215030684136,Y,l,go,l,1,0.5232081394642591,,,,,,,,,,,,,,,,90,001,24,m,Psychologie,2023-02-01_12h23.34.428,00_bat_bachelor,2022.2.4,59.97281235077243,
,,,,,,,,,,,,0,0,0,0,97,0,97,0,,,,,,,97,,,1,2220.5547265189234,X,d,go,d,1,0.6177370632067323,,,,,,,,,,,,,,,,90,001,24,m,Psychologie,2023-02-01_12h23.34.428,00_bat_bachelor,2022.2.4,59.97281235077243,
,,,,,,,,,,,,0,0,0,0,98,0,98,0,,,,,,,98,,,1,2222.2883242238313,Y,l,go,None,0,,2223.088204078609,,,,,,,,,,,,,,,90,001,24,m,Psychologie,2023-02-01_12h23.34.428,00_bat_bachelor,2022.2.4,59.97281235077243,
,,,,,,,,,,,,0,0,0,0,99,0,99,0,,,,,,,99,,,1,2224.0880183817353,X,d,go,None,0,,2224.888590599643,,,,,,,,,,,,,,,90,001,24,m,Psychologie,2023-02-01_12h23.34.428,00_bat_bachelor,2022.2.4,59.97281235077243,
,,,,,,,,,,,,0,0,0,0,100,0,100,0,,,,,,,100,,,1,2225.888065993786,X,None,nogo,d,0,0.6616415267344564,,,,,,,,,,,,,,,,90,001,24,m,Psychologie,2023-02-01_12h23.34.428,00_bat_bachelor,2022.2.4,59.97281235077243,
,,,,,,,,,,,,0,0,0,0,101,0,101,0,,,,,,,101,,,1,2227.655029985588,Y,l,go,l,1,0.6068100382108241,,,,,,,,,,,,,,,,90,001,24,m,Psychologie,2023-02-01_12h23.34.428,00_bat_bachelor,2022.2.4,59.97281235077243,
,,,,,,,,,,,,0,0,0,0,102,0,102,0,,,,,,,102,,,1,2229.3716507288627,X,d,go,d,1,0.6009792531840503,,,,,,,,,,,,,,,,90,001,24,m,Psychologie,2023-02-01_12h23.34.428,00_bat_bachelor,2022.2.4,59.97281235077243,
,,,,,,,,,,,,0,0,0,0,103,0,103,0,,,,,,,103,,,1,2231.0884494117927,Y,l,go,l,1,0.5810054445173591,,,,,,,,,,,,,,,,90,001,24,m,Psychologie,2023-02-01_12h23.34.428,00_bat_bachelor,2022.2.4,59.97281235077243,
,,,,,,,,,,,,0,0,0,0,104,0,104,0,,,,,,,104,,,1,2232.7715336866677,Y,None,nogo,None,1,,2233.5714339048136,,,,,,,,,,,,,,,90,001,24,m,Psychologie,2023-02-01_12h23.34.428,00_bat_bachelor,2022.2.4,59.97281235077243,
,,,,,,,,,,,,0,0,0,0,105,0,105,0,,,,,,,105,,,1,2234.571657419903,X,d,go,d,1,0.32925574854016304,,,,,,,,,,,,,,,,90,001,24,m,Psychologie,2023-02-01_12h23.34.428,00_bat_bachelor,2022.2.4,59.97281235077243,
,,,,,,,,,,,,0,0,0,0,106,0,106,0,,,,,,,106,,,1,2236.004673937103,Y,l,go,l,1,0.5121579628903419,,,,,,,,,,,,,,,,90,001,24,m,Psychologie,2023-02-01_12h23.34.428,00_bat_bachelor,2022.2.4,59.97281235077243,
,,,,,,,,,,,,0,0,0,0,107,0,107,0,,,,,,,107,,,1,2237.621864425717,Y,None,nogo,None,1,,2238.421747674467,,,,,,,,,,,,,,,90,001,24,m,Psychologie,2023-02-01_12h23.34.428,00_bat_bachelor,2022.2.4,59.97281235077243,
,,,,,,,,,,,,0,0,0,0,108,0,108,0,,,,,,,108,,,1,2239.4216487652157,X,d,go,d,1,0.3743146357592195,,,,,,,,,,,,,,,,90,001,24,m,Psychologie,2023-02-01_12h23.34.428,00_bat_bachelor,2022.2.4,59.97281235077243,
,,,,,,,,,,,,0,0,0,0,109,0,109,0,,,,,,,109,,,1,2240.904985743109,Y,l,go,l,1,0.42827873094938695,,,,,,,,,,,,,,,,90,001,24,m,Psychologie,2023-02-01_12h23.34.428,00_bat_bachelor,2022.2.4,59.97281235077243,
,,,,,,,,,,,,0,0,0,0,110,0,110,0,,,,,,,110,,,1,2242.4383643935435,X,d,go,d,1,0.5103514182846993,,,,,,,,,,,,,,,,90,001,24,m,Psychologie,2023-02-01_12h23.34.428,00_bat_bachelor,2022.2.4,59.97281235077243,
,,,,,,,,,,,,0,0,0,0,111,0,111,0,,,,,,,111,,,1,2244.0550564581063,Y,l,go,l,1,0.5259043807163835,,,,,,,,,,,,,,,,90,001,24,m,Psychologie,2023-02-01_12h23.34.428,00_bat_bachelor,2022.2.4,59.97281235077243,
,,,,,,,,,,,,0,0,0,0,112,0,112,0,,,,,,,112,,,1,2245.688305120915,X,d,go,None,0,,2246.4880826724693,,,,,,,,,,,,,,,90,001,24,m,Psychologie,2023-02-01_12h23.34.428,00_bat_bachelor,2022.2.4,59.97281235077243,
,,,,,,,,,,,,0,0,0,0,113,0,113,0,,,,,,,113,,,1,2247.488543763291,Y,l,go,l,1,0.5155465672723949,,,,,,,,,,,,,,,,90,001,24,m,Psychologie,2023-02-01_12h23.34.428,00_bat_bachelor,2022.2.4,59.97281235077243,
,,,,,,,,,,,,0,0,0,0,114,0,114,0,,,,,,,114,,,1,2249.1046787372325,X,d,go,d,1,0.5150195374153554,,,,,,,,,,,,,,,,90,001,24,m,Psychologie,2023-02-01_12h23.34.428,00_bat_bachelor,2022.2.4,59.97281235077243,
,,,,,,,,,,,,0,0,0,0,115,0,115,0,,,,,,,115,,,1,2250.7216345593333,Y,l,go,None,0,,2251.521463989746,,,,,,,,,,,,,,,90,001,24,m,Psychologie,2023-02-01_12h23.34.428,00_bat_bachelor,2022.2.4,59.97281235077243,
,,,,,,,,,,,,0,0,0,0,116,0,116,0,,,,,,,116,,,1,2252.5214828988537,X,d,go,d,1,0.3950729286298156,,,,,,,,,,,,,,,,90,001,24,m,Psychologie,2023-02-01_12h23.34.428,00_bat_bachelor,2022.2.4,59.97281235077243,
,,,,,,,,,,,,0,0,0,0,117,0,117,0,,,,,,,117,,,1,2254.0216368380934,Y,l,go,l,1,0.5910548942629248,,,,,,,,,,,,,,,,90,001,24,m,Psychologie,2023-02-01_12h23.34.428,00_bat_bachelor,2022.2.4,59.97281235077243,
,,,,,,,,,,,,0,0,0,0,118,0,118,0,,,,,,,118,,,1,2255.721384862438,X,d,go,d,1,0.5399223130661994,,,,,,,,,,,,,,,,90,001,24,m,Psychologie,2023-02-01_12h23.34.428,00_bat_bachelor,2022.2.4,59.97281235077243,
,,,,,,,,,,,,0,0,0,0,119,0,119,0,,,,,,,119,,,1,2257.3714587290306,X,None,nogo,None,1,,2258.1716416138224,,,,,,,,,,,,,,,90,001,24,m,Psychologie,2023-02-01_12h23.34.428,00_bat_bachelor,2022.2.4,59.97281235077243,
,,,,,,,,,,,,0,0,0,0,120,0,120,0,,,,,,,120,,,1,2259.1717196744867,Y,l,go,l,1,0.49708645488135517,,,,,,,,,,,,,,,,90,001,24,m,Psychologie,2023-02-01_12h23.34.428,00_bat_bachelor,2022.2.4,59.97281235077243,
,,,,,,,,,,,,0,0,0,0,121,0,121,0,,,,,,,121,,,1,2260.771850292571,X,d,go,d,1,0.4325371531303972,,,,,,,,,,,,,,,,90,001,24,m,Psychologie,2023-02-01_12h23.34.428,00_bat_bachelor,2022.2.4,59.97281235077243,
,,,,,,,,,,,,0,0,0,0,122,0,122,0,,,,,,,122,,,1,2262.30495354929,Y,l,go,l,1,0.49998875660821795,,,,,,,,,,,,,,,,90,001,24,m,Psychologie,2023-02-01_12h23.34.428,00_bat_bachelor,2022.2.4,59.97281235077243,
,,,,,,,,,,,,0,0,0,0,123,0,123,0,,,,,,,123,,,1,2263.904965379508,X,d,go,None,0,,2264.7046551734675,,,,,,,,,,,,,,,90,001,24,m,Psychologie,2023-02-01_12h23.34.428,00_bat_bachelor,2022.2.4,59.97281235077243,
,,,,,,,,,,,,0,0,0,0,124,0,124,0,,,,,,,124,,,1,2265.70472887042,X,None,nogo,None,1,,2266.5049893308897,,,,,,,,,,,,,,,90,001,24,m,Psychologie,2023-02-01_12h23.34.428,00_bat_bachelor,2022.2.4,59.97281235077243,
,,,,,,,,,,,,0,0,0,0,125,0,125,0,,,,,,,125,,,1,2267.504809452221,Y,l,go,l,1,0.45150296203792095,,,,,,,,,,,,,,,,90,001,24,m,Psychologie,2023-02-01_12h23.34.428,00_bat_bachelor,2022.2.4,59.97281235077243,
,,,,,,,,,,,,0,0,0,0,126,0,126,0,,,,,,,126,,,1,2269.0716334199533,X,d,go,d,1,0.356989553431049,,,,,,,,,,,,,,,,90,001,24,m,Psychologie,2023-02-01_12h23.34.428,00_bat_bachelor,2022.2.4,59.97281235077243,
,,,,,,,,,,,,0,0,0,0,127,0,127,0,,,,,,,127,,,1,2270.53828579979,Y,l,go,l,1,0.45904962508939207,,,,,,,,,,,,,,,,90,001,24,m,Psychologie,2023-02-01_12h23.34.428,00_bat_bachelor,2022.2.4,59.97281235077243,
,,,,,,,,,,,,0,0,0,0,128,0,128,0,,,,,,,128,,,1,2272.104776191758,X,d,go,d,1,0.4762379804160446,,,,,,,,,,,,,,,,90,001,24,m,Psychologie,2023-02-01_12h23.34.428,00_bat_bachelor,2022.2.4,59.97281235077243,
,,,,,,,,,,,,0,0,0,0,129,0,129,0,,,,,,,129,,,1,2273.688278454123,X,None,nogo,None,1,,2274.488026430132,,,,,,,,,,,,,,,90,001,24,m,Psychologie,2023-02-01_12h23.34.428,00_bat_bachelor,2022.2.4,59.97281235077243,
,,,,,,,,,,,,0,0,0,0,130,0,130,0,,,,,,,130,,,1,2275.4879968543537,Y,l,go,l,1,0.532301468309015,,,,,,,,,,,,,,,,90,001,24,m,Psychologie,2023-02-01_12h23.34.428,00_bat_bachelor,2022.2.4,59.97281235077243,
,,,,,,,,,,,,0,0,0,0,131,0,131,0,,,,,,,131,,,1,2277.121575213736,X,d,go,d,1,0.6111697936430573,,,,,,,,,,,,,,,,90,001,24,m,Psychologie,2023-02-01_12h23.34.428,00_bat_bachelor,2022.2.4,59.97281235077243,
,,,,,,,,,,,,0,0,0,0,132,0,132,0,,,,,,,132,,,1,2278.8382769268937,Y,l,go,l,1,0.6383552348706871,,,,,,,,,,,,,,,,90,001,24,m,Psychologie,2023-02-01_12h23.34.428,00_bat_bachelor,2022.2.4,59.97281235077243,
,,,,,,,,,,,,0,0,0,0,133,0,133,0,,,,,,,133,,,1,2280.588314381428,Y,None,nogo,None,1,,2281.3883270844817,,,,,,,,,,,,,,,90,001,24,m,Psychologie,2023-02-01_12h23.34.428,00_bat_bachelor,2022.2.4,59.97281235077243,
,,,,,,,,,,,,0,0,0,0,134,0,134,0,,,,,,,134,,,1,2282.3883004179224,Y,None,nogo,None,1,,2283.1885521509685,,,,,,,,,,,,,,,90,001,24,m,Psychologie,2023-02-01_12h23.34.428,00_bat_bachelor,2022.2.4,59.97281235077243,
,,,,,,,,,,,,0,0,0,0,135,0,135,0,,,,,,,135,,,1,2284.188292272389,X,d,go,d,1,0.4872338536661118,,,,,,,,,,,,,,,,90,001,24,m,Psychologie,2023-02-01_12h23.34.428,00_bat_bachelor,2022.2.4,59.97281235077243,
,,,,,,,,,,,,0,0,0,0,136,0,136,0,,,,,,,136,,,1,2285.78798798169,Y,l,go,l,1,0.6001215567812324,,,,,,,,,,,,,,,,90,001,24,m,Psychologie,2023-02-01_12h23.34.428,00_bat_bachelor,2022.2.4,59.97281235077243,
,,,,,,,,,,,,0,0,0,0,137,0,137,0,,,,,,,137,,,1,2287.4882533391938,X,d,go,d,1,0.48344573425129056,,,,,,,,,,,,,,,,90,001,24,m,Psychologie,2023-02-01_12h23.34.428,00_bat_bachelor,2022.2.4,59.97281235077243,
,,,,,,,,,,,,0,0,0,0,138,0,138,0,,,,,,,138,,,1,2289.0713260259945,Y,l,go,l,1,0.564575876807794,,,,,,,,,,,,,,,,90,001,24,m,Psychologie,2023-02-01_12h23.34.428,00_bat_bachelor,2022.2.4,59.97281235077243,
,,,,,,,,,,,,0,0,0,0,139,0,139,0,,,,,,,139,,,1,2290.73833224806,X,d,go,d,1,0.5464231583755463,,,,,,,,,,,,,,,,90,001,24,m,Psychologie,2023-02-01_12h23.34.428,00_bat_bachelor,2022.2.4,59.97281235077243,
,,,,,,,,,,,,0,0,0,0,140,0,140,0,,,,,,,140,,,1,2292.3880109635647,X,None,nogo,None,1,,2293.1882888784166,,,,,,,,,,,,,,,90,001,24,m,Psychologie,2023-02-01_12h23.34.428,00_bat_bachelor,2022.2.4,59.97281235077243,
,,,,,,,,,,,,0,0,0,0,141,0,141,0,,,,,,,141,,,1,2294.1883460904937,Y,l,go,l,1,0.42458127811551094,,,,,,,,,,,,,,,,90,001,24,m,Psychologie,2023-02-01_12h23.34.428,00_bat_bachelor,2022.2.4,59.97281235077243,
,,,,,,,,,,,,0,0,0,0,142,0,142,0,,,,,,,142,,,1,2295.7213257108815,X,d,go,d,1,0.587361320387572,,,,,,,,,,,,,,,,90,001,24,m,Psychologie,2023-02-01_12h23.34.428,00_bat_bachelor,2022.2.4,59.97281235077243,
,,,,,,,,,,,,0,0,0,0,143,0,143,0,,,,,,,143,,,1,2297.421668644063,X,None,nogo,None,1,,2298.2218200138304,,,,,,,,,,,,,,,90,001,24,m,Psychologie,2023-02-01_12h23.34.428,00_bat_bachelor,2022.2.4,59.97281235077243,
,,,,,,,,,,,,0,0,0,0,144,0,144,0,,,,,,,144,,,1,2299.2213938320056,X,None,nogo,None,1,,2300.021618413739,,,,,,,,,,,,,,,90,001,24,m,Psychologie,2023-02-01_12h23.34.428,00_bat_bachelor,2022.2.4,59.97281235077243,
,,,,,,,,,,,,0,0,0,0,145,0,145,0,,,,,,,145,,,1,2301.0216019290965,Y,l,go,l,1,0.42383849062025547,,,,,,,,,,,,,,,,90,001,24,m,Psychologie,2023-02-01_12h23.34.428,00_bat_bachelor,2022.2.4,59.97281235077243,
,,,,,,,,,,,,0,0,0,0,146,0,146,0,,,,,,,146,,,1,2302.5550314886495,X,d,go,l,0,0.5538122458383441,,,,,,,,,,,,,,,,90,001,24,m,Psychologie,2023-02-01_12h23.34.428,00_bat_bachelor,2022.2.4,59.97281235077243,
,,,,,,,,,,,,0,0,0,0,147,0,147,0,,,,,,,147,,,1,2304.221649347106,X,None,nogo,d,0,0.5824473835527897,,,,,,,,,,,,,,,,90,001,24,m,Psychologie,2023-02-01_12h23.34.428,00_bat_bachelor,2022.2.4,59.97281235077243,
,,,,,,,,,,,,0,0,0,0,148,0,148,0,,,,,,,148,,,1,2305.904733621981,Y,l,go,l,1,0.6117971872445196,,,,,,,,,,,,,,,,90,001,24,m,Psychologie,2023-02-01_12h23.34.428,00_bat_bachelor,2022.2.4,59.97281235077243,
,,,,,,,,,,,,0,0,0,0,149,0,149,0,,,,,,,149,,,1,2307.621567213908,X,d,go,None,0,,2308.4216371290386,,,,,,,,,,,,,,,90,001,24,m,Psychologie,2023-02-01_12h23.34.428,00_bat_bachelor,2022.2.4,59.97281235077243,
,,,,,,,,,,,,0,0,0,0,150,0,150,0,,,,,,,150,,,1,2309.4215619775932,Y,l,go,l,1,0.5023625737521797,,,,,,,,,,,,,,,,90,001,24,m,Psychologie,2023-02-01_12h23.34.428,00_bat_bachelor,2022.2.4,59.97281235077243,
,,,,,,,,,,,,0,0,0,0,151,0,151,0,,,,,,,151,,,1,2311.0382681027986,X,d,go,d,1,0.5184900811873376,,,,,,,,,,,,,,,,90,001,24,m,Psychologie,2023-02-01_12h23.34.428,00_bat_bachelor,2022.2.4,59.97281235077243,
,,,,,,,,,,,,0,0,0,0,152,0,152,0,,,,,,,152,,,1,2312.671336886706,X,None,nogo,d,0,0.4527247797232121,,,,,,,,,,,,,,,,90,001,24,m,Psychologie,2023-02-01_12h23.34.428,00_bat_bachelor,2022.2.4,59.97281235077243,
,,,,,,,,,,,,0,0,0,0,153,0,153,0,,,,,,,153,,,1,2314.238268490648,Y,l,go,l,1,0.4382942412048578,,,,,,,,,,,,,,,,90,001,24,m,Psychologie,2023-02-01_12h23.34.428,00_bat_bachelor,2022.2.4,59.97281235077243,
,,,,,,,,,,,,0,0,0,0,154,0,154,0,,,,,,,154,,,1,2315.7883079815656,X,d,go,d,1,0.4716358007863164,,,,,,,,,,,,,,,,90,001,24,m,Psychologie,2023-02-01_12h23.34.428,00_bat_bachelor,2022.2.4,59.97281235077243,
,,,,,,,,,,,,0,0,0,0,155,0,155,0,,,,,,,155,,,1,2317.3715978804976,X,None,nogo,None,1,,2318.1718030683696,,,,,,,,,,,,,,,90,001,24,m,Psychologie,2023-02-01_12h23.34.428,00_bat_bachelor,2022.2.4,59.97281235077243,
,,,,,,,,,,,,0,0,0,0,156,0,156,0,,,,,,,156,,,1,2319.171595553169,Y,l,go,l,1,0.5765477498061955,,,,,,,,,,,,,,,,90,001,24,m,Psychologie,2023-02-01_12h23.34.428,00_bat_bachelor,2022.2.4,59.97281235077243,
,,,,,,,,,,,,0,0,0,0,157,0,157,0,,,,,,,157,,,1,2320.8547273431905,X,d,go,d,1,0.5578224256169051,,,,,,,,,,,,,,,,90,001,24,m,Psychologie,2023-02-01_12h23.34.428,00_bat_bachelor,2022.2.4,59.97281235077243,
,,,,,,,,,,,,0,0,0,0,158,0,158,0,,,,,,,158,,,1,2322.5212603535037,Y,l,go,None,0,,2323.321395238163,,,,,,,,,,,,,,,90,001,24,m,Psychologie,2023-02-01_12h23.34.428,00_bat_bachelor,2022.2.4,59.97281235077243,
,,,,,,,,,,,,0,0,0,0,159,0,159,0,,,,,,,159,,,1,2324.3216245714575,Y,None,nogo,None,1,,2325.1213153351564,,,,,,,,,,,,,,,90,001,24,m,Psychologie,2023-02-01_12h23.34.428,00_bat_bachelor,2022.2.4,59.97281235077243,
,,,,,,,,,,,,0,0,0,0,160,0,160,0,,,,,,,160,,,1,2326.1217769107316,X,d,go,d,1,0.47511119302362204,,,,,,,,,,,,,,,,90,001,24,m,Psychologie,2023-02-01_12h23.34.428,00_bat_bachelor,2022.2.4,59.97281235077243,
,,,,,,,,,,,,0,0,0,0,161,0,161,0,,,,,,,161,,,1,2327.7049281431828,Y,l,go,l,1,0.6510694108437747,,,,,,,,,,,,,,,,90,001,24,m,Psychologie,2023-02-01_12h23.34.428,00_bat_bachelor,2022.2.4,59.97281235077243,
,,,,,,,,,,,,0,0,0,0,162,0,162,0,,,,,,,162,,,1,2329.471300135134,X,d,go,d,1,0.46833786298520863,,,,,,,,,,,,,,,,90,001,24,m,Psychologie,2023-02-01_12h23.34.428,00_bat_bachelor,2022.2.4,59.97281235077243,
,,,,,,,,,,,,0,0,0,0,163,0,163,0,,,,,,,163,,,1,2331.054923124844,Y,l,go,l,1,0.5654665431939065,,,,,,,,,,,,,,,,90,001,24,m,Psychologie,2023-02-01_12h23.34.428,00_bat_bachelor,2022.2.4,59.97281235077243,
,,,,,,,,,,,,0,0,0,0,164,0,164,0,,,,,,,164,,,1,2332.721594316885,Y,None,nogo,l,0,0.41904576565138996,,,,,,,,,,,,,,,,90,001,24,m,Psychologie,2023-02-01_12h23.34.428,00_bat_bachelor,2022.2.4,59.97281235077243,
,,,,,,,,,,,,0,0,0,0,165,0,165,0,,,,,,,165,,,1,2334.254609816009,X,d,go,d,1,0.5166515365708619,,,,,,,,,,,,,,,,90,001,24,m,Psychologie,2023-02-01_12h23.34.428,00_bat_bachelor,2022.2.4,59.97281235077243,
,,,,,,,,,,,,0,0,0,0,166,0,166,0,,,,,,,166,,,1,2335.8714095170144,Y,l,go,l,1,0.5169899605680257,,,,,,,,,,,,,,,,90,001,24,m,Psychologie,2023-02-01_12h23.34.428,00_bat_bachelor,2022.2.4,59.97281235077243,
,,,,,,,,,,,,0,0,0,0,167,0,167,0,,,,,,,167,,,1,2337.504967997549,Y,None,nogo,None,1,,2338.3047794885933,,,,,,,,,,,,,,,90,001,24,m,Psychologie,2023-02-01_12h23.34.428,00_bat_bachelor,2022.2.4,59.97281235077243,
,,,,,,,,,,,,0,0,0,0,168,0,168,0,,,,,,,168,,,1,2339.304636943387,X,d,go,d,1,0.41266467794775963,,,,,,,,,,,,,,,,90,001,24,m,Psychologie,2023-02-01_12h23.34.428,00_bat_bachelor,2022.2.4,59.97281235077243,
,,,,,,,,,,,,0,0,0,0,169,0,169,0,,,,,,,169,,,1,2340.8212815413717,Y,l,go,l,1,0.62324009090662,,,,,,,,,,,,,,,,90,001,24,m,Psychologie,2023-02-01_12h23.34.428,00_bat_bachelor,2022.2.4,59.97281235077243,
,,,,,,,,,,,,0,0,0,0,170,0,170,0,,,,,,,170,,,1,2342.5549010643736,X,d,go,d,1,0.4426428449805826,,,,,,,,,,,,,,,,90,001,24,m,Psychologie,2023-02-01_12h23.34.428,00_bat_bachelor,2022.2.4,59.97281235077243,
,,,,,,,,,,,,0,0,0,0,171,0,171,0,,,,,,,171,,,1,2344.105045767268,Y,l,go,None,0,,2344.9049086521845,,,,,,,,,,,,,,,90,001,24,m,Psychologie,2023-02-01_12h23.34.428,00_bat_bachelor,2022.2.4,59.97281235077243,
,,,,,,,,,,,,0,0,0,0,172,0,172,0,,,,,,,172,,,1,2345.9046478038654,X,d,go,d,1,0.5481458241119981,,,,,,,,,,,,,,,,90,001,24,m,Psychologie,2023-02-01_12h23.34.428,00_bat_bachelor,2022.2.4,59.97281235077243,
,,,,,,,,,,,,0,0,0,0,173,0,173,0,,,,,,,173,,,1,2347.554985427996,X,None,nogo,d,0,0.49778124247677624,,,,,,,,,,,,,,,,90,001,24,m,Psychologie,2023-02-01_12h23.34.428,00_bat_bachelor,2022.2.4,59.97281235077243,
,,,,,,,,,,,,0,0,0,0,174,0,174,0,,,,,,,174,,,1,2349.1546345916577,Y,l,go,l,1,0.5782001127954572,,,,,,,,,,,,,,,,90,001,24,m,Psychologie,2023-02-01_12h23.34.428,00_bat_bachelor,2022.2.4,59.97281235077243,
,,,,,,,,,,,,0,0,0,0,175,0,175,0,,,,,,,175,,,1,2350.838118866319,X,d,go,d,1,0.5740284784696996,,,,,,,,,,,,,,,,90,001,24,m,Psychologie,2023-02-01_12h23.34.428,00_bat_bachelor,2022.2.4,59.97281235077243,
,,,,,,,,,,,,0,0,0,0,176,0,176,0,,,,,,,176,,,1,2352.5213258080184,Y,l,go,l,1,0.6504420170094818,,,,,,,,,,,,,,,,90,001,24,m,Psychologie,2023-02-01_12h23.34.428,00_bat_bachelor,2022.2.4,59.97281235077243,
,,,,,,,,,,,,0,0,0,0,177,0,177,0,,,,,,,177,,,1,2354.288103133207,X,d,go,d,1,0.5807635055389255,,,,,,,,,,,,,,,,90,001,24,m,Psychologie,2023-02-01_12h23.34.428,00_bat_bachelor,2022.2.4,59.97281235077243,
,,,,,,,,,,,,0,0,0,0,178,0,178,0,,,,,,,178,,,1,2355.9715694685,X,None,nogo,None,1,,2356.7714192625135,,,,,,,,,,,,,,,90,001,24,m,Psychologie,2023-02-01_12h23.34.428,00_bat_bachelor,2022.2.4,59.97281235077243,
,,,,,,,,,,,,0,0,0,0,179,0,179,0,,,,,,,179,,,1,2357.7715889592655,Y,l,go,l,1,0.4886481559369713,,,,,,,,,,,,,,,,90,001,24,m,Psychologie,2023-02-01_12h23.34.428,00_bat_bachelor,2022.2.4,59.97281235077243,
,,,,,,,,,,,,0,0,0,0,180,0,180,0,,,,,,,180,,,1,2359.371491213795,X,d,go,d,1,0.6329273588489741,,,,,,,,,,,,,,,,90,001,24,m,Psychologie,2023-02-01_12h23.34.428,00_bat_bachelor,2022.2.4,59.97281235077243,
,,,,,,,,,,,,0,0,0,0,181,0,181,0,,,,,,,181,,,1,2361.104601646308,Y,l,go,l,1,0.5806452024262398,,,,,,,,,,,,,,,,90,001,24,m,Psychologie,2023-02-01_12h23.34.428,00_bat_bachelor,2022.2.4,59.97281235077243,
,,,,,,,,,,,,0,0,0,0,182,0,182,0,,,,,,,182,,,1,2362.7881887087133,X,d,go,d,1,0.4968988187611103,,,,,,,,,,,,,,,,90,001,24,m,Psychologie,2023-02-01_12h23.34.428,00_bat_bachelor,2022.2.4,59.97281235077243,
,,,,,,,,,,,,0,0,0,0,183,0,183,0,,,,,,,183,,,1,2364.3884788420983,X,None,nogo,None,1,,2365.188337848056,,,,,,,,,,,,,,,90,001,24,m,Psychologie,2023-02-01_12h23.34.428,00_bat_bachelor,2022.2.4,59.97281235077243,
,,,,,,,,,,,,0,0,0,0,184,0,184,0,,,,,,,184,,,1,2366.188307302771,Y,l,go,l,1,0.5037977246101946,,,,,,,,,,,,,,,,90,001,24,m,Psychologie,2023-02-01_12h23.34.428,00_bat_bachelor,2022.2.4,59.97281235077243,
,,,,,,,,,,,,0,0,0,0,185,0,185,0,,,,,,,185,,,1,2367.8050207006745,X,d,go,d,1,0.5837099282070994,,,,,,,,,,,,,,,,90,001,24,m,Psychologie,2023-02-01_12h23.34.428,00_bat_bachelor,2022.2.4,59.97281235077243,
,,,,,,,,,,,,0,0,0,0,186,0,186,0,,,,,,,186,,,1,2369.5046528463718,Y,l,go,None,0,,2370.3046844583005,,,,,,,,,,,,,,,90,001,24,m,Psychologie,2023-02-01_12h23.34.428,00_bat_bachelor,2022.2.4,59.97281235077243,
,,,,,,,,,,,,0,0,0,0,187,0,187,0,,,,,,,187,,,1,2371.304644216085,X,d,go,d,1,0.5239451087545604,,,,,,,,,,,,,,,,90,001,24,m,Psychologie,2023-02-01_12h23.34.428,00_bat_bachelor,2022.2.4,59.97281235077243,
,,,,,,,,,,,,0,0,0,0,188,0,188,0,,,,,,,188,,,1,2372.9380155452527,Y,l,go,l,1,0.5862064119428396,,,,,,,,,,,,,,,,90,001,24,m,Psychologie,2023-02-01_12h23.34.428,00_bat_bachelor,2022.2.4,59.97281235077243,
,,,,,,,,,,,,0,0,0,0,189,0,189,0,,,,,,,189,,,1,2374.6382910844404,Y,None,nogo,None,1,,2375.438063302776,,,,,,,,,,,,,,,90,001,24,m,Psychologie,2023-02-01_12h23.34.428,00_bat_bachelor,2022.2.4,59.97281235077243,
,,,,,,,,,,,,0,0,0,0,190,0,190,0,,,,,,,190,,,1,2376.4382184543647,X,d,go,d,1,0.4139369195327163,,,,,,,,,,,,,,,,90,001,24,m,Psychologie,2023-02-01_12h23.34.428,00_bat_bachelor,2022.2.4,59.97281235077243,
,,,,,,,,,,,,0,0,0,0,191,0,191,0,,,,,,,191,,,1,2377.9546948098578,Y,l,go,l,1,0.6263082106597722,,,,,,,,,,,,,,,,90,001,24,m,Psychologie,2023-02-01_12h23.34.428,00_bat_bachelor,2022.2.4,59.97281235077243,
,,,,,,,,,,,,0,0,0,0,192,0,192,0,,,,,,,192,,,1,2379.6879216060042,Y,None,nogo,l,0,0.4293332756496966,,,,,,,,,,,,,,,,90,001,24,m,Psychologie,2023-02-01_12h23.34.428,00_bat_bachelor,2022.2.4,59.97281235077243,
,,,,,,,,,,,,0,0,0,0,193,0,193,0,,,,,,,193,,,1,2381.2213705594186,X,d,go,d,1,0.5124183262232691,,,,,,,,,,,,,,,,90,001,24,m,Psychologie,2023-02-01_12h23.34.428,00_bat_bachelor,2022.2.4,59.97281235077243,
,,,,,,,,,,,,0,0,0,0,194,0,194,0,,,,,,,194,,,1,2382.838226018008,Y,l,go,None,0,,2383.6382193269674,,,,,,,,,,,,,,,90,001,24,m,Psychologie,2023-02-01_12h23.34.428,00_bat_bachelor,2022.2.4,59.97281235077243,
,,,,,,,,,,,,0,0,0,0,195,0,195,0,,,,,,,195,,,1,2384.638062236132,Y,None,nogo,l,0,0.5175499604083598,,,,,,,,,,,,,,,,90,001,24,m,Psychologie,2023-02-01_12h23.34.428,00_bat_bachelor,2022.2.4,59.97281235077243,
,,,,,,,,,,,,0,0,0,0,196,0,196,0,,,,,,,196,,,1,2386.2715615653433,X,d,go,d,1,0.48475240054540336,,,,,,,,,,,,,,,,90,001,24,m,Psychologie,2023-02-01_12h23.34.428,00_bat_bachelor,2022.2.4,59.97281235077243,
,,,,,,,,,,,,0,0,0,0,197,0,197,0,,,,,,,197,,,1,2387.8718153350055,Y,l,go,None,0,,2388.6715104624163,,,,,,,,,,,,,,,90,001,24,m,Psychologie,2023-02-01_12h23.34.428,00_bat_bachelor,2022.2.4,59.97281235077243,
,,,,,,,,,,,,0,0,0,0,198,0,198,0,,,,,,,198,,,1,2389.671396038262,Y,None,nogo,l,0,0.6206699104513973,,,,,,,,,,,,,,,,90,001,24,m,Psychologie,2023-02-01_12h23.34.428,00_bat_bachelor,2022.2.4,59.97281235077243,
,,,,,,,,,,,,0,0,0,0,199,0,199,0,,,,,,,199,,,1,2391.405135803623,Y,None,nogo,None,1,,2392.204722809838,,,,,,,,,,,,,,,90,001,24,m,Psychologie,2023-02-01_12h23.34.428,00_bat_bachelor,2022.2.4,59.97281235077243,
,,,,,,,,,,,,0,0,0,0,200,0,200,0,,,,,,,200,,,1,2393.2047363857273,X,d,go,d,1,0.3512392530683428,,,,,,,,,,,,,,,,90,001,24,m,Psychologie,2023-02-01_12h23.34.428,00_bat_bachelor,2022.2.4,59.97281235077243,
,,,,,,,,,,,,0,0,0,0,201,0,201,0,,,,,,,201,,,1,2394.6713538563345,Y,l,go,l,1,0.5170709302183241,,,,,,,,,,,,,,,,90,001,24,m,Psychologie,2023-02-01_12h23.34.428,00_bat_bachelor,2022.2.4,59.97281235077243,
,,,,,,,,,,,,0,0,0,0,202,0,202,0,,,,,,,202,,,1,2396.30488567031,Y,None,nogo,None,1,,2397.1048746157903,,,,,,,,,,,,,,,90,001,24,m,Psychologie,2023-02-01_12h23.34.428,00_bat_bachelor,2022.2.4,59.97281235077243,
,,,,,,,,,,,,0,0,0,0,203,0,203,0,,,,,,,203,,,1,2398.1048911006656,X,d,go,d,1,0.3638748833909631,,,,,,,,,,,,,,,,90,001,24,m,Psychologie,2023-02-01_12h23.34.428,00_bat_bachelor,2022.2.4,59.97281235077243,
,,,,,,,,,,,,0,0,0,0,204,0,204,0,,,,,,,204,,,1,2399.5715483289678,Y,l,go,None,0,,2400.371615819866,,,,,,,,,,,,,,,90,001,24,m,Psychologie,2023-02-01_12h23.34.428,00_bat_bachelor,2022.2.4,59.97281235077243,
,,,,,,,,,,,,0,0,0,0,205,0,205,0,,,,,,,205,,,1,2401.3712390928995,X,d,go,d,1,0.3761536651290953,,,,,,,,,,,,,,,,90,001,24,m,Psychologie,2023-02-01_12h23.34.428,00_bat_bachelor,2022.2.4,59.97281235077243,
,,,,,,,,,,,,0,0,0,0,206,0,206,0,,,,,,,206,,,1,2402.8548839492723,Y,l,go,l,1,0.42935412423685193,,,,,,,,,,,,,,,,90,001,24,m,Psychologie,2023-02-01_12h23.34.428,00_bat_bachelor,2022.2.4,59.97281235077243,
,,,,,,,,,,,,0,0,0,0,207,0,207,0,,,,,,,207,,,1,2404.3882815088145,Y,None,nogo,None,1,,2405.1882093632594,,,,,,,,,,,,,,,90,001,24,m,Psychologie,2023-02-01_12h23.34.428,00_bat_bachelor,2022.2.4,59.97281235077243,
,,,,,,,,,,,,0,0,0,0,208,0,208,0,,,,,,,208,,,1,2406.1882539694197,X,d,go,d,1,0.32829526416026056,,,,,,,,,,,,,,,,90,001,24,m,Psychologie,2023-02-01_12h23.34.428,00_bat_bachelor,2022.2.4,59.97281235077243,
,,,,,,,,,,,,0,0,0,0,209,0,209,0,,,,,,,209,,,1,2407.621552668512,Y,l,go,l,1,0.5909574397373945,,,,,,,,,,,,,,,,90,001,24,m,Psychologie,2023-02-01_12h23.34.428,00_bat_bachelor,2022.2.4,59.97281235077243,
,,,,,,,,,,,,0,0,0,0,210,0,210,0,,,,,,,210,,,1,2409.3215998441447,X,d,go,d,1,0.3796644515823573,,,,,,,,,,,,,,,,90,001,24,m,Psychologie,2023-02-01_12h23.34.428,00_bat_bachelor,2022.2.4,59.97281235077243,
,,,,,,,,,,,,0,0,0,0,211,0,211,0,,,,,,,211,,,1,2410.8050895491615,X,None,nogo,d,0,0.6229777878616005,,,,,,,,,,,,,,,,90,001,24,m,Psychologie,2023-02-01_12h23.34.428,00_bat_bachelor,2022.2.4,59.97281235077243,
,,,,,,,,,,,,0,0,0,0,212,0,212,0,,,,,,,212,,,1,2412.53820483014,Y,l,go,l,1,0.6502073504962027,,,,,,,,,,,,,,,,90,001,24,m,Psychologie,2023-02-01_12h23.34.428,00_bat_bachelor,2022.2.4,59.97281235077243,
,,,,,,,,,,,,0,0,0,0,213,0,213,0,,,,,,,213,,,1,2414.288203981472,X,d,go,d,1,0.5325385590549558,,,,,,,,,,,,,,,,90,001,24,m,Psychologie,2023-02-01_12h23.34.428,00_bat_bachelor,2022.2.4,59.97281235077243,
,,,,,,,,,,,,0,0,0,0,214,0,214,0,,,,,,,214,,,1,2415.9215384623967,X,None,nogo,d,0,0.45126732578501105,,,,,,,,,,,,,,,,90,001,24,m,Psychologie,2023-02-01_12h23.34.428,00_bat_bachelor,2022.2.4,59.97281235077243,
,,,,,,,,,,,,0,0,0,0,215,0,215,0,,,,,,,215,,,1,2417.4882072785404,Y,l,go,l,1,0.629104815190658,,,,,,,,,,,,,,,,90,001,24,m,Psychologie,2023-02-01_12h23.34.428,00_bat_bachelor,2022.2.4,59.97281235077243,
,,,,,,,,,,,,0,0,0,0,216,0,216,0,,,,,,,216,,,1,2419.2212740746327,X,d,go,d,1,0.4636391985695809,,,,,,,,,,,,,,,,90,001,24,m,Psychologie,2023-02-01_12h23.34.428,00_bat_bachelor,2022.2.4,59.97281235077243,
,,,,,,,,,,,,0,0,0,0,217,0,217,0,,,,,,,217,,,1,2420.7879356180783,Y,l,go,l,1,0.4646956829819828,,,,,,,,,,,,,,,,90,001,24,m,Psychologie,2023-02-01_12h23.34.428,00_bat_bachelor,2022.2.4,59.97281235077243,
,,,,,,,,,,,,0,0,0,0,218,0,218,0,,,,,,,218,,,1,2422.3545758281834,Y,None,nogo,None,1,,2423.154861985473,,,,,,,,,,,,,,,90,001,24,m,Psychologie,2023-02-01_12h23.34.428,00_bat_bachelor,2022.2.4,59.97281235077243,
,,,,,,,,,,,,0,0,0,0,219,0,219,0,,,,,,,219,,,1,2424.1545439250767,X,d,go,d,1,0.3460484677925706,,,,,,,,,,,,,,,,90,001,24,m,Psychologie,2023-02-01_12h23.34.428,00_bat_bachelor,2022.2.4,59.97281235077243,
,,,,,,,,,,,,0,0,0,0,220,0,220,0,,,,,,,220,,,1,2425.6045757068787,Y,l,go,l,1,0.6075547651853412,,,,,,,,,,,,,,,,90,001,24,m,Psychologie,2023-02-01_12h23.34.428,00_bat_bachelor,2022.2.4,59.97281235077243,
,,,,,,,,,,,,0,0,0,0,221,0,221,0,,,,,,,221,,,1,2427.3215217834804,X,d,go,d,1,0.49097736715339124,,,,,,,,,,,,,,,,90,001,24,m,Psychologie,2023-02-01_12h23.34.428,00_bat_bachelor,2022.2.4,59.97281235077243,
,,,,,,,,,,,,0,0,0,0,222,0,222,0,,,,,,,222,,,1,2428.921519553289,X,None,nogo,None,1,,2429.7212175896857,,,,,,,,,,,,,,,90,001,24,m,Psychologie,2023-02-01_12h23.34.428,00_bat_bachelor,2022.2.4,59.97281235077243,
,,,,,,,,,,,,0,0,0,0,223,0,223,0,,,,,,,223,,,1,2430.7215763775166,Y,l,go,l,1,0.4349240609444678,,,,,,,,,,,,,,,,90,001,24,m,Psychologie,2023-02-01_12h23.34.428,00_bat_bachelor,2022.2.4,59.97281235077243,
,,,,,,,,,,,,0,0,0,0,224,0,224,0,,,,,,,224,,,1,2432.271369080525,X,d,go,d,1,0.45255896146409214,,,,,,,,,,,,,,,,90,001,24,m,Psychologie,2023-02-01_12h23.34.428,00_bat_bachelor,2022.2.4,59.97281235077243,
,,,,,,,,,,,,0,0,0,0,225,0,225,0,,,,,,,225,,,1,2433.838224563282,X,None,nogo,None,1,,2434.6379924179055,,,,,,,,,,,,,,,90,001,24,m,Psychologie,2023-02-01_12h23.34.428,00_bat_bachelor,2022.2.4,59.97281235077243,
,,,,,,,,,,,,0,0,0,0,226,0,226,0,,,,,,,226,,,1,2435.6379046605434,Y,l,go,l,1,0.6224434853065759,,,,,,,,,,,,,,,,90,001,24,m,Psychologie,2023-02-01_12h23.34.428,00_bat_bachelor,2022.2.4,59.97281235077243,
,,,,,,,,,,,,0,0,0,0,227,0,227,0,,,,,,,227,,,1,2437.3715329107363,X,d,go,d,1,0.505203299690038,,,,,,,,,,,,,,,,90,001,24,m,Psychologie,2023-02-01_12h23.34.428,00_bat_bachelor,2022.2.4,59.97281235077243,
,,,,,,,,,,,,0,0,0,0,228,0,228,0,,,,,,,228,,,1,2438.9880179453176,Y,l,go,l,1,0.5043431788217276,,,,,,,,,,,,,,,,90,001,24,m,Psychologie,2023-02-01_12h23.34.428,00_bat_bachelor,2022.2.4,59.97281235077243,
,,,,,,,,,,,,0,0,0,0,229,0,229,0,,,,,,,229,,,1,2440.6048607977573,X,d,go,None,0,,2441.4047091372777,,,,,,,,,,,,,,,90,001,24,m,Psychologie,2023-02-01_12h23.34.428,00_bat_bachelor,2022.2.4,59.97281235077243,
,,,,,,,,,,,,0,0,0,0,230,0,230,0,,,,,,,230,,,1,2442.40491180378,Y,l,go,l,1,0.5124377205502242,,,,,,,,,,,,,,,,90,001,24,m,Psychologie,2023-02-01_12h23.34.428,00_bat_bachelor,2022.2.4,59.97281235077243,
,,,,,,,,,,,,0,0,0,0,231,0,231,0,,,,,,,231,,,1,2444.021258656401,X,d,go,d,1,0.41458613122813404,,,,,,,,,,,,,,,,90,001,24,m,Psychologie,2023-02-01_12h23.34.428,00_bat_bachelor,2022.2.4,59.97281235077243,
,,,,,,,,,,,,0,0,0,0,232,0,232,0,,,,,,,232,,,1,2445.5381864057854,X,None,nogo,None,1,,2446.3382029875647,,,,,,,,,,,,,,,90,001,24,m,Psychologie,2023-02-01_12h23.34.428,00_bat_bachelor,2022.2.4,59.97281235077243,
,,,,,,,,,,,,0,0,0,0,233,0,233,0,,,,,,,233,,,1,2447.3381496542133,X,None,nogo,None,1,,2448.1382103573997,,,,,,,,,,,,,,,90,001,24,m,Psychologie,2023-02-01_12h23.34.428,00_bat_bachelor,2022.2.4,59.97281235077243,
,,,,,,,,,,,,0,0,0,0,234,0,234,0,,,,,,,234,,,1,2449.1381730239373,Y,l,go,l,1,0.5306272872257978,,,,,,,,,,,,,,,,90,001,24,m,Psychologie,2023-02-01_12h23.34.428,00_bat_bachelor,2022.2.4,59.97281235077243,
,,,,,,,,,,,,0,0,0,0,235,0,235,0,,,,,,,235,,,1,2450.77150314115,X,d,go,d,1,0.5459242495708168,,,,,,,,,,,,,,,,90,001,24,m,Psychologie,2023-02-01_12h23.34.428,00_bat_bachelor,2022.2.4,59.97281235077243,
,,,,,,,,,,,,0,0,0,0,236,0,236,0,,,,,,,236,,,1,2452.4213059775066,Y,l,go,l,1,0.5762922349385917,,,,,,,,,,,,,,,,90,001,24,m,Psychologie,2023-02-01_12h23.34.428,00_bat_bachelor,2022.2.4,59.97281235077243,
,,,,,,,,,,,,0,0,0,0,237,0,237,0,,,,,,,237,,,1,2454.1048120704945,X,d,go,d,1,0.5240614723879844,,,,,,,,,,,,,,,,90,001,24,m,Psychologie,2023-02-01_12h23.34.428,00_bat_bachelor,2022.2.4,59.97281235077243,
,,,,,,,,,,,,0,0,0,0,238,0,238,0,,,,,,,238,,,1,2455.73839188437,Y,l,go,l,1,0.4577201711945236,,,,,,,,,,,,,,,,90,001,24,m,Psychologie,2023-02-01_12h23.34.428,00_bat_bachelor,2022.2.4,59.97281235077243,
,,,,,,,,,,,,0,0,0,0,239,0,239,0,,,,,,,239,,,1,2457.3048546400387,X,d,go,d,1,0.4918947000987828,,,,,,,,,,,,,,,,90,001,24,m,Psychologie,2023-02-01_12h23.34.428,00_bat_bachelor,2022.2.4,59.97281235077243,
,,,,,,,,,,,,0,0,0,0,240,0,240,0,,,,,,,240,,,1,2458.904720531078,Y,l,go,l,1,0.41128237545490265,,,,,,,,,,,,,,,,90,001,24,m,Psychologie,2023-02-01_12h23.34.428,00_bat_bachelor,2022.2.4,59.97281235077243,
,,,,,,,,,,,,0,0,0,0,241,0,241,0,,,,,,,241,,,1,2460.438173363451,Y,None,nogo,None,1,,2461.238211278571,,,,,,,,,,,,,,,90,001,24,m,Psychologie,2023-02-01_12h23.34.428,00_bat_bachelor,2022.2.4,59.97281235077243,
,,,,,,,,,,,,0,0,0,0,242,0,242,0,,,,,,,242,,,1,2462.2381729756016,X,d,go,d,1,0.42236843053251505,,,,,,,,,,,,,,,,90,001,24,m,Psychologie,2023-02-01_12h23.34.428,00_bat_bachelor,2022.2.4,59.97281235077243,
,,,,,,,,,,,,0,0,0,0,243,0,243,0,,,,,,,243,,,1,2463.7715627774596,Y,l,go,l,1,0.48937445878982544,,,,,,,,,,,,,,,,90,001,24,m,Psychologie,2023-02-01_12h23.34.428,00_bat_bachelor,2022.2.4,59.97281235077243,
,,,,,,,,,,,,0,0,0,0,244,0,244,0,,,,,,,244,,,1,2465.371591577539,X,d,go,d,1,0.42457303567789495,,,,,,,,,,,,,,,,90,001,24,m,Psychologie,2023-02-01_12h23.34.428,00_bat_bachelor,2022.2.4,59.97281235077243,
,,,,,,,,,,,,0,0,0,0,245,0,245,0,,,,,,,245,,,1,2466.9049600460567,X,None,nogo,None,1,,2467.704828749178,,,,,,,,,,,,,,,90,001,24,m,Psychologie,2023-02-01_12h23.34.428,00_bat_bachelor,2022.2.4,59.97281235077243,
,,,,,,,,,,,,0,0,0,0,246,0,246,0,,,,,,,246,,,1,2468.704837476602,Y,l,go,l,1,0.3563267656136304,,,,,,,,,,,,,,,,90,001,24,m,Psychologie,2023-02-01_12h23.34.428,00_bat_bachelor,2022.2.4,59.97281235077243,
,,,,,,,,,,,,0,0,0,0,247,0,247,0,,,,,,,247,,,1,2470.171495674411,X,d,go,d,1,0.5049977239686996,,,,,,,,,,,,,,,,90,001,24,m,Psychologie,2023-02-01_12h23.34.428,00_bat_bachelor,2022.2.4,59.97281235077243,
,,,,,,,,,,,,0,0,0,0,248,0,248,0,,,,,,,248,,,1,2471.78815186047,X,None,nogo,None,1,,2472.588159230072,,,,,,,,,,,,,,,90,001,24,m,Psychologie,2023-02-01_12h23.34.428,00_bat_bachelor,2022.2.4,59.97281235077243,
,,,,,,,,,,,,0,0,0,0,249,0,249,0,,,,,,,249,,,1,2473.5881611695513,Y,l,go,l,1,0.41615849430672824,,,,,,,,,,,,,,,,90,001,24,m,Psychologie,2023-02-01_12h23.34.428,00_bat_bachelor,2022.2.4,59.97281235077243,
,,,,,,,,,,,,1,0,1,0,0,0,0,0,,,,,,,0,,,0.2,2509.505168724805,X,d,go,None,0,,2510.3051809431054,,,,,,,,2474.111096188659,space,35.17640297417529,,,,,90,001,24,m,Psychologie,2023-02-01_12h23.34.428,00_bat_bachelor,2022.2.4,59.97281235077243,
,,,,,,,,,,,,1,0,1,0,1,0,1,0,,,,,,,1,,,0.2,2510.5049272703473,Y,l,go,l,1,0.6509714713320136,,,,,,,,,,,,,,,,90,001,24,m,Psychologie,2023-02-01_12h23.34.428,00_bat_bachelor,2022.2.4,59.97281235077243,
,,,,,,,,,,,,1,0,1,0,2,0,2,0,,,,,,,2,,,0.2,2511.4715721351095,X,d,go,d,1,0.43628793908283114,,,,,,,,,,,,,,,,90,001,24,m,Psychologie,2023-02-01_12h23.34.428,00_bat_bachelor,2022.2.4,59.97281235077243,
,,,,,,,,,,,,1,0,1,0,3,0,3,0,,,,,,,3,,,0.2,2512.2383795208298,X,None,nogo,d,0,0.5017696043942124,,,,,,,,,,,,,,,,90,001,24,m,Psychologie,2023-02-01_12h23.34.428,00_bat_bachelor,2022.2.4,59.97281235077243,
,,,,,,,,,,,,1,0,1,0,4,0,4,0,,,,,,,4,,,0.2,2513.0549357309937,Y,l,go,l,1,0.3405895612668246,,,,,,,,,,,,,,,,90,001,24,m,Psychologie,2023-02-01_12h23.34.428,00_bat_bachelor,2022.2.4,59.97281235077243,
,,,,,,,,,,,,1,0,1,0,5,0,5,0,,,,,,,5,,,0.2,2513.7215788017493,X,d,go,d,1,0.5229613517876714,,,,,,,,,,,,,,,,90,001,24,m,Psychologie,2023-02-01_12h23.34.428,00_bat_bachelor,2022.2.4,59.97281235077243,
,,,,,,,,,,,,1,0,1,0,6,0,6,0,,,,,,,6,,,0.2,2514.5550140340347,Y,l,go,l,1,0.6492347449529916,,,,,,,,,,,,,,,,90,001,24,m,Psychologie,2023-02-01_12h23.34.428,00_bat_bachelor,2022.2.4,59.97281235077243,
,,,,,,,,,,,,1,0,1,0,7,0,7,0,,,,,,,7,,,0.2,2515.504955876386,X,d,go,d,1,0.4674665906932205,,,,,,,,,,,,,,,,90,001,24,m,Psychologie,2023-02-01_12h23.34.428,00_bat_bachelor,2022.2.4,59.97281235077243,
,,,,,,,,,,,,1,0,1,0,8,0,8,0,,,,,,,8,,,0.2,2516.2884885873646,Y,l,go,l,1,0.48446003696881235,,,,,,,,,,,,,,,,90,001,24,m,Psychologie,2023-02-01_12h23.34.428,00_bat_bachelor,2022.2.4,59.97281235077243,
,,,,,,,,,,,,1,0,1,0,9,0,9,0,,,,,,,9,,,0.2,2517.088270017877,X,d,go,d,1,0.5001477869227529,,,,,,,,,,,,,,,,90,001,24,m,Psychologie,2023-02-01_12h23.34.428,00_bat_bachelor,2022.2.4,59.97281235077243,
,,,,,,,,,,,,1,0,1,0,10,0,10,0,,,,,,,10,,,0.2,2517.8884824784473,Y,l,go,l,1,0.5637933318503201,,,,,,,,,,,,,,,,90,001,24,m,Psychologie,2023-02-01_12h23.34.428,00_bat_bachelor,2022.2.4,59.97281235077243,
,,,,,,,,,,,,1,0,1,0,11,0,11,0,,,,,,,11,,,0.2,2518.7549402401783,X,d,go,None,0,,2519.5547197312117,,,,,,,,,,,,,,,90,001,24,m,Psychologie,2023-02-01_12h23.34.428,00_bat_bachelor,2022.2.4,59.97281235077243,
,,,,,,,,,,,,1,0,1,0,12,0,12,0,,,,,,,12,,,0.2,2519.754685209831,Y,l,go,l,1,0.5688886020798236,,,,,,,,,,,,,,,,90,001,24,m,Psychologie,2023-02-01_12h23.34.428,00_bat_bachelor,2022.2.4,59.97281235077243,
,,,,,,,,,,,,1,0,1,0,13,0,13,0,,,,,,,13,,,0.2,2520.6381335088518,X,d,go,d,1,0.4540411427151412,,,,,,,,,,,,,,,,90,001,24,m,Psychologie,2023-02-01_12h23.34.428,00_bat_bachelor,2022.2.4,59.97281235077243,
,,,,,,,,,,,,1,0,1,0,14,0,14,0,,,,,,,14,,,0.2,2521.4050853794906,Y,l,go,l,1,0.5196396561805159,,,,,,,,,,,,,,,,90,001,24,m,Psychologie,2023-02-01_12h23.34.428,00_bat_bachelor,2022.2.4,59.97281235077243,
,,,,,,,,,,,,1,0,1,0,15,0,15,0,,,,,,,15,,,0.2,2522.2380852180067,X,d,go,d,1,0.4215732794255018,,,,,,,,,,,,,,,,90,001,24,m,Psychologie,2023-02-01_12h23.34.428,00_bat_bachelor,2022.2.4,59.97281235077243,
,,,,,,,,,,,,1,0,1,0,16,0,16,0,,,,,,,16,,,0.2,2522.9716431652196,Y,l,go,l,1,0.5209031708072871,,,,,,,,,,,,,,,,90,001,24,m,Psychologie,2023-02-01_12h23.34.428,00_bat_bachelor,2022.2.4,59.97281235077243,
,,,,,,,,,,,,1,0,1,0,17,0,17,0,,,,,,,17,,,0.2,2523.804937791545,X,d,go,d,1,0.44004163425415754,,,,,,,,,,,,,,,,90,001,24,m,Psychologie,2023-02-01_12h23.34.428,00_bat_bachelor,2022.2.4,59.97281235077243,
,,,,,,,,,,,,1,0,1,0,18,0,18,0,,,,,,,18,,,0.2,2524.554920943221,X,None,nogo,None,1,,2525.3547314645257,,,,,,,,,,,,,,,90,001,24,m,Psychologie,2023-02-01_12h23.34.428,00_bat_bachelor,2022.2.4,59.97281235077243,
,,,,,,,,,,,,1,0,1,0,19,0,19,0,,,,,,,19,,,0.2,2525.555015973281,Y,l,go,l,1,0.4167776454705745,,,,,,,,,,,,,,,,90,001,24,m,Psychologie,2023-02-01_12h23.34.428,00_bat_bachelor,2022.2.4,59.97281235077243,
,,,,,,,,,,,,1,0,1,0,20,0,20,0,,,,,,,20,,,0.2,2526.271581444191,X,d,go,d,1,0.5814990201033652,,,,,,,,,,,,,,,,90,001,24,m,Psychologie,2023-02-01_12h23.34.428,00_bat_bachelor,2022.2.4,59.97281235077243,
,,,,,,,,,,,,1,0,1,0,21,0,21,0,,,,,,,21,,,0.2,2527.154857621994,X,None,nogo,d,0,0.5136542045511305,,,,,,,,,,,,,,,,90,001,24,m,Psychologie,2023-02-01_12h23.34.428,00_bat_bachelor,2022.2.4,59.97281235077243,
,,,,,,,,,,,,1,0,1,0,22,0,22,0,,,,,,,22,,,0.2,2527.9715791654307,Y,l,go,l,1,0.5921302877832204,,,,,,,,,,,,,,,,90,001,24,m,Psychologie,2023-02-01_12h23.34.428,00_bat_bachelor,2022.2.4,59.97281235077243,
,,,,,,,,,,,,1,0,1,0,23,0,23,0,,,,,,,23,,,0.2,2528.871664062375,X,d,go,d,1,0.49308063881471753,,,,,,,,,,,,,,,,90,001,24,m,Psychologie,2023-02-01_12h23.34.428,00_bat_bachelor,2022.2.4,59.97281235077243,
,,,,,,,,,,,,1,0,1,0,24,0,24,0,,,,,,,24,,,0.2,2529.6716040379833,Y,l,go,None,0,,2530.4715866805054,,,,,,,,,,,,,,,90,001,24,m,Psychologie,2023-02-01_12h23.34.428,00_bat_bachelor,2022.2.4,59.97281235077243,
,,,,,,,,,,,,1,0,1,0,25,0,25,0,,,,,,,25,,,0.2,2530.6715914320666,X,d,go,d,1,0.5814907778985798,,,,,,,,,,,,,,,,90,001,24,m,Psychologie,2023-02-01_12h23.34.428,00_bat_bachelor,2022.2.4,59.97281235077243,
,,,,,,,,,,,,1,0,1,0,26,0,26,0,,,,,,,26,,,0.2,2531.5547270039096,X,None,nogo,None,1,,2532.354789161356,,,,,,,,,,,,,,,90,001,24,m,Psychologie,2023-02-01_12h23.34.428,00_bat_bachelor,2022.2.4,59.97281235077243,
,,,,,,,,,,,,1,0,1,0,27,0,27,0,,,,,,,27,,,0.2,2532.5550853067543,Y,l,go,l,1,0.45766198937781155,,,,,,,,,,,,,,,,90,001,24,m,Psychologie,2023-02-01_12h23.34.428,00_bat_bachelor,2022.2.4,59.97281235077243,
,,,,,,,,,,,,1,0,1,0,28,0,28,0,,,,,,,28,,,0.2,2533.321562025929,X,d,go,d,1,0.5861331997439265,,,,,,,,,,,,,,,,90,001,24,m,Psychologie,2023-02-01_12h23.34.428,00_bat_bachelor,2022.2.4,59.97281235077243,
,,,,,,,,,,,,1,0,1,0,29,0,29,0,,,,,,,29,,,0.2,2534.2215814683586,X,None,nogo,None,1,,2535.0215898077004,,,,,,,,,,,,,,,90,001,24,m,Psychologie,2023-02-01_12h23.34.428,00_bat_bachelor,2022.2.4,59.97281235077243,
,,,,,,,,,,,,1,0,1,0,30,0,30,0,,,,,,,30,,,0.2,2535.2215756501537,Y,l,go,l,1,0.3657095490489155,,,,,,,,,,,,,,,,90,001,24,m,Psychologie,2023-02-01_12h23.34.428,00_bat_bachelor,2022.2.4,59.97281235077243,
,,,,,,,,,,,,1,0,1,0,31,0,31,0,,,,,,,31,,,0.2,2535.905178712681,X,d,go,None,0,,2536.705077476334,,,,,,,,,,,,,,,90,001,24,m,Psychologie,2023-02-01_12h23.34.428,00_bat_bachelor,2022.2.4,59.97281235077243,
,,,,,,,,,,,,1,0,1,0,32,0,32,0,,,,,,,32,,,0.2,2536.9049091371708,X,None,nogo,d,0,0.5402956460602582,,,,,,,,,,,,,,,,90,001,24,m,Psychologie,2023-02-01_12h23.34.428,00_bat_bachelor,2022.2.4,59.97281235077243,
,,,,,,,,,,,,1,0,1,0,33,0,33,0,,,,,,,33,,,0.2,2537.7549169673584,Y,l,go,l,1,0.5215320189017802,,,,,,,,,,,,,,,,90,001,24,m,Psychologie,2023-02-01_12h23.34.428,00_bat_bachelor,2022.2.4,59.97281235077243,
,,,,,,,,,,,,1,0,1,0,34,0,34,0,,,,,,,34,,,0.2,2538.5882605633233,X,d,go,d,1,0.5362587997224182,,,,,,,,,,,,,,,,90,001,24,m,Psychologie,2023-02-01_12h23.34.428,00_bat_bachelor,2022.2.4,59.97281235077243,
,,,,,,,,,,,,1,0,1,0,35,0,35,0,,,,,,,35,,,0.2,2539.4384565148503,X,None,nogo,None,1,,2540.238248127047,,,,,,,,,,,,,,,90,001,24,m,Psychologie,2023-02-01_12h23.34.428,00_bat_bachelor,2022.2.4,59.97281235077243,
,,,,,,,,,,,,1,0,1,0,36,0,36,0,,,,,,,36,,,0.2,2540.4382819694,Y,l,go,l,1,0.4303296389989555,,,,,,,,,,,,,,,,90,001,24,m,Psychologie,2023-02-01_12h23.34.428,00_bat_bachelor,2022.2.4,59.97281235077243,
,,,,,,,,,,,,1,0,1,0,37,0,37,0,,,,,,,37,,,0.2,2541.1715960381553,X,d,go,d,1,0.5449341894127429,,,,,,,,,,,,,,,,90,001,24,m,Psychologie,2023-02-01_12h23.34.428,00_bat_bachelor,2022.2.4,59.97281235077243,
,,,,,,,,,,,,1,0,1,0,38,0,38,0,,,,,,,38,,,0.2,2542.021474898793,X,None,nogo,None,1,,2542.8216471169144,,,,,,,,,,,,,,,90,001,24,m,Psychologie,2023-02-01_12h23.34.428,00_bat_bachelor,2022.2.4,59.97281235077243,
,,,,,,,,,,,,1,0,1,0,39,0,39,0,,,,,,,39,,,0.2,2543.0215786562767,Y,l,go,l,1,0.4233167937491089,,,,,,,,,,,,,,,,90,001,24,m,Psychologie,2023-02-01_12h23.34.428,00_bat_bachelor,2022.2.4,59.97281235077243,
,,,,,,,,,,,,1,0,1,0,40,0,40,0,,,,,,,40,,,0.2,2543.7549892098177,X,d,go,d,1,0.6336968131363392,,,,,,,,,,,,,,,,90,001,24,m,Psychologie,2023-02-01_12h23.34.428,00_bat_bachelor,2022.2.4,59.97281235077243,
,,,,,,,,,,,,1,0,1,0,41,0,41,0,,,,,,,41,,,0.2,2544.688353120815,X,None,nogo,d,0,0.627785058459267,,,,,,,,,,,,,,,,90,001,24,m,Psychologie,2023-02-01_12h23.34.428,00_bat_bachelor,2022.2.4,59.97281235077243,
,,,,,,,,,,,,1,0,1,0,42,0,42,0,,,,,,,42,,,0.2,2545.6215318199247,Y,l,go,None,0,,2546.4213355532847,,,,,,,,,,,,,,,90,001,24,m,Psychologie,2023-02-01_12h23.34.428,00_bat_bachelor,2022.2.4,59.97281235077243,
,,,,,,,,,,,,1,0,1,0,43,0,43,0,,,,,,,43,,,0.2,2546.6213451533113,X,d,go,d,1,0.5346563761122525,,,,,,,,,,,,,,,,90,001,24,m,Psychologie,2023-02-01_12h23.34.428,00_bat_bachelor,2022.2.4,59.97281235077243,
,,,,,,,,,,,,1,0,1,0,44,0,44,0,,,,,,,44,,,0.2,2547.471789347008,Y,l,go,l,1,0.5968517400324345,,,,,,,,,,,,,,,,90,001,24,m,Psychologie,2023-02-01_12h23.34.428,00_bat_bachelor,2022.2.4,59.97281235077243,
,,,,,,,,,,,,1,0,1,0,45,0,45,0,,,,,,,45,,,0.2,2548.371660426026,X,d,go,None,0,,2549.171575189568,,,,,,,,,,,,,,,90,001,24,m,Psychologie,2023-02-01_12h23.34.428,00_bat_bachelor,2022.2.4,59.97281235077243,
,,,,,,,,,,,,1,0,1,0,46,0,46,0,,,,,,,46,,,0.2,2549.3715624865144,Y,l,go,l,1,0.5363838905468583,,,,,,,,,,,,,,,,90,001,24,m,Psychologie,2023-02-01_12h23.34.428,00_bat_bachelor,2022.2.4,59.97281235077243,
,,,,,,,,,,,,1,0,1,0,47,0,47,0,,,,,,,47,,,0.2,2550.221573225921,X,d,go,d,1,0.5823484743013978,,,,,,,,,,,,,,,,90,001,24,m,Psychologie,2023-02-01_12h23.34.428,00_bat_bachelor,2022.2.4,59.97281235077243,
,,,,,,,,,,,,1,0,1,0,48,0,48,0,,,,,,,48,,,0.2,2551.105010373285,Y,l,go,l,1,0.6438063839450479,,,,,,,,,,,,,,,,90,001,24,m,Psychologie,2023-02-01_12h23.34.428,00_bat_bachelor,2022.2.4,59.97281235077243,
,,,,,,,,,,,,1,0,1,0,49,0,49,0,,,,,,,49,,,0.2,2552.0549090644345,Y,None,nogo,None,1,,2552.8549077068456,,,,,,,,,,,,,,,90,001,24,m,Psychologie,2023-02-01_12h23.34.428,00_bat_bachelor,2022.2.4,59.97281235077243,
,,,,,,,,,,,,1,0,1,0,50,0,50,0,,,,,,,50,,,0.2,2553.0550045794807,X,d,go,d,1,0.42087461333721876,,,,,,,,,,,,,,,,90,001,24,m,Psychologie,2023-02-01_12h23.34.428,00_bat_bachelor,2022.2.4,59.97281235077243,
,,,,,,,,,,,,1,0,1,0,51,0,51,0,,,,,,,51,,,0.2,2553.7882226482034,Y,l,go,l,1,0.5685147840995342,,,,,,,,,,,,,,,,90,001,24,m,Psychologie,2023-02-01_12h23.34.428,00_bat_bachelor,2022.2.4,59.97281235077243,
,,,,,,,,,,,,1,0,1,0,52,0,52,0,,,,,,,52,,,0.2,2554.671581735136,X,d,go,d,1,0.5001555446069688,,,,,,,,,,,,,,,,90,001,24,m,Psychologie,2023-02-01_12h23.34.428,00_bat_bachelor,2022.2.4,59.97281235077243,
,,,,,,,,,,,,1,0,1,0,53,0,53,0,,,,,,,53,,,0.2,2555.4715813472867,Y,l,go,l,1,0.5813952626194805,,,,,,,,,,,,,,,,90,001,24,m,Psychologie,2023-02-01_12h23.34.428,00_bat_bachelor,2022.2.4,59.97281235077243,
,,,,,,,,,,,,1,0,1,0,54,0,54,0,,,,,,,54,,,0.2,2556.354901646264,X,d,go,d,1,0.6259596045129001,,,,,,,,,,,,,,,,90,001,24,m,Psychologie,2023-02-01_12h23.34.428,00_bat_bachelor,2022.2.4,59.97281235077243,
,,,,,,,,,,,,1,0,1,0,55,0,55,0,,,,,,,55,,,0.2,2557.2882456784137,Y,l,go,l,1,0.6038485851604491,,,,,,,,,,,,,,,,90,001,24,m,Psychologie,2023-02-01_12h23.34.428,00_bat_bachelor,2022.2.4,59.97281235077243,
,,,,,,,,,,,,1,0,1,0,56,0,56,0,,,,,,,56,,,0.2,2558.2049855976366,X,d,go,d,1,0.5350718912668526,,,,,,,,,,,,,,,,90,001,24,m,Psychologie,2023-02-01_12h23.34.428,00_bat_bachelor,2022.2.4,59.97281235077243,
,,,,,,,,,,,,1,0,1,0,57,0,57,0,,,,,,,57,,,0.2,2559.0547965795267,Y,l,go,l,1,0.5821753835771233,,,,,,,,,,,,,,,,90,001,24,m,Psychologie,2023-02-01_12h23.34.428,00_bat_bachelor,2022.2.4,59.97281235077243,
,,,,,,,,,,,,1,0,1,0,58,0,58,0,,,,,,,58,,,0.2,2559.9382390603423,X,d,go,d,1,0.5140619620215148,,,,,,,,,,,,,,,,90,001,24,m,Psychologie,2023-02-01_12h23.34.428,00_bat_bachelor,2022.2.4,59.97281235077243,
,,,,,,,,,,,,1,0,1,0,59,0,59,0,,,,,,,59,,,0.2,2560.754897088511,Y,l,go,l,1,0.5464052192401141,,,,,,,,,,,,,,,,90,001,24,m,Psychologie,2023-02-01_12h23.34.428,00_bat_bachelor,2022.2.4,59.97281235077243,
,,,,,,,,,,,,1,0,1,0,60,0,60,0,,,,,,,60,,,0.2,2561.604881161358,X,d,go,d,1,0.5434505539014935,,,,,,,,,,,,,,,,90,001,24,m,Psychologie,2023-02-01_12h23.34.428,00_bat_bachelor,2022.2.4,59.97281235077243,
,,,,,,,,,,,,1,0,1,0,61,0,61,0,,,,,,,61,,,0.2,2562.4549942037556,Y,l,go,l,1,0.5249700779095292,,,,,,,,,,,,,,,,90,001,24,m,Psychologie,2023-02-01_12h23.34.428,00_bat_bachelor,2022.2.4,59.97281235077243,
,,,,,,,,,,,,1,0,1,0,62,0,62,0,,,,,,,62,,,0.2,2563.2881521028467,X,d,go,d,1,0.5881302896887064,,,,,,,,,,,,,,,,90,001,24,m,Psychologie,2023-02-01_12h23.34.428,00_bat_bachelor,2022.2.4,59.97281235077243,
,,,,,,,,,,,,1,0,1,0,63,0,63,0,,,,,,,63,,,0.2,2564.1882539694197,X,None,nogo,None,1,,2564.9882215815596,,,,,,,,,,,,,,,90,001,24,m,Psychologie,2023-02-01_12h23.34.428,00_bat_bachelor,2022.2.4,59.97281235077243,
,,,,,,,,,,,,1,0,1,0,64,0,64,0,,,,,,,64,,,0.2,2565.1880445149727,X,None,nogo,None,1,,2565.988421339076,,,,,,,,,,,,,,,90,001,24,m,Psychologie,2023-02-01_12h23.34.428,00_bat_bachelor,2022.2.4,59.97281235077243,
,,,,,,,,,,,,1,0,1,0,65,0,65,0,,,,,,,65,,,0.2,2566.1882917876355,Y,l,go,l,1,0.5361909209750593,,,,,,,,,,,,,,,,90,001,24,m,Psychologie,2023-02-01_12h23.34.428,00_bat_bachelor,2022.2.4,59.97281235077243,
,,,,,,,,,,,,1,0,1,0,66,0,66,0,,,,,,,66,,,0.2,2567.038343254244,X,d,go,d,1,0.5505618231836706,,,,,,,,,,,,,,,,90,001,24,m,Psychologie,2023-02-01_12h23.34.428,00_bat_bachelor,2022.2.4,59.97281235077243,
,,,,,,,,,,,,1,0,1,0,67,0,67,0,,,,,,,67,,,0.2,2567.904906712938,Y,l,go,None,0,,2568.705052749021,,,,,,,,,,,,,,,90,001,24,m,Psychologie,2023-02-01_12h23.34.428,00_bat_bachelor,2022.2.4,59.97281235077243,
,,,,,,,,,,,,1,0,1,0,68,0,68,0,,,,,,,68,,,0.2,2568.9047932582907,X,d,go,d,1,0.5079242680221796,,,,,,,,,,,,,,,,90,001,24,m,Psychologie,2023-02-01_12h23.34.428,00_bat_bachelor,2022.2.4,59.97281235077243,
,,,,,,,,,,,,1,0,1,0,69,0,69,0,,,,,,,69,,,0.2,2569.72137758974,Y,l,go,l,1,0.4591984732542187,,,,,,,,,,,,,,,,90,001,24,m,Psychologie,2023-02-01_12h23.34.428,00_bat_bachelor,2022.2.4,59.97281235077243,
,,,,,,,,,,,,1,0,1,0,70,0,70,0,,,,,,,70,,,0.2,2570.4883115207776,X,d,go,d,1,0.5729913879185915,,,,,,,,,,,,,,,,90,001,24,m,Psychologie,2023-02-01_12h23.34.428,00_bat_bachelor,2022.2.4,59.97281235077243,
,,,,,,,,,,,,1,0,1,0,71,0,71,0,,,,,,,71,,,0.2,2571.371311335126,X,None,nogo,None,1,,2572.17139337142,,,,,,,,,,,,,,,90,001,24,m,Psychologie,2023-02-01_12h23.34.428,00_bat_bachelor,2022.2.4,59.97281235077243,
,,,,,,,,,,,,1,0,1,0,72,0,72,0,,,,,,,72,,,0.2,2572.3715770321433,Y,l,go,l,1,0.4323189714923501,,,,,,,,,,,,,,,,90,001,24,m,Psychologie,2023-02-01_12h23.34.428,00_bat_bachelor,2022.2.4,59.97281235077243,
,,,,,,,,,,,,1,0,1,0,73,0,73,0,,,,,,,73,,,0.2,2573.104959464399,X,d,go,d,1,0.644107959466055,,,,,,,,,,,,,,,,90,001,24,m,Psychologie,2023-02-01_12h23.34.428,00_bat_bachelor,2022.2.4,59.97281235077243,
,,,,,,,,,,,,1,0,1,0,74,0,74,0,,,,,,,74,,,0.2,2574.05470203422,Y,l,go,l,1,0.525147047592327,,,,,,,,,,,,,,,,90,001,24,m,Psychologie,2023-02-01_12h23.34.428,00_bat_bachelor,2022.2.4,59.97281235077243,
,,,,,,,,,,,,1,0,1,0,75,0,75,0,,,,,,,75,,,0.2,2574.888228902826,Y,None,nogo,None,1,,2575.6882416058797,,,,,,,,,,,,,,,90,001,24,m,Psychologie,2023-02-01_12h23.34.428,00_bat_bachelor,2022.2.4,59.97281235077243,
,,,,,,,,,,,,1,0,1,0,76,0,76,0,,,,,,,76,,,0.2,2575.8883447814733,X,d,go,d,1,0.4677570147905499,,,,,,,,,,,,,,,,90,001,24,m,Psychologie,2023-02-01_12h23.34.428,00_bat_bachelor,2022.2.4,59.97281235077243,
,,,,,,,,,,,,1,0,1,0,77,0,77,0,,,,,,,77,,,0.2,2576.671558462316,Y,l,go,l,1,0.6134558531921357,,,,,,,,,,,,,,,,90,001,24,m,Psychologie,2023-02-01_12h23.34.428,00_bat_bachelor,2022.2.4,59.97281235077243,
,,,,,,,,,,,,1,0,1,0,78,0,78,0,,,,,,,78,,,0.2,2577.5879711089656,Y,None,nogo,l,0,0.5762117500416934,,,,,,,,,,,,,,,,90,001,24,m,Psychologie,2023-02-01_12h23.34.428,00_bat_bachelor,2022.2.4,59.97281235077243,
,,,,,,,,,,,,1,0,1,0,79,0,79,0,,,,,,,79,,,0.2,2578.4713054685853,Y,None,nogo,None,1,,2579.2714199896436,,,,,,,,,,,,,,,90,001,24,m,Psychologie,2023-02-01_12h23.34.428,00_bat_bachelor,2022.2.4,59.97281235077243,
,,,,,,,,,,,,1,0,1,0,80,0,80,0,,,,,,,80,,,0.2,2579.471531892661,X,d,go,d,1,0.5646990283858031,,,,,,,,,,,,,,,,90,001,24,m,Psychologie,2023-02-01_12h23.34.428,00_bat_bachelor,2022.2.4,59.97281235077243,
,,,,,,,,,,,,1,0,1,0,81,0,81,0,,,,,,,81,,,0.2,2580.3380609271117,Y,l,go,l,1,0.5295111665036529,,,,,,,,,,,,,,,,90,001,24,m,Psychologie,2023-02-01_12h23.34.428,00_bat_bachelor,2022.2.4,59.97281235077243,
,,,,,,,,,,,,1,0,1,0,82,0,82,0,,,,,,,82,,,0.2,2581.1715674321167,Y,None,nogo,None,1,,2581.971420135116,,,,,,,,,,,,,,,90,001,24,m,Psychologie,2023-02-01_12h23.34.428,00_bat_bachelor,2022.2.4,59.97281235077243,
,,,,,,,,,,,,1,0,1,0,83,0,83,0,,,,,,,83,,,0.2,2582.171371553326,X,d,go,d,1,0.5846733218058944,,,,,,,,,,,,,,,,90,001,24,m,Psychologie,2023-02-01_12h23.34.428,00_bat_bachelor,2022.2.4,59.97281235077243,
,,,,,,,,,,,,1,0,1,0,84,0,84,0,,,,,,,84,,,0.2,2583.0715548745357,Y,l,go,l,1,0.580482778372243,,,,,,,,,,,,,,,,90,001,24,m,Psychologie,2023-02-01_12h23.34.428,00_bat_bachelor,2022.2.4,59.97281235077243,
,,,,,,,,,,,,1,0,1,0,85,0,85,0,,,,,,,85,,,0.2,2583.954912021989,Y,None,nogo,None,1,,2584.7548684824724,,,,,,,,,,,,,,,90,001,24,m,Psychologie,2023-02-01_12h23.34.428,00_bat_bachelor,2022.2.4,59.97281235077243,
,,,,,,,,,,,,1,0,1,0,86,0,86,0,,,,,,,86,,,0.2,2584.9549760220107,X,d,go,d,1,0.45669762627221644,,,,,,,,,,,,,,,,90,001,24,m,Psychologie,2023-02-01_12h23.34.428,00_bat_bachelor,2022.2.4,59.97281235077243,
,,,,,,,,,,,,1,0,1,0,87,0,87,0,,,,,,,87,,,0.2,2585.7215657108463,Y,l,go,l,1,0.6345263882540166,,,,,,,,,,,,,,,,90,001,24,m,Psychologie,2023-02-01_12h23.34.428,00_bat_bachelor,2022.2.4,59.97281235077243,
,,,,,,,,,,,,1,0,1,0,88,0,88,0,,,,,,,88,,,0.2,2586.6713645230047,X,d,go,d,1,0.5812677475623786,,,,,,,,,,,,,,,,90,001,24,m,Psychologie,2023-02-01_12h23.34.428,00_bat_bachelor,2022.2.4,59.97281235077243,
,,,,,,,,,,,,1,0,1,0,89,0,89,0,,,,,,,89,,,0.2,2587.5548894279636,Y,l,go,l,1,0.5459640072658658,,,,,,,,,,,,,,,,90,001,24,m,Psychologie,2023-02-01_12h23.34.428,00_bat_bachelor,2022.2.4,59.97281235077243,
,,,,,,,,,,,,1,0,1,0,90,0,90,0,,,,,,,90,,,0.2,2588.4051071975846,Y,None,nogo,None,1,,2589.204772264464,,,,,,,,,,,,,,,90,001,24,m,Psychologie,2023-02-01_12h23.34.428,00_bat_bachelor,2022.2.4,59.97281235077243,
,,,,,,,,,,,,1,0,1,0,91,0,91,0,,,,,,,91,,,0.2,2589.4049535007216,X,d,go,d,1,0.42311994545161724,,,,,,,,,,,,,,,,90,001,24,m,Psychologie,2023-02-01_12h23.34.428,00_bat_bachelor,2022.2.4,59.97281235077243,
,,,,,,,,,,,,1,0,1,0,92,0,92,0,,,,,,,92,,,0.2,2590.1382219935767,Y,l,go,l,1,0.5863334420137107,,,,,,,,,,,,,,,,90,001,24,m,Psychologie,2023-02-01_12h23.34.428,00_bat_bachelor,2022.2.4,59.97281235077243,
,,,,,,,,,,,,1,0,1,0,93,0,93,0,,,,,,,93,,,0.2,2591.0383674965706,X,d,go,d,1,0.5174263240769506,,,,,,,,,,,,,,,,90,001,24,m,Psychologie,2023-02-01_12h23.34.428,00_bat_bachelor,2022.2.4,59.97281235077243,
,,,,,,,,,,,,1,0,1,0,94,0,94,0,,,,,,,94,,,0.2,2591.871525880648,Y,l,go,l,1,0.5169157786294818,,,,,,,,,,,,,,,,90,001,24,m,Psychologie,2023-02-01_12h23.34.428,00_bat_bachelor,2022.2.4,59.97281235077243,
,,,,,,,,,,,,1,0,1,0,95,0,95,0,,,,,,,95,,,0.2,2592.6880840300582,X,d,go,d,1,0.5321157714352012,,,,,,,,,,,,,,,,90,001,24,m,Psychologie,2023-02-01_12h23.34.428,00_bat_bachelor,2022.2.4,59.97281235077243,
,,,,,,,,,,,,1,0,1,0,96,0,96,0,,,,,,,96,,,0.2,2593.521764110774,Y,l,go,l,1,0.5470587944146246,,,,,,,,,,,,,,,,90,001,24,m,Psychologie,2023-02-01_12h23.34.428,00_bat_bachelor,2022.2.4,59.97281235077243,
,,,,,,,,,,,,1,0,1,0,97,0,97,0,,,,,,,97,,,0.2,2594.371443213895,X,d,go,d,1,0.5298418332822621,,,,,,,,,,,,,,,,90,001,24,m,Psychologie,2023-02-01_12h23.34.428,00_bat_bachelor,2022.2.4,59.97281235077243,
,,,,,,,,,,,,1,0,1,0,98,0,98,0,,,,,,,98,,,0.2,2595.204920143122,Y,l,go,l,1,0.5282878945581615,,,,,,,,,,,,,,,,90,001,24,m,Psychologie,2023-02-01_12h23.34.428,00_bat_bachelor,2022.2.4,59.97281235077243,
,,,,,,,,,,,,1,0,1,0,99,0,99,0,,,,,,,99,,,0.2,2596.038314163219,X,d,go,d,1,0.5432187963742763,,,,,,,,,,,,,,,,90,001,24,m,Psychologie,2023-02-01_12h23.34.428,00_bat_bachelor,2022.2.4,59.97281235077243,
,,,,,,,,,,,,1,0,1,0,100,0,100,0,,,,,,,100,,,0.2,2596.8882240543608,X,None,nogo,None,1,,2597.688216878567,,,,,,,,,,,,,,,90,001,24,m,Psychologie,2023-02-01_12h23.34.428,00_bat_bachelor,2022.2.4,59.97281235077243,
,,,,,,,,,,,,1,0,1,0,101,0,101,0,,,,,,,101,,,0.2,2597.888067448279,Y,l,go,l,1,0.4515839316882193,,,,,,,,,,,,,,,,90,001,24,m,Psychologie,2023-02-01_12h23.34.428,00_bat_bachelor,2022.2.4,59.97281235077243,
,,,,,,,,,,,,1,0,1,0,102,0,102,0,,,,,,,102,,,0.2,2598.6549029552843,X,d,go,d,1,0.6609961937647313,,,,,,,,,,,,,,,,90,001,24,m,Psychologie,2023-02-01_12h23.34.428,00_bat_bachelor,2022.2.4,59.97281235077243,
,,,,,,,,,,,,1,0,1,0,103,0,103,0,,,,,,,103,,,0.2,2599.6214333956596,Y,l,go,l,1,0.5277749251108617,,,,,,,,,,,,,,,,90,001,24,m,Psychologie,2023-02-01_12h23.34.428,00_bat_bachelor,2022.2.4,59.97281235077243,
,,,,,,,,,,,,1,0,1,0,104,0,104,0,,,,,,,104,,,0.2,2600.4546994159464,X,d,go,d,1,0.6217574249021709,,,,,,,,,,,,,,,,90,001,24,m,Psychologie,2023-02-01_12h23.34.428,00_bat_bachelor,2022.2.4,59.97281235077243,
,,,,,,,,,,,,1,0,1,0,105,0,105,0,,,,,,,105,,,0.2,2601.388036175631,Y,l,go,l,1,0.5678563599940389,,,,,,,,,,,,,,,,90,001,24,m,Psychologie,2023-02-01_12h23.34.428,00_bat_bachelor,2022.2.4,59.97281235077243,
,,,,,,,,,,,,1,0,1,0,106,0,106,0,,,,,,,106,,,0.2,2602.271323989611,X,d,go,d,1,0.6289671184495091,,,,,,,,,,,,,,,,90,001,24,m,Psychologie,2023-02-01_12h23.34.428,00_bat_bachelor,2022.2.4,59.97281235077243,
,,,,,,,,,,,,1,0,1,0,107,0,107,0,,,,,,,107,,,0.2,2603.205143173225,Y,l,go,l,1,0.6078980378806591,,,,,,,,,,,,,,,,90,001,24,m,Psychologie,2023-02-01_12h23.34.428,00_bat_bachelor,2022.2.4,59.97281235077243,
,,,,,,,,,,,,1,0,1,0,108,0,108,0,,,,,,,108,,,0.2,2604.121553880628,X,d,go,d,1,0.5542083668988198,,,,,,,,,,,,,,,,90,001,24,m,Psychologie,2023-02-01_12h23.34.428,00_bat_bachelor,2022.2.4,59.97281235077243,
,,,,,,,,,,,,1,0,1,0,109,0,109,0,,,,,,,109,,,0.2,2604.9883180663455,Y,l,go,l,1,0.5202447467017919,,,,,,,,,,,,,,,,90,001,24,m,Psychologie,2023-02-01_12h23.34.428,00_bat_bachelor,2022.2.4,59.97281235077243,
,,,,,,,,,,,,1,0,1,0,110,0,110,0,,,,,,,110,,,0.2,2605.8212829958647,X,d,go,d,1,0.614970519207418,,,,,,,,,,,,,,,,90,001,24,m,Psychologie,2023-02-01_12h23.34.428,00_bat_bachelor,2022.2.4,59.97281235077243,
,,,,,,,,,,,,1,0,1,0,111,0,111,0,,,,,,,111,,,0.2,2606.738052975619,X,None,nogo,None,1,,2607.53838082985,,,,,,,,,,,,,,,90,001,24,m,Psychologie,2023-02-01_12h23.34.428,00_bat_bachelor,2022.2.4,59.97281235077243,
,,,,,,,,,,,,1,0,1,0,112,0,112,0,,,,,,,112,,,0.2,2607.738299763296,Y,l,go,l,1,0.5222791701089591,,,,,,,,,,,,,,,,90,001,24,m,Psychologie,2023-02-01_12h23.34.428,00_bat_bachelor,2022.2.4,59.97281235077243,
,,,,,,,,,,,,1,0,1,0,113,0,113,0,,,,,,,113,,,0.2,2608.5713602078613,X,d,go,d,1,0.5527581856586039,,,,,,,,,,,,,,,,90,001,24,m,Psychologie,2023-02-01_12h23.34.428,00_bat_bachelor,2022.2.4,59.97281235077243,
,,,,,,,,,,,,1,0,1,0,114,0,114,0,,,,,,,114,,,0.2,2609.4382766359486,Y,l,go,l,1,0.5342781946528703,,,,,,,,,,,,,,,,90,001,24,m,Psychologie,2023-02-01_12h23.34.428,00_bat_bachelor,2022.2.4,59.97281235077243,
,,,,,,,,,,,,1,0,1,0,115,0,115,0,,,,,,,115,,,0.2,2610.288438163232,X,d,go,d,1,0.5647024223580956,,,,,,,,,,,,,,,,90,001,24,m,Psychologie,2023-02-01_12h23.34.428,00_bat_bachelor,2022.2.4,59.97281235077243,
,,,,,,,,,,,,1,0,1,0,116,0,116,0,,,,,,,116,,,0.2,2611.1547572582494,X,None,nogo,None,1,,2611.9547297190875,,,,,,,,,,,,,,,90,001,24,m,Psychologie,2023-02-01_12h23.34.428,00_bat_bachelor,2022.2.4,59.97281235077243,
,,,,,,,,,,,,1,0,1,0,117,0,117,0,,,,,,,117,,,0.2,2612.154888652265,Y,l,go,l,1,0.409920921549201,,,,,,,,,,,,,,,,90,001,24,m,Psychologie,2023-02-01_12h23.34.428,00_bat_bachelor,2022.2.4,59.97281235077243,
,,,,,,,,,,,,1,0,1,0,118,0,118,0,,,,,,,118,,,0.2,2612.871350365458,X,d,go,d,1,0.5577210923656821,,,,,,,,,,,,,,,,90,001,24,m,Psychologie,2023-02-01_12h23.34.428,00_bat_bachelor,2022.2.4,59.97281235077243,
,,,,,,,,,,,,1,0,1,0,119,0,119,0,,,,,,,119,,,0.2,2613.738298793556,X,None,nogo,d,0,0.5376726172398776,,,,,,,,,,,,,,,,90,001,24,m,Psychologie,2023-02-01_12h23.34.428,00_bat_bachelor,2022.2.4,59.97281235077243,
,,,,,,,,,,,,1,0,1,0,120,0,120,0,,,,,,,120,,,0.2,2614.588327472331,Y,l,go,None,0,,2615.388307205634,,,,,,,,,,,,,,,90,001,24,m,Psychologie,2023-02-01_12h23.34.428,00_bat_bachelor,2022.2.4,59.97281235077243,
,,,,,,,,,,,,1,0,1,0,121,0,121,0,,,,,,,121,,,0.2,2615.58807292697,X,d,go,d,1,0.6242539086379111,,,,,,,,,,,,,,,,90,001,24,m,Psychologie,2023-02-01_12h23.34.428,00_bat_bachelor,2022.2.4,59.97281235077243,
,,,,,,,,,,,,1,0,1,0,122,0,122,0,,,,,,,122,,,0.2,2616.5215216865763,Y,l,go,None,0,,2617.3215804502834,,,,,,,,,,,,,,,90,001,24,m,Psychologie,2023-02-01_12h23.34.428,00_bat_bachelor,2022.2.4,59.97281235077243,
,,,,,,,,,,,,1,0,1,0,123,0,123,0,,,,,,,123,,,0.2,2617.521697201766,Y,None,nogo,None,1,,2618.3213462685235,,,,,,,,,,,,,,,90,001,24,m,Psychologie,2023-02-01_12h23.34.428,00_bat_bachelor,2022.2.4,59.97281235077243,
,,,,,,,,,,,,1,0,1,0,124,0,124,0,,,,,,,124,,,0.2,2618.521676353179,X,d,go,None,0,,2619.321635722881,,,,,,,,,,,,,,,90,001,24,m,Psychologie,2023-02-01_12h23.34.428,00_bat_bachelor,2022.2.4,59.97281235077243,
,,,,,,,,,,,,1,0,1,0,125,0,125,0,,,,,,,125,,,0.2,2619.5212904140353,Y,l,go,None,0,,2620.32152275322,,,,,,,,,,,,,,,90,001,24,m,Psychologie,2023-02-01_12h23.34.428,00_bat_bachelor,2022.2.4,59.97281235077243,
,,,,,,,,,,,,1,0,1,0,126,0,126,0,,,,,,,126,,,0.2,2620.5215541713405,X,d,go,d,1,0.6190320930909365,,,,,,,,,,,,,,,,90,001,24,m,Psychologie,2023-02-01_12h23.34.428,00_bat_bachelor,2022.2.4,59.97281235077243,
,,,,,,,,,,,,1,0,1,0,127,0,127,0,,,,,,,127,,,0.2,2621.4548545673024,Y,l,go,l,1,0.5171809908933938,,,,,,,,,,,,,,,,90,001,24,m,Psychologie,2023-02-01_12h23.34.428,00_bat_bachelor,2022.2.4,59.97281235077243,
,,,,,,,,,,,,1,0,1,0,128,0,128,0,,,,,,,128,,,0.2,2622.2882020422257,Y,None,nogo,None,1,,2623.0881589876954,,,,,,,,,,,,,,,90,001,24,m,Psychologie,2023-02-01_12h23.34.428,00_bat_bachelor,2022.2.4,59.97281235077243,
,,,,,,,,,,,,1,0,1,0,129,0,129,0,,,,,,,129,,,0.2,2623.287981436122,X,d,go,d,1,0.4605924121569842,,,,,,,,,,,,,,,,90,001,24,m,Psychologie,2023-02-01_12h23.34.428,00_bat_bachelor,2022.2.4,59.97281235077243,
,,,,,,,,,,,,1,0,1,0,130,0,130,0,,,,,,,130,,,0.2,2624.054922640091,Y,l,go,None,0,,2624.854718131013,,,,,,,,,,,,,,,90,001,24,m,Psychologie,2023-02-01_12h23.34.428,00_bat_bachelor,2022.2.4,59.97281235077243,
,,,,,,,,,,,,1,0,1,0,131,0,131,0,,,,,,,131,,,0.2,2625.054873185698,X,d,go,d,1,0.6458272314630449,,,,,,,,,,,,,,,,90,001,24,m,Psychologie,2023-02-01_12h23.34.428,00_bat_bachelor,2022.2.4,59.97281235077243,
,,,,,,,,,,,,1,0,1,0,132,0,132,0,,,,,,,132,,,0.2,2626.0048989066854,Y,l,go,l,1,0.5440512807108462,,,,,,,,,,,,,,,,90,001,24,m,Psychologie,2023-02-01_12h23.34.428,00_bat_bachelor,2022.2.4,59.97281235077243,
,,,,,,,,,,,,1,0,1,0,133,0,133,0,,,,,,,133,,,0.2,2626.8548504947685,X,d,go,d,1,0.5254592897836119,,,,,,,,,,,,,,,,90,001,24,m,Psychologie,2023-02-01_12h23.34.428,00_bat_bachelor,2022.2.4,59.97281235077243,
,,,,,,,,,,,,1,0,1,0,134,0,134,0,,,,,,,134,,,0.2,2627.6879526362754,Y,l,go,l,1,0.5246398961171508,,,,,,,,,,,,,,,,90,001,24,m,Psychologie,2023-02-01_12h23.34.428,00_bat_bachelor,2022.2.4,59.97281235077243,
,,,,,,,,,,,,1,0,1,0,135,0,135,0,,,,,,,135,,,0.2,2628.521370413946,X,d,go,d,1,0.5545181846246123,,,,,,,,,,,,,,,,90,001,24,m,Psychologie,2023-02-01_12h23.34.428,00_bat_bachelor,2022.2.4,59.97281235077243,
,,,,,,,,,,,,1,0,1,0,136,0,136,0,,,,,,,136,,,0.2,2629.3882039331365,Y,l,go,l,1,0.5677618149202317,,,,,,,,,,,,,,,,90,001,24,m,Psychologie,2023-02-01_12h23.34.428,00_bat_bachelor,2022.2.4,59.97281235077243,
,,,,,,,,,,,,1,0,1,0,137,0,137,0,,,,,,,137,,,0.2,2630.271624110872,X,d,go,d,1,0.5320197714027017,,,,,,,,,,,,,,,,90,001,24,m,Psychologie,2023-02-01_12h23.34.428,00_bat_bachelor,2022.2.4,59.97281235077243,
,,,,,,,,,,,,1,0,1,0,138,0,138,0,,,,,,,138,,,0.2,2631.1049599491525,Y,l,go,l,1,0.5638161196839064,,,,,,,,,,,,,,,,90,001,24,m,Psychologie,2023-02-01_12h23.34.428,00_bat_bachelor,2022.2.4,59.97281235077243,
,,,,,,,,,,,,1,0,1,0,139,0,139,0,,,,,,,139,,,0.2,2631.971529710805,Y,None,nogo,None,1,,2632.771662656218,,,,,,,,,,,,,,,90,001,24,m,Psychologie,2023-02-01_12h23.34.428,00_bat_bachelor,2022.2.4,59.97281235077243,
,,,,,,,,,,,,1,0,1,0,140,0,140,0,,,,,,,140,,,0.2,2632.971342559438,X,d,go,d,1,0.5845220489427447,,,,,,,,,,,,,,,,90,001,24,m,Psychologie,2023-02-01_12h23.34.428,00_bat_bachelor,2022.2.4,59.97281235077243,
,,,,,,,,,,,,1,0,1,0,141,0,141,0,,,,,,,141,,,0.2,2633.8715108502656,Y,l,go,l,1,0.6454878377262503,,,,,,,,,,,,,,,,90,001,24,m,Psychologie,2023-02-01_12h23.34.428,00_bat_bachelor,2022.2.4,59.97281235077243,
,,,,,,,,,,,,1,0,1,0,142,0,142,0,,,,,,,142,,,0.2,2634.821542389691,Y,None,nogo,None,1,,2635.621541032102,,,,,,,,,,,,,,,90,001,24,m,Psychologie,2023-02-01_12h23.34.428,00_bat_bachelor,2022.2.4,59.97281235077243,
,,,,,,,,,,,,1,0,1,0,143,0,143,0,,,,,,,143,,,0.2,2635.821712571429,X,d,go,d,1,0.47098174039274454,,,,,,,,,,,,,,,,90,001,24,m,Psychologie,2023-02-01_12h23.34.428,00_bat_bachelor,2022.2.4,59.97281235077243,
,,,,,,,,,,,,1,0,1,0,144,0,144,0,,,,,,,144,,,0.2,2636.6048438281287,Y,l,go,l,1,0.6313050566241145,,,,,,,,,,,,,,,,90,001,24,m,Psychologie,2023-02-01_12h23.34.428,00_bat_bachelor,2022.2.4,59.97281235077243,
,,,,,,,,,,,,1,0,1,0,145,0,145,0,,,,,,,145,,,0.2,2637.5382392541505,X,d,go,d,1,0.5946034986991435,,,,,,,,,,,,,,,,90,001,24,m,Psychologie,2023-02-01_12h23.34.428,00_bat_bachelor,2022.2.4,59.97281235077243,
,,,,,,,,,,,,1,0,1,0,146,0,146,0,,,,,,,146,,,0.2,2638.4383605148178,X,None,nogo,None,1,,2639.2382549147587,,,,,,,,,,,,,,,90,001,24,m,Psychologie,2023-02-01_12h23.34.428,00_bat_bachelor,2022.2.4,59.97281235077243,
,,,,,,,,,,,,1,0,1,0,147,0,147,0,,,,,,,147,,,0.2,2639.438034211984,Y,l,go,None,0,,2640.2383392783813,,,,,,,,,,,,,,,90,001,24,m,Psychologie,2023-02-01_12h23.34.428,00_bat_bachelor,2022.2.4,59.97281235077243,
,,,,,,,,,,,,1,0,1,0,148,0,148,0,,,,,,,148,,,0.2,2640.4381830603816,X,d,go,None,0,,2641.2381710361224,,,,,,,,,,,,,,,90,001,24,m,Psychologie,2023-02-01_12h23.34.428,00_bat_bachelor,2022.2.4,59.97281235077243,
,,,,,,,,,,,,1,0,1,0,149,0,149,0,,,,,,,149,,,0.2,2641.438295060303,X,None,nogo,None,1,,2642.238009581575,,,,,,,,,,,,,,,90,001,24,m,Psychologie,2023-02-01_12h23.34.428,00_bat_bachelor,2022.2.4,59.97281235077243,
,,,,,,,,,,,,1,0,1,0,150,0,150,0,,,,,,,150,,,0.2,2642.43834160571,Y,l,go,l,1,0.3979160788003355,,,,,,,,,,,,,,,,90,001,24,m,Psychologie,2023-02-01_12h23.34.428,00_bat_bachelor,2022.2.4,59.97281235077243,
,,,,,,,,,,,,1,0,1,0,151,0,151,0,,,,,,,151,,,0.2,2643.1382578723133,X,d,go,d,1,0.5786359913181514,,,,,,,,,,,,,,,,90,001,24,m,Psychologie,2023-02-01_12h23.34.428,00_bat_bachelor,2022.2.4,59.97281235077243,
,,,,,,,,,,,,1,0,1,0,152,0,152,0,,,,,,,152,,,0.2,2644.0214802320115,X,None,nogo,d,0,0.6379668714944273,,,,,,,,,,,,,,,,90,001,24,m,Psychologie,2023-02-01_12h23.34.428,00_bat_bachelor,2022.2.4,59.97281235077243,
,,,,,,,,,,,,1,0,1,0,153,0,153,0,,,,,,,153,,,0.2,2644.971334801754,Y,l,go,None,0,,2645.7716810805723,,,,,,,,,,,,,,,90,001,24,m,Psychologie,2023-02-01_12h23.34.428,00_bat_bachelor,2022.2.4,59.97281235077243,
,,,,,,,,,,,,1,0,1,0,154,0,154,0,,,,,,,154,,,0.2,2645.971584013896,X,d,go,None,0,,2646.771658777492,,,,,,,,,,,,,,,90,001,24,m,Psychologie,2023-02-01_12h23.34.428,00_bat_bachelor,2022.2.4,59.97281235077243,
,,,,,,,,,,,,1,0,1,0,155,0,155,0,,,,,,,155,,,0.2,2646.971519529121,Y,l,go,None,0,,2647.7713368381374,,,,,,,,,,,,,,,90,001,24,m,Psychologie,2023-02-01_12h23.34.428,00_bat_bachelor,2022.2.4,59.97281235077243,
,,,,,,,,,,,,1,0,1,0,156,0,156,0,,,,,,,156,,,0.2,2647.9715272865724,X,d,go,d,1,0.4969885158352554,,,,,,,,,,,,,,,,90,001,24,m,Psychologie,2023-02-01_12h23.34.428,00_bat_bachelor,2022.2.4,59.97281235077243,
,,,,,,,,,,,,1,0,1,0,157,0,157,0,,,,,,,157,,,0.2,2648.7715205957647,Y,l,go,None,0,,2649.571523601655,,,,,,,,,,,,,,,90,001,24,m,Psychologie,2023-02-01_12h23.34.428,00_bat_bachelor,2022.2.4,59.97281235077243,
,,,,,,,,,,,,1,0,1,0,158,0,158,0,,,,,,,158,,,0.2,2649.7715172017924,Y,None,nogo,None,1,,2650.5714809352066,,,,,,,,,,,,,,,90,001,24,m,Psychologie,2023-02-01_12h23.34.428,00_bat_bachelor,2022.2.4,59.97281235077243,
,,,,,,,,,,,,1,0,1,0,159,0,159,0,,,,,,,159,,,0.2,2650.771323262481,X,d,go,d,1,0.49804063653573394,,,,,,,,,,,,,,,,90,001,24,m,Psychologie,2023-02-01_12h23.34.428,00_bat_bachelor,2022.2.4,59.97281235077243,
,,,,,,,,,,,,1,0,1,0,160,0,160,0,,,,,,,160,,,0.2,2651.571510510752,Y,l,go,l,1,0.5934073780663311,,,,,,,,,,,,,,,,90,001,24,m,Psychologie,2023-02-01_12h23.34.428,00_bat_bachelor,2022.2.4,59.97281235077243,
,,,,,,,,,,,,1,0,1,0,161,0,161,0,,,,,,,161,,,0.2,2652.4716846197844,Y,None,nogo,None,1,,2653.2715169594157,,,,,,,,,,,,,,,90,001,24,m,Psychologie,2023-02-01_12h23.34.428,00_bat_bachelor,2022.2.4,59.97281235077243,
,,,,,,,,,,,,1,0,1,0,162,0,162,0,,,,,,,162,,,0.2,2653.471647771308,X,d,go,d,1,0.37352287862449884,,,,,,,,,,,,,,,,90,001,24,m,Psychologie,2023-02-01_12h23.34.428,00_bat_bachelor,2022.2.4,59.97281235077243,
,,,,,,,,,,,,1,0,1,0,163,0,163,0,,,,,,,163,,,0.2,2654.1546685311478,Y,l,go,l,1,0.6336279646493495,,,,,,,,,,,,,,,,90,001,24,m,Psychologie,2023-02-01_12h23.34.428,00_bat_bachelor,2022.2.4,59.97281235077243,
,,,,,,,,,,,,1,0,1,0,164,0,164,0,,,,,,,164,,,0.2,2655.088052805746,X,d,go,d,1,0.6283406945876777,,,,,,,,,,,,,,,,90,001,24,m,Psychologie,2023-02-01_12h23.34.428,00_bat_bachelor,2022.2.4,59.97281235077243,
,,,,,,,,,,,,1,0,1,0,165,0,165,0,,,,,,,165,,,0.2,2656.021444353275,Y,l,go,l,1,0.511352629866451,,,,,,,,,,,,,,,,90,001,24,m,Psychologie,2023-02-01_12h23.34.428,00_bat_bachelor,2022.2.4,59.97281235077243,
,,,,,,,,,,,,1,0,1,0,166,0,166,0,,,,,,,166,,,0.2,2656.8382153513376,Y,None,nogo,d,0,0.4934263357426971,,,,,,,,,,,,,,,,90,001,24,m,Psychologie,2023-02-01_12h23.34.428,00_bat_bachelor,2022.2.4,59.97281235077243,
,,,,,,,,,,,,1,0,1,0,167,0,167,0,,,,,,,167,,,0.2,2657.6381655088626,X,d,go,l,0,0.4789715548977256,,,,,,,,,,,,,,,,90,001,24,m,Psychologie,2023-02-01_12h23.34.428,00_bat_bachelor,2022.2.4,59.97281235077243,
,,,,,,,,,,,,1,0,1,0,168,0,168,0,,,,,,,168,,,0.2,2658.421551310923,Y,l,go,l,1,0.5909705306403339,,,,,,,,,,,,,,,,90,001,24,m,Psychologie,2023-02-01_12h23.34.428,00_bat_bachelor,2022.2.4,59.97281235077243,
,,,,,,,,,,,,1,0,1,0,169,0,169,0,,,,,,,169,,,0.2,2659.3216318441555,Y,None,nogo,None,1,,2660.1215645472985,,,,,,,,,,,,,,,90,001,24,m,Psychologie,2023-02-01_12h23.34.428,00_bat_bachelor,2022.2.4,59.97281235077243,
,,,,,,,,,,,,1,0,1,0,170,0,170,0,,,,,,,170,,,0.2,2660.321257541189,X,d,go,d,1,0.38680238742381334,,,,,,,,,,,,,,,,90,001,24,m,Psychologie,2023-02-01_12h23.34.428,00_bat_bachelor,2022.2.4,59.97281235077243,
,,,,,,,,,,,,1,0,1,0,171,0,171,0,,,,,,,171,,,0.2,2661.021527747158,Y,l,go,l,1,0.6471576550975442,,,,,,,,,,,,,,,,90,001,24,m,Psychologie,2023-02-01_12h23.34.428,00_bat_bachelor,2022.2.4,59.97281235077243,
,,,,,,,,,,,,1,0,1,0,172,0,172,0,,,,,,,172,,,0.2,2661.9715287410654,X,d,go,d,1,0.6401385068893433,,,,,,,,,,,,,,,,90,001,24,m,Psychologie,2023-02-01_12h23.34.428,00_bat_bachelor,2022.2.4,59.97281235077243,
,,,,,,,,,,,,1,0,1,0,173,0,173,0,,,,,,,173,,,0.2,2662.92150258366,Y,l,go,d,0,0.6187659113202244,,,,,,,,,,,,,,,,90,001,24,m,Psychologie,2023-02-01_12h23.34.428,00_bat_bachelor,2022.2.4,59.97281235077243,
,,,,,,,,,,,,1,0,1,0,174,0,174,0,,,,,,,174,,,0.2,2663.854845646303,X,d,go,None,0,,2664.6548476824537,,,,,,,,,,,,,,,90,001,24,m,Psychologie,2023-02-01_12h23.34.428,00_bat_bachelor,2022.2.4,59.97281235077243,
,,,,,,,,,,,,1,0,1,0,175,0,175,0,,,,,,,175,,,0.2,2664.8547147372738,X,None,nogo,None,1,,2665.6546455009375,,,,,,,,,,,,,,,90,001,24,m,Psychologie,2023-02-01_12h23.34.428,00_bat_bachelor,2022.2.4,59.97281235077243,
,,,,,,,,,,,,1,0,1,0,176,0,176,0,,,,,,,176,,,0.2,2665.8548374038655,Y,l,go,l,1,0.4050341360270977,,,,,,,,,,,,,,,,90,001,24,m,Psychologie,2023-02-01_12h23.34.428,00_bat_bachelor,2022.2.4,59.97281235077243,
,,,,,,,,,,,,1,0,1,0,177,0,177,0,,,,,,,177,,,0.2,2666.5714848139323,X,d,go,d,1,0.5367746783886105,,,,,,,,,,,,,,,,90,001,24,m,Psychologie,2023-02-01_12h23.34.428,00_bat_bachelor,2022.2.4,59.97281235077243,
,,,,,,,,,,,,1,0,1,0,178,0,178,0,,,,,,,178,,,0.2,2667.421533856308,Y,l,go,l,1,0.5342592855449766,,,,,,,,,,,,,,,,90,001,24,m,Psychologie,2023-02-01_12h23.34.428,00_bat_bachelor,2022.2.4,59.97281235077243,
,,,,,,,,,,,,1,0,1,0,179,0,179,0,,,,,,,179,,,0.2,2668.2714728382416,Y,None,nogo,None,1,,2669.071288692765,,,,,,,,,,,,,,,90,001,24,m,Psychologie,2023-02-01_12h23.34.428,00_bat_bachelor,2022.2.4,59.97281235077243,
,,,,,,,,,,,,1,0,1,0,180,0,180,0,,,,,,,180,,,0.2,2669.2714796259534,X,d,go,d,1,0.44495508656837046,,,,,,,,,,,,,,,,90,001,24,m,Psychologie,2023-02-01_12h23.34.428,00_bat_bachelor,2022.2.4,59.97281235077243,
,,,,,,,,,,,,1,0,1,0,181,0,181,0,,,,,,,181,,,0.2,2670.0214802320115,Y,l,go,None,0,,2670.8212946322747,,,,,,,,,,,,,,,90,001,24,m,Psychologie,2023-02-01_12h23.34.428,00_bat_bachelor,2022.2.4,59.97281235077243,
,,,,,,,,,,,,1,0,1,0,182,0,182,0,,,,,,,182,,,0.2,2671.021327504888,X,d,go,d,1,0.5513710347004235,,,,,,,,,,,,,,,,90,001,24,m,Psychologie,2023-02-01_12h23.34.428,00_bat_bachelor,2022.2.4,59.97281235077243,
,,,,,,,,,,,,1,0,1,0,183,0,183,0,,,,,,,183,,,0.2,2671.8879554483574,Y,l,go,l,1,0.5320963775739074,,,,,,,,,,,,,,,,90,001,24,m,Psychologie,2023-02-01_12h23.34.428,00_bat_bachelor,2022.2.4,59.97281235077243,
,,,,,,,,,,,,1,0,1,0,184,0,184,0,,,,,,,184,,,0.2,2672.7215031653177,X,d,go,d,1,0.5470083702821285,,,,,,,,,,,,,,,,90,001,24,m,Psychologie,2023-02-01_12h23.34.428,00_bat_bachelor,2022.2.4,59.97281235077243,
,,,,,,,,,,,,1,0,1,0,185,0,185,0,,,,,,,185,,,0.2,2673.5713446927257,Y,l,go,l,1,0.6252003323752433,,,,,,,,,,,,,,,,90,001,24,m,Psychologie,2023-02-01_12h23.34.428,00_bat_bachelor,2022.2.4,59.97281235077243,
,,,,,,,,,,,,1,0,1,0,186,0,186,0,,,,,,,186,,,0.2,2674.5046538158786,X,d,go,d,1,0.6507028655614704,,,,,,,,,,,,,,,,90,001,24,m,Psychologie,2023-02-01_12h23.34.428,00_bat_bachelor,2022.2.4,59.97281235077243,
,,,,,,,,,,,,1,0,1,0,187,0,187,0,,,,,,,187,,,0.2,2675.4715755290817,X,None,nogo,None,1,,2676.271488353377,,,,,,,,,,,,,,,90,001,24,m,Psychologie,2023-02-01_12h23.34.428,00_bat_bachelor,2022.2.4,59.97281235077243,
,,,,,,,,,,,,1,0,1,0,188,0,188,0,,,,,,,188,,,0.2,2676.4713844987564,X,None,nogo,d,0,0.636466751107946,,,,,,,,,,,,,,,,90,001,24,m,Psychologie,2023-02-01_12h23.34.428,00_bat_bachelor,2022.2.4,59.97281235077243,
,,,,,,,,,,,,1,0,1,0,189,0,189,0,,,,,,,189,,,0.2,2677.4213515534066,Y,l,go,None,0,,2678.221331771463,,,,,,,,,,,,,,,90,001,24,m,Psychologie,2023-02-01_12h23.34.428,00_bat_bachelor,2022.2.4,59.97281235077243,
,,,,,,,,,,,,1,0,1,0,190,0,190,0,,,,,,,190,,,0.2,2678.4213176139165,X,d,go,None,0,,2679.2214830440935,,,,,,,,,,,,,,,90,001,24,m,Psychologie,2023-02-01_12h23.34.428,00_bat_bachelor,2022.2.4,59.97281235077243,
,,,,,,,,,,,,1,0,1,0,191,0,191,0,,,,,,,191,,,0.2,2679.4215915531386,X,None,nogo,None,1,,2680.2213133473415,,,,,,,,,,,,,,,90,001,24,m,Psychologie,2023-02-01_12h23.34.428,00_bat_bachelor,2022.2.4,59.97281235077243,
,,,,,,,,,,,,1,0,1,0,192,0,192,0,,,,,,,192,,,0.2,2680.421320038149,Y,l,go,l,1,0.4472246612422168,,,,,,,,,,,,,,,,90,001,24,m,Psychologie,2023-02-01_12h23.34.428,00_bat_bachelor,2022.2.4,59.97281235077243,
,,,,,,,,,,,,1,0,1,0,193,0,193,0,,,,,,,193,,,0.2,2681.1716450077947,X,d,go,d,1,0.640265537193045,,,,,,,,,,,,,,,,90,001,24,m,Psychologie,2023-02-01_12h23.34.428,00_bat_bachelor,2022.2.4,59.97281235077243,
,,,,,,,,,,,,1,0,1,0,194,0,194,0,,,,,,,194,,,0.2,2682.1215015170164,Y,l,go,l,1,0.45898465532809496,,,,,,,,,,,,,,,,90,001,24,m,Psychologie,2023-02-01_12h23.34.428,00_bat_bachelor,2022.2.4,59.97281235077243,
,,,,,,,,,,,,1,0,1,0,195,0,195,0,,,,,,,195,,,0.2,2682.8882531451527,Y,None,nogo,None,1,,2683.688247423852,,,,,,,,,,,,,,,90,001,24,m,Psychologie,2023-02-01_12h23.34.428,00_bat_bachelor,2022.2.4,59.97281235077243,
,,,,,,,,,,,,1,0,1,0,196,0,196,0,,,,,,,196,,,0.2,2683.8882744784933,X,d,go,d,1,0.3879311140626669,,,,,,,,,,,,,,,,90,001,24,m,Psychologie,2023-02-01_12h23.34.428,00_bat_bachelor,2022.2.4,59.97281235077243,
,,,,,,,,,,,,1,0,1,0,197,0,197,0,,,,,,,197,,,0.2,2684.588163593784,Y,l,go,None,0,,2685.388211690588,,,,,,,,,,,,,,,90,001,24,m,Psychologie,2023-02-01_12h23.34.428,00_bat_bachelor,2022.2.4,59.97281235077243,
,,,,,,,,,,,,1,0,1,0,198,0,198,0,,,,,,,198,,,0.2,2685.5881757149473,X,d,go,d,1,0.6247576659079641,,,,,,,,,,,,,,,,90,001,24,m,Psychologie,2023-02-01_12h23.34.428,00_bat_bachelor,2022.2.4,59.97281235077243,
,,,,,,,,,,,,1,0,1,0,199,0,199,0,,,,,,,199,,,0.2,2686.5215808381326,Y,l,go,l,1,0.5702078742906451,,,,,,,,,,,,,,,,90,001,24,m,Psychologie,2023-02-01_12h23.34.428,00_bat_bachelor,2022.2.4,59.97281235077243,
