loop_instruction.thisRepN,loop_instruction.thisTrialN,loop_instruction.thisN,loop_instruction.thisIndex,loop_rsi_practice.thisRepN,loop_rsi_practice.thisTrialN,loop_rsi_practice.thisN,loop_rsi_practice.thisIndex,loop_practice.thisRepN,loop_practice.thisTrialN,loop_practice.thisN,loop_practice.thisIndex,loop_exp.thisRepN,loop_exp.thisTrialN,loop_exp.thisN,loop_exp.thisIndex,loop_trials.thisRepN,loop_trials.thisTrialN,loop_trials.thisN,loop_trials.thisIndex,map_condition,map_x_key,map_y_key,key_resp_welcome.started,key_resp_welcome.keys,key_resp_welcome.rt,index,text_empty_rsi_practice.started,text_empty_rsi_practice.stopped,rsi,stimulus.started,stimulus,correct,trial_type,key_resp_trial.keys,key_resp_trial.corr,key_resp_trial.rt,stimulus.stopped,key_resp_instruction_rsi.started,key_resp_instruction_rsi.keys,key_resp_instruction_rsi.rt,key_resp_instruction_rsi.stopped,key_resp_instruction_final.started,key_resp_instruction_final.keys,key_resp_instruction_final.rt,key_resp_break.started,key_resp_break.keys,key_resp_break.rt,key_resp_break.stopped,key_resp_end_screen.started,image_end_screen.started,key_resp_end_screen.stopped,image_end_screen.stopped,key_resp_end_screen.keys,participant,session,Alter,Geschlecht (w/m/d/andere),Studiengang,date,expName,psychopyVersion,frameRate,
,,,,0,0,0,0,0,0,0,0,,,,,,,,,0,d,l,7690.153119030292,j,21.919468303094618,0,7712.0986686060205,7713.11296145455,1,7713.11296145455,X,d,go,d,1,0.5701543636387214,,,,,,,,,,,,,,,,,,92,001,25,weiblich,Psychologie,2023-02-07_08h58.44.336,00_bat_bachelor,2022.2.4,59.97487597706895,
,,,,0,0,0,0,1,0,1,0,,,,,,,,,,,,,,,1,7714.414474666701,7715.414984727278,1,7715.414984727278,Y,l,go,None,0,,7716.2154448485235,,,,,,,,,,,,,,,,,92,001,25,weiblich,Psychologie,2023-02-07_08h58.44.336,00_bat_bachelor,2022.2.4,59.97487597706895,
,,,,0,0,0,0,2,0,2,0,,,,,,,,,,,,,,,2,7716.815887999954,7717.816797090927,1,7717.816797090927,X,d,go,d,1,0.5549228484742343,,,,,,,,,,,,,,,,,,92,001,25,weiblich,Psychologie,2023-02-07_08h58.44.336,00_bat_bachelor,2022.2.4,59.97487597706895,
,,,,0,0,0,0,3,0,3,0,,,,,,,,,,,,,,,3,7719.08442763635,7720.084987636306,1,7720.084987636306,Y,l,go,l,1,0.6386581212282181,,,,,,,,,,,,,,,,,,92,001,25,weiblich,Psychologie,2023-02-07_08h58.44.336,00_bat_bachelor,2022.2.4,59.97487597706895,
,,,,0,0,0,0,4,0,4,0,,,,,,,,,,,,,,,4,7721.4527641212335,7722.453666909132,1,7722.453666909132,Y,None,nogo,None,1,,7723.254278303008,,,,,,,,,,,,,,,,,92,001,25,weiblich,Psychologie,2023-02-07_08h58.44.336,00_bat_bachelor,2022.2.4,59.97487597706895,
,,,,0,0,0,0,5,0,5,0,,,,,,,,,,,,,,,5,7723.854709333391,7724.855306181824,1,7724.855306181824,X,d,go,d,1,0.4608830908546224,,,,,,,,,,,,,,,,,,92,001,25,weiblich,Psychologie,2023-02-07_08h58.44.336,00_bat_bachelor,2022.2.4,59.97487597706895,
,,,,0,0,0,0,6,0,6,0,,,,,,,,,,,,,,,6,7726.023092363612,7727.0238128484925,1,7727.0238128484925,Y,l,go,l,1,0.40503533324226737,,,,,,,,,,,,,,,,,,92,001,25,weiblich,Psychologie,2023-02-07_08h58.44.336,00_bat_bachelor,2022.2.4,59.97487597706895,
,,,,0,0,0,0,7,0,7,0,,,,,,,,,,,,,,,7,7728.1413061817875,7729.142153212102,1,7729.142153212102,X,d,go,d,1,0.4299778788117692,,,,,,,,,,,,,,,,,,92,001,25,weiblich,Psychologie,2023-02-07_08h58.44.336,00_bat_bachelor,2022.2.4,59.97487597706895,
,,,,0,0,0,0,8,0,8,0,,,,,,,,,,,,,,,8,7730.276139636408,7731.277159757563,1,7731.277159757563,Y,l,go,l,1,0.3740510909119621,,,,,,,,,,,,,,,,,,92,001,25,weiblich,Psychologie,2023-02-07_08h58.44.336,00_bat_bachelor,2022.2.4,59.97487597706895,
,,,,0,0,0,0,9,0,9,0,,,,,,,,,,,,,,,9,7732.3778797575505,7733.37881357572,1,7733.37881357572,X,d,go,d,1,0.3537495151394978,,,,,,,,,,,,,,,,,,92,001,25,weiblich,Psychologie,2023-02-07_08h58.44.336,00_bat_bachelor,2022.2.4,59.97487597706895,
,,,,0,0,0,0,10,0,10,0,,,,,,,,,,,,,,,10,7734.446108606062,7735.446998787927,1,7735.446998787927,X,None,nogo,None,1,,7736.247369696968,,,,,,,,,,,,,,,,,92,001,25,weiblich,Psychologie,2023-02-07_08h58.44.336,00_bat_bachelor,2022.2.4,59.97487597706895,
,,,,0,0,0,0,11,0,11,0,,,,,,,,,,,,,,,11,7736.8479602424195,7737.84855515149,1,7737.84855515149,Y,l,go,l,1,0.42757254547905177,,,,,,,,,,,,,,,,,,92,001,25,weiblich,Psychologie,2023-02-07_08h58.44.336,00_bat_bachelor,2022.2.4,59.97487597706895,
,,,,0,0,0,0,12,0,12,0,,,,,,,,,,,,,,,12,7738.999447272741,7740.000184242381,1,7740.000184242381,X,d,go,d,1,0.2745519393356517,,,,,,,,,,,,,,,,,,92,001,25,weiblich,Psychologie,2023-02-07_08h58.44.336,00_bat_bachelor,2022.2.4,59.97487597706895,
,,,,0,0,0,0,13,0,13,0,,,,,,,,,,,,,,,13,7741.001148121199,7742.001896727248,1,7742.001896727248,X,None,nogo,None,1,,7742.802457696991,,,,,,,,,,,,,,,,,92,001,25,weiblich,Psychologie,2023-02-07_08h58.44.336,00_bat_bachelor,2022.2.4,59.97487597706895,
,,,,0,0,0,0,14,0,14,0,,,,,,,,,,,,,,,14,7743.403090909123,7744.403546181857,1,7744.403546181857,Y,l,go,l,1,0.43195751518942416,,,,,,,,,,,,,,,,,,92,001,25,weiblich,Psychologie,2023-02-07_08h58.44.336,00_bat_bachelor,2022.2.4,59.97487597706895,
,,,,1,0,1,0,0,0,0,0,,,,,,,,,,,,,,,0,7763.918295272742,7764.118370909127,0.2,7764.118370909127,X,d,go,d,1,0.6375027273315936,,7745.56022933335,j,18.33596915146336,,,,,,,,,,,,,,92,001,25,weiblich,Psychologie,2023-02-07_08h58.44.336,00_bat_bachelor,2022.2.4,59.97487597706895,
,,,,1,0,1,0,1,0,1,0,,,,,,,,,,,,,,,1,7765.469631515094,7765.669812848442,0.2,7765.669812848442,Y,l,go,l,1,0.26963557570707053,,,,,,,,,,,,,,,,,,92,001,25,weiblich,Psychologie,2023-02-07_08h58.44.336,00_bat_bachelor,2022.2.4,59.97487597706895,
,,,,1,0,1,0,2,0,2,0,,,,,,,,,,,,,,,2,7766.653690181789,7766.85388509091,0.2,7766.85388509091,X,d,go,d,1,0.46243412129115313,,,,,,,,,,,,,,,,,,92,001,25,weiblich,Psychologie,2023-02-07_08h58.44.336,00_bat_bachelor,2022.2.4,59.97487597706895,
,,,,1,0,1,0,3,0,3,0,,,,,,,,,,,,,,,3,7768.021575272782,7768.221528727328,0.2,7768.221528727328,Y,l,go,l,1,0.2790857575600967,,,,,,,,,,,,,,,,,,92,001,25,weiblich,Psychologie,2023-02-07_08h58.44.336,00_bat_bachelor,2022.2.4,59.97487597706895,
,,,,1,0,1,0,4,0,4,0,,,,,,,,,,,,,,,4,7769.205597090884,7769.4057318788255,0.2,7769.4057318788255,X,d,go,d,1,0.2624903635587543,,,,,,,,,,,,,,,,,,92,001,25,weiblich,Psychologie,2023-02-07_08h58.44.336,00_bat_bachelor,2022.2.4,59.97487597706895,
,,,,1,0,1,0,5,0,5,0,,,,,,,,,,,,,,,5,7770.373311515199,7770.573499636375,0.2,7770.573499636375,Y,l,go,l,1,0.24739896971732378,,,,,,,,,,,,,,,,,,92,001,25,weiblich,Psychologie,2023-02-07_08h58.44.336,00_bat_bachelor,2022.2.4,59.97487597706895,
,,,,1,0,1,0,6,0,6,0,,,,,,,,,,,,,,,6,7771.540650666691,7771.740883393912,0.2,7771.740883393912,Y,None,nogo,None,1,,,,,,,,,,,,,,,,,,,92,001,25,weiblich,Psychologie,2023-02-07_08h58.44.336,00_bat_bachelor,2022.2.4,59.97487597706895,
,,,,1,0,1,0,7,0,7,0,,,,,,,,,,,,,,,7,7773.142028606031,7773.342221575789,0.2,7773.342221575789,X,d,go,d,1,0.27897860610391945,,,,,,,,,,,,,,,,,,92,001,25,weiblich,Psychologie,2023-02-07_08h58.44.336,00_bat_bachelor,2022.2.4,59.97487597706895,
,,,,1,0,1,0,8,0,8,0,,,,,,,,,,,,,,,8,7774.326266181772,7774.526378666633,0.2,7774.526378666633,Y,l,go,l,1,0.2620447878725827,,,,,,,,,,,,,,,,,,92,001,25,weiblich,Psychologie,2023-02-07_08h58.44.336,00_bat_bachelor,2022.2.4,59.97487597706895,
,,,,1,0,1,0,9,0,9,0,,,,,,,,,,,,,,,9,7775.493796363589,7775.693871999974,0.2,7775.693871999974,Y,None,nogo,None,1,,,,,,,,,,,,,,,,,,,92,001,25,weiblich,Psychologie,2023-02-07_08h58.44.336,00_bat_bachelor,2022.2.4,59.97487597706895,
,,,,1,0,1,0,10,0,10,0,,,,,,,,,,,,,,,10,7777.095033696969,7777.2950652120635,0.2,7777.2950652120635,X,d,go,d,1,0.22861060604918748,,,,,,,,,,,,,,,,,,92,001,25,weiblich,Psychologie,2023-02-07_08h58.44.336,00_bat_bachelor,2022.2.4,59.97487597706895,
,,,,1,0,1,0,11,0,11,0,,,,,,,,,,,,,,,11,7778.229262060602,7778.429077333305,0.2,7778.429077333305,Y,l,go,l,1,0.24741593946237117,,,,,,,,,,,,,,,,,,92,001,25,weiblich,Psychologie,2023-02-07_08h58.44.336,00_bat_bachelor,2022.2.4,59.97487597706895,
,,,,1,0,1,0,12,0,12,0,,,,,,,,,,,,,,,12,7779.379888484837,7779.579954424291,0.2,7779.579954424291,Y,None,nogo,None,1,,7780.380858181859,,,,,,,,,,,,,,,,,92,001,25,weiblich,Psychologie,2023-02-07_08h58.44.336,00_bat_bachelor,2022.2.4,59.97487597706895,
,,,,1,0,1,0,13,0,13,0,,,,,,,,,,,,,,,13,7780.981018181774,7781.181440969696,0.2,7781.181440969696,X,d,go,d,1,0.23113424237817526,,,,,,,,,,,,,,,,,,92,001,25,weiblich,Psychologie,2023-02-07_08h58.44.336,00_bat_bachelor,2022.2.4,59.97487597706895,
,,,,1,0,1,0,14,0,14,0,,,,,,,,,,,,,,,14,7782.115327515174,7782.315595151507,0.2,7782.315595151507,Y,l,go,l,1,0.2647890303051099,,,,,,,,,,,,,,,,,,92,001,25,weiblich,Psychologie,2023-02-07_08h58.44.336,00_bat_bachelor,2022.2.4,59.97487597706895,
,,,,,,,,,,,,,,,,,,,,,,,,,,,,,,,,,,,,,,7783.314094545436,None,,7783.314094545436,7783.314094545436,space,5.109138606116176,,,,,,,,,,92,001,25,weiblich,Psychologie,2023-02-07_08h58.44.336,00_bat_bachelor,2022.2.4,59.97487597706895,
,,,,,,,,,,,,0,0,0,0,0,0,0,0,,,,,,,0,,,1,7789.454308848479,X,d,go,d,1,0.43744793941732496,,,,,,,,,,,,,,,,,,92,001,25,weiblich,Psychologie,2023-02-07_08h58.44.336,00_bat_bachelor,2022.2.4,59.97487597706895,
,,,,,,,,,,,,0,0,0,0,1,0,1,0,,,,,,,1,,,1,7791.005622787867,Y,l,go,l,1,0.3116249090526253,,,,,,,,,,,,,,,,,,92,001,25,weiblich,Psychologie,2023-02-07_08h58.44.336,00_bat_bachelor,2022.2.4,59.97487597706895,
,,,,,,,,,,,,0,0,0,0,2,0,2,0,,,,,,,2,,,1,7792.4233779393835,X,d,go,d,1,0.31762636359781027,,,,,,,,,,,,,,,,,,92,001,25,weiblich,Psychologie,2023-02-07_08h58.44.336,00_bat_bachelor,2022.2.4,59.97487597706895,
,,,,,,,,,,,,0,0,0,0,3,0,3,0,,,,,,,3,,,1,7793.857829333283,X,None,nogo,l,0,0.25971557572484016,,,,,,,,,,,,,,,,,,92,001,25,weiblich,Psychologie,2023-02-07_08h58.44.336,00_bat_bachelor,2022.2.4,59.97487597706895,
,,,,,,,,,,,,0,0,0,0,4,0,4,0,,,,,,,4,,,1,7795.225199999986,Y,l,go,l,1,0.37807727279141545,,,,,,,,,,,,,,,,,,92,001,25,weiblich,Psychologie,2023-02-07_08h58.44.336,00_bat_bachelor,2022.2.4,59.97487597706895,
,,,,,,,,,,,,0,0,0,0,5,0,5,0,,,,,,,5,,,1,7796.709973818157,X,d,go,d,1,0.5264772727387026,,,,,,,,,,,,,,,,,,92,001,25,weiblich,Psychologie,2023-02-07_08h58.44.336,00_bat_bachelor,2022.2.4,59.97487597706895,
,,,,,,,,,,,,0,0,0,0,6,0,6,0,,,,,,,6,,,1,7798.3445435151225,Y,l,go,l,1,0.3314203030895442,,,,,,,,,,,,,,,,,,92,001,25,weiblich,Psychologie,2023-02-07_08h58.44.336,00_bat_bachelor,2022.2.4,59.97487597706895,
,,,,,,,,,,,,0,0,0,0,7,0,7,0,,,,,,,7,,,1,7799.778922181809,X,d,go,d,1,0.4009596969699487,,,,,,,,,,,,,,,,,,92,001,25,weiblich,Psychologie,2023-02-07_08h58.44.336,00_bat_bachelor,2022.2.4,59.97487597706895,
,,,,,,,,,,,,0,0,0,0,8,0,8,0,,,,,,,8,,,1,7801.296818909119,X,None,nogo,None,1,,,,,,,,,,,,,,,,,,,92,001,25,weiblich,Psychologie,2023-02-07_08h58.44.336,00_bat_bachelor,2022.2.4,59.97487597706895,
,,,,,,,,,,,,0,0,0,0,9,0,9,0,,,,,,,9,,,1,7803.098172121216,Y,l,go,l,1,0.5064273333409801,,,,,,,,,,,,,,,,,,92,001,25,weiblich,Psychologie,2023-02-07_08h58.44.336,00_bat_bachelor,2022.2.4,59.97487597706895,
,,,,,,,,,,,,0,0,0,0,10,0,10,0,,,,,,,10,,,1,7804.716024242458,X,d,go,d,1,0.34512987884227186,,,,,,,,,,,,,,,,,,92,001,25,weiblich,Psychologie,2023-02-07_08h58.44.336,00_bat_bachelor,2022.2.4,59.97487597706895,
,,,,,,,,,,,,0,0,0,0,11,0,11,0,,,,,,,11,,,1,7806.167151515139,Y,l,go,l,1,0.33379363641142845,,,,,,,,,,,,,,,,,,92,001,25,weiblich,Psychologie,2023-02-07_08h58.44.336,00_bat_bachelor,2022.2.4,59.97487597706895,
,,,,,,,,,,,,0,0,0,0,12,0,12,0,,,,,,,12,,,1,7807.6015389091335,Y,None,nogo,None,1,,,,,,,,,,,,,,,,,,,92,001,25,weiblich,Psychologie,2023-02-07_08h58.44.336,00_bat_bachelor,2022.2.4,59.97487597706895,
,,,,,,,,,,,,0,0,0,0,13,0,13,0,,,,,,,13,,,1,7809.403051151545,X,d,go,d,1,0.4251812727889046,,,,,,,,,,,,,,,,,,92,001,25,weiblich,Psychologie,2023-02-07_08h58.44.336,00_bat_bachelor,2022.2.4,59.97487597706895,
,,,,,,,,,,,,0,0,0,0,14,0,14,0,,,,,,,14,,,1,7810.937457939377,Y,l,go,l,1,0.36282587877940387,,,,,,,,,,,,,,,,,,92,001,25,weiblich,Psychologie,2023-02-07_08h58.44.336,00_bat_bachelor,2022.2.4,59.97487597706895,
,,,,,,,,,,,,0,0,0,0,15,0,15,0,,,,,,,15,,,1,7812.405035636388,X,d,go,d,1,0.3351085453759879,,,,,,,,,,,,,,,,,,92,001,25,weiblich,Psychologie,2023-02-07_08h58.44.336,00_bat_bachelor,2022.2.4,59.97487597706895,
,,,,,,,,,,,,0,0,0,0,16,0,16,0,,,,,,,16,,,1,7813.856831030338,Y,l,go,l,1,0.3079003030434251,,,,,,,,,,,,,,,,,,92,001,25,weiblich,Psychologie,2023-02-07_08h58.44.336,00_bat_bachelor,2022.2.4,59.97487597706895,
,,,,,,,,,,,,0,0,0,0,17,0,17,0,,,,,,,17,,,1,7815.274805818219,Y,None,nogo,None,1,,7816.075530666625,,,,,,,,,,,,,,,,,92,001,25,weiblich,Psychologie,2023-02-07_08h58.44.336,00_bat_bachelor,2022.2.4,59.97487597706895,
,,,,,,,,,,,,0,0,0,0,18,0,18,0,,,,,,,18,,,1,7817.076074181823,X,d,go,d,1,0.25476527272257954,,,,,,,,,,,,,,,,,,92,001,25,weiblich,Psychologie,2023-02-07_08h58.44.336,00_bat_bachelor,2022.2.4,59.97487597706895,
,,,,,,,,,,,,0,0,0,0,19,0,19,0,,,,,,,19,,,1,7818.45990496967,Y,l,go,l,1,0.3124171515228227,,,,,,,,,,,,,,,,,,92,001,25,weiblich,Psychologie,2023-02-07_08h58.44.336,00_bat_bachelor,2022.2.4,59.97487597706895,
,,,,,,,,,,,,0,0,0,0,20,0,20,0,,,,,,,20,,,1,7819.877337212092,Y,None,nogo,None,1,,,,,,,,,,,,,,,,,,,92,001,25,weiblich,Psychologie,2023-02-07_08h58.44.336,00_bat_bachelor,2022.2.4,59.97487597706895,
,,,,,,,,,,,,0,0,0,0,21,0,21,0,,,,,,,21,,,1,7821.678714666632,X,d,go,d,1,0.21363606059458107,,,,,,,,,,,,,,,,,,92,001,25,weiblich,Psychologie,2023-02-07_08h58.44.336,00_bat_bachelor,2022.2.4,59.97487597706895,
,,,,,,,,,,,,0,0,0,0,22,0,22,0,,,,,,,22,,,1,7822.996344727231,Y,l,go,l,1,0.2710246667265892,,,,,,,,,,,,,,,,,,92,001,25,weiblich,Psychologie,2023-02-07_08h58.44.336,00_bat_bachelor,2022.2.4,59.97487597706895,
,,,,,,,,,,,,0,0,0,0,23,0,23,0,,,,,,,23,,,1,7824.381063272711,X,d,go,d,1,0.2635803030570969,,,,,,,,,,,,,,,,,,92,001,25,weiblich,Psychologie,2023-02-07_08h58.44.336,00_bat_bachelor,2022.2.4,59.97487597706895,
,,,,,,,,,,,,0,0,0,0,24,0,24,0,,,,,,,24,,,1,7825.748533818172,Y,l,go,l,1,0.2230013939552009,,,,,,,,,,,,,,,,,,92,001,25,weiblich,Psychologie,2023-02-07_08h58.44.336,00_bat_bachelor,2022.2.4,59.97487597706895,
,,,,,,,,,,,,0,0,0,0,25,0,25,0,,,,,,,25,,,1,7827.0828319999855,Y,None,nogo,None,1,,7827.883777939365,,,,,,,,,,,,,,,,,92,001,25,weiblich,Psychologie,2023-02-07_08h58.44.336,00_bat_bachelor,2022.2.4,59.97487597706895,
,,,,,,,,,,,,0,0,0,0,26,0,26,0,,,,,,,26,,,1,7828.884174060659,X,d,go,d,1,0.3835798181826249,,,,,,,,,,,,,,,,,,92,001,25,weiblich,Psychologie,2023-02-07_08h58.44.336,00_bat_bachelor,2022.2.4,59.97487597706895,
,,,,,,,,,,,,0,0,0,0,27,0,27,0,,,,,,,27,,,1,7830.3690918787615,Y,l,go,l,1,0.3553000605897978,,,,,,,,,,,,,,,,,,92,001,25,weiblich,Psychologie,2023-02-07_08h58.44.336,00_bat_bachelor,2022.2.4,59.97487597706895,
,,,,,,,,,,,,0,0,0,0,28,0,28,0,,,,,,,28,,,1,7831.8366947878385,X,d,go,d,1,0.26418296969495714,,,,,,,,,,,,,,,,,,92,001,25,weiblich,Psychologie,2023-02-07_08h58.44.336,00_bat_bachelor,2022.2.4,59.97487597706895,
,,,,,,,,,,,,0,0,0,0,29,0,29,0,,,,,,,29,,,1,7833.204211393953,X,None,nogo,l,0,0.24041084852069616,,,,,,,,,,,,,,,,,,92,001,25,weiblich,Psychologie,2023-02-07_08h58.44.336,00_bat_bachelor,2022.2.4,59.97487597706895,
,,,,,,,,,,,,0,0,0,0,30,0,30,0,,,,,,,30,,,1,7834.555468606064,Y,l,go,l,1,0.3935158181702718,,,,,,,,,,,,,,,,,,92,001,25,weiblich,Psychologie,2023-02-07_08h58.44.336,00_bat_bachelor,2022.2.4,59.97487597706895,
,,,,,,,,,,,,0,0,0,0,31,0,31,0,,,,,,,31,,,1,7836.056574545451,X,d,go,d,1,0.26731654547620565,,,,,,,,,,,,,,,,,,92,001,25,weiblich,Psychologie,2023-02-07_08h58.44.336,00_bat_bachelor,2022.2.4,59.97487597706895,
,,,,,,,,,,,,0,0,0,0,32,0,32,0,,,,,,,32,,,1,7837.440719515202,X,None,nogo,None,1,,,,,,,,,,,,,,,,,,,92,001,25,weiblich,Psychologie,2023-02-07_08h58.44.336,00_bat_bachelor,2022.2.4,59.97487597706895,
,,,,,,,,,,,,0,0,0,0,33,0,33,0,,,,,,,33,,,1,7839.242439272697,Y,l,go,l,1,0.34503436367958784,,,,,,,,,,,,,,,,,,92,001,25,weiblich,Psychologie,2023-02-07_08h58.44.336,00_bat_bachelor,2022.2.4,59.97487597706895,
,,,,,,,,,,,,0,0,0,0,34,0,34,0,,,,,,,34,,,1,7840.693515636376,X,d,go,d,1,0.3665810303064063,,,,,,,,,,,,,,,,,,92,001,25,weiblich,Psychologie,2023-02-07_08h58.44.336,00_bat_bachelor,2022.2.4,59.97487597706895,
,,,,,,,,,,,,0,0,0,0,35,0,35,0,,,,,,,35,,,1,7842.161299878731,X,None,nogo,None,1,,,,,,,,,,,,,,,,,,,92,001,25,weiblich,Psychologie,2023-02-07_08h58.44.336,00_bat_bachelor,2022.2.4,59.97487597706895,
,,,,,,,,,,,,0,0,0,0,36,0,36,0,,,,,,,36,,,1,7843.962583272718,Y,l,go,l,1,0.44203121215105057,,,,,,,,,,,,,,,,,,92,001,25,weiblich,Psychologie,2023-02-07_08h58.44.336,00_bat_bachelor,2022.2.4,59.97487597706895,
,,,,,,,,,,,,0,0,0,0,37,0,37,0,,,,,,,37,,,1,7845.513869090937,X,d,go,d,1,0.26690684852655977,,,,,,,,,,,,,,,,,,92,001,25,weiblich,Psychologie,2023-02-07_08h58.44.336,00_bat_bachelor,2022.2.4,59.97487597706895,
,,,,,,,,,,,,0,0,0,0,38,0,38,0,,,,,,,38,,,1,7846.881591272773,Y,l,go,l,1,0.22685303026810288,,,,,,,,,,,,,,,,,,92,001,25,weiblich,Psychologie,2023-02-07_08h58.44.336,00_bat_bachelor,2022.2.4,59.97487597706895,
,,,,,,,,,,,,0,0,0,0,39,0,39,0,,,,,,,39,,,1,7848.215843878803,Y,None,nogo,None,1,,,,,,,,,,,,,,,,,,,92,001,25,weiblich,Psychologie,2023-02-07_08h58.44.336,00_bat_bachelor,2022.2.4,59.97487597706895,
,,,,,,,,,,,,0,0,0,0,40,0,40,0,,,,,,,40,,,1,7850.0173105454305,X,d,go,d,1,0.2910799393430352,,,,,,,,,,,,,,,,,,92,001,25,weiblich,Psychologie,2023-02-07_08h58.44.336,00_bat_bachelor,2022.2.4,59.97487597706895,
,,,,,,,,,,,,0,0,0,0,41,0,41,0,,,,,,,41,,,1,7851.4182763636345,Y,l,go,l,1,0.29861157573759556,,,,,,,,,,,,,,,,,,92,001,25,weiblich,Psychologie,2023-02-07_08h58.44.336,00_bat_bachelor,2022.2.4,59.97487597706895,
,,,,,,,,,,,,0,0,0,0,42,0,42,0,,,,,,,42,,,1,7852.819399272674,Y,None,nogo,None,1,,,,,,,,,,,,,,,,,,,92,001,25,weiblich,Psychologie,2023-02-07_08h58.44.336,00_bat_bachelor,2022.2.4,59.97487597706895,
,,,,,,,,,,,,0,0,0,0,43,0,43,0,,,,,,,43,,,1,7854.620779151563,X,d,go,d,1,0.20014563633594662,,,,,,,,,,,,,,,,,,92,001,25,weiblich,Psychologie,2023-02-07_08h58.44.336,00_bat_bachelor,2022.2.4,59.97487597706895,
,,,,,,,,,,,,0,0,0,0,44,0,44,0,,,,,,,44,,,1,7855.921712000039,Y,l,go,l,1,0.2418261212296784,,,,,,,,,,,,,,,,,,92,001,25,weiblich,Psychologie,2023-02-07_08h58.44.336,00_bat_bachelor,2022.2.4,59.97487597706895,
,,,,,,,,,,,,0,0,0,0,45,0,45,0,,,,,,,45,,,1,7857.272847515182,X,d,go,d,1,0.3160219999263063,,,,,,,,,,,,,,,,,,92,001,25,weiblich,Psychologie,2023-02-07_08h58.44.336,00_bat_bachelor,2022.2.4,59.97487597706895,
,,,,,,,,,,,,0,0,0,0,46,0,46,0,,,,,,,46,,,1,7858.690592969651,X,None,nogo,l,0,0.2901582424528897,,,,,,,,,,,,,,,,,,92,001,25,weiblich,Psychologie,2023-02-07_08h58.44.336,00_bat_bachelor,2022.2.4,59.97487597706895,
,,,,,,,,,,,,0,0,0,0,47,0,47,0,,,,,,,47,,,1,7860.091264000046,Y,l,go,l,1,0.29691460612230003,,,,,,,,,,,,,,,,,,92,001,25,weiblich,Psychologie,2023-02-07_08h58.44.336,00_bat_bachelor,2022.2.4,59.97487597706895,
,,,,,,,,,,,,0,0,0,0,48,0,48,0,,,,,,,48,,,1,7861.492702060612,X,d,go,d,1,0.5124792121350765,,,,,,,,,,,,,,,,,,92,001,25,weiblich,Psychologie,2023-02-07_08h58.44.336,00_bat_bachelor,2022.2.4,59.97487597706895,
,,,,,,,,,,,,0,0,0,0,49,0,49,0,,,,,,,49,,,1,7863.110267151496,X,None,nogo,None,1,,,,,,,,,,,,,,,,,,,92,001,25,weiblich,Psychologie,2023-02-07_08h58.44.336,00_bat_bachelor,2022.2.4,59.97487597706895,
,,,,,,,,,,,,0,0,0,0,50,0,50,0,,,,,,,50,,,1,7864.911631515133,Y,l,go,l,1,0.37175533338449895,,,,,,,,,,,,,,,,,,92,001,25,weiblich,Psychologie,2023-02-07_08h58.44.336,00_bat_bachelor,2022.2.4,59.97487597706895,
,,,,,,,,,,,,0,0,0,0,51,0,51,0,,,,,,,51,,,1,7866.396646303008,X,d,go,d,1,0.39216406061314046,,,,,,,,,,,,,,,,,,92,001,25,weiblich,Psychologie,2023-02-07_08h58.44.336,00_bat_bachelor,2022.2.4,59.97487597706895,
,,,,,,,,,,,,0,0,0,0,52,0,52,0,,,,,,,52,,,1,7867.89780751511,X,None,nogo,None,1,,7868.698463515146,,,,,,,,,,,,,,,,,92,001,25,weiblich,Psychologie,2023-02-07_08h58.44.336,00_bat_bachelor,2022.2.4,59.97487597706895,
,,,,,,,,,,,,0,0,0,0,53,0,53,0,,,,,,,53,,,1,7869.699072484858,X,None,nogo,l,0,0.2893073334125802,,,,,,,,,,,,,,,,,,92,001,25,weiblich,Psychologie,2023-02-07_08h58.44.336,00_bat_bachelor,2022.2.4,59.97487597706895,
,,,,,,,,,,,,0,0,0,0,54,0,54,0,,,,,,,54,,,1,7871.100252606091,Y,l,go,l,1,0.34444527281448245,,,,,,,,,,,,,,,,,,92,001,25,weiblich,Psychologie,2023-02-07_08h58.44.336,00_bat_bachelor,2022.2.4,59.97487597706895,
,,,,,,,,,,,,0,0,0,0,55,0,55,0,,,,,,,55,,,1,7872.55137696967,X,d,go,None,0,,,,,,,,,,,,,,,,,,,92,001,25,weiblich,Psychologie,2023-02-07_08h58.44.336,00_bat_bachelor,2022.2.4,59.97487597706895,
,,,,,,,,,,,,0,0,0,0,56,0,56,0,,,,,,,56,,,1,7874.35284703027,X,None,nogo,None,1,,7875.1533847273095,,,,,,,,,,,,,,,,,92,001,25,weiblich,Psychologie,2023-02-07_08h58.44.336,00_bat_bachelor,2022.2.4,59.97487597706895,
,,,,,,,,,,,,0,0,0,0,57,0,57,0,,,,,,,57,,,1,7876.153941818164,Y,l,go,l,1,0.26596042420715094,,,,,,,,,,,,,,,,,,92,001,25,weiblich,Psychologie,2023-02-07_08h58.44.336,00_bat_bachelor,2022.2.4,59.97487597706895,
,,,,,,,,,,,,0,0,0,0,58,0,58,0,,,,,,,58,,,1,7877.52181672724,X,d,go,d,1,0.3219109696801752,,,,,,,,,,,,,,,,,,92,001,25,weiblich,Psychologie,2023-02-07_08h58.44.336,00_bat_bachelor,2022.2.4,59.97487597706895,
,,,,,,,,,,,,0,0,0,0,59,0,59,0,,,,,,,59,,,1,7878.95623999997,Y,l,go,l,1,0.3281398181570694,,,,,,,,,,,,,,,,,,92,001,25,weiblich,Psychologie,2023-02-07_08h58.44.336,00_bat_bachelor,2022.2.4,59.97487597706895,
,,,,,,,,,,,,0,0,0,0,60,0,60,0,,,,,,,60,,,1,7880.3906681211665,Y,None,nogo,None,1,,7881.191257212078,,,,,,,,,,,,,,,,,92,001,25,weiblich,Psychologie,2023-02-07_08h58.44.336,00_bat_bachelor,2022.2.4,59.97487597706895,
,,,,,,,,,,,,0,0,0,0,61,0,61,0,,,,,,,61,,,1,7882.191990302992,X,d,go,d,1,0.4050183636136353,,,,,,,,,,,,,,,,,,92,001,25,weiblich,Psychologie,2023-02-07_08h58.44.336,00_bat_bachelor,2022.2.4,59.97487597706895,
,,,,,,,,,,,,0,0,0,0,62,0,62,0,,,,,,,62,,,1,7883.709624242387,Y,l,go,l,1,0.5505572727415711,,,,,,,,,,,,,,,,,,92,001,25,weiblich,Psychologie,2023-02-07_08h58.44.336,00_bat_bachelor,2022.2.4,59.97487597706895,
,,,,,,,,,,,,0,0,0,0,63,0,63,0,,,,,,,63,,,1,7885.36056969699,Y,None,nogo,None,1,,,,,,,,,,,,,,,,,,,92,001,25,weiblich,Psychologie,2023-02-07_08h58.44.336,00_bat_bachelor,2022.2.4,59.97487597706895,
,,,,,,,,,,,,0,0,0,0,64,0,64,0,,,,,,,64,,,1,7887.162281212164,X,d,go,d,1,0.37808745459187776,,,,,,,,,,,,,,,,,,92,001,25,weiblich,Psychologie,2023-02-07_08h58.44.336,00_bat_bachelor,2022.2.4,59.97487597706895,
,,,,,,,,,,,,0,0,0,0,65,0,65,0,,,,,,,65,,,1,7888.64682521217,Y,l,go,l,1,0.26934806059580296,,,,,,,,,,,,,,,,,,92,001,25,weiblich,Psychologie,2023-02-07_08h58.44.336,00_bat_bachelor,2022.2.4,59.97487597706895,
,,,,,,,,,,,,0,0,0,0,66,0,66,0,,,,,,,66,,,1,7890.031048727222,Y,None,nogo,None,1,,,,,,,,,,,,,,,,,,,92,001,25,weiblich,Psychologie,2023-02-07_08h58.44.336,00_bat_bachelor,2022.2.4,59.97487597706895,
,,,,,,,,,,,,0,0,0,0,67,0,67,0,,,,,,,67,,,1,7891.832432484836,X,d,go,d,1,0.3316879393532872,,,,,,,,,,,,,,,,,,92,001,25,weiblich,Psychologie,2023-02-07_08h58.44.336,00_bat_bachelor,2022.2.4,59.97487597706895,
,,,,,,,,,,,,0,0,0,0,68,0,68,0,,,,,,,68,,,1,7893.2668644848745,Y,l,go,l,1,0.41751872724853456,,,,,,,,,,,,,,,,,,92,001,25,weiblich,Psychologie,2023-02-07_08h58.44.336,00_bat_bachelor,2022.2.4,59.97487597706895,
,,,,,,,,,,,,0,0,0,0,69,0,69,0,,,,,,,69,,,1,7894.801419151481,X,d,go,d,1,0.3072850303724408,,,,,,,,,,,,,,,,,,92,001,25,weiblich,Psychologie,2023-02-07_08h58.44.336,00_bat_bachelor,2022.2.4,59.97487597706895,
,,,,,,,,,,,,0,0,0,0,70,0,70,0,,,,,,,70,,,1,7896.219079272705,X,None,nogo,None,1,,,,,,,,,,,,,,,,,,,92,001,25,weiblich,Psychologie,2023-02-07_08h58.44.336,00_bat_bachelor,2022.2.4,59.97487597706895,
,,,,,,,,,,,,0,0,0,0,71,0,71,0,,,,,,,71,,,1,7898.020593454596,X,None,nogo,None,1,,,,,,,,,,,,,,,,,,,92,001,25,weiblich,Psychologie,2023-02-07_08h58.44.336,00_bat_bachelor,2022.2.4,59.97487597706895,
,,,,,,,,,,,,0,0,0,0,72,0,72,0,,,,,,,72,,,1,7899.8219219393795,Y,l,go,l,1,0.32656503038015217,,,,,,,,,,,,,,,,,,92,001,25,weiblich,Psychologie,2023-02-07_08h58.44.336,00_bat_bachelor,2022.2.4,59.97487597706895,
,,,,,,,,,,,,0,0,0,0,73,0,73,0,,,,,,,73,,,1,7901.25611103035,X,d,go,d,1,0.3002813939237967,,,,,,,,,,,,,,,,,,92,001,25,weiblich,Psychologie,2023-02-07_08h58.44.336,00_bat_bachelor,2022.2.4,59.97487597706895,
,,,,,,,,,,,,0,0,0,0,74,0,74,0,,,,,,,74,,,1,7902.657407030347,X,None,nogo,None,1,,,,,,,,,,,,,,,,,,,92,001,25,weiblich,Psychologie,2023-02-07_08h58.44.336,00_bat_bachelor,2022.2.4,59.97487597706895,
,,,,,,,,,,,,0,0,0,0,75,0,75,0,,,,,,,75,,,1,7904.458446060657,Y,l,go,l,1,0.32943775749299675,,,,,,,,,,,,,,,,,,92,001,25,weiblich,Psychologie,2023-02-07_08h58.44.336,00_bat_bachelor,2022.2.4,59.97487597706895,
,,,,,,,,,,,,0,0,0,0,76,0,76,0,,,,,,,76,,,1,7905.893256242387,X,d,go,d,1,0.30290345463436097,,,,,,,,,,,,,,,,,,92,001,25,weiblich,Psychologie,2023-02-07_08h58.44.336,00_bat_bachelor,2022.2.4,59.97487597706895,
,,,,,,,,,,,,0,0,0,0,77,0,77,0,,,,,,,77,,,1,7907.310983757605,X,None,nogo,None,1,,,,,,,,,,,,,,,,,,,92,001,25,weiblich,Psychologie,2023-02-07_08h58.44.336,00_bat_bachelor,2022.2.4,59.97487597706895,
,,,,,,,,,,,,0,0,0,0,78,0,78,0,,,,,,,78,,,1,7909.112256484805,Y,l,go,l,1,0.28360987873747945,,,,,,,,,,,,,,,,,,92,001,25,weiblich,Psychologie,2023-02-07_08h58.44.336,00_bat_bachelor,2022.2.4,59.97487597706895,
,,,,,,,,,,,,0,0,0,0,79,0,79,0,,,,,,,79,,,1,7910.496702060569,X,d,go,d,1,0.38722636364400387,,,,,,,,,,,,,,,,,,92,001,25,weiblich,Psychologie,2023-02-07_08h58.44.336,00_bat_bachelor,2022.2.4,59.97487597706895,
,,,,,,,,,,,,0,0,0,0,80,0,80,0,,,,,,,80,,,1,7911.9978118787985,Y,l,go,l,1,0.2792394545394927,,,,,,,,,,,,,,,,,,92,001,25,weiblich,Psychologie,2023-02-07_08h58.44.336,00_bat_bachelor,2022.2.4,59.97487597706895,
,,,,,,,,,,,,0,0,0,0,81,0,81,0,,,,,,,81,,,1,7913.382218666724,Y,None,nogo,None,1,,,,,,,,,,,,,,,,,,,92,001,25,weiblich,Psychologie,2023-02-07_08h58.44.336,00_bat_bachelor,2022.2.4,59.97487597706895,
,,,,,,,,,,,,0,0,0,0,82,0,82,0,,,,,,,82,,,1,7915.183582060621,X,d,go,d,1,0.35684866667725146,,,,,,,,,,,,,,,,,,92,001,25,weiblich,Psychologie,2023-02-07_08h58.44.336,00_bat_bachelor,2022.2.4,59.97487597706895,
,,,,,,,,,,,,0,0,0,0,83,0,83,0,,,,,,,83,,,1,7916.651508848532,Y,l,go,l,1,0.31360163644421846,,,,,,,,,,,,,,,,,,92,001,25,weiblich,Psychologie,2023-02-07_08h58.44.336,00_bat_bachelor,2022.2.4,59.97487597706895,
,,,,,,,,,,,,0,0,0,0,84,0,84,0,,,,,,,84,,,1,7918.069182545412,X,d,go,d,1,0.38334515143651515,,,,,,,,,,,,,,,,,,92,001,25,weiblich,Psychologie,2023-02-07_08h58.44.336,00_bat_bachelor,2022.2.4,59.97487597706895,
,,,,,,,,,,,,0,0,0,0,85,0,85,0,,,,,,,85,,,1,7919.553329454502,Y,l,go,l,1,0.32376212114468217,,,,,,,,,,,,,,,,,,92,001,25,weiblich,Psychologie,2023-02-07_08h58.44.336,00_bat_bachelor,2022.2.4,59.97487597706895,
,,,,,,,,,,,,0,0,0,0,86,0,86,0,,,,,,,86,,,1,7920.987913697027,X,d,go,d,1,0.47342563641723245,,,,,,,,,,,,,,,,,,92,001,25,weiblich,Psychologie,2023-02-07_08h58.44.336,00_bat_bachelor,2022.2.4,59.97487597706895,
,,,,,,,,,,,,0,0,0,0,87,0,87,0,,,,,,,87,,,1,7922.572247272707,Y,l,go,l,1,0.3599953333614394,,,,,,,,,,,,,,,,,,92,001,25,weiblich,Psychologie,2023-02-07_08h58.44.336,00_bat_bachelor,2022.2.4,59.97487597706895,
,,,,,,,,,,,,0,0,0,0,88,0,88,0,,,,,,,88,,,1,7924.040344727226,X,d,go,d,1,0.2836142424494028,,,,,,,,,,,,,,,,,,92,001,25,weiblich,Psychologie,2023-02-07_08h58.44.336,00_bat_bachelor,2022.2.4,59.97487597706895,
,,,,,,,,,,,,0,0,0,0,89,0,89,0,,,,,,,89,,,1,7925.424843151472,Y,l,go,l,1,0.32382563641294837,,,,,,,,,,,,,,,,,,92,001,25,weiblich,Psychologie,2023-02-07_08h58.44.336,00_bat_bachelor,2022.2.4,59.97487597706895,
,,,,,,,,,,,,0,0,0,0,90,0,90,0,,,,,,,90,,,1,7926.859424484894,X,d,go,d,1,0.36097521206829697,,,,,,,,,,,,,,,,,,92,001,25,weiblich,Psychologie,2023-02-07_08h58.44.336,00_bat_bachelor,2022.2.4,59.97487597706895,
,,,,,,,,,,,,0,0,0,0,91,0,91,0,,,,,,,91,,,1,7928.3269905454945,Y,l,go,l,1,0.2843604242661968,,,,,,,,,,,,,,,,,,92,001,25,weiblich,Psychologie,2023-02-07_08h58.44.336,00_bat_bachelor,2022.2.4,59.97487597706895,
,,,,,,,,,,,,0,0,0,0,92,0,92,0,,,,,,,92,,,1,7929.728212363669,X,d,go,d,1,0.3404564242810011,,,,,,,,,,,,,,,,,,92,001,25,weiblich,Psychologie,2023-02-07_08h58.44.336,00_bat_bachelor,2022.2.4,59.97487597706895,
,,,,,,,,,,,,0,0,0,0,93,0,93,0,,,,,,,93,,,1,7931.179345939425,Y,l,go,l,1,0.28085933334659785,,,,,,,,,,,,,,,,,,92,001,25,weiblich,Psychologie,2023-02-07_08h58.44.336,00_bat_bachelor,2022.2.4,59.97487597706895,
,,,,,,,,,,,,0,0,0,0,94,0,94,0,,,,,,,94,,,1,7932.563520969707,Y,None,nogo,d,0,0.41705181810539216,,,,,,,,,,,,,,,,,,92,001,25,weiblich,Psychologie,2023-02-07_08h58.44.336,00_bat_bachelor,2022.2.4,59.97487597706895,
,,,,,,,,,,,,0,0,0,0,95,0,95,0,,,,,,,95,,,1,7934.081357090967,Y,None,nogo,None,1,,,,,,,,,,,,,,,,,,,92,001,25,weiblich,Psychologie,2023-02-07_08h58.44.336,00_bat_bachelor,2022.2.4,59.97487597706895,
,,,,,,,,,,,,0,0,0,0,96,0,96,0,,,,,,,96,,,1,7935.882728242432,X,d,go,d,1,0.4089150909567252,,,,,,,,,,,,,,,,,,92,001,25,weiblich,Psychologie,2023-02-07_08h58.44.336,00_bat_bachelor,2022.2.4,59.97487597706895,
,,,,,,,,,,,,0,0,0,0,97,0,97,0,,,,,,,97,,,1,7937.4004998788005,Y,l,go,l,1,0.34771993942558765,,,,,,,,,,,,,,,,,,92,001,25,weiblich,Psychologie,2023-02-07_08h58.44.336,00_bat_bachelor,2022.2.4,59.97487597706895,
,,,,,,,,,,,,0,0,0,0,98,0,98,0,,,,,,,98,,,1,7938.851594666718,X,d,go,d,1,0.44907315156888217,,,,,,,,,,,,,,,,,,92,001,25,weiblich,Psychologie,2023-02-07_08h58.44.336,00_bat_bachelor,2022.2.4,59.97487597706895,
,,,,,,,,,,,,0,0,0,0,99,0,99,0,,,,,,,99,,,1,7940.402852363652,Y,l,go,l,1,0.3690411514835432,,,,,,,,,,,,,,,,,,92,001,25,weiblich,Psychologie,2023-02-07_08h58.44.336,00_bat_bachelor,2022.2.4,59.97487597706895,
,,,,,,,,,,,,0,0,0,0,100,0,100,0,,,,,,,100,,,1,7941.887353212107,X,d,go,d,1,0.4846164241898805,,,,,,,,,,,,,,,,,,92,001,25,weiblich,Psychologie,2023-02-07_08h58.44.336,00_bat_bachelor,2022.2.4,59.97487597706895,
,,,,,,,,,,,,0,0,0,0,101,0,101,0,,,,,,,101,,,1,7943.488389818231,Y,l,go,l,1,0.418810848495923,,,,,,,,,,,,,,,,,,92,001,25,weiblich,Psychologie,2023-02-07_08h58.44.336,00_bat_bachelor,2022.2.4,59.97487597706895,
,,,,,,,,,,,,0,0,0,0,102,0,102,0,,,,,,,102,,,1,7945.023053090903,Y,None,nogo,None,1,,,,,,,,,,,,,,,,,,,92,001,25,weiblich,Psychologie,2023-02-07_08h58.44.336,00_bat_bachelor,2022.2.4,59.97487597706895,
,,,,,,,,,,,,0,0,0,0,103,0,103,0,,,,,,,103,,,1,7946.82410036365,X,d,go,d,1,0.3965533940354362,,,,,,,,,,,,,,,,,,92,001,25,weiblich,Psychologie,2023-02-07_08h58.44.336,00_bat_bachelor,2022.2.4,59.97487597706895,
,,,,,,,,,,,,0,0,0,0,104,0,104,0,,,,,,,104,,,1,7948.325560242403,Y,l,go,l,1,0.38289521215483546,,,,,,,,,,,,,,,,,,92,001,25,weiblich,Psychologie,2023-02-07_08h58.44.336,00_bat_bachelor,2022.2.4,59.97487597706895,
,,,,,,,,,,,,0,0,0,0,105,0,105,0,,,,,,,105,,,1,7949.810095999972,X,d,go,d,1,0.32175727270077914,,,,,,,,,,,,,,,,,,92,001,25,weiblich,Psychologie,2023-02-07_08h58.44.336,00_bat_bachelor,2022.2.4,59.97487597706895,
,,,,,,,,,,,,0,0,0,0,106,0,106,0,,,,,,,106,,,1,7951.244136727299,X,None,nogo,None,1,,,,,,,,,,,,,,,,,,,92,001,25,weiblich,Psychologie,2023-02-07_08h58.44.336,00_bat_bachelor,2022.2.4,59.97487597706895,
,,,,,,,,,,,,0,0,0,0,107,0,107,0,,,,,,,107,,,1,7953.045868606074,Y,l,go,l,1,0.3019449090352282,,,,,,,,,,,,,,,,,,92,001,25,weiblich,Psychologie,2023-02-07_08h58.44.336,00_bat_bachelor,2022.2.4,59.97487597706895,
,,,,,,,,,,,,0,0,0,0,108,0,108,0,,,,,,,108,,,1,7954.463245575782,X,d,go,d,1,0.34182757581584156,,,,,,,,,,,,,,,,,,92,001,25,weiblich,Psychologie,2023-02-07_08h58.44.336,00_bat_bachelor,2022.2.4,59.97487597706895,
,,,,,,,,,,,,0,0,0,0,109,0,109,0,,,,,,,109,,,1,7955.914679272682,Y,l,go,l,1,0.34676672727800906,,,,,,,,,,,,,,,,,,92,001,25,weiblich,Psychologie,2023-02-07_08h58.44.336,00_bat_bachelor,2022.2.4,59.97487597706895,
,,,,,,,,,,,,0,0,0,0,110,0,110,0,,,,,,,110,,,1,7957.36571345455,X,d,go,d,1,0.43079000001307577,,,,,,,,,,,,,,,,,,92,001,25,weiblich,Psychologie,2023-02-07_08h58.44.336,00_bat_bachelor,2022.2.4,59.97487597706895,
,,,,,,,,,,,,0,0,0,0,111,0,111,0,,,,,,,111,,,1,7958.90031369694,X,None,nogo,None,1,,,,,,,,,,,,,,,,,,,92,001,25,weiblich,Psychologie,2023-02-07_08h58.44.336,00_bat_bachelor,2022.2.4,59.97487597706895,
,,,,,,,,,,,,0,0,0,0,112,0,112,0,,,,,,,112,,,1,7960.701501575764,Y,l,go,l,1,0.3268787272972986,,,,,,,,,,,,,,,,,,92,001,25,weiblich,Psychologie,2023-02-07_08h58.44.336,00_bat_bachelor,2022.2.4,59.97487597706895,
,,,,,,,,,,,,0,0,0,0,113,0,113,0,,,,,,,113,,,1,7962.136057212134,X,d,go,d,1,0.34765351517125964,,,,,,,,,,,,,,,,,,92,001,25,weiblich,Psychologie,2023-02-07_08h58.44.336,00_bat_bachelor,2022.2.4,59.97487597706895,
,,,,,,,,,,,,0,0,0,0,114,0,114,0,,,,,,,114,,,1,7963.587238303036,Y,l,go,l,1,0.43340769701171666,,,,,,,,,,,,,,,,,,92,001,25,weiblich,Psychologie,2023-02-07_08h58.44.336,00_bat_bachelor,2022.2.4,59.97487597706895,
,,,,,,,,,,,,0,0,0,0,115,0,115,0,,,,,,,115,,,1,7965.1213716364,X,d,go,d,1,0.35503339394927025,,,,,,,,,,,,,,,,,,92,001,25,weiblich,Psychologie,2023-02-07_08h58.44.336,00_bat_bachelor,2022.2.4,59.97487597706895,
,,,,,,,,,,,,0,0,0,0,116,0,116,0,,,,,,,116,,,1,7966.58934739395,X,None,nogo,None,1,,,,,,,,,,,,,,,,,,,92,001,25,weiblich,Psychologie,2023-02-07_08h58.44.336,00_bat_bachelor,2022.2.4,59.97487597706895,
,,,,,,,,,,,,0,0,0,0,117,0,117,0,,,,,,,117,,,1,7968.390905697015,Y,l,go,l,1,0.2697359394514933,,,,,,,,,,,,,,,,,,92,001,25,weiblich,Psychologie,2023-02-07_08h58.44.336,00_bat_bachelor,2022.2.4,59.97487597706895,
,,,,,,,,,,,,0,0,0,0,118,0,118,0,,,,,,,118,,,1,7969.775252848514,X,d,go,d,1,0.3892675758106634,,,,,,,,,,,,,,,,,,92,001,25,weiblich,Psychologie,2023-02-07_08h58.44.336,00_bat_bachelor,2022.2.4,59.97487597706895,
,,,,,,,,,,,,0,0,0,0,119,0,119,0,,,,,,,119,,,1,7971.2762991514755,X,None,nogo,None,1,,,,,,,,,,,,,,,,,,,92,001,25,weiblich,Psychologie,2023-02-07_08h58.44.336,00_bat_bachelor,2022.2.4,59.97487597706895,
,,,,,,,,,,,,0,0,0,0,120,0,120,0,,,,,,,120,,,1,7973.077420121175,Y,l,go,l,1,0.2545179999433458,,,,,,,,,,,,,,,,,,92,001,25,weiblich,Psychologie,2023-02-07_08h58.44.336,00_bat_bachelor,2022.2.4,59.97487597706895,
,,,,,,,,,,,,0,0,0,0,121,0,121,0,,,,,,,121,,,1,7974.445401212084,X,d,go,d,1,0.31144212116487324,,,,,,,,,,,,,,,,,,92,001,25,weiblich,Psychologie,2023-02-07_08h58.44.336,00_bat_bachelor,2022.2.4,59.97487597706895,
,,,,,,,,,,,,0,0,0,0,122,0,122,0,,,,,,,122,,,1,7975.86287951516,X,None,nogo,None,1,,,,,,,,,,,,,,,,,,,92,001,25,weiblich,Psychologie,2023-02-07_08h58.44.336,00_bat_bachelor,2022.2.4,59.97487597706895,
,,,,,,,,,,,,0,0,0,0,123,0,123,0,,,,,,,123,,,1,7977.664470787859,Y,l,go,l,1,0.32365642429795116,,,,,,,,,,,,,,,,,,92,001,25,weiblich,Psychologie,2023-02-07_08h58.44.336,00_bat_bachelor,2022.2.4,59.97487597706895,
,,,,,,,,,,,,0,0,0,0,124,0,124,0,,,,,,,124,,,1,7979.099085090915,X,d,go,d,1,0.34604672726709396,,,,,,,,,,,,,,,,,,92,001,25,weiblich,Psychologie,2023-02-07_08h58.44.336,00_bat_bachelor,2022.2.4,59.97487597706895,
,,,,,,,,,,,,0,0,0,0,125,0,125,0,,,,,,,125,,,1,7980.549793454586,Y,l,go,l,1,0.3661669696448371,,,,,,,,,,,,,,,,,,92,001,25,weiblich,Psychologie,2023-02-07_08h58.44.336,00_bat_bachelor,2022.2.4,59.97487597706895,
,,,,,,,,,,,,0,0,0,0,126,0,126,0,,,,,,,126,,,1,7982.017948121182,Y,None,nogo,d,0,0.2576341212261468,,,,,,,,,,,,,,,,,,92,001,25,weiblich,Psychologie,2023-02-07_08h58.44.336,00_bat_bachelor,2022.2.4,59.97487597706895,
,,,,,,,,,,,,0,0,0,0,127,0,127,0,,,,,,,127,,,1,7983.385388121242,X,d,go,d,1,0.31448309088591486,,,,,,,,,,,,,,,,,,92,001,25,weiblich,Psychologie,2023-02-07_08h58.44.336,00_bat_bachelor,2022.2.4,59.97487597706895,
,,,,,,,,,,,,0,0,0,0,128,0,128,0,,,,,,,128,,,1,7984.803304242436,Y,l,go,l,1,0.4002673332579434,,,,,,,,,,,,,,,,,,92,001,25,weiblich,Psychologie,2023-02-07_08h58.44.336,00_bat_bachelor,2022.2.4,59.97487597706895,
,,,,,,,,,,,,0,0,0,0,129,0,129,0,,,,,,,129,,,1,7986.304506666609,Y,None,nogo,None,1,,7987.104784969706,,,,,,,,,,,,,,,,,92,001,25,weiblich,Psychologie,2023-02-07_08h58.44.336,00_bat_bachelor,2022.2.4,59.97487597706895,
,,,,,,,,,,,,0,0,0,0,130,0,130,0,,,,,,,130,,,1,7988.105892848456,X,d,go,d,1,0.2825010302476585,,,,,,,,,,,,,,,,,,92,001,25,weiblich,Psychologie,2023-02-07_08h58.44.336,00_bat_bachelor,2022.2.4,59.97487597706895,
,,,,,,,,,,,,0,0,0,0,131,0,131,0,,,,,,,131,,,1,7989.489992727293,Y,l,go,l,1,0.3537398182088509,,,,,,,,,,,,,,,,,,92,001,25,weiblich,Psychologie,2023-02-07_08h58.44.336,00_bat_bachelor,2022.2.4,59.97487597706895,
,,,,,,,,,,,,0,0,0,0,132,0,132,0,,,,,,,132,,,1,7990.9580218181945,X,d,go,d,1,0.37430175754707307,,,,,,,,,,,,,,,,,,92,001,25,weiblich,Psychologie,2023-02-07_08h58.44.336,00_bat_bachelor,2022.2.4,59.97487597706895,
,,,,,,,,,,,,0,0,0,0,133,0,133,0,,,,,,,133,,,1,7992.442527030245,Y,l,go,l,1,0.2811812727013603,,,,,,,,,,,,,,,,,,92,001,25,weiblich,Psychologie,2023-02-07_08h58.44.336,00_bat_bachelor,2022.2.4,59.97487597706895,
,,,,,,,,,,,,0,0,0,0,134,0,134,0,,,,,,,134,,,1,7993.826958060614,X,d,go,d,1,0.5132753333309665,,,,,,,,,,,,,,,,,,92,001,25,weiblich,Psychologie,2023-02-07_08h58.44.336,00_bat_bachelor,2022.2.4,59.97487597706895,
,,,,,,,,,,,,0,0,0,0,135,0,135,0,,,,,,,135,,,1,7995.444827636355,Y,l,go,l,1,0.33528939401730895,,,,,,,,,,,,,,,,,,92,001,25,weiblich,Psychologie,2023-02-07_08h58.44.336,00_bat_bachelor,2022.2.4,59.97487597706895,
,,,,,,,,,,,,0,0,0,0,136,0,136,0,,,,,,,136,,,1,7996.895835636416,Y,None,nogo,None,1,,,,,,,,,,,,,,,,,,,92,001,25,weiblich,Psychologie,2023-02-07_08h58.44.336,00_bat_bachelor,2022.2.4,59.97487597706895,
,,,,,,,,,,,,0,0,0,0,137,0,137,0,,,,,,,137,,,1,7998.697214060579,X,d,go,d,1,0.3311240605544299,,,,,,,,,,,,,,,,,,92,001,25,weiblich,Psychologie,2023-02-07_08h58.44.336,00_bat_bachelor,2022.2.4,59.97487597706895,
,,,,,,,,,,,,0,0,0,0,138,0,138,0,,,,,,,138,,,1,8000.131689696922,Y,l,go,l,1,0.3054421211127192,,,,,,,,,,,,,,,,,,92,001,25,weiblich,Psychologie,2023-02-07_08h58.44.336,00_bat_bachelor,2022.2.4,59.97487597706895,
,,,,,,,,,,,,0,0,0,0,139,0,139,0,,,,,,,139,,,1,8001.549147151527,X,d,go,d,1,0.29591630306094885,,,,,,,,,,,,,,,,,,92,001,25,weiblich,Psychologie,2023-02-07_08h58.44.336,00_bat_bachelor,2022.2.4,59.97487597706895,
,,,,,,,,,,,,0,0,0,0,140,0,140,0,,,,,,,140,,,1,8002.9505934545305,Y,l,go,l,1,0.3492995756678283,,,,,,,,,,,,,,,,,,92,001,25,weiblich,Psychologie,2023-02-07_08h58.44.336,00_bat_bachelor,2022.2.4,59.97487597706895,
,,,,,,,,,,,,0,0,0,0,141,0,141,0,,,,,,,141,,,1,8004.401670303079,Y,None,nogo,None,1,,,,,,,,,,,,,,,,,,,92,001,25,weiblich,Psychologie,2023-02-07_08h58.44.336,00_bat_bachelor,2022.2.4,59.97487597706895,
,,,,,,,,,,,,0,0,0,0,142,0,142,0,,,,,,,142,,,1,8006.202809697017,X,d,go,d,1,0.39415533328428864,,,,,,,,,,,,,,,,,,92,001,25,weiblich,Psychologie,2023-02-07_08h58.44.336,00_bat_bachelor,2022.2.4,59.97487597706895,
,,,,,,,,,,,,0,0,0,0,143,0,143,0,,,,,,,143,,,1,8007.704074181849,Y,l,go,l,1,0.3004200605209917,,,,,,,,,,,,,,,,,,92,001,25,weiblich,Psychologie,2023-02-07_08h58.44.336,00_bat_bachelor,2022.2.4,59.97487597706895,
,,,,,,,,,,,,0,0,0,0,144,0,144,0,,,,,,,144,,,1,8009.105290181818,X,d,go,d,1,0.35448309080675244,,,,,,,,,,,,,,,,,,92,001,25,weiblich,Psychologie,2023-02-07_08h58.44.336,00_bat_bachelor,2022.2.4,59.97487597706895,
,,,,,,,,,,,,0,0,0,0,145,0,145,0,,,,,,,145,,,1,8010.573274666676,Y,l,go,l,1,0.26304939400870353,,,,,,,,,,,,,,,,,,92,001,25,weiblich,Psychologie,2023-02-07_08h58.44.336,00_bat_bachelor,2022.2.4,59.97487597706895,
,,,,,,,,,,,,0,0,0,0,146,0,146,0,,,,,,,146,,,1,8011.94038642419,X,d,go,d,1,0.3353979999665171,,,,,,,,,,,,,,,,,,92,001,25,weiblich,Psychologie,2023-02-07_08h58.44.336,00_bat_bachelor,2022.2.4,59.97487597706895,
,,,,,,,,,,,,0,0,0,0,147,0,147,0,,,,,,,147,,,1,8013.391755636316,X,None,nogo,None,1,,,,,,,,,,,,,,,,,,,92,001,25,weiblich,Psychologie,2023-02-07_08h58.44.336,00_bat_bachelor,2022.2.4,59.97487597706895,
,,,,,,,,,,,,0,0,0,0,148,0,148,0,,,,,,,148,,,1,8015.193072000053,X,None,nogo,None,1,,,,,,,,,,,,,,,,,,,92,001,25,weiblich,Psychologie,2023-02-07_08h58.44.336,00_bat_bachelor,2022.2.4,59.97487597706895,
,,,,,,,,,,,,0,0,0,0,149,0,149,0,,,,,,,149,,,1,8016.9944698181935,Y,l,go,l,1,0.3057892727665603,,,,,,,,,,,,,,,,,,92,001,25,weiblich,Psychologie,2023-02-07_08h58.44.336,00_bat_bachelor,2022.2.4,59.97487597706895,
,,,,,,,,,,,,0,0,0,0,150,0,150,0,,,,,,,150,,,1,8018.4123059393605,X,d,go,d,1,0.29641327261924744,,,,,,,,,,,,,,,,,,92,001,25,weiblich,Psychologie,2023-02-07_08h58.44.336,00_bat_bachelor,2022.2.4,59.97487597706895,
,,,,,,,,,,,,0,0,0,0,151,0,151,0,,,,,,,151,,,1,8019.8131010909565,X,None,nogo,None,1,,,,,,,,,,,,,,,,,,,92,001,25,weiblich,Psychologie,2023-02-07_08h58.44.336,00_bat_bachelor,2022.2.4,59.97487597706895,
,,,,,,,,,,,,0,0,0,0,152,0,152,0,,,,,,,152,,,1,8021.614738424192,Y,l,go,l,1,0.2943003030959517,,,,,,,,,,,,,,,,,,92,001,25,weiblich,Psychologie,2023-02-07_08h58.44.336,00_bat_bachelor,2022.2.4,59.97487597706895,
,,,,,,,,,,,,0,0,0,0,153,0,153,0,,,,,,,153,,,1,8023.015807030257,X,d,go,d,1,0.33191339403856546,,,,,,,,,,,,,,,,,,92,001,25,weiblich,Psychologie,2023-02-07_08h58.44.336,00_bat_bachelor,2022.2.4,59.97487597706895,
,,,,,,,,,,,,0,0,0,0,154,0,154,0,,,,,,,154,,,1,8024.450099393958,X,None,nogo,None,1,,8025.250884363661,,,,,,,,,,,,,,,,,92,001,25,weiblich,Psychologie,2023-02-07_08h58.44.336,00_bat_bachelor,2022.2.4,59.97487597706895,
,,,,,,,,,,,,0,0,0,0,155,0,155,0,,,,,,,155,,,1,8026.251325090881,Y,l,go,l,1,0.32913569698575884,,,,,,,,,,,,,,,,,,92,001,25,weiblich,Psychologie,2023-02-07_08h58.44.336,00_bat_bachelor,2022.2.4,59.97487597706895,
,,,,,,,,,,,,0,0,0,0,156,0,156,0,,,,,,,156,,,1,8027.686071272707,X,d,go,d,1,0.38247387879528105,,,,,,,,,,,,,,,,,,92,001,25,weiblich,Psychologie,2023-02-07_08h58.44.336,00_bat_bachelor,2022.2.4,59.97487597706895,
,,,,,,,,,,,,0,0,0,0,157,0,157,0,,,,,,,157,,,1,8029.170492121251,Y,l,go,l,1,0.40191678784321994,,,,,,,,,,,,,,,,,,92,001,25,weiblich,Psychologie,2023-02-07_08h58.44.336,00_bat_bachelor,2022.2.4,59.97487597706895,
,,,,,,,,,,,,0,0,0,0,158,0,158,0,,,,,,,158,,,1,8030.688019878813,Y,None,nogo,None,1,,,,,,,,,,,,,,,,,,,92,001,25,weiblich,Psychologie,2023-02-07_08h58.44.336,00_bat_bachelor,2022.2.4,59.97487597706895,
,,,,,,,,,,,,0,0,0,0,159,0,159,0,,,,,,,159,,,1,8032.489735757583,X,d,go,d,1,0.3310687879566103,,,,,,,,,,,,,,,,,,92,001,25,weiblich,Psychologie,2023-02-07_08h58.44.336,00_bat_bachelor,2022.2.4,59.97487597706895,
,,,,,,,,,,,,0,0,0,0,160,0,160,0,,,,,,,160,,,1,8033.923849696992,Y,l,go,l,1,0.4486925455275923,,,,,,,,,,,,,,,,,,92,001,25,weiblich,Psychologie,2023-02-07_08h58.44.336,00_bat_bachelor,2022.2.4,59.97487597706895,
,,,,,,,,,,,,0,0,0,0,161,0,161,0,,,,,,,161,,,1,8035.4752494544955,Y,None,nogo,None,1,,,,,,,,,,,,,,,,,,,92,001,25,weiblich,Psychologie,2023-02-07_08h58.44.336,00_bat_bachelor,2022.2.4,59.97487597706895,
,,,,,,,,,,,,0,0,0,0,162,0,162,0,,,,,,,162,,,1,8037.276720484835,X,d,go,d,1,0.31155412120278925,,,,,,,,,,,,,,,,,,92,001,25,weiblich,Psychologie,2023-02-07_08h58.44.336,00_bat_bachelor,2022.2.4,59.97487597706895,
,,,,,,,,,,,,0,0,0,0,163,0,163,0,,,,,,,163,,,1,8038.6944121212,Y,l,go,l,1,0.3823361818213016,,,,,,,,,,,,,,,,,,92,001,25,weiblich,Psychologie,2023-02-07_08h58.44.336,00_bat_bachelor,2022.2.4,59.97487597706895,
,,,,,,,,,,,,0,0,0,0,164,0,164,0,,,,,,,164,,,1,8040.178874666686,X,d,go,d,1,0.32082393940072507,,,,,,,,,,,,,,,,,,92,001,25,weiblich,Psychologie,2023-02-07_08h58.44.336,00_bat_bachelor,2022.2.4,59.97487597706895,
,,,,,,,,,,,,0,0,0,0,165,0,165,0,,,,,,,165,,,1,8041.613273212104,Y,l,go,l,1,0.3429630908649415,,,,,,,,,,,,,,,,,,92,001,25,weiblich,Psychologie,2023-02-07_08h58.44.336,00_bat_bachelor,2022.2.4,59.97487597706895,
,,,,,,,,,,,,0,0,0,0,166,0,166,0,,,,,,,166,,,1,8043.0644029091345,Y,None,nogo,None,1,,,,,,,,,,,,,,,,,,,92,001,25,weiblich,Psychologie,2023-02-07_08h58.44.336,00_bat_bachelor,2022.2.4,59.97487597706895,
,,,,,,,,,,,,0,0,0,0,167,0,167,0,,,,,,,167,,,1,8044.865756606101,X,d,go,d,1,0.2435376363573596,,,,,,,,,,,,,,,,,,92,001,25,weiblich,Psychologie,2023-02-07_08h58.44.336,00_bat_bachelor,2022.2.4,59.97487597706895,
,,,,,,,,,,,,0,0,0,0,168,0,168,0,,,,,,,168,,,1,8046.216757818125,Y,l,go,l,1,0.2837533939164132,,,,,,,,,,,,,,,,,,92,001,25,weiblich,Psychologie,2023-02-07_08h58.44.336,00_bat_bachelor,2022.2.4,59.97487597706895,
,,,,,,,,,,,,0,0,0,0,169,0,169,0,,,,,,,169,,,1,8047.601262060576,X,d,go,d,1,0.2913131514796987,,,,,,,,,,,,,,,,,,92,001,25,weiblich,Psychologie,2023-02-07_08h58.44.336,00_bat_bachelor,2022.2.4,59.97487597706895,
,,,,,,,,,,,,0,0,0,0,170,0,170,0,,,,,,,170,,,1,8049.002224000054,Y,l,go,l,1,0.2986222424078733,,,,,,,,,,,,,,,,,,92,001,25,weiblich,Psychologie,2023-02-07_08h58.44.336,00_bat_bachelor,2022.2.4,59.97487597706895,
,,,,,,,,,,,,0,0,0,0,171,0,171,0,,,,,,,171,,,1,8050.403303272673,X,d,go,d,1,0.32071096973959357,,,,,,,,,,,,,,,,,,92,001,25,weiblich,Psychologie,2023-02-07_08h58.44.336,00_bat_bachelor,2022.2.4,59.97487597706895,
,,,,,,,,,,,,0,0,0,0,172,0,172,0,,,,,,,172,,,1,8051.837823515176,X,None,nogo,None,1,,8052.638080969686,,,,,,,,,,,,,,,,,92,001,25,weiblich,Psychologie,2023-02-07_08h58.44.336,00_bat_bachelor,2022.2.4,59.97487597706895,
,,,,,,,,,,,,0,0,0,0,173,0,173,0,,,,,,,173,,,1,8053.639088969678,Y,l,go,l,1,0.23716236359905452,,,,,,,,,,,,,,,,,,92,001,25,weiblich,Psychologie,2023-02-07_08h58.44.336,00_bat_bachelor,2022.2.4,59.97487597706895,
,,,,,,,,,,,,0,0,0,0,174,0,174,0,,,,,,,174,,,1,8054.990152242477,X,d,go,d,1,0.4700670908205211,,,,,,,,,,,,,,,,,,92,001,25,weiblich,Psychologie,2023-02-07_08h58.44.336,00_bat_bachelor,2022.2.4,59.97487597706895,
,,,,,,,,,,,,0,0,0,0,175,0,175,0,,,,,,,175,,,1,8056.574698181823,Y,l,go,l,1,0.29386151512153447,,,,,,,,,,,,,,,,,,92,001,25,weiblich,Psychologie,2023-02-07_08h58.44.336,00_bat_bachelor,2022.2.4,59.97487597706895,
,,,,,,,,,,,,0,0,0,0,176,0,176,0,,,,,,,176,,,1,8057.975724606076,Y,None,nogo,None,1,,,,,,,,,,,,,,,,,,,92,001,25,weiblich,Psychologie,2023-02-07_08h58.44.336,00_bat_bachelor,2022.2.4,59.97487597706895,
,,,,,,,,,,,,0,0,0,0,177,0,177,0,,,,,,,177,,,1,8059.777116606012,X,d,go,d,1,0.2276127878576517,,,,,,,,,,,,,,,,,,92,001,25,weiblich,Psychologie,2023-02-07_08h58.44.336,00_bat_bachelor,2022.2.4,59.97487597706895,
,,,,,,,,,,,,0,0,0,0,178,0,178,0,,,,,,,178,,,1,8061.111453575781,Y,l,go,l,1,0.38147024251520634,,,,,,,,,,,,,,,,,,92,001,25,weiblich,Psychologie,2023-02-07_08h58.44.336,00_bat_bachelor,2022.2.4,59.97487597706895,
,,,,,,,,,,,,0,0,0,0,179,0,179,0,,,,,,,179,,,1,8062.596003878745,Y,None,nogo,None,1,,,,,,,,,,,,,,,,,,,92,001,25,weiblich,Psychologie,2023-02-07_08h58.44.336,00_bat_bachelor,2022.2.4,59.97487597706895,
,,,,,,,,,,,,0,0,0,0,180,0,180,0,,,,,,,180,,,1,8064.3974070303375,X,d,go,d,1,0.2799948485335335,,,,,,,,,,,,,,,,,,92,001,25,weiblich,Psychologie,2023-02-07_08h58.44.336,00_bat_bachelor,2022.2.4,59.97487597706895,
,,,,,,,,,,,,0,0,0,0,181,0,181,0,,,,,,,181,,,1,8065.781780848512,Y,l,go,l,1,0.31784842431079596,,,,,,,,,,,,,,,,,,92,001,25,weiblich,Psychologie,2023-02-07_08h58.44.336,00_bat_bachelor,2022.2.4,59.97487597706895,
,,,,,,,,,,,,0,0,0,0,182,0,182,0,,,,,,,182,,,1,8067.216198787908,X,d,go,d,1,0.3722028484335169,,,,,,,,,,,,,,,,,,92,001,25,weiblich,Psychologie,2023-02-07_08h58.44.336,00_bat_bachelor,2022.2.4,59.97487597706895,
,,,,,,,,,,,,0,0,0,0,183,0,183,0,,,,,,,183,,,1,8068.700713697006,Y,l,go,l,1,0.5671982424100861,,,,,,,,,,,,,,,,,,92,001,25,weiblich,Psychologie,2023-02-07_08h58.44.336,00_bat_bachelor,2022.2.4,59.97487597706895,
,,,,,,,,,,,,0,0,0,0,184,0,184,0,,,,,,,184,,,1,8070.368555151508,X,d,go,d,1,0.29210103023797274,,,,,,,,,,,,,,,,,,92,001,25,weiblich,Psychologie,2023-02-07_08h58.44.336,00_bat_bachelor,2022.2.4,59.97487597706895,
,,,,,,,,,,,,0,0,0,0,185,0,185,0,,,,,,,185,,,1,8071.769648969639,X,None,nogo,None,1,,,,,,,,,,,,,,,,,,,92,001,25,weiblich,Psychologie,2023-02-07_08h58.44.336,00_bat_bachelor,2022.2.4,59.97487597706895,
,,,,,,,,,,,,0,0,0,0,186,0,186,0,,,,,,,186,,,1,8073.570979393902,Y,l,go,l,1,0.2886755757499486,,,,,,,,,,,,,,,,,,92,001,25,weiblich,Psychologie,2023-02-07_08h58.44.336,00_bat_bachelor,2022.2.4,59.97487597706895,
,,,,,,,,,,,,0,0,0,0,187,0,187,0,,,,,,,187,,,1,8074.972112969728,X,d,go,d,1,0.4565233333269134,,,,,,,,,,,,,,,,,,92,001,25,weiblich,Psychologie,2023-02-07_08h58.44.336,00_bat_bachelor,2022.2.4,59.97487597706895,
,,,,,,,,,,,,0,0,0,0,188,0,188,0,,,,,,,188,,,1,8076.539889939362,X,None,nogo,None,1,,,,,,,,,,,,,,,,,,,92,001,25,weiblich,Psychologie,2023-02-07_08h58.44.336,00_bat_bachelor,2022.2.4,59.97487597706895,
,,,,,,,,,,,,0,0,0,0,189,0,189,0,,,,,,,189,,,1,8078.3414191515185,Y,l,go,l,1,0.2551904848078266,,,,,,,,,,,,,,,,,,92,001,25,weiblich,Psychologie,2023-02-07_08h58.44.336,00_bat_bachelor,2022.2.4,59.97487597706895,
,,,,,,,,,,,,0,0,0,0,190,0,190,0,,,,,,,190,,,1,8079.7087806060445,X,d,go,d,1,0.43970345449633896,,,,,,,,,,,,,,,,,,92,001,25,weiblich,Psychologie,2023-02-07_08h58.44.336,00_bat_bachelor,2022.2.4,59.97487597706895,
,,,,,,,,,,,,0,0,0,0,191,0,191,0,,,,,,,191,,,1,8081.259919999982,Y,l,go,l,1,0.39225860603619367,,,,,,,,,,,,,,,,,,92,001,25,weiblich,Psychologie,2023-02-07_08h58.44.336,00_bat_bachelor,2022.2.4,59.97487597706895,
,,,,,,,,,,,,0,0,0,0,192,0,192,0,,,,,,,192,,,1,8082.761219878797,X,d,go,d,1,0.36413545452523977,,,,,,,,,,,,,,,,,,92,001,25,weiblich,Psychologie,2023-02-07_08h58.44.336,00_bat_bachelor,2022.2.4,59.97487597706895,
,,,,,,,,,,,,0,0,0,0,193,0,193,0,,,,,,,193,,,1,8084.229101575795,Y,l,go,l,1,0.2713810303248465,,,,,,,,,,,,,,,,,,92,001,25,weiblich,Psychologie,2023-02-07_08h58.44.336,00_bat_bachelor,2022.2.4,59.97487597706895,
,,,,,,,,,,,,0,0,0,0,194,0,194,0,,,,,,,194,,,1,8085.613400242408,X,d,go,d,1,0.3113999394699931,,,,,,,,,,,,,,,,,,92,001,25,weiblich,Psychologie,2023-02-07_08h58.44.336,00_bat_bachelor,2022.2.4,59.97487597706895,
,,,,,,,,,,,,0,0,0,0,195,0,195,0,,,,,,,195,,,1,8087.03134690912,X,None,nogo,None,1,,,,,,,,,,,,,,,,,,,92,001,25,weiblich,Psychologie,2023-02-07_08h58.44.336,00_bat_bachelor,2022.2.4,59.97487597706895,
,,,,,,,,,,,,0,0,0,0,196,0,196,0,,,,,,,196,,,1,8088.832326303003,X,None,nogo,None,1,,8089.633246060577,,,,,,,,,,,,,,,,,92,001,25,weiblich,Psychologie,2023-02-07_08h58.44.336,00_bat_bachelor,2022.2.4,59.97487597706895,
,,,,,,,,,,,,0,0,0,0,197,0,197,0,,,,,,,197,,,1,8090.63403975754,Y,l,go,l,1,0.2651909696869552,,,,,,,,,,,,,,,,,,92,001,25,weiblich,Psychologie,2023-02-07_08h58.44.336,00_bat_bachelor,2022.2.4,59.97487597706895,
,,,,,,,,,,,,0,0,0,0,198,0,198,0,,,,,,,198,,,1,8092.002164848498,X,d,go,d,1,0.25649521208833903,,,,,,,,,,,,,,,,,,92,001,25,weiblich,Psychologie,2023-02-07_08h58.44.336,00_bat_bachelor,2022.2.4,59.97487597706895,
,,,,,,,,,,,,0,0,0,0,199,0,199,0,,,,,,,199,,,1,8093.386786909075,Y,l,go,l,1,0.29603848489932716,,,,,,,,,,,,,,,,,,92,001,25,weiblich,Psychologie,2023-02-07_08h58.44.336,00_bat_bachelor,2022.2.4,59.97487597706895,
,,,,,,,,,,,,0,0,0,0,200,0,200,0,,,,,,,200,,,1,8094.804532848531,Y,None,nogo,d,0,0.27146684855688363,,,,,,,,,,,,,,,,,,92,001,25,weiblich,Psychologie,2023-02-07_08h58.44.336,00_bat_bachelor,2022.2.4,59.97487597706895,
,,,,,,,,,,,,0,0,0,0,201,0,201,0,,,,,,,201,,,1,8096.188939151471,X,d,go,d,1,0.32677206059452146,,,,,,,,,,,,,,,,,,92,001,25,weiblich,Psychologie,2023-02-07_08h58.44.336,00_bat_bachelor,2022.2.4,59.97487597706895,
,,,,,,,,,,,,0,0,0,0,202,0,202,0,,,,,,,202,,,1,8097.639984484878,Y,l,go,l,1,0.5395933939144015,,,,,,,,,,,,,,,,,,92,001,25,weiblich,Psychologie,2023-02-07_08h58.44.336,00_bat_bachelor,2022.2.4,59.97487597706895,
,,,,,,,,,,,,0,0,0,0,203,0,203,0,,,,,,,203,,,1,8099.30789672723,X,d,go,d,1,0.40729715151246637,,,,,,,,,,,,,,,,,,92,001,25,weiblich,Psychologie,2023-02-07_08h58.44.336,00_bat_bachelor,2022.2.4,59.97487597706895,
,,,,,,,,,,,,0,0,0,0,204,0,204,0,,,,,,,204,,,1,8100.84249793936,X,None,nogo,None,1,,8101.642946909065,,,,,,,,,,,,,,,,,92,001,25,weiblich,Psychologie,2023-02-07_08h58.44.336,00_bat_bachelor,2022.2.4,59.97487597706895,
,,,,,,,,,,,,0,0,0,0,205,0,205,0,,,,,,,205,,,1,8102.643827878754,Y,l,go,l,1,0.30311048484873027,,,,,,,,,,,,,,,,,,92,001,25,weiblich,Psychologie,2023-02-07_08h58.44.336,00_bat_bachelor,2022.2.4,59.97487597706895,
,,,,,,,,,,,,0,0,0,0,206,0,206,0,,,,,,,206,,,1,8104.0782826666255,X,d,go,d,1,0.37361763638909906,,,,,,,,,,,,,,,,,,92,001,25,weiblich,Psychologie,2023-02-07_08h58.44.336,00_bat_bachelor,2022.2.4,59.97487597706895,
,,,,,,,,,,,,0,0,0,0,207,0,207,0,,,,,,,207,,,1,8105.562601212063,X,None,nogo,None,1,,8106.36338084843,,,,,,,,,,,,,,,,,92,001,25,weiblich,Psychologie,2023-02-07_08h58.44.336,00_bat_bachelor,2022.2.4,59.97487597706895,
,,,,,,,,,,,,0,0,0,0,208,0,208,0,,,,,,,208,,,1,8107.364135757554,Y,l,go,l,1,0.24004042416345328,,,,,,,,,,,,,,,,,,92,001,25,weiblich,Psychologie,2023-02-07_08h58.44.336,00_bat_bachelor,2022.2.4,59.97487597706895,
,,,,,,,,,,,,0,0,0,0,209,0,209,0,,,,,,,209,,,1,8108.748303515138,X,d,go,d,1,0.31175824243109673,,,,,,,,,,,,,,,,,,92,001,25,weiblich,Psychologie,2023-02-07_08h58.44.336,00_bat_bachelor,2022.2.4,59.97487597706895,
,,,,,,,,,,,,0,0,0,0,210,0,210,0,,,,,,,210,,,1,8110.16573624243,Y,l,go,l,1,0.36563751520588994,,,,,,,,,,,,,,,,,,92,001,25,weiblich,Psychologie,2023-02-07_08h58.44.336,00_bat_bachelor,2022.2.4,59.97487597706895,
,,,,,,,,,,,,0,0,0,0,211,0,211,0,,,,,,,211,,,1,8111.650322424248,X,d,go,d,1,0.2732724242378026,,,,,,,,,,,,,,,,,,92,001,25,weiblich,Psychologie,2023-02-07_08h58.44.336,00_bat_bachelor,2022.2.4,59.97487597706895,
,,,,,,,,,,,,0,0,0,0,212,0,212,0,,,,,,,212,,,1,8113.034730666666,Y,l,go,l,1,0.4089058788958937,,,,,,,,,,,,,,,,,,92,001,25,weiblich,Psychologie,2023-02-07_08h58.44.336,00_bat_bachelor,2022.2.4,59.97487597706895,
,,,,,,,,,,,,0,0,0,0,213,0,213,0,,,,,,,213,,,1,8114.55260024243,Y,None,nogo,None,1,,8115.35310351511,,,,,,,,,,,,,,,,,92,001,25,weiblich,Psychologie,2023-02-07_08h58.44.336,00_bat_bachelor,2022.2.4,59.97487597706895,
,,,,,,,,,,,,0,0,0,0,214,0,214,0,,,,,,,214,,,1,8116.353790060617,X,d,go,d,1,0.33847048482857645,,,,,,,,,,,,,,,,,,92,001,25,weiblich,Psychologie,2023-02-07_08h58.44.336,00_bat_bachelor,2022.2.4,59.97487597706895,
,,,,,,,,,,,,0,0,0,0,215,0,215,0,,,,,,,215,,,1,8117.805174303008,Y,l,go,l,1,0.278619333403185,,,,,,,,,,,,,,,,,,92,001,25,weiblich,Psychologie,2023-02-07_08h58.44.336,00_bat_bachelor,2022.2.4,59.97487597706895,
,,,,,,,,,,,,0,0,0,0,216,0,216,0,,,,,,,216,,,1,8119.189499151544,X,d,go,d,1,0.3020166667411104,,,,,,,,,,,,,,,,,,92,001,25,weiblich,Psychologie,2023-02-07_08h58.44.336,00_bat_bachelor,2022.2.4,59.97487597706895,
,,,,,,,,,,,,0,0,0,0,217,0,217,0,,,,,,,217,,,1,8120.623825454502,Y,l,go,l,1,0.30815727275330573,,,,,,,,,,,,,,,,,,92,001,25,weiblich,Psychologie,2023-02-07_08h58.44.336,00_bat_bachelor,2022.2.4,59.97487597706895,
,,,,,,,,,,,,0,0,0,0,218,0,218,0,,,,,,,218,,,1,8122.05831806059,Y,None,nogo,None,1,,8122.858929939452,,,,,,,,,,,,,,,,,92,001,25,weiblich,Psychologie,2023-02-07_08h58.44.336,00_bat_bachelor,2022.2.4,59.97487597706895,
,,,,,,,,,,,,0,0,0,0,219,0,219,0,,,,,,,219,,,1,8123.859535515192,X,d,go,d,1,0.2727924243081361,,,,,,,,,,,,,,,,,,92,001,25,weiblich,Psychologie,2023-02-07_08h58.44.336,00_bat_bachelor,2022.2.4,59.97487597706895,
,,,,,,,,,,,,0,0,0,0,220,0,220,0,,,,,,,220,,,1,8125.243869090918,Y,l,go,l,1,0.3122518181335181,,,,,,,,,,,,,,,,,,92,001,25,weiblich,Psychologie,2023-02-07_08h58.44.336,00_bat_bachelor,2022.2.4,59.97487597706895,
,,,,,,,,,,,,0,0,0,0,221,0,221,0,,,,,,,221,,,1,8126.661808969686,X,d,go,d,1,0.3338164242450148,,,,,,,,,,,,,,,,,,92,001,25,weiblich,Psychologie,2023-02-07_08h58.44.336,00_bat_bachelor,2022.2.4,59.97487597706895,
,,,,,,,,,,,,0,0,0,0,222,0,222,0,,,,,,,222,,,1,8128.096060606069,Y,l,go,l,1,0.4843376363860443,,,,,,,,,,,,,,,,,,92,001,25,weiblich,Psychologie,2023-02-07_08h58.44.336,00_bat_bachelor,2022.2.4,59.97487597706895,
,,,,,,,,,,,,0,0,0,0,223,0,223,0,,,,,,,223,,,1,8129.6974317575805,Y,None,nogo,None,1,,8130.498048969661,,,,,,,,,,,,,,,,,92,001,25,weiblich,Psychologie,2023-02-07_08h58.44.336,00_bat_bachelor,2022.2.4,59.97487597706895,
,,,,,,,,,,,,0,0,0,0,224,0,224,0,,,,,,,224,,,1,8131.498914909083,X,d,go,d,1,0.26513715146575123,,,,,,,,,,,,,,,,,,92,001,25,weiblich,Psychologie,2023-02-07_08h58.44.336,00_bat_bachelor,2022.2.4,59.97487597706895,
,,,,,,,,,,,,0,0,0,0,225,0,225,0,,,,,,,225,,,1,8132.883397333324,Y,l,go,l,1,0.2735313333105296,,,,,,,,,,,,,,,,,,92,001,25,weiblich,Psychologie,2023-02-07_08h58.44.336,00_bat_bachelor,2022.2.4,59.97487597706895,
,,,,,,,,,,,,0,0,0,0,226,0,226,0,,,,,,,226,,,1,8134.267790545477,X,d,go,d,1,0.37775969691574574,,,,,,,,,,,,,,,,,,92,001,25,weiblich,Psychologie,2023-02-07_08h58.44.336,00_bat_bachelor,2022.2.4,59.97487597706895,
,,,,,,,,,,,,0,0,0,0,227,0,227,0,,,,,,,227,,,1,8135.752065939363,X,None,nogo,l,0,0.2050353332888335,,,,,,,,,,,,,,,,,,92,001,25,weiblich,Psychologie,2023-02-07_08h58.44.336,00_bat_bachelor,2022.2.4,59.97487597706895,
,,,,,,,,,,,,0,0,0,0,228,0,228,0,,,,,,,228,,,1,8137.06971587881,Y,l,go,l,1,0.2790988484630361,,,,,,,,,,,,,,,,,,92,001,25,weiblich,Psychologie,2023-02-07_08h58.44.336,00_bat_bachelor,2022.2.4,59.97487597706895,
,,,,,,,,,,,,0,0,0,0,229,0,229,0,,,,,,,229,,,1,8138.470548848505,X,d,go,d,1,0.4472874546190724,,,,,,,,,,,,,,,,,,92,001,25,weiblich,Psychologie,2023-02-07_08h58.44.336,00_bat_bachelor,2022.2.4,59.97487597706895,
,,,,,,,,,,,,0,0,0,0,230,0,230,0,,,,,,,230,,,1,8140.021732848487,X,None,nogo,d,0,0.4465820000041276,,,,,,,,,,,,,,,,,,92,001,25,weiblich,Psychologie,2023-02-07_08h58.44.336,00_bat_bachelor,2022.2.4,59.97487597706895,
,,,,,,,,,,,,0,0,0,0,231,0,231,0,,,,,,,231,,,1,8141.572547393967,Y,l,go,l,1,0.6081873333314434,,,,,,,,,,,,,,,,,,92,001,25,weiblich,Psychologie,2023-02-07_08h58.44.336,00_bat_bachelor,2022.2.4,59.97487597706895,
,,,,,,,,,,,,0,0,0,0,232,0,232,0,,,,,,,232,,,1,8143.290542545496,X,d,go,d,1,0.4895376364002004,,,,,,,,,,,,,,,,,,92,001,25,weiblich,Psychologie,2023-02-07_08h58.44.336,00_bat_bachelor,2022.2.4,59.97487597706895,
,,,,,,,,,,,,0,0,0,0,233,0,233,0,,,,,,,233,,,1,8144.8919127272675,X,None,nogo,None,1,,8145.69235878787,,,,,,,,,,,,,,,,,92,001,25,weiblich,Psychologie,2023-02-07_08h58.44.336,00_bat_bachelor,2022.2.4,59.97487597706895,
,,,,,,,,,,,,0,0,0,0,234,0,234,0,,,,,,,234,,,1,8146.69311854546,Y,l,go,d,0,0.3984443030785769,,,,,,,,,,,,,,,,,,92,001,25,weiblich,Psychologie,2023-02-07_08h58.44.336,00_bat_bachelor,2022.2.4,59.97487597706895,
,,,,,,,,,,,,0,0,0,0,235,0,235,0,,,,,,,235,,,1,8148.194580848445,X,d,go,d,1,0.25906006060540676,,,,,,,,,,,,,,,,,,92,001,25,weiblich,Psychologie,2023-02-07_08h58.44.336,00_bat_bachelor,2022.2.4,59.97487597706895,
,,,,,,,,,,,,0,0,0,0,236,0,236,0,,,,,,,236,,,1,8149.562252121163,Y,l,go,l,1,0.3790663636755198,,,,,,,,,,,,,,,,,,92,001,25,weiblich,Psychologie,2023-02-07_08h58.44.336,00_bat_bachelor,2022.2.4,59.97487597706895,
,,,,,,,,,,,,0,0,0,0,237,0,237,0,,,,,,,237,,,1,8151.046436848468,X,d,go,d,1,0.30120018182788044,,,,,,,,,,,,,,,,,,92,001,25,weiblich,Psychologie,2023-02-07_08h58.44.336,00_bat_bachelor,2022.2.4,59.97487597706895,
,,,,,,,,,,,,0,0,0,0,238,0,238,0,,,,,,,238,,,1,8152.464449939434,Y,l,go,l,1,0.3879056363366544,,,,,,,,,,,,,,,,,,92,001,25,weiblich,Psychologie,2023-02-07_08h58.44.336,00_bat_bachelor,2022.2.4,59.97487597706895,
,,,,,,,,,,,,0,0,0,0,239,0,239,0,,,,,,,239,,,1,8153.965528727276,Y,None,nogo,None,1,,,,,,,,,,,,,,,,,,,92,001,25,weiblich,Psychologie,2023-02-07_08h58.44.336,00_bat_bachelor,2022.2.4,59.97487597706895,
,,,,,,,,,,,,0,0,0,0,240,0,240,0,,,,,,,240,,,1,8155.767067636363,X,d,go,d,1,0.269451818196103,,,,,,,,,,,,,,,,,,92,001,25,weiblich,Psychologie,2023-02-07_08h58.44.336,00_bat_bachelor,2022.2.4,59.97487597706895,
,,,,,,,,,,,,0,0,0,0,241,0,241,0,,,,,,,241,,,1,8157.151091393898,Y,l,go,l,1,0.37267460604198277,,,,,,,,,,,,,,,,,,92,001,25,weiblich,Psychologie,2023-02-07_08h58.44.336,00_bat_bachelor,2022.2.4,59.97487597706895,
,,,,,,,,,,,,0,0,0,0,242,0,242,0,,,,,,,242,,,1,8158.635898666689,X,d,go,d,1,0.31294612120836973,,,,,,,,,,,,,,,,,,92,001,25,weiblich,Psychologie,2023-02-07_08h58.44.336,00_bat_bachelor,2022.2.4,59.97487597706895,
,,,,,,,,,,,,0,0,0,0,243,0,243,0,,,,,,,243,,,1,8160.053563636378,X,None,nogo,None,1,,,,,,,,,,,,,,,,,,,92,001,25,weiblich,Psychologie,2023-02-07_08h58.44.336,00_bat_bachelor,2022.2.4,59.97487597706895,
,,,,,,,,,,,,0,0,0,0,244,0,244,0,,,,,,,244,,,1,8161.854991515167,Y,l,go,l,1,0.27764236368238926,,,,,,,,,,,,,,,,,,92,001,25,weiblich,Psychologie,2023-02-07_08h58.44.336,00_bat_bachelor,2022.2.4,59.97487597706895,
,,,,,,,,,,,,0,0,0,0,245,0,245,0,,,,,,,245,,,1,8163.239263999974,X,d,go,d,1,0.2689970303326845,,,,,,,,,,,,,,,,,,92,001,25,weiblich,Psychologie,2023-02-07_08h58.44.336,00_bat_bachelor,2022.2.4,59.97487597706895,
,,,,,,,,,,,,0,0,0,0,246,0,246,0,,,,,,,246,,,1,8164.623759515118,Y,l,go,l,1,0.37263727269601077,,,,,,,,,,,,,,,,,,92,001,25,weiblich,Psychologie,2023-02-07_08h58.44.336,00_bat_bachelor,2022.2.4,59.97487597706895,
,,,,,,,,,,,,0,0,0,0,247,0,247,0,,,,,,,247,,,1,8166.108238545479,Y,None,nogo,None,1,,,,,,,,,,,,,,,,,,,92,001,25,weiblich,Psychologie,2023-02-07_08h58.44.336,00_bat_bachelor,2022.2.4,59.97487597706895,
,,,,,,,,,,,,0,0,0,0,248,0,248,0,,,,,,,248,,,1,8167.909592242446,Y,None,nogo,None,1,,,,,,,,,,,,,,,,,,,92,001,25,weiblich,Psychologie,2023-02-07_08h58.44.336,00_bat_bachelor,2022.2.4,59.97487597706895,
,,,,,,,,,,,,0,0,0,0,249,0,249,0,,,,,,,249,,,1,8169.710962424288,X,d,go,d,1,0.42154975759331137,,,,,,,,,,,,,,,,,,92,001,25,weiblich,Psychologie,2023-02-07_08h58.44.336,00_bat_bachelor,2022.2.4,59.97487597706895,
,,,,,,,,,,,,1,0,1,0,0,0,0,0,,,,,,,0,,,0.2,8177.83383224241,X,d,go,d,1,0.6338246666127816,,,,,,,,,8170.251541818143,space,7.3570372726535425,,,,,,,92,001,25,weiblich,Psychologie,2023-02-07_08h58.44.336,00_bat_bachelor,2022.2.4,59.97487597706895,
,,,,,,,,,,,,1,0,1,0,1,0,1,0,,,,,,,1,,,0.2,8178.767766787903,Y,l,go,l,1,0.5482760606100783,,,,,,,,,,,,,,,,,,92,001,25,weiblich,Psychologie,2023-02-07_08h58.44.336,00_bat_bachelor,2022.2.4,59.97487597706895,
,,,,,,,,,,,,1,0,1,0,2,0,2,0,,,,,,,2,,,0.2,8179.618573575746,X,d,go,d,1,0.5781369090545923,,,,,,,,,,,,,,,,,,92,001,25,weiblich,Psychologie,2023-02-07_08h58.44.336,00_bat_bachelor,2022.2.4,59.97487597706895,
,,,,,,,,,,,,1,0,1,0,3,0,3,0,,,,,,,3,,,0.2,8180.502549818135,X,None,nogo,None,1,,8181.302689939388,,,,,,,,,,,,,,,,,92,001,25,weiblich,Psychologie,2023-02-07_08h58.44.336,00_bat_bachelor,2022.2.4,59.97487597706895,
,,,,,,,,,,,,1,0,1,0,4,0,4,0,,,,,,,4,,,0.2,8181.503297454561,Y,l,go,l,1,0.37329715152736753,,,,,,,,,,,,,,,,,,92,001,25,weiblich,Psychologie,2023-02-07_08h58.44.336,00_bat_bachelor,2022.2.4,59.97487597706895,
,,,,,,,,,,,,1,0,1,0,5,0,5,0,,,,,,,5,,,0.2,8182.187070545508,X,d,go,d,1,0.4414169089868665,,,,,,,,,,,,,,,,,,92,001,25,weiblich,Psychologie,2023-02-07_08h58.44.336,00_bat_bachelor,2022.2.4,59.97487597706895,
,,,,,,,,,,,,1,0,1,0,6,0,6,0,,,,,,,6,,,0.2,8182.937642181874,X,None,nogo,l,0,0.6662232121452689,,,,,,,,,,,,,,,,,,92,001,25,weiblich,Psychologie,2023-02-07_08h58.44.336,00_bat_bachelor,2022.2.4,59.97487597706895,
,,,,,,,,,,,,1,0,1,0,7,0,7,0,,,,,,,7,,,0.2,8183.90510981821,Y,l,go,l,1,0.38679484848398715,,,,,,,,,,,,,,,,,,92,001,25,weiblich,Psychologie,2023-02-07_08h58.44.336,00_bat_bachelor,2022.2.4,59.97487597706895,
,,,,,,,,,,,,1,0,1,0,8,0,8,0,,,,,,,8,,,0.2,8184.605642666691,X,d,go,d,1,0.5021795758511871,,,,,,,,,,,,,,,,,,92,001,25,weiblich,Psychologie,2023-02-07_08h58.44.336,00_bat_bachelor,2022.2.4,59.97487597706895,
,,,,,,,,,,,,1,0,1,0,9,0,9,0,,,,,,,9,,,0.2,8185.422843636363,Y,l,go,l,1,0.5981941212667152,,,,,,,,,,,,,,,,,,92,001,25,weiblich,Psychologie,2023-02-07_08h58.44.336,00_bat_bachelor,2022.2.4,59.97487597706895,
,,,,,,,,,,,,1,0,1,0,10,0,10,0,,,,,,,10,,,0.2,8186.323591272696,X,d,go,d,1,0.6409165454097092,,,,,,,,,,,,,,,,,,92,001,25,weiblich,Psychologie,2023-02-07_08h58.44.336,00_bat_bachelor,2022.2.4,59.97487597706895,
,,,,,,,,,,,,1,0,1,0,11,0,11,0,,,,,,,11,,,0.2,8187.291659151553,Y,l,go,l,1,0.455438727280125,,,,,,,,,,,,,,,,,,92,001,25,weiblich,Psychologie,2023-02-07_08h58.44.336,00_bat_bachelor,2022.2.4,59.97487597706895,
,,,,,,,,,,,,1,0,1,0,12,0,12,0,,,,,,,12,,,0.2,8188.092096969718,X,d,go,d,1,0.4397810302907601,,,,,,,,,,,,,,,,,,92,001,25,weiblich,Psychologie,2023-02-07_08h58.44.336,00_bat_bachelor,2022.2.4,59.97487597706895,
,,,,,,,,,,,,1,0,1,0,13,0,13,0,,,,,,,13,,,0.2,8188.859563636361,Y,l,go,l,1,0.5038964243140072,,,,,,,,,,,,,,,,,,92,001,25,weiblich,Psychologie,2023-02-07_08h58.44.336,00_bat_bachelor,2022.2.4,59.97487597706895,
,,,,,,,,,,,,1,0,1,0,14,0,14,0,,,,,,,14,,,0.2,8189.709980121232,Y,None,nogo,None,1,,8190.510610424215,,,,,,,,,,,,,,,,,92,001,25,weiblich,Psychologie,2023-02-07_08h58.44.336,00_bat_bachelor,2022.2.4,59.97487597706895,
,,,,,,,,,,,,1,0,1,0,15,0,15,0,,,,,,,15,,,0.2,8190.71075684845,X,d,go,d,1,0.4444176363758743,,,,,,,,,,,,,,,,,,92,001,25,weiblich,Psychologie,2023-02-07_08h58.44.336,00_bat_bachelor,2022.2.4,59.97487597706895,
,,,,,,,,,,,,1,0,1,0,16,0,16,0,,,,,,,16,,,0.2,8191.494688484818,Y,l,go,l,1,0.23586636362597346,,,,,,,,,,,,,,,,,,92,001,25,weiblich,Psychologie,2023-02-07_08h58.44.336,00_bat_bachelor,2022.2.4,59.97487597706895,
,,,,,,,,,,,,1,0,1,0,17,0,17,0,,,,,,,17,,,0.2,8192.061753696995,Y,None,nogo,None,1,,8192.862323878799,,,,,,,,,,,,,,,,,92,001,25,weiblich,Psychologie,2023-02-07_08h58.44.336,00_bat_bachelor,2022.2.4,59.97487597706895,
,,,,,,,,,,,,1,0,1,0,18,0,18,0,,,,,,,18,,,0.2,8193.062451878795,X,d,go,d,1,0.18858927267137915,,,,,,,,,,,,,,,,,,92,001,25,weiblich,Psychologie,2023-02-07_08h58.44.336,00_bat_bachelor,2022.2.4,59.97487597706895,
,,,,,,,,,,,,1,0,1,0,19,0,19,0,,,,,,,19,,,0.2,8193.579347393941,Y,l,go,l,1,0.344037999981083,,,,,,,,,,,,,,,,,,92,001,25,weiblich,Psychologie,2023-02-07_08h58.44.336,00_bat_bachelor,2022.2.4,59.97487597706895,
,,,,,,,,,,,,1,0,1,0,20,0,20,0,,,,,,,20,,,0.2,8194.230012121261,Y,None,nogo,None,1,,8195.030427636346,,,,,,,,,,,,,,,,,92,001,25,weiblich,Psychologie,2023-02-07_08h58.44.336,00_bat_bachelor,2022.2.4,59.97487597706895,
,,,,,,,,,,,,1,0,1,0,21,0,21,0,,,,,,,21,,,0.2,8195.230784969754,X,d,go,d,1,0.181896424270235,,,,,,,,,,,,,,,,,,92,001,25,weiblich,Psychologie,2023-02-07_08h58.44.336,00_bat_bachelor,2022.2.4,59.97487597706895,
,,,,,,,,,,,,1,0,1,0,22,0,22,0,,,,,,,22,,,0.2,8195.714511999977,Y,l,go,l,1,0.27327484847046435,,,,,,,,,,,,,,,,,,92,001,25,weiblich,Psychologie,2023-02-07_08h58.44.336,00_bat_bachelor,2022.2.4,59.97487597706895,
,,,,,,,,,,,,1,0,1,0,23,0,23,0,,,,,,,23,,,0.2,8196.31498036359,Y,None,nogo,None,1,,8197.115530181793,,,,,,,,,,,,,,,,,92,001,25,weiblich,Psychologie,2023-02-07_08h58.44.336,00_bat_bachelor,2022.2.4,59.97487597706895,
,,,,,,,,,,,,1,0,1,0,24,0,24,0,,,,,,,24,,,0.2,8197.315707636415,X,d,go,d,1,0.28912600001785904,,,,,,,,,,,,,,,,,,92,001,25,weiblich,Psychologie,2023-02-07_08h58.44.336,00_bat_bachelor,2022.2.4,59.97487597706895,
,,,,,,,,,,,,1,0,1,0,25,0,25,0,,,,,,,25,,,0.2,8197.91614496964,Y,l,go,l,1,0.3602086667669937,,,,,,,,,,,,,,,,,,92,001,25,weiblich,Psychologie,2023-02-07_08h58.44.336,00_bat_bachelor,2022.2.4,59.97487597706895,
,,,,,,,,,,,,1,0,1,0,26,0,26,0,,,,,,,26,,,0.2,8198.583151999977,X,d,go,d,1,0.4608976363670081,,,,,,,,,,,,,,,,,,92,001,25,weiblich,Psychologie,2023-02-07_08h58.44.336,00_bat_bachelor,2022.2.4,59.97487597706895,
,,,,,,,,,,,,1,0,1,0,27,0,27,0,,,,,,,27,,,0.2,8199.35063127277,X,None,nogo,None,1,,8200.151042424259,,,,,,,,,,,,,,,,,92,001,25,weiblich,Psychologie,2023-02-07_08h58.44.336,00_bat_bachelor,2022.2.4,59.97487597706895,
,,,,,,,,,,,,1,0,1,0,28,0,28,0,,,,,,,28,,,0.2,8200.351169454516,Y,l,go,l,1,0.43567824247293174,,,,,,,,,,,,,,,,,,92,001,25,weiblich,Psychologie,2023-02-07_08h58.44.336,00_bat_bachelor,2022.2.4,59.97487597706895,
,,,,,,,,,,,,1,0,1,0,29,0,29,0,,,,,,,29,,,0.2,8201.118660848471,X,d,go,d,1,0.46939460607245564,,,,,,,,,,,,,,,,,,92,001,25,weiblich,Psychologie,2023-02-07_08h58.44.336,00_bat_bachelor,2022.2.4,59.97487597706895,
,,,,,,,,,,,,1,0,1,0,30,0,30,0,,,,,,,30,,,0.2,8201.902643393958,Y,l,go,l,1,0.43690539395902306,,,,,,,,,,,,,,,,,,92,001,25,weiblich,Psychologie,2023-02-07_08h58.44.336,00_bat_bachelor,2022.2.4,59.97487597706895,
,,,,,,,,,,,,1,0,1,0,31,0,31,0,,,,,,,31,,,0.2,8202.669751757523,Y,None,nogo,None,1,,8203.470208484796,,,,,,,,,,,,,,,,,92,001,25,weiblich,Psychologie,2023-02-07_08h58.44.336,00_bat_bachelor,2022.2.4,59.97487597706895,
,,,,,,,,,,,,1,0,1,0,32,0,32,0,,,,,,,32,,,0.2,8203.670392242377,X,d,go,d,1,0.33433812123257667,,,,,,,,,,,,,,,,,,92,001,25,weiblich,Psychologie,2023-02-07_08h58.44.336,00_bat_bachelor,2022.2.4,59.97487597706895,
,,,,,,,,,,,,1,0,1,0,33,0,33,0,,,,,,,33,,,0.2,8204.321167999995,Y,l,go,l,1,0.30586733343079686,,,,,,,,,,,,,,,,,,92,001,25,weiblich,Psychologie,2023-02-07_08h58.44.336,00_bat_bachelor,2022.2.4,59.97487597706895,
,,,,,,,,,,,,1,0,1,0,34,0,34,0,,,,,,,34,,,0.2,8204.954674424254,X,d,go,d,1,0.3935114545747638,,,,,,,,,,,,,,,,,,92,001,25,weiblich,Psychologie,2023-02-07_08h58.44.336,00_bat_bachelor,2022.2.4,59.97487597706895,
,,,,,,,,,,,,1,0,1,0,35,0,35,0,,,,,,,35,,,0.2,8205.655215515173,Y,l,go,l,1,0.39530490909237415,,,,,,,,,,,,,,,,,,92,001,25,weiblich,Psychologie,2023-02-07_08h58.44.336,00_bat_bachelor,2022.2.4,59.97487597706895,
,,,,,,,,,,,,1,0,1,0,36,0,36,0,,,,,,,36,,,0.2,8206.372466909117,Y,None,nogo,None,1,,8207.173233939451,,,,,,,,,,,,,,,,,92,001,25,weiblich,Psychologie,2023-02-07_08h58.44.336,00_bat_bachelor,2022.2.4,59.97487597706895,
,,,,,,,,,,,,1,0,1,0,37,0,37,0,,,,,,,37,,,0.2,8207.373339151498,X,d,go,d,1,0.37391727266367525,,,,,,,,,,,,,,,,,,92,001,25,weiblich,Psychologie,2023-02-07_08h58.44.336,00_bat_bachelor,2022.2.4,59.97487597706895,
,,,,,,,,,,,,1,0,1,0,38,0,38,0,,,,,,,38,,,0.2,8208.07388315152,Y,l,go,l,1,0.4426130303181708,,,,,,,,,,,,,,,,,,92,001,25,weiblich,Psychologie,2023-02-07_08h58.44.336,00_bat_bachelor,2022.2.4,59.97487597706895,
,,,,,,,,,,,,1,0,1,0,39,0,39,0,,,,,,,39,,,0.2,8208.824402909144,X,d,go,d,1,0.5871686666505411,,,,,,,,,,,,,,,,,,92,001,25,weiblich,Psychologie,2023-02-07_08h58.44.336,00_bat_bachelor,2022.2.4,59.97487597706895,
,,,,,,,,,,,,1,0,1,0,40,0,40,0,,,,,,,40,,,0.2,8209.741805575788,X,None,nogo,None,1,,8210.542260363582,,,,,,,,,,,,,,,,,92,001,25,weiblich,Psychologie,2023-02-07_08h58.44.336,00_bat_bachelor,2022.2.4,59.97487597706895,
,,,,,,,,,,,,1,0,1,0,41,0,41,0,,,,,,,41,,,0.2,8210.742586666718,Y,l,go,l,1,0.28506733337417245,,,,,,,,,,,,,,,,,,92,001,25,weiblich,Psychologie,2023-02-07_08h58.44.336,00_bat_bachelor,2022.2.4,59.97487597706895,
,,,,,,,,,,,,1,0,1,0,42,0,42,0,,,,,,,42,,,0.2,8211.343102060608,X,d,go,d,1,0.500588787952438,,,,,,,,,,,,,,,,,,92,001,25,weiblich,Psychologie,2023-02-07_08h58.44.336,00_bat_bachelor,2022.2.4,59.97487597706895,
,,,,,,,,,,,,1,0,1,0,43,0,43,0,,,,,,,43,,,0.2,8212.143684363691,Y,l,go,l,1,0.40477206057403237,,,,,,,,,,,,,,,,,,92,001,25,weiblich,Psychologie,2023-02-07_08h58.44.336,00_bat_bachelor,2022.2.4,59.97487597706895,
,,,,,,,,,,,,1,0,1,0,44,0,44,0,,,,,,,44,,,0.2,8212.860931393923,X,d,go,d,1,0.39133981813210994,,,,,,,,,,,,,,,,,,92,001,25,weiblich,Psychologie,2023-02-07_08h58.44.336,00_bat_bachelor,2022.2.4,59.97487597706895,
,,,,,,,,,,,,1,0,1,0,45,0,45,0,,,,,,,45,,,0.2,8213.578148363624,X,None,nogo,None,1,,8214.378728242475,,,,,,,,,,,,,,,,,92,001,25,weiblich,Psychologie,2023-02-07_08h58.44.336,00_bat_bachelor,2022.2.4,59.97487597706895,
,,,,,,,,,,,,1,0,1,0,46,0,46,0,,,,,,,46,,,0.2,8214.578797090915,X,None,nogo,None,1,,8215.379269333323,,,,,,,,,,,,,,,,,92,001,25,weiblich,Psychologie,2023-02-07_08h58.44.336,00_bat_bachelor,2022.2.4,59.97487597706895,
,,,,,,,,,,,,1,0,1,0,47,0,47,0,,,,,,,47,,,0.2,8215.57938763639,Y,l,go,l,1,0.3136161817237735,,,,,,,,,,,,,,,,,,92,001,25,weiblich,Psychologie,2023-02-07_08h58.44.336,00_bat_bachelor,2022.2.4,59.97487597706895,
,,,,,,,,,,,,1,0,1,0,48,0,48,0,,,,,,,48,,,0.2,8216.19653769699,X,d,go,d,1,0.31928939395584166,,,,,,,,,,,,,,,,,,92,001,25,weiblich,Psychologie,2023-02-07_08h58.44.336,00_bat_bachelor,2022.2.4,59.97487597706895,
,,,,,,,,,,,,1,0,1,0,49,0,49,0,,,,,,,49,,,0.2,8216.830359272775,Y,l,go,l,1,0.4854120606323704,,,,,,,,,,,,,,,,,,92,001,25,weiblich,Psychologie,2023-02-07_08h58.44.336,00_bat_bachelor,2022.2.4,59.97487597706895,
,,,,,,,,,,,,1,0,1,0,50,0,50,0,,,,,,,50,,,0.2,8217.63098230306,X,d,go,d,1,0.38982321217190474,,,,,,,,,,,,,,,,,,92,001,25,weiblich,Psychologie,2023-02-07_08h58.44.336,00_bat_bachelor,2022.2.4,59.97487597706895,
,,,,,,,,,,,,1,0,1,0,51,0,51,0,,,,,,,51,,,0.2,8218.331312969676,Y,l,go,l,1,0.616262000054121,,,,,,,,,,,,,,,,,,92,001,25,weiblich,Psychologie,2023-02-07_08h58.44.336,00_bat_bachelor,2022.2.4,59.97487597706895,
,,,,,,,,,,,,1,0,1,0,52,0,52,0,,,,,,,52,,,0.2,8219.24889115151,X,d,go,d,1,0.434896181919612,,,,,,,,,,,,,,,,,,92,001,25,weiblich,Psychologie,2023-02-07_08h58.44.336,00_bat_bachelor,2022.2.4,59.97487597706895,
,,,,,,,,,,,,1,0,1,0,53,0,53,0,,,,,,,53,,,0.2,8219.999538909062,Y,l,go,l,1,0.46802151517476887,,,,,,,,,,,,,,,,,,92,001,25,weiblich,Psychologie,2023-02-07_08h58.44.336,00_bat_bachelor,2022.2.4,59.97487597706895,
,,,,,,,,,,,,1,0,1,0,54,0,54,0,,,,,,,54,,,0.2,8220.783411878743,X,d,go,d,1,0.6130377575755119,,,,,,,,,,,,,,,,,,92,001,25,weiblich,Psychologie,2023-02-07_08h58.44.336,00_bat_bachelor,2022.2.4,59.97487597706895,
,,,,,,,,,,,,1,0,1,0,55,0,55,0,,,,,,,55,,,0.2,8221.700738909072,Y,l,go,l,1,0.4321878181071952,,,,,,,,,,,,,,,,,,92,001,25,weiblich,Psychologie,2023-02-07_08h58.44.336,00_bat_bachelor,2022.2.4,59.97487597706895,
,,,,,,,,,,,,1,0,1,0,56,0,56,0,,,,,,,56,,,0.2,8222.434653575765,Y,None,nogo,None,1,,8223.235427393927,,,,,,,,,,,,,,,,,92,001,25,weiblich,Psychologie,2023-02-07_08h58.44.336,00_bat_bachelor,2022.2.4,59.97487597706895,
,,,,,,,,,,,,1,0,1,0,57,0,57,0,,,,,,,57,,,0.2,8223.435234424192,X,d,go,d,1,0.31317206064704806,,,,,,,,,,,,,,,,,,92,001,25,weiblich,Psychologie,2023-02-07_08h58.44.336,00_bat_bachelor,2022.2.4,59.97487597706895,
,,,,,,,,,,,,1,0,1,0,58,0,58,0,,,,,,,58,,,0.2,8224.05254012125,Y,l,go,l,1,0.39939363638404757,,,,,,,,,,,,,,,,,,92,001,25,weiblich,Psychologie,2023-02-07_08h58.44.336,00_bat_bachelor,2022.2.4,59.97487597706895,
,,,,,,,,,,,,1,0,1,0,59,0,59,0,,,,,,,59,,,0.2,8224.752891151467,X,d,go,d,1,0.3706023636041209,,,,,,,,,,,,,,,,,,92,001,25,weiblich,Psychologie,2023-02-07_08h58.44.336,00_bat_bachelor,2022.2.4,59.97487597706895,
,,,,,,,,,,,,1,0,1,0,60,0,60,0,,,,,,,60,,,0.2,8225.436911030323,Y,l,go,l,1,0.5664956970140338,,,,,,,,,,,,,,,,,,92,001,25,weiblich,Psychologie,2023-02-07_08h58.44.336,00_bat_bachelor,2022.2.4,59.97487597706895,
,,,,,,,,,,,,1,0,1,0,61,0,61,0,,,,,,,61,,,0.2,8226.304032969754,X,d,go,d,1,0.5483803030801937,,,,,,,,,,,,,,,,,,92,001,25,weiblich,Psychologie,2023-02-07_08h58.44.336,00_bat_bachelor,2022.2.4,59.97487597706895,
,,,,,,,,,,,,1,0,1,0,62,0,62,0,,,,,,,62,,,0.2,8227.154713696917,X,None,nogo,None,1,,8227.955507878796,,,,,,,,,,,,,,,,,92,001,25,weiblich,Psychologie,2023-02-07_08h58.44.336,00_bat_bachelor,2022.2.4,59.97487597706895,
,,,,,,,,,,,,1,0,1,0,63,0,63,0,,,,,,,63,,,0.2,8228.155699878815,Y,l,go,l,1,0.32884527277201414,,,,,,,,,,,,,,,,,,92,001,25,weiblich,Psychologie,2023-02-07_08h58.44.336,00_bat_bachelor,2022.2.4,59.97487597706895,
,,,,,,,,,,,,1,0,1,0,64,0,64,0,,,,,,,64,,,0.2,8228.78950012126,X,d,go,d,1,0.510133515112102,,,,,,,,,,,,,,,,,,92,001,25,weiblich,Psychologie,2023-02-07_08h58.44.336,00_bat_bachelor,2022.2.4,59.97487597706895,
,,,,,,,,,,,,1,0,1,0,65,0,65,0,,,,,,,65,,,0.2,8229.606592969736,X,None,nogo,None,1,,8230.407388606109,,,,,,,,,,,,,,,,,92,001,25,weiblich,Psychologie,2023-02-07_08h58.44.336,00_bat_bachelor,2022.2.4,59.97487597706895,
,,,,,,,,,,,,1,0,1,0,66,0,66,0,,,,,,,66,,,0.2,8230.607331878738,Y,l,go,l,1,0.26028236362617463,,,,,,,,,,,,,,,,,,92,001,25,weiblich,Psychologie,2023-02-07_08h58.44.336,00_bat_bachelor,2022.2.4,59.97487597706895,
,,,,,,,,,,,,1,0,1,0,67,0,67,0,,,,,,,67,,,0.2,8231.17464824242,X,d,go,d,1,0.23794103041291237,,,,,,,,,,,,,,,,,,92,001,25,weiblich,Psychologie,2023-02-07_08h58.44.336,00_bat_bachelor,2022.2.4,59.97487597706895,
,,,,,,,,,,,,1,0,1,0,68,0,68,0,,,,,,,68,,,0.2,8231.725041939411,X,None,nogo,None,1,,8232.525621333276,,,,,,,,,,,,,,,,,92,001,25,weiblich,Psychologie,2023-02-07_08h58.44.336,00_bat_bachelor,2022.2.4,59.97487597706895,
,,,,,,,,,,,,1,0,1,0,69,0,69,0,,,,,,,69,,,0.2,8232.72581818176,Y,l,go,l,1,0.25396963639650494,,,,,,,,,,,,,,,,,,92,001,25,weiblich,Psychologie,2023-02-07_08h58.44.336,00_bat_bachelor,2022.2.4,59.97487597706895,
,,,,,,,,,,,,1,0,1,0,70,0,70,0,,,,,,,70,,,0.2,8233.292916363687,X,d,go,d,1,0.2799080606782809,,,,,,,,,,,,,,,,,,92,001,25,weiblich,Psychologie,2023-02-07_08h58.44.336,00_bat_bachelor,2022.2.4,59.97487597706895,
,,,,,,,,,,,,1,0,1,0,71,0,71,0,,,,,,,71,,,0.2,8233.876757333288,Y,l,go,l,1,0.4318959394004196,,,,,,,,,,,,,,,,,,92,001,25,weiblich,Psychologie,2023-02-07_08h58.44.336,00_bat_bachelor,2022.2.4,59.97487597706895,
,,,,,,,,,,,,1,0,1,0,72,0,72,0,,,,,,,72,,,0.2,8234.61059054546,Y,None,nogo,d,0,0.35358418186660856,,,,,,,,,,,,,,,,,,92,001,25,weiblich,Psychologie,2023-02-07_08h58.44.336,00_bat_bachelor,2022.2.4,59.97487597706895,
,,,,,,,,,,,,1,0,1,0,73,0,73,0,,,,,,,73,,,0.2,8235.27776290907,X,d,go,None,0,,8236.078340363689,,,,,,,,,,,,,,,,,92,001,25,weiblich,Psychologie,2023-02-07_08h58.44.336,00_bat_bachelor,2022.2.4,59.97487597706895,
,,,,,,,,,,,,1,0,1,0,74,0,74,0,,,,,,,74,,,0.2,8236.278534787823,Y,l,go,l,1,0.4777495152084157,,,,,,,,,,,,,,,,,,92,001,25,weiblich,Psychologie,2023-02-07_08h58.44.336,00_bat_bachelor,2022.2.4,59.97487597706895,
,,,,,,,,,,,,1,0,1,0,75,0,75,0,,,,,,,75,,,0.2,8237.06244557572,Y,None,nogo,None,1,,8237.862997333286,,,,,,,,,,,,,,,,,92,001,25,weiblich,Psychologie,2023-02-07_08h58.44.336,00_bat_bachelor,2022.2.4,59.97487597706895,
,,,,,,,,,,,,1,0,1,0,76,0,76,0,,,,,,,76,,,0.2,8238.06320484844,X,d,go,d,1,0.38986103027127683,,,,,,,,,,,,,,,,,,92,001,25,weiblich,Psychologie,2023-02-07_08h58.44.336,00_bat_bachelor,2022.2.4,59.97487597706895,
,,,,,,,,,,,,1,0,1,0,77,0,77,0,,,,,,,77,,,0.2,8238.763755636406,Y,l,go,l,1,0.42547606059815735,,,,,,,,,,,,,,,,,,92,001,25,weiblich,Psychologie,2023-02-07_08h58.44.336,00_bat_bachelor,2022.2.4,59.97487597706895,
,,,,,,,,,,,,1,0,1,0,78,0,78,0,,,,,,,78,,,0.2,8239.49744290905,X,d,go,d,1,0.25030515156686306,,,,,,,,,,,,,,,,,,92,001,25,weiblich,Psychologie,2023-02-07_08h58.44.336,00_bat_bachelor,2022.2.4,59.97487597706895,
,,,,,,,,,,,,1,0,1,0,79,0,79,0,,,,,,,79,,,0.2,8240.047611151473,Y,l,go,l,1,0.3565650302916765,,,,,,,,,,,,,,,,,,92,001,25,weiblich,Psychologie,2023-02-07_08h58.44.336,00_bat_bachelor,2022.2.4,59.97487597706895,
,,,,,,,,,,,,1,0,1,0,80,0,80,0,,,,,,,80,,,0.2,8240.715183515102,Y,None,nogo,None,1,,,,,,,,,,,,,,,,,,,92,001,25,weiblich,Psychologie,2023-02-07_08h58.44.336,00_bat_bachelor,2022.2.4,59.97487597706895,
,,,,,,,,,,,,1,0,1,0,81,0,81,0,,,,,,,81,,,0.2,8241.71553066664,Y,None,nogo,None,1,,,,,,,,,,,,,,,,,,,92,001,25,weiblich,Psychologie,2023-02-07_08h58.44.336,00_bat_bachelor,2022.2.4,59.97487597706895,
,,,,,,,,,,,,1,0,1,0,82,0,82,0,,,,,,,82,,,0.2,8242.716413090937,X,d,go,d,1,0.37598321214318275,,,,,,,,,,,,,,,,,,92,001,25,weiblich,Psychologie,2023-02-07_08h58.44.336,00_bat_bachelor,2022.2.4,59.97487597706895,
,,,,,,,,,,,,1,0,1,0,83,0,83,0,,,,,,,83,,,0.2,8243.40039515146,Y,l,go,l,1,0.5086411515949294,,,,,,,,,,,,,,,,,,92,001,25,weiblich,Psychologie,2023-02-07_08h58.44.336,00_bat_bachelor,2022.2.4,59.97487597706895,
,,,,,,,,,,,,1,0,1,0,84,0,84,0,,,,,,,84,,,0.2,8244.217795393895,X,d,go,d,1,0.3619056362658739,,,,,,,,,,,,,,,,,,92,001,25,weiblich,Psychologie,2023-02-07_08h58.44.336,00_bat_bachelor,2022.2.4,59.97487597706895,
,,,,,,,,,,,,1,0,1,0,85,0,85,0,,,,,,,85,,,0.2,8244.88464775763,X,None,nogo,None,1,,,,,,,,,,,,,,,,,,,92,001,25,weiblich,Psychologie,2023-02-07_08h58.44.336,00_bat_bachelor,2022.2.4,59.97487597706895,
,,,,,,,,,,,,1,0,1,0,86,0,86,0,,,,,,,86,,,0.2,8245.885730424197,Y,l,go,l,1,0.26280793943442404,,,,,,,,,,,,,,,,,,92,001,25,weiblich,Psychologie,2023-02-07_08h58.44.336,00_bat_bachelor,2022.2.4,59.97487597706895,
,,,,,,,,,,,,1,0,1,0,87,0,87,0,,,,,,,87,,,0.2,8246.452531393967,X,d,go,d,1,0.36754781822673976,,,,,,,,,,,,,,,,,,92,001,25,weiblich,Psychologie,2023-02-07_08h58.44.336,00_bat_bachelor,2022.2.4,59.97487597706895,
,,,,,,,,,,,,1,0,1,0,88,0,88,0,,,,,,,88,,,0.2,8247.136653090944,Y,l,go,l,1,0.3242227273294702,,,,,,,,,,,,,,,,,,92,001,25,weiblich,Psychologie,2023-02-07_08h58.44.336,00_bat_bachelor,2022.2.4,59.97487597706895,
,,,,,,,,,,,,1,0,1,0,89,0,89,0,,,,,,,89,,,0.2,8247.770466424292,X,d,go,d,1,0.34690830297768116,,,,,,,,,,,,,,,,,,92,001,25,weiblich,Psychologie,2023-02-07_08h58.44.336,00_bat_bachelor,2022.2.4,59.97487597706895,
,,,,,,,,,,,,1,0,1,0,90,0,90,0,,,,,,,90,,,0.2,8248.420661333366,Y,l,go,l,1,0.41561715153511614,,,,,,,,,,,,,,,,,,92,001,25,weiblich,Psychologie,2023-02-07_08h58.44.336,00_bat_bachelor,2022.2.4,59.97487597706895,
,,,,,,,,,,,,1,0,1,0,91,0,91,0,,,,,,,91,,,0.2,8249.138102787896,X,d,go,d,1,0.40204915148206055,,,,,,,,,,,,,,,,,,92,001,25,weiblich,Psychologie,2023-02-07_08h58.44.336,00_bat_bachelor,2022.2.4,59.97487597706895,
,,,,,,,,,,,,1,0,1,0,92,0,92,0,,,,,,,92,,,0.2,8249.855438060593,Y,l,go,l,1,0.30956042429897934,,,,,,,,,,,,,,,,,,92,001,25,weiblich,Psychologie,2023-02-07_08h58.44.336,00_bat_bachelor,2022.2.4,59.97487597706895,
,,,,,,,,,,,,1,0,1,0,93,0,93,0,,,,,,,93,,,0.2,8250.47261866671,X,d,go,d,1,0.3808147272793576,,,,,,,,,,,,,,,,,,92,001,25,weiblich,Psychologie,2023-02-07_08h58.44.336,00_bat_bachelor,2022.2.4,59.97487597706895,
,,,,,,,,,,,,1,0,1,0,94,0,94,0,,,,,,,94,,,0.2,8251.156108121155,Y,l,go,l,1,0.44773303030524403,,,,,,,,,,,,,,,,,,92,001,25,weiblich,Psychologie,2023-02-07_08h58.44.336,00_bat_bachelor,2022.2.4,59.97487597706895,
,,,,,,,,,,,,1,0,1,0,95,0,95,0,,,,,,,95,,,0.2,8251.90696727275,X,d,go,d,1,0.32189981814008206,,,,,,,,,,,,,,,,,,92,001,25,weiblich,Psychologie,2023-02-07_08h58.44.336,00_bat_bachelor,2022.2.4,59.97487597706895,
,,,,,,,,,,,,1,0,1,0,96,0,96,0,,,,,,,96,,,0.2,8252.540824727272,Y,l,go,l,1,0.42425327270757407,,,,,,,,,,,,,,,,,,92,001,25,weiblich,Psychologie,2023-02-07_08h58.44.336,00_bat_bachelor,2022.2.4,59.97487597706895,
,,,,,,,,,,,,1,0,1,0,97,0,97,0,,,,,,,97,,,0.2,8253.27465212124,X,d,go,d,1,0.31430272723082453,,,,,,,,,,,,,,,,,,92,001,25,weiblich,Psychologie,2023-02-07_08h58.44.336,00_bat_bachelor,2022.2.4,59.97487597706895,
,,,,,,,,,,,,1,0,1,0,98,0,98,0,,,,,,,98,,,0.2,8253.891871515196,Y,l,go,l,1,0.46437254548072815,,,,,,,,,,,,,,,,,,92,001,25,weiblich,Psychologie,2023-02-07_08h58.44.336,00_bat_bachelor,2022.2.4,59.97487597706895,
,,,,,,,,,,,,1,0,1,0,99,0,99,0,,,,,,,99,,,0.2,8254.65900266671,Y,None,nogo,d,0,0.30437981814611703,,,,,,,,,,,,,,,,,,92,001,25,weiblich,Psychologie,2023-02-07_08h58.44.336,00_bat_bachelor,2022.2.4,59.97487597706895,
,,,,,,,,,,,,1,0,1,0,100,0,100,0,,,,,,,100,,,0.2,8255.276082909084,X,d,go,None,0,,,,,,,,,,,,,,,,,,,92,001,25,weiblich,Psychologie,2023-02-07_08h58.44.336,00_bat_bachelor,2022.2.4,59.97487597706895,
,,,,,,,,,,,,1,0,1,0,101,0,101,0,,,,,,,101,,,0.2,8256.276984727243,Y,l,go,l,1,0.39925109094474465,,,,,,,,,,,,,,,,,,92,001,25,weiblich,Psychologie,2023-02-07_08h58.44.336,00_bat_bachelor,2022.2.4,59.97487597706895,
,,,,,,,,,,,,1,0,1,0,102,0,102,0,,,,,,,102,,,0.2,8256.97752242419,X,d,go,d,1,0.563248666585423,,,,,,,,,,,,,,,,,,92,001,25,weiblich,Psychologie,2023-02-07_08h58.44.336,00_bat_bachelor,2022.2.4,59.97487597706895,
,,,,,,,,,,,,1,0,1,0,103,0,103,0,,,,,,,103,,,0.2,8257.844826181768,X,None,nogo,None,1,,,,,,,,,,,,,,,,,,,92,001,25,weiblich,Psychologie,2023-02-07_08h58.44.336,00_bat_bachelor,2022.2.4,59.97487597706895,
,,,,,,,,,,,,1,0,1,0,104,0,104,0,,,,,,,104,,,0.2,8258.845294060651,Y,l,go,l,1,0.294924302957952,,,,,,,,,,,,,,,,,,92,001,25,weiblich,Psychologie,2023-02-07_08h58.44.336,00_bat_bachelor,2022.2.4,59.97487597706895,
,,,,,,,,,,,,1,0,1,0,105,0,105,0,,,,,,,105,,,0.2,8259.445875393925,X,d,go,d,1,0.6061708484776318,,,,,,,,,,,,,,,,,,92,001,25,weiblich,Psychologie,2023-02-07_08h58.44.336,00_bat_bachelor,2022.2.4,59.97487597706895,
,,,,,,,,,,,,1,0,1,0,106,0,106,0,,,,,,,106,,,0.2,8260.36336048483,X,None,nogo,None,1,,,,,,,,,,,,,,,,,,,92,001,25,weiblich,Psychologie,2023-02-07_08h58.44.336,00_bat_bachelor,2022.2.4,59.97487597706895,
,,,,,,,,,,,,1,0,1,0,107,0,107,0,,,,,,,107,,,0.2,8261.364127515117,Y,l,go,l,1,0.3355963029898703,,,,,,,,,,,,,,,,,,92,001,25,weiblich,Psychologie,2023-02-07_08h58.44.336,00_bat_bachelor,2022.2.4,59.97487597706895,
,,,,,,,,,,,,1,0,1,0,108,0,108,0,,,,,,,108,,,0.2,8262.014624969685,X,d,go,d,1,0.37356139393523335,,,,,,,,,,,,,,,,,,92,001,25,weiblich,Psychologie,2023-02-07_08h58.44.336,00_bat_bachelor,2022.2.4,59.97487597706895,
,,,,,,,,,,,,1,0,1,0,109,0,109,0,,,,,,,109,,,0.2,8262.698535757605,Y,l,go,l,1,0.6014692727476358,,,,,,,,,,,,,,,,,,92,001,25,weiblich,Psychologie,2023-02-07_08h58.44.336,00_bat_bachelor,2022.2.4,59.97487597706895,
,,,,,,,,,,,,1,0,1,0,110,0,110,0,,,,,,,110,,,0.2,8263.61577357573,X,d,go,d,1,0.403915818198584,,,,,,,,,,,,,,,,,,92,001,25,weiblich,Psychologie,2023-02-07_08h58.44.336,00_bat_bachelor,2022.2.4,59.97487597706895,
,,,,,,,,,,,,1,0,1,0,111,0,111,0,,,,,,,111,,,0.2,8264.333054060582,X,None,nogo,None,1,,8265.133449696936,,,,,,,,,,,,,,,,,92,001,25,weiblich,Psychologie,2023-02-07_08h58.44.336,00_bat_bachelor,2022.2.4,59.97487597706895,
,,,,,,,,,,,,1,0,1,0,112,0,112,0,,,,,,,112,,,0.2,8265.333549090894,Y,l,go,l,1,0.33461739402264357,,,,,,,,,,,,,,,,,,92,001,25,weiblich,Psychologie,2023-02-07_08h58.44.336,00_bat_bachelor,2022.2.4,59.97487597706895,
,,,,,,,,,,,,1,0,1,0,113,0,113,0,,,,,,,113,,,0.2,8265.984110545483,X,d,go,d,1,0.40400163643062115,,,,,,,,,,,,,,,,,,92,001,25,weiblich,Psychologie,2023-02-07_08h58.44.336,00_bat_bachelor,2022.2.4,59.97487597706895,
,,,,,,,,,,,,1,0,1,0,114,0,114,0,,,,,,,114,,,0.2,8266.701369212125,X,None,nogo,None,1,,,,,,,,,,,,,,,,,,,92,001,25,weiblich,Psychologie,2023-02-07_08h58.44.336,00_bat_bachelor,2022.2.4,59.97487597706895,
,,,,,,,,,,,,1,0,1,0,115,0,115,0,,,,,,,115,,,0.2,8267.702340848511,Y,l,go,l,1,0.25354103033896536,,,,,,,,,,,,,,,,,,92,001,25,weiblich,Psychologie,2023-02-07_08h58.44.336,00_bat_bachelor,2022.2.4,59.97487597706895,
,,,,,,,,,,,,1,0,1,0,116,0,116,0,,,,,,,116,,,0.2,8268.269473454566,X,d,go,d,1,0.37481521209701896,,,,,,,,,,,,,,,,,,92,001,25,weiblich,Psychologie,2023-02-07_08h58.44.336,00_bat_bachelor,2022.2.4,59.97487597706895,
,,,,,,,,,,,,1,0,1,0,117,0,117,0,,,,,,,117,,,0.2,8268.95328145451,Y,l,go,l,1,0.5547512121265754,,,,,,,,,,,,,,,,,,92,001,25,weiblich,Psychologie,2023-02-07_08h58.44.336,00_bat_bachelor,2022.2.4,59.97487597706895,
,,,,,,,,,,,,1,0,1,0,118,0,118,0,,,,,,,118,,,0.2,8269.820678303018,Y,None,nogo,None,1,,,,,,,,,,,,,,,,,,,92,001,25,weiblich,Psychologie,2023-02-07_08h58.44.336,00_bat_bachelor,2022.2.4,59.97487597706895,
,,,,,,,,,,,,1,0,1,0,119,0,119,0,,,,,,,119,,,0.2,8270.82132703031,X,d,go,d,1,0.3344821211649105,,,,,,,,,,,,,,,,,,92,001,25,weiblich,Psychologie,2023-02-07_08h58.44.336,00_bat_bachelor,2022.2.4,59.97487597706895,
,,,,,,,,,,,,1,0,1,0,120,0,120,0,,,,,,,120,,,0.2,8271.4719190303,Y,l,go,l,1,0.30860818189103156,,,,,,,,,,,,,,,,,,92,001,25,weiblich,Psychologie,2023-02-07_08h58.44.336,00_bat_bachelor,2022.2.4,59.97487597706895,
,,,,,,,,,,,,1,0,1,0,121,0,121,0,,,,,,,121,,,0.2,8272.08905939397,X,d,go,d,1,0.4428690302884206,,,,,,,,,,,,,,,,,,92,001,25,weiblich,Psychologie,2023-02-07_08h58.44.336,00_bat_bachelor,2022.2.4,59.97487597706895,
,,,,,,,,,,,,1,0,1,0,122,0,122,0,,,,,,,122,,,0.2,8272.839455030276,X,None,nogo,None,1,,,,,,,,,,,,,,,,,,,92,001,25,weiblich,Psychologie,2023-02-07_08h58.44.336,00_bat_bachelor,2022.2.4,59.97487597706895,
,,,,,,,,,,,,1,0,1,0,123,0,123,0,,,,,,,123,,,0.2,8273.84035296971,Y,l,go,l,1,0.21181690914090723,,,,,,,,,,,,,,,,,,92,001,25,weiblich,Psychologie,2023-02-07_08h58.44.336,00_bat_bachelor,2022.2.4,59.97487597706895,
,,,,,,,,,,,,1,0,1,0,124,0,124,0,,,,,,,124,,,0.2,8274.358069333364,X,d,go,d,1,0.2694081818917766,,,,,,,,,,,,,,,,,,92,001,25,weiblich,Psychologie,2023-02-07_08h58.44.336,00_bat_bachelor,2022.2.4,59.97487597706895,
,,,,,,,,,,,,1,0,1,0,125,0,125,0,,,,,,,125,,,0.2,8274.974954181816,X,None,nogo,None,1,,8275.775930666714,,,,,,,,,,,,,,,,,92,001,25,weiblich,Psychologie,2023-02-07_08h58.44.336,00_bat_bachelor,2022.2.4,59.97487597706895,
,,,,,,,,,,,,1,0,1,0,126,0,126,0,,,,,,,126,,,0.2,8275.975947636412,Y,l,go,l,1,0.2839129091007635,,,,,,,,,,,,,,,,,,92,001,25,weiblich,Psychologie,2023-02-07_08h58.44.336,00_bat_bachelor,2022.2.4,59.97487597706895,
,,,,,,,,,,,,1,0,1,0,127,0,127,0,,,,,,,127,,,0.2,8276.593151999987,X,d,go,d,1,0.2899953332962468,,,,,,,,,,,,,,,,,,92,001,25,weiblich,Psychologie,2023-02-07_08h58.44.336,00_bat_bachelor,2022.2.4,59.97487597706895,
,,,,,,,,,,,,1,0,1,0,128,0,128,0,,,,,,,128,,,0.2,8277.21031466662,X,None,nogo,None,1,,8278.010773818125,,,,,,,,,,,,,,,,,92,001,25,weiblich,Psychologie,2023-02-07_08h58.44.336,00_bat_bachelor,2022.2.4,59.97487597706895,
,,,,,,,,,,,,1,0,1,0,129,0,129,0,,,,,,,129,,,0.2,8278.211133090896,Y,l,go,l,1,0.2083541211904958,,,,,,,,,,,,,,,,,,92,001,25,weiblich,Psychologie,2023-02-07_08h58.44.336,00_bat_bachelor,2022.2.4,59.97487597706895,
,,,,,,,,,,,,1,0,1,0,130,0,130,0,,,,,,,130,,,0.2,8278.761440969654,X,d,go,d,1,0.31430563633330166,,,,,,,,,,,,,,,,,,92,001,25,weiblich,Psychologie,2023-02-07_08h58.44.336,00_bat_bachelor,2022.2.4,59.97487597706895,
,,,,,,,,,,,,1,0,1,0,131,0,131,0,,,,,,,131,,,0.2,8279.41154763638,Y,l,go,l,1,0.4164234546478838,,,,,,,,,,,,,,,,,,92,001,25,weiblich,Psychologie,2023-02-07_08h58.44.336,00_bat_bachelor,2022.2.4,59.97487597706895,
,,,,,,,,,,,,1,0,1,0,132,0,132,0,,,,,,,132,,,0.2,8280.128551757545,Y,None,nogo,None,1,,8280.92916606064,,,,,,,,,,,,,,,,,92,001,25,weiblich,Psychologie,2023-02-07_08h58.44.336,00_bat_bachelor,2022.2.4,59.97487597706895,
,,,,,,,,,,,,1,0,1,0,133,0,133,0,,,,,,,133,,,0.2,8281.129487030325,X,d,go,d,1,0.20262903033290058,,,,,,,,,,,,,,,,,,92,001,25,weiblich,Psychologie,2023-02-07_08h58.44.336,00_bat_bachelor,2022.2.4,59.97487597706895,
,,,,,,,,,,,,1,0,1,0,134,0,134,0,,,,,,,134,,,0.2,8281.646552242455,Y,l,go,l,1,0.5009039393626153,,,,,,,,,,,,,,,,,,92,001,25,weiblich,Psychologie,2023-02-07_08h58.44.336,00_bat_bachelor,2022.2.4,59.97487597706895,
,,,,,,,,,,,,1,0,1,0,135,0,135,0,,,,,,,135,,,0.2,8282.447320242412,Y,None,nogo,l,0,0.45253303030040115,,,,,,,,,,,,,,,,,,92,001,25,weiblich,Psychologie,2023-02-07_08h58.44.336,00_bat_bachelor,2022.2.4,59.97487597706895,
,,,,,,,,,,,,1,0,1,0,136,0,136,0,,,,,,,136,,,0.2,8283.214446545462,X,d,go,d,1,0.5979395757894963,,,,,,,,,,,,,,,,,,92,001,25,weiblich,Psychologie,2023-02-07_08h58.44.336,00_bat_bachelor,2022.2.4,59.97487597706895,
,,,,,,,,,,,,1,0,1,0,137,0,137,0,,,,,,,137,,,0.2,8284.114776727278,Y,l,go,l,1,0.5925276969792321,,,,,,,,,,,,,,,,,,92,001,25,weiblich,Psychologie,2023-02-07_08h58.44.336,00_bat_bachelor,2022.2.4,59.97487597706895,
,,,,,,,,,,,,1,0,1,0,138,0,138,0,,,,,,,138,,,0.2,8285.015438545495,X,d,go,d,1,0.3977146060205996,,,,,,,,,,,,,,,,,,92,001,25,weiblich,Psychologie,2023-02-07_08h58.44.336,00_bat_bachelor,2022.2.4,59.97487597706895,
,,,,,,,,,,,,1,0,1,0,139,0,139,0,,,,,,,139,,,0.2,8285.716094545438,Y,l,go,None,0,,,,,,,,,,,,,,,,,,,92,001,25,weiblich,Psychologie,2023-02-07_08h58.44.336,00_bat_bachelor,2022.2.4,59.97487597706895,
,,,,,,,,,,,,1,0,1,0,140,0,140,0,,,,,,,140,,,0.2,8286.716875636368,X,d,go,d,1,0.663814484840259,,,,,,,,,,,,,,,,,,92,001,25,weiblich,Psychologie,2023-02-07_08h58.44.336,00_bat_bachelor,2022.2.4,59.97487597706895,
,,,,,,,,,,,,1,0,1,0,141,0,141,0,,,,,,,141,,,0.2,8287.684057212085,X,None,nogo,l,0,0.4645466060610488,,,,,,,,,,,,,,,,,,92,001,25,weiblich,Psychologie,2023-02-07_08h58.44.336,00_bat_bachelor,2022.2.4,59.97487597706895,
,,,,,,,,,,,,1,0,1,0,142,0,142,0,,,,,,,142,,,0.2,8288.45120000001,Y,l,go,None,0,,8289.252090666676,,,,,,,,,,,,,,,,,92,001,25,weiblich,Psychologie,2023-02-07_08h58.44.336,00_bat_bachelor,2022.2.4,59.97487597706895,
,,,,,,,,,,,,1,0,1,0,143,0,143,0,,,,,,,143,,,0.2,8289.451936484897,X,d,go,d,1,0.5993912121048197,,,,,,,,,,,,,,,,,,92,001,25,weiblich,Psychologie,2023-02-07_08h58.44.336,00_bat_bachelor,2022.2.4,59.97487597706895,
,,,,,,,,,,,,1,0,1,0,144,0,144,0,,,,,,,144,,,0.2,8290.35301090905,Y,l,go,None,0,,,,,,,,,,,,,,,,,,,92,001,25,weiblich,Psychologie,2023-02-07_08h58.44.336,00_bat_bachelor,2022.2.4,59.97487597706895,
,,,,,,,,,,,,1,0,1,0,145,0,145,0,,,,,,,145,,,0.2,8291.353767272783,X,d,go,d,1,0.44320696976501495,,,,,,,,,,,,,,,,,,92,001,25,weiblich,Psychologie,2023-02-07_08h58.44.336,00_bat_bachelor,2022.2.4,59.97487597706895,
,,,,,,,,,,,,1,0,1,0,146,0,146,0,,,,,,,146,,,0.2,8292.104101818171,X,None,nogo,None,1,,,,,,,,,,,,,,,,,,,92,001,25,weiblich,Psychologie,2023-02-07_08h58.44.336,00_bat_bachelor,2022.2.4,59.97487597706895,
,,,,,,,,,,,,1,0,1,0,147,0,147,0,,,,,,,147,,,0.2,8293.105058909045,Y,l,go,l,1,0.29162539390381426,,,,,,,,,,,,,,,,,,92,001,25,weiblich,Psychologie,2023-02-07_08h58.44.336,00_bat_bachelor,2022.2.4,59.97487597706895,
,,,,,,,,,,,,1,0,1,0,148,0,148,0,,,,,,,148,,,0.2,8293.705455030315,X,d,go,d,1,0.5068971515865996,,,,,,,,,,,,,,,,,,92,001,25,weiblich,Psychologie,2023-02-07_08h58.44.336,00_bat_bachelor,2022.2.4,59.97487597706895,
,,,,,,,,,,,,1,0,1,0,149,0,149,0,,,,,,,149,,,0.2,8294.522650181782,X,None,nogo,None,1,,,,,,,,,,,,,,,,,,,92,001,25,weiblich,Psychologie,2023-02-07_08h58.44.336,00_bat_bachelor,2022.2.4,59.97487597706895,
,,,,,,,,,,,,1,0,1,0,150,0,150,0,,,,,,,150,,,0.2,8295.523498666706,Y,l,go,l,1,0.36791145452298224,,,,,,,,,,,,,,,,,,92,001,25,weiblich,Psychologie,2023-02-07_08h58.44.336,00_bat_bachelor,2022.2.4,59.97487597706895,
,,,,,,,,,,,,1,0,1,0,151,0,151,0,,,,,,,151,,,0.2,8296.207418181817,X,d,go,None,0,,,,,,,,,,,,,,,,,,,92,001,25,weiblich,Psychologie,2023-02-07_08h58.44.336,00_bat_bachelor,2022.2.4,59.97487597706895,
,,,,,,,,,,,,1,0,1,0,152,0,152,0,,,,,,,152,,,0.2,8297.208096484886,Y,l,go,None,0,,,,,,,,,,,,,,,,,,,92,001,25,weiblich,Psychologie,2023-02-07_08h58.44.336,00_bat_bachelor,2022.2.4,59.97487597706895,
,,,,,,,,,,,,1,0,1,0,153,0,153,0,,,,,,,153,,,0.2,8298.20888969698,X,d,go,d,1,0.4190009090816602,,,,,,,,,,,,,,,,,,92,001,25,weiblich,Psychologie,2023-02-07_08h58.44.336,00_bat_bachelor,2022.2.4,59.97487597706895,
,,,,,,,,,,,,1,0,1,0,154,0,154,0,,,,,,,154,,,0.2,8298.942809697008,X,None,nogo,None,1,,,,,,,,,,,,,,,,,,,92,001,25,weiblich,Psychologie,2023-02-07_08h58.44.336,00_bat_bachelor,2022.2.4,59.97487597706895,
,,,,,,,,,,,,1,0,1,0,155,0,155,0,,,,,,,155,,,0.2,8299.943360969657,Y,l,go,d,0,0.23665909096598625,,,,,,,,,,,,,,,,,,92,001,25,weiblich,Psychologie,2023-02-07_08h58.44.336,00_bat_bachelor,2022.2.4,59.97487597706895,
,,,,,,,,,,,,1,0,1,0,156,0,156,0,,,,,,,156,,,0.2,8300.494037333294,X,d,go,None,0,,,,,,,,,,,,,,,,,,,92,001,25,weiblich,Psychologie,2023-02-07_08h58.44.336,00_bat_bachelor,2022.2.4,59.97487597706895,
,,,,,,,,,,,,1,0,1,0,157,0,157,0,,,,,,,157,,,0.2,8301.49448436359,Y,l,go,l,1,0.5588331514736637,,,,,,,,,,,,,,,,,,92,001,25,weiblich,Psychologie,2023-02-07_08h58.44.336,00_bat_bachelor,2022.2.4,59.97487597706895,
,,,,,,,,,,,,1,0,1,0,158,0,158,0,,,,,,,158,,,0.2,8302.362134787836,Y,None,nogo,None,1,,,,,,,,,,,,,,,,,,,92,001,25,weiblich,Psychologie,2023-02-07_08h58.44.336,00_bat_bachelor,2022.2.4,59.97487597706895,
,,,,,,,,,,,,1,0,1,0,159,0,159,0,,,,,,,159,,,0.2,8303.362815515138,X,d,go,d,1,0.3532506061019376,,,,,,,,,,,,,,,,,,92,001,25,weiblich,Psychologie,2023-02-07_08h58.44.336,00_bat_bachelor,2022.2.4,59.97487597706895,
,,,,,,,,,,,,1,0,1,0,160,0,160,0,,,,,,,160,,,0.2,8304.030049939407,Y,l,go,l,1,0.5177606666693464,,,,,,,,,,,,,,,,,,92,001,25,weiblich,Psychologie,2023-02-07_08h58.44.336,00_bat_bachelor,2022.2.4,59.97487597706895,
,,,,,,,,,,,,1,0,1,0,161,0,161,0,,,,,,,161,,,0.2,8304.86398787878,X,d,go,d,1,0.5480346061522141,,,,,,,,,,,,,,,,,,92,001,25,weiblich,Psychologie,2023-02-07_08h58.44.336,00_bat_bachelor,2022.2.4,59.97487597706895,
,,,,,,,,,,,,1,0,1,0,162,0,162,0,,,,,,,162,,,0.2,8305.714543999988,X,None,nogo,l,0,0.5137490303022787,,,,,,,,,,,,,,,,,,92,001,25,weiblich,Psychologie,2023-02-07_08h58.44.336,00_bat_bachelor,2022.2.4,59.97487597706895,
,,,,,,,,,,,,1,0,1,0,163,0,163,0,,,,,,,163,,,0.2,8306.53166303027,Y,l,go,l,1,0.5125383636914194,,,,,,,,,,,,,,,,,,92,001,25,weiblich,Psychologie,2023-02-07_08h58.44.336,00_bat_bachelor,2022.2.4,59.97487597706895,
,,,,,,,,,,,,1,0,1,0,164,0,164,0,,,,,,,164,,,0.2,8307.349279999966,X,d,go,d,1,0.6388050303794444,,,,,,,,,,,,,,,,,,92,001,25,weiblich,Psychologie,2023-02-07_08h58.44.336,00_bat_bachelor,2022.2.4,59.97487597706895,
,,,,,,,,,,,,1,0,1,0,165,0,165,0,,,,,,,165,,,0.2,8308.29967369698,Y,l,go,l,1,0.45704115158878267,,,,,,,,,,,,,,,,,,92,001,25,weiblich,Psychologie,2023-02-07_08h58.44.336,00_bat_bachelor,2022.2.4,59.97487597706895,
,,,,,,,,,,,,1,0,1,0,166,0,166,0,,,,,,,166,,,0.2,8309.066899393918,Y,None,nogo,None,1,,8309.867843393935,,,,,,,,,,,,,,,,,92,001,25,weiblich,Psychologie,2023-02-07_08h58.44.336,00_bat_bachelor,2022.2.4,59.97487597706895,
,,,,,,,,,,,,1,0,1,0,167,0,167,0,,,,,,,167,,,0.2,8310.068025697023,X,d,go,d,1,0.4477310908259824,,,,,,,,,,,,,,,,,,92,001,25,weiblich,Psychologie,2023-02-07_08h58.44.336,00_bat_bachelor,2022.2.4,59.97487597706895,
,,,,,,,,,,,,1,0,1,0,168,0,168,0,,,,,,,168,,,0.2,8310.818439272698,Y,l,go,None,0,,8311.619160727249,,,,,,,,,,,,,,,,,92,001,25,weiblich,Psychologie,2023-02-07_08h58.44.336,00_bat_bachelor,2022.2.4,59.97487597706895,
,,,,,,,,,,,,1,0,1,0,169,0,169,0,,,,,,,169,,,0.2,8311.819360484835,Y,None,nogo,None,1,,,,,,,,,,,,,,,,,,,92,001,25,weiblich,Psychologie,2023-02-07_08h58.44.336,00_bat_bachelor,2022.2.4,59.97487597706895,
,,,,,,,,,,,,1,0,1,0,170,0,170,0,,,,,,,170,,,0.2,8312.820101333316,X,d,go,None,0,,8313.620706909103,,,,,,,,,,,,,,,,,92,001,25,weiblich,Psychologie,2023-02-07_08h58.44.336,00_bat_bachelor,2022.2.4,59.97487597706895,
,,,,,,,,,,,,1,0,1,0,171,0,171,0,,,,,,,171,,,0.2,8313.820693333284,Y,l,go,l,1,0.3441723029827699,,,,,,,,,,,,,,,,,,92,001,25,weiblich,Psychologie,2023-02-07_08h58.44.336,00_bat_bachelor,2022.2.4,59.97487597706895,
,,,,,,,,,,,,1,0,1,0,172,0,172,0,,,,,,,172,,,0.2,8314.471016242402,X,d,go,d,1,0.3647909697610885,,,,,,,,,,,,,,,,,,92,001,25,weiblich,Psychologie,2023-02-07_08h58.44.336,00_bat_bachelor,2022.2.4,59.97487597706895,
,,,,,,,,,,,,1,0,1,0,173,0,173,0,,,,,,,173,,,0.2,8315.138544484857,Y,l,go,l,1,0.3855725454632193,,,,,,,,,,,,,,,,,,92,001,25,weiblich,Psychologie,2023-02-07_08h58.44.336,00_bat_bachelor,2022.2.4,59.97487597706895,
,,,,,,,,,,,,1,0,1,0,174,0,174,0,,,,,,,174,,,0.2,8315.8390690909,X,d,go,d,1,0.5646498787682503,,,,,,,,,,,,,,,,,,92,001,25,weiblich,Psychologie,2023-02-07_08h58.44.336,00_bat_bachelor,2022.2.4,59.97487597706895,
,,,,,,,,,,,,1,0,1,0,175,0,175,0,,,,,,,175,,,0.2,8316.706292363582,X,None,nogo,l,0,0.3858295150566846,,,,,,,,,,,,,,,,,,92,001,25,weiblich,Psychologie,2023-02-07_08h58.44.336,00_bat_bachelor,2022.2.4,59.97487597706895,
,,,,,,,,,,,,1,0,1,0,176,0,176,0,,,,,,,176,,,0.2,8317.40695563634,Y,l,go,l,1,0.42068915150593966,,,,,,,,,,,,,,,,,,92,001,25,weiblich,Psychologie,2023-02-07_08h58.44.336,00_bat_bachelor,2022.2.4,59.97487597706895,
,,,,,,,,,,,,1,0,1,0,177,0,177,0,,,,,,,177,,,0.2,8318.140730666695,X,d,go,d,1,0.5349398182006553,,,,,,,,,,,,,,,,,,92,001,25,weiblich,Psychologie,2023-02-07_08h58.44.336,00_bat_bachelor,2022.2.4,59.97487597706895,
,,,,,,,,,,,,1,0,1,0,178,0,178,0,,,,,,,178,,,0.2,8318.991412363597,Y,l,go,l,1,0.38877060601953417,,,,,,,,,,,,,,,,,,92,001,25,weiblich,Psychologie,2023-02-07_08h58.44.336,00_bat_bachelor,2022.2.4,59.97487597706895,
,,,,,,,,,,,,1,0,1,0,179,0,179,0,,,,,,,179,,,0.2,8319.692048969679,Y,None,nogo,d,0,0.42488793935626745,,,,,,,,,,,,,,,,,,92,001,25,weiblich,Psychologie,2023-02-07_08h58.44.336,00_bat_bachelor,2022.2.4,59.97487597706895,
,,,,,,,,,,,,1,0,1,0,180,0,180,0,,,,,,,180,,,0.2,8320.425908363657,X,d,go,None,0,,,,,,,,,,,,,,,,,,,92,001,25,weiblich,Psychologie,2023-02-07_08h58.44.336,00_bat_bachelor,2022.2.4,59.97487597706895,
,,,,,,,,,,,,1,0,1,0,181,0,181,0,,,,,,,181,,,0.2,8321.426385939354,Y,l,go,None,0,,,,,,,,,,,,,,,,,,,92,001,25,weiblich,Psychologie,2023-02-07_08h58.44.336,00_bat_bachelor,2022.2.4,59.97487597706895,
,,,,,,,,,,,,1,0,1,0,182,0,182,0,,,,,,,182,,,0.2,8322.427476848476,Y,None,nogo,None,1,,,,,,,,,,,,,,,,,,,92,001,25,weiblich,Psychologie,2023-02-07_08h58.44.336,00_bat_bachelor,2022.2.4,59.97487597706895,
,,,,,,,,,,,,1,0,1,0,183,0,183,0,,,,,,,183,,,0.2,8323.428076121258,X,d,go,d,1,0.16115751513279974,,,,,,,,,,,,,,,,,,92,001,25,weiblich,Psychologie,2023-02-07_08h58.44.336,00_bat_bachelor,2022.2.4,59.97487597706895,
,,,,,,,,,,,,1,0,1,0,184,0,184,0,,,,,,,184,,,0.2,8323.894877575804,Y,l,go,l,1,0.637167212087661,,,,,,,,,,,,,,,,,,92,001,25,weiblich,Psychologie,2023-02-07_08h58.44.336,00_bat_bachelor,2022.2.4,59.97487597706895,
,,,,,,,,,,,,1,0,1,0,185,0,185,0,,,,,,,185,,,0.2,8324.845880242414,X,d,go,d,1,0.4227987272897735,,,,,,,,,,,,,,,,,,92,001,25,weiblich,Psychologie,2023-02-07_08h58.44.336,00_bat_bachelor,2022.2.4,59.97487597706895,
